File: remote_trans/data/nanoindenter/0828-1/data/Data_2025-08-06,11h17m57s/2025-07-22_16-23-58_1_661.txt
2025-07-22, 16:23:58, 1
Index	Phase	Displacement	Time	Pos X	Pos Y	Pos Z	Rot A	Rot B	Piezo Z	Force A	Force B	Gripper	Voltage A	Voltage B	Temperature	Amplitude force	Amplitude pos	Stiffness	Phase shift	Phase excitation	Force A raw	Displacement raw	HMax	HMax raw	Real Force	Real Stiffness	Contact Depth	Area	Hardness	Reduced Mod.
[#]	[#]	[um]	[s]	[um]	[um]	[um]	[m°]	[m°]	[um]	[uN]	[uN]	[V]	[V]	[V]	[°C]	[uN]	[um]	[N/m]	[°]	[°]	[uN]	[um]	[um]	[um]	[uN]	[N/m]	[um]	[um^2]	[MPa]	[MPa]
661	1.000000	0.002240	7.37152e+06	-44039.1	1005.82	-29776.9	0.000000	0.000000	6.002792	0.063031	NaN	0.000000	0.001623	0.001725	28.0837	0.062613	0.000830	75.4176	119.367	-166.474	0.018609	0.001005	-1.172449	-1.173685	0.063031	75.4176	-1.173076	-4.787405E+15	-1.316594E-17	NaN
661	1.000000	0.012296	7.37152e+06	-44039.1	1005.82	-29776.9	0.000000	0.000000	6.012845	0.012768	NaN	0.000000	0.001659	0.001705	28.0831	0.078001	0.001163	67.0967	-159.405	22.4101	0.095478	0.010874	-1.162394	-1.163815	0.012768	67.0967	-1.162536	-3.458308E+15	-3.692043E-18	NaN
661	1.000000	0.022225	7.37152e+06	-44039.1	1005.82	-29776.9	0.000000	0.000000	6.022778	0.102207	NaN	0.000000	0.001611	0.001716	28.0832	0.104484	0.001728	60.4501	113.448	-163.575	0.076261	0.020959	-1.152465	-1.153730	0.102207	60.4501	-1.153733	-2.635477E+15	-3.878134E-17	NaN
661	1.000000	0.032198	7.37152e+06	-44039.1	1005.82	-29776.9	0.000000	0.000000	6.032749	0.050326	NaN	0.000000	0.001671	0.001660	28.0831	0.078423	0.001790	43.8053	-17.9047	15.205	0.028964	0.030856	-1.142491	-1.143833	0.050326	43.8053	-1.143353	-1.912935E+15	-2.630840E-17	NaN
661	1.000000	0.042218	7.37152e+06	-44039.1	1005.82	-29776.9	0.000000	0.000000	6.042768	0.010490	NaN	0.000000	0.001643	0.001702	28.0833	0.096263	0.002048	46.9924	53.549	-168.307	0.016262	0.040980	-1.132471	-1.133709	0.010490	46.9924	-1.132638	-1.374076E+15	-7.633936E-18	NaN
661	1.000000	0.052199	7.37152e+06	-44039.1	1005.82	-29776.9	0.000000	0.000000	6.052750	0.048962	NaN	0.000000	0.001614	0.001704	28.0836	0.076674	0.002042	37.5477	-122.97	16.3204	0.073092	0.050844	-1.122491	-1.123846	0.048962	37.5477	-1.123469	-1.035158E+15	-4.729861E-17	NaN
661	1.000000	0.062199	7.37152e+06	-44039.1	1005.82	-29776.9	0.000000	0.000000	6.062750	0.050790	NaN	0.000000	0.001702	0.001730	28.0841	0.096782	0.002037	47.514	-74.6936	-165.772	0.072362	0.060860	-1.112491	-1.113830	0.050790	47.514	-1.113292	-7.559081E+14	-6.719006E-17	NaN
661	1.000000	0.072203	7.37152e+06	-44039.1	1005.82	-29776.9	0.000000	0.000000	6.072754	0.056918	NaN	0.000000	0.001671	0.001701	28.0834	0.114647	0.001959	58.5249	53.031	14.8379	0.103556	0.070871	-1.102487	-1.103818	0.056918	58.5249	-1.103216	-5.536551E+14	-1.028047E-16	NaN
661	1.000000	0.082185	7.37152e+06	-44039.1	1005.82	-29776.9	0.000000	0.000000	6.082735	0.017718	NaN	0.000000	0.001619	0.001734	28.0835	0.038820	0.002206	17.5959	22.4515	-168.755	0.028022	0.080926	-1.092504	-1.093764	0.017718	17.5959	-1.093260	-4.069853E+14	-4.353595E-17	NaN
661	1.000000	0.092188	7.37152e+06	-44039.1	1005.82	-29776.9	0.000000	0.000000	6.092740	0.073354	NaN	0.000000	0.001686	0.001718	28.0835	0.023559	0.002009	11.7291	37.0522	14.8752	0.049958	0.090866	-1.082501	-1.083823	0.073354	11.7291	-1.087191	-3.373637E+14	-2.174321E-16	NaN
661	1.000000	0.102217	7.37152e+06	-44039.1	1005.82	-29776.9	0.000000	0.000000	6.102766	0.002045	NaN	0.000000	0.001709	0.001719	28.0835	0.036499	0.001981	18.4205	-68.7316	-164.83	0.005250	0.100894	-1.072472	-1.073796	0.002045	18.4205	-1.072556	-2.145468E+14	-9.529501E-18	NaN
661	1.000000	0.112206	7.37152e+06	-44039.1	1005.82	-29776.9	0.000000	0.000000	6.112759	0.094861	NaN	0.000000	0.001695	0.001686	28.0833	0.036096	0.002063	17.4957	-168.826	14.4924	0.057883	0.110832	-1.062483	-1.063857	0.094861	17.4957	-1.066550	-1.781683E+14	-5.324235E-16	NaN
661	1.000000	0.122240	7.37152e+06	-44039.1	1005.82	-29776.9	0.000000	0.000000	6.122791	0.056122	NaN	0.000000	0.001681	0.001710	28.0843	0.049370	0.001922	25.6913	52.0023	-164.897	0.098912	0.120886	-1.052449	-1.053803	0.056122	25.6913	-1.054088	-1.211600E+14	-4.632089E-16	NaN
661	1.000000	0.132251	7.37152e+06	-44039.1	1005.82	-29776.9	0.000000	0.000000	6.132799	-0.029647	NaN	0.000000	0.001667	0.001679	28.0847	0.020095	0.002019	9.951543	-59.307	13.9813	0.038480	0.130891	-1.042438	-1.043799	-0.029647	9.951543	-1.040204	-7.883364E+13	3.760715E-16	NaN
661	1.000000	0.142245	7.37152e+06	-44039.1	1005.82	-29776.9	0.000000	0.000000	6.142795	0.033319	NaN	0.000000	0.001654	0.001711	28.0847	0.078409	0.002046	38.3183	-47.1189	-165.882	-0.006227	0.140932	-1.032445	-1.033757	0.033319	38.3183	-1.033097	-6.326080E+13	-5.266877E-16	NaN
661	1.000000	0.152248	7.37152e+06	-44039.1	1005.82	-29776.9	0.000000	0.000000	6.152795	-0.048407	NaN	0.000000	0.001655	0.001708	28.0845	0.106688	0.001930	55.2847	-0.469353	12.092	-0.045775	0.150828	-1.022441	-1.023861	-0.048407	55.2847	-1.021784	-4.456162E+13	1.086289E-15	NaN
661	1.000000	0.162230	7.37152e+06	-44039.1	1005.82	-29776.9	0.000000	0.000000	6.162782	0.083936	NaN	0.000000	0.001672	0.001709	28.0843	0.053663	0.002118	25.3401	-138.884	-168.438	0.046512	0.160962	-1.012459	-1.013727	0.083936	25.3401	-1.014944	-3.605083E+13	-2.328278E-15	NaN
661	1.000000	0.172236	7.37152e+06	-44039.1	1005.82	-29776.9	0.000000	0.000000	6.172787	0.057313	NaN	0.000000	0.001651	0.001730	28.0847	0.099863	0.001920	52.0098	162.89	11.4921	0.037103	0.170887	-1.002454	-1.003802	0.057313	52.0098	-1.003280	-2.511484E+13	-2.282033E-15	NaN
661	1.000000	0.182264	7.37152e+06	-44039.1	1005.82	-29776.9	0.000000	0.000000	6.182816	0.067752	NaN	0.000000	0.001652	0.001703	28.0849	0.122439	0.002012	60.8659	-105.379	-164.88	0.054023	0.180960	-0.992425	-0.993730	0.067752	60.8659	-0.993260	-1.840840E+13	-3.680513E-15	NaN
661	1.000000	0.192243	7.37152e+06	-44039.1	1005.82	-29776.9	0.000000	0.000000	6.192793	0.045125	NaN	0.000000	0.001614	0.001683	28.0845	0.044839	0.001887	23.7681	-97.1304	12.4489	-0.027228	0.190909	-0.982447	-0.983780	0.045125	23.7681	-0.983871	-1.375800E+13	-3.279900E-15	NaN
661	1.000000	0.202285	7.37152e+06	-44039.1	1005.82	-29776.9	0.000000	0.000000	6.202832	-0.042700	NaN	0.000000	0.001644	0.001692	28.0847	0.078620	0.002158	36.4332	119.947	-165.518	-0.010952	0.200986	-0.972405	-0.973704	-0.042700	36.4332	-0.971526	-9.380462E+12	4.552046E-15	NaN
661	1.000000	0.212264	7.37152e+06	-44039.1	1005.82	-29776.9	0.000000	0.000000	6.212813	0.008816	NaN	0.000000	0.001648	0.001660	28.0846	0.029039	0.002043	14.2125	85.6621	13.1996	0.013895	0.210878	-0.962426	-0.963811	0.008816	14.2125	-0.962891	-7.175340E+12	-1.228626E-15	NaN
661	1.000000	0.222300	7.37152e+06	-44039.1	1005.82	-29776.9	0.000000	0.000000	6.222853	0.112180	NaN	0.000000	0.001641	0.001697	28.0845	0.055821	0.001982	28.1608	-49.1904	-167.554	0.108342	0.220935	-0.952390	-0.953754	0.112180	28.1608	-0.955377	-5.682555E+12	-1.974120E-14	NaN
661	1.000000	0.232278	7.37152e+06	-44039.1	1005.82	-29776.9	0.000000	0.000000	6.232829	0.056619	NaN	0.000000	0.001643	0.001674	28.0843	0.040469	0.001899	21.3154	-104.059	11.7743	0.005276	0.230928	-0.942411	-0.943761	0.056619	21.3154	-0.944404	-4.041514E+12	-1.400927E-14	NaN
661	1.000000	0.242271	7.37152e+06	-44039.1	1005.82	-29776.9	0.000000	0.000000	6.242821	0.014956	NaN	0.000000	0.001634	0.001667	28.0843	0.018496	0.002068	8.942037	-151.468	-168.306	-0.013139	0.240965	-0.932418	-0.933725	0.014956	8.942037	-0.933673	-2.895759E+12	-5.164768E-15	NaN
661	1.000000	0.252299	7.37152e+06	-44039.1	1005.82	-29776.9	0.000000	0.000000	6.252850	0.067173	NaN	0.000000	0.001582	0.001679	28.0846	0.093928	0.002098	44.7706	-123.868	15.1627	0.004391	0.250903	-0.922391	-0.923786	0.067173	44.7706	-0.923516	-2.111897E+12	-3.180685E-14	NaN
661	1.000000	0.262245	7.37152e+06	-44039.1	1005.82	-29776.9	0.000000	0.000000	6.262793	-0.016288	NaN	0.000000	0.001616	0.001670	28.0829	0.042321	0.001957	21.6227	106.253	-166.972	0.012804	0.260997	-0.912444	-0.913692	-0.016288	21.6227	-0.911879	-1.470765E+12	1.107427E-14	NaN
661	1.000000	0.272279	7.37152e+06	-44039.1	1005.82	-29776.9	0.000000	0.000000	6.272832	0.105868	NaN	0.000000	0.001627	0.001688	28.083	0.008047	0.001978	4.069324	-40.3172	17.6776	0.191445	0.270924	-0.902411	-0.903766	0.105868	4.069324	-0.921923	-2.009863E+12	-5.267447E-14	NaN
661	1.000000	0.282270	7.37152e+06	-44039.1	1005.82	-29776.9	0.000000	0.000000	6.282820	0.045445	NaN	0.000000	0.001604	0.001671	28.0826	0.080017	0.002039	39.2354	167.461	-167.253	0.035709	0.281008	-0.892420	-0.893682	0.045445	39.2354	-0.893288	-8.248318E+11	-5.509583E-14	NaN
661	1.000000	0.292327	7.37152e+06	-44039.1	1005.82	-29776.9	0.000000	0.000000	6.292878	0.064701	NaN	0.000000	0.001544	0.001676	28.0831	0.022210	0.001921	11.5609	-83.708	12.049	0.156127	0.290950	-0.882363	-0.883740	0.064701	11.5609	-0.886560	-6.689807E+11	-9.671543E-14	NaN
661	1.000000	0.302310	7.37152e+06	-44039.1	1005.82	-29776.9	0.000000	0.000000	6.302862	0.064637	NaN	0.000000	0.001536	0.001665	28.0828	0.056530	0.001940	29.1381	58.2023	-168.321	0.070854	0.301023	-0.872379	-0.873666	0.064637	29.1381	-0.874043	-4.530429E+11	-1.426736E-13	NaN
661	1.000000	0.312312	7.37152e+06	-44039.1	1005.82	-29776.9	0.000000	0.000000	6.312863	0.051417	NaN	0.000000	0.001510	0.001654	28.0828	0.091048	0.001985	45.8649	-29.0355	7.038123	0.032954	0.310925	-0.862377	-0.863764	0.051417	45.8649	-0.863218	-3.233538E+11	-1.590121E-13	NaN
661	1.000000	0.322323	7.37152e+06	-44039.1	1005.82	-29776.9	0.000000	0.000000	6.322876	0.083706	NaN	0.000000	0.001528	0.001626	28.0829	0.046403	0.002030	22.8628	-94.1872	-166.517	-0.000863	0.321015	-0.852366	-0.853674	0.083706	22.8628	-0.855112	-2.511602E+11	-3.332762E-13	NaN
661	1.000000	0.332296	7.37152e+06	-44039.1	1005.82	-29776.9	0.000000	0.000000	6.332845	0.006904	NaN	0.000000	0.001546	0.001646	28.0832	0.018479	0.002028	9.110130	125.715	15.9706	-0.001073	0.330943	-0.842394	-0.843746	0.006904	9.110130	-0.842962	-1.719568E+11	-4.015012E-14	NaN
661	1.000000	0.342315	7.37152e+06	-44039.1	1005.82	-29776.9	0.000000	0.000000	6.342862	-0.031742	NaN	0.000000	0.001536	0.001648	28.0829	0.098881	0.001889	52.3397	42.9261	-164.694	-0.067695	0.341051	-0.832375	-0.833639	-0.031742	52.3397	-0.831920	-1.218437E+11	2.605120E-13	NaN
661	1.000000	0.352306	7.37152e+06	-44039.1	1005.82	-29776.9	0.000000	0.000000	6.352853	-0.048296	NaN	0.000000	0.001532	0.001611	28.0829	0.067487	0.002100	32.1302	130.246	12.6766	0.000982	0.350976	-0.822383	-0.823714	-0.048296	32.1302	-0.821256	-8.734496E+10	5.529374E-13	NaN
661	1.000000	0.362327	7.37152e+06	-44039.1	1005.82	-29776.9	0.000000	0.000000	6.362874	-0.040778	NaN	0.000000	0.001522	0.001655	28.083	0.054474	0.001965	27.7248	-176.45	-166.55	0.034363	0.361021	-0.812363	-0.813669	-0.040778	27.7248	-0.811260	-6.392373E+10	6.379210E-13	NaN
661	1.000000	0.372320	7.37152e+06	-44039.1	1005.82	-29776.9	0.000000	0.000000	6.372872	0.066038	NaN	0.000000	0.001554	0.001647	28.0831	0.021962	0.001910	11.5014	-100.764	12.823	0.030838	0.370974	-0.802369	-0.803716	0.066038	11.5014	-0.806676	-5.539417E+10	-1.192155E-12	NaN
661	1.000000	0.382327	7.37152e+06	-44039.1	1005.82	-29776.9	0.000000	0.000000	6.382879	0.074815	NaN	0.000000	0.001552	0.001653	28.083	0.020284	0.002057	9.859347	-19.5303	-165.718	0.051854	0.381052	-0.792362	-0.793637	0.074815	9.859347	-0.798053	-4.230950E+10	-1.768280E-12	NaN
661	1.000000	0.392308	7.37152e+06	-44039.1	1005.82	-29776.9	0.000000	0.000000	6.392857	0.007838	NaN	0.000000	0.001516	0.001678	28.0829	0.111626	0.001922	58.091	14.5681	15.5061	-0.030862	0.390987	-0.782382	-0.783703	0.007838	58.091	-0.782483	-2.599968E+10	-3.014622E-13	NaN
661	1.000000	0.402331	7.37152e+06	-44039.1	1005.82	-29776.9	0.000000	0.000000	6.402881	0.040232	NaN	0.000000	0.001543	0.001658	28.0845	0.033823	0.002048	16.515	127.637	-166.895	0.050201	0.401079	-0.772359	-0.773611	0.040232	16.515	-0.774186	-2.005432E+10	-2.006147E-12	NaN
661	1.000000	0.412340	7.37152e+06	-44039.1	1005.82	-29776.9	0.000000	0.000000	6.412888	-0.003481	NaN	0.000000	0.001551	0.001675	28.0843	0.065190	0.002072	31.4567	-178.473	17.1346	-0.036132	0.410978	-0.762350	-0.763711	-0.003481	31.4567	-0.762267	-1.380818E+10	2.521189E-13	NaN
661	1.000000	0.422349	7.37152e+06	-44039.1	1005.82	-29776.9	0.000000	0.000000	6.422899	0.038088	NaN	0.000000	0.001518	0.001700	28.0844	0.160513	0.002197	73.0551	14.3035	-167.244	0.045044	0.421035	-0.752341	-0.753654	0.038088	73.0551	-0.752732	-1.024241E+10	-3.718643E-12	NaN
661	1.000000	0.432354	7.37152e+06	-44039.1	1005.82	-29776.9	0.000000	0.000000	6.432905	0.066053	NaN	0.000000	0.001524	0.001717	28.0843	0.023606	0.001942	12.1561	38.8889	12.6717	0.087742	0.430994	-0.742336	-0.743695	0.066053	12.1561	-0.746411	-8.401566E+9	-7.861939E-12	NaN
661	1.000000	0.442331	7.37152e+06	-44039.1	1005.82	-29776.9	0.000000	0.000000	6.442880	5.790869E-5	NaN	0.000000	0.001526	0.001637	28.0845	0.048149	0.001890	25.473	118.71	-165.906	0.084963	0.440999	-0.732358	-0.733690	5.790869E-5	25.473	-0.732360	-5.407167E+9	-1.070962E-14	NaN
661	1.000000	0.452356	7.37152e+06	-44039.1	1005.82	-29776.9	0.000000	0.000000	6.452905	0.001465	NaN	0.000000	0.001564	0.001662	28.0846	0.153623	0.002099	73.1927	15.3286	14.7069	0.005526	0.450998	-0.722334	-0.723691	0.001465	73.1927	-0.722349	-3.949124E+9	-3.710714E-13	NaN
661	1.000000	0.462344	7.37152e+06	-44039.1	1005.82	-29776.9	0.000000	0.000000	6.462894	0.022922	NaN	0.000000	0.001532	0.001648	28.0844	0.096273	0.002061	46.7064	66.5618	-165.526	-0.005973	0.461013	-0.712346	-0.713676	0.022922	46.7064	-0.712714	-2.917962E+9	-7.855633E-12	NaN
661	1.000000	0.472402	7.37152e+06	-44039.1	1005.82	-29776.9	0.000000	0.000000	6.472953	0.037903	NaN	0.000000	0.001573	0.001651	28.0845	0.032515	0.001899	17.1238	-131.703	9.719956	0.030988	0.470962	-0.702287	-0.703727	0.037903	17.1238	-0.703947	-2.215270E+9	-1.710970E-11	NaN
661	1.000000	0.482396	7.37152e+06	-44039.1	1005.82	-29776.9	0.000000	0.000000	6.482950	0.106060	NaN	0.000000	0.001583	0.001650	28.0844	0.062543	0.001914	32.6828	111.67	-164.895	0.092807	0.481043	-0.692293	-0.693647	0.106060	32.6828	-0.694727	-1.657691E+9	-6.398048E-11	NaN
661	1.000000	0.492353	7.37152e+06	-44039.1	1005.82	-29776.9	0.000000	0.000000	6.492902	-0.006047	NaN	0.000000	0.001566	0.001680	28.0843	0.050097	0.002014	24.8685	134.399	15.8996	-0.001150	0.491080	-0.682336	-0.683609	-0.006047	24.8685	-0.682154	-1.115989E+9	5.418757E-12	NaN
661	1.000000	0.502365	7.37152e+06	-44039.1	1005.82	-29776.9	0.000000	0.000000	6.502914	0.009142	NaN	0.000000	0.001606	0.001663	28.0843	0.101228	0.002105	48.0901	-112.055	-171.013	0.076333	0.501082	-0.672324	-0.673608	0.009142	48.0901	-0.672467	-8.225269E+8	-1.111439E-11	NaN
661	1.000000	0.512392	7.37152e+06	-44039.1	1005.82	-29776.9	0.000000	0.000000	6.512943	0.049790	NaN	0.000000	0.001589	0.001657	28.0847	0.008367	0.001964	4.259894	-168.307	11.5703	0.091148	0.511072	-0.662297	-0.663617	0.049790	4.259894	-0.671063	-7.869377E+8	-6.327022E-11	NaN
661	1.000000	0.522412	7.37152e+06	-44039.1	1005.82	-29776.9	0.000000	0.000000	6.522961	0.015037	NaN	0.000000	0.001612	0.001681	28.0843	0.030587	0.001980	15.45	-42.9194	-166.455	0.009452	0.521104	-0.652278	-0.653585	0.015037	15.45	-0.653008	-4.453101E+8	-3.376769E-11	NaN
661	1.000000	0.532392	7.37152e+06	-44039.1	1005.82	-29776.9	0.000000	0.000000	6.532945	0.082173	NaN	0.000000	0.001610	0.001711	28.0832	0.058515	0.002070	28.2701	-111.503	14.4731	0.036016	0.531055	-0.642297	-0.643634	0.082173	28.2701	-0.644477	-3.401759E+8	-2.415591E-10	NaN
661	1.000000	0.542412	7.37152e+06	-44039.1	1005.82	-29776.9	0.000000	0.000000	6.542960	-0.003305	NaN	0.000000	0.001580	0.001697	28.0828	0.033324	0.001999	16.6694	-63.0693	-165.483	-0.031146	0.541153	-0.632278	-0.633537	-0.003305	16.6694	-0.632129	-2.302814E+8	1.435089E-11	NaN
661	1.000000	0.552420	7.37152e+06	-44039.1	1005.82	-29776.9	0.000000	0.000000	6.552974	0.101171	NaN	0.000000	0.001677	0.001720	28.0829	0.060895	0.002098	29.0242	-82.0571	13.6058	0.082109	0.551040	-0.622269	-0.623650	0.101171	29.0242	-0.624883	-1.831217E+8	-5.524809E-10	NaN
661	1.000000	0.562439	7.37152e+06	-44039.1	1005.82	-29776.9	0.000000	0.000000	6.562988	0.013039	NaN	0.000000	0.001654	0.001682	28.0828	0.038886	0.001969	19.7489	-81.7186	-163.476	-0.049469	0.561062	-0.612250	-0.613627	0.013039	19.7489	-0.612746	-1.247054E+8	-1.045558E-10	NaN
661	1.000000	0.572393	7.37152e+06	-44039.1	1005.82	-29776.9	0.000000	0.000000	6.572944	0.043306	NaN	0.000000	0.001673	0.001737	28.0827	0.047205	0.002064	22.8733	-97.4418	12.5811	0.114652	0.571028	-0.602297	-0.603661	0.043306	22.8733	-0.603716	-9.367754E+7	-4.622922E-10	NaN
661	1.000000	0.582430	7.37152e+06	-44039.1	1005.82	-29776.9	0.000000	0.000000	6.582983	0.078621	NaN	0.000000	0.001632	0.001673	28.0833	0.064007	0.002061	31.0614	-177.382	-163.478	0.023344	0.581071	-0.592259	-0.593618	0.078621	31.0614	-0.594157	-6.917820E+7	-1.136500E-9	NaN
661	1.000000	0.592410	7.37152e+06	-44039.1	1005.82	-29776.9	0.000000	0.000000	6.592961	0.047631	NaN	0.000000	0.001613	0.001657	28.0828	0.109465	0.001971	55.5505	-66.0423	14.2898	0.038056	0.591055	-0.582280	-0.583635	0.047631	55.5505	-0.582923	-4.842356E+7	-9.836359E-10	NaN
661	1.000000	0.602450	7.37152e+06	-44039.1	1005.82	-29776.9	0.000000	0.000000	6.603000	0.017819	NaN	0.000000	0.001646	0.001696	28.0832	0.077477	0.002044	37.9038	70.0429	-169.851	0.068686	0.601123	-0.572239	-0.573566	0.017819	37.9038	-0.572592	-3.486864E+7	-5.110266E-10	NaN
661	1.000000	0.612415	7.37152e+06	-44039.1	1005.82	-29776.9	0.000000	0.000000	6.612965	0.023902	NaN	0.000000	0.001660	0.001711	28.0829	0.023704	0.001935	12.2485	101.271	6.576503	-0.042564	0.611066	-0.562274	-0.563623	0.023902	12.2485	-0.563738	-2.630699E+7	-9.085912E-10	NaN
661	1.000000	0.622428	7.37152e+06	-44039.1	1005.82	-29776.9	0.000000	0.000000	6.622979	0.040207	NaN	0.000000	0.001691	0.001732	28.0831	0.016877	0.001885	8.954742	52.4953	-169.172	0.013287	0.621131	-0.552261	-0.553558	0.040207	8.954742	-0.555628	-2.031829E+7	-1.978872E-9	NaN
661	1.000000	0.632460	7.37152e+06	-44039.1	1005.82	-29776.9	0.000000	0.000000	6.633011	0.047409	NaN	0.000000	0.001656	0.001737	28.083	0.031748	0.001952	16.2666	-94.2241	12.9989	0.006321	0.631103	-0.542229	-0.543587	0.047409	16.2666	-0.544415	-1.420924E+7	-3.336519E-9	NaN
661	1.000000	0.642434	7.37152e+06	-44039.1	1005.82	-29776.9	0.000000	0.000000	6.642983	0.016526	NaN	0.000000	0.001678	0.001676	28.0829	0.092341	0.001959	47.1402	91.5677	-162.571	0.019968	0.641103	-0.532255	-0.533587	0.016526	47.1402	-0.532518	-9.71727e+06	-1.700717E-9	NaN
661	1.000000	0.652479	7.37152e+06	-44039.1	1005.82	-29776.9	0.000000	0.000000	6.653026	-0.059350	NaN	0.000000	0.001672	0.001694	28.0829	0.057946	0.001913	30.291	-18.5667	13.8303	0.045792	0.651101	-0.522210	-0.523589	-0.059350	30.291	-0.520740	-6.66645e+06	8.902861E-9	NaN
661	1.000000	0.662440	7.37152e+06	-44039.1	1005.82	-29776.9	0.000000	0.000000	6.662990	0.018606	NaN	0.000000	0.001661	0.001696	28.083	0.030545	0.002033	15.0263	170.362	-166.534	-0.011107	0.661148	-0.512249	-0.513542	0.018606	15.0263	-0.513178	-5.23201e+06	-3.556237E-9	NaN
661	1.000000	0.672464	7.37152e+06	-44039.1	1005.82	-29776.9	0.000000	0.000000	6.673015	0.037837	NaN	0.000000	0.001654	0.001676	28.0843	0.187316	0.002012	93.1173	167.314	12.5529	0.045032	0.671070	-0.502225	-0.503620	0.037837	93.1173	-0.502530	-3.71794e+06	-1.017700E-8	NaN
661	1.000000	0.682475	7.37152e+06	-44039.1	1005.82	-29776.9	0.000000	0.000000	6.683027	0.079491	NaN	0.000000	0.001635	0.001730	28.0843	0.084665	0.001932	43.8322	153.329	-169.911	0.129728	0.681154	-0.492214	-0.493535	0.079491	43.8322	-0.493575	-2.78824e+06	-2.850935E-8	NaN
661	1.000000	0.692480	7.37152e+06	-44039.1	1005.82	-29776.9	0.000000	0.000000	6.693028	-0.011429	NaN	0.000000	0.001613	0.001661	28.0844	0.081236	0.001928	42.1308	7.938921	15.7237	-0.077193	0.691152	-0.482210	-0.483538	-0.011429	42.1308	-0.482006	-1.92136e+06	5.948647E-9	NaN
661	1.000000	0.702471	7.37152e+06	-44039.1	1005.82	-29776.9	0.000000	0.000000	6.703022	0.054019	NaN	0.000000	0.001589	0.001657	28.0844	0.104862	0.001997	52.4989	-87.6533	-166.04	0.017202	0.701183	-0.472218	-0.473506	0.054019	52.4989	-0.472990	-1.43658e+06	-3.760244E-8	NaN
661	1.000000	0.712437	7.37152e+06	-44039.1	1005.82	-29776.9	0.000000	0.000000	6.712985	-0.012306	NaN	0.000000	0.001581	0.001668	28.0842	0.145685	0.001972	73.8749	-77.4953	13.239	-0.017526	0.711148	-0.462253	-0.463541	-0.012306	73.8749	-0.462128	-1.01138e+06	1.216715E-8	NaN
661	1.000000	0.722470	7.37152e+06	-44039.1	1005.82	-29776.9	0.000000	0.000000	6.723018	-0.020981	NaN	0.000000	0.001577	0.001670	28.0844	0.047692	0.002094	22.7741	-117.167	-166.971	-0.008749	0.721130	-0.452219	-0.453560	-0.020981	22.7741	-0.451528	-717562	2.923981E-8	NaN
661	1.000000	0.732493	7.37152e+06	-44039.1	1005.82	-29776.9	0.000000	0.000000	6.733043	0.014354	NaN	0.000000	0.001571	0.001684	28.0847	0.082163	0.002145	38.296	102.399	12.8081	0.055076	0.731154	-0.442196	-0.443536	0.014354	38.296	-0.442477	-534954	-2.683310E-8	NaN
661	1.000000	0.742509	7.37152e+06	-44039.1	1005.82	-29776.9	0.000000	0.000000	6.743056	-0.035225	NaN	0.000000	0.001576	0.001690	28.0846	0.078279	0.001998	39.1727	151.477	-166.448	-0.055243	0.741171	-0.432181	-0.433518	-0.035225	39.1727	-0.431506	-374428	9.407666E-8	NaN
661	1.000000	0.752493	7.37152e+06	-44039.1	1005.82	-29776.9	0.000000	0.000000	6.753044	0.033424	NaN	0.000000	0.001568	0.001677	28.0843	0.087284	0.002006	43.507	1.796070	9.941030	-0.043684	0.751104	-0.422196	-0.423585	0.033424	43.507	-0.422772	-281655	-1.186717E-7	NaN
661	1.000000	0.762488	7.37152e+06	-44039.1	1005.82	-29776.9	0.000000	0.000000	6.763037	0.013556	NaN	0.000000	0.001575	0.001654	28.0844	0.117041	0.001972	59.3446	135.284	-168.606	-0.032496	0.761238	-0.412202	-0.413452	0.013556	59.3446	-0.412373	-200510	-6.760645E-8	NaN
661	1.000000	0.772487	7.37152e+06	-44039.1	1005.82	-29776.9	0.000000	0.000000	6.773036	-0.004366	NaN	0.000000	0.001557	0.001677	28.0845	0.133037	0.001991	66.8144	37.1577	9.960382	-0.026817	0.771132	-0.402202	-0.403557	-0.004366	66.8144	-0.402153	-143446	3.043633E-8	NaN
661	1.000000	0.782468	7.37152e+06	-44039.1	1005.82	-29776.9	0.000000	0.000000	6.783019	0.031548	NaN	0.000000	0.001566	0.001666	28.0844	0.089583	0.002010	44.5742	165.253	-167.183	0.091233	0.781214	-0.392221	-0.393476	0.031548	44.5742	-0.392752	-105320	-2.995400E-7	NaN
661	1.000000	0.792516	7.37152e+06	-44039.1	1005.82	-29776.9	0.000000	0.000000	6.793066	0.032640	NaN	0.000000	0.001570	0.001677	28.0843	0.062703	0.001860	33.7122	168.919	15.0823	-0.003681	0.791156	-0.382173	-0.383534	0.032640	33.7122	-0.382900	-76116.9	-4.288183E-7	NaN
661	1.000000	0.802497	7.37152e+06	-44039.1	1005.82	-29776.9	0.000000	0.000000	6.803048	0.038322	NaN	0.000000	0.001587	0.001667	28.0851	0.039532	0.001998	19.7828	-121.922	-166.439	-0.012611	0.801223	-0.372192	-0.373466	0.038322	19.7828	-0.373645	-56051.7	-6.836887E-7	NaN
661	1.000000	0.812519	7.37152e+06	-44039.1	1005.82	-29776.9	0.000000	0.000000	6.813068	0.006415	NaN	0.000000	0.001574	0.001667	28.0835	0.130824	0.002051	63.7818	110.169	11.6198	0.030931	0.811150	-0.362170	-0.363539	0.006415	63.7818	-0.362246	-38396.7	-1.670643E-7	NaN
661	1.000000	0.822535	7.37152e+06	-44039.1	1005.82	-29776.9	0.000000	0.000000	6.823084	0.008560	NaN	0.000000	0.001582	0.001662	28.0832	0.021132	0.002067	10.2234	-4.433040	-164.754	-0.027957	0.821212	-0.352155	-0.353478	0.008560	10.2234	-0.352783	-28013.5	-3.055708E-7	NaN
661	1.000000	0.832518	7.37152e+06	-44039.1	1005.82	-29776.9	0.000000	0.000000	6.833067	-0.002827	NaN	0.000000	0.001569	0.001677	28.0831	0.044928	0.002119	21.1981	0.640667	14.9784	-0.031016	0.831182	-0.342171	-0.343507	-0.002827	21.1981	-0.342071	-19576.2	1.443943E-7	NaN
661	1.000000	0.842498	7.37152e+06	-44039.1	1005.82	-29776.9	0.000000	0.000000	6.843050	0.063133	NaN	0.000000	0.001566	0.001687	28.0834	0.064401	0.001920	33.535	51.715	-163.762	0.084056	0.841210	-0.332191	-0.333480	0.063133	33.535	-0.333603	-14728.9	-4.286343E-6	NaN
661	1.000000	0.852539	7.37152e+06	-44039.1	1005.82	-29776.9	0.000000	0.000000	6.853087	-0.032454	NaN	0.000000	0.001601	0.001736	28.0831	0.036184	0.001947	18.5803	-167.199	15.6187	-0.055147	0.851187	-0.322150	-0.323502	-0.032454	18.5803	-0.320840	-9572.01	3.390492E-6	NaN
661	1.000000	0.862542	7.37152e+06	-44039.1	1005.82	-29776.9	0.000000	0.000000	6.863091	0.006780	NaN	0.000000	0.001588	0.001636	28.0832	0.022679	0.001968	11.5235	62.8422	-164.922	0.002951	0.861211	-0.312147	-0.313478	0.006780	11.5235	-0.312589	-7233.34	-9.373841E-7	NaN
661	1.000000	0.872558	7.37152e+06	-44039.1	1005.82	-29776.9	0.000000	0.000000	6.873107	0.005906	NaN	0.000000	0.001573	0.001620	28.0842	0.037123	0.001933	19.2086	-173.97	11.9786	-0.034946	0.871199	-0.302132	-0.303490	0.005906	19.2086	-0.302362	-5102.4	-1.157527E-6	NaN
661	1.000000	0.882529	7.37152e+06	-44039.1	1005.82	-29776.9	0.000000	0.000000	6.883081	0.082136	NaN	0.000000	0.001557	0.001657	28.0834	0.074794	0.001974	37.8859	52.9264	-168.806	0.042458	0.881274	-0.292160	-0.293415	0.082136	37.8859	-0.293786	-3801.51	-2.160609E-5	NaN
661	1.000000	0.892557	7.37152e+06	-44039.1	1005.82	-29776.9	0.000000	0.000000	6.893112	0.147649	NaN	0.000000	0.001600	0.001680	28.083	0.107294	0.001882	57.0207	136.789	15.3624	0.138584	0.891231	-0.282132	-0.283458	0.147649	57.0207	-0.284074	-2718.63	-5.431005E-5	NaN
661	1.000000	0.902523	7.37152e+06	-44039.1	1005.82	-29776.9	0.000000	0.000000	6.903074	0.047540	NaN	0.000000	0.001611	0.001652	28.0831	0.081321	0.002054	39.5884	138.198	-169.522	0.083954	0.901242	-0.272166	-0.273447	0.047540	39.5884	-0.273067	-1854	-2.564198E-5	NaN
661	1.000000	0.912511	7.37152e+06	-44039.1	1005.82	-29776.9	0.000000	0.000000	6.913061	0.025881	NaN	0.000000	0.001573	0.001649	28.0832	0.091095	0.002105	43.284	-162.985	15.121	0.026368	0.911220	-0.262178	-0.263470	0.025881	43.284	-0.262627	-1285.67	-2.013063E-5	NaN
661	1.000000	0.922559	7.37152e+06	-44039.1	1005.82	-29776.9	0.000000	0.000000	6.923111	0.085271	NaN	0.000000	0.001525	0.001646	28.0831	0.063473	0.001885	33.678	-102.6	-170.629	0.078894	0.921240	-0.252131	-0.253449	0.085271	33.678	-0.254030	-948.791	-8.987307E-5	NaN
661	1.000000	0.932574	7.37152e+06	-44039.1	1005.82	-29776.9	0.000000	0.000000	6.933127	0.080660	NaN	0.000000	0.001561	0.001617	28.0826	0.094696	0.001991	47.5718	11.1976	15.4834	0.044128	0.931183	-0.242115	-0.243507	0.080660	47.5718	-0.243387	-649.171	-0.000124	NaN
661	1.000000	0.942574	7.37152e+06	-44039.1	1005.82	-29776.9	0.000000	0.000000	6.943123	-0.003725	NaN	0.000000	0.001572	0.001618	28.0843	0.069864	0.002098	33.2982	83.72	-165.427	-0.091483	0.941190	-0.232115	-0.233500	-0.003725	33.2982	-0.232031	-431.073	8.641461E-6	NaN
661	1.000000	0.952564	7.37152e+06	-44039.1	1005.82	-29776.9	0.000000	0.000000	6.953112	-0.010125	NaN	0.000000	0.001552	0.001576	28.0844	0.126501	0.001993	63.4624	159.488	16.5278	0.065096	0.951188	-0.222125	-0.223502	-0.010125	63.4624	-0.222006	-299.012	3.386197E-5	NaN
661	1.000000	0.962593	7.37152e+06	-44039.1	1005.82	-29776.9	0.000000	0.000000	6.963144	0.050981	NaN	0.000000	0.001611	0.001657	28.0842	0.033377	0.001941	17.1943	92.254	-166.04	0.105222	0.961247	-0.212096	-0.213442	0.050981	17.1943	-0.214320	-225.201	-0.000226	NaN
661	1.000000	0.972590	7.37152e+06	-44039.1	1005.82	-29776.9	0.000000	0.000000	6.973139	0.001428	NaN	0.000000	0.001601	0.001642	28.0842	0.054113	0.001964	27.5457	-72.8958	18.0663	0.018778	0.971225	-0.202100	-0.203465	0.001428	27.5457	-0.202139	-142.82	-9.996552E-6	NaN
661	1.000000	0.982594	7.37152e+06	-44039.1	1005.82	-29776.9	0.000000	0.000000	6.983141	-0.028359	NaN	0.000000	0.001572	0.001650	28.0844	0.024226	0.001859	13.0284	-113.798	-164.293	-0.029335	0.981284	-0.192096	-0.193405	-0.028359	13.0284	-0.190463	-91.5717	0.000310	NaN
661	1.000000	0.992580	7.37152e+06	-44039.1	1005.82	-29776.9	0.000000	0.000000	6.993130	0.012253	NaN	0.000000	0.001559	0.001636	28.0847	0.083727	0.002002	41.8291	77.0433	12.3897	0.022228	0.991206	-0.182109	-0.183483	0.012253	41.8291	-0.182329	-66.834	-0.000183	NaN
661	1.000000	1.002589	7.37152e+06	-44039.1	1005.82	-29776.9	0.000000	0.000000	7.003140	0.045560	NaN	0.000000	0.001571	0.001631	28.0847	0.063109	0.002038	30.9672	162.768	-166.133	-0.026598	1.001256	-0.172100	-0.173434	0.045560	30.9672	-0.173204	-46.6724	-0.000976	NaN
661	1.000000	1.012583	7.37152e+06	-44039.1	1005.82	-29777	0.000000	0.000000	7.013132	0.017118	NaN	0.000000	0.001572	0.001644	28.0845	0.072124	0.002166	33.305	9.370464	14.5257	-0.044799	1.011228	-0.162107	-0.163461	0.017118	33.305	-0.162492	-30.3485	-0.000564	NaN
661	1.000000	1.022608	7.37152e+06	-44039.1	1005.82	-29777	0.000000	0.000000	7.023157	0.014479	NaN	0.000000	0.001582	0.001660	28.0845	0.057685	0.002023	28.5126	-102.009	-164.8	0.026629	1.021294	-0.152081	-0.153395	0.014479	28.5126	-0.152462	-20.0799	-0.000721	NaN
661	1.000000	1.032615	7.37152e+06	-44039.1	1005.82	-29777	0.000000	0.000000	7.033162	-0.034921	NaN	0.000000	0.001552	0.001615	28.0847	0.092945	0.001976	47.027	90.0347	12.0249	0.002211	1.031160	-0.142075	-0.143529	-0.034921	47.027	-0.141518	-12.6302	0.002765	NaN
661	1.000000	1.042632	7.37152e+06	-44039.1	1005.82	-29777	0.000000	0.000000	7.043183	0.048903	NaN	0.000000	0.001565	0.001657	28.0842	0.099854	0.002022	49.3839	96.2938	-166.457	0.041267	1.041264	-0.132058	-0.133426	0.048903	49.3839	-0.132800	-8.632584	-0.005665	NaN
661	1.000000	1.052573	7.37152e+06	-44039.1	1005.82	-29776.9	0.000000	0.000000	7.053121	-0.018329	NaN	0.000000	0.001572	0.001668	28.0846	0.019906	0.001893	10.5155	88.6433	11.5413	0.026728	1.051223	-0.122116	-0.123466	-0.018329	10.5155	-0.120809	-5.016255	0.003654	NaN
661	1.000000	1.062649	7.37152e+06	-44039.1	1005.82	-29777	0.000000	0.000000	7.063199	0.016172	NaN	0.000000	0.001602	0.001638	28.0844	0.050179	0.001839	27.2886	117.06	-164.4	0.027754	1.061300	-0.112040	-0.113389	0.016172	27.2886	-0.112485	-3.388182	-0.004773	NaN
661	1.000000	1.072590	7.37152e+06	-44039.1	1005.82	-29777	0.000000	0.000000	7.073140	0.026780	NaN	0.000000	0.001542	0.001668	28.0843	0.029782	0.001984	15.0126	-89.9649	15.1858	0.018659	1.071216	-0.102099	-0.103473	0.026780	15.0126	-0.103437	-2.174116	-0.012318	NaN
661	1.000000	1.082609	7.37152e+06	-44039.1	1005.82	-29777	0.000000	0.000000	7.083160	0.048182	NaN	0.000000	0.001559	0.001626	28.0829	0.048440	0.001944	24.9151	38.5951	-167.568	0.007599	1.081314	-0.092080	-0.093376	0.048182	24.9151	-0.093531	-1.305549	-0.036906	NaN
661	1.000000	1.092611	7.37152e+06	-44039.1	1005.82	-29777	0.000000	0.000000	7.093165	0.115264	NaN	0.000000	0.001597	0.001640	28.083	0.244253	0.001913	127.709	26.5126	15.2081	0.129594	1.091283	-0.082078	-0.083406	0.115264	127.709	-0.082755	-0.724349	-0.159128	NaN
661	1.000000	1.102608	7.37152e+06	-44039.1	1005.82	-29777	0.000000	0.000000	7.103177	0.504611	NaN	0.000000	0.001569	0.001633	28.0833	0.421676	0.001995	211.412	-1.158369	-167.93	0.456383	1.101338	-0.072082	-0.073352	0.504611	211.412	-0.073872	-0.431734	-1.168799	NaN
661	1.000000	1.112643	7.37152e+06	-44039.1	1005.82	-29777	0.000000	0.000000	7.113233	1.017289	NaN	0.000000	0.001587	0.001628	28.0828	0.528618	0.002000	264.369	22.8204	13.1225	1.007855	1.111219	-0.062047	-0.063471	1.017289	264.369	-0.064933	-0.248147	-4.099543	NaN
661	1.000000	1.122617	7.37152e+06	-44039.1	1005.82	-29777	0.000000	0.000000	7.123232	1.630146	NaN	0.000000	0.001583	0.001660	28.0828	0.576807	0.001905	302.804	16.084	-168.074	1.568661	1.121300	-0.052073	-0.053389	1.630146	302.804	-0.056110	-0.138855	-11.7399	NaN
661	1.000000	1.132650	7.37152e+06	-44039.1	1005.82	-29777	0.000000	0.000000	7.133282	2.032699	NaN	0.000000	0.001556	0.001669	28.0832	0.732434	0.001899	385.597	17.3924	11.5103	1.950542	1.131254	-0.042039	-0.043435	2.032699	385.597	-0.045993	-0.068921	-29.4933	NaN
661	1.000000	1.142661	7.37152e+06	-44039.1	1005.82	-29777	0.000000	0.000000	7.143308	2.368095	NaN	0.000000	0.001513	0.001648	28.0832	0.965295	0.001884	512.248	25.8414	-172.495	2.272952	1.141320	-0.032028	-0.033369	2.368095	512.248	-0.035495	-0.033121	-71.4992	NaN
661	1.000000	1.152682	7.37152e+06	-44039.1	1005.82	-29777	0.000000	0.000000	7.153343	2.716176	NaN	0.000000	0.001566	0.001658	28.0832	1.076912	0.001913	563.008	21.5451	10.9424	2.729280	1.151300	-0.022007	-0.023389	2.716176	563.008	-0.025625	-0.017519	-155.037	NaN
661	1.000000	1.162650	7.37152e+06	-44039.1	1005.82	-29777	0.000000	0.000000	7.163325	3.072391	NaN	0.000000	0.001553	0.001634	28.0828	1.231738	0.002037	604.622	19.5097	-167.518	3.035773	1.161311	-0.012040	-0.013379	3.072391	604.622	-0.015851	-0.009791	-313.792	NaN
661	1.000000	1.172651	7.37152e+06	-44039.1	1005.82	-29777	0.000000	0.000000	7.173444	5.961334	NaN	0.000000	0.001575	0.001652	28.0831	3.580000	0.001970	1817.24	14.9102	10.1725	5.422261	1.171309	-0.002039	-0.003380	5.961334	1817.24	-0.004499	-0.003100	-1923.23	NaN
661	2.000000	1.179312	7.37152e+06	-44039.1	1005.82	-29777	0.000000	0.000000	7.180243	9.315104	NaN	0.000000	0.001629	0.001657	28.083	7.515550	0.001657	4535.26	5.204370	-169.745	8.786552	1.178969	0.004622	0.004280	9.315104	4535.26	0.003082	0.002449	3803.81	83731.9
661	2.000000	1.181780	7.37152e+06	-44039.1	1005.82	-29777	0.000000	0.000000	7.182887	13.5712	NaN	0.000000	0.001603	0.001675	28.0827	11.3907	0.001683	6767	11.3519	0.637030	13.6142	1.181410	0.007091	0.006721	13.5712	6767	0.005587	0.004675	2902.64	90418.5
661	2.000000	1.184282	7.37152e+06	-44039.1	1005.82	-29777	0.000000	0.000000	7.185583	18.2918	NaN	0.000000	0.001657	0.001686	28.0832	14.8707	0.001773	8385.26	9.252710	-178.872	18.2938	1.183970	0.009593	0.009280	18.2918	8385.26	0.007957	0.006998	2613.88	91580.8
661	2.000000	1.186769	7.37152e+06	-44039.1	1005.82	-29777	0.000000	0.000000	7.188288	23.6123	NaN	0.000000	0.001669	0.001655	28.0835	17.5206	0.001798	9745.09	8.487121	1.788891	22.5305	1.186382	0.012079	0.011693	23.6123	9745.09	0.010262	0.009474	2492.27	91471.8
661	2.000000	1.189227	7.37152e+06	-44039.1	1005.82	-29777	0.000000	0.000000	7.191036	30.655	NaN	0.000000	0.001626	0.001629	28.0836	20.2734	0.001859	10903.3	9.673977	179.817	29.7658	1.188863	0.014537	0.014174	30.655	10903.3	0.012429	0.012007	2552.99	90908.6
661	2.000000	1.191747	7.37152e+06	-44039.1	1005.82	-29777	0.000000	0.000000	7.193763	35.7053	NaN	0.000000	0.001579	0.001653	28.0844	22.0325	0.001765	12483.2	3.117093	5.087127	35.7399	1.191326	0.017058	0.016637	35.7053	12483.2	0.014912	0.015169	2353.87	92602.8
661	2.000000	1.194226	7.37152e+06	-44039.1	1005.82	-29777	0.000000	0.000000	7.196439	40.4864	NaN	0.000000	0.001588	0.001666	28.0845	26.1859	0.001741	15044.8	10.0403	175.121	39.4211	1.193955	0.019537	0.019265	40.4864	15044.8	0.017518	0.018792	2154.49	100271
661	2.000000	1.196703	7.37152e+06	-44039.1	1005.82	-29777	0.000000	0.000000	7.199274	49.2043	NaN	0.000000	0.001565	0.001623	28.0854	27.3825	0.001750	15651.3	6.082939	0.102607	46.6718	1.196431	0.022014	0.021741	49.2043	15651.3	0.019656	0.022004	2236.11	96398.3
661	2.000000	1.199170	7.37152e+06	-44039.1	1005.82	-29777	0.000000	0.000000	7.202022	56.0496	NaN	0.000000	0.001550	0.001658	28.0843	30.5738	0.001813	16859.2	4.603373	178.77	53.9381	1.198911	0.024480	0.024222	56.0496	16859.2	0.021987	0.025761	2175.74	95968
661	2.000000	1.201693	7.37152e+06	-44039.1	1005.82	-29777	0.000000	0.000000	7.204951	65.9127	NaN	0.000000	0.001552	0.001684	28.0851	32.5323	0.001769	18388	5.010166	-1.042503	64.5707	1.201320	0.027004	0.026631	65.9127	18388	0.024315	0.029782	2213.2	97349.4
661	2.000000	1.204217	7.37152e+06	-44039.1	1005.82	-29777	0.000000	0.000000	7.207925	76.8429	NaN	0.000000	0.001565	0.001693	28.0842	35.2412	0.001733	20331.1	6.051348	176.741	75.7987	1.203821	0.029528	0.029132	76.8429	20331.1	0.026693	0.034168	2248.97	100490
661	2.000000	1.206721	7.37152e+06	-44039.1	1005.82	-29777	0.000000	0.000000	7.210874	87.679	NaN	0.000000	0.001579	0.001676	28.0845	38.1852	0.001924	19849.6	7.069195	-3.479734	85.6379	1.206323	0.032032	0.031634	87.679	19849.6	0.028719	0.038130	2299.47	92873.3
661	2.000000	1.209145	7.37152e+06	-44039.1	1005.82	-29777	0.000000	0.000000	7.213685	97.0856	NaN	0.000000	0.001559	0.001681	28.0845	41.0308	0.001884	21778.8	8.418623	173.54	96.2289	1.208883	0.034456	0.034193	97.0856	21778.8	0.031112	0.043081	2253.57	95866.2
661	2.000000	1.211638	7.37152e+06	-44039.1	1005.82	-29777	0.000000	0.000000	7.216679	109.303	NaN	0.000000	0.001565	0.001678	28.0854	42.4254	0.001796	23623.8	5.548841	-4.392245	106.249	1.211299	0.036948	0.036610	109.303	23623.8	0.033478	0.048261	2264.81	98247.8
661	2.000000	1.214137	7.37152e+06	-44039.1	1005.82	-29777	0.000000	0.000000	7.219634	120.373	NaN	0.000000	0.001587	0.001632	28.0847	44.3811	0.001756	25275.8	4.029671	176.744	116.88	1.213864	0.039448	0.039174	120.373	25275.8	0.035876	0.053805	2237.2	99555.6
661	2.000000	1.216685	7.37152e+06	-44039.1	1005.82	-29777	0.000000	0.000000	7.222646	131.672	NaN	0.000000	0.001564	0.001685	28.0862	46.7331	0.001897	24632	5.794357	-3.547431	129.884	1.216279	0.041996	0.041590	131.672	24632	0.037987	0.058929	2234.42	92706.2
661	2.000000	1.219189	7.37152e+06	-44039.1	1005.82	-29777	0.000000	0.000000	7.225618	143.046	NaN	0.000000	0.001540	0.001652	28.0849	48.4534	0.001812	26735	4.316727	176.48	142.357	1.218841	0.044500	0.044152	143.046	26735	0.040487	0.065293	2190.84	95591.9
661	2.000000	1.221616	7.37152e+06	-44039.1	1005.82	-29777	0.000000	0.000000	7.228387	151.377	NaN	0.000000	0.001531	0.001676	28.0837	51.8694	0.001839	28201.4	6.120396	-7.037213	147.367	1.221368	0.046927	0.046679	151.377	28201.4	0.042901	0.071741	2110.06	96196.8
661	2.000000	1.224151	7.37152e+06	-44039.1	1005.82	-29777	0.000000	0.000000	7.231477	164.886	NaN	0.000000	0.001585	0.001658	28.0837	53.7461	0.001833	29314.2	3.524539	177.161	164.001	1.223843	0.049461	0.049154	164.886	29314.2	0.045243	0.078278	2106.42	95726.2
661	2.000000	1.226730	7.37152e+06	-44039.1	1005.82	-29777	0.000000	0.000000	7.234529	176.394	NaN	0.000000	0.001576	0.001630	28.0838	55.8833	0.001789	31233.9	5.380031	-6.797099	176.167	1.226397	0.052040	0.051708	176.394	31233.9	0.047805	0.085749	2057.09	97450.7
661	2.000000	1.229138	7.37152e+06	-44039.1	1005.82	-29777	0.000000	0.000000	7.237677	194.393	NaN	0.000000	0.001579	0.001658	28.0835	57.8462	0.001828	31642.4	4.552506	175.269	193.675	1.228821	0.054449	0.054131	194.393	31642.4	0.049841	0.091923	2114.75	95352.2
661	2.000000	1.231586	7.37152e+06	-44039.1	1005.82	-29777	0.000000	0.000000	7.240611	206.202	NaN	0.000000	0.001578	0.001634	28.0844	60.8816	0.001880	32379.5	2.586163	-3.569089	201.117	1.231245	0.056897	0.056556	206.202	32379.5	0.052121	0.099080	2081.16	93983.1
661	2.000000	1.234144	7.37152e+06	-44039.1	1005.82	-29777	0.000000	0.000000	7.243605	216.83	NaN	0.000000	0.001594	0.001627	28.0879	63.5515	0.001814	35034.5	2.095845	176.193	216.536	1.233962	0.059455	0.059272	216.83	35034.5	0.054813	0.107867	2010.15	97459.4
661	2.000000	1.236681	7.37152e+06	-44039.1	1005.82	-29777	0.000000	0.000000	7.246718	230.836	NaN	0.000000	0.001572	0.001657	28.0848	65.0627	0.001773	36696.8	1.727806	-3.825577	228.95	1.236310	0.061991	0.061621	230.836	36696.8	0.057274	0.116214	1986.3	98349.5
661	2.000000	1.239130	7.37152e+06	-44039.1	1005.82	-29777	0.000000	0.000000	7.249963	250.192	NaN	0.000000	0.001575	0.001643	28.085	66.4166	0.001714	38744.9	1.300184	175.766	249.368	1.238845	0.064441	0.064156	250.192	38744.9	0.059598	0.124371	2011.66	100376
661	2.000000	1.241565	7.37152e+06	-44039.1	1005.82	-29777	0.000000	0.000000	7.253084	266.895	NaN	0.000000	0.001600	0.001649	28.0851	71.4989	0.001896	37713.4	3.539387	-6.067064	261.14	1.241250	0.066875	0.066560	266.895	37713.4	0.061568	0.131490	2029.78	95021.8
661	2.000000	1.244029	7.37152e+06	-44039.1	1005.82	-29777	0.000000	0.000000	7.256149	281.501	NaN	0.000000	0.001598	0.001671	28.0836	74.0158	0.001868	39615.2	6.211510	171.155	275.517	1.243829	0.069340	0.069139	281.501	39615.2	0.064010	0.140580	2002.43	96532.6
661	2.000000	1.246589	7.37152e+06	-44039.1	1005.82	-29777	0.000000	0.000000	7.259466	299.913	NaN	0.000000	0.001644	0.001636	28.0835	75.0226	0.001802	41634.2	5.198096	-8.499454	295.828	1.246349	0.071900	0.071659	299.913	41634.2	0.066497	0.150131	1997.67	98172
661	2.000000	1.249299	7.37152e+06	-44039.1	1005.82	-29777	0.000000	0.000000	7.262502	307.851	NaN	0.000000	0.001597	0.001671	28.0834	77.2435	0.001702	45382.5	7.127081	169.167	318.363	1.248849	0.074610	0.074160	307.851	45382.5	0.069522	0.162149	1898.57	102968
661	2.000000	1.251505	7.37152e+06	-44039.1	1005.82	-29777	0.000000	0.000000	7.265632	330.345	NaN	0.000000	0.001583	0.001638	28.0836	80.7863	0.001851	43648.7	6.149517	-9.507365	321.996	1.251110	0.076815	0.076421	330.345	43648.7	0.071139	0.168753	1957.57	97077.6
661	2.000000	1.254151	7.37152e+06	-44039.1	1005.82	-29777	0.000000	0.000000	7.269138	351.258	NaN	0.000000	0.001584	0.001634	28.0834	82.4907	0.001792	46022	3.327394	173.195	351.327	1.253743	0.079462	0.079054	351.258	46022	0.073737	0.179623	1955.53	99210.5
661	2.000000	1.256755	7.37152e+06	-44039.1	1005.82	-29777	0.000000	0.000000	7.271714	350.59	NaN	0.000000	0.001595	0.001638	28.0849	84.7884	0.001633	51910.3	5.063305	-10.3121	353.956	1.256507	0.082065	0.081818	350.59	51910.3	0.077000	0.193723	1809.75	107755
661	2.000000	1.259085	7.37152e+06	-44039.1	1005.82	-29777	0.000000	0.000000	7.275087	375.97	NaN	0.000000	0.001565	0.001651	28.0844	86.7734	0.001760	49310.4	2.185484	173.297	374.739	1.258836	0.084395	0.084147	375.97	49310.4	0.078677	0.201164	1868.98	100447
661	2.000000	1.261676	7.37152e+06	-44039.1	1005.82	-29777	0.000000	0.000000	7.278654	399.714	NaN	0.000000	0.001617	0.001604	28.0846	90.5449	0.001728	52401.1	6.823591	-11.3068	398.086	1.261124	0.086986	0.086435	399.714	52401.1	0.081265	0.212908	1877.4	103757
661	2.000000	1.264199	7.37152e+06	-44039.1	1005.82	-29777	0.000000	0.000000	7.281471	406.864	NaN	0.000000	0.001612	0.001633	28.0847	93.9318	0.001802	52114.1	4.124769	171.148	408.148	1.263962	0.089510	0.089273	406.864	52114.1	0.083654	0.224024	1816.17	100596
661	2.000000	1.266567	7.37152e+06	-44039.1	1005.82	-29777	0.000000	0.000000	7.285056	436.455	NaN	0.000000	0.001653	0.001705	28.0848	95.3005	0.001735	54936.5	6.564076	-11.6553	431.096	1.266257	0.091878	0.091568	436.455	54936.5	0.085920	0.234808	1858.78	103580
661	2.000000	1.269182	7.37152e+06	-44039.1	1005.82	-29777	0.000000	0.000000	7.288231	450.105	NaN	0.000000	0.001668	0.001706	28.0847	97.7222	0.001781	54858.8	4.522583	170.394	453.028	1.268883	0.094492	0.094194	450.105	54858.8	0.088339	0.246585	1825.35	100934
661	2.000000	1.271565	7.37152e+06	-44039.1	1005.82	-29777	0.000000	0.000000	7.291586	473.737	NaN	0.000000	0.001631	0.001692	28.0845	101.742	0.001819	55946.2	4.833772	-9.425556	468.33	1.271125	0.096875	0.096435	473.737	55946.2	0.090525	0.257459	1840.05	100737
661	2.000000	1.274127	7.37152e+06	-44039.1	1005.82	-29777	0.000000	0.000000	7.294709	487.377	NaN	0.000000	0.001649	0.001757	28.0848	103.794	0.001849	56135.1	2.137690	172.516	486.773	1.274001	0.099437	0.099311	487.377	56135.1	0.092926	0.269656	1807.4	98764.9
661	2.000000	1.276694	7.37152e+06	-44039.1	1005.82	-29777	0.000000	0.000000	7.298400	514.721	NaN	0.000000	0.001660	0.001729	28.0843	105.988	0.001853	57185.6	4.985075	-10.3528	515.959	1.276388	0.102005	0.101699	514.721	57185.6	0.095254	0.281734	1826.97	98432.9