File: remote_trans/data/nanoindenter/0828-1/data/Data_2025-08-06,11h17m57s/2025-07-22_16-23-58_1_468.txt
2025-07-22, 16:23:58, 1
Index	Phase	Displacement	Time	Pos X	Pos Y	Pos Z	Rot A	Rot B	Piezo Z	Force A	Force B	Gripper	Voltage A	Voltage B	Temperature	Amplitude force	Amplitude pos	Stiffness	Phase shift	Phase excitation	Force A raw	Displacement raw	HMax	HMax raw	Real Force	Real Stiffness	Contact Depth	Area	Hardness	Reduced Mod.
[#]	[#]	[um]	[s]	[um]	[um]	[um]	[m°]	[m°]	[um]	[uN]	[uN]	[V]	[V]	[V]	[°C]	[uN]	[um]	[N/m]	[°]	[°]	[uN]	[um]	[um]	[um]	[uN]	[N/m]	[um]	[um^2]	[MPa]	[MPa]
468	1.000000	0.002758	7.36963e+06	-53689.1	1005.82	-29745.7	0.000000	0.000000	6.002819	0.065976	NaN	0.000000	0.001655	0.001721	28.0795	0.022287	0.001020	21.8483	170.784	-166.744	0.127395	0.001524	-1.048976	-1.050210	0.065976	21.8483	-1.051241	-1.109422E+14	-5.946869E-16	NaN
468	1.000000	0.010703	7.36963e+06	-53689.1	1005.82	-29745.7	0.000000	0.000000	6.010762	0.000395	NaN	0.000000	0.001647	0.001701	28.0794	0.148740	0.000937	158.658	-97.5305	-173.826	0.020329	0.009338	-1.041031	-1.042397	0.000395	158.658	-1.041033	-8.088230E+13	-4.885034E-18	NaN
468	1.000000	0.018696	7.36963e+06	-53689.1	1005.82	-29745.7	0.000000	0.000000	6.018752	-0.054195	NaN	0.000000	0.001627	0.001706	28.0795	0.035949	0.001589	22.6212	105.309	-163.527	0.019477	0.017365	-1.033038	-1.034369	-0.054195	22.6212	-1.031242	-5.972840E+13	9.073526E-16	NaN
468	1.000000	0.026724	7.36963e+06	-53689.1	1005.82	-29745.7	0.000000	0.000000	6.026782	-0.009024	NaN	0.000000	0.001648	0.001718	28.0795	0.054965	0.001831	30.0272	-34.0006	-163.267	0.059546	0.025410	-1.025010	-1.026325	-0.009024	30.0272	-1.024784	-4.890141E+13	1.845293E-16	NaN
468	1.000000	0.034703	7.36963e+06	-53689.1	1005.82	-29745.7	0.000000	0.000000	6.034763	0.035923	NaN	0.000000	0.001647	0.001716	28.0796	0.091159	0.002030	44.905	-24.4288	-166.953	0.111096	0.033379	-1.017031	-1.018355	0.035923	44.905	-1.017631	-3.918110E+13	-9.168519E-16	NaN
468	1.000000	0.042701	7.36963e+06	-53689.1	1005.82	-29745.7	0.000000	0.000000	6.042761	0.039899	NaN	0.000000	0.001643	0.001689	28.0794	0.083803	0.001937	43.2565	138.397	-165.948	-0.007869	0.041412	-1.009033	-1.010323	0.039899	43.2565	-1.009725	-3.066779E+13	-1.300998E-15	NaN
468	1.000000	0.050687	7.36963e+06	-53689.1	1005.82	-29745.7	0.000000	0.000000	6.050747	0.033759	NaN	0.000000	0.001632	0.001682	28.0794	0.058557	0.002005	29.2057	-108.73	-163.979	0.021089	0.049382	-1.001047	-1.002352	0.033759	29.2057	-1.001914	-2.407349E+13	-1.402335E-15	NaN
468	1.000000	0.058684	7.36963e+06	-53689.1	1005.82	-29745.7	0.000000	0.000000	6.058743	0.014142	NaN	0.000000	0.001620	0.001715	28.0795	0.092624	0.001893	48.9376	-14.7397	-163.22	0.069870	0.057401	-0.993050	-0.994333	0.014142	48.9376	-0.993267	-1.841216E+13	-7.680769E-16	NaN
468	1.000000	0.066710	7.36963e+06	-53689.1	1005.82	-29745.7	0.000000	0.000000	6.066768	-0.013392	NaN	0.000000	0.001636	0.001707	28.0792	0.036711	0.001966	18.6712	-9.440546	-164.188	-0.013532	0.065370	-0.985024	-0.986364	-0.013392	18.6712	-0.984486	-1.402306E+13	9.550258E-16	NaN
468	1.000000	0.074695	7.36963e+06	-53689.1	1005.82	-29745.7	0.000000	0.000000	6.074752	-0.037432	NaN	0.000000	0.001618	0.001701	28.0794	0.019472	0.002035	9.567503	-129.205	-161.431	-0.007435	0.073367	-0.977039	-0.978367	-0.037432	9.567503	-0.974105	-1.016202E+13	3.683472E-15	NaN
468	1.000000	0.082704	7.36963e+06	-53689.1	1005.82	-29745.7	0.000000	0.000000	6.082764	0.032690	NaN	0.000000	0.001630	0.001739	28.0791	0.088082	0.002102	41.9075	127.801	-165.726	0.009756	0.081404	-0.969030	-0.970330	0.032690	41.9075	-0.969615	-8.840533E+12	-3.697748E-15	NaN
468	1.000000	0.090722	7.36963e+06	-53689.1	1005.82	-29745.7	0.000000	0.000000	6.090778	-0.035449	NaN	0.000000	0.001624	0.001694	28.0792	0.063660	0.002006	31.7385	109.339	-165.581	0.020583	0.089416	-0.961013	-0.962318	-0.035449	31.7385	-0.960175	-6.595222E+12	5.375009E-15	NaN
468	1.000000	0.098683	7.36963e+06	-53689.1	1005.82	-29745.7	0.000000	0.000000	6.098742	0.018945	NaN	0.000000	0.001623	0.001705	28.0792	0.113390	0.001934	58.6358	63.6376	-163.584	0.031395	0.097386	-0.953052	-0.954349	0.018945	58.6358	-0.953294	-5.326577E+12	-3.556746E-15	NaN
468	1.000000	0.106713	7.36963e+06	-53689.1	1005.82	-29745.7	0.000000	0.000000	6.106768	-0.070355	NaN	0.000000	0.001632	0.001704	28.0801	0.119722	0.001924	62.2411	-108.336	-166.303	-0.007507	0.105360	-0.945021	-0.946374	-0.070355	62.2411	-0.944173	-4.012706E+12	1.753314E-14	NaN
468	1.000000	0.114693	7.36963e+06	-53689.1	1005.82	-29745.7	0.000000	0.000000	6.114749	-0.043792	NaN	0.000000	0.001637	0.001691	28.0807	0.063238	0.002023	31.2526	-83.658	-166.416	0.016371	0.113427	-0.937042	-0.938307	-0.043792	31.2526	-0.935991	-3.112008E+12	1.407208E-14	NaN
468	1.000000	0.122714	7.36963e+06	-53689.1	1005.82	-29745.7	0.000000	0.000000	6.122773	0.030186	NaN	0.000000	0.001618	0.001699	28.0805	0.008798	0.001997	4.406144	-73.4473	-165.235	0.056796	0.121406	-0.929020	-0.930329	0.030186	4.406144	-0.934159	-2.939807E+12	-1.026819E-14	NaN
468	1.000000	0.130718	7.36963e+06	-53689.1	1005.82	-29745.7	0.000000	0.000000	6.130780	0.075674	NaN	0.000000	0.001651	0.001678	28.0808	0.062926	0.002005	31.3798	119.624	-162.996	0.021241	0.129466	-0.921016	-0.922269	0.075674	31.3798	-0.922825	-2.067006E+12	-3.661042E-14	NaN
468	1.000000	0.138713	7.36963e+06	-53689.1	1005.82	-29745.7	0.000000	0.000000	6.138769	-0.063495	NaN	0.000000	0.001586	0.001702	28.0804	0.069877	0.001945	35.9188	-142.166	-166.399	-0.016667	0.137377	-0.913021	-0.914357	-0.063495	35.9188	-0.911695	-1.462378E+12	4.341922E-14	NaN
468	1.000000	0.146722	7.36963e+06	-53689.1	1005.82	-29745.7	0.000000	0.000000	6.146781	0.000725	NaN	0.000000	0.001583	0.001683	28.0808	0.088453	0.001971	44.8837	89.0701	-167.685	0.041955	0.145398	-0.905012	-0.906336	0.000725	44.8837	-0.905024	-1.188354E+12	-6.102301E-16	NaN
468	1.000000	0.154736	7.36963e+06	-53689.1	1005.82	-29745.7	0.000000	0.000000	6.154793	-0.024025	NaN	0.000000	0.001611	0.001694	28.081	0.023995	0.001860	12.8975	161.047	-159.509	-0.003135	0.153388	-0.896998	-0.898347	-0.024025	12.8975	-0.895601	-8.863810E+11	2.710491E-14	NaN
468	1.000000	0.162721	7.36963e+06	-53689.1	1005.82	-29745.7	0.000000	0.000000	6.162781	0.034025	NaN	0.000000	0.001640	0.001714	28.0805	0.129953	0.001960	66.2961	2.636589	-165.179	0.100214	0.161429	-0.889013	-0.890305	0.034025	66.2961	-0.889398	-7.307703E+11	-4.656107E-14	NaN
468	1.000000	0.170731	7.36963e+06	-53689.1	1005.82	-29745.7	0.000000	0.000000	6.170792	0.072078	NaN	0.000000	0.001632	0.001700	28.0808	0.009487	0.001972	4.809927	-117.233	-163.308	0.043154	0.169427	-0.881003	-0.882307	0.072078	4.809927	-0.892242	-7.984100E+11	-9.027689E-14	NaN
468	1.000000	0.178747	7.36963e+06	-53689.1	1005.82	-29745.7	0.000000	0.000000	6.178804	-0.035059	NaN	0.000000	0.001619	0.001725	28.0806	0.055494	0.001956	28.3718	-118.857	-166.971	0.081361	0.177458	-0.872987	-0.874276	-0.035059	28.3718	-0.872061	-4.259127E+11	8.231434E-14	NaN
468	1.000000	0.186758	7.36963e+06	-53689.1	1005.82	-29745.7	0.000000	0.000000	6.186817	0.033504	NaN	0.000000	0.001618	0.001752	28.0805	0.021786	0.002042	10.6685	-33.3152	-164.119	0.100852	0.185435	-0.864977	-0.866299	0.033504	10.6685	-0.867332	-3.675735E+11	-9.114855E-14	NaN
468	1.000000	0.194780	7.36963e+06	-53689.1	1005.82	-29745.7	0.000000	0.000000	6.194841	0.078808	NaN	0.000000	0.001605	0.001732	28.081	0.047234	0.001980	23.85	-54.4887	-164.112	0.093248	0.193505	-0.856955	-0.858230	0.078808	23.85	-0.859433	-2.873732E+11	-2.742357E-13	NaN
468	1.000000	0.202749	7.36963e+06	-53689.1	1005.82	-29745.7	0.000000	0.000000	6.202811	0.101790	NaN	0.000000	0.001592	0.001719	28.0806	0.042638	0.001941	21.9712	45.8221	-164.529	0.057968	0.201458	-0.848986	-0.850276	0.101790	21.9712	-0.852460	-2.312346E+11	-4.402025E-13	NaN
468	1.000000	0.210757	7.36963e+06	-53689.1	1005.82	-29745.7	0.000000	0.000000	6.210816	0.019374	NaN	0.000000	0.001604	0.001774	28.0807	0.031923	0.001952	16.3575	-25.9241	-162.448	0.027509	0.209429	-0.840977	-0.842305	0.019374	16.3575	-0.841866	-1.661758E+11	-1.165881E-13	NaN
468	1.000000	0.218774	7.36964e+06	-53689.1	1005.82	-29745.7	0.000000	0.000000	6.218834	0.038295	NaN	0.000000	0.001590	0.001786	28.0805	0.069841	0.002001	34.9035	96.2056	-164.69	-0.025202	0.217449	-0.832960	-0.834285	0.038295	34.9035	-0.833783	-1.291397E+11	-2.965376E-13	NaN
468	1.000000	0.226754	7.36964e+06	-53689.1	1005.82	-29745.7	0.000000	0.000000	6.226810	-0.046455	NaN	0.000000	0.001532	0.001715	28.0805	0.074123	0.002000	37.0675	-94.4737	-163.327	-0.035552	0.225428	-0.824980	-0.826306	-0.046455	37.0675	-0.824040	-9.527885E+10	4.875735E-13	NaN
468	1.000000	0.234759	7.36964e+06	-53689.1	1005.82	-29745.7	0.000000	0.000000	6.234819	0.045799	NaN	0.000000	0.001516	0.001744	28.0809	0.043180	0.002054	21.0227	158.935	-163.848	0.066408	0.233479	-0.816975	-0.818256	0.045799	21.0227	-0.818609	-8.041743E+10	-5.695194E-13	NaN
468	1.000000	0.242746	7.36964e+06	-53689.1	1005.82	-29745.7	0.000000	0.000000	6.242808	0.096295	NaN	0.000000	0.001509	0.001727	28.08	0.026866	0.001850	14.526	-30.2785	-166.899	0.032158	0.241464	-0.808988	-0.810271	0.096295	14.526	-0.813960	-6.954965E+10	-1.384548E-12	NaN
468	1.000000	0.250739	7.36964e+06	-53689.1	1005.82	-29745.7	0.000000	0.000000	6.250801	0.079894	NaN	0.000000	0.001540	0.001749	28.0794	0.036948	0.001974	18.7163	-34.6767	-166.529	0.078425	0.249408	-0.800995	-0.802327	0.079894	18.7163	-0.804197	-5.126522E+10	-1.558448E-12	NaN
468	1.000000	0.258770	7.36964e+06	-53689.1	1005.82	-29745.7	0.000000	0.000000	6.258832	0.093239	NaN	0.000000	0.001538	0.001732	28.0793	0.039727	0.002159	18.4029	24.5573	-170.115	0.045181	0.257465	-0.792964	-0.794269	0.093239	18.4029	-0.796764	-4.063808E+10	-2.294371E-12	NaN
468	1.000000	0.266762	7.36964e+06	-53689.1	1005.82	-29745.7	0.000000	0.000000	6.266820	0.006862	NaN	0.000000	0.001544	0.001699	28.0792	0.054206	0.001776	30.5199	3.678143	-162.251	-0.018108	0.265459	-0.784973	-0.786276	0.006862	30.5199	-0.785141	-2.825452E+10	-2.428737E-13	NaN
468	1.000000	0.274783	7.36964e+06	-53689.1	1005.82	-29745.7	0.000000	0.000000	6.274845	0.080951	NaN	0.000000	0.001544	0.001755	28.0796	0.101837	0.001938	52.5486	173.482	-165.412	0.143921	0.273541	-0.776951	-0.778193	0.080951	52.5486	-0.778106	-2.267232E+10	-3.570469E-12	NaN
468	1.000000	0.282748	7.36964e+06	-53689.1	1005.82	-29745.7	0.000000	0.000000	6.282809	0.063134	NaN	0.000000	0.001534	0.001738	28.0794	0.087454	0.002109	41.4659	-34.7933	-168.751	-0.037755	0.281487	-0.768986	-0.770247	0.063134	41.4659	-0.770128	-1.766225E+10	-3.574497E-12	NaN
468	1.000000	0.290802	7.36964e+06	-53689.1	1005.82	-29745.7	0.000000	0.000000	6.290861	0.013448	NaN	0.000000	0.001530	0.001705	28.0794	0.089581	0.002036	44.0007	114.73	-169.831	-0.030786	0.289456	-0.760932	-0.762278	0.013448	44.0007	-0.761162	-1.333847E+10	-1.008235E-12	NaN
468	1.000000	0.298805	7.36964e+06	-53689.1	1005.82	-29745.7	0.000000	0.000000	6.298865	0.045064	NaN	0.000000	0.001554	0.001724	28.0795	0.068151	0.001996	34.143	-142.846	-166.214	-0.034291	0.297415	-0.752929	-0.754320	0.045064	34.143	-0.753919	-1.063076E+10	-4.239017E-12	NaN
468	1.000000	0.306792	7.36964e+06	-53689.1	1005.82	-29745.7	0.000000	0.000000	6.306849	-0.036110	NaN	0.000000	0.001546	0.001735	28.0794	0.071531	0.001978	36.1618	-2.552618	-165.304	-0.029090	0.305507	-0.744942	-0.746228	-0.036110	36.1618	-0.744193	-7.837176E+9	4.607524E-12	NaN
468	1.000000	0.314814	7.36964e+06	-53689.1	1005.82	-29745.7	0.000000	0.000000	6.314872	0.005019	NaN	0.000000	0.001505	0.001741	28.08	0.100963	0.002022	49.9291	-123.559	-165.26	0.002740	0.313513	-0.736920	-0.738222	0.005019	49.9291	-0.736996	-6.253657E+9	-8.026386E-13	NaN
468	1.000000	0.322832	7.36964e+06	-53689.1	1005.82	-29745.7	0.000000	0.000000	6.322893	0.073899	NaN	0.000000	0.001539	0.001750	28.0794	0.066318	0.001929	34.3757	73.6741	-162.404	-0.004573	0.321493	-0.728902	-0.730242	0.073899	34.3757	-0.730515	-5.102974E+9	-1.448151E-11	NaN
468	1.000000	0.330784	7.36964e+06	-53689.1	1005.82	-29745.7	0.000000	0.000000	6.330840	-0.053145	NaN	0.000000	0.001521	0.001706	28.0792	0.054297	0.001936	28.0396	-83.1505	-167.143	-0.077590	0.329473	-0.720950	-0.722262	-0.053145	28.0396	-0.719528	-3.614442E+9	1.470341E-11	NaN
468	1.000000	0.338790	7.36964e+06	-53689.1	1005.82	-29745.7	0.000000	0.000000	6.338846	-0.060994	NaN	0.000000	0.001537	0.001737	28.0792	0.074915	0.002084	35.9523	-26.7454	-164.023	-0.027876	0.337539	-0.712944	-0.714195	-0.060994	35.9523	-0.711671	-2.823952E+9	2.159877E-11	NaN
468	1.000000	0.346814	7.36964e+06	-53689.1	1005.82	-29745.7	0.000000	0.000000	6.346873	0.002244	NaN	0.000000	0.001538	0.001711	28.0793	0.164169	0.001965	83.5496	154.079	-165.939	0.056351	0.345532	-0.704920	-0.706202	0.002244	83.5496	-0.704940	-2.285507E+9	-9.816699E-13	NaN
468	1.000000	0.354802	7.36964e+06	-53689.1	1005.82	-29745.7	0.000000	0.000000	6.354863	0.070991	NaN	0.000000	0.001504	0.001742	28.079	0.107927	0.001894	56.9935	-78.5803	-163.411	0.081318	0.353472	-0.696932	-0.698263	0.070991	56.9935	-0.697866	-1.829739E+9	-3.879829E-11	NaN
468	1.000000	0.362811	7.36964e+06	-53689.1	1005.82	-29745.7	0.000000	0.000000	6.362870	0.020363	NaN	0.000000	0.001535	0.001722	28.0792	0.046246	0.002042	22.6493	-37.0119	-165.029	-0.023623	0.361498	-0.688923	-0.690236	0.020363	22.6493	-0.689598	-1.410654E+9	-1.443535E-11	NaN
468	1.000000	0.370817	7.36964e+06	-53689.1	1005.82	-29745.7	0.000000	0.000000	6.370875	-0.013170	NaN	0.000000	0.001504	0.001719	28.0792	0.061686	0.001943	31.7468	-109.839	-165.367	0.014321	0.369516	-0.680917	-0.682218	-0.013170	31.7468	-0.680606	-1.062901E+9	1.239034E-11	NaN
468	1.000000	0.378803	7.36964e+06	-53689.1	1005.82	-29745.7	0.000000	0.000000	6.378864	0.058919	NaN	0.000000	0.001501	0.001680	28.0798	0.075774	0.001858	40.7763	-5.193420	-165.275	0.011896	0.377488	-0.672931	-0.674246	0.058919	40.7763	-0.674015	-8.636352E+8	-6.822241E-11	NaN
468	1.000000	0.386804	7.36964e+06	-53689.1	1005.82	-29745.7	0.000000	0.000000	6.386861	-0.029248	NaN	0.000000	0.001542	0.001703	28.0805	0.053844	0.001932	27.8697	76.7518	-166.41	-0.017305	0.385530	-0.664930	-0.666205	-0.029248	27.8697	-0.664143	-6.327120E+8	4.622672E-11	NaN
468	1.000000	0.394819	7.36964e+06	-53689.1	1005.82	-29745.7	0.000000	0.000000	6.394877	0.000319	NaN	0.000000	0.001548	0.001698	28.0803	0.051843	0.001989	26.0661	161.649	-167.181	-0.003152	0.393563	-0.656916	-0.658171	0.000319	26.0661	-0.656925	-5.038951E+8	-6.333036E-13	NaN
468	1.000000	0.402833	7.36964e+06	-53689.1	1005.82	-29745.7	0.000000	0.000000	6.402892	0.005934	NaN	0.000000	0.001561	0.001679	28.0805	0.128221	0.001883	68.0773	4.183006	-164.389	-0.025543	0.401566	-0.648901	-0.650168	0.005934	68.0773	-0.648966	-3.919834E+8	-1.513783E-11	NaN
468	1.000000	0.410829	7.36964e+06	-53689.1	1005.82	-29745.7	0.000000	0.000000	6.410888	0.026556	NaN	0.000000	0.001563	0.001651	28.0803	0.074130	0.002031	36.5028	-40.1179	-164.017	0.013433	0.409544	-0.640906	-0.642190	0.026556	36.5028	-0.641451	-3.091725E+8	-8.589413E-11	NaN
468	1.000000	0.418862	7.36964e+06	-53689.1	1005.82	-29745.7	0.000000	0.000000	6.418920	-0.004105	NaN	0.000000	0.001562	0.001692	28.0806	0.049340	0.001976	24.9718	-29.2132	-166.135	-0.009240	0.417519	-0.632872	-0.634215	-0.004105	24.9718	-0.632749	-2.348360E+8	1.748175E-11	NaN
468	1.000000	0.426878	7.36964e+06	-53689.1	1005.82	-29745.7	0.000000	0.000000	6.426936	-0.002338	NaN	0.000000	0.001548	0.001697	28.0804	0.026275	0.002058	12.7691	136.876	-163.178	0.058000	0.425595	-0.624856	-0.626139	-0.002338	12.7691	-0.624719	-1.821709E+8	1.283486E-11	NaN
468	1.000000	0.434860	7.36964e+06	-53689.1	1005.82	-29745.7	0.000000	0.000000	6.434919	0.024951	NaN	0.000000	0.001586	0.001708	28.0804	0.063159	0.002171	29.0925	-81.0554	-163.838	0.085974	0.433562	-0.616875	-0.618172	0.024951	29.0925	-0.617518	-1.450479E+8	-1.720168E-10	NaN
468	1.000000	0.442841	7.36964e+06	-53689.1	1005.82	-29745.7	0.000000	0.000000	6.442903	0.073388	NaN	0.000000	0.001597	0.001664	28.0808	0.123126	0.001904	64.6637	177.403	-166.723	0.058890	0.441547	-0.608893	-0.610188	0.073388	64.6637	-0.609744	-1.133950E+8	-6.471873E-10	NaN
468	1.000000	0.450860	7.36964e+06	-53689.1	1005.82	-29745.7	0.000000	0.000000	6.450919	0.028522	NaN	0.000000	0.001550	0.001668	28.0803	0.016931	0.001810	9.356845	-155.528	-163.469	0.057364	0.449595	-0.600875	-0.602139	0.028522	9.356845	-0.603161	-9.204216E+7	-3.098787E-10	NaN
468	1.000000	0.458873	7.36964e+06	-53689.1	1005.82	-29745.7	0.000000	0.000000	6.458932	0.026334	NaN	0.000000	0.001577	0.001701	28.0806	0.077673	0.002079	37.3597	-86.6829	-164.075	0.150119	0.457514	-0.592862	-0.594220	0.026334	37.3597	-0.593390	-6.751490E+7	-3.900463E-10	NaN
468	1.000000	0.466876	7.36964e+06	-53689.1	1005.82	-29745.7	0.000000	0.000000	6.466933	-0.032742	NaN	0.000000	0.001520	0.001728	28.0804	0.060106	0.002017	29.8066	110.983	-163.941	0.006931	0.465561	-0.584858	-0.586173	-0.032742	29.8066	-0.584034	-5.016437E+7	6.527002E-10	NaN
468	1.000000	0.474892	7.36964e+06	-53689.1	1005.82	-29745.7	0.000000	0.000000	6.474950	-0.006871	NaN	0.000000	0.001526	0.001741	28.0804	0.056205	0.001995	28.1768	-175.778	-167.226	0.083241	0.473551	-0.576842	-0.578183	-0.006871	28.1768	-0.576659	-3.968368E+7	1.731514E-10	NaN
468	1.000000	0.482861	7.36964e+06	-53689.1	1005.82	-29745.7	0.000000	0.000000	6.482920	0.034486	NaN	0.000000	0.001598	0.001753	28.0806	0.070178	0.002000	35.0937	23.8226	-163.161	0.003358	0.481560	-0.568873	-0.570174	0.034486	35.0937	-0.569611	-3.171394E+7	-1.087422E-9	NaN
468	1.000000	0.490862	7.36964e+06	-53689.1	1005.82	-29745.7	0.000000	0.000000	6.490921	0.025653	NaN	0.000000	0.001601	0.001726	28.0801	0.075164	0.002018	37.2456	172.557	-166.166	-0.031769	0.489557	-0.560872	-0.562177	0.025653	37.2456	-0.561389	-2.441111E+7	-1.050865E-9	NaN
468	1.000000	0.498880	7.36964e+06	-53689.1	1005.82	-29745.7	0.000000	0.000000	6.498940	0.039196	NaN	0.000000	0.001592	0.001718	28.0803	0.089103	0.001966	45.325	-137.342	-164.581	0.056817	0.497558	-0.552854	-0.554176	0.039196	45.325	-0.553503	-1.898735E+7	-2.064322E-9	NaN
468	1.000000	0.506890	7.36964e+06	-53689.1	1005.82	-29745.7	0.000000	0.000000	6.506951	0.065078	NaN	0.000000	0.001594	0.001729	28.0803	0.063191	0.002053	30.7822	-37.4749	-164.697	0.025288	0.505518	-0.544844	-0.546216	0.065078	30.7822	-0.546430	-1.515294E+7	-4.294742E-9	NaN
468	1.000000	0.514894	7.36964e+06	-53689.1	1005.82	-29745.7	0.000000	0.000000	6.514950	-0.057648	NaN	0.000000	0.001568	0.001740	28.0801	0.061107	0.002180	28.0351	-128.848	-164.89	-0.151861	0.513575	-0.536840	-0.538160	-0.057648	28.0351	-0.535298	-1.062007E+7	5.428220E-9	NaN
468	1.000000	0.522900	7.36964e+06	-53689.1	1005.82	-29745.7	0.000000	0.000000	6.522962	0.081689	NaN	0.000000	0.001634	0.001691	28.079	0.048016	0.001988	24.1505	-141.839	-163.747	0.107712	0.521607	-0.528834	-0.530127	0.081689	24.1505	-0.531371	-9.36724e+06	-8.720706E-9	NaN
468	1.000000	0.530878	7.36964e+06	-53689.1	1005.82	-29745.7	0.000000	0.000000	6.530937	0.009331	NaN	0.000000	0.001613	0.001712	28.0789	0.055387	0.002056	26.9416	-11.409	-164.538	-0.043570	0.529554	-0.520856	-0.522181	0.009331	26.9416	-0.521116	-6.74706e+06	-1.382901E-9	NaN
468	1.000000	0.538901	7.36964e+06	-53689.1	1005.82	-29745.7	0.000000	0.000000	6.538960	0.007267	NaN	0.000000	0.001587	0.001713	28.0792	0.147592	0.002114	69.8115	98.7765	-165.098	0.017627	0.537625	-0.512833	-0.514110	0.007267	69.8115	-0.512911	-5.18745e+06	-1.400808E-9	NaN
468	1.000000	0.546852	7.36964e+06	-53689.1	1005.82	-29745.7	0.000000	0.000000	6.546910	-0.002076	NaN	0.000000	0.001587	0.001766	28.079	0.061850	0.001995	31.0093	56.5339	-164.57	-0.097496	0.545584	-0.504882	-0.506150	-0.002076	31.0093	-0.504832	-4.00312e+06	5.184820E-10	NaN
468	1.000000	0.554915	7.36964e+06	-53689.1	1005.82	-29745.7	0.000000	0.000000	6.554975	0.043763	NaN	0.000000	0.001629	0.001762	28.079	0.047645	0.002046	23.291	-10.1855	-162.738	-0.035794	0.553581	-0.496819	-0.498153	0.043763	23.291	-0.498229	-3.23819e+06	-1.351463E-8	NaN
468	1.000000	0.562911	7.36964e+06	-53689.1	1005.82	-29745.7	0.000000	0.000000	6.562971	0.042096	NaN	0.000000	0.001600	0.001759	28.0789	0.102401	0.001923	53.2587	-0.415235	-167.662	0.102956	0.561605	-0.488823	-0.490129	0.042096	53.2587	-0.489416	-2.43913e+06	-1.725870E-8	NaN
468	1.000000	0.570908	7.36964e+06	-53689.1	1005.82	-29745.7	0.000000	0.000000	6.570967	0.026101	NaN	0.000000	0.001601	0.001756	28.0787	0.087306	0.002043	42.7343	9.157854	-164.541	0.011539	0.569599	-0.480827	-0.482136	0.026101	42.7343	-0.481285	-1.87719e+06	-1.390437E-8	NaN
468	1.000000	0.578928	7.36964e+06	-53689.1	1005.82	-29745.7	0.000000	0.000000	6.578985	-0.030615	NaN	0.000000	0.001615	0.001716	28.0789	0.046559	0.002010	23.1692	-121.669	-164.659	-0.025812	0.577658	-0.472806	-0.474077	-0.030615	23.1692	-0.471815	-1.38313e+06	2.213441E-8	NaN
468	1.000000	0.586916	7.36964e+06	-53689.1	1005.82	-29745.7	0.000000	0.000000	6.586974	-0.006421	NaN	0.000000	0.001613	0.001727	28.0789	0.156260	0.002001	78.0794	-144.567	-167.231	-0.010190	0.585626	-0.464818	-0.466108	-0.006421	78.0794	-0.464756	-1.1011e+06	5.831172E-9	NaN
468	1.000000	0.594910	7.36964e+06	-53689.1	1005.82	-29745.7	0.000000	0.000000	6.594971	0.059043	NaN	0.000000	0.001631	0.001714	28.0789	0.088794	0.001998	44.4438	143.35	-164.815	0.091643	0.593592	-0.456824	-0.458142	0.059043	44.4438	-0.457820	-879797	-6.711014E-8	NaN
468	1.000000	0.602960	7.36964e+06	-53689.1	1005.82	-29745.7	0.000000	0.000000	6.603017	-0.031435	NaN	0.000000	0.001609	0.001703	28.0791	0.094666	0.002024	46.7808	-47.4651	-165.799	-0.059378	0.601581	-0.448774	-0.450154	-0.031435	46.7808	-0.448270	-645627	4.868842E-8	NaN
468	1.000000	0.610918	7.36964e+06	-53689.1	1005.82	-29745.7	0.000000	0.000000	6.610977	0.037834	NaN	0.000000	0.001659	0.001701	28.0789	0.033945	0.002113	16.063	-144.337	-164.586	-0.043842	0.609553	-0.440817	-0.442182	0.037834	16.063	-0.442583	-536799	-7.048135E-8	NaN
468	1.000000	0.618927	7.36964e+06	-53689.1	1005.82	-29745.7	0.000000	0.000000	6.618985	-0.001590	NaN	0.000000	0.001646	0.001723	28.0789	0.072255	0.002129	33.9453	-30.1129	-168.709	-0.006222	0.617625	-0.432807	-0.434109	-0.001590	33.9453	-0.432772	-390178	4.073874E-9	NaN
468	1.000000	0.626912	7.36964e+06	-53689.1	1005.82	-29745.7	0.000000	0.000000	6.626970	-0.016895	NaN	0.000000	0.001619	0.001696	28.079	0.016302	0.001956	8.332440	-104.744	-161.226	-0.000238	0.625597	-0.424822	-0.426138	-0.016895	8.332440	-0.423301	-286562	5.895864E-8	NaN
468	1.000000	0.634933	7.36964e+06	-53689.1	1005.82	-29745.7	0.000000	0.000000	6.634992	0.012465	NaN	0.000000	0.001615	0.001730	28.079	0.087892	0.001988	44.2069	35.8413	-166.367	0.045829	0.633623	-0.416801	-0.418111	0.012465	44.2069	-0.417013	-233361	-5.341375E-8	NaN
468	1.000000	0.642951	7.36964e+06	-53689.1	1005.82	-29745.7	0.000000	0.000000	6.643009	0.007931	NaN	0.000000	0.001646	0.001705	28.0791	0.119318	0.001874	63.6652	-83.6485	-163.139	-0.013981	0.641614	-0.408783	-0.410121	0.007931	63.6652	-0.408877	-178824	-4.434883E-8	NaN
468	1.000000	0.650937	7.36964e+06	-53689.1	1005.82	-29745.7	0.000000	0.000000	6.650997	0.035918	NaN	0.000000	0.001600	0.001694	28.0792	0.079163	0.002009	39.4074	45.2968	-164.886	0.078998	0.649637	-0.400797	-0.402098	0.035918	39.4074	-0.401480	-140314	-2.559846E-7	NaN
468	1.000000	0.658956	7.36964e+06	-53689.1	1005.82	-29745.7	0.000000	0.000000	6.659015	0.004231	NaN	0.000000	0.001607	0.001708	28.0801	0.004678	0.002056	2.274745	31.1897	-164.377	-0.038974	0.657633	-0.392778	-0.394101	0.004231	2.274745	-0.394173	-110362	-3.833576E-8	NaN
468	1.000000	0.666959	7.36964e+06	-53689.1	1005.82	-29745.7	0.000000	0.000000	6.667017	-0.014649	NaN	0.000000	0.001582	0.001721	28.0805	0.042286	0.001933	21.8775	71.7312	-167.539	-0.019095	0.665681	-0.384775	-0.386054	-0.014649	21.8775	-0.384273	-79647.3	1.839234E-7	NaN
468	1.000000	0.674985	7.36964e+06	-53689.1	1005.82	-29745.7	0.000000	0.000000	6.675046	0.061036	NaN	0.000000	0.001597	0.001711	28.0803	0.030112	0.001855	16.2341	-130.936	-163.509	-0.047944	0.673638	-0.376749	-0.378096	0.061036	16.2341	-0.379569	-68187.1	-8.951287E-7	NaN
468	1.000000	0.682946	7.36964e+06	-53689.1	1005.82	-29745.7	0.000000	0.000000	6.683005	0.010632	NaN	0.000000	0.001567	0.001689	28.0802	0.045320	0.002062	21.9841	158.471	-161.827	-0.012678	0.681608	-0.368788	-0.370127	0.010632	21.9841	-0.369151	-48294.2	-2.201523E-7	NaN
468	1.000000	0.690910	7.36964e+06	-53689.1	1005.82	-29745.7	0.000000	0.000000	6.690971	0.069955	NaN	0.000000	0.001583	0.001691	28.0802	0.048384	0.001998	24.2132	-10.6817	-165.655	0.045494	0.689631	-0.360824	-0.362104	0.069955	24.2132	-0.362991	-39360.1	-1.777311E-6	NaN
468	1.000000	0.698960	7.36964e+06	-53689.1	1005.82	-29745.7	0.000000	0.000000	6.699019	0.016572	NaN	0.000000	0.001551	0.001719	28.0801	0.046426	0.001888	24.5866	83.3007	-169.304	0.024229	0.697618	-0.352774	-0.354116	0.016572	24.5866	-0.353279	-28481.8	-5.818306E-7	NaN
468	1.000000	0.706986	7.36964e+06	-53689.1	1005.82	-29745.7	0.000000	0.000000	6.707044	-0.004639	NaN	0.000000	0.001552	0.001722	28.0804	0.042862	0.002026	21.1567	-67.01	-164.212	0.021114	0.705639	-0.344749	-0.346095	-0.004639	21.1567	-0.344584	-21296.6	2.178085E-7	NaN
468	1.000000	0.714976	7.36964e+06	-53689.1	1005.82	-29745.7	0.000000	0.000000	6.715038	0.076313	NaN	0.000000	0.001568	0.001701	28.0803	0.044049	0.002027	21.7284	65.767	-165.841	0.021675	0.713648	-0.336758	-0.338086	0.076313	21.7284	-0.339392	-17893.4	-4.264847E-6	NaN
468	1.000000	0.722955	7.36964e+06	-53689.1	1005.82	-29745.7	0.000000	0.000000	6.723014	0.026319	NaN	0.000000	0.001549	0.001729	28.0804	0.046541	0.002071	22.4719	50.0232	-165.009	-0.034583	0.721701	-0.328779	-0.330033	0.026319	22.4719	-0.329657	-12895.4	-2.040934E-6	NaN
468	1.000000	0.730998	7.36964e+06	-53689.1	1005.82	-29745.7	0.000000	0.000000	6.731058	0.033137	NaN	0.000000	0.001556	0.001717	28.0804	0.050536	0.002005	25.2051	94.4424	-163.379	-0.017185	0.729683	-0.320736	-0.322051	0.033137	25.2051	-0.321722	-9862.14	-3.360053E-6	NaN
468	1.000000	0.738981	7.36964e+06	-53689.1	1005.82	-29745.7	0.000000	0.000000	6.739040	0.011419	NaN	0.000000	0.001516	0.001715	28.0803	0.120121	0.002019	59.4809	54.3835	-165.281	0.020079	0.737711	-0.312753	-0.314023	0.011419	59.4809	-0.312897	-7309.61	-1.562169E-6	NaN
468	1.000000	0.746977	7.36964e+06	-53689.1	1005.82	-29745.7	0.000000	0.000000	6.747038	0.072549	NaN	0.000000	0.001513	0.001710	28.0805	0.118848	0.002108	56.3688	170.605	-164.603	0.009636	0.745653	-0.304758	-0.306081	0.072549	56.3688	-0.305723	-5723.77	-1.267498E-5	NaN
468	1.000000	0.754965	7.36964e+06	-53689.1	1005.82	-29745.7	0.000000	0.000000	6.755022	-0.009318	NaN	0.000000	0.001553	0.001700	28.0804	0.107426	0.001970	54.5388	-76.703	-164.862	-0.024346	0.753697	-0.296770	-0.298038	-0.009318	54.5388	-0.296642	-4193.62	2.221855E-6	NaN
468	1.000000	0.762965	7.36964e+06	-53689.1	1005.82	-29745.7	0.000000	0.000000	6.763024	0.023218	NaN	0.000000	0.001517	0.001722	28.0805	0.030212	0.002086	14.4845	126.587	-166.235	0.010923	0.761688	-0.288769	-0.290046	0.023218	14.4845	-0.289972	-3333.31	-6.965553E-6	NaN
468	1.000000	0.770979	7.36964e+06	-53689.1	1005.82	-29745.7	0.000000	0.000000	6.771036	-0.016378	NaN	0.000000	0.001509	0.001782	28.0804	0.059336	0.001890	31.4018	-154.377	-164.435	0.011683	0.769687	-0.280756	-0.282048	-0.016378	31.4018	-0.280364	-2390.39	6.851521E-6	NaN
468	1.000000	0.779004	7.36964e+06	-53689.1	1005.82	-29745.7	0.000000	0.000000	6.779065	0.063529	NaN	0.000000	0.001516	0.001752	28.0803	0.027557	0.002012	13.6976	-64.89	-167.039	0.082515	0.777700	-0.272731	-0.274034	0.063529	13.6976	-0.276209	-2068.71	-3.070940E-5	NaN
468	1.000000	0.787006	7.36964e+06	-53689.1	1005.82	-29745.7	0.000000	0.000000	6.787067	0.078676	NaN	0.000000	0.001571	0.001712	28.0804	0.021807	0.002077	10.5	-1.121190	-163.032	0.024983	0.785732	-0.264728	-0.266003	0.078676	10.5	-0.270348	-1685.92	-4.666641E-5	NaN
468	1.000000	0.794989	7.36964e+06	-53689.1	1005.82	-29745.7	0.000000	0.000000	6.795048	0.022487	NaN	0.000000	0.001533	0.001739	28.0791	0.091992	0.002021	45.5275	93.5489	-164.112	0.063708	0.793695	-0.256745	-0.258039	0.022487	45.5275	-0.257115	-1058.4	-2.124602E-5	NaN
468	1.000000	0.802995	7.36964e+06	-53689.1	1005.82	-29745.7	0.000000	0.000000	6.803053	-0.004502	NaN	0.000000	0.001536	0.001723	28.0792	0.048512	0.002124	22.8404	76.1452	-166.396	-0.067002	0.801721	-0.248739	-0.250014	-0.004502	22.8404	-0.248591	-781.918	5.758114E-6	NaN
468	1.000000	0.811002	7.36964e+06	-53689.1	1005.82	-29745.7	0.000000	0.000000	6.811060	0.007296	NaN	0.000000	0.001510	0.001748	28.079	0.023254	0.002114	11.0017	-77.5539	-163.499	0.068926	0.809683	-0.240732	-0.242052	0.007296	11.0017	-0.241230	-600.825	-1.214286E-5	NaN
468	1.000000	0.819002	7.36964e+06	-53689.1	1005.82	-29745.7	0.000000	0.000000	6.819061	0.013391	NaN	0.000000	0.001511	0.001739	28.0791	0.161928	0.001974	82.0256	-123.644	-162.777	0.141871	0.817716	-0.232732	-0.234018	0.013391	82.0256	-0.232854	-444.138	-3.015087E-5	NaN
468	1.000000	0.826999	7.36964e+06	-53689.1	1005.82	-29745.7	0.000000	0.000000	6.827058	0.022897	NaN	0.000000	0.001517	0.001742	28.0792	0.022531	0.001981	11.3745	-174.975	-167.096	0.052814	0.825724	-0.224735	-0.226010	0.022897	11.3745	-0.226245	-349.218	-6.556648E-5	NaN
468	1.000000	0.834980	7.36964e+06	-53689.1	1005.82	-29745.7	0.000000	0.000000	6.835042	0.090790	NaN	0.000000	0.001492	0.001693	28.079	0.062792	0.001939	32.385	125.025	-165.893	0.055307	0.833696	-0.216755	-0.218038	0.090790	32.385	-0.218857	-266.318	-0.000341	NaN
468	1.000000	0.843037	7.36964e+06	-53689.1	1005.82	-29745.7	0.000000	0.000000	6.843097	0.043430	NaN	0.000000	0.001552	0.001726	28.0788	0.028925	0.002049	14.115	141.822	-163.343	0.019346	0.841697	-0.208697	-0.210037	0.043430	14.115	-0.211005	-199.106	-0.000218	NaN
468	1.000000	0.851020	7.36964e+06	-53689.1	1005.82	-29745.7	0.000000	0.000000	6.851080	0.023375	NaN	0.000000	0.001540	0.001723	28.0792	0.101615	0.002082	48.8083	-152.85	-164.107	0.046416	0.849749	-0.200714	-0.201985	0.023375	48.8083	-0.201073	-137.189	-0.000170	NaN
468	1.000000	0.859028	7.36964e+06	-53689.1	1005.82	-29745.7	0.000000	0.000000	6.859089	0.069015	NaN	0.000000	0.001564	0.001726	28.0792	0.021184	0.002070	10.236	-52.3721	-165.236	0.097729	0.857708	-0.192706	-0.194027	0.069015	10.236	-0.197763	-121.023	-0.000570	NaN
468	1.000000	0.867028	7.36964e+06	-53689.1	1005.82	-29745.7	0.000000	0.000000	6.867088	0.029212	NaN	0.000000	0.001555	0.001697	28.0792	0.066154	0.002008	32.951	-123.102	-166.256	0.020073	0.865681	-0.184706	-0.186053	0.029212	32.951	-0.185371	-75.2282	-0.000388	NaN
468	1.000000	0.875033	7.36964e+06	-53689.1	1005.82	-29745.7	0.000000	0.000000	6.875090	-0.014293	NaN	0.000000	0.001542	0.001722	28.0793	0.099541	0.002010	49.5143	-91.8087	-164.872	0.025836	0.873731	-0.176701	-0.178003	-0.014293	49.5143	-0.176485	-53.1444	0.000269	NaN
468	1.000000	0.883031	7.36964e+06	-53689.1	1005.82	-29745.7	0.000000	0.000000	6.883091	0.055228	NaN	0.000000	0.001573	0.001713	28.079	0.054266	0.002133	25.4379	78.8516	-164.053	0.063682	0.881756	-0.168703	-0.169978	0.055228	25.4379	-0.170332	-41.6266	-0.001327	NaN
468	1.000000	0.891045	7.36964e+06	-53689.1	1005.82	-29745.7	0.000000	0.000000	6.891104	0.026939	NaN	0.000000	0.001611	0.001707	28.0793	0.055614	0.001989	27.9582	117.844	-166.554	-0.031874	0.889739	-0.160689	-0.161995	0.026939	27.9582	-0.161412	-29.0423	-0.000928	NaN
468	1.000000	0.899047	7.36964e+06	-53689.1	1005.82	-29745.7	0.000000	0.000000	6.899106	0.018143	NaN	0.000000	0.001592	0.001725	28.0792	0.064732	0.001875	34.5266	142.374	-166.552	0.048866	0.897791	-0.152687	-0.153943	0.018143	34.5266	-0.153082	-20.6049	-0.000881	NaN
468	1.000000	0.907055	7.36964e+06	-53689.1	1005.82	-29745.7	0.000000	0.000000	6.907117	0.079134	NaN	0.000000	0.001582	0.001694	28.0791	0.038108	0.001935	19.6964	-172.013	-163.712	0.090638	0.905758	-0.144679	-0.145976	0.079134	19.6964	-0.147692	-16.4356	-0.004815	NaN
468	1.000000	0.915044	7.36964e+06	-53689.1	1005.82	-29745.7	0.000000	0.000000	6.915105	0.061380	NaN	0.000000	0.001566	0.001721	28.079	0.062072	0.002121	29.2585	-122.734	-163.803	0.042432	0.913758	-0.136690	-0.137976	0.061380	29.2585	-0.138264	-10.9714	-0.005595	NaN
468	1.000000	0.923060	7.36964e+06	-53689.1	1005.82	-29745.7	0.000000	0.000000	6.923122	0.075555	NaN	0.000000	0.001571	0.001719	28.0791	0.114287	0.002079	54.9587	-78.803	-165.146	0.136344	0.921768	-0.128674	-0.129966	0.075555	54.9587	-0.129705	-7.521089	-0.010046	NaN
468	1.000000	0.931026	7.36964e+06	-53689.1	1005.82	-29745.7	0.000000	0.000000	6.931087	0.063606	NaN	0.000000	0.001584	0.001705	28.0806	0.108136	0.001900	56.903	-72.9541	-164.93	0.040923	0.929720	-0.120708	-0.122014	0.063606	56.903	-0.121546	-5.190351	-0.012255	NaN
468	1.000000	0.939043	7.36964e+06	-53689.1	1005.82	-29745.7	0.000000	0.000000	6.939103	0.040989	NaN	0.000000	0.001601	0.001740	28.0803	0.108168	0.001905	56.777	169.939	-167.028	0.019995	0.937764	-0.112691	-0.113970	0.040989	56.777	-0.113233	-3.511789	-0.011672	NaN
468	1.000000	0.947088	7.36964e+06	-53689.1	1005.82	-29745.7	0.000000	0.000000	6.947147	0.025068	NaN	0.000000	0.001593	0.001710	28.0804	0.045348	0.002014	22.5127	171.291	-166.352	0.087813	0.945768	-0.104646	-0.105966	0.025068	22.5127	-0.105481	-2.407460	-0.010413	NaN
468	1.000000	0.955064	7.36964e+06	-53689.1	1005.82	-29745.7	0.000000	0.000000	6.955123	0.028790	NaN	0.000000	0.001577	0.001734	28.0802	0.003816	0.001964	1.943145	45.6784	-166.603	-0.095799	0.953738	-0.096671	-0.097997	0.028790	1.943145	-0.107783	-2.696945	-0.010675	NaN
468	1.000000	0.963081	7.36964e+06	-53689.1	1005.82	-29745.7	0.000000	0.000000	6.963140	0.034007	NaN	0.000000	0.001551	0.001752	28.0804	0.102248	0.002026	50.4563	-65.8702	-164.116	0.047773	0.961759	-0.088654	-0.089976	0.034007	50.4563	-0.089159	-1.032852	-0.032925	NaN
468	1.000000	0.971048	7.36964e+06	-53689.1	1005.82	-29745.7	0.000000	0.000000	6.971104	-0.033685	NaN	0.000000	0.001532	0.001702	28.0805	0.074651	0.001864	40.0451	68.993	-161.559	-0.002889	0.969786	-0.080687	-0.081948	-0.033685	40.0451	-0.080056	-0.620986	0.054244	NaN
468	1.000000	0.979046	7.36964e+06	-53689.1	1005.82	-29745.7	0.000000	0.000000	6.979104	0.014967	NaN	0.000000	0.001542	0.001748	28.0803	0.042947	0.002089	20.561	42.7082	-165.694	-0.035020	0.977859	-0.072689	-0.073875	0.014967	20.561	-0.073235	-0.415498	-0.036023	NaN
468	1.000000	0.987048	7.36964e+06	-53689.1	1005.82	-29745.7	0.000000	0.000000	6.987107	0.017994	NaN	0.000000	0.001526	0.001746	28.0804	0.060304	0.002115	28.5133	147.153	-164.931	0.042397	0.985762	-0.064686	-0.065973	0.017994	28.5133	-0.065160	-0.251770	-0.071470	NaN
468	1.000000	0.995081	7.36964e+06	-53689.1	1005.82	-29745.7	0.000000	0.000000	6.995138	-0.044944	NaN	0.000000	0.001544	0.001706	28.0803	0.104014	0.001953	53.2646	-33.119	-166.165	0.097565	0.993744	-0.056653	-0.057990	-0.044944	53.2646	-0.056020	-0.138009	0.325658	NaN
468	1.000000	1.003092	7.36964e+06	-53689.1	1005.82	-29745.7	0.000000	0.000000	7.003153	0.050131	NaN	0.000000	0.001562	0.001714	28.0805	0.049672	0.002085	23.8225	49.4945	-166.108	0.094138	1.001744	-0.048642	-0.049991	0.050131	23.8225	-0.050220	-0.092660	-0.541018	NaN
468	1.000000	1.011095	7.36964e+06	-53689.1	1005.82	-29745.7	0.000000	0.000000	7.011156	0.063855	NaN	0.000000	0.001534	0.001705	28.0804	0.056859	0.001964	28.956	161.738	-166.955	0.039175	1.009765	-0.040639	-0.041969	0.063855	28.956	-0.042293	-0.053115	-1.202206	NaN
468	1.000000	1.019088	7.36964e+06	-53689.1	1005.82	-29745.7	0.000000	0.000000	7.019143	-0.064710	NaN	0.000000	0.001525	0.001708	28.0803	0.082953	0.001996	41.5518	-116.572	-167.857	-0.006335	1.017818	-0.032646	-0.033916	-0.064710	41.5518	-0.031478	-0.025325	2.555133	NaN
468	1.000000	1.027103	7.36964e+06	-53689.1	1005.82	-29745.7	0.000000	0.000000	7.027158	-0.081625	NaN	0.000000	0.001567	0.001716	28.0804	0.068364	0.001988	34.3818	56.9962	-167.431	0.090032	1.025764	-0.024631	-0.025970	-0.081625	34.3818	-0.022850	-0.014845	5.498515	NaN
468	1.000000	1.035104	7.36964e+06	-53689.1	1005.82	-29745.7	0.000000	0.000000	7.035160	-0.069554	NaN	0.000000	0.001566	0.001727	28.0802	0.077998	0.002014	38.7235	-14.6742	-166.134	-0.012045	1.033816	-0.016630	-0.017918	-0.069554	38.7235	-0.015283	-0.009446	7.363655	NaN
468	1.000000	1.043084	7.36964e+06	-53689.1	1005.82	-29745.7	0.000000	0.000000	7.043146	0.092295	NaN	0.000000	0.001574	0.001714	28.0804	0.051892	0.001987	26.1127	-60.6583	-167.48	0.071354	1.041800	-0.008650	-0.009934	0.092295	26.1127	-0.011301	-0.007130	-12.9453	NaN
468	1.000000	1.051102	7.36964e+06	-53689.1	1005.82	-29745.7	0.000000	0.000000	7.051172	0.287481	NaN	0.000000	0.001586	0.001733	28.0801	0.534009	0.001940	275.268	14.9201	-166.727	-0.057150	1.049808	-0.000633	-0.001926	0.287481	275.268	-0.001416	-0.001030	-279.117	NaN
468	1.000000	1.058973	7.36964e+06	-53689.1	1005.82	-29745.7	0.000000	0.000000	7.059357	7.910378	NaN	0.000000	0.001582	0.001731	28.0801	7.391261	0.001716	4307.4	10.2075	-172.476	6.249191	1.057762	0.007239	0.006028	7.910378	4307.4	0.005862	0.004933	1603.43	56029.3
468	2.000000	1.061710	7.36964e+06	-53689.1	1005.82	-29745.7	0.000000	0.000000	7.062173	9.838436	NaN	0.000000	0.001562	0.001749	28.079	10.1298	0.001847	5484.17	9.835487	-172.06	9.330260	1.061408	0.009976	0.009674	9.838436	5484.17	0.008630	0.007698	1277.98	57106.3
468	2.000000	1.063720	7.36964e+06	-53689.1	1005.82	-29745.7	0.000000	0.000000	7.064259	11.669	NaN	0.000000	0.001567	0.001744	28.0789	11.643	0.001684	6914.31	4.193520	-170.744	11.9989	1.063410	0.011986	0.011676	11.669	6914.31	0.010720	0.009993	1167.71	63193.5
468	2.000000	1.065625	7.36964e+06	-53689.1	1005.82	-29745.7	0.000000	0.000000	7.066251	13.8099	NaN	0.000000	0.001660	0.001723	28.0797	14.6355	0.001765	8292.93	9.066084	-176.588	13.3318	1.065374	0.013891	0.013640	13.8099	8292.93	0.012642	0.012268	1125.69	68406.1
468	2.000000	1.067613	7.36964e+06	-53689.1	1005.82	-29745.7	0.000000	0.000000	7.068414	18.0742	NaN	0.000000	0.001628	0.001757	28.0791	16.1326	0.001837	8783.94	7.575454	-175.429	17.1842	1.067343	0.015878	0.015609	18.0742	8783.94	0.014335	0.014409	1254.39	66857.2
468	2.000000	1.069635	7.36964e+06	-53689.1	1005.82	-29745.7	0.000000	0.000000	7.070595	21.9217	NaN	0.000000	0.001585	0.001735	28.0792	18.1246	0.001743	10398.5	4.755254	-173.408	20.9603	1.069275	0.017900	0.017541	21.9217	10398.5	0.016319	0.017085	1283.08	72683
468	2.000000	1.071646	7.36964e+06	-53689.1	1005.82	-29745.7	0.000000	0.000000	7.072793	26.452	NaN	0.000000	0.001628	0.001712	28.0789	20.2782	0.001708	11873.3	5.035135	-176.267	25.1278	1.071308	0.019912	0.019574	26.452	11873.3	0.018241	0.019853	1332.36	76988.3
468	2.000000	1.073640	7.36964e+06	-53689.1	1005.82	-29745.7	0.000000	0.000000	7.074931	29.9509	NaN	0.000000	0.001611	0.001760	28.0795	22.139	0.001887	11732.3	6.136696	-174.998	29.3997	1.073318	0.021906	0.021584	29.9509	11732.3	0.019992	0.022529	1329.44	71414.5
468	2.000000	1.075642	7.36964e+06	-53689.1	1005.82	-29745.7	0.000000	0.000000	7.077203	36.5181	NaN	0.000000	0.001613	0.001690	28.0793	23.5219	0.001767	13314.9	1.725026	-173.121	35.9711	1.075274	0.023908	0.023540	36.5181	13314.9	0.021851	0.025535	1430.13	76128
468	2.000000	1.077594	7.36964e+06	-53689.1	1005.82	-29745.7	0.000000	0.000000	7.079459	43.9414	NaN	0.000000	0.001567	0.001731	28.079	25.4554	0.001717	14829.6	6.777052	-179.781	42.1588	1.077342	0.025859	0.025608	43.9414	14829.6	0.023637	0.028583	1537.34	80140.3
468	2.000000	1.079589	7.36964e+06	-53689.1	1005.82	-29745.7	0.000000	0.000000	7.081556	46.4209	NaN	0.000000	0.001577	0.001720	28.0796	28.7208	0.001773	16203.5	6.609045	179.486	45.9615	1.079196	0.027854	0.027461	46.4209	16203.5	0.025706	0.032312	1436.64	82356.9
468	2.000000	1.081642	7.36964e+06	-53689.1	1005.82	-29745.7	0.000000	0.000000	7.083884	53.0797	NaN	0.000000	0.001567	0.001700	28.079	30.3173	0.001790	16936.2	6.087794	-178.045	54.0606	1.081264	0.029908	0.029530	53.0797	16936.2	0.027557	0.035833	1481.31	81742.7
468	2.000000	1.083567	7.36964e+06	-53689.1	1005.82	-29745.7	0.000000	0.000000	7.085971	57.0232	NaN	0.000000	0.001554	0.001687	28.079	32.1531	0.001785	18015.1	8.995477	176.547	55.9097	1.083273	0.031833	0.031539	57.0232	18015.1	0.029459	0.039630	1438.9	82679.6
468	2.000000	1.085610	7.36964e+06	-53689.1	1005.82	-29745.7	0.000000	0.000000	7.088353	65.2828	NaN	0.000000	0.001570	0.001733	28.0794	34.6307	0.001872	18499.6	6.194707	178.991	63.9544	1.085276	0.033875	0.033541	65.2828	18499.6	0.031229	0.043329	1506.67	81198.1
468	2.000000	1.087577	7.36964e+06	-53689.1	1005.82	-29745.7	0.000000	0.000000	7.090761	75.9958	NaN	0.000000	0.001567	0.001774	28.0792	35.3615	0.001767	20017.5	5.873120	179.197	73.9243	1.087282	0.035842	0.035548	75.9958	20017.5	0.032995	0.047180	1610.76	84198.1
468	2.000000	1.089524	7.36964e+06	-53689.1	1005.82	-29745.7	0.000000	0.000000	7.092763	77.3262	NaN	0.000000	0.001556	0.001744	28.0796	38.196	0.001837	20796.5	7.835973	175.667	74.8533	1.089191	0.037790	0.037457	77.3262	20796.5	0.035001	0.051748	1494.28	83524.9
468	2.000000	1.091595	7.36964e+06	-53689.1	1005.82	-29745.7	0.000000	0.000000	7.095226	86.8762	NaN	0.000000	0.001566	0.001755	28.0792	38.5258	0.001652	23322.6	-0.189625	-177.281	85.5774	1.091278	0.039860	0.039544	86.8762	23322.6	0.037067	0.056668	1533.08	89512.3
468	2.000000	1.093503	7.36964e+06	-53689.1	1005.82	-29745.7	0.000000	0.000000	7.097284	90.5266	NaN	0.000000	0.001551	0.001732	28.0792	41.5251	0.001816	22872.4	6.105758	177.087	87.8437	1.093210	0.041768	0.041476	90.5266	22872.4	0.038800	0.060964	1484.92	84634.6
468	2.000000	1.095640	7.36964e+06	-53689.1	1005.82	-29745.7	0.000000	0.000000	7.099729	98.0136	NaN	0.000000	0.001544	0.001737	28.0804	43.5945	0.001887	23102.8	4.958648	178.857	100.012	1.095306	0.043905	0.043572	98.0136	23102.8	0.040723	0.065911	1487.05	82216.2
468	2.000000	1.097494	7.36964e+06	-53689.1	1005.82	-29745.7	0.000000	0.000000	7.102196	112.906	NaN	0.000000	0.001553	0.001756	28.0803	44.1092	0.001788	24674.7	3.951764	179.119	109.044	1.097158	0.045760	0.045424	112.906	24674.7	0.042328	0.070183	1608.74	85096
468	2.000000	1.099600	7.36964e+06	-53689.1	1005.82	-29745.7	0.000000	0.000000	7.104475	117.109	NaN	0.000000	0.001519	0.001729	28.081	47.4631	0.001774	26756.7	10.244	171.842	117.856	1.099224	0.047865	0.047489	117.109	26756.7	0.044583	0.076407	1532.7	88437.9
468	2.000000	1.101515	7.36964e+06	-53689.1	1005.82	-29745.7	0.000000	0.000000	7.106658	123.614	NaN	0.000000	0.001522	0.001741	28.0804	49.273	0.001770	27839.6	5.581256	175.815	119.692	1.101291	0.049781	0.049556	123.614	27839.6	0.046451	0.081760	1511.91	88954.2
468	2.000000	1.103556	7.36964e+06	-53689.1	1005.82	-29745.7	0.000000	0.000000	7.109162	134.874	NaN	0.000000	0.001560	0.001749	28.0804	49.5896	0.001651	30036.8	-0.198678	-178.842	133.801	1.103192	0.051822	0.051458	134.874	30036.8	0.048454	0.087695	1537.98	92670
468	2.000000	1.105583	7.36964e+06	-53689.1	1005.82	-29745.7	0.000000	0.000000	7.111256	136.505	NaN	0.000000	0.001575	0.001737	28.0805	53.4921	0.001848	28938.7	2.419040	178.468	135.499	1.105404	0.053849	0.053669	136.505	28938.7	0.050311	0.093377	1461.86	86522.9
468	2.000000	1.107546	7.36964e+06	-53689.1	1005.82	-29745.7	0.000000	0.000000	7.113839	151.58	NaN	0.000000	0.001569	0.001719	28.0804	54.5116	0.001732	31470.3	6.574616	174.495	150.346	1.107253	0.055812	0.055518	151.58	31470.3	0.052200	0.099334	1525.97	91227.6
468	2.000000	1.109488	7.36964e+06	-53689.1	1005.82	-29745.7	0.000000	0.000000	7.116180	161.297	NaN	0.000000	0.001535	0.001730	28.0813	56.4779	0.001727	32696.9	3.602781	176.424	158.156	1.109240	0.057754	0.057506	161.297	32696.9	0.054054	0.105354	1531	92035.4
468	2.000000	1.111563	7.36964e+06	-53689.1	1005.82	-29745.7	0.000000	0.000000	7.118750	173.328	NaN	0.000000	0.001560	0.001736	28.0804	58.7018	0.001857	31616.5	4.620348	176.205	171.942	1.111212	0.059828	0.059477	173.328	31616.5	0.055717	0.110898	1562.95	86741.1
468	2.000000	1.113510	7.36964e+06	-53689.1	1005.82	-29745.7	0.000000	0.000000	7.121377	189.86	NaN	0.000000	0.001527	0.001730	28.0804	59.5889	0.001646	36203.7	3.100279	176.783	188.079	1.113064	0.061775	0.061329	189.86	36203.7	0.057842	0.118185	1606.46	96215.6
468	2.000000	1.115503	7.36964e+06	-53689.1	1005.82	-29745.7	0.000000	0.000000	7.123556	194.368	NaN	0.000000	0.001546	0.001737	28.0804	63.7663	0.001761	36208.2	4.570337	174.487	191.397	1.115326	0.063769	0.063591	194.368	36208.2	0.059743	0.124888	1556.34	93609.6
468	2.000000	1.117398	7.36964e+06	-53689.1	1005.82	-29745.7	0.000000	0.000000	7.126171	211.888	NaN	0.000000	0.001529	0.001712	28.0804	64.7852	0.001749	37043.3	6.889600	171.928	204.132	1.117114	0.065664	0.065380	211.888	37043.3	0.061374	0.130780	1620.18	93586.3
468	2.000000	1.119471	7.36964e+06	-53689.1	1005.82	-29745.7	0.000000	0.000000	7.128600	220.521	NaN	0.000000	0.001578	0.001725	28.0809	67.1369	0.001897	35384.4	3.077874	176.992	216.62	1.119220	0.067737	0.067486	220.521	35384.4	0.063063	0.137019	1609.41	87336
468	2.000000	1.121435	7.36964e+06	-53689.1	1005.82	-29745.7	0.000000	0.000000	7.131073	232.902	NaN	0.000000	0.001554	0.001745	28.0803	68.6187	0.001838	37340.6	3.897667	175.853	227.629	1.121072	0.069700	0.069338	232.902	37340.6	0.065022	0.144432	1612.54	89768.4
468	2.000000	1.123427	7.36964e+06	-53689.1	1005.82	-29745.7	0.000000	0.000000	7.133528	244.168	NaN	0.000000	0.001547	0.001763	28.0804	69.6251	0.001854	37556.5	4.682008	175.163	238.016	1.123091	0.071692	0.071357	244.168	37556.5	0.066816	0.151379	1612.95	88191.2
468	2.000000	1.125473	7.36964e+06	-53689.1	1005.82	-29745.7	0.000000	0.000000	7.135997	254.443	NaN	0.000000	0.001541	0.001726	28.0804	71.7776	0.001832	39175.3	3.272060	175.426	250.937	1.125185	0.073739	0.073451	254.443	39175.3	0.068868	0.159512	1595.14	89616.8
468	2.000000	1.127528	7.36964e+06	-53689.1	1005.82	-29745.7	0.000000	0.000000	7.138592	267.572	NaN	0.000000	0.001559	0.001721	28.0805	73.0141	0.001838	39723.3	7.872191	171.698	267.005	1.127201	0.075793	0.075467	267.572	39723.3	0.070742	0.167117	1601.1	88778.5
468	2.000000	1.129535	7.36964e+06	-53689.1	1005.82	-29745.7	0.000000	0.000000	7.141151	280.999	NaN	0.000000	0.001541	0.001740	28.0791	74.9282	0.001809	41422	2.062213	176.199	281.643	1.129203	0.077800	0.077469	280.999	41422	0.072712	0.175296	1602.99	90389.4
468	2.000000	1.131452	7.36964e+06	-53689.1	1005.82	-29745.7	0.000000	0.000000	7.143612	294.226	NaN	0.000000	0.001530	0.001711	28.0791	76.6887	0.001746	43927.3	5.279471	173.328	289.045	1.131199	0.079718	0.079465	294.226	43927.3	0.074694	0.183706	1601.62	93636.8
468	2.000000	1.133437	7.36964e+06	-53689.1	1005.82	-29745.7	0.000000	0.000000	7.146262	310.375	NaN	0.000000	0.001510	0.001739	28.0792	78.5378	0.001778	44179.6	5.539375	172.473	305.696	1.133054	0.081703	0.081319	310.375	44179.6	0.076434	0.191241	1622.95	92300.6
468	2.000000	1.135455	7.36964e+06	-53689.1	1005.82	-29745.7	0.000000	0.000000	7.148625	318.775	NaN	0.000000	0.001535	0.001706	28.0792	81.0536	0.001768	45851.5	4.357759	173.505	314.921	1.135233	0.083720	0.083498	318.775	45851.5	0.078506	0.200401	1590.69	93578.8
468	2.000000	1.137529	7.36964e+06	-53689.1	1005.82	-29745.7	0.000000	0.000000	7.151336	334.261	NaN	0.000000	0.001550	0.001717	28.0795	81.7756	0.001702	48034	7.038383	170.621	335.33	1.137153	0.085794	0.085419	334.261	48034	0.080575	0.209747	1593.64	95824
468	2.000000	1.139492	7.36964e+06	-53689.1	1005.82	-29745.7	0.000000	0.000000	7.153917	349.31	NaN	0.000000	0.001556	0.001714	28.0792	84.7997	0.001660	51078.9	8.553565	168.383	347.079	1.139125	0.087757	0.087390	349.31	51078.9	0.082628	0.219218	1593.44	99672.9
468	2.000000	1.141503	7.36964e+06	-53689.1	1005.82	-29745.7	0.000000	0.000000	7.156438	361.689	NaN	0.000000	0.001564	0.001714	28.0791	86.6261	0.001920	45106.4	1.729178	176.708	358.275	1.141129	0.089768	0.089395	361.689	45106.4	0.083755	0.224496	1611.11	86977.5
468	2.000000	1.143508	7.36964e+06	-53689.1	1005.82	-29745.7	0.000000	0.000000	7.159174	379.454	NaN	0.000000	0.001539	0.001692	28.0794	89.1481	0.001927	46264.3	4.967690	173.399	376.429	1.143031	0.091774	0.091297	379.454	46264.3	0.085622	0.233379	1625.91	87496
468	2.000000	1.145500	7.36964e+06	-53689.1	1005.82	-29745.7	0.000000	0.000000	7.161183	379.866	NaN	0.000000	0.001546	0.001737	28.0793	90.0841	0.001839	48986	3.835511	173.324	378.009	1.145391	0.093766	0.093657	379.866	48986	0.087950	0.244676	1552.53	90479.4
468	2.000000	1.147475	7.36964e+06	-53689.1	1005.82	-29745.7	0.000000	0.000000	7.164203	405.274	NaN	0.000000	0.001538	0.001783	28.0793	89.595	0.001729	51830.4	1.627933	175.265	401.135	1.147231	0.095741	0.095497	405.274	51830.4	0.089877	0.254213	1594.23	93920.3
468	2.000000	1.149444	7.36964e+06	-53689.1	1005.82	-29745.7	0.000000	0.000000	7.166498	413.19	NaN	0.000000	0.001582	0.001713	28.0791	93.3066	0.001776	52530.7	6.106265	170.361	410.292	1.149294	0.097710	0.097560	413.19	52530.7	0.091811	0.263960	1565.35	93415.2
468	2.000000	1.151484	7.36964e+06	-53689.1	1005.82	-29745.7	0.000000	0.000000	7.169412	434.462	NaN	0.000000	0.001573	0.001687	28.0791	95.0538	0.001736	54750.4	4.389087	172.217	432.347	1.151223	0.099750	0.099489	434.462	54750.4	0.093798	0.274152	1584.75	95535.5
468	2.000000	1.153462	7.36964e+06	-53689.1	1005.82	-29745.7	0.000000	0.000000	7.172206	454.273	NaN	0.000000	0.001546	0.001706	28.0794	96.1312	0.001726	55684.2	3.649737	173.039	451.397	1.153123	0.101728	0.101388	454.273	55684.2	0.095610	0.283600	1601.81	95532.7
468	2.000000	1.155637	7.36964e+06	-53689.1	1005.82	-29745.7	0.000000	0.000000	7.174517	457.606	NaN	0.000000	0.001597	0.001698	28.0791	99.8121	0.001893	52740.1	3.697441	173.313	465.69	1.155334	0.103902	0.103600	457.606	52740.1	0.097395	0.293058	1561.49	89009.7
468	2.000000	1.157572	7.36964e+06	-53689.1	1005.82	-29745.7	0.000000	0.000000	7.177512	483.351	NaN	0.000000	0.001576	0.001723	28.079	99.8889	0.001730	57735.9	5.730076	170.897	486.482	1.157228	0.105838	0.105494	483.351	57735.9	0.099559	0.304718	1586.22	95558.7
468	2.000000	1.158473	7.36964e+06	-53689.1	1005.82	-29745.7	0.000000	0.000000	7.178620	488.421	NaN	0.000000	0.001568	0.001722	28.0795	102.768	0.001779	57756.8	4.586116	171.79	486.463	1.158199	0.106738	0.106464	488.421	57756.8	0.100396	0.309283	1579.21	94885.3