File: remote_trans/data/nanoindenter/0828-1/data/Data_2025-08-06,11h17m57s/2025-07-22_16-23-58_1_548.txt
2025-07-22, 16:23:58, 1
Index	Phase	Displacement	Time	Pos X	Pos Y	Pos Z	Rot A	Rot B	Piezo Z	Force A	Force B	Gripper	Voltage A	Voltage B	Temperature	Amplitude force	Amplitude pos	Stiffness	Phase shift	Phase excitation	Force A raw	Displacement raw	HMax	HMax raw	Real Force	Real Stiffness	Contact Depth	Area	Hardness	Reduced Mod.
[#]	[#]	[um]	[s]	[um]	[um]	[um]	[m°]	[m°]	[um]	[uN]	[uN]	[V]	[V]	[V]	[°C]	[uN]	[um]	[N/m]	[°]	[°]	[uN]	[um]	[um]	[um]	[uN]	[N/m]	[um]	[um^2]	[MPa]	[MPa]
548	1.000000	0.002635	7.37041e+06	-49689.1	1005.82	-29758.1	0.000000	0.000000	6.002792	-0.020775	NaN	0.000000	0.001724	0.001772	28.0808	0.010574	0.000841	12.5768	88.283	-169.553	0.000626	0.001389	-1.089136	-1.090383	-0.020775	12.5768	-1.087897	-3.448099E+14	6.025201E-17	NaN
548	1.000000	0.012687	7.37041e+06	-49689.1	1005.82	-29758.1	0.000000	0.000000	6.012845	-0.010347	NaN	0.000000	0.001738	0.001764	28.0806	0.067040	0.001264	53.0374	63.998	17.2282	0.019048	0.011211	-1.079084	-1.080560	-0.010347	53.0374	-1.078938	-2.613678E+14	3.958771E-17	NaN
548	1.000000	0.022606	7.37041e+06	-49689.1	1005.82	-29758.1	0.000000	0.000000	6.022768	0.086631	NaN	0.000000	0.001706	0.001731	28.0803	0.042810	0.001696	25.2378	164.633	-169.542	0.070137	0.021271	-1.069165	-1.070500	0.086631	25.2378	-1.071739	-2.091960E+14	-4.141150E-16	NaN
548	1.000000	0.032589	7.37041e+06	-49689.1	1005.82	-29758.1	0.000000	0.000000	6.032749	0.017624	NaN	0.000000	0.001641	0.001698	28.0803	0.159251	0.002008	79.3096	12.1974	15.129	-0.061697	0.031219	-1.059182	-1.060552	0.017624	79.3096	-1.059348	-1.425820E+14	-1.236081E-16	NaN
548	1.000000	0.042613	7.37041e+06	-49689.1	1005.82	-29758.1	0.000000	0.000000	6.042770	-0.050779	NaN	0.000000	0.001628	0.001708	28.0806	0.030124	0.001905	15.8149	-17.3342	-164.688	0.023985	0.041290	-1.049158	-1.050481	-0.050779	15.8149	-1.046750	-9.654235E+13	5.259780E-16	NaN
548	1.000000	0.052588	7.37041e+06	-49689.1	1005.82	-29758.1	0.000000	0.000000	6.052744	-0.059665	NaN	0.000000	0.001662	0.001740	28.0803	0.074247	0.001911	38.8477	8.209682	12.0818	0.006105	0.051206	-1.039183	-1.040565	-0.059665	38.8477	-1.038031	-7.370335E+13	8.095227E-16	NaN
548	1.000000	0.062606	7.37041e+06	-49689.1	1005.82	-29758.1	0.000000	0.000000	6.062768	0.082816	NaN	0.000000	0.001651	0.001730	28.0808	0.055388	0.001833	30.2096	-53.6753	-166.363	0.040421	0.061302	-1.029165	-1.030469	0.082816	30.2096	-1.031221	-5.969112E+13	-1.387416E-15	NaN
548	1.000000	0.072611	7.37041e+06	-49689.1	1005.82	-29758.1	0.000000	0.000000	6.072770	-0.004890	NaN	0.000000	0.001642	0.001702	28.0817	0.103099	0.001948	52.9217	158.904	14.1774	0.077477	0.071245	-1.019160	-1.020526	-0.004890	52.9217	-1.019090	-4.099319E+13	1.192925E-16	NaN
548	1.000000	0.082599	7.37041e+06	-49689.1	1005.82	-29758.1	0.000000	0.000000	6.082761	0.079532	NaN	0.000000	0.001698	0.001755	28.0817	0.019394	0.002097	9.246757	173.214	-163.936	0.038468	0.081299	-1.009172	-1.010472	0.079532	9.246757	-1.015622	-3.681698E+13	-2.160202E-15	NaN
548	1.000000	0.092603	7.37041e+06	-49689.1	1005.82	-29758.1	0.000000	0.000000	6.092760	-0.031977	NaN	0.000000	0.001686	0.001747	28.0816	0.067486	0.002015	33.4914	76.527	14.0828	0.067930	0.091281	-0.999168	-1.000490	-0.031977	33.4914	-0.998452	-2.162337E+13	1.478821E-15	NaN
548	1.000000	0.102577	7.37041e+06	-49689.1	1005.82	-29758.1	0.000000	0.000000	6.102737	0.041414	NaN	0.000000	0.001648	0.001741	28.0817	0.088717	0.001977	44.8778	159.428	-167.572	-0.016507	0.101362	-0.989194	-0.990409	0.041414	44.8778	-0.989886	-1.657974E+13	-2.497882E-15	NaN
548	1.000000	0.112611	7.37041e+06	-49689.1	1005.82	-29758.1	0.000000	0.000000	6.112771	0.055305	NaN	0.000000	0.001705	0.001778	28.0818	0.068683	0.002001	34.3158	-141.675	12.1951	0.075367	0.111272	-0.979160	-0.980499	0.055305	34.3158	-0.980369	-1.234193E+13	-4.481052E-15	NaN
548	1.000000	0.122620	7.37041e+06	-49689.1	1005.82	-29758.1	0.000000	0.000000	6.122777	-0.025035	NaN	0.000000	0.001684	0.001772	28.0819	0.074918	0.001974	37.9551	113.64	-168.692	-0.058053	0.121283	-0.969151	-0.970488	-0.025035	37.9551	-0.968656	-8.581325E+12	2.917396E-15	NaN
548	1.000000	0.132651	7.37041e+06	-49689.1	1005.82	-29758.1	0.000000	0.000000	6.132808	-0.036507	NaN	0.000000	0.001678	0.001736	28.0816	0.104692	0.001967	53.2236	-41.2291	10.2149	-0.040912	0.131294	-0.959120	-0.960477	-0.036507	53.2236	-0.958605	-6.281568E+12	5.811765E-15	NaN
548	1.000000	0.142611	7.37041e+06	-49689.1	1005.82	-29758.1	0.000000	0.000000	6.142769	-0.008502	NaN	0.000000	0.001688	0.001790	28.0814	0.038918	0.002042	19.0554	130.5	-168.172	-0.023904	0.141362	-0.949160	-0.950409	-0.008502	19.0554	-0.948825	-4.636443E+12	1.833791E-15	NaN
548	1.000000	0.152638	7.37041e+06	-49689.1	1005.82	-29758.1	0.000000	0.000000	6.152799	0.042236	NaN	0.000000	0.001662	0.001776	28.0816	0.118535	0.002129	55.6762	-124.306	12.9779	-0.049630	0.151269	-0.939133	-0.940502	0.042236	55.6762	-0.939702	-3.492301E+12	-1.209391E-14	NaN
548	1.000000	0.162617	7.37041e+06	-49689.1	1005.82	-29758.1	0.000000	0.000000	6.162778	0.062277	NaN	0.000000	0.001687	0.001804	28.0816	0.084852	0.001966	43.1531	-96.7905	-167.033	0.030646	0.161295	-0.929154	-0.930476	0.062277	43.1531	-0.930237	-2.602519E+12	-2.392941E-14	NaN
548	1.000000	0.172606	7.37041e+06	-49689.1	1005.82	-29758.1	0.000000	0.000000	6.172766	0.034208	NaN	0.000000	0.001695	0.001795	28.0816	0.024796	0.001980	12.5253	66.8486	12.8246	0.004654	0.171338	-0.919165	-0.920433	0.034208	12.5253	-0.921213	-1.966023E+12	-1.739945E-14	NaN
548	1.000000	0.182623	7.37041e+06	-49689.1	1005.82	-29758.1	0.000000	0.000000	6.182779	-0.046704	NaN	0.000000	0.001707	0.001790	28.0816	0.072139	0.002060	35.0168	55.4585	-166.535	0.008143	0.181262	-0.909148	-0.910509	-0.046704	35.0168	-0.908148	-1.309621E+12	3.566214E-14	NaN
548	1.000000	0.192629	7.37041e+06	-49689.1	1005.82	-29758.1	0.000000	0.000000	6.192789	0.016222	NaN	0.000000	0.001674	0.001788	28.0818	0.042813	0.001997	21.4427	-70.5658	11.4261	0.004349	0.191295	-0.899142	-0.900476	0.016222	21.4427	-0.899709	-1.007241E+12	-1.610502E-14	NaN
548	1.000000	0.202643	7.37041e+06	-49689.1	1005.82	-29758.1	0.000000	0.000000	6.202802	0.029635	NaN	0.000000	0.001745	0.001820	28.0805	0.024935	0.002080	11.9893	166.016	-168.073	0.009586	0.201385	-0.889128	-0.890386	0.029635	11.9893	-0.890982	-7.677023E+11	-3.860279E-14	NaN
548	1.000000	0.212642	7.37041e+06	-49689.1	1005.82	-29758.1	0.000000	0.000000	6.212800	-0.019576	NaN	0.000000	0.001696	0.001802	28.0804	0.069258	0.002094	33.0704	21.2701	12.7488	0.058329	0.211250	-0.879129	-0.880521	-0.019576	33.0704	-0.878685	-5.235040E+11	3.739466E-14	NaN
548	1.000000	0.222653	7.37041e+06	-49689.1	1005.82	-29758.1	0.000000	0.000000	6.222811	-0.022187	NaN	0.000000	0.001691	0.001815	28.0807	0.012635	0.001940	6.514681	94.5526	-167.89	0.006658	0.221335	-0.869118	-0.870436	-0.022187	6.514681	-0.866563	-3.588759E+11	6.182437E-14	NaN
548	1.000000	0.232641	7.37041e+06	-49689.1	1005.82	-29758.1	0.000000	0.000000	6.232800	0.013989	NaN	0.000000	0.001726	0.001816	28.0805	0.043450	0.001997	21.7582	-4.221532	12.2547	-0.110904	0.231250	-0.859130	-0.860521	0.013989	21.7582	-0.859612	-2.889843E+11	-4.840835E-14	NaN
548	1.000000	0.242684	7.37041e+06	-49689.1	1005.82	-29758.1	0.000000	0.000000	6.242846	0.076256	NaN	0.000000	0.001734	0.001776	28.0803	0.017893	0.001938	9.234787	-25.1204	-168.772	0.088649	0.241396	-0.849087	-0.850375	0.076256	9.234787	-0.855280	-2.524773E+11	-3.020302E-13	NaN
548	1.000000	0.252661	7.37041e+06	-49689.1	1005.82	-29758.1	0.000000	0.000000	6.252819	-0.030669	NaN	0.000000	0.001717	0.001769	28.0805	0.067626	0.001939	34.882	-143.657	16.8923	0.041710	0.251322	-0.839110	-0.840449	-0.030669	34.882	-0.838450	-1.493816E+11	2.053033E-13	NaN
548	1.000000	0.262672	7.37041e+06	-49689.1	1005.82	-29758.1	0.000000	0.000000	6.262833	0.049777	NaN	0.000000	0.001684	0.001754	28.0807	0.037443	0.001934	19.3651	-49.5948	-165.914	-0.002550	0.261375	-0.829099	-0.830396	0.049777	19.3651	-0.831027	-1.184955E+11	-4.200768E-13	NaN
548	1.000000	0.272672	7.37041e+06	-49689.1	1005.82	-29758.1	0.000000	0.000000	6.272834	0.096499	NaN	0.000000	0.001661	0.001735	28.0805	0.039820	0.002072	19.2178	165.379	12.4377	0.028670	0.271349	-0.819099	-0.820422	0.096499	19.2178	-0.822865	-9.184672E+10	-1.050651E-12	NaN
548	1.000000	0.282691	7.37041e+06	-49689.1	1005.82	-29758.1	0.000000	0.000000	6.282852	0.048642	NaN	0.000000	0.001659	0.001744	28.0806	0.121527	0.001960	62.0119	-70.5331	-169.319	0.108996	0.281380	-0.809080	-0.810391	0.048642	62.0119	-0.809668	-6.082265E+10	-7.997376E-13	NaN
548	1.000000	0.292706	7.37041e+06	-49689.1	1005.82	-29758.1	0.000000	0.000000	6.292864	-0.022056	NaN	0.000000	0.001618	0.001747	28.0807	0.058559	0.001905	30.7461	-108.163	11.6826	0.003606	0.291369	-0.799065	-0.800402	-0.022056	30.7461	-0.798527	-4.294006E+10	5.136397E-13	NaN
548	1.000000	0.302714	7.37041e+06	-49689.1	1005.82	-29758.1	0.000000	0.000000	6.302872	-0.008290	NaN	0.000000	0.001618	0.001765	28.0806	0.070366	0.002126	33.0979	-154.983	-165.338	-0.060060	0.301387	-0.789057	-0.790384	-0.008290	33.0979	-0.788869	-3.174887E+10	2.611167E-13	NaN
548	1.000000	0.312707	7.37041e+06	-49689.1	1005.82	-29758.1	0.000000	0.000000	6.312865	-0.003363	NaN	0.000000	0.001650	0.001763	28.0806	0.013204	0.002018	6.543294	-58.61	15.7463	-0.055520	0.311345	-0.779064	-0.780426	-0.003363	6.543294	-0.778679	-2.308215E+10	1.456787E-13	NaN
548	1.000000	0.322677	7.37041e+06	-49689.1	1005.82	-29758.1	0.000000	0.000000	6.322838	0.043722	NaN	0.000000	0.001598	0.001781	28.0805	0.027119	0.002043	13.2744	92.3963	-166.943	0.060920	0.321429	-0.769094	-0.770342	0.043722	13.2744	-0.771564	-1.847438E+10	-2.366604E-12	NaN
548	1.000000	0.332710	7.37041e+06	-49689.1	1005.82	-29758.1	0.000000	0.000000	6.332871	0.056817	NaN	0.000000	0.001608	0.001762	28.0808	0.131598	0.001971	66.7644	68.6537	12.1629	0.042940	0.331326	-0.759061	-0.760445	0.056817	66.7644	-0.759699	-1.274122E+10	-4.459269E-12	NaN
548	1.000000	0.342707	7.37041e+06	-49689.1	1005.82	-29758.1	0.000000	0.000000	6.342865	-0.007244	NaN	0.000000	0.001635	0.001751	28.0816	0.045858	0.001918	23.9117	116.848	-162.933	0.029242	0.341397	-0.749064	-0.750374	-0.007244	23.9117	-0.748837	-9.065346E+9	7.990761E-13	NaN
548	1.000000	0.352704	7.37041e+06	-49689.1	1005.82	-29758.1	0.000000	0.000000	6.352861	-0.038876	NaN	0.000000	0.001613	0.001775	28.0818	0.066343	0.002081	31.8776	151.93	17.7548	0.043423	0.351372	-0.739067	-0.740399	-0.038876	31.8776	-0.738152	-6.484711E+9	5.995073E-12	NaN
548	1.000000	0.362715	7.37041e+06	-49689.1	1005.82	-29758.1	0.000000	0.000000	6.362877	0.076334	NaN	0.000000	0.001638	0.001757	28.0817	0.052184	0.001749	29.8418	70.6013	-164.683	0.129731	0.361369	-0.729056	-0.730402	0.076334	29.8418	-0.730975	-5.177159E+9	-1.474438E-11	NaN
548	1.000000	0.372752	7.37041e+06	-49689.1	1005.82	-29758.1	0.000000	0.000000	6.372912	0.025212	NaN	0.000000	0.001644	0.001753	28.0817	0.046096	0.001794	25.6899	151.881	16.721	0.007977	0.371355	-0.719019	-0.720416	0.025212	25.6899	-0.719755	-3.640211E+9	-6.925905E-12	NaN
548	1.000000	0.382724	7.37041e+06	-49689.1	1005.82	-29758.1	0.000000	0.000000	6.382883	0.009793	NaN	0.000000	0.001587	0.001756	28.0816	0.033519	0.001924	17.4173	10.3508	-165.662	-0.006844	0.381428	-0.709047	-0.710343	0.009793	17.4173	-0.709469	-2.635089E+9	-3.716406E-12	NaN
548	1.000000	0.392753	7.37041e+06	-49689.1	1005.82	-29758.1	0.000000	0.000000	6.392912	0.024818	NaN	0.000000	0.001589	0.001772	28.0817	0.082625	0.001914	43.1577	-108.182	14.4731	0.062096	0.391371	-0.699018	-0.700400	0.024818	43.1577	-0.699450	-1.923158E+9	-1.290490E-11	NaN
548	1.000000	0.402719	7.37041e+06	-49689.1	1005.82	-29758.1	0.000000	0.000000	6.402876	-0.045666	NaN	0.000000	0.001620	0.001791	28.0819	0.091505	0.002121	43.146	-48.9248	-165.659	0.019081	0.401460	-0.689052	-0.690311	-0.045666	43.146	-0.688258	-1.352423E+9	3.376630E-11	NaN
548	1.000000	0.412731	7.37041e+06	-49689.1	1005.82	-29758.1	0.000000	0.000000	6.412890	0.017286	NaN	0.000000	0.001640	0.001761	28.0816	0.048729	0.002050	23.7668	-147.791	16.0107	0.052006	0.411357	-0.679040	-0.680414	0.017286	23.7668	-0.679585	-1.029280E+9	-1.679421E-11	NaN
548	1.000000	0.422725	7.37041e+06	-49689.1	1005.82	-29758.1	0.000000	0.000000	6.422883	-0.016982	NaN	0.000000	0.001606	0.001781	28.0816	0.014975	0.001985	7.544319	-111.265	-169.459	-0.005369	0.421405	-0.669046	-0.670366	-0.016982	7.544319	-0.667357	-7.001934E+8	2.425387E-11	NaN
548	1.000000	0.432717	7.37041e+06	-49689.1	1005.82	-29758.1	0.000000	0.000000	6.432875	-0.002339	NaN	0.000000	0.001593	0.001782	28.0815	0.029505	0.002065	14.2864	-153.729	12.1213	0.027033	0.431364	-0.659054	-0.660407	-0.002339	14.2864	-0.658931	-5.368201E+8	4.357499E-12	NaN
548	1.000000	0.442718	7.37041e+06	-49689.1	1005.82	-29758.1	0.000000	0.000000	6.442876	-0.003232	NaN	0.000000	0.001579	0.001773	28.0818	0.116415	0.001947	59.7912	-13.8418	-163.152	-0.030823	0.441428	-0.649053	-0.650343	-0.003232	59.7912	-0.649013	-3.925544E+8	8.233625E-12	NaN
548	1.000000	0.452724	7.37041e+06	-49689.1	1005.82	-29758.1	0.000000	0.000000	6.452880	-0.060576	NaN	0.000000	0.001602	0.001763	28.0817	0.058228	0.001905	30.5639	81.0528	15.6038	-0.053834	0.451414	-0.639047	-0.640357	-0.060576	30.5639	-0.637560	-2.734098E+8	2.215593E-10	NaN
548	1.000000	0.462766	7.37041e+06	-49689.1	1005.82	-29758.1	0.000000	0.000000	6.462925	0.015693	NaN	0.000000	0.001615	0.001762	28.0815	0.122706	0.002087	58.787	76.9461	-165.678	0.009106	0.461467	-0.629005	-0.630304	0.015693	58.787	-0.629205	-2.099464E+8	-7.474757E-11	NaN
548	1.000000	0.472755	7.37041e+06	-49689.1	1005.82	-29758.1	0.000000	0.000000	6.472919	0.129953	NaN	0.000000	0.001611	0.001766	28.0809	0.079000	0.002020	39.1068	-80.3455	14.1463	0.029212	0.471413	-0.619016	-0.620358	0.129953	39.1068	-0.621508	-1.645734E+8	-7.896337E-10	NaN
548	1.000000	0.482764	7.37041e+06	-49689.1	1005.82	-29758.1	0.000000	0.000000	6.482921	-0.028338	NaN	0.000000	0.001612	0.001725	28.0803	0.069941	0.001934	36.1591	-130.518	-164.527	0.036424	0.481430	-0.609007	-0.610341	-0.028338	36.1591	-0.608419	-1.087338E+8	2.606176E-10	NaN
548	1.000000	0.492774	7.37041e+06	-49689.1	1005.82	-29758.1	0.000000	0.000000	6.492933	0.000928	NaN	0.000000	0.001608	0.001759	28.0803	0.061003	0.001986	30.7222	-39.9756	10.4825	-0.035708	0.491421	-0.598997	-0.600350	0.000928	30.7222	-0.599019	-8.071500E+7	-1.149917E-11	NaN
548	1.000000	0.502757	7.37041e+06	-49689.1	1005.82	-29758.1	0.000000	0.000000	6.502916	0.027093	NaN	0.000000	0.001566	0.001765	28.0805	0.065475	0.002032	32.2205	110.18	-167.606	0.017539	0.501471	-0.589014	-0.590300	0.027093	32.2205	-0.589645	-5.994755E+7	-4.519468E-10	NaN
548	1.000000	0.512760	7.37041e+06	-49689.1	1005.82	-29758.1	0.000000	0.000000	6.512918	-0.024383	NaN	0.000000	0.001629	0.001790	28.0807	0.028476	0.001990	14.3082	40.5839	11.4928	0.002509	0.511430	-0.579011	-0.580341	-0.024383	14.3082	-0.577733	-4.106132E+7	5.938174E-10	NaN
548	1.000000	0.522799	7.37041e+06	-49689.1	1005.82	-29758.1	0.000000	0.000000	6.522957	-0.002909	NaN	0.000000	0.001629	0.001830	28.0804	0.047758	0.002038	23.4316	-100.655	-166.813	-0.071056	0.521483	-0.568972	-0.570288	-0.002909	23.4316	-0.568879	-3.098444E+7	9.388421E-11	NaN
548	1.000000	0.532781	7.37041e+06	-49689.1	1005.82	-29758.1	0.000000	0.000000	6.532936	-0.087522	NaN	0.000000	0.001621	0.001758	28.0805	0.051217	0.001994	25.6833	-177.538	13.4781	-0.040273	0.531461	-0.558990	-0.560310	-0.087522	25.6833	-0.556434	-2.084651E+7	4.198412E-9	NaN
548	1.000000	0.542821	7.37041e+06	-49689.1	1005.82	-29758.1	0.000000	0.000000	6.542981	0.023665	NaN	0.000000	0.001634	0.001742	28.0804	0.022377	0.002036	10.9895	39.4895	-168.387	-0.002999	0.541492	-0.548950	-0.550279	0.023665	10.9895	-0.550565	-1.728921E+7	-1.368747E-9	NaN
548	1.000000	0.552819	7.37041e+06	-49689.1	1005.82	-29758.1	0.000000	0.000000	6.552976	-0.035655	NaN	0.000000	0.001644	0.001695	28.0806	0.099785	0.002040	48.9093	-24.0716	12.6714	-0.028163	0.551410	-0.538952	-0.540361	-0.035655	48.9093	-0.538405	-1.172842E+7	3.040039E-9	NaN
548	1.000000	0.562808	7.37041e+06	-49689.1	1005.82	-29758.1	0.000000	0.000000	6.562966	-0.012162	NaN	0.000000	0.001622	0.001730	28.0804	0.041710	0.002039	20.455	-118.397	-168.228	0.004546	0.561481	-0.528963	-0.530290	-0.012162	20.455	-0.528517	-8.55021e+06	1.422437E-9	NaN
548	1.000000	0.572805	7.37041e+06	-49689.1	1005.82	-29758.1	0.000000	0.000000	6.572963	-0.012188	NaN	0.000000	0.001631	0.001738	28.0807	0.054143	0.002003	27.0373	164.657	13.5068	-0.030192	0.571431	-0.518966	-0.520340	-0.012188	27.0373	-0.518628	-6.23036e+06	1.956248E-9	NaN
548	1.000000	0.582838	7.37041e+06	-49689.1	1005.82	-29758.1	0.000000	0.000000	6.582996	-0.028441	NaN	0.000000	0.001645	0.001720	28.0804	0.122975	0.001977	62.1945	123.253	-166.495	-0.042573	0.581472	-0.508933	-0.510299	-0.028441	62.1945	-0.508590	-4.51616e+06	6.297667E-9	NaN
548	1.000000	0.592819	7.37041e+06	-49689.1	1005.82	-29758.1	0.000000	0.000000	6.592977	-0.011839	NaN	0.000000	0.001659	0.001764	28.0805	0.060860	0.001955	31.1318	-35.6627	12.5083	0.036225	0.591491	-0.498952	-0.500280	-0.011839	31.1318	-0.498667	-3.28414e+06	3.604971E-9	NaN
548	1.000000	0.602814	7.37041e+06	-49689.1	1005.82	-29758.1	0.000000	0.000000	6.602975	0.047444	NaN	0.000000	0.001630	0.001747	28.0805	0.022543	0.001970	11.4415	-125.737	-167.135	0.037129	0.601511	-0.488957	-0.490260	0.047444	11.4415	-0.492067	-2.65627e+06	-1.786107E-8	NaN
548	1.000000	0.612839	7.37041e+06	-49689.1	1005.82	-29758.1	0.000000	0.000000	6.612998	0.012841	NaN	0.000000	0.001625	0.001726	28.0818	0.073865	0.002120	34.8497	-155.479	17.3312	-0.035342	0.611447	-0.478932	-0.480324	0.012841	34.8497	-0.479208	-1.75567e+06	-7.314249E-9	NaN
548	1.000000	0.622831	7.37041e+06	-49689.1	1005.82	-29758.1	0.000000	0.000000	6.622991	0.044716	NaN	0.000000	0.001601	0.001764	28.0821	0.027750	0.002065	13.4363	-24.5898	-164.893	0.044466	0.621513	-0.468940	-0.470258	0.044716	13.4363	-0.471436	-1.36629e+06	-3.272797E-8	NaN
548	1.000000	0.632857	7.37041e+06	-49689.1	1005.82	-29758.1	0.000000	0.000000	6.633017	0.036280	NaN	0.000000	0.001672	0.001756	28.0818	0.088589	0.002086	42.4737	-170.97	12.9626	0.017373	0.631500	-0.458914	-0.460271	0.036280	42.4737	-0.459555	-930590	-3.898609E-8	NaN
548	1.000000	0.642841	7.37041e+06	-49689.1	1005.82	-29758.1	0.000000	0.000000	6.642999	-0.014673	NaN	0.000000	0.001639	0.001770	28.0818	0.091477	0.001903	48.0736	-78.1566	-167.721	-0.080933	0.641534	-0.448930	-0.450237	-0.014673	48.0736	-0.448701	-654716	2.241062E-8	NaN
548	1.000000	0.652832	7.37041e+06	-49689.1	1005.82	-29758.1	0.000000	0.000000	6.652990	0.000161	NaN	0.000000	0.001669	0.001727	28.0817	0.092729	0.002038	45.5094	1.584245	15.4431	0.064383	0.651529	-0.438939	-0.440242	0.000161	45.5094	-0.438942	-476900	-3.376758E-10	NaN
548	1.000000	0.662848	7.37041e+06	-49689.1	1005.82	-29758.1	0.000000	0.000000	6.663007	0.002461	NaN	0.000000	0.001644	0.001776	28.0819	0.062488	0.001947	32.0919	38.0137	-165.52	-0.003353	0.661545	-0.428923	-0.430226	0.002461	32.0919	-0.428980	-344853	-7.137027E-9	NaN
548	1.000000	0.672873	7.37041e+06	-49689.1	1005.82	-29758.1	0.000000	0.000000	6.673030	-0.039505	NaN	0.000000	0.001642	0.001734	28.0817	0.085655	0.002045	41.8856	-78.6127	16.707	-0.009610	0.671481	-0.418898	-0.420290	-0.039505	41.8856	-0.418190	-242518	1.628966E-7	NaN
548	1.000000	0.682855	7.37041e+06	-49689.1	1005.82	-29758.1	0.000000	0.000000	6.683011	-0.058689	NaN	0.000000	0.001625	0.001722	28.0819	0.052869	0.001963	26.936	-110.513	-169.083	-0.023705	0.681575	-0.408916	-0.410196	-0.058689	26.936	-0.407282	-169722	3.457925E-7	NaN
548	1.000000	0.692809	7.37041e+06	-49689.1	1005.82	-29758.1	0.000000	0.000000	6.692967	-0.006314	NaN	0.000000	0.001640	0.001743	28.0819	0.094805	0.002056	46.1092	33.0387	14.0347	-0.064925	0.691488	-0.398962	-0.400283	-0.006314	46.1092	-0.398859	-128743	4.904555E-8	NaN
548	1.000000	0.702887	7.37041e+06	-49689.1	1005.82	-29758.1	0.000000	0.000000	6.703046	0.011018	NaN	0.000000	0.001604	0.001751	28.0818	0.114229	0.001994	57.2721	-37.0245	-166.587	0.092929	0.701502	-0.388884	-0.390269	0.011018	57.2721	-0.389028	-93167.4	-1.182634E-7	NaN
548	1.000000	0.712862	7.37041e+06	-49689.1	1005.82	-29758.1	0.000000	0.000000	6.713021	0.024858	NaN	0.000000	0.001583	0.001730	28.0817	0.020022	0.002025	9.886044	124.078	10.9108	0.015876	0.711511	-0.378909	-0.380260	0.024858	9.886044	-0.380795	-71006.7	-3.500758E-7	NaN
548	1.000000	0.722881	7.37041e+06	-49689.1	1005.82	-29758.1	0.000000	0.000000	6.723039	-0.027635	NaN	0.000000	0.001627	0.001758	28.0819	0.083871	0.002038	41.1486	72.7801	-163.978	-0.023023	0.721537	-0.368890	-0.370234	-0.027635	41.1486	-0.368386	-47084.6	5.869123E-7	NaN
548	1.000000	0.732891	7.37041e+06	-49689.1	1005.82	-29758.1	0.000000	0.000000	6.733050	0.001061	NaN	0.000000	0.001599	0.001742	28.0821	0.153191	0.001962	78.0699	-146.754	15.2168	0.074698	0.731475	-0.358880	-0.360296	0.001061	78.0699	-0.358890	-34339.7	-3.089460E-8	NaN
548	1.000000	0.742918	7.37041e+06	-49689.1	1005.82	-29758.1	0.000000	0.000000	6.743076	-0.028245	NaN	0.000000	0.001607	0.001724	28.0821	0.069970	0.002049	34.148	81.6803	-167.037	-0.002725	0.741575	-0.348853	-0.350196	-0.028245	34.148	-0.348232	-24062.3	1.173844E-6	NaN
548	1.000000	0.752878	7.37041e+06	-49689.1	1005.82	-29758.1	0.000000	0.000000	6.753036	-0.016440	NaN	0.000000	0.001609	0.001712	28.0807	0.042323	0.001840	23.0039	96.0375	13.0196	0.029223	0.751526	-0.338893	-0.340245	-0.016440	23.0039	-0.338357	-17282.3	9.512495E-7	NaN
548	1.000000	0.762896	7.37041e+06	-49689.1	1005.82	-29758.1	0.000000	0.000000	6.763053	-0.031896	NaN	0.000000	0.001590	0.001713	28.0809	0.050735	0.002039	24.8784	115.42	-165.177	-0.026117	0.761601	-0.328875	-0.330170	-0.031896	24.8784	-0.327914	-12158.6	2.623352E-6	NaN
548	1.000000	0.772923	7.37041e+06	-49689.1	1005.82	-29758.1	0.000000	0.000000	6.773083	0.041830	NaN	0.000000	0.001623	0.001734	28.0808	0.157943	0.002051	76.9918	-106.776	8.846743	-0.035398	0.771502	-0.318848	-0.320269	0.041830	76.9918	-0.319256	-9071.49	-4.611146E-6	NaN
548	1.000000	0.782920	7.37041e+06	-49689.1	1005.82	-29758.1	0.000000	0.000000	6.783079	0.018327	NaN	0.000000	0.001625	0.001764	28.0809	0.058534	0.002060	28.408	-145.504	-167.818	-0.036604	0.781576	-0.308851	-0.310195	0.018327	28.408	-0.309335	-6474.62	-2.830542E-6	NaN
548	1.000000	0.792902	7.37041e+06	-49689.1	1005.82	-29758.1	0.000000	0.000000	6.793062	0.021408	NaN	0.000000	0.001638	0.001728	28.0808	0.051876	0.002054	25.2582	131.258	10.3658	0.078268	0.791523	-0.298869	-0.300248	0.021408	25.2582	-0.299504	-4626.55	-4.627277E-6	NaN
548	1.000000	0.802916	7.37041e+06	-49689.1	1005.82	-29758.1	0.000000	0.000000	6.803076	0.022577	NaN	0.000000	0.001632	0.001753	28.0812	0.075120	0.002005	37.4669	95.796	-167.312	0.105519	0.801592	-0.288855	-0.290179	0.022577	37.4669	-0.289307	-3257.73	-6.930234E-6	NaN
548	1.000000	0.812916	7.37041e+06	-49689.1	1005.82	-29758.1	0.000000	0.000000	6.813074	-0.003429	NaN	0.000000	0.001574	0.001764	28.0807	0.020267	0.001988	10.1964	-133.067	14.5106	0.060567	0.811548	-0.278855	-0.280223	-0.003429	10.1964	-0.278603	-2248.43	1.525149E-6	NaN
548	1.000000	0.822893	7.37041e+06	-49689.1	1005.82	-29758.1	0.000000	0.000000	6.823051	-0.013097	NaN	0.000000	0.001618	0.001757	28.0808	0.026339	0.001911	13.7801	-16.7514	-168.816	-0.069460	0.821614	-0.268878	-0.270157	-0.013097	13.7801	-0.268166	-1561.86	8.385561E-6	NaN
548	1.000000	0.832912	7.37041e+06	-49689.1	1005.82	-29758.1	0.000000	0.000000	6.833073	0.046642	NaN	0.000000	0.001605	0.001771	28.0808	0.078133	0.001921	40.6813	144.459	12.5811	-0.010658	0.831550	-0.258859	-0.260221	0.046642	40.6813	-0.259719	-1160.39	-4.019507E-5	NaN
548	1.000000	0.842945	7.37041e+06	-49689.1	1005.82	-29758.1	0.000000	0.000000	6.843103	-0.000201	NaN	0.000000	0.001596	0.001758	28.0809	0.109363	0.002119	51.6209	167.449	-163.272	0.011517	0.841580	-0.248826	-0.250191	-0.000201	51.6209	-0.248824	-788.426	2.545454E-7	NaN
548	1.000000	0.852915	7.37041e+06	-49689.1	1005.82	-29758.1	0.000000	0.000000	6.853071	-0.077661	NaN	0.000000	0.001708	0.001749	28.0809	0.058596	0.001988	29.4798	-102.521	13.0067	-0.033844	0.851609	-0.238856	-0.240162	-0.077661	29.4798	-0.236880	-513.736	0.000151	NaN
548	1.000000	0.862910	7.37041e+06	-49689.1	1005.82	-29758.1	0.000000	0.000000	6.863071	0.066272	NaN	0.000000	0.001696	0.001707	28.0808	0.082677	0.002031	40.7168	146.091	-167.051	0.077863	0.861618	-0.228861	-0.230153	0.066272	40.7168	-0.230082	-401.614	-0.000165	NaN
548	1.000000	0.872929	7.37041e+06	-49689.1	1005.82	-29758.1	0.000000	0.000000	6.873087	-0.010461	NaN	0.000000	0.001725	0.001738	28.0811	0.139534	0.002021	69.0513	-18.692	11.451	-0.049080	0.871645	-0.218842	-0.220126	-0.010461	69.0513	-0.218729	-265.061	3.946656E-5	NaN
548	1.000000	0.882932	7.37041e+06	-49689.1	1005.82	-29758.1	0.000000	0.000000	6.883091	0.003492	NaN	0.000000	0.001694	0.001737	28.0818	0.039616	0.002012	19.6868	68.9493	-163.986	-0.012092	0.881634	-0.208839	-0.210137	0.003492	19.6868	-0.208972	-184.568	-1.891941E-5	NaN
548	1.000000	0.892968	7.37041e+06	-49689.1	1005.82	-29758.1	0.000000	0.000000	6.893127	0.019312	NaN	0.000000	0.001655	0.001690	28.0822	0.062739	0.001872	33.5205	98.5683	12.3752	0.087111	0.891591	-0.198803	-0.200180	0.019312	33.5205	-0.199235	-127.975	-0.000151	NaN
548	1.000000	0.902939	7.37041e+06	-49689.1	1005.82	-29758.1	0.000000	0.000000	6.903096	-0.029471	NaN	0.000000	0.001702	0.001704	28.0821	0.042974	0.002010	21.3806	-17.645	-163.189	-0.038180	0.901598	-0.188832	-0.190173	-0.029471	21.3806	-0.187798	-82.6378	0.000357	NaN
548	1.000000	0.912966	7.37041e+06	-49689.1	1005.82	-29758.1	0.000000	0.000000	6.913124	-0.030553	NaN	0.000000	0.001671	0.001695	28.0823	0.047690	0.001891	25.2203	-54.4775	10.9212	0.000787	0.911612	-0.178805	-0.180159	-0.030553	25.2203	-0.177896	-56.1824	0.000544	NaN
548	1.000000	0.922990	7.37041e+06	-49689.1	1005.82	-29758.1	0.000000	0.000000	6.923151	0.054613	NaN	0.000000	0.001594	0.001696	28.0821	0.056275	0.001937	29.0499	64.6479	-165.531	0.011512	0.921660	-0.168781	-0.170111	0.054613	29.0499	-0.170191	-41.3929	-0.001319	NaN
548	1.000000	0.932959	7.37041e+06	-49689.1	1005.82	-29758.1	0.000000	0.000000	6.933118	0.019287	NaN	0.000000	0.001578	0.001699	28.0822	0.056944	0.001944	29.29	-164.055	14.5616	-0.009392	0.931618	-0.158812	-0.160153	0.019287	29.29	-0.159306	-26.6465	-0.000724	NaN
548	1.000000	0.942964	7.37041e+06	-49689.1	1005.82	-29758.1	0.000000	0.000000	6.943123	-0.002651	NaN	0.000000	0.001601	0.001710	28.0821	0.047819	0.001930	24.7802	8.207922	-164.364	-0.042883	0.941641	-0.148807	-0.150130	-0.002651	24.7802	-0.148726	-17.1686	0.000154	NaN
548	1.000000	0.952987	7.37041e+06	-49689.1	1005.82	-29758.1	0.000000	0.000000	6.953144	-0.052730	NaN	0.000000	0.001590	0.001750	28.0819	0.067295	0.001994	33.7528	160.917	15.4697	-0.065539	0.951642	-0.138784	-0.140129	-0.052730	33.7528	-0.137612	-10.6645	0.004944	NaN
548	1.000000	0.962970	7.37041e+06	-49689.1	1005.82	-29758.1	0.000000	0.000000	6.963129	0.030359	NaN	0.000000	0.001609	0.001703	28.0818	0.081316	0.002062	39.444	17.5994	-167.141	0.024641	0.961645	-0.128801	-0.130126	0.030359	39.444	-0.129379	-7.411905	-0.004096	NaN
548	1.000000	0.972979	7.37041e+06	-49689.1	1005.82	-29758.1	0.000000	0.000000	6.973139	0.030406	NaN	0.000000	0.001615	0.001704	28.0822	0.011202	0.001973	5.678484	-43.7858	12.9491	-0.008637	0.971656	-0.118792	-0.120115	0.030406	5.678484	-0.122808	-5.500989	-0.005527	NaN
548	1.000000	0.982980	7.37041e+06	-49689.1	1005.82	-29758.1	0.000000	0.000000	6.983138	-0.023085	NaN	0.000000	0.001596	0.001708	28.0823	0.028214	0.002020	13.9692	158.466	-167.007	-0.043803	0.981689	-0.108791	-0.110082	-0.023085	13.9692	-0.107551	-2.666496	0.008657	NaN
548	1.000000	0.992968	7.37041e+06	-49689.1	1005.82	-29758.1	0.000000	0.000000	6.993131	0.096667	NaN	0.000000	0.001616	0.001736	28.0819	0.075447	0.002080	36.2786	-156.617	13.851	0.010784	0.991644	-0.098803	-0.100127	0.096667	36.2786	-0.100801	-1.903248	-0.050791	NaN
548	1.000000	1.002991	7.37041e+06	-49689.1	1005.82	-29758.1	0.000000	0.000000	7.003149	-0.013656	NaN	0.000000	0.001633	0.001718	28.0818	0.056621	0.002011	28.1486	-118.422	-164.679	-0.025125	1.001609	-0.088780	-0.090162	-0.013656	28.1486	-0.088417	-0.991939	0.013767	NaN
548	1.000000	1.012988	7.37041e+06	-49689.1	1005.82	-29758.1	0.000000	0.000000	7.013146	-0.030635	NaN	0.000000	0.001614	0.001691	28.0819	0.043667	0.001966	22.2074	146.71	13.3715	-0.078347	1.011629	-0.078783	-0.080142	-0.030635	22.2074	-0.077748	-0.543184	0.056399	NaN
548	1.000000	1.022976	7.37041e+06	-49689.1	1005.82	-29758.1	0.000000	0.000000	7.023131	-0.091176	NaN	0.000000	0.001619	0.001687	28.0805	0.020607	0.001939	10.6255	-80.3842	-168.933	-0.097794	1.021700	-0.068795	-0.070071	-0.091176	10.6255	-0.062360	-0.210216	0.433727	NaN
548	1.000000	1.032957	7.37041e+06	-49689.1	1005.82	-29758.1	0.000000	0.000000	7.033115	-0.027831	NaN	0.000000	0.001599	0.001688	28.0807	0.053052	0.001999	26.5455	10.1249	15.1455	0.004054	1.031594	-0.058814	-0.060177	-0.027831	26.5455	-0.058027	-0.157964	0.176184	NaN
548	1.000000	1.042978	7.37041e+06	-49689.1	1005.82	-29758.1	0.000000	0.000000	7.043139	0.064666	NaN	0.000000	0.001660	0.001714	28.0805	0.111285	0.002027	54.9115	169.774	-161.302	0.039260	1.041631	-0.048793	-0.050140	0.064666	54.9115	-0.049676	-0.089217	-0.724820	NaN
548	1.000000	1.053000	7.37041e+06	-49689.1	1005.82	-29758.1	0.000000	0.000000	7.053156	-0.051426	NaN	0.000000	0.001626	0.001671	28.0806	0.161888	0.001917	84.4586	106.116	13.2614	-0.053695	1.051673	-0.038771	-0.040098	-0.051426	84.4586	-0.038314	-0.040210	1.278926	NaN
548	1.000000	1.063005	7.37041e+06	-49689.1	1005.82	-29758.1	0.000000	0.000000	7.063160	-0.084365	NaN	0.000000	0.001612	0.001741	28.0803	0.095097	0.001809	52.568	-112.107	-162.118	0.025647	1.061645	-0.028766	-0.030126	-0.084365	52.568	-0.027563	-0.019730	4.275919	NaN
548	1.000000	1.073025	7.37041e+06	-49689.1	1005.82	-29758.1	0.000000	0.000000	7.073183	-0.030215	NaN	0.000000	0.001656	0.001733	28.0807	0.050846	0.002098	24.2352	-84.9372	13.0911	-0.028449	1.071662	-0.018746	-0.020109	-0.030215	24.2352	-0.017811	-0.011037	2.737571	NaN
548	1.000000	1.083048	7.37041e+06	-49689.1	1005.82	-29758.1	0.000000	0.000000	7.083205	-0.017025	NaN	0.000000	0.001623	0.001708	28.0804	0.082447	0.001930	42.7188	-132.375	-162.407	-0.019689	1.081696	-0.008724	-0.010075	-0.017025	42.7188	-0.008425	-0.005480	3.107094	NaN
548	1.000000	1.093006	7.37041e+06	-49689.1	1005.82	-29758.1	0.000000	0.000000	7.093179	0.358311	NaN	0.000000	0.001629	0.001724	28.0806	0.623356	0.001896	328.803	17.3495	14.7584	0.014988	1.091680	0.001235	-9.112561E-5	0.358311	328.803	0.000417	0.000314	1139.37	16939.9
548	2.000000	1.100618	7.37041e+06	-49689.1	1005.82	-29758.1	0.000000	0.000000	7.101242	11.3242	NaN	0.000000	0.001639	0.001733	28.0805	9.464141	0.001641	5766.04	11.1702	-177.771	11.1447	1.100291	0.008847	0.008520	11.3242	5766.04	0.007374	0.006406	1767.7	65819.2
548	2.000000	1.103065	7.37041e+06	-49689.1	1005.82	-29758.1	0.000000	0.000000	7.103876	15.8536	NaN	0.000000	0.001630	0.001699	28.0805	12.2019	0.001833	6656.52	6.521132	7.521651	14.6413	1.102696	0.011294	0.010925	15.8536	6656.52	0.009508	0.008640	1834.96	65429.1
548	2.000000	1.105565	7.37041e+06	-49689.1	1005.82	-29758.1	0.000000	0.000000	7.106532	19.649	NaN	0.000000	0.001625	0.001714	28.081	14.6789	0.001797	8168.83	5.243240	-174.644	18.4612	1.105291	0.013794	0.013520	19.649	8168.83	0.011990	0.011478	1711.82	69661.4
548	2.000000	1.108072	7.37041e+06	-49689.1	1005.82	-29758.1	0.000000	0.000000	7.109254	24.9039	NaN	0.000000	0.001639	0.001707	28.0808	16.5777	0.001698	9760.87	5.187595	4.332804	23.5088	1.107697	0.016301	0.015926	24.9039	9760.87	0.014387	0.014477	1720.29	74118.8
548	2.000000	1.110523	7.37041e+06	-49689.1	1005.82	-29758.1	0.000000	0.000000	7.111868	28.8554	NaN	0.000000	0.001634	0.001760	28.0805	19.5142	0.001739	11224.5	5.921875	-177.319	27.5051	1.110256	0.018752	0.018485	28.8554	11224.5	0.016823	0.017794	1621.6	76877.5
548	2.000000	1.113014	7.37041e+06	-49689.1	1005.82	-29758.1	0.000000	0.000000	7.114582	34.2873	NaN	0.000000	0.001601	0.001728	28.0813	22.1339	0.001783	12414.8	2.773414	4.005430	31.219	1.112657	0.021243	0.020886	34.2873	12414.8	0.019172	0.021257	1612.98	77796.2
548	2.000000	1.115466	7.37041e+06	-49689.1	1005.82	-29758.1	0.000000	0.000000	7.117264	39.8785	NaN	0.000000	0.001635	0.001768	28.0818	25.0145	0.001822	13725.7	8.781642	177.904	38.6835	1.115221	0.023695	0.023450	39.8785	13725.7	0.021516	0.024981	1596.37	79342.2
548	2.000000	1.118015	7.37041e+06	-49689.1	1005.82	-29758.1	0.000000	0.000000	7.120131	47.6025	NaN	0.000000	0.001638	0.001835	28.0827	26.6737	0.001808	14753.2	5.074975	1.761812	45.4814	1.117623	0.026244	0.025852	47.6025	14753.2	0.023824	0.028911	1646.52	79273.7
548	2.000000	1.120515	7.37041e+06	-49689.1	1005.82	-29758.1	0.000000	0.000000	7.123000	56.5692	NaN	0.000000	0.001629	0.001808	28.0823	29.5397	0.001769	16702.3	7.572382	176.983	55.2617	1.120125	0.028744	0.028354	56.5692	16702.3	0.026204	0.033242	1701.73	83696.2
548	2.000000	1.122994	7.37041e+06	-49689.1	1005.82	-29758.1	0.000000	0.000000	7.125837	65.2706	NaN	0.000000	0.001650	0.001785	28.0829	32.3851	0.001862	17395.5	9.583186	-5.298151	63.7946	1.122721	0.031223	0.030950	65.2706	17395.5	0.028409	0.037511	1740.03	82059.8
548	2.000000	1.125539	7.37041e+06	-49689.1	1005.82	-29758.1	0.000000	0.000000	7.128742	74.0361	NaN	0.000000	0.001607	0.001791	28.0817	33.8777	0.001796	18862.6	4.062722	-179.981	74.3203	1.125182	0.033768	0.033411	74.0361	18862.6	0.030824	0.042469	1743.31	83625.6
548	2.000000	1.128011	7.37041e+06	-49689.1	1005.82	-29758.1	0.000000	0.000000	7.131572	82.7669	NaN	0.000000	0.001636	0.001785	28.0821	35.7243	0.001770	20179.9	4.704457	-0.536306	81.6354	1.127611	0.036240	0.035840	82.7669	20179.9	0.033163	0.047556	1740.41	84545.5
548	2.000000	1.130491	7.37041e+06	-49689.1	1005.82	-29758.1	0.000000	0.000000	7.134503	93.7107	NaN	0.000000	0.001599	0.001790	28.0819	38.1707	0.001699	22464.4	10.7943	172.49	93.0089	1.130077	0.038720	0.038306	93.7107	22464.4	0.035592	0.053133	1763.7	89040.4
548	2.000000	1.132946	7.37041e+06	-49689.1	1005.82	-29758.1	0.000000	0.000000	7.137289	101.776	NaN	0.000000	0.001647	0.001817	28.0827	40.4104	0.001816	22255.7	3.266306	-0.176942	97.581	1.132546	0.041175	0.040775	101.776	22255.7	0.037745	0.058331	1744.82	84191.1
548	2.000000	1.135495	7.37041e+06	-49689.1	1005.82	-29758.1	0.000000	0.000000	7.140073	107.493	NaN	0.000000	0.001645	0.001797	28.0816	43.9561	0.001796	24474.7	5.763806	175.459	106.9	1.135204	0.043724	0.043433	107.493	24474.7	0.040430	0.065144	1650.07	87609.9
548	2.000000	1.137957	7.37041e+06	-49689.1	1005.82	-29758.1	0.000000	0.000000	7.143068	120.441	NaN	0.000000	0.001610	0.001780	28.0821	45.8548	0.001859	24663.6	6.590207	-4.822555	117.269	1.137591	0.046186	0.045820	120.441	24663.6	0.042523	0.070712	1703.27	84739.2
548	2.000000	1.140398	7.37041e+06	-49689.1	1005.82	-29758.1	0.000000	0.000000	7.146018	132.803	NaN	0.000000	0.001595	0.001794	28.0818	47.3259	0.001765	26813	4.463023	176.931	129.091	1.140144	0.048627	0.048373	132.803	26813	0.044913	0.077339	1717.14	88088.4
548	2.000000	1.142920	7.37041e+06	-49689.1	1005.82	-29758.1	0.000000	0.000000	7.148893	141.418	NaN	0.000000	0.001593	0.001789	28.0824	51.4067	0.001823	28200.3	4.897661	-5.082842	136.535	1.142609	0.051149	0.050838	141.418	28200.3	0.047388	0.084510	1673.39	88628.4
548	2.000000	1.145523	7.37041e+06	-49689.1	1005.82	-29758.1	0.000000	0.000000	7.151983	153.243	NaN	0.000000	0.001594	0.001806	28.0818	53.7426	0.001745	30804	4.149062	174.995	154.666	1.145240	0.053752	0.053469	153.243	30804	0.050021	0.092477	1657.09	92547.2
548	2.000000	1.147971	7.37041e+06	-49689.1	1005.82	-29758.1	0.000000	0.000000	7.155049	168.291	NaN	0.000000	0.001616	0.001825	28.0811	55.4981	0.001738	31923.2	7.010539	-7.686318	166.355	1.147600	0.056200	0.055829	168.291	31923.2	0.052246	0.099482	1691.68	92471.5
548	2.000000	1.150486	7.37041e+06	-49689.1	1005.82	-29758.1	0.000000	0.000000	7.158137	182.223	NaN	0.000000	0.001614	0.001759	28.0808	56.8153	0.001800	31561.3	5.156781	174.753	181.518	1.150140	0.058715	0.058369	182.223	31561.3	0.054384	0.106445	1711.9	88382.3
548	2.000000	1.152906	7.37041e+06	-49689.1	1005.82	-29758.1	0.000000	0.000000	7.160818	188.552	NaN	0.000000	0.001607	0.001778	28.0807	59.2574	0.001746	33940.9	2.288282	-4.046799	183.268	1.152657	0.061135	0.060886	188.552	33940.9	0.056968	0.115163	1637.27	91377.9
548	2.000000	1.155454	7.37041e+06	-49689.1	1005.82	-29758.1	0.000000	0.000000	7.163918	201.997	NaN	0.000000	0.001612	0.001779	28.0807	63.4539	0.001854	34233.8	5.752983	172.131	201.618	1.155258	0.063683	0.063487	201.997	34233.8	0.059257	0.123159	1640.14	89124.1
548	2.000000	1.157991	7.37041e+06	-49689.1	1005.82	-29758.1	0.000000	0.000000	7.167326	223.156	NaN	0.000000	0.001602	0.001783	28.081	64.7934	0.001739	37252.3	4.046127	-5.350778	222.662	1.157526	0.066220	0.065755	223.156	37252.3	0.061727	0.132075	1689.61	93651.5
548	2.000000	1.160374	7.37042e+06	-49689.1	1005.82	-29758.1	0.000000	0.000000	7.170341	238.529	NaN	0.000000	0.001561	0.001795	28.0808	66.2443	0.001851	35783.9	5.066005	174.24	233.12	1.160041	0.068603	0.068270	238.529	35783.9	0.063604	0.139048	1715.44	87675.4
548	2.000000	1.162967	7.37042e+06	-49689.1	1005.82	-29758.1	0.000000	0.000000	7.173343	248.472	NaN	0.000000	0.001536	0.001769	28.0807	68.947	0.001711	40291.7	3.416133	-6.194643	245.778	1.162662	0.071196	0.070890	248.472	40291.7	0.066571	0.150420	1651.85	94915.2
548	2.000000	1.165474	7.37042e+06	-49689.1	1005.82	-29758.1	0.000000	0.000000	7.176415	262.222	NaN	0.000000	0.001546	0.001795	28.0806	71.9923	0.001800	39998	0.829651	177.012	263.286	1.165166	0.073703	0.073395	262.222	39998	0.068786	0.159185	1647.27	91592.6
548	2.000000	1.167921	7.37042e+06	-49689.1	1005.82	-29758.1	0.000000	0.000000	7.179832	285.811	NaN	0.000000	0.001554	0.001768	28.0821	73.5597	0.001722	42709.4	2.086669	-4.709127	282.72	1.167581	0.076150	0.075810	285.811	42709.4	0.071131	0.168721	1693.99	94997.5
548	2.000000	1.170380	7.37042e+06	-49689.1	1005.82	-29758.1	0.000000	0.000000	7.182987	302.74	NaN	0.000000	0.001528	0.001783	28.0804	76.7624	0.001835	41833.8	4.793992	172.956	297.816	1.170000	0.078609	0.078229	302.74	41833.8	0.073182	0.177271	1707.79	90778.3
548	2.000000	1.172961	7.37042e+06	-49689.1	1005.82	-29758.1	0.000000	0.000000	7.186120	316.172	NaN	0.000000	0.001545	0.001833	28.0806	79.6875	0.001754	45428.5	5.225309	-8.788734	313.966	1.172700	0.081190	0.080929	316.172	45428.5	0.075970	0.189217	1670.95	95416
548	2.000000	1.175516	7.37042e+06	-49689.1	1005.82	-29758.1	0.000000	0.000000	7.189443	334.855	NaN	0.000000	0.001546	0.001780	28.0804	82.2133	0.001755	46838.6	1.882470	174.448	336.356	1.175178	0.083745	0.083407	334.855	46838.6	0.078383	0.199849	1675.54	95725.1
548	2.000000	1.177825	7.37042e+06	-49689.1	1005.82	-29758.1	0.000000	0.000000	7.192615	355.831	NaN	0.000000	0.001507	0.001785	28.0809	84.1417	0.001856	45331.2	5.323833	-8.219552	348.391	1.177467	0.086054	0.085696	355.831	45331.2	0.080167	0.207887	1711.66	90835.9
548	2.000000	1.180408	7.37042e+06	-49689.1	1005.82	-29758.1	0.000000	0.000000	7.195857	371.861	NaN	0.000000	0.001570	0.001762	28.0805	85.5959	0.001780	48082.7	-0.717129	176.97	370.579	1.180176	0.088637	0.088405	371.861	48082.7	0.082837	0.220191	1688.81	93618.6
548	2.000000	1.182937	7.37042e+06	-49689.1	1005.82	-29758.1	0.000000	0.000000	7.198881	383.912	NaN	0.000000	0.001611	0.001792	28.082	88.0265	0.001788	49219.4	0.677902	-4.923230	382.658	1.182664	0.091166	0.090893	383.912	49219.4	0.085316	0.231910	1655.44	93379.2
548	2.000000	1.185458	7.37042e+06	-49689.1	1005.82	-29758.1	0.000000	0.000000	7.202061	399.917	NaN	0.000000	0.001640	0.001750	28.0817	92.4588	0.001949	47437.6	6.325537	169.939	399.071	1.185178	0.093687	0.093407	399.917	47437.6	0.087364	0.241809	1653.85	88137.2
548	2.000000	1.187832	7.37042e+06	-49689.1	1005.82	-29758.1	0.000000	0.000000	7.205550	427.046	NaN	0.000000	0.001594	0.001815	28.0821	92.78	0.001819	51016	7.014964	-11.2408	418.451	1.187540	0.096061	0.095769	427.046	51016	0.089783	0.253743	1682.99	92530
548	2.000000	1.190289	7.37042e+06	-49689.1	1005.82	-29758.1	0.000000	0.000000	7.209047	452.336	NaN	0.000000	0.001654	0.001816	28.0818	92.9963	0.001673	55572.4	3.346876	171.981	445.177	1.190038	0.098518	0.098267	452.336	55572.4	0.092413	0.267028	1693.96	98254.8
548	2.000000	1.192957	7.37042e+06	-49689.1	1005.82	-29758.1	0.000000	0.000000	7.212047	460.41	NaN	0.000000	0.001618	0.001869	28.0818	97.5092	0.001665	58553.6	6.431955	-12.0878	460.809	1.192796	0.101186	0.101025	460.41	58553.6	0.095289	0.281916	1633.15	100755
548	2.000000	1.195344	7.37042e+06	-49689.1	1005.82	-29758.1	0.000000	0.000000	7.215489	486.057	NaN	0.000000	0.001620	0.001845	28.0819	101.393	0.001820	55718.8	3.382986	171.555	482.487	1.195053	0.103573	0.103282	486.057	55718.8	0.097031	0.291116	1669.63	94350
548	2.000000	1.197926	7.37042e+06	-49689.1	1005.82	-29758.1	0.000000	0.000000	7.219365	517.538	NaN	0.000000	0.001643	0.001811	28.0819	103.122	0.001773	58169.1	5.588622	-10.2248	514.312	1.197450	0.106155	0.105679	517.538	58169.1	0.099482	0.304300	1700.75	96341.8
548	2.000000	1.198421	7.37042e+06	-49689.1	1005.82	-29758.1	0.000000	0.000000	7.219854	517.397	NaN	0.000000	0.001641	0.001829	28.0819	103.716	0.001781	58246.9	3.346979	171.679	518.578	1.198227	0.106650	0.106456	517.397	58246.9	0.099987	0.307051	1685.05	96037.4