File: remote_trans/data/nanoindenter/0828-1/data/Data_2025-08-06,11h17m57s/2025-07-22_16-23-58_1_1013.txt
2025-07-22, 16:23:58, 1
Index	Phase	Displacement	Time	Pos X	Pos Y	Pos Z	Rot A	Rot B	Piezo Z	Force A	Force B	Gripper	Voltage A	Voltage B	Temperature	Amplitude force	Amplitude pos	Stiffness	Phase shift	Phase excitation	Force A raw	Displacement raw	HMax	HMax raw	Real Force	Real Stiffness	Contact Depth	Area	Hardness	Reduced Mod.
[#]	[#]	[um]	[s]	[um]	[um]	[um]	[m°]	[m°]	[um]	[uN]	[uN]	[V]	[V]	[V]	[°C]	[uN]	[um]	[N/m]	[°]	[°]	[uN]	[um]	[um]	[um]	[uN]	[N/m]	[um]	[um^2]	[MPa]	[MPa]
1013	1.000000	0.002804	7.37496e+06	-50789.1	1055.82	-29754.5	0.000000	0.000000	6.002818	0.022524	NaN	0.000000	0.001614	0.001666	28.0845	0.085467	0.000905	94.4699	-108.521	-156.24	0.080730	0.001555	-1.034419	-1.035667	0.022524	94.4699	-1.034597	-6.626968E+13	-3.398789E-16	NaN
1013	1.000000	0.010732	7.37496e+06	-50789.1	1055.82	-29754.5	0.000000	0.000000	6.010745	-0.017869	NaN	0.000000	0.001581	0.001673	28.0845	0.085990	0.000858	100.251	-144.988	-151.363	-0.027808	0.009400	-1.026490	-1.027823	-0.017869	100.251	-1.026356	-5.134127E+13	3.480339E-16	NaN
1013	1.000000	0.018756	7.37496e+06	-50789.1	1055.82	-29754.5	0.000000	0.000000	6.018770	0.006153	NaN	0.000000	0.001575	0.001678	28.0845	0.134010	0.001742	76.9074	-61.1381	-162.553	0.014840	0.017442	-1.018466	-1.019781	0.006153	76.9074	-1.018526	-4.028257E+13	-1.527420E-16	NaN
1013	1.000000	0.026763	7.37496e+06	-50789.1	1055.82	-29754.5	0.000000	0.000000	6.026775	-0.022219	NaN	0.000000	0.001634	0.001688	28.0846	0.057209	0.001760	32.5031	160.594	-165.73	0.062472	0.025417	-1.010460	-1.011806	-0.022219	32.5031	-1.009947	-3.087948E+13	7.195469E-16	NaN
1013	1.000000	0.034746	7.37496e+06	-50789.1	1055.82	-29754.5	0.000000	0.000000	6.034758	-0.032511	NaN	0.000000	0.001654	0.001672	28.0844	0.098815	0.001829	54.0357	176.411	-162.444	-0.058797	0.033424	-1.002476	-1.003798	-0.032511	54.0357	-1.002025	-2.415640E+13	1.345864E-15	NaN
1013	1.000000	0.042710	7.37496e+06	-50789.1	1055.82	-29754.5	0.000000	0.000000	6.042724	0.003711	NaN	0.000000	0.001655	0.001684	28.0845	0.074396	0.002017	36.8769	109.416	-162.56	-0.074886	0.041416	-0.994512	-0.995806	0.003711	36.8769	-0.994588	-1.918207E+13	-1.934737E-16	NaN
1013	1.000000	0.050729	7.37496e+06	-50789.1	1055.82	-29754.5	0.000000	0.000000	6.050742	-0.019985	NaN	0.000000	0.001599	0.001676	28.0845	0.032453	0.001993	16.2822	140.794	-164.045	-0.016695	0.049453	-0.986493	-0.987769	-0.019985	16.2822	-0.985572	-1.450367E+13	1.377897E-15	NaN
1013	1.000000	0.058748	7.37496e+06	-50789.1	1055.82	-29754.5	0.000000	0.000000	6.058763	0.048811	NaN	0.000000	0.001567	0.001703	28.0834	0.084803	0.002089	40.5875	161.444	-163.583	-0.034807	0.057435	-0.978475	-0.979787	0.048811	40.5875	-0.979377	-1.196775E+13	-4.078545E-15	NaN
1013	1.000000	0.066751	7.37496e+06	-50789.1	1055.82	-29754.5	0.000000	0.000000	6.066766	0.046952	NaN	0.000000	0.001606	0.001712	28.0831	0.037251	0.002028	18.3692	65.6304	-167.341	0.080472	0.065432	-0.970472	-0.971791	0.046952	18.3692	-0.972389	-9.635032E+12	-4.873042E-15	NaN
1013	1.000000	0.074731	7.37496e+06	-50789.1	1055.82	-29754.5	0.000000	0.000000	6.074747	0.065340	NaN	0.000000	0.001528	0.001657	28.0832	0.111842	0.002026	55.2017	112.038	-164.763	0.149585	0.073436	-0.962491	-0.963787	0.065340	55.2017	-0.963379	-7.284908E+12	-8.969201E-15	NaN
1013	1.000000	0.082735	7.37496e+06	-50789.1	1055.82	-29754.5	0.000000	0.000000	6.082746	-0.068689	NaN	0.000000	0.001552	0.001675	28.0831	0.119572	0.002031	58.877	-163.974	-164.221	0.002414	0.081442	-0.954487	-0.955780	-0.068689	58.877	-0.953612	-5.379510E+12	1.276861E-14	NaN
1013	1.000000	0.090764	7.37496e+06	-50789.1	1055.82	-29754.5	0.000000	0.000000	6.090778	0.016645	NaN	0.000000	0.001570	0.001711	28.0834	0.137586	0.001965	70.0256	30.6627	-165.601	-0.023974	0.089422	-0.946458	-0.947801	0.016645	70.0256	-0.946636	-4.331741E+12	-3.842620E-15	NaN
1013	1.000000	0.098763	7.37496e+06	-50789.1	1055.82	-29754.5	0.000000	0.000000	6.098778	0.042139	NaN	0.000000	0.001574	0.001682	28.0834	0.015494	0.001957	7.919005	100.206	-164.759	0.067501	0.097412	-0.938460	-0.939810	0.042139	7.919005	-0.942451	-3.803631E+12	-1.107866E-14	NaN
1013	1.000000	0.106759	7.37496e+06	-50789.1	1055.82	-29754.5	0.000000	0.000000	6.106774	0.016635	NaN	0.000000	0.001561	0.001714	28.0834	0.080809	0.001867	43.2764	0.174776	-166.289	-0.002169	0.105476	-0.930463	-0.931747	0.016635	43.2764	-0.930751	-2.644457E+12	-6.290507E-15	NaN
1013	1.000000	0.114778	7.37496e+06	-50789.1	1055.82	-29754.5	0.000000	0.000000	6.114794	0.058385	NaN	0.000000	0.001535	0.001729	28.0832	0.026987	0.001883	14.3353	169.31	-163.343	0.082741	0.113439	-0.922444	-0.923783	0.058385	14.3353	-0.925499	-2.246160E+12	-2.599309E-14	NaN
1013	1.000000	0.122743	7.37496e+06	-50789.1	1055.82	-29754.5	0.000000	0.000000	6.122760	0.080037	NaN	0.000000	0.001555	0.001699	28.0834	0.051312	0.001982	25.8843	-87.228	-163.207	0.053551	0.121441	-0.914479	-0.915782	0.080037	25.8843	-0.916798	-1.713856E+12	-4.669972E-14	NaN
1013	1.000000	0.130758	7.37496e+06	-50789.1	1055.82	-29754.5	0.000000	0.000000	6.130770	-0.043913	NaN	0.000000	0.001560	0.001660	28.0834	0.075826	0.001954	38.8072	59.605	-167.204	-0.007670	0.129480	-0.906464	-0.907742	-0.043913	38.8072	-0.905616	-1.210428E+12	3.627912E-14	NaN
1013	1.000000	0.138776	7.37496e+06	-50789.1	1055.82	-29754.5	0.000000	0.000000	6.138792	0.057482	NaN	0.000000	0.001533	0.001699	28.0832	0.045749	0.002018	22.6712	-125.75	-165.816	0.136847	0.137414	-0.898447	-0.899809	0.057482	22.6712	-0.900348	-1.027475E+12	-5.594470E-14	NaN
1013	1.000000	0.146770	7.37496e+06	-50789.1	1055.82	-29754.5	0.000000	0.000000	6.146786	0.057074	NaN	0.000000	0.001551	0.001695	28.0834	0.097415	0.001958	49.7453	-88.8108	-162.219	-0.021660	0.145457	-0.890452	-0.891765	0.057074	49.7453	-0.891313	-7.756398E+11	-7.358299E-14	NaN
1013	1.000000	0.154753	7.37496e+06	-50789.1	1055.82	-29754.5	0.000000	0.000000	6.154766	-0.034570	NaN	0.000000	0.001517	0.001704	28.0832	0.087484	0.002016	43.4001	-154.019	-162.995	0.033449	0.153471	-0.882469	-0.883752	-0.034570	43.4001	-0.881872	-5.781190E+11	5.979741E-14	NaN
1013	1.000000	0.162775	7.37496e+06	-50789.1	1055.82	-29754.5	0.000000	0.000000	6.162790	0.037536	NaN	0.000000	0.001517	0.001687	28.0833	0.120192	0.001882	63.8786	-171.53	-164.958	-0.035561	0.161429	-0.874447	-0.875793	0.037536	63.8786	-0.874888	-4.651187E+11	-8.070257E-14	NaN
1013	1.000000	0.170798	7.37496e+06	-50789.1	1055.82	-29754.5	0.000000	0.000000	6.170815	0.086810	NaN	0.000000	0.001548	0.001701	28.0833	0.049377	0.001972	25.0365	-120.309	-167.937	0.044994	0.169525	-0.866424	-0.867697	0.086810	25.0365	-0.869025	-3.874785E+11	-2.240390E-13	NaN
1013	1.000000	0.178778	7.37496e+06	-50789.1	1055.82	-29754.5	0.000000	0.000000	6.178792	0.001815	NaN	0.000000	0.001557	0.001676	28.0832	0.076271	0.002086	36.5662	132.882	-165.175	0.037821	0.177452	-0.858444	-0.859771	0.001815	36.5662	-0.858481	-2.789754E+11	-6.504347E-15	NaN
1013	1.000000	0.186793	7.37496e+06	-50789.1	1055.82	-29754.5	0.000000	0.000000	6.186810	0.063203	NaN	0.000000	0.001503	0.001715	28.0835	0.045195	0.001974	22.8953	-133.443	-163.639	0.084137	0.185441	-0.850429	-0.851782	0.063203	22.8953	-0.852499	-2.315158E+11	-2.729964E-13	NaN
1013	1.000000	0.194798	7.37496e+06	-50789.1	1055.82	-29754.5	0.000000	0.000000	6.194811	-0.032429	NaN	0.000000	0.001555	0.001715	28.0846	0.087087	0.001940	44.8819	-134.142	-165.808	-0.062082	0.193451	-0.842424	-0.843772	-0.032429	44.8819	-0.841882	-1.662604E+11	1.950501E-13	NaN
1013	1.000000	0.202812	7.37496e+06	-50789.1	1055.82	-29754.5	0.000000	0.000000	6.202828	0.058700	NaN	0.000000	0.001532	0.001737	28.0845	0.071960	0.001968	36.5662	94.4259	-164.986	-0.032767	0.201507	-0.834411	-0.835715	0.058700	36.5662	-0.835615	-1.367333E+11	-4.293023E-13	NaN
1013	1.000000	0.210788	7.37496e+06	-50789.1	1055.82	-29754.5	0.000000	0.000000	6.210803	0.019801	NaN	0.000000	0.001507	0.001677	28.0846	0.115769	0.001990	58.1882	172.582	-162.759	-0.020953	0.209453	-0.826434	-0.827770	0.019801	58.1882	-0.826689	-1.034922E+11	-1.913247E-13	NaN
1013	1.000000	0.218749	7.37496e+06	-50789.1	1055.82	-29754.5	0.000000	0.000000	6.218763	0.008934	NaN	0.000000	0.001523	0.001699	28.0849	0.111612	0.002039	54.7469	102.932	-162.535	0.045429	0.217548	-0.818473	-0.819674	0.008934	54.7469	-0.818596	-8.038406E+10	-1.111466E-13	NaN
1013	1.000000	0.226817	7.37496e+06	-50789.1	1055.82	-29754.5	0.000000	0.000000	6.226831	0.004100	NaN	0.000000	0.001508	0.001702	28.0847	0.034652	0.002025	17.114	102.712	-165.078	-0.023806	0.225537	-0.810405	-0.811685	0.004100	17.114	-0.810585	-6.259026E+10	-6.551325E-14	NaN
1013	1.000000	0.234801	7.37496e+06	-50789.1	1055.82	-29754.5	0.000000	0.000000	6.234819	0.093652	NaN	0.000000	0.001526	0.001680	28.0847	0.134336	0.001931	69.5763	6.609975	-164.598	0.034477	0.233490	-0.802421	-0.803732	0.093652	69.5763	-0.803430	-5.005222E+10	-1.871086E-12	NaN
1013	1.000000	0.242825	7.37496e+06	-50789.1	1055.82	-29754.5	0.000000	0.000000	6.242839	-0.010624	NaN	0.000000	0.001533	0.001676	28.0846	0.082133	0.002053	40.0101	42.1282	-165.05	0.000897	0.241498	-0.794397	-0.795724	-0.010624	40.0101	-0.794198	-3.750503E+10	2.832697E-13	NaN
1013	1.000000	0.250815	7.37496e+06	-50789.1	1055.82	-29754.5	0.000000	0.000000	6.250829	0.007959	NaN	0.000000	0.001535	0.001635	28.0846	0.070281	0.001948	36.0837	153.088	-168.188	-0.001040	0.249516	-0.786407	-0.787706	0.007959	36.0837	-0.786573	-2.954834E+10	-2.693683E-13	NaN
1013	1.000000	0.258804	7.37496e+06	-50789.1	1055.82	-29754.5	0.000000	0.000000	6.258815	-0.074334	NaN	0.000000	0.001528	0.001631	28.0847	0.052730	0.001951	27.034	174.354	-171.628	-0.051228	0.257509	-0.778418	-0.779713	-0.074334	27.034	-0.776356	-2.146363E+10	3.463272E-12	NaN
1013	1.000000	0.266831	7.37496e+06	-50789.1	1055.82	-29754.5	0.000000	0.000000	6.266845	0.013716	NaN	0.000000	0.001517	0.001731	28.0846	0.010691	0.001907	5.604967	49.4769	-167.54	0.008476	0.265514	-0.770391	-0.771709	0.013716	5.604967	-0.772227	-1.886157E+10	-7.272036E-13	NaN
1013	1.000000	0.274846	7.37496e+06	-50789.1	1055.82	-29754.5	0.000000	0.000000	6.274860	0.029117	NaN	0.000000	0.001526	0.001706	28.0847	0.093126	0.002080	44.7791	81.9943	-163.622	-0.037370	0.273510	-0.762377	-0.763713	0.029117	44.7791	-0.762864	-1.406908E+10	-2.069588E-12	NaN
1013	1.000000	0.282805	7.37496e+06	-50789.1	1055.82	-29754.5	0.000000	0.000000	6.282820	0.032516	NaN	0.000000	0.001504	0.001737	28.0846	0.059205	0.001955	30.2883	100.837	-162.955	0.116195	0.281498	-0.754417	-0.755724	0.032516	30.2883	-0.755222	-1.107380E+10	-2.936294E-12	NaN
1013	1.000000	0.290812	7.37496e+06	-50789.1	1055.82	-29754.5	0.000000	0.000000	6.290827	0.016019	NaN	0.000000	0.001509	0.001719	28.0846	0.044785	0.001886	23.746	-74.9688	-162.212	0.011460	0.289557	-0.746410	-0.747666	0.016019	23.746	-0.746916	-8.535585E+9	-1.876699E-12	NaN
1013	1.000000	0.298858	7.37496e+06	-50789.1	1055.82	-29754.5	0.000000	0.000000	6.298873	0.052678	NaN	0.000000	0.001533	0.001723	28.0845	0.030009	0.001996	15.0348	-81.4561	-167.066	0.019785	0.297490	-0.738365	-0.739732	0.052678	15.0348	-0.740992	-7.088806E+9	-7.431135E-12	NaN
1013	1.000000	0.306843	7.37496e+06	-50789.1	1055.82	-29754.5	0.000000	0.000000	6.306860	0.070853	NaN	0.000000	0.001536	0.001737	28.0845	0.107122	0.001866	57.3941	-106.058	-163.003	0.012807	0.305509	-0.730379	-0.731714	0.070853	57.3941	-0.731305	-5.231106E+9	-1.354462E-11	NaN
1013	1.000000	0.314841	7.37496e+06	-50789.1	1055.82	-29754.5	0.000000	0.000000	6.314853	-0.031417	NaN	0.000000	0.001527	0.001695	28.0844	0.141235	0.002104	67.1204	-97.7248	-163.921	-0.003601	0.313576	-0.722382	-0.723646	-0.031417	67.1204	-0.722031	-3.909909E+9	8.035268E-12	NaN
1013	1.000000	0.322866	7.37496e+06	-50789.1	1055.82	-29754.5	0.000000	0.000000	6.322880	-0.001780	NaN	0.000000	0.001564	0.001699	28.0846	0.126544	0.002018	62.7096	25.5754	-165.924	-0.078395	0.321495	-0.714356	-0.715727	-0.001780	62.7096	-0.714335	-3.070422E+9	5.795866E-13	NaN
1013	1.000000	0.330828	7.37496e+06	-50789.1	1055.82	-29754.5	0.000000	0.000000	6.330841	-0.004826	NaN	0.000000	0.001546	0.001691	28.0832	0.116848	0.001948	59.9705	-67.6051	-166.702	0.016404	0.329554	-0.706394	-0.707669	-0.004826	59.9705	-0.706334	-2.387885E+9	2.021104E-12	NaN
1013	1.000000	0.338826	7.37496e+06	-50789.1	1055.82	-29754.5	0.000000	0.000000	6.338842	0.054728	NaN	0.000000	0.001537	0.001710	28.083	0.053537	0.001963	27.2692	70.9805	-164.808	0.049047	0.337508	-0.698396	-0.699714	0.054728	27.2692	-0.699901	-1.950664E+9	-2.805633E-11	NaN
1013	1.000000	0.346835	7.37496e+06	-50789.1	1055.82	-29754.5	0.000000	0.000000	6.346851	0.058742	NaN	0.000000	0.001530	0.001675	28.0831	0.151638	0.001946	77.9147	83.7763	-165.32	0.067177	0.345608	-0.690387	-0.691614	0.058742	77.9147	-0.690952	-1.472090E+9	-3.990386E-11	NaN
1013	1.000000	0.354889	7.37496e+06	-50789.1	1055.82	-29754.5	0.000000	0.000000	6.354904	0.030133	NaN	0.000000	0.001511	0.001689	28.0831	0.050796	0.002047	24.8116	-134.189	-167.1	0.086413	0.353510	-0.682333	-0.683713	0.030133	24.8116	-0.683244	-1.154964E+9	-2.609016E-11	NaN
1013	1.000000	0.362849	7.37496e+06	-50789.1	1055.82	-29754.5	0.000000	0.000000	6.362861	-0.028446	NaN	0.000000	0.001496	0.001654	28.083	0.073854	0.001990	37.1112	106.771	-161.839	-0.021908	0.361519	-0.674373	-0.675704	-0.028446	37.1112	-0.673798	-8.577703E+8	3.316255E-11	NaN
1013	1.000000	0.370861	7.37496e+06	-50789.1	1055.82	-29754.5	0.000000	0.000000	6.370871	-0.072050	NaN	0.000000	0.001530	0.001691	28.0832	0.050106	0.001970	25.4392	92.2836	-164.785	-0.121629	0.369553	-0.666362	-0.667670	-0.072050	25.4392	-0.664238	-6.346058E+8	1.135355E-10	NaN
1013	1.000000	0.378903	7.37496e+06	-50789.1	1055.82	-29754.5	0.000000	0.000000	6.378915	-0.032451	NaN	0.000000	0.001531	0.001689	28.0832	0.018546	0.001998	9.280636	-146.299	-167.467	-0.102915	0.377505	-0.658319	-0.659717	-0.032451	9.280636	-0.655697	-4.847438E+8	6.694542E-11	NaN
1013	1.000000	0.386890	7.37496e+06	-50789.1	1055.82	-29754.5	0.000000	0.000000	6.386906	0.055973	NaN	0.000000	0.001549	0.001669	28.083	0.022270	0.001870	11.9078	-151.844	-160.958	0.020550	0.385556	-0.650332	-0.651666	0.055973	11.9078	-0.653857	-4.574118E+8	-1.223687E-10	NaN
1013	1.000000	0.394868	7.37496e+06	-50789.1	1055.82	-29754.5	0.000000	0.000000	6.394883	0.043341	NaN	0.000000	0.001538	0.001673	28.0831	0.039575	0.001993	19.8556	155.106	-169.033	0.066301	0.393582	-0.642355	-0.643640	0.043341	19.8556	-0.643992	-3.350038E+8	-1.293746E-10	NaN
1013	1.000000	0.402880	7.37496e+06	-50789.1	1055.82	-29754.5	0.000000	0.000000	6.402892	-0.020597	NaN	0.000000	0.001559	0.001695	28.0833	0.075138	0.002011	37.3719	-89.1675	-165.149	-0.043682	0.401597	-0.634343	-0.635625	-0.020597	37.3719	-0.633929	-2.437675E+8	8.449278E-11	NaN
1013	1.000000	0.410901	7.37496e+06	-50789.1	1055.82	-29754.5	0.000000	0.000000	6.410919	0.110118	NaN	0.000000	0.001556	0.001708	28.0831	0.090709	0.002073	43.7536	142.41	-165.182	0.096293	0.409617	-0.626321	-0.627605	0.110118	43.7536	-0.628209	-2.034354E+8	-5.412915E-10	NaN
1013	1.000000	0.418878	7.37496e+06	-50789.1	1055.82	-29754.5	0.000000	0.000000	6.418894	0.049196	NaN	0.000000	0.001570	0.001709	28.0833	0.071193	0.002074	34.3199	-167.859	-164.556	0.049129	0.417581	-0.618344	-0.619641	0.049196	34.3199	-0.619419	-1.540465E+8	-3.193565E-10	NaN
1013	1.000000	0.426898	7.37496e+06	-50789.1	1055.82	-29754.5	0.000000	0.000000	6.426912	0.030731	NaN	0.000000	0.001521	0.001680	28.0835	0.053227	0.001960	27.1505	-1.193638	-165.56	0.023605	0.425579	-0.610325	-0.611643	0.030731	27.1505	-0.611174	-1.186480E+8	-2.590097E-10	NaN
1013	1.000000	0.434889	7.37496e+06	-50789.1	1055.82	-29754.5	0.000000	0.000000	6.434903	0.005410	NaN	0.000000	0.001503	0.001691	28.0833	0.018391	0.002007	9.163240	-1.755721	-168.002	-0.043612	0.433580	-0.602333	-0.603642	0.005410	9.163240	-0.602776	-9.092519E+7	-5.950436E-11	NaN
1013	1.000000	0.442886	7.37496e+06	-50789.1	1055.82	-29754.5	0.000000	0.000000	6.442901	0.055852	NaN	0.000000	0.001515	0.001672	28.0833	0.146535	0.002113	69.334	-83.8776	-164.429	0.126931	0.441590	-0.594337	-0.595632	0.055852	69.334	-0.594941	-7.091985E+7	-7.875309E-10	NaN
1013	1.000000	0.450889	7.37496e+06	-50789.1	1055.82	-29754.5	0.000000	0.000000	6.450904	0.011836	NaN	0.000000	0.001564	0.001612	28.0831	0.086529	0.002016	42.9166	52.7438	-165.515	-0.012738	0.449626	-0.586333	-0.587596	0.011836	42.9166	-0.586540	-5.431894E+7	-2.179001E-10	NaN
1013	1.000000	0.458908	7.37496e+06	-50789.1	1055.82	-29754.5	0.000000	0.000000	6.458920	-0.036334	NaN	0.000000	0.001564	0.001669	28.083	0.047705	0.002008	23.7586	-47.8304	-162.507	-0.049975	0.457610	-0.578314	-0.579612	-0.036334	23.7586	-0.577167	-4.032953E+7	9.009250E-10	NaN
1013	1.000000	0.466915	7.37496e+06	-50789.1	1055.82	-29754.5	0.000000	0.000000	6.466927	-0.042054	NaN	0.000000	0.001573	0.001705	28.0843	0.026224	0.001976	13.269	69.1272	-167.261	0.014668	0.465602	-0.570307	-0.571621	-0.042054	13.269	-0.567930	-3.006284E+7	1.398882E-9	NaN
1013	1.000000	0.474890	7.37496e+06	-50789.1	1055.82	-29754.5	0.000000	0.000000	6.474904	0.025409	NaN	0.000000	0.001541	0.001682	28.084	0.092916	0.001890	49.159	44.7191	-163.105	0.009840	0.473590	-0.562332	-0.563632	0.025409	49.159	-0.562720	-2.546839E+7	-9.976866E-10	NaN
1013	1.000000	0.482930	7.37496e+06	-50789.1	1055.82	-29754.5	0.000000	0.000000	6.482946	0.039996	NaN	0.000000	0.001560	0.001658	28.0844	0.042483	0.002169	19.586	-157.339	-165.768	-0.000321	0.481633	-0.554292	-0.555589	0.039996	19.586	-0.555824	-2.044503E+7	-1.956260E-9	NaN
1013	1.000000	0.490924	7.37496e+06	-50789.1	1055.82	-29754.5	0.000000	0.000000	6.490939	0.024948	NaN	0.000000	0.001565	0.001599	28.0842	0.091802	0.002137	42.954	-56.637	-165.491	-0.024451	0.489596	-0.546298	-0.547627	0.024948	42.954	-0.546734	-1.530059E+7	-1.630519E-9	NaN
1013	1.000000	0.498908	7.37496e+06	-50789.1	1055.82	-29754.5	0.000000	0.000000	6.498921	-0.011040	NaN	0.000000	0.001573	0.001641	28.0844	0.034836	0.002002	17.3979	-103.52	-165.588	-0.021654	0.497622	-0.538315	-0.539601	-0.011040	17.3979	-0.537839	-1.151802E+7	9.585400E-10	NaN
1013	1.000000	0.506911	7.37496e+06	-50789.1	1055.82	-29754.5	0.000000	0.000000	6.506925	0.032145	NaN	0.000000	0.001549	0.001609	28.0842	0.029078	0.002037	14.2761	-2.571329	-168.359	-0.010693	0.505628	-0.530312	-0.531594	0.032145	14.2761	-0.532001	-9.55772e+06	-3.363238E-9	NaN
1013	1.000000	0.514940	7.37496e+06	-50789.1	1055.82	-29754.5	0.000000	0.000000	6.514954	0.009975	NaN	0.000000	0.001555	0.001656	28.0842	0.073320	0.001988	36.8719	-93.8501	-166.178	0.002330	0.513616	-0.522282	-0.523606	0.009975	36.8719	-0.522485	-7.04943e+06	-1.414953E-9	NaN
1013	1.000000	0.522930	7.37496e+06	-50789.1	1055.82	-29754.5	0.000000	0.000000	6.522944	0.013714	NaN	0.000000	0.001560	0.001648	28.0842	0.018250	0.002012	9.068877	-134.663	-165.513	-0.060783	0.521624	-0.514292	-0.515598	0.013714	9.068877	-0.515426	-5.62294e+06	-2.438972E-9	NaN
1013	1.000000	0.530917	7.37496e+06	-50789.1	1055.82	-29754.5	0.000000	0.000000	6.530928	-0.062192	NaN	0.000000	0.001555	0.001642	28.0839	0.032998	0.001895	17.4169	-167.073	-169.155	0.021500	0.529626	-0.506305	-0.507596	-0.062192	17.4169	-0.503627	-3.8513e+06	1.614822E-8	NaN
1013	1.000000	0.538961	7.37496e+06	-50789.1	1055.82	-29754.5	0.000000	0.000000	6.538974	-0.024402	NaN	0.000000	0.001569	0.001697	28.0845	0.131117	0.002115	62.0014	166.307	-166.824	0.035215	0.537673	-0.498261	-0.499549	-0.024402	62.0014	-0.497966	-3.21096e+06	7.599559E-9	NaN
1013	1.000000	0.546940	7.37496e+06	-50789.1	1055.82	-29754.5	0.000000	0.000000	6.546952	-0.029033	NaN	0.000000	0.001583	0.001628	28.0839	0.060975	0.002097	29.0799	82.0673	-165.972	-0.031061	0.545640	-0.490282	-0.491582	-0.029033	29.0799	-0.489534	-2.44836e+06	1.185831E-8	NaN
1013	1.000000	0.554931	7.37496e+06	-50789.1	1055.82	-29754.5	0.000000	0.000000	6.554943	-0.020317	NaN	0.000000	0.001506	0.001613	28.084	0.126903	0.002044	62.1005	-121.934	-166.117	0.006698	0.553664	-0.482292	-0.483558	-0.020317	62.1005	-0.482046	-1.92384e+06	1.056043E-8	NaN
1013	1.000000	0.562959	7.37496e+06	-50789.1	1055.82	-29754.5	0.000000	0.000000	6.562974	0.056084	NaN	0.000000	0.001573	0.001628	28.0842	0.091959	0.001899	48.4337	-129.834	-165.396	0.073548	0.561668	-0.474264	-0.475554	0.056084	48.4337	-0.475132	-1.53941e+06	-3.643214E-8	NaN
1013	1.000000	0.570925	7.37496e+06	-50789.1	1055.82	-29754.5	0.000000	0.000000	6.570940	0.040648	NaN	0.000000	0.001539	0.001673	28.0841	0.035681	0.001980	18.0233	138.351	-165.393	-0.006550	0.569667	-0.466297	-0.467555	0.040648	18.0233	-0.467989	-1.22235e+06	-3.325374E-8	NaN
1013	1.000000	0.578918	7.37496e+06	-50789.1	1055.82	-29754.5	0.000000	0.000000	6.578933	0.038447	NaN	0.000000	0.001570	0.001656	28.0843	0.076365	0.001937	39.4174	-171.931	-166.818	0.048193	0.577634	-0.458304	-0.459588	0.038447	39.4174	-0.459036	-915088	-4.201412E-8	NaN
1013	1.000000	0.586971	7.37496e+06	-50789.1	1055.82	-29754.5	0.000000	0.000000	6.586984	-0.020215	NaN	0.000000	0.001558	0.001686	28.084	0.119609	0.002101	56.9284	74.1847	-166.345	0.005603	0.585693	-0.450251	-0.451530	-0.020215	56.9284	-0.449985	-682544	2.961666E-8	NaN
1013	1.000000	0.594942	7.37496e+06	-50789.1	1055.82	-29754.5	0.000000	0.000000	6.594956	0.006604	NaN	0.000000	0.001566	0.001665	28.0842	0.003533	0.002051	1.722761	127.575	-166.389	0.097156	0.593616	-0.442280	-0.443606	0.006604	1.722761	-0.445155	-583545	-1.131646E-8	NaN
1013	1.000000	0.602989	7.37496e+06	-50789.1	1055.82	-29754.5	0.000000	0.000000	6.603005	0.054151	NaN	0.000000	0.001582	0.001661	28.0823	0.143735	0.001955	73.5117	-109.722	-166.593	0.127777	0.601621	-0.434233	-0.435602	0.054151	73.5117	-0.434786	-416608	-1.299803E-7	NaN
1013	1.000000	0.610984	7.37496e+06	-50789.1	1055.82	-29754.5	0.000000	0.000000	6.610999	0.025316	NaN	0.000000	0.001555	0.001594	28.0829	0.074166	0.002151	34.4758	-96.507	-163.582	-0.009768	0.609682	-0.426238	-0.427540	0.025316	34.4758	-0.426789	-321082	-7.884482E-8	NaN
1013	1.000000	0.618967	7.37496e+06	-50789.1	1055.82	-29754.5	0.000000	0.000000	6.618983	0.056181	NaN	0.000000	0.001591	0.001605	28.0828	0.054403	0.002035	26.7275	-104.323	-162.959	-0.053212	0.617659	-0.418255	-0.419564	0.056181	26.7275	-0.419832	-255877	-2.195633E-7	NaN
1013	1.000000	0.626950	7.37496e+06	-50789.1	1055.82	-29754.5	0.000000	0.000000	6.626963	-0.027632	NaN	0.000000	0.001548	0.001655	28.0827	0.031762	0.002133	14.8909	65.8289	-165.756	0.101756	0.625673	-0.410272	-0.411549	-0.027632	14.8909	-0.408880	-178843	1.545038E-7	NaN
1013	1.000000	0.635010	7.37496e+06	-50789.1	1055.82	-29754.5	0.000000	0.000000	6.635026	0.054714	NaN	0.000000	0.001630	0.001638	28.083	0.059249	0.002008	29.5011	118.318	-164.804	0.017279	0.633631	-0.402212	-0.403592	0.054714	29.5011	-0.403603	-150435	-3.637026E-7	NaN
1013	1.000000	0.642982	7.37496e+06	-50789.1	1055.82	-29754.5	0.000000	0.000000	6.642994	-0.022774	NaN	0.000000	0.001627	0.001639	28.0826	0.040151	0.002006	20.0201	-155.715	-167.436	-0.066951	0.641757	-0.394241	-0.395466	-0.022774	20.0201	-0.393387	-107547	2.117580E-7	NaN
1013	1.000000	0.650969	7.37496e+06	-50789.1	1055.82	-29754.5	0.000000	0.000000	6.650984	0.032773	NaN	0.000000	0.001628	0.001665	28.0826	0.062982	0.001990	31.6424	-64.9049	-168.417	0.045276	0.649738	-0.386253	-0.387485	0.032773	31.6424	-0.387030	-87229.5	-3.757154E-7	NaN
1013	1.000000	0.658972	7.37496e+06	-50789.1	1055.82	-29754.5	0.000000	0.000000	6.658988	0.051766	NaN	0.000000	0.001647	0.001672	28.0827	0.018381	0.001994	9.219144	-18.9539	-165.805	0.027230	0.657614	-0.378250	-0.379608	0.051766	9.219144	-0.382462	-75024.4	-6.899861E-7	NaN
1013	1.000000	0.667015	7.37496e+06	-50789.1	1055.82	-29754.5	0.000000	0.000000	6.667030	0.045524	NaN	0.000000	0.001555	0.001650	28.0829	0.024334	0.002043	11.9099	10.1921	-166.21	0.065752	0.665636	-0.370208	-0.371587	0.045524	11.9099	-0.373074	-55002.3	-8.276771E-7	NaN
1013	1.000000	0.674995	7.37496e+06	-50789.1	1055.82	-29754.5	0.000000	0.000000	6.675012	0.085081	NaN	0.000000	0.001550	0.001655	28.083	0.005332	0.002039	2.615287	-86.5409	-164.56	0.037596	0.673739	-0.362227	-0.363483	0.085081	2.615287	-0.386626	-86075.3	-9.884508E-7	NaN
1013	1.000000	0.683001	7.37496e+06	-50789.1	1055.82	-29754.5	0.000000	0.000000	6.683017	0.061090	NaN	0.000000	0.001552	0.001651	28.0828	0.018368	0.001942	9.460703	119.373	-171.27	0.022335	0.681635	-0.354222	-0.355587	0.061090	9.460703	-0.359065	-34539.9	-1.768684E-6	NaN
1013	1.000000	0.690994	7.37496e+06	-50789.1	1055.82	-29754.5	0.000000	0.000000	6.691008	0.025109	NaN	0.000000	0.001571	0.001657	28.0829	0.043648	0.001704	25.608	157.557	-164.961	0.008189	0.689707	-0.346229	-0.347515	0.025109	25.608	-0.346964	-23062.6	-1.088726E-6	NaN
1013	1.000000	0.699001	7.37496e+06	-50789.1	1055.82	-29754.5	0.000000	0.000000	6.699014	0.000410	NaN	0.000000	0.001564	0.001654	28.0828	0.037709	0.001929	19.5521	-99.3686	-162.198	0.066323	0.697698	-0.338222	-0.339524	0.000410	19.5521	-0.338238	-17212.8	-2.383551E-8	NaN
1013	1.000000	0.706985	7.37496e+06	-50789.1	1055.82	-29754.5	0.000000	0.000000	6.706996	-0.057223	NaN	0.000000	0.001572	0.001615	28.0829	0.070240	0.002075	33.8561	129.987	-164.179	-0.129711	0.705709	-0.330238	-0.331513	-0.057223	33.8561	-0.328970	-12599.8	4.541536E-6	NaN
1013	1.000000	0.715011	7.37496e+06	-50789.1	1055.82	-29754.5	0.000000	0.000000	6.715025	0.018817	NaN	0.000000	0.001546	0.001626	28.0827	0.158817	0.001956	81.1846	151.946	-167.29	0.059801	0.713652	-0.322212	-0.323570	0.018817	81.1846	-0.322386	-10086.2	-1.865655E-6	NaN
1013	1.000000	0.723003	7.37496e+06	-50789.1	1055.82	-29754.5	0.000000	0.000000	6.723018	0.032266	NaN	0.000000	0.001542	0.001612	28.0829	0.038778	0.002038	19.0249	-123.34	-166.733	-0.017617	0.721712	-0.314219	-0.315510	0.032266	19.0249	-0.315491	-7983.61	-4.041520E-6	NaN
1013	1.000000	0.731007	7.37496e+06	-50789.1	1055.82	-29754.5	0.000000	0.000000	6.731023	0.067093	NaN	0.000000	0.001562	0.001611	28.083	0.051962	0.002027	25.6342	-112.201	-169.491	0.007703	0.729686	-0.306216	-0.307536	0.067093	25.6342	-0.308179	-6224.23	-1.077927E-5	NaN
1013	1.000000	0.739032	7.37496e+06	-50789.1	1055.82	-29754.5	0.000000	0.000000	6.739047	0.023016	NaN	0.000000	0.001563	0.001651	28.0841	0.094145	0.001993	47.2491	109.907	-168.84	-0.011229	0.737754	-0.298190	-0.299468	0.023016	47.2491	-0.298555	-4478.35	-5.139487E-6	NaN
1013	1.000000	0.747019	7.37496e+06	-50789.1	1055.82	-29754.5	0.000000	0.000000	6.747034	0.028590	NaN	0.000000	0.001528	0.001641	28.0842	0.041596	0.001939	21.4479	-118.551	-166.828	0.071669	0.745738	-0.290204	-0.291484	0.028590	21.4479	-0.291203	-3477.94	-8.220278E-6	NaN
1013	1.000000	0.755003	7.37496e+06	-50789.1	1055.82	-29754.5	0.000000	0.000000	6.755018	0.031978	NaN	0.000000	0.001564	0.001655	28.0841	0.024250	0.001910	12.6983	109.07	-166.419	-0.078389	0.753774	-0.282219	-0.283448	0.031978	12.6983	-0.284108	-2721.75	-1.174913E-5	NaN
1013	1.000000	0.763034	7.37496e+06	-50789.1	1055.82	-29754.5	0.000000	0.000000	6.763048	0.016255	NaN	0.000000	0.001624	0.001648	28.0841	0.110972	0.001980	56.054	-119.37	-165.149	0.029766	0.761715	-0.274188	-0.275508	0.016255	56.054	-0.274406	-1942.68	-8.367120E-6	NaN
1013	1.000000	0.771039	7.37496e+06	-50789.1	1055.82	-29754.5	0.000000	0.000000	6.771053	0.011331	NaN	0.000000	0.001616	0.001705	28.0842	0.043315	0.002023	21.4156	65.8075	-164.105	-0.025864	0.769732	-0.266183	-0.267490	0.011331	21.4156	-0.266580	-1477.36	-7.669810E-6	NaN
1013	1.000000	0.779019	7.37496e+06	-50789.1	1055.82	-29754.5	0.000000	0.000000	6.779031	-0.025284	NaN	0.000000	0.001587	0.001726	28.0841	0.074111	0.001982	37.3987	24.7389	-165.985	-0.025066	0.777707	-0.258204	-0.259515	-0.025284	37.3987	-0.257697	-1080.38	2.340295E-5	NaN
1013	1.000000	0.787003	7.37496e+06	-50789.1	1055.82	-29754.5	0.000000	0.000000	6.787019	0.074430	NaN	0.000000	0.001565	0.001621	28.0844	0.046926	0.001961	23.9265	-149.712	-165.174	0.142173	0.785752	-0.250220	-0.251471	0.074430	23.9265	-0.252553	-900.325	-8.267037E-5	NaN
1013	1.000000	0.795062	7.37496e+06	-50789.1	1055.82	-29754.5	0.000000	0.000000	6.795074	-0.043834	NaN	0.000000	0.001541	0.001615	28.084	0.081105	0.001899	42.7184	-56.4885	-164.866	-0.063331	0.793710	-0.242160	-0.243513	-0.043834	42.7184	-0.241391	-604.311	7.253543E-5	NaN
1013	1.000000	0.803038	7.37496e+06	-50789.1	1055.82	-29754.5	0.000000	0.000000	6.803053	0.019576	NaN	0.000000	0.001510	0.001636	28.0843	0.098456	0.002031	48.4817	-177.744	-167.964	0.009051	0.801706	-0.234184	-0.235516	0.019576	48.4817	-0.234487	-471.185	-4.154604E-5	NaN
1013	1.000000	0.811030	7.37496e+06	-50789.1	1055.82	-29754.5	0.000000	0.000000	6.811045	0.024460	NaN	0.000000	0.001557	0.001653	28.0841	0.018735	0.002006	9.337816	-152.316	-166.612	-0.054723	0.809716	-0.226192	-0.227506	0.024460	9.337816	-0.228157	-374.441	-6.532349E-5	NaN
1013	1.000000	0.819067	7.37496e+06	-50789.1	1055.82	-29754.5	0.000000	0.000000	6.819080	-0.021020	NaN	0.000000	0.001541	0.001619	28.0841	0.104767	0.002010	52.129	-45.1111	-162.964	-0.051173	0.817765	-0.218155	-0.219457	-0.021020	52.129	-0.217853	-256.634	8.190687E-5	NaN
1013	1.000000	0.827061	7.37496e+06	-50789.1	1055.82	-29754.5	0.000000	0.000000	6.827077	0.058965	NaN	0.000000	0.001590	0.001668	28.0843	0.097899	0.002028	48.2662	-177.822	-163.066	0.015071	0.825694	-0.210161	-0.211528	0.058965	48.2662	-0.211077	-199.641	-0.000295	NaN
1013	1.000000	0.835055	7.37496e+06	-50789.1	1055.82	-29754.5	0.000000	0.000000	6.835068	0.001074	NaN	0.000000	0.001619	0.001656	28.0842	0.104190	0.002082	50.0315	178.916	-166.395	0.021681	0.833763	-0.202168	-0.203459	0.001074	50.0315	-0.202184	-143.063	-7.508553E-6	NaN
1013	1.000000	0.843055	7.37496e+06	-50789.1	1055.82	-29754.5	0.000000	0.000000	6.843071	0.068588	NaN	0.000000	0.001642	0.001650	28.0845	0.083722	0.001927	43.4436	-105.781	-164.338	0.025823	0.841748	-0.194167	-0.195474	0.068588	43.4436	-0.195351	-110.413	-0.000621	NaN
1013	1.000000	0.851079	7.37496e+06	-50789.1	1055.82	-29754.5	0.000000	0.000000	6.851093	0.021507	NaN	0.000000	0.001591	0.001677	28.0842	0.166124	0.002122	78.2761	116.144	-164.223	0.019067	0.849731	-0.186143	-0.187492	0.021507	78.2761	-0.186349	-78.1354	-0.000275	NaN
1013	1.000000	0.859066	7.37496e+06	-50789.1	1055.82	-29754.5	0.000000	0.000000	6.859078	-0.019949	NaN	0.000000	0.001604	0.001720	28.0841	0.034190	0.002075	16.4794	-56.3473	-162.942	-0.049563	0.857763	-0.178157	-0.179459	-0.019949	16.4794	-0.177249	-54.769	0.000364	NaN
1013	1.000000	0.867064	7.37496e+06	-50789.1	1055.82	-29754.5	0.000000	0.000000	6.867078	0.013535	NaN	0.000000	0.001616	0.001705	28.0844	0.129581	0.001934	67.006	174.99	-164.425	-0.013144	0.865776	-0.170159	-0.171446	0.013535	67.006	-0.170310	-41.5911	-0.000325	NaN
1013	1.000000	0.875075	7.37496e+06	-50789.1	1055.82	-29754.5	0.000000	0.000000	6.875091	0.073213	NaN	0.000000	0.001631	0.001695	28.083	0.058674	0.001962	29.9076	22.9628	-164.616	0.032874	0.873840	-0.162148	-0.163382	0.073213	29.9076	-0.163984	-32.2432	-0.002271	NaN
1013	1.000000	0.883083	7.37496e+06	-50789.1	1055.82	-29754.5	0.000000	0.000000	6.883099	0.046405	NaN	0.000000	0.001662	0.001715	28.083	0.086148	0.002020	42.6499	-64.8486	-164.264	0.032162	0.881796	-0.154139	-0.155426	0.046405	42.6499	-0.154955	-22.2727	-0.002083	NaN
1013	1.000000	0.891057	7.37496e+06	-50789.1	1055.82	-29754.5	0.000000	0.000000	6.891070	-0.029717	NaN	0.000000	0.001637	0.001713	28.0828	0.029074	0.002028	14.3376	97.673	-164.645	0.070368	0.889785	-0.146165	-0.147438	-0.029717	14.3376	-0.144611	-14.4198	0.002061	NaN
1013	1.000000	0.899051	7.37496e+06	-50789.1	1055.82	-29754.5	0.000000	0.000000	6.899065	0.006241	NaN	0.000000	0.001581	0.001704	28.0833	0.060733	0.001962	30.9504	95.0141	-166.993	0.013266	0.897818	-0.138172	-0.139404	0.006241	30.9504	-0.138323	-10.9996	-0.000567	NaN
1013	1.000000	0.907128	7.37496e+06	-50789.1	1055.82	-29754.5	0.000000	0.000000	6.907143	0.032542	NaN	0.000000	0.001564	0.001727	28.0829	0.056436	0.002061	27.3797	-71.7361	-165.387	-0.033927	0.905749	-0.130095	-0.131474	0.032542	27.3797	-0.130986	-7.964003	-0.004086	NaN
1013	1.000000	0.915067	7.37496e+06	-50789.1	1055.82	-29754.5	0.000000	0.000000	6.915083	0.045935	NaN	0.000000	0.001569	0.001715	28.0829	0.094790	0.001894	50.0405	25.6486	-168.463	0.156412	0.913736	-0.122155	-0.123486	0.045935	50.0405	-0.122843	-5.509861	-0.008337	NaN
1013	1.000000	0.923094	7.37496e+06	-50789.1	1055.82	-29754.5	0.000000	0.000000	6.923111	0.062500	NaN	0.000000	0.001571	0.001720	28.0829	0.099340	0.002065	48.1021	-26.917	-166.069	0.044125	0.921746	-0.114128	-0.115476	0.062500	48.1021	-0.115102	-3.838965	-0.016280	NaN
1013	1.000000	0.931090	7.37496e+06	-50789.1	1055.82	-29754.5	0.000000	0.000000	6.931103	-0.017196	NaN	0.000000	0.001585	0.001687	28.0829	0.062097	0.002102	29.5414	-50.2703	-164.031	0.019306	0.929811	-0.106132	-0.107412	-0.017196	29.5414	-0.105695	-2.433146	0.007067	NaN
1013	1.000000	0.939109	7.37496e+06	-50789.1	1055.82	-29754.5	0.000000	0.000000	6.939124	0.038909	NaN	0.000000	0.001585	0.001704	28.0832	0.124546	0.002010	61.9752	158.124	-163.835	0.003801	0.937836	-0.098114	-0.099386	0.038909	61.9752	-0.098584	-1.699316	-0.022897	NaN
1013	1.000000	0.947109	7.37496e+06	-50789.1	1055.82	-29754.5	0.000000	0.000000	6.947120	-0.055976	NaN	0.000000	0.001602	0.001696	28.0827	0.065163	0.001963	33.1969	-21.7213	-164.855	-0.026536	0.945770	-0.090114	-0.091453	-0.055976	33.1969	-0.088849	-1.015594	0.055116	NaN
1013	1.000000	0.955126	7.37496e+06	-50789.1	1055.82	-29754.5	0.000000	0.000000	6.955141	0.031055	NaN	0.000000	0.001575	0.001704	28.0827	0.034886	0.001913	18.2408	61.8871	-167.561	0.003793	0.953863	-0.082096	-0.083359	0.031055	18.2408	-0.083373	-0.750048	-0.041405	NaN
1013	1.000000	0.963129	7.37496e+06	-50789.1	1055.82	-29754.5	0.000000	0.000000	6.963141	-0.032686	NaN	0.000000	0.001568	0.001687	28.0825	0.053539	0.001994	26.8563	-61.4856	-161.848	-0.052622	0.961806	-0.074093	-0.075417	-0.032686	26.8563	-0.073181	-0.414144	0.078924	NaN
1013	1.000000	0.971099	7.37496e+06	-50789.1	1055.82	-29754.5	0.000000	0.000000	6.971112	-0.008113	NaN	0.000000	0.001561	0.001681	28.0827	0.033554	0.002052	16.3529	11.7497	-163.091	-0.101141	0.969835	-0.066123	-0.067387	-0.008113	16.3529	-0.065751	-0.261434	0.031031	NaN
1013	1.000000	0.979134	7.37496e+06	-50789.1	1055.82	-29754.5	0.000000	0.000000	6.979147	-0.012750	NaN	0.000000	0.001535	0.001715	28.0828	0.017506	0.002065	8.475323	86.7267	-167.296	-0.002177	0.977775	-0.058088	-0.059447	-0.012750	8.475323	-0.056960	-0.147046	0.086706	NaN
1013	1.000000	0.987143	7.37496e+06	-50789.1	1055.82	-29754.5	0.000000	0.000000	6.987155	-0.033353	NaN	0.000000	0.001596	0.001703	28.0827	0.138486	0.001858	74.5202	137.686	-168.695	-0.060643	0.985839	-0.050079	-0.051383	-0.033353	74.5202	-0.049743	-0.089634	0.372098	NaN
1013	1.000000	0.995134	7.37496e+06	-50789.1	1055.82	-29754.5	0.000000	0.000000	6.995145	-0.050120	NaN	0.000000	0.001555	0.001693	28.0831	0.087485	0.001944	45.0098	-169.14	-167.372	-0.034126	0.993797	-0.042089	-0.043426	-0.050120	45.0098	-0.041253	-0.049373	1.015129	NaN
1013	1.000000	1.003123	7.37496e+06	-50789.1	1055.82	-29754.5	0.000000	0.000000	7.003137	0.004954	NaN	0.000000	0.001561	0.001688	28.0827	0.107197	0.002046	52.4048	-137.914	-163.438	-0.068637	1.001824	-0.034099	-0.035398	0.004954	52.4048	-0.034170	-0.030278	-0.163601	NaN
1013	1.000000	1.011100	7.37496e+06	-50789.1	1055.82	-29754.5	0.000000	0.000000	7.011115	0.025858	NaN	0.000000	0.001590	0.001735	28.0844	0.152734	0.001863	81.9725	-148.056	-165.972	-0.001257	1.009854	-0.026122	-0.027369	0.025858	81.9725	-0.026359	-0.018319	-1.411512	NaN
1013	1.000000	1.019129	7.37496e+06	-50789.1	1055.82	-29754.5	0.000000	0.000000	7.019140	-0.077131	NaN	0.000000	0.001595	0.001691	28.0844	0.080310	0.001939	41.4235	90.3001	-164.879	0.004062	1.017795	-0.018093	-0.019427	-0.077131	41.4235	-0.016697	-0.010318	7.475594	NaN
1013	1.000000	1.027140	7.37496e+06	-50789.1	1055.82	-29754.5	0.000000	0.000000	7.027157	0.080167	NaN	0.000000	0.001584	0.001676	28.0843	0.071400	0.002134	33.4595	-22.5874	-164.243	0.018156	1.025828	-0.010082	-0.011395	0.080167	33.4595	-0.011879	-0.007459	-10.747	NaN
1013	1.000000	1.035131	7.37496e+06	-50789.1	1055.82	-29754.5	0.000000	0.000000	7.035164	0.470672	NaN	0.000000	0.001561	0.001690	28.0847	0.865889	0.002026	427.34	20.207	-165.815	0.047217	1.033812	-0.002091	-0.003411	0.470672	427.34	-0.002917	-0.002065	-227.928	NaN
1013	2.000000	1.042630	7.37496e+06	-50789.1	1055.82	-29754.5	0.000000	0.000000	7.042988	8.372907	NaN	0.000000	0.001516	0.001655	28.0844	8.161851	0.001600	5099.72	9.436575	-172.842	7.620180	1.041797	0.005408	0.004575	8.372907	5099.72	0.004176	0.003394	2466.88	79975.1
1013	2.000000	1.044799	7.37496e+06	-50789.1	1055.82	-29754.5	0.000000	0.000000	7.045261	10.9057	NaN	0.000000	0.001507	0.001681	28.0845	10.3603	0.001611	6432.02	9.648366	-175.371	10.3873	1.044426	0.007576	0.007204	10.9057	6432.02	0.006305	0.005356	2036.26	80299.1
1013	2.000000	1.046742	7.37496e+06	-50789.1	1055.82	-29754.5	0.000000	0.000000	7.047332	14.0108	NaN	0.000000	0.001524	0.001654	28.0844	12.6981	0.001805	7034.22	6.029196	-172.912	12.4488	1.046383	0.009520	0.009161	14.0108	7034.22	0.008026	0.007069	1981.96	76437.3
1013	2.000000	1.048784	7.37496e+06	-50789.1	1055.82	-29754.5	0.000000	0.000000	7.049495	16.9523	NaN	0.000000	0.001526	0.001666	28.0842	14.994	0.001841	8142.61	7.732835	-173.278	16.7076	1.048357	0.011562	0.011135	16.9523	8142.61	0.010000	0.009182	1846.27	77637.3
1013	2.000000	1.050715	7.37496e+06	-50789.1	1055.82	-29754.5	0.000000	0.000000	7.051566	20.3675	NaN	0.000000	0.001531	0.001687	28.0844	16.8922	0.001700	9939.21	4.783782	-173.576	19.6505	1.050377	0.013493	0.013155	20.3675	9939.21	0.011956	0.011438	1780.75	84910
1013	2.000000	1.052700	7.37496e+06	-50789.1	1055.82	-29754.5	0.000000	0.000000	7.053757	25.3693	NaN	0.000000	0.001548	0.001645	28.0843	20.0664	0.001875	10700	6.045942	-176.249	24.5524	1.052423	0.015477	0.015201	25.3693	10700	0.013699	0.013590	1866.81	83859.4
1013	2.000000	1.054706	7.37496e+06	-50789.1	1055.82	-29754.5	0.000000	0.000000	7.055987	30.8077	NaN	0.000000	0.001567	0.001668	28.0846	20.815	0.001736	11992.1	1.504092	-171.931	30.1129	1.054431	0.017484	0.017208	30.8077	11992.1	0.015557	0.016036	1921.19	86521.6
1013	2.000000	1.056699	7.37496e+06	-50789.1	1055.82	-29754.5	0.000000	0.000000	7.058134	34.5705	NaN	0.000000	0.001515	0.001702	28.0844	24.383	0.001738	14026.7	6.365404	-179.691	32.8837	1.056339	0.019477	0.019116	34.5705	14026.7	0.017628	0.018952	1824.13	93090.1
1013	2.000000	1.058737	7.37496e+06	-50789.1	1055.82	-29754.5	0.000000	0.000000	7.060361	39.1687	NaN	0.000000	0.001562	0.001667	28.0843	26.8485	0.001720	15611.9	6.307167	179.685	37.9085	1.058395	0.021514	0.021172	39.1687	15611.9	0.019633	0.021969	1782.94	96234
1013	2.000000	1.060694	7.37496e+06	-50789.1	1055.82	-29754.5	0.000000	0.000000	7.062534	44.4294	NaN	0.000000	0.001504	0.001669	28.0843	28.8707	0.001798	16053	6.944693	179.975	44.2169	1.060423	0.023471	0.023201	44.4294	16053	0.021396	0.024783	1792.74	93164.9
1013	2.000000	1.062647	7.37496e+06	-50789.1	1055.82	-29754.5	0.000000	0.000000	7.064681	49.1172	NaN	0.000000	0.001592	0.001684	28.0845	30.3284	0.001818	16682.1	3.959287	-178.387	47.0498	1.062353	0.025425	0.025130	49.1172	16682.1	0.023217	0.027851	1763.56	91327.8
1013	2.000000	1.064652	7.37496e+06	-50789.1	1055.82	-29754.5	0.000000	0.000000	7.066972	56.0977	NaN	0.000000	0.001592	0.001677	28.0845	32.2895	0.001851	17440.1	8.613769	175.823	55.2902	1.064417	0.027430	0.027195	56.0977	17440.1	0.025017	0.031047	1806.86	90430
1013	2.000000	1.066735	7.37496e+06	-50789.1	1055.82	-29754.5	0.000000	0.000000	7.069238	60.5557	NaN	0.000000	0.001591	0.001660	28.0845	34.7261	0.001947	17838.5	8.251111	177.273	61.921	1.066354	0.029512	0.029132	60.5557	17838.5	0.026966	0.034690	1745.61	87503.9
1013	2.000000	1.068667	7.37496e+06	-50789.1	1055.82	-29754.5	0.000000	0.000000	7.071511	68.8119	NaN	0.000000	0.001612	0.001639	28.0833	35.485	0.001753	20244.3	7.210961	177.364	68.5735	1.068357	0.031445	0.031134	68.8119	20244.3	0.028896	0.038486	1787.97	94281.3
1013	2.000000	1.070664	7.37496e+06	-50789.1	1055.82	-29754.5	0.000000	0.000000	7.073810	76.1674	NaN	0.000000	0.001583	0.001637	28.0832	37.1629	0.001792	20743.8	8.829388	174.062	74.9782	1.070314	0.033442	0.033092	76.1674	20743.8	0.030688	0.042182	1805.7	92278.4
1013	2.000000	1.072713	7.37496e+06	-50789.1	1055.82	-29754.5	0.000000	0.000000	7.076000	79.6055	NaN	0.000000	0.001572	0.001644	28.0831	39.7122	0.001709	23236.7	5.033757	176.366	79.1178	1.072367	0.035490	0.035145	79.6055	23236.7	0.032921	0.047016	1693.17	97910
1013	2.000000	1.074645	7.37496e+06	-50789.1	1055.82	-29754.5	0.000000	0.000000	7.078331	89.2865	NaN	0.000000	0.001577	0.001677	28.0834	40.6454	0.001815	22399.7	4.968205	178.216	88.1358	1.074273	0.037423	0.037051	89.2865	22399.7	0.034434	0.050435	1770.32	91127.4
1013	2.000000	1.076672	7.37496e+06	-50789.1	1055.82	-29754.5	0.000000	0.000000	7.080544	93.8158	NaN	0.000000	0.001551	0.001654	28.0832	43.6416	0.001838	23738.5	7.224133	175.619	93.0161	1.076244	0.039450	0.039022	93.8158	23738.5	0.036486	0.055262	1697.66	92260.2
1013	2.000000	1.078720	7.37496e+06	-50789.1	1055.82	-29754.5	0.000000	0.000000	7.083021	104.259	NaN	0.000000	0.001535	0.001665	28.0832	44.6266	0.001697	26291.1	6.740227	175.463	105.211	1.078281	0.041498	0.041058	104.259	26291.1	0.038524	0.060269	1729.91	97844.3
1013	2.000000	1.080655	7.37496e+06	-50789.1	1055.82	-29754.5	0.000000	0.000000	7.085036	106.221	NaN	0.000000	0.001513	0.001651	28.083	47.0641	0.001723	27314.8	5.996748	174.991	107.314	1.080349	0.043433	0.043127	106.221	27314.8	0.040516	0.065368	1624.96	97608.3
1013	2.000000	1.082681	7.37496e+06	-50789.1	1055.82	-29754.5	0.000000	0.000000	7.087521	117.348	NaN	0.000000	0.001572	0.001621	28.083	49.2361	0.001742	28260.4	6.749742	174.321	118.426	1.082383	0.045459	0.045160	117.348	28260.4	0.042345	0.070229	1670.94	97430.3
1013	2.000000	1.084653	7.37496e+06	-50789.1	1055.82	-29754.5	0.000000	0.000000	7.090073	131.476	NaN	0.000000	0.001532	0.001652	28.0831	50.5099	0.001774	28478.7	7.747581	173.657	129.836	1.084211	0.047430	0.046988	131.476	28478.7	0.043968	0.074684	1760.43	95209.2
1013	2.000000	1.086600	7.37496e+06	-50789.1	1055.82	-29754.5	0.000000	0.000000	7.092218	136.282	NaN	0.000000	0.001529	0.001648	28.0832	52.4794	0.001803	29106.5	3.682718	177.165	134.308	1.086320	0.049378	0.049097	136.282	29106.5	0.045866	0.080065	1702.13	93981.2
1013	2.000000	1.088602	7.37496e+06	-50789.1	1055.82	-29754.5	0.000000	0.000000	7.094714	148.291	NaN	0.000000	0.001548	0.001694	28.0834	55.7328	0.001822	30591.3	7.832286	172.825	145.164	1.088305	0.051380	0.051083	148.291	30591.3	0.047744	0.085568	1733.02	95546.8
1013	2.000000	1.090592	7.37496e+06	-50789.1	1055.82	-29754.5	0.000000	0.000000	7.097077	157.375	NaN	0.000000	0.001521	0.001654	28.0831	56.9499	0.001856	30684.6	9.101656	171.104	156.399	1.090310	0.053369	0.053088	157.375	30684.6	0.049523	0.090944	1730.46	92962.3
1013	2.000000	1.092644	7.37496e+06	-50789.1	1055.82	-29754.5	0.000000	0.000000	7.099330	162.277	NaN	0.000000	0.001541	0.001627	28.0832	58.7119	0.001776	33064.2	2.400561	176.579	162.327	1.092406	0.055421	0.055183	162.277	33064.2	0.051740	0.097869	1658.11	96562.6
1013	2.000000	1.094671	7.37496e+06	-50789.1	1055.82	-29754.5	0.000000	0.000000	7.101868	174.67	NaN	0.000000	0.001553	0.001626	28.0832	59.6089	0.001724	34585.4	6.021744	172.838	175.082	1.094262	0.057449	0.057040	174.67	34585.4	0.053661	0.104065	1678.47	97952.1
1013	2.000000	1.096616	7.37496e+06	-50789.1	1055.82	-29754.5	0.000000	0.000000	7.104218	184.53	NaN	0.000000	0.001571	0.001659	28.083	61.6206	0.001782	34579.1	1.630980	177.682	182.861	1.096312	0.059394	0.059090	184.53	34579.1	0.055392	0.109804	1680.55	95340.7
1013	2.000000	1.098586	7.37496e+06	-50789.1	1055.82	-29754.5	0.000000	0.000000	7.106882	201.409	NaN	0.000000	0.001572	0.001639	28.0832	63.6144	0.001816	35027.1	5.268119	175.066	196.831	1.098331	0.061364	0.061108	201.409	35027.1	0.057051	0.115447	1744.61	94186.2
1013	2.000000	1.100602	7.37496e+06	-50789.1	1055.82	-29754.5	0.000000	0.000000	7.109377	213.047	NaN	0.000000	0.001539	0.001652	28.083	65.0662	0.001766	36850.5	6.256598	172.916	210.472	1.100236	0.063380	0.063014	213.047	36850.5	0.059044	0.122403	1740.54	96232.4
1013	2.000000	1.102557	7.37496e+06	-50789.1	1055.82	-29754.5	0.000000	0.000000	7.111650	220.777	NaN	0.000000	0.001536	0.001622	28.0844	67.9286	0.001694	40109.2	5.286561	173.254	217.588	1.102295	0.065335	0.065073	220.777	40109.2	0.061207	0.130171	1696.05	101569
1013	2.000000	1.104619	7.37496e+06	-50789.1	1055.82	-29754.5	0.000000	0.000000	7.114241	233.646	NaN	0.000000	0.001512	0.001638	28.0846	68.9398	0.001713	40233.8	7.657238	170.221	234.162	1.104304	0.067397	0.067082	233.646	40233.8	0.063041	0.136939	1706.2	99334.4
1013	2.000000	1.106610	7.37496e+06	-50789.1	1055.82	-29754.5	0.000000	0.000000	7.116648	243.767	NaN	0.000000	0.001519	0.001634	28.0845	71.9644	0.001731	41583.4	4.251098	173.415	241.179	1.106306	0.069388	0.069084	243.767	41583.4	0.064991	0.144312	1689.16	100010
1013	2.000000	1.108665	7.37496e+06	-50789.1	1055.82	-29754.5	0.000000	0.000000	7.119357	259.679	NaN	0.000000	0.001529	0.001617	28.0846	74.8945	0.001743	42967.5	5.133426	172.504	258.89	1.108275	0.071443	0.071053	259.679	42967.5	0.066910	0.151746	1711.28	100776
1013	2.000000	1.110633	7.37496e+06	-50789.1	1055.82	-29754.5	0.000000	0.000000	7.121634	267.2	NaN	0.000000	0.001555	0.001646	28.0845	76.391	0.001741	43877.3	5.585964	171.515	268.039	1.110381	0.073410	0.073158	267.2	43877.3	0.068843	0.159414	1676.14	100404
1013	2.000000	1.112671	7.37496e+06	-50789.1	1055.82	-29754.5	0.000000	0.000000	7.124313	282.785	NaN	0.000000	0.001568	0.001672	28.0843	79.4087	0.001855	42811.7	3.907173	173.585	283.146	1.112281	0.075449	0.075059	282.785	42811.7	0.070495	0.166106	1702.43	95971.7
1013	2.000000	1.114565	7.37496e+06	-50789.1	1055.82	-29754.5	0.000000	0.000000	7.126802	297.227	NaN	0.000000	0.001567	0.001644	28.0842	81.0653	0.001834	44196.8	7.532675	169.611	294.634	1.114209	0.077343	0.076987	297.227	44196.8	0.072299	0.173566	1712.47	96924
1013	2.000000	1.116558	7.37496e+06	-50789.1	1055.82	-29754.5	0.000000	0.000000	7.129245	308.176	NaN	0.000000	0.001541	0.001641	28.0845	82.5856	0.001829	45142.6	3.092459	173.361	303.979	1.116230	0.079336	0.079008	308.176	45142.6	0.074216	0.181658	1696.46	96768.1
1013	2.000000	1.118538	7.37496e+06	-50789.1	1055.82	-29754.5	0.000000	0.000000	7.132298	334.291	NaN	0.000000	0.001531	0.001689	28.0842	83.6867	0.001781	46998	4.616851	173.082	328.918	1.118163	0.081316	0.080941	334.291	46998	0.075981	0.189265	1766.26	98700.1
1013	2.000000	1.120518	7.37496e+06	-50789.1	1055.82	-29754.5	0.000000	0.000000	7.134595	341.982	NaN	0.000000	0.001545	0.001689	28.0842	85.0034	0.001784	47639.9	3.570529	173.205	335.87	1.120171	0.083296	0.082949	341.982	47639.9	0.077912	0.197755	1729.32	97877
1013	2.000000	1.122540	7.37496e+06	-50789.1	1055.82	-29754.5	0.000000	0.000000	7.137250	357.379	NaN	0.000000	0.001528	0.001654	28.0843	87.77	0.001783	49234.1	6.724951	169.42	353.725	1.122407	0.085317	0.085185	357.379	49234.1	0.079873	0.206554	1730.2	98974.3
1013	2.000000	1.124538	7.37496e+06	-50789.1	1055.82	-29754.5	0.000000	0.000000	7.140252	381.803	NaN	0.000000	0.001525	0.001644	28.0843	87.1159	0.001772	49158.1	1.204641	175.184	377.818	1.124108	0.087316	0.086886	381.803	49158.1	0.081491	0.213945	1784.58	97099.5
1013	2.000000	1.126541	7.37496e+06	-50789.1	1055.82	-29754.5	0.000000	0.000000	7.143031	400.658	NaN	0.000000	0.001537	0.001630	28.0845	90.9537	0.001594	57046.6	5.200827	170.584	397.262	1.126153	0.089319	0.088931	400.658	57046.6	0.084051	0.225897	1773.63	109660
1013	2.000000	1.128580	7.37496e+06	-50789.1	1055.82	-29754.5	0.000000	0.000000	7.145528	411.801	NaN	0.000000	0.001558	0.001646	28.0844	95.0558	0.001954	48658.3	7.231857	169.641	406.773	1.128179	0.091358	0.090957	411.801	48658.3	0.085010	0.230450	1786.94	92606.5
1013	2.000000	1.130586	7.37496e+06	-50789.1	1055.82	-29754.5	0.000000	0.000000	7.148251	429.236	NaN	0.000000	0.001523	0.001682	28.0844	96.2885	0.001791	53759.1	4.809773	171.443	429.364	1.130225	0.093363	0.093003	429.236	53759.1	0.087375	0.241862	1774.71	99871.5
1013	2.000000	1.132639	7.37496e+06	-50789.1	1055.82	-29754.5	0.000000	0.000000	7.150934	444.553	NaN	0.000000	0.001556	0.001688	28.0842	99.8748	0.001843	54176.9	5.492321	170.02	445.991	1.132270	0.095417	0.095047	444.553	54176.9	0.089263	0.251155	1770.03	98768.1
1013	2.000000	1.134569	7.37496e+06	-50789.1	1055.82	-29754.5	0.000000	0.000000	7.153789	467.039	NaN	0.000000	0.001565	0.001668	28.0845	100.341	0.001752	57284.9	6.880757	168.19	465.23	1.134380	0.097347	0.097158	467.039	57284.9	0.091232	0.261026	1789.24	102440
1013	2.000000	1.136461	7.37496e+06	-50789.1	1055.82	-29754.5	0.000000	0.000000	7.156448	485.698	NaN	0.000000	0.001537	0.001655	28.0832	101.889	0.001785	57082.3	4.138058	171.338	477.679	1.136169	0.099239	0.098947	485.698	57082.3	0.092857	0.269304	1803.53	100497
1013	2.000000	1.138536	7.37496e+06	-50789.1	1055.82	-29754.5	0.000000	0.000000	7.159419	507.504	NaN	0.000000	0.001543	0.001696	28.0832	104.723	0.001797	58265.4	6.520608	168.788	501.905	1.138177	0.101313	0.100955	507.504	58265.4	0.094781	0.279258	1817.33	100735
1013	2.000000	1.140517	7.37496e+06	-50789.1	1055.82	-29754.5	0.000000	0.000000	7.161917	520.047	NaN	0.000000	0.001541	0.001675	28.0832	105.643	0.001718	61506	6.853221	167.16	516.489	1.140289	0.103295	0.103066	520.047	61506	0.096954	0.290707	1788.91	104223
1013	2.000000	1.140945	7.37496e+06	-50789.1	1055.82	-29754.5	0.000000	0.000000	7.162762	530.203	NaN	0.000000	0.001558	0.001672	28.0832	105.481	0.001838	57382.2	5.075459	-9.446593	522.222	1.140593	0.103723	0.103371	530.203	57382.2	0.096793	0.289853	1829.21	97378.1