File: remote_trans/data/nanoindenter/0828-1/data/Data_2025-08-06,11h17m57s/2025-07-22_16-23-58_1_373.txt
2025-07-22, 16:23:58, 1
Index	Phase	Displacement	Time	Pos X	Pos Y	Pos Z	Rot A	Rot B	Piezo Z	Force A	Force B	Gripper	Voltage A	Voltage B	Temperature	Amplitude force	Amplitude pos	Stiffness	Phase shift	Phase excitation	Force A raw	Displacement raw	HMax	HMax raw	Real Force	Real Stiffness	Contact Depth	Area	Hardness	Reduced Mod.
[#]	[#]	[um]	[s]	[um]	[um]	[um]	[m°]	[m°]	[um]	[uN]	[uN]	[V]	[V]	[V]	[°C]	[uN]	[um]	[N/m]	[°]	[°]	[uN]	[um]	[um]	[um]	[uN]	[N/m]	[um]	[um^2]	[MPa]	[MPa]
373	1.000000	0.002356	7.36871e+06	-57289.1	955.819	-29737.5	0.000000	0.000000	6.002807	0.060799	NaN	0.000000	0.001578	0.001711	28.0806	0.056579	0.001030	54.9187	-162.871	-162.078	0.047318	0.001070	-1.020190	-1.021477	0.060799	54.9187	-1.021021	-4.351965E+13	-1.397055E-15	NaN
373	1.000000	0.010347	7.36871e+06	-57289.1	955.818	-29737.5	0.000000	0.000000	6.010794	-0.026852	NaN	0.000000	0.001580	0.001708	28.0808	0.064144	0.001075	59.6728	82.7953	-172.066	0.025477	0.008990	-1.012200	-1.013557	-0.026852	59.6728	-1.011862	-3.276778E+13	8.194733E-16	NaN
373	1.000000	0.018327	7.36871e+06	-57289.1	955.819	-29737.5	0.000000	0.000000	6.018776	0.004368	NaN	0.000000	0.001543	0.001722	28.0808	0.092231	0.001741	52.9805	12.4589	-167.846	0.019019	0.017011	-1.004220	-1.005535	0.004368	52.9805	-1.004281	-2.590650E+13	-1.686066E-16	NaN
373	1.000000	0.026344	7.36871e+06	-57289.1	955.819	-29737.5	0.000000	0.000000	6.026792	-0.007391	NaN	0.000000	0.001572	0.001706	28.0809	0.041742	0.001702	24.5271	-167.635	-165.143	0.034215	0.025062	-0.996203	-0.997485	-0.007391	24.5271	-0.995977	-2.002614E+13	3.690808E-16	NaN
373	1.000000	0.034295	7.36871e+06	-57289.1	955.82	-29737.5	0.000000	0.000000	6.034745	0.048928	NaN	0.000000	0.001603	0.001687	28.0809	0.064378	0.001806	35.6491	88.9356	-163.92	0.102777	0.032998	-0.988252	-0.989549	0.048928	35.6491	-0.989281	-1.627163E+13	-3.006927E-15	NaN
373	1.000000	0.042289	7.36871e+06	-57289.1	955.818	-29737.5	0.000000	0.000000	6.042737	-0.007065	NaN	0.000000	0.001575	0.001682	28.0799	0.066810	0.002131	31.3497	97.107	-166.801	0.065263	0.040932	-0.980258	-0.981615	-0.007065	31.3497	-0.980089	-1.223503E+13	5.774229E-16	NaN
373	1.000000	0.050314	7.36871e+06	-57289.1	955.819	-29737.5	0.000000	0.000000	6.050765	0.060269	NaN	0.000000	0.001581	0.001694	28.0794	0.068602	0.001987	34.5192	-99.3933	-165.069	-0.042285	0.049033	-0.972233	-0.973514	0.060269	34.5192	-0.973542	-9.986095E+12	-6.035300E-15	NaN
373	1.000000	0.058284	7.36871e+06	-57289.1	955.817	-29737.5	0.000000	0.000000	6.058736	0.093283	NaN	0.000000	0.001591	0.001702	28.0796	0.044151	0.002029	21.7576	-54.0431	-163.924	0.028568	0.056986	-0.964263	-0.965561	0.093283	21.7576	-0.967478	-8.273284E+12	-1.127516E-14	NaN
373	1.000000	0.066331	7.36871e+06	-57289.1	955.819	-29737.5	0.000000	0.000000	6.066780	0.012218	NaN	0.000000	0.001613	0.001708	28.0793	0.056218	0.001990	28.2451	2.851840	-166.029	0.045416	0.065005	-0.956216	-0.957542	0.012218	28.2451	-0.956540	-5.891416E+12	-2.073922E-15	NaN
373	1.000000	0.074298	7.36871e+06	-57289.1	955.818	-29737.5	0.000000	0.000000	6.074749	0.056833	NaN	0.000000	0.001630	0.001714	28.0794	0.045965	0.001987	23.1316	32.9191	-164.024	0.081524	0.072939	-0.948249	-0.949608	0.056833	23.1316	-0.950091	-4.822370E+12	-1.178520E-14	NaN
373	1.000000	0.082304	7.36871e+06	-57289.1	955.818	-29737.5	0.000000	0.000000	6.082756	0.067449	NaN	0.000000	0.001574	0.001720	28.0795	0.054631	0.002119	25.784	-50.5948	-165.31	0.030702	0.081027	-0.940242	-0.941520	0.067449	25.784	-0.942204	-3.774620E+12	-1.786897E-14	NaN
373	1.000000	0.090320	7.36871e+06	-57289.1	955.819	-29737.5	0.000000	0.000000	6.090770	0.043111	NaN	0.000000	0.001627	0.001678	28.0794	0.091056	0.001932	47.1205	-116.98	-166.394	-0.023115	0.089010	-0.932227	-0.933537	0.043111	47.1205	-0.932913	-2.828198E+12	-1.524321E-14	NaN
373	1.000000	0.098346	7.36871e+06	-57289.1	955.819	-29737.5	0.000000	0.000000	6.098796	0.048803	NaN	0.000000	0.001596	0.001681	28.0795	0.057505	0.001992	28.8682	140.297	-167.611	0.033861	0.097017	-0.924201	-0.925529	0.048803	28.8682	-0.925469	-2.244059E+12	-2.174779E-14	NaN
373	1.000000	0.106315	7.36871e+06	-57289.1	955.819	-29737.5	0.000000	0.000000	6.106763	-0.005674	NaN	0.000000	0.001707	0.001626	28.0794	0.095658	0.002080	46.0004	-89.1792	-167.466	0.028651	0.105041	-0.916232	-0.917505	-0.005674	46.0004	-0.916139	-1.679092E+12	3.379184E-15	NaN
373	1.000000	0.114305	7.36871e+06	-57289.1	955.818	-29737.5	0.000000	0.000000	6.114753	-0.011607	NaN	0.000000	0.001680	0.001626	28.0793	0.066908	0.001940	34.4914	-168.957	-164.866	-0.001747	0.113016	-0.908242	-0.909531	-0.011607	34.4914	-0.907989	-1.303172E+12	8.906659E-15	NaN
373	1.000000	0.122336	7.36871e+06	-57289.1	955.819	-29737.5	0.000000	0.000000	6.122785	-0.002895	NaN	0.000000	0.001607	0.001629	28.0794	0.063242	0.001939	32.622	76.3076	-166.602	0.011717	0.120998	-0.900210	-0.901548	-0.002895	32.622	-0.900144	-1.020961E+12	2.835525E-15	NaN
373	1.000000	0.130324	7.36871e+06	-57289.1	955.819	-29737.5	0.000000	0.000000	6.130773	-0.003685	NaN	0.000000	0.001578	0.001597	28.0796	0.031325	0.002082	15.0463	-120.86	-166.246	0.007699	0.129051	-0.892222	-0.893496	-0.003685	15.0463	-0.892039	-7.933660E+11	4.644811E-15	NaN
373	1.000000	0.138349	7.36871e+06	-57289.1	955.818	-29737.5	0.000000	0.000000	6.138801	0.073741	NaN	0.000000	0.001599	0.001610	28.0797	0.105193	0.001857	56.6429	-59.6777	-165.393	0.030460	0.137024	-0.884197	-0.885523	0.073741	56.6429	-0.885174	-6.407182E+11	-1.150911E-13	NaN
373	1.000000	0.146357	7.36871e+06	-57289.1	955.817	-29737.5	0.000000	0.000000	6.146807	0.039664	NaN	0.000000	0.001584	0.001607	28.0793	0.081208	0.001956	41.5089	85.5183	-168.486	0.001699	0.145030	-0.876190	-0.877516	0.039664	41.5089	-0.876906	-4.953021E+11	-8.007954E-14	NaN
373	1.000000	0.154343	7.36871e+06	-57289.1	955.819	-29737.5	0.000000	0.000000	6.154790	-0.034008	NaN	0.000000	0.001592	0.001612	28.0795	0.053854	0.002063	26.1076	-109.027	-166.671	0.028351	0.153016	-0.868204	-0.869531	-0.034008	26.1076	-0.867227	-3.663725E+11	9.282264E-14	NaN
373	1.000000	0.162356	7.36871e+06	-57289.1	955.819	-29737.5	0.000000	0.000000	6.162804	-0.007700	NaN	0.000000	0.001621	0.001637	28.0794	0.049349	0.001943	25.396	166.336	-168.798	0.015530	0.161083	-0.860191	-0.861464	-0.007700	25.396	-0.859964	-2.921658E+11	2.635487E-14	NaN
373	1.000000	0.170346	7.36871e+06	-57289.1	955.819	-29737.5	0.000000	0.000000	6.170794	-0.009492	NaN	0.000000	0.001613	0.001668	28.0797	0.080351	0.001971	40.7614	-129.333	-165.907	0.071405	0.169058	-0.852201	-0.853488	-0.009492	40.7614	-0.852026	-2.281275E+11	4.160898E-14	NaN
373	1.000000	0.178332	7.36871e+06	-57289.1	955.818	-29737.5	0.000000	0.000000	6.178783	0.047341	NaN	0.000000	0.001620	0.001678	28.0807	0.111703	0.002023	55.2129	-171.45	-166.008	0.123018	0.177074	-0.844214	-0.845473	0.047341	55.2129	-0.844857	-1.824280E+11	-2.595058E-13	NaN
373	1.000000	0.186371	7.36871e+06	-57289.1	955.819	-29737.5	0.000000	0.000000	6.186820	-0.009802	NaN	0.000000	0.001609	0.001666	28.081	0.107400	0.001830	58.6818	124.268	-169.111	-0.033384	0.185026	-0.836175	-0.837521	-0.009802	58.6818	-0.836050	-1.386032E+11	7.071880E-14	NaN
373	1.000000	0.194338	7.36871e+06	-57289.1	955.818	-29737.5	0.000000	0.000000	6.194787	0.023399	NaN	0.000000	0.001625	0.001669	28.0814	0.116775	0.001896	61.5797	116.644	-165.278	0.100405	0.193041	-0.828209	-0.829506	0.023399	61.5797	-0.828494	-1.094884E+11	-2.137127E-13	NaN
373	1.000000	0.202366	7.36871e+06	-57289.1	955.819	-29737.5	0.000000	0.000000	6.202814	-0.006847	NaN	0.000000	0.001625	0.001684	28.0808	0.105250	0.002045	51.4598	-60.2518	-164.67	0.081615	0.200990	-0.820181	-0.821557	-0.006847	51.4598	-0.820081	-8.419907E+10	8.131720E-14	NaN
373	1.000000	0.210392	7.36871e+06	-57289.1	955.817	-29737.5	0.000000	0.000000	6.210838	-0.064222	NaN	0.000000	0.001640	0.001667	28.081	0.106223	0.002177	48.7968	173.585	-166.141	0.019487	0.209073	-0.812155	-0.813474	-0.064222	48.7968	-0.811168	-6.374003E+10	1.007567E-12	NaN
373	1.000000	0.218370	7.36871e+06	-57289.1	955.819	-29737.5	0.000000	0.000000	6.218817	-0.046778	NaN	0.000000	0.001632	0.001672	28.0809	0.018457	0.001963	9.401978	46.3536	-165.899	-0.012515	0.217038	-0.804177	-0.805509	-0.046778	9.401978	-0.800445	-4.559374E+10	1.025966E-12	NaN
373	1.000000	0.226380	7.36871e+06	-57289.1	955.819	-29737.5	0.000000	0.000000	6.226830	0.039863	NaN	0.000000	0.001585	0.001680	28.0811	0.030689	0.001978	15.5169	-68.5145	-164.755	0.015943	0.225076	-0.796167	-0.797470	0.039863	15.5169	-0.798093	-4.236245E+10	-9.409872E-13	NaN
373	1.000000	0.234403	7.36871e+06	-57289.1	955.819	-29737.5	0.000000	0.000000	6.234850	-0.045342	NaN	0.000000	0.001642	0.001685	28.0812	0.090348	0.001962	46.0381	176.962	-167.856	-0.106515	0.233103	-0.788144	-0.789444	-0.045342	46.0381	-0.787405	-3.032753E+10	1.495082E-12	NaN
373	1.000000	0.242376	7.36871e+06	-57289.1	955.818	-29737.5	0.000000	0.000000	6.242826	0.034119	NaN	0.000000	0.001593	0.001659	28.081	0.025618	0.002061	12.4325	73.5024	-168.144	-0.010618	0.241109	-0.780171	-0.781437	0.034119	12.4325	-0.782229	-2.579421E+10	-1.322747E-12	NaN
373	1.000000	0.250403	7.36871e+06	-57289.1	955.819	-29737.5	0.000000	0.000000	6.250853	0.051270	NaN	0.000000	0.001620	0.001678	28.0809	0.167684	0.002070	81.0143	103.578	-166.504	-0.019109	0.249099	-0.772144	-0.773447	0.051270	81.0143	-0.772618	-1.909431E+10	-2.685078E-12	NaN
373	1.000000	0.258423	7.36871e+06	-57289.1	955.819	-29737.5	0.000000	0.000000	6.258872	0.012194	NaN	0.000000	0.001609	0.001645	28.0808	0.032819	0.002118	15.4926	-120.906	-166.488	0.029753	0.257156	-0.764124	-0.765391	0.012194	15.4926	-0.764714	-1.490814E+10	-8.179728E-13	NaN
373	1.000000	0.266346	7.36871e+06	-57289.1	955.819	-29737.5	0.000000	0.000000	6.266796	0.041609	NaN	0.000000	0.001609	0.001640	28.081	0.052501	0.001845	28.463	140.359	-167.715	0.047398	0.265061	-0.756201	-0.757486	0.041609	28.463	-0.757297	-1.181759E+10	-3.520937E-12	NaN
373	1.000000	0.274383	7.36871e+06	-57289.1	955.819	-29737.5	0.000000	0.000000	6.274830	-0.026033	NaN	0.000000	0.001629	0.001644	28.0812	0.065605	0.001875	34.9887	-94.0261	-164.522	-0.020748	0.273098	-0.748164	-0.749448	-0.026033	34.9887	-0.747606	-8.722191E+9	2.984688E-12	NaN
373	1.000000	0.282411	7.36871e+06	-57289.1	955.818	-29737.5	0.000000	0.000000	6.282860	0.008645	NaN	0.000000	0.001600	0.001648	28.081	0.041896	0.001951	21.4793	81.2672	-166.011	-0.008671	0.281060	-0.740136	-0.741487	0.008645	21.4793	-0.740438	-6.966576E+9	-1.240946E-12	NaN
373	1.000000	0.290411	7.36871e+06	-57289.1	955.818	-29737.5	0.000000	0.000000	6.290859	-0.012701	NaN	0.000000	0.001607	0.001651	28.0811	0.046483	0.002030	22.9001	-56.1069	-167.126	0.132530	0.289061	-0.732135	-0.733485	-0.012701	22.9001	-0.731719	-5.299581E+9	2.396539E-12	NaN
373	1.000000	0.298404	7.36871e+06	-57289.1	955.82	-29737.5	0.000000	0.000000	6.298853	0.029770	NaN	0.000000	0.001631	0.001658	28.0812	0.008571	0.002002	4.280921	17.0213	-164.517	-0.019282	0.297057	-0.724143	-0.725490	0.029770	4.280921	-0.729359	-4.921153E+9	-6.049482E-12	NaN
373	1.000000	0.306407	7.36871e+06	-57289.1	955.818	-29737.5	0.000000	0.000000	6.306856	0.012238	NaN	0.000000	0.001624	0.001647	28.0811	0.092154	0.002089	44.105	-30.1105	-166.676	-0.051081	0.305111	-0.716139	-0.717436	0.012238	44.105	-0.716347	-3.270785E+9	-3.741666E-12	NaN
373	1.000000	0.314397	7.36871e+06	-57289.1	955.819	-29737.5	0.000000	0.000000	6.314847	0.027285	NaN	0.000000	0.001603	0.001671	28.0805	0.027828	0.001990	13.9804	43.4341	-166.391	0.054438	0.313063	-0.708149	-0.709483	0.027285	13.9804	-0.709613	-2.647093E+9	-1.030739E-11	NaN
373	1.000000	0.322436	7.36871e+06	-57289.1	955.819	-29737.5	0.000000	0.000000	6.322883	-0.021859	NaN	0.000000	0.001633	0.001641	28.0799	0.147472	0.002007	73.4618	49.4666	-167.755	0.030451	0.321107	-0.700111	-0.701440	-0.021859	73.4618	-0.699888	-1.949850E+9	1.121053E-11	NaN
373	1.000000	0.330428	7.36871e+06	-57289.1	955.817	-29737.5	0.000000	0.000000	6.330875	-0.026329	NaN	0.000000	0.001635	0.001660	28.0799	0.078158	0.001888	41.3937	84.4982	-169.079	0.003302	0.329101	-0.692119	-0.693446	-0.026329	41.3937	-0.691642	-1.504372E+9	1.750154E-11	NaN
373	1.000000	0.338424	7.36871e+06	-57289.1	955.818	-29737.5	0.000000	0.000000	6.338873	0.013356	NaN	0.000000	0.001637	0.001610	28.0798	0.049192	0.001965	25.0289	110.279	-165.218	-0.047582	0.337135	-0.684123	-0.685412	0.013356	25.0289	-0.684523	-1.202405E+9	-1.110755E-11	NaN
373	1.000000	0.346423	7.36871e+06	-57289.1	955.819	-29737.5	0.000000	0.000000	6.346871	-0.025368	NaN	0.000000	0.001668	0.001660	28.0798	0.080252	0.001969	40.7493	-46.9852	-169.12	-0.013494	0.345107	-0.676123	-0.677439	-0.025368	40.7493	-0.675656	-9.094729E+8	2.789299E-11	NaN
373	1.000000	0.354446	7.36871e+06	-57289.1	955.819	-29737.5	0.000000	0.000000	6.354896	0.029524	NaN	0.000000	0.001644	0.001665	28.0797	0.131361	0.002027	64.8145	160.42	-166.916	-0.011885	0.353126	-0.668101	-0.669421	0.029524	64.8145	-0.668442	-7.245536E+8	-4.074746E-11	NaN
373	1.000000	0.362425	7.36871e+06	-57289.1	955.818	-29737.5	0.000000	0.000000	6.362873	-0.003972	NaN	0.000000	0.001601	0.001643	28.0796	0.032789	0.002001	16.3824	-140.959	-165.516	-0.014214	0.361142	-0.660122	-0.661404	-0.003972	16.3824	-0.659940	-5.541765E+8	7.166687E-12	NaN
373	1.000000	0.370446	7.36871e+06	-57289.1	955.818	-29737.5	0.000000	0.000000	6.370894	-0.009744	NaN	0.000000	0.001651	0.001604	28.0798	0.011697	0.002008	5.824057	-9.178860	-168.613	0.027989	0.369120	-0.652101	-0.653427	-0.009744	5.824057	-0.650846	-4.159474E+8	2.342532E-11	NaN
373	1.000000	0.378442	7.36871e+06	-57289.1	955.818	-29737.5	0.000000	0.000000	6.378892	0.038675	NaN	0.000000	0.001679	0.001618	28.0798	0.059310	0.002169	27.3404	-56.6686	-164.385	-0.036069	0.377143	-0.644105	-0.645403	0.038675	27.3404	-0.645166	-3.476594E+8	-1.112437E-10	NaN
373	1.000000	0.386460	7.36871e+06	-57289.1	955.819	-29737.5	0.000000	0.000000	6.386911	0.063113	NaN	0.000000	0.001669	0.001632	28.0798	0.022288	0.001983	11.2391	113.444	-167.753	0.026239	0.385151	-0.636087	-0.637396	0.063113	11.2391	-0.640299	-2.981180E+8	-2.117040E-10	NaN
373	1.000000	0.394445	7.36871e+06	-57289.1	955.819	-29737.5	0.000000	0.000000	6.394892	-0.020526	NaN	0.000000	0.001704	0.001669	28.0794	0.039476	0.001955	20.1954	178.852	-165.803	-0.016797	0.393103	-0.628102	-0.629443	-0.020526	20.1954	-0.627340	-1.979189E+8	1.037076E-10	NaN
373	1.000000	0.402440	7.36871e+06	-57289.1	955.818	-29737.5	0.000000	0.000000	6.402889	0.027916	NaN	0.000000	0.001696	0.001668	28.0795	0.069089	0.001950	35.4216	55.6827	-166.634	0.061393	0.401093	-0.620107	-0.621454	0.027916	35.4216	-0.620698	-1.604092E+8	-1.740330E-10	NaN
373	1.000000	0.410453	7.36871e+06	-57289.1	955.819	-29737.5	0.000000	0.000000	6.410904	0.061366	NaN	0.000000	0.001713	0.001653	28.0795	0.149050	0.001981	75.227	-71.0528	-166.931	0.088494	0.409126	-0.612094	-0.613421	0.061366	75.227	-0.612706	-1.245481E+8	-4.927071E-10	NaN
373	1.000000	0.418456	7.36871e+06	-57289.1	955.818	-29737.5	0.000000	0.000000	6.418906	0.041286	NaN	0.000000	0.001705	0.001627	28.0797	0.057032	0.001952	29.2229	30.7441	-164.926	-0.018501	0.417155	-0.604091	-0.605392	0.041286	29.2229	-0.605151	-9.803393E+7	-4.211396E-10	NaN
373	1.000000	0.426487	7.36871e+06	-57289.1	955.818	-29737.5	0.000000	0.000000	6.426940	0.098804	NaN	0.000000	0.001698	0.001619	28.0798	0.072387	0.001941	37.2951	113.217	-167.839	0.094644	0.425139	-0.596059	-0.597407	0.098804	37.2951	-0.598046	-7.826188E+7	-1.262480E-9	NaN
373	1.000000	0.434445	7.36871e+06	-57289.1	955.818	-29737.5	0.000000	0.000000	6.434895	0.032170	NaN	0.000000	0.001682	0.001643	28.0794	0.084155	0.002002	42.0336	-170.529	-167.705	0.055575	0.433163	-0.588102	-0.589383	0.032170	42.0336	-0.588676	-5.813130E+7	-5.534028E-10	NaN
373	1.000000	0.442482	7.36871e+06	-57289.1	955.818	-29737.5	0.000000	0.000000	6.442931	0.027586	NaN	0.000000	0.001654	0.001640	28.0794	0.047707	0.002103	22.6851	-145.419	-169.197	-0.011018	0.441162	-0.580065	-0.581385	0.027586	22.6851	-0.580977	-4.552080E+7	-6.060060E-10	NaN
373	1.000000	0.450485	7.36871e+06	-57289.1	955.819	-29737.5	0.000000	0.000000	6.450934	0.014722	NaN	0.000000	0.001704	0.001621	28.0797	0.044992	0.002124	21.1842	145.962	-168.138	0.011627	0.449187	-0.572062	-0.573360	0.014722	21.1842	-0.572583	-3.485899E+7	-4.223381E-10	NaN
373	1.000000	0.458467	7.36871e+06	-57289.1	955.819	-29737.5	0.000000	0.000000	6.458917	0.024152	NaN	0.000000	0.001734	0.001654	28.0807	0.071703	0.001882	38.0904	80.7474	-167.409	0.050112	0.457141	-0.564080	-0.565405	0.024152	38.0904	-0.564555	-2.700064E+7	-8.945132E-10	NaN
373	1.000000	0.466502	7.36871e+06	-57289.1	955.818	-29737.5	0.000000	0.000000	6.466952	0.044112	NaN	0.000000	0.001747	0.001655	28.0809	0.056797	0.001925	29.5017	135.357	-165.64	0.039405	0.465134	-0.556045	-0.557412	0.044112	29.5017	-0.557166	-2.133890E+7	-2.067190E-9	NaN
373	1.000000	0.474461	7.36871e+06	-57289.1	955.819	-29737.5	0.000000	0.000000	6.474911	0.022455	NaN	0.000000	0.001748	0.001659	28.0808	0.147201	0.001945	75.697	17.3416	-164.576	-0.022065	0.473164	-0.548085	-0.549382	0.022455	75.697	-0.548308	-1.608841E+7	-1.395723E-9	NaN
373	1.000000	0.482518	7.36871e+06	-57289.1	955.818	-29737.5	0.000000	0.000000	6.482967	0.026138	NaN	0.000000	0.001710	0.001713	28.081	0.107603	0.001970	54.6098	-23.5054	-168.995	-0.002058	0.481191	-0.540029	-0.541355	0.026138	54.6098	-0.540388	-1.249507E+7	-2.091842E-9	NaN
373	1.000000	0.490479	7.36871e+06	-57289.1	955.818	-29737.5	0.000000	0.000000	6.490928	0.018139	NaN	0.000000	0.001644	0.001658	28.0807	0.044806	0.001917	23.3767	166.176	-168.042	0.035699	0.489125	-0.532068	-0.533422	0.018139	23.3767	-0.532650	-9.75818e+06	-1.858853E-9	NaN
373	1.000000	0.498481	7.36871e+06	-57289.1	955.819	-29737.5	0.000000	0.000000	6.498931	0.053498	NaN	0.000000	0.001635	0.001682	28.0808	0.057418	0.002140	26.8284	-116.575	-166.515	-0.016189	0.497151	-0.524066	-0.525396	0.053498	26.8284	-0.525562	-7.77887e+06	-6.877364E-9	NaN
373	1.000000	0.506472	7.36871e+06	-57289.1	955.818	-29737.5	0.000000	0.000000	6.506922	0.031180	NaN	0.000000	0.001651	0.001687	28.0808	0.080713	0.001936	41.6885	172.791	-167.949	0.043869	0.505173	-0.516075	-0.517374	0.031180	41.6885	-0.516636	-5.84516e+06	-5.334373E-9	NaN
373	1.000000	0.514469	7.36871e+06	-57289.1	955.818	-29737.5	0.000000	0.000000	6.514921	0.073855	NaN	0.000000	0.001618	0.001673	28.081	0.065768	0.002002	32.8489	147.376	-165.439	0.019777	0.513194	-0.508078	-0.509353	0.073855	32.8489	-0.509764	-4.6895e+06	-1.574892E-8	NaN
373	1.000000	0.522529	7.36871e+06	-57289.1	955.819	-29737.5	0.000000	0.000000	6.522977	0.001068	NaN	0.000000	0.001653	0.001697	28.0813	0.028309	0.001965	14.4064	-178.294	-162.129	-0.003747	0.521221	-0.500018	-0.501326	0.001068	14.4064	-0.500073	-3.43592e+06	-3.109751E-10	NaN
373	1.000000	0.530496	7.36871e+06	-57289.1	955.818	-29737.5	0.000000	0.000000	6.530947	0.052098	NaN	0.000000	0.001660	0.001688	28.0806	0.076741	0.002160	35.5333	37.5262	-169.033	0.047094	0.529212	-0.492050	-0.493335	0.052098	35.5333	-0.493150	-2.75042e+06	-1.894179E-8	NaN
373	1.000000	0.538513	7.36871e+06	-57289.1	955.818	-29737.5	0.000000	0.000000	6.538961	-0.004060	NaN	0.000000	0.001650	0.001733	28.0806	0.044960	0.001970	22.8199	-123.785	-172.064	0.049558	0.537267	-0.484034	-0.485280	-0.004060	22.8199	-0.483901	-2.04226e+06	1.987810E-9	NaN
373	1.000000	0.546523	7.36871e+06	-57289.1	955.818	-29737.5	0.000000	0.000000	6.546973	0.017899	NaN	0.000000	0.001655	0.001654	28.0806	0.040300	0.001887	21.3596	-32.5384	-165.513	0.088264	0.545200	-0.476023	-0.477347	0.017899	21.3596	-0.476652	-1.61674e+06	-1.107093E-8	NaN
373	1.000000	0.554510	7.36871e+06	-57289.1	955.817	-29737.5	0.000000	0.000000	6.554963	0.088737	NaN	0.000000	0.001636	0.001654	28.0806	0.046650	0.002081	22.4152	107.933	-167.052	0.100305	0.553204	-0.468036	-0.469343	0.088737	22.4152	-0.471005	-1.34743e+06	-6.585635E-8	NaN
373	1.000000	0.562553	7.36871e+06	-57289.1	955.819	-29737.5	0.000000	0.000000	6.563002	0.011321	NaN	0.000000	0.001650	0.001702	28.0809	0.075623	0.001993	37.9391	-57.4364	-165.96	0.059077	0.561185	-0.459993	-0.461362	0.011321	37.9391	-0.460217	-950756	-1.190760E-8	NaN
373	1.000000	0.570523	7.36871e+06	-57289.1	955.818	-29737.5	0.000000	0.000000	6.570974	0.042556	NaN	0.000000	0.001674	0.001643	28.0806	0.096235	0.002008	47.9331	-172.301	-166.442	0.037943	0.569260	-0.452023	-0.453287	0.042556	47.9331	-0.452689	-745079	-5.711616E-8	NaN
373	1.000000	0.578510	7.36871e+06	-57289.1	955.818	-29737.5	0.000000	0.000000	6.578960	0.024857	NaN	0.000000	0.001666	0.001714	28.0807	0.059736	0.002021	29.5631	-90.3165	-163.924	0.034357	0.577185	-0.444036	-0.445362	0.024857	29.5631	-0.444667	-574379	-4.327601E-8	NaN
373	1.000000	0.586536	7.36871e+06	-57289.1	955.818	-29737.5	0.000000	0.000000	6.586984	-0.021636	NaN	0.000000	0.001605	0.001671	28.0805	0.038558	0.001967	19.6029	-150.854	-163.881	0.104099	0.585250	-0.436010	-0.437297	-0.021636	19.6029	-0.435183	-422022	5.126829E-8	NaN
373	1.000000	0.594507	7.36871e+06	-57289.1	955.817	-29737.5	0.000000	0.000000	6.594957	0.036340	NaN	0.000000	0.001684	0.001668	28.0796	0.071468	0.001964	36.3876	-123.231	-162.94	-0.057621	0.593213	-0.428039	-0.429333	0.036340	36.3876	-0.428788	-342704	-1.060384E-7	NaN
373	1.000000	0.602569	7.36871e+06	-57289.1	955.818	-29737.5	0.000000	0.000000	6.603017	0.000247	NaN	0.000000	0.001651	0.001653	28.0794	0.070710	0.001974	35.8181	145.245	-162.804	0.017366	0.601238	-0.419978	-0.421308	0.000247	35.8181	-0.419983	-257142	-9.595629E-10	NaN
373	1.000000	0.610558	7.36872e+06	-57289.1	955.819	-29737.5	0.000000	0.000000	6.611005	-0.025727	NaN	0.000000	0.001645	0.001662	28.0797	0.089592	0.001991	44.9879	-132.566	-167.501	0.073597	0.609228	-0.411989	-0.413319	-0.025727	44.9879	-0.411560	-195246	1.317671E-7	NaN
373	1.000000	0.618529	7.36872e+06	-57289.1	955.819	-29737.5	0.000000	0.000000	6.618980	0.064212	NaN	0.000000	0.001627	0.001664	28.0797	0.044547	0.001945	22.9004	-80.5716	-163.936	0.028000	0.617243	-0.404018	-0.405303	0.064212	22.9004	-0.406121	-163383	-3.930183E-7	NaN
373	1.000000	0.626569	7.36872e+06	-57289.1	955.818	-29737.5	0.000000	0.000000	6.627019	0.032611	NaN	0.000000	0.001613	0.001658	28.0795	0.034437	0.001875	18.3618	-26.2689	-164.69	0.015524	0.625237	-0.395977	-0.397310	0.032611	18.3618	-0.397309	-122351	-2.665375E-7	NaN
373	1.000000	0.634557	7.36872e+06	-57289.1	955.819	-29737.5	0.000000	0.000000	6.635005	-0.021734	NaN	0.000000	0.001643	0.001688	28.0795	0.046076	0.001978	23.295	-128.925	-167.585	-0.079258	0.633224	-0.387990	-0.389323	-0.021734	23.295	-0.387290	-87980.1	2.470314E-7	NaN
373	1.000000	0.642559	7.36872e+06	-57289.1	955.819	-29737.5	0.000000	0.000000	6.643011	0.075754	NaN	0.000000	0.001652	0.001697	28.0795	0.055603	0.002019	27.5352	161.867	-165.955	0.084255	0.641303	-0.379988	-0.381244	0.075754	27.5352	-0.382051	-74014	-1.023510E-6	NaN
373	1.000000	0.650563	7.36872e+06	-57289.1	955.819	-29737.5	0.000000	0.000000	6.651009	-0.038339	NaN	0.000000	0.001671	0.001680	28.0798	0.034083	0.002085	16.3492	-31.9788	-165.039	-0.047330	0.649235	-0.371984	-0.373312	-0.038339	16.3492	-0.370225	-50046.4	7.660766E-7	NaN
373	1.000000	0.658557	7.36872e+06	-57289.1	955.818	-29737.5	0.000000	0.000000	6.659003	-0.070976	NaN	0.000000	0.001640	0.001698	28.0796	0.108454	0.001842	58.8683	-48.3079	-169.129	-0.066492	0.657287	-0.363990	-0.365260	-0.070976	58.8683	-0.363085	-39483.9	1.797603E-6	NaN
373	1.000000	0.666556	7.36872e+06	-57289.1	955.819	-29737.5	0.000000	0.000000	6.667007	0.068390	NaN	0.000000	0.001648	0.001676	28.0797	0.057948	0.002035	28.4761	171.533	-168.228	0.065941	0.665272	-0.355991	-0.357275	0.068390	28.4761	-0.357792	-33106.7	-2.065734E-6	NaN
373	1.000000	0.674564	7.36872e+06	-57289.1	955.818	-29737.5	0.000000	0.000000	6.675015	0.062554	NaN	0.000000	0.001628	0.001702	28.0796	0.108612	0.001959	55.4438	174.024	-165.605	0.062901	0.673272	-0.347983	-0.349275	0.062554	55.4438	-0.348829	-24547.4	-2.548285E-6	NaN
373	1.000000	0.682576	7.36872e+06	-57289.1	955.818	-29737.5	0.000000	0.000000	6.683024	-0.010494	NaN	0.000000	0.001613	0.001659	28.0794	0.046752	0.002113	22.1261	105.053	-168.575	0.099449	0.681286	-0.339971	-0.341260	-0.010494	22.1261	-0.339615	-18027.9	5.821176E-7	NaN
373	1.000000	0.690571	7.36872e+06	-57289.1	955.819	-29737.5	0.000000	0.000000	6.691018	-0.040417	NaN	0.000000	0.001565	0.001688	28.0793	0.043866	0.002042	21.4802	118.899	-168.511	-0.012084	0.689268	-0.331976	-0.333278	-0.040417	21.4802	-0.330564	-13295.8	3.039845E-6	NaN
373	1.000000	0.698571	7.36872e+06	-57289.1	955.82	-29737.5	0.000000	0.000000	6.699020	0.025063	NaN	0.000000	0.001576	0.001642	28.0795	0.068737	0.002029	33.8753	51.9604	-167.385	-0.024636	0.697233	-0.323976	-0.325313	0.025063	33.8753	-0.324531	-10845.4	-2.310941E-6	NaN
373	1.000000	0.706574	7.36872e+06	-57289.1	955.819	-29737.5	0.000000	0.000000	6.707022	0.005034	NaN	0.000000	0.001624	0.001672	28.0797	0.092345	0.002054	44.9599	-105.609	-168.361	0.048927	0.705300	-0.315973	-0.317247	0.005034	44.9599	-0.316057	-8138.45	-6.185239E-7	NaN
373	1.000000	0.714556	7.36872e+06	-57289.1	955.819	-29737.5	0.000000	0.000000	6.715004	-0.019994	NaN	0.000000	0.001560	0.001640	28.0795	0.077957	0.001903	40.9562	174.376	-169.821	0.043592	0.713217	-0.307991	-0.309330	-0.019994	40.9562	-0.307624	-6107.69	3.273551E-6	NaN
373	1.000000	0.722604	7.36872e+06	-57289.1	955.818	-29737.5	0.000000	0.000000	6.723052	-0.017515	NaN	0.000000	0.001562	0.001666	28.0792	0.042189	0.002014	20.9483	167.409	-168.052	-0.027941	0.721317	-0.299943	-0.301229	-0.017515	20.9483	-0.299315	-4596.67	3.810358E-6	NaN
373	1.000000	0.730576	7.36872e+06	-57289.1	955.818	-29737.5	0.000000	0.000000	6.731025	0.006766	NaN	0.000000	0.001615	0.001658	28.0806	0.063540	0.002091	30.3802	-89.1261	-165.169	0.052718	0.729266	-0.291971	-0.293280	0.006766	30.3802	-0.292138	-3591.78	-1.883874E-6	NaN
373	1.000000	0.738575	7.36872e+06	-57289.1	955.818	-29737.5	0.000000	0.000000	6.739023	-0.019170	NaN	0.000000	0.001632	0.001675	28.0805	0.048184	0.001855	25.9737	-147.869	-169.042	-0.014600	0.737318	-0.283971	-0.285229	-0.019170	25.9737	-0.283418	-2657.46	7.213828E-6	NaN
373	1.000000	0.746617	7.36872e+06	-57289.1	955.818	-29737.5	0.000000	0.000000	6.747065	-0.011786	NaN	0.000000	0.001604	0.001675	28.0807	0.028749	0.001961	14.6601	163.073	-163.518	0.020046	0.745329	-0.275929	-0.277218	-0.011786	14.6601	-0.275326	-2006.06	5.875152E-6	NaN
373	1.000000	0.754573	7.36872e+06	-57289.1	955.817	-29737.5	0.000000	0.000000	6.755022	0.000128	NaN	0.000000	0.001582	0.001686	28.0809	0.064128	0.002147	29.8693	-148.665	-167.461	-0.052441	0.753249	-0.267973	-0.269298	0.000128	29.8693	-0.267977	-1551.54	-8.264849E-8	NaN
373	1.000000	0.762591	7.36872e+06	-57289.1	955.818	-29737.5	0.000000	0.000000	6.763039	-0.016792	NaN	0.000000	0.001657	0.001689	28.0806	0.116494	0.001907	61.0989	-54.6658	-169.732	-0.093765	0.761249	-0.259956	-0.261298	-0.016792	61.0989	-0.259750	-1161.67	1.445510E-5	NaN
373	1.000000	0.770625	7.36872e+06	-57289.1	955.819	-29737.5	0.000000	0.000000	6.771075	0.033513	NaN	0.000000	0.001613	0.001659	28.0806	0.048814	0.001844	26.4748	27.1015	-163.865	0.052491	0.769290	-0.251921	-0.253256	0.033513	26.4748	-0.252871	-910.557	-3.680548E-5	NaN
373	1.000000	0.778619	7.36872e+06	-57289.1	955.819	-29737.5	0.000000	0.000000	6.779067	0.000174	NaN	0.000000	0.001615	0.001643	28.0806	0.072591	0.001936	37.5047	123.555	-164.978	-0.127537	0.777268	-0.243928	-0.245279	0.000174	37.5047	-0.243931	-661.962	-2.626518E-7	NaN
373	1.000000	0.786645	7.36872e+06	-57289.1	955.819	-29737.5	0.000000	0.000000	6.787094	0.033384	NaN	0.000000	0.001622	0.001649	28.0806	0.134073	0.001999	67.0723	-156.052	-166.132	-0.053137	0.785373	-0.235902	-0.237173	0.033384	67.0723	-0.236275	-502.646	-6.641655E-5	NaN
373	1.000000	0.794639	7.36872e+06	-57289.1	955.819	-29737.5	0.000000	0.000000	6.795089	0.021292	NaN	0.000000	0.001615	0.001693	28.0807	0.117288	0.001947	60.2373	84.016	-169.605	0.027560	0.793331	-0.227907	-0.229215	0.021292	60.2373	-0.228172	-374.651	-5.683147E-5	NaN
373	1.000000	0.802626	7.36872e+06	-57289.1	955.818	-29737.5	0.000000	0.000000	6.803073	-0.037376	NaN	0.000000	0.001620	0.001642	28.0808	0.018132	0.002085	8.696668	-87.878	-165.565	-0.049391	0.801352	-0.219920	-0.221194	-0.037376	8.696668	-0.216697	-245.911	0.000152	NaN
373	1.000000	0.810617	7.36872e+06	-57289.1	955.818	-29737.5	0.000000	0.000000	6.811066	0.006145	NaN	0.000000	0.001610	0.001659	28.0811	0.097425	0.002111	46.1428	-51.4848	-167.26	0.048965	0.809294	-0.211930	-0.213252	0.006145	46.1428	-0.212030	-206.844	-2.971049E-5	NaN
373	1.000000	0.818630	7.36872e+06	-57289.1	955.818	-29737.5	0.000000	0.000000	6.819078	-0.010063	NaN	0.000000	0.001590	0.001696	28.0808	0.062527	0.002036	30.7093	66.3193	-167.196	-0.060026	0.817360	-0.203917	-0.205187	-0.010063	30.7093	-0.203671	-151.309	6.650447E-5	NaN
373	1.000000	0.826628	7.36872e+06	-57289.1	955.819	-29737.5	0.000000	0.000000	6.827078	0.054472	NaN	0.000000	0.001682	0.001707	28.0808	0.114727	0.002013	56.9963	137.134	-164.489	0.077490	0.825309	-0.195919	-0.197238	0.054472	56.9963	-0.196636	-115.949	-0.000470	NaN
373	1.000000	0.834616	7.36872e+06	-57289.1	955.819	-29737.5	0.000000	0.000000	6.835068	0.098564	NaN	0.000000	0.001718	0.001703	28.0804	0.102985	0.001955	52.6697	-81.6831	-167.2	0.071378	0.833332	-0.187931	-0.189215	0.098564	52.6697	-0.189334	-87.6799	-0.001124	NaN
373	1.000000	0.842643	7.36872e+06	-57289.1	955.818	-29737.5	0.000000	0.000000	6.843091	-0.009805	NaN	0.000000	0.001680	0.001710	28.0807	0.069459	0.002041	34.0298	20.9443	-165.25	0.003147	0.841330	-0.179903	-0.181217	-0.009805	34.0298	-0.179687	-60.2764	0.000163	NaN
373	1.000000	0.850643	7.36872e+06	-57289.1	955.818	-29737.5	0.000000	0.000000	6.851089	-0.062135	NaN	0.000000	0.001677	0.001726	28.0808	0.023616	0.002089	11.3073	-100.431	-164.176	-0.018482	0.849301	-0.171903	-0.173245	-0.062135	11.3073	-0.167782	-37.5842	0.001653	NaN
373	1.000000	0.858638	7.36872e+06	-57289.1	955.818	-29737.5	0.000000	0.000000	6.859086	-0.006318	NaN	0.000000	0.001669	0.001718	28.0807	0.064386	0.002117	30.4208	-38.56	-167.162	0.029189	0.857272	-0.163909	-0.165274	-0.006318	30.4208	-0.163753	-31.9431	0.000198	NaN
373	1.000000	0.866651	7.36872e+06	-57289.1	955.817	-29737.5	0.000000	0.000000	6.867100	0.010596	NaN	0.000000	0.001711	0.001694	28.0795	0.078177	0.002114	36.9836	115.681	-164.275	-0.059179	0.865345	-0.155895	-0.157202	0.010596	36.9836	-0.156110	-23.3632	-0.000454	NaN
373	1.000000	0.874638	7.36872e+06	-57289.1	955.819	-29737.5	0.000000	0.000000	6.875088	0.018870	NaN	0.000000	0.001709	0.001747	28.0795	0.084059	0.002021	41.6004	90.8188	-165.795	-0.115296	0.873345	-0.147908	-0.149202	0.018870	41.6004	-0.148248	-16.826	-0.001121	NaN
373	1.000000	0.882685	7.36872e+06	-57289.1	955.819	-29737.5	0.000000	0.000000	6.883133	-0.017957	NaN	0.000000	0.001702	0.001721	28.0795	0.047597	0.002077	22.9204	161.308	-167.114	-0.037968	0.881351	-0.139862	-0.141196	-0.017957	22.9204	-0.139274	-11.4634	0.001566	NaN
373	1.000000	0.890633	7.36872e+06	-57289.1	955.819	-29737.5	0.000000	0.000000	6.891080	-0.015199	NaN	0.000000	0.001707	0.001707	28.0795	0.035744	0.002066	17.3024	179.092	-171.273	0.019304	0.889385	-0.131914	-0.133161	-0.015199	17.3024	-0.131255	-8.060081	0.001886	NaN
373	1.000000	0.898656	7.36872e+06	-57289.1	955.819	-29737.5	0.000000	0.000000	6.899104	-0.025176	NaN	0.000000	0.001720	0.001691	28.0797	0.106365	0.001992	53.3982	1.196556	-165.044	0.018824	0.897367	-0.123891	-0.125180	-0.025176	53.3982	-0.123537	-5.688043	0.004426	NaN
373	1.000000	0.906661	7.36872e+06	-57289.1	955.818	-29737.5	0.000000	0.000000	6.907112	0.047053	NaN	0.000000	0.001713	0.001743	28.0796	0.039392	0.002069	19.0367	-134.547	-170.404	0.041384	0.905335	-0.115885	-0.117211	0.047053	19.0367	-0.117739	-4.347504	-0.010823	NaN
373	1.000000	0.914666	7.36872e+06	-57289.1	955.82	-29737.5	0.000000	0.000000	6.915115	-0.000519	NaN	0.000000	0.001690	0.001703	28.0797	0.034663	0.001987	17.4465	-175.063	-168.063	-0.001401	0.913298	-0.107880	-0.109249	-0.000519	17.4465	-0.107858	-2.706919	0.000192	NaN
373	1.000000	0.922669	7.36872e+06	-57289.1	955.818	-29737.5	0.000000	0.000000	6.923118	-0.000435	NaN	0.000000	0.001707	0.001708	28.0795	0.053773	0.001969	27.3127	124.525	-166.666	-0.021549	0.921367	-0.099877	-0.101180	-0.000435	27.3127	-0.099865	-1.814613	0.000240	NaN
373	1.000000	0.930662	7.36872e+06	-57289.1	955.818	-29737.5	0.000000	0.000000	6.931111	-0.001206	NaN	0.000000	0.001653	0.001733	28.0794	0.066185	0.002063	32.0844	-29.3672	-166.46	0.068009	0.929366	-0.091884	-0.093181	-0.001206	32.0844	-0.091856	-1.194347	0.001010	NaN
373	1.000000	0.938641	7.36872e+06	-57289.1	955.819	-29737.5	0.000000	0.000000	6.939091	0.036936	NaN	0.000000	0.001656	0.001718	28.0795	0.048386	0.002038	23.7385	90.8118	-168.098	0.078105	0.937389	-0.083906	-0.085158	0.036936	23.7385	-0.085073	-0.824976	-0.044772	NaN
373	1.000000	0.946677	7.36872e+06	-57289.1	955.819	-29737.5	0.000000	0.000000	6.947124	-0.029899	NaN	0.000000	0.001665	0.001741	28.0794	0.045930	0.002072	22.1708	-140.278	-167.262	0.006650	0.945346	-0.075870	-0.077201	-0.029899	22.1708	-0.074859	-0.457996	0.065283	NaN
373	1.000000	0.954640	7.36872e+06	-57289.1	955.819	-29737.5	0.000000	0.000000	6.955090	0.027698	NaN	0.000000	0.001697	0.001712	28.0796	0.034530	0.001869	18.4765	-149.025	-167.806	0.004001	0.953344	-0.067907	-0.069202	0.027698	18.4765	-0.069031	-0.321252	-0.086220	NaN
373	1.000000	0.962684	7.36872e+06	-57289.1	955.819	-29737.5	0.000000	0.000000	6.963132	0.000751	NaN	0.000000	0.001687	0.001728	28.0797	0.073385	0.002015	36.4177	-8.277811	-169.793	0.044859	0.961357	-0.059863	-0.061190	0.000751	36.4177	-0.059878	-0.178650	-0.004202	NaN
373	1.000000	0.970675	7.36872e+06	-57289.1	955.819	-29737.5	0.000000	0.000000	6.971123	-0.005304	NaN	0.000000	0.001684	0.001704	28.0794	0.015551	0.001961	7.931265	4.992576	-167.324	0.045580	0.969374	-0.051871	-0.053173	-0.005304	7.931265	-0.051370	-0.100359	0.052847	NaN
373	1.000000	0.978712	7.36872e+06	-57289.1	955.818	-29737.5	0.000000	0.000000	6.979164	0.080443	NaN	0.000000	0.001717	0.001686	28.0796	0.057597	0.001915	30.0739	143.397	-168.314	0.108853	0.977402	-0.043835	-0.045144	0.080443	30.0739	-0.045841	-0.068188	-1.179725	NaN
373	1.000000	0.986684	7.36872e+06	-57289.1	955.819	-29737.5	0.000000	0.000000	6.987149	0.405664	NaN	0.000000	0.001661	0.001710	28.0794	0.241240	0.002040	118.23	42.7124	-165.485	0.368164	0.985368	-0.035863	-0.037178	0.405664	118.23	-0.038436	-0.040552	-10.0036	NaN
373	1.000000	0.994691	7.36872e+06	-57289.1	955.819	-29737.5	0.000000	0.000000	6.995185	1.111308	NaN	0.000000	0.001664	0.001703	28.0797	0.548484	0.001963	279.457	12.5998	-165.695	0.950847	0.993367	-0.027856	-0.029180	1.111308	279.457	-0.030838	-0.024292	-45.7487	NaN
373	1.000000	1.002673	7.36872e+06	-57289.1	955.819	-29737.5	0.000000	0.000000	7.003185	1.542879	NaN	0.000000	0.001661	0.001696	28.0807	0.672417	0.002034	330.569	26.8265	-166.046	1.498434	1.001345	-0.019873	-0.021201	1.542879	330.569	-0.023374	-0.015311	-100.768	NaN
373	1.000000	1.010702	7.36872e+06	-57289.1	955.819	-29737.5	0.000000	0.000000	7.011224	1.799983	NaN	0.000000	0.001672	0.001681	28.0805	0.733034	0.002018	363.329	20.4315	-168.056	1.691984	1.009370	-0.011845	-0.013177	1.799983	363.329	-0.015560	-0.009614	-187.23	NaN
373	1.000000	1.018735	7.36872e+06	-57289.1	955.819	-29737.5	0.000000	0.000000	7.019261	1.879714	NaN	0.000000	0.001636	0.001689	28.0807	0.682141	0.002032	335.765	23.6064	-166.148	1.792664	1.017341	-0.003811	-0.005206	1.879714	335.765	-0.008010	-0.005238	-358.888	NaN
373	1.000000	1.026700	7.36872e+06	-57289.1	955.819	-29737.5	0.000000	0.000000	7.027307	3.855761	NaN	0.000000	0.001697	0.001664	28.0804	3.366363	0.001887	1783.71	12.7115	-169.56	2.886181	1.025349	0.004153	0.002802	3.855761	1783.71	0.002532	0.001989	1938.19	36537.6
373	2.000000	1.032349	7.36872e+06	-57289.1	955.818	-29737.5	0.000000	0.000000	7.033145	8.440368	NaN	0.000000	0.001647	0.001697	28.0813	8.408361	0.001773	4743.42	10.1831	-173.922	8.009797	1.032113	0.009803	0.009567	8.440368	4743.42	0.008468	0.007528	1121.18	49948.4
373	2.000000	1.034335	7.36872e+06	-57289.1	955.819	-29737.5	0.000000	0.000000	7.035207	10.2987	NaN	0.000000	0.001654	0.001688	28.0808	10.2728	0.001706	6023.28	6.183744	-172.508	9.681919	1.034000	0.011788	0.011453	10.2987	6023.28	0.010506	0.009749	1056.36	55734.3
373	2.000000	1.036329	7.36872e+06	-57289.1	955.819	-29737.5	0.000000	0.000000	7.037335	13.5429	NaN	0.000000	0.001691	0.001656	28.0806	12.1975	0.001723	7078.3	8.312392	-175.27	13.3392	1.036003	0.013782	0.013456	13.5429	7078.3	0.012347	0.011909	1137.22	59260.9
373	2.000000	1.038330	7.36872e+06	-57289.1	955.819	-29737.5	0.000000	0.000000	7.039422	15.6452	NaN	0.000000	0.001683	0.001686	28.0809	14.9828	0.001832	8176.16	9.592202	-177.526	15.6611	1.038034	0.015783	0.015488	15.6452	8176.16	0.014348	0.014425	1084.56	62195.4
373	2.000000	1.040292	7.36872e+06	-57289.1	955.819	-29737.5	0.000000	0.000000	7.041554	19.7822	NaN	0.000000	0.001647	0.001625	28.0805	16.7026	0.001710	9767.25	5.997196	-176.161	18.9995	1.039964	0.017745	0.017417	19.7822	9767.25	0.016226	0.016955	1166.74	68532.2
373	2.000000	1.042293	7.36872e+06	-57289.1	955.818	-29737.5	0.000000	0.000000	7.043670	22.5614	NaN	0.000000	0.001672	0.001650	28.0812	18.4633	0.001715	10764.8	4.393685	-176.868	22.0771	1.041976	0.019746	0.019430	22.5614	10764.8	0.018175	0.019755	1142.08	69975.4
373	2.000000	1.044276	7.36872e+06	-57289.1	955.818	-29737.5	0.000000	0.000000	7.045842	27.1539	NaN	0.000000	0.001689	0.001645	28.0805	21.0333	0.001844	11404.5	4.660233	-176.037	26.7287	1.043910	0.021730	0.021364	27.1539	11404.5	0.019944	0.022454	1209.3	69534.3
373	2.000000	1.046292	7.36872e+06	-57289.1	955.819	-29737.5	0.000000	0.000000	7.048032	31.3813	NaN	0.000000	0.001673	0.001664	28.0804	22.1975	0.001775	12507.9	5.092115	-177.111	31.275	1.045981	0.023746	0.023434	31.3813	12507.9	0.021864	0.025556	1227.93	71484
373	2.000000	1.048213	7.36872e+06	-57289.1	955.82	-29737.5	0.000000	0.000000	7.050154	36.2859	NaN	0.000000	0.001676	0.001650	28.0807	24.1583	0.001627	14850.9	0.965709	-176.02	34.5268	1.047983	0.025666	0.025436	36.2859	14850.9	0.023834	0.028928	1254.35	79774.8
373	2.000000	1.050288	7.36872e+06	-57289.1	955.82	-29737.5	0.000000	0.000000	7.052471	42.1615	NaN	0.000000	0.001676	0.001660	28.0805	26.783	0.001690	15845.9	5.194291	-179.417	40.8538	1.049853	0.027741	0.027307	42.1615	15845.9	0.025746	0.032386	1301.84	80447.1
373	2.000000	1.052203	7.36872e+06	-57289.1	955.819	-29737.5	0.000000	0.000000	7.054510	45.1515	NaN	0.000000	0.001677	0.001677	28.0818	28.4132	0.001780	15960.2	0.963283	-176.085	42.5127	1.051944	0.029657	0.029398	45.1515	15960.2	0.027535	0.035789	1261.59	77078.4
373	2.000000	1.054241	7.36872e+06	-57289.1	955.82	-29737.5	0.000000	0.000000	7.056818	51.7334	NaN	0.000000	0.001652	0.001680	28.0808	31.2649	0.001798	17389.1	5.348541	178.996	50.1793	1.053953	0.031694	0.031407	51.7334	17389.1	0.029463	0.039638	1305.15	79798.5
373	2.000000	1.056188	7.36872e+06	-57289.1	955.819	-29737.5	0.000000	0.000000	7.058964	56.5763	NaN	0.000000	0.001661	0.001662	28.0805	32.5117	0.001761	18464.2	3.101731	179.611	55.318	1.056044	0.033641	0.033498	56.5763	18464.2	0.031343	0.043574	1298.4	80814.5
373	2.000000	1.058178	7.36872e+06	-57289.1	955.819	-29737.5	0.000000	0.000000	7.061204	62.6609	NaN	0.000000	0.001654	0.001638	28.0794	34.5783	0.001793	19280.6	3.443658	179.405	60.3721	1.057900	0.035631	0.035353	62.6609	19280.6	0.033194	0.047623	1315.76	80720.4
373	2.000000	1.060249	7.36872e+06	-57289.1	955.82	-29737.5	0.000000	0.000000	7.063572	69.8468	NaN	0.000000	0.001685	0.001618	28.0793	36.3039	0.001817	19982.7	1.234669	-177.395	68.6092	1.059905	0.037703	0.037358	69.8468	19982.7	0.035081	0.051935	1344.89	80112.2
373	2.000000	1.062144	7.36872e+06	-57289.1	955.819	-29737.5	0.000000	0.000000	7.065828	78.6288	NaN	0.000000	0.001674	0.001621	28.0797	37.4332	0.001801	20781.2	0.482636	-177.295	74.7049	1.061878	0.039597	0.039332	78.6288	20781.2	0.036760	0.055923	1406.03	80288
373	2.000000	1.064216	7.36872e+06	-57289.1	955.818	-29737.5	0.000000	0.000000	7.068074	82.8511	NaN	0.000000	0.001653	0.001630	28.0796	41.2734	0.001860	22188	7.634919	174.056	81.939	1.063911	0.041670	0.041364	82.8511	22188	0.038869	0.061139	1355.13	81984.8
373	2.000000	1.066278	7.36872e+06	-57289.1	955.818	-29737.5	0.000000	0.000000	7.070372	88.5944	NaN	0.000000	0.001689	0.001625	28.0796	42.1287	0.001827	23057.1	8.227321	173.317	92.5377	1.065969	0.043731	0.043422	88.5944	23057.1	0.040849	0.066242	1337.43	81848.5
373	2.000000	1.068206	7.36872e+06	-57289.1	955.819	-29737.5	0.000000	0.000000	7.072521	93.9579	NaN	0.000000	0.001647	0.001647	28.0796	44.3988	0.001799	24681.5	6.338745	174.399	94.4138	1.067978	0.045660	0.045431	93.9579	24681.5	0.042805	0.071477	1314.52	84345.2
373	2.000000	1.070288	7.36872e+06	-57289.1	955.819	-29737.5	0.000000	0.000000	7.075069	105.309	NaN	0.000000	0.001669	0.001629	28.0796	45.0289	0.001804	24963.2	4.306055	178.009	108.558	1.069893	0.047741	0.047346	105.309	24963.2	0.044577	0.076391	1378.56	82518.7
373	2.000000	1.072289	7.36872e+06	-57289.1	955.819	-29737.5	0.000000	0.000000	7.077339	111.829	NaN	0.000000	0.001680	0.001617	28.0798	46.7668	0.001761	26559.7	12.471	169.495	114.307	1.071841	0.049743	0.049294	111.829	26559.7	0.046585	0.082150	1361.29	84663
373	2.000000	1.074179	7.36872e+06	-57289.1	955.82	-29737.5	0.000000	0.000000	7.079618	121.289	NaN	0.000000	0.001677	0.001599	28.0798	48.9816	0.001801	27199.4	3.828465	176.582	117.802	1.073802	0.051632	0.051255	121.289	27199.4	0.048288	0.087195	1391.01	84156.5
373	2.000000	1.076180	7.36872e+06	-57289.1	955.819	-29737.5	0.000000	0.000000	7.081944	129.185	NaN	0.000000	0.001701	0.001627	28.0798	49.8243	0.001778	28027.7	2.633616	177.113	126.742	1.075960	0.053634	0.053414	129.185	28027.7	0.050177	0.092960	1389.68	83987
373	2.000000	1.078222	7.36872e+06	-57289.1	955.82	-29737.5	0.000000	0.000000	7.084289	136.538	NaN	0.000000	0.001671	0.001597	28.0796	53.2227	0.001763	30187.1	3.907159	175.693	138.233	1.077847	0.055676	0.055300	136.538	30187.1	0.052283	0.099602	1370.84	87389.8
373	2.000000	1.080279	7.36872e+06	-57289.1	955.82	-29737.5	0.000000	0.000000	7.086671	144.467	NaN	0.000000	0.001687	0.001614	28.0797	55.9763	0.001880	29774.8	2.483385	177.55	144.802	1.079999	0.057732	0.057453	144.467	29774.8	0.054093	0.105483	1369.57	83758.7
373	2.000000	1.082239	7.36872e+06	-57289.1	955.82	-29737.5	0.000000	0.000000	7.088974	152.798	NaN	0.000000	0.001662	0.001624	28.0799	58.159	0.001848	31467	6.433878	172.655	153.508	1.081902	0.059692	0.059356	152.798	31467	0.056050	0.112027	1363.93	85894.9
373	2.000000	1.084189	7.36872e+06	-57289.1	955.82	-29737.5	0.000000	0.000000	7.091237	160.407	NaN	0.000000	0.001695	0.001661	28.0798	61.4186	0.001899	32350.7	10.1028	168.22	160.457	1.083940	0.061642	0.061393	160.407	32350.7	0.057924	0.118468	1354.01	85872.9
373	2.000000	1.086171	7.36872e+06	-57289.1	955.82	-29737.5	0.000000	0.000000	7.093791	174.321	NaN	0.000000	0.001714	0.001658	28.0798	60.6976	0.001760	34482	3.808857	174.182	172.728	1.085878	0.063624	0.063332	174.321	34482	0.059832	0.125208	1392.25	89032.6
373	2.000000	1.088217	7.36872e+06	-57289.1	955.819	-29737.5	0.000000	0.000000	7.096258	184.529	NaN	0.000000	0.001661	0.001662	28.0798	62.8305	0.001797	34962.8	3.697660	174.866	185.745	1.087877	0.065671	0.065330	184.529	34962.8	0.061712	0.132019	1397.74	87914.5
373	2.000000	1.090242	7.36872e+06	-57289.1	955.82	-29737.5	0.000000	0.000000	7.098625	192.842	NaN	0.000000	0.001638	0.001692	28.0798	64.4483	0.001793	35945	3.907556	173.858	192.387	1.089982	0.067695	0.067436	192.842	35945	0.063671	0.139302	1384.35	87990
373	2.000000	1.092104	7.36872e+06	-57289.1	955.821	-29737.5	0.000000	0.000000	7.101235	211.012	NaN	0.000000	0.001638	0.001699	28.0812	65.1954	0.001762	36998.1	3.611412	174.023	206.934	1.091849	0.069558	0.069302	211.012	36998.1	0.065280	0.145420	1451.06	88642.4
373	2.000000	1.094135	7.36872e+06	-57289.1	955.82	-29737.5	0.000000	0.000000	7.103741	222.584	NaN	0.000000	0.001636	0.001694	28.0811	68.2307	0.001796	37986.5	6.446850	172.42	219.08	1.093758	0.071588	0.071211	222.584	37986.5	0.067194	0.152860	1456.14	88767.9
373	2.000000	1.096137	7.36872e+06	-57289.1	955.819	-29737.5	0.000000	0.000000	7.106220	234.152	NaN	0.000000	0.001648	0.001655	28.0809	68.4281	0.001718	39822.1	3.740682	173.52	229.668	1.095754	0.073591	0.073207	234.152	39822.1	0.069181	0.160772	1456.42	90738.7
373	2.000000	1.098117	7.36872e+06	-57289.1	955.82	-29737.5	0.000000	0.000000	7.108382	238.59	NaN	0.000000	0.001645	0.001661	28.0808	72.2671	0.001934	37368.6	2.355146	175.561	235.055	1.097837	0.075570	0.075290	238.59	37368.6	0.070782	0.167282	1426.28	83474.8
373	2.000000	1.100146	7.36872e+06	-57289.1	955.819	-29737.5	0.000000	0.000000	7.111053	254.206	NaN	0.000000	0.001700	0.001631	28.0811	72.6	0.001836	39533.3	1.749611	175.525	251.662	1.099876	0.077599	0.077330	254.206	39533.3	0.072776	0.175565	1447.93	86202
373	2.000000	1.102122	7.36872e+06	-57289.1	955.82	-29737.5	0.000000	0.000000	7.113675	269.892	NaN	0.000000	0.001651	0.001678	28.081	75.4435	0.001863	40495.7	7.807116	169.295	266.553	1.101775	0.079576	0.079228	269.892	40495.7	0.074577	0.183203	1473.18	86440.1
373	2.000000	1.104202	7.36872e+06	-57289.1	955.82	-29737.5	0.000000	0.000000	7.115964	274.952	NaN	0.000000	0.001692	0.001672	28.0807	76.8525	0.001850	41541.5	4.791844	172.97	276.674	1.103877	0.081656	0.081331	274.952	41541.5	0.076692	0.192370	1429.29	86534.1
373	2.000000	1.106159	7.36872e+06	-57289.1	955.819	-29737.5	0.000000	0.000000	7.118588	291.171	NaN	0.000000	0.001699	0.001688	28.0808	78.0022	0.001888	41311.8	5.606136	171.919	289.952	1.105796	0.083613	0.083249	291.171	41311.8	0.078327	0.199600	1458.77	84482.6
373	2.000000	1.108120	7.36872e+06	-57289.1	955.82	-29737.5	0.000000	0.000000	7.120925	300.308	NaN	0.000000	0.001723	0.001681	28.0807	81.1428	0.001811	44803.6	8.113540	168.268	297.299	1.107780	0.085574	0.085234	300.308	44803.6	0.080547	0.209617	1432.65	89407.4
373	2.000000	1.110112	7.36872e+06	-57289.1	955.82	-29737.5	0.000000	0.000000	7.123526	315.122	NaN	0.000000	0.001676	0.001673	28.0809	82.2957	0.001774	46383.6	4.657358	171.368	310.667	1.109865	0.087566	0.087319	315.122	46383.6	0.082470	0.218483	1442.32	90662.8
373	2.000000	1.112116	7.36872e+06	-57289.1	955.82	-29737.5	0.000000	0.000000	7.126342	334.86	NaN	0.000000	0.001634	0.001703	28.081	83.4408	0.001774	47045.4	6.036337	170.297	330.94	1.111759	0.089570	0.089213	334.86	47045.4	0.084231	0.226749	1476.79	90264.8
373	2.000000	1.114198	7.36872e+06	-57289.1	955.82	-29737.5	0.000000	0.000000	7.128517	337.122	NaN	0.000000	0.001702	0.001707	28.0807	85.8775	0.001765	48669	1.243864	174.779	337.876	1.113894	0.091651	0.091347	337.122	48669	0.086456	0.237397	1420.08	91261.7
373	2.000000	1.116161	7.36872e+06	-57289.1	955.82	-29737.5	0.000000	0.000000	7.131074	351.547	NaN	0.000000	0.001692	0.001663	28.0809	86.7252	0.001827	47476	4.353391	171.72	349.877	1.115841	0.093615	0.093294	351.547	47476	0.088061	0.245221	1433.59	87592.9
373	2.000000	1.118214	7.36872e+06	-57289.1	955.82	-29737.5	0.000000	0.000000	7.133586	362.717	NaN	0.000000	0.001727	0.001646	28.0807	90.3492	0.001980	45630.1	5.961719	170.66	364.898	1.117660	0.095667	0.095114	362.717	45630.1	0.089705	0.253357	1431.65	82824.4
373	2.000000	1.120219	7.36872e+06	-57289.1	955.819	-29737.5	0.000000	0.000000	7.136181	377.062	NaN	0.000000	0.001702	0.001692	28.0808	90.8677	0.001955	46474.4	5.153782	171.652	378.264	1.119868	0.097672	0.097321	377.062	46474.4	0.091587	0.262823	1434.66	82823.8
373	2.000000	1.122104	7.36872e+06	-57289.1	955.819	-29737.5	0.000000	0.000000	7.138608	390.235	NaN	0.000000	0.001728	0.001689	28.0808	91.2342	0.001800	50682.6	4.937014	171.073	385.884	1.121755	0.099557	0.099208	390.235	50682.6	0.093782	0.274071	1423.85	88450.5
373	2.000000	1.124105	7.36872e+06	-57289.1	955.82	-29737.5	0.000000	0.000000	7.141209	404.798	NaN	0.000000	0.001704	0.001659	28.0807	93.6214	0.001805	51872.3	2.712737	172.704	402.294	1.123885	0.101559	0.101339	404.798	51872.3	0.095706	0.284106	1424.81	88913.7
373	2.000000	1.126076	7.36872e+06	-57289.1	955.82	-29737.5	0.000000	0.000000	7.144061	426.225	NaN	0.000000	0.001688	0.001669	28.0802	94.323	0.001754	53789.3	5.359729	169.808	420.033	1.125706	0.103529	0.103159	426.225	53789.3	0.097586	0.294081	1449.35	90622.4
373	2.000000	1.128280	7.36872e+06	-57289.1	955.82	-29737.5	0.000000	0.000000	7.146281	426.592	NaN	0.000000	0.001712	0.001648	28.0795	98.6856	0.001820	54233.6	7.841180	167.389	435.17	1.127810	0.105734	0.105264	426.592	54233.6	0.099834	0.306216	1393.11	89542.3
373	2.000000	1.130140	7.36872e+06	-57289.1	955.82	-29737.5	0.000000	0.000000	7.148853	443.924	NaN	0.000000	0.001702	0.001672	28.0794	98.4769	0.001720	57270.2	0.620613	174.265	440.695	1.129887	0.107593	0.107340	443.924	57270.2	0.101780	0.316903	1400.82	92947.7