File: remote_trans/data/nanoindenter/0828-1/data/Data_2025-08-06,11h17m57s/2025-07-22_16-23-58_1_214.txt
2025-07-22, 16:23:58, 1
Index	Phase	Displacement	Time	Pos X	Pos Y	Pos Z	Rot A	Rot B	Piezo Z	Force A	Force B	Gripper	Voltage A	Voltage B	Temperature	Amplitude force	Amplitude pos	Stiffness	Phase shift	Phase excitation	Force A raw	Displacement raw	HMax	HMax raw	Real Force	Real Stiffness	Contact Depth	Area	Hardness	Reduced Mod.
[#]	[#]	[um]	[s]	[um]	[um]	[um]	[m°]	[m°]	[um]	[uN]	[uN]	[V]	[V]	[V]	[°C]	[uN]	[um]	[N/m]	[°]	[°]	[uN]	[um]	[um]	[um]	[uN]	[N/m]	[um]	[um^2]	[MPa]	[MPa]
214	1.000000	0.002767	7.36714e+06	-49339.1	955.818	-29759.7	0.000000	0.000000	6.002791	-0.019630	NaN	0.000000	0.001632	0.001655	28.0785	0.089724	0.001020	87.9866	-62.3794	-169.826	0.015386	0.001536	-1.085114	-1.086346	-0.019630	87.9866	-1.084947	-3.147455E+14	6.236793E-17	NaN
214	1.000000	0.010756	7.36714e+06	-49339.1	955.818	-29759.7	0.000000	0.000000	6.010782	0.030032	NaN	0.000000	0.001618	0.001695	28.0783	0.073412	0.001000	73.4251	165.699	-160.177	0.024528	0.009422	-1.077125	-1.078460	0.030032	73.4251	-1.077432	-2.494740E+14	-1.203826E-16	NaN
214	1.000000	0.018744	7.36714e+06	-49339.1	955.819	-29759.7	0.000000	0.000000	6.018770	0.014291	NaN	0.000000	0.001586	0.001710	28.0783	0.023843	0.001646	14.4814	-126.241	-165.054	0.011542	0.017422	-1.069137	-1.070459	0.014291	14.4814	-1.069877	-1.974877E+14	-7.236586E-17	NaN
214	1.000000	0.026719	7.36714e+06	-49339.1	955.818	-29759.7	0.000000	0.000000	6.026741	-0.055725	NaN	0.000000	0.001602	0.001708	28.0786	0.070638	0.001966	35.928	71.7522	-161.649	-0.017592	0.025382	-1.061163	-1.062499	-0.055725	35.928	-1.059999	-1.454828E+14	3.830328E-16	NaN
214	1.000000	0.034731	7.36714e+06	-49339.1	955.818	-29759.7	0.000000	0.000000	6.034756	-0.009522	NaN	0.000000	0.001595	0.001666	28.0784	0.045972	0.001899	24.2044	-82.5211	-165.491	-0.047195	0.033415	-1.053150	-1.054467	-0.009522	24.2044	-1.052855	-1.166256E+14	8.164308E-17	NaN
214	1.000000	0.042742	7.36714e+06	-49339.1	955.819	-29759.7	0.000000	0.000000	6.042768	0.024819	NaN	0.000000	0.001574	0.001655	28.0786	0.081672	0.002076	39.3369	150.278	-166.982	0.028249	0.041459	-1.045139	-1.046423	0.024819	39.3369	-1.045612	-9.320279E+13	-2.662956E-16	NaN
214	1.000000	0.050698	7.36714e+06	-49339.1	955.818	-29759.7	0.000000	0.000000	6.050725	0.055773	NaN	0.000000	0.001568	0.001605	28.0783	0.028180	0.001980	14.232	64.0412	-168.412	0.068735	0.049413	-1.037184	-1.038468	0.055773	14.232	-1.040123	-7.863529E+13	-7.092582E-16	NaN
214	1.000000	0.058703	7.36714e+06	-49339.1	955.819	-29759.7	0.000000	0.000000	6.058729	0.026742	NaN	0.000000	0.001580	0.001702	28.0799	0.107737	0.002130	50.5876	-106.74	-166.544	0.084111	0.057373	-1.029178	-1.030509	0.026742	50.5876	-1.029575	-5.672340E+13	-4.714509E-16	NaN
214	1.000000	0.066735	7.36714e+06	-49339.1	955.818	-29759.7	0.000000	0.000000	6.066763	0.089114	NaN	0.000000	0.001598	0.001665	28.0795	0.112181	0.002023	55.44	-108.215	-166.325	0.110182	0.065385	-1.021146	-1.022497	0.089114	55.44	-1.022352	-4.535211E+13	-1.964941E-15	NaN
214	1.000000	0.074736	7.36714e+06	-49339.1	955.819	-29759.7	0.000000	0.000000	6.074762	0.017747	NaN	0.000000	0.001582	0.001692	28.0794	0.072461	0.002002	36.1928	147.133	-166.428	0.071864	0.073444	-1.013145	-1.014438	0.017747	36.1928	-1.013513	-3.448766E+13	-5.145936E-16	NaN
214	1.000000	0.082741	7.36714e+06	-49339.1	955.818	-29759.7	0.000000	0.000000	6.082769	0.062489	NaN	0.000000	0.001572	0.001700	28.0798	0.045152	0.001929	23.4039	69.5296	-167.801	0.122471	0.081433	-1.005140	-1.006448	0.062489	23.4039	-1.007143	-2.830896E+13	-2.207386E-15	NaN
214	1.000000	0.090723	7.36714e+06	-49339.1	955.818	-29759.7	0.000000	0.000000	6.090750	0.065378	NaN	0.000000	0.001661	0.001658	28.0795	0.004756	0.002049	2.321707	5.829657	-165.032	0.067806	0.089414	-0.997158	-0.998468	0.065378	2.321707	-1.018278	-3.997466E+13	-1.635496E-15	NaN
214	1.000000	0.098744	7.36714e+06	-49339.1	955.817	-29759.7	0.000000	0.000000	6.098772	0.063104	NaN	0.000000	0.001659	0.001679	28.0799	0.076066	0.001939	39.2333	111.181	-165.516	0.059704	0.097439	-0.989137	-0.990442	0.063104	39.2333	-0.990343	-1.681655E+13	-3.752499E-15	NaN
214	1.000000	0.106731	7.36714e+06	-49339.1	955.819	-29759.7	0.000000	0.000000	6.106756	-0.006017	NaN	0.000000	0.001648	0.001677	28.0791	0.144397	0.001960	73.6904	-44.4009	-165.527	0.082533	0.105473	-0.981150	-0.982408	-0.006017	73.6904	-0.981089	-1.262070E+13	4.767240E-16	NaN
214	1.000000	0.114767	7.36714e+06	-49339.1	955.818	-29759.7	0.000000	0.000000	6.114792	0.010021	NaN	0.000000	0.001649	0.001677	28.0796	0.010551	0.002025	5.210870	76.0865	-168.159	0.005512	0.113423	-0.973114	-0.974458	0.010021	5.210870	-0.974557	-1.030548E+13	-9.723679E-16	NaN
214	1.000000	0.122756	7.36714e+06	-49339.1	955.819	-29759.7	0.000000	0.000000	6.122785	0.086973	NaN	0.000000	0.001617	0.001631	28.0796	0.037541	0.001954	19.2084	-151.091	-166.583	0.000322	0.121416	-0.965125	-0.966466	0.086973	19.2084	-0.968521	-8.545372E+12	-1.017783E-14	NaN
214	1.000000	0.130755	7.36714e+06	-49339.1	955.818	-29759.7	0.000000	0.000000	6.130782	0.056049	NaN	0.000000	0.001650	0.001657	28.0793	0.116606	0.002016	57.8377	6.399088	-167.113	0.067507	0.129483	-0.957126	-0.958399	0.056049	57.8377	-0.957853	-6.136567E+12	-9.133616E-15	NaN
214	1.000000	0.138767	7.36714e+06	-49339.1	955.819	-29759.7	0.000000	0.000000	6.138792	0.010023	NaN	0.000000	0.001574	0.001636	28.0795	0.112140	0.001910	58.7058	-118.601	-166.845	0.000105	0.137477	-0.949115	-0.950404	0.010023	58.7058	-0.949243	-4.696922E+12	-2.133972E-15	NaN
214	1.000000	0.146762	7.36714e+06	-49339.1	955.818	-29759.7	0.000000	0.000000	6.146788	0.030842	NaN	0.000000	0.001663	0.001653	28.0794	0.157963	0.001840	85.8629	158.465	-166.184	0.066256	0.145444	-0.941119	-0.942437	0.030842	85.8629	-0.941389	-3.680224E+12	-8.380369E-15	NaN
214	1.000000	0.154749	7.36714e+06	-49339.1	955.817	-29759.7	0.000000	0.000000	6.154777	0.082153	NaN	0.000000	0.001645	0.001657	28.0794	0.057155	0.002052	27.8505	-4.860727	-166.057	0.051430	0.153493	-0.933133	-0.934389	0.082153	27.8505	-0.935345	-3.050210E+12	-2.693362E-14	NaN
214	1.000000	0.162757	7.36714e+06	-49339.1	955.819	-29759.7	0.000000	0.000000	6.162783	0.028641	NaN	0.000000	0.001627	0.001652	28.0794	0.095162	0.001924	49.4495	-156.444	-165.073	0.037780	0.161458	-0.925124	-0.926423	0.028641	49.4495	-0.925559	-2.250359E+12	-1.272736E-14	NaN
214	1.000000	0.170774	7.36714e+06	-49339.1	955.819	-29759.7	0.000000	0.000000	6.170799	-0.001098	NaN	0.000000	0.001643	0.001661	28.0792	0.091156	0.002088	43.6638	-101.041	-165.981	0.005648	0.169466	-0.917107	-0.918416	-0.001098	43.6638	-0.917088	-1.729389E+12	6.349094E-16	NaN
214	1.000000	0.178794	7.36714e+06	-49339.1	955.818	-29759.7	0.000000	0.000000	6.178820	0.034146	NaN	0.000000	0.001658	0.001653	28.0795	0.064274	0.001979	32.4738	173.238	-163.065	0.028921	0.177492	-0.909087	-0.910389	0.034146	32.4738	-0.909876	-1.381931E+12	-2.470911E-14	NaN
214	1.000000	0.186800	7.36714e+06	-49339.1	955.818	-29759.7	0.000000	0.000000	6.186827	0.053316	NaN	0.000000	0.001686	0.001663	28.0794	0.045256	0.002021	22.3899	-31.1871	-164.73	-0.032705	0.185487	-0.901082	-0.902395	0.053316	22.3899	-0.902868	-1.111252E+12	-4.797842E-14	NaN
214	1.000000	0.194795	7.36714e+06	-49339.1	955.818	-29759.7	0.000000	0.000000	6.194817	-0.061499	NaN	0.000000	0.001655	0.001671	28.0782	0.054761	0.001897	28.8619	-177.318	-165.75	-0.074853	0.193489	-0.893086	-0.894393	-0.061499	28.8619	-0.891488	-7.798865E+11	7.885688E-14	NaN
214	1.000000	0.202776	7.36714e+06	-49339.1	955.818	-29759.7	0.000000	0.000000	6.202799	-0.035450	NaN	0.000000	0.001643	0.001663	28.0778	0.063880	0.001880	33.9751	-11.625	-168.078	0.007573	0.201447	-0.885105	-0.886434	-0.035450	33.9751	-0.884323	-6.239700E+11	5.681424E-14	NaN
214	1.000000	0.210784	7.36714e+06	-49339.1	955.818	-29759.7	0.000000	0.000000	6.210806	-0.045535	NaN	0.000000	0.001668	0.001679	28.0789	0.039836	0.001875	21.2405	-42.4219	-167.725	-0.068789	0.209422	-0.877098	-0.878459	-0.045535	21.2405	-0.875490	-4.739286E+11	9.607990E-14	NaN
214	1.000000	0.218790	7.36714e+06	-49339.1	955.818	-29759.7	0.000000	0.000000	6.218817	0.063704	NaN	0.000000	0.001633	0.001701	28.0779	0.098839	0.001947	50.7616	110.32	-164.342	-0.005718	0.217477	-0.869092	-0.870404	0.063704	50.7616	-0.870033	-3.998435E+11	-1.593222E-13	NaN
214	1.000000	0.226775	7.36714e+06	-49339.1	955.818	-29759.7	0.000000	0.000000	6.226800	0.020403	NaN	0.000000	0.001636	0.001693	28.078	0.065659	0.002147	30.575	95.1478	-163.842	0.084706	0.225494	-0.861107	-0.862387	0.020403	30.575	-0.861607	-3.075224E+11	-6.634669E-14	NaN
214	1.000000	0.234794	7.36714e+06	-49339.1	955.818	-29759.7	0.000000	0.000000	6.234823	0.089589	NaN	0.000000	0.001600	0.001697	28.0781	0.080379	0.001998	40.2387	128.797	-165.118	0.085938	0.233472	-0.853087	-0.854410	0.089589	40.2387	-0.854757	-2.483990E+11	-3.606652E-13	NaN
214	1.000000	0.242774	7.36714e+06	-49339.1	955.818	-29759.7	0.000000	0.000000	6.242802	0.089675	NaN	0.000000	0.001609	0.001689	28.0774	0.122496	0.002028	60.4092	34.7531	-167.091	0.050703	0.241517	-0.845108	-0.846365	0.089675	60.4092	-0.846221	-1.903535E+11	-4.710990E-13	NaN
214	1.000000	0.250831	7.36714e+06	-49339.1	955.817	-29759.7	0.000000	0.000000	6.250859	0.075377	NaN	0.000000	0.001642	0.001680	28.0778	0.087209	0.002058	42.3817	96.2543	-165.655	0.073799	0.249483	-0.837051	-0.838399	0.075377	42.3817	-0.838385	-1.490758E+11	-5.056306E-13	NaN
214	1.000000	0.258820	7.36714e+06	-49339.1	955.819	-29759.7	0.000000	0.000000	6.258846	0.039329	NaN	0.000000	0.001643	0.001624	28.0777	0.031771	0.002017	15.755	32.9172	-166.327	0.047208	0.257495	-0.829062	-0.830387	0.039329	15.755	-0.830934	-1.181525E+11	-3.328625E-13	NaN
214	1.000000	0.266790	7.36714e+06	-49339.1	955.818	-29759.7	0.000000	0.000000	6.266816	0.027625	NaN	0.000000	0.001621	0.001648	28.0776	0.066559	0.002066	32.2228	-27.9882	-171.471	0.060284	0.265507	-0.821091	-0.822375	0.027625	32.2228	-0.821734	-8.866023E+10	-3.115855E-13	NaN
214	1.000000	0.274816	7.36714e+06	-49339.1	955.818	-29759.7	0.000000	0.000000	6.274840	-0.020479	NaN	0.000000	0.001652	0.001686	28.078	0.030686	0.002030	15.116	-143.782	-168.222	0.008186	0.273496	-0.813066	-0.814386	-0.020479	15.116	-0.812050	-6.552052E+10	3.125597E-13	NaN
214	1.000000	0.282815	7.36714e+06	-49339.1	955.817	-29759.7	0.000000	0.000000	6.282841	0.020587	NaN	0.000000	0.001641	0.001631	28.0776	0.109991	0.001991	55.2458	-107.785	-166.606	0.036977	0.281524	-0.805066	-0.806358	0.020587	55.2458	-0.805346	-5.313936E+10	-3.874122E-13	NaN
214	1.000000	0.290797	7.36714e+06	-49339.1	955.819	-29759.7	0.000000	0.000000	6.290824	0.070898	NaN	0.000000	0.001626	0.001646	28.0779	0.036564	0.001865	19.6061	-145.412	-165.834	0.016038	0.289451	-0.797085	-0.798430	0.070898	19.6061	-0.799797	-4.467936E+10	-1.586807E-12	NaN
214	1.000000	0.298817	7.36714e+06	-49339.1	955.818	-29759.7	0.000000	0.000000	6.298844	0.068997	NaN	0.000000	0.001645	0.001627	28.0778	0.024625	0.001872	13.1513	35.815	-165.519	0.049197	0.297506	-0.789065	-0.790375	0.068997	13.1513	-0.792999	-3.612584E+10	-1.909914E-12	NaN
214	1.000000	0.306815	7.36714e+06	-49339.1	955.818	-29759.7	0.000000	0.000000	6.306840	0.002993	NaN	0.000000	0.001644	0.001670	28.0777	0.200220	0.002075	96.4819	-122.449	-165.068	-0.014126	0.305549	-0.781066	-0.782333	0.002993	96.4819	-0.781090	-2.489077E+10	-1.202553E-13	NaN
214	1.000000	0.314830	7.36714e+06	-49339.1	955.818	-29759.7	0.000000	0.000000	6.314856	0.052091	NaN	0.000000	0.001645	0.001644	28.078	0.030546	0.002001	15.2653	-54.0263	-164.323	0.031106	0.313506	-0.773052	-0.774375	0.052091	15.2653	-0.775611	-2.096946E+10	-2.484148E-12	NaN
214	1.000000	0.322844	7.36714e+06	-49339.1	955.819	-29759.7	0.000000	0.000000	6.322873	0.089665	NaN	0.000000	0.001622	0.001654	28.0778	0.016833	0.001996	8.435003	-41.5331	-168.204	0.118236	0.321512	-0.765037	-0.766369	0.089665	8.435003	-0.773010	-1.932959E+10	-4.638719E-12	NaN
214	1.000000	0.330853	7.36714e+06	-49339.1	955.819	-29759.7	0.000000	0.000000	6.330879	0.033407	NaN	0.000000	0.001660	0.001644	28.0796	0.048454	0.002107	22.9986	-139.139	-164.182	0.106823	0.329498	-0.757029	-0.758384	0.033407	22.9986	-0.758118	-1.212556E+10	-2.755086E-12	NaN
214	1.000000	0.338865	7.36714e+06	-49339.1	955.817	-29759.7	0.000000	0.000000	6.338890	-0.002026	NaN	0.000000	0.001647	0.001651	28.079	0.066608	0.002021	32.9643	118.465	-165.743	-0.045478	0.337534	-0.749017	-0.750348	-0.002026	32.9643	-0.748970	-9.103416E+9	2.225966E-13	NaN
214	1.000000	0.346850	7.36714e+06	-49339.1	955.819	-29759.7	0.000000	0.000000	6.346876	0.029079	NaN	0.000000	0.001637	0.001634	28.0792	0.058006	0.001937	29.9398	113.743	-167.187	0.018072	0.345516	-0.741032	-0.742365	0.029079	29.9398	-0.741760	-7.261555E+9	-4.004564E-12	NaN
214	1.000000	0.354861	7.36714e+06	-49339.1	955.819	-29759.7	0.000000	0.000000	6.354886	-0.003424	NaN	0.000000	0.001667	0.001636	28.0791	0.056344	0.002141	26.3108	179.763	-165.272	0.038545	0.353567	-0.733020	-0.734314	-0.003424	26.3108	-0.732923	-5.503497E+9	6.222312E-13	NaN
214	1.000000	0.362858	7.36714e+06	-49339.1	955.818	-29759.7	0.000000	0.000000	6.362887	0.101568	NaN	0.000000	0.001662	0.001637	28.0791	0.021661	0.001978	10.949	-89.9538	-164.777	0.059203	0.361593	-0.725024	-0.726289	0.101568	10.949	-0.731981	-5.343238E+9	-1.900861E-11	NaN
214	1.000000	0.370839	7.36714e+06	-49339.1	955.818	-29759.7	0.000000	0.000000	6.370868	0.095307	NaN	0.000000	0.001621	0.001632	28.0793	0.019596	0.001908	10.2689	100.657	-167.155	0.008673	0.369514	-0.717042	-0.718367	0.095307	10.2689	-0.724003	-4.159685E+9	-2.291212E-11	NaN
214	1.000000	0.378859	7.36714e+06	-49339.1	955.817	-29759.7	0.000000	0.000000	6.378888	0.093338	NaN	0.000000	0.001626	0.001640	28.0789	0.049216	0.002001	24.5953	108.883	-165.333	0.031529	0.377580	-0.709022	-0.710301	0.093338	24.5953	-0.711868	-2.841480E+9	-3.284830E-11	NaN
214	1.000000	0.386846	7.36714e+06	-49339.1	955.818	-29759.7	0.000000	0.000000	6.386875	0.088151	NaN	0.000000	0.001624	0.001643	28.0794	0.124130	0.002070	59.9731	72.8798	-161.9	0.029685	0.385559	-0.701035	-0.702322	0.088151	59.9731	-0.702138	-2.092771E+9	-4.212165E-11	NaN
214	1.000000	0.394869	7.36714e+06	-49339.1	955.818	-29759.7	0.000000	0.000000	6.394893	-0.031082	NaN	0.000000	0.001617	0.001640	28.0792	0.060819	0.002065	29.4557	-22.4187	-168.689	0.078112	0.393593	-0.693012	-0.694289	-0.031082	29.4557	-0.692221	-1.532030E+9	2.028809E-11	NaN
214	1.000000	0.402860	7.36714e+06	-49339.1	955.819	-29759.7	0.000000	0.000000	6.402887	0.050178	NaN	0.000000	0.001564	0.001644	28.0791	0.093911	0.001939	48.4366	83.0264	-168.415	0.121873	0.401594	-0.685021	-0.686287	0.050178	48.4366	-0.685798	-1.251668E+9	-4.008912E-11	NaN
214	1.000000	0.410874	7.36714e+06	-49339.1	955.818	-29759.7	0.000000	0.000000	6.410902	0.094005	NaN	0.000000	0.001621	0.001656	28.0791	0.066705	0.002079	32.0842	64.522	-166.977	0.060343	0.409592	-0.677008	-0.678290	0.094005	32.0842	-0.679205	-1.017032E+9	-9.243062E-11	NaN
214	1.000000	0.418834	7.36714e+06	-49339.1	955.818	-29759.7	0.000000	0.000000	6.418859	-0.006890	NaN	0.000000	0.001575	0.001661	28.0789	0.071136	0.001838	38.7059	-21.8718	-168.383	-0.002266	0.417523	-0.669047	-0.670359	-0.006890	38.7059	-0.668914	-7.354003E+8	9.369197E-12	NaN
214	1.000000	0.426882	7.36714e+06	-49339.1	955.818	-29759.7	0.000000	0.000000	6.426907	0.011516	NaN	0.000000	0.001592	0.001628	28.0795	0.047232	0.001876	25.1817	-37.8976	-164.616	-0.015128	0.425586	-0.661000	-0.662295	0.011516	25.1817	-0.661343	-5.792438E+8	-1.988090E-11	NaN
214	1.000000	0.434901	7.36714e+06	-49339.1	955.819	-29759.7	0.000000	0.000000	6.434927	0.042233	NaN	0.000000	0.001627	0.001664	28.0793	0.029625	0.001991	14.8803	-82.8078	-165.822	0.037948	0.433609	-0.652981	-0.654272	0.042233	14.8803	-0.655110	-4.758486E+8	-8.875198E-11	NaN
214	1.000000	0.442924	7.36714e+06	-49339.1	955.818	-29759.7	0.000000	0.000000	6.442949	-0.001633	NaN	0.000000	0.001616	0.001655	28.0794	0.059518	0.002046	29.0857	-141.367	-164.698	-0.006959	0.441609	-0.644957	-0.646273	-0.001633	29.0857	-0.644915	-3.449167E+8	4.735555E-12	NaN
214	1.000000	0.450899	7.36714e+06	-49339.1	955.818	-29759.7	0.000000	0.000000	6.450923	-0.022792	NaN	0.000000	0.001640	0.001647	28.0791	0.076123	0.002065	36.8626	-161.724	-169.841	0.057484	0.449581	-0.636982	-0.638301	-0.022792	36.8626	-0.636518	-2.645530E+8	8.615413E-11	NaN
214	1.000000	0.458910	7.36714e+06	-49339.1	955.819	-29759.7	0.000000	0.000000	6.458937	0.062261	NaN	0.000000	0.001608	0.001663	28.0792	0.024589	0.002137	11.5065	-146.601	-163.559	0.059636	0.457595	-0.628971	-0.630287	0.062261	11.5065	-0.633030	-2.369322E+8	-2.627811E-10	NaN
214	1.000000	0.466900	7.36714e+06	-49339.1	955.818	-29759.7	0.000000	0.000000	6.466923	-0.046920	NaN	0.000000	0.001613	0.001640	28.078	0.047342	0.002062	22.9574	35.5991	-165.857	0.024213	0.465599	-0.620981	-0.622283	-0.046920	22.9574	-0.619448	-1.541876E+8	3.043045E-10	NaN
214	1.000000	0.474880	7.36714e+06	-49339.1	955.818	-29759.7	0.000000	0.000000	6.474908	0.079620	NaN	0.000000	0.001634	0.001691	28.078	0.027940	0.002002	13.9545	-18.7286	-163.463	-0.007991	0.473513	-0.613002	-0.614369	0.079620	13.9545	-0.617281	-1.439651E+8	-5.530497E-10	NaN
214	1.000000	0.482904	7.36714e+06	-49339.1	955.818	-29759.7	0.000000	0.000000	6.482928	-0.003524	NaN	0.000000	0.001637	0.001669	28.0783	0.058647	0.002100	27.9302	-105.299	-169.254	0.025603	0.481613	-0.604978	-0.606268	-0.003524	27.9302	-0.604883	-9.720616E+7	3.625661E-11	NaN
214	1.000000	0.490930	7.36714e+06	-49339.1	955.819	-29759.7	0.000000	0.000000	6.490958	0.080524	NaN	0.000000	0.001644	0.001711	28.078	0.128344	0.001953	65.7221	-178.677	-164.788	0.069831	0.489565	-0.596951	-0.598317	0.080524	65.7221	-0.597870	-7.782628E+7	-1.034658E-9	NaN
214	1.000000	0.498901	7.36714e+06	-49339.1	955.818	-29759.7	0.000000	0.000000	6.498924	-0.047472	NaN	0.000000	0.001634	0.001708	28.0778	0.094891	0.001827	51.9296	-160.278	-168.582	-0.002207	0.497636	-0.588980	-0.590246	-0.047472	51.9296	-0.588295	-5.743174E+7	8.265847E-10	NaN
214	1.000000	0.506915	7.36714e+06	-49339.1	955.819	-29759.7	0.000000	0.000000	6.506943	0.070712	NaN	0.000000	0.001653	0.001672	28.0776	0.066500	0.001980	33.5876	-40.9201	-165.949	0.134335	0.505615	-0.580966	-0.582266	0.070712	33.5876	-0.582545	-4.784631E+7	-1.477892E-9	NaN
214	1.000000	0.514922	7.36714e+06	-49339.1	955.818	-29759.7	0.000000	0.000000	6.514949	0.053966	NaN	0.000000	0.001661	0.001721	28.0779	0.109024	0.002058	52.9771	-43.4613	-168.872	-0.030030	0.513609	-0.572959	-0.574272	0.053966	52.9771	-0.573723	-3.614663E+7	-1.492970E-9	NaN
214	1.000000	0.522946	7.36714e+06	-49339.1	955.819	-29759.7	0.000000	0.000000	6.522973	0.050506	NaN	0.000000	0.001690	0.001677	28.078	0.137516	0.001986	69.2281	155.964	-168.134	0.082322	0.521570	-0.564935	-0.566311	0.050506	69.2281	-0.565483	-2.780982E+7	-1.816133E-9	NaN
214	1.000000	0.530937	7.36714e+06	-49339.1	955.819	-29759.7	0.000000	0.000000	6.530963	0.028261	NaN	0.000000	0.001670	0.001726	28.0778	0.073945	0.001969	37.5597	146.159	-167.083	0.034077	0.529616	-0.556944	-0.558266	0.028261	37.5597	-0.557509	-2.157298E+7	-1.310029E-9	NaN
214	1.000000	0.538932	7.36714e+06	-49339.1	955.818	-29759.7	0.000000	0.000000	6.538955	-0.032968	NaN	0.000000	0.001639	0.001749	28.0781	0.082966	0.002021	41.0564	-103.25	-167.587	-0.052101	0.537604	-0.548950	-0.550278	-0.032968	41.0564	-0.548347	-1.610882E+7	2.046568E-9	NaN
214	1.000000	0.546907	7.36714e+06	-49339.1	955.818	-29759.7	0.000000	0.000000	6.546933	0.026271	NaN	0.000000	0.001662	0.001735	28.0777	0.150445	0.002030	74.1026	152.195	-167.961	0.032280	0.545624	-0.540975	-0.542257	0.026271	74.1026	-0.541241	-1.283996E+7	-2.046032E-9	NaN
214	1.000000	0.554931	7.36714e+06	-49339.1	955.818	-29759.7	0.000000	0.000000	6.554957	0.048317	NaN	0.000000	0.001656	0.001695	28.0779	0.027481	0.002055	13.3699	146.489	-165.857	0.027003	0.553636	-0.532951	-0.534245	0.048317	13.3699	-0.535661	-1.074404E+7	-4.497104E-9	NaN
214	1.000000	0.562901	7.36714e+06	-49339.1	955.817	-29759.7	0.000000	0.000000	6.562926	0.002388	NaN	0.000000	0.001629	0.001690	28.0778	0.048492	0.001932	25.098	16.0686	-168.089	0.086687	0.561681	-0.524981	-0.526201	0.002388	25.098	-0.525052	-7.653e+06	-3.120199E-10	NaN
214	1.000000	0.570932	7.36714e+06	-49339.1	955.819	-29759.7	0.000000	0.000000	6.570959	0.063893	NaN	0.000000	0.001644	0.001665	28.0779	0.040388	0.001880	21.4822	-61.7885	-168.569	0.049848	0.569603	-0.516950	-0.518279	0.063893	21.4822	-0.519180	-6.34156e+06	-1.007525E-8	NaN
214	1.000000	0.578948	7.36714e+06	-49339.1	955.818	-29759.7	0.000000	0.000000	6.578971	-0.028622	NaN	0.000000	0.001629	0.001695	28.0784	0.103846	0.002039	50.9422	-117.335	-163.455	0.043872	0.577622	-0.508934	-0.510260	-0.028622	50.9422	-0.508512	-4.50497e+06	6.353370E-9	NaN
214	1.000000	0.586915	7.36714e+06	-49339.1	955.818	-29759.7	0.000000	0.000000	6.586940	0.025955	NaN	0.000000	0.001642	0.001661	28.078	0.087622	0.002019	43.3923	6.744249	-165.326	-0.036024	0.585668	-0.500967	-0.502214	0.025955	43.3923	-0.501416	-3.58727e+06	-7.235287E-9	NaN
214	1.000000	0.594939	7.36714e+06	-49339.1	955.818	-29759.7	0.000000	0.000000	6.594966	0.058148	NaN	0.000000	0.001668	0.001689	28.0779	0.175903	0.001949	90.2348	-95.0871	-163.874	0.010382	0.593661	-0.492943	-0.494220	0.058148	90.2348	-0.493426	-2.77497e+06	-2.095440E-8	NaN
214	1.000000	0.602961	7.36714e+06	-49339.1	955.818	-29759.7	0.000000	0.000000	6.602984	-0.039071	NaN	0.000000	0.001646	0.001726	28.0792	0.007094	0.002043	3.471571	-44.684	-169.006	-0.011699	0.601648	-0.484920	-0.486233	-0.039071	3.471571	-0.476480	-1.60779e+06	2.430102E-8	NaN
214	1.000000	0.610952	7.36714e+06	-49339.1	955.817	-29759.7	0.000000	0.000000	6.610979	0.034292	NaN	0.000000	0.001684	0.001709	28.0791	0.115938	0.002086	55.5843	-25.5058	-166.256	-0.044113	0.609656	-0.476929	-0.478226	0.034292	55.5843	-0.477392	-1.6558e+06	-2.071017E-8	NaN
214	1.000000	0.618930	7.36714e+06	-49339.1	955.819	-29759.7	0.000000	0.000000	6.618957	0.069609	NaN	0.000000	0.001641	0.001780	28.0794	0.085797	0.001936	44.3137	-107.217	-162.406	0.059104	0.617607	-0.468952	-0.470275	0.069609	44.3137	-0.470130	-1.30988e+06	-5.314113E-8	NaN
214	1.000000	0.626937	7.36714e+06	-49339.1	955.818	-29759.7	0.000000	0.000000	6.626961	-0.036711	NaN	0.000000	0.001631	0.001738	28.0793	0.065830	0.001861	35.3664	118.805	-167.972	-0.041694	0.625643	-0.460944	-0.462238	-0.036711	35.3664	-0.460166	-949177	3.867681E-8	NaN
214	1.000000	0.634965	7.36714e+06	-49339.1	955.819	-29759.7	0.000000	0.000000	6.634994	0.120961	NaN	0.000000	0.001635	0.001720	28.0792	0.090617	0.001980	45.7594	158.387	-163.677	0.051967	0.633646	-0.452917	-0.454235	0.120961	45.7594	-0.454899	-800388	-1.511276E-7	NaN
214	1.000000	0.642992	7.36714e+06	-49339.1	955.818	-29759.7	0.000000	0.000000	6.643016	-0.008183	NaN	0.000000	0.001621	0.001763	28.0792	0.069065	0.001964	35.1681	163.554	-167	0.058990	0.641659	-0.444890	-0.446223	-0.008183	35.1681	-0.444715	-575274	1.422477E-8	NaN
214	1.000000	0.650997	7.36714e+06	-49339.1	955.818	-29759.7	0.000000	0.000000	6.651023	0.037291	NaN	0.000000	0.001601	0.001717	28.0789	0.037175	0.001883	19.7427	-117.049	-170.65	0.002496	0.649660	-0.436884	-0.438222	0.037291	19.7427	-0.438301	-467069	-7.984121E-8	NaN
214	1.000000	0.658989	7.36714e+06	-49339.1	955.818	-29759.7	0.000000	0.000000	6.659012	-0.041784	NaN	0.000000	0.001641	0.001713	28.0792	0.125647	0.002063	60.9042	32.7964	-165.593	-0.013354	0.657684	-0.428893	-0.430197	-0.041784	60.9042	-0.428378	-338154	1.235640E-7	NaN
214	1.000000	0.666966	7.36714e+06	-49339.1	955.818	-29759.7	0.000000	0.000000	6.666990	0.003186	NaN	0.000000	0.001665	0.001709	28.079	0.090118	0.002141	42.0887	39.7666	-167.307	-0.009600	0.665669	-0.420916	-0.422213	0.003186	42.0887	-0.420973	-265588	-1.199591E-8	NaN
214	1.000000	0.674983	7.36714e+06	-49339.1	955.819	-29759.7	0.000000	0.000000	6.675008	0.006519	NaN	0.000000	0.001627	0.001746	28.0793	0.020161	0.001942	10.383	75.6417	-163.915	-0.005191	0.673648	-0.412899	-0.414234	0.006519	10.383	-0.413370	-207157	-3.146996E-8	NaN
214	1.000000	0.682969	7.36714e+06	-49339.1	955.818	-29759.7	0.000000	0.000000	6.682996	0.049111	NaN	0.000000	0.001651	0.001720	28.0792	0.062100	0.001926	32.2366	-117.041	-166.747	0.033614	0.681676	-0.404912	-0.406206	0.049111	32.2366	-0.406055	-163031	-3.012375E-7	NaN
214	1.000000	0.691011	7.36714e+06	-49339.1	955.818	-29759.7	0.000000	0.000000	6.691036	0.008309	NaN	0.000000	0.001651	0.001722	28.0791	0.114948	0.002009	57.2201	-0.522316	-170.096	0.013714	0.689686	-0.396870	-0.398196	0.008309	57.2201	-0.396979	-121030	-6.865012E-8	NaN
214	1.000000	0.699001	7.36714e+06	-49339.1	955.818	-29759.7	0.000000	0.000000	6.699025	-0.014505	NaN	0.000000	0.001642	0.001724	28.0791	0.052701	0.001931	27.2907	-69.4222	-167.969	0.037274	0.697700	-0.388881	-0.390182	-0.014505	27.2907	-0.388482	-91505.3	1.585204E-7	NaN
214	1.000000	0.707008	7.36714e+06	-49339.1	955.818	-29759.7	0.000000	0.000000	6.707036	0.071713	NaN	0.000000	0.001635	0.001676	28.0786	0.111451	0.002037	54.7157	-137.796	-167.39	0.111676	0.705709	-0.380874	-0.382172	0.071713	54.7157	-0.381857	-73540.3	-9.751554E-7	NaN
214	1.000000	0.715008	7.36714e+06	-49339.1	955.819	-29759.7	0.000000	0.000000	6.715034	0.031847	NaN	0.000000	0.001636	0.001724	28.0794	0.117642	0.002130	55.221	-35.465	-163.75	0.190833	0.713668	-0.372873	-0.374213	0.031847	55.221	-0.373306	-55425.2	-5.745861E-7	NaN
214	1.000000	0.722955	7.36714e+06	-49339.1	955.818	-29759.7	0.000000	0.000000	6.722982	0.035416	NaN	0.000000	0.001641	0.001736	28.079	0.048930	0.001933	25.309	167.171	-164.105	0.010358	0.721690	-0.364926	-0.366192	0.035416	25.309	-0.365976	-43463.7	-8.148457E-7	NaN
214	1.000000	0.731004	7.36714e+06	-49339.1	955.817	-29759.7	0.000000	0.000000	6.731032	0.071708	NaN	0.000000	0.001702	0.001731	28.0791	0.029807	0.001977	15.0775	-117.363	-167.372	0.036743	0.729715	-0.356877	-0.358167	0.071708	15.0775	-0.360444	-36163.4	-1.982899E-6	NaN
214	1.000000	0.739002	7.36714e+06	-49339.1	955.819	-29759.7	0.000000	0.000000	6.739028	0.030566	NaN	0.000000	0.001711	0.001718	28.0779	0.039019	0.001986	19.6513	-140.114	-165.741	-0.007521	0.737699	-0.348880	-0.350183	0.030566	19.6513	-0.350046	-25566.7	-1.195543E-6	NaN
214	1.000000	0.747032	7.36714e+06	-49339.1	955.82	-29759.7	0.000000	0.000000	6.747057	0.008178	NaN	0.000000	0.001736	0.001724	28.0779	0.019030	0.002083	9.137847	-32.5846	-166.231	0.032107	0.745728	-0.340850	-0.342154	0.008178	9.137847	-0.341521	-19218.5	-4.255049E-7	NaN
214	1.000000	0.755003	7.36714e+06	-49339.1	955.818	-29759.7	0.000000	0.000000	6.755030	0.053772	NaN	0.000000	0.001671	0.001754	28.0779	0.057313	0.001864	30.7411	-0.413002	-167.389	0.096090	0.753716	-0.332879	-0.334166	0.053772	30.7411	-0.334191	-15023.1	-3.579286E-6	NaN
214	1.000000	0.763007	7.36714e+06	-49339.1	955.818	-29759.7	0.000000	0.000000	6.763032	0.004380	NaN	0.000000	0.001636	0.001723	28.0778	0.051418	0.002188	23.505	-70.3487	-165.97	0.051799	0.761754	-0.324874	-0.326128	0.004380	23.505	-0.325014	-11024.2	-3.972803E-7	NaN
214	1.000000	0.771054	7.36714e+06	-49339.1	955.819	-29759.7	0.000000	0.000000	6.771080	0.044830	NaN	0.000000	0.001626	0.001714	28.0799	0.038392	0.002043	18.7962	-178.754	-164.846	0.048519	0.769687	-0.316828	-0.318195	0.044830	18.7962	-0.318617	-8877.09	-5.050107E-6	NaN
214	1.000000	0.779047	7.36714e+06	-49339.1	955.818	-29759.7	0.000000	0.000000	6.779071	-0.017916	NaN	0.000000	0.001658	0.001715	28.0818	0.108549	0.001994	54.4404	-32.0234	-166.89	0.012617	0.777702	-0.308834	-0.310179	-0.017916	54.4404	-0.308588	-6311.67	2.838576E-6	NaN
214	1.000000	0.787051	7.36714e+06	-49339.1	955.818	-29759.7	0.000000	0.000000	6.787078	0.040372	NaN	0.000000	0.001639	0.001722	28.0789	0.063043	0.001927	32.7097	-5.896911	-164.694	0.011144	0.785694	-0.300830	-0.302187	0.040372	32.7097	-0.301756	-4997.57	-8.078363E-6	NaN
214	1.000000	0.795033	7.36714e+06	-49339.1	955.817	-29759.7	0.000000	0.000000	6.795060	0.070402	NaN	0.000000	0.001648	0.001720	28.079	0.015661	0.001986	7.887630	-138.555	-164.506	0.009884	0.793700	-0.292849	-0.294182	0.070402	7.887630	-0.299543	-4632.69	-1.519680E-5	NaN
214	1.000000	0.803051	7.36714e+06	-49339.1	955.817	-29759.7	0.000000	0.000000	6.803078	0.056660	NaN	0.000000	0.001595	0.001712	28.0778	0.052684	0.001997	26.3809	138.928	-166.464	0.104787	0.801700	-0.284831	-0.286181	0.056660	26.3809	-0.286442	-2950.74	-1.920204E-5	NaN
214	1.000000	0.811032	7.36714e+06	-49339.1	955.818	-29759.7	0.000000	0.000000	6.811057	-0.004786	NaN	0.000000	0.001635	0.001703	28.0778	0.067529	0.002027	33.319	-80.2569	-166.008	0.043954	0.809733	-0.276849	-0.278149	-0.004786	33.319	-0.276742	-2107.44	2.271009E-6	NaN
214	1.000000	0.819039	7.36714e+06	-49339.1	955.818	-29759.7	0.000000	0.000000	6.819068	0.098824	NaN	0.000000	0.001624	0.001698	28.0777	0.049047	0.002029	24.169	-152.027	-168.142	0.080143	0.817698	-0.268843	-0.270184	0.098824	24.169	-0.271909	-1780.53	-5.550294E-5	NaN
214	1.000000	0.827078	7.36714e+06	-49339.1	955.819	-29759.7	0.000000	0.000000	6.827102	0.000182	NaN	0.000000	0.001653	0.001721	28.0784	0.087323	0.002182	40.0169	-148.227	-171.101	0.007861	0.825774	-0.260804	-0.262107	0.000182	40.0169	-0.260807	-1205.84	-1.508201E-7	NaN
214	1.000000	0.835048	7.36714e+06	-49339.1	955.818	-29759.7	0.000000	0.000000	6.835074	0.031514	NaN	0.000000	0.001625	0.001710	28.0779	0.033516	0.002072	16.1745	-55.394	-167.956	0.037766	0.833713	-0.252834	-0.254168	0.031514	16.1745	-0.254295	-957.764	-3.290373E-5	NaN
214	1.000000	0.843073	7.36714e+06	-49339.1	955.819	-29759.7	0.000000	0.000000	6.843098	0.016775	NaN	0.000000	0.001651	0.001749	28.0777	0.118342	0.002038	58.0562	115.168	-165.7	0.019350	0.841704	-0.244809	-0.246178	0.016775	58.0562	-0.245026	-688.418	-2.436815E-5	NaN
214	1.000000	0.851057	7.36714e+06	-49339.1	955.819	-29759.7	0.000000	0.000000	6.851083	0.035876	NaN	0.000000	0.001667	0.001743	28.0778	0.071091	0.002024	35.1301	46.5059	-171.648	0.019834	0.849797	-0.236825	-0.238085	0.035876	35.1301	-0.237591	-527.08	-6.806612E-5	NaN
214	1.000000	0.859047	7.36714e+06	-49339.1	955.818	-29759.7	0.000000	0.000000	6.859075	0.089600	NaN	0.000000	0.001625	0.001734	28.078	0.058802	0.002062	28.5198	32.0144	-166.844	0.074967	0.857745	-0.228835	-0.230136	0.089600	28.5198	-0.231191	-418.127	-0.000214	NaN
214	1.000000	0.867052	7.36714e+06	-49339.1	955.818	-29759.7	0.000000	0.000000	6.867077	0.016175	NaN	0.000000	0.001655	0.001664	28.0783	0.050739	0.001976	25.6736	-177.268	-168.954	-0.019877	0.865782	-0.220830	-0.222099	0.016175	25.6736	-0.221302	-291.387	-5.551175E-5	NaN
214	1.000000	0.875058	7.36714e+06	-49339.1	955.818	-29759.7	0.000000	0.000000	6.875084	0.032045	NaN	0.000000	0.001638	0.001714	28.0792	0.042471	0.002024	20.9814	-73.7973	-165.653	-0.017890	0.873761	-0.212824	-0.214120	0.032045	20.9814	-0.213969	-222.291	-0.000144	NaN
214	1.000000	0.883063	7.36714e+06	-49339.1	955.818	-29759.7	0.000000	0.000000	6.883088	0.006255	NaN	0.000000	0.001624	0.001652	28.0791	0.118258	0.002057	57.4839	124.244	-169.707	-0.014922	0.881725	-0.204818	-0.206157	0.006255	57.4839	-0.204900	-158.463	-3.947391E-5	NaN
214	1.000000	0.891093	7.36714e+06	-49339.1	955.818	-29759.7	0.000000	0.000000	6.891118	8.544303E-5	NaN	0.000000	0.001642	0.001669	28.0791	0.090633	0.002055	44.0949	167.882	-167.988	-0.022621	0.889775	-0.196789	-0.198107	8.544303E-5	44.0949	-0.196790	-116.63	-7.325974E-7	NaN
214	1.000000	0.899065	7.36714e+06	-49339.1	955.818	-29759.7	0.000000	0.000000	6.899095	0.134115	NaN	0.000000	0.001661	0.001669	28.079	0.111601	0.001939	57.5622	37.9126	-167.975	0.091993	0.897803	-0.188817	-0.190079	0.134115	57.5622	-0.190564	-91.9273	-0.001459	NaN
214	1.000000	0.907087	7.36714e+06	-49339.1	955.818	-29759.7	0.000000	0.000000	6.907116	0.102877	NaN	0.000000	0.001668	0.001699	28.0791	0.123701	0.002038	60.7019	-69.5711	-165.731	0.084179	0.905786	-0.180794	-0.182095	0.102877	60.7019	-0.182065	-66.1506	-0.001555	NaN
214	1.000000	0.915101	7.36714e+06	-49339.1	955.818	-29759.7	0.000000	0.000000	6.915125	-0.007913	NaN	0.000000	0.001671	0.001702	28.0792	0.039208	0.001992	19.6852	-121.255	-165.688	-0.003904	0.913822	-0.172781	-0.174060	-0.007913	19.6852	-0.172479	-45.3474	0.000174	NaN
214	1.000000	0.923076	7.36714e+06	-49339.1	955.819	-29759.7	0.000000	0.000000	6.923104	0.064286	NaN	0.000000	0.001620	0.001693	28.0791	0.078063	0.001907	40.9255	155.068	-167.235	0.008984	0.921743	-0.164805	-0.166139	0.064286	40.9255	-0.165983	-34.9586	-0.001839	NaN
214	1.000000	0.931105	7.36714e+06	-49339.1	955.818	-29759.7	0.000000	0.000000	6.931130	-0.012623	NaN	0.000000	0.001639	0.001711	28.0793	0.123589	0.001960	63.0535	-172.158	-167.401	-0.009677	0.929836	-0.156776	-0.158046	-0.012623	63.0535	-0.156626	-23.866	0.000529	NaN
214	1.000000	0.939114	7.36714e+06	-49339.1	955.818	-29759.7	0.000000	0.000000	6.939143	0.095961	NaN	0.000000	0.001625	0.001729	28.0789	0.136652	0.002018	67.7284	-24.2805	-166.464	0.188196	0.937784	-0.148768	-0.150098	0.095961	67.7284	-0.149830	-17.9849	-0.005336	NaN
214	1.000000	0.947094	7.36714e+06	-49339.1	955.818	-29759.7	0.000000	0.000000	6.947119	-0.001619	NaN	0.000000	0.001638	0.001744	28.0791	0.033951	0.001945	17.4585	67.6076	-167.761	-0.044903	0.945851	-0.140787	-0.142031	-0.001619	17.4585	-0.140718	-12.2021	0.000133	NaN
214	1.000000	0.955128	7.36714e+06	-49339.1	955.817	-29759.7	0.000000	0.000000	6.955153	0.021322	NaN	0.000000	0.001637	0.001727	28.0792	0.127904	0.002052	62.3466	-67.1886	-163.457	0.060455	0.953764	-0.132754	-0.134117	0.021322	62.3466	-0.133010	-8.713181	-0.002447	NaN
214	1.000000	0.963121	7.36714e+06	-49339.1	955.818	-29759.7	0.000000	0.000000	6.963145	0.000317	NaN	0.000000	0.001643	0.001716	28.0791	0.052423	0.001993	26.299	34.1601	-168.992	0.098584	0.961790	-0.124761	-0.126092	0.000317	26.299	-0.124770	-6.017813	-5.266133E-5	NaN
214	1.000000	0.971130	7.36714e+06	-49339.1	955.819	-29759.7	0.000000	0.000000	6.971157	0.040195	NaN	0.000000	0.001652	0.001758	28.0794	0.158849	0.001918	82.806	-75.0028	-166.803	0.150638	0.969815	-0.116751	-0.118066	0.040195	82.806	-0.117115	-4.221944	-0.009520	NaN
214	1.000000	0.979088	7.36714e+06	-49339.1	955.818	-29759.7	0.000000	0.000000	6.979116	0.072377	NaN	0.000000	0.001626	0.001748	28.0791	0.059166	0.001979	29.9008	-3.215989	-166.002	0.047272	0.977861	-0.108793	-0.110020	0.072377	29.9008	-0.110609	-3.095191	-0.023384	NaN
214	1.000000	0.987135	7.36714e+06	-49339.1	955.819	-29759.7	0.000000	0.000000	6.987159	-0.021040	NaN	0.000000	0.001630	0.001733	28.0793	0.096205	0.002005	47.9891	129.757	-163.792	-0.070805	0.985801	-0.100746	-0.102080	-0.021040	47.9891	-0.100418	-1.866460	0.011273	NaN
214	1.000000	0.995117	7.36714e+06	-49339.1	955.818	-29759.7	0.000000	0.000000	6.995142	-0.001506	NaN	0.000000	0.001606	0.001728	28.0791	0.081368	0.001981	41.0712	-110.255	-164.824	-0.015051	0.993845	-0.092764	-0.094037	-0.001506	41.0712	-0.092737	-1.251716	0.001204	NaN
214	1.000000	1.003133	7.36714e+06	-49339.1	955.818	-29759.7	0.000000	0.000000	7.003158	0.024250	NaN	0.000000	0.001632	0.001715	28.0795	0.027473	0.001904	14.4277	15.4427	-164.615	-0.001053	1.001820	-0.084749	-0.086062	0.024250	14.4277	-0.086009	-0.869024	-0.027905	NaN
214	1.000000	1.011100	7.36714e+06	-49339.1	955.819	-29759.7	0.000000	0.000000	7.011127	0.043739	NaN	0.000000	0.001676	0.001731	28.0783	0.043935	0.002010	21.8585	-7.673011	-168.175	0.043936	1.009780	-0.076781	-0.078101	0.043739	21.8585	-0.078282	-0.560374	-0.078054	NaN
214	1.000000	1.019099	7.36714e+06	-49339.1	955.819	-29759.7	0.000000	0.000000	7.019128	0.086225	NaN	0.000000	0.001659	0.001737	28.0782	0.065539	0.001994	32.8661	-179.958	-166.438	0.027444	1.017841	-0.068782	-0.070041	0.086225	32.8661	-0.070750	-0.357211	-0.241383	NaN
214	1.000000	1.027133	7.36714e+06	-49339.1	955.819	-29759.7	0.000000	0.000000	7.027161	0.092267	NaN	0.000000	0.001648	0.001719	28.0783	0.062253	0.001964	31.6907	86.9113	-165.193	0.021361	1.025832	-0.060749	-0.062049	0.092267	31.6907	-0.062933	-0.218181	-0.422893	NaN
214	1.000000	1.035114	7.36714e+06	-49339.1	955.819	-29759.7	0.000000	0.000000	7.035139	0.026972	NaN	0.000000	0.001654	0.001739	28.078	0.059182	0.001978	29.9222	-45.5596	-165.492	-0.011647	1.033804	-0.052768	-0.054078	0.026972	29.9222	-0.053444	-0.115787	-0.232945	NaN
214	1.000000	1.043151	7.36714e+06	-49339.1	955.82	-29759.7	0.000000	0.000000	7.043177	0.036793	NaN	0.000000	0.001728	0.001762	28.078	0.069258	0.001999	34.6409	175.06	-167.296	0.029060	1.041836	-0.044731	-0.046046	0.036793	34.6409	-0.045527	-0.066698	-0.551633	NaN
214	1.000000	1.051155	7.36714e+06	-49339.1	955.817	-29759.7	0.000000	0.000000	7.051182	0.043544	NaN	0.000000	0.001663	0.001752	28.078	0.086077	0.001957	43.9747	75.0333	-167.515	0.049462	1.049824	-0.036727	-0.038058	0.043544	43.9747	-0.037469	-0.037924	-1.148186	NaN
214	1.000000	1.059131	7.36714e+06	-49339.1	955.819	-29759.7	0.000000	0.000000	7.059157	0.034516	NaN	0.000000	0.001653	0.001716	28.0781	0.113417	0.002016	56.2569	75.0599	-166.456	0.046325	1.057855	-0.028751	-0.030026	0.034516	56.2569	-0.029211	-0.021883	-1.577335	NaN
214	1.000000	1.067164	7.36714e+06	-49339.1	955.819	-29759.7	0.000000	0.000000	7.067191	0.045373	NaN	0.000000	0.001649	0.001720	28.0783	0.011591	0.001978	5.858607	-108.557	-164.289	-0.080035	1.065827	-0.020718	-0.022054	0.045373	5.858607	-0.026526	-0.018508	-2.451564	NaN
214	1.000000	1.075179	7.36714e+06	-49339.1	955.818	-29759.7	0.000000	0.000000	7.075206	0.044640	NaN	0.000000	0.001666	0.001711	28.0781	0.068913	0.001999	34.4784	132.485	-165.679	-0.010082	1.073803	-0.012703	-0.014078	0.044640	34.4784	-0.013674	-0.008493	-5.256343	NaN
214	1.000000	1.083142	7.36714e+06	-49339.1	955.818	-29759.7	0.000000	0.000000	7.083170	0.065174	NaN	0.000000	0.001646	0.001726	28.0779	0.018021	0.001862	9.678294	-58.9724	-167.305	0.052855	1.081859	-0.004739	-0.006022	0.065174	9.678294	-0.009790	-0.006267	-10.3996	NaN
214	1.000000	1.091130	7.36714e+06	-49339.1	955.819	-29759.7	0.000000	0.000000	7.091307	3.701379	NaN	0.000000	0.001646	0.001718	28.0779	4.554936	0.001752	2599.45	5.242412	-167.668	2.067067	1.089799	0.003248	0.001918	3.701379	2599.45	0.002181	0.001701	2175.59	57578.7
214	2.000000	1.095713	7.36714e+06	-49339.1	955.818	-29759.7	0.000000	0.000000	7.096162	10.3317	NaN	0.000000	0.001644	0.001724	28.0779	8.986573	0.001669	5383.79	7.991373	-175.199	9.917146	1.095364	0.007831	0.007482	10.3317	5383.79	0.006392	0.005440	1899.3	66691.9
214	2.000000	1.097708	7.36714e+06	-49339.1	955.819	-29759.7	0.000000	0.000000	7.098308	13.9991	NaN	0.000000	0.001665	0.001733	28.078	11.3103	0.001753	6451.43	8.270115	-174.488	14.0374	1.097391	0.009826	0.009509	13.9991	6451.43	0.008199	0.007248	1931.51	69235.3
214	2.000000	1.099686	7.36714e+06	-49339.1	955.818	-29759.7	0.000000	0.000000	7.100388	16.4771	NaN	0.000000	0.001638	0.001733	28.0781	13.0454	0.001724	7566.89	8.313917	-176.662	16.5708	1.099377	0.011805	0.011495	16.4771	7566.89	0.010172	0.009373	1757.98	71409.7
214	2.000000	1.101658	7.36714e+06	-49339.1	955.82	-29759.7	0.000000	0.000000	7.102499	19.8367	NaN	0.000000	0.001643	0.001715	28.0781	15.3392	0.001806	8494.28	6.035242	-175.848	19.2078	1.101311	0.013777	0.013429	19.8367	8494.28	0.012025	0.011520	1721.9	72305.1
214	2.000000	1.103630	7.36714e+06	-49339.1	955.819	-29759.7	0.000000	0.000000	7.104646	24.114	NaN	0.000000	0.001670	0.001714	28.078	16.6326	0.001780	9346.69	4.921967	-175.971	23.0698	1.103304	0.015748	0.015423	24.114	9346.69	0.013813	0.013735	1755.66	72864.5
214	2.000000	1.105616	7.36714e+06	-49339.1	955.819	-29759.7	0.000000	0.000000	7.106775	27.5873	NaN	0.000000	0.001642	0.001679	28.0783	18.0091	0.001796	10025	4.981446	-175.433	26.9465	1.105274	0.017734	0.017392	27.5873	10025	0.015670	0.016190	1704.02	71985
214	2.000000	1.107626	7.36714e+06	-49339.1	955.82	-29759.7	0.000000	0.000000	7.108929	31.0983	NaN	0.000000	0.001622	0.001723	28.0788	19.936	0.001792	11125.2	7.656278	-177.949	30.8079	1.107251	0.019744	0.019369	31.0983	11125.2	0.017648	0.018980	1638.48	73779
214	2.000000	1.109616	7.36714e+06	-49339.1	955.819	-29759.7	0.000000	0.000000	7.111022	33.5995	NaN	0.000000	0.001656	0.001724	28.0794	21.6025	0.001846	11701.6	6.044876	-178.257	33.8483	1.109338	0.021735	0.021456	33.5995	11701.6	0.019581	0.021888	1535.04	72262.5
214	2.000000	1.111612	7.36714e+06	-49339.1	955.819	-29759.7	0.000000	0.000000	7.113311	40.7348	NaN	0.000000	0.001655	0.001713	28.0793	23.7689	0.001768	13446.3	5.489746	-178.966	39.6445	1.111256	0.023730	0.023374	40.7348	13446.3	0.021458	0.024885	1636.9	77875.9
214	2.000000	1.113595	7.36714e+06	-49339.1	955.819	-29759.7	0.000000	0.000000	7.115501	45.7348	NaN	0.000000	0.001645	0.001734	28.0791	24.5793	0.001841	13351	5.192735	-177.931	45.7636	1.113297	0.025714	0.025415	45.7348	13351	0.023145	0.027727	1649.48	73255
214	2.000000	1.115584	7.36714e+06	-49339.1	955.819	-29759.7	0.000000	0.000000	7.117729	51.5544	NaN	0.000000	0.001699	0.001724	28.0796	27.0893	0.001720	15747.6	2.230274	-177.077	49.9846	1.115251	0.027703	0.027370	51.5544	15747.6	0.025247	0.031467	1638.36	81107
214	2.000000	1.117625	7.36714e+06	-49339.1	955.821	-29759.7	0.000000	0.000000	7.119991	56.9605	NaN	0.000000	0.001695	0.001767	28.0791	30.1306	0.001884	15989.1	7.329747	178.482	55.8256	1.117294	0.029743	0.029413	56.9605	15989.1	0.027071	0.034892	1632.5	78205.2
214	2.000000	1.119572	7.36714e+06	-49339.1	955.821	-29759.7	0.000000	0.000000	7.122270	65.015	NaN	0.000000	0.001702	0.001745	28.0793	31.1591	0.001692	18419.1	1.198008	-177.606	64.1855	1.119242	0.031691	0.031361	65.015	18419.1	0.029043	0.038784	1676.33	85450.8
214	2.000000	1.121574	7.36714e+06	-49339.1	955.821	-29759.7	0.000000	0.000000	7.124448	69.2867	NaN	0.000000	0.001696	0.001722	28.0795	34.0746	0.001810	18825.4	5.513140	177.803	68.6494	1.121286	0.033693	0.033404	69.2867	18825.4	0.030932	0.042698	1622.72	83236.4
214	2.000000	1.123536	7.36714e+06	-49339.1	955.821	-29759.7	0.000000	0.000000	7.126878	80.6826	NaN	0.000000	0.001675	0.001771	28.0792	35.6007	0.001801	19770.5	8.635197	174.656	78.5183	1.123183	0.035654	0.035302	80.6826	19770.5	0.032594	0.046291	1742.93	83954
214	2.000000	1.125556	7.36714e+06	-49339.1	955.819	-29759.7	0.000000	0.000000	7.128988	82.8564	NaN	0.000000	0.001679	0.001735	28.0796	38.3994	0.001797	21367	4.398517	177.094	80.7858	1.125300	0.037675	0.037418	82.8564	21367	0.034766	0.051203	1618.19	86271.5
214	2.000000	1.127626	7.36714e+06	-49339.1	955.819	-29759.7	0.000000	0.000000	7.131408	91.3717	NaN	0.000000	0.001652	0.001786	28.0794	40.3884	0.001826	22121.6	8.042887	175.07	91.2874	1.127230	0.039745	0.039348	91.3717	22121.6	0.036647	0.055650	1641.9	85675.7
214	2.000000	1.129555	7.36714e+06	-49339.1	955.819	-29759.7	0.000000	0.000000	7.133589	97.5274	NaN	0.000000	0.001629	0.001768	28.0793	41.5469	0.001732	23990.8	7.657806	172.836	97.3801	1.129332	0.041673	0.041451	97.5274	23990.8	0.038624	0.060521	1611.46	89097.2
214	2.000000	1.131565	7.36714e+06	-49339.1	955.819	-29759.7	0.000000	0.000000	7.135778	101.857	NaN	0.000000	0.001639	0.001747	28.0794	43.8441	0.001837	23860.9	1.222845	-179.897	99.898	1.131312	0.043683	0.043431	101.857	23860.9	0.040482	0.065279	1560.33	85324.4
214	2.000000	1.133567	7.36714e+06	-49339.1	955.82	-29759.7	0.000000	0.000000	7.138355	115.852	NaN	0.000000	0.001648	0.001781	28.0792	46.0827	0.001754	26278.4	9.558818	171.186	114.648	1.133154	0.045686	0.045272	115.852	26278.4	0.042379	0.070321	1647.46	90537.6
214	2.000000	1.135604	7.36714e+06	-49339.1	955.819	-29759.7	0.000000	0.000000	7.140609	121.109	NaN	0.000000	0.001648	0.001728	28.0801	47.6938	0.001908	24994.6	5.263563	175.752	122.507	1.135305	0.047723	0.047423	121.109	24994.6	0.044089	0.075021	1614.33	83373.3
214	2.000000	1.137590	7.36714e+06	-49339.1	955.819	-29759.7	0.000000	0.000000	7.142905	128.658	NaN	0.000000	0.001622	0.001716	28.0793	48.725	0.001873	26011.8	3.361636	177.888	127.886	1.137295	0.049708	0.049413	128.658	26011.8	0.045999	0.080447	1599.29	83789.3
214	2.000000	1.139482	7.36714e+06	-49339.1	955.82	-29759.7	0.000000	0.000000	7.145328	141.582	NaN	0.000000	0.001634	0.001723	28.0793	50.2519	0.001770	28388.7	3.034145	176	137.914	1.139236	0.051600	0.051355	141.582	28388.7	0.047860	0.085913	1647.98	88489.3
214	2.000000	1.141500	7.36714e+06	-49339.1	955.819	-29759.7	0.000000	0.000000	7.147734	151.022	NaN	0.000000	0.001664	0.001746	28.0788	52.6532	0.001826	28834.6	4.940359	174.624	147.542	1.141180	0.053618	0.053298	151.022	28834.6	0.049690	0.091457	1651.29	87112.2
214	2.000000	1.143523	7.36714e+06	-49339.1	955.819	-29759.7	0.000000	0.000000	7.150031	157.672	NaN	0.000000	0.001656	0.001743	28.0779	53.2422	0.001749	30433.6	5.955974	173.734	156.232	1.143208	0.055642	0.055327	157.672	30433.6	0.051756	0.097919	1610.23	88857.4
214	2.000000	1.145533	7.36714e+06	-49339.1	955.82	-29759.7	0.000000	0.000000	7.152505	168.961	NaN	0.000000	0.001643	0.001757	28.0787	55.8004	0.001796	31077.6	5.653025	173.981	168.547	1.145190	0.057651	0.057309	168.961	31077.6	0.053574	0.103779	1628.09	88138.6
214	2.000000	1.147554	7.36714e+06	-49339.1	955.82	-29759.7	0.000000	0.000000	7.154890	177.805	NaN	0.000000	0.001655	0.001744	28.0779	57.7001	0.001771	32576.2	5.867679	173.586	175.606	1.147252	0.059673	0.059371	177.805	32576.2	0.055579	0.110435	1610.04	89561
214	2.000000	1.149531	7.36714e+06	-49339.1	955.82	-29759.7	0.000000	0.000000	7.157340	189.296	NaN	0.000000	0.001671	0.001749	28.078	58.816	0.001656	35515.2	3.263081	174.264	187.218	1.149219	0.061650	0.061337	189.296	35515.2	0.057652	0.117525	1610.68	94650.3
214	2.000000	1.151536	7.36714e+06	-49339.1	955.82	-29759.7	0.000000	0.000000	7.159583	195.109	NaN	0.000000	0.001668	0.001740	28.0781	62.2348	0.001837	33873.3	3.758768	174.815	195.442	1.151309	0.063655	0.063427	195.109	33873.3	0.059335	0.123433	1580.69	88087.8
214	2.000000	1.153508	7.36715e+06	-49339.1	955.82	-29759.7	0.000000	0.000000	7.162139	209.311	NaN	0.000000	0.001677	0.001735	28.0778	62.7328	0.001810	34659.4	2.065117	176.373	208.114	1.153272	0.065626	0.065390	209.311	34659.4	0.061097	0.129772	1612.91	87903
214	2.000000	1.155508	7.36715e+06	-49339.1	955.82	-29759.7	0.000000	0.000000	7.164699	222.933	NaN	0.000000	0.001673	0.001759	28.0782	65.6569	0.001842	35647.8	1.807708	177.03	221.037	1.155152	0.067626	0.067270	222.933	35647.8	0.062936	0.136546	1632.66	88138.6
214	2.000000	1.157498	7.36715e+06	-49339.1	955.819	-29759.7	0.000000	0.000000	7.167359	239.214	NaN	0.000000	0.001675	0.001731	28.0778	68.305	0.001875	36434.6	4.666789	173.835	238.221	1.157238	0.069616	0.069356	239.214	36434.6	0.064692	0.143169	1670.85	87975.7
214	2.000000	1.159626	7.36715e+06	-49339.1	955.82	-29759.7	0.000000	0.000000	7.169987	251.379	NaN	0.000000	0.001655	0.001722	28.078	69.6802	0.001856	37535.6	10.1697	169.237	254.186	1.159092	0.071744	0.071211	251.379	37535.6	0.066722	0.151008	1664.67	88250.4
214	2.000000	1.161525	7.36715e+06	-49339.1	955.821	-29759.7	0.000000	0.000000	7.172272	260.789	NaN	0.000000	0.001643	0.001756	28.078	72.8453	0.001797	40544	4.420416	172.801	259.101	1.161180	0.073643	0.073299	260.789	40544	0.068819	0.159316	1636.93	92804.6
214	2.000000	1.163507	7.36715e+06	-49339.1	955.821	-29759.7	0.000000	0.000000	7.174728	272.288	NaN	0.000000	0.001662	0.001739	28.0777	73.4162	0.001841	39886.1	3.077310	174.43	271.443	1.163198	0.075626	0.075316	272.288	39886.1	0.070506	0.166152	1638.79	89400.9
214	2.000000	1.165437	7.36715e+06	-49339.1	955.821	-29759.7	0.000000	0.000000	7.177245	286.566	NaN	0.000000	0.001687	0.001729	28.0779	75.5595	0.001733	43601.3	4.364763	172.117	281.109	1.165161	0.077556	0.077279	286.566	43601.3	0.072627	0.174937	1638.11	95242.8
214	2.000000	1.167536	7.36715e+06	-49339.1	955.819	-29759.7	0.000000	0.000000	7.179663	294.325	NaN	0.000000	0.001666	0.001735	28.0778	77.9397	0.001813	42997.3	4.687555	171.62	292.105	1.167324	0.079654	0.079443	294.325	42997.3	0.074521	0.182962	1608.67	91840.5
214	2.000000	1.169477	7.36715e+06	-49339.1	955.82	-29759.7	0.000000	0.000000	7.182628	319.232	NaN	0.000000	0.001669	0.001747	28.0783	78.7102	0.001756	44831.9	1.218541	175.273	316.45	1.169178	0.081595	0.081297	319.232	44831.9	0.076254	0.190457	1676.14	93856
214	2.000000	1.171453	7.36715e+06	-49339.1	955.82	-29759.7	0.000000	0.000000	7.184860	325.461	NaN	0.000000	0.001672	0.001694	28.078	80.6635	0.001780	45327.9	1.837471	174.514	321.139	1.171288	0.083572	0.083406	325.461	45327.9	0.078187	0.198975	1635.69	92841
214	2.000000	1.173576	7.36715e+06	-49339.1	955.82	-29759.7	0.000000	0.000000	7.187819	345.791	NaN	0.000000	0.001641	0.001685	28.0778	81.6418	0.001771	46102.8	2.131560	174.785	346.908	1.173123	0.085694	0.085242	345.791	46102.8	0.080069	0.207441	1666.94	92481.3
214	2.000000	1.175444	7.36715e+06	-49339.1	955.82	-29759.7	0.000000	0.000000	7.190272	360	NaN	0.000000	0.001691	0.001683	28.078	84.9794	0.001754	48461.2	5.412742	170.048	354.402	1.175126	0.087563	0.087244	360	48461.2	0.081991	0.216258	1664.68	95209.7
214	2.000000	1.177576	7.36715e+06	-49339.1	955.82	-29759.7	0.000000	0.000000	7.192925	372.701	NaN	0.000000	0.001667	0.001671	28.0794	87.8886	0.001871	46975.9	5.970616	170.471	372.382	1.177180	0.089694	0.089299	372.701	46975.9	0.083744	0.224445	1660.55	90592.8
214	2.000000	1.179589	7.36715e+06	-49339.1	955.821	-29759.7	0.000000	0.000000	7.195412	384.227	NaN	0.000000	0.001693	0.001683	28.0797	88.4787	0.001779	49740.6	2.416095	173.596	390.662	1.179202	0.091707	0.091320	384.227	49740.6	0.085914	0.234780	1636.54	93789.5
214	2.000000	1.181484	7.36715e+06	-49339.1	955.821	-29759.7	0.000000	0.000000	7.198276	407.794	NaN	0.000000	0.001651	0.001678	28.0793	90.8902	0.001803	50403	7.494320	169.281	406.59	1.181130	0.093602	0.093249	407.794	50403	0.087534	0.242640	1680.66	93486.4
214	2.000000	1.183428	7.36715e+06	-49339.1	955.821	-29759.7	0.000000	0.000000	7.201059	428.19	NaN	0.000000	0.001644	0.001688	28.0791	91.5776	0.001769	51754.8	7.090670	169.033	423.43	1.183082	0.095546	0.095200	428.19	51754.8	0.089341	0.251544	1702.25	94279.4
214	2.000000	1.185419	7.36715e+06	-49339.1	955.822	-29759.7	0.000000	0.000000	7.203347	435.409	NaN	0.000000	0.001660	0.001705	28.0791	94.209	0.001799	52370.3	5.753121	169.819	429.175	1.185023	0.097538	0.097141	435.409	52370.3	0.091302	0.261380	1665.81	93588.4
214	2.000000	1.187494	7.36715e+06	-49339.1	955.821	-29759.7	0.000000	0.000000	7.206301	456.775	NaN	0.000000	0.001607	0.001671	28.0792	95.1013	0.001804	52725.7	4.216497	171.173	454.204	1.187169	0.099613	0.099288	456.775	52725.7	0.093115	0.270629	1687.83	92599.5
214	2.000000	1.189473	7.36715e+06	-49339.1	955.82	-29759.7	0.000000	0.000000	7.208954	473.192	NaN	0.000000	0.001654	0.001684	28.0795	96.3608	0.001721	55980.2	4.273264	170.672	470.371	1.189171	0.101591	0.101290	473.192	55980.2	0.095252	0.281721	1679.65	96360.3
214	2.000000	1.191550	7.36715e+06	-49339.1	955.82	-29759.7	0.000000	0.000000	7.211671	488.738	NaN	0.000000	0.001668	0.001689	28.0793	99.4694	0.001826	54481.7	4.905723	170.31	490.255	1.191203	0.103669	0.103321	488.738	54481.7	0.096941	0.290639	1681.6	92330.9
214	2.000000	1.192969	7.36715e+06	-49339.1	955.821	-29759.7	0.000000	0.000000	7.213758	505.007	NaN	0.000000	0.001653	0.001733	28.0795	99.7776	0.001727	57783.9	4.947414	-10.0652	499.647	1.192551	0.105087	0.104669	505.007	57783.9	0.098532	0.299160	1688.09	96522.5