File: remote_trans/data/nanoindenter/0828-1/data/Data_2025-08-06,11h17m57s/2025-07-22_16-23-58_1_701.txt
2025-07-22, 16:23:58, 1
Index	Phase	Displacement	Time	Pos X	Pos Y	Pos Z	Rot A	Rot B	Piezo Z	Force A	Force B	Gripper	Voltage A	Voltage B	Temperature	Amplitude force	Amplitude pos	Stiffness	Phase shift	Phase excitation	Force A raw	Displacement raw	HMax	HMax raw	Real Force	Real Stiffness	Contact Depth	Area	Hardness	Reduced Mod.
[#]	[#]	[um]	[s]	[um]	[um]	[um]	[m°]	[m°]	[um]	[uN]	[uN]	[V]	[V]	[V]	[°C]	[uN]	[um]	[N/m]	[°]	[°]	[uN]	[um]	[um]	[um]	[uN]	[N/m]	[um]	[um^2]	[MPa]	[MPa]
701	1.000000	0.002369	7.37191e+06	-42039.1	1005.82	-29784	0.000000	0.000000	6.002819	0.058667	NaN	0.000000	0.001573	0.001746	28.0825	0.173492	0.001079	160.825	129.141	-163.75	0.045489	0.001055	-1.124514	-1.125828	0.058667	160.825	-1.124788	-1.078222E+15	-5.441095E-17	NaN
701	1.000000	0.012407	7.37191e+06	-42039.1	1005.82	-29784	0.000000	0.000000	6.012856	0.011417	NaN	0.000000	0.001606	0.001726	28.081	0.075894	0.001122	67.6223	9.320927	23.1782	0.041780	0.010923	-1.114476	-1.115960	0.011417	67.6223	-1.114603	-7.871496E+14	-1.450480E-17	NaN
701	1.000000	0.022330	7.37191e+06	-42039.1	1005.82	-29784	0.000000	0.000000	6.022779	0.012806	NaN	0.000000	0.001616	0.001726	28.0812	0.041486	0.001697	24.4473	-25.2205	-162.656	-0.056627	0.020961	-1.104553	-1.105922	0.012806	24.4473	-1.104946	-5.840584E+14	-2.192512E-17	NaN
701	1.000000	0.032316	7.37191e+06	-42039.1	1005.82	-29784	0.000000	0.000000	6.032763	-0.035104	NaN	0.000000	0.001599	0.001719	28.0811	0.066799	0.001833	36.4466	-154.917	16.6768	-0.023850	0.030961	-1.094567	-1.095922	-0.035104	36.4466	-1.093844	-4.144088E+14	8.470835E-17	NaN
701	1.000000	0.042296	7.37191e+06	-42039.1	1005.82	-29784	0.000000	0.000000	6.042744	-0.027761	NaN	0.000000	0.001603	0.001723	28.0814	0.043653	0.002009	21.733	176.082	-165.737	-0.045315	0.041024	-1.084587	-1.085859	-0.027761	21.733	-1.083629	-3.021706E+14	9.187212E-17	NaN
701	1.000000	0.052285	7.37191e+06	-42039.1	1005.82	-29784	0.000000	0.000000	6.052733	-0.013662	NaN	0.000000	0.001656	0.001729	28.081	0.056279	0.002097	26.8408	-174.764	12.0851	0.004142	0.050897	-1.074598	-1.075986	-0.013662	26.8408	-1.074216	-2.258536E+14	6.048999E-17	NaN
701	1.000000	0.062300	7.37191e+06	-42039.1	1005.82	-29784	0.000000	0.000000	6.062749	0.005864	NaN	0.000000	0.001608	0.001724	28.0808	0.116830	0.002063	56.6243	-27.2139	-162.983	0.016374	0.061034	-1.064583	-1.065849	0.005864	56.6243	-1.064661	-1.680558E+14	-3.489494E-17	NaN
701	1.000000	0.072305	7.37191e+06	-42039.1	1005.82	-29784	0.000000	0.000000	6.072755	0.030527	NaN	0.000000	0.001615	0.001700	28.0808	0.037454	0.002092	17.9041	-72.9675	17.2252	-0.003707	0.070916	-1.054578	-1.055967	0.030527	17.9041	-1.055856	-1.279768E+14	-2.385320E-16	NaN
701	1.000000	0.082316	7.37191e+06	-42039.1	1005.82	-29784	0.000000	0.000000	6.082763	-0.023621	NaN	0.000000	0.001639	0.001726	28.0814	0.050572	0.002014	25.106	145.927	-161.469	-0.024080	0.081053	-1.044567	-1.045830	-0.023621	25.106	-1.043862	-8.828601E+13	2.675544E-16	NaN
701	1.000000	0.092345	7.37191e+06	-42039.1	1005.82	-29784	0.000000	0.000000	6.092794	0.008457	NaN	0.000000	0.001624	0.001721	28.0812	0.140750	0.001998	70.4337	126.924	11.7253	0.045984	0.090956	-1.034538	-1.035927	0.008457	70.4337	-1.034628	-6.633304E+13	-1.274876E-16	NaN
701	1.000000	0.102322	7.37191e+06	-42039.1	1005.82	-29784	0.000000	0.000000	6.102771	0.026176	NaN	0.000000	0.001619	0.001704	28.0811	0.024979	0.001977	12.6371	31.7095	-162.234	0.072026	0.101018	-1.024561	-1.025865	0.026176	12.6371	-1.026115	-5.095908E+13	-5.136766E-16	NaN
701	1.000000	0.112310	7.37191e+06	-42039.1	1005.82	-29784	0.000000	0.000000	6.112756	-0.048284	NaN	0.000000	0.001638	0.001695	28.0813	0.051733	0.001892	27.344	126.966	13.6403	-0.007930	0.110954	-1.014573	-1.015929	-0.048284	27.344	-1.013249	-3.420629E+13	1.411550E-15	NaN
701	1.000000	0.122355	7.37191e+06	-42039.1	1005.82	-29784	0.000000	0.000000	6.122801	-0.052422	NaN	0.000000	0.001594	0.001708	28.0813	0.049130	0.002025	24.2663	-163.043	-164.832	-0.015193	0.121015	-1.004528	-1.005868	-0.052422	24.2663	-1.002908	-2.482678E+13	2.111531E-15	NaN
701	1.000000	0.132318	7.37191e+06	-42039.1	1005.82	-29784	0.000000	0.000000	6.132767	-0.008223	NaN	0.000000	0.001617	0.001711	28.0812	0.088500	0.002030	43.594	171.99	15.724	0.020061	0.130995	-0.994565	-0.995888	-0.008223	43.594	-0.994423	-1.908435E+13	4.308950E-16	NaN
701	1.000000	0.142318	7.37191e+06	-42039.1	1005.82	-29784	0.000000	0.000000	6.142766	-0.001847	NaN	0.000000	0.001625	0.001687	28.0812	0.111614	0.001903	58.649	37.162	-164.733	0.014556	0.141040	-0.984565	-0.985843	-0.001847	58.649	-0.984541	-1.404722E+13	1.315099E-16	NaN
701	1.000000	0.152332	7.37191e+06	-42039.1	1005.82	-29784	0.000000	0.000000	6.152780	-0.017437	NaN	0.000000	0.001619	0.001708	28.0824	0.038400	0.002064	18.6087	160.747	16.1833	-0.007886	0.150946	-0.974551	-0.975937	-0.017437	18.6087	-0.973848	-1.008137E+13	1.729617E-15	NaN
701	1.000000	0.162319	7.37191e+06	-42039.1	1005.82	-29784	0.000000	0.000000	6.162767	0.001371	NaN	0.000000	0.001621	0.001701	28.0821	0.095604	0.002016	47.4261	35.9384	-165.732	-0.017584	0.160993	-0.964564	-0.965890	0.001371	47.4261	-0.964586	-7.562890E+12	-1.812594E-16	NaN
701	1.000000	0.172330	7.37191e+06	-42039.1	1005.82	-29784	0.000000	0.000000	6.172777	-0.036755	NaN	0.000000	0.001645	0.001706	28.0827	0.070066	0.001981	35.3727	93.7397	19.3629	-0.006248	0.170934	-0.954553	-0.955949	-0.036755	35.3727	-0.953774	-5.406511E+12	6.798354E-15	NaN
701	1.000000	0.182360	7.37191e+06	-42039.1	1005.82	-29784	0.000000	0.000000	6.182805	-0.083796	NaN	0.000000	0.001698	0.001660	28.0825	0.031756	0.002002	15.8651	-172.209	-165.625	-0.084879	0.181069	-0.944523	-0.945814	-0.083796	15.8651	-0.940562	-3.586885E+12	2.336186E-14	NaN
701	1.000000	0.192355	7.37191e+06	-42039.1	1005.82	-29784	0.000000	0.000000	6.192804	0.025509	NaN	0.000000	0.001703	0.001680	28.0825	0.087019	0.001838	47.3528	7.309244	12.6259	0.036767	0.191021	-0.934528	-0.935862	0.025509	47.3528	-0.934932	-3.011342E+12	-8.471047E-15	NaN
701	1.000000	0.202345	7.37191e+06	-42039.1	1005.82	-29784	0.000000	0.000000	6.202793	-0.006081	NaN	0.000000	0.001690	0.001697	28.0822	0.068047	0.001959	34.737	66.3618	-164.338	0.071476	0.201072	-0.924538	-0.925811	-0.006081	34.737	-0.924407	-2.171205E+12	2.800711E-15	NaN
701	1.000000	0.212394	7.37191e+06	-42039.1	1005.82	-29784	0.000000	0.000000	6.212844	0.032902	NaN	0.000000	0.001624	0.001686	28.0822	0.073851	0.002020	36.5576	-52.1926	13.11	-0.002425	0.211056	-0.914489	-0.915827	0.032902	36.5576	-0.915164	-1.628920E+12	-2.019843E-14	NaN
701	1.000000	0.222361	7.37191e+06	-42039.1	1005.82	-29784	0.000000	0.000000	6.222809	-0.027499	NaN	0.000000	0.001631	0.001659	28.0824	0.061145	0.002014	30.3554	65.4395	-167.91	-0.037291	0.221041	-0.904522	-0.905842	-0.027499	30.3554	-0.903842	-1.145465E+12	2.400712E-14	NaN
701	1.000000	0.232371	7.37191e+06	-42039.1	1005.82	-29784	0.000000	0.000000	6.232820	0.021614	NaN	0.000000	0.001580	0.001718	28.0824	0.117482	0.001954	60.1103	138.314	13.6057	-0.017092	0.230991	-0.894512	-0.895892	0.021614	60.1103	-0.894782	-8.640775E+11	-2.501422E-14	NaN
701	1.000000	0.242358	7.37191e+06	-42039.1	1005.82	-29784	0.000000	0.000000	6.242807	-0.007542	NaN	0.000000	0.001598	0.001689	28.0825	0.108568	0.002035	53.3443	-128.005	-167.904	0.097563	0.241052	-0.884525	-0.885831	-0.007542	53.3443	-0.884419	-6.258309E+11	1.205187E-14	NaN
701	1.000000	0.252378	7.37191e+06	-42039.1	1005.82	-29784	0.000000	0.000000	6.252825	-0.035123	NaN	0.000000	0.001633	0.001718	28.0824	0.024903	0.002005	12.4177	-150.732	16.3956	-0.027255	0.251016	-0.874505	-0.875867	-0.035123	12.4177	-0.872383	-4.302151E+11	8.164080E-14	NaN
701	1.000000	0.262398	7.37191e+06	-42039.1	1005.82	-29784	0.000000	0.000000	6.262848	0.037777	NaN	0.000000	0.001660	0.001710	28.0828	0.040931	0.001991	20.56	-60.476	-165.264	-0.016302	0.261099	-0.864485	-0.865784	0.037777	20.56	-0.865863	-3.511335E+11	-1.075851E-13	NaN
701	1.000000	0.272405	7.37191e+06	-42039.1	1005.82	-29784	0.000000	0.000000	6.272855	0.025816	NaN	0.000000	0.001578	0.001721	28.0825	0.032019	0.001930	16.5914	159.528	18.044	-0.003305	0.271020	-0.854478	-0.855863	0.025816	16.5914	-0.855645	-2.553696E+11	-1.010942E-13	NaN
701	1.000000	0.282392	7.37191e+06	-42039.1	1005.82	-29784	0.000000	0.000000	6.282838	-0.068595	NaN	0.000000	0.001578	0.001742	28.0824	0.076645	0.002075	36.9315	-6.029941	-161.035	-0.069796	0.281120	-0.844491	-0.845763	-0.068595	36.9315	-0.843098	-1.726856E+11	3.972232E-13	NaN
701	1.000000	0.292402	7.37191e+06	-42039.1	1005.82	-29784	0.000000	0.000000	6.292851	0.010186	NaN	0.000000	0.001604	0.001727	28.0814	0.048528	0.002106	23.0399	79.0606	14.3005	0.045263	0.291076	-0.834481	-0.835807	0.010186	23.0399	-0.834812	-1.333526E+11	-7.638059E-14	NaN
701	1.000000	0.302398	7.37191e+06	-42039.1	1005.82	-29784	0.000000	0.000000	6.302847	0.001075	NaN	0.000000	0.001594	0.001737	28.0813	0.101677	0.002146	47.3861	116.42	-164.055	-0.062878	0.301113	-0.824485	-0.825770	0.001075	47.3861	-0.824502	-9.666145E+10	-1.111801E-14	NaN
701	1.000000	0.312414	7.37191e+06	-42039.1	1005.82	-29784	0.000000	0.000000	6.312863	0.015364	NaN	0.000000	0.001630	0.001681	28.0811	0.098628	0.001899	51.9426	41.2497	12.0291	0.046712	0.311009	-0.814469	-0.815874	0.015364	51.9426	-0.814691	-7.115515E+10	-2.159221E-13	NaN
701	1.000000	0.322429	7.37191e+06	-42039.1	1005.82	-29784	0.000000	0.000000	6.322877	-0.023029	NaN	0.000000	0.001629	0.001715	28.0813	0.104350	0.002013	51.8418	10.6449	-164.892	0.009301	0.321143	-0.804453	-0.805740	-0.023029	51.8418	-0.804120	-5.114313E+10	4.502887E-13	NaN
701	1.000000	0.332419	7.37191e+06	-42039.1	1005.82	-29784	0.000000	0.000000	6.332870	0.060786	NaN	0.000000	0.001616	0.001720	28.0816	0.113725	0.002077	54.7611	-25.1118	15.967	0.037010	0.331071	-0.794464	-0.795812	0.060786	54.7611	-0.795296	-3.881556E+10	-1.566016E-12	NaN
701	1.000000	0.342384	7.37191e+06	-42039.1	1005.82	-29784	0.000000	0.000000	6.342832	-0.002340	NaN	0.000000	0.001593	0.001745	28.0811	0.023408	0.002059	11.3702	164.304	-162.39	0.015681	0.341094	-0.784499	-0.785789	-0.002340	11.3702	-0.784345	-2.755903E+10	8.492319E-14	NaN
701	1.000000	0.352400	7.37191e+06	-42039.1	1005.82	-29784	0.000000	0.000000	6.352851	0.076776	NaN	0.000000	0.001636	0.001719	28.0812	0.078424	0.002008	39.0573	-142.907	12.4766	-0.060516	0.351046	-0.774483	-0.775837	0.076776	39.0573	-0.775958	-2.119807E+10	-3.621840E-12	NaN
701	1.000000	0.362431	7.37191e+06	-42039.1	1005.82	-29784	0.000000	0.000000	6.362883	0.073395	NaN	0.000000	0.001593	0.001710	28.0812	0.056711	0.002056	27.5786	169.119	-164.815	0.058780	0.361131	-0.764452	-0.765752	0.073395	27.5786	-0.766448	-1.573985E+10	-4.662985E-12	NaN
701	1.000000	0.372442	7.37191e+06	-42039.1	1005.82	-29784	0.000000	0.000000	6.372891	0.016120	NaN	0.000000	0.001608	0.001745	28.0814	0.042543	0.002005	21.2142	158.305	14.5492	0.043528	0.371025	-0.754441	-0.755858	0.016120	21.2142	-0.755011	-1.100063E+10	-1.465334E-12	NaN
701	1.000000	0.382438	7.37191e+06	-42039.1	1005.82	-29784	0.000000	0.000000	6.382886	-0.018693	NaN	0.000000	0.001607	0.001756	28.081	0.035919	0.002028	17.7117	120.216	-161.677	0.041252	0.381112	-0.744445	-0.745771	-0.018693	17.7117	-0.743653	-7.705648E+9	2.425845E-12	NaN
701	1.000000	0.392452	7.37191e+06	-42039.1	1005.82	-29784	0.000000	0.000000	6.392900	-0.011688	NaN	0.000000	0.001611	0.001705	28.0813	0.015616	0.001962	7.959700	-113.965	15.4251	0.015643	0.391093	-0.734431	-0.735790	-0.011688	7.959700	-0.733329	-5.574185E+9	2.096851E-12	NaN
701	1.000000	0.402432	7.37191e+06	-42039.1	1005.82	-29784	0.000000	0.000000	6.402885	0.100182	NaN	0.000000	0.001572	0.001731	28.0817	0.038351	0.002021	18.9793	-125.78	-164.389	0.131640	0.401170	-0.724451	-0.725713	0.100182	18.9793	-0.728410	-4.776726E+9	-2.097303E-11	NaN
701	1.000000	0.412444	7.37191e+06	-42039.1	1005.82	-29784	0.000000	0.000000	6.412895	0.049327	NaN	0.000000	0.001574	0.001752	28.081	0.066888	0.001975	33.8598	95.2418	12.2018	0.021942	0.411043	-0.714439	-0.715840	0.049327	33.8598	-0.715531	-3.188019E+9	-1.547269E-11	NaN
701	1.000000	0.422481	7.37191e+06	-42039.1	1005.82	-29784	0.000000	0.000000	6.422930	0.001450	NaN	0.000000	0.001626	0.001761	28.0825	0.035931	0.001911	18.8061	-112.256	-165.593	-0.013940	0.421182	-0.704402	-0.705701	0.001450	18.8061	-0.704460	-2.251257E+9	-6.440036E-13	NaN
701	1.000000	0.432443	7.37191e+06	-42039.1	1005.82	-29784	0.000000	0.000000	6.432888	-0.095370	NaN	0.000000	0.001620	0.001706	28.0825	0.149367	0.002016	74.1076	-150.027	14.0178	-0.080344	0.431130	-0.694440	-0.695753	-0.095370	74.1076	-0.693475	-1.593676E+9	5.984259E-11	NaN
701	1.000000	0.442467	7.37191e+06	-42039.1	1005.82	-29784	0.000000	0.000000	6.442915	-0.004048	NaN	0.000000	0.001609	0.001761	28.0827	0.061284	0.002071	29.5891	34.9444	-164.499	-0.012419	0.441199	-0.684416	-0.685684	-0.004048	29.5891	-0.684314	-1.194508E+9	3.389242E-12	NaN
701	1.000000	0.452464	7.37191e+06	-42039.1	1005.82	-29784	0.000000	0.000000	6.452915	0.054247	NaN	0.000000	0.001593	0.001751	28.0826	0.013204	0.002108	6.262180	44.822	11.9782	-0.010753	0.451111	-0.674419	-0.675772	0.054247	6.262180	-0.680916	-1.073327E+9	-5.054051E-11	NaN
701	1.000000	0.462461	7.37191e+06	-42039.1	1005.82	-29784	0.000000	0.000000	6.462911	0.041890	NaN	0.000000	0.001591	0.001743	28.0826	0.087430	0.002045	42.7508	114.669	-166.298	0.028928	0.461224	-0.664422	-0.665659	0.041890	42.7508	-0.665157	-6.532678E+8	-6.412375E-11	NaN
701	1.000000	0.472487	7.37191e+06	-42039.1	1005.82	-29784	0.000000	0.000000	6.472937	0.039452	NaN	0.000000	0.001609	0.001763	28.0824	0.063793	0.002012	31.7116	-101.764	15.2175	0.050131	0.471094	-0.654396	-0.655789	0.039452	31.7116	-0.655329	-4.791530E+8	-8.233712E-11	NaN
701	1.000000	0.482456	7.37191e+06	-42039.1	1005.82	-29784	0.000000	0.000000	6.482906	0.039652	NaN	0.000000	0.001592	0.001751	28.0826	0.060363	0.002116	28.5235	113.102	-166.459	-0.026919	0.481108	-0.644427	-0.645775	0.039652	28.5235	-0.645470	-3.510134E+8	-1.129653E-10	NaN
701	1.000000	0.492492	7.37191e+06	-42039.1	1005.82	-29784	0.000000	0.000000	6.492943	0.062429	NaN	0.000000	0.001587	0.001688	28.0826	0.015879	0.001970	8.058740	-128.708	12.7202	0.018501	0.491141	-0.634391	-0.635742	0.062429	8.058740	-0.640201	-2.971985E+8	-2.100571E-10	NaN
701	1.000000	0.502473	7.37191e+06	-42039.1	1005.82	-29784	0.000000	0.000000	6.502925	0.068646	NaN	0.000000	0.001579	0.001740	28.0826	0.064407	0.001854	34.7466	-56.4092	-167.534	0.040252	0.501208	-0.624410	-0.625675	0.068646	34.7466	-0.625891	-1.890567E+8	-3.630999E-10	NaN
701	1.000000	0.512481	7.37191e+06	-42039.1	1005.82	-29784	0.000000	0.000000	6.512931	0.031460	NaN	0.000000	0.001594	0.001742	28.0828	0.076827	0.001996	38.4977	89.3126	15.4479	0.068161	0.511152	-0.614402	-0.615731	0.031460	38.4977	-0.615015	-1.339970E+8	-2.347796E-10	NaN
701	1.000000	0.522486	7.37191e+06	-42039.1	1005.82	-29784	0.000000	0.000000	6.522935	0.016685	NaN	0.000000	0.001584	0.001744	28.0827	0.050828	0.001991	25.5345	63.6614	-166.325	-0.022844	0.521203	-0.604397	-0.605679	0.016685	25.5345	-0.604887	-9.721851E+7	-1.716234E-10	NaN
701	1.000000	0.532527	7.37191e+06	-42039.1	1005.82	-29784	0.000000	0.000000	6.532978	0.047424	NaN	0.000000	0.001603	0.001757	28.0829	0.098456	0.002160	45.5901	13.8748	15.7848	0.075430	0.531104	-0.594356	-0.595779	0.047424	45.5901	-0.595136	-7.136016E+7	-6.645719E-10	NaN
701	1.000000	0.542519	7.37191e+06	-42039.1	1005.82	-29784	0.000000	0.000000	6.542969	0.019455	NaN	0.000000	0.001615	0.001725	28.0828	0.076802	0.001990	38.5901	18.2869	-164.638	0.041246	0.541189	-0.584364	-0.585694	0.019455	38.5901	-0.584742	-5.130396E+7	-3.792028E-10	NaN
701	1.000000	0.552522	7.37191e+06	-42039.1	1005.82	-29784	0.000000	0.000000	6.552973	0.055123	NaN	0.000000	0.001641	0.001727	28.0831	0.049570	0.002065	23.9993	-140.705	12.5917	0.047458	0.551136	-0.574361	-0.575747	0.055123	23.9993	-0.576083	-3.896324E+7	-1.414736E-9	NaN
701	1.000000	0.562538	7.37191e+06	-42039.1	1005.82	-29784	0.000000	0.000000	6.562987	0.017168	NaN	0.000000	0.001705	0.001711	28.0813	0.097631	0.002118	46.0989	108.974	-163.522	0.102942	0.561280	-0.564345	-0.565602	0.017168	46.0989	-0.564624	-2.706002E+7	-6.344512E-10	NaN
701	1.000000	0.572526	7.37191e+06	-42039.1	1005.82	-29784	0.000000	0.000000	6.572975	0.022763	NaN	0.000000	0.001707	0.001714	28.0814	0.014858	0.002039	7.285931	-23.959	12.206	0.046150	0.571160	-0.554357	-0.555723	0.022763	7.285931	-0.556700	-2.102422E+7	-1.082683E-9	NaN
701	1.000000	0.582490	7.37191e+06	-42039.1	1005.82	-29784	0.000000	0.000000	6.582938	-0.004011	NaN	0.000000	0.001710	0.001743	28.0816	0.051583	0.002039	25.302	-86.8176	-163.621	0.050923	0.581203	-0.544393	-0.545680	-0.004011	25.302	-0.544274	-1.414546E+7	2.835223E-10	NaN
701	1.000000	0.592529	7.37191e+06	-42039.1	1005.82	-29784	0.000000	0.000000	6.592979	0.047036	NaN	0.000000	0.001706	0.001704	28.0814	0.019480	0.001887	10.3245	-91.4728	15.8678	0.043451	0.591169	-0.534354	-0.535714	0.047036	10.3245	-0.537771	-1.149313E+7	-4.092507E-9	NaN
701	1.000000	0.602548	7.37191e+06	-42039.1	1005.82	-29784	0.000000	0.000000	6.602999	0.063254	NaN	0.000000	0.001715	0.001707	28.0814	0.046196	0.001995	23.15	-129.038	-165.642	0.055548	0.601193	-0.524335	-0.525690	0.063254	23.15	-0.526384	-7.98635e+06	-7.920300E-9	NaN
701	1.000000	0.612533	7.37191e+06	-42039.1	1005.82	-29784	0.000000	0.000000	6.612980	-0.031514	NaN	0.000000	0.001680	0.001716	28.0812	0.105634	0.002036	51.8717	-47.5109	15.2705	-0.117133	0.611189	-0.514350	-0.515694	-0.031514	51.8717	-0.513894	-5.35357e+06	5.886550E-9	NaN
701	1.000000	0.622534	7.37191e+06	-42039.1	1005.82	-29784	0.000000	0.000000	6.622983	0.003708	NaN	0.000000	0.001637	0.001731	28.0815	0.043319	0.002019	21.4597	-169.42	-166.581	-0.015119	0.621297	-0.504349	-0.505585	0.003708	21.4597	-0.504478	-3.95795e+06	-9.367508E-10	NaN
701	1.000000	0.632559	7.37191e+06	-42039.1	1005.82	-29784	0.000000	0.000000	6.633010	0.054790	NaN	0.000000	0.001649	0.001737	28.0811	0.072136	0.001972	36.5723	-58.5742	15.9303	0.100240	0.631252	-0.494324	-0.495631	0.054790	36.5723	-0.495448	-2.96132e+06	-1.850203E-8	NaN
701	1.000000	0.642547	7.37191e+06	-42039.1	1005.82	-29784	0.000000	0.000000	6.642997	0.053892	NaN	0.000000	0.001687	0.001737	28.0812	0.116580	0.002005	58.1571	65.6283	-163.788	0.035721	0.641275	-0.484336	-0.485608	0.053892	58.1571	-0.485031	-2.11802e+06	-2.544465E-8	NaN
701	1.000000	0.652566	7.37191e+06	-42039.1	1005.82	-29784	0.000000	0.000000	6.653014	-0.003491	NaN	0.000000	0.001684	0.001729	28.0813	0.081270	0.001916	42.4139	49.3022	18.1235	0.022128	0.651211	-0.474317	-0.475672	-0.003491	42.4139	-0.474255	-1.49646e+06	2.333108E-9	NaN
701	1.000000	0.662554	7.37191e+06	-42039.1	1005.82	-29784	0.000000	0.000000	6.663003	0.017641	NaN	0.000000	0.001689	0.001719	28.0813	0.138730	0.002122	65.3762	-168.933	-165.94	0.020290	0.661234	-0.464329	-0.465649	0.017641	65.3762	-0.464532	-1.09313e+06	-1.613843E-8	NaN
701	1.000000	0.672534	7.37191e+06	-42039.1	1005.82	-29784	0.000000	0.000000	6.672985	0.057743	NaN	0.000000	0.001624	0.001713	28.0813	0.055661	0.001896	29.3575	104.47	13.9122	-0.002681	0.671192	-0.454349	-0.455691	0.057743	29.3575	-0.455824	-824735	-7.001446E-8	NaN
701	1.000000	0.682584	7.37191e+06	-42039.1	1005.82	-29784	0.000000	0.000000	6.683032	0.000759	NaN	0.000000	0.001632	0.001670	28.0812	0.074896	0.002004	37.3747	-78.0347	-164.914	0.013629	0.681233	-0.444299	-0.445650	0.000759	37.3747	-0.444315	-567845	-1.335809E-9	NaN
701	1.000000	0.692565	7.37191e+06	-42039.1	1005.82	-29784	0.000000	0.000000	6.693013	-0.013333	NaN	0.000000	0.001602	0.001703	28.0819	0.042206	0.002074	20.3494	-172.573	15.6369	-0.029137	0.691226	-0.434318	-0.435657	-0.013333	20.3494	-0.433827	-403808	3.301875E-8	NaN
701	1.000000	0.702590	7.37191e+06	-42039.1	1005.82	-29784	0.000000	0.000000	6.703040	0.014700	NaN	0.000000	0.001625	0.001710	28.0826	0.112040	0.001895	59.1155	-101.357	-167.213	-0.019302	0.701257	-0.424293	-0.425626	0.014700	59.1155	-0.424479	-297785	-4.936511E-8	NaN
701	1.000000	0.712552	7.37191e+06	-42039.1	1005.82	-29784	0.000000	0.000000	6.712999	-0.044081	NaN	0.000000	0.001563	0.001682	28.0823	0.032632	0.002072	15.7517	-155.36	12.9884	-0.027789	0.711229	-0.414331	-0.415654	-0.044081	15.7517	-0.412232	-199586	2.208648E-7	NaN
701	1.000000	0.722544	7.37191e+06	-42039.1	1005.82	-29784	0.000000	0.000000	6.722994	0.048859	NaN	0.000000	0.001556	0.001724	28.0823	0.033567	0.002030	16.536	-32.0117	-167.356	0.013445	0.721249	-0.404339	-0.405634	0.048859	16.536	-0.406555	-165727	-2.948146E-7	NaN
701	1.000000	0.732602	7.37191e+06	-42039.1	1005.82	-29784	0.000000	0.000000	6.733051	0.021120	NaN	0.000000	0.001595	0.001698	28.0827	0.058809	0.002003	29.3592	-128.719	13.1766	0.039845	0.731209	-0.394281	-0.395674	0.021120	29.3592	-0.394820	-112738	-1.873346E-7	NaN
701	1.000000	0.742593	7.37191e+06	-42039.1	1005.82	-29784	0.000000	0.000000	6.743043	0.029667	NaN	0.000000	0.001572	0.001691	28.0825	0.077306	0.002174	35.5642	-134.444	-163.868	0.008459	0.741339	-0.384290	-0.385544	0.029667	35.5642	-0.384915	-81353.1	-3.646669E-7	NaN
701	1.000000	0.752595	7.37191e+06	-42039.1	1005.82	-29784	0.000000	0.000000	6.753046	0.039552	NaN	0.000000	0.001575	0.001728	28.0824	0.064227	0.001996	32.1735	-124.686	13.8635	0.022432	0.751213	-0.374288	-0.375670	0.039552	32.1735	-0.375210	-59031.5	-6.700105E-7	NaN
701	1.000000	0.762607	7.37191e+06	-42039.1	1005.82	-29784	0.000000	0.000000	6.763056	0.009402	NaN	0.000000	0.001590	0.001715	28.0826	0.146819	0.002046	71.7645	-115.443	-163.014	0.015592	0.761288	-0.364276	-0.365595	0.009402	71.7645	-0.364375	-41212.6	-2.281351E-7	NaN
701	1.000000	0.772607	7.37191e+06	-42039.1	1005.82	-29784	0.000000	0.000000	6.773057	0.020061	NaN	0.000000	0.001604	0.001709	28.0826	0.019926	0.002059	9.677318	134.488	13.7091	0.100786	0.771216	-0.354276	-0.355667	0.020061	9.677318	-0.355830	-31011.4	-6.469057E-7	NaN
701	1.000000	0.782567	7.37191e+06	-42039.1	1005.82	-29784	0.000000	0.000000	6.783017	0.026635	NaN	0.000000	0.001580	0.001699	28.0826	0.093331	0.001961	47.5973	-109.393	-164.332	0.010238	0.781290	-0.344316	-0.345593	0.026635	47.5973	-0.344736	-21404.7	-1.244375E-6	NaN
701	1.000000	0.792639	7.37191e+06	-42039.1	1005.82	-29784	0.000000	0.000000	6.793086	-0.029576	NaN	0.000000	0.001558	0.001737	28.0825	0.114485	0.001891	60.5292	-134.857	16.1215	-0.069113	0.791259	-0.334244	-0.335623	-0.029576	60.5292	-0.333878	-14865.9	1.989515E-6	NaN
701	1.000000	0.802607	7.37191e+06	-42039.1	1005.82	-29784	0.000000	0.000000	6.803058	0.069169	NaN	0.000000	0.001553	0.001744	28.0825	0.033345	0.002231	14.948	-56.9734	-168.118	0.053868	0.801354	-0.324276	-0.325529	0.069169	14.948	-0.327747	-12090.3	-5.721018E-6	NaN
701	1.000000	0.812623	7.37191e+06	-42039.1	1005.82	-29784	0.000000	0.000000	6.813073	0.044391	NaN	0.000000	0.001582	0.001712	28.0825	0.016164	0.001970	8.203456	113.389	10.7095	-0.037598	0.811275	-0.314260	-0.315608	0.044391	8.203456	-0.318319	-8787.79	-5.051435E-6	NaN
701	1.000000	0.822630	7.37191e+06	-42039.1	1005.82	-29784	0.000000	0.000000	6.823076	-0.046620	NaN	0.000000	0.001578	0.001728	28.0826	0.043840	0.001983	22.1103	-55.0026	-166.333	-0.015692	0.821335	-0.304253	-0.305548	-0.046620	22.1103	-0.302672	-5156.79	9.040487E-6	NaN
701	1.000000	0.832648	7.37191e+06	-42039.1	1005.82	-29784	0.000000	0.000000	6.833095	-0.021926	NaN	0.000000	0.001572	0.001773	28.081	0.045248	0.002051	22.0652	131.5	10.6306	0.053099	0.831271	-0.294235	-0.295612	-0.021926	22.0652	-0.293490	-3762.94	5.826920E-6	NaN
701	1.000000	0.842624	7.37191e+06	-42039.1	1005.82	-29784	0.000000	0.000000	6.843075	0.065012	NaN	0.000000	0.001626	0.001750	28.0813	0.096420	0.002148	44.8885	-39.0555	-164.66	0.029078	0.841367	-0.284259	-0.285516	0.065012	44.8885	-0.285345	-2840.91	-2.288432E-5	NaN
701	1.000000	0.852632	7.37191e+06	-42039.1	1005.82	-29784	0.000000	0.000000	6.853081	0.006679	NaN	0.000000	0.001615	0.001755	28.0813	0.021234	0.001963	10.8175	-24.1729	13.2271	0.003849	0.851275	-0.274251	-0.275608	0.006679	10.8175	-0.274714	-1963.65	-3.401105E-6	NaN
701	1.000000	0.862632	7.37191e+06	-42039.1	1005.82	-29784	0.000000	0.000000	6.863081	0.022583	NaN	0.000000	0.001657	0.001779	28.0814	0.019363	0.001965	9.855723	-19.5918	-164.187	-0.052622	0.861343	-0.264251	-0.265540	0.022583	9.855723	-0.265970	-1446.05	-1.561680E-5	NaN
701	1.000000	0.872631	7.37191e+06	-42039.1	1005.82	-29784	0.000000	0.000000	6.873082	0.058100	NaN	0.000000	0.001625	0.001762	28.0813	0.049113	0.001876	26.1749	62.553	13.5904	-0.028962	0.871245	-0.254252	-0.255638	0.058100	26.1749	-0.255917	-1014.43	-5.727334E-5	NaN
701	1.000000	0.882631	7.37191e+06	-42039.1	1005.82	-29784	0.000000	0.000000	6.883080	0.016829	NaN	0.000000	0.001631	0.001752	28.0815	0.095378	0.002025	47.098	-48.7261	-165.554	-0.041599	0.881336	-0.244252	-0.245547	0.016829	47.098	-0.244520	-676.065	-2.489284E-5	NaN
701	1.000000	0.892676	7.37191e+06	-42039.1	1005.82	-29784	0.000000	0.000000	6.893124	-0.008632	NaN	0.000000	0.001619	0.001750	28.0813	0.080907	0.001978	40.905	37.038	13.9755	-0.081501	0.891260	-0.234207	-0.235623	-0.008632	40.905	-0.234049	-463.768	1.861344E-5	NaN
701	1.000000	0.902663	7.37191e+06	-42039.1	1005.82	-29784	0.000000	0.000000	6.903114	0.044622	NaN	0.000000	0.001620	0.001770	28.0812	0.129290	0.002004	64.53	149.201	-166.191	0.003789	0.901322	-0.224220	-0.225561	0.044622	64.53	-0.224738	-330.505	-0.000135	NaN
701	1.000000	0.912670	7.37191e+06	-42039.1	1005.82	-29784	0.000000	0.000000	6.913116	-0.043949	NaN	0.000000	0.001710	0.001751	28.0812	0.021972	0.002063	10.6502	-121.95	16.661	0.030209	0.911313	-0.214213	-0.215570	-0.043949	10.6502	-0.211118	-199.948	0.000220	NaN
701	1.000000	0.922654	7.37191e+06	-42039.1	1005.82	-29784	0.000000	0.000000	6.923106	0.084640	NaN	0.000000	0.001692	0.001760	28.081	0.013551	0.001979	6.848094	155.895	-167.869	-0.006012	0.921389	-0.204229	-0.205494	0.084640	6.848094	-0.213499	-218.446	-0.000387	NaN
701	1.000000	0.932666	7.37191e+06	-42039.1	1005.82	-29784	0.000000	0.000000	6.933116	0.043263	NaN	0.000000	0.001681	0.001779	28.081	0.162627	0.001956	83.1323	-143.326	15.4735	-0.013644	0.931272	-0.194217	-0.195611	0.043263	83.1323	-0.194608	-107.325	-0.000403	NaN
701	1.000000	0.942681	7.37191e+06	-42039.1	1005.82	-29784	0.000000	0.000000	6.943130	0.011459	NaN	0.000000	0.001739	0.001756	28.0811	0.049044	0.001882	26.0597	81.6446	-163.909	-0.015817	0.941358	-0.184202	-0.185525	0.011459	26.0597	-0.184532	-72.8187	-0.000157	NaN
701	1.000000	0.952656	7.37191e+06	-42039.1	1005.82	-29784	0.000000	0.000000	6.953105	0.022660	NaN	0.000000	0.001694	0.001763	28.0813	0.119604	0.002066	57.8903	-11.0996	13.1391	0.040712	0.951368	-0.174227	-0.175515	0.022660	57.8903	-0.174521	-49.1742	-0.000461	NaN
701	1.000000	0.962666	7.37191e+06	-42039.1	1005.82	-29784	0.000000	0.000000	6.963115	-0.002021	NaN	0.000000	0.001711	0.001782	28.081	0.041397	0.002009	20.6043	-156.508	-165.99	0.038410	0.961380	-0.164217	-0.165503	-0.002021	20.6043	-0.164143	-32.4519	6.227502E-5	NaN
701	1.000000	0.972704	7.37191e+06	-42039.1	1005.82	-29784	0.000000	0.000000	6.973152	-0.008656	NaN	0.000000	0.001740	0.001750	28.0823	0.081662	0.002158	37.8376	127.559	12.6442	0.003760	0.971302	-0.154179	-0.155581	-0.008656	37.8376	-0.154008	-21.4142	0.000404	NaN
701	1.000000	0.982691	7.37191e+06	-42039.1	1005.82	-29784	0.000000	0.000000	6.983138	-0.031252	NaN	0.000000	0.001712	0.001752	28.0824	0.068471	0.001908	35.8819	29.3297	-168.116	0.027812	0.981421	-0.144192	-0.145462	-0.031252	35.8819	-0.143539	-13.7745	0.002269	NaN
701	1.000000	0.992688	7.37191e+06	-42039.1	1005.82	-29784	0.000000	0.000000	6.993138	0.032274	NaN	0.000000	0.001687	0.001748	28.0825	0.023509	0.002036	11.5441	-10.8502	13.6623	0.054490	0.991350	-0.134195	-0.135533	0.032274	11.5441	-0.136291	-10.0668	-0.003206	NaN
701	1.000000	1.002707	7.37191e+06	-42039.1	1005.82	-29784	0.000000	0.000000	7.003157	0.018877	NaN	0.000000	0.001712	0.001772	28.0822	0.152231	0.001881	80.9343	-163.385	-165.595	0.073119	1.001402	-0.124176	-0.125481	0.018877	80.9343	-0.124350	-5.903714	-0.003197	NaN
701	1.000000	1.012736	7.37191e+06	-42039.1	1005.82	-29784	0.000000	0.000000	7.013186	0.051919	NaN	0.000000	0.001683	0.001773	28.0823	0.024223	0.002021	11.9877	163.061	12.864	-0.009134	1.011297	-0.114147	-0.115586	0.051919	11.9877	-0.117396	-4.277923	-0.012137	NaN
701	1.000000	1.022705	7.37191e+06	-42039.1	1005.82	-29784	0.000000	0.000000	7.023155	0.049790	NaN	0.000000	0.001679	0.001740	28.0825	0.104157	0.002028	51.3622	172.714	-167.433	-0.004284	1.021369	-0.104178	-0.105514	0.049790	51.3622	-0.104905	-2.339506	-0.021282	NaN
701	1.000000	1.032705	7.37191e+06	-42039.1	1005.82	-29784	0.000000	0.000000	7.033153	-0.008501	NaN	0.000000	0.001684	0.001730	28.0823	0.028667	0.001966	14.5812	-143.349	9.819111	0.043833	1.031369	-0.094178	-0.095514	-0.008501	14.5812	-0.093741	-1.320159	0.006439	NaN
701	1.000000	1.042710	7.37191e+06	-42039.1	1005.82	-29784	0.000000	0.000000	7.043157	-0.035865	NaN	0.000000	0.001683	0.001755	28.0821	0.102466	0.002005	51.097	51.1187	-167.174	0.025559	1.041434	-0.084173	-0.085449	-0.035865	51.097	-0.083646	-0.761675	0.047088	NaN
701	1.000000	1.052693	7.37191e+06	-42039.1	1005.82	-29784	0.000000	0.000000	7.053143	0.030206	NaN	0.000000	0.001671	0.001736	28.0823	0.043496	0.001990	21.8517	47.3693	18.3086	-0.064987	1.051361	-0.074190	-0.075522	0.030206	21.8517	-0.075227	-0.468151	-0.064523	NaN
701	1.000000	1.062721	7.37191e+06	-42039.1	1005.82	-29784	0.000000	0.000000	7.063168	-0.021500	NaN	0.000000	0.001650	0.001770	28.0826	0.060338	0.001878	32.1311	44.5161	-168.251	-0.058976	1.061416	-0.064162	-0.065467	-0.021500	32.1311	-0.063660	-0.228687	0.094014	NaN
701	1.000000	1.072727	7.37191e+06	-42039.1	1005.82	-29784	0.000000	0.000000	7.073176	0.010277	NaN	0.000000	0.001698	0.001760	28.0822	0.200991	0.002096	95.891	111.841	15.1299	0.088495	1.071380	-0.054156	-0.055502	0.010277	95.891	-0.054237	-0.122246	-0.084065	NaN
701	1.000000	1.082693	7.37191e+06	-42039.1	1005.82	-29784	0.000000	0.000000	7.083138	-0.082751	NaN	0.000000	0.001671	0.001714	28.0822	0.069506	0.001918	36.2344	40.4578	-165.59	-0.068508	1.081429	-0.044190	-0.045454	-0.082751	36.2344	-0.042477	-0.053809	1.537877	NaN
701	1.000000	1.092727	7.37191e+06	-42039.1	1005.82	-29784	0.000000	0.000000	7.093177	0.048447	NaN	0.000000	0.001693	0.001724	28.0823	0.132856	0.001890	70.3073	92.3267	15.6546	-0.020427	1.091375	-0.034156	-0.035508	0.048447	70.3073	-0.034673	-0.031323	-1.546652	NaN
701	1.000000	1.102716	7.37191e+06	-42039.1	1005.82	-29784	0.000000	0.000000	7.103165	0.015472	NaN	0.000000	0.001675	0.001718	28.0819	0.095050	0.001973	48.176	163.416	-164.655	0.007065	1.101409	-0.024167	-0.025474	0.015472	48.176	-0.024408	-0.016282	-0.950240	NaN
701	1.000000	1.112757	7.37191e+06	-42039.1	1005.82	-29784	0.000000	0.000000	7.113208	0.053039	NaN	0.000000	0.001673	0.001698	28.081	0.081828	0.002104	38.886	-125.683	10.5807	0.023574	1.111374	-0.014126	-0.015509	0.053039	38.886	-0.015149	-0.009365	-5.663748	NaN
701	1.000000	1.122740	7.37191e+06	-42039.1	1005.82	-29784	0.000000	0.000000	7.123189	0.028986	NaN	0.000000	0.001660	0.001737	28.081	0.046542	0.002082	22.3558	15.5425	-169.679	-0.014354	1.121426	-0.004143	-0.005457	0.028986	22.3558	-0.005116	-0.003489	-8.307203	NaN
701	1.000000	1.132721	7.37191e+06	-42039.1	1005.82	-29784	0.000000	0.000000	7.133297	3.100632	NaN	0.000000	0.001696	0.001722	28.0811	3.999990	0.001853	2158.46	6.557552	13.351	2.080422	1.131359	0.005839	0.004476	3.100632	2158.46	0.004761	0.003916	791.695	31511.7
701	2.000000	1.139355	7.37191e+06	-42039.1	1005.82	-29784	0.000000	0.000000	7.140155	8.562980	NaN	0.000000	0.001671	0.001758	28.0809	8.796552	0.001636	5377.3	7.076863	-174.271	8.094041	1.139037	0.012472	0.012154	8.562980	5377.3	0.011278	0.010636	805.068	47636.6
701	2.000000	1.141797	7.37191e+06	-42039.1	1005.82	-29784	0.000000	0.000000	7.142744	12.1399	NaN	0.000000	0.001690	0.001739	28.081	11.9038	0.001712	6952.28	8.726430	1.600838	11.4232	1.141467	0.014914	0.014584	12.1399	6952.28	0.013604	0.013469	901.312	54730.7
701	2.000000	1.144298	7.37191e+06	-42039.1	1005.82	-29784	0.000000	0.000000	7.145418	16.3477	NaN	0.000000	0.001681	0.001708	28.0809	13.9478	0.001717	8124.35	6.633206	-176.711	15.99	1.143968	0.017415	0.017085	16.3477	8124.35	0.015905	0.016512	990.055	57764.9
701	2.000000	1.146804	7.37191e+06	-42039.1	1005.82	-29784	0.000000	0.000000	7.148059	19.6068	NaN	0.000000	0.001681	0.001721	28.0812	15.7839	0.001701	9279.75	2.765440	7.322728	18.7613	1.146456	0.019921	0.019573	19.6068	9279.75	0.018337	0.019996	980.549	59957.1
701	2.000000	1.149251	7.37191e+06	-42039.1	1005.82	-29784	0.000000	0.000000	7.150704	24.4319	NaN	0.000000	0.001672	0.001688	28.0811	18.4212	0.001743	10566.3	3.912512	-175.618	23.5626	1.149045	0.022368	0.022162	24.4319	10566.3	0.020634	0.023549	1037.5	62909.2
701	2.000000	1.151747	7.37191e+06	-42039.1	1005.82	-29784	0.000000	0.000000	7.153537	32.6163	NaN	0.000000	0.001690	0.001694	28.081	20.9287	0.001606	13027.7	3.417512	2.406004	31.3025	1.151412	0.024865	0.024529	32.6163	13027.7	0.022987	0.027455	1188.01	71834.6
701	2.000000	1.154251	7.37191e+06	-42039.1	1005.82	-29784	0.000000	0.000000	7.156176	35.9288	NaN	0.000000	0.001737	0.001718	28.081	24.2616	0.001983	12234.4	6.415163	-177.808	35.9571	1.153903	0.027368	0.027020	35.9288	12234.4	0.025166	0.031318	1147.24	63162.8
701	2.000000	1.156746	7.37191e+06	-42039.1	1005.82	-29784	0.000000	0.000000	7.158988	43.6202	NaN	0.000000	0.001687	0.001736	28.0811	26.0685	0.001662	15682.7	3.436797	1.737874	41.4269	1.156385	0.029863	0.029502	43.6202	15682.7	0.027777	0.036263	1202.89	75242.4
701	2.000000	1.159222	7.37191e+06	-42039.1	1005.82	-29784	0.000000	0.000000	7.161822	52.3459	NaN	0.000000	0.001666	0.001723	28.0811	28.8064	0.001861	15479.8	8.213511	177.497	50.7741	1.158968	0.032339	0.032085	52.3459	15479.8	0.029803	0.040337	1297.71	70418.6
701	2.000000	1.161769	7.37191e+06	-42039.1	1005.82	-29784	0.000000	0.000000	7.164730	61.1346	NaN	0.000000	0.001656	0.001736	28.081	31.3674	0.001842	17025.7	6.736722	-1.200651	61.4815	1.161308	0.034886	0.034425	61.1346	17025.7	0.032193	0.045413	1346.2	72994.6
701	2.000000	1.164287	7.37191e+06	-42039.1	1005.82	-29784	0.000000	0.000000	7.167672	71.4404	NaN	0.000000	0.001714	0.001698	28.0825	34.2413	0.001760	19459.3	8.865433	175.388	72.9077	1.163820	0.037404	0.036937	71.4404	19459.3	0.034651	0.050936	1402.55	78774.8
701	2.000000	1.166698	7.37191e+06	-42039.1	1005.82	-29784	0.000000	0.000000	7.170522	82.1414	NaN	0.000000	0.001683	0.001729	28.0824	36.3565	0.001842	19735.6	5.912340	-2.031396	78.696	1.166382	0.039815	0.039499	82.1414	19735.6	0.036693	0.055763	1473.06	76357.7
701	2.000000	1.169169	7.37191e+06	-42039.1	1005.82	-29784	0.000000	0.000000	7.173506	94.6137	NaN	0.000000	0.001696	0.001722	28.0824	38.2778	0.001771	21618.5	3.369887	179.27	91.4555	1.168837	0.042286	0.041954	94.6137	21618.5	0.039004	0.061480	1538.94	79658.6
701	2.000000	1.171694	7.37191e+06	-42039.1	1005.82	-29784	0.000000	0.000000	7.176383	103.185	NaN	0.000000	0.001685	0.001690	28.0823	42.0215	0.001798	23375.3	10.7637	-8.986394	101.459	1.171323	0.044811	0.044440	103.185	23375.3	0.041500	0.067963	1518.25	81921
701	2.000000	1.174238	7.37191e+06	-42039.1	1005.82	-29784	0.000000	0.000000	7.179243	110.881	NaN	0.000000	0.001710	0.001721	28.0823	44.2577	0.001792	24693.7	5.057569	175.747	111.758	1.173921	0.047355	0.047038	110.881	24693.7	0.043987	0.074737	1483.61	82526
701	2.000000	1.176704	7.37191e+06	-42039.1	1005.82	-29784	0.000000	0.000000	7.182295	125.129	NaN	0.000000	0.001738	0.001739	28.0822	45.3132	0.001763	25704.6	4.714764	-3.606974	122.165	1.176282	0.049821	0.049399	125.129	25704.6	0.046170	0.080944	1545.87	82545.1
701	2.000000	1.179192	7.37191e+06	-42039.1	1005.82	-29784	0.000000	0.000000	7.185435	141.002	NaN	0.000000	0.001730	0.001683	28.0822	47.6689	0.001770	26930.5	7.276017	173.017	139.257	1.178877	0.052309	0.051994	141.002	26930.5	0.048382	0.087477	1611.88	83190
701	2.000000	1.181675	7.37191e+06	-42039.1	1005.82	-29784	0.000000	0.000000	7.188373	152.045	NaN	0.000000	0.001659	0.001697	28.0821	50.3414	0.001758	28635.2	3.163491	-3.129602	149.36	1.181302	0.054792	0.054419	152.045	28635.2	0.050810	0.094934	1601.59	84910.9
701	2.000000	1.184197	7.37191e+06	-42039.1	1005.82	-29784	0.000000	0.000000	7.191229	160.185	NaN	0.000000	0.001691	0.001703	28.0823	53.549	0.001727	31010	3.785509	175.307	157.915	1.183951	0.057314	0.057068	160.185	31010	0.053439	0.103340	1550.07	88133.3
701	2.000000	1.186691	7.37191e+06	-42039.1	1005.82	-29784	0.000000	0.000000	7.194501	179.124	NaN	0.000000	0.001680	0.001704	28.0823	55.6307	0.001934	28762.4	4.460128	-2.737780	175.085	1.186292	0.059808	0.059409	179.124	28762.4	0.055137	0.108951	1644.08	79612.7
701	2.000000	1.189165	7.37191e+06	-42039.1	1005.82	-29784	0.000000	0.000000	7.197598	194.257	NaN	0.000000	0.001696	0.001683	28.0823	57.5799	0.001716	33557.2	4.028885	174.583	192.158	1.188848	0.062282	0.061965	194.257	33557.2	0.057941	0.118527	1638.92	89053.1
701	2.000000	1.191638	7.37191e+06	-42039.1	1005.82	-29784	0.000000	0.000000	7.200418	202.731	NaN	0.000000	0.001615	0.001703	28.0823	61.6288	0.001928	31958	5.406844	-6.326042	198.001	1.191392	0.064755	0.064509	202.731	31958	0.059997	0.125798	1611.55	82321.9
701	2.000000	1.194095	7.37191e+06	-42039.1	1005.82	-29784	0.000000	0.000000	7.203592	220.167	NaN	0.000000	0.001619	0.001685	28.0827	62.046	0.001720	36078.5	1.962088	176.684	215.451	1.193790	0.067212	0.066907	220.167	36078.5	0.062635	0.135426	1625.74	89571.8
701	2.000000	1.196676	7.37191e+06	-42039.1	1005.82	-29784	0.000000	0.000000	7.206889	237.582	NaN	0.000000	0.001613	0.001718	28.0823	64.4533	0.001690	38131.5	4.307693	-6.304622	233.708	1.196207	0.069793	0.069324	237.582	38131.5	0.065120	0.144805	1640.71	91551.5
701	2.000000	1.199212	7.37191e+06	-42039.1	1005.82	-29784	0.000000	0.000000	7.209903	249.221	NaN	0.000000	0.001587	0.001729	28.0813	66.4387	0.001674	39694.3	1.385610	176.273	250.706	1.198894	0.072329	0.072011	249.221	39694.3	0.067620	0.154543	1612.64	92252.3
701	2.000000	1.201708	7.37191e+06	-42039.1	1005.82	-29784	0.000000	0.000000	7.213013	264.154	NaN	0.000000	0.001595	0.001756	28.0811	71.2865	0.001859	38342.2	6.803618	-8.953061	263.415	1.201261	0.074825	0.074378	264.154	38342.2	0.069658	0.162698	1623.58	86847.7
701	2.000000	1.204113	7.37191e+06	-42039.1	1005.82	-29784	0.000000	0.000000	7.216056	279.689	NaN	0.000000	0.001596	0.001706	28.0816	72.4972	0.001770	40962	3.485953	173.356	275.985	1.203905	0.077230	0.077022	279.689	40962	0.072109	0.172772	1618.83	90036.2
701	2.000000	1.206721	7.37191e+06	-42039.1	1005.82	-29784	0.000000	0.000000	7.219423	298.166	NaN	0.000000	0.001572	0.001701	28.0811	75.1389	0.001819	41315.5	8.965595	-10.9346	298.279	1.206203	0.079838	0.079320	298.166	41315.5	0.074425	0.182553	1633.31	88347.1
701	2.000000	1.209186	7.37191e+06	-42039.1	1005.82	-29784	0.000000	0.000000	7.222584	315.075	NaN	0.000000	0.001575	0.001696	28.0816	76.1069	0.001688	45092.2	4.624816	172.39	315.583	1.208844	0.082304	0.081961	315.075	45092.2	0.077063	0.194000	1624.1	93534.8
701	2.000000	1.211665	7.37191e+06	-42039.1	1005.82	-29784	0.000000	0.000000	7.225575	327.553	NaN	0.000000	0.001532	0.001702	28.0813	80.6029	0.001799	44809.6	5.869873	-9.583593	325.637	1.211424	0.084782	0.084541	327.553	44809.6	0.079299	0.203961	1605.96	90650.6
701	2.000000	1.214099	7.37191e+06	-42039.1	1005.82	-29784	0.000000	0.000000	7.228899	349.199	NaN	0.000000	0.001597	0.001718	28.0816	82.7429	0.001774	46629.8	6.556870	170.12	345.778	1.213883	0.087216	0.087000	349.199	46629.8	0.081600	0.214448	1628.36	91997.4
701	2.000000	1.216710	7.37191e+06	-42039.1	1005.82	-29784	0.000000	0.000000	7.232057	362.515	NaN	0.000000	0.001588	0.001699	28.081	84.1347	0.001749	48107.8	4.046253	-7.932553	361.072	1.216444	0.089827	0.089561	362.515	48107.8	0.084175	0.226483	1600.62	92357.1
701	2.000000	1.219139	7.37191e+06	-42039.1	1005.82	-29784	0.000000	0.000000	7.235444	385.816	NaN	0.000000	0.001574	0.001667	28.081	86.5443	0.001742	49679.1	6.034659	170.379	384.252	1.218810	0.092256	0.091927	385.816	49679.1	0.086431	0.237276	1626.02	93179.5
701	2.000000	1.221624	7.37191e+06	-42039.1	1005.82	-29784	0.000000	0.000000	7.238741	405.556	NaN	0.000000	0.001536	0.001680	28.0814	89.7539	0.001763	50914.2	6.781521	-11.3782	402.596	1.221297	0.094741	0.094414	405.556	50914.2	0.088767	0.248699	1630.71	93277.1
701	2.000000	1.224104	7.37191e+06	-42039.1	1005.82	-29784	0.000000	0.000000	7.241919	422.549	NaN	0.000000	0.001603	0.001637	28.081	92.7554	0.001801	51496.2	2.750198	172.788	418.234	1.223843	0.097221	0.096960	422.549	51496.2	0.091067	0.260190	1624	92236.4
701	2.000000	1.226833	7.37191e+06	-42039.1	1005.82	-29784	0.000000	0.000000	7.245272	437.758	NaN	0.000000	0.001611	0.001658	28.0811	94.7158	0.001828	51805.9	5.520943	-9.918426	441.579	1.226491	0.099950	0.099608	437.758	51805.9	0.093612	0.273190	1602.39	90556.6
701	2.000000	1.229173	7.37191e+06	-42039.1	1005.82	-29784	0.000000	0.000000	7.248246	453.156	NaN	0.000000	0.001596	0.001697	28.0812	97.4491	0.001852	52615.5	6.616903	168.564	453.831	1.229057	0.102290	0.102174	453.156	52615.5	0.095831	0.284763	1591.35	90083.4
701	2.000000	1.231629	7.37191e+06	-42039.1	1005.82	-29784	0.000000	0.000000	7.252348	493.214	NaN	0.000000	0.001642	0.001702	28.082	99.4636	0.001795	55399.3	6.267240	-11.31	489.285	1.231203	0.104746	0.104320	493.214	55399.3	0.098069	0.296666	1662.52	92927.3
701	2.000000	1.234129	7.37191e+06	-42039.1	1005.82	-29784	0.000000	0.000000	7.255058	498.322	NaN	0.000000	0.001621	0.001686	28.0824	101.43	0.001858	54577.9	0.668427	174.411	495.465	1.233930	0.107246	0.107047	498.322	54577.9	0.100398	0.309295	1611.15	89661.1
701	2.000000	1.236630	7.37191e+06	-42039.1	1005.82	-29784	0.000000	0.000000	7.258828	529.192	NaN	0.000000	0.001603	0.001713	28.0825	102.324	0.001743	58697.6	1.965857	-7.135132	525.701	1.236347	0.109747	0.109464	529.192	58697.6	0.102986	0.323613	1635.26	94271.4