File: remote_trans/data/nanoindenter/0828-1/data/Data_2025-08-06,11h17m57s/2025-07-22_16-23-58_1_1161.txt
2025-07-22, 16:23:58, 1
Index	Phase	Displacement	Time	Pos X	Pos Y	Pos Z	Rot A	Rot B	Piezo Z	Force A	Force B	Gripper	Voltage A	Voltage B	Temperature	Amplitude force	Amplitude pos	Stiffness	Phase shift	Phase excitation	Force A raw	Displacement raw	HMax	HMax raw	Real Force	Real Stiffness	Contact Depth	Area	Hardness	Reduced Mod.
[#]	[#]	[um]	[s]	[um]	[um]	[um]	[m°]	[m°]	[um]	[uN]	[uN]	[V]	[V]	[V]	[°C]	[uN]	[um]	[N/m]	[°]	[°]	[uN]	[um]	[um]	[um]	[uN]	[N/m]	[um]	[um^2]	[MPa]	[MPa]
1161	1.000000	0.002589	7.37641e+06	-57539.1	1105.82	-29736.6	0.000000	0.000000	6.002780	-0.016820	NaN	0.000000	0.001633	0.001696	28.0816	0.201099	0.001078	186.622	117.683	-158.339	0.005802	0.001330	-1.119322	-1.120581	-0.016820	186.622	-1.119255	-9.088133E+14	1.850738E-17	NaN
1161	1.000000	0.012671	7.37641e+06	-57539.1	1105.82	-29736.6	0.000000	0.000000	6.012864	0.029278	NaN	0.000000	0.001622	0.001684	28.0815	0.040077	0.001141	35.127	-85.7899	18.8484	-0.038335	0.011224	-1.109240	-1.110688	0.029278	35.127	-1.109866	-6.799600E+14	-4.305913E-17	NaN
1161	1.000000	0.022562	7.37641e+06	-57539.1	1105.82	-29736.6	0.000000	0.000000	6.022753	-0.013853	NaN	0.000000	0.001625	0.001691	28.0814	0.052998	0.001615	32.8213	-163.364	-163.628	0.028348	0.021240	-1.099350	-1.100671	-0.013853	32.8213	-1.099033	-4.865046E+14	2.847456E-17	NaN
1161	1.000000	0.032576	7.37641e+06	-57539.1	1105.82	-29736.6	0.000000	0.000000	6.032768	-0.011656	NaN	0.000000	0.001667	0.001650	28.0813	0.023954	0.001873	12.7896	176.213	12.6475	-0.000472	0.031198	-1.089335	-1.090713	-0.011656	12.7896	-1.088651	-3.529411E+14	3.302410E-17	NaN
1161	1.000000	0.042554	7.37641e+06	-57539.1	1105.82	-29736.6	0.000000	0.000000	6.042748	0.040641	NaN	0.000000	0.001684	0.001656	28.0816	0.091679	0.002052	44.6672	156.537	-165.149	0.041542	0.041226	-1.079357	-1.080685	0.040641	44.6672	-1.080039	-2.704240E+14	-1.502878E-16	NaN
1161	1.000000	0.052537	7.37641e+06	-57539.1	1105.82	-29736.6	0.000000	0.000000	6.052727	-0.047836	NaN	0.000000	0.001637	0.001650	28.0824	0.060913	0.002052	29.6902	177.402	15.9023	-0.026621	0.051181	-1.069374	-1.070730	-0.047836	29.6902	-1.068166	-1.873029E+14	2.553940E-16	NaN
1161	1.000000	0.062542	7.37641e+06	-57539.1	1105.82	-29736.6	0.000000	0.000000	6.062731	-0.073648	NaN	0.000000	0.001676	0.001641	28.0824	0.042553	0.002053	20.7243	98.4196	-164.62	-0.064883	0.061294	-1.059369	-1.060617	-0.073648	20.7243	-1.056704	-1.313782E+14	5.605766E-16	NaN
1161	1.000000	0.072586	7.37641e+06	-57539.1	1105.82	-29736.6	0.000000	0.000000	6.072778	-0.004623	NaN	0.000000	0.001623	0.001646	28.0824	0.074262	0.002100	35.3699	47.7921	16.1237	-0.036397	0.071218	-1.049325	-1.050694	-0.004623	35.3699	-1.049227	-1.042383E+14	4.435084E-17	NaN
1161	1.000000	0.082581	7.37641e+06	-57539.1	1105.82	-29736.6	0.000000	0.000000	6.082773	-0.011127	NaN	0.000000	0.001645	0.001635	28.0826	0.041074	0.002037	20.1682	123.309	-163.407	0.050335	0.081230	-1.039330	-1.040681	-0.011127	20.1682	-1.038916	-7.575130E+13	1.468951E-16	NaN
1161	1.000000	0.092565	7.37641e+06	-57539.1	1105.82	-29736.6	0.000000	0.000000	6.092755	-0.059202	NaN	0.000000	0.001675	0.001636	28.0824	0.079685	0.001904	41.8486	-38.2374	11.1367	-0.078614	0.091219	-1.029346	-1.030692	-0.059202	41.8486	-1.028285	-5.450170E+13	1.086242E-15	NaN
1161	1.000000	0.102564	7.37641e+06	-57539.1	1105.82	-29736.6	0.000000	0.000000	6.102755	-0.023396	NaN	0.000000	0.001666	0.001671	28.0827	0.138417	0.001917	72.2075	170.525	-167.74	-0.004846	0.101290	-1.019348	-1.020621	-0.023396	72.2075	-1.019105	-4.101145E+13	5.704745E-16	NaN
1161	1.000000	0.112593	7.37641e+06	-57539.1	1105.82	-29736.6	0.000000	0.000000	6.112781	-0.083899	NaN	0.000000	0.001611	0.001677	28.0826	0.129364	0.002082	62.1259	160.951	13.5256	-0.009267	0.111276	-1.009318	-1.010635	-0.083899	62.1259	-1.008305	-2.934773E+13	2.858801E-15	NaN
1161	1.000000	0.122582	7.37641e+06	-57539.1	1105.82	-29736.6	0.000000	0.000000	6.122773	-0.034325	NaN	0.000000	0.001626	0.001664	28.0827	0.033751	0.001921	17.5696	22.4536	-164.753	-0.022899	0.121300	-0.999329	-1.000612	-0.034325	17.5696	-0.997864	-2.123288E+13	1.616595E-15	NaN
1161	1.000000	0.132577	7.37641e+06	-57539.1	1105.82	-29736.6	0.000000	0.000000	6.132769	0.005217	NaN	0.000000	0.001641	0.001673	28.0826	0.100618	0.001904	52.842	-48.0322	14.3884	0.094263	0.131206	-0.989334	-0.990705	0.005217	52.842	-0.989408	-1.633582E+13	-3.193444E-16	NaN
1161	1.000000	0.142572	7.37641e+06	-57539.1	1105.82	-29736.6	0.000000	0.000000	6.142764	-0.005287	NaN	0.000000	0.001671	0.001698	28.0827	0.071301	0.001990	35.8356	138.611	-164.991	-0.012737	0.141273	-0.979339	-0.980638	-0.005287	35.8356	-0.979229	-1.191292E+13	4.437997E-16	NaN
1161	1.000000	0.152594	7.37641e+06	-57539.1	1105.82	-29736.6	0.000000	0.000000	6.152783	-0.081273	NaN	0.000000	0.001646	0.001670	28.0829	0.040465	0.002029	19.947	-163.515	18.082	-0.074175	0.151245	-0.969317	-0.970666	-0.081273	19.947	-0.966261	-7.966636E+12	1.020163E-14	NaN
1161	1.000000	0.162589	7.37641e+06	-57539.1	1105.82	-29736.6	0.000000	0.000000	6.162782	0.006584	NaN	0.000000	0.001659	0.001681	28.0828	0.018180	0.002011	9.040193	-158.363	-165.768	-0.021562	0.161268	-0.959322	-0.960643	0.006584	9.040193	-0.959868	-6.532681E+12	-1.007852E-15	NaN
1161	1.000000	0.172621	7.37641e+06	-57539.1	1105.82	-29736.6	0.000000	0.000000	6.172812	-0.024943	NaN	0.000000	0.001670	0.001668	28.0825	0.099976	0.002075	48.1863	-82.8184	15.0681	0.040398	0.171270	-0.949290	-0.950641	-0.024943	48.1863	-0.948902	-4.647501E+12	5.366869E-15	NaN
1161	1.000000	0.182623	7.37641e+06	-57539.1	1105.82	-29736.6	0.000000	0.000000	6.182816	0.018564	NaN	0.000000	0.001664	0.001658	28.0825	0.110687	0.002042	54.2151	-26.1395	-165.912	0.001790	0.181313	-0.939288	-0.940598	0.018564	54.2151	-0.939545	-3.475339E+12	-5.341633E-15	NaN
1161	1.000000	0.192620	7.37641e+06	-57539.1	1105.82	-29736.6	0.000000	0.000000	6.192811	-0.014417	NaN	0.000000	0.001663	0.001686	28.0816	0.102510	0.001978	51.8128	-67.9829	16.0497	-0.040337	0.191251	-0.929291	-0.930660	-0.014417	51.8128	-0.929083	-2.510827E+12	5.742006E-15	NaN
1161	1.000000	0.202631	7.37641e+06	-57539.1	1105.82	-29736.6	0.000000	0.000000	6.202822	-0.015679	NaN	0.000000	0.001664	0.001672	28.0814	0.121025	0.001887	64.1305	31.6795	-164.44	0.061339	0.201293	-0.919280	-0.920618	-0.015679	64.1305	-0.919097	-1.840824E+12	8.517537E-15	NaN
1161	1.000000	0.212630	7.37641e+06	-57539.1	1105.82	-29736.6	0.000000	0.000000	6.212821	-0.033076	NaN	0.000000	0.001657	0.001663	28.0824	0.048877	0.002044	23.9141	22.6105	15.7924	-0.091781	0.211249	-0.909281	-0.910662	-0.033076	23.9141	-0.908244	-1.313525E+12	2.518087E-14	NaN
1161	1.000000	0.222598	7.37641e+06	-57539.1	1105.82	-29736.6	0.000000	0.000000	6.222789	-0.029101	NaN	0.000000	0.001646	0.001675	28.0817	0.042917	0.001957	21.9251	32.3596	-166.544	-0.073424	0.221285	-0.899313	-0.900626	-0.029101	21.9251	-0.898318	-9.645737E+11	3.016930E-14	NaN
1161	1.000000	0.232632	7.37641e+06	-57539.1	1105.82	-29736.6	0.000000	0.000000	6.232823	-0.006937	NaN	0.000000	0.001656	0.001711	28.0814	0.079349	0.002044	38.8249	86.9335	16.516	0.070918	0.231276	-0.889280	-0.890635	-0.006937	38.8249	-0.889146	-7.250440E+11	9.567827E-15	NaN
1161	1.000000	0.242630	7.37641e+06	-57539.1	1105.82	-29736.6	0.000000	0.000000	6.242821	-0.026660	NaN	0.000000	0.001664	0.001691	28.0813	0.049914	0.001963	25.4295	-52.4914	-161.46	0.021243	0.241268	-0.879281	-0.880644	-0.026660	25.4295	-0.878494	-5.204119E+11	5.122780E-14	NaN
1161	1.000000	0.252668	7.37641e+06	-57539.1	1105.82	-29736.6	0.000000	0.000000	6.252859	-0.020718	NaN	0.000000	0.001671	0.001709	28.0811	0.065202	0.001921	33.9376	-101.958	19.261	-0.001103	0.251297	-0.869243	-0.870614	-0.020718	33.9376	-0.868785	-3.845980E+11	5.386949E-14	NaN
1161	1.000000	0.262644	7.37641e+06	-57539.1	1105.82	-29736.6	0.000000	0.000000	6.262837	0.024779	NaN	0.000000	0.001650	0.001687	28.0815	0.028736	0.001904	15.0901	-21.1909	-164.371	-0.002668	0.261307	-0.859267	-0.860604	0.024779	15.0901	-0.860499	-2.970774E+11	-8.340983E-14	NaN
1161	1.000000	0.272621	7.37641e+06	-57539.1	1105.82	-29736.6	0.000000	0.000000	6.272810	-0.068220	NaN	0.000000	0.001659	0.001653	28.0812	0.075096	0.002051	36.6068	166.227	15.0644	0.059550	0.271269	-0.849290	-0.850642	-0.068220	36.6068	-0.847892	-2.005370E+11	3.401857E-13	NaN
1161	1.000000	0.282651	7.37641e+06	-57539.1	1105.82	-29736.6	0.000000	0.000000	6.282845	0.040384	NaN	0.000000	0.001650	0.001663	28.0815	0.077141	0.002001	38.5465	165.62	-163.759	0.019919	0.281286	-0.839260	-0.840625	0.040384	38.5465	-0.840045	-1.570032E+11	-2.572149E-13	NaN
1161	1.000000	0.292652	7.37641e+06	-57539.1	1105.82	-29736.6	0.000000	0.000000	6.292843	-0.022730	NaN	0.000000	0.001598	0.001667	28.0816	0.094300	0.001751	53.8428	14.224	15.2164	-0.008904	0.291279	-0.829259	-0.830633	-0.022730	53.8428	-0.828942	-1.110315E+11	2.047131E-13	NaN
1161	1.000000	0.302655	7.37641e+06	-57539.1	1105.82	-29736.6	0.000000	0.000000	6.302844	-0.076631	NaN	0.000000	0.001630	0.001712	28.0815	0.080563	0.001954	41.2269	-126.59	-167.226	-0.068847	0.301371	-0.819256	-0.820541	-0.076631	41.2269	-0.817862	-7.856317E+10	9.754055E-13	NaN
1161	1.000000	0.312693	7.37641e+06	-57539.1	1105.82	-29736.6	0.000000	0.000000	6.312887	0.047061	NaN	0.000000	0.001614	0.001709	28.0814	0.075005	0.002016	37.2109	-139.147	16.7142	-0.000111	0.311321	-0.809218	-0.810590	0.047061	37.2109	-0.810167	-6.177819E+10	-7.617706E-13	NaN
1161	1.000000	0.322672	7.37641e+06	-57539.1	1105.82	-29736.6	0.000000	0.000000	6.322863	-0.038506	NaN	0.000000	0.001563	0.001717	28.0825	0.093426	0.001922	48.6091	-88.6305	-161.7	-0.064698	0.321391	-0.799239	-0.800520	-0.038506	48.6091	-0.798645	-4.309883E+10	8.934375E-13	NaN
1161	1.000000	0.332679	7.37641e+06	-57539.1	1105.82	-29736.6	0.000000	0.000000	6.332867	-0.107593	NaN	0.000000	0.001619	0.001703	28.0829	0.011932	0.002099	5.684958	176.699	19.6556	0.002877	0.331301	-0.789232	-0.790610	-0.107593	5.684958	-0.775038	-2.059635E+10	5.223905E-12	NaN
1161	1.000000	0.342672	7.37641e+06	-57539.1	1105.82	-29736.6	0.000000	0.000000	6.342864	-0.013280	NaN	0.000000	0.001596	0.001709	28.0822	0.135397	0.002148	63.0438	44.0151	-162.674	-0.077954	0.341326	-0.779239	-0.780585	-0.013280	63.0438	-0.779081	-2.337447E+10	5.681622E-13	NaN
1161	1.000000	0.352679	7.37641e+06	-57539.1	1105.82	-29736.6	0.000000	0.000000	6.352868	-0.066002	NaN	0.000000	0.001603	0.001661	28.0825	0.064934	0.001980	32.7888	-45.3259	15.5301	-0.066246	0.351321	-0.769232	-0.770590	-0.066002	32.7888	-0.767722	-1.638082E+10	4.029225E-12	NaN
1161	1.000000	0.362679	7.37641e+06	-57539.1	1105.82	-29736.6	0.000000	0.000000	6.362867	-0.095774	NaN	0.000000	0.001571	0.001655	28.0823	0.045588	0.001985	22.9686	58.4811	-163.352	-0.065751	0.361349	-0.759232	-0.760562	-0.095774	22.9686	-0.756105	-1.138421E+10	8.412882E-12	NaN
1161	1.000000	0.372672	7.37641e+06	-57539.1	1105.82	-29736.6	0.000000	0.000000	6.372863	-0.025584	NaN	0.000000	0.001602	0.001697	28.0826	0.049919	0.002030	24.5924	-77.8515	16.6943	0.009414	0.371339	-0.749239	-0.750572	-0.025584	24.5924	-0.748459	-8.958540E+9	2.855869E-12	NaN
1161	1.000000	0.382706	7.37641e+06	-57539.1	1105.82	-29736.6	0.000000	0.000000	6.382895	-0.060957	NaN	0.000000	0.001614	0.001730	28.0822	0.041500	0.001974	21.028	53.1941	-165.391	-0.046816	0.381401	-0.739205	-0.740510	-0.060957	21.028	-0.737031	-6.260603E+9	9.736550E-12	NaN
1161	1.000000	0.392704	7.37641e+06	-57539.1	1105.82	-29736.6	0.000000	0.000000	6.392894	-0.051945	NaN	0.000000	0.001606	0.001638	28.0827	0.059260	0.001939	30.5619	167.574	14.792	-0.063063	0.391367	-0.729207	-0.730544	-0.051945	30.5619	-0.727932	-4.705676E+9	1.103874E-11	NaN
1161	1.000000	0.402708	7.37641e+06	-57539.1	1105.82	-29736.6	0.000000	0.000000	6.402904	0.107451	NaN	0.000000	0.001601	0.001702	28.0824	0.041581	0.002099	19.8091	-84.8364	-162.02	0.116063	0.401403	-0.719203	-0.720508	0.107451	19.8091	-0.723271	-4.065204E+9	-2.643183E-11	NaN
1161	1.000000	0.412699	7.37641e+06	-57539.1	1105.82	-29736.6	0.000000	0.000000	6.412890	-0.019896	NaN	0.000000	0.001609	0.001641	28.0826	0.056998	0.002064	27.6215	40.1156	13.1547	0.013092	0.411385	-0.709212	-0.710526	-0.019896	27.6215	-0.708672	-2.569941E+9	7.741689E-12	NaN
1161	1.000000	0.422742	7.37641e+06	-57539.1	1105.82	-29736.6	0.000000	0.000000	6.422930	-0.096772	NaN	0.000000	0.001591	0.001651	28.0824	0.148293	0.001893	78.3569	19.2274	-164.469	-0.046792	0.421397	-0.699169	-0.700514	-0.096772	78.3569	-0.698243	-1.851540E+9	5.226578E-11	NaN
1161	1.000000	0.432707	7.37641e+06	-57539.1	1105.82	-29736.6	0.000000	0.000000	6.432902	0.077114	NaN	0.000000	0.001588	0.001626	28.0826	0.078635	0.001951	40.2998	-130.64	14.0722	0.021772	0.431335	-0.689204	-0.690576	0.077114	40.2998	-0.690639	-1.457644E+9	-5.290333E-11	NaN
1161	1.000000	0.442703	7.37641e+06	-57539.1	1105.82	-29736.6	0.000000	0.000000	6.442893	-0.057567	NaN	0.000000	0.001594	0.001690	28.0826	0.095941	0.001951	49.1818	157.169	-162.532	-0.117706	0.441470	-0.679208	-0.680441	-0.057567	49.1818	-0.678330	-9.893960E+8	5.818391E-11	NaN
1161	1.000000	0.452699	7.37641e+06	-57539.1	1105.82	-29736.6	0.000000	0.000000	6.452889	-0.040406	NaN	0.000000	0.001618	0.001666	28.0826	0.053751	0.001956	27.4823	174.008	15.1564	0.026289	0.451350	-0.669212	-0.670561	-0.040406	27.4823	-0.668110	-7.169931E+8	5.635457E-11	NaN
1161	1.000000	0.462717	7.37641e+06	-57539.1	1105.82	-29736.6	0.000000	0.000000	6.462907	-0.046453	NaN	0.000000	0.001667	0.001665	28.0811	0.067452	0.001958	34.4531	-128.72	-166.106	-0.006409	0.461397	-0.659195	-0.660514	-0.046453	34.4531	-0.658183	-5.243047E+8	8.859888E-11	NaN
1161	1.000000	0.472735	7.37641e+06	-57539.1	1105.82	-29736.6	0.000000	0.000000	6.472926	-0.027625	NaN	0.000000	0.001628	0.001697	28.0811	0.059223	0.001910	31.0101	20.0802	16.1802	-0.020357	0.471350	-0.649176	-0.650561	-0.027625	31.0101	-0.648508	-3.863541E+8	7.150100E-11	NaN
1161	1.000000	0.482708	7.37641e+06	-57539.1	1105.82	-29736.6	0.000000	0.000000	6.482900	-0.020298	NaN	0.000000	0.001635	0.001698	28.0812	0.046658	0.002021	23.0868	-111.334	-163.525	-0.043979	0.481414	-0.639203	-0.640497	-0.020298	23.0868	-0.638543	-2.820349E+8	7.196852E-11	NaN
1161	1.000000	0.492728	7.37641e+06	-57539.1	1105.82	-29736.6	0.000000	0.000000	6.492919	-0.042227	NaN	0.000000	0.001554	0.001668	28.0814	0.125431	0.001969	63.695	50.1871	16.3265	-0.080372	0.491393	-0.629183	-0.630518	-0.042227	63.695	-0.628686	-2.065250E+8	2.044657E-10	NaN
1161	1.000000	0.502749	7.37641e+06	-57539.1	1105.82	-29736.6	0.000000	0.000000	6.502941	0.004259	NaN	0.000000	0.001536	0.001715	28.0814	0.095007	0.002006	47.3504	-177.468	-163.269	0.086670	0.501430	-0.619162	-0.620482	0.004259	47.3504	-0.619229	-1.531233E+8	-2.781694E-11	NaN
1161	1.000000	0.512756	7.37641e+06	-57539.1	1105.82	-29736.6	0.000000	0.000000	6.512946	-0.058603	NaN	0.000000	0.001547	0.001691	28.0813	0.036446	0.001988	18.3362	-0.883487	17.3504	-0.050394	0.511447	-0.609155	-0.610464	-0.058603	18.3362	-0.606758	-1.031583E+8	5.680908E-10	NaN
1161	1.000000	0.522750	7.37641e+06	-57539.1	1105.82	-29736.6	0.000000	0.000000	6.522943	0.018288	NaN	0.000000	0.001561	0.001682	28.0812	0.018208	0.001975	9.216930	-126.031	-168.203	-0.007118	0.521476	-0.599161	-0.600435	0.018288	9.216930	-0.600649	-8.499587E+7	-2.151640E-10	NaN
1161	1.000000	0.532768	7.37641e+06	-57539.1	1105.82	-29736.6	0.000000	0.000000	6.532958	-0.039104	NaN	0.000000	0.001548	0.001710	28.0815	0.071336	0.002140	33.3284	86.5438	14.0959	-0.073814	0.531380	-0.589144	-0.590531	-0.039104	33.3284	-0.588264	-5.737532E+7	6.815451E-10	NaN
1161	1.000000	0.542780	7.37641e+06	-57539.1	1105.82	-29736.6	0.000000	0.000000	6.542970	-0.050046	NaN	0.000000	0.001512	0.001720	28.081	0.061034	0.002029	30.0765	106.719	-162.526	-0.087897	0.541459	-0.579131	-0.580452	-0.050046	30.0765	-0.577883	-4.125815E+7	1.212998E-9	NaN
1161	1.000000	0.552765	7.37641e+06	-57539.1	1105.82	-29736.6	0.000000	0.000000	6.552957	-0.017161	NaN	0.000000	0.001536	0.001713	28.0813	0.083193	0.001929	43.125	-147.649	14.0004	-0.006377	0.551358	-0.569146	-0.570553	-0.017161	43.125	-0.568847	-3.095323E+7	5.544044E-10	NaN
1161	1.000000	0.562764	7.37641e+06	-57539.1	1105.82	-29736.6	0.000000	0.000000	6.562955	-0.047159	NaN	0.000000	0.001548	0.001751	28.081	0.036413	0.001958	18.5968	147.651	-163.309	-0.102463	0.561431	-0.559147	-0.560480	-0.047159	18.5968	-0.557245	-2.139224E+7	2.204501E-9	NaN
1161	1.000000	0.572772	7.37641e+06	-57539.1	1105.82	-29736.6	0.000000	0.000000	6.572963	-0.033675	NaN	0.000000	0.001556	0.001714	28.0812	0.093851	0.002010	46.6856	-95.6893	13.3397	-7.546559E-5	0.571359	-0.549139	-0.550552	-0.033675	46.6856	-0.548598	-1.623800E+7	2.073811E-9	NaN
1161	1.000000	0.582770	7.37641e+06	-57539.1	1105.82	-29736.6	0.000000	0.000000	6.582965	0.054658	NaN	0.000000	0.001535	0.001706	28.0813	0.073893	0.002010	36.7658	169.095	-167.529	0.026350	0.581509	-0.539141	-0.540402	0.054658	36.7658	-0.540256	-1.244247E+7	-4.392832E-9	NaN
1161	1.000000	0.592809	7.37641e+06	-57539.1	1105.82	-29736.6	0.000000	0.000000	6.593001	-0.004507	NaN	0.000000	0.001611	0.001679	28.0818	0.035463	0.001932	18.3594	134.89	13.1423	0.042039	0.591406	-0.529102	-0.530505	-0.004507	18.3594	-0.528918	-8.66049e+06	5.203977E-10	NaN
1161	1.000000	0.602777	7.37641e+06	-57539.1	1105.82	-29736.6	0.000000	0.000000	6.602968	-0.020445	NaN	0.000000	0.001609	0.001731	28.0825	0.052042	0.002113	24.6291	21.2196	-161.924	0.023317	0.601464	-0.519134	-0.520447	-0.020445	24.6291	-0.518512	-6.20725e+06	3.293758E-9	NaN
1161	1.000000	0.612781	7.37641e+06	-57539.1	1105.82	-29736.6	0.000000	0.000000	6.612973	0.012654	NaN	0.000000	0.001566	0.001724	28.0824	0.054565	0.002151	25.3706	-84.1431	16.5162	0.015533	0.611360	-0.509130	-0.510551	0.012654	25.3706	-0.509505	-4.65065e+06	-2.720908E-9	NaN
1161	1.000000	0.622790	7.37641e+06	-57539.1	1105.82	-29736.6	0.000000	0.000000	6.622984	0.064281	NaN	0.000000	0.001617	0.001673	28.0828	0.067593	0.002008	33.6676	51.2818	-165.249	0.018239	0.621498	-0.499122	-0.500414	0.064281	33.6676	-0.500554	-3.48932e+06	-1.842221E-8	NaN
1161	1.000000	0.632805	7.37641e+06	-57539.1	1105.82	-29736.6	0.000000	0.000000	6.632993	-0.102688	NaN	0.000000	0.001551	0.001657	28.0824	0.043388	0.002230	19.4532	-80.6472	16.2058	-0.096010	0.631480	-0.489106	-0.490431	-0.102688	19.4532	-0.485147	-2.12591e+06	4.830322E-8	NaN
1161	1.000000	0.642796	7.37641e+06	-57539.1	1105.82	-29736.6	0.000000	0.000000	6.642987	-0.042691	NaN	0.000000	0.001524	0.001673	28.0828	0.075807	0.001986	38.1715	119.585	-164.527	-0.070028	0.641488	-0.479115	-0.480424	-0.042691	38.1715	-0.478276	-1.70369e+06	2.505779E-8	NaN
1161	1.000000	0.652819	7.37641e+06	-57539.1	1105.82	-29736.6	0.000000	0.000000	6.653006	-0.117521	NaN	0.000000	0.001536	0.001679	28.0828	0.069281	0.002004	34.5669	123.014	17.3727	-0.004152	0.651438	-0.469092	-0.470474	-0.117521	34.5669	-0.466542	-1.16653e+06	1.007443E-7	NaN
1161	1.000000	0.662843	7.37641e+06	-57539.1	1105.82	-29736.6	0.000000	0.000000	6.663032	-0.074701	NaN	0.000000	0.001579	0.001689	28.0831	0.068270	0.002002	34.094	-14.5342	-162.886	0.015867	0.661495	-0.459068	-0.460416	-0.074701	34.094	-0.457425	-868605	8.600104E-8	NaN
1161	1.000000	0.672811	7.37641e+06	-57539.1	1105.82	-29736.6	0.000000	0.000000	6.673005	0.044570	NaN	0.000000	0.001588	0.001691	28.0828	0.053746	0.001938	27.7286	-111.904	12.9245	-0.006616	0.671446	-0.449100	-0.450465	0.044570	27.7286	-0.450306	-689676	-6.462429E-8	NaN
1161	1.000000	0.682808	7.37641e+06	-57539.1	1105.82	-29736.6	0.000000	0.000000	6.682996	-0.085124	NaN	0.000000	0.001610	0.001665	28.0832	0.034183	0.001937	17.6432	-114.304	-167.293	-0.008661	0.681491	-0.439103	-0.440420	-0.085124	17.6432	-0.435485	-426193	1.997317E-7	NaN
1161	1.000000	0.692816	7.37641e+06	-57539.1	1105.82	-29736.6	0.000000	0.000000	6.693008	-0.014247	NaN	0.000000	0.001558	0.001666	28.083	0.079367	0.002000	39.6825	89.7441	11.4741	-0.061747	0.691460	-0.429095	-0.430452	-0.014247	39.6825	-0.428826	-343120	4.152110E-8	NaN
1161	1.000000	0.702858	7.37641e+06	-57539.1	1105.82	-29736.6	0.000000	0.000000	6.703047	-0.068604	NaN	0.000000	0.001557	0.001673	28.0828	0.101592	0.001965	51.6957	-13.9692	-166.269	-0.057060	0.701539	-0.419053	-0.420372	-0.068604	51.6957	-0.418058	-241471	2.841110E-7	NaN
1161	1.000000	0.712819	7.37641e+06	-57539.1	1105.82	-29736.6	0.000000	0.000000	6.713009	-0.047460	NaN	0.000000	0.001567	0.001673	28.0827	0.062003	0.001929	32.1486	50.4738	13.4528	-0.011884	0.711439	-0.409092	-0.410472	-0.047460	32.1486	-0.407985	-173674	2.732727E-7	NaN
1161	1.000000	0.722830	7.37641e+06	-57539.1	1105.82	-29736.6	0.000000	0.000000	6.723022	-0.004763	NaN	0.000000	0.001599	0.001698	28.0826	0.101920	0.002013	50.6421	-136.506	-164.195	0.058039	0.721564	-0.399081	-0.400347	-0.004763	50.6421	-0.399011	-129385	3.681113E-8	NaN
1161	1.000000	0.732845	7.37641e+06	-57539.1	1105.82	-29736.6	0.000000	0.000000	6.733036	-0.010150	NaN	0.000000	0.001570	0.001690	28.0817	0.114888	0.002040	56.3154	32.5731	14.0122	-0.002044	0.731479	-0.389066	-0.390433	-0.010150	56.3154	-0.388931	-92869.8	1.092925E-7	NaN
1161	1.000000	0.742842	7.37641e+06	-57539.1	1105.82	-29736.6	0.000000	0.000000	6.743033	-0.006441	NaN	0.000000	0.001591	0.001683	28.081	0.110949	0.002164	51.2685	56.1423	-161.862	0.051463	0.741511	-0.379070	-0.380400	-0.006441	51.2685	-0.378975	-66862.3	9.632912E-8	NaN
1161	1.000000	0.752818	7.37641e+06	-57539.1	1105.82	-29736.6	0.000000	0.000000	6.753007	-0.070328	NaN	0.000000	0.001605	0.001690	28.0813	0.058455	0.001924	30.3875	34.8432	13.1971	-0.010634	0.751506	-0.369094	-0.370406	-0.070328	30.3875	-0.367358	-45504.7	1.545512E-6	NaN
1161	1.000000	0.762864	7.37641e+06	-57539.1	1105.82	-29736.6	0.000000	0.000000	6.763053	-0.089901	NaN	0.000000	0.001609	0.001668	28.0813	0.081556	0.001942	42.0044	128.209	-167.386	0.012729	0.761560	-0.359047	-0.360351	-0.089901	42.0044	-0.357441	-32722.2	2.747393E-6	NaN
1161	1.000000	0.772864	7.37641e+06	-57539.1	1105.82	-29736.6	0.000000	0.000000	6.773055	-0.021766	NaN	0.000000	0.001620	0.001687	28.0813	0.136394	0.002068	65.9645	97.3195	15.4984	-0.008949	0.771482	-0.349047	-0.350429	-0.021766	65.9645	-0.348799	-24523	8.875580E-7	NaN
1161	1.000000	0.782855	7.37641e+06	-57539.1	1105.82	-29736.6	0.000000	0.000000	6.783046	-0.046640	NaN	0.000000	0.001589	0.001675	28.0812	0.134678	0.001996	67.4829	-172.021	-166.33	0.007932	0.781512	-0.339056	-0.340400	-0.046640	67.4829	-0.338537	-17387.1	2.682445E-6	NaN
1161	1.000000	0.792877	7.37641e+06	-57539.1	1105.82	-29736.6	0.000000	0.000000	6.793069	0.004517	NaN	0.000000	0.001635	0.001693	28.0812	0.057072	0.002031	28.1021	-115.158	14.168	0.045615	0.791497	-0.329034	-0.330414	0.004517	28.1021	-0.329155	-12678.6	-3.562779E-7	NaN
1161	1.000000	0.802870	7.37641e+06	-57539.1	1105.82	-29736.6	0.000000	0.000000	6.803059	-0.062473	NaN	0.000000	0.001623	0.001704	28.0813	0.123798	0.002045	60.5467	-161.543	-163.811	-0.111932	0.801538	-0.319041	-0.320374	-0.062473	60.5467	-0.318268	-8772.59	7.121422E-6	NaN
1161	1.000000	0.812858	7.37641e+06	-57539.1	1105.82	-29736.6	0.000000	0.000000	6.813049	-0.013027	NaN	0.000000	0.001633	0.001727	28.0813	0.054468	0.001879	28.9884	-172.516	12.4058	-0.021080	0.811472	-0.309053	-0.310439	-0.013027	28.9884	-0.308716	-6339.44	2.054900E-6	NaN
1161	1.000000	0.822889	7.37641e+06	-57539.1	1105.82	-29736.6	0.000000	0.000000	6.823079	-0.037771	NaN	0.000000	0.001631	0.001701	28.0812	0.094428	0.002123	44.4726	-114.924	-166.58	0.047582	0.821528	-0.299022	-0.300383	-0.037771	44.4726	-0.298385	-4452.31	8.483495E-6	NaN
1161	1.000000	0.832886	7.37641e+06	-57539.1	1105.82	-29736.6	0.000000	0.000000	6.833074	-0.101403	NaN	0.000000	0.001599	0.001670	28.0813	0.044114	0.001939	22.7533	-95.1935	15.6199	-0.125248	0.831531	-0.289025	-0.290380	-0.101403	22.7533	-0.285682	-2874.22	3.528007E-5	NaN
1161	1.000000	0.842863	7.37641e+06	-57539.1	1105.82	-29736.6	0.000000	0.000000	6.843051	-0.093889	NaN	0.000000	0.001582	0.001684	28.0813	0.056964	0.002008	28.369	61.5136	-166.153	0.026768	0.841591	-0.279048	-0.280320	-0.093889	28.369	-0.276566	-2094.59	4.482465E-5	NaN
1161	1.000000	0.852853	7.37641e+06	-57539.1	1105.82	-29736.6	0.000000	0.000000	6.853041	-0.099754	NaN	0.000000	0.001588	0.001683	28.0814	0.078096	0.002043	38.2295	165.434	16.035	-0.051439	0.851523	-0.269058	-0.270388	-0.099754	38.2295	-0.267101	-1504.62	6.629874E-5	NaN
1161	1.000000	0.862890	7.37641e+06	-57539.1	1105.82	-29736.6	0.000000	0.000000	6.863082	-0.018623	NaN	0.000000	0.001545	0.001679	28.0811	0.049511	0.001990	24.881	-21.8893	-162.922	0.005413	0.861578	-0.259021	-0.260333	-0.018623	24.881	-0.258459	-1109.91	1.677872E-5	NaN
1161	1.000000	0.872903	7.37641e+06	-57539.1	1105.82	-29736.6	0.000000	0.000000	6.873093	-0.035705	NaN	0.000000	0.001599	0.001701	28.0826	0.103165	0.001959	52.6491	-134.085	13.3022	0.002617	0.871557	-0.249008	-0.250354	-0.035705	52.6491	-0.248500	-779.377	4.581216E-5	NaN
1161	1.000000	0.882890	7.37641e+06	-57539.1	1105.82	-29736.6	0.000000	0.000000	6.883084	0.035327	NaN	0.000000	0.001568	0.001686	28.0829	0.055105	0.001992	27.6667	-51.0751	-163.895	0.110615	0.881606	-0.239021	-0.240305	0.035327	27.6667	-0.239979	-574.405	-6.150169E-5	NaN
1161	1.000000	0.892913	7.37641e+06	-57539.1	1105.82	-29736.6	0.000000	0.000000	6.893104	-0.019765	NaN	0.000000	0.001596	0.001725	28.0827	0.050611	0.002038	24.8301	-9.359645	14.1577	-0.026832	0.891491	-0.228999	-0.230420	-0.019765	24.8301	-0.228402	-377.792	5.231794E-5	NaN
1161	1.000000	0.902900	7.37641e+06	-57539.1	1105.82	-29736.6	0.000000	0.000000	6.903090	-0.067762	NaN	0.000000	0.001562	0.001702	28.0826	0.206609	0.002018	102.366	-145.922	-166.355	0.010532	0.901608	-0.219011	-0.220303	-0.067762	102.366	-0.218514	-262.974	0.000258	NaN
1161	1.000000	0.912939	7.37641e+06	-57539.1	1105.82	-29736.6	0.000000	0.000000	6.913131	-0.022258	NaN	0.000000	0.001590	0.001713	28.083	0.036399	0.002037	17.8679	-89.8502	15.2624	-0.051266	0.911488	-0.208972	-0.210424	-0.022258	17.8679	-0.208037	-178.235	0.000125	NaN
1161	1.000000	0.922919	7.37641e+06	-57539.1	1105.82	-29736.6	0.000000	0.000000	6.923111	0.015769	NaN	0.000000	0.001595	0.001683	28.0828	0.111959	0.002004	55.8735	-131.814	-165.588	-0.021223	0.921619	-0.198993	-0.200293	0.015769	55.8735	-0.199204	-127.825	-0.000123	NaN
1161	1.000000	0.932924	7.37641e+06	-57539.1	1105.82	-29736.6	0.000000	0.000000	6.933113	-0.066281	NaN	0.000000	0.001599	0.001671	28.0831	0.064408	0.001990	32.3689	54.2765	12.5027	-0.075284	0.931547	-0.188987	-0.190364	-0.066281	32.3689	-0.187451	-81.5377	0.000813	NaN
1161	1.000000	0.942938	7.37641e+06	-57539.1	1105.82	-29736.6	0.000000	0.000000	6.943126	-0.089453	NaN	0.000000	0.001692	0.001663	28.0827	0.048208	0.001989	24.2347	-95.1434	-166.867	-0.069388	0.941597	-0.178973	-0.180314	-0.089453	24.2347	-0.176205	-52.5603	0.001702	NaN
1161	1.000000	0.952945	7.37641e+06	-57539.1	1105.82	-29736.6	0.000000	0.000000	6.953133	-0.085317	NaN	0.000000	0.001606	0.001681	28.0831	0.037753	0.001895	19.9204	116.064	17.5377	-0.064653	0.951493	-0.168967	-0.170418	-0.085317	19.9204	-0.165754	-34.6371	0.002463	NaN
1161	1.000000	0.962917	7.37641e+06	-57539.1	1105.82	-29736.6	0.000000	0.000000	6.963109	0.009494	NaN	0.000000	0.001604	0.001684	28.0827	0.104498	0.001941	53.8297	131.392	-163.793	0.020276	0.961602	-0.158995	-0.160309	0.009494	53.8297	-0.159127	-26.4518	-0.000359	NaN
1161	1.000000	0.972953	7.37641e+06	-57539.1	1105.82	-29736.6	0.000000	0.000000	6.973142	-0.068822	NaN	0.000000	0.001621	0.001672	28.0826	0.050203	0.001951	25.7329	-112	14.5541	-0.035750	0.971589	-0.148958	-0.150322	-0.068822	25.7329	-0.146952	-15.9289	0.004321	NaN
1161	1.000000	0.982949	7.37641e+06	-57539.1	1105.82	-29736.6	0.000000	0.000000	6.983140	-0.017020	NaN	0.000000	0.001592	0.001651	28.0824	0.077408	0.002007	38.5603	-145.964	-165.588	0.009849	0.981638	-0.138963	-0.140273	-0.017020	38.5603	-0.138631	-11.1482	0.001527	NaN
1161	1.000000	0.992947	7.37641e+06	-57539.1	1105.82	-29736.6	0.000000	0.000000	6.993137	-0.055262	NaN	0.000000	0.001599	0.001695	28.0828	0.123383	0.002004	61.5727	22.2551	14.6358	-0.045668	0.991595	-0.128964	-0.130316	-0.055262	61.5727	-0.128291	-7.058496	0.007829	NaN
1161	1.000000	1.002952	7.37641e+06	-57539.1	1105.82	-29736.6	0.000000	0.000000	7.003144	0.008736	NaN	0.000000	0.001594	0.001705	28.0818	0.075460	0.001948	38.7467	31.8654	-166.556	-0.011544	1.001680	-0.118960	-0.120231	0.008736	38.7467	-0.119129	-4.639430	-0.001883	NaN
1161	1.000000	1.012951	7.37641e+06	-57539.1	1105.82	-29736.6	0.000000	0.000000	7.013142	-0.010126	NaN	0.000000	0.001573	0.001679	28.0813	0.109176	0.002066	52.8533	5.875866	13.3388	-0.044780	1.011619	-0.108960	-0.110292	-0.010126	52.8533	-0.108817	-2.836964	0.003569	NaN
1161	1.000000	1.022964	7.37641e+06	-57539.1	1105.82	-29736.6	0.000000	0.000000	7.023156	-0.000914	NaN	0.000000	0.001632	0.001690	28.0814	0.035946	0.001970	18.2441	-130.26	-166.29	-0.108557	1.021631	-0.098947	-0.100281	-0.000914	18.2441	-0.098909	-1.727935	0.000529	NaN
1161	1.000000	1.032962	7.37641e+06	-57539.1	1105.82	-29736.6	0.000000	0.000000	7.033153	-0.007053	NaN	0.000000	0.001607	0.001647	28.0826	0.120247	0.002119	56.7601	6.830617	15.5259	-0.008302	1.031571	-0.088950	-0.090340	-0.007053	56.7601	-0.088856	-1.015997	0.006942	NaN
1161	1.000000	1.042958	7.37641e+06	-57539.1	1105.82	-29736.6	0.000000	0.000000	7.043145	-0.113103	NaN	0.000000	0.001634	0.001694	28.0812	0.057010	0.002011	28.349	-99.1133	-166.486	-0.071091	1.041685	-0.078953	-0.080226	-0.113103	28.349	-0.075961	-0.488984	0.231303	NaN
1161	1.000000	1.052969	7.37641e+06	-57539.1	1105.82	-29736.6	0.000000	0.000000	7.053159	-0.050775	NaN	0.000000	0.001612	0.001687	28.0813	0.096207	0.001983	48.5079	-142.149	14.405	-0.127637	1.051634	-0.068942	-0.070277	-0.050775	48.5079	-0.068157	-0.304225	0.166898	NaN
1161	1.000000	1.062985	7.37641e+06	-57539.1	1105.82	-29736.6	0.000000	0.000000	7.063176	-0.039368	NaN	0.000000	0.001582	0.001729	28.0811	0.075177	0.001985	37.8788	-64.6066	-166.616	0.042904	1.061685	-0.058926	-0.060226	-0.039368	37.8788	-0.058147	-0.159226	0.247247	NaN
1161	1.000000	1.072984	7.37641e+06	-57539.1	1105.82	-29736.6	0.000000	0.000000	7.073175	-0.011870	NaN	0.000000	0.001608	0.001691	28.0815	0.031397	0.002051	15.3092	31.3049	11.086	-0.056638	1.071610	-0.048928	-0.050301	-0.011870	15.3092	-0.048346	-0.081298	0.146009	NaN
1161	1.000000	1.082971	7.37641e+06	-57539.1	1105.82	-29736.6	0.000000	0.000000	7.083162	-0.034532	NaN	0.000000	0.001575	0.001698	28.0812	0.087055	0.002042	42.6311	4.054704	-170.11	-0.130961	1.081695	-0.038940	-0.040216	-0.034532	42.6311	-0.038333	-0.040261	0.857702	NaN
1161	1.000000	1.092974	7.37641e+06	-57539.1	1105.82	-29736.6	0.000000	0.000000	7.093162	-0.089548	NaN	0.000000	0.001579	0.001708	28.0812	0.093155	0.002004	46.4752	42.9043	15.4008	-0.045691	1.091595	-0.028937	-0.030316	-0.089548	46.4752	-0.027492	-0.019644	4.558565	NaN
1161	1.000000	1.103005	7.37641e+06	-57539.1	1105.82	-29736.6	0.000000	0.000000	7.103196	-0.034068	NaN	0.000000	0.001555	0.001688	28.0812	0.043459	0.001982	21.9285	-16.5909	-163.805	-0.017291	1.101742	-0.018906	-0.020169	-0.034068	21.9285	-0.017741	-0.010991	3.099569	NaN
1161	1.000000	1.113010	7.37641e+06	-57539.1	1105.82	-29736.6	0.000000	0.000000	7.113199	-0.065963	NaN	0.000000	0.001578	0.001681	28.0814	0.034574	0.001968	17.5675	159.059	17.8952	-0.035033	1.111683	-0.008901	-0.010228	-0.065963	17.5675	-0.006085	-0.004088	16.135	NaN
1161	1.000000	1.123007	7.37641e+06	-57539.1	1105.82	-29736.6	0.000000	0.000000	7.123203	0.107478	NaN	0.000000	0.001583	0.001777	28.0811	0.321335	0.001921	167.284	16.5384	-165.39	-0.069495	1.121716	0.001096	-0.000196	0.107478	167.284	0.000614	0.000464	231.46	7092.6
1161	2.000000	1.132061	7.37641e+06	-57539.1	1105.82	-29736.6	0.000000	0.000000	7.132582	7.995351	NaN	0.000000	0.001567	0.001715	28.0813	8.425206	0.001878	4487.3	12.9801	6.511883	7.849569	1.131461	0.010150	0.009550	7.995351	4487.3	0.008814	0.007893	1012.99	46146.9
1161	2.000000	1.134537	7.37641e+06	-57539.1	1105.82	-29736.6	0.000000	0.000000	7.135228	12.1466	NaN	0.000000	0.001591	0.001692	28.0825	11.2731	0.001774	6353.56	3.775121	-170.066	11.0704	1.134310	0.012626	0.012399	12.1466	6353.56	0.011192	0.010536	1152.84	56552.1
1161	2.000000	1.137050	7.37641e+06	-57539.1	1105.82	-29736.6	0.000000	0.000000	7.137781	13.0878	NaN	0.000000	0.001588	0.001687	28.0825	13.7132	0.001794	7642.11	9.045092	5.361376	12.759	1.136703	0.015139	0.014792	13.0878	7642.11	0.013855	0.013788	949.187	59460.5
1161	2.000000	1.139567	7.37641e+06	-57539.1	1105.82	-29736.6	0.000000	0.000000	7.140517	18.4277	NaN	0.000000	0.001644	0.001682	28.0824	16.2477	0.001704	9533.7	6.352140	-175.46	18.0144	1.139277	0.017656	0.017366	18.4277	9533.7	0.016206	0.016928	1088.62	66947.9
1161	2.000000	1.142043	7.37641e+06	-57539.1	1105.82	-29736.6	0.000000	0.000000	7.143152	22.299	NaN	0.000000	0.001606	0.001685	28.0826	18.0539	0.001730	10435.5	8.028746	4.627626	22.0262	1.141591	0.020131	0.019680	22.299	10435.5	0.018529	0.020283	1099.39	66945.2
1161	2.000000	1.144513	7.37641e+06	-57539.1	1105.82	-29736.6	0.000000	0.000000	7.145824	27.1766	NaN	0.000000	0.001601	0.001710	28.0825	20.9565	0.001840	11390.5	11.2935	178.897	26.9921	1.144175	0.022602	0.022264	27.1766	11390.5	0.020813	0.023836	1140.16	67406.7
1161	2.000000	1.147006	7.37641e+06	-57539.1	1105.82	-29736.6	0.000000	0.000000	7.148453	30.5205	NaN	0.000000	0.001610	0.001704	28.0826	22.8639	0.001742	13128	5.674532	1.752539	28.4805	1.146610	0.025095	0.024699	30.5205	13128	0.023351	0.028084	1086.77	71572.3
1161	2.000000	1.149546	7.37641e+06	-57539.1	1105.82	-29736.6	0.000000	0.000000	7.151229	36.225	NaN	0.000000	0.001587	0.001691	28.0825	25.9117	0.001757	14744.7	5.705353	-177.904	37.6874	1.149269	0.027635	0.027358	36.225	14744.7	0.025792	0.032473	1115.55	74756.5
1161	2.000000	1.152005	7.37641e+06	-57539.1	1105.82	-29736.6	0.000000	0.000000	7.154019	44.2751	NaN	0.000000	0.001613	0.001715	28.0826	28.3053	0.001932	14652.2	7.213650	0.786243	43.1869	1.151621	0.030094	0.029710	44.2751	14652.2	0.027827	0.036361	1217.66	70203.5
1161	2.000000	1.154493	7.37641e+06	-57539.1	1105.82	-29736.6	0.000000	0.000000	7.156578	46.0082	NaN	0.000000	0.001633	0.001762	28.0826	30.3871	0.001837	16543.3	6.223517	179.888	47.0658	1.154208	0.032582	0.032297	46.0082	16543.3	0.030496	0.041779	1101.23	73946.4
1161	2.000000	1.157025	7.37641e+06	-57539.1	1105.82	-29736.6	0.000000	0.000000	7.159376	52.4816	NaN	0.000000	0.001634	0.001769	28.0823	32.2098	0.001756	18345.1	6.894344	-1.330623	54.3867	1.156655	0.035114	0.034744	52.4816	18345.1	0.032968	0.047120	1113.78	77212.9
1161	2.000000	1.159467	7.37641e+06	-57539.1	1105.82	-29736.6	0.000000	0.000000	7.162134	60.1695	NaN	0.000000	0.001563	0.001758	28.0823	35.3867	0.001849	19134.9	5.274121	179.153	59.3786	1.159183	0.037555	0.037272	60.1695	19134.9	0.035197	0.052206	1152.54	76513.8
1161	2.000000	1.162014	7.37641e+06	-57539.1	1105.82	-29736.6	0.000000	0.000000	7.165045	68.9898	NaN	0.000000	0.001628	0.001740	28.0824	37.2977	0.001868	19971.2	3.736901	0.569799	68.314	1.161631	0.040103	0.039720	68.9898	19971.2	0.037512	0.057757	1194.48	75923.2
1161	2.000000	1.164407	7.37641e+06	-57539.1	1105.82	-29736.6	0.000000	0.000000	7.168015	83.0079	NaN	0.000000	0.001649	0.001706	28.0825	39.9763	0.001882	21242.7	4.599541	179.035	79.1288	1.164131	0.042496	0.042219	83.0079	21242.7	0.039565	0.062910	1319.47	77378.9
1161	2.000000	1.166945	7.37641e+06	-57539.1	1105.82	-29736.6	0.000000	0.000000	7.170849	90.2038	NaN	0.000000	0.001666	0.001712	28.0824	41.9751	0.001915	21915.8	4.840069	-1.260303	88.0517	1.166567	0.045034	0.044656	90.2038	21915.8	0.041947	0.069157	1304.33	76139.8
1161	2.000000	1.169546	7.37641e+06	-57539.1	1105.82	-29736.6	0.000000	0.000000	7.173724	96.8564	NaN	0.000000	0.001653	0.001716	28.0812	44.9828	0.001823	24681.9	8.699405	172.87	100.825	1.169151	0.047635	0.047240	96.8564	24681.9	0.044692	0.076716	1262.53	81415.8
1161	2.000000	1.172012	7.37641e+06	-57539.1	1105.82	-29736.6	0.000000	0.000000	7.176666	108.449	NaN	0.000000	0.001678	0.001733	28.0812	45.254	0.001769	25585.8	5.673708	-3.078033	108.828	1.171580	0.050100	0.049669	108.449	25585.8	0.046921	0.083136	1304.48	81073.5
1161	2.000000	1.174385	7.37641e+06	-57539.1	1105.82	-29736.6	0.000000	0.000000	7.179588	121.792	NaN	0.000000	0.001649	0.001676	28.0814	46.9862	0.001739	27017.2	5.619904	175.304	117.323	1.174130	0.052474	0.052219	121.792	27017.2	0.049093	0.089631	1358.82	82448.9
1161	2.000000	1.176962	7.37641e+06	-57539.1	1105.82	-29736.6	0.000000	0.000000	7.182451	128.756	NaN	0.000000	0.001623	0.001713	28.0813	51.9434	0.001867	27818	5.664733	-5.059892	127.638	1.176669	0.055051	0.054758	128.756	27818	0.051579	0.097357	1322.51	81454.5
1161	2.000000	1.179470	7.37641e+06	-57539.1	1105.82	-29736.6	0.000000	0.000000	7.185399	139.432	NaN	0.000000	0.001654	0.001685	28.0814	53.2462	0.001662	32037.8	2.280964	177.407	139.553	1.179138	0.057559	0.057227	139.432	32037.8	0.054295	0.106150	1313.54	89841.1
1161	2.000000	1.182057	7.37641e+06	-57539.1	1105.82	-29736.6	0.000000	0.000000	7.188581	153.893	NaN	0.000000	0.001658	0.001696	28.0815	56.1565	0.001734	32380.4	8.583224	-8.347755	156.403	1.181552	0.060146	0.059641	153.893	32380.4	0.056581	0.113836	1351.89	87683.3
1161	2.000000	1.184440	7.37641e+06	-57539.1	1105.82	-29736.6	0.000000	0.000000	7.191377	163.929	NaN	0.000000	0.001673	0.001727	28.0817	58.3048	0.001816	32108.1	3.736770	176.146	163.009	1.184140	0.062529	0.062229	163.929	32108.1	0.058700	0.121187	1352.69	84267.4
1161	2.000000	1.186960	7.37641e+06	-57539.1	1105.82	-29736.6	0.000000	0.000000	7.194590	180.768	NaN	0.000000	0.001619	0.001751	28.0813	61.9236	0.001757	35240.5	7.184512	-8.615983	180.101	1.186524	0.065049	0.064613	180.768	35240.5	0.061202	0.130154	1388.88	89245.4
1161	2.000000	1.189428	7.37641e+06	-57539.1	1105.82	-29736.6	0.000000	0.000000	7.197379	188.585	NaN	0.000000	0.001627	0.001678	28.0817	65.5424	0.001932	33919.2	7.382019	170.918	186.048	1.189121	0.067517	0.067210	188.585	33919.2	0.063347	0.138083	1365.74	83396.5
1161	2.000000	1.191973	7.37641e+06	-57539.1	1105.82	-29736.6	0.000000	0.000000	7.200693	207.264	NaN	0.000000	0.001624	0.001733	28.0814	65.7744	0.001632	40302.3	5.053336	-7.695789	204.85	1.191561	0.070062	0.069650	207.264	40302.3	0.066205	0.148993	1391.1	95393.7
1161	2.000000	1.194413	7.37641e+06	-57539.1	1105.82	-29736.6	0.000000	0.000000	7.203665	220.199	NaN	0.000000	0.001631	0.001707	28.0817	68.548	0.001868	36694.1	3.556244	174.892	219.19	1.194131	0.072502	0.072220	220.199	36694.1	0.068001	0.156051	1411.07	84866.5
1161	2.000000	1.196965	7.37641e+06	-57539.1	1105.82	-29736.6	0.000000	0.000000	7.206924	237.375	NaN	0.000000	0.001598	0.001693	28.0813	70.5634	0.001723	40957.4	2.955414	-5.486009	237.517	1.196591	0.075054	0.074680	237.375	40957.4	0.070708	0.166978	1421.6	91574.9
1161	2.000000	1.199390	7.37641e+06	-57539.1	1105.82	-29736.6	0.000000	0.000000	7.210034	254.019	NaN	0.000000	0.001617	0.001718	28.0819	73.5218	0.001843	39882.3	0.289310	177.392	249.466	1.199138	0.077479	0.077227	254.019	39882.3	0.072702	0.175253	1449.44	87040.3
1161	2.000000	1.201873	7.37641e+06	-57539.1	1105.82	-29736.6	0.000000	0.000000	7.213296	272.958	NaN	0.000000	0.001605	0.001675	28.0825	75.5547	0.001780	42454.4	0.945880	-3.455270	265.171	1.201492	0.079962	0.079580	272.958	42454.4	0.075140	0.185624	1470.49	90028.4
1161	2.000000	1.204324	7.37641e+06	-57539.1	1105.82	-29736.6	0.000000	0.000000	7.216373	288.169	NaN	0.000000	0.001597	0.001704	28.0831	78.6346	0.001836	42839.8	1.852602	175.86	282.804	1.203981	0.082413	0.082070	288.169	42839.8	0.077368	0.195344	1475.18	88556.5
1161	2.000000	1.206890	7.37641e+06	-57539.1	1105.82	-29736.6	0.000000	0.000000	7.219767	308.317	NaN	0.000000	0.001603	0.001719	28.0828	80.836	0.001885	42888	2.304903	-5.239732	304.666	1.206527	0.084978	0.084616	308.317	42888	0.079587	0.205257	1502.1	86488.9
1161	2.000000	1.209493	7.37641e+06	-57539.1	1105.82	-29736.6	0.000000	0.000000	7.222657	315.275	NaN	0.000000	0.001559	0.001741	28.0832	84.074	0.001819	46208.1	4.108716	172.364	319.309	1.209088	0.087581	0.087177	315.275	46208.1	0.082464	0.218454	1443.21	90325.8
1161	2.000000	1.211907	7.37641e+06	-57539.1	1105.82	-29736.6	0.000000	0.000000	7.226037	338.765	NaN	0.000000	0.001582	0.001740	28.0835	85.7842	0.001657	51759.1	10.8096	-15.0133	334.803	1.211583	0.089996	0.089672	338.765	51759.1	0.085087	0.230816	1467.69	98430
1161	2.000000	1.214368	7.37641e+06	-57539.1	1105.82	-29736.6	0.000000	0.000000	7.229155	354.722	NaN	0.000000	0.001584	0.001729	28.0834	86.7917	0.001709	50795.6	6.414587	169.738	351.053	1.214035	0.092456	0.092124	354.722	50795.6	0.087219	0.241100	1471.26	94514.9
1161	2.000000	1.216941	7.37641e+06	-57539.1	1105.82	-29736.6	0.000000	0.000000	7.232240	367.168	NaN	0.000000	0.001605	0.001721	28.0826	90.2672	0.001791	50405.5	6.155423	-10.1179	366.725	1.216424	0.095029	0.094513	367.168	50405.5	0.089566	0.252665	1453.18	91617.6
1161	2.000000	1.219348	7.37641e+06	-57539.1	1105.82	-29736.6	0.000000	0.000000	7.235173	379.958	NaN	0.000000	0.001603	0.001712	28.0834	92.8075	0.001743	53236.8	5.771242	169.608	374.952	1.219142	0.097437	0.097230	379.958	53236.8	0.092084	0.265349	1431.92	94422.8
1161	2.000000	1.221852	7.37641e+06	-57539.1	1105.82	-29736.6	0.000000	0.000000	7.238680	404.326	NaN	0.000000	0.001625	0.001718	28.0829	94.1969	0.001823	51665.5	3.891688	-7.443416	396.868	1.221442	0.099941	0.099531	404.326	51665.5	0.094071	0.275566	1467.25	89921
1161	2.000000	1.224520	7.37641e+06	-57539.1	1105.82	-29736.6	0.000000	0.000000	7.241755	414.227	NaN	0.000000	0.001580	0.001720	28.0832	97.8537	0.001864	52495.8	5.289432	170.514	418.449	1.224280	0.102609	0.102369	414.227	52495.8	0.096691	0.289311	1431.77	89169.3
1161	2.000000	1.226947	7.37641e+06	-57539.1	1105.82	-29736.6	0.000000	0.000000	7.245263	440.49	NaN	0.000000	0.001591	0.001772	28.0827	99.7821	0.001757	56794	5.012770	-9.692358	440.801	1.226502	0.105036	0.104590	440.49	56794	0.099219	0.302873	1454.37	94285.7
1161	2.000000	1.229521	7.37641e+06	-57539.1	1105.82	-29736.6	0.000000	0.000000	7.248068	446.106	NaN	0.000000	0.001606	0.001738	28.0833	103.789	0.001759	59016.9	6.794885	168.095	454.996	1.229203	0.107610	0.107291	446.106	59016.9	0.101941	0.317794	1403.76	95648.2
1161	2.000000	1.230211	7.37641e+06	-57539.1	1105.82	-29736.6	0.000000	0.000000	7.249420	462.204	NaN	0.000000	0.001624	0.001742	28.0827	102.904	0.001785	57659.1	8.069154	167.018	452.427	1.229999	0.108299	0.108088	462.204	57659.1	0.102287	0.319720	1445.65	93165.8