File: remote_trans/data/nanoindenter/0828-1/data/Data_2025-08-06,11h17m57s/2025-07-22_16-23-58_1_450.txt
2025-07-22, 16:23:58, 1
Index	Phase	Displacement	Time	Pos X	Pos Y	Pos Z	Rot A	Rot B	Piezo Z	Force A	Force B	Gripper	Voltage A	Voltage B	Temperature	Amplitude force	Amplitude pos	Stiffness	Phase shift	Phase excitation	Force A raw	Displacement raw	HMax	HMax raw	Real Force	Real Stiffness	Contact Depth	Area	Hardness	Reduced Mod.
[#]	[#]	[um]	[s]	[um]	[um]	[um]	[m°]	[m°]	[um]	[uN]	[uN]	[V]	[V]	[V]	[°C]	[uN]	[um]	[N/m]	[°]	[°]	[uN]	[um]	[um]	[um]	[uN]	[N/m]	[um]	[um^2]	[MPa]	[MPa]
450	1.000000	0.002983	7.36946e+06	-54589.1	1005.82	-29743.4	0.000000	0.000000	6.002818	0.012999	NaN	0.000000	0.001518	0.001704	28.0829	0.084725	0.000902	93.9295	-146.93	-163.236	0.053074	0.001704	-1.027962	-1.029241	0.012999	93.9295	-1.028066	-5.413366E+13	-2.401314E-16	NaN
450	1.000000	0.010950	7.36946e+06	-54589.1	1005.82	-29743.4	0.000000	0.000000	6.010787	0.036165	NaN	0.000000	0.001529	0.001669	28.0831	0.083715	0.000884	94.6529	62.2656	-163.151	0.034735	0.009601	-1.019994	-1.021344	0.036165	94.6529	-1.020281	-4.253374E+13	-8.502633E-16	NaN
450	1.000000	0.018928	7.36946e+06	-54589.1	1005.82	-29743.4	0.000000	0.000000	6.018764	0.031188	NaN	0.000000	0.001535	0.001720	28.0831	0.131293	0.001752	74.9198	25.0662	-166.403	0.025912	0.017637	-1.012017	-1.013308	0.031188	74.9198	-1.012329	-3.324538E+13	-9.381081E-16	NaN
450	1.000000	0.026946	7.36946e+06	-54589.1	1005.82	-29743.4	0.000000	0.000000	6.026782	0.015694	NaN	0.000000	0.001591	0.001685	28.0827	0.034945	0.001878	18.6036	-174.529	-168.156	-0.072982	0.025575	-1.003999	-1.005370	0.015694	18.6036	-1.004631	-2.618889E+13	-5.992805E-16	NaN
450	1.000000	0.034884	7.36946e+06	-54589.1	1005.82	-29743.4	0.000000	0.000000	6.034717	-0.057256	NaN	0.000000	0.001656	0.001667	28.0817	0.033053	0.001881	17.5676	-90.4901	-163.263	-0.007611	0.033638	-0.996061	-0.997307	-0.057256	17.5676	-0.993616	-1.861287E+13	3.076164E-15	NaN
450	1.000000	0.042911	7.36946e+06	-54589.1	1005.82	-29743.4	0.000000	0.000000	6.042749	0.069933	NaN	0.000000	0.001638	0.001692	28.0818	0.046439	0.001914	24.2682	-31.1531	-167.613	0.046954	0.041583	-0.988034	-0.989362	0.069933	24.2682	-0.990195	-1.673938E+13	-4.177748E-15	NaN
450	1.000000	0.050904	7.36946e+06	-54589.1	1005.82	-29743.4	0.000000	0.000000	6.050742	0.067928	NaN	0.000000	0.001655	0.001709	28.0818	0.057466	0.002090	27.4975	-136.496	-166.37	0.049059	0.049594	-0.980041	-0.981351	0.067928	27.4975	-0.981894	-1.293972E+13	-5.249575E-15	NaN
450	1.000000	0.058909	7.36946e+06	-54589.1	1005.82	-29743.4	0.000000	0.000000	6.058745	0.023434	NaN	0.000000	0.001608	0.001698	28.082	0.026216	0.001990	13.1768	-1.256974	-168.158	0.016552	0.057548	-0.972036	-0.973397	0.023434	13.1768	-0.973370	-9.932901E+12	-2.359219E-15	NaN
450	1.000000	0.066947	7.36946e+06	-54589.1	1005.82	-29743.4	0.000000	0.000000	6.066784	0.048994	NaN	0.000000	0.001644	0.001729	28.0821	0.077873	0.001969	39.5527	-67.8639	-168.789	0.108777	0.065580	-0.963998	-0.965365	0.048994	39.5527	-0.964927	-7.643383E+12	-6.409947E-15	NaN
450	1.000000	0.074887	7.36946e+06	-54589.1	1005.82	-29743.4	0.000000	0.000000	6.074725	0.076962	NaN	0.000000	0.001596	0.001713	28.0818	0.044704	0.001947	22.9662	134.633	-166.304	0.024356	0.073597	-0.956058	-0.957348	0.076962	22.9662	-0.958571	-6.274899E+12	-1.226504E-14	NaN
450	1.000000	0.082924	7.36946e+06	-54589.1	1005.82	-29743.4	0.000000	0.000000	6.082760	0.040977	NaN	0.000000	0.001599	0.001732	28.0816	0.128001	0.002082	61.4713	115.373	-166.978	0.051170	0.081598	-0.948021	-0.949347	0.040977	61.4713	-0.948521	-4.592861E+12	-8.921814E-15	NaN
450	1.000000	0.090946	7.36946e+06	-54589.1	1005.82	-29743.4	0.000000	0.000000	6.090783	0.034468	NaN	0.000000	0.001663	0.001733	28.0817	0.087554	0.002077	42.1613	-142.924	-166.079	-0.006836	0.089675	-0.939999	-0.941269	0.034468	42.1613	-0.940612	-3.592485E+12	-9.594386E-15	NaN
450	1.000000	0.098927	7.36946e+06	-54589.1	1005.82	-29743.4	0.000000	0.000000	6.098760	-0.045916	NaN	0.000000	0.001667	0.001781	28.0815	0.117132	0.002203	53.1788	-9.212782	-167.858	0.000430	0.097573	-0.932018	-0.933372	-0.045916	53.1788	-0.931370	-2.695816E+12	1.703222E-14	NaN
450	1.000000	0.106935	7.36946e+06	-54589.1	1005.82	-29743.4	0.000000	0.000000	6.106769	-0.032484	NaN	0.000000	0.001625	0.001745	28.082	0.049296	0.002046	24.0963	49.814	-169.176	0.042228	0.105662	-0.924010	-0.925283	-0.032484	24.0963	-0.922999	-2.078219E+12	1.563068E-14	NaN
450	1.000000	0.114938	7.36946e+06	-54589.1	1005.82	-29743.4	0.000000	0.000000	6.114772	-0.035723	NaN	0.000000	0.001657	0.001709	28.0815	0.149359	0.001962	76.1167	-177.912	-166.438	-0.008404	0.113623	-0.916007	-0.917322	-0.035723	76.1167	-0.915655	-1.653994E+12	2.159793E-14	NaN
450	1.000000	0.122954	7.36946e+06	-54589.1	1005.82	-29743.4	0.000000	0.000000	6.122790	0.038134	NaN	0.000000	0.001710	0.001723	28.0818	0.095675	0.001952	49.0075	31.7586	-166.155	0.051749	0.121619	-0.907991	-0.909326	0.038134	49.0075	-0.908575	-1.327124E+12	-2.873418E-14	NaN
450	1.000000	0.130939	7.36946e+06	-54589.1	1005.82	-29743.4	0.000000	0.000000	6.130777	0.062827	NaN	0.000000	0.001713	0.001742	28.0815	0.037790	0.001819	20.7712	128.243	-164.812	0.057074	0.129633	-0.900006	-0.901312	0.062827	20.7712	-0.902275	-1.090936E+12	-5.758958E-14	NaN
450	1.000000	0.138963	7.36946e+06	-54589.1	1005.82	-29743.4	0.000000	0.000000	6.138796	-0.051047	NaN	0.000000	0.001714	0.001733	28.0812	0.100904	0.001975	51.0907	-147.739	-166.164	-0.000278	0.137664	-0.891982	-0.893281	-0.051047	51.0907	-0.891232	-7.737023E+11	6.597765E-14	NaN
450	1.000000	0.146977	7.36946e+06	-54589.1	1005.82	-29743.4	0.000000	0.000000	6.146814	0.046841	NaN	0.000000	0.001738	0.001727	28.0814	0.072334	0.001840	39.32	176.678	-165.511	0.018599	0.145595	-0.883968	-0.885350	0.046841	39.32	-0.884862	-6.345251E+11	-7.382061E-14	NaN
450	1.000000	0.154935	7.36946e+06	-54589.1	1005.82	-29743.4	0.000000	0.000000	6.154774	0.091864	NaN	0.000000	0.001710	0.001713	28.0814	0.053041	0.002000	26.5253	2.223418	-164.27	0.023969	0.153535	-0.876010	-0.877410	0.091864	26.5253	-0.878607	-5.222396E+11	-1.759032E-13	NaN
450	1.000000	0.162958	7.36946e+06	-54589.1	1005.82	-29743.4	0.000000	0.000000	6.162795	0.024118	NaN	0.000000	0.001696	0.001779	28.0815	0.072693	0.002057	35.3423	-122.17	-167.992	0.091377	0.161674	-0.867986	-0.869271	0.024118	35.3423	-0.868498	-3.811765E+11	-6.327131E-14	NaN
450	1.000000	0.171001	7.36946e+06	-54589.1	1005.82	-29743.4	0.000000	0.000000	6.170838	0.055687	NaN	0.000000	0.001730	0.001726	28.0826	0.044003	0.001981	22.2115	159.514	-165.978	0.042865	0.169625	-0.859944	-0.861320	0.055687	22.2115	-0.861824	-3.096100E+11	-1.798628E-13	NaN
450	1.000000	0.178969	7.36946e+06	-54589.1	1005.82	-29743.4	0.000000	0.000000	6.178805	0.026077	NaN	0.000000	0.001725	0.001718	28.0825	0.051991	0.002043	25.4512	16.4926	-167.754	-0.020763	0.177648	-0.851976	-0.853297	0.026077	25.4512	-0.852745	-2.332928E+11	-1.117792E-13	NaN
450	1.000000	0.186995	7.36946e+06	-54589.1	1005.82	-29743.4	0.000000	0.000000	6.186831	0.012620	NaN	0.000000	0.001712	0.001751	28.0826	0.087301	0.002005	43.5511	158.98	-166.491	0.034367	0.185649	-0.843950	-0.845296	0.012620	43.5511	-0.844167	-1.785429E+11	-7.068595E-14	NaN
450	1.000000	0.195001	7.36946e+06	-54589.1	1005.82	-29743.4	0.000000	0.000000	6.194838	0.044832	NaN	0.000000	0.001709	0.001775	28.0825	0.029854	0.002046	14.5938	-129.301	-165.049	0.098614	0.193677	-0.835943	-0.837268	0.044832	14.5938	-0.838247	-1.484394E+11	-3.020198E-13	NaN
450	1.000000	0.202994	7.36946e+06	-54589.1	1005.82	-29743.4	0.000000	0.000000	6.202832	0.054685	NaN	0.000000	0.001716	0.001735	28.0826	0.107661	0.001956	55.0535	-29.5566	-164.222	-0.062142	0.201630	-0.827951	-0.829315	0.054685	55.0535	-0.828696	-1.101801E+11	-4.963232E-13	NaN
450	1.000000	0.210973	7.36946e+06	-54589.1	1005.82	-29743.4	0.000000	0.000000	6.210810	0.034441	NaN	0.000000	0.001715	0.001710	28.0826	0.060784	0.001883	32.2718	-168.211	-162.307	0.072465	0.209611	-0.819972	-0.821334	0.034441	32.2718	-0.820772	-8.603658E+10	-4.003045E-13	NaN
450	1.000000	0.218964	7.36946e+06	-54589.1	1005.82	-29743.4	0.000000	0.000000	6.218798	-0.017850	NaN	0.000000	0.001759	0.001744	28.0826	0.038152	0.001994	19.132	16.3779	-166.986	-0.056136	0.217658	-0.811981	-0.813287	-0.017850	19.132	-0.811282	-6.396722E+10	2.790538E-13	NaN
450	1.000000	0.226977	7.36946e+06	-54589.1	1005.82	-29743.4	0.000000	0.000000	6.226809	-0.078428	NaN	0.000000	0.001704	0.001694	28.0828	0.134405	0.002101	63.9714	-71.4277	-165.891	-0.087134	0.225754	-0.803968	-0.805191	-0.078428	63.9714	-0.803048	-4.945791E+10	1.585756E-12	NaN
450	1.000000	0.234983	7.36946e+06	-54589.1	1005.82	-29743.4	0.000000	0.000000	6.234818	0.010296	NaN	0.000000	0.001679	0.001698	28.0824	0.053707	0.001970	27.2634	-148.503	-164.811	0.010195	0.233679	-0.795962	-0.797266	0.010296	27.2634	-0.796245	-3.998433E+10	-2.575039E-13	NaN
450	1.000000	0.242963	7.36946e+06	-54589.1	1005.82	-29743.4	0.000000	0.000000	6.242801	0.070036	NaN	0.000000	0.001631	0.001704	28.0825	0.063734	0.002007	31.7583	66.8607	-163.591	0.040913	0.241672	-0.787982	-0.789273	0.070036	31.7583	-0.789636	-3.251909E+10	-2.153697E-12	NaN
450	1.000000	0.250996	7.36946e+06	-54589.1	1005.82	-29743.4	0.000000	0.000000	6.250832	0.009224	NaN	0.000000	0.001660	0.001682	28.0827	0.039343	0.002047	19.2207	-87.4967	-165.126	0.099353	0.249621	-0.779948	-0.781324	0.009224	19.2207	-0.780308	-2.428966E+10	-3.797397E-13	NaN
450	1.000000	0.258991	7.36946e+06	-54589.1	1005.82	-29743.4	0.000000	0.000000	6.258826	-0.002441	NaN	0.000000	0.001671	0.001710	28.0827	0.054355	0.001994	27.2615	84.8136	-166.291	0.012345	0.257718	-0.771954	-0.773227	-0.002441	27.2615	-0.771887	-1.866205E+10	1.307961E-13	NaN
450	1.000000	0.266991	7.36946e+06	-54589.1	1005.82	-29743.4	0.000000	0.000000	6.266822	-0.113269	NaN	0.000000	0.001644	0.001723	28.0832	0.067739	0.001927	35.1537	-82.7962	-164.453	-0.071921	0.265733	-0.763954	-0.765212	-0.113269	35.1537	-0.761537	-1.349628E+10	8.392630E-12	NaN
450	1.000000	0.275000	7.36946e+06	-54589.1	1005.82	-29743.4	0.000000	0.000000	6.274836	0.026604	NaN	0.000000	0.001643	0.001695	28.0827	0.031567	0.001905	16.568	-126.887	-169.186	0.090414	0.273730	-0.755945	-0.757215	0.026604	16.568	-0.757149	-1.176306E+10	-2.261615E-12	NaN
450	1.000000	0.283001	7.36946e+06	-54589.1	1005.82	-29743.4	0.000000	0.000000	6.282835	-0.030365	NaN	0.000000	0.001642	0.001674	28.0829	0.037190	0.002016	18.45	125.926	-165.293	-0.058383	0.281715	-0.747943	-0.749230	-0.030365	18.45	-0.746709	-8.480453E+9	3.580591E-12	NaN
450	1.000000	0.291015	7.36946e+06	-54589.1	1005.82	-29743.4	0.000000	0.000000	6.290849	-0.030373	NaN	0.000000	0.001657	0.001668	28.0828	0.068387	0.001978	34.5678	-168.096	-165.015	-0.048873	0.289701	-0.739930	-0.741243	-0.030373	34.5678	-0.739271	-6.716227E+9	4.522352E-12	NaN
450	1.000000	0.299003	7.36946e+06	-54589.1	1005.82	-29743.4	0.000000	0.000000	6.298836	-0.051921	NaN	0.000000	0.001652	0.001712	28.0831	0.101567	0.002046	49.6339	-51.7766	-166.191	-0.022950	0.297744	-0.731942	-0.733201	-0.051921	49.6339	-0.731158	-5.206975E+9	9.971505E-12	NaN
450	1.000000	0.306999	7.36946e+06	-54589.1	1005.82	-29743.4	0.000000	0.000000	6.306834	0.002723	NaN	0.000000	0.001643	0.001681	28.0821	0.067566	0.002051	32.9404	-167.304	-168.749	0.005508	0.305723	-0.723946	-0.725222	0.002723	32.9404	-0.724008	-4.160372E+9	-6.545959E-13	NaN
450	1.000000	0.315005	7.36946e+06	-54589.1	1005.82	-29743.4	0.000000	0.000000	6.314842	0.044901	NaN	0.000000	0.001661	0.001705	28.0817	0.078134	0.001964	39.7887	-172.754	-163.941	-0.014682	0.313707	-0.715940	-0.717238	0.044901	39.7887	-0.716787	-3.316231E+9	-1.353984E-11	NaN
450	1.000000	0.323023	7.36946e+06	-54589.1	1005.82	-29743.4	0.000000	0.000000	6.322862	0.087093	NaN	0.000000	0.001652	0.001719	28.0817	0.030056	0.001981	15.1755	-165.659	-164.344	0.053115	0.321764	-0.707922	-0.709181	0.087093	15.1755	-0.712226	-2.873621E+9	-3.030761E-11	NaN
450	1.000000	0.331025	7.36946e+06	-54589.1	1005.82	-29743.4	0.000000	0.000000	6.330861	0.016769	NaN	0.000000	0.001643	0.001702	28.0815	0.052048	0.001975	26.3561	2.038183	-165.061	0.015151	0.329718	-0.699920	-0.701227	0.016769	26.3561	-0.700397	-1.981320E+9	-8.463322E-12	NaN
450	1.000000	0.339038	7.36946e+06	-54589.1	1005.82	-29743.4	0.000000	0.000000	6.338871	-0.054448	NaN	0.000000	0.001650	0.001691	28.0817	0.060384	0.001870	32.2873	-0.566131	-166.217	-0.022511	0.337704	-0.691907	-0.693241	-0.054448	32.2873	-0.690642	-1.457775E+9	3.735040E-11	NaN
450	1.000000	0.347045	7.36946e+06	-54589.1	1005.82	-29743.4	0.000000	0.000000	6.346882	0.041176	NaN	0.000000	0.001638	0.001711	28.0815	0.024020	0.002048	11.7273	-81.0804	-165.367	0.034194	0.345757	-0.683900	-0.685188	0.041176	11.7273	-0.686533	-1.280951E+9	-3.214517E-11	NaN
450	1.000000	0.355017	7.36946e+06	-54589.1	1005.82	-29743.4	0.000000	0.000000	6.354854	0.056274	NaN	0.000000	0.001685	0.001706	28.0816	0.023855	0.002044	11.6681	174.791	-166.574	-0.009149	0.353748	-0.675928	-0.677197	0.056274	11.6681	-0.679545	-1.027977E+9	-5.474222E-11	NaN
450	1.000000	0.363046	7.36946e+06	-54589.1	1005.82	-29743.4	0.000000	0.000000	6.362881	-0.010157	NaN	0.000000	0.001685	0.001720	28.0817	0.054304	0.002027	26.7923	-167.555	-166.506	0.035257	0.361645	-0.667899	-0.669300	-0.010157	26.7923	-0.667615	-7.058924E+8	1.438937E-11	NaN
450	1.000000	0.371064	7.36946e+06	-54589.1	1005.82	-29743.4	0.000000	0.000000	6.370900	0.022499	NaN	0.000000	0.001612	0.001707	28.0817	0.100443	0.002024	49.616	96.7712	-167.217	0.111603	0.369742	-0.659881	-0.661202	0.022499	49.616	-0.660221	-5.591150E+8	-4.023958E-11	NaN
450	1.000000	0.379035	7.36946e+06	-54589.1	1005.82	-29743.4	0.000000	0.000000	6.378871	0.012802	NaN	0.000000	0.001604	0.001732	28.0817	0.024130	0.002048	11.7813	66.6009	-163.952	-0.055727	0.377783	-0.651910	-0.653162	0.012802	11.7813	-0.652725	-4.413527E+8	-2.900734E-11	NaN
450	1.000000	0.387059	7.36946e+06	-54589.1	1005.82	-29743.4	0.000000	0.000000	6.386894	0.012463	NaN	0.000000	0.001566	0.001748	28.0816	0.023123	0.001987	11.6379	165.54	-165.286	0.036627	0.385695	-0.643886	-0.645249	0.012463	11.6379	-0.644689	-3.424649E+8	-3.639111E-11	NaN
450	1.000000	0.395045	7.36946e+06	-54589.1	1005.82	-29743.4	0.000000	0.000000	6.394883	0.074942	NaN	0.000000	0.001627	0.001686	28.0817	0.101507	0.001954	51.9558	31.8354	-168.229	0.066578	0.393694	-0.635900	-0.637251	0.074942	51.9558	-0.636982	-2.684588E+8	-2.791566E-10	NaN
450	1.000000	0.403101	7.36946e+06	-54589.1	1005.82	-29743.4	0.000000	0.000000	6.402937	0.020950	NaN	0.000000	0.001594	0.001717	28.0816	0.048645	0.002102	23.1378	149.671	-165.158	0.029105	0.401713	-0.627844	-0.629232	0.020950	23.1378	-0.628523	-2.054643E+8	-1.019625E-10	NaN
450	1.000000	0.411064	7.36946e+06	-54589.1	1005.82	-29743.4	0.000000	0.000000	6.410901	0.040304	NaN	0.000000	0.001563	0.001704	28.0817	0.047150	0.002083	22.6375	70.3238	-166.868	0.096452	0.409732	-0.619881	-0.621213	0.040304	22.6375	-0.621216	-1.630620E+8	-2.471684E-10	NaN
450	1.000000	0.419073	7.36946e+06	-54589.1	1005.82	-29743.4	0.000000	0.000000	6.418909	0.018377	NaN	0.000000	0.001596	0.001710	28.0819	0.033245	0.001884	17.6435	94.5577	-163.836	0.087428	0.417744	-0.611872	-0.613201	0.018377	17.6435	-0.612653	-1.243413E+8	-1.477984E-10	NaN
450	1.000000	0.427062	7.36946e+06	-54589.1	1005.82	-29743.4	0.000000	0.000000	6.426897	0.010003	NaN	0.000000	0.001558	0.001688	28.0815	0.094218	0.002062	45.685	-169.785	-163.084	0.104089	0.425736	-0.603883	-0.605209	0.010003	45.685	-0.604047	-9.466551E+7	-1.056620E-10	NaN
450	1.000000	0.435101	7.36946e+06	-54589.1	1005.82	-29743.4	0.000000	0.000000	6.434938	0.060503	NaN	0.000000	0.001579	0.001652	28.0816	0.054821	0.002139	25.6346	156.025	-167.137	0.086264	0.433763	-0.595844	-0.597182	0.060503	25.6346	-0.597614	-7.719739E+7	-7.837410E-10	NaN
450	1.000000	0.443080	7.36946e+06	-54589.1	1005.82	-29743.4	0.000000	0.000000	6.442914	-0.035213	NaN	0.000000	0.001606	0.001696	28.0819	0.074807	0.001954	38.2806	-37.5533	-166.874	-0.033811	0.441777	-0.587865	-0.589167	-0.035213	38.2806	-0.587175	-5.542613E+7	6.353090E-10	NaN
450	1.000000	0.451080	7.36946e+06	-54589.1	1005.82	-29743.4	0.000000	0.000000	6.450916	0.034421	NaN	0.000000	0.001597	0.001692	28.0827	0.084321	0.001907	44.2178	-135.448	-166.078	0.018834	0.449750	-0.579865	-0.581195	0.034421	44.2178	-0.580449	-4.476313E+7	-7.689487E-10	NaN
450	1.000000	0.459103	7.36946e+06	-54589.1	1005.82	-29743.4	0.000000	0.000000	6.458937	-0.026192	NaN	0.000000	0.001556	0.001699	28.0828	0.055588	0.002008	27.6776	17.0431	-162.043	-0.088579	0.457750	-0.571842	-0.573195	-0.026192	27.6776	-0.571132	-3.328664E+7	7.868745E-10	NaN
450	1.000000	0.467118	7.36946e+06	-54589.1	1005.82	-29743.4	0.000000	0.000000	6.466954	0.018638	NaN	0.000000	0.001571	0.001737	28.083	0.058224	0.001911	30.4655	61.5324	-166.373	-0.026062	0.465760	-0.563827	-0.565185	0.018638	30.4655	-0.564286	-2.677044E+7	-6.962233E-10	NaN
450	1.000000	0.475095	7.36946e+06	-54589.1	1005.82	-29743.4	0.000000	0.000000	6.474931	0.022572	NaN	0.000000	0.001570	0.001705	28.0828	0.052628	0.001952	26.9661	-73.2106	-165.862	-0.026653	0.473812	-0.555850	-0.557133	0.022572	26.9661	-0.556478	-2.087596E+7	-1.081258E-9	NaN
450	1.000000	0.483087	7.36946e+06	-54589.1	1005.82	-29743.4	0.000000	0.000000	6.482924	0.046716	NaN	0.000000	0.001615	0.001764	28.0825	0.167580	0.002128	78.7426	-176.631	-166.463	0.033907	0.481797	-0.547858	-0.549148	0.046716	78.7426	-0.548303	-1.608578E+7	-2.904165E-9	NaN
450	1.000000	0.491084	7.36946e+06	-54589.1	1005.82	-29743.4	0.000000	0.000000	6.490922	0.065757	NaN	0.000000	0.001606	0.001767	28.0826	0.091526	0.002052	44.6133	-80.4833	-165.748	0.003148	0.489777	-0.539861	-0.541168	0.065757	44.6133	-0.540966	-1.272799E+7	-5.166297E-9	NaN
450	1.000000	0.499117	7.36946e+06	-54589.1	1005.82	-29743.4	0.000000	0.000000	6.498953	0.016149	NaN	0.000000	0.001591	0.001755	28.0827	0.092207	0.001961	47.0088	16.2318	-166.888	0.040957	0.497759	-0.531828	-0.533186	0.016149	47.0088	-0.532085	-9.58368e+06	-1.685072E-9	NaN
450	1.000000	0.507118	7.36946e+06	-54589.1	1005.82	-29743.4	0.000000	0.000000	6.506953	0.006465	NaN	0.000000	0.001649	0.001717	28.0827	0.071334	0.002082	34.2614	-32.601	-169.053	-0.001432	0.505810	-0.523827	-0.525135	0.006465	34.2614	-0.523969	-7.39227e+06	-8.745152E-10	NaN
450	1.000000	0.515099	7.36946e+06	-54589.1	1005.82	-29743.4	0.000000	0.000000	6.514938	0.084181	NaN	0.000000	0.001623	0.001725	28.0827	0.063328	0.002002	31.6359	11.7225	-167.824	0.093808	0.513778	-0.515845	-0.517167	0.084181	31.6359	-0.517841	-6.0753e+06	-1.385626E-8	NaN
450	1.000000	0.523108	7.36946e+06	-54589.1	1005.82	-29743.4	0.000000	0.000000	6.522946	0.077027	NaN	0.000000	0.001644	0.001772	28.0826	0.044731	0.001998	22.3925	-158.145	-167.071	-0.012171	0.521838	-0.507837	-0.509107	0.077027	22.3925	-0.510417	-4.78877e+06	-1.608493E-8	NaN
450	1.000000	0.531119	7.36946e+06	-54589.1	1005.82	-29743.4	0.000000	0.000000	6.530955	0.031377	NaN	0.000000	0.001549	0.001700	28.0829	0.114771	0.002028	56.5961	-19.6753	-167.775	0.041689	0.529805	-0.499826	-0.501140	0.031377	56.5961	-0.500242	-3.45458e+06	-9.082828E-9	NaN
450	1.000000	0.539124	7.36946e+06	-54589.1	1005.82	-29743.4	0.000000	0.000000	6.538962	0.060641	NaN	0.000000	0.001536	0.001722	28.0825	0.062072	0.001990	31.1879	64.0784	-164.22	-0.040299	0.537853	-0.491821	-0.493092	0.060641	31.1879	-0.493279	-2.76186e+06	-2.195655E-8	NaN
450	1.000000	0.547110	7.36946e+06	-54589.1	1005.82	-29743.4	0.000000	0.000000	6.546945	0.000283	NaN	0.000000	0.001545	0.001721	28.0825	0.044652	0.002004	22.2816	36.0014	-166.028	-0.021751	0.545847	-0.483835	-0.485098	0.000283	22.2816	-0.483845	-2.0386e+06	-1.389535E-10	NaN
450	1.000000	0.555109	7.36946e+06	-54589.1	1005.82	-29743.4	0.000000	0.000000	6.554945	0.025086	NaN	0.000000	0.001522	0.001724	28.0825	0.051939	0.002005	25.9004	102.276	-161.457	0.045893	0.553792	-0.475836	-0.477153	0.025086	25.9004	-0.476562	-1.61208e+06	-1.556142E-8	NaN
450	1.000000	0.563117	7.36946e+06	-54589.1	1005.82	-29743.4	0.000000	0.000000	6.562951	-0.044610	NaN	0.000000	0.001547	0.001733	28.0827	0.055286	0.002098	26.3545	-55.6658	-164.81	-0.004172	0.561798	-0.467828	-0.469147	-0.044610	26.3545	-0.466558	-1.16713e+06	3.822173E-8	NaN
450	1.000000	0.571133	7.36946e+06	-54589.1	1005.82	-29743.4	0.000000	0.000000	6.570964	-0.105774	NaN	0.000000	0.001589	0.001781	28.0827	0.051616	0.001814	28.4597	152.767	-166.623	-0.059814	0.569817	-0.459812	-0.461128	-0.105774	28.4597	-0.457024	-857409	1.233652E-7	NaN
450	1.000000	0.579149	7.36946e+06	-54589.1	1005.82	-29743.4	0.000000	0.000000	6.578984	-0.000554	NaN	0.000000	0.001554	0.001788	28.0822	0.067223	0.001974	34.0532	146.128	-163.154	-0.023679	0.577832	-0.451796	-0.453113	-0.000554	34.0532	-0.451784	-723530	7.659895E-10	NaN
450	1.000000	0.587130	7.36946e+06	-54589.1	1005.82	-29743.4	0.000000	0.000000	6.586968	0.066895	NaN	0.000000	0.001550	0.001780	28.0815	0.034182	0.001961	17.4283	-62.4677	-162.773	0.088330	0.585830	-0.443815	-0.445115	0.066895	17.4283	-0.446694	-613436	-1.090505E-7	NaN
450	1.000000	0.595142	7.36946e+06	-54589.1	1005.82	-29743.4	0.000000	0.000000	6.594978	0.016704	NaN	0.000000	0.001552	0.001772	28.0813	0.072911	0.001998	36.4889	-149.962	-165.467	0.028799	0.593843	-0.435802	-0.437101	0.016704	36.4889	-0.436146	-435454	-3.836020E-8	NaN
450	1.000000	0.603150	7.36946e+06	-54589.1	1005.82	-29743.4	0.000000	0.000000	6.602983	-0.037790	NaN	0.000000	0.001583	0.001784	28.0814	0.055080	0.002016	27.3202	155.207	-164.569	0.021070	0.601798	-0.427795	-0.429147	-0.037790	27.3202	-0.426758	-320755	1.178140E-7	NaN
450	1.000000	0.611124	7.36946e+06	-54589.1	1005.82	-29743.4	0.000000	0.000000	6.610961	0.033910	NaN	0.000000	0.001593	0.001774	28.0813	0.031296	0.001994	15.695	21.6356	-166.799	0.050599	0.609816	-0.419821	-0.421128	0.033910	15.695	-0.421441	-269680	-1.257408E-7	NaN
450	1.000000	0.619128	7.36946e+06	-54589.1	1005.82	-29743.4	0.000000	0.000000	6.618962	-0.013454	NaN	0.000000	0.001579	0.001795	28.0814	0.118119	0.001870	63.1789	-168.9	-165.646	-0.046737	0.617904	-0.411817	-0.413041	-0.013454	63.1789	-0.411657	-195869	6.868692E-8	NaN
450	1.000000	0.627174	7.36946e+06	-54589.1	1005.82	-29743.4	0.000000	0.000000	6.627010	0.021593	NaN	0.000000	0.001582	0.001748	28.0817	0.129340	0.002001	64.6339	162.24	-165.406	0.092691	0.625866	-0.403771	-0.405079	0.021593	64.6339	-0.404022	-152517	-1.415748E-7	NaN
450	1.000000	0.635129	7.36946e+06	-54589.1	1005.82	-29743.4	0.000000	0.000000	6.634964	-0.012579	NaN	0.000000	0.001592	0.001734	28.0812	0.103711	0.002068	50.1619	108.26	-164.394	-0.021538	0.633784	-0.395816	-0.397161	-0.012579	50.1619	-0.395628	-115770	1.086528E-7	NaN
450	1.000000	0.643165	7.36946e+06	-54589.1	1005.82	-29743.4	0.000000	0.000000	6.643001	0.021708	NaN	0.000000	0.001563	0.001770	28.0815	0.074542	0.002004	37.2004	-128.437	-164.128	0.013839	0.641911	-0.387780	-0.389034	0.021708	37.2004	-0.388217	-90710.9	-2.393094E-7	NaN
450	1.000000	0.651203	7.36946e+06	-54589.1	1005.82	-29743.4	0.000000	0.000000	6.651042	0.102975	NaN	0.000000	0.001582	0.001739	28.0812	0.079514	0.001905	41.7303	149.931	-165.773	0.121519	0.649890	-0.379742	-0.381055	0.102975	41.7303	-0.381593	-72901.7	-1.412518E-6	NaN
450	1.000000	0.659168	7.36946e+06	-54589.1	1005.82	-29743.4	0.000000	0.000000	6.659002	-0.012244	NaN	0.000000	0.001614	0.001764	28.0812	0.068243	0.001938	35.2091	73.1397	-166.306	-0.028232	0.657907	-0.371777	-0.373038	-0.012244	35.2091	-0.371516	-52234.8	2.344078E-7	NaN
450	1.000000	0.667165	7.36946e+06	-54589.1	1005.82	-29743.4	0.000000	0.000000	6.667001	0.009341	NaN	0.000000	0.001606	0.001771	28.0818	0.060616	0.001920	31.5681	22.4515	-166.833	-0.015859	0.665868	-0.363780	-0.365077	0.009341	31.5681	-0.364002	-40705.1	-2.294765E-7	NaN
450	1.000000	0.675172	7.36946e+06	-54589.1	1005.82	-29743.4	0.000000	0.000000	6.675007	-0.001135	NaN	0.000000	0.001599	0.001746	28.0808	0.071800	0.001974	36.3696	-37.2793	-168.322	-0.041576	0.673823	-0.355773	-0.357122	-0.001135	36.3696	-0.355749	-30927.7	3.670390E-8	NaN
450	1.000000	0.683169	7.36946e+06	-54589.1	1005.82	-29743.4	0.000000	0.000000	6.683007	0.074170	NaN	0.000000	0.001587	0.001765	28.0818	0.060612	0.001921	31.5541	-159.925	-163.302	0.047547	0.681918	-0.347776	-0.349027	0.074170	31.5541	-0.349539	-25136.6	-2.950680E-6	NaN
450	1.000000	0.691211	7.36946e+06	-54589.1	1005.82	-29743.4	0.000000	0.000000	6.691046	-0.019429	NaN	0.000000	0.001606	0.001753	28.0815	0.038465	0.001954	19.6819	-110.962	-168.838	-0.032467	0.689845	-0.339734	-0.341099	-0.019429	19.6819	-0.338993	-17655.3	1.100480E-6	NaN
450	1.000000	0.699185	7.36946e+06	-54589.1	1005.82	-29743.4	0.000000	0.000000	6.699022	0.051089	NaN	0.000000	0.001551	0.001753	28.0814	0.043117	0.002007	21.4806	-172.94	-168.471	0.091857	0.697870	-0.331760	-0.333074	0.051089	21.4806	-0.333544	-14699.7	-3.475501E-6	NaN
450	1.000000	0.707189	7.36946e+06	-54589.1	1005.82	-29743.4	0.000000	0.000000	6.707024	0.015597	NaN	0.000000	0.001581	0.001747	28.0814	0.049561	0.002017	24.5698	46.3548	-164.966	0.045682	0.705891	-0.323756	-0.325054	0.015597	24.5698	-0.324232	-10736.5	-1.452660E-6	NaN
450	1.000000	0.715208	7.36946e+06	-54589.1	1005.82	-29743.4	0.000000	0.000000	6.715043	-0.021019	NaN	0.000000	0.001608	0.001760	28.0815	0.110221	0.002038	54.072	-59.4005	-164.006	-0.023987	0.713938	-0.315737	-0.317007	-0.021019	54.072	-0.315445	-7971.02	2.636883E-6	NaN
450	1.000000	0.723201	7.36946e+06	-54589.1	1005.82	-29743.4	0.000000	0.000000	6.723037	0.024323	NaN	0.000000	0.001605	0.001741	28.0831	0.000177	0.001855	0.095673	-144.471	-168.178	0.050841	0.721906	-0.307744	-0.309039	0.024323	0.095673	-0.498415	-3.25767e+06	-7.466312E-9	NaN
450	1.000000	0.731196	7.36946e+06	-54589.1	1005.82	-29743.4	0.000000	0.000000	6.731034	0.060456	NaN	0.000000	0.001635	0.001768	28.0825	0.100246	0.001945	51.5501	-121.097	-162.972	-0.018949	0.729868	-0.299749	-0.301077	0.060456	51.5501	-0.300628	-4808.25	-1.257345E-5	NaN
450	1.000000	0.739199	7.36946e+06	-54589.1	1005.82	-29743.4	0.000000	0.000000	6.739033	-0.033228	NaN	0.000000	0.001624	0.001787	28.0836	0.088239	0.001937	45.5474	-134.002	-167.573	-0.086244	0.737898	-0.291746	-0.293047	-0.033228	45.5474	-0.291199	-3477.37	9.555546E-6	NaN
450	1.000000	0.747216	7.36946e+06	-54589.1	1005.82	-29743.4	0.000000	0.000000	6.747054	0.067940	NaN	0.000000	0.001614	0.001793	28.0826	0.099759	0.002077	48.0333	170.748	-165.736	0.011086	0.745935	-0.283729	-0.285010	0.067940	48.0333	-0.284789	-2786.76	-2.437942E-5	NaN
450	1.000000	0.755208	7.36946e+06	-54589.1	1005.82	-29743.4	0.000000	0.000000	6.755044	0.023975	NaN	0.000000	0.001610	0.001777	28.0825	0.030925	0.002121	14.5809	33.4063	-168.312	0.083915	0.753841	-0.275737	-0.277104	0.023975	14.5809	-0.276970	-2124.28	-1.128598E-5	NaN
450	1.000000	0.763208	7.36946e+06	-54589.1	1005.82	-29743.4	0.000000	0.000000	6.763044	0.019980	NaN	0.000000	0.001645	0.001786	28.0827	0.047843	0.002037	23.4925	93.094	-166.953	0.002289	0.761966	-0.267737	-0.268978	0.019980	23.4925	-0.268375	-1573.35	-1.269899E-5	NaN
450	1.000000	0.771222	7.36946e+06	-54589.1	1005.82	-29743.4	0.000000	0.000000	6.771058	0.005887	NaN	0.000000	0.001645	0.001790	28.0826	0.067878	0.002000	33.9457	150.949	-166.524	-0.045130	0.769892	-0.259723	-0.261052	0.005887	33.9457	-0.259853	-1165.89	-5.049364E-6	NaN
450	1.000000	0.779243	7.36946e+06	-54589.1	1005.82	-29743.4	0.000000	0.000000	6.779077	-0.023503	NaN	0.000000	0.001610	0.001787	28.0829	0.138483	0.002021	68.5123	171.137	-163.234	0.004605	0.777890	-0.251702	-0.253055	-0.023503	68.5123	-0.251445	-865.55	2.715350E-5	NaN
450	1.000000	0.787233	7.36946e+06	-54589.1	1005.82	-29743.4	0.000000	0.000000	6.787068	-0.001491	NaN	0.000000	0.001617	0.001808	28.0829	0.106517	0.001938	54.9758	95.5832	-166.735	-0.015059	0.785931	-0.243712	-0.245013	-0.001491	54.9758	-0.243692	-656.305	2.272255E-6	NaN
450	1.000000	0.795188	7.36946e+06	-54589.1	1005.82	-29743.4	0.000000	0.000000	6.795024	0.036839	NaN	0.000000	0.001591	0.001763	28.0826	0.097315	0.002034	47.8328	-31.9621	-167.463	0.079697	0.793884	-0.235757	-0.237061	0.036839	47.8328	-0.236335	-503.727	-7.313370E-5	NaN
450	1.000000	0.803225	7.36946e+06	-54589.1	1005.82	-29743.4	0.000000	0.000000	6.803063	0.054841	NaN	0.000000	0.001603	0.001765	28.0827	0.072379	0.001814	39.8914	112.512	-166.514	0.047494	0.801909	-0.227720	-0.229036	0.054841	39.8914	-0.228751	-382.628	-0.000143	NaN
450	1.000000	0.811226	7.36946e+06	-54589.1	1005.82	-29743.4	0.000000	0.000000	6.811061	-0.021775	NaN	0.000000	0.001625	0.001793	28.0826	0.058933	0.001971	29.9056	142.659	-165.531	-0.002241	0.809939	-0.219719	-0.221005	-0.021775	29.9056	-0.219172	-269.429	8.081765E-5	NaN
450	1.000000	0.819219	7.36946e+06	-54589.1	1005.82	-29743.4	0.000000	0.000000	6.819057	0.066438	NaN	0.000000	0.001594	0.001769	28.0829	0.038560	0.002155	17.8974	107.603	-168.669	-0.018747	0.817966	-0.211726	-0.212979	0.066438	17.8974	-0.214510	-226.79	-0.000293	NaN
450	1.000000	0.827221	7.36946e+06	-54589.1	1005.82	-29743.4	0.000000	0.000000	6.827057	0.011627	NaN	0.000000	0.001597	0.001800	28.0829	0.048169	0.001935	24.8879	-18.8148	-164.91	0.018641	0.825915	-0.203723	-0.205030	0.011627	24.8879	-0.204074	-153.618	-7.568688E-5	NaN
450	1.000000	0.835223	7.36946e+06	-54589.1	1005.82	-29743.4	0.000000	0.000000	6.835056	-0.057468	NaN	0.000000	0.001555	0.001755	28.0829	0.039003	0.001956	19.941	51.9431	-170.411	-0.033761	0.833878	-0.195722	-0.197067	-0.057468	19.941	-0.193560	-103.116	0.000557	NaN
450	1.000000	0.843203	7.36946e+06	-54589.1	1005.82	-29743.4	0.000000	0.000000	6.843036	-0.056744	NaN	0.000000	0.001584	0.001823	28.0828	0.094432	0.002004	47.1276	142.555	-166.076	-0.001654	0.841952	-0.187742	-0.188993	-0.056744	47.1276	-0.186839	-79.6291	0.000713	NaN
450	1.000000	0.851260	7.36946e+06	-54589.1	1005.82	-29743.4	0.000000	0.000000	6.851093	-0.063788	NaN	0.000000	0.001596	0.001799	28.0829	0.057990	0.002012	28.8166	-122.61	-167.717	-0.039257	0.849953	-0.179685	-0.180992	-0.063788	28.8166	-0.178025	-56.4672	0.001130	NaN
450	1.000000	0.859266	7.36946e+06	-54589.1	1005.82	-29743.4	0.000000	0.000000	6.859101	0.000594	NaN	0.000000	0.001619	0.001822	28.0816	0.077851	0.002066	37.6769	-113.736	-161.522	0.006536	0.857983	-0.171679	-0.172962	0.000594	37.6769	-0.171691	-43.9457	-1.351636E-5	NaN
450	1.000000	0.867270	7.36946e+06	-54589.1	1005.82	-29743.4	0.000000	0.000000	6.867104	-0.034878	NaN	0.000000	0.001586	0.001775	28.0819	0.038617	0.002084	18.5298	100.661	-165.639	-0.112767	0.865979	-0.163675	-0.164966	-0.034878	18.5298	-0.162263	-30.067	0.001160	NaN
450	1.000000	0.875274	7.36946e+06	-54589.1	1005.82	-29743.4	0.000000	0.000000	6.875110	0.003419	NaN	0.000000	0.001621	0.001801	28.0817	0.053248	0.002004	26.5679	99.9775	-165.98	-0.056317	0.873903	-0.155671	-0.157042	0.003419	26.5679	-0.155767	-23.0341	-0.000148	NaN
450	1.000000	0.883251	7.36946e+06	-54589.1	1005.82	-29743.4	0.000000	0.000000	6.883083	-0.071434	NaN	0.000000	0.001592	0.001828	28.0813	0.067927	0.002039	33.3192	-70.9961	-166.212	-0.033500	0.881923	-0.147694	-0.149022	-0.071434	33.3192	-0.146086	-15.354	0.004653	NaN
450	1.000000	0.891265	7.36946e+06	-54589.1	1005.82	-29743.4	0.000000	0.000000	6.891100	5.369283E-5	NaN	0.000000	0.001599	0.001808	28.0815	0.035159	0.002043	17.2108	-169.029	-166.216	-0.054859	0.889943	-0.139680	-0.141002	5.369283E-5	17.2108	-0.139682	-11.668	-4.601721E-6	NaN
450	1.000000	0.899241	7.36946e+06	-54589.1	1005.82	-29743.4	0.000000	0.000000	6.899077	0.030705	NaN	0.000000	0.001586	0.001786	28.0814	0.076535	0.001906	40.1623	56.18	-167.492	0.024430	0.897928	-0.131704	-0.133017	0.030705	40.1623	-0.132278	-8.434826	-0.003640	NaN
450	1.000000	0.907259	7.36946e+06	-54589.1	1005.82	-29743.4	0.000000	0.000000	6.907093	-0.025071	NaN	0.000000	0.001572	0.001865	28.0813	0.074168	0.001877	39.5133	-134.232	-162.966	-0.026582	0.905959	-0.123686	-0.124986	-0.025071	39.5133	-0.123210	-5.603528	0.004474	NaN
450	1.000000	0.915275	7.36946e+06	-54589.1	1005.82	-29743.4	0.000000	0.000000	6.915110	0.004641	NaN	0.000000	0.001575	0.001821	28.0816	0.100399	0.002012	49.8898	0.813880	-163.71	0.026924	0.913931	-0.115670	-0.117013	0.004641	49.8898	-0.115740	-3.956677	-0.001173	NaN
450	1.000000	0.923277	7.36946e+06	-54589.1	1005.82	-29743.4	0.000000	0.000000	6.923112	-0.005494	NaN	0.000000	0.001569	0.001787	28.0814	0.011413	0.002079	5.489590	35.6014	-166.387	0.076641	0.921936	-0.107668	-0.109009	-0.005494	5.489590	-0.106917	-2.584580	0.002126	NaN
450	1.000000	0.931271	7.36946e+06	-54589.1	1005.82	-29743.4	0.000000	0.000000	6.931108	0.041228	NaN	0.000000	0.001593	0.001777	28.0816	0.090475	0.002019	44.8213	-144.114	-166.873	0.101675	0.929945	-0.099674	-0.101000	0.041228	44.8213	-0.100364	-1.861330	-0.022150	NaN
450	1.000000	0.939303	7.36946e+06	-54589.1	1005.82	-29743.4	0.000000	0.000000	6.939137	-0.021814	NaN	0.000000	0.001630	0.001780	28.0812	0.057216	0.001930	29.6407	38.9302	-166.69	0.053093	0.937984	-0.091642	-0.092961	-0.021814	29.6407	-0.091090	-1.146318	0.019030	NaN
450	1.000000	0.947243	7.36946e+06	-54589.1	1005.82	-29743.4	0.000000	0.000000	6.947080	0.043973	NaN	0.000000	0.001602	0.001734	28.0812	0.049400	0.001883	26.2382	-86.2874	-168.977	-0.019456	0.945946	-0.083702	-0.084999	0.043973	26.2382	-0.084959	-0.819745	-0.053643	NaN
450	1.000000	0.955303	7.36946e+06	-54589.1	1005.82	-29743.4	0.000000	0.000000	6.955135	-0.052739	NaN	0.000000	0.001570	0.001758	28.0814	0.044059	0.002008	21.9392	-93.6999	-165.999	0.110283	0.953923	-0.075642	-0.077022	-0.052739	21.9392	-0.073839	-0.430900	0.122393	NaN
450	1.000000	0.963309	7.36946e+06	-54589.1	1005.82	-29743.4	0.000000	0.000000	6.963147	0.069587	NaN	0.000000	0.001563	0.001776	28.0811	0.111024	0.001811	61.3181	27.1028	-167.809	0.054265	0.961987	-0.067636	-0.068958	0.069587	61.3181	-0.068487	-0.310555	-0.224073	NaN
450	1.000000	0.971297	7.36946e+06	-54589.1	1005.82	-29743.4	0.000000	0.000000	6.971133	0.023900	NaN	0.000000	0.001576	0.001755	28.0813	0.035979	0.001892	19.0192	-10.2111	-164.288	0.064161	0.969992	-0.059648	-0.060953	0.023900	19.0192	-0.060590	-0.187238	-0.127647	NaN
450	1.000000	0.979313	7.36946e+06	-54589.1	1005.82	-29743.4	0.000000	0.000000	6.979150	0.034022	NaN	0.000000	0.001609	0.001777	28.0811	0.049809	0.002010	24.7796	101.401	-165.812	0.044536	0.978002	-0.051631	-0.052943	0.034022	24.7796	-0.052661	-0.109721	-0.310075	NaN
450	1.000000	0.987295	7.36946e+06	-54589.1	1005.82	-29743.4	0.000000	0.000000	6.987131	0.012532	NaN	0.000000	0.001609	0.001757	28.0814	0.119974	0.001935	62.01	-139.262	-163.258	0.060661	0.985968	-0.043649	-0.044977	0.012532	62.01	-0.043801	-0.059064	-0.212180	NaN
450	1.000000	0.995303	7.36946e+06	-54589.1	1005.82	-29743.4	0.000000	0.000000	6.995138	0.005344	NaN	0.000000	0.001636	0.001778	28.0823	0.070030	0.001824	38.3883	-152.316	-167.834	-0.014531	0.994049	-0.035642	-0.036895	0.005344	38.3883	-0.035746	-0.033692	-0.158615	NaN
450	1.000000	1.003297	7.36946e+06	-54589.1	1005.82	-29743.4	0.000000	0.000000	7.003130	-0.041594	NaN	0.000000	0.001588	0.001802	28.0823	0.139395	0.001953	71.3571	-129.137	-164.36	0.050404	1.002051	-0.027648	-0.028894	-0.041594	71.3571	-0.027211	-0.019305	2.154552	NaN
450	1.000000	1.011294	7.36946e+06	-54589.1	1005.82	-29743.4	0.000000	0.000000	7.011132	0.067706	NaN	0.000000	0.001587	0.001788	28.0826	0.068998	0.001964	35.1291	-176.891	-166.427	-0.003890	1.010012	-0.019651	-0.020933	0.067706	35.1291	-0.021096	-0.013393	-5.055222	NaN
450	1.000000	1.019327	7.36946e+06	-54589.1	1005.82	-29743.4	0.000000	0.000000	7.019163	0.026273	NaN	0.000000	0.001630	0.001788	28.0824	0.052894	0.001996	26.4969	76.7603	-165.538	-0.034466	1.018010	-0.011618	-0.012934	0.026273	26.4969	-0.012361	-0.007735	-3.396484	NaN
450	1.000000	1.027326	7.36946e+06	-54589.1	1005.82	-29743.4	0.000000	0.000000	7.027163	0.061746	NaN	0.000000	0.001602	0.001812	28.0823	0.018047	0.002119	8.516320	25.5542	-166.864	-0.023424	1.026018	-0.003619	-0.004926	0.061746	8.516320	-0.009057	-0.005846	-10.5624	NaN
450	1.000000	1.035297	7.36946e+06	-54589.1	1005.82	-29743.4	0.000000	0.000000	7.035197	1.578083	NaN	0.000000	0.001582	0.001794	28.0825	2.123720	0.002018	1052.65	11.3657	-168.924	0.626575	1.034001	0.004352	0.003057	1.578083	1052.65	0.003228	0.002573	613.389	18960.9
450	2.000000	1.042742	7.36946e+06	-54589.1	1005.82	-29743.4	0.000000	0.000000	7.042927	8.491150	NaN	0.000000	0.001580	0.001794	28.0826	7.886770	0.001597	4939.98	8.023711	-172.856	8.309837	1.041990	0.011797	0.011045	8.491150	4939.98	0.010508	0.009752	870.745	45704.7
450	2.000000	1.044807	7.36946e+06	-54589.1	1005.82	-29743.4	0.000000	0.000000	7.045074	10.491	NaN	0.000000	0.001574	0.001759	28.0832	9.372231	0.001597	5869.38	5.986838	-173.678	9.307303	1.044572	0.013862	0.013627	10.491	5869.38	0.012522	0.012121	865.527	48707.8
450	2.000000	1.046798	7.36946e+06	-54589.1	1005.82	-29743.4	0.000000	0.000000	7.047159	12.7818	NaN	0.000000	0.001578	0.001764	28.0826	11.891	0.001735	6854.63	9.231928	-177.878	11.7601	1.046551	0.015853	0.015606	12.7818	6854.63	0.014454	0.014565	877.587	51892.7
450	2.000000	1.048828	7.36946e+06	-54589.1	1005.82	-29743.4	0.000000	0.000000	7.049348	16.6459	NaN	0.000000	0.001632	0.001788	28.0827	13.4697	0.001740	7740.18	2.674884	-171.637	15.7568	1.048526	0.017883	0.017581	16.6459	7740.18	0.016270	0.017017	978.192	54210.4
450	2.000000	1.050802	7.36946e+06	-54589.1	1005.82	-29743.4	0.000000	0.000000	7.051392	18.353	NaN	0.000000	0.001597	0.001773	28.0828	15.2971	0.001790	8545.26	5.937704	-175.593	17.8165	1.050549	0.019857	0.019604	18.353	8545.26	0.018246	0.019861	924.092	55399.1
450	2.000000	1.052793	7.36946e+06	-54589.1	1005.82	-29743.4	0.000000	0.000000	7.053542	22.204	NaN	0.000000	0.001617	0.001771	28.0826	18.0643	0.001888	9570.13	6.840084	-176.884	22.3143	1.052485	0.021848	0.021540	22.204	9570.13	0.020108	0.022713	977.607	58017.3
450	2.000000	1.054800	7.36946e+06	-54589.1	1005.82	-29743.4	0.000000	0.000000	7.055778	27.7932	NaN	0.000000	0.001645	0.001789	28.0828	19.5931	0.001833	10688.8	8.559877	-179.356	27.5914	1.054430	0.023855	0.023485	27.7932	10688.8	0.021905	0.025624	1084.64	61006.6
450	2.000000	1.056752	7.36946e+06	-54589.1	1005.82	-29743.4	0.000000	0.000000	7.057954	33.2107	NaN	0.000000	0.001638	0.001781	28.0826	21.1331	0.001755	12044.3	6.777980	179.511	32.2308	1.056465	0.025808	0.025521	33.2107	12044.3	0.023740	0.028762	1154.66	64884.6
450	2.000000	1.058787	7.36946e+06	-54589.1	1005.82	-29743.4	0.000000	0.000000	7.060132	36.6871	NaN	0.000000	0.001583	0.001791	28.0824	23.5727	0.001802	13082.3	8.134016	178.137	35.6538	1.058465	0.027842	0.027520	36.6871	13082.3	0.025739	0.032374	1133.23	66429
450	2.000000	1.060761	7.36946e+06	-54589.1	1005.82	-29743.4	0.000000	0.000000	7.062358	42.8442	NaN	0.000000	0.001583	0.001768	28.0828	24.6007	0.001618	15202.3	1.012069	-176.144	42.0817	1.060451	0.029816	0.029506	42.8442	15202.3	0.027702	0.036116	1186.31	73086
450	2.000000	1.062740	7.36946e+06	-54589.1	1005.82	-29743.4	0.000000	0.000000	7.064661	50.6867	NaN	0.000000	0.001598	0.001783	28.0826	28.1658	0.001736	16226.1	4.474890	179.901	49.2577	1.062461	0.031796	0.031516	50.6867	16226.1	0.029453	0.039617	1279.42	74481.1
450	2.000000	1.064743	7.36946e+06	-54589.1	1005.82	-29743.4	0.000000	0.000000	7.066947	57.5922	NaN	0.000000	0.001612	0.001774	28.0818	30.0936	0.001808	16648.6	7.307321	178.612	56.1288	1.064394	0.033798	0.033449	57.5922	16648.6	0.031203	0.043275	1330.85	73119.6
450	2.000000	1.066737	7.36946e+06	-54589.1	1005.82	-29743.4	0.000000	0.000000	7.069249	65.0675	NaN	0.000000	0.001579	0.001795	28.0817	32.4943	0.001813	17922	2.679353	-176.909	63.1139	1.066369	0.035792	0.035424	65.0675	17922	0.033069	0.047346	1374.3	75251.9
450	2.000000	1.068734	7.36946e+06	-54589.1	1005.82	-29743.4	0.000000	0.000000	7.071494	71.0909	NaN	0.000000	0.001574	0.001766	28.0815	34.8176	0.001725	20181.7	5.874646	177.681	69.2325	1.068445	0.037789	0.037501	71.0909	20181.7	0.035148	0.052090	1364.77	80789.2
450	2.000000	1.070714	7.36946e+06	-54589.1	1005.82	-29743.4	0.000000	0.000000	7.073764	78.1555	NaN	0.000000	0.001588	0.001752	28.0826	37.0038	0.001851	19989.6	7.127948	176.118	76.4405	1.070356	0.039770	0.039411	78.1555	19989.6	0.036837	0.056110	1392.89	77100.2
450	2.000000	1.072746	7.36946e+06	-54589.1	1005.82	-29743.4	0.000000	0.000000	7.076037	84.0308	NaN	0.000000	0.001549	0.001785	28.0815	38.7016	0.001833	21109.3	3.186798	-179.898	83.0218	1.072443	0.041801	0.041498	84.0308	21109.3	0.038815	0.061002	1377.51	78086.5
450	2.000000	1.074736	7.36946e+06	-54589.1	1005.82	-29743.4	0.000000	0.000000	7.078350	91.8718	NaN	0.000000	0.001614	0.001741	28.0813	40.585	0.001856	21871.4	5.533723	176.282	91.3637	1.074503	0.043791	0.043558	91.8718	21871.4	0.040640	0.065694	1398.48	77962.7
450	2.000000	1.076775	7.36946e+06	-54589.1	1005.82	-29743.4	0.000000	0.000000	7.080770	101.134	NaN	0.000000	0.001616	0.001728	28.0814	41.9732	0.001659	25301.9	1.265064	178.93	102.035	1.076415	0.045830	0.045470	101.134	25301.9	0.042832	0.071552	1413.44	86420.5
450	2.000000	1.078759	7.36946e+06	-54589.1	1005.82	-29743.4	0.000000	0.000000	7.083248	113.131	NaN	0.000000	0.001594	0.001766	28.0814	45.7437	0.001809	25291.2	6.677802	174.554	112.365	1.078406	0.047814	0.047461	113.131	25291.2	0.044460	0.076061	1487.39	83784.3
450	2.000000	1.080668	7.36946e+06	-54589.1	1005.82	-29743.4	0.000000	0.000000	7.085414	119.394	NaN	0.000000	0.001596	0.001750	28.0822	47.2327	0.001790	26388.2	6.457992	173.755	115.593	1.080521	0.049723	0.049576	119.394	26388.2	0.046329	0.081406	1466.65	84499.5
450	2.000000	1.082795	7.36946e+06	-54589.1	1005.82	-29743.4	0.000000	0.000000	7.087870	127.369	NaN	0.000000	0.001602	0.001733	28.0812	48.9696	0.001851	26451	7.540372	173.172	131.195	1.082469	0.051851	0.051525	127.369	26451	0.048239	0.087048	1463.21	81909.7
450	2.000000	1.084714	7.36946e+06	-54589.1	1005.82	-29743.4	0.000000	0.000000	7.090450	143.468	NaN	0.000000	0.001593	0.001780	28.0813	48.8771	0.001723	28361.8	4.950887	175.302	141.714	1.084291	0.053769	0.053346	143.468	28361.8	0.049975	0.092336	1553.76	85275.1
450	2.000000	1.086757	7.36946e+06	-54589.1	1005.82	-29743.4	0.000000	0.000000	7.092655	147.388	NaN	0.000000	0.001639	0.001764	28.0815	52.8833	0.001741	30370.9	6.856375	172.024	149.35	1.086459	0.055813	0.055514	147.388	30370.9	0.052173	0.099247	1485.06	88078.6
450	2.000000	1.088715	7.36946e+06	-54589.1	1005.82	-29743.4	0.000000	0.000000	7.095074	158.59	NaN	0.000000	0.001680	0.001774	28.0815	53.9333	0.001724	31281.3	3.446322	176.093	156.392	1.088347	0.057770	0.057402	158.59	31281.3	0.053968	0.105071	1509.36	88169.1
450	2.000000	1.090698	7.36947e+06	-54589.1	1005.82	-29743.4	0.000000	0.000000	7.097593	171.625	NaN	0.000000	0.001638	0.001790	28.0823	55.8563	0.001754	31839.7	2.548022	176.953	169.333	1.090340	0.059753	0.059395	171.625	31839.7	0.055710	0.110877	1547.89	87361.7
450	2.000000	1.092744	7.36947e+06	-54589.1	1005.82	-29743.4	0.000000	0.000000	7.100024	180.975	NaN	0.000000	0.001645	0.001813	28.0811	59.0146	0.001773	33283.7	4.890515	174.718	180.257	1.092324	0.061799	0.061380	180.975	33283.7	0.057721	0.117764	1536.76	88613.2
450	2.000000	1.094776	7.36947e+06	-54589.1	1005.82	-29743.4	0.000000	0.000000	7.102375	188.738	NaN	0.000000	0.001676	0.001809	28.0815	59.4957	0.001836	32412.9	2.024531	177.55	191.101	1.094405	0.063831	0.063460	188.738	32412.9	0.059464	0.123892	1523.4	84133.6
450	2.000000	1.096633	7.36947e+06	-54589.1	1005.82	-29743.4	0.000000	0.000000	7.104818	203.005	NaN	0.000000	0.001600	0.001746	28.0817	62.3162	0.001826	34136	4.120410	176.009	200.227	1.096362	0.065688	0.065417	203.005	34136	0.061228	0.130247	1558.61	86417.5
450	2.000000	1.098683	7.36947e+06	-54589.1	1005.82	-29743.4	0.000000	0.000000	7.107353	214.758	NaN	0.000000	0.001658	0.001767	28.0829	64.9871	0.001850	35128.8	3.162023	175.311	211.515	1.098490	0.067738	0.067545	214.758	35128.8	0.063153	0.137358	1563.48	86598.2
450	2.000000	1.100650	7.36947e+06	-54589.1	1005.82	-29743.4	0.000000	0.000000	7.109765	225.592	NaN	0.000000	0.001700	0.001783	28.0832	65.8775	0.001807	36446.9	5.759610	172.055	223.671	1.100445	0.069705	0.069500	225.592	36446.9	0.065063	0.144586	1560.27	87573.2
450	2.000000	1.102642	7.36947e+06	-54589.1	1005.82	-29743.4	0.000000	0.000000	7.112205	236.481	NaN	0.000000	0.001661	0.001770	28.0824	69.7114	0.001832	38058.6	4.579626	173.172	233.84	1.102475	0.071697	0.071530	236.481	38058.6	0.067037	0.152244	1553.3	89115.9
450	2.000000	1.104739	7.36947e+06	-54589.1	1005.82	-29743.4	0.000000	0.000000	7.115022	253.97	NaN	0.000000	0.001630	0.001784	28.0829	70.3697	0.001760	39974.2	5.606938	173.251	255.02	1.104252	0.073794	0.073307	253.97	39974.2	0.069029	0.160162	1585.71	91258.4
450	2.000000	1.106701	7.36947e+06	-54589.1	1005.82	-29743.4	0.000000	0.000000	7.117361	263.139	NaN	0.000000	0.001648	0.001775	28.0827	72.8814	0.001799	40519	4.338761	173.453	263.307	1.106392	0.075757	0.075447	263.139	40519	0.070886	0.167710	1569.01	90396.6
450	2.000000	1.108691	7.36947e+06	-54589.1	1005.82	-29743.4	0.000000	0.000000	7.119864	275.639	NaN	0.000000	0.001639	0.001795	28.0827	75.0003	0.001860	40314.3	4.613168	173.122	272.358	1.108388	0.077746	0.077443	275.639	40314.3	0.072618	0.174900	1575.98	88071.9
450	2.000000	1.110567	7.36947e+06	-54589.1	1005.82	-29743.4	0.000000	0.000000	7.122416	292.05	NaN	0.000000	0.001665	0.001752	28.0827	76.1619	0.001831	41589.2	5.453926	172.367	285.798	1.110238	0.079622	0.079293	292.05	41589.2	0.074356	0.182256	1602.42	89004.7
450	2.000000	1.112662	7.36947e+06	-54589.1	1005.82	-29743.4	0.000000	0.000000	7.124958	302.91	NaN	0.000000	0.001630	0.001809	28.0825	78.4225	0.001797	43637.2	4.294757	172.901	299.303	1.112239	0.081718	0.081294	302.91	43637.2	0.076511	0.191580	1581.12	91086.8
450	2.000000	1.114611	7.36947e+06	-54589.1	1005.82	-29743.4	0.000000	0.000000	7.127499	317.322	NaN	0.000000	0.001634	0.001796	28.0828	78.5003	0.001787	43930.7	0.935226	175.54	310.323	1.114273	0.083666	0.083329	317.322	43930.7	0.078248	0.199250	1592.58	89917.2
450	2.000000	1.116639	7.36947e+06	-54589.1	1005.82	-29743.4	0.000000	0.000000	7.129930	327.116	NaN	0.000000	0.001655	0.001797	28.0827	82.5639	0.001739	47474.4	5.718096	170.228	323.919	1.116283	0.085695	0.085338	327.116	47474.4	0.080527	0.209526	1561.22	94757.6
450	2.000000	1.118696	7.36947e+06	-54589.1	1005.82	-29743.4	0.000000	0.000000	7.132632	342.808	NaN	0.000000	0.001612	0.001779	28.0825	83.9996	0.001681	49958.9	2.143959	174.095	341.37	1.118350	0.087751	0.087405	342.808	49958.9	0.082604	0.219107	1564.57	97512.1
450	2.000000	1.120701	7.36947e+06	-54589.1	1005.82	-29743.4	0.000000	0.000000	7.134963	350.716	NaN	0.000000	0.001621	0.001783	28.0824	86.7172	0.001764	49148.8	5.616204	170.802	356.135	1.120295	0.089756	0.089351	350.716	49148.8	0.084404	0.227567	1541.15	94130.7
450	2.000000	1.122626	7.36947e+06	-54589.1	1005.82	-29743.4	0.000000	0.000000	7.137600	368.017	NaN	0.000000	0.001614	0.001762	28.0825	88.6198	0.001770	50063.9	4.514974	170.946	364.451	1.122449	0.091681	0.091504	368.017	50063.9	0.086168	0.236006	1559.36	94153.5
450	2.000000	1.124675	7.36947e+06	-54589.1	1005.82	-29743.4	0.000000	0.000000	7.140460	387.741	NaN	0.000000	0.001613	0.001761	28.0832	89.1661	0.001774	50276.4	4.031137	172.207	383.722	1.124276	0.093730	0.093331	387.741	50276.4	0.087946	0.244655	1584.85	92866.8
450	2.000000	1.126693	7.36947e+06	-54589.1	1005.82	-29743.4	0.000000	0.000000	7.143227	405.964	NaN	0.000000	0.001597	0.001752	28.0825	93.2854	0.001852	50372.3	9.775891	166.612	407.546	1.126312	0.095748	0.095367	405.964	50372.3	0.089704	0.253349	1602.39	91433.5
450	2.000000	1.128649	7.36947e+06	-54589.1	1005.82	-29743.4	0.000000	0.000000	7.145749	419.717	NaN	0.000000	0.001621	0.001793	28.0823	93.9601	0.001777	52872.8	6.734927	169.756	416.001	1.128237	0.097704	0.097293	419.717	52872.8	0.091751	0.263653	1591.93	94078.2
450	2.000000	1.130666	7.36947e+06	-54589.1	1005.82	-29743.4	0.000000	0.000000	7.148363	434.229	NaN	0.000000	0.001613	0.001789	28.0824	95.7171	0.001930	49588.9	5.621384	170.488	434.357	1.130310	0.099721	0.099365	434.229	49588.9	0.093153	0.270825	1603.36	87058.9
450	2.000000	1.132607	7.36947e+06	-54589.1	1005.82	-29743.4	0.000000	0.000000	7.150776	445.712	NaN	0.000000	0.001616	0.001796	28.0811	96.671	0.001743	55460.3	1.390125	174.071	442.048	1.132447	0.101662	0.101502	445.712	55460.3	0.095635	0.283732	1570.89	95126.5
450	2.000000	1.134621	7.36947e+06	-54589.1	1005.82	-29743.4	0.000000	0.000000	7.153621	465.909	NaN	0.000000	0.001606	0.001752	28.0813	97.849	0.001740	56227.6	4.662344	170.328	462.795	1.134321	0.103676	0.103376	465.909	56227.6	0.097461	0.293411	1587.91	94838.4
450	2.000000	1.136776	7.36947e+06	-54589.1	1005.82	-29743.4	0.000000	0.000000	7.156105	473.911	NaN	0.000000	0.001639	0.001757	28.0812	102.103	0.001853	55099.1	7.051422	168.562	479.993	1.136351	0.105831	0.105406	473.911	55099.1	0.099380	0.303746	1560.22	91340.3
450	2.000000	1.138631	7.36947e+06	-54589.1	1005.82	-29743.4	0.000000	0.000000	7.159185	503.681	NaN	0.000000	0.001607	0.001724	28.0814	103.047	0.001914	53845.7	5.367235	170.305	498.682	1.138261	0.107686	0.107317	503.681	53845.7	0.100671	0.310789	1620.65	88245.3
450	2.000000	1.140602	7.36947e+06	-54589.1	1005.82	-29743.4	0.000000	0.000000	7.161833	520.136	NaN	0.000000	0.001638	0.001745	28.0811	104.356	0.001723	60549.8	8.550473	165.808	516.76	1.140336	0.109657	0.109391	520.136	60549.8	0.103214	0.324894	1600.94	97054.4
450	2.000000	1.141170	7.36947e+06	-54589.1	1005.82	-29743.4	0.000000	0.000000	7.162511	522.812	NaN	0.000000	0.001650	0.001736	28.0813	103.616	0.001713	60482.9	5.687412	-11.5127	520.851	1.140787	0.110225	0.109842	522.812	60482.9	0.103742	0.327856	1594.64	96508.2