File: remote_trans/data/nanoindenter/0828-1/data/Data_2025-08-06,11h17m57s/2025-07-22_16-23-58_1_722.txt
2025-07-22, 16:23:58, 1
Index	Phase	Displacement	Time	Pos X	Pos Y	Pos Z	Rot A	Rot B	Piezo Z	Force A	Force B	Gripper	Voltage A	Voltage B	Temperature	Amplitude force	Amplitude pos	Stiffness	Phase shift	Phase excitation	Force A raw	Displacement raw	HMax	HMax raw	Real Force	Real Stiffness	Contact Depth	Area	Hardness	Reduced Mod.
[#]	[#]	[um]	[s]	[um]	[um]	[um]	[m°]	[m°]	[um]	[uN]	[uN]	[V]	[V]	[V]	[°C]	[uN]	[um]	[N/m]	[°]	[°]	[uN]	[um]	[um]	[um]	[uN]	[N/m]	[um]	[um^2]	[MPa]	[MPa]
722	1.000000	0.002361	7.37212e+06	-40989.1	1005.82	-29787.8	0.000000	0.000000	6.002765	-0.000968	NaN	0.000000	0.001602	0.001779	28.0816	0.160146	0.000969	165.262	-69.9873	-159.276	-0.019075	0.001169	-1.170521	-1.171713	-0.000968	165.262	-1.170517	-4.423941E+15	2.187896E-19	NaN
722	1.000000	0.012514	7.37212e+06	-40989.1	1005.82	-29787.8	0.000000	0.000000	6.012917	0.001801	NaN	0.000000	0.001622	0.001756	28.0818	0.068793	0.001357	50.7066	-166.186	15.7616	-0.011720	0.011019	-1.160369	-1.161863	0.001801	50.7066	-1.160396	-3.237216E+15	-5.564424E-19	NaN
722	1.000000	0.022352	7.37212e+06	-40989.1	1005.82	-29787.8	0.000000	0.000000	6.022754	-0.059109	NaN	0.000000	0.001596	0.001768	28.0819	0.054945	0.001615	34.0175	-70.5462	-164.034	0.006241	0.021045	-1.150530	-1.151837	-0.059109	34.0175	-1.149227	-2.293269E+15	2.577521E-17	NaN
722	1.000000	0.032332	7.37212e+06	-40989.1	1005.82	-29787.8	0.000000	0.000000	6.032733	-0.064674	NaN	0.000000	0.001620	0.001745	28.0827	0.053447	0.002046	26.1257	-8.777830	17.6426	-0.042971	0.031000	-1.140551	-1.141882	-0.064674	26.1257	-1.138694	-1.656641E+15	3.903922E-17	NaN
722	1.000000	0.042350	7.37212e+06	-40989.1	1005.82	-29787.8	0.000000	0.000000	6.042752	-0.053837	NaN	0.000000	0.001578	0.001746	28.0834	0.118694	0.001853	64.0521	-32.2022	-165.256	-0.020931	0.041011	-1.130533	-1.131872	-0.053837	64.0521	-1.129902	-1.262729E+15	4.263582E-17	NaN
722	1.000000	0.052334	7.37212e+06	-40989.1	1005.82	-29787.8	0.000000	0.000000	6.052738	-0.002953	NaN	0.000000	0.001563	0.001760	28.083	0.073194	0.001969	37.1767	118.88	15.248	0.025039	0.050973	-1.120548	-1.121910	-0.002953	37.1767	-1.120489	-9.441228E+14	3.128018E-18	NaN
722	1.000000	0.062356	7.37212e+06	-40989.1	1005.82	-29787.8	0.000000	0.000000	6.062759	-0.019910	NaN	0.000000	0.001559	0.001782	28.0828	0.045127	0.002010	22.4457	-7.421391	-166.238	-0.001743	0.061024	-1.110527	-1.111859	-0.019910	22.4457	-1.109861	-6.798738E+14	2.928526E-17	NaN
722	1.000000	0.072356	7.37212e+06	-40989.1	1005.82	-29787.8	0.000000	0.000000	6.072758	-0.042848	NaN	0.000000	0.001606	0.001755	28.0828	0.053911	0.002105	25.6109	-161.442	16.9573	0.003181	0.071003	-1.100526	-1.101879	-0.042848	25.6109	-1.099271	-4.901036E+14	8.742633E-17	NaN
722	1.000000	0.082356	7.37212e+06	-40989.1	1005.82	-29787.8	0.000000	0.000000	6.082758	-0.034335	NaN	0.000000	0.001552	0.001763	28.083	0.082097	0.001891	43.4252	-153.419	-166.78	0.026730	0.081012	-1.090527	-1.091871	-0.034335	43.4252	-1.089934	-3.672187E+14	9.349999E-17	NaN
722	1.000000	0.092350	7.37212e+06	-40989.1	1005.82	-29787.8	0.000000	0.000000	6.092752	-0.043133	NaN	0.000000	0.001577	0.001722	28.0827	0.014636	0.002064	7.092036	-123.385	12.7888	-0.010869	0.091000	-1.080533	-1.081883	-0.043133	7.092036	-1.075971	-2.384552E+14	1.808845E-16	NaN
722	1.000000	0.102376	7.37212e+06	-40989.1	1005.82	-29787.8	0.000000	0.000000	6.102777	-0.055444	NaN	0.000000	0.001567	0.001740	28.0824	0.055793	0.002011	27.7373	171.319	-164.852	-0.061687	0.101019	-1.070507	-1.071863	-0.055444	27.7373	-1.069008	-1.922450E+14	2.884035E-16	NaN
722	1.000000	0.112391	7.37212e+06	-40989.1	1005.82	-29787.8	0.000000	0.000000	6.112794	-0.012274	NaN	0.000000	0.001536	0.001740	28.0826	0.147466	0.002090	70.5603	-43.041	18.3333	-0.065979	0.110987	-1.060492	-1.061896	-0.012274	70.5603	-1.060361	-1.471216E+14	8.342671E-17	NaN
722	1.000000	0.122349	7.37212e+06	-40989.1	1005.82	-29787.8	0.000000	0.000000	6.122749	-0.085199	NaN	0.000000	0.001593	0.001753	28.0826	0.113681	0.002024	56.1785	127.426	-163.791	-0.120177	0.121054	-1.050534	-1.051829	-0.085199	56.1785	-1.049396	-1.047855E+14	8.130767E-16	NaN
722	1.000000	0.132373	7.37212e+06	-40989.1	1005.82	-29787.8	0.000000	0.000000	6.132776	-0.009318	NaN	0.000000	0.001561	0.001763	28.0826	0.043345	0.001926	22.504	16.7069	16.6987	-0.107201	0.130995	-1.040510	-1.041887	-0.009318	22.504	-1.040199	-7.882160E+13	1.182104E-16	NaN
722	1.000000	0.142379	7.37212e+06	-40989.1	1005.82	-29787.8	0.000000	0.000000	6.142782	-0.038600	NaN	0.000000	0.001577	0.001762	28.0825	0.187676	0.001968	95.3529	152.839	-168.36	-0.053478	0.141086	-1.030503	-1.031797	-0.038600	95.3529	-1.030200	-5.783144E+13	6.674617E-16	NaN
722	1.000000	0.152351	7.37212e+06	-40989.1	1005.82	-29787.8	0.000000	0.000000	6.152752	-0.063246	NaN	0.000000	0.001564	0.001737	28.0829	0.023066	0.002076	11.1118	79.0396	11.589	-0.122722	0.151010	-1.020532	-1.021872	-0.063246	11.1118	-1.016263	-3.755479E+13	1.684097E-15	NaN
722	1.000000	0.162383	7.37212e+06	-40989.1	1005.82	-29787.8	0.000000	0.000000	6.162788	0.038143	NaN	0.000000	0.001577	0.001746	28.0812	0.063784	0.001835	34.7637	150.091	-164.72	-0.002866	0.161065	-1.010499	-1.011818	0.038143	34.7637	-1.011322	-3.222404E+13	-1.183669E-15	NaN
722	1.000000	0.172414	7.37212e+06	-40989.1	1005.82	-29787.8	0.000000	0.000000	6.172818	-0.010949	NaN	0.000000	0.001576	0.001772	28.0814	0.035712	0.001980	18.035	-115.082	16.1616	0.019856	0.171066	-1.000468	-1.001816	-0.010949	18.035	-1.000013	-2.269567E+13	4.824061E-16	NaN
722	1.000000	0.182393	7.37212e+06	-40989.1	1005.82	-29787.8	0.000000	0.000000	6.182797	0.008113	NaN	0.000000	0.001612	0.001722	28.0814	0.008482	0.002105	4.029614	153.454	-164.381	0.011707	0.181119	-0.990490	-0.991763	0.008113	4.029614	-0.992000	-1.770285E+13	-4.582866E-16	NaN
722	1.000000	0.192375	7.37212e+06	-40989.1	1005.82	-29787.8	0.000000	0.000000	6.192779	0.010796	NaN	0.000000	0.001563	0.001782	28.0814	0.056652	0.002032	27.8825	-68.4288	16.3922	-0.032555	0.191044	-0.980508	-0.981838	0.010796	27.8825	-0.980798	-1.250724E+13	-8.631479E-16	NaN
722	1.000000	0.202415	7.37212e+06	-40989.1	1005.82	-29787.8	0.000000	0.000000	6.202818	-0.027106	NaN	0.000000	0.001601	0.001759	28.0816	0.064603	0.002037	31.7218	79.4081	-163.957	0.039367	0.201106	-0.970467	-0.971777	-0.027106	31.7218	-0.969826	-8.898634E+12	3.046087E-15	NaN
722	1.000000	0.212424	7.37212e+06	-40989.1	1005.82	-29787.8	0.000000	0.000000	6.212823	-0.104082	NaN	0.000000	0.001489	0.001767	28.0815	0.103842	0.002055	50.5384	126.817	14.3559	-0.154758	0.211014	-0.960459	-0.961868	-0.104082	50.5384	-0.958914	-6.342094E+12	1.641128E-14	NaN
722	1.000000	0.222450	7.37212e+06	-40989.1	1005.82	-29787.8	0.000000	0.000000	6.222854	0.002206	NaN	0.000000	0.001558	0.001789	28.0818	0.006202	0.002015	3.078591	147.126	-163.756	0.023685	0.221105	-0.950432	-0.951777	0.002206	3.078591	-0.950970	-4.955732E+12	-4.451270E-16	NaN
722	1.000000	0.232416	7.37212e+06	-40989.1	1005.82	-29787.8	0.000000	0.000000	6.232821	0.021384	NaN	0.000000	0.001583	0.001753	28.0814	0.037716	0.002036	18.5288	108.723	12.9155	-0.003683	0.231081	-0.940466	-0.941801	0.021384	18.5288	-0.941332	-3.673718E+12	-5.820846E-15	NaN
722	1.000000	0.242428	7.37212e+06	-40989.1	1005.82	-29787.8	0.000000	0.000000	6.242833	0.038387	NaN	0.000000	0.001541	0.001734	28.0817	0.090698	0.001962	46.2171	-87.7553	-165.248	0.040608	0.241138	-0.930455	-0.931744	0.038387	46.2171	-0.931078	-2.671426E+12	-1.436939E-14	NaN
722	1.000000	0.252443	7.37212e+06	-40989.1	1005.82	-29787.8	0.000000	0.000000	6.252843	-0.104354	NaN	0.000000	0.001599	0.001782	28.0814	0.076165	0.001895	40.1963	153.494	14.5726	-0.021483	0.251071	-0.920439	-0.921812	-0.104354	40.1963	-0.918492	-1.806530E+12	5.776505E-14	NaN
722	1.000000	0.262435	7.37212e+06	-40989.1	1005.82	-29787.8	0.000000	0.000000	6.262836	-0.052564	NaN	0.000000	0.001598	0.001730	28.083	0.040738	0.002002	20.3443	-104.348	-162.771	-0.081913	0.261137	-0.910448	-0.911745	-0.052564	20.3443	-0.908510	-1.324453E+12	3.968768E-14	NaN
722	1.000000	0.272444	7.37212e+06	-40989.1	1005.82	-29787.8	0.000000	0.000000	6.272846	-0.035105	NaN	0.000000	0.001632	0.001745	28.0815	0.046156	0.001973	23.3923	-23.6288	12.8889	-0.002761	0.271063	-0.900439	-0.901820	-0.035105	23.3923	-0.899313	-9.949217E+11	3.528467E-14	NaN
722	1.000000	0.282408	7.37212e+06	-40989.1	1005.82	-29787.8	0.000000	0.000000	6.282813	0.012461	NaN	0.000000	0.001569	0.001741	28.0816	0.097980	0.001991	49.2004	-52.0703	-165.715	-0.055821	0.281180	-0.890474	-0.891703	0.012461	49.2004	-0.890664	-7.601387E+11	-1.639329E-14	NaN
722	1.000000	0.292441	7.37212e+06	-40989.1	1005.82	-29787.8	0.000000	0.000000	6.292846	0.039369	NaN	0.000000	0.001530	0.001742	28.0817	0.072470	0.002059	35.1985	35.4748	14.3042	0.002039	0.291078	-0.880442	-0.881805	0.039369	35.1985	-0.881281	-5.675804E+11	-6.936354E-14	NaN
722	1.000000	0.302407	7.37212e+06	-40989.1	1005.82	-29787.8	0.000000	0.000000	6.302809	-0.050776	NaN	0.000000	0.001619	0.001749	28.0833	0.071696	0.001960	36.5743	22.5019	-164.144	-0.043828	0.301110	-0.870476	-0.871772	-0.050776	36.5743	-0.869434	-3.924559E+11	1.293813E-13	NaN
722	1.000000	0.312438	7.37212e+06	-40989.1	1005.82	-29787.8	0.000000	0.000000	6.312838	-0.108100	NaN	0.000000	0.001587	0.001756	28.083	0.121739	0.001977	61.586	3.662912	12.9084	-0.037298	0.311098	-0.860444	-0.861785	-0.108100	61.586	-0.859128	-2.846529E+11	3.797614E-13	NaN
722	1.000000	0.322456	7.37212e+06	-40989.1	1005.82	-29787.8	0.000000	0.000000	6.322855	-0.100051	NaN	0.000000	0.001595	0.001726	28.083	0.054112	0.002041	26.5065	-178.683	-164.643	-0.149138	0.321149	-0.850427	-0.851733	-0.100051	26.5065	-0.847596	-1.986922E+11	5.035459E-13	NaN
722	1.000000	0.332486	7.37212e+06	-40989.1	1005.82	-29787.8	0.000000	0.000000	6.332892	0.047946	NaN	0.000000	0.001567	0.001778	28.0832	0.071488	0.001993	35.8623	160.129	15.1526	-0.050752	0.331122	-0.840397	-0.841760	0.047946	35.8623	-0.841399	-1.637756E+11	-2.927520E-13	NaN
722	1.000000	0.342476	7.37212e+06	-40989.1	1005.82	-29787.8	0.000000	0.000000	6.342880	0.007459	NaN	0.000000	0.001589	0.001782	28.0831	0.030253	0.002033	14.8788	27.3084	-161.988	7.193368E-5	0.341115	-0.830406	-0.831768	0.007459	14.8788	-0.830782	-1.175947E+11	-6.343264E-14	NaN
722	1.000000	0.352426	7.37212e+06	-40989.1	1005.82	-29787.8	0.000000	0.000000	6.352828	-0.051571	NaN	0.000000	0.001585	0.001779	28.083	0.122274	0.002042	59.8793	97.8118	16.8826	-0.005580	0.351097	-0.820456	-0.821785	-0.051571	59.8793	-0.819810	-8.349093E+10	6.176832E-13	NaN
722	1.000000	0.362506	7.37212e+06	-40989.1	1005.82	-29787.8	0.000000	0.000000	6.362910	0.012420	NaN	0.000000	0.001593	0.001760	28.0833	0.095253	0.001915	49.7301	99.1107	-164.991	0.027875	0.361197	-0.810377	-0.811685	0.012420	49.7301	-0.810564	-6.254937E+10	-1.985706E-13	NaN
722	1.000000	0.372472	7.37212e+06	-40989.1	1005.82	-29787.8	0.000000	0.000000	6.372876	0.016037	NaN	0.000000	0.001638	0.001752	28.0833	0.126389	0.002070	61.0665	-86.1492	18.2004	-0.024961	0.371108	-0.800411	-0.801774	0.016037	61.0665	-0.800608	-4.582585E+10	-3.499514E-13	NaN
722	1.000000	0.382500	7.37212e+06	-40989.1	1005.82	-29787.8	0.000000	0.000000	6.382906	0.048231	NaN	0.000000	0.001627	0.001755	28.0833	0.084369	0.002037	41.4085	112.446	-166.354	0.026200	0.381174	-0.790383	-0.791708	0.048231	41.4085	-0.791256	-3.420946E+10	-1.409882E-12	NaN
722	1.000000	0.392492	7.37212e+06	-40989.1	1005.82	-29787.8	0.000000	0.000000	6.392894	-0.058856	NaN	0.000000	0.001590	0.001779	28.0832	0.050747	0.002026	25.0419	-30.508	17.3271	-0.075211	0.391136	-0.780390	-0.781747	-0.058856	25.0419	-0.778627	-2.304509E+10	2.553953E-12	NaN
722	1.000000	0.402488	7.37212e+06	-40989.1	1005.82	-29787.8	0.000000	0.000000	6.402891	-0.022644	NaN	0.000000	0.001612	0.001797	28.0834	0.047881	0.002054	23.3143	119.427	-165.356	-0.012956	0.401190	-0.770395	-0.771692	-0.022644	23.3143	-0.769666	-1.740875E+10	1.300738E-12	NaN
722	1.000000	0.412519	7.37212e+06	-40989.1	1005.82	-29787.8	0.000000	0.000000	6.412921	-0.047473	NaN	0.000000	0.001594	0.001750	28.0835	0.088537	0.002070	42.7626	-167.204	13.5071	0.013670	0.411178	-0.760364	-0.761705	-0.047473	42.7626	-0.759531	-1.267422E+10	3.745667E-12	NaN
722	1.000000	0.422497	7.37212e+06	-40989.1	1005.82	-29787.8	0.000000	0.000000	6.422897	-0.078499	NaN	0.000000	0.001618	0.001752	28.0835	0.119707	0.001923	62.2522	-17.629	-161.961	-0.110787	0.421211	-0.750386	-0.751672	-0.078499	62.2522	-0.749440	-9.238411E+9	8.497015E-12	NaN
722	1.000000	0.432514	7.37212e+06	-40989.1	1005.82	-29787.8	0.000000	0.000000	6.432920	0.043421	NaN	0.000000	0.001589	0.001740	28.0831	0.123597	0.002076	59.5244	111.567	15.0899	-0.006712	0.431174	-0.740368	-0.741709	0.043421	59.5244	-0.740915	-7.071717E+9	-6.140105E-12	NaN
722	1.000000	0.442464	7.37212e+06	-40989.1	1005.82	-29787.8	0.000000	0.000000	6.442867	-0.015517	NaN	0.000000	0.001597	0.001776	28.0823	0.061381	0.001961	31.305	176.958	-166.785	-0.108873	0.441215	-0.730419	-0.731667	-0.015517	31.305	-0.730047	-5.028610E+9	3.085746E-12	NaN
722	1.000000	0.452533	7.37212e+06	-40989.1	1005.82	-29787.8	0.000000	0.000000	6.452937	0.003812	NaN	0.000000	0.001610	0.001786	28.0821	0.053480	0.001940	27.5718	150.943	14.7179	0.006107	0.451145	-0.720350	-0.721738	0.003812	27.5718	-0.720453	-3.720968E+9	-1.024518E-12	NaN
722	1.000000	0.462528	7.37212e+06	-40989.1	1005.82	-29787.8	0.000000	0.000000	6.462929	-0.069270	NaN	0.000000	0.001605	0.001758	28.0821	0.123922	0.002130	58.1707	19.9437	-164.531	-0.087374	0.461226	-0.710355	-0.711656	-0.069270	58.1707	-0.709462	-2.634512E+9	2.629330E-11	NaN
722	1.000000	0.472513	7.37212e+06	-40989.1	1005.82	-29787.8	0.000000	0.000000	6.472917	-0.003727	NaN	0.000000	0.001558	0.001724	28.0821	0.037456	0.001886	19.864	78.8636	12.3831	-0.051764	0.471202	-0.700370	-0.701681	-0.003727	19.864	-0.700229	-1.970859E+9	1.891112E-12	NaN
722	1.000000	0.482530	7.37212e+06	-40989.1	1005.82	-29787.8	0.000000	0.000000	6.482935	0.030626	NaN	0.000000	0.001584	0.001736	28.082	0.114532	0.002047	55.9631	-80.6405	-163.789	-0.007710	0.481218	-0.690352	-0.691665	0.030626	55.9631	-0.690763	-1.463325E+9	-2.092891E-11	NaN
722	1.000000	0.492551	7.37212e+06	-40989.1	1005.82	-29787.8	0.000000	0.000000	6.492952	-0.064311	NaN	0.000000	0.001581	0.001728	28.0818	0.099688	0.002213	45.0529	113.324	15.6647	-0.062493	0.491165	-0.680331	-0.681718	-0.064311	45.0529	-0.679261	-1.018813E+9	6.312299E-11	NaN
722	1.000000	0.502545	7.37212e+06	-40989.1	1005.82	-29787.8	0.000000	0.000000	6.502947	-0.062611	NaN	0.000000	0.001592	0.001728	28.082	0.070343	0.002112	33.3009	-61.518	-165.106	-0.049431	0.501196	-0.670337	-0.671686	-0.062611	33.3009	-0.668927	-7.357043E+8	8.510317E-11	NaN
722	1.000000	0.512547	7.37212e+06	-40989.1	1005.82	-29787.8	0.000000	0.000000	6.512950	-0.042718	NaN	0.000000	0.001589	0.001708	28.082	0.041171	0.002091	19.6881	83.7735	16.2911	0.012782	0.511207	-0.660335	-0.661676	-0.042718	19.6881	-0.658708	-5.330501E+8	8.013842E-11	NaN
722	1.000000	0.522546	7.37212e+06	-40989.1	1005.82	-29787.8	0.000000	0.000000	6.522949	-0.026536	NaN	0.000000	0.001615	0.001742	28.0819	0.071004	0.002003	35.4449	9.973947	-167.147	-0.046028	0.521198	-0.650336	-0.651684	-0.026536	35.4449	-0.649775	-4.021141E+8	6.599197E-11	NaN
722	1.000000	0.532536	7.37212e+06	-40989.1	1005.82	-29787.8	0.000000	0.000000	6.532938	-0.040610	NaN	0.000000	0.001619	0.001740	28.082	0.076631	0.002127	36.0271	-64.8919	16.869	-0.056055	0.531193	-0.640347	-0.641689	-0.040610	36.0271	-0.639501	-2.907007E+8	1.396965E-10	NaN
722	1.000000	0.542559	7.37212e+06	-40989.1	1005.82	-29787.8	0.000000	0.000000	6.542956	-0.153862	NaN	0.000000	0.001641	0.001714	28.0824	0.076409	0.002036	37.5231	79.6226	-166.569	-0.044749	0.541237	-0.630324	-0.631645	-0.153862	37.5231	-0.627249	-1.973484E+8	7.796450E-10	NaN
722	1.000000	0.552550	7.37212e+06	-40989.1	1005.82	-29787.8	0.000000	0.000000	6.552951	-0.062030	NaN	0.000000	0.001624	0.001678	28.0826	0.064068	0.001981	32.3456	-35.9748	12.3464	-0.082537	0.551159	-0.620333	-0.621724	-0.062030	32.3456	-0.618895	-1.515086E+8	4.094147E-10	NaN
722	1.000000	0.562539	7.37212e+06	-40989.1	1005.82	-29787.8	0.000000	0.000000	6.562942	-0.026657	NaN	0.000000	0.001631	0.001662	28.082	0.079529	0.001986	40.0549	-47.1009	-165.676	-0.010150	0.561316	-0.610343	-0.611566	-0.026657	40.0549	-0.609844	-1.137545E+8	2.343419E-10	NaN
722	1.000000	0.572577	7.37212e+06	-40989.1	1005.82	-29787.8	0.000000	0.000000	6.572979	-0.057247	NaN	0.000000	0.001594	0.001695	28.0833	0.073386	0.002146	34.2011	-52.6886	16.2501	0.086317	0.571214	-0.600305	-0.601669	-0.057247	34.2011	-0.599050	-8.079354E+7	7.085602E-10	NaN
722	1.000000	0.582576	7.37212e+06	-40989.1	1005.82	-29787.8	0.000000	0.000000	6.582978	-0.032730	NaN	0.000000	0.001601	0.001684	28.0834	0.053412	0.002041	26.1695	115.526	-162.795	-0.066284	0.581236	-0.590307	-0.591647	-0.032730	26.1695	-0.589369	-5.942417E+7	5.507807E-10	NaN
722	1.000000	0.592551	7.37212e+06	-40989.1	1005.82	-29787.8	0.000000	0.000000	6.592952	-0.071314	NaN	0.000000	0.001605	0.001680	28.0835	0.101145	0.001955	51.7359	-70.3415	12.6843	-0.046223	0.591221	-0.580331	-0.581661	-0.071314	51.7359	-0.579298	-4.315490E+7	1.652513E-9	NaN
722	1.000000	0.602577	7.37212e+06	-40989.1	1005.82	-29787.8	0.000000	0.000000	6.602979	-0.055814	NaN	0.000000	0.001572	0.001644	28.0833	0.075893	0.002122	35.7712	-103.167	-165.191	-0.021204	0.601275	-0.570305	-0.571608	-0.055814	35.7712	-0.569135	-3.123781E+7	1.786744E-9	NaN
722	1.000000	0.612577	7.37212e+06	-40989.1	1005.82	-29787.8	0.000000	0.000000	6.612981	-3.355266E-5	NaN	0.000000	0.001598	0.001687	28.0832	0.034853	0.002043	17.0563	-146.521	14.2841	0.011270	0.611223	-0.560306	-0.561659	-3.355266E-5	17.0563	-0.560304	-2.358242E+7	1.422782E-12	NaN
722	1.000000	0.622603	7.37212e+06	-40989.1	1005.82	-29787.8	0.000000	0.000000	6.623002	-0.102000	NaN	0.000000	0.001590	0.001675	28.0834	0.056849	0.001965	28.924	59.1786	-166.257	0.028670	0.621257	-0.550280	-0.551625	-0.102000	28.924	-0.547635	-1.574682E+7	6.477520E-9	NaN
722	1.000000	0.632596	7.37212e+06	-40989.1	1005.82	-29787.8	0.000000	0.000000	6.632995	-0.118098	NaN	0.000000	0.001586	0.001682	28.083	0.094103	0.001935	48.6228	148.743	14.9947	-0.047927	0.631271	-0.540286	-0.541611	-0.118098	48.6228	-0.538464	-1.175060E+7	1.005041E-8	NaN
722	1.000000	0.642570	7.37212e+06	-40989.1	1005.82	-29787.8	0.000000	0.000000	6.642973	-0.020445	NaN	0.000000	0.001595	0.001686	28.0831	0.063650	0.001862	34.1806	59.2937	-165.177	-0.083594	0.641276	-0.530313	-0.531607	-0.020445	34.1806	-0.529864	-8.92661e+06	2.290319E-9	NaN
722	1.000000	0.652603	7.37212e+06	-40989.1	1005.82	-29787.8	0.000000	0.000000	6.653005	-0.036420	NaN	0.000000	0.001580	0.001670	28.0832	0.025419	0.002032	12.5092	124.978	15.5711	-0.071263	0.651222	-0.520280	-0.521661	-0.036420	12.5092	-0.518096	-6.12515e+06	5.946042E-9	NaN
722	1.000000	0.662584	7.37212e+06	-40989.1	1005.82	-29787.8	0.000000	0.000000	6.662985	-0.059008	NaN	0.000000	0.001580	0.001678	28.0833	0.135810	0.002059	65.9465	64.9364	-165.105	-0.057277	0.661302	-0.510299	-0.511580	-0.059008	65.9465	-0.509628	-4.66906e+06	1.263815E-8	NaN
722	1.000000	0.672653	7.37212e+06	-40989.1	1005.82	-29787.8	0.000000	0.000000	6.673053	-0.101988	NaN	0.000000	0.001605	0.001719	28.0831	0.078441	0.001911	41.049	-118.833	15.9197	-0.076087	0.671265	-0.500229	-0.501617	-0.101988	41.049	-0.498366	-3.25249e+06	3.135689E-8	NaN
722	1.000000	0.682625	7.37212e+06	-40989.1	1005.82	-29787.8	0.000000	0.000000	6.683029	9.777876E-5	NaN	0.000000	0.001592	0.001690	28.0833	0.074241	0.001917	38.7231	-122.775	-164.558	0.020785	0.681343	-0.490257	-0.491540	9.777876E-5	38.7231	-0.490259	-2.50618e+06	-3.901506E-11	NaN
722	1.000000	0.692593	7.37212e+06	-40989.1	1005.82	-29787.8	0.000000	0.000000	6.692994	-0.065026	NaN	0.000000	0.001630	0.001684	28.0832	0.097870	0.002059	47.5255	-15.8057	18.6501	-0.044889	0.691250	-0.480289	-0.481632	-0.065026	47.5255	-0.479263	-1.75879e+06	3.697218E-8	NaN
722	1.000000	0.702591	7.37212e+06	-40989.1	1005.82	-29787.8	0.000000	0.000000	6.702995	0.005746	NaN	0.000000	0.001581	0.001720	28.0833	0.064544	0.001939	33.2875	29.8939	-165.589	-0.070110	0.701264	-0.470291	-0.471618	0.005746	33.2875	-0.470421	-1.32223e+06	-4.345379E-9	NaN
722	1.000000	0.712642	7.37212e+06	-40989.1	1005.82	-29787.8	0.000000	0.000000	6.713045	-0.010467	NaN	0.000000	0.001610	0.001685	28.0816	0.006492	0.002078	3.123946	46.537	15.6678	-0.018635	0.711213	-0.460241	-0.461670	-0.010467	3.123946	-0.457728	-877164	1.193331E-8	NaN
722	1.000000	0.722626	7.37212e+06	-40989.1	1005.82	-29787.8	0.000000	0.000000	6.723030	0.007406	NaN	0.000000	0.001606	0.001707	28.0819	0.078791	0.001944	40.5233	8.599679	-166.448	-0.043843	0.721298	-0.450256	-0.451584	0.007406	40.5233	-0.450394	-691647	-1.070850E-8	NaN
722	1.000000	0.732667	7.37212e+06	-40989.1	1005.82	-29787.8	0.000000	0.000000	6.733068	-0.064419	NaN	0.000000	0.001626	0.001685	28.0818	0.091454	0.002014	45.4121	91.7971	15.8104	-0.061514	0.731297	-0.440215	-0.441585	-0.064419	45.4121	-0.439151	-480161	1.341614E-7	NaN
722	1.000000	0.742622	7.37212e+06	-40989.1	1005.82	-29787.8	0.000000	0.000000	6.743022	-0.091901	NaN	0.000000	0.001631	0.001724	28.0819	0.071809	0.001799	39.9086	64.1505	-166.553	-0.140491	0.741331	-0.430260	-0.431552	-0.091901	39.9086	-0.428533	-339867	2.704036E-7	NaN
722	1.000000	0.752667	7.37212e+06	-40989.1	1005.82	-29787.8	0.000000	0.000000	6.753069	-0.051323	NaN	0.000000	0.001630	0.001724	28.0819	0.048882	0.002036	24.007	-85.8369	16.8649	-0.014582	0.751271	-0.420215	-0.421612	-0.051323	24.007	-0.418612	-245881	2.087321E-7	NaN
722	1.000000	0.762674	7.37212e+06	-40989.1	1005.82	-29787.8	0.000000	0.000000	6.763079	0.013558	NaN	0.000000	0.001577	0.001700	28.0823	0.040312	0.001845	21.8515	30.6656	-166.463	0.081054	0.761318	-0.410208	-0.411565	0.013558	21.8515	-0.410674	-189662	-7.148341E-8	NaN
722	1.000000	0.772660	7.37212e+06	-40989.1	1005.82	-29787.8	0.000000	0.000000	6.773063	-0.029846	NaN	0.000000	0.001591	0.001681	28.0819	0.072358	0.002091	34.5985	-40.8108	16.9808	-0.038867	0.771296	-0.400222	-0.401587	-0.029846	34.5985	-0.399575	-131807	2.264399E-7	NaN
722	1.000000	0.782659	7.37212e+06	-40989.1	1005.82	-29787.8	0.000000	0.000000	6.783061	-0.051484	NaN	0.000000	0.001570	0.001712	28.0818	0.044564	0.001954	22.8054	131.924	-163.731	-0.053365	0.781389	-0.390224	-0.391493	-0.051484	22.8054	-0.388531	-91652	5.617324E-7	NaN
722	1.000000	0.792651	7.37212e+06	-40989.1	1005.82	-29787.8	0.000000	0.000000	6.793055	0.005221	NaN	0.000000	0.001586	0.001704	28.0819	0.045504	0.001935	23.5115	-166.64	13.47	-0.037447	0.791280	-0.380231	-0.381603	0.005221	23.5115	-0.380398	-70081	-7.449339E-8	NaN
722	1.000000	0.802677	7.37212e+06	-40989.1	1005.82	-29787.8	0.000000	0.000000	6.803077	-0.116170	NaN	0.000000	0.001583	0.001739	28.082	0.106996	0.002123	50.3948	92.5614	-163.322	-0.105424	0.801376	-0.370205	-0.371506	-0.116170	50.3948	-0.368476	-47225.3	2.459903E-6	NaN
722	1.000000	0.812679	7.37212e+06	-40989.1	1005.82	-29787.8	0.000000	0.000000	6.813078	-0.116875	NaN	0.000000	0.001597	0.001747	28.0818	0.109560	0.001855	59.0556	-162.986	11.2953	-0.055626	0.811295	-0.360204	-0.361587	-0.116875	59.0556	-0.358719	-34145.2	3.422874E-6	NaN
722	1.000000	0.822656	7.37212e+06	-40989.1	1005.82	-29787.8	0.000000	0.000000	6.823058	-0.042255	NaN	0.000000	0.001599	0.001769	28.0818	0.104087	0.001859	55.9966	137.333	-164.724	-0.170507	0.821391	-0.350226	-0.351491	-0.042255	55.9966	-0.349660	-25239.1	1.674198E-6	NaN
722	1.000000	0.832686	7.37212e+06	-40989.1	1005.82	-29787.8	0.000000	0.000000	6.833089	-0.038555	NaN	0.000000	0.001584	0.001750	28.0817	0.043031	0.002043	21.0611	-40.6606	17.1474	-0.071270	0.831327	-0.340196	-0.341555	-0.038555	21.0611	-0.338823	-17554.8	2.196292E-6	NaN
722	1.000000	0.842697	7.37212e+06	-40989.1	1005.82	-29787.8	0.000000	0.000000	6.843100	-0.010610	NaN	0.000000	0.001595	0.001739	28.0825	0.069997	0.002036	34.3805	31.4951	-164.56	0.000650	0.841387	-0.330186	-0.331495	-0.010610	34.3805	-0.329954	-13025.1	8.146005E-7	NaN
722	1.000000	0.852671	7.37212e+06	-40989.1	1005.82	-29787.8	0.000000	0.000000	6.853075	-0.001357	NaN	0.000000	0.001580	0.001731	28.0829	0.082935	0.002030	40.8641	150.447	16.2993	0.032562	0.851343	-0.320212	-0.321539	-0.001357	40.8641	-0.320187	-9362.41	1.449137E-7	NaN
722	1.000000	0.862682	7.37212e+06	-40989.1	1005.82	-29787.8	0.000000	0.000000	6.863084	-0.036069	NaN	0.000000	0.001617	0.001749	28.083	0.020013	0.001917	10.4414	41.6645	-167.225	-0.094212	0.861387	-0.310201	-0.311496	-0.036069	10.4414	-0.307610	-6104.61	5.908409E-6	NaN
722	1.000000	0.872702	7.37212e+06	-40989.1	1005.82	-29787.8	0.000000	0.000000	6.873105	0.000105	NaN	0.000000	0.001598	0.001734	28.0831	0.067010	0.002016	33.243	-139.23	13.0253	-0.024974	0.871384	-0.300181	-0.301499	0.000105	33.243	-0.300183	-4735.48	-2.226876E-8	NaN
722	1.000000	0.882689	7.37212e+06	-40989.1	1005.82	-29787.8	0.000000	0.000000	6.883092	-0.037296	NaN	0.000000	0.001636	0.001704	28.0831	0.036889	0.002030	18.1748	74.004	-167.869	-0.001114	0.881403	-0.290193	-0.291479	-0.037296	18.1748	-0.288654	-3185.16	1.170945E-5	NaN
722	1.000000	0.892696	7.37212e+06	-40989.1	1005.82	-29787.8	0.000000	0.000000	6.893099	-0.016320	NaN	0.000000	0.001630	0.001767	28.0829	0.029273	0.002111	13.8693	1.791903	18.7666	0.045650	0.891370	-0.280186	-0.281512	-0.016320	13.8693	-0.279304	-2303.91	7.083429E-6	NaN
722	1.000000	0.902691	7.37212e+06	-40989.1	1005.82	-29787.8	0.000000	0.000000	6.903094	-0.026154	NaN	0.000000	0.001587	0.001729	28.083	0.040176	0.002000	20.0846	9.367812	-165.433	-0.000738	0.901368	-0.270192	-0.271515	-0.026154	20.0846	-0.269215	-1620.34	1.614122E-5	NaN
722	1.000000	0.912707	7.37212e+06	-40989.1	1005.82	-29787.8	0.000000	0.000000	6.913110	-0.022348	NaN	0.000000	0.001585	0.001775	28.0831	0.072473	0.001988	36.4463	30.5212	14.6699	-0.051417	0.911338	-0.260175	-0.261544	-0.022348	36.4463	-0.259715	-1160.25	1.926101E-5	NaN
722	1.000000	0.922731	7.37212e+06	-40989.1	1005.82	-29787.8	0.000000	0.000000	6.923133	-0.049915	NaN	0.000000	0.001635	0.001746	28.0827	0.112320	0.002054	54.6801	123.21	-168.89	-0.066577	0.921362	-0.250151	-0.251521	-0.049915	54.6801	-0.249467	-806.711	6.187470E-5	NaN
722	1.000000	0.932706	7.37212e+06	-40989.1	1005.82	-29787.8	0.000000	0.000000	6.933112	0.046321	NaN	0.000000	0.001608	0.001746	28.0828	0.056607	0.001993	28.3989	147.138	15.5304	-0.030382	0.931381	-0.240177	-0.241502	0.046321	28.3989	-0.241400	-604.512	-7.662595E-5	NaN
722	1.000000	0.942700	7.37212e+06	-40989.1	1005.82	-29787.8	0.000000	0.000000	6.943103	-0.035516	NaN	0.000000	0.001623	0.001719	28.083	0.104441	0.001884	55.4271	-59.1482	-164.606	-0.069028	0.941399	-0.230182	-0.231483	-0.035516	55.4271	-0.229702	-396.102	8.966266E-5	NaN
722	1.000000	0.952742	7.37212e+06	-40989.1	1005.82	-29787.8	0.000000	0.000000	6.953143	-0.089627	NaN	0.000000	0.001597	0.001772	28.0829	0.041237	0.001920	21.4736	72.4186	13.1447	-0.093896	0.951348	-0.220140	-0.221534	-0.089627	21.4736	-0.217010	-248.77	0.000360	NaN
722	1.000000	0.962743	7.37212e+06	-40989.1	1005.82	-29787.8	0.000000	0.000000	6.963145	-0.044075	NaN	0.000000	0.001605	0.001767	28.0831	0.044464	0.002078	21.3994	24.2578	-168.406	-0.081258	0.961400	-0.210139	-0.211482	-0.044075	21.3994	-0.208595	-181.986	0.000242	NaN
722	1.000000	0.972731	7.37212e+06	-40989.1	1005.82	-29787.8	0.000000	0.000000	6.973136	0.015875	NaN	0.000000	0.001620	0.001768	28.083	0.074967	0.002044	36.685	20.9025	15.5751	-0.017961	0.971326	-0.200151	-0.201557	0.015875	36.685	-0.200476	-134.125	-0.000118	NaN
722	1.000000	0.982738	7.37212e+06	-40989.1	1005.82	-29787.8	0.000000	0.000000	6.983143	0.031898	NaN	0.000000	0.001622	0.001753	28.0819	0.062505	0.001904	32.8295	-179.517	-163.263	0.094948	0.981436	-0.190144	-0.191446	0.031898	32.8295	-0.190873	-93.0254	-0.000343	NaN
722	1.000000	0.992719	7.37212e+06	-40989.1	1005.82	-29787.8	0.000000	0.000000	6.993126	0.064745	NaN	0.000000	0.001594	0.001742	28.0818	0.057554	0.002034	28.3016	11.3713	17.5548	0.038628	0.991375	-0.180163	-0.181507	0.064745	28.3016	-0.181879	-65.6715	-0.000986	NaN
722	1.000000	1.002728	7.37212e+06	-40989.1	1005.82	-29787.8	0.000000	0.000000	7.003130	-0.041798	NaN	0.000000	0.001554	0.001745	28.0818	0.065835	0.002067	31.8554	111.686	-165.35	0.000885	1.001431	-0.170155	-0.171451	-0.041798	31.8554	-0.169171	-39.7376	0.001052	NaN
722	1.000000	1.012739	7.37212e+06	-40989.1	1005.82	-29787.8	0.000000	0.000000	7.013141	-0.053492	NaN	0.000000	0.001572	0.001760	28.082	0.073884	0.002073	35.6428	-25.9023	20.4125	0.014175	1.011350	-0.160144	-0.161532	-0.053492	35.6428	-0.159018	-26.3338	0.002031	NaN
722	1.000000	1.022757	7.37212e+06	-40989.1	1005.82	-29787.8	0.000000	0.000000	7.023164	0.058746	NaN	0.000000	0.001565	0.001756	28.0819	0.038398	0.001958	19.6148	-90.8926	-163.01	0.013224	1.021443	-0.150125	-0.151439	0.058746	19.6148	-0.152371	-20.0039	-0.002937	NaN
722	1.000000	1.032733	7.37212e+06	-40989.1	1005.82	-29787.8	0.000000	0.000000	7.033137	0.012509	NaN	0.000000	0.001579	0.001722	28.0819	0.093156	0.001848	50.3955	-148.712	15.4367	-0.032225	1.031379	-0.140150	-0.141504	0.012509	50.3955	-0.140336	-12.0024	-0.001042	NaN
722	1.000000	1.042753	7.37212e+06	-40989.1	1005.82	-29787.8	0.000000	0.000000	7.043160	0.071162	NaN	0.000000	0.001597	0.001736	28.082	0.115612	0.002079	55.6018	-52.1088	-167.223	0.051590	1.041445	-0.130129	-0.131438	0.071162	55.6018	-0.131089	-8.000658	-0.008895	NaN
722	1.000000	1.052764	7.37212e+06	-40989.1	1005.82	-29787.8	0.000000	0.000000	7.053168	-0.012966	NaN	0.000000	0.001574	0.001753	28.0825	0.063685	0.002045	31.1448	165.341	13.3637	-0.056283	1.051383	-0.120118	-0.121500	-0.012966	31.1448	-0.119806	-4.788071	0.002708	NaN
722	1.000000	1.062731	7.37212e+06	-40989.1	1005.82	-29787.8	0.000000	0.000000	7.063133	-0.059442	NaN	0.000000	0.001633	0.001726	28.0818	0.080233	0.002111	38.0132	145.823	-163.258	-0.001964	1.061468	-0.110151	-0.111414	-0.059442	38.0132	-0.108978	-2.859419	0.020788	NaN
722	1.000000	1.072797	7.37212e+06	-40989.1	1005.82	-29787.8	0.000000	0.000000	7.073199	-0.040936	NaN	0.000000	0.001669	0.001716	28.0815	0.030857	0.002079	14.8415	-49.8603	16.6778	0.021083	1.071365	-0.100085	-0.101517	-0.040936	14.8415	-0.098017	-1.650355	0.024804	NaN
722	1.000000	1.082794	7.37212e+06	-40989.1	1005.82	-29787.8	0.000000	0.000000	7.083200	0.059909	NaN	0.000000	0.001589	0.001756	28.0818	0.058592	0.001943	30.1627	-46.8355	-165.252	-0.025488	1.081464	-0.090089	-0.091419	0.059909	30.1627	-0.091578	-1.176727	-0.050912	NaN
722	1.000000	1.092798	7.37212e+06	-40989.1	1005.82	-29787.8	0.000000	0.000000	7.093199	-0.064240	NaN	0.000000	0.001672	0.001801	28.0821	0.095451	0.002010	47.4804	-24.4916	16.1755	-0.035895	1.091415	-0.080085	-0.081467	-0.064240	47.4804	-0.079070	-0.586620	0.109509	NaN
722	1.000000	1.102772	7.37212e+06	-40989.1	1005.82	-29787.8	0.000000	0.000000	7.103177	0.024207	NaN	0.000000	0.001692	0.001756	28.0819	0.134109	0.002051	65.3834	-71.7437	-165.198	0.058937	1.101442	-0.070111	-0.071440	0.024207	65.3834	-0.070388	-0.349368	-0.069289	NaN
722	1.000000	1.112791	7.37212e+06	-40989.1	1005.82	-29787.8	0.000000	0.000000	7.113195	-0.012162	NaN	0.000000	0.001650	0.001744	28.0819	0.093760	0.001901	49.3308	-112.421	13.521	-0.001760	1.111428	-0.060091	-0.061454	-0.012162	49.3308	-0.059906	-0.178983	0.067952	NaN
722	1.000000	1.122786	7.37212e+06	-40989.1	1005.82	-29787.8	0.000000	0.000000	7.123186	-0.076876	NaN	0.000000	0.001694	0.001757	28.0832	0.080062	0.001951	41.0376	-103.709	-166.201	0.031147	1.121466	-0.050097	-0.051416	-0.076876	41.0376	-0.048692	-0.083289	0.923004	NaN
722	1.000000	1.132747	7.37212e+06	-40989.1	1005.82	-29787.8	0.000000	0.000000	7.133152	0.010373	NaN	0.000000	0.001688	0.001710	28.0832	0.112848	0.002084	54.1445	170.297	15.5178	-0.023897	1.131387	-0.040135	-0.041496	0.010373	54.1445	-0.040279	-0.046112	-0.224960	NaN
722	1.000000	1.142784	7.37212e+06	-40989.1	1005.82	-29787.8	0.000000	0.000000	7.143189	0.004736	NaN	0.000000	0.001584	0.001755	28.083	0.069389	0.001961	35.3806	48.692	-164.293	-0.053102	1.141503	-0.030098	-0.031380	0.004736	35.3806	-0.030198	-0.023308	-0.203207	NaN
722	1.000000	1.152822	7.37212e+06	-40989.1	1005.82	-29787.8	0.000000	0.000000	7.153222	-0.094900	NaN	0.000000	0.001636	0.001717	28.0867	0.113363	0.002016	56.2287	-122.816	16.2076	0.022992	1.151467	-0.020061	-0.021416	-0.094900	56.2287	-0.018795	-0.011702	8.109709	NaN
722	1.000000	1.162806	7.37212e+06	-40989.1	1005.82	-29787.8	0.000000	0.000000	7.163208	-0.055510	NaN	0.000000	0.001588	0.001718	28.0838	0.057259	0.001987	28.8132	-100.614	-160.614	-0.057577	1.161442	-0.010076	-0.011440	-0.055510	28.8132	-0.008631	-0.005600	9.913327	NaN
722	1.000000	1.172810	7.37212e+06	-40989.1	1005.82	-29787.8	0.000000	0.000000	7.173350	3.312812	NaN	0.000000	0.001596	0.001697	28.0841	4.051914	0.001927	2103.02	9.298100	15.9538	2.071277	1.171441	-7.272299E-5	-0.001441	3.312812	2103.02	-0.001254	-0.000915	-3620.04	NaN
722	2.000000	1.180363	7.37212e+06	-40989.1	1005.82	-29787.8	0.000000	0.000000	7.181146	9.215907	NaN	0.000000	0.001671	0.001686	28.0833	9.913123	0.001571	6311.47	5.929882	-168.383	9.463785	1.180047	0.007481	0.007165	9.215907	6311.47	0.006385	0.005434	1696.1	78227.8
722	2.000000	1.182821	7.37212e+06	-40989.1	1005.82	-29787.8	0.000000	0.000000	7.183756	12.9185	NaN	0.000000	0.001584	0.001743	28.0832	13.0491	0.001777	7342.77	9.405013	5.348567	12.4961	1.182439	0.009938	0.009556	12.9185	7342.77	0.008619	0.007687	1680.66	76518.4
722	2.000000	1.185324	7.37212e+06	-40989.1	1005.82	-29787.8	0.000000	0.000000	7.186369	15.6178	NaN	0.000000	0.001599	0.001677	28.0833	16.173	0.001830	8836.44	11.019	-177.965	15.228	1.185020	0.012441	0.012138	15.6178	8836.44	0.011115	0.010448	1494.86	78984.3
722	2.000000	1.187872	7.37212e+06	-40989.1	1005.82	-29787.8	0.000000	0.000000	7.189160	21.5169	NaN	0.000000	0.001583	0.001676	28.0835	17.7444	0.001800	9860.19	6.090051	7.820603	21.3495	1.187388	0.014990	0.014506	21.5169	9860.19	0.013353	0.013151	1636.1	78555.1
722	2.000000	1.190265	7.37212e+06	-40989.1	1005.82	-29787.8	0.000000	0.000000	7.191719	25.5588	NaN	0.000000	0.001599	0.001718	28.0836	20.3353	0.001764	11527.1	3.991274	-173.591	24.0231	1.189932	0.017382	0.017049	25.5588	11527.1	0.015719	0.016257	1572.21	82599.9
722	2.000000	1.192751	7.37212e+06	-40989.1	1005.82	-29787.8	0.000000	0.000000	7.194385	29.9471	NaN	0.000000	0.001598	0.001732	28.0833	23.2075	0.001730	13413.9	4.663602	4.934268	28.4072	1.192434	0.019868	0.019552	29.9471	13413.9	0.018194	0.019783	1513.75	87132.3
722	2.000000	1.195258	7.37212e+06	-40989.1	1005.82	-29787.8	0.000000	0.000000	7.197095	34.8673	NaN	0.000000	0.001590	0.001724	28.0838	24.9377	0.001785	13972	3.198683	-173.771	34.5875	1.194933	0.022376	0.022050	34.8673	13972	0.020504	0.023340	1493.86	83556.3
722	2.000000	1.197763	7.37212e+06	-40989.1	1005.82	-29787.8	0.000000	0.000000	7.199820	40.2309	NaN	0.000000	0.001542	0.001718	28.0828	27.6241	0.001776	15552.8	4.482430	2.676149	38.7738	1.197433	0.024881	0.024550	40.2309	15552.8	0.022941	0.027375	1469.61	85882
722	2.000000	1.200182	7.37212e+06	-40989.1	1005.82	-29787.8	0.000000	0.000000	7.202468	45.7956	NaN	0.000000	0.001580	0.001670	28.0828	29.8206	0.001867	15968.8	5.256621	-177.65	43.3199	1.199880	0.027300	0.026997	45.7956	15968.8	0.025149	0.031287	1463.72	82482.7
722	2.000000	1.202763	7.37212e+06	-40989.1	1005.82	-29787.8	0.000000	0.000000	7.205277	51.3218	NaN	0.000000	0.001600	0.001690	28.0822	31.3163	0.001760	17796.7	5.191752	0.779237	50.4212	1.202417	0.029881	0.029535	51.3218	17796.7	0.027718	0.036147	1419.82	85522
722	2.000000	1.205206	7.37212e+06	-40989.1	1005.82	-29787.8	0.000000	0.000000	7.208019	58.6064	NaN	0.000000	0.001582	0.001675	28.0829	34.8004	0.001851	18803.2	6.148008	179.26	57.4617	1.204905	0.032324	0.032022	58.6064	18803.2	0.029986	0.040715	1439.43	85138.8
722	2.000000	1.207775	7.37212e+06	-40989.1	1005.82	-29787.8	0.000000	0.000000	7.210924	66.7921	NaN	0.000000	0.001579	0.001673	28.0823	37.3314	0.001949	19152.9	10.8489	-4.011414	67.8205	1.207325	0.034893	0.034443	66.7921	19152.9	0.032277	0.045596	1464.85	81948.7
722	2.000000	1.210227	7.37212e+06	-40989.1	1005.82	-29787.8	0.000000	0.000000	7.213702	74.7132	NaN	0.000000	0.001538	0.001663	28.0825	38.1376	0.001961	19445.5	3.434061	-178.053	74.8983	1.209953	0.037345	0.037071	74.7132	19445.5	0.034463	0.050504	1479.36	79055.4
722	2.000000	1.212741	7.37212e+06	-40989.1	1005.82	-29787.8	0.000000	0.000000	7.216793	88.7487	NaN	0.000000	0.001577	0.001694	28.0825	40.8353	0.001773	23036.1	4.588466	-0.723242	87.3234	1.212414	0.039859	0.039531	88.7487	23036.1	0.036969	0.056431	1572.69	88598
722	2.000000	1.215242	7.37212e+06	-40989.1	1005.82	-29787.8	0.000000	0.000000	7.219434	92.1895	NaN	0.000000	0.001559	0.001711	28.0829	43.7384	0.001896	23067.7	6.427623	178.094	92.2748	1.214892	0.042359	0.042009	92.1895	23067.7	0.039362	0.062390	1477.64	84376.6
722	2.000000	1.217693	7.37212e+06	-40989.1	1005.82	-29787.8	0.000000	0.000000	7.222388	104.411	NaN	0.000000	0.001576	0.001684	28.0824	44.309	0.001720	25763.1	3.250191	-0.527879	99.9183	1.217338	0.044810	0.044456	104.411	25763.1	0.041771	0.068685	1520.14	89813.2
722	2.000000	1.220206	7.37212e+06	-40989.1	1005.82	-29787.8	0.000000	0.000000	7.225311	114.376	NaN	0.000000	0.001536	0.001683	28.0824	47.5894	0.001636	29085.9	6.364662	174.382	113.513	1.219993	0.047324	0.047111	114.376	29085.9	0.044375	0.075822	1508.48	96506.8
722	2.000000	1.222714	7.37212e+06	-40989.1	1005.82	-29787.8	0.000000	0.000000	7.228091	121.019	NaN	0.000000	0.001546	0.001705	28.0822	50.2001	0.001849	27143.1	4.005868	-1.757095	119.662	1.222343	0.049831	0.049461	121.019	27143.1	0.046487	0.081866	1478.26	86672.3
722	2.000000	1.225179	7.37212e+06	-40989.1	1005.82	-29787.8	0.000000	0.000000	7.231247	137.829	NaN	0.000000	0.001544	0.001711	28.0827	52.8479	0.001738	30409	2.262541	178.358	135.047	1.224814	0.052296	0.051931	137.829	30409	0.048897	0.089034	1548.04	93110
722	2.000000	1.227633	7.37212e+06	-40989.1	1005.82	-29787.8	0.000000	0.000000	7.234284	152.014	NaN	0.000000	0.001534	0.001740	28.0821	55.105	0.001765	31224.5	6.319074	-5.852023	145.271	1.227273	0.054751	0.054391	152.014	31224.5	0.051099	0.095841	1586.1	92149.5
722	2.000000	1.230158	7.37212e+06	-40989.1	1005.82	-29787.8	0.000000	0.000000	7.237318	164.382	NaN	0.000000	0.001577	0.001698	28.0826	55.8793	0.001774	31507.2	3.375709	177.449	161.729	1.229896	0.057276	0.057013	164.382	31507.2	0.053363	0.103090	1594.55	89655.1
722	2.000000	1.232701	7.37212e+06	-40989.1	1005.82	-29787.8	0.000000	0.000000	7.240371	176.807	NaN	0.000000	0.001586	0.001723	28.0835	59.4407	0.001902	31254.8	3.661460	-3.005321	174.106	1.232299	0.059819	0.059416	176.807	31254.8	0.055576	0.110425	1601.16	85932.5
722	2.000000	1.235341	7.37212e+06	-40989.1	1005.82	-29787.8	0.000000	0.000000	7.243326	184.462	NaN	0.000000	0.001601	0.001697	28.0837	61.1952	0.001802	33960.2	3.184793	178.741	193.406	1.234904	0.062458	0.062022	184.462	33960.2	0.058385	0.120080	1536.16	89538.2
722	2.000000	1.237741	7.37212e+06	-40989.1	1005.82	-29787.8	0.000000	0.000000	7.246279	197.928	NaN	0.000000	0.001567	0.001700	28.0836	62.6087	0.001761	35555.1	3.210825	-3.031995	197.466	1.237488	0.064859	0.064606	197.928	35555.1	0.060684	0.128271	1543.05	90700.7
722	2.000000	1.240157	7.37212e+06	-40989.1	1005.82	-29787.8	0.000000	0.000000	7.249265	211.808	NaN	0.000000	0.001609	0.001695	28.0837	65.7128	0.001666	39448.5	7.669971	170.951	209.977	1.239912	0.067274	0.067030	211.808	39448.5	0.063247	0.137710	1538.07	97122.8
722	2.000000	1.242722	7.37212e+06	-40989.1	1005.82	-29787.8	0.000000	0.000000	7.252462	227.17	NaN	0.000000	0.001560	0.001736	28.0839	69.2225	0.001881	36793	8.916639	-8.277957	226.812	1.242387	0.069840	0.069504	227.17	36793	0.065209	0.145146	1565.11	88233.8
722	2.000000	1.245144	7.37212e+06	-40989.1	1005.82	-29787.8	0.000000	0.000000	7.255409	239.959	NaN	0.000000	0.001599	0.001744	28.0834	70.7937	0.001781	39743.4	5.199658	173.49	236.857	1.244872	0.072261	0.071989	239.959	39743.4	0.067733	0.154988	1548.24	92233.7
722	2.000000	1.247598	7.37212e+06	-40989.1	1005.82	-29787.8	0.000000	0.000000	7.258728	261.004	NaN	0.000000	0.001587	0.001691	28.0835	71.6439	0.001741	41141.5	3.056149	-4.483642	254.152	1.247341	0.074715	0.074459	261.004	41141.5	0.069957	0.163914	1592.33	92842.4
722	2.000000	1.250163	7.37212e+06	-40989.1	1005.82	-29787.8	0.000000	0.000000	7.261851	274.583	NaN	0.000000	0.001620	0.001708	28.0838	72.8717	0.001849	39402.5	4.045624	175.208	271.762	1.249900	0.077280	0.077017	274.583	39402.5	0.072054	0.172542	1591.4	86666.1
722	2.000000	1.252587	7.37212e+06	-40989.1	1005.82	-29787.8	0.000000	0.000000	7.265119	295.126	NaN	0.000000	0.001630	0.001698	28.0837	74.58	0.001667	44725.8	0.496746	-2.548064	289.004	1.252314	0.079704	0.079431	295.126	44725.8	0.074755	0.183968	1604.22	95270.8
722	2.000000	1.255233	7.37212e+06	-40989.1	1005.82	-29787.8	0.000000	0.000000	7.268312	308.414	NaN	0.000000	0.001601	0.001722	28.0837	79.563	0.001640	48525.2	5.150186	172.49	311.087	1.254936	0.082351	0.082054	308.414	48525.2	0.077584	0.196299	1571.14	100065
722	2.000000	1.257621	7.37212e+06	-40989.1	1005.82	-29787.8	0.000000	0.000000	7.271603	330.375	NaN	0.000000	0.001599	0.001702	28.0836	82.073	0.001925	42639	7.829214	-7.895596	324.212	1.257230	0.084739	0.084348	330.375	42639	0.078928	0.202289	1633.18	86615.2
722	2.000000	1.260125	7.37212e+06	-40989.1	1005.82	-29787.8	0.000000	0.000000	7.274714	345.175	NaN	0.000000	0.001612	0.001727	28.084	84.7824	0.001910	44391.7	3.908642	174.508	342.713	1.259885	0.087243	0.087002	345.175	44391.7	0.081411	0.213578	1616.15	87760
722	2.000000	1.262595	7.37212e+06	-40989.1	1005.82	-29787.8	0.000000	0.000000	7.278310	372.549	NaN	0.000000	0.001655	0.001724	28.0835	86.1712	0.001780	48413.5	3.431042	-5.734036	366.341	1.262300	0.089713	0.089418	372.549	48413.5	0.083941	0.225377	1653	93171.9
722	2.000000	1.265142	7.37212e+06	-40989.1	1005.82	-29787.8	0.000000	0.000000	7.281725	393.688	NaN	0.000000	0.001622	0.001674	28.0836	89.5967	0.001931	46406.7	5.665745	172.511	391.017	1.264827	0.092260	0.091945	393.688	46406.7	0.085897	0.234700	1677.41	87518.1
722	2.000000	1.267638	7.37212e+06	-40989.1	1005.82	-29787.8	0.000000	0.000000	7.285202	417.56	NaN	0.000000	0.001617	0.001710	28.0823	90.3368	0.001734	52102.3	4.693199	-6.766933	413.354	1.267301	0.094755	0.094419	417.56	52102.3	0.088744	0.248587	1679.73	95475.2
722	2.000000	1.270116	7.37212e+06	-40989.1	1005.82	-29787.8	0.000000	0.000000	7.288488	437.234	NaN	0.000000	0.001637	0.001711	28.0826	92.8385	0.001819	51024.8	5.087868	172.809	433.914	1.269772	0.097233	0.096889	437.234	51024.8	0.090806	0.258876	1688.97	91623.8
722	2.000000	1.272642	7.37212e+06	-40989.1	1005.82	-29787.8	0.000000	0.000000	7.291945	459.873	NaN	0.000000	0.001630	0.001679	28.0822	94.2981	0.001891	49871.2	2.883977	-5.061915	457.759	1.272353	0.099759	0.099470	459.873	49871.2	0.092843	0.269232	1708.09	87813.3
722	2.000000	1.275238	7.37212e+06	-40989.1	1005.82	-29787.8	0.000000	0.000000	7.295431	481.525	NaN	0.000000	0.001656	0.001705	28.0824	97.8109	0.001873	52209	4.476346	173.194	484.94	1.274776	0.102356	0.101894	481.525	52209	0.095438	0.282700	1703.31	89713
722	2.000000	1.277662	7.37212e+06	-40989.1	1005.82	-29787.8	0.000000	0.000000	7.299025	509.994	NaN	0.000000	0.001621	0.001660	28.0822	98.4417	0.001783	55204.9	6.822749	-9.068515	505.796	1.277198	0.104779	0.104316	509.994	55204.9	0.097851	0.295495	1725.9	92784.6
722	2.000000	1.278290	7.37212e+06	-40989.1	1005.82	-29787.8	0.000000	0.000000	7.299458	505.244	NaN	0.000000	0.001623	0.001660	28.0822	100.448	0.001707	58857.1	5.880494	170.641	511.793	1.277946	0.105408	0.105063	505.244	58857.1	0.098970	0.301521	1675.65	97929.4