File: remote_trans/data/nanoindenter/0828-1/data/Data_2025-08-06,11h17m57s/2025-07-22_16-23-58_1_39.txt
2025-07-22, 16:23:58, 1
Index	Phase	Displacement	Time	Pos X	Pos Y	Pos Z	Rot A	Rot B	Piezo Z	Force A	Force B	Gripper	Voltage A	Voltage B	Temperature	Amplitude force	Amplitude pos	Stiffness	Phase shift	Phase excitation	Force A raw	Displacement raw	HMax	HMax raw	Real Force	Real Stiffness	Contact Depth	Area	Hardness	Reduced Mod.
[#]	[#]	[um]	[s]	[um]	[um]	[um]	[m°]	[m°]	[um]	[uN]	[uN]	[V]	[V]	[V]	[°C]	[uN]	[um]	[N/m]	[°]	[°]	[uN]	[um]	[um]	[um]	[uN]	[N/m]	[um]	[um^2]	[MPa]	[MPa]
39	1.000000	0.002463	7.36542e+06	-40589.1	955.819	-29790	0.000000	0.000000	6.002801	0.010496	NaN	0.000000	0.001611	0.001759	28.1043	0.038696	0.000953	40.6205	-175.871	-160.869	0.024428	0.001210	-1.176849	-1.178102	0.010496	40.6205	-1.177043	-5.410691E+15	-1.939835E-18	NaN
39	1.000000	0.012511	7.36542e+06	-40589.1	955.818	-29790	0.000000	0.000000	6.012849	0.029635	NaN	0.000000	0.001622	0.001748	28.1314	0.055770	0.001270	43.9129	120.706	21.5847	0.110342	0.011101	-1.166801	-1.168212	0.029635	43.9129	-1.167308	-4.006879E+15	-7.396059E-18	NaN
39	1.000000	0.022451	7.36542e+06	-40589.1	955.818	-29790	0.000000	0.000000	6.022787	-0.019298	NaN	0.000000	0.001630	0.001744	28.0943	0.085066	0.001767	48.1339	-89.2726	-164.309	-0.033073	0.021126	-1.156862	-1.158186	-0.019298	48.1339	-1.156561	-2.875894E+15	6.710321E-18	NaN
39	1.000000	0.032405	7.36542e+06	-40589.1	955.818	-29790	0.000000	0.000000	6.032745	0.068276	NaN	0.000000	0.001651	0.001745	28.0817	0.084029	0.002008	41.8474	151.875	14.3131	0.087409	0.031039	-1.146907	-1.148273	0.068276	41.8474	-1.148131	-2.216992E+15	-3.079647E-17	NaN
39	1.000000	0.042442	7.36542e+06	-40589.1	955.817	-29790	0.000000	0.000000	6.042777	-0.028558	NaN	0.000000	0.001737	0.001744	28.1023	0.059600	0.002061	28.9199	21.9441	-162.949	0.043596	0.041067	-1.136871	-1.138245	-0.028558	28.9199	-1.136130	-1.530520E+15	1.865918E-17	NaN
39	1.000000	0.052425	7.36542e+06	-40589.1	955.818	-29790	0.000000	0.000000	6.052759	-0.063685	NaN	0.000000	0.001692	0.001759	28.13	0.090179	0.001944	46.3874	100.827	15.6907	-0.038846	0.051083	-1.126887	-1.128229	-0.063685	46.3874	-1.125858	-1.114443E+15	5.714550E-17	NaN
39	1.000000	0.062398	7.36542e+06	-40589.1	955.819	-29790	0.000000	0.000000	6.062736	0.029591	NaN	0.000000	0.001682	0.001752	28.0933	0.043684	0.001908	22.8972	39.1825	-163.231	0.005707	0.061118	-1.116914	-1.118195	0.029591	22.8972	-1.117884	-8.711201E+14	-3.396921E-17	NaN
39	1.000000	0.072445	7.36542e+06	-40589.1	955.818	-29790	0.000000	0.000000	6.072783	0.019973	NaN	0.000000	0.001717	0.001787	28.0807	0.084070	0.001999	42.0563	-146.812	13.7202	0.013496	0.071057	-1.106867	-1.108255	0.019973	42.0563	-1.107223	-6.266435E+14	-3.187316E-17	NaN
39	1.000000	0.082443	7.36542e+06	-40589.1	955.818	-29790	0.000000	0.000000	6.082779	-0.021638	NaN	0.000000	0.001663	0.001776	28.1029	0.039378	0.002100	18.7506	153.672	-166.565	0.046282	0.081125	-1.096869	-1.098187	-0.021638	18.7506	-1.096003	-4.430123E+14	4.884205E-17	NaN
39	1.000000	0.092407	7.36542e+06	-40589.1	955.819	-29790	0.000000	0.000000	6.092744	0.007590	NaN	0.000000	0.001700	0.001751	28.1308	0.092838	0.001993	46.58	47.1907	15.865	-0.023615	0.091096	-1.086905	-1.088216	0.007590	46.58	-1.087028	-3.356590E+14	-2.261169E-17	NaN
39	1.000000	0.102465	7.36542e+06	-40589.1	955.819	-29790	0.000000	0.000000	6.102806	0.104263	NaN	0.000000	0.001710	0.001814	28.094	0.054390	0.001975	27.5327	67.8664	-165.752	0.104208	0.101141	-1.076847	-1.078171	0.104263	27.5327	-1.079688	-2.674998E+14	-3.897696E-16	NaN
39	1.000000	0.112437	7.36542e+06	-40589.1	955.818	-29790	0.000000	0.000000	6.112774	0.001422	NaN	0.000000	0.001676	0.001786	28.0806	0.111496	0.002018	55.2442	-154.593	12.879	0.011360	0.111071	-1.066875	-1.068241	0.001422	55.2442	-1.066894	-1.800782E+14	-7.897921E-18	NaN
39	1.000000	0.122454	7.36542e+06	-40589.1	955.818	-29790	0.000000	0.000000	6.122792	0.010463	NaN	0.000000	0.001699	0.001767	28.1013	0.048873	0.002037	23.9977	14.9501	-165.677	0.033719	0.121173	-1.056858	-1.058139	0.010463	23.9977	-1.057185	-1.333481E+14	-7.846050E-17	NaN
39	1.000000	0.132462	7.36542e+06	-40589.1	955.819	-29790	0.000000	0.000000	6.132798	-0.025308	NaN	0.000000	0.001675	0.001738	28.1299	0.065702	0.002042	32.1817	-128.966	16.9972	0.002886	0.131106	-1.046850	-1.048206	-0.025308	32.1817	-1.046260	-9.509094E+13	2.661414E-16	NaN
39	1.000000	0.142447	7.36542e+06	-40589.1	955.818	-29790	0.000000	0.000000	6.142785	0.025346	NaN	0.000000	0.001700	0.001729	28.0954	0.119135	0.002007	59.3457	-155.203	-165.836	0.056739	0.141177	-1.036866	-1.038135	0.025346	59.3457	-1.037186	-7.180016E+13	-3.530087E-16	NaN
39	1.000000	0.152463	7.36542e+06	-40589.1	955.818	-29790	0.000000	0.000000	6.152800	-0.006329	NaN	0.000000	0.001657	0.001769	28.0815	0.030538	0.002040	14.9721	130.577	18.9541	0.036332	0.151093	-1.026849	-1.028219	-0.006329	14.9721	-1.026532	-5.162177E+13	1.226112E-16	NaN
39	1.000000	0.162461	7.36542e+06	-40589.1	955.818	-29790	0.000000	0.000000	6.162798	-0.016728	NaN	0.000000	0.001670	0.001746	28.104	0.051859	0.001952	26.5645	97.1637	-166.848	0.001209	0.161174	-1.016851	-1.018138	-0.016728	26.5645	-1.016379	-3.768981E+13	4.438405E-16	NaN
39	1.000000	0.172476	7.36542e+06	-40589.1	955.818	-29790	0.000000	0.000000	6.172816	0.076450	NaN	0.000000	0.001668	0.001772	28.1327	0.121693	0.001989	61.1956	-161.266	14.9214	0.073710	0.171098	-1.006836	-1.008214	0.076450	61.1956	-1.007773	-2.886757E+13	-2.648287E-15	NaN
39	1.000000	0.182497	7.36542e+06	-40589.1	955.819	-29790	0.000000	0.000000	6.182837	0.090342	NaN	0.000000	0.001707	0.001743	28.0963	0.065137	0.001969	33.0823	114.288	-163.857	0.120294	0.181174	-0.996815	-0.998138	0.090342	33.0823	-0.998864	-2.190124E+13	-4.124970E-15	NaN
39	1.000000	0.192456	7.36542e+06	-40589.1	955.818	-29790	0.000000	0.000000	6.192790	-0.055602	NaN	0.000000	0.001695	0.001758	28.0824	0.052794	0.002081	25.371	14.9778	13.2538	0.025079	0.191122	-0.986857	-0.988190	-0.055602	25.371	-0.985213	-1.434288E+13	3.876595E-15	NaN
39	1.000000	0.202474	7.36542e+06	-40589.1	955.817	-29790	0.000000	0.000000	6.202811	0.014093	NaN	0.000000	0.001593	0.001737	28.1027	0.059699	0.001968	30.3285	-79.5995	-164.363	0.003950	0.201137	-0.976838	-0.978175	0.014093	30.3285	-0.977187	-1.118171E+13	-1.260348E-15	NaN
39	1.000000	0.212453	7.36542e+06	-40589.1	955.818	-29790	0.000000	0.000000	6.212789	-0.040393	NaN	0.000000	0.001601	0.001695	28.1321	0.027669	0.001915	14.4458	-71.5206	11.0055	-0.034283	0.211134	-0.966859	-0.968178	-0.040393	14.4458	-0.964762	-7.604285E+12	5.311891E-15	NaN
39	1.000000	0.222480	7.36542e+06	-40589.1	955.818	-29790	0.000000	0.000000	6.222817	-0.000391	NaN	0.000000	0.001600	0.001728	28.0945	0.106717	0.001982	53.8316	-56.2749	-166.08	-0.021668	0.221176	-0.956832	-0.958136	-0.000391	53.8316	-0.956827	-5.944151E+12	6.575228E-17	NaN
39	1.000000	0.232514	7.36542e+06	-40589.1	955.818	-29790	0.000000	0.000000	6.232851	0.004950	NaN	0.000000	0.001579	0.001769	28.0804	0.106982	0.002027	52.7692	143.043	14.609	0.020694	0.231131	-0.946798	-0.948181	0.004950	52.7692	-0.946868	-4.363062E+12	-1.134415E-15	NaN
39	1.000000	0.242513	7.36542e+06	-40589.1	955.817	-29790	0.000000	0.000000	6.242851	0.044905	NaN	0.000000	0.001558	0.001753	28.102	0.170260	0.002053	82.9242	-77.1506	-162.812	0.097009	0.241189	-0.936800	-0.938123	0.044905	82.9242	-0.937206	-3.231738E+12	-1.389514E-14	NaN
39	1.000000	0.252498	7.36542e+06	-40589.1	955.818	-29790	0.000000	0.000000	6.252836	0.026523	NaN	0.000000	0.001573	0.001758	28.1324	0.096701	0.001997	48.4229	60.6779	14.9415	0.017343	0.251139	-0.926814	-0.928173	0.026523	48.4229	-0.927225	-2.369986E+12	-1.119126E-14	NaN
39	1.000000	0.262511	7.36542e+06	-40589.1	955.819	-29790	0.000000	0.000000	6.262849	0.030051	NaN	0.000000	0.001566	0.001769	28.0956	0.114455	0.001966	58.2314	-143.13	-167.719	0.052045	0.261270	-0.916801	-0.918042	0.030051	58.2314	-0.917188	-1.734773E+12	-1.732292E-14	NaN
39	1.000000	0.272527	7.36542e+06	-40589.1	955.818	-29790	0.000000	0.000000	6.272866	0.060063	NaN	0.000000	0.001603	0.001811	28.0814	0.124451	0.001971	63.1409	125.193	15.876	0.084542	0.271191	-0.906786	-0.908121	0.060063	63.1409	-0.907499	-1.283453E+12	-4.679792E-14	NaN
39	1.000000	0.282514	7.36542e+06	-40589.1	955.818	-29790	0.000000	0.000000	6.282848	-0.073606	NaN	0.000000	0.001596	0.001789	28.1008	0.121861	0.002116	57.593	5.199278	-165.686	-0.065220	0.281205	-0.896798	-0.898107	-0.073606	57.593	-0.895839	-8.929789E+11	8.242730E-14	NaN
39	1.000000	0.292518	7.36542e+06	-40589.1	955.818	-29790	0.000000	0.000000	6.292853	-0.028139	NaN	0.000000	0.001556	0.001787	28.1298	0.054706	0.002021	27.0749	162.964	11.2038	-0.046644	0.291185	-0.886795	-0.888127	-0.028139	27.0749	-0.886015	-6.577246E+11	4.278239E-14	NaN
39	1.000000	0.302553	7.36542e+06	-40589.1	955.817	-29790	0.000000	0.000000	6.302891	0.021577	NaN	0.000000	0.001596	0.001808	28.0931	0.118215	0.001949	60.643	-168.946	-166.92	0.042340	0.301222	-0.876759	-0.878090	0.021577	60.643	-0.877026	-4.971499E+11	-4.340138E-14	NaN
39	1.000000	0.312531	7.36542e+06	-40589.1	955.819	-29790	0.000000	0.000000	6.312865	-0.065280	NaN	0.000000	0.001600	0.001775	28.0781	0.023059	0.001933	11.9272	-172.054	16.1868	-0.056671	0.311176	-0.866781	-0.868136	-0.065280	11.9272	-0.862676	-3.179381E+11	2.053229E-13	NaN
39	1.000000	0.322525	7.36542e+06	-40589.1	955.817	-29790	0.000000	0.000000	6.322860	-0.031152	NaN	0.000000	0.001599	0.001789	28.1007	0.078566	0.002031	38.6792	-137.467	-166.918	0.011335	0.321220	-0.856788	-0.858092	-0.031152	38.6792	-0.856183	-2.596920E+11	1.199587E-13	NaN
39	1.000000	0.332517	7.36542e+06	-40589.1	955.818	-29790	0.000000	0.000000	6.332854	0.010324	NaN	0.000000	0.001592	0.001772	28.131	0.102153	0.001912	53.4244	6.218010	14.2469	0.105319	0.331199	-0.846795	-0.848114	0.010324	53.4244	-0.846940	-1.946715E+11	-5.303485E-14	NaN
39	1.000000	0.342554	7.36542e+06	-40589.1	955.819	-29790	0.000000	0.000000	6.342890	-0.024038	NaN	0.000000	0.001592	0.001795	28.094	0.163336	0.001974	82.7647	75.2002	-163.026	-0.023091	0.341192	-0.836758	-0.838120	-0.024038	82.7647	-0.836540	-1.407394E+11	1.707997E-13	NaN
39	1.000000	0.352545	7.36542e+06	-40589.1	955.818	-29790	0.000000	0.000000	6.352882	0.009053	NaN	0.000000	0.001687	0.001743	28.0804	0.136010	0.001991	68.3183	-163.514	17.6572	0.051606	0.351184	-0.826768	-0.828128	0.009053	68.3183	-0.826867	-1.040675E+11	-8.699036E-14	NaN
39	1.000000	0.362576	7.36542e+06	-40589.1	955.818	-29790	0.000000	0.000000	6.362911	-0.049533	NaN	0.000000	0.001649	0.001765	28.1002	0.055808	0.002025	27.5641	-8.786729	-164.084	-0.044890	0.361239	-0.816736	-0.818074	-0.049533	27.5641	-0.815388	-7.272217E+10	6.811274E-13	NaN
39	1.000000	0.372571	7.36542e+06	-40589.1	955.818	-29790	0.000000	0.000000	6.372906	-0.047942	NaN	0.000000	0.001631	0.001753	28.1295	0.017009	0.002010	8.462898	-132.23	17.5462	0.031965	0.371198	-0.806742	-0.808114	-0.047942	8.462898	-0.802493	-4.860709E+10	9.863077E-13	NaN
39	1.000000	0.382553	7.36542e+06	-40589.1	955.818	-29790	0.000000	0.000000	6.382889	-0.009437	NaN	0.000000	0.001677	0.001765	28.0938	0.039174	0.001962	19.9686	28.2633	-164.424	-0.031056	0.381205	-0.796760	-0.798108	-0.009437	19.9686	-0.796405	-4.018459E+10	2.348318E-13	NaN
39	1.000000	0.392570	7.36542e+06	-40589.1	955.817	-29790	0.000000	0.000000	6.392907	-0.001300	NaN	0.000000	0.001655	0.001807	28.0793	0.112721	0.002051	54.9513	-102.495	14.0407	0.013924	0.391231	-0.786743	-0.788081	-0.001300	54.9513	-0.786725	-2.968922E+10	4.377577E-14	NaN
39	1.000000	0.402579	7.36542e+06	-40589.1	955.817	-29790	0.000000	0.000000	6.402915	-0.027037	NaN	0.000000	0.001680	0.001800	28.1008	0.152156	0.002085	72.993	-110.827	-164.216	-0.034673	0.401262	-0.776734	-0.778050	-0.027037	72.993	-0.776456	-2.153106E+10	1.255736E-12	NaN
39	1.000000	0.412555	7.36542e+06	-40589.1	955.818	-29790	0.000000	0.000000	6.412893	0.011279	NaN	0.000000	0.001632	0.001779	28.1313	0.105496	0.001956	53.9454	172.63	13.1748	0.000578	0.411212	-0.766757	-0.768100	0.011279	53.9454	-0.766914	-1.597131E+10	-7.061871E-13	NaN
39	1.000000	0.422590	7.36542e+06	-40589.1	955.818	-29790	0.000000	0.000000	6.422928	0.018002	NaN	0.000000	0.001666	0.001790	28.0958	0.140427	0.002009	69.9091	-137.433	-163.733	-0.001002	0.421223	-0.756722	-0.758089	0.018002	69.9091	-0.756915	-1.167703E+10	-1.541697E-12	NaN
39	1.000000	0.432594	7.36542e+06	-40589.1	955.818	-29790	0.000000	0.000000	6.432933	0.050489	NaN	0.000000	0.001702	0.001820	28.0826	0.022057	0.001976	11.1596	-153.42	15.8768	0.037995	0.431239	-0.746718	-0.748073	0.050489	11.1596	-0.750111	-9.434850E+9	-5.351354E-12	NaN
39	1.000000	0.442599	7.36542e+06	-40589.1	955.818	-29790	0.000000	0.000000	6.442937	0.034026	NaN	0.000000	0.001653	0.001826	28.1006	0.120477	0.002004	60.1105	49.0322	-164.178	0.020694	0.441287	-0.736713	-0.738026	0.034026	60.1105	-0.737138	-6.281551E+9	-5.416766E-12	NaN
39	1.000000	0.452587	7.36542e+06	-40589.1	955.818	-29790	0.000000	0.000000	6.452921	-0.056856	NaN	0.000000	0.001653	0.001794	28.1315	0.083172	0.002046	40.6514	123.164	15.3714	0.024002	0.451216	-0.726726	-0.728097	-0.056856	40.6514	-0.725677	-4.384066E+9	1.296875E-11	NaN
39	1.000000	0.462607	7.36542e+06	-40589.1	955.819	-29790	0.000000	0.000000	6.462945	0.025334	NaN	0.000000	0.001583	0.001789	28.0947	0.064859	0.001997	32.4839	45.0959	-162.661	-0.043070	0.461319	-0.716705	-0.717993	0.025334	32.4839	-0.717290	-3.369103E+9	-7.519486E-12	NaN
39	1.000000	0.472597	7.36542e+06	-40589.1	955.818	-29790	0.000000	0.000000	6.472934	0.005584	NaN	0.000000	0.001574	0.001823	28.0816	0.013737	0.002017	6.809626	103.964	14.6004	0.040918	0.471275	-0.706715	-0.708037	0.005584	6.809626	-0.707330	-2.463830E+9	-2.266377E-12	NaN
39	1.000000	0.482612	7.36542e+06	-40589.1	955.818	-29790	0.000000	0.000000	6.482949	-0.002381	NaN	0.000000	0.001551	0.001799	28.1015	0.040904	0.001951	20.9661	-158.046	-164.693	0.004459	0.481306	-0.696700	-0.698007	-0.002381	20.9661	-0.696615	-1.759132E+9	1.353689E-12	NaN
39	1.000000	0.492615	7.36542e+06	-40589.1	955.818	-29790	0.000000	0.000000	6.492955	0.060792	NaN	0.000000	0.001569	0.001771	28.1323	0.059117	0.001951	30.3062	-126.861	14.3696	-0.042680	0.491217	-0.686697	-0.688095	0.060792	30.3062	-0.688201	-1.350007E+9	-4.503119E-11	NaN
39	1.000000	0.502622	7.36542e+06	-40589.1	955.818	-29790	0.000000	0.000000	6.502959	-0.004558	NaN	0.000000	0.001608	0.001777	28.0961	0.021108	0.002186	9.654877	-58.7129	-165.814	0.000193	0.501332	-0.676690	-0.677980	-0.004558	9.654877	-0.676336	-9.291605E+8	4.905870E-12	NaN
39	1.000000	0.512635	7.36542e+06	-40589.1	955.819	-29790	0.000000	0.000000	6.512975	0.052564	NaN	0.000000	0.001580	0.001774	28.0807	0.111036	0.001955	56.8004	-93.7726	13.735	0.042994	0.511234	-0.666677	-0.668078	0.052564	56.8004	-0.667371	-7.004900E+8	-7.503909E-11	NaN
39	1.000000	0.522594	7.36542e+06	-40589.1	955.818	-29790	0.000000	0.000000	6.522931	-0.007335	NaN	0.000000	0.001575	0.001777	28.0995	0.032134	0.001972	16.2923	113.97	-166.76	-0.017640	0.521324	-0.656718	-0.657989	-0.007335	16.2923	-0.656380	-4.953157E+8	1.480832E-11	NaN
39	1.000000	0.532633	7.36542e+06	-40589.1	955.818	-29790	0.000000	0.000000	6.532969	-0.040271	NaN	0.000000	0.001589	0.001787	28.1309	0.075237	0.002030	37.0606	-60.1396	14.3476	-0.014320	0.531262	-0.646679	-0.648050	-0.040271	37.0606	-0.645864	-3.554057E+8	1.133096E-10	NaN
39	1.000000	0.542633	7.36542e+06	-40589.1	955.818	-29790	0.000000	0.000000	6.542969	-0.020566	NaN	0.000000	0.001626	0.001792	28.0947	0.081305	0.002063	39.4063	110.707	-166.599	-0.032480	0.541295	-0.636679	-0.638017	-0.020566	39.4063	-0.636288	-2.626298E+8	7.830757E-11	NaN
39	1.000000	0.552649	7.36542e+06	-40589.1	955.818	-29790	0.000000	0.000000	6.552986	0.002694	NaN	0.000000	0.001583	0.001756	28.0793	0.033632	0.001909	17.6179	-127.577	17.8852	-0.010307	0.551298	-0.626664	-0.628014	0.002694	17.6179	-0.626778	-1.944355E+8	-1.385740E-11	NaN
39	1.000000	0.562626	7.36542e+06	-40589.1	955.819	-29790	0.000000	0.000000	6.562964	0.035935	NaN	0.000000	0.001603	0.001796	28.0996	0.127592	0.001911	66.7617	-31.1035	-165.221	0.036223	0.561318	-0.616687	-0.617994	0.035935	66.7617	-0.617090	-1.430977E+8	-2.511250E-10	NaN
39	1.000000	0.572654	7.36542e+06	-40589.1	955.818	-29790	0.000000	0.000000	6.572992	0.036355	NaN	0.000000	0.001600	0.001750	28.1306	0.122207	0.001990	61.4232	-7.915493	15.0347	0.009016	0.571291	-0.606658	-0.608022	0.036355	61.4232	-0.607102	-1.042893E+8	-3.485963E-10	NaN
39	1.000000	0.582640	7.36542e+06	-40589.1	955.818	-29790	0.000000	0.000000	6.582978	0.015745	NaN	0.000000	0.001624	0.001767	28.0947	0.031472	0.002010	15.6601	-84.1245	-168.874	0.075680	0.581320	-0.596672	-0.597992	0.015745	15.6601	-0.597426	-7.673769E+7	-2.051760E-10	NaN
39	1.000000	0.592661	7.36542e+06	-40589.1	955.818	-29790	0.000000	0.000000	6.592999	0.031146	NaN	0.000000	0.001578	0.001761	28.0794	0.001623	0.002022	0.802783	-163.647	11.5591	0.030436	0.591288	-0.586651	-0.588024	0.031146	0.802783	-0.615750	-1.371512E+8	-2.270947E-10	NaN
39	1.000000	0.602644	7.36542e+06	-40589.1	955.818	-29790	0.000000	0.000000	6.602979	-0.051978	NaN	0.000000	0.001600	0.001788	28.0985	0.046926	0.002181	21.5149	47.3938	-166.618	-0.073711	0.601377	-0.576668	-0.577936	-0.051978	21.5149	-0.574856	-3.747268E+7	1.387099E-9	NaN
39	1.000000	0.612635	7.36542e+06	-40589.1	955.817	-29790	0.000000	0.000000	6.612971	-0.029620	NaN	0.000000	0.001637	0.001787	28.1294	0.053370	0.002047	26.0735	-56.3213	14.5562	-0.033384	0.611307	-0.566677	-0.568005	-0.029620	26.0735	-0.565825	-2.811451E+7	1.053531E-9	NaN
39	1.000000	0.622664	7.36542e+06	-40589.1	955.818	-29790	0.000000	0.000000	6.623002	0.034325	NaN	0.000000	0.001619	0.001767	28.0935	0.033414	0.002094	15.9571	-54.5623	-169.505	0.050541	0.621340	-0.556648	-0.557972	0.034325	15.9571	-0.558262	-2.209675E+7	-1.553383E-9	NaN
39	1.000000	0.632674	7.36542e+06	-40589.1	955.818	-29790	0.000000	0.000000	6.633011	-0.003455	NaN	0.000000	0.001653	0.001772	28.0788	0.048294	0.002021	23.8925	-3.854229	14.1139	0.015620	0.631243	-0.546638	-0.548069	-0.003455	23.8925	-0.546529	-1.520109E+7	2.272686E-10	NaN
39	1.000000	0.642690	7.36542e+06	-40589.1	955.817	-29790	0.000000	0.000000	6.643026	-0.012409	NaN	0.000000	0.001639	0.001767	28.0995	0.115196	0.002038	56.5123	-91.983	-164.125	-0.012004	0.641381	-0.536622	-0.537931	-0.012409	56.5123	-0.536458	-1.102096E+7	1.125918E-9	NaN
39	1.000000	0.652651	7.36542e+06	-40589.1	955.818	-29790	0.000000	0.000000	6.652990	0.052991	NaN	0.000000	0.001619	0.001759	28.1307	0.064021	0.001994	32.1023	40.0628	14.5253	0.044764	0.651285	-0.526661	-0.528028	0.052991	32.1023	-0.527899	-8.38287e+06	-6.321388E-9	NaN
39	1.000000	0.662683	7.36542e+06	-40589.1	955.818	-29790	0.000000	0.000000	6.663019	-0.022872	NaN	0.000000	0.001626	0.001796	28.0959	0.029213	0.001957	14.9235	-115.221	-164.83	0.013607	0.661366	-0.516629	-0.517946	-0.022872	14.9235	-0.515480	-5.63265e+06	4.060583E-9	NaN
39	1.000000	0.672700	7.36542e+06	-40589.1	955.818	-29790	0.000000	0.000000	6.673037	-0.006514	NaN	0.000000	0.001615	0.001810	28.0793	0.067421	0.001973	34.174	58.4588	11.0557	0.070835	0.671329	-0.506612	-0.507983	-0.006514	34.174	-0.506469	-4.21916e+06	1.543863E-9	NaN
39	1.000000	0.682696	7.36542e+06	-40589.1	955.819	-29790	0.000000	0.000000	6.683032	-0.028055	NaN	0.000000	0.001636	0.001747	28.0972	0.058168	0.002091	27.8199	-172.847	-163.628	-0.019635	0.681361	-0.496616	-0.497951	-0.028055	27.8199	-0.495860	-3.0008e+06	9.349172E-9	NaN
39	1.000000	0.692680	7.36542e+06	-40589.1	955.818	-29790	0.000000	0.000000	6.693015	-0.042958	NaN	0.000000	0.001641	0.001771	28.131	0.089248	0.002069	43.1373	-156.634	12.9821	-0.059357	0.691304	-0.486633	-0.488009	-0.042958	43.1373	-0.485886	-2.1771e+06	1.973154E-8	NaN
39	1.000000	0.702673	7.36542e+06	-40589.1	955.819	-29790	0.000000	0.000000	6.703012	0.050794	NaN	0.000000	0.001643	0.001720	28.0961	0.018933	0.001923	9.848279	-136.647	-164.169	0.028220	0.701398	-0.476639	-0.477914	0.050794	9.848279	-0.480507	-1.83074e+06	-2.774527E-8	NaN
39	1.000000	0.712702	7.36542e+06	-40589.1	955.818	-29790	0.000000	0.000000	6.713039	-0.002965	NaN	0.000000	0.001662	0.001754	28.0794	0.077047	0.002053	37.528	-8.725557	12.4342	0.045671	0.711373	-0.466610	-0.467940	-0.002965	37.528	-0.466551	-1.16685e+06	2.540968E-9	NaN
39	1.000000	0.722709	7.36542e+06	-40589.1	955.818	-29790	0.000000	0.000000	6.723049	0.052606	NaN	0.000000	0.001654	0.001730	28.1004	0.013666	0.002021	6.761303	121.855	-165.295	0.036350	0.721390	-0.456603	-0.457923	0.052606	6.761303	-0.462438	-1.02158e+06	-5.149507E-8	NaN
39	1.000000	0.732722	7.36542e+06	-40589.1	955.817	-29790	0.000000	0.000000	6.733055	-0.115327	NaN	0.000000	0.001656	0.001784	28.1321	0.058141	0.002057	28.2673	57.2291	12.8725	-0.006012	0.731348	-0.446590	-0.447964	-0.115327	28.2673	-0.443530	-553557	2.083387E-7	NaN
39	1.000000	0.742712	7.36542e+06	-40589.1	955.817	-29790	0.000000	0.000000	6.743050	0.026977	NaN	0.000000	0.001640	0.001748	28.0972	0.053960	0.001954	27.6155	24.9497	-162.463	0.021724	0.741415	-0.436600	-0.437897	0.026977	27.6155	-0.437333	-452592	-5.960583E-8	NaN
39	1.000000	0.752721	7.36542e+06	-40589.1	955.819	-29790	0.000000	0.000000	6.753058	-0.004148	NaN	0.000000	0.001638	0.001774	28.081	0.112080	0.001968	56.9497	102.535	17.022	-0.067274	0.751383	-0.426591	-0.427929	-0.004148	56.9497	-0.426536	-318450	1.302405E-8	NaN
39	1.000000	0.762698	7.36542e+06	-40589.1	955.817	-29790	0.000000	0.000000	6.763033	-0.037320	NaN	0.000000	0.001627	0.001799	28.0985	0.076606	0.001917	39.9661	-128.75	-167.17	-0.056580	0.761378	-0.416614	-0.417934	-0.037320	39.9661	-0.415914	-225130	1.657721E-7	NaN
39	1.000000	0.772708	7.36542e+06	-40589.1	955.818	-29790	0.000000	0.000000	6.773045	-0.005967	NaN	0.000000	0.001636	0.001739	28.131	0.069906	0.001978	35.3423	-175.16	15.4978	-0.034555	0.771371	-0.406604	-0.407942	-0.005967	35.3423	-0.406477	-165304	3.609478E-8	NaN
39	1.000000	0.782689	7.36542e+06	-40589.1	955.819	-29790	0.000000	0.000000	6.783026	0.008806	NaN	0.000000	0.001634	0.001758	28.0971	0.098922	0.002082	47.5135	-129.729	-163.735	-0.016295	0.781411	-0.396624	-0.397901	0.008806	47.5135	-0.396763	-120172	-7.327737E-8	NaN
39	1.000000	0.792747	7.36542e+06	-40589.1	955.818	-29790	0.000000	0.000000	6.793081	-0.071166	NaN	0.000000	0.001588	0.001765	28.0796	0.075063	0.002045	36.7107	90.3407	13.5272	-0.035683	0.791385	-0.386565	-0.387927	-0.071166	36.7107	-0.385111	-81880.8	8.691421E-7	NaN
39	1.000000	0.802733	7.36542e+06	-40589.1	955.818	-29790	0.000000	0.000000	6.803068	-0.035787	NaN	0.000000	0.001597	0.001763	28.1005	0.036522	0.001996	18.2969	-63.5998	-166.976	-0.056421	0.801429	-0.376579	-0.377883	-0.035787	18.2969	-0.375113	-58842.3	6.081776E-7	NaN
39	1.000000	0.812763	7.36542e+06	-40589.1	955.819	-29790	0.000000	0.000000	6.813099	-0.016649	NaN	0.000000	0.001623	0.001780	28.132	0.037497	0.001998	18.7647	-6.751064	14.5904	-0.065924	0.811342	-0.366550	-0.367970	-0.016649	18.7647	-0.365884	-43332.1	3.842140E-7	NaN
39	1.000000	0.822758	7.36542e+06	-40589.1	955.82	-29790	0.000000	0.000000	6.823098	0.062592	NaN	0.000000	0.001670	0.001784	28.0966	0.031863	0.001906	16.7138	-9.801233	-167.934	0.039379	0.821438	-0.356554	-0.357874	0.062592	16.7138	-0.359363	-34884.5	-1.794271E-6	NaN
39	1.000000	0.832757	7.36542e+06	-40589.1	955.818	-29790	0.000000	0.000000	6.833091	-0.078666	NaN	0.000000	0.001635	0.001762	28.0791	0.029806	0.001979	15.0586	-4.609431	15.8062	0.016456	0.831415	-0.346555	-0.347897	-0.078666	15.0586	-0.342637	-19951.1	3.942957E-6	NaN
39	1.000000	0.842745	7.36542e+06	-40589.1	955.818	-29790	0.000000	0.000000	6.843079	-0.062214	NaN	0.000000	0.001635	0.001794	28.0965	0.017498	0.001996	8.765620	129.376	-166.238	-0.099851	0.841459	-0.336567	-0.337853	-0.062214	8.765620	-0.331244	-13604	4.573198E-6	NaN
39	1.000000	0.852743	7.36542e+06	-40589.1	955.818	-29790	0.000000	0.000000	6.853081	0.022939	NaN	0.000000	0.001610	0.001748	28.1296	0.130985	0.001856	70.5837	-144.105	14.898	0.062676	0.851395	-0.326570	-0.327917	0.022939	70.5837	-0.326813	-11715.1	-1.958109E-6	NaN
39	1.000000	0.862760	7.36542e+06	-40589.1	955.819	-29790	0.000000	0.000000	6.863097	0.003815	NaN	0.000000	0.001633	0.001735	28.0957	0.055114	0.001888	29.1877	89.1497	-167.75	0.029605	0.861455	-0.316553	-0.317857	0.003815	29.1877	-0.316651	-8304.2	-4.594251E-7	NaN
39	1.000000	0.872747	7.36542e+06	-40589.1	955.818	-29790	0.000000	0.000000	6.873087	0.073754	NaN	0.000000	0.001635	0.001751	28.0782	0.060450	0.002013	30.0277	-122.107	12.6293	0.056808	0.871380	-0.306565	-0.307932	0.073754	30.0277	-0.308408	-6273.07	-1.175719E-5	NaN
39	1.000000	0.882784	7.36542e+06	-40589.1	955.819	-29790	0.000000	0.000000	6.883123	0.055819	NaN	0.000000	0.001676	0.001772	28.0974	0.010895	0.002051	5.312999	-153.022	-168.245	0.072099	0.881515	-0.296528	-0.297797	0.055819	5.312999	-0.304408	-5472.25	-1.020036E-5	NaN
39	1.000000	0.892767	7.36542e+06	-40589.1	955.818	-29790	0.000000	0.000000	6.893107	0.069801	NaN	0.000000	0.001631	0.001774	28.1306	0.030546	0.001925	15.8704	35.6417	9.283932	0.024887	0.891461	-0.286545	-0.287851	0.069801	15.8704	-0.289844	-3318.65	-2.103300E-5	NaN
39	1.000000	0.902779	7.36542e+06	-40589.1	955.818	-29790	0.000000	0.000000	6.903117	0.028839	NaN	0.000000	0.001628	0.001776	28.097	0.044531	0.001952	22.8084	-160.194	-165.56	0.086125	0.901392	-0.276534	-0.277920	0.028839	22.8084	-0.277482	-2162.46	-1.333644E-5	NaN
39	1.000000	0.912748	7.36542e+06	-40589.1	955.818	-29790	0.000000	0.000000	6.913087	0.052261	NaN	0.000000	0.001656	0.001802	28.08	0.090335	0.001913	47.2238	-32.1853	15.0527	0.053631	0.911425	-0.266564	-0.267887	0.052261	47.2238	-0.267394	-1520.16	-3.437883E-5	NaN
39	1.000000	0.922775	7.36542e+06	-40589.1	955.818	-29790	0.000000	0.000000	6.923109	-0.075839	NaN	0.000000	0.001636	0.001774	28.0967	0.035475	0.001915	18.5244	144.944	-164.58	-0.084264	0.921483	-0.256537	-0.257830	-0.075839	18.5244	-0.253467	-930.021	8.154584E-5	NaN
39	1.000000	0.932798	7.36543e+06	-40589.1	955.819	-29790	0.000000	0.000000	6.933134	-0.015509	NaN	0.000000	0.001614	0.001779	28.1301	0.093234	0.001955	47.7008	-125.576	18.4284	0.069374	0.931446	-0.246514	-0.247866	-0.015509	47.7008	-0.246270	-719.75	2.154722E-5	NaN
39	1.000000	0.942797	7.36543e+06	-40589.1	955.819	-29790	0.000000	0.000000	6.943133	-0.007185	NaN	0.000000	0.001592	0.001791	28.0962	0.129944	0.001904	68.2494	151.704	-165.335	-0.024212	0.941458	-0.236516	-0.237855	-0.007185	68.2494	-0.236437	-505.579	1.421209E-5	NaN
39	1.000000	0.952804	7.36543e+06	-40589.1	955.818	-29790	0.000000	0.000000	6.953141	-0.000782	NaN	0.000000	0.001577	0.001782	28.0782	0.061585	0.001852	33.2516	167.111	15.8377	-0.134056	0.951408	-0.226508	-0.227904	-0.000782	33.2516	-0.226490	-352.357	2.220293E-6	NaN
39	1.000000	0.962787	7.36543e+06	-40589.1	955.819	-29790	0.000000	0.000000	6.963121	-0.079008	NaN	0.000000	0.001621	0.001760	28.0982	0.057475	0.002053	27.9938	126.136	-166.186	-0.096496	0.961476	-0.216525	-0.217836	-0.079008	27.9938	-0.214408	-225.939	0.000350	NaN
39	1.000000	0.972775	7.36543e+06	-40589.1	955.819	-29790	0.000000	0.000000	6.973111	-0.021274	NaN	0.000000	0.001572	0.001781	28.1326	0.092679	0.002034	45.5727	134.794	10.2569	-0.010513	0.971354	-0.206537	-0.207959	-0.021274	45.5727	-0.206187	-166.305	0.000128	NaN
39	1.000000	0.982813	7.36543e+06	-40589.1	955.819	-29790	0.000000	0.000000	6.983150	0.006006	NaN	0.000000	0.001627	0.001790	28.098	0.060729	0.001953	31.099	3.416263	-167.952	0.062416	0.981485	-0.196500	-0.197827	0.006006	31.099	-0.196644	-115.986	-5.178292E-5	NaN
39	1.000000	0.992798	7.36543e+06	-40589.1	955.82	-29790	0.000000	0.000000	6.993136	0.016580	NaN	0.000000	0.001599	0.001768	28.0818	0.056731	0.001968	28.8217	84.7549	13.2037	0.027622	0.991506	-0.186514	-0.187806	0.016580	28.8217	-0.186945	-79.9576	-0.000207	NaN
39	1.000000	1.002803	7.36543e+06	-40589.1	955.819	-29790	0.000000	0.000000	7.003139	-0.020240	NaN	0.000000	0.001589	0.001766	28.0977	0.167477	0.001934	86.61	66.0382	-166.124	-0.041198	1.001528	-0.176509	-0.177784	-0.020240	86.61	-0.176334	-52.8288	0.000383	NaN
39	1.000000	1.012825	7.36543e+06	-40589.1	955.82	-29790	0.000000	0.000000	7.013164	0.058059	NaN	0.000000	0.001587	0.001754	28.1314	0.093306	0.002000	46.6436	159.448	15.6869	0.015668	1.011456	-0.166487	-0.167857	0.058059	46.6436	-0.167421	-37.0425	-0.001567	NaN
39	1.000000	1.022807	7.36543e+06	-40589.1	955.82	-29790	0.000000	0.000000	7.023145	0.012005	NaN	0.000000	0.001609	0.001789	28.0973	0.052922	0.002007	26.3629	129.757	-166.751	-0.008936	1.021542	-0.156505	-0.157770	0.012005	26.3629	-0.156847	-24.0841	-0.000498	NaN
39	1.000000	1.032819	7.36543e+06	-40589.1	955.82	-29790	0.000000	0.000000	7.033157	0.034981	NaN	0.000000	0.001600	0.001730	28.0805	0.021413	0.002083	10.279	31.3447	16.22	0.016386	1.031492	-0.146493	-0.147820	0.034981	10.279	-0.149046	-17.4012	-0.002010	NaN
39	1.000000	1.042816	7.36543e+06	-40589.1	955.819	-29790	0.000000	0.000000	7.043150	-0.060721	NaN	0.000000	0.001607	0.001764	28.0989	0.027228	0.001872	14.5472	-122.839	-166.139	-0.010878	1.041546	-0.136497	-0.137766	-0.060721	14.5472	-0.133366	-8.851330	0.006860	NaN
39	1.000000	1.052819	7.36543e+06	-40589.1	955.82	-29790	0.000000	0.000000	7.053155	-0.033883	NaN	0.000000	0.001638	0.001756	28.1321	0.080721	0.002049	39.3897	70.2046	14.3152	0.033827	1.051439	-0.126493	-0.127873	-0.033883	39.3897	-0.125848	-6.320470	0.005361	NaN
39	1.000000	1.062834	7.36543e+06	-40589.1	955.818	-29790	0.000000	0.000000	7.063169	-0.038845	NaN	0.000000	0.001602	0.001758	28.0987	0.092969	0.002032	45.759	-118.231	-166.134	-0.058298	1.061543	-0.116478	-0.117769	-0.038845	45.759	-0.115842	-3.975825	0.009770	NaN
39	1.000000	1.072841	7.36543e+06	-40589.1	955.818	-29790	0.000000	0.000000	7.073178	-0.007834	NaN	0.000000	0.001609	0.001756	28.08	0.070553	0.002001	35.2571	-154.364	15.3525	-0.080127	1.071470	-0.106471	-0.107842	-0.007834	35.2571	-0.106304	-2.507583	0.003124	NaN
39	1.000000	1.082862	7.36543e+06	-40589.1	955.818	-29790	0.000000	0.000000	7.083200	0.013999	NaN	0.000000	0.001609	0.001743	28.0963	0.089444	0.002038	43.8825	161.008	-166.076	-0.017859	1.081531	-0.096450	-0.097781	0.013999	43.8825	-0.096689	-1.540710	-0.009086	NaN
39	1.000000	1.092832	7.36543e+06	-40589.1	955.818	-29790	0.000000	0.000000	7.093169	-0.001886	NaN	0.000000	0.001596	0.001717	28.1309	0.023080	0.002049	11.2624	-94.7213	11.926	-0.008984	1.091477	-0.086481	-0.087835	-0.001886	11.2624	-0.086355	-0.885791	0.002129	NaN
39	1.000000	1.102854	7.36543e+06	-40589.1	955.817	-29790	0.000000	0.000000	7.103190	-0.026892	NaN	0.000000	0.001596	0.001773	28.0956	0.048560	0.001978	24.5476	-125.741	-164.31	-0.058484	1.101576	-0.076458	-0.077736	-0.026892	24.5476	-0.075637	-0.479681	0.056063	NaN
39	1.000000	1.112850	7.36543e+06	-40589.1	955.818	-29790	0.000000	0.000000	7.113184	-0.082732	NaN	0.000000	0.001604	0.001715	28.079	0.101335	0.001968	51.4984	-160.602	16.2412	0.020061	1.111476	-0.066462	-0.067836	-0.082732	51.4984	-0.065257	-0.253337	0.326569	NaN
39	1.000000	1.122854	7.36543e+06	-40589.1	955.818	-29790	0.000000	0.000000	7.123188	-0.057113	NaN	0.000000	0.001584	0.001719	28.096	0.052575	0.002026	25.9533	-108.153	-165.988	-0.063957	1.121519	-0.056458	-0.057793	-0.057113	25.9533	-0.054808	-0.127105	0.449338	NaN
39	1.000000	1.132878	7.36543e+06	-40589.1	955.819	-29790	0.000000	0.000000	7.133216	0.029299	NaN	0.000000	0.001642	0.001748	28.1308	0.048678	0.002013	24.1773	-4.744230	15.9124	0.017334	1.131547	-0.046434	-0.047765	0.029299	24.1773	-0.047343	-0.075780	-0.386637	NaN
39	1.000000	1.142873	7.36543e+06	-40589.1	955.818	-29790	0.000000	0.000000	7.143211	0.013951	NaN	0.000000	0.001637	0.001715	28.098	0.041845	0.002053	20.3778	104.087	-167.994	0.016130	1.141566	-0.036439	-0.037746	0.013951	20.3778	-0.036952	-0.036596	-0.381209	NaN
39	1.000000	1.152883	7.36543e+06	-40589.1	955.819	-29790	0.000000	0.000000	7.153221	0.022557	NaN	0.000000	0.001600	0.001752	28.0798	0.025997	0.002105	12.3499	-57.3786	14.1049	0.002580	1.151475	-0.026429	-0.027838	0.022557	12.3499	-0.027799	-0.020022	-1.126585	NaN
39	1.000000	1.162888	7.36543e+06	-40589.1	955.818	-29790	0.000000	0.000000	7.163228	0.072625	NaN	0.000000	0.001573	0.001740	28.0961	0.024243	0.001942	12.485	128.715	-165.702	0.128902	1.161511	-0.016424	-0.017802	0.072625	12.485	-0.020787	-0.013153	-5.521609	NaN
39	1.000000	1.172883	7.36543e+06	-40589.1	955.819	-29790	0.000000	0.000000	7.173227	0.160128	NaN	0.000000	0.001588	0.001774	28.1297	0.300093	0.001957	153.361	5.617080	12.4509	0.008870	1.171538	-0.006429	-0.007774	0.160128	153.361	-0.007212	-0.004767	-33.5926	NaN
39	1.000000	1.182864	7.36543e+06	-40589.1	955.819	-29790	0.000000	0.000000	7.183349	3.606226	NaN	0.000000	0.001599	0.001787	28.0968	1.704067	0.002025	841.665	10.2934	-166.223	3.030902	1.181510	0.003552	0.002198	3.606226	841.665	0.000338	0.000254	14171.8	48205.8
39	2.000000	1.189925	7.36543e+06	-40589.1	955.819	-29790	0.000000	0.000000	7.190613	8.542998	NaN	0.000000	0.001615	0.001812	28.079	7.628087	0.001721	4431.77	3.948123	12.0454	8.278255	1.189607	0.010612	0.010295	8.542998	4431.77	0.009167	0.008270	1033	44524.2
39	2.000000	1.192413	7.36543e+06	-40589.1	955.819	-29790	0.000000	0.000000	7.193140	9.486796	NaN	0.000000	0.001581	0.001745	28.0967	9.678768	0.001765	5483.53	1.368160	-167.319	9.305430	1.192180	0.013100	0.012868	9.486796	5483.53	0.011803	0.011255	842.911	47224.2
39	2.000000	1.194913	7.36543e+06	-40589.1	955.818	-29790	0.000000	0.000000	7.195771	12.6787	NaN	0.000000	0.001616	0.001771	28.1308	12.6127	0.001760	7164.78	6.004928	7.184178	12.2824	1.194520	0.015601	0.015207	12.6787	7164.78	0.014274	0.014329	884.835	54685.1
39	2.000000	1.197364	7.36543e+06	-40589.1	955.818	-29790	0.000000	0.000000	7.198468	18.6599	NaN	0.000000	0.001590	0.001791	28.0982	15.8827	0.001889	8406.9	6.990159	-174.226	18.6013	1.197061	0.018052	0.017749	18.6599	8406.9	0.016387	0.017180	1086.17	58600.8
39	2.000000	1.199871	7.36543e+06	-40589.1	955.819	-29790	0.000000	0.000000	7.201194	23.98	NaN	0.000000	0.001595	0.001770	28.0802	17.9812	0.001732	10380.3	1.314891	8.016698	23.2322	1.199540	0.020559	0.020228	23.98	10380.3	0.018826	0.020731	1156.7	65867.3
39	2.000000	1.202347	7.36543e+06	-40589.1	955.818	-29790	0.000000	0.000000	7.203908	29.7684	NaN	0.000000	0.001678	0.001785	28.0965	21.5226	0.001770	12159.9	8.656900	178.65	29.5642	1.202069	0.023035	0.022757	29.7684	12159.9	0.021199	0.024462	1216.94	71032.6
39	2.000000	1.204853	7.36543e+06	-40589.1	955.819	-29790	0.000000	0.000000	7.206745	37.8364	NaN	0.000000	0.001636	0.001743	28.1309	23.7209	0.001785	13288.7	7.677227	-0.563804	36.2887	1.204474	0.025541	0.025161	37.8364	13288.7	0.023405	0.028178	1342.75	72326.6
39	2.000000	1.207284	7.36543e+06	-40589.1	955.819	-29790	0.000000	0.000000	7.209404	43.39	NaN	0.000000	0.001574	0.001728	28.0979	26.1647	0.001841	14213.1	4.968166	-178.743	40.7933	1.206954	0.027972	0.027642	43.39	14213.1	0.025682	0.032268	1344.67	72289.6
39	2.000000	1.209776	7.36543e+06	-40589.1	955.819	-29790	0.000000	0.000000	7.212475	57.4719	NaN	0.000000	0.001603	0.001740	28.0793	27.5349	0.001642	16767.7	7.122524	-2.255216	54.5135	1.209447	0.030464	0.030134	57.4719	16767.7	0.027893	0.036490	1575	80197
39	2.000000	1.212273	7.36543e+06	-40589.1	955.82	-29790	0.000000	0.000000	7.215334	66.2802	NaN	0.000000	0.001588	0.001771	28.0965	30.2635	0.001685	17962.1	1.818348	-178.065	63.7507	1.212020	0.032960	0.032708	66.2802	17962.1	0.030193	0.041145	1610.91	80904.6
39	2.000000	1.214829	7.36543e+06	-40589.1	955.819	-29790	0.000000	0.000000	7.218229	74.5413	NaN	0.000000	0.001570	0.001723	28.1322	32.2295	0.001718	18765.3	1.106090	2.111777	72.3776	1.214504	0.035517	0.035192	74.5413	18765.3	0.032538	0.046168	1614.58	79792.1
39	2.000000	1.217293	7.36543e+06	-40589.1	955.819	-29790	0.000000	0.000000	7.220900	79.5601	NaN	0.000000	0.001585	0.001730	28.0994	35.6829	0.001853	19253.7	6.043897	178.526	78.844	1.216991	0.037981	0.037679	79.5601	19253.7	0.034882	0.051471	1545.73	77536.4
39	2.000000	1.219833	7.36543e+06	-40589.1	955.819	-29790	0.000000	0.000000	7.223983	92.7938	NaN	0.000000	0.001562	0.001747	28.0809	38.1879	0.001814	21049.5	4.214179	-1.045720	93.1801	1.219447	0.040521	0.040134	92.7938	21049.5	0.037214	0.057027	1627.18	80532.7
39	2.000000	1.222306	7.36543e+06	-40589.1	955.82	-29790	0.000000	0.000000	7.227073	107.79	NaN	0.000000	0.001620	0.001740	28.0963	41.1728	0.001971	20884.9	5.670921	178.126	107.971	1.221956	0.042994	0.042644	107.79	20884.9	0.039123	0.061782	1744.68	76767
39	2.000000	1.224771	7.36543e+06	-40589.1	955.819	-29790	0.000000	0.000000	7.229925	117.219	NaN	0.000000	0.001608	0.001769	28.131	43.1607	0.001849	23341.1	7.421723	-5.737888	113.404	1.224425	0.045459	0.045113	117.219	23341.1	0.041692	0.068475	1711.85	81494.5
39	2.000000	1.227346	7.36543e+06	-40589.1	955.82	-29790	0.000000	0.000000	7.233035	130.249	NaN	0.000000	0.001604	0.001740	28.0991	44.3546	0.001822	24345.2	2.612799	179.47	132.65	1.226946	0.048033	0.047634	130.249	24345.2	0.044021	0.074832	1740.55	81310
39	2.000000	1.229798	7.36543e+06	-40589.1	955.819	-29790	0.000000	0.000000	7.236037	143.619	NaN	0.000000	0.001619	0.001754	28.081	47.3017	0.001748	27068.1	5.086918	-4.393782	142.507	1.229401	0.050486	0.050089	143.619	27068.1	0.046506	0.081921	1753.14	86403.7
39	2.000000	1.232257	7.36543e+06	-40589.1	955.819	-29790	0.000000	0.000000	7.238718	149.003	NaN	0.000000	0.001576	0.001745	28.0972	50.3337	0.001923	26176.2	2.645882	177.641	147.376	1.232039	0.052945	0.052727	149.003	26176.2	0.048676	0.088365	1686.23	80452.9
39	2.000000	1.234765	7.36543e+06	-40589.1	955.819	-29790	0.000000	0.000000	7.242073	169.635	NaN	0.000000	0.001611	0.001767	28.1308	51.9384	0.001736	29916.9	6.773404	-7.259540	166.659	1.234450	0.055453	0.055138	169.635	29916.9	0.051200	0.096159	1764.12	88144.7
39	2.000000	1.237269	7.36543e+06	-40589.1	955.818	-29790	0.000000	0.000000	7.244931	178.235	NaN	0.000000	0.001601	0.001781	28.0993	53.2162	0.001810	29403.5	3.671301	175.681	176.057	1.237077	0.057957	0.057765	178.235	29403.5	0.053411	0.103246	1726.32	83605.8
39	2.000000	1.239700	7.36543e+06	-40589.1	955.818	-29790	0.000000	0.000000	7.248114	196.543	NaN	0.000000	0.001635	0.001779	28.0801	54.1397	0.001731	31283.8	-1.703488	1.373722	191.596	1.239398	0.060387	0.060085	196.543	31283.8	0.055676	0.110760	1774.5	85881.9
39	2.000000	1.242191	7.36543e+06	-40589.1	955.818	-29790	0.000000	0.000000	7.251185	210.656	NaN	0.000000	0.001557	0.001754	28.0943	58.2646	0.001876	31060.7	4.551267	175.222	206.665	1.241900	0.062878	0.062588	210.656	31060.7	0.057792	0.118009	1785.08	82608.7
39	2.000000	1.244678	7.36543e+06	-40589.1	955.817	-29790	0.000000	0.000000	7.254275	225.328	NaN	0.000000	0.001573	0.001713	28.1299	60.2207	0.001783	33780.6	7.486013	-8.526018	219.411	1.244366	0.065366	0.065054	225.328	33780.6	0.060363	0.127113	1772.65	86565.5
39	2.000000	1.247196	7.36543e+06	-40589.1	955.818	-29790	0.000000	0.000000	7.257405	240.22	NaN	0.000000	0.001569	0.001734	28.0978	61.8549	0.001888	32756	3.819237	175.626	236.129	1.246908	0.067884	0.067596	240.22	32756	0.062384	0.134495	1786.09	81603.9
39	2.000000	1.249798	7.36543e+06	-40589.1	955.819	-29790	0.000000	0.000000	7.260631	255.404	NaN	0.000000	0.001579	0.001776	28.0787	63.9617	0.001873	34156.6	5.286375	-5.669040	256.833	1.249329	0.070486	0.070017	255.404	34156.6	0.064878	0.143878	1775.15	82271.8
39	2.000000	1.252281	7.36543e+06	-40589.1	955.82	-29790	0.000000	0.000000	7.263748	270.818	NaN	0.000000	0.001598	0.001783	28.0951	65.6403	0.001777	36945.7	2.942417	175.062	269.841	1.251900	0.072969	0.072587	270.818	36945.7	0.067471	0.153954	1759.08	86028.3
39	2.000000	1.254779	7.36543e+06	-40589.1	955.819	-29790	0.000000	0.000000	7.267075	291.018	NaN	0.000000	0.001590	0.001799	28.1306	66.1765	0.001715	38596.7	-0.344167	-1.254267	289.216	1.254383	0.075466	0.075070	291.018	38596.7	0.069811	0.163321	1781.88	87257.3
39	2.000000	1.257289	7.36543e+06	-40589.1	955.819	-29790	0.000000	0.000000	7.270232	306.751	NaN	0.000000	0.001563	0.001754	28.0986	69.7891	0.001708	40852	4.897747	172.289	306.705	1.256958	0.077977	0.077645	306.751	40852	0.072345	0.173759	1765.38	89539.3
39	2.000000	1.259801	7.36543e+06	-40589.1	955.82	-29790	0.000000	0.000000	7.273562	326.654	NaN	0.000000	0.001557	0.001712	28.0795	71.4911	0.001669	42840.8	-0.551233	-2.072140	326.624	1.259509	0.080489	0.080196	326.654	42840.8	0.074770	0.184032	1774.99	91239.9
39	2.000000	1.262300	7.36543e+06	-40589.1	955.82	-29790	0.000000	0.000000	7.276641	340.77	NaN	0.000000	0.001556	0.001728	28.0935	75.3246	0.001819	41410.3	1.864597	175.448	341.068	1.262011	0.082987	0.082699	340.77	41410.3	0.076816	0.192913	1766.44	86139.1
39	2.000000	1.264690	7.36543e+06	-40589.1	955.82	-29790	0.000000	0.000000	7.279964	363.465	NaN	0.000000	0.001582	0.001748	28.1297	77.4557	0.001822	42514.1	6.346377	-9.333289	357.571	1.264371	0.085378	0.085059	363.465	42514.1	0.078966	0.202460	1795.24	86324.9
39	2.000000	1.267188	7.36543e+06	-40589.1	955.82	-29790	0.000000	0.000000	7.283573	390.506	NaN	0.000000	0.001553	0.001763	28.0983	78.8757	0.001790	44070.7	6.516903	170.538	386.847	1.266883	0.087876	0.087571	390.506	44070.7	0.081230	0.212746	1835.56	87295.7
39	2.000000	1.269686	7.36543e+06	-40589.1	955.819	-29790	0.000000	0.000000	7.287109	415.749	NaN	0.000000	0.001579	0.001774	28.0793	82.1065	0.001827	44934.9	3.397158	-6.545305	410.079	1.269338	0.090374	0.090026	415.749	44934.9	0.083435	0.222991	1864.42	86938.7
39	2.000000	1.272262	7.36543e+06	-40589.1	955.819	-29790	0.000000	0.000000	7.290359	432.166	NaN	0.000000	0.001607	0.001743	28.0968	85.5711	0.001744	49064	8.635416	167.286	432.172	1.271890	0.092950	0.092578	432.166	49064	0.086344	0.236854	1824.61	92107.8
39	2.000000	1.274805	7.36543e+06	-40589.1	955.82	-29790	0.000000	0.000000	7.293917	456.872	NaN	0.000000	0.001606	0.001691	28.1318	87.3472	0.001890	46205.1	5.854123	-8.987640	456.111	1.274391	0.095493	0.095079	456.872	46205.1	0.088077	0.245297	1862.52	85234.7
39	2.000000	1.277213	7.36543e+06	-40589.1	955.82	-29790	0.000000	0.000000	7.297140	476.682	NaN	0.000000	0.001589	0.001701	28.1004	89.5011	0.001884	47509.5	4.397851	172.277	475.6	1.276981	0.097901	0.097669	476.682	47509.5	0.090376	0.256713	1856.87	85670.1
39	2.000000	1.279643	7.36543e+06	-40589.1	955.819	-29790	0.000000	0.000000	7.300434	497.714	NaN	0.000000	0.001577	0.001711	28.0809	92.0351	0.001906	48291.7	5.959224	-9.842731	490.361	1.279324	0.100331	0.100012	497.714	48291.7	0.092601	0.267992	1857.2	85228.5
39	2.000000	1.282190	7.36543e+06	-40589.1	955.82	-29790	0.000000	0.000000	7.304144	526	NaN	0.000000	0.001615	0.001684	28.0954	93.5608	0.001767	52951.1	4.663704	170.946	522.022	1.281827	0.102878	0.102515	526	52951.1	0.095428	0.282646	1860.99	90997.1
39	2.000000	1.284731	7.36543e+06	-40589.1	955.821	-29790	0.000000	0.000000	7.307763	552.255	NaN	0.000000	0.001621	0.001761	28.1308	95.1311	0.001858	51196.6	2.471475	-5.674690	548.305	1.284349	0.105419	0.105037	552.255	51196.6	0.097328	0.292703	1886.74	86457
39	2.000000	1.287214	7.36543e+06	-40589.1	955.819	-29790	0.000000	0.000000	7.311106	573.175	NaN	0.000000	0.001565	0.001750	28.1006	97.594	0.001730	56407.9	3.956560	171.563	570.547	1.286850	0.107901	0.107538	573.175	56407.9	0.100280	0.308651	1857.03	92764