File: remote_trans/data/nanoindenter/0828-1/data/Data_2025-08-06,11h17m57s/2025-07-22_16-23-58_1_377.txt
2025-07-22, 16:23:58, 1
Index	Phase	Displacement	Time	Pos X	Pos Y	Pos Z	Rot A	Rot B	Piezo Z	Force A	Force B	Gripper	Voltage A	Voltage B	Temperature	Amplitude force	Amplitude pos	Stiffness	Phase shift	Phase excitation	Force A raw	Displacement raw	HMax	HMax raw	Real Force	Real Stiffness	Contact Depth	Area	Hardness	Reduced Mod.
[#]	[#]	[um]	[s]	[um]	[um]	[um]	[m°]	[m°]	[um]	[uN]	[uN]	[V]	[V]	[V]	[°C]	[uN]	[um]	[N/m]	[°]	[°]	[uN]	[um]	[um]	[um]	[uN]	[N/m]	[um]	[um^2]	[MPa]	[MPa]
377	1.000000	0.002298	7.36875e+06	-57489.1	955.819	-29737.2	0.000000	0.000000	6.002801	-0.027882	NaN	0.000000	0.001608	0.001720	28.0805	0.108236	0.000981	110.306	-84.6685	-164.934	0.062767	0.001063	-1.022392	-1.023627	-0.027882	110.306	-1.022203	-4.514270E+13	6.176489E-16	NaN
377	1.000000	0.010259	7.36875e+06	-57489.1	955.819	-29737.2	0.000000	0.000000	6.010761	-0.063012	NaN	0.000000	0.001594	0.001720	28.0805	0.042256	0.000980	43.1379	28.8563	-163.339	-0.002610	0.008939	-1.014431	-1.015752	-0.063012	43.1379	-1.013336	-3.429854E+13	1.837157E-15	NaN
377	1.000000	0.018237	7.36875e+06	-57489.1	955.819	-29737.2	0.000000	0.000000	6.018745	0.105439	NaN	0.000000	0.001579	0.001704	28.0805	0.035665	0.001677	21.2643	-174.079	-162.074	0.026084	0.016938	-1.006454	-1.007753	0.105439	21.2643	-1.010173	-3.109601E+13	-3.390748E-15	NaN
377	1.000000	0.026271	7.36875e+06	-57489.1	955.819	-29737.2	0.000000	0.000000	6.026776	-0.001198	NaN	0.000000	0.001556	0.001672	28.0791	0.053800	0.001965	27.3812	89.6558	-165.099	0.046193	0.024924	-0.998419	-0.999766	-0.001198	27.3812	-0.998386	-2.157945E+13	5.553127E-17	NaN
377	1.000000	0.034279	7.36875e+06	-57489.1	955.82	-29737.2	0.000000	0.000000	6.034786	0.048333	NaN	0.000000	0.001607	0.001689	28.0794	0.034354	0.001913	17.9565	-9.140877	-167.072	0.052999	0.032874	-0.990411	-0.991816	0.048333	17.9565	-0.992430	-1.794053E+13	-2.694092E-15	NaN
377	1.000000	0.042263	7.36875e+06	-57489.1	955.819	-29737.2	0.000000	0.000000	6.042767	-0.001989	NaN	0.000000	0.001589	0.001699	28.0794	0.046033	0.001940	23.7256	-40.2003	-165.503	-0.023638	0.040904	-0.982428	-0.983787	-0.001989	23.7256	-0.982365	-1.313014E+13	1.514867E-16	NaN
377	1.000000	0.050311	7.36875e+06	-57489.1	955.818	-29737.2	0.000000	0.000000	6.050814	-0.029484	NaN	0.000000	0.001609	0.001669	28.0794	0.042076	0.001899	22.1514	-124.976	-165.25	0.018601	0.048910	-0.974380	-0.975780	-0.029484	22.1514	-0.973381	-9.936491E+12	2.967227E-15	NaN
377	1.000000	0.058241	7.36875e+06	-57489.1	955.818	-29737.2	0.000000	0.000000	6.058748	0.045792	NaN	0.000000	0.001606	0.001690	28.0794	0.092941	0.001936	48.0159	-116.235	-167.257	0.056005	0.056963	-0.966449	-0.967727	0.045792	48.0159	-0.967164	-8.193021E+12	-5.589148E-15	NaN
377	1.000000	0.066239	7.36875e+06	-57489.1	955.819	-29737.2	0.000000	0.000000	6.066745	0.056474	NaN	0.000000	0.001602	0.001707	28.0791	0.051012	0.001871	27.2597	-64.5845	-163.965	0.068470	0.064962	-0.958452	-0.959729	0.056474	27.2597	-0.960006	-6.560639E+12	-8.607972E-15	NaN
377	1.000000	0.074251	7.36875e+06	-57489.1	955.818	-29737.2	0.000000	0.000000	6.074756	0.014743	NaN	0.000000	0.001584	0.001698	28.0794	0.095995	0.002001	47.9656	38.6059	-168.288	0.063098	0.072937	-0.950440	-0.951753	0.014743	47.9656	-0.950670	-4.909812E+12	-3.002822E-15	NaN
377	1.000000	0.082259	7.36875e+06	-57489.1	955.818	-29737.2	0.000000	0.000000	6.082764	0.019558	NaN	0.000000	0.001621	0.001660	28.0793	0.036423	0.002015	18.0727	27.5872	-168.599	-0.017718	0.080970	-0.942431	-0.943720	0.019558	18.0727	-0.943243	-3.898415E+12	-5.016807E-15	NaN
377	1.000000	0.090244	7.36875e+06	-57489.1	955.819	-29737.2	0.000000	0.000000	6.090751	0.046829	NaN	0.000000	0.001632	0.001666	28.0793	0.144717	0.002122	68.2096	-84.5297	-166.377	-0.020272	0.088954	-0.934446	-0.935736	0.046829	68.2096	-0.934961	-3.014016E+12	-1.553710E-14	NaN
377	1.000000	0.098265	7.36875e+06	-57489.1	955.819	-29737.2	0.000000	0.000000	6.098768	-0.022946	NaN	0.000000	0.001708	0.001675	28.0792	0.061290	0.002065	29.6874	61.0728	-165.571	-0.061996	0.096974	-0.926425	-0.927716	-0.022946	29.6874	-0.925846	-2.270514E+12	1.010630E-14	NaN
377	1.000000	0.106282	7.36875e+06	-57489.1	955.819	-29737.2	0.000000	0.000000	6.106787	0.001567	NaN	0.000000	0.001696	0.001685	28.0792	0.033082	0.002206	14.9951	-46.3808	-163.091	0.075481	0.104968	-0.918408	-0.919723	0.001567	14.9951	-0.918486	-1.806217E+12	-8.678265E-16	NaN
377	1.000000	0.114279	7.36875e+06	-57489.1	955.818	-29737.2	0.000000	0.000000	6.114786	0.066091	NaN	0.000000	0.001675	0.001692	28.0792	0.116913	0.002232	52.3887	97.6285	-166.662	0.026945	0.112935	-0.910412	-0.911755	0.066091	52.3887	-0.911358	-1.447122E+12	-4.567044E-14	NaN
377	1.000000	0.122274	7.36875e+06	-57489.1	955.819	-29737.2	0.000000	0.000000	6.122778	-0.001413	NaN	0.000000	0.001727	0.001669	28.0792	0.039231	0.002033	19.302	-108.739	-167.67	0.017266	0.120980	-0.902416	-0.903711	-0.001413	19.302	-0.902361	-1.093888E+12	1.291934E-15	NaN
377	1.000000	0.130269	7.36875e+06	-57489.1	955.819	-29737.2	0.000000	0.000000	6.130773	-0.018630	NaN	0.000000	0.001681	0.001658	28.0795	0.068269	0.002101	32.4896	77.826	-163.635	-0.021175	0.128969	-0.894421	-0.895721	-0.018630	32.4896	-0.893991	-8.430716E+11	2.209820E-14	NaN
377	1.000000	0.138276	7.36875e+06	-57489.1	955.818	-29737.2	0.000000	0.000000	6.138779	-0.033046	NaN	0.000000	0.001720	0.001637	28.0795	0.095893	0.001887	50.8225	106.647	-164.856	-0.025877	0.136984	-0.886415	-0.887706	-0.033046	50.8225	-0.885927	-6.559211E+11	5.038163E-14	NaN
377	1.000000	0.146280	7.36875e+06	-57489.1	955.818	-29737.2	0.000000	0.000000	6.146785	0.026781	NaN	0.000000	0.001691	0.001643	28.0793	0.080696	0.002035	39.6582	130.431	-167.71	0.022817	0.144988	-0.878411	-0.879703	0.026781	39.6582	-0.878917	-5.273113E+11	-5.078764E-14	NaN
377	1.000000	0.154256	7.36875e+06	-57489.1	955.818	-29737.2	0.000000	0.000000	6.154760	0.006600	NaN	0.000000	0.001702	0.001690	28.0794	0.043342	0.002047	21.1709	24.2537	-165.035	-0.038702	0.152989	-0.870435	-0.871702	0.006600	21.1709	-0.870668	-4.078381E+11	-1.618275E-14	NaN
377	1.000000	0.162274	7.36875e+06	-57489.1	955.818	-29737.2	0.000000	0.000000	6.162779	0.018408	NaN	0.000000	0.001677	0.001656	28.0807	0.042191	0.002018	20.9051	55.6275	-163.57	-0.069257	0.160938	-0.862416	-0.863753	0.018408	20.9051	-0.863076	-3.219283E+11	-5.718064E-14	NaN
377	1.000000	0.170296	7.36875e+06	-57489.1	955.819	-29737.2	0.000000	0.000000	6.170803	0.064690	NaN	0.000000	0.001697	0.001643	28.0807	0.042657	0.002111	20.2045	122.295	-167.819	0.043031	0.168982	-0.854394	-0.855708	0.064690	20.2045	-0.856795	-2.646926E+11	-2.443952E-13	NaN
377	1.000000	0.178301	7.36875e+06	-57489.1	955.819	-29737.2	0.000000	0.000000	6.178805	-0.013028	NaN	0.000000	0.001719	0.001668	28.0806	0.057465	0.002020	28.4467	-33.7941	-167.869	-0.067725	0.176976	-0.846389	-0.847715	-0.013028	28.4467	-0.846046	-1.893171E+11	6.881761E-14	NaN
377	1.000000	0.186285	7.36875e+06	-57489.1	955.819	-29737.2	0.000000	0.000000	6.186788	-0.050967	NaN	0.000000	0.001730	0.001637	28.0806	0.058590	0.001931	30.3478	-129.827	-169.786	0.027253	0.184952	-0.838405	-0.839739	-0.050967	30.3478	-0.837145	-1.434228E+11	3.553608E-13	NaN
377	1.000000	0.194307	7.36875e+06	-57489.1	955.818	-29737.2	0.000000	0.000000	6.194815	0.075849	NaN	0.000000	0.001647	0.001645	28.0807	0.046047	0.001945	23.6783	56.6021	-165.177	0.025625	0.192947	-0.830383	-0.831744	0.075849	23.6783	-0.832786	-1.251819E+11	-6.059106E-13	NaN
377	1.000000	0.202293	7.36875e+06	-57489.1	955.82	-29737.2	0.000000	0.000000	6.202798	0.031897	NaN	0.000000	0.001657	0.001644	28.0804	0.057346	0.002019	28.3987	19.1966	-167.129	0.023926	0.201020	-0.822398	-0.823671	0.031897	28.3987	-0.823240	-9.292840E+10	-3.432383E-13	NaN
377	1.000000	0.210312	7.36875e+06	-57489.1	955.819	-29737.2	0.000000	0.000000	6.210814	-0.045772	NaN	0.000000	0.001652	0.001632	28.0806	0.036768	0.002057	17.8741	-70.7239	-164.13	-0.001200	0.208967	-0.814379	-0.815724	-0.045772	17.8741	-0.812458	-6.636238E+10	6.897283E-13	NaN
377	1.000000	0.218326	7.36875e+06	-57489.1	955.819	-29737.2	0.000000	0.000000	6.218830	-0.005033	NaN	0.000000	0.001641	0.001647	28.0806	0.135712	0.001938	70.0335	-80.6916	-166.963	0.112273	0.217001	-0.806365	-0.807690	-0.005033	70.0335	-0.806311	-5.476620E+10	9.189241E-14	NaN
377	1.000000	0.226315	7.36875e+06	-57489.1	955.819	-29737.2	0.000000	0.000000	6.226817	-0.049176	NaN	0.000000	0.001623	0.001674	28.0806	0.079747	0.001979	40.2958	32.6566	-162.713	0.021261	0.225036	-0.798376	-0.799655	-0.049176	40.2958	-0.797461	-4.153255E+10	1.184032E-12	NaN
377	1.000000	0.234286	7.36875e+06	-57489.1	955.819	-29737.2	0.000000	0.000000	6.234787	-0.066231	NaN	0.000000	0.001638	0.001667	28.0803	0.086910	0.002139	40.6283	167.406	-167.814	-0.031122	0.233040	-0.790405	-0.791650	-0.066231	40.6283	-0.789182	-3.206093E+10	2.065770E-12	NaN
377	1.000000	0.242327	7.36875e+06	-57489.1	955.819	-29737.2	0.000000	0.000000	6.242833	0.041832	NaN	0.000000	0.001646	0.001675	28.0805	0.014642	0.001986	7.370924	119.91	-166.584	0.032043	0.240989	-0.782364	-0.783701	0.041832	7.370924	-0.786620	-2.959199E+10	-1.413635E-12	NaN
377	1.000000	0.250302	7.36875e+06	-57489.1	955.819	-29737.2	0.000000	0.000000	6.250808	0.039191	NaN	0.000000	0.001620	0.001709	28.0805	0.011217	0.001911	5.868931	-174.218	-163.182	0.017706	0.248987	-0.774389	-0.775704	0.039191	5.868931	-0.779397	-2.360688E+10	-1.660139E-12	NaN
377	1.000000	0.258339	7.36875e+06	-57489.1	955.818	-29737.2	0.000000	0.000000	6.258846	0.061407	NaN	0.000000	0.001623	0.001667	28.0803	0.062643	0.001950	32.1163	-120.615	-163.98	0.135197	0.257023	-0.766351	-0.767667	0.061407	32.1163	-0.767785	-1.641314E+10	-3.741326E-12	NaN
377	1.000000	0.266327	7.36875e+06	-57489.1	955.819	-29737.2	0.000000	0.000000	6.266833	0.024703	NaN	0.000000	0.001605	0.001697	28.0805	0.116656	0.001936	60.2681	-11.0181	-167.038	0.060182	0.264990	-0.758363	-0.759700	0.024703	60.2681	-0.758671	-1.233720E+10	-2.002311E-12	NaN
377	1.000000	0.274348	7.36875e+06	-57489.1	955.818	-29737.2	0.000000	0.000000	6.274851	-0.010630	NaN	0.000000	0.001586	0.001673	28.0804	0.043885	0.002036	21.5575	-63.7756	-164.367	0.055227	0.273028	-0.750343	-0.751663	-0.010630	21.5575	-0.749973	-9.394053E+9	1.131596E-12	NaN
377	1.000000	0.282331	7.36875e+06	-57489.1	955.819	-29737.2	0.000000	0.000000	6.282833	-0.049486	NaN	0.000000	0.001634	0.001697	28.0806	0.104119	0.001966	52.9549	-119.565	-165.196	0.020885	0.281000	-0.742360	-0.743690	-0.049486	52.9549	-0.741659	-7.238552E+9	6.836512E-12	NaN
377	1.000000	0.290346	7.36875e+06	-57489.1	955.819	-29737.2	0.000000	0.000000	6.290850	0.001093	NaN	0.000000	0.001636	0.001708	28.0804	0.059419	0.001895	31.3562	128.531	-166.198	0.029789	0.289009	-0.734345	-0.735681	0.001093	31.3562	-0.734371	-5.759339E+9	-1.898477E-13	NaN
377	1.000000	0.298342	7.36875e+06	-57489.1	955.819	-29737.2	0.000000	0.000000	6.298845	-0.030494	NaN	0.000000	0.001593	0.001683	28.079	0.105232	0.001898	55.4455	-71.7884	-165.815	-0.033074	0.297041	-0.726349	-0.727650	-0.030494	55.4455	-0.725936	-4.419958E+9	6.899059E-12	NaN
377	1.000000	0.306314	7.36875e+06	-57489.1	955.819	-29737.2	0.000000	0.000000	6.306817	-0.021047	NaN	0.000000	0.001598	0.001679	28.0792	0.060774	0.001923	31.6105	42.6868	-166.082	0.010693	0.304993	-0.718377	-0.719697	-0.021047	31.6105	-0.717877	-3.431787E+9	6.132909E-12	NaN
377	1.000000	0.314361	7.36875e+06	-57489.1	955.819	-29737.2	0.000000	0.000000	6.314865	-0.001962	NaN	0.000000	0.001610	0.001683	28.079	0.056532	0.002096	26.9687	-68.1147	-164.274	-0.012004	0.313047	-0.710330	-0.711643	-0.001962	26.9687	-0.710275	-2.702741E+9	7.259131E-13	NaN
377	1.000000	0.322371	7.36875e+06	-57489.1	955.818	-29737.2	0.000000	0.000000	6.322876	-0.002563	NaN	0.000000	0.001623	0.001667	28.0794	0.069469	0.002062	33.6935	102.342	-166.642	-0.029899	0.321059	-0.702319	-0.703632	-0.002563	33.6935	-0.702262	-2.100964E+9	1.220048E-12	NaN
377	1.000000	0.330356	7.36875e+06	-57489.1	955.818	-29737.2	0.000000	0.000000	6.330861	0.018619	NaN	0.000000	0.001628	0.001650	28.0793	0.135031	0.001997	67.6003	-124.49	-167.696	0.052148	0.329044	-0.694335	-0.695647	0.018619	67.6003	-0.694541	-1.648045E+9	-1.129737E-11	NaN
377	1.000000	0.338371	7.36875e+06	-57489.1	955.82	-29737.2	0.000000	0.000000	6.338875	-0.016184	NaN	0.000000	0.001624	0.001695	28.0794	0.090658	0.002076	43.6711	-147.884	-168.1	-0.115025	0.337039	-0.686319	-0.687652	-0.016184	43.6711	-0.686042	-1.261285E+9	1.283116E-11	NaN
377	1.000000	0.346375	7.36875e+06	-57489.1	955.819	-29737.2	0.000000	0.000000	6.346883	0.094824	NaN	0.000000	0.001604	0.001683	28.079	0.063055	0.002018	31.2496	-63.6824	-166.506	0.075146	0.345038	-0.678316	-0.679652	0.094824	31.2496	-0.680592	-1.062417E+9	-8.925303E-11	NaN
377	1.000000	0.354393	7.36875e+06	-57489.1	955.818	-29737.2	0.000000	0.000000	6.354900	0.055909	NaN	0.000000	0.001619	0.001643	28.0793	0.031358	0.001920	16.3347	141.236	-166.751	0.007754	0.353108	-0.670297	-0.671583	0.055909	16.3347	-0.672864	-8.328887E+8	-6.712604E-11	NaN
377	1.000000	0.362369	7.36875e+06	-57489.1	955.819	-29737.2	0.000000	0.000000	6.362874	0.018045	NaN	0.000000	0.001555	0.001674	28.0794	0.041170	0.001936	21.2627	78.8829	-169.945	-0.022036	0.361039	-0.662322	-0.663652	0.018045	21.2627	-0.662958	-6.095149E+8	-2.960598E-11	NaN
377	1.000000	0.370391	7.36875e+06	-57489.1	955.819	-29737.2	0.000000	0.000000	6.370893	-0.033162	NaN	0.000000	0.001537	0.001671	28.0793	0.030618	0.001972	15.5235	-113.373	-164.192	0.009781	0.369061	-0.654300	-0.655629	-0.033162	15.5235	-0.652698	-4.409767E+8	7.520181E-11	NaN
377	1.000000	0.378387	7.36875e+06	-57489.1	955.819	-29737.2	0.000000	0.000000	6.378892	0.017175	NaN	0.000000	0.001548	0.001692	28.0791	0.054594	0.001943	28.104	33.0009	-166.608	-0.012706	0.377083	-0.646304	-0.647607	0.017175	28.104	-0.646762	-3.656293E+8	-4.697455E-11	NaN
377	1.000000	0.386385	7.36875e+06	-57489.1	955.818	-29737.2	0.000000	0.000000	6.386892	0.065629	NaN	0.000000	0.001580	0.001624	28.0792	0.048379	0.001945	24.871	-103.439	-164.84	0.058920	0.385069	-0.638306	-0.639622	0.065629	24.871	-0.640285	-2.979882E+8	-2.202388E-10	NaN
377	1.000000	0.394371	7.36875e+06	-57489.1	955.819	-29737.2	0.000000	0.000000	6.394881	0.128543	NaN	0.000000	0.001557	0.001657	28.079	0.047655	0.002059	23.1395	-5.954639	-165.85	0.090157	0.393046	-0.630319	-0.631644	0.128543	23.1395	-0.634486	-2.480926E+8	-5.181238E-10	NaN
377	1.000000	0.402395	7.36875e+06	-57489.1	955.818	-29737.2	0.000000	0.000000	6.402900	0.009702	NaN	0.000000	0.001579	0.001673	28.0791	0.067525	0.001883	35.8535	-152.143	-166.561	0.054640	0.401030	-0.622295	-0.623661	0.009702	35.8535	-0.622498	-1.698125E+8	-5.713308E-11	NaN
377	1.000000	0.410377	7.36875e+06	-57489.1	955.818	-29737.2	0.000000	0.000000	6.410879	-0.053785	NaN	0.000000	0.001563	0.001665	28.079	0.078969	0.001908	41.387	173.846	-167.017	-0.018327	0.409082	-0.614314	-0.615609	-0.053785	41.387	-0.613339	-1.270720E+8	4.232640E-10	NaN
377	1.000000	0.418375	7.36875e+06	-57489.1	955.819	-29737.2	0.000000	0.000000	6.418880	0.017176	NaN	0.000000	0.001580	0.001656	28.0793	0.083054	0.002046	40.5972	34.099	-164.851	0.024750	0.417081	-0.606315	-0.607609	0.017176	40.5972	-0.606633	-1.027484E+8	-1.671682E-10	NaN
377	1.000000	0.426431	7.36875e+06	-57489.1	955.819	-29737.2	0.000000	0.000000	6.426936	0.007891	NaN	0.000000	0.001551	0.001668	28.0792	0.061612	0.002079	29.6298	-14.4128	-165.984	-0.012311	0.425083	-0.598259	-0.599607	0.007891	29.6298	-0.598459	-7.929290E+7	-9.951270E-11	NaN
377	1.000000	0.434377	7.36875e+06	-57489.1	955.818	-29737.2	0.000000	0.000000	6.434882	0.018392	NaN	0.000000	0.001579	0.001652	28.0805	0.091483	0.001988	46.0219	134.088	-163.559	0.000635	0.433104	-0.590314	-0.591586	0.018392	46.0219	-0.590614	-6.181961E+7	-2.975139E-10	NaN
377	1.000000	0.442401	7.36875e+06	-57489.1	955.817	-29737.2	0.000000	0.000000	6.442905	-0.017832	NaN	0.000000	0.001557	0.001675	28.0805	0.031950	0.001929	16.56	169.558	-165.547	0.043390	0.441064	-0.582289	-0.583627	-0.017832	16.56	-0.581482	-4.625669E+7	3.855083E-10	NaN
377	1.000000	0.450435	7.36875e+06	-57489.1	955.819	-29737.2	0.000000	0.000000	6.450941	0.052008	NaN	0.000000	0.001593	0.001659	28.0803	0.036229	0.002051	17.6678	-99.6983	-169.034	0.052918	0.449080	-0.574256	-0.575610	0.052008	17.6678	-0.576463	-3.943712E+7	-1.318754E-9	NaN
377	1.000000	0.458444	7.36875e+06	-57489.1	955.818	-29737.2	0.000000	0.000000	6.458950	0.020595	NaN	0.000000	0.001572	0.001656	28.0806	0.061925	0.002003	30.9157	19.3971	-167.344	-0.070209	0.457117	-0.566246	-0.567573	0.020595	30.9157	-0.566746	-2.895062E+7	-7.113878E-10	NaN
377	1.000000	0.466416	7.36875e+06	-57489.1	955.819	-29737.2	0.000000	0.000000	6.466919	-0.025073	NaN	0.000000	0.001574	0.001647	28.0806	0.110562	0.001930	57.2907	80.9271	-166.431	-0.034079	0.465119	-0.558274	-0.559571	-0.025073	57.2907	-0.557946	-2.187563E+7	1.146149E-9	NaN
377	1.000000	0.474422	7.36875e+06	-57489.1	955.819	-29737.2	0.000000	0.000000	6.474928	0.023885	NaN	0.000000	0.001557	0.001654	28.0804	0.068171	0.001984	34.369	115.207	-164.755	0.035429	0.473103	-0.550268	-0.551588	0.023885	34.369	-0.550789	-1.741364E+7	-1.371627E-9	NaN
377	1.000000	0.482439	7.36875e+06	-57489.1	955.819	-29737.2	0.000000	0.000000	6.482942	-0.031535	NaN	0.000000	0.001563	0.001618	28.0804	0.084128	0.002152	39.0905	-135.842	-165.173	-0.031277	0.481096	-0.542252	-0.543594	-0.031535	39.0905	-0.541647	-1.300742E+7	2.424397E-9	NaN
377	1.000000	0.490410	7.36875e+06	-57489.1	955.818	-29737.2	0.000000	0.000000	6.490912	-0.055061	NaN	0.000000	0.001560	0.001635	28.0803	0.031040	0.002064	15.0389	-79.9074	-168.848	-0.029478	0.489128	-0.534280	-0.535562	-0.055061	15.0389	-0.531534	-9.41625e+06	5.847399E-9	NaN
377	1.000000	0.498440	7.36875e+06	-57489.1	955.819	-29737.2	0.000000	0.000000	6.498946	0.034058	NaN	0.000000	0.001594	0.001666	28.0805	0.059451	0.002144	27.7252	146.725	-163.741	-0.001015	0.497143	-0.526250	-0.527548	0.034058	27.7252	-0.527172	-8.19006e+06	-4.158424E-9	NaN
377	1.000000	0.506435	7.36875e+06	-57489.1	955.819	-29737.2	0.000000	0.000000	6.506938	-0.047893	NaN	0.000000	0.001582	0.001659	28.0804	0.039506	0.002046	19.3105	86.713	-167.66	0.033837	0.505081	-0.518255	-0.519610	-0.047893	19.3105	-0.516395	-5.80025e+06	8.257006E-9	NaN
377	1.000000	0.514457	7.36875e+06	-57489.1	955.819	-29737.2	0.000000	0.000000	6.514960	-0.022307	NaN	0.000000	0.001569	0.001608	28.0807	0.102580	0.001852	55.3926	154.433	-167.009	0.005393	0.513110	-0.510234	-0.511580	-0.022307	55.3926	-0.509932	-4.71484e+06	4.731284E-9	NaN
377	1.000000	0.522453	7.36875e+06	-57489.1	955.819	-29737.2	0.000000	0.000000	6.522954	-0.076934	NaN	0.000000	0.001616	0.001634	28.0803	0.058658	0.001866	31.4379	7.448735	-164.62	-0.024098	0.521141	-0.502238	-0.503549	-0.076934	31.4379	-0.500403	-3.47243e+06	2.215571E-8	NaN
377	1.000000	0.530429	7.36875e+06	-57489.1	955.819	-29737.2	0.000000	0.000000	6.530938	0.107219	NaN	0.000000	0.001611	0.001624	28.0806	0.020136	0.002047	9.839205	83.7318	-166.377	0.136458	0.529119	-0.494262	-0.495571	0.107219	9.839205	-0.502434	-3.70658e+06	-2.892669E-8	NaN
377	1.000000	0.538457	7.36875e+06	-57489.1	955.819	-29737.2	0.000000	0.000000	6.538962	0.015658	NaN	0.000000	0.001615	0.001621	28.0807	0.073485	0.001998	36.7837	53.0655	-167.225	-0.002182	0.537165	-0.486233	-0.487526	0.015658	36.7837	-0.486552	-2.22434e+06	-7.039386E-9	NaN
377	1.000000	0.546450	7.36875e+06	-57489.1	955.819	-29737.2	0.000000	0.000000	6.546955	0.010454	NaN	0.000000	0.001610	0.001608	28.0804	0.072339	0.001942	37.2443	-88.3338	-164.065	-0.057676	0.545156	-0.478241	-0.479535	0.010454	37.2443	-0.478451	-1.71333e+06	-6.101347E-9	NaN
377	1.000000	0.554462	7.36875e+06	-57489.1	955.818	-29737.2	0.000000	0.000000	6.554966	-0.013659	NaN	0.000000	0.001589	0.001659	28.0806	0.052372	0.002038	25.7021	-111.266	-164.16	0.058876	0.553146	-0.470228	-0.471545	-0.013659	25.7021	-0.469830	-1.29724e+06	1.052900E-8	NaN
377	1.000000	0.562460	7.36875e+06	-57489.1	955.818	-29737.2	0.000000	0.000000	6.562963	-0.027064	NaN	0.000000	0.001557	0.001682	28.0803	0.045228	0.001910	23.6807	148.755	-165.322	0.012033	0.561117	-0.462231	-0.463573	-0.027064	23.6807	-0.461374	-987006	2.742059E-8	NaN
377	1.000000	0.570471	7.36875e+06	-57489.1	955.817	-29737.2	0.000000	0.000000	6.570977	0.025857	NaN	0.000000	0.001540	0.001679	28.0793	0.118845	0.002044	58.1351	-137.985	-165.373	0.049505	0.569129	-0.454219	-0.455561	0.025857	58.1351	-0.454553	-791451	-3.267006E-8	NaN
377	1.000000	0.578499	7.36875e+06	-57489.1	955.818	-29737.2	0.000000	0.000000	6.579005	0.035081	NaN	0.000000	0.001557	0.001677	28.0795	0.093428	0.001987	47.0149	-98.2974	-161.277	0.079732	0.577169	-0.446191	-0.447521	0.035081	47.0149	-0.446751	-614574	-5.708127E-8	NaN
377	1.000000	0.586509	7.36875e+06	-57489.1	955.819	-29737.2	0.000000	0.000000	6.587014	0.022858	NaN	0.000000	0.001531	0.001678	28.0793	0.141024	0.001933	72.9515	-163.411	-165.496	0.048670	0.585155	-0.438182	-0.439535	0.022858	72.9515	-0.438417	-468825	-4.875612E-8	NaN
377	1.000000	0.594467	7.36875e+06	-57489.1	955.818	-29737.2	0.000000	0.000000	6.594973	0.044913	NaN	0.000000	0.001561	0.001675	28.0793	0.025374	0.001882	13.4795	-55.02	-165.745	0.051597	0.593137	-0.430223	-0.431553	0.044913	13.4795	-0.432722	-389550	-1.152956E-7	NaN
377	1.000000	0.602484	7.36875e+06	-57489.1	955.819	-29737.2	0.000000	0.000000	6.602990	0.039508	NaN	0.000000	0.001543	0.001679	28.0789	0.029700	0.002025	14.6646	22.2138	-166.675	-0.044332	0.601175	-0.422206	-0.423516	0.039508	14.6646	-0.424227	-295347	-1.337671E-7	NaN
377	1.000000	0.610469	7.36875e+06	-57489.1	955.819	-29737.2	0.000000	0.000000	6.610971	-0.048134	NaN	0.000000	0.001570	0.001667	28.0795	0.086784	0.002001	43.3692	124.486	-166.002	-0.093267	0.609210	-0.414221	-0.415480	-0.048134	43.3692	-0.413389	-207286	2.322122E-7	NaN
377	1.000000	0.618513	7.36875e+06	-57489.1	955.819	-29737.2	0.000000	0.000000	6.619019	0.042571	NaN	0.000000	0.001613	0.001631	28.0793	0.054891	0.002028	27.0723	-129.719	-164.378	0.114327	0.617157	-0.406177	-0.407533	0.042571	27.0723	-0.407357	-170136	-2.502156E-7	NaN
377	1.000000	0.626468	7.36875e+06	-57489.1	955.818	-29737.2	0.000000	0.000000	6.626974	0.022478	NaN	0.000000	0.001610	0.001698	28.0791	0.054892	0.002037	26.9416	170.238	-166.683	-0.003658	0.625126	-0.398222	-0.399565	0.022478	26.9416	-0.398848	-128694	-1.746591E-7	NaN
377	1.000000	0.634498	7.36875e+06	-57489.1	955.82	-29737.2	0.000000	0.000000	6.635001	-0.026470	NaN	0.000000	0.001586	0.001661	28.0793	0.066154	0.002104	31.4369	143.399	-166.822	-0.012079	0.633138	-0.390192	-0.391552	-0.026470	31.4369	-0.389561	-94816.4	2.791694E-7	NaN
377	1.000000	0.642504	7.36875e+06	-57489.1	955.82	-29737.2	0.000000	0.000000	6.643011	0.071401	NaN	0.000000	0.001590	0.001643	28.0792	0.006385	0.001946	3.281199	-104.67	-168.176	0.010072	0.641233	-0.382187	-0.383458	0.071401	3.281199	-0.398507	-127262	-5.610539E-7	NaN
377	1.000000	0.650477	7.36875e+06	-57489.1	955.818	-29737.2	0.000000	0.000000	6.650979	-0.051056	NaN	0.000000	0.001575	0.001691	28.0795	0.128344	0.002021	63.5001	67.6256	-161.977	-0.041716	0.649150	-0.374213	-0.375540	-0.051056	63.5001	-0.373610	-55986.8	9.119349E-7	NaN
377	1.000000	0.658500	7.36875e+06	-57489.1	955.819	-29737.2	0.000000	0.000000	6.659003	-0.037537	NaN	0.000000	0.001584	0.001744	28.0794	0.111739	0.002039	54.8012	-105.433	-162.621	0.049590	0.657189	-0.366190	-0.367501	-0.037537	54.8012	-0.365677	-43034.5	8.722529E-7	NaN
377	1.000000	0.666528	7.36875e+06	-57489.1	955.819	-29737.2	0.000000	0.000000	6.667033	0.000196	NaN	0.000000	0.001601	0.001744	28.0793	0.089721	0.001960	45.7742	-162.213	-166.029	-0.057271	0.665202	-0.358162	-0.359488	0.000196	45.7742	-0.358165	-33521	-5.860505E-9	NaN
377	1.000000	0.674525	7.36875e+06	-57489.1	955.819	-29737.2	0.000000	0.000000	6.675030	0.005411	NaN	0.000000	0.001583	0.001722	28.0796	0.056567	0.001991	28.4103	-34.6168	-163.617	-0.046035	0.673173	-0.350165	-0.351518	0.005411	28.4103	-0.350308	-25791.2	-2.098176E-7	NaN
377	1.000000	0.682521	7.36875e+06	-57489.1	955.818	-29737.2	0.000000	0.000000	6.683027	0.029427	NaN	0.000000	0.001612	0.001703	28.0793	0.055158	0.002097	26.2987	94.2073	-167.607	-0.004690	0.681204	-0.342169	-0.343487	0.029427	26.2987	-0.343008	-20201.2	-1.456707E-6	NaN
377	1.000000	0.690520	7.36875e+06	-57489.1	955.819	-29737.2	0.000000	0.000000	6.691023	-0.023590	NaN	0.000000	0.001597	0.001712	28.0794	0.032592	0.001986	16.4117	-17.0458	-165.343	-0.038293	0.689191	-0.334170	-0.335499	-0.023590	16.4117	-0.333092	-14477.9	1.629372E-6	NaN
377	1.000000	0.698492	7.36875e+06	-57489.1	955.82	-29737.2	0.000000	0.000000	6.698998	0.035277	NaN	0.000000	0.001606	0.001753	28.0793	0.124568	0.001966	63.3582	-133.26	-167.34	0.100250	0.697238	-0.326198	-0.327453	0.035277	63.3582	-0.326616	-11637.1	-3.031431E-6	NaN
377	1.000000	0.706516	7.36875e+06	-57489.1	955.818	-29737.2	0.000000	0.000000	6.707019	-0.026015	NaN	0.000000	0.001597	0.001729	28.0808	0.130485	0.002186	59.6799	-96.9996	-166.261	0.066173	0.705180	-0.318175	-0.319510	-0.026015	59.6799	-0.317848	-8648.59	3.008055E-6	NaN
377	1.000000	0.714508	7.36875e+06	-57489.1	955.819	-29737.2	0.000000	0.000000	6.715013	0.014521	NaN	0.000000	0.001595	0.001710	28.0807	0.057634	0.001946	29.6162	173.617	-167.463	-0.018359	0.713230	-0.310182	-0.311460	0.014521	29.6162	-0.310550	-6748.23	-2.151857E-6	NaN
377	1.000000	0.722501	7.36875e+06	-57489.1	955.819	-29737.2	0.000000	0.000000	6.723006	-0.003162	NaN	0.000000	0.001618	0.001718	28.0807	0.092126	0.002019	45.6223	-10.6656	-162.946	-0.070499	0.721233	-0.302189	-0.303457	-0.003162	45.6223	-0.302137	-5063.22	6.245177E-7	NaN
377	1.000000	0.730519	7.36875e+06	-57489.1	955.819	-29737.2	0.000000	0.000000	6.731023	-0.017503	NaN	0.000000	0.001626	0.001723	28.0805	0.027866	0.002086	13.3596	63.1236	-166.975	0.081805	0.729260	-0.294171	-0.295430	-0.017503	13.3596	-0.293189	-3724.11	4.699824E-6	NaN
377	1.000000	0.738537	7.36875e+06	-57489.1	955.82	-29737.2	0.000000	0.000000	6.739044	0.066227	NaN	0.000000	0.001616	0.001740	28.0807	0.091635	0.002035	45.0217	137.898	-167.107	0.074725	0.737258	-0.286153	-0.287433	0.066227	45.0217	-0.287257	-3035.02	-2.182105E-5	NaN
377	1.000000	0.746536	7.36875e+06	-57489.1	955.819	-29737.2	0.000000	0.000000	6.747038	-0.055248	NaN	0.000000	0.001585	0.001706	28.0807	0.055367	0.002064	26.8308	80.99	-167.097	-0.051136	0.745260	-0.278154	-0.279430	-0.055248	26.8308	-0.276610	-2097.8	2.633621E-5	NaN
377	1.000000	0.754565	7.36875e+06	-57489.1	955.818	-29737.2	0.000000	0.000000	6.755072	0.072567	NaN	0.000000	0.001622	0.001704	28.0804	0.058452	0.002051	28.5043	-67.3487	-167.023	0.010197	0.753253	-0.270126	-0.271438	0.072567	28.5043	-0.272035	-1788.35	-4.057784E-5	NaN
377	1.000000	0.762558	7.36875e+06	-57489.1	955.818	-29737.2	0.000000	0.000000	6.763064	0.023961	NaN	0.000000	0.001625	0.001730	28.0804	0.042625	0.002095	20.3418	7.480294	-166.754	-0.012642	0.761236	-0.262132	-0.263454	0.023961	20.3418	-0.263015	-1303.39	-1.838359E-5	NaN
377	1.000000	0.770543	7.36875e+06	-57489.1	955.818	-29737.2	0.000000	0.000000	6.771050	0.072999	NaN	0.000000	0.001637	0.001687	28.0804	0.077708	0.001978	39.2872	102.399	-166.857	0.036176	0.769245	-0.254147	-0.255446	0.072999	39.2872	-0.255541	-1001.02	-7.292533E-5	NaN
377	1.000000	0.778562	7.36875e+06	-57489.1	955.818	-29737.2	0.000000	0.000000	6.779069	0.051318	NaN	0.000000	0.001590	0.001691	28.0804	0.073593	0.002082	35.3428	127.953	-164.873	-0.019787	0.777246	-0.246128	-0.247444	0.051318	35.3428	-0.247217	-744.512	-6.892848E-5	NaN
377	1.000000	0.786522	7.36875e+06	-57489.1	955.818	-29737.2	0.000000	0.000000	6.787025	-0.018595	NaN	0.000000	0.001620	0.001703	28.0804	0.112841	0.001883	59.9292	63.09	-165.146	-0.011124	0.785227	-0.238169	-0.239463	-0.018595	59.9292	-0.237936	-533.677	3.484225E-5	NaN
377	1.000000	0.794560	7.36875e+06	-57489.1	955.817	-29737.2	0.000000	0.000000	6.795065	0.016400	NaN	0.000000	0.001628	0.001716	28.0802	0.019738	0.001865	10.5805	-15.4222	-164.559	0.061147	0.793225	-0.230131	-0.231465	0.016400	10.5805	-0.231293	-419.685	-3.907758E-5	NaN
377	1.000000	0.802566	7.36875e+06	-57489.1	955.819	-29737.2	0.000000	0.000000	6.803070	-0.012544	NaN	0.000000	0.001652	0.001731	28.0803	0.102407	0.001917	53.4331	5.902989	-167.327	-0.014364	0.801206	-0.222124	-0.223484	-0.012544	53.4331	-0.221948	-298.382	4.203964E-5	NaN
377	1.000000	0.810534	7.36875e+06	-57489.1	955.819	-29737.2	0.000000	0.000000	6.811036	-0.053169	NaN	0.000000	0.001590	0.001752	28.0805	0.092304	0.002049	45.0481	120.64	-166.452	-0.031969	0.809281	-0.214156	-0.215410	-0.053169	45.0481	-0.213271	-216.609	0.000245	NaN
377	1.000000	0.818553	7.36875e+06	-57489.1	955.819	-29737.2	0.000000	0.000000	6.819058	8.450910E-5	NaN	0.000000	0.001561	0.001700	28.0803	0.062529	0.002032	30.7678	-58.9577	-167.55	-0.035445	0.817295	-0.206137	-0.207395	8.450910E-5	30.7678	-0.206139	-166.005	-5.090751E-7	NaN
377	1.000000	0.826549	7.36875e+06	-57489.1	955.818	-29737.2	0.000000	0.000000	6.827057	0.069472	NaN	0.000000	0.001598	0.001714	28.0805	0.035963	0.001888	19.0488	82.1394	-163.224	0.033239	0.825253	-0.198141	-0.199437	0.069472	19.0488	-0.200876	-136.173	-0.000510	NaN
377	1.000000	0.834546	7.36875e+06	-57489.1	955.819	-29737.2	0.000000	0.000000	6.835052	0.046333	NaN	0.000000	0.001636	0.001725	28.0803	0.053667	0.002034	26.3899	171.804	-167.328	0.065183	0.833239	-0.190144	-0.191452	0.046333	26.3899	-0.191461	-95.1495	-0.000487	NaN
377	1.000000	0.842561	7.36875e+06	-57489.1	955.82	-29737.2	0.000000	0.000000	6.843064	-0.041351	NaN	0.000000	0.001617	0.001737	28.0793	0.073789	0.001878	39.2981	-9.848529	-162.568	-0.099024	0.841301	-0.182129	-0.183389	-0.041351	39.2981	-0.181340	-64.3042	0.000643	NaN
377	1.000000	0.850574	7.36875e+06	-57489.1	955.818	-29737.2	0.000000	0.000000	6.851080	0.046267	NaN	0.000000	0.001607	0.001736	28.0796	0.041312	0.001937	21.3297	-172.832	-162.966	0.032305	0.849294	-0.174117	-0.175396	0.046267	21.3297	-0.175744	-51.6116	-0.000896	NaN
377	1.000000	0.858596	7.36875e+06	-57489.1	955.819	-29737.2	0.000000	0.000000	6.859104	0.087443	NaN	0.000000	0.001610	0.001728	28.0792	0.074565	0.001993	37.4212	-17.416	-162.911	-0.011030	0.857280	-0.166094	-0.167410	0.087443	37.4212	-0.167847	-37.6824	-0.002321	NaN
377	1.000000	0.866578	7.36875e+06	-57489.1	955.819	-29737.2	0.000000	0.000000	6.867083	0.027988	NaN	0.000000	0.001623	0.001753	28.0791	0.097994	0.001959	50.0295	-166.014	-168.237	0.050439	0.865260	-0.158113	-0.159431	0.027988	50.0295	-0.158532	-25.8144	-0.001084	NaN
377	1.000000	0.874598	7.36875e+06	-57489.1	955.819	-29737.2	0.000000	0.000000	6.875102	-0.013106	NaN	0.000000	0.001624	0.001761	28.0792	0.034130	0.002165	15.7661	-53.832	-167	-0.048287	0.873311	-0.150092	-0.151380	-0.013106	15.7661	-0.149469	-17.7136	0.000740	NaN
377	1.000000	0.882622	7.36875e+06	-57489.1	955.818	-29737.2	0.000000	0.000000	6.883126	-0.004026	NaN	0.000000	0.001652	0.001751	28.0794	0.047478	0.002029	23.3989	-107.953	-167.115	0.024030	0.881290	-0.142069	-0.143400	-0.004026	23.3989	-0.141939	-12.8614	0.000313	NaN
377	1.000000	0.890617	7.36875e+06	-57489.1	955.819	-29737.2	0.000000	0.000000	6.891121	-0.001455	NaN	0.000000	0.001684	0.001715	28.0795	0.079506	0.002184	36.3971	-21.3008	-163.742	-0.026112	0.889285	-0.134074	-0.135405	-0.001455	36.3971	-0.134044	-9.120278	0.000159	NaN
377	1.000000	0.898588	7.36875e+06	-57489.1	955.819	-29737.2	0.000000	0.000000	6.899094	0.047446	NaN	0.000000	0.001645	0.001729	28.0794	0.024475	0.002027	12.0774	-39.6814	-165.168	0.026835	0.897279	-0.126102	-0.127412	0.047446	12.0774	-0.129049	-7.303000	-0.006497	NaN
377	1.000000	0.906610	7.36875e+06	-57489.1	955.82	-29737.2	0.000000	0.000000	6.907113	-0.030538	NaN	0.000000	0.001678	0.001717	28.0792	0.101109	0.002053	49.2454	132.245	-167.397	-0.090811	0.905266	-0.118080	-0.119424	-0.030538	49.2454	-0.117615	-4.322297	0.007065	NaN
377	1.000000	0.914608	7.36875e+06	-57489.1	955.819	-29737.2	0.000000	0.000000	6.915114	0.041467	NaN	0.000000	0.001678	0.001714	28.0793	0.063986	0.001942	32.9409	164.665	-164.953	0.017353	0.913339	-0.110083	-0.111351	0.041467	32.9409	-0.111027	-3.158474	-0.013129	NaN
377	1.000000	0.922605	7.36875e+06	-57489.1	955.819	-29737.2	0.000000	0.000000	6.923110	0.010753	NaN	0.000000	0.001666	0.001687	28.0793	0.073114	0.001966	37.1927	53.9126	-166.874	-0.044757	0.921272	-0.102085	-0.103419	0.010753	37.1927	-0.102302	-2.053485	-0.005236	NaN
377	1.000000	0.930594	7.36875e+06	-57489.1	955.818	-29737.2	0.000000	0.000000	6.931100	0.039386	NaN	0.000000	0.001632	0.001669	28.0794	0.021155	0.002057	10.285	-77.4226	-166.646	0.067643	0.929307	-0.094096	-0.095383	0.039386	10.285	-0.096968	-1.563189	-0.025196	NaN
377	1.000000	0.938634	7.36876e+06	-57489.1	955.819	-29737.2	0.000000	0.000000	6.939142	0.084919	NaN	0.000000	0.001657	0.001697	28.0797	0.099106	0.002001	49.5326	-91.0777	-164.7	0.035224	0.937337	-0.086056	-0.087354	0.084919	49.5326	-0.087342	-0.935280	-0.090795	NaN
377	1.000000	0.946624	7.36876e+06	-57489.1	955.819	-29737.2	0.000000	0.000000	6.947127	-0.022295	NaN	0.000000	0.001664	0.001713	28.0793	0.078234	0.001931	40.5191	-172.546	-166.199	-0.065508	0.945249	-0.078067	-0.079441	-0.022295	40.5191	-0.077654	-0.540202	0.041271	NaN
377	1.000000	0.954621	7.36876e+06	-57489.1	955.818	-29737.2	0.000000	0.000000	6.955126	0.008207	NaN	0.000000	0.001622	0.001687	28.0793	0.018483	0.002008	9.202900	-113.223	-166.605	0.034049	0.953249	-0.070069	-0.071441	0.008207	9.202900	-0.070738	-0.356952	-0.022992	NaN
377	1.000000	0.962637	7.36876e+06	-57489.1	955.82	-29737.2	0.000000	0.000000	6.963142	0.018496	NaN	0.000000	0.001635	0.001695	28.0793	0.079724	0.002022	39.4343	171.809	-160.578	0.149296	0.961331	-0.062053	-0.063360	0.018496	39.4343	-0.062405	-0.210835	-0.087727	NaN
377	1.000000	0.970644	7.36876e+06	-57489.1	955.82	-29737.2	0.000000	0.000000	6.971149	0.011523	NaN	0.000000	0.001594	0.001730	28.0794	0.012353	0.001942	6.359407	-46.3631	-166.196	0.073779	0.969286	-0.054046	-0.055404	0.011523	6.359407	-0.055405	-0.132373	-0.087049	NaN
377	1.000000	0.978624	7.36876e+06	-57489.1	955.82	-29737.2	0.000000	0.000000	6.979127	-0.042906	NaN	0.000000	0.001649	0.001701	28.0806	0.098025	0.002122	46.191	-118.619	-163.671	0.017068	0.977343	-0.046066	-0.047347	-0.042906	46.191	-0.045369	-0.065962	0.650473	NaN
377	1.000000	0.986628	7.36876e+06	-57489.1	955.82	-29737.2	0.000000	0.000000	6.987132	0.004429	NaN	0.000000	0.001618	0.001683	28.0806	0.053005	0.001844	28.7479	75.7434	-167.337	-0.016545	0.985317	-0.038063	-0.039373	0.004429	28.7479	-0.038178	-0.039833	-0.111187	NaN
377	1.000000	0.994623	7.36876e+06	-57489.1	955.82	-29737.2	0.000000	0.000000	6.995128	0.013603	NaN	0.000000	0.001625	0.001689	28.0807	0.035825	0.001932	18.5467	-104.796	-166.967	0.013109	0.993309	-0.030067	-0.031381	0.013603	18.5467	-0.030618	-0.023947	-0.568063	NaN
377	1.000000	1.002643	7.36876e+06	-57489.1	955.82	-29737.2	0.000000	0.000000	7.003148	0.000856	NaN	0.000000	0.001624	0.001701	28.0806	0.129179	0.001929	66.9541	29.5094	-164.971	0.010240	1.001339	-0.022047	-0.023352	0.000856	66.9541	-0.022057	-0.014168	-0.060407	NaN
377	1.000000	1.010656	7.36876e+06	-57489.1	955.819	-29737.2	0.000000	0.000000	7.011158	-0.054549	NaN	0.000000	0.001612	0.001657	28.0813	0.067665	0.001876	36.0613	64.0681	-166.864	-0.026151	1.009259	-0.014034	-0.015432	-0.054549	36.0613	-0.012900	-0.008045	6.780852	NaN
377	1.000000	1.018663	7.36876e+06	-57489.1	955.821	-29737.2	0.000000	0.000000	7.019164	-0.087248	NaN	0.000000	0.001600	0.001644	28.0805	0.064017	0.001974	32.4318	-26.299	-167.534	-0.040486	1.017408	-0.006027	-0.007282	-0.087248	32.4318	-0.004010	-0.002785	31.3258	NaN
377	1.000000	1.026621	7.36876e+06	-57489.1	955.82	-29737.2	0.000000	0.000000	7.027157	0.772797	NaN	0.000000	0.001618	0.001682	28.0804	1.322406	0.001968	672.108	3.037835	-163.373	0.127848	1.025304	0.001930	0.000614	0.772797	672.108	0.001068	0.000815	948.435	21512.1
377	2.000000	1.034139	7.36876e+06	-57489.1	955.819	-29737.2	0.000000	0.000000	7.034949	7.437443	NaN	0.000000	0.001639	0.001712	28.0806	8.373718	0.001747	4791.99	12.2528	-174.03	7.052617	1.033305	0.009448	0.008614	7.437443	4791.99	0.008284	0.007336	1013.79	51115.4
377	2.000000	1.036333	7.36876e+06	-57489.1	955.82	-29737.2	0.000000	0.000000	7.037239	9.747438	NaN	0.000000	0.001667	0.001727	28.0805	10.6832	0.001726	6190.37	9.292062	-175.308	9.397825	1.035999	0.011643	0.011308	9.747438	6190.37	0.010462	0.009699	1004.97	57427.7
377	2.000000	1.038320	7.36876e+06	-57489.1	955.819	-29737.2	0.000000	0.000000	7.039337	12.4815	NaN	0.000000	0.001692	0.001736	28.0805	12.4686	0.001691	7373.11	8.469948	-175.022	12.2117	1.037992	0.013629	0.013302	12.4815	7373.11	0.012359	0.011923	1046.8	61691.1
377	2.000000	1.040277	7.36876e+06	-57489.1	955.82	-29737.2	0.000000	0.000000	7.041461	16.522	NaN	0.000000	0.001709	0.001711	28.0808	14.4196	0.001767	8159.29	6.993600	-173.131	16.2692	1.039980	0.015587	0.015289	16.522	8159.29	0.014068	0.014063	1174.88	62862.3
377	2.000000	1.042291	7.36876e+06	-57489.1	955.819	-29737.2	0.000000	0.000000	7.043609	19.7691	NaN	0.000000	0.001676	0.001704	28.0807	16.289	0.001651	9863.41	6.536691	-175.829	18.545	1.041937	0.017601	0.017246	19.7691	9863.41	0.016097	0.016777	1178.37	69574.2
377	2.000000	1.044270	7.36876e+06	-57489.1	955.819	-29737.2	0.000000	0.000000	7.045713	22.8126	NaN	0.000000	0.001664	0.001742	28.0805	18.4462	0.001786	10329.7	8.660219	-177.523	22.8653	1.044003	0.019579	0.019312	22.8126	10329.7	0.017923	0.019383	1176.95	67787.9
377	2.000000	1.046265	7.36876e+06	-57489.1	955.821	-29737.2	0.000000	0.000000	7.047868	26.695	NaN	0.000000	0.001632	0.001731	28.081	20.3717	0.001803	11300.1	8.701575	-178.222	26.4085	1.045925	0.021574	0.021235	26.695	11300.1	0.019803	0.022233	1200.68	69239.8
377	2.000000	1.048252	7.36876e+06	-57489.1	955.821	-29737.2	0.000000	0.000000	7.050130	33.4026	NaN	0.000000	0.001656	0.001750	28.0807	21.2016	0.001735	12221.1	2.974421	-174.067	32.7464	1.047924	0.023561	0.023233	33.4026	12221.1	0.021511	0.024973	1337.56	70655.9
377	2.000000	1.050216	7.36876e+06	-57489.1	955.819	-29737.2	0.000000	0.000000	7.052153	34.8204	NaN	0.000000	0.001611	0.001751	28.0804	24.285	0.001857	13076.7	5.385484	-176.878	32.9702	1.049943	0.025525	0.025253	34.8204	13076.7	0.023528	0.028393	1226.39	70903.5
377	2.000000	1.052255	7.36876e+06	-57489.1	955.82	-29737.2	0.000000	0.000000	7.054392	39.6878	NaN	0.000000	0.001587	0.001739	28.0807	26.0591	0.001812	14377.6	6.572563	-178.716	39.1843	1.051961	0.027565	0.027271	39.6878	14377.6	0.025494	0.031921	1243.3	73522.2
377	2.000000	1.054296	7.36876e+06	-57489.1	955.821	-29737.2	0.000000	0.000000	7.056636	44.6133	NaN	0.000000	0.001598	0.001690	28.0793	28.2053	0.001729	16315.5	7.012477	178.046	46.3067	1.053931	0.029605	0.029240	44.6133	16315.5	0.027555	0.035828	1245.22	78752.6
377	2.000000	1.056239	7.36876e+06	-57489.1	955.82	-29737.2	0.000000	0.000000	7.058893	52.2551	NaN	0.000000	0.001583	0.001707	28.0794	29.9522	0.001913	15655	8.537036	178.933	51.7405	1.055892	0.031549	0.031201	52.2551	15655	0.029045	0.038788	1347.2	72623.9
377	2.000000	1.058262	7.36876e+06	-57489.1	955.821	-29737.2	0.000000	0.000000	7.061135	57.563	NaN	0.000000	0.001580	0.001679	28.0794	31.4341	0.001790	17556.4	9.413433	177.244	59.1413	1.057939	0.033571	0.033249	57.563	17556.4	0.031112	0.043081	1336.16	77279.7
377	2.000000	1.060229	7.36876e+06	-57489.1	955.819	-29737.2	0.000000	0.000000	7.063330	63.1117	NaN	0.000000	0.001569	0.001661	28.0797	33.3316	0.001802	18500.3	6.135408	178.943	61.8912	1.059963	0.035539	0.035272	63.1117	18500.3	0.032980	0.047148	1338.59	77843
377	2.000000	1.062195	7.36876e+06	-57489.1	955.819	-29737.2	0.000000	0.000000	7.065610	70.7294	NaN	0.000000	0.001568	0.001688	28.0793	35.2724	0.001832	19256.9	7.650706	177.712	68.3028	1.061900	0.037505	0.037210	70.7294	19256.9	0.034750	0.051166	1382.35	77780.2
377	2.000000	1.064247	7.36876e+06	-57489.1	955.82	-29737.2	0.000000	0.000000	7.067741	72.665	NaN	0.000000	0.001584	0.001731	28.0793	36.2786	0.001915	18939.5	5.252718	-178.846	74.078	1.063924	0.039556	0.039233	72.665	18939.5	0.036679	0.055728	1303.93	73300.5
377	2.000000	1.066220	7.36876e+06	-57489.1	955.82	-29737.2	0.000000	0.000000	7.070097	81.9619	NaN	0.000000	0.001563	0.001686	28.0805	39.0477	0.001762	22164.7	5.142656	178.162	81.7534	1.065991	0.041530	0.041300	81.9619	22164.7	0.038756	0.060854	1346.87	82090.2
377	2.000000	1.068209	7.36876e+06	-57489.1	955.82	-29737.2	0.000000	0.000000	7.072512	92.3247	NaN	0.000000	0.001625	0.001675	28.0794	39.6276	0.001764	22469.3	4.831716	178.62	91.7422	1.067891	0.043518	0.043200	92.3247	22469.3	0.040436	0.065161	1416.86	80420.8
377	2.000000	1.070141	7.36876e+06	-57489.1	955.82	-29737.2	0.000000	0.000000	7.074698	98.5017	NaN	0.000000	0.001553	0.001731	28.0794	42.4072	0.001713	24750.4	6.579432	174.939	95.9618	1.069912	0.045450	0.045222	98.5017	24750.4	0.042466	0.070555	1396.09	85131.4
377	2.000000	1.072238	7.36876e+06	-57489.1	955.82	-29737.2	0.000000	0.000000	7.077217	108.754	NaN	0.000000	0.001568	0.001726	28.0796	44.5406	0.001865	23885.9	6.616531	176.776	108.153	1.071899	0.047547	0.047209	108.754	23885.9	0.044133	0.075144	1447.27	79609.9
377	2.000000	1.074174	7.36876e+06	-57489.1	955.82	-29737.2	0.000000	0.000000	7.079494	117.043	NaN	0.000000	0.001591	0.001723	28.0792	46.6249	0.001861	25051.6	8.579510	175.131	116.615	1.073815	0.049484	0.049124	117.043	25051.6	0.045980	0.080393	1455.89	80723.4
377	2.000000	1.076216	7.36876e+06	-57489.1	955.82	-29737.2	0.000000	0.000000	7.081829	124.171	NaN	0.000000	0.001567	0.001738	28.0804	49.2474	0.001827	26950.4	8.899431	174.398	124.271	1.075803	0.051525	0.051113	124.171	26950.4	0.048070	0.086540	1434.85	83701.2
377	2.000000	1.078124	7.36876e+06	-57489.1	955.82	-29737.2	0.000000	0.000000	7.084221	135.913	NaN	0.000000	0.001535	0.001719	28.0794	50.1582	0.001822	27532.1	3.367661	178.433	132.362	1.077828	0.053434	0.053138	135.913	27532.1	0.049732	0.091585	1484	83118.7
377	2.000000	1.080134	7.36876e+06	-57489.1	955.821	-29737.2	0.000000	0.000000	7.086566	144.069	NaN	0.000000	0.001611	0.001747	28.0793	53.6784	0.001837	29227.8	4.141733	177.124	140.53	1.079817	0.055444	0.055126	144.069	29227.8	0.051747	0.097889	1471.76	85349.9
377	2.000000	1.082265	7.36876e+06	-57489.1	955.82	-29737.2	0.000000	0.000000	7.088994	151.277	NaN	0.000000	0.001616	0.001713	28.0795	55.7583	0.001891	29479.1	6.393557	174.658	154.537	1.081942	0.057575	0.057252	151.277	29479.1	0.053726	0.104277	1450.72	83404.9
377	2.000000	1.084148	7.36876e+06	-57489.1	955.82	-29737.2	0.000000	0.000000	7.091214	159.486	NaN	0.000000	0.001582	0.001709	28.0795	56.88	0.001832	31055.1	4.525266	175.832	155.314	1.083941	0.059457	0.059251	159.486	31055.1	0.055606	0.110524	1443	85345.1
377	2.000000	1.086167	7.36876e+06	-57489.1	955.82	-29737.2	0.000000	0.000000	7.093704	170.926	NaN	0.000000	0.001540	0.001652	28.0799	58.8579	0.001788	32926.7	6.236820	173.383	170.189	1.085906	0.061477	0.061216	170.926	32926.7	0.057584	0.117286	1457.34	87840.9
377	2.000000	1.088151	7.36876e+06	-57489.1	955.82	-29737.2	0.000000	0.000000	7.096126	181.562	NaN	0.000000	0.001578	0.001683	28.0806	60.5066	0.001861	32509.7	9.586626	170.681	179.101	1.087870	0.063461	0.063179	181.562	32509.7	0.059272	0.123211	1473.58	84617.5
377	2.000000	1.090239	7.36876e+06	-57489.1	955.82	-29737.2	0.000000	0.000000	7.098690	193.155	NaN	0.000000	0.001604	0.001684	28.0808	62.9163	0.001801	34928.4	9.829696	170.153	195.671	1.089863	0.065548	0.065173	193.155	34928.4	0.061401	0.130879	1475.83	88209.7
377	2.000000	1.092234	7.36876e+06	-57489.1	955.82	-29737.2	0.000000	0.000000	7.101194	205.523	NaN	0.000000	0.001666	0.001703	28.0808	64.1553	0.001736	36952.4	6.880888	172.734	206.404	1.091977	0.067543	0.067286	205.523	36952.4	0.063372	0.138177	1487.39	90823.4
377	2.000000	1.094140	7.36876e+06	-57489.1	955.82	-29737.2	0.000000	0.000000	7.103487	214.916	NaN	0.000000	0.001679	0.001714	28.0807	65.2646	0.001787	36516.4	3.254341	175.78	212.487	1.093853	0.069449	0.069162	214.916	36516.4	0.065035	0.144481	1487.51	87772
377	2.000000	1.096202	7.36876e+06	-57489.1	955.82	-29737.2	0.000000	0.000000	7.106054	227.189	NaN	0.000000	0.001685	0.001737	28.0814	69.4082	0.001973	35185.5	3.370356	176.366	226.806	1.095902	0.071512	0.071211	227.189	35185.5	0.066669	0.150803	1506.54	82781.3
377	2.000000	1.098219	7.36876e+06	-57489.1	955.821	-29737.2	0.000000	0.000000	7.108706	242.625	NaN	0.000000	0.001662	0.001740	28.0808	69.1738	0.001774	38993.3	3.884189	175.811	245.368	1.097772	0.073529	0.073081	242.625	38993.3	0.068862	0.159489	1521.26	89206.6
377	2.000000	1.100184	7.36876e+06	-57489.1	955.822	-29737.2	0.000000	0.000000	7.111100	253.052	NaN	0.000000	0.001662	0.001725	28.0808	72.4594	0.001949	37182.9	8.192077	172.135	252.212	1.099768	0.075493	0.075077	253.052	37182.9	0.070389	0.165674	1527.41	83462.2
377	2.000000	1.102214	7.36876e+06	-57489.1	955.822	-29737.2	0.000000	0.000000	7.113524	262.624	NaN	0.000000	0.001663	0.001708	28.0807	72.727	0.001692	42975.2	1.133916	177.377	265.638	1.101804	0.077523	0.077114	262.624	42975.2	0.072940	0.176253	1490.04	93523.9
377	2.000000	1.104121	7.36876e+06	-57489.1	955.82	-29737.2	0.000000	0.000000	7.115999	276.434	NaN	0.000000	0.001603	0.001692	28.0807	74.2189	0.001706	43493.2	4.137566	173.523	271.257	1.103912	0.079430	0.079222	276.434	43493.2	0.074663	0.183573	1505.85	92744.9
377	2.000000	1.106169	7.36876e+06	-57489.1	955.821	-29737.2	0.000000	0.000000	7.118659	291.306	NaN	0.000000	0.001618	0.001697	28.0811	77.4316	0.001773	43680.3	6.728746	171.524	290.795	1.105847	0.081478	0.081156	291.306	43680.3	0.076477	0.191428	1521.75	91212.9
377	2.000000	1.108115	7.36876e+06	-57489.1	955.82	-29737.2	0.000000	0.000000	7.121053	302.193	NaN	0.000000	0.001686	0.001671	28.0807	77.1836	0.001781	43345	0.653274	177.287	299.519	1.107914	0.083424	0.083223	302.193	43345	0.078196	0.199015	1518.44	88770.6
377	2.000000	1.110148	7.36876e+06	-57489.1	955.82	-29737.2	0.000000	0.000000	7.123793	319.36	NaN	0.000000	0.001655	0.001704	28.0812	79.6181	0.001778	44787.8	3.273823	174.986	317.433	1.109806	0.085458	0.085115	319.36	44787.8	0.080110	0.207628	1538.13	89802.8
377	2.000000	1.112167	7.36876e+06	-57489.1	955.821	-29737.2	0.000000	0.000000	7.126521	336.604	NaN	0.000000	0.001701	0.001693	28.0806	81.7763	0.001817	44998.3	3.519336	174.791	335.676	1.111804	0.087477	0.087114	336.604	44998.3	0.081867	0.215681	1560.66	88524.5
377	2.000000	1.114171	7.36876e+06	-57489.1	955.82	-29737.2	0.000000	0.000000	7.128679	340.354	NaN	0.000000	0.001663	0.001675	28.0806	82.629	0.001775	46554.5	1.117968	176.326	338.163	1.113939	0.089481	0.089248	340.354	46554.5	0.083998	0.225644	1508.37	89541.4
377	2.000000	1.116057	7.36876e+06	-57489.1	955.821	-29737.2	0.000000	0.000000	7.131489	362.807	NaN	0.000000	0.001656	0.001680	28.0808	85.9656	0.001751	49083.7	4.268021	172.869	356.629	1.115717	0.091366	0.091026	362.807	49083.7	0.085823	0.234342	1548.19	92637.1
377	2.000000	1.118094	7.36876e+06	-57489.1	955.822	-29737.2	0.000000	0.000000	7.134189	378.926	NaN	0.000000	0.001646	0.001676	28.0804	86.8665	0.001789	48549.7	3.416160	173.866	374.486	1.117833	0.093404	0.093142	378.926	48549.7	0.087550	0.242716	1561.19	90034.9
377	2.000000	1.120206	7.36876e+06	-57489.1	955.822	-29737.2	0.000000	0.000000	7.136911	393.757	NaN	0.000000	0.001677	0.001741	28.0808	90.3498	0.001797	50278.4	4.214884	173.634	394.953	1.119727	0.095515	0.095036	393.757	50278.4	0.089642	0.253041	1556.1	91318.6
377	2.000000	1.122159	7.36876e+06	-57489.1	955.821	-29737.2	0.000000	0.000000	7.139590	411.406	NaN	0.000000	0.001658	0.001688	28.08	93.0502	0.001829	50886.7	9.763780	167.716	409.889	1.121754	0.097468	0.097063	411.406	50886.7	0.091405	0.261899	1570.86	90846.9
377	2.000000	1.124076	7.36876e+06	-57489.1	955.82	-29737.2	0.000000	0.000000	7.142058	424.787	NaN	0.000000	0.001674	0.001714	28.0794	93.7131	0.001849	50684	3.400595	174.119	419.94	1.123755	0.099386	0.099065	424.787	50684	0.093100	0.270550	1570.08	89026.6
377	2.000000	1.126004	7.36876e+06	-57489.1	955.822	-29737.2	0.000000	0.000000	7.144513	437.588	NaN	0.000000	0.001627	0.001709	28.0792	95.8017	0.001860	51510	4.916600	171.991	430.712	1.125835	0.101314	0.101145	437.588	51510	0.094942	0.280102	1562.24	88921.4
377	2.000000	1.128213	7.36876e+06	-57489.1	955.821	-29737.2	0.000000	0.000000	7.146952	443.204	NaN	0.000000	0.001646	0.001735	28.0793	96.3121	0.001764	54608.4	2.671354	173.715	445.67	1.127916	0.103522	0.103225	443.204	54608.4	0.097435	0.293272	1511.24	92129.2
377	2.000000	1.130061	7.36876e+06	-57489.1	955.822	-29737.2	0.000000	0.000000	7.149690	464.804	NaN	0.000000	0.001632	0.001719	28.0794	98.6311	0.001854	53198.9	2.008964	174.781	460.578	1.129809	0.105371	0.105119	464.804	53198.9	0.098818	0.300700	1545.74	88635.8
377	2.000000	1.132220	7.36876e+06	-57489.1	955.821	-29737.2	0.000000	0.000000	7.153018	493.226	NaN	0.000000	0.001670	0.001719	28.0793	101.598	0.001807	56224.1	5.690164	171.233	495.807	1.131739	0.107529	0.107048	493.226	56224.1	0.100950	0.312324	1579.21	91916.4
377	2.000000	1.132677	7.36876e+06	-57489.1	955.821	-29737.2	0.000000	0.000000	7.153417	491.828	NaN	0.000000	0.001632	0.001746	28.0792	101.76	0.001721	59117.2	4.401433	-8.759662	490.233	1.132401	0.107986	0.107711	491.828	59117.2	0.101747	0.316720	1552.88	95973