File: remote_trans/data/nanoindenter/0828-1/data/Data_2025-08-06,11h17m57s/2025-07-22_16-23-58_1_117.txt
2025-07-22, 16:23:58, 1
Index	Phase	Displacement	Time	Pos X	Pos Y	Pos Z	Rot A	Rot B	Piezo Z	Force A	Force B	Gripper	Voltage A	Voltage B	Temperature	Amplitude force	Amplitude pos	Stiffness	Phase shift	Phase excitation	Force A raw	Displacement raw	HMax	HMax raw	Real Force	Real Stiffness	Contact Depth	Area	Hardness	Reduced Mod.
[#]	[#]	[um]	[s]	[um]	[um]	[um]	[m°]	[m°]	[um]	[uN]	[uN]	[V]	[V]	[V]	[°C]	[uN]	[um]	[N/m]	[°]	[°]	[uN]	[um]	[um]	[um]	[uN]	[N/m]	[um]	[um^2]	[MPa]	[MPa]
117	1.000000	0.002206	7.36618e+06	-44489.1	955.819	-29776.2	0.000000	0.000000	6.002755	0.000573	NaN	0.000000	0.001564	0.001679	28.088	0.029376	0.000953	30.8361	86.4386	-165.902	-0.022280	0.000999	-1.047639	-1.048846	0.000573	30.8361	-1.047653	-9.928102E+13	-5.772125E-18	NaN
117	1.000000	0.010232	7.36618e+06	-44489.1	955.818	-29776.2	0.000000	0.000000	6.010779	-0.057747	NaN	0.000000	0.001559	0.001697	28.0898	0.120275	0.000865	139.009	-58.8195	-171.341	-0.120950	0.008956	-1.039613	-1.040889	-0.057747	139.009	-1.039301	-7.666071E+13	7.532795E-16	NaN
117	1.000000	0.018194	7.36618e+06	-44489.1	955.818	-29776.2	0.000000	0.000000	6.018742	-0.028579	NaN	0.000000	0.001569	0.001735	28.0906	0.120343	0.001649	72.9719	138.144	-163.561	0.009243	0.016904	-1.031651	-1.032941	-0.028579	72.9719	-1.031357	-5.994291E+13	4.767779E-16	NaN
117	1.000000	0.026265	7.36618e+06	-44489.1	955.818	-29776.2	0.000000	0.000000	6.026811	-0.066590	NaN	0.000000	0.001573	0.001704	28.0913	0.038053	0.001883	20.2039	-125.063	-165.323	-0.089906	0.024923	-1.023580	-1.024922	-0.066590	20.2039	-1.021109	-4.363821E+13	1.525967E-15	NaN
117	1.000000	0.034198	7.36618e+06	-44489.1	955.818	-29776.2	0.000000	0.000000	6.034748	0.019097	NaN	0.000000	0.001564	0.001724	28.0912	0.063405	0.001870	33.9081	-156.56	-165.48	-0.003443	0.032904	-1.015647	-1.016941	0.019097	33.9081	-1.016069	-3.733037E+13	-5.115583E-16	NaN
117	1.000000	0.042184	7.36618e+06	-44489.1	955.818	-29776.2	0.000000	0.000000	6.042736	0.066483	NaN	0.000000	0.001566	0.001666	28.0919	0.088888	0.001936	45.9211	59.3167	-163.626	-0.003820	0.040909	-1.007661	-1.008936	0.066483	45.9211	-1.008747	-2.975175E+13	-2.234604E-15	NaN
117	1.000000	0.050214	7.36618e+06	-44489.1	955.818	-29776.2	0.000000	0.000000	6.050763	-0.002143	NaN	0.000000	0.001596	0.001697	28.0895	0.063783	0.002046	31.1687	125.603	-166.98	0.105746	0.048839	-0.999631	-1.001006	-0.002143	31.1687	-0.999580	-2.239290E+13	9.569853E-17	NaN
117	1.000000	0.058221	7.36618e+06	-44489.1	955.818	-29776.2	0.000000	0.000000	6.058770	0.011253	NaN	0.000000	0.001596	0.001706	28.0896	0.116375	0.002054	56.6609	-70.2148	-163.261	-0.023985	0.056934	-0.991624	-0.992911	0.011253	56.6609	-0.991773	-1.757884E+13	-6.401419E-16	NaN
117	1.000000	0.066238	7.36618e+06	-44489.1	955.819	-29776.2	0.000000	0.000000	6.066786	-0.015870	NaN	0.000000	0.001582	0.001705	28.0898	0.061888	0.002010	30.7838	175.096	-163.685	0.013885	0.064906	-0.983607	-0.984939	-0.015870	30.7838	-0.983220	-1.348325E+13	1.177010E-15	NaN
117	1.000000	0.074210	7.36618e+06	-44489.1	955.819	-29776.2	0.000000	0.000000	6.074759	-0.013347	NaN	0.000000	0.001566	0.001718	28.0907	0.033012	0.002125	15.5367	96.1015	-167.172	0.049456	0.072933	-0.975635	-0.976912	-0.013347	15.5367	-0.974990	-1.044512E+13	1.277847E-15	NaN
117	1.000000	0.082222	7.36618e+06	-44489.1	955.818	-29776.2	0.000000	0.000000	6.082769	-0.035646	NaN	0.000000	0.001542	0.001681	28.09	0.138271	0.001912	72.317	175.158	-163.403	-0.047430	0.080882	-0.967623	-0.968963	-0.035646	72.317	-0.967254	-8.215758E+12	4.338793E-15	NaN
117	1.000000	0.090235	7.36618e+06	-44489.1	955.818	-29776.2	0.000000	0.000000	6.090780	-0.080303	NaN	0.000000	0.001574	0.001685	28.0896	0.048912	0.001925	25.4047	-147.237	-162.201	-0.109710	0.088909	-0.959610	-0.960936	-0.080303	25.4047	-0.957240	-6.020774E+12	1.333764E-14	NaN
117	1.000000	0.098218	7.36618e+06	-44489.1	955.818	-29776.2	0.000000	0.000000	6.098766	-0.016497	NaN	0.000000	0.001563	0.001684	28.0904	0.115398	0.001971	58.5483	51.749	-164.946	-0.003899	0.096883	-0.951627	-0.952962	-0.016497	58.5483	-0.951416	-5.024879E+12	3.282973E-15	NaN
117	1.000000	0.106233	7.36618e+06	-44489.1	955.818	-29776.2	0.000000	0.000000	6.106782	-0.000200	NaN	0.000000	0.001603	0.001712	28.0897	0.088819	0.001981	44.8349	178.151	-163.694	0.012846	0.104876	-0.943612	-0.944969	-0.000200	44.8349	-0.943609	-3.942976E+12	5.065553E-17	NaN
117	1.000000	0.114204	7.36618e+06	-44489.1	955.818	-29776.2	0.000000	0.000000	6.114753	0.009768	NaN	0.000000	0.001643	0.001684	28.0906	0.015129	0.002089	7.241992	-55.0678	-164.713	-0.034540	0.112908	-0.935641	-0.936938	0.009768	7.241992	-0.936653	-3.176703E+12	-3.074849E-15	NaN
117	1.000000	0.122224	7.36618e+06	-44489.1	955.819	-29776.2	0.000000	0.000000	6.122773	-0.001269	NaN	0.000000	0.001629	0.001705	28.0916	0.056051	0.002077	26.9925	-74.0226	-161.666	0.031441	0.120909	-0.927621	-0.928936	-0.001269	26.9925	-0.927585	-2.396664E+12	5.296877E-16	NaN
117	1.000000	0.130230	7.36618e+06	-44489.1	955.817	-29776.2	0.000000	0.000000	6.130778	-0.021842	NaN	0.000000	0.001637	0.001702	28.0882	0.070639	0.001956	36.1221	40.4496	-161.861	-0.085397	0.128898	-0.919615	-0.920947	-0.021842	36.1221	-0.919162	-1.844549E+12	1.184136E-14	NaN
117	1.000000	0.138265	7.36618e+06	-44489.1	955.819	-29776.2	0.000000	0.000000	6.138813	-0.015814	NaN	0.000000	0.001656	0.001704	28.0893	0.053526	0.002051	26.096	-68.5018	-164.188	-0.002863	0.136948	-0.911580	-0.912897	-0.015814	26.096	-0.911126	-1.436709E+12	1.100713E-14	NaN
117	1.000000	0.146261	7.36618e+06	-44489.1	955.818	-29776.2	0.000000	0.000000	6.146809	-0.022262	NaN	0.000000	0.001634	0.001683	28.09	0.099914	0.001975	50.5848	-83.3148	-162.1	0.000750	0.144903	-0.903584	-0.904942	-0.022262	50.5848	-0.903254	-1.124678E+12	1.979446E-14	NaN
117	1.000000	0.154244	7.36618e+06	-44489.1	955.818	-29776.2	0.000000	0.000000	6.154791	-0.027820	NaN	0.000000	0.001656	0.001711	28.092	0.115036	0.002003	57.4325	-19.3369	-165.279	0.025038	0.152905	-0.895601	-0.896940	-0.027820	57.4325	-0.895238	-8.764241E+11	3.174299E-14	NaN
117	1.000000	0.162234	7.36618e+06	-44489.1	955.818	-29776.2	0.000000	0.000000	6.162782	-0.037972	NaN	0.000000	0.001655	0.001680	28.0898	0.010456	0.002007	5.210603	95.0497	-166.356	-0.009094	0.160902	-0.887611	-0.888943	-0.037972	5.210603	-0.882145	-5.830610E+11	6.512585E-14	NaN
117	1.000000	0.170270	7.36618e+06	-44489.1	955.818	-29776.2	0.000000	0.000000	6.170818	-0.029924	NaN	0.000000	0.001562	0.001687	28.0906	0.040055	0.002158	18.5595	142.069	-164.819	-0.060788	0.168957	-0.879575	-0.880888	-0.029924	18.5595	-0.878366	-5.183283E+11	5.773170E-14	NaN
117	1.000000	0.178227	7.36618e+06	-44489.1	955.818	-29776.2	0.000000	0.000000	6.178776	-0.003690	NaN	0.000000	0.001597	0.001708	28.0896	0.041735	0.002037	20.493	75.2924	-163.934	-0.011092	0.176896	-0.871618	-0.872949	-0.003690	20.493	-0.871483	-4.183208E+11	8.820141E-15	NaN
117	1.000000	0.186229	7.36618e+06	-44489.1	955.818	-29776.2	0.000000	0.000000	6.186776	-0.045087	NaN	0.000000	0.001578	0.001669	28.09	0.038505	0.002108	18.2659	72.1073	-163.584	-0.079139	0.184942	-0.863616	-0.864903	-0.045087	18.2659	-0.861764	-3.090307E+11	1.458981E-13	NaN
117	1.000000	0.194261	7.36618e+06	-44489.1	955.819	-29776.2	0.000000	0.000000	6.194809	-0.027667	NaN	0.000000	0.001593	0.001695	28.0906	0.074386	0.002097	35.4796	-23.0543	-163.229	-0.028048	0.193005	-0.855584	-0.856840	-0.027667	35.4796	-0.854999	-2.502776E+11	1.105469E-13	NaN
117	1.000000	0.202277	7.36618e+06	-44489.1	955.818	-29776.2	0.000000	0.000000	6.202826	0.010679	NaN	0.000000	0.001605	0.001705	28.0908	0.063309	0.001939	32.6542	145.694	-162.101	-0.013580	0.200943	-0.847568	-0.848902	0.010679	32.6542	-0.847813	-2.000444E+11	-5.338317E-14	NaN
117	1.000000	0.210246	7.36618e+06	-44489.1	955.818	-29776.2	0.000000	0.000000	6.210792	-0.057537	NaN	0.000000	0.001617	0.001673	28.089	0.053837	0.002038	26.4166	109.772	-163.157	-0.028835	0.208969	-0.839599	-0.840876	-0.057537	26.4166	-0.837966	-1.471398E+11	3.910390E-13	NaN
117	1.000000	0.218289	7.36618e+06	-44489.1	955.818	-29776.2	0.000000	0.000000	6.218839	0.027821	NaN	0.000000	0.001608	0.001690	28.0891	0.039375	0.002049	19.2125	-159.213	-164.852	0.074972	0.216970	-0.831556	-0.832875	0.027821	19.2125	-0.832642	-1.246221E+11	-2.232462E-13	NaN
117	1.000000	0.226273	7.36618e+06	-44489.1	955.819	-29776.2	0.000000	0.000000	6.226821	-0.012533	NaN	0.000000	0.001630	0.001675	28.0893	0.053242	0.002102	25.3301	-123.835	-166.637	-0.018472	0.224946	-0.823572	-0.824899	-0.012533	25.3301	-0.823201	-9.281518E+10	1.350315E-13	NaN
117	1.000000	0.234303	7.36618e+06	-44489.1	955.819	-29776.2	0.000000	0.000000	6.234849	-0.067706	NaN	0.000000	0.001623	0.001639	28.0889	0.098522	0.001939	50.8039	72.9017	-163.158	-0.073860	0.232965	-0.815542	-0.816880	-0.067706	50.8039	-0.814543	-7.082674E+10	9.559451E-13	NaN
117	1.000000	0.242298	7.36618e+06	-44489.1	955.818	-29776.2	0.000000	0.000000	6.242849	0.042569	NaN	0.000000	0.001601	0.001677	28.0896	0.065849	0.001933	34.0706	154.362	-162.171	-0.079346	0.241026	-0.807547	-0.808819	0.042569	34.0706	-0.808484	-5.861342E+10	-7.262590E-13	NaN
117	1.000000	0.250274	7.36618e+06	-44489.1	955.818	-29776.2	0.000000	0.000000	6.250819	-0.082294	NaN	0.000000	0.001587	0.001695	28.0909	0.054897	0.002018	27.2071	-6.757989	-167.299	-0.080487	0.248997	-0.799571	-0.800848	-0.082294	27.2071	-0.797303	-4.132839E+10	1.991222E-12	NaN
117	1.000000	0.258296	7.36618e+06	-44489.1	955.819	-29776.2	0.000000	0.000000	6.258841	-0.093191	NaN	0.000000	0.001605	0.001696	28.09	0.079907	0.002021	39.5344	-8.435368	-165.939	-0.038373	0.256995	-0.791549	-0.792850	-0.093191	39.5344	-0.789781	-3.266685E+10	2.852766E-12	NaN
117	1.000000	0.266308	7.36618e+06	-44489.1	955.818	-29776.2	0.000000	0.000000	6.266857	0.000512	NaN	0.000000	0.001618	0.001699	28.0916	0.016688	0.001930	8.646804	-61.6268	-163.428	-0.019046	0.264942	-0.783537	-0.784903	0.000512	8.646804	-0.783582	-2.690901E+10	-1.903036E-14	NaN
117	1.000000	0.274281	7.36618e+06	-44489.1	955.818	-29776.2	0.000000	0.000000	6.274829	-0.015824	NaN	0.000000	0.001598	0.001701	28.0913	0.078713	0.001890	41.6447	-49.0305	-164.264	-0.022440	0.273010	-0.775564	-0.776835	-0.015824	41.6447	-0.775279	-2.075275E+10	7.624934E-13	NaN
117	1.000000	0.282284	7.36618e+06	-44489.1	955.819	-29776.2	0.000000	0.000000	6.282834	0.020875	NaN	0.000000	0.001622	0.001706	28.0916	0.042349	0.002063	20.5276	158.79	-163.788	-0.100565	0.281045	-0.767561	-0.768800	0.020875	20.5276	-0.768323	-1.669197E+10	-1.250594E-12	NaN
117	1.000000	0.290311	7.36618e+06	-44489.1	955.819	-29776.2	0.000000	0.000000	6.290860	-0.003579	NaN	0.000000	0.001626	0.001730	28.0907	0.064829	0.002121	30.5638	113.876	-165.066	-0.008269	0.288985	-0.759534	-0.760860	-0.003579	30.5638	-0.759446	-1.264070E+10	2.831220E-13	NaN
117	1.000000	0.298286	7.36618e+06	-44489.1	955.817	-29776.2	0.000000	0.000000	6.298836	0.031051	NaN	0.000000	0.001574	0.001738	28.0907	0.063581	0.001890	33.6348	92.5349	-165.149	0.089446	0.296965	-0.751559	-0.752880	0.031051	33.6348	-0.752251	-1.008931E+10	-3.077642E-12	NaN
117	1.000000	0.306340	7.36618e+06	-44489.1	955.819	-29776.2	0.000000	0.000000	6.306886	-0.060319	NaN	0.000000	0.001567	0.001724	28.0918	0.032642	0.002120	15.3956	-16.877	-164.194	-0.033425	0.305015	-0.743505	-0.744830	-0.060319	15.3956	-0.740567	-6.994858E+9	8.623400E-12	NaN
117	1.000000	0.314340	7.36618e+06	-44489.1	955.818	-29776.2	0.000000	0.000000	6.314887	-0.028769	NaN	0.000000	0.001608	0.001708	28.0906	0.050321	0.002054	24.493	-134.652	-163.462	-0.010090	0.312995	-0.735505	-0.736850	-0.028769	24.493	-0.734625	-5.805328E+9	4.955566E-12	NaN
117	1.000000	0.322308	7.36618e+06	-44489.1	955.818	-29776.2	0.000000	0.000000	6.322858	0.034186	NaN	0.000000	0.001599	0.001663	28.0911	0.068266	0.002056	33.1991	147.559	-161.867	0.024175	0.320945	-0.727537	-0.728900	0.034186	33.1991	-0.728310	-4.761794E+9	-7.179299E-12	NaN
117	1.000000	0.330289	7.36618e+06	-44489.1	955.818	-29776.2	0.000000	0.000000	6.330839	0.021254	NaN	0.000000	0.001622	0.001685	28.0919	0.041871	0.002113	19.8136	-36.7442	-165.75	-0.037393	0.328974	-0.719556	-0.720871	0.021254	19.8136	-0.720361	-3.710150E+9	-5.728630E-12	NaN
117	1.000000	0.338335	7.36618e+06	-44489.1	955.819	-29776.2	0.000000	0.000000	6.338884	0.006005	NaN	0.000000	0.001588	0.001674	28.0928	0.042090	0.002029	20.7423	-125.321	-165.707	0.027467	0.337052	-0.711510	-0.712793	0.006005	20.7423	-0.711728	-2.828933E+9	-2.122694E-12	NaN
117	1.000000	0.346315	7.36618e+06	-44489.1	955.819	-29776.2	0.000000	0.000000	6.346863	-0.015386	NaN	0.000000	0.001596	0.001722	28.0923	0.101034	0.001986	50.8788	121.027	-168.26	-0.058984	0.345067	-0.703530	-0.704778	-0.015386	50.8788	-0.703303	-2.170894E+9	7.087328E-12	NaN
117	1.000000	0.354336	7.36618e+06	-44489.1	955.818	-29776.2	0.000000	0.000000	6.354886	0.024863	NaN	0.000000	0.001627	0.001690	28.0916	0.043443	0.002081	20.8754	146.32	-163.583	-0.070955	0.352985	-0.695509	-0.696860	0.024863	20.8754	-0.696402	-1.747407E+9	-1.422855E-11	NaN
117	1.000000	0.362311	7.36618e+06	-44489.1	955.819	-29776.2	0.000000	0.000000	6.362858	-0.047831	NaN	0.000000	0.001631	0.001695	28.0925	0.169855	0.001953	86.9804	142.991	-162.676	-0.038574	0.361020	-0.687534	-0.688826	-0.047831	86.9804	-0.687122	-1.304912E+9	3.665434E-11	NaN
117	1.000000	0.370330	7.36618e+06	-44489.1	955.819	-29776.2	0.000000	0.000000	6.370879	-0.007209	NaN	0.000000	0.001652	0.001717	28.0913	0.097794	0.002051	47.6812	-17.4173	-169.352	0.009296	0.369006	-0.679515	-0.680839	-0.007209	47.6812	-0.679401	-1.023334E+9	7.044246E-12	NaN
117	1.000000	0.378378	7.36618e+06	-44489.1	955.819	-29776.2	0.000000	0.000000	6.378924	-0.056428	NaN	0.000000	0.001607	0.001692	28.0911	0.021483	0.001963	10.946	134.306	-165.387	-0.134696	0.376958	-0.671467	-0.672887	-0.056428	10.946	-0.667601	-7.055899E+8	7.997244E-11	NaN
117	1.000000	0.386357	7.36618e+06	-44489.1	955.819	-29776.2	0.000000	0.000000	6.386906	-0.003722	NaN	0.000000	0.001613	0.001711	28.0906	0.042245	0.001982	21.3193	-16.9795	-166.974	-0.045595	0.385027	-0.663488	-0.664818	-0.003722	21.3193	-0.663357	-6.172317E+8	6.029979E-12	NaN
117	1.000000	0.394321	7.36618e+06	-44489.1	955.818	-29776.2	0.000000	0.000000	6.394870	0.020219	NaN	0.000000	0.001646	0.001712	28.0919	0.025405	0.001995	12.737	16.5808	-164.7	-0.035284	0.392989	-0.655524	-0.656856	0.020219	12.737	-0.656715	-5.005689E+8	-4.039131E-11	NaN
117	1.000000	0.402376	7.36618e+06	-44489.1	955.818	-29776.2	0.000000	0.000000	6.402924	-0.015552	NaN	0.000000	0.001594	0.001702	28.0911	0.030434	0.002073	14.6845	-76.7354	-165.798	-0.064826	0.401099	-0.647469	-0.648746	-0.015552	14.6845	-0.646675	-3.646218E+8	4.265374E-11	NaN
117	1.000000	0.410367	7.36618e+06	-44489.1	955.818	-29776.2	0.000000	0.000000	6.410913	-0.062854	NaN	0.000000	0.001617	0.001694	28.0927	0.118248	0.001956	60.4571	-138.641	-164.531	-0.023252	0.409086	-0.639478	-0.640759	-0.062854	60.4571	-0.638698	-2.834175E+8	2.217716E-10	NaN
117	1.000000	0.418365	7.36618e+06	-44489.1	955.818	-29776.2	0.000000	0.000000	6.418913	-0.015097	NaN	0.000000	0.001623	0.001711	28.0904	0.146413	0.002042	71.6858	-153.31	-165.303	-0.087885	0.417020	-0.631480	-0.632825	-0.015097	71.6858	-0.631322	-2.244824E+8	6.725273E-11	NaN
117	1.000000	0.426375	7.36618e+06	-44489.1	955.818	-29776.2	0.000000	0.000000	6.426923	-0.023972	NaN	0.000000	0.001665	0.001657	28.0911	0.087189	0.001992	43.7802	-162.923	-166.223	-0.079031	0.425050	-0.623470	-0.624795	-0.023972	43.7802	-0.623060	-1.728563E+8	1.386788E-10	NaN
117	1.000000	0.434366	7.36618e+06	-44489.1	955.818	-29776.2	0.000000	0.000000	6.434913	-0.053276	NaN	0.000000	0.001621	0.001715	28.0916	0.016548	0.002027	8.164919	-109.373	-163.616	0.015697	0.432994	-0.615479	-0.616851	-0.053276	8.164919	-0.610585	-1.164579E+8	4.574698E-10	NaN
117	1.000000	0.442381	7.36618e+06	-44489.1	955.819	-29776.2	0.000000	0.000000	6.442928	-0.044782	NaN	0.000000	0.001662	0.001725	28.0916	0.079699	0.001947	40.9391	72.6405	-165.494	-0.049581	0.441088	-0.607464	-0.608757	-0.044782	40.9391	-0.606644	-1.027855E+8	4.356803E-10	NaN
117	1.000000	0.450411	7.36618e+06	-44489.1	955.818	-29776.2	0.000000	0.000000	6.450960	-0.011869	NaN	0.000000	0.001606	0.001676	28.0912	0.039828	0.002024	19.6819	-115.946	-162.509	0.004280	0.449060	-0.599434	-0.600785	-0.011869	19.6819	-0.598981	-8.061766E+7	1.472231E-10	NaN
117	1.000000	0.458410	7.36618e+06	-44489.1	955.818	-29776.2	0.000000	0.000000	6.458959	-0.008373	NaN	0.000000	0.001631	0.001692	28.0907	0.090472	0.001963	46.0823	150.063	-164.58	0.007946	0.457059	-0.591435	-0.592786	-0.008373	46.0823	-0.591298	-6.317772E+7	1.325349E-10	NaN
117	1.000000	0.466392	7.36618e+06	-44489.1	955.819	-29776.2	0.000000	0.000000	6.466939	-0.046635	NaN	0.000000	0.001633	0.001634	28.0901	0.078379	0.001921	40.8002	10.8493	-165.798	-0.004633	0.465055	-0.583453	-0.584790	-0.046635	40.8002	-0.582596	-4.792330E+7	9.731250E-10	NaN
117	1.000000	0.474360	7.36618e+06	-44489.1	955.818	-29776.2	0.000000	0.000000	6.474907	-0.042144	NaN	0.000000	0.001636	0.001690	28.0899	0.102456	0.001947	52.6345	13.6184	-165.821	-0.004635	0.473021	-0.575485	-0.576824	-0.042144	52.6345	-0.574885	-3.750650E+7	1.123649E-9	NaN
117	1.000000	0.482400	7.36618e+06	-44489.1	955.819	-29776.2	0.000000	0.000000	6.482948	-0.020193	NaN	0.000000	0.001625	0.001680	28.0903	0.036640	0.002091	17.5269	7.816895	-165.276	-0.011233	0.481034	-0.567445	-0.568811	-0.020193	17.5269	-0.566581	-2.879887E+7	7.011802E-10	NaN
117	1.000000	0.490369	7.36618e+06	-44489.1	955.818	-29776.2	0.000000	0.000000	6.490917	-0.015792	NaN	0.000000	0.001615	0.001669	28.0924	0.048380	0.002088	23.1655	155.894	-163.471	0.034849	0.489110	-0.559476	-0.560735	-0.015792	23.1655	-0.558965	-2.259715E+7	6.988371E-10	NaN
117	1.000000	0.498369	7.36618e+06	-44489.1	955.819	-29776.2	0.000000	0.000000	6.498917	-0.022763	NaN	0.000000	0.001637	0.001699	28.0915	0.142626	0.002017	70.7067	129.12	-166.903	0.026313	0.497072	-0.551476	-0.552773	-0.022763	70.7067	-0.551234	-1.766238E+7	1.288772E-9	NaN
117	1.000000	0.506407	7.36618e+06	-44489.1	955.818	-29776.2	0.000000	0.000000	6.506955	-0.021677	NaN	0.000000	0.001656	0.001706	28.0919	0.117361	0.001996	58.7991	9.503435	-163.837	-0.042002	0.505059	-0.543438	-0.544786	-0.021677	58.7991	-0.543161	-1.365187E+7	1.587824E-9	NaN
117	1.000000	0.514389	7.36618e+06	-44489.1	955.818	-29776.2	0.000000	0.000000	6.514939	0.009031	NaN	0.000000	0.001624	0.001716	28.0916	0.111720	0.002058	54.2847	-116.926	-164.401	-0.094394	0.513092	-0.535456	-0.536753	0.009031	54.2847	-0.535580	-1.071633E+7	-8.427441E-10	NaN
117	1.000000	0.522406	7.36618e+06	-44489.1	955.818	-29776.2	0.000000	0.000000	6.522955	0.001530	NaN	0.000000	0.001630	0.001674	28.0918	0.091330	0.001969	46.3841	165.673	-161.699	0.060874	0.521093	-0.527439	-0.528752	0.001530	46.3841	-0.527464	-8.26693e+06	-1.850891E-10	NaN
117	1.000000	0.530393	7.36618e+06	-44489.1	955.819	-29776.2	0.000000	0.000000	6.530939	-0.054145	NaN	0.000000	0.001644	0.001695	28.0911	0.116581	0.001999	58.3051	71.5047	-165.065	-0.081229	0.529144	-0.519452	-0.520701	-0.054145	58.3051	-0.518756	-6.25592e+06	8.655038E-9	NaN
117	1.000000	0.538394	7.36618e+06	-44489.1	955.819	-29776.2	0.000000	0.000000	6.538942	-0.040811	NaN	0.000000	0.001608	0.001678	28.0909	0.064526	0.001994	32.3532	34.4327	-166.707	-0.010779	0.537111	-0.511451	-0.512734	-0.040811	32.3532	-0.510505	-4.80225e+06	8.498258E-9	NaN
117	1.000000	0.546407	7.36618e+06	-44489.1	955.818	-29776.2	0.000000	0.000000	6.546957	0.028947	NaN	0.000000	0.001592	0.001695	28.0905	0.099644	0.002046	48.7015	170.44	-163.658	0.006281	0.545098	-0.503438	-0.504748	0.028947	48.7015	-0.503884	-3.88315e+06	-7.454477E-9	NaN
117	1.000000	0.554418	7.36618e+06	-44489.1	955.818	-29776.2	0.000000	0.000000	6.554968	0.010190	NaN	0.000000	0.001637	0.001667	28.0915	0.072963	0.002018	36.1624	66.1714	-167.202	0.041972	0.553092	-0.495427	-0.496753	0.010190	36.1624	-0.495638	-2.97948e+06	-3.419904E-9	NaN
117	1.000000	0.562402	7.36618e+06	-44489.1	955.818	-29776.2	0.000000	0.000000	6.562950	-0.025471	NaN	0.000000	0.001654	0.001700	28.0923	0.053699	0.002005	26.7811	-139.877	-165.065	-0.120679	0.561135	-0.487443	-0.488710	-0.025471	26.7811	-0.486730	-2.23709e+06	1.138557E-8	NaN
117	1.000000	0.570435	7.36618e+06	-44489.1	955.818	-29776.2	0.000000	0.000000	6.570982	-0.036095	NaN	0.000000	0.001595	0.001706	28.0923	0.072212	0.001951	37.0215	81.0225	-163.705	-0.024025	0.569151	-0.479410	-0.480694	-0.036095	37.0215	-0.478679	-1.72597e+06	2.091291E-8	NaN
117	1.000000	0.578443	7.36618e+06	-44489.1	955.819	-29776.2	0.000000	0.000000	6.578990	-0.055781	NaN	0.000000	0.001626	0.001705	28.0932	0.007952	0.002072	3.837898	43.8572	-164.668	-0.027922	0.577050	-0.471402	-0.472795	-0.055781	3.837898	-0.460501	-959534	5.813332E-8	NaN
117	1.000000	0.586437	7.36618e+06	-44489.1	955.818	-29776.2	0.000000	0.000000	6.586987	0.021724	NaN	0.000000	0.001620	0.001666	28.0937	0.039581	0.002047	19.3314	47.4504	-166.306	0.038223	0.585154	-0.463408	-0.464691	0.021724	19.3314	-0.464250	-1.08324e+06	-2.005501E-8	NaN
117	1.000000	0.594451	7.36618e+06	-44489.1	955.818	-29776.2	0.000000	0.000000	6.595000	0.017896	NaN	0.000000	0.001664	0.001693	28.0926	0.094668	0.001889	50.1192	52.6775	-164.951	-0.045062	0.593127	-0.455394	-0.456718	0.017896	50.1192	-0.455662	-820410	-2.181373E-8	NaN
117	1.000000	0.602452	7.36618e+06	-44489.1	955.818	-29776.2	0.000000	0.000000	6.603000	-0.003312	NaN	0.000000	0.001620	0.001668	28.092	0.034383	0.002069	16.622	14.9439	-166.948	-0.020467	0.601121	-0.447393	-0.448724	-0.003312	16.622	-0.447244	-624481	5.303971E-9	NaN
117	1.000000	0.610462	7.36618e+06	-44489.1	955.818	-29776.2	0.000000	0.000000	6.611010	-0.034473	NaN	0.000000	0.001583	0.001684	28.0917	0.099008	0.002029	48.7935	150.638	-166.147	-0.030542	0.609153	-0.439383	-0.440692	-0.034473	48.7935	-0.438853	-475525	7.249357E-8	NaN
117	1.000000	0.618455	7.36618e+06	-44489.1	955.818	-29776.2	0.000000	0.000000	6.619003	-0.010049	NaN	0.000000	0.001585	0.001677	28.0923	0.088185	0.002138	41.2562	-150.895	-165.137	0.016518	0.617131	-0.431390	-0.432714	-0.010049	41.2562	-0.431207	-370801	2.710036E-8	NaN
117	1.000000	0.626417	7.36618e+06	-44489.1	955.819	-29776.2	0.000000	0.000000	6.626964	-0.046166	NaN	0.000000	0.001603	0.001721	28.0915	0.012898	0.001983	6.505200	-113.016	-164.293	-0.076566	0.625093	-0.423428	-0.424752	-0.046166	6.505200	-0.418105	-241842	1.908954E-7	NaN
117	1.000000	0.634472	7.36618e+06	-44489.1	955.818	-29776.2	0.000000	0.000000	6.635020	-0.033976	NaN	0.000000	0.001616	0.001693	28.0928	0.045842	0.002014	22.758	-129.656	-165.896	-0.017223	0.633164	-0.415373	-0.416681	-0.033976	22.758	-0.414253	-213228	1.593405E-7	NaN
117	1.000000	0.642445	7.36618e+06	-44489.1	955.818	-29776.2	0.000000	0.000000	6.642992	-0.048645	NaN	0.000000	0.001613	0.001671	28.0929	0.113685	0.002007	56.6326	-140.91	-166.066	-0.018228	0.641165	-0.407400	-0.408680	-0.048645	56.6326	-0.406756	-166818	2.916031E-7	NaN
117	1.000000	0.650435	7.36618e+06	-44489.1	955.818	-29776.2	0.000000	0.000000	6.650981	-0.068322	NaN	0.000000	0.001614	0.001702	28.0936	0.065486	0.002006	32.6465	77.5967	-165.418	-0.092271	0.649145	-0.399410	-0.400700	-0.068322	32.6465	-0.397840	-124504	5.487512E-7	NaN
117	1.000000	0.658457	7.36618e+06	-44489.1	955.819	-29776.2	0.000000	0.000000	6.659009	0.086925	NaN	0.000000	0.001650	0.001707	28.0938	0.075132	0.002000	37.5665	-11.3653	-161.145	0.046318	0.657121	-0.391388	-0.392724	0.086925	37.5665	-0.393124	-106617	-8.152947E-7	NaN
117	1.000000	0.666488	7.36618e+06	-44489.1	955.819	-29776.2	0.000000	0.000000	6.667038	0.041233	NaN	0.000000	0.001639	0.001690	28.0932	0.112533	0.002059	54.6585	89.0131	-162.6	-0.002367	0.665154	-0.383357	-0.384691	0.041233	54.6585	-0.383923	-78732.9	-5.237061E-7	NaN
117	1.000000	0.674493	7.36618e+06	-44489.1	955.819	-29776.2	0.000000	0.000000	6.675040	-0.024698	NaN	0.000000	0.001610	0.001706	28.0932	0.051560	0.002013	25.6102	57.0011	-163.104	0.055772	0.673185	-0.375352	-0.376660	-0.024698	25.6102	-0.374629	-57908.2	4.265043E-7	NaN
117	1.000000	0.682487	7.36618e+06	-44489.1	955.818	-29776.2	0.000000	0.000000	6.683034	-0.026022	NaN	0.000000	0.001611	0.001673	28.0935	0.067277	0.002022	33.2643	-15.2632	-165.414	0.007486	0.681188	-0.367358	-0.368657	-0.026022	33.2643	-0.366772	-44628	5.830829E-7	NaN
117	1.000000	0.690464	7.36618e+06	-44489.1	955.818	-29776.2	0.000000	0.000000	6.691012	-0.007951	NaN	0.000000	0.001616	0.001684	28.0899	0.073900	0.002054	35.9718	-169.01	-163.88	0.056143	0.689136	-0.359381	-0.360710	-0.007951	35.9718	-0.359216	-34714	2.290402E-7	NaN
117	1.000000	0.698492	7.36619e+06	-44489.1	955.818	-29776.2	0.000000	0.000000	6.699043	0.046454	NaN	0.000000	0.001655	0.001679	28.0906	0.049765	0.002012	24.7399	-100.18	-163.721	0.031035	0.697174	-0.351353	-0.352671	0.046454	24.7399	-0.352762	-27993.6	-1.659438E-6	NaN
117	1.000000	0.706482	7.36619e+06	-44489.1	955.818	-29776.2	0.000000	0.000000	6.707033	0.038318	NaN	0.000000	0.001618	0.001717	28.0908	0.109016	0.002024	53.853	-68.8385	-164.267	-0.042685	0.705138	-0.343363	-0.344707	0.038318	53.853	-0.343896	-20811.3	-1.841207E-6	NaN
117	1.000000	0.714484	7.36619e+06	-44489.1	955.818	-29776.2	0.000000	0.000000	6.715033	0.004204	NaN	0.000000	0.001619	0.001685	28.0899	0.084367	0.002032	41.5193	-148.739	-167.74	-0.038726	0.713151	-0.335361	-0.336694	0.004204	41.5193	-0.335437	-15666.5	-2.683147E-7	NaN
117	1.000000	0.722495	7.36619e+06	-44489.1	955.817	-29776.2	0.000000	0.000000	6.723045	0.010700	NaN	0.000000	0.001614	0.001722	28.0903	0.082302	0.001854	44.3967	24.896	-165.903	-0.015093	0.721210	-0.327350	-0.328635	0.010700	44.3967	-0.327530	-12002.3	-8.915259E-7	NaN
117	1.000000	0.730519	7.36619e+06	-44489.1	955.82	-29776.2	0.000000	0.000000	6.731065	-0.058076	NaN	0.000000	0.001623	0.001675	28.0914	0.086923	0.002050	42.3983	17.2737	-163.198	-0.024958	0.729143	-0.319326	-0.320702	-0.058076	42.3983	-0.318299	-8781.92	6.613110E-6	NaN
117	1.000000	0.738487	7.36619e+06	-44489.1	955.818	-29776.2	0.000000	0.000000	6.739035	-0.039117	NaN	0.000000	0.001666	0.001710	28.0921	0.022139	0.002034	10.887	78.8411	-168.675	-0.035817	0.737176	-0.311358	-0.312669	-0.039117	10.887	-0.308663	-6327.9	6.181743E-6	NaN
117	1.000000	0.746484	7.36619e+06	-44489.1	955.818	-29776.2	0.000000	0.000000	6.747032	-0.027675	NaN	0.000000	0.001702	0.001724	28.0923	0.027022	0.001947	13.8795	-150.107	-162.789	-0.014437	0.745199	-0.303361	-0.304646	-0.027675	13.8795	-0.301865	-5016.38	5.517027E-6	NaN
117	1.000000	0.754513	7.36619e+06	-44489.1	955.818	-29776.2	0.000000	0.000000	6.755062	0.007695	NaN	0.000000	0.001729	0.001693	28.0919	0.124445	0.002003	62.1152	30.6665	-162.38	0.026930	0.753184	-0.295332	-0.296661	0.007695	62.1152	-0.295425	-4021.93	-1.913286E-6	NaN
117	1.000000	0.762510	7.36619e+06	-44489.1	955.819	-29776.2	0.000000	0.000000	6.763057	-0.053501	NaN	0.000000	0.001661	0.001671	28.0923	0.113701	0.001982	57.3733	-167.899	-165.506	-0.168056	0.761240	-0.287335	-0.288605	-0.053501	57.3733	-0.286635	-2970.56	1.801045E-5	NaN
117	1.000000	0.770509	7.36619e+06	-44489.1	955.818	-29776.2	0.000000	0.000000	6.771061	0.052480	NaN	0.000000	0.001651	0.001724	28.091	0.067934	0.001949	34.851	-154.952	-164.792	0.038667	0.769162	-0.279336	-0.280683	0.052480	34.851	-0.280465	-2398.74	-2.187834E-5	NaN
117	1.000000	0.778511	7.36619e+06	-44489.1	955.819	-29776.2	0.000000	0.000000	6.779058	-0.055089	NaN	0.000000	0.001678	0.001722	28.0911	0.020113	0.002060	9.764464	96.7887	-164.578	-0.031257	0.777174	-0.271334	-0.272671	-0.055089	9.764464	-0.267103	-1504.71	3.661095E-5	NaN
117	1.000000	0.786543	7.36619e+06	-44489.1	955.818	-29776.2	0.000000	0.000000	6.787092	-0.000748	NaN	0.000000	0.001673	0.001666	28.0916	0.027585	0.002079	13.2663	-145.328	-164.246	0.027288	0.785220	-0.263302	-0.264625	-0.000748	13.2663	-0.263260	-1314.64	5.691758E-7	NaN
117	1.000000	0.794514	7.36619e+06	-44489.1	955.818	-29776.2	0.000000	0.000000	6.795062	-0.016136	NaN	0.000000	0.001666	0.001727	28.0911	0.089385	0.002092	42.7289	-65.2312	-168.591	0.059960	0.793209	-0.255331	-0.256636	-0.016136	42.7289	-0.255048	-983.686	1.640402E-5	NaN
117	1.000000	0.802500	7.36619e+06	-44489.1	955.818	-29776.2	0.000000	0.000000	6.803049	0.020332	NaN	0.000000	0.001650	0.001725	28.0919	0.067424	0.001903	35.422	-81.8993	-163.76	0.003517	0.801238	-0.247345	-0.248607	0.020332	35.422	-0.247776	-759.51	-2.676980E-5	NaN
117	1.000000	0.810496	7.36619e+06	-44489.1	955.819	-29776.2	0.000000	0.000000	6.811041	-0.099362	NaN	0.000000	0.001667	0.001687	28.0928	0.073751	0.002002	36.8406	-46.0461	-164.349	-0.096456	0.809235	-0.239349	-0.240610	-0.099362	36.8406	-0.237326	-522.064	0.000190	NaN
117	1.000000	0.818503	7.36619e+06	-44489.1	955.818	-29776.2	0.000000	0.000000	6.819052	-0.015692	NaN	0.000000	0.001597	0.001682	28.0926	0.022807	0.001997	11.4176	-24.6557	-159.696	-0.061895	0.817191	-0.231342	-0.232654	-0.015692	11.4176	-0.230311	-404.972	3.874952E-5	NaN
117	1.000000	0.826535	7.36619e+06	-44489.1	955.818	-29776.2	0.000000	0.000000	6.827083	-0.039437	NaN	0.000000	0.001618	0.001686	28.093	0.074939	0.001969	38.0538	122.645	-166.005	-0.022181	0.825199	-0.223310	-0.224646	-0.039437	38.0538	-0.222532	-304.847	0.000129	NaN
117	1.000000	0.834545	7.36619e+06	-44489.1	955.819	-29776.2	0.000000	0.000000	6.835093	-0.026146	NaN	0.000000	0.001600	0.001684	28.0937	0.123883	0.001967	62.9922	-68.1466	-161.721	0.026067	0.833207	-0.215300	-0.216638	-0.026146	62.9922	-0.214989	-230.85	0.000113	NaN
117	1.000000	0.842538	7.36619e+06	-44489.1	955.819	-29776.2	0.000000	0.000000	6.843088	0.016661	NaN	0.000000	0.001592	0.001668	28.0934	0.048700	0.001991	24.4631	-16.8181	-164.548	-0.051720	0.841197	-0.207307	-0.208648	0.016661	24.4631	-0.207818	-176.776	-9.424790E-5	NaN
117	1.000000	0.850541	7.36619e+06	-44489.1	955.819	-29776.2	0.000000	0.000000	6.851088	-0.043133	NaN	0.000000	0.001630	0.001702	28.093	0.092351	0.001980	46.6448	-153.95	-160.786	-0.025421	0.849212	-0.199304	-0.200633	-0.043133	46.6448	-0.198610	-124.979	0.000345	NaN
117	1.000000	0.858564	7.36619e+06	-44489.1	955.818	-29776.2	0.000000	0.000000	6.859111	-0.028964	NaN	0.000000	0.001635	0.001669	28.0927	0.025102	0.001976	12.7025	-165.726	-165.554	-0.032520	0.857272	-0.191281	-0.192573	-0.028964	12.7025	-0.189571	-88.4833	0.000327	NaN
117	1.000000	0.866552	7.36619e+06	-44489.1	955.818	-29776.2	0.000000	0.000000	6.867102	0.031531	NaN	0.000000	0.001622	0.001660	28.0925	0.010877	0.001952	5.571416	-8.101837	-163.396	0.039977	0.865207	-0.183293	-0.184638	0.031531	5.571416	-0.187538	-81.8099	-0.000385	NaN
117	1.000000	0.874547	7.36619e+06	-44489.1	955.819	-29776.2	0.000000	0.000000	6.875096	0.009139	NaN	0.000000	0.001643	0.001672	28.0928	0.041991	0.001971	21.2994	9.258807	-165.705	-0.005392	0.873272	-0.175298	-0.176573	0.009139	21.2994	-0.175620	-51.3606	-0.000178	NaN
117	1.000000	0.882550	7.36619e+06	-44489.1	955.818	-29776.2	0.000000	0.000000	6.883098	-0.027220	NaN	0.000000	0.001626	0.001670	28.0932	0.066445	0.002111	31.4722	166.915	-163.318	-0.022711	0.881275	-0.167295	-0.168570	-0.027220	31.4722	-0.166647	-35.9058	0.000758	NaN
117	1.000000	0.890560	7.36619e+06	-44489.1	955.818	-29776.2	0.000000	0.000000	6.891110	0.015660	NaN	0.000000	0.001603	0.001694	28.0945	0.074730	0.001899	39.343	14.0312	-166.579	0.044141	0.889304	-0.159285	-0.160541	0.015660	39.343	-0.159583	-26.9512	-0.000581	NaN
117	1.000000	0.898586	7.36619e+06	-44489.1	955.817	-29776.2	0.000000	0.000000	6.899133	-0.047944	NaN	0.000000	0.001618	0.001700	28.0931	0.130954	0.001951	67.121	71.0678	-164.298	-0.071226	0.897230	-0.151259	-0.152615	-0.047944	67.121	-0.150723	-18.6714	0.002568	NaN
117	1.000000	0.906570	7.36619e+06	-44489.1	955.819	-29776.2	0.000000	0.000000	6.907119	0.008525	NaN	0.000000	0.001610	0.001700	28.0935	0.076641	0.002018	37.9853	-131.321	-163.176	0.019991	0.905293	-0.143275	-0.144552	0.008525	37.9853	-0.143444	-13.7185	-0.000621	NaN
117	1.000000	0.914553	7.36619e+06	-44489.1	955.818	-29776.2	0.000000	0.000000	6.915100	-0.044106	NaN	0.000000	0.001644	0.001723	28.094	0.052497	0.002128	24.6717	-172.717	-163.151	-0.106558	0.913245	-0.135292	-0.136600	-0.044106	24.6717	-0.133951	-9.083029	0.004856	NaN
117	1.000000	0.922549	7.36619e+06	-44489.1	955.818	-29776.2	0.000000	0.000000	6.923095	-0.070946	NaN	0.000000	0.001647	0.001693	28.0944	0.110353	0.001771	62.301	-7.208248	-164.763	-0.048876	0.921251	-0.127296	-0.128594	-0.070946	62.301	-0.126442	-6.493124	0.010926	NaN
117	1.000000	0.930601	7.36619e+06	-44489.1	955.818	-29776.2	0.000000	0.000000	6.931152	0.055262	NaN	0.000000	0.001648	0.001693	28.0938	0.031486	0.001912	16.4637	-33.0968	-165.339	0.001855	0.929294	-0.119244	-0.120551	0.055262	16.4637	-0.121761	-5.242097	-0.010542	NaN
117	1.000000	0.938590	7.36619e+06	-44489.1	955.818	-29776.2	0.000000	0.000000	6.939138	-0.028090	NaN	0.000000	0.001644	0.001706	28.0929	0.088539	0.001950	45.4148	-83.2332	-163.052	-0.040652	0.937263	-0.111255	-0.112582	-0.028090	45.4148	-0.110791	-3.122670	0.008996	NaN
117	1.000000	0.946607	7.36619e+06	-44489.1	955.818	-29776.2	0.000000	0.000000	6.947154	-0.057144	NaN	0.000000	0.001632	0.001711	28.0936	0.064268	0.002002	32.1072	-101.99	-164.599	0.004447	0.945280	-0.103238	-0.104565	-0.057144	32.1072	-0.101903	-2.012556	0.028394	NaN
117	1.000000	0.954590	7.36619e+06	-44489.1	955.819	-29776.2	0.000000	0.000000	6.955135	-0.097493	NaN	0.000000	0.001611	0.001702	28.0924	0.080333	0.001960	40.981	122.14	-167.543	-0.043108	0.953272	-0.095255	-0.096573	-0.097493	40.981	-0.093471	-1.301415	0.074913	NaN
117	1.000000	0.962579	7.36619e+06	-44489.1	955.818	-29776.2	0.000000	0.000000	6.963127	-0.040485	NaN	0.000000	0.001625	0.001728	28.0926	0.081949	0.002136	38.357	134.965	-167.83	-0.053032	0.961244	-0.087266	-0.088601	-0.040485	38.357	-0.086474	-0.891634	0.045406	NaN
117	1.000000	0.970596	7.36619e+06	-44489.1	955.818	-29776.2	0.000000	0.000000	6.971144	-0.029961	NaN	0.000000	0.001653	0.001716	28.0929	0.070382	0.002095	33.5967	-165.337	-162.05	0.012615	0.969254	-0.079249	-0.080591	-0.029961	33.5967	-0.078580	-0.570177	0.052546	NaN
117	1.000000	0.978596	7.36619e+06	-44489.1	955.818	-29776.2	0.000000	0.000000	6.979145	-0.008342	NaN	0.000000	0.001592	0.001719	28.0917	0.016122	0.001963	8.214578	44.8348	-164.546	-0.009537	0.977304	-0.071249	-0.072541	-0.008342	8.214578	-0.070487	-0.351494	0.023732	NaN
117	1.000000	0.986564	7.36619e+06	-44489.1	955.817	-29776.2	0.000000	0.000000	6.987112	-0.003341	NaN	0.000000	0.001614	0.001721	28.0932	0.021518	0.001960	10.9793	-98.4228	-165.102	0.022613	0.985334	-0.063281	-0.064511	-0.003341	10.9793	-0.063053	-0.219891	0.015193	NaN
117	1.000000	0.994609	7.36619e+06	-44489.1	955.818	-29776.2	0.000000	0.000000	6.995154	-0.092309	NaN	0.000000	0.001572	0.001699	28.093	0.042301	0.001991	21.2442	-115.894	-162.665	-0.047428	0.993281	-0.055236	-0.056564	-0.092309	21.2442	-0.051977	-0.104665	0.881951	NaN
117	1.000000	1.002614	7.36619e+06	-44489.1	955.818	-29776.2	0.000000	0.000000	7.003162	-0.029997	NaN	0.000000	0.001619	0.001701	28.0929	0.082901	0.001965	42.1936	105.16	-165.503	0.079500	1.001294	-0.047231	-0.048551	-0.029997	42.1936	-0.046698	-0.072421	0.414196	NaN
117	1.000000	1.010612	7.36619e+06	-44489.1	955.817	-29776.2	0.000000	0.000000	7.011157	-0.099311	NaN	0.000000	0.001626	0.001766	28.0923	0.109123	0.002014	54.1706	-17.6654	-163.493	-0.033205	1.009300	-0.039233	-0.040545	-0.099311	54.1706	-0.037858	-0.038957	2.549218	NaN
117	1.000000	1.018579	7.36619e+06	-44489.1	955.818	-29776.2	0.000000	0.000000	7.019126	-0.047281	NaN	0.000000	0.001652	0.001759	28.0928	0.074638	0.001961	38.0527	50.897	-165.347	-0.057772	1.017264	-0.031266	-0.032581	-0.047281	38.0527	-0.030334	-0.023513	2.010837	NaN
117	1.000000	1.026584	7.36619e+06	-44489.1	955.817	-29776.2	0.000000	0.000000	7.027134	0.015991	NaN	0.000000	0.001663	0.001745	28.0925	0.069857	0.002010	34.7625	153.735	-162.86	-0.025659	1.025333	-0.023261	-0.024512	0.015991	34.7625	-0.023606	-0.015523	-1.030164	NaN
117	1.000000	1.034624	7.36619e+06	-44489.1	955.817	-29776.2	0.000000	0.000000	7.035171	-0.041088	NaN	0.000000	0.001695	0.001740	28.0922	0.173737	0.002007	86.5789	33.9224	-164.295	0.010853	1.033340	-0.015221	-0.016505	-0.041088	86.5789	-0.014865	-0.009195	4.468615	NaN
117	1.000000	1.042594	7.36619e+06	-44489.1	955.817	-29776.2	0.000000	0.000000	7.043143	-0.012845	NaN	0.000000	0.001671	0.001739	28.0926	0.071254	0.001942	36.6868	-84.8018	-166.678	-0.008936	1.041287	-0.007251	-0.008558	-0.012845	36.6868	-0.006988	-0.004633	2.772338	NaN
117	1.000000	1.050628	7.36619e+06	-44489.1	955.818	-29776.2	0.000000	0.000000	7.051188	0.274441	NaN	0.000000	0.001701	0.001749	28.0925	0.550090	0.001876	293.231	13.6691	-162.973	-0.087159	1.049297	0.000783	-0.000548	0.274441	293.231	8.089671E-5	6.054964E-5	4532.5	34429.2
117	1.000000	1.058470	7.36619e+06	-44489.1	955.817	-29776.2	0.000000	0.000000	7.059373	8.601440	NaN	0.000000	0.001681	0.001803	28.0938	7.952755	0.001690	4706.82	10.3039	-170.615	6.534145	1.057296	0.008625	0.007451	8.601440	4706.82	0.007255	0.006287	1368.11	54234.4
117	2.000000	1.061199	7.36619e+06	-44489.1	955.817	-29776.2	0.000000	0.000000	7.062181	10.5495	NaN	0.000000	0.001684	0.001726	28.0932	10.6671	0.001651	6459.59	11.5255	-176.871	10.0803	1.060841	0.011353	0.010996	10.5495	6459.59	0.010129	0.009325	1131.35	61116.6
117	2.000000	1.063139	7.36619e+06	-44489.1	955.818	-29776.2	0.000000	0.000000	7.064257	13.861	NaN	0.000000	0.001690	0.001759	28.0936	12.7449	0.001664	7660.58	6.717882	-173.889	13.8294	1.062810	0.013294	0.012965	13.861	7660.58	0.011937	0.011414	1214.35	65510.3
117	2.000000	1.065158	7.36619e+06	-44489.1	955.817	-29776.2	0.000000	0.000000	7.066340	15.4129	NaN	0.000000	0.001717	0.001745	28.0938	15.0713	0.001773	8502.11	5.085519	-171.189	15.9866	1.064854	0.015313	0.015009	15.4129	8502.11	0.013953	0.013914	1107.69	65851.8
117	2.000000	1.067127	7.36619e+06	-44489.1	955.817	-29776.2	0.000000	0.000000	7.068492	19.8405	NaN	0.000000	0.001696	0.001784	28.0932	16.4991	0.001724	9572.72	7.193685	-175.73	20.0877	1.066823	0.017282	0.016978	19.8405	9572.72	0.015728	0.016268	1219.58	68570.6
117	2.000000	1.069086	7.36619e+06	-44489.1	955.817	-29776.2	0.000000	0.000000	7.070557	22.4258	NaN	0.000000	0.001697	0.001779	28.0938	19.4084	0.001812	10708.3	6.967254	-176.378	21.9511	1.068798	0.019241	0.018953	22.4258	10708.3	0.017671	0.019013	1179.47	70951.8
117	2.000000	1.071103	7.36619e+06	-44489.1	955.816	-29776.2	0.000000	0.000000	7.072739	26.4435	NaN	0.000000	0.001690	0.001713	28.0928	21.0885	0.001598	13196.7	4.784957	-176.762	25.6639	1.070796	0.021258	0.020951	26.4435	13196.7	0.019755	0.022159	1193.34	80995.2
117	2.000000	1.073038	7.36619e+06	-44489.1	955.817	-29776.2	0.000000	0.000000	7.074915	32.3135	NaN	0.000000	0.001679	0.001697	28.0935	23.439	0.001650	14205.8	8.604014	178.123	30.7804	1.072801	0.023193	0.022956	32.3135	14205.8	0.021487	0.024933	1296.04	82196.9
117	2.000000	1.075052	7.36619e+06	-44489.1	955.818	-29776.2	0.000000	0.000000	7.077009	34.2416	NaN	0.000000	0.001692	0.001723	28.0946	26.287	0.001826	14392	3.118622	-176.007	33.0322	1.074829	0.025207	0.024984	34.2416	14392	0.023423	0.028209	1213.87	78289.4
117	2.000000	1.077030	7.36619e+06	-44489.1	955.817	-29776.2	0.000000	0.000000	7.079294	41.7245	NaN	0.000000	0.001694	0.001736	28.0951	27.4287	0.001724	15908.7	4.463738	-178.138	40.4831	1.076769	0.027185	0.026924	41.7245	15908.7	0.025218	0.031413	1328.25	82007.2
117	2.000000	1.079133	7.36619e+06	-44489.1	955.817	-29776.2	0.000000	0.000000	7.081516	44.6153	NaN	0.000000	0.001689	0.001698	28.0952	30.2791	0.001873	16166.1	5.465350	-178.373	48.4291	1.078814	0.029288	0.028969	44.6153	16166.1	0.027218	0.035176	1268.36	78751.3
117	2.000000	1.081084	7.36619e+06	-44489.1	955.817	-29776.2	0.000000	0.000000	7.083863	54.2518	NaN	0.000000	0.001678	0.001727	28.0955	31.8346	0.001834	17355	6.622333	-178.589	54.4337	1.080701	0.031239	0.030856	54.2518	17355	0.028894	0.038483	1409.76	80828.1
117	2.000000	1.083011	7.36619e+06	-44489.1	955.817	-29776.2	0.000000	0.000000	7.086070	61.0636	NaN	0.000000	0.001712	0.001737	28.0945	33.3226	0.001848	18036.5	3.769442	-177.632	59.5842	1.082707	0.033166	0.032862	61.0636	18036.5	0.030627	0.042053	1452.07	80357.7
117	2.000000	1.085033	7.36619e+06	-44489.1	955.817	-29776.2	0.000000	0.000000	7.088336	66.9973	NaN	0.000000	0.001725	0.001715	28.0944	36.3341	0.001792	20276.7	5.000683	179.696	64.9821	1.084759	0.035188	0.034914	66.9973	20276.7	0.032710	0.046548	1439.31	85865.8
117	2.000000	1.087003	7.36619e+06	-44489.1	955.817	-29776.2	0.000000	0.000000	7.090640	75.1344	NaN	0.000000	0.001712	0.001704	28.0936	36.7821	0.001691	21755.1	2.253318	-178.312	73.1309	1.086701	0.037158	0.036856	75.1344	21755.1	0.034567	0.050743	1480.68	88235.8
117	2.000000	1.089053	7.36619e+06	-44489.1	955.818	-29776.2	0.000000	0.000000	7.092943	81.2859	NaN	0.000000	0.001681	0.001723	28.0932	39.9719	0.001807	22126.3	6.411103	178.097	81.1987	1.088765	0.039208	0.038920	81.2859	22126.3	0.036452	0.055182	1473.06	86056.6
117	2.000000	1.091083	7.36619e+06	-44489.1	955.817	-29776.2	0.000000	0.000000	7.095364	90.7971	NaN	0.000000	0.001697	0.001704	28.0946	41.639	0.001837	22665.5	4.552473	179.735	90.9901	1.090734	0.041238	0.040889	90.7971	22665.5	0.038233	0.059542	1524.93	84864.8
117	2.000000	1.092994	7.36619e+06	-44489.1	955.816	-29776.2	0.000000	0.000000	7.097425	94.4397	NaN	0.000000	0.001623	0.001707	28.0944	42.8178	0.001585	27017.5	2.427094	179.108	90.3761	1.092641	0.043149	0.042796	94.4397	27017.5	0.040528	0.065399	1444.06	96523.7
117	2.000000	1.095104	7.36619e+06	-44489.1	955.817	-29776.2	0.000000	0.000000	7.099854	102.202	NaN	0.000000	0.001611	0.001680	28.0944	46.1632	0.001865	24757.5	4.152868	179.926	104.348	1.094684	0.045259	0.044839	102.202	24757.5	0.042163	0.069738	1465.52	85653.7
117	2.000000	1.096979	7.36619e+06	-44489.1	955.817	-29776.2	0.000000	0.000000	7.102115	111.607	NaN	0.000000	0.001642	0.001722	28.097	47.4417	0.001786	26558.4	5.753337	176.993	109.572	1.096692	0.047134	0.046847	111.607	26558.4	0.043982	0.074723	1493.6	88765.9
117	2.000000	1.099016	7.36619e+06	-44489.1	955.817	-29776.2	0.000000	0.000000	7.104597	122.431	NaN	0.000000	0.001618	0.001696	28.0954	48.7362	0.001788	27261.2	3.539466	179.093	121.039	1.098697	0.049171	0.048852	122.431	27261.2	0.045803	0.079883	1532.63	88123.5
117	2.000000	1.101013	7.36619e+06	-44489.1	955.817	-29776.2	0.000000	0.000000	7.107001	132.312	NaN	0.000000	0.001602	0.001736	28.0955	50.8861	0.001753	29020.9	6.511905	176.235	129.928	1.100557	0.051168	0.050712	132.312	29020.9	0.047749	0.085582	1546.03	90634.5
117	2.000000	1.103028	7.36619e+06	-44489.1	955.818	-29776.2	0.000000	0.000000	7.109357	140.612	NaN	0.000000	0.001583	0.001721	28.0951	52.5297	0.001686	31160.9	4.824989	176.956	141.686	1.102683	0.053183	0.052838	140.612	31160.9	0.049799	0.091792	1531.86	93968.1
117	2.000000	1.105026	7.36619e+06	-44489.1	955.818	-29776.2	0.000000	0.000000	7.111627	147.236	NaN	0.000000	0.001580	0.001723	28.0949	57.0709	0.001889	30217	4.566561	176.624	145.54	1.104750	0.055181	0.054905	147.236	30217	0.051527	0.097191	1514.91	88554.7
117	2.000000	1.107029	7.36619e+06	-44489.1	955.818	-29776.2	0.000000	0.000000	7.114196	160.999	NaN	0.000000	0.001579	0.001715	28.0922	57.0367	0.001690	33745.8	3.264073	177.136	161.011	1.106616	0.057184	0.056771	160.999	33745.8	0.053606	0.103884	1549.79	95657.5
117	2.000000	1.108919	7.36619e+06	-44489.1	955.817	-29776.2	0.000000	0.000000	7.116303	166.288	NaN	0.000000	0.001590	0.001742	28.0939	60.5788	0.001787	33899.5	0.398892	179.849	160.261	1.108711	0.059074	0.058866	166.288	33899.5	0.055395	0.109816	1514.24	93461.6
117	2.000000	1.111051	7.36619e+06	-44489.1	955.818	-29776.2	0.000000	0.000000	7.118806	175.317	NaN	0.000000	0.001589	0.001755	28.0939	63.4949	0.001965	32309.3	6.627231	174.637	175.827	1.110773	0.061206	0.060928	175.317	32309.3	0.057136	0.115740	1514.75	86767.9
117	2.000000	1.112973	7.36619e+06	-44489.1	955.818	-29776.2	0.000000	0.000000	7.121260	188.264	NaN	0.000000	0.001580	0.001718	28.0933	63.8422	0.001744	36604.1	2.261117	177.053	185.389	1.112685	0.063128	0.062840	188.264	36604.1	0.059270	0.123204	1528.06	95277.4
117	2.000000	1.114975	7.36619e+06	-44489.1	955.817	-29776.2	0.000000	0.000000	7.123406	191.758	NaN	0.000000	0.001627	0.001701	28.0936	66.6488	0.001799	37039.7	1.901901	177.472	188.756	1.114682	0.065130	0.064837	191.758	37039.7	0.061247	0.130319	1471.45	93742.6
117	2.000000	1.116952	7.36619e+06	-44489.1	955.817	-29776.2	0.000000	0.000000	7.126110	209.446	NaN	0.000000	0.001612	0.001729	28.0941	67.7139	0.001651	41024.5	5.787705	172.814	204.817	1.116592	0.067107	0.066747	209.446	41024.5	0.063278	0.137825	1519.65	100961
117	2.000000	1.118938	7.36619e+06	-44489.1	955.817	-29776.2	0.000000	0.000000	7.128392	216.655	NaN	0.000000	0.001603	0.001718	28.0957	70.4767	0.001832	38473.9	5.728075	173.765	212.564	1.118683	0.069093	0.068838	216.655	38473.9	0.064869	0.143846	1506.16	92681
117	2.000000	1.121014	7.36619e+06	-44489.1	955.818	-29776.2	0.000000	0.000000	7.130898	227.1	NaN	0.000000	0.001585	0.001736	28.0945	73.2323	0.001724	42472.1	10.8434	168.526	227.134	1.120598	0.071169	0.070753	227.1	42472.1	0.067159	0.152721	1487.02	99294.8
117	2.000000	1.122995	7.36619e+06	-44489.1	955.817	-29776.2	0.000000	0.000000	7.133442	240.794	NaN	0.000000	0.001582	0.001712	28.0948	73.2351	0.001787	40992.7	4.048660	174.807	239.852	1.122656	0.073150	0.072811	240.794	40992.7	0.068744	0.159017	1514.26	93919.9
117	2.000000	1.125026	7.36619e+06	-44489.1	955.817	-29776.2	0.000000	0.000000	7.135894	251.041	NaN	0.000000	0.001589	0.001736	28.0939	76.2123	0.001785	42699.7	5.001589	173.871	252.027	1.124595	0.075181	0.074750	251.041	42699.7	0.070772	0.167241	1501.07	95395.1
117	2.000000	1.127092	7.36619e+06	-44489.1	955.817	-29776.2	0.000000	0.000000	7.138191	256.667	NaN	0.000000	0.001596	0.001757	28.0938	77.0394	0.001752	43961.7	4.483900	174.407	262.544	1.126690	0.077247	0.076845	256.667	43961.7	0.072868	0.175949	1458.76	95753.4
117	2.000000	1.128967	7.36619e+06	-44489.1	955.818	-29776.2	0.000000	0.000000	7.140716	272.463	NaN	0.000000	0.001613	0.001738	28.0941	79.3248	0.001938	40939.9	2.417816	177.093	270.331	1.128640	0.079122	0.078795	272.463	40939.9	0.074131	0.181296	1502.86	87846.7
117	2.000000	1.131002	7.36619e+06	-44489.1	955.818	-29776.2	0.000000	0.000000	7.143063	280.051	NaN	0.000000	0.001589	0.001757	28.0929	81.323	0.001789	45469.2	6.813793	171.71	282.091	1.130712	0.081157	0.080867	280.051	45469.2	0.076538	0.191696	1460.91	94881.9
117	2.000000	1.133126	7.36619e+06	-44489.1	955.818	-29776.2	0.000000	0.000000	7.145496	287.597	NaN	0.000000	0.001599	0.001736	28.0946	81.9399	0.001829	44806.7	3.335174	175.381	296.756	1.132826	0.083281	0.082981	287.597	44806.7	0.078467	0.200224	1436.37	91486.8
117	2.000000	1.135005	7.36619e+06	-44489.1	955.819	-29776.2	0.000000	0.000000	7.148327	310.753	NaN	0.000000	0.001587	0.001695	28.0937	83.4122	0.001838	45383.5	4.923146	174.279	310.422	1.134608	0.085160	0.084763	310.753	45383.5	0.080024	0.207239	1499.49	91082.6
117	2.000000	1.136926	7.36619e+06	-44489.1	955.818	-29776.2	0.000000	0.000000	7.150968	328.28	NaN	0.000000	0.001611	0.001711	28.0949	83.9478	0.001801	46618.6	3.392878	175.225	324.606	1.136584	0.087081	0.086739	328.28	46618.6	0.081799	0.215370	1524.26	91778.3
117	2.000000	1.139002	7.36619e+06	-44489.1	955.819	-29776.2	0.000000	0.000000	7.153234	332.882	NaN	0.000000	0.001597	0.001705	28.0954	86.47	0.001764	49030.4	3.694041	174.221	330.837	1.138567	0.089157	0.088722	332.882	49030.4	0.084065	0.225963	1473.17	94236.7
117	2.000000	1.141100	7.36619e+06	-44489.1	955.818	-29776.2	0.000000	0.000000	7.155999	349.122	NaN	0.000000	0.001615	0.001702	28.0969	89.2563	0.001793	49766.6	4.750883	173.062	354.751	1.140703	0.091255	0.090857	349.122	49766.6	0.085993	0.235163	1484.6	93762.1
117	2.000000	1.142867	7.36619e+06	-44489.1	955.818	-29776.2	0.000000	0.000000	7.158331	362.86	NaN	0.000000	0.001653	0.001688	28.0963	90.4772	0.001871	48354.6	5.196571	172.648	358.361	1.142653	0.093022	0.092808	362.86	48354.6	0.087394	0.241952	1499.72	89814.5
117	2.000000	1.145041	7.36619e+06	-44489.1	955.818	-29776.2	0.000000	0.000000	7.160969	374.161	NaN	0.000000	0.001622	0.001689	28.0953	92.7419	0.001813	51162.2	2.290902	175.344	376.434	1.144606	0.095196	0.094761	374.161	51162.2	0.089711	0.253384	1476.65	92860.9
117	2.000000	1.146989	7.36619e+06	-44489.1	955.818	-29776.2	0.000000	0.000000	7.163648	391.929	NaN	0.000000	0.001642	0.001689	28.0954	93.7676	0.001710	54841.5	6.777174	170.317	393.792	1.146687	0.097144	0.096842	391.929	54841.5	0.091784	0.263822	1485.58	97550
117	2.000000	1.148935	7.36619e+06	-44489.1	955.818	-29776.2	0.000000	0.000000	7.166072	403.555	NaN	0.000000	0.001605	0.001669	28.0949	96.8218	0.001868	51842.9	6.195487	171.719	402.015	1.148563	0.099090	0.098718	403.555	51842.9	0.093252	0.271334	1487.3	90930.7
117	2.000000	1.150922	7.36619e+06	-44489.1	955.818	-29776.2	0.000000	0.000000	7.168754	420.47	NaN	0.000000	0.001683	0.001672	28.0951	97.658	0.001748	55861.6	4.198018	172.95	417.415	1.150663	0.101077	0.100818	420.47	55861.6	0.095432	0.282666	1487.52	95995.2
117	2.000000	1.152992	7.36619e+06	-44489.1	955.819	-29776.2	0.000000	0.000000	7.170762	418.951	NaN	0.000000	0.001628	0.001685	28.0952	98.3674	0.001846	53299.4	1.936833	175.082	417.763	1.152857	0.103147	0.103012	418.951	53299.4	0.097252	0.292296	1433.31	90070.8
117	2.000000	1.154971	7.36619e+06	-44489.1	955.818	-29776.2	0.000000	0.000000	7.173622	440.389	NaN	0.000000	0.001634	0.001696	28.0952	100.317	0.001749	57340.3	2.037308	174.595	439.249	1.154702	0.105126	0.104857	440.389	57340.3	0.099366	0.303669	1450.23	95067.6
117	2.000000	1.157012	7.36619e+06	-44489.1	955.818	-29776.2	0.000000	0.000000	7.176610	463.427	NaN	0.000000	0.001617	0.001691	28.0958	100.976	0.001771	57005.8	3.671531	172.709	465.606	1.156686	0.107167	0.106841	463.427	57005.8	0.101069	0.312981	1480.69	93096.5
117	2.000000	1.157977	7.36619e+06	-44489.1	955.818	-29776.2	0.000000	0.000000	7.177771	468.218	NaN	0.000000	0.001606	0.001697	28.0989	104.789	0.001897	55234.3	9.865791	167.664	468.989	1.157628	0.108132	0.107783	468.218	55234.3	0.101774	0.316870	1477.63	89648.2