File: remote_trans/data/nanoindenter/0828-1/data/Data_2025-08-06,11h17m57s/2025-07-22_16-23-58_1_648.txt
2025-07-22, 16:23:58, 1
Index	Phase	Displacement	Time	Pos X	Pos Y	Pos Z	Rot A	Rot B	Piezo Z	Force A	Force B	Gripper	Voltage A	Voltage B	Temperature	Amplitude force	Amplitude pos	Stiffness	Phase shift	Phase excitation	Force A raw	Displacement raw	HMax	HMax raw	Real Force	Real Stiffness	Contact Depth	Area	Hardness	Reduced Mod.
[#]	[#]	[um]	[s]	[um]	[um]	[um]	[m°]	[m°]	[um]	[uN]	[uN]	[V]	[V]	[V]	[°C]	[uN]	[um]	[N/m]	[°]	[°]	[uN]	[um]	[um]	[um]	[uN]	[N/m]	[um]	[um^2]	[MPa]	[MPa]
648	1.000000	0.002358	7.37139e+06	-44689.1	1005.82	-29775.1	0.000000	0.000000	6.002806	-0.010042	NaN	0.000000	0.001633	0.001637	28.0823	0.067574	0.000829	81.4807	-62.4618	-165.632	0.054832	0.001090	-1.048828	-1.050096	-0.010042	81.4807	-1.048736	-1.026642E+14	9.781534E-17	NaN
648	1.000000	0.010312	7.37139e+06	-44689.1	1005.82	-29775.1	0.000000	0.000000	6.010760	-0.001048	NaN	0.000000	0.001627	0.001662	28.0818	0.110705	0.000887	124.794	170.551	-167.916	0.019905	0.009054	-1.040874	-1.042132	-0.001048	124.794	-1.040868	-8.047068E+13	1.302632E-17	NaN
648	1.000000	0.018321	7.37139e+06	-44689.1	1005.82	-29775.1	0.000000	0.000000	6.018770	0.016091	NaN	0.000000	0.001627	0.001673	28.0818	0.077306	0.001775	43.5619	162.499	-165.538	0.004272	0.017010	-1.032866	-1.034176	0.016091	43.5619	-1.033143	-6.335027E+13	-2.540016E-16	NaN
648	1.000000	0.026302	7.37139e+06	-44689.1	1005.82	-29775.1	0.000000	0.000000	6.026752	0.020240	NaN	0.000000	0.001656	0.001656	28.082	0.060671	0.001954	31.0532	-73.1763	-167.216	0.097845	0.024953	-1.024884	-1.026233	0.020240	31.0532	-1.025372	-4.980036E+13	-4.064304E-16	NaN
648	1.000000	0.034276	7.37139e+06	-44689.1	1005.82	-29775.1	0.000000	0.000000	6.034726	0.026510	NaN	0.000000	0.001678	0.001652	28.0818	0.013813	0.001868	7.393704	-84.4383	-167.321	0.015921	0.033013	-1.016910	-1.018173	0.026510	7.393704	-1.019599	-4.164424E+13	-6.365945E-16	NaN
648	1.000000	0.042311	7.37139e+06	-44689.1	1005.82	-29775.1	0.000000	0.000000	6.042760	0.010694	NaN	0.000000	0.001658	0.001666	28.0824	0.115658	0.001975	58.5601	-13.0192	-163.734	-0.030980	0.040979	-1.008875	-1.010207	0.010694	58.5601	-1.009012	-2.999759E+13	-3.564804E-16	NaN
648	1.000000	0.050316	7.37139e+06	-44689.1	1005.82	-29775.1	0.000000	0.000000	6.050765	0.024919	NaN	0.000000	0.001625	0.001681	28.0808	0.107614	0.002060	52.2448	-6.024231	-168.866	0.036666	0.048996	-1.000870	-1.002190	0.024919	52.2448	-1.001228	-2.356697E+13	-1.057379E-15	NaN
648	1.000000	0.058284	7.37139e+06	-44689.1	1005.82	-29775.1	0.000000	0.000000	6.058731	-0.038221	NaN	0.000000	0.001641	0.001644	28.0808	0.109328	0.001955	55.9192	-51.3617	-164.453	-0.023384	0.056968	-0.992902	-0.994218	-0.038221	55.9192	-0.992389	-1.791798E+13	2.133082E-15	NaN
648	1.000000	0.066342	7.37139e+06	-44689.1	1005.82	-29775.1	0.000000	0.000000	6.066791	0.030418	NaN	0.000000	0.001642	0.001668	28.0809	0.076690	0.002125	36.0859	4.446989	-169.227	-0.012930	0.064966	-0.984844	-0.986220	0.030418	36.0859	-0.985477	-1.446065E+13	-2.103491E-15	NaN
648	1.000000	0.074282	7.37139e+06	-44689.1	1005.82	-29775.1	0.000000	0.000000	6.074732	0.013596	NaN	0.000000	0.001645	0.001696	28.0806	0.087826	0.001994	44.0396	105.737	-167.888	-0.006473	0.072950	-0.976904	-0.978236	0.013596	44.0396	-0.977135	-1.116381E+13	-1.217900E-15	NaN
648	1.000000	0.082307	7.37139e+06	-44689.1	1005.82	-29775.1	0.000000	0.000000	6.082755	-0.012633	NaN	0.000000	0.001618	0.001681	28.0803	0.149647	0.002037	73.4707	55.0901	-165.133	-0.003755	0.081055	-0.968879	-0.970131	-0.012633	73.4707	-0.968750	-8.606279E+12	1.467906E-15	NaN
648	1.000000	0.090318	7.37139e+06	-44689.1	1005.82	-29775.1	0.000000	0.000000	6.090768	0.051538	NaN	0.000000	0.001641	0.001706	28.0808	0.061151	0.002144	28.5156	-5.703918	-162.823	0.085652	0.089032	-0.960868	-0.962154	0.051538	28.5156	-0.962224	-7.028315E+12	-7.332965E-15	NaN
648	1.000000	0.098334	7.37139e+06	-44689.1	1005.82	-29775.1	0.000000	0.000000	6.098784	0.045664	NaN	0.000000	0.001680	0.001707	28.0807	0.084795	0.002075	40.8583	137.241	-162.174	0.025374	0.096991	-0.952852	-0.954195	0.045664	40.8583	-0.953690	-5.392560E+12	-8.467928E-15	NaN
648	1.000000	0.106346	7.37139e+06	-44689.1	1005.82	-29775.1	0.000000	0.000000	6.106793	-0.036607	NaN	0.000000	0.001700	0.001692	28.0809	0.068419	0.002062	33.1747	113.142	-166.149	-0.015400	0.104999	-0.944840	-0.946188	-0.036607	33.1747	-0.944013	-3.992741E+12	9.168503E-15	NaN
648	1.000000	0.114296	7.37139e+06	-44689.1	1005.82	-29775.1	0.000000	0.000000	6.114744	-0.001192	NaN	0.000000	0.001652	0.001665	28.0809	0.141952	0.001928	73.6353	47.7092	-165.469	-0.035065	0.113020	-0.936890	-0.938167	-0.001192	73.6353	-0.936878	-3.199026E+12	3.727693E-16	NaN
648	1.000000	0.122295	7.37139e+06	-44689.1	1005.82	-29775.1	0.000000	0.000000	6.122742	-0.026642	NaN	0.000000	0.001649	0.001646	28.0807	0.008533	0.002112	4.039566	-163.834	-169.934	-0.029832	0.121013	-0.928891	-0.930173	-0.026642	4.039566	-0.923945	-2.140254E+12	1.244811E-14	NaN
648	1.000000	0.130317	7.37139e+06	-44689.1	1005.82	-29775.1	0.000000	0.000000	6.130764	-0.038412	NaN	0.000000	0.001668	0.001689	28.0806	0.050259	0.001926	26.0951	-71.8069	-166.038	-0.001387	0.129048	-0.920869	-0.922138	-0.038412	26.0951	-0.919765	-1.879456E+12	2.043760E-14	NaN
648	1.000000	0.138325	7.37139e+06	-44689.1	1005.82	-29775.1	0.000000	0.000000	6.138775	0.038225	NaN	0.000000	0.001628	0.001705	28.0806	0.092447	0.002031	45.5271	-109.44	-164.126	0.034111	0.136951	-0.912862	-0.914235	0.038225	45.5271	-0.913491	-1.546379E+12	-2.471922E-14	NaN
648	1.000000	0.146325	7.37139e+06	-44689.1	1005.82	-29775.1	0.000000	0.000000	6.146774	0.017551	NaN	0.000000	0.001656	0.001710	28.0808	0.046070	0.002145	21.4818	-127.493	-164.598	0.015923	0.144990	-0.904861	-0.906196	0.017551	21.4818	-0.905474	-1.205115E+12	-1.456414E-14	NaN
648	1.000000	0.154347	7.37139e+06	-44689.1	1005.82	-29775.1	0.000000	0.000000	6.154797	0.045840	NaN	0.000000	0.001688	0.001667	28.0807	0.069979	0.001937	36.1366	21.119	-166.33	-0.017767	0.153021	-0.896839	-0.898165	0.045840	36.1366	-0.897791	-9.488798E+11	-4.830965E-14	NaN
648	1.000000	0.162339	7.37139e+06	-44689.1	1005.82	-29775.1	0.000000	0.000000	6.162789	0.036203	NaN	0.000000	0.001650	0.001668	28.0807	0.048390	0.002010	24.0793	-118.208	-163.529	0.042844	0.161004	-0.888847	-0.890182	0.036203	24.0793	-0.889975	-7.439969E+11	-4.866003E-14	NaN
648	1.000000	0.170347	7.37139e+06	-44689.1	1005.82	-29775.1	0.000000	0.000000	6.170795	-0.021742	NaN	0.000000	0.001709	0.001680	28.0807	0.047235	0.002025	23.3314	59.7933	-164.496	0.088488	0.169072	-0.880839	-0.882114	-0.021742	23.3314	-0.880140	-5.477723E+11	3.969207E-14	NaN
648	1.000000	0.178341	7.37139e+06	-44689.1	1005.82	-29775.1	0.000000	0.000000	6.178788	-0.046237	NaN	0.000000	0.001656	0.001694	28.0806	0.102038	0.001916	53.245	47.2386	-168.295	0.047666	0.177059	-0.872845	-0.874127	-0.046237	53.245	-0.872194	-4.276843E+11	1.081094E-13	NaN
648	1.000000	0.186360	7.37139e+06	-44689.1	1005.82	-29775.1	0.000000	0.000000	6.186810	0.021796	NaN	0.000000	0.001663	0.001736	28.0819	0.023834	0.001968	12.1134	-54.8879	-163.657	-0.012040	0.185097	-0.864826	-0.866089	0.021796	12.1134	-0.866175	-3.545614E+11	-6.147180E-14	NaN
648	1.000000	0.194356	7.37139e+06	-44689.1	1005.82	-29775.1	0.000000	0.000000	6.194806	0.028754	NaN	0.000000	0.001658	0.001727	28.0819	0.168533	0.002060	81.8165	-94.1398	-164.004	0.035424	0.193030	-0.856830	-0.858156	0.028754	81.8165	-0.857094	-2.671648E+11	-1.076257E-13	NaN
648	1.000000	0.202338	7.37139e+06	-44689.1	1005.82	-29775.1	0.000000	0.000000	6.202785	-0.057099	NaN	0.000000	0.001643	0.001679	28.0821	0.099622	0.001908	52.2022	179.326	-165.981	0.020599	0.201087	-0.848848	-0.850099	-0.057099	52.2022	-0.848027	-2.013837E+11	2.835346E-13	NaN
648	1.000000	0.210377	7.37139e+06	-44689.1	1005.82	-29775.1	0.000000	0.000000	6.210825	-0.008791	NaN	0.000000	0.001667	0.001668	28.0822	0.110618	0.001926	57.4436	-51.7266	-166.134	0.013460	0.209038	-0.840810	-0.842148	-0.008791	57.4436	-0.840695	-1.602160E+11	5.486925E-14	NaN
648	1.000000	0.218361	7.37139e+06	-44689.1	1005.82	-29775.1	0.000000	0.000000	6.218808	-0.021471	NaN	0.000000	0.001682	0.001679	28.0819	0.117756	0.002039	57.7423	-146.097	-165.982	-0.035542	0.217049	-0.832825	-0.834137	-0.021471	57.7423	-0.832547	-1.242507E+11	1.728037E-13	NaN
648	1.000000	0.226355	7.37139e+06	-44689.1	1005.82	-29775.1	0.000000	0.000000	6.226801	-0.052402	NaN	0.000000	0.001708	0.001680	28.0818	0.015322	0.001989	7.702491	133.229	-168.774	-0.017434	0.225065	-0.824831	-0.826121	-0.052402	7.702491	-0.819729	-8.327807E+10	6.292366E-13	NaN
648	1.000000	0.234378	7.37139e+06	-44689.1	1005.82	-29775.1	0.000000	0.000000	6.234826	-0.026319	NaN	0.000000	0.001698	0.001677	28.0818	0.126687	0.001899	66.7096	-155.081	-167.277	-0.007658	0.233086	-0.816808	-0.818100	-0.026319	66.7096	-0.816512	-7.531893E+10	3.494403E-13	NaN
648	1.000000	0.242379	7.37139e+06	-44689.1	1005.82	-29775.1	0.000000	0.000000	6.242827	-0.018068	NaN	0.000000	0.001707	0.001709	28.0821	0.122689	0.001945	63.0741	89.6854	-167.323	0.011966	0.241080	-0.808807	-0.810106	-0.018068	63.0741	-0.808592	-5.881236E+10	3.072081E-13	NaN
648	1.000000	0.250381	7.37139e+06	-44689.1	1005.82	-29775.1	0.000000	0.000000	6.250830	0.013451	NaN	0.000000	0.001689	0.001655	28.0822	0.102790	0.001860	55.258	-167.293	-159.992	-0.062413	0.249081	-0.800805	-0.802105	0.013451	55.258	-0.800988	-4.637356E+10	-2.900531E-13	NaN
648	1.000000	0.258427	7.37139e+06	-44689.1	1005.82	-29775.1	0.000000	0.000000	6.258873	-0.046710	NaN	0.000000	0.001660	0.001661	28.082	0.034452	0.001962	17.5632	60.393	-162.918	-0.017113	0.257115	-0.792759	-0.794071	-0.046710	17.5632	-0.790765	-3.368747E+10	1.386579E-12	NaN
648	1.000000	0.266399	7.37139e+06	-44689.1	1005.82	-29775.1	0.000000	0.000000	6.266845	-0.046217	NaN	0.000000	0.001678	0.001646	28.0819	0.046360	0.001929	24.0393	73.6325	-166.179	-0.046442	0.265079	-0.784787	-0.786107	-0.046217	24.0393	-0.783345	-2.671082E+10	1.730272E-12	NaN
648	1.000000	0.274390	7.37139e+06	-44689.1	1005.82	-29775.1	0.000000	0.000000	6.274837	-0.039729	NaN	0.000000	0.001702	0.001636	28.0818	0.121449	0.002043	59.4347	134.087	-164.897	-0.013841	0.273033	-0.776796	-0.778153	-0.039729	59.4347	-0.776295	-2.142293E+10	1.854523E-12	NaN
648	1.000000	0.282407	7.37139e+06	-44689.1	1005.82	-29775.1	0.000000	0.000000	6.282854	-0.038832	NaN	0.000000	0.001724	0.001694	28.0819	0.067492	0.002072	32.5744	50.8917	-163.326	-0.038594	0.281083	-0.768779	-0.770103	-0.038832	32.5744	-0.767885	-1.646423E+10	2.358595E-12	NaN
648	1.000000	0.290412	7.37139e+06	-44689.1	1005.82	-29775.1	0.000000	0.000000	6.290860	-0.008877	NaN	0.000000	0.001698	0.001654	28.0821	0.102155	0.001911	53.4593	81.3784	-167.553	0.079451	0.289065	-0.760774	-0.762121	-0.008877	53.4593	-0.760650	-1.312632E+10	6.763058E-13	NaN
648	1.000000	0.298399	7.37139e+06	-44689.1	1005.82	-29775.1	0.000000	0.000000	6.298846	-0.048091	NaN	0.000000	0.001666	0.001660	28.0818	0.084162	0.002063	40.7864	-170.437	-168.79	-0.076257	0.297080	-0.752787	-0.754107	-0.048091	40.7864	-0.751903	-9.979719E+9	4.818862E-12	NaN
648	1.000000	0.306406	7.37139e+06	-44689.1	1005.82	-29775.1	0.000000	0.000000	6.306853	-0.017005	NaN	0.000000	0.001683	0.001697	28.082	0.063993	0.001883	33.9827	-70.5111	-166.644	0.016339	0.305107	-0.744781	-0.746079	-0.017005	33.9827	-0.744405	-7.889515E+9	2.155344E-12	NaN
648	1.000000	0.314407	7.37139e+06	-44689.1	1005.82	-29775.1	0.000000	0.000000	6.314860	0.102884	NaN	0.000000	0.001655	0.001671	28.0817	0.003507	0.001958	1.791228	-168.071	-163.025	-0.015242	0.313087	-0.736779	-0.738100	0.102884	1.791228	-0.779857	-2.394933E+10	-4.295885E-12	NaN
648	1.000000	0.322429	7.37139e+06	-44689.1	1005.82	-29775.1	0.000000	0.000000	6.322878	0.023808	NaN	0.000000	0.001679	0.001705	28.0805	0.076806	0.002064	37.2193	166.99	-164.974	-0.010706	0.321073	-0.728757	-0.730113	0.023808	37.2193	-0.729237	-4.902429E+9	-4.856306E-12	NaN
648	1.000000	0.330412	7.37139e+06	-44689.1	1005.82	-29775.1	0.000000	0.000000	6.330862	0.031077	NaN	0.000000	0.001697	0.001646	28.0806	0.076346	0.002012	37.9482	-123.801	-163.057	0.095608	0.329091	-0.720774	-0.722095	0.031077	37.9482	-0.721389	-3.831863E+9	-8.110280E-12	NaN
648	1.000000	0.338434	7.37139e+06	-44689.1	1005.82	-29775.1	0.000000	0.000000	6.338884	0.016121	NaN	0.000000	0.001653	0.001617	28.0808	0.097563	0.001941	50.2744	-62.2182	-166.264	0.053898	0.337127	-0.712752	-0.714060	0.016121	50.2744	-0.712992	-2.943607E+9	-5.476453E-12	NaN
648	1.000000	0.346449	7.37139e+06	-44689.1	1005.82	-29775.1	0.000000	0.000000	6.346898	-0.007366	NaN	0.000000	0.001671	0.001670	28.0807	0.082499	0.002015	40.9453	-160.69	-166.192	-0.051323	0.345058	-0.704737	-0.706128	-0.007366	40.9453	-0.704602	-2.261343E+9	3.257156E-12	NaN
648	1.000000	0.354406	7.37139e+06	-44689.1	1005.82	-29775.1	0.000000	0.000000	6.354852	-0.053578	NaN	0.000000	0.001682	0.001633	28.0808	0.078577	0.002030	38.7029	149.244	-162.286	-0.003177	0.353118	-0.696780	-0.698068	-0.053578	38.7029	-0.695742	-1.711487E+9	3.130503E-11	NaN
648	1.000000	0.362426	7.37139e+06	-44689.1	1005.82	-29775.1	0.000000	0.000000	6.362873	-0.036251	NaN	0.000000	0.001671	0.001642	28.0808	0.056195	0.002095	26.8207	24.0946	-167.315	-0.057079	0.361118	-0.688760	-0.690068	-0.036251	26.8207	-0.687747	-1.330824E+9	2.723923E-11	NaN
648	1.000000	0.370432	7.37139e+06	-44689.1	1005.82	-29775.1	0.000000	0.000000	6.370878	-0.066282	NaN	0.000000	0.001678	0.001675	28.0807	0.028467	0.001996	14.2611	-98.1511	-165.905	-0.061484	0.369130	-0.680754	-0.682056	-0.066282	14.2611	-0.677268	-9.568481E+8	6.927119E-11	NaN
648	1.000000	0.378445	7.37139e+06	-44689.1	1005.82	-29775.1	0.000000	0.000000	6.378894	0.000979	NaN	0.000000	0.001709	0.001654	28.0806	0.131928	0.001854	71.1414	-86.2726	-170.41	0.002169	0.377130	-0.672741	-0.674056	0.000979	71.1414	-0.672751	-8.299368E+8	-1.179322E-12	NaN
648	1.000000	0.386445	7.37139e+06	-44689.1	1005.82	-29775.1	0.000000	0.000000	6.386896	0.067816	NaN	0.000000	0.001677	0.001666	28.0806	0.135973	0.002019	67.3609	-110.806	-166.378	0.030924	0.385154	-0.664741	-0.666032	0.067816	67.3609	-0.665497	-6.603010E+8	-1.027050E-10	NaN
648	1.000000	0.394441	7.37139e+06	-44689.1	1005.82	-29775.1	0.000000	0.000000	6.394888	-0.048310	NaN	0.000000	0.001664	0.001662	28.0808	0.076406	0.001972	38.7479	-161.044	-168.547	0.030475	0.393156	-0.656745	-0.658030	-0.048310	38.7479	-0.655810	-4.864775E+8	9.930595E-11	NaN
648	1.000000	0.402427	7.37139e+06	-44689.1	1005.82	-29775.1	0.000000	0.000000	6.402874	-0.025846	NaN	0.000000	0.001738	0.001660	28.0809	0.122418	0.002050	59.7195	149.75	-164.701	-0.021410	0.401146	-0.648759	-0.650040	-0.025846	59.7195	-0.648435	-3.854567E+8	6.705195E-11	NaN
648	1.000000	0.410454	7.37139e+06	-44689.1	1005.82	-29775.1	0.000000	0.000000	6.410907	0.092982	NaN	0.000000	0.001660	0.001661	28.0806	0.078107	0.001910	40.8858	131.958	-166.774	0.051157	0.409155	-0.640732	-0.642032	0.092982	40.8858	-0.642437	-3.189552E+8	-2.915212E-10	NaN
648	1.000000	0.418451	7.37139e+06	-44689.1	1005.82	-29775.1	0.000000	0.000000	6.418900	-0.000207	NaN	0.000000	0.001681	0.001644	28.0809	0.041367	0.002095	19.7465	127.917	-165.615	-0.020439	0.417176	-0.632735	-0.634010	-0.000207	19.7465	-0.632727	-2.346754E+8	8.810106E-13	NaN
648	1.000000	0.426475	7.37139e+06	-44689.1	1005.82	-29775.1	0.000000	0.000000	6.426925	0.033205	NaN	0.000000	0.001635	0.001649	28.0807	0.067022	0.001896	35.344	-86.2515	-167.205	0.086662	0.425130	-0.624711	-0.626056	0.033205	35.344	-0.625416	-1.862332E+8	-1.782973E-10	NaN
648	1.000000	0.434454	7.37139e+06	-44689.1	1005.82	-29775.1	0.000000	0.000000	6.434899	-0.078079	NaN	0.000000	0.001619	0.001639	28.0811	0.078234	0.001863	41.9908	-163.224	-165.187	-0.065040	0.433150	-0.616732	-0.618037	-0.078079	41.9908	-0.615338	-1.353733E+8	5.767648E-10	NaN
648	1.000000	0.442487	7.37139e+06	-44689.1	1005.82	-29775.1	0.000000	0.000000	6.442933	-0.066067	NaN	0.000000	0.001589	0.001668	28.0809	0.059034	0.002063	28.6221	-80.2298	-166.407	-0.019734	0.441123	-0.608699	-0.610063	-0.066067	28.6221	-0.606968	-1.038472E+8	6.361988E-10	NaN
648	1.000000	0.450467	7.37139e+06	-44689.1	1005.82	-29775.1	0.000000	0.000000	6.450916	0.017642	NaN	0.000000	0.001582	0.001684	28.0806	0.022418	0.002054	10.9133	63.8316	-169.002	-0.000813	0.449181	-0.600719	-0.602005	0.017642	10.9133	-0.601932	-8.852461E+7	-1.992943E-10	NaN
648	1.000000	0.458460	7.37139e+06	-44689.1	1005.82	-29775.1	0.000000	0.000000	6.458908	-0.018702	NaN	0.000000	0.001599	0.001668	28.0822	0.104329	0.002061	50.6272	62.3491	-166.199	-0.048838	0.457132	-0.592726	-0.594054	-0.018702	50.6272	-0.592449	-6.552728E+7	2.854098E-10	NaN
648	1.000000	0.466492	7.37139e+06	-44689.1	1005.82	-29775.1	0.000000	0.000000	6.466944	0.066627	NaN	0.000000	0.001650	0.001695	28.0821	0.062501	0.002133	29.2992	-167.572	-164.831	-0.020038	0.465143	-0.584694	-0.586043	0.066627	29.2992	-0.586399	-5.407744E+7	-1.232067E-9	NaN
648	1.000000	0.474474	7.37139e+06	-44689.1	1005.82	-29775.1	0.000000	0.000000	6.474925	0.049335	NaN	0.000000	0.001645	0.001709	28.0823	0.040365	0.002024	19.9404	-51.0873	-166.807	-0.007460	0.473153	-0.576712	-0.578034	0.049335	19.9404	-0.578568	-4.216527E+7	-1.170043E-9	NaN
648	1.000000	0.482494	7.37139e+06	-44689.1	1005.82	-29775.1	0.000000	0.000000	6.482942	-0.015747	NaN	0.000000	0.001603	0.001701	28.0821	0.038033	0.001973	19.2738	90.4792	-164.611	-0.065026	0.481180	-0.568692	-0.570006	-0.015747	19.2738	-0.568079	-3.020570E+7	5.213392E-10	NaN
648	1.000000	0.490494	7.37139e+06	-44689.1	1005.82	-29775.1	0.000000	0.000000	6.490941	-0.020672	NaN	0.000000	0.001615	0.001684	28.0822	0.027593	0.001950	14.1523	-94.6579	-167.123	-0.021106	0.489165	-0.560692	-0.562021	-0.020672	14.1523	-0.559597	-2.305695E+7	8.965665E-10	NaN
648	1.000000	0.498473	7.37139e+06	-44689.1	1005.82	-29775.1	0.000000	0.000000	6.498920	-0.030025	NaN	0.000000	0.001615	0.001713	28.0824	0.113905	0.002053	55.4873	169.067	-167.359	-0.075761	0.497190	-0.552713	-0.553996	-0.030025	55.4873	-0.552307	-1.827711E+7	1.642753E-9	NaN
648	1.000000	0.506482	7.37139e+06	-44689.1	1005.82	-29775.1	0.000000	0.000000	6.506928	-0.073405	NaN	0.000000	0.001633	0.001732	28.0821	0.101630	0.001900	53.4807	-35.5018	-165.075	-0.006104	0.505211	-0.544704	-0.545975	-0.073405	53.4807	-0.543674	-1.387733E+7	5.289564E-9	NaN
648	1.000000	0.514506	7.37139e+06	-44689.1	1005.82	-29775.1	0.000000	0.000000	6.514954	-0.003389	NaN	0.000000	0.001610	0.001711	28.0822	0.053621	0.002035	26.346	52.7762	-166.685	0.044655	0.513205	-0.536681	-0.537981	-0.003389	26.346	-0.536584	-1.106554E+7	3.062562E-10	NaN
648	1.000000	0.522486	7.37139e+06	-44689.1	1005.82	-29775.1	0.000000	0.000000	6.522936	0.016813	NaN	0.000000	0.001609	0.001711	28.0821	0.093006	0.001919	48.464	5.201511	-171.138	0.055981	0.521144	-0.528700	-0.530042	0.016813	48.464	-0.528960	-8.67218e+06	-1.938767E-9	NaN
648	1.000000	0.530542	7.37139e+06	-44689.1	1005.82	-29775.1	0.000000	0.000000	6.530993	0.043306	NaN	0.000000	0.001606	0.001705	28.0821	0.020783	0.001974	10.5268	-176.508	-164.816	0.071257	0.529229	-0.520644	-0.521958	0.043306	10.5268	-0.523729	-7.33583e+06	-5.903296E-9	NaN
648	1.000000	0.538529	7.37139e+06	-44689.1	1005.82	-29775.1	0.000000	0.000000	6.538974	-0.093069	NaN	0.000000	0.001599	0.001706	28.0822	0.058840	0.002139	27.511	110.474	-169.293	-0.087773	0.537173	-0.512657	-0.514013	-0.093069	27.511	-0.510120	-4.74333e+06	1.962114E-8	NaN
648	1.000000	0.546504	7.37139e+06	-44689.1	1005.82	-29775.1	0.000000	0.000000	6.546954	0.017568	NaN	0.000000	0.001656	0.001685	28.0821	0.089666	0.001945	46.1096	-140.226	-167.923	-0.073914	0.545250	-0.504682	-0.505936	0.017568	46.1096	-0.504968	-4.02061e+06	-4.369476E-9	NaN
648	1.000000	0.554506	7.37139e+06	-44689.1	1005.82	-29775.1	0.000000	0.000000	6.554955	0.028182	NaN	0.000000	0.001653	0.001706	28.0822	0.114629	0.001981	57.8709	-154.608	-163.676	0.042734	0.553210	-0.496680	-0.497976	0.028182	57.8709	-0.497046	-3.11739e+06	-9.040309E-9	NaN
648	1.000000	0.562523	7.37139e+06	-44689.1	1005.82	-29775.1	0.000000	0.000000	6.562970	-0.039809	NaN	0.000000	0.001677	0.001670	28.0821	0.059078	0.001905	31.0192	15.0518	-166.546	-0.091265	0.561223	-0.488663	-0.489963	-0.039809	31.0192	-0.487701	-2.30812e+06	1.724761E-8	NaN
648	1.000000	0.570489	7.37139e+06	-44689.1	1005.82	-29775.1	0.000000	0.000000	6.570938	0.029588	NaN	0.000000	0.001607	0.001688	28.0821	0.045670	0.001939	23.5516	-69.5418	-165.172	-0.020823	0.569215	-0.480697	-0.481971	0.029588	23.5516	-0.481640	-1.89879e+06	-1.558237E-8	NaN
648	1.000000	0.578516	7.37139e+06	-44689.1	1005.82	-29775.1	0.000000	0.000000	6.578965	-0.006364	NaN	0.000000	0.001631	0.001720	28.0819	0.016803	0.002100	7.999956	122.399	-166.363	-0.067617	0.577238	-0.472670	-0.473948	-0.006364	7.999956	-0.472073	-1.3947e+06	4.562781E-9	NaN
648	1.000000	0.586540	7.37139e+06	-44689.1	1005.82	-29775.1	0.000000	0.000000	6.586991	0.057573	NaN	0.000000	0.001648	0.001675	28.0819	0.065869	0.002109	31.238	96.0795	-162.732	0.013765	0.585245	-0.464646	-0.465942	0.057573	31.238	-0.466029	-1.14732e+06	-5.018053E-8	NaN
648	1.000000	0.594529	7.37139e+06	-44689.1	1005.82	-29775.1	0.000000	0.000000	6.594975	-0.040608	NaN	0.000000	0.001660	0.001676	28.0813	0.108236	0.002032	53.2689	170.725	-163.28	-0.078982	0.593207	-0.456657	-0.457979	-0.040608	53.2689	-0.456086	-831743	4.882271E-8	NaN
648	1.000000	0.602558	7.37139e+06	-44689.1	1005.82	-29775.1	0.000000	0.000000	6.603003	-0.088225	NaN	0.000000	0.001621	0.001706	28.0809	0.161633	0.001962	82.3699	-169.834	-165.365	-0.091648	0.601221	-0.448628	-0.449965	-0.088225	82.3699	-0.447825	-636364	1.386394E-7	NaN
648	1.000000	0.610534	7.37139e+06	-44689.1	1005.82	-29775.1	0.000000	0.000000	6.610981	-0.036208	NaN	0.000000	0.001711	0.001665	28.081	0.071029	0.002023	35.1168	-94.0751	-167.474	-0.037636	0.609208	-0.440653	-0.441978	-0.036208	35.1168	-0.439879	-491654	7.364473E-8	NaN
648	1.000000	0.618539	7.37139e+06	-44689.1	1005.82	-29775.1	0.000000	0.000000	6.618987	-0.019862	NaN	0.000000	0.001710	0.001694	28.0807	0.128756	0.001974	65.2258	36.1253	-164.64	-0.035723	0.617211	-0.432647	-0.433975	-0.019862	65.2258	-0.432419	-385718	5.149284E-8	NaN
648	1.000000	0.626562	7.37139e+06	-44689.1	1005.82	-29775.1	0.000000	0.000000	6.627011	0.014751	NaN	0.000000	0.001661	0.001696	28.0819	0.101256	0.001971	51.363	101.393	-166.217	-0.018294	0.625244	-0.424624	-0.425942	0.014751	51.363	-0.424839	-301305	-4.895773E-8	NaN
648	1.000000	0.634543	7.37139e+06	-44689.1	1005.82	-29775.1	0.000000	0.000000	6.634989	-0.060682	NaN	0.000000	0.001600	0.001703	28.0808	0.035054	0.001978	17.7242	153.479	-167.195	-0.058760	0.633230	-0.416643	-0.417956	-0.060682	17.7242	-0.414075	-211994	2.862438E-7	NaN
648	1.000000	0.642566	7.37139e+06	-44689.1	1005.82	-29775.1	0.000000	0.000000	6.643011	-0.089445	NaN	0.000000	0.001628	0.001724	28.0808	0.040102	0.001987	20.1777	118.436	-164.757	-0.084463	0.641206	-0.408620	-0.409980	-0.089445	20.1777	-0.405295	-159019	5.624803E-7	NaN
648	1.000000	0.650563	7.37139e+06	-44689.1	1005.82	-29775.1	0.000000	0.000000	6.651009	-0.071777	NaN	0.000000	0.001628	0.001703	28.0811	0.080057	0.001830	43.7581	-144.565	-166.566	-0.039894	0.649235	-0.400623	-0.401951	-0.071777	43.7581	-0.399393	-131018	5.478397E-7	NaN
648	1.000000	0.658521	7.37139e+06	-44689.1	1005.82	-29775.1	0.000000	0.000000	6.658970	0.005496	NaN	0.000000	0.001605	0.001699	28.0809	0.104239	0.001900	54.8512	167.608	-164.79	-0.003655	0.657229	-0.392665	-0.393957	0.005496	54.8512	-0.392740	-105280	-5.220547E-8	NaN
648	1.000000	0.666593	7.37139e+06	-44689.1	1005.82	-29775.1	0.000000	0.000000	6.667041	0.010796	NaN	0.000000	0.001620	0.001674	28.0811	0.089425	0.002035	43.9332	-91.045	-167.814	0.061039	0.665219	-0.384594	-0.385967	0.010796	43.9332	-0.384778	-80984.9	-1.333121E-7	NaN
648	1.000000	0.674568	7.37139e+06	-44689.1	1005.82	-29775.1	0.000000	0.000000	6.675016	-0.000273	NaN	0.000000	0.001560	0.001697	28.0808	0.072644	0.001980	36.6906	163.238	-164.389	0.025325	0.673246	-0.376618	-0.377940	-0.000273	36.6906	-0.376613	-61837.4	4.408490E-9	NaN
648	1.000000	0.682558	7.37139e+06	-44689.1	1005.82	-29775.1	0.000000	0.000000	6.683005	-0.051822	NaN	0.000000	0.001621	0.001688	28.0811	0.049750	0.001984	25.0724	176.058	-169.222	-0.173971	0.681274	-0.368628	-0.369913	-0.051822	25.0724	-0.367078	-45083.5	1.149473E-6	NaN
648	1.000000	0.690590	7.37139e+06	-44689.1	1005.82	-29775.1	0.000000	0.000000	6.691036	-0.044965	NaN	0.000000	0.001611	0.001711	28.0808	0.038899	0.001938	20.0763	17.575	-166.263	0.075780	0.689255	-0.360596	-0.361931	-0.044965	20.0763	-0.358917	-34370	1.308256E-6	NaN
648	1.000000	0.698564	7.37139e+06	-44689.1	1005.82	-29775.1	0.000000	0.000000	6.699012	-0.010358	NaN	0.000000	0.001579	0.001735	28.0809	0.034967	0.002043	17.1162	-107.042	-164.761	-0.061550	0.697220	-0.352622	-0.353966	-0.010358	17.1162	-0.352168	-27444.7	3.773962E-7	NaN
648	1.000000	0.706579	7.37139e+06	-44689.1	1005.82	-29775.1	0.000000	0.000000	6.707027	-0.002694	NaN	0.000000	0.001596	0.001697	28.0812	0.077118	0.001995	38.6615	-156.14	-165.594	-0.032632	0.705243	-0.344607	-0.345943	-0.002694	38.6615	-0.344555	-21275.8	1.266004E-7	NaN
648	1.000000	0.714586	7.37139e+06	-44689.1	1005.82	-29775.1	0.000000	0.000000	6.715037	0.044190	NaN	0.000000	0.001598	0.001718	28.0809	0.094014	0.002025	46.4227	9.888499	-164.412	-0.009584	0.713270	-0.336600	-0.337916	0.044190	46.4227	-0.337314	-16686.8	-2.648175E-6	NaN
648	1.000000	0.722581	7.37139e+06	-44689.1	1005.82	-29775.1	0.000000	0.000000	6.723029	-0.025066	NaN	0.000000	0.001568	0.001741	28.0814	0.008969	0.001920	4.671225	-46.2429	-160.424	-0.062521	0.721259	-0.328605	-0.329927	-0.025066	4.671225	-0.324580	-10863.6	2.307293E-6	NaN
648	1.000000	0.730602	7.37139e+06	-44689.1	1005.82	-29775.1	0.000000	0.000000	6.731048	-0.064787	NaN	0.000000	0.001555	0.001726	28.0814	0.039284	0.001954	20.1031	112.688	-165.129	-0.048723	0.729247	-0.320584	-0.321939	-0.064787	20.1031	-0.318167	-8742.77	7.410330E-6	NaN
648	1.000000	0.738591	7.37139e+06	-44689.1	1005.82	-29775.1	0.000000	0.000000	6.739035	-0.122418	NaN	0.000000	0.001564	0.001721	28.0822	0.117437	0.002036	57.6807	18.0556	-162.638	0.005736	0.737266	-0.312595	-0.313920	-0.122418	57.6807	-0.311003	-6853.2	1.786287E-5	NaN
648	1.000000	0.746607	7.37139e+06	-44689.1	1005.82	-29775.1	0.000000	0.000000	6.747051	-0.097559	NaN	0.000000	0.001581	0.001733	28.0824	0.077393	0.002071	37.3716	-145.825	-168.281	-0.042183	0.745314	-0.304579	-0.305872	-0.097559	37.3716	-0.302621	-5147.86	1.895136E-5	NaN
648	1.000000	0.754600	7.37139e+06	-44689.1	1005.82	-29775.1	0.000000	0.000000	6.755049	0.022996	NaN	0.000000	0.001617	0.001711	28.0822	0.053129	0.002005	26.5016	147.735	-169.009	0.023288	0.753253	-0.296586	-0.297933	0.022996	26.5016	-0.297237	-4280.29	-5.372425E-6	NaN
648	1.000000	0.762635	7.37139e+06	-44689.1	1005.82	-29775.1	0.000000	0.000000	6.763081	-0.052469	NaN	0.000000	0.001562	0.001704	28.0825	0.080127	0.001939	41.3155	-129.776	-163.249	-0.027118	0.761294	-0.288551	-0.289892	-0.052469	41.3155	-0.287599	-3071.1	1.708489E-5	NaN
648	1.000000	0.770591	7.37139e+06	-44689.1	1005.82	-29775.1	0.000000	0.000000	6.771037	-0.078059	NaN	0.000000	0.001573	0.001709	28.0821	0.060922	0.002084	29.2317	-3.748027	-167.759	-0.027055	0.769292	-0.280595	-0.281894	-0.078059	29.2317	-0.278592	-2247.59	3.473007E-5	NaN
648	1.000000	0.778639	7.37139e+06	-44689.1	1005.82	-29775.1	0.000000	0.000000	6.779086	-0.037146	NaN	0.000000	0.001646	0.001696	28.0822	0.048494	0.001939	25.0041	91.6422	-168.807	-0.038717	0.777298	-0.272547	-0.273888	-0.037146	25.0041	-0.271432	-1751.08	2.121333E-5	NaN
648	1.000000	0.786607	7.37139e+06	-44689.1	1005.82	-29775.1	0.000000	0.000000	6.787054	-0.050162	NaN	0.000000	0.001679	0.001632	28.0822	0.016625	0.002083	7.982121	-17.1909	-166.202	-0.016552	0.785311	-0.264579	-0.265875	-0.050162	7.982121	-0.259865	-1166.42	4.300472E-5	NaN
648	1.000000	0.794599	7.37139e+06	-44689.1	1005.82	-29775.1	0.000000	0.000000	6.795044	-0.084585	NaN	0.000000	0.001658	0.001661	28.0822	0.071443	0.002107	33.9064	40.8685	-168.602	-0.031851	0.793271	-0.256588	-0.257915	-0.084585	33.9064	-0.254717	-972.192	8.700444E-5	NaN
648	1.000000	0.802611	7.37139e+06	-44689.1	1005.82	-29775.1	0.000000	0.000000	6.803060	0.026362	NaN	0.000000	0.001667	0.001634	28.0823	0.156296	0.001890	82.7173	-109.786	-167.565	-0.009842	0.801331	-0.248575	-0.249855	0.026362	82.7173	-0.248814	-788.171	-3.344749E-5	NaN
648	1.000000	0.810616	7.37139e+06	-44689.1	1005.82	-29775.1	0.000000	0.000000	6.811067	0.060866	NaN	0.000000	0.001679	0.001650	28.0822	0.029192	0.001963	14.871	-57.9408	-169.448	0.109926	0.809281	-0.240570	-0.241905	0.060866	14.871	-0.243640	-655.095	-9.291176E-5	NaN
648	1.000000	0.818635	7.37139e+06	-44689.1	1005.82	-29775.1	0.000000	0.000000	6.819083	-0.012357	NaN	0.000000	0.001663	0.001656	28.0825	0.038045	0.001921	19.805	-150.695	-167.415	-0.009971	0.817345	-0.232551	-0.233841	-0.012357	19.805	-0.232083	-431.893	2.861106E-5	NaN
648	1.000000	0.826618	7.37139e+06	-44689.1	1005.82	-29775.1	0.000000	0.000000	6.827064	-0.045082	NaN	0.000000	0.001683	0.001663	28.0822	0.095679	0.002067	46.2777	-101.808	-169.519	0.023418	0.825349	-0.224568	-0.225838	-0.045082	46.2777	-0.223838	-319.788	0.000141	NaN
648	1.000000	0.834646	7.37139e+06	-44689.1	1005.82	-29775.1	0.000000	0.000000	6.835095	0.011016	NaN	0.000000	0.001684	0.001671	28.0821	0.022673	0.002123	10.6776	97.1454	-164.407	0.068176	0.833318	-0.216540	-0.217868	0.011016	10.6776	-0.217313	-251.576	-4.378630E-5	NaN
648	1.000000	0.842631	7.37139e+06	-44689.1	1005.82	-29775.1	0.000000	0.000000	6.843076	-0.077027	NaN	0.000000	0.001686	0.001683	28.082	0.099955	0.002016	49.5929	140.97	-167.494	-0.048865	0.841328	-0.208556	-0.209858	-0.077027	49.5929	-0.207391	-173.974	0.000443	NaN
648	1.000000	0.850623	7.37139e+06	-44689.1	1005.82	-29775.1	0.000000	0.000000	6.851074	0.061663	NaN	0.000000	0.001674	0.001675	28.0819	0.061262	0.001961	31.2343	-53.7783	-165.383	0.013808	0.849238	-0.200563	-0.201948	0.061663	31.2343	-0.202043	-142.307	-0.000433	NaN
648	1.000000	0.858633	7.37139e+06	-44689.1	1005.82	-29775.1	0.000000	0.000000	6.859082	0.026837	NaN	0.000000	0.001704	0.001645	28.0824	0.054753	0.001896	28.8766	72.6609	-166.986	0.061546	0.857329	-0.192553	-0.193857	0.026837	28.8766	-0.193250	-101.9	-0.000263	NaN
648	1.000000	0.866632	7.37139e+06	-44689.1	1005.82	-29775.1	0.000000	0.000000	6.867080	0.001553	NaN	0.000000	0.001656	0.001632	28.0816	0.090552	0.002141	42.2855	-155.626	-167.447	0.042493	0.865331	-0.184554	-0.185855	0.001553	42.2855	-0.184582	-72.9599	-2.128380E-5	NaN
648	1.000000	0.874642	7.37139e+06	-44689.1	1005.82	-29775.1	0.000000	0.000000	6.875087	-0.080297	NaN	0.000000	0.001622	0.001623	28.0807	0.078504	0.001991	39.4241	160.486	-164.28	-0.058447	0.873369	-0.176544	-0.177817	-0.080297	39.4241	-0.175016	-50.1489	0.001601	NaN
648	1.000000	0.882682	7.37139e+06	-44689.1	1005.82	-29775.1	0.000000	0.000000	6.883131	0.013885	NaN	0.000000	0.001586	0.001658	28.0806	0.050299	0.002017	24.9409	-28.9531	-163.916	0.032207	0.881342	-0.168504	-0.169844	0.013885	24.9409	-0.168922	-39.3434	-0.000353	NaN
648	1.000000	0.890646	7.37139e+06	-44689.1	1005.82	-29775.1	0.000000	0.000000	6.891090	-0.119801	NaN	0.000000	0.001612	0.001688	28.0806	0.089942	0.001994	45.0991	68.6191	-169.139	0.015240	0.889344	-0.160540	-0.161842	-0.119801	45.0991	-0.158548	-25.8303	0.004638	NaN
648	1.000000	0.898640	7.37139e+06	-44689.1	1005.82	-29775.1	0.000000	0.000000	6.899089	-0.001214	NaN	0.000000	0.001607	0.001654	28.0806	0.105333	0.001991	52.9023	-143.305	-165.025	0.056906	0.897327	-0.152546	-0.153859	-0.001214	52.9023	-0.152529	-20.1355	6.028927E-5	NaN
648	1.000000	0.906650	7.37139e+06	-44689.1	1005.82	-29775.1	0.000000	0.000000	6.907099	0.011061	NaN	0.000000	0.001619	0.001669	28.0807	0.154389	0.002053	75.2146	-71.6904	-165.67	0.030001	0.905311	-0.144536	-0.145875	0.011061	75.2146	-0.144646	-14.4417	-0.000766	NaN
648	1.000000	0.914643	7.37139e+06	-44689.1	1005.82	-29775.1	0.000000	0.000000	6.915090	-0.029662	NaN	0.000000	0.001585	0.001639	28.081	0.100699	0.002101	47.9224	-170.961	-164.25	0.108058	0.913326	-0.136543	-0.137860	-0.029662	47.9224	-0.136079	-9.973663	0.002974	NaN
648	1.000000	0.922650	7.37139e+06	-44689.1	1005.82	-29775.1	0.000000	0.000000	6.923097	-0.023657	NaN	0.000000	0.001624	0.001643	28.0805	0.030092	0.001991	15.1167	32.598	-164.394	-0.133097	0.921386	-0.128536	-0.129800	-0.023657	15.1167	-0.127363	-6.769208	0.003495	NaN
648	1.000000	0.930640	7.37139e+06	-44689.1	1005.82	-29775.1	0.000000	0.000000	6.931088	-0.032184	NaN	0.000000	0.001618	0.001603	28.0809	0.076491	0.001831	41.7737	-112.38	-167.354	0.043284	0.929322	-0.120546	-0.121864	-0.032184	41.7737	-0.119968	-4.824293	0.006671	NaN
648	1.000000	0.938644	7.37139e+06	-44689.1	1005.82	-29775.1	0.000000	0.000000	6.939092	-0.022080	NaN	0.000000	0.001582	0.001613	28.0807	0.133999	0.002035	65.8398	-80.3574	-166.107	0.036335	0.937428	-0.112542	-0.113759	-0.022080	65.8398	-0.112290	-3.356693	0.006578	NaN
648	1.000000	0.946690	7.37139e+06	-44689.1	1005.82	-29775.1	0.000000	0.000000	6.947138	-0.029776	NaN	0.000000	0.001698	0.001662	28.0807	0.112419	0.002084	53.9491	57.9908	-165.481	0.038923	0.945361	-0.104496	-0.105825	-0.029776	53.9491	-0.104082	-2.245405	0.013261	NaN
648	1.000000	0.954665	7.37139e+06	-44689.1	1005.82	-29775.1	0.000000	0.000000	6.955114	0.013600	NaN	0.000000	0.001656	0.001633	28.0808	0.043646	0.002041	21.3861	-162.663	-166.435	-0.087338	0.953357	-0.096521	-0.097830	0.013600	21.3861	-0.096998	-1.565590	-0.008687	NaN
648	1.000000	0.962690	7.37139e+06	-44689.1	1005.82	-29775.1	0.000000	0.000000	6.963136	-0.072647	NaN	0.000000	0.001673	0.001648	28.0808	0.110949	0.001937	57.2728	148.96	-167.361	-0.079222	0.961368	-0.088496	-0.089818	-0.072647	57.2728	-0.087545	-0.945744	0.076814	NaN
648	1.000000	0.970654	7.37139e+06	-44689.1	1005.82	-29775.1	0.000000	0.000000	6.971102	-0.017917	NaN	0.000000	0.001690	0.001655	28.0812	0.097488	0.001949	50.0276	-99.1335	-166.962	0.021149	0.969322	-0.080532	-0.081864	-0.017917	50.0276	-0.080263	-0.628437	0.028510	NaN
648	1.000000	0.978688	7.37139e+06	-44689.1	1005.82	-29775.1	0.000000	0.000000	6.979136	-0.012153	NaN	0.000000	0.001652	0.001655	28.0811	0.023338	0.001984	11.7623	71.6087	-165.247	0.016809	0.977401	-0.072498	-0.073785	-0.012153	11.7623	-0.071724	-0.379128	0.032055	NaN
648	1.000000	0.986718	7.37139e+06	-44689.1	1005.82	-29775.1	0.000000	0.000000	6.987166	-0.013787	NaN	0.000000	0.001641	0.001668	28.081	0.106303	0.002050	51.8485	-120.589	-165.413	-0.015347	0.985391	-0.064468	-0.065795	-0.013787	51.8485	-0.064268	-0.237808	0.057977	NaN
648	1.000000	0.994667	7.37139e+06	-44689.1	1005.82	-29775.1	0.000000	0.000000	6.995112	-0.075358	NaN	0.000000	0.001688	0.001670	28.0809	0.066872	0.002070	32.3082	-21.2963	-163.565	-0.092991	0.993418	-0.056520	-0.057769	-0.075358	32.3082	-0.054770	-0.126778	0.594410	NaN
648	1.000000	1.002681	7.37139e+06	-44689.1	1005.82	-29775.1	0.000000	0.000000	7.003130	0.008428	NaN	0.000000	0.001686	0.001669	28.0811	0.050999	0.001994	25.578	-27.2503	-168.294	0.066733	1.001363	-0.048505	-0.049823	0.008428	25.578	-0.048752	-0.083639	-0.100772	NaN
648	1.000000	1.010691	7.37139e+06	-44689.1	1005.82	-29775.1	0.000000	0.000000	7.011138	-0.032304	NaN	0.000000	0.001636	0.001683	28.0821	0.051255	0.001997	25.6631	128.214	-167.228	-0.109839	1.009381	-0.040495	-0.041805	-0.032304	25.6631	-0.039551	-0.043825	0.737114	NaN
648	1.000000	1.018695	7.37139e+06	-44689.1	1005.82	-29775.1	0.000000	0.000000	7.019142	-0.029044	NaN	0.000000	0.001631	0.001675	28.0822	0.066510	0.001869	35.5792	-63.8393	-167.333	-0.083291	1.017406	-0.032491	-0.033781	-0.029044	35.5792	-0.031879	-0.025998	1.117160	NaN
648	1.000000	1.026734	7.37139e+06	-44689.1	1005.82	-29775.1	0.000000	0.000000	7.027181	-0.029688	NaN	0.000000	0.001638	0.001679	28.0823	0.131967	0.001994	66.185	-106.994	-164.009	-0.009788	1.025380	-0.024453	-0.025806	-0.029688	66.185	-0.024116	-0.016001	1.855383	NaN
648	1.000000	1.034729	7.37139e+06	-44689.1	1005.82	-29775.1	0.000000	0.000000	7.035179	0.020303	NaN	0.000000	0.001615	0.001659	28.0821	0.126429	0.001963	64.4044	75.1684	-171.584	-0.013171	1.033424	-0.016457	-0.017762	0.020303	64.4044	-0.016693	-0.010316	-1.968157	NaN
648	1.000000	1.042688	7.37139e+06	-44689.1	1005.82	-29775.1	0.000000	0.000000	7.043138	0.042643	NaN	0.000000	0.001579	0.001671	28.0822	0.037613	0.002087	18.0217	165.179	-166.867	0.048834	1.041389	-0.008498	-0.009798	0.042643	18.0217	-0.010273	-0.006543	-6.517198	NaN
648	1.000000	1.050738	7.37139e+06	-44689.1	1005.82	-29775.1	0.000000	0.000000	7.051183	-0.075354	NaN	0.000000	0.001629	0.001691	28.0824	0.123638	0.001992	62.0636	170.328	-169.553	-0.032427	1.049459	-0.000448	-0.001727	-0.075354	62.0636	0.000462	0.000349	-216.149	3036.91
648	1.000000	1.058703	7.37139e+06	-44689.1	1005.82	-29775.1	0.000000	0.000000	7.059267	2.817015	NaN	0.000000	0.001616	0.001680	28.0825	3.692044	0.001758	2099.63	7.748734	-166.844	1.716097	1.057404	0.007517	0.006218	2.817015	2099.63	0.006510	0.005555	507.158	25739.1
648	2.000000	1.065309	7.37139e+06	-44689.1	1005.82	-29775.1	0.000000	0.000000	7.066094	8.179969	NaN	0.000000	0.001612	0.001716	28.0823	9.515979	0.001792	5309.85	8.483092	-171.65	8.480067	1.064837	0.014123	0.013651	8.179969	5309.85	0.012968	0.012670	645.61	43098.8
648	2.000000	1.067249	7.37139e+06	-44689.1	1005.82	-29775.1	0.000000	0.000000	7.068154	11.0928	NaN	0.000000	0.001605	0.001692	28.0823	11.5339	0.001815	6355.44	9.450467	-174.271	11.0393	1.066915	0.016063	0.015729	11.0928	6355.44	0.014754	0.014959	741.562	47475.8
648	2.000000	1.069236	7.37139e+06	-44689.1	1005.82	-29775.1	0.000000	0.000000	7.070186	12.2034	NaN	0.000000	0.001618	0.001702	28.0823	13.2889	0.001721	7720.3	6.015609	-172.8	12.913	1.068905	0.018050	0.017719	12.2034	7720.3	0.016864	0.017852	683.585	52791.3
648	2.000000	1.071218	7.37139e+06	-44689.1	1005.82	-29775.1	0.000000	0.000000	7.072288	15.112	NaN	0.000000	0.001625	0.001690	28.0822	15.2002	0.001759	8642.59	9.344575	-177.619	15.2101	1.070866	0.020032	0.019679	15.112	8642.59	0.018720	0.020571	734.622	55053.9
648	2.000000	1.073191	7.37139e+06	-44689.1	1005.82	-29775.1	0.000000	0.000000	7.074395	18.3708	NaN	0.000000	0.001636	0.001689	28.0822	17.1204	0.001826	9374.05	5.591118	-174.184	17.2405	1.072840	0.022005	0.021654	18.3708	9374.05	0.020535	0.023390	785.404	55999.3
648	2.000000	1.075206	7.37139e+06	-44689.1	1005.82	-29775.1	0.000000	0.000000	7.076502	20.6107	NaN	0.000000	0.001621	0.001655	28.0822	19.3434	0.001757	11007.1	11.1924	179.71	19.6138	1.074898	0.024020	0.023712	20.6107	11007.1	0.022616	0.026820	768.476	61406.4
648	2.000000	1.077211	7.37139e+06	-44689.1	1005.82	-29775.1	0.000000	0.000000	7.078634	23.6926	NaN	0.000000	0.001597	0.001606	28.0823	20.7127	0.001673	12378.5	9.256986	179.213	24.6476	1.076853	0.026025	0.025667	23.6926	12378.5	0.024590	0.030274	782.617	64999.3
648	2.000000	1.079153	7.37139e+06	-44689.1	1005.82	-29775.1	0.000000	0.000000	7.080644	25.3602	NaN	0.000000	0.001655	0.001652	28.0824	23.8164	0.001860	12805.1	5.075655	-177.713	24.1863	1.078925	0.027966	0.027739	25.3602	12805.1	0.026481	0.033765	751.074	63668
648	2.000000	1.081185	7.37139e+06	-44689.1	1005.82	-29775.1	0.000000	0.000000	7.082928	31.4868	NaN	0.000000	0.001635	0.001659	28.0824	24.9884	0.001711	14606.3	5.894933	-179.807	32.0305	1.080857	0.029999	0.029671	31.4868	14606.3	0.028382	0.037457	840.608	68951.7
648	2.000000	1.083157	7.37139e+06	-44689.1	1005.82	-29775.1	0.000000	0.000000	7.085104	36.4522	NaN	0.000000	0.001607	0.001670	28.0825	27.331	0.001774	15406.6	4.864069	-178.726	35.9386	1.082866	0.031971	0.031680	36.4522	15406.6	0.030197	0.041152	885.79	69387.9
648	2.000000	1.085174	7.37139e+06	-44689.1	1005.82	-29775.1	0.000000	0.000000	7.087453	44.5351	NaN	0.000000	0.001597	0.001657	28.081	29.7282	0.001832	16224	5.926709	-179.974	43.1176	1.084778	0.033987	0.033592	44.5351	16224	0.031929	0.044836	993.29	70003
648	2.000000	1.087131	7.37139e+06	-44689.1	1005.82	-29775.1	0.000000	0.000000	7.089748	52.7432	NaN	0.000000	0.001608	0.001634	28.0812	31.4455	0.001693	18575.8	7.379649	176.088	50.9824	1.086801	0.035945	0.035615	52.7432	18575.8	0.033816	0.049024	1075.86	76650.7
648	2.000000	1.089122	7.37139e+06	-44689.1	1005.82	-29775.1	0.000000	0.000000	7.091964	58.2193	NaN	0.000000	0.001606	0.001674	28.0811	34.0187	0.001804	18857	7.877596	175.437	56.0749	1.088853	0.037936	0.037667	58.2193	18857	0.035621	0.053201	1094.33	74694.3
648	2.000000	1.091158	7.37139e+06	-44689.1	1005.82	-29775.1	0.000000	0.000000	7.094224	63.6673	NaN	0.000000	0.001611	0.001688	28.0816	35.4587	0.001742	20360.4	6.293915	176.083	62.778	1.090818	0.039972	0.039631	63.6673	20360.4	0.037627	0.058039	1096.98	77214.8
648	2.000000	1.093145	7.37139e+06	-44689.1	1005.82	-29775.1	0.000000	0.000000	7.096688	75.2788	NaN	0.000000	0.001610	0.001661	28.0815	38.523	0.001796	21448.5	7.603637	175.081	75.3382	1.092796	0.041959	0.041609	75.2788	21448.5	0.039327	0.062301	1208.31	78509.9
648	2.000000	1.095155	7.37139e+06	-44689.1	1005.82	-29775.1	0.000000	0.000000	7.098969	81.8672	NaN	0.000000	0.001642	0.001659	28.0811	40.6972	0.001829	22245.3	7.782384	174.764	80.3095	1.094794	0.043969	0.043608	81.8672	22245.3	0.041209	0.067189	1218.46	78408.4
648	2.000000	1.097138	7.37139e+06	-44689.1	1005.82	-29775.1	0.000000	0.000000	7.101443	93.8026	NaN	0.000000	0.001640	0.001662	28.0812	42.0227	0.001855	22650.3	4.069938	178.555	93.3971	1.096860	0.045952	0.045674	93.8026	22650.3	0.042846	0.071591	1310.26	77342.8
648	2.000000	1.099122	7.37139e+06	-44689.1	1005.82	-29775.1	0.000000	0.000000	7.103968	106.982	NaN	0.000000	0.001602	0.001660	28.0812	44.3673	0.001888	23496.7	6.600406	175.499	105.542	1.098806	0.047936	0.047620	106.982	23496.7	0.044521	0.076234	1403.34	77751.1
648	2.000000	1.101143	7.37139e+06	-44689.1	1005.82	-29775.1	0.000000	0.000000	7.106379	116.477	NaN	0.000000	0.001606	0.001695	28.0817	45.2588	0.001644	27530.9	1.948655	178.538	116.77	1.100829	0.049957	0.049643	116.477	27530.9	0.046784	0.082732	1407.89	87449.6
648	2.000000	1.103097	7.37139e+06	-44689.1	1005.82	-29775.1	0.000000	0.000000	7.109058	134.108	NaN	0.000000	0.001632	0.001685	28.0814	47.5705	0.001741	27317.5	-0.076451	-179.043	131.671	1.102750	0.051911	0.051564	134.108	27317.5	0.048229	0.087018	1541.14	84607.6
648	2.000000	1.105169	7.37139e+06	-44689.1	1005.82	-29775.1	0.000000	0.000000	7.111646	146.663	NaN	0.000000	0.001643	0.001682	28.081	50.6396	0.001751	28925	4.315406	176.516	147.032	1.104780	0.053983	0.053594	146.663	28925	0.050180	0.092970	1577.52	86671.1
648	2.000000	1.107074	7.37139e+06	-44689.1	1005.82	-29775.1	0.000000	0.000000	7.114072	159.337	NaN	0.000000	0.001616	0.001702	28.0811	52.4474	0.001681	31207.7	4.235851	175.307	156.041	1.106812	0.055888	0.055626	159.337	31207.7	0.052058	0.098881	1611.39	90672.9
648	2.000000	1.109126	7.37139e+06	-44689.1	1005.82	-29775.1	0.000000	0.000000	7.116326	164.255	NaN	0.000000	0.001651	0.001715	28.0809	55.8095	0.001824	30599.9	3.145156	176.205	161.954	1.108952	0.057940	0.057766	164.255	30599.9	0.053914	0.104894	1565.91	86321.4
648	2.000000	1.111146	7.37139e+06	-44689.1	1005.82	-29775.1	0.000000	0.000000	7.119142	183.612	NaN	0.000000	0.001623	0.001731	28.0816	55.4455	0.001647	33665.9	0.480753	178.499	182.706	1.110785	0.059960	0.059599	183.612	33665.9	0.055870	0.111415	1648	92149.1
648	2.000000	1.113087	7.37139e+06	-44689.1	1005.82	-29775.1	0.000000	0.000000	7.121791	200.84	NaN	0.000000	0.001638	0.001725	28.081	60.2867	0.001739	34673.4	4.233136	175.271	199.772	1.112729	0.061901	0.061543	200.84	34673.4	0.057557	0.117193	1713.75	92537.6
648	2.000000	1.115041	7.37139e+06	-44689.1	1005.82	-29775.1	0.000000	0.000000	7.124545	220.28	NaN	0.000000	0.001646	0.001693	28.0809	61.1402	0.001655	36948.2	2.314362	175.795	215.042	1.114718	0.063855	0.063532	220.28	36948.2	0.059384	0.123608	1782.08	96015.9
648	2.000000	1.117025	7.37139e+06	-44689.1	1005.82	-29775.1	0.000000	0.000000	7.126966	230.943	NaN	0.000000	0.001634	0.001657	28.0811	63.8901	0.001822	35059.9	3.455945	174.987	226.181	1.116729	0.065839	0.065542	230.943	35059.9	0.060898	0.129049	1789.57	89167.6
648	2.000000	1.119078	7.37139e+06	-44689.1	1005.82	-29775.1	0.000000	0.000000	7.129844	250.995	NaN	0.000000	0.001659	0.001621	28.0822	65.8156	0.001720	38261.9	1.161702	176.618	248.371	1.118784	0.067892	0.067598	250.995	38261.9	0.062972	0.136682	1836.34	94554.7
648	2.000000	1.121024	7.37139e+06	-44689.1	1005.82	-29775.1	0.000000	0.000000	7.132795	275.461	NaN	0.000000	0.001623	0.001651	28.0826	67.3801	0.001757	38357.1	3.715600	174.374	270.692	1.120678	0.069838	0.069492	275.461	38357.1	0.064452	0.142254	1936.4	92915.3
648	2.000000	1.123019	7.37139e+06	-44689.1	1005.82	-29775.1	0.000000	0.000000	7.135334	288.686	NaN	0.000000	0.001620	0.001692	28.082	70.3763	0.001812	38847.6	4.817642	173.404	284.431	1.122685	0.071833	0.071499	288.686	38847.6	0.066260	0.149206	1934.81	91884.8
648	2.000000	1.125116	7.37139e+06	-44689.1	1005.82	-29775.1	0.000000	0.000000	7.137964	301.651	NaN	0.000000	0.001586	0.001698	28.0819	72.9873	0.001822	40063.4	3.918112	173.844	298.961	1.124797	0.073930	0.073611	301.651	40063.4	0.068283	0.157174	1919.22	92327.5
648	2.000000	1.127023	7.37139e+06	-44689.1	1005.82	-29775.1	0.000000	0.000000	7.140598	319.351	NaN	0.000000	0.001606	0.001717	28.0819	73.6219	0.001797	40965.5	3.024782	174.045	315.243	1.126811	0.075836	0.075625	319.351	40965.5	0.069990	0.164046	1946.71	92407.8
648	2.000000	1.129055	7.37139e+06	-44689.1	1005.82	-29775.1	0.000000	0.000000	7.143426	338.705	NaN	0.000000	0.001598	0.001677	28.082	76.0449	0.001824	41696.9	2.582365	174.541	336.159	1.128813	0.077869	0.077627	338.705	41696.9	0.071777	0.171391	1976.21	92020.1
648	2.000000	1.131095	7.37139e+06	-44689.1	1005.82	-29775.1	0.000000	0.000000	7.146512	364.154	NaN	0.000000	0.001612	0.001692	28.0823	76.5947	0.001760	43520.3	4.871180	171.97	362.469	1.130778	0.079909	0.079592	364.154	43520.3	0.073633	0.179181	2032.32	93933.2
648	2.000000	1.133065	7.37139e+06	-44689.1	1005.82	-29775.1	0.000000	0.000000	7.149234	382.45	NaN	0.000000	0.001606	0.001682	28.082	77.8972	0.001819	42815.7	1.331091	176.307	379.502	1.132645	0.081879	0.081459	382.45	42815.7	0.075179	0.185793	2058.48	90753.1
648	2.000000	1.135047	7.37139e+06	-44689.1	1005.82	-29775.1	0.000000	0.000000	7.151955	400.442	NaN	0.000000	0.001587	0.001656	28.0824	79.8668	0.001833	43562.9	5.330027	171.892	395.918	1.134703	0.083860	0.083517	400.442	43562.9	0.076966	0.193575	2068.67	90462
648	2.000000	1.137154	7.37139e+06	-44689.1	1005.82	-29775.1	0.000000	0.000000	7.154516	411.467	NaN	0.000000	0.001602	0.001684	28.0821	82.3438	0.001849	44533.2	8.489516	168.602	416.637	1.136823	0.085968	0.085637	411.467	44533.2	0.079038	0.202784	2029.09	90352.4
648	2.000000	1.138990	7.37139e+06	-44689.1	1005.82	-29775.1	0.000000	0.000000	7.157503	439.481	NaN	0.000000	0.001573	0.001701	28.0821	82.1496	0.001804	45540.5	2.819904	174.051	433.977	1.138703	0.087804	0.087517	439.481	45540.5	0.080566	0.209704	2095.72	90858.9
648	2.000000	1.141075	7.37139e+06	-44689.1	1005.82	-29775.1	0.000000	0.000000	7.160333	457.612	NaN	0.000000	0.001712	0.001698	28.0822	82.0741	0.001659	49464.1	-1.064131	176.849	454.757	1.140801	0.089888	0.089615	457.612	49464.1	0.082950	0.220719	2073.28	96192.9
648	2.000000	1.142989	7.37139e+06	-44689.1	1005.82	-29775.1	0.000000	0.000000	7.163277	482.661	NaN	0.000000	0.001622	0.001680	28.0821	87.1412	0.001837	47441.4	2.963109	173.181	477.613	1.142685	0.091803	0.091499	482.661	47441.4	0.084172	0.226469	2131.25	91080.8
648	2.000000	1.145115	7.37139e+06	-44689.1	1005.82	-29775.1	0.000000	0.000000	7.166026	497.806	NaN	0.000000	0.001583	0.001700	28.0825	89.7943	0.001821	49314.8	2.482713	173.74	500.271	1.144822	0.093929	0.093636	497.806	49314.8	0.086358	0.236923	2101.13	92565.1
648	2.000000	1.146934	7.37139e+06	-44689.1	1005.82	-29775.1	0.000000	0.000000	7.169491	537.846	NaN	0.000000	0.001666	0.001679	28.082	89.8122	0.001838	48876.8	3.531784	173.078	530.093	1.146676	0.095748	0.095490	537.846	48876.8	0.087495	0.242446	2218.42	90691.9
648	2.000000	1.149043	7.3714e+06	-44689.1	1005.82	-29775.1	0.000000	0.000000	7.172047	548.719	NaN	0.000000	0.001595	0.001656	28.0821	93.5841	0.001880	49789.2	4.897512	171.56	546.661	1.148592	0.097857	0.097406	548.719	49789.2	0.089591	0.252790	2170.65	90475
648	2.000000	1.151018	7.3714e+06	-44689.1	1005.82	-29775.1	0.000000	0.000000	7.175294	579.667	NaN	0.000000	0.001588	0.001651	28.0821	93.3565	0.001768	52807.9	4.726173	171.087	575.693	1.150714	0.099832	0.099528	579.667	52807.9	0.091599	0.262885	2205.02	94099.9
648	2.000000	1.153082	7.3714e+06	-44689.1	1005.82	-29775.1	0.000000	0.000000	7.177979	594.78	NaN	0.000000	0.001653	0.001654	28.0811	96.4495	0.001790	53894.8	4.273879	171.181	594.489	1.152693	0.101896	0.101507	594.78	53894.8	0.093619	0.273224	2176.9	94202.2
648	2.000000	1.155107	7.3714e+06	-44689.1	1005.82	-29775.1	0.000000	0.000000	7.180997	618.947	NaN	0.000000	0.001659	0.001675	28.0812	98.442	0.001850	53210.7	3.181229	172.518	617.903	1.154799	0.103920	0.103612	618.947	53210.7	0.095196	0.281432	2199.28	91640.1
648	2.000000	1.156891	7.3714e+06	-44689.1	1005.82	-29775.1	0.000000	0.000000	7.184189	653.183	NaN	0.000000	0.001701	0.001708	28.0809	99.6328	0.001785	55804.5	1.868332	173.403	643.239	1.156519	0.105705	0.105333	653.183	55804.5	0.096927	0.290564	2247.99	94585
648	2.000000	1.158890	7.3714e+06	-44689.1	1005.82	-29775.1	0.000000	0.000000	7.186515	661.129	NaN	0.000000	0.001681	0.001684	28.0808	102.638	0.001744	58855.1	6.273012	168.128	652.339	1.158671	0.107704	0.107485	661.129	58855.1	0.099279	0.303198	2180.52	97654.9
648	2.000000	1.161026	7.3714e+06	-44689.1	1005.82	-29775.1	0.000000	0.000000	7.190190	698.574	NaN	0.000000	0.001640	0.001675	28.0806	102.752	0.001893	54276.1	3.829155	171.76	697.403	1.160721	0.109840	0.109535	698.574	54276.1	0.100187	0.308140	2267.07	89332.3
648	2.000000	1.163359	7.3714e+06	-44689.1	1005.82	-29775.1	0.000000	0.000000	7.192364	694.72	NaN	0.000000	0.001643	0.001655	28.0806	105.384	0.001747	60307.7	6.913732	168.318	714.065	1.162939	0.112173	0.111752	694.72	60307.7	0.103533	0.326684	2126.58	96401
648	2.000000	1.163591	7.3714e+06	-44689.1	1005.82	-29775.1	0.000000	0.000000	7.192466	691.545	NaN	0.000000	0.001677	0.001696	28.0808	104.97	0.001885	55694.3	2.449345	-7.466468	687.41	1.163381	0.112405	0.112195	691.545	55694.3	0.103093	0.324212	2133	89365.4