File: remote_trans/data/nanoindenter/0828-1/data/Data_2025-08-06,11h17m57s/2025-07-22_16-23-58_1_174.txt
2025-07-22, 16:23:58, 1
Index	Phase	Displacement	Time	Pos X	Pos Y	Pos Z	Rot A	Rot B	Piezo Z	Force A	Force B	Gripper	Voltage A	Voltage B	Temperature	Amplitude force	Amplitude pos	Stiffness	Phase shift	Phase excitation	Force A raw	Displacement raw	HMax	HMax raw	Real Force	Real Stiffness	Contact Depth	Area	Hardness	Reduced Mod.
[#]	[#]	[um]	[s]	[um]	[um]	[um]	[m°]	[m°]	[um]	[uN]	[uN]	[V]	[V]	[V]	[°C]	[uN]	[um]	[N/m]	[°]	[°]	[uN]	[um]	[um]	[um]	[uN]	[N/m]	[um]	[um^2]	[MPa]	[MPa]
174	1.000000	0.002988	7.36674e+06	-47339.1	955.819	-29766.8	0.000000	0.000000	6.002842	-0.073338	NaN	0.000000	0.001648	0.001706	28.134	0.062891	0.000860	73.0914	-160.653	-166.693	-0.051493	0.001703	-1.014659	-1.015944	-0.073338	73.0914	-1.013906	-3.491041E+13	2.100755E-15	NaN
174	1.000000	0.010937	7.36674e+06	-47339.1	955.817	-29766.8	0.000000	0.000000	6.010796	0.035719	NaN	0.000000	0.001647	0.001715	28.1332	0.078446	0.000982	79.8474	-69.9254	-164.404	0.018278	0.009622	-1.006710	-1.008025	0.035719	79.8474	-1.007045	-2.822354E+13	-1.265571E-15	NaN
174	1.000000	0.018902	7.36674e+06	-47339.1	955.818	-29766.8	0.000000	0.000000	6.018761	0.029945	NaN	0.000000	0.001677	0.001709	28.1338	0.079004	0.001742	45.3409	112.137	-165.346	0.034990	0.017574	-0.998745	-1.000073	0.029945	45.3409	-0.999240	-2.215826E+13	-1.351432E-15	NaN
174	1.000000	0.026950	7.36674e+06	-47339.1	955.818	-29766.8	0.000000	0.000000	6.026807	-0.003702	NaN	0.000000	0.001670	0.001698	28.1341	0.046471	0.001885	24.6473	-3.825557	-163.993	0.024070	0.025615	-0.990697	-0.992032	-0.003702	24.6473	-0.990584	-1.694255E+13	2.185275E-16	NaN
174	1.000000	0.034915	7.36674e+06	-47339.1	955.818	-29766.8	0.000000	0.000000	6.034774	0.035918	NaN	0.000000	0.001683	0.001696	28.1324	0.014415	0.001874	7.691531	-80.1349	-165.306	0.019028	0.033600	-0.982732	-0.984047	0.035918	7.691531	-0.986235	-1.480460E+13	-2.426153E-15	NaN
174	1.000000	0.042909	7.36674e+06	-47339.1	955.819	-29766.8	0.000000	0.000000	6.042768	0.028449	NaN	0.000000	0.001736	0.001699	28.1321	0.059415	0.001990	29.854	135.796	-164.394	0.018564	0.041649	-0.974738	-0.975998	0.028449	29.854	-0.975452	-1.059594E+13	-2.684922E-15	NaN
174	1.000000	0.050916	7.36674e+06	-47339.1	955.818	-29766.8	0.000000	0.000000	6.050775	0.038803	NaN	0.000000	0.001674	0.001674	28.1323	0.061084	0.001990	30.693	120.332	-163.685	0.057709	0.049551	-0.966730	-0.968096	0.038803	30.693	-0.967679	-8.324860E+12	-4.661142E-15	NaN
174	1.000000	0.058921	7.36674e+06	-47339.1	955.818	-29766.8	0.000000	0.000000	6.058782	0.094187	NaN	0.000000	0.001719	0.001718	28.1324	0.032328	0.001949	16.5885	-101.126	-168.861	0.025601	0.057572	-0.958726	-0.960075	0.094187	16.5885	-0.962984	-7.196171E+12	-1.308847E-14	NaN
174	1.000000	0.066901	7.36674e+06	-47339.1	955.818	-29766.8	0.000000	0.000000	6.066761	0.046103	NaN	0.000000	0.001681	0.001703	28.1312	0.041516	0.001973	21.037	114.241	-166.855	0.098703	0.065629	-0.950746	-0.952018	0.046103	21.037	-0.952389	-5.179048E+12	-8.901836E-15	NaN
174	1.000000	0.074901	7.36674e+06	-47339.1	955.818	-29766.8	0.000000	0.000000	6.074761	0.060176	NaN	0.000000	0.001651	0.001704	28.1318	0.048376	0.001902	25.4335	35.0725	-166.473	-0.012115	0.073574	-0.942746	-0.944073	0.060176	25.4335	-0.944520	-4.056157E+12	-1.483559E-14	NaN
174	1.000000	0.082896	7.36674e+06	-47339.1	955.818	-29766.8	0.000000	0.000000	6.082753	-0.009219	NaN	0.000000	0.001677	0.001693	28.132	0.054716	0.002092	26.155	90.7069	-162.917	-0.011003	0.081554	-0.934751	-0.936093	-0.009219	26.155	-0.934486	-2.969903E+12	3.104162E-15	NaN
174	1.000000	0.090916	7.36674e+06	-47339.1	955.818	-29766.8	0.000000	0.000000	6.090771	-0.051780	NaN	0.000000	0.001631	0.001676	28.1324	0.063237	0.002090	30.2626	-105.518	-166.831	-0.029321	0.089641	-0.926731	-0.928006	-0.051780	30.2626	-0.925448	-2.242601E+12	2.308934E-14	NaN
174	1.000000	0.098902	7.36674e+06	-47339.1	955.819	-29766.8	0.000000	0.000000	6.098758	-0.017669	NaN	0.000000	0.001655	0.001709	28.1321	0.097074	0.002096	46.3141	175.525	-164.069	0.055881	0.097582	-0.918745	-0.920065	-0.017669	46.3141	-0.918459	-1.804676E+12	9.790947E-15	NaN
174	1.000000	0.106912	7.36674e+06	-47339.1	955.817	-29766.8	0.000000	0.000000	6.106769	0.003645	NaN	0.000000	0.001604	0.001696	28.1322	0.042893	0.002061	20.8077	154.025	-165.669	-0.001280	0.105599	-0.910735	-0.912048	0.003645	20.8077	-0.910867	-1.425179E+12	-2.557583E-15	NaN
174	1.000000	0.114919	7.36674e+06	-47339.1	955.818	-29766.8	0.000000	0.000000	6.114781	0.116841	NaN	0.000000	0.001663	0.001691	28.1313	0.120747	0.002102	57.4542	-155.122	-167.194	0.077379	0.113561	-0.902728	-0.904085	0.116841	57.4542	-0.904253	-1.160199E+12	-1.007075E-13	NaN
174	1.000000	0.122937	7.36674e+06	-47339.1	955.818	-29766.8	0.000000	0.000000	6.122795	0.000944	NaN	0.000000	0.001624	0.001703	28.1311	0.043215	0.001815	23.8124	142.523	-166.089	0.002576	0.121609	-0.894710	-0.896038	0.000944	23.8124	-0.894739	-8.629309E+11	-1.094451E-15	NaN
174	1.000000	0.130923	7.36674e+06	-47339.1	955.818	-29766.8	0.000000	0.000000	6.130783	0.057986	NaN	0.000000	0.001614	0.001726	28.1315	0.088536	0.002061	42.956	-20.5257	-164.357	0.032864	0.129614	-0.886724	-0.888033	0.057986	42.956	-0.887736	-6.939248E+11	-8.356283E-14	NaN
174	1.000000	0.138926	7.36674e+06	-47339.1	955.819	-29766.8	0.000000	0.000000	6.138785	0.038757	NaN	0.000000	0.001659	0.001704	28.131	0.089195	0.002002	44.5632	-131.274	-167.213	0.013115	0.137622	-0.878721	-0.880025	0.038757	44.5632	-0.879373	-5.348518E+11	-7.246297E-14	NaN
174	1.000000	0.146941	7.36674e+06	-47339.1	955.819	-29766.8	0.000000	0.000000	6.146797	-0.049805	NaN	0.000000	0.001666	0.001671	28.1313	0.052324	0.001976	26.4791	130.195	-169.684	0.021575	0.145595	-0.870706	-0.872052	-0.049805	26.4791	-0.869295	-3.907543E+11	1.274589E-13	NaN
174	1.000000	0.154921	7.36674e+06	-47339.1	955.818	-29766.8	0.000000	0.000000	6.154776	-0.044072	NaN	0.000000	0.001663	0.001703	28.132	0.031687	0.002057	15.4042	48.3306	-167.086	-0.016047	0.153623	-0.862726	-0.864024	-0.044072	15.4042	-0.860580	-2.978363E+11	1.479755E-13	NaN
174	1.000000	0.162916	7.36674e+06	-47339.1	955.818	-29766.8	0.000000	0.000000	6.162773	-0.012808	NaN	0.000000	0.001708	0.001683	28.132	0.027450	0.001980	13.8659	-97.3698	-164.166	0.058845	0.161669	-0.854730	-0.855978	-0.012808	13.8659	-0.854038	-2.428889E+11	5.273352E-14	NaN
174	1.000000	0.170954	7.36674e+06	-47339.1	955.818	-29766.8	0.000000	0.000000	6.170812	0.009181	NaN	0.000000	0.001681	0.001703	28.1325	0.078650	0.001915	41.0807	-69.0475	-169.187	-0.007822	0.169681	-0.846693	-0.847966	0.009181	41.0807	-0.846861	-1.941878E+11	-4.727906E-14	NaN
174	1.000000	0.178946	7.36674e+06	-47339.1	955.818	-29766.8	0.000000	0.000000	6.178805	0.029662	NaN	0.000000	0.001666	0.001692	28.1321	0.030461	0.001958	15.5606	-46.0519	-166.235	0.008342	0.177695	-0.838701	-0.839951	0.029662	15.5606	-0.840130	-1.574200E+11	-1.884286E-13	NaN
174	1.000000	0.186969	7.36674e+06	-47339.1	955.819	-29766.8	0.000000	0.000000	6.186825	-0.055287	NaN	0.000000	0.001676	0.001733	28.1327	0.059836	0.002055	29.1145	34.2095	-163.381	-0.015195	0.185670	-0.830678	-0.831976	-0.055287	29.1145	-0.829253	-1.121150E+11	4.931314E-13	NaN
174	1.000000	0.194962	7.36674e+06	-47339.1	955.818	-29766.8	0.000000	0.000000	6.194824	0.127888	NaN	0.000000	0.001673	0.001701	28.1318	0.047232	0.001922	24.5763	74.4708	-163.421	0.133278	0.193644	-0.822685	-0.824003	0.127888	24.5763	-0.826588	-1.031658E+11	-1.239638E-12	NaN
174	1.000000	0.202971	7.36674e+06	-47339.1	955.817	-29766.8	0.000000	0.000000	6.202829	0.010321	NaN	0.000000	0.001653	0.001711	28.1325	0.048284	0.002043	23.6318	-147.417	-166.894	0.035960	0.201681	-0.814676	-0.815966	0.010321	23.6318	-0.815004	-7.185385E+10	-1.436355E-13	NaN
174	1.000000	0.210960	7.36674e+06	-47339.1	955.817	-29766.8	0.000000	0.000000	6.210818	0.026816	NaN	0.000000	0.001648	0.001713	28.1323	0.100654	0.002007	50.1393	-91.2973	-166.423	0.033932	0.209593	-0.806687	-0.808054	0.026816	50.1393	-0.807089	-5.611346E+10	-4.778830E-13	NaN
174	1.000000	0.218987	7.36674e+06	-47339.1	955.817	-29766.8	0.000000	0.000000	6.218846	0.034017	NaN	0.000000	0.001678	0.001719	28.1321	0.079183	0.001967	40.2635	-5.307919	-167.057	0.143165	0.217657	-0.798660	-0.799990	0.034017	40.2635	-0.799293	-4.398159E+10	-7.734327E-13	NaN
174	1.000000	0.227000	7.36674e+06	-47339.1	955.818	-29766.8	0.000000	0.000000	6.226857	-0.010710	NaN	0.000000	0.001637	0.001688	28.1327	0.046761	0.002042	22.8977	-109.997	-164.054	-0.039133	0.225636	-0.790646	-0.792011	-0.010710	22.8977	-0.790296	-3.319697E+10	3.226270E-13	NaN
174	1.000000	0.234966	7.36674e+06	-47339.1	955.818	-29766.8	0.000000	0.000000	6.234823	0.012967	NaN	0.000000	0.001653	0.001689	28.1336	0.116527	0.002070	56.2893	-96.543	-165.088	-0.032833	0.233652	-0.782681	-0.783995	0.012967	56.2893	-0.782854	-2.630350E+10	-4.929791E-13	NaN
174	1.000000	0.242970	7.36674e+06	-47339.1	955.817	-29766.8	0.000000	0.000000	6.242826	-0.025668	NaN	0.000000	0.001643	0.001692	28.1335	0.037252	0.002096	17.7738	-178.872	-167.658	0.067263	0.241616	-0.774677	-0.776031	-0.025668	17.7738	-0.773594	-1.968630E+10	1.303835E-12	NaN
174	1.000000	0.250947	7.36674e+06	-47339.1	955.819	-29766.8	0.000000	0.000000	6.250805	0.027167	NaN	0.000000	0.001653	0.001677	28.1335	0.101782	0.001941	52.4445	117.249	-166.491	-0.019927	0.249670	-0.766700	-0.767977	0.027167	52.4445	-0.767089	-1.605912E+10	-1.691683E-12	NaN
174	1.000000	0.258993	7.36674e+06	-47339.1	955.819	-29766.8	0.000000	0.000000	6.258849	-0.025506	NaN	0.000000	0.001686	0.001755	28.1334	0.027197	0.002054	13.2414	-128.12	-165.342	0.039905	0.257723	-0.758654	-0.759924	-0.025506	13.2414	-0.757210	-1.178526E+10	2.164251E-12	NaN
174	1.000000	0.266985	7.36674e+06	-47339.1	955.818	-29766.8	0.000000	0.000000	6.266841	-0.029696	NaN	0.000000	0.001676	0.001706	28.1336	0.131653	0.001971	66.7914	-13.7001	-164.902	0.008393	0.265660	-0.750662	-0.751987	-0.029696	66.7914	-0.750328	-9.499234E+9	3.126196E-12	NaN
174	1.000000	0.274985	7.36674e+06	-47339.1	955.817	-29766.8	0.000000	0.000000	6.274842	0.007683	NaN	0.000000	0.001665	0.001688	28.1325	0.040359	0.001937	20.8397	55.4602	-167.388	0.000719	0.273675	-0.742662	-0.743972	0.007683	20.8397	-0.742939	-7.534966E+9	-1.019697E-12	NaN
174	1.000000	0.282992	7.36674e+06	-47339.1	955.817	-29766.8	0.000000	0.000000	6.282851	0.027762	NaN	0.000000	0.001662	0.001708	28.1323	0.063943	0.002109	30.313	-1.431641	-163.804	0.084167	0.281663	-0.734655	-0.735983	0.027762	30.313	-0.735341	-5.937378E+9	-4.675757E-12	NaN
174	1.000000	0.290993	7.36674e+06	-47339.1	955.819	-29766.8	0.000000	0.000000	6.290848	-0.061456	NaN	0.000000	0.001659	0.001723	28.1326	0.062320	0.002010	31.0038	5.394702	-164.251	0.031028	0.289685	-0.726654	-0.727962	-0.061456	31.0038	-0.725168	-4.314562E+9	1.424378E-11	NaN
174	1.000000	0.298980	7.36674e+06	-47339.1	955.818	-29766.8	0.000000	0.000000	6.298838	0.023249	NaN	0.000000	0.001668	0.001721	28.1332	0.090568	0.001940	46.6761	178.914	-165.605	0.060065	0.297648	-0.718667	-0.719999	0.023249	46.6761	-0.719041	-3.559516E+9	-6.531486E-12	NaN
174	1.000000	0.306992	7.36674e+06	-47339.1	955.818	-29766.8	0.000000	0.000000	6.306847	-0.066310	NaN	0.000000	0.001673	0.001689	28.1328	0.052581	0.002021	26.0231	-114.029	-164.727	0.028577	0.305724	-0.710655	-0.711923	-0.066310	26.0231	-0.708744	-2.575731E+9	2.574429E-11	NaN
174	1.000000	0.315017	7.36674e+06	-47339.1	955.817	-29766.8	0.000000	0.000000	6.314877	0.058070	NaN	0.000000	0.001633	0.001702	28.1333	0.064560	0.002102	30.7182	-32.5723	-164.031	0.018370	0.313666	-0.702630	-0.703981	0.058070	30.7182	-0.704048	-2.222289E+9	-2.613085E-11	NaN
174	1.000000	0.323013	7.36674e+06	-47339.1	955.817	-29766.8	0.000000	0.000000	6.322873	0.045911	NaN	0.000000	0.001658	0.001711	28.134	0.134924	0.001924	70.1444	45.9714	-163.532	-0.021727	0.321687	-0.694634	-0.695960	0.045911	70.1444	-0.695125	-1.678564E+9	-2.735115E-11	NaN
174	1.000000	0.331024	7.36674e+06	-47339.1	955.819	-29766.8	0.000000	0.000000	6.330878	-0.061963	NaN	0.000000	0.001730	0.001728	28.1338	0.097597	0.002017	48.3925	83.1019	-163.747	-0.003390	0.329685	-0.686623	-0.687962	-0.061963	48.3925	-0.685663	-1.246347E+9	4.971572E-11	NaN
174	1.000000	0.339009	7.36674e+06	-47339.1	955.817	-29766.8	0.000000	0.000000	6.338867	0.035714	NaN	0.000000	0.001726	0.001703	28.1328	0.074564	0.002013	37.0451	-11.2354	-166.986	0.044396	0.337699	-0.678638	-0.679948	0.035714	37.0451	-0.679361	-1.022048E+9	-3.494381E-11	NaN
174	1.000000	0.346997	7.36674e+06	-47339.1	955.819	-29766.8	0.000000	0.000000	6.346852	-0.071847	NaN	0.000000	0.001712	0.001723	28.1326	0.030486	0.002005	15.2076	118.282	-167.36	-0.001172	0.345733	-0.670650	-0.671914	-0.071847	15.2076	-0.667106	-6.946734E+8	1.034249E-10	NaN
174	1.000000	0.355012	7.36674e+06	-47339.1	955.817	-29766.8	0.000000	0.000000	6.354871	0.031172	NaN	0.000000	0.001698	0.001696	28.1315	0.079443	0.002056	38.6393	-119.248	-165.887	0.004281	0.353792	-0.662635	-0.663854	0.031172	38.6393	-0.663240	-6.149555E+8	-5.069060E-11	NaN
174	1.000000	0.363032	7.36674e+06	-47339.1	955.819	-29766.8	0.000000	0.000000	6.362888	-0.044893	NaN	0.000000	0.001695	0.001707	28.1315	0.116880	0.001923	60.7685	-164.21	-167.693	-0.083144	0.361696	-0.654615	-0.655951	-0.044893	60.7685	-0.654061	-4.603557E+8	9.751699E-11	NaN
174	1.000000	0.371014	7.36674e+06	-47339.1	955.818	-29766.8	0.000000	0.000000	6.370872	0.020855	NaN	0.000000	0.001699	0.001694	28.1316	0.049798	0.001975	25.2158	77.7265	-166.159	0.004477	0.369708	-0.646633	-0.647939	0.020855	25.2158	-0.647254	-3.713480E+8	-5.615930E-11	NaN
174	1.000000	0.379041	7.36674e+06	-47339.1	955.818	-29766.8	0.000000	0.000000	6.378899	0.012870	NaN	0.000000	0.001724	0.001713	28.1311	0.073051	0.002056	35.5293	-24.2269	-163.581	0.047367	0.377732	-0.638606	-0.639915	0.012870	35.5293	-0.638878	-2.850307E+8	-4.515220E-11	NaN
174	1.000000	0.387021	7.36674e+06	-47339.1	955.818	-29766.8	0.000000	0.000000	6.386881	0.067525	NaN	0.000000	0.001729	0.001649	28.1313	0.149623	0.002062	72.5717	-10.6268	-164.952	0.092830	0.385702	-0.630626	-0.631945	0.067525	72.5717	-0.631324	-2.244934E+8	-3.007868E-10	NaN
174	1.000000	0.395055	7.36674e+06	-47339.1	955.819	-29766.8	0.000000	0.000000	6.394911	-0.048372	NaN	0.000000	0.001730	0.001701	28.1322	0.078866	0.001958	40.2706	128.702	-166.052	0.057511	0.393679	-0.622592	-0.623968	-0.048372	40.2706	-0.621691	-1.655274E+8	2.922291E-10	NaN
174	1.000000	0.403062	7.36674e+06	-47339.1	955.818	-29766.8	0.000000	0.000000	6.402922	0.057795	NaN	0.000000	0.001671	0.001677	28.1326	0.195734	0.001985	98.5847	118.736	-169.409	0.079260	0.401752	-0.614585	-0.615895	0.057795	98.5847	-0.615025	-1.340379E+8	-4.311817E-10	NaN
174	1.000000	0.411045	7.36674e+06	-47339.1	955.818	-29766.8	0.000000	0.000000	6.410901	-0.031522	NaN	0.000000	0.001677	0.001710	28.1327	0.027144	0.002040	13.3051	164.896	-166.759	-0.062031	0.409716	-0.606602	-0.607931	-0.031522	13.3051	-0.604825	-9.702899E+7	3.248688E-10	NaN
174	1.000000	0.419046	7.36674e+06	-47339.1	955.817	-29766.8	0.000000	0.000000	6.418904	0.019687	NaN	0.000000	0.001686	0.001721	28.1327	0.106613	0.001976	53.9562	145.55	-163.895	-0.034934	0.417739	-0.598601	-0.599908	0.019687	53.9562	-0.598874	-8.034460E+7	-2.450365E-10	NaN
174	1.000000	0.427049	7.36674e+06	-47339.1	955.818	-29766.8	0.000000	0.000000	6.426909	0.059102	NaN	0.000000	0.001667	0.001731	28.1326	0.026892	0.001991	13.5058	-41.6811	-169.027	-0.084830	0.425716	-0.590598	-0.591931	0.059102	13.5058	-0.593880	-6.857234E+7	-8.618952E-10	NaN
174	1.000000	0.435044	7.36674e+06	-47339.1	955.818	-29766.8	0.000000	0.000000	6.434901	-0.017181	NaN	0.000000	0.001718	0.001709	28.1318	0.091800	0.002043	44.9285	142.424	-163.642	-0.017976	0.433781	-0.582602	-0.583866	-0.017181	44.9285	-0.582316	-4.749870E+7	3.617139E-10	NaN
174	1.000000	0.443049	7.36674e+06	-47339.1	955.818	-29766.8	0.000000	0.000000	6.442908	0.041821	NaN	0.000000	0.001707	0.001684	28.1318	0.082462	0.002049	40.2499	-80.5609	-166.796	-0.004441	0.441775	-0.574598	-0.575872	0.041821	40.2499	-0.575377	-3.809840E+7	-1.097722E-9	NaN
174	1.000000	0.451049	7.36674e+06	-47339.1	955.818	-29766.8	0.000000	0.000000	6.450907	0.034398	NaN	0.000000	0.001749	0.001721	28.1318	0.083399	0.002062	40.4475	107.292	-165.04	0.026497	0.449766	-0.566598	-0.567881	0.034398	40.4475	-0.567236	-2.940614E+7	-1.169768E-9	NaN
174	1.000000	0.459071	7.36674e+06	-47339.1	955.818	-29766.8	0.000000	0.000000	6.458929	0.016681	NaN	0.000000	0.001742	0.001736	28.1319	0.083611	0.001980	42.229	44.2669	-163.125	0.026773	0.457758	-0.558576	-0.559889	0.016681	42.229	-0.558873	-2.253098E+7	-7.403520E-10	NaN
174	1.000000	0.467071	7.36674e+06	-47339.1	955.818	-29766.8	0.000000	0.000000	6.466928	-0.014623	NaN	0.000000	0.001716	0.001731	28.1322	0.055708	0.002103	26.484	-127.372	-166.876	-0.050979	0.465773	-0.550576	-0.551874	-0.014623	26.484	-0.550162	-1.706858E+7	8.567487E-10	NaN
174	1.000000	0.475085	7.36674e+06	-47339.1	955.818	-29766.8	0.000000	0.000000	6.474944	0.044772	NaN	0.000000	0.001672	0.001740	28.1332	0.023733	0.001973	12.0298	9.071658	-164.726	0.007514	0.473776	-0.542562	-0.543871	0.044772	12.0298	-0.545353	-1.464108E+7	-3.057951E-9	NaN
174	1.000000	0.483074	7.36674e+06	-47339.1	955.819	-29766.8	0.000000	0.000000	6.482931	-0.023993	NaN	0.000000	0.001682	0.001729	28.1343	0.022601	0.002003	11.2826	-67.5929	-166.569	-0.076937	0.481766	-0.534573	-0.535881	-0.023993	11.2826	-0.532978	-9.86104e+06	2.433096E-9	NaN
174	1.000000	0.491093	7.36674e+06	-47339.1	955.818	-29766.8	0.000000	0.000000	6.490950	0.002562	NaN	0.000000	0.001651	0.001711	28.135	0.031030	0.001954	15.8819	-102.968	-165.1	0.011251	0.489821	-0.526554	-0.527826	0.002562	15.8819	-0.526675	-8.06096e+06	-3.178845E-10	NaN
174	1.000000	0.499085	7.36674e+06	-47339.1	955.818	-29766.8	0.000000	0.000000	6.498944	0.039805	NaN	0.000000	0.001682	0.001752	28.1342	0.052955	0.002099	25.2297	66.9342	-167.168	0.029170	0.497781	-0.518562	-0.519866	0.039805	25.2297	-0.519745	-6.45731e+06	-6.164285E-9	NaN
174	1.000000	0.507087	7.36674e+06	-47339.1	955.818	-29766.8	0.000000	0.000000	6.506944	-0.010862	NaN	0.000000	0.001705	0.001773	28.1347	0.080257	0.001897	42.3148	34.2015	-166.093	-0.027674	0.505816	-0.510560	-0.511831	-0.010862	42.3148	-0.510367	-4.78116e+06	2.271914E-9	NaN
174	1.000000	0.515105	7.36674e+06	-47339.1	955.819	-29766.8	0.000000	0.000000	6.514962	-0.022229	NaN	0.000000	0.001707	0.001787	28.1333	0.083670	0.001908	43.8573	-123.76	-166.377	-0.004086	0.513797	-0.502542	-0.503850	-0.022229	43.8573	-0.502161	-3.67423e+06	6.049979E-9	NaN
174	1.000000	0.523107	7.36674e+06	-47339.1	955.818	-29766.8	0.000000	0.000000	6.522963	-0.021353	NaN	0.000000	0.001705	0.001785	28.1329	0.093242	0.001998	46.6627	-168.777	-167.092	-0.025206	0.521782	-0.494540	-0.495865	-0.021353	46.6627	-0.494197	-2.84461e+06	7.506507E-9	NaN
174	1.000000	0.531116	7.36674e+06	-47339.1	955.818	-29766.8	0.000000	0.000000	6.530973	-0.021845	NaN	0.000000	0.001717	0.001774	28.1332	0.039957	0.001973	20.2515	170.247	-165.354	0.051734	0.529749	-0.486531	-0.487898	-0.021845	20.2515	-0.485722	-2.16564e+06	1.008727E-8	NaN
174	1.000000	0.539098	7.36674e+06	-47339.1	955.817	-29766.8	0.000000	0.000000	6.538956	0.007592	NaN	0.000000	0.001696	0.001790	28.133	0.059994	0.002032	29.53	-87.9101	-164.871	0.018835	0.537782	-0.478549	-0.479865	0.007592	29.53	-0.478742	-1.72946e+06	-4.390073E-9	NaN
174	1.000000	0.547121	7.36674e+06	-47339.1	955.818	-29766.8	0.000000	0.000000	6.546977	-0.014503	NaN	0.000000	0.001712	0.001766	28.1338	0.061057	0.001979	30.8563	-1.317511	-166.679	-0.032152	0.545796	-0.470526	-0.471851	-0.014503	30.8563	-0.470174	-1.31173e+06	1.105612E-8	NaN
174	1.000000	0.555103	7.36674e+06	-47339.1	955.818	-29766.8	0.000000	0.000000	6.554960	-0.018054	NaN	0.000000	0.001692	0.001734	28.1341	0.128697	0.002013	63.9281	-165.164	-164.099	0.056544	0.553798	-0.462544	-0.463849	-0.018054	63.9281	-0.462332	-1.01809e+06	1.773337E-8	NaN
174	1.000000	0.563119	7.36674e+06	-47339.1	955.818	-29766.8	0.000000	0.000000	6.562978	0.035735	NaN	0.000000	0.001704	0.001736	28.1344	0.064796	0.002059	31.4657	-172.317	-160.983	0.003307	0.561825	-0.454528	-0.455822	0.035735	31.4657	-0.455380	-812943	-4.395802E-8	NaN
174	1.000000	0.571128	7.36674e+06	-47339.1	955.817	-29766.8	0.000000	0.000000	6.570987	0.020618	NaN	0.000000	0.001677	0.001767	28.1353	0.081473	0.002050	39.7436	-25.6777	-167.692	-0.056987	0.569792	-0.446519	-0.447854	0.020618	39.7436	-0.446908	-617705	-3.337789E-8	NaN
174	1.000000	0.579113	7.36674e+06	-47339.1	955.818	-29766.8	0.000000	0.000000	6.578973	0.051171	NaN	0.000000	0.001644	0.001732	28.1341	0.054929	0.002095	26.2204	-121.442	-162.338	0.046870	0.577787	-0.438534	-0.439860	0.051171	26.2204	-0.439997	-493543	-1.036808E-7	NaN
174	1.000000	0.587127	7.36674e+06	-47339.1	955.818	-29766.8	0.000000	0.000000	6.586984	-0.004620	NaN	0.000000	0.001626	0.001734	28.1342	0.045389	0.001869	24.2839	-97.4853	-162.905	0.035497	0.585784	-0.430520	-0.431862	-0.004620	24.2839	-0.430377	-360910	1.280069E-8	NaN
174	1.000000	0.595130	7.36674e+06	-47339.1	955.817	-29766.8	0.000000	0.000000	6.594986	-0.035193	NaN	0.000000	0.001652	0.001716	28.1335	0.077924	0.001990	39.1618	174.809	-167.314	-0.017723	0.593891	-0.422517	-0.423756	-0.035193	39.1618	-0.421843	-273243	1.287955E-7	NaN
174	1.000000	0.603157	7.36674e+06	-47339.1	955.818	-29766.8	0.000000	0.000000	6.603013	-0.045050	NaN	0.000000	0.001626	0.001705	28.1333	0.072717	0.001971	36.8948	15.6004	-167.029	-0.011446	0.601810	-0.414490	-0.415837	-0.045050	36.8948	-0.413574	-208546	2.160175E-7	NaN
174	1.000000	0.611120	7.36674e+06	-47339.1	955.818	-29766.8	0.000000	0.000000	6.610976	-0.024076	NaN	0.000000	0.001626	0.001715	28.1331	0.031861	0.002079	15.3256	53.0746	-166.599	-0.032968	0.609827	-0.406527	-0.407820	-0.024076	15.3256	-0.405349	-159299	1.511390E-7	NaN
174	1.000000	0.619134	7.36674e+06	-47339.1	955.818	-29766.8	0.000000	0.000000	6.618989	-0.044138	NaN	0.000000	0.001621	0.001723	28.1318	0.119337	0.001998	59.7313	-83.7571	-166.588	-0.023006	0.617826	-0.398513	-0.399821	-0.044138	59.7313	-0.397959	-124992	3.531256E-7	NaN
174	1.000000	0.627145	7.36674e+06	-47339.1	955.819	-29766.8	0.000000	0.000000	6.627003	0.020350	NaN	0.000000	0.001630	0.001732	28.1319	0.082899	0.001974	41.9951	-80.8077	-165.276	-0.046788	0.625832	-0.390502	-0.391815	0.020350	41.9951	-0.390866	-98980.6	-2.055976E-7	NaN
174	1.000000	0.635159	7.36674e+06	-47339.1	955.819	-29766.8	0.000000	0.000000	6.635015	-0.054189	NaN	0.000000	0.001627	0.001705	28.1333	0.058223	0.002043	28.4942	-1.193166	-164.493	-0.057613	0.633828	-0.382487	-0.383818	-0.054189	28.4942	-0.381061	-71633.4	7.564831E-7	NaN
174	1.000000	0.643115	7.36674e+06	-47339.1	955.817	-29766.8	0.000000	0.000000	6.642974	0.041420	NaN	0.000000	0.001634	0.001712	28.133	0.102183	0.001842	55.4605	-38.4876	-162.466	0.025388	0.641841	-0.374532	-0.375806	0.041420	55.4605	-0.375092	-58802.4	-7.043939E-7	NaN
174	1.000000	0.651162	7.36674e+06	-47339.1	955.818	-29766.8	0.000000	0.000000	6.651019	-0.020515	NaN	0.000000	0.001649	0.001688	28.1329	0.026574	0.002123	12.5147	119.984	-164.353	-0.030617	0.649860	-0.366485	-0.367787	-0.020515	12.5147	-0.365255	-42436.5	4.834285E-7	NaN
174	1.000000	0.659138	7.36674e+06	-47339.1	955.818	-29766.8	0.000000	0.000000	6.658994	-0.022755	NaN	0.000000	0.001624	0.001718	28.133	0.050584	0.001982	25.52	65.6011	-168.271	-0.030093	0.657889	-0.358509	-0.359757	-0.022755	25.52	-0.357840	-33159.9	6.862054E-7	NaN
174	1.000000	0.667156	7.36674e+06	-47339.1	955.818	-29766.8	0.000000	0.000000	6.667014	0.020887	NaN	0.000000	0.001668	0.001691	28.1328	0.047428	0.001987	23.8702	-112.41	-166.125	0.028109	0.665846	-0.350491	-0.351801	0.020887	23.8702	-0.351147	-26524.8	-7.874656E-7	NaN
174	1.000000	0.675153	7.36674e+06	-47339.1	955.819	-29766.8	0.000000	0.000000	6.675008	-0.068761	NaN	0.000000	0.001613	0.001725	28.1325	0.076842	0.001994	38.5278	49.3985	-168.19	0.036078	0.673839	-0.342493	-0.343808	-0.068761	38.5278	-0.341155	-18983.8	3.622102E-6	NaN
174	1.000000	0.683171	7.36674e+06	-47339.1	955.818	-29766.8	0.000000	0.000000	6.683029	0.010351	NaN	0.000000	0.001692	0.001704	28.1323	0.123029	0.001832	67.1532	162.38	-167.091	0.079290	0.681851	-0.334476	-0.335796	0.010351	67.1532	-0.334592	-15227.3	-6.797730E-7	NaN
174	1.000000	0.691154	7.36674e+06	-47339.1	955.818	-29766.8	0.000000	0.000000	6.691009	-0.063313	NaN	0.000000	0.001644	0.001707	28.1324	0.059502	0.002006	29.6639	-74.1524	-164.825	-0.017139	0.689832	-0.326493	-0.327815	-0.063313	29.6639	-0.324892	-10978.7	5.766868E-6	NaN
174	1.000000	0.699188	7.36674e+06	-47339.1	955.818	-29766.8	0.000000	0.000000	6.699044	-0.048861	NaN	0.000000	0.001593	0.001728	28.1322	0.013195	0.001856	7.109468	-74.8965	-161.869	-0.032491	0.697856	-0.318459	-0.319791	-0.048861	7.109468	-0.313304	-7411.57	6.592568E-6	NaN
174	1.000000	0.707174	7.36674e+06	-47339.1	955.818	-29766.8	0.000000	0.000000	6.707028	-0.078445	NaN	0.000000	0.001653	0.001706	28.1321	0.063936	0.002036	31.4023	-153.896	-166.374	-0.020572	0.705831	-0.310473	-0.311816	-0.078445	31.4023	-0.308599	-6314.19	1.242367E-5	NaN
174	1.000000	0.715152	7.36674e+06	-47339.1	955.817	-29766.8	0.000000	0.000000	6.715008	-0.024050	NaN	0.000000	0.001723	0.001693	28.1332	0.046556	0.002017	23.0858	124.881	-164.753	-0.040653	0.713827	-0.302495	-0.303820	-0.024050	23.0858	-0.301714	-4990.36	4.819342E-6	NaN
174	1.000000	0.723148	7.36674e+06	-47339.1	955.818	-29766.8	0.000000	0.000000	6.723005	0.005472	NaN	0.000000	0.001703	0.001731	28.133	0.043881	0.001918	22.8839	109.368	-167.767	-0.019038	0.721909	-0.294499	-0.295738	0.005472	22.8839	-0.294679	-3920.01	-1.395947E-6	NaN
174	1.000000	0.731150	7.36674e+06	-47339.1	955.818	-29766.8	0.000000	0.000000	6.731005	-0.065437	NaN	0.000000	0.001732	0.001755	28.133	0.128426	0.001845	69.6217	-160.699	-169.27	-0.141505	0.729926	-0.286497	-0.287721	-0.065437	69.6217	-0.285792	-2885.12	2.268070E-5	NaN
174	1.000000	0.739188	7.36674e+06	-47339.1	955.818	-29766.8	0.000000	0.000000	6.739044	-0.053246	NaN	0.000000	0.001724	0.001742	28.1334	0.038444	0.002006	19.1622	139.315	-164.801	-0.028914	0.737837	-0.278459	-0.279810	-0.053246	19.1622	-0.276375	-2080.67	2.559075E-5	NaN
174	1.000000	0.747179	7.36674e+06	-47339.1	955.819	-29766.8	0.000000	0.000000	6.747034	-0.057838	NaN	0.000000	0.001715	0.001734	28.1331	0.056227	0.002036	27.6228	144.809	-166.52	-0.068701	0.745933	-0.270468	-0.271714	-0.057838	27.6228	-0.268897	-1602.43	3.609419E-5	NaN
174	1.000000	0.755178	7.36674e+06	-47339.1	955.818	-29766.8	0.000000	0.000000	6.755035	-0.017901	NaN	0.000000	0.001689	0.001739	28.1332	0.031798	0.002026	15.6962	85.9114	-167.14	-0.023012	0.753922	-0.262469	-0.263725	-0.017901	15.6962	-0.261613	-1240.59	1.442959E-5	NaN
174	1.000000	0.763195	7.36674e+06	-47339.1	955.818	-29766.8	0.000000	0.000000	6.763053	-0.002093	NaN	0.000000	0.001700	0.001711	28.134	0.139677	0.002008	69.5477	3.316358	-167.408	0.025435	0.761900	-0.254451	-0.255747	-0.002093	69.5477	-0.254429	-962.324	2.174577E-6	NaN
174	1.000000	0.771207	7.36674e+06	-47339.1	955.818	-29766.8	0.000000	0.000000	6.771063	-0.051033	NaN	0.000000	0.001666	0.001709	28.1337	0.189532	0.002173	87.2136	130.879	-166.38	-0.011253	0.769942	-0.246440	-0.247705	-0.051033	87.2136	-0.246001	-712.845	7.159025E-5	NaN
174	1.000000	0.779205	7.36674e+06	-47339.1	955.817	-29766.9	0.000000	0.000000	6.779061	-0.016275	NaN	0.000000	0.001657	0.001734	28.1337	0.020378	0.001992	10.2278	-53.3129	-165.481	-0.041774	0.777896	-0.238442	-0.239751	-0.016275	10.2278	-0.237249	-520.62	3.126060E-5	NaN
174	1.000000	0.787218	7.36674e+06	-47339.1	955.818	-29766.8	0.000000	0.000000	6.787074	-0.032921	NaN	0.000000	0.001633	0.001722	28.133	0.065214	0.001933	33.7332	122.776	-162.114	-0.095609	0.785895	-0.230429	-0.231752	-0.032921	33.7332	-0.229697	-396.03	8.312818E-5	NaN
174	1.000000	0.795214	7.36674e+06	-47339.1	955.818	-29766.9	0.000000	0.000000	6.795071	0.002343	NaN	0.000000	0.001717	0.001675	28.134	0.080668	0.001936	41.6704	110.118	-167.287	0.057415	0.793911	-0.222433	-0.223736	0.002343	41.6704	-0.222475	-304.21	-7.701489E-6	NaN
174	1.000000	0.803227	7.36674e+06	-47339.1	955.817	-29766.9	0.000000	0.000000	6.803082	-0.055711	NaN	0.000000	0.001653	0.001718	28.1354	0.033898	0.001903	17.8097	-174.96	-165.662	-0.123710	0.801887	-0.214420	-0.215760	-0.055711	17.8097	-0.212074	-207.187	0.000269	NaN
174	1.000000	0.811227	7.36674e+06	-47339.1	955.819	-29766.9	0.000000	0.000000	6.811083	-0.030186	NaN	0.000000	0.001763	0.001741	28.1345	0.057730	0.002005	28.7888	-130.582	-162.595	-0.044512	0.809927	-0.206420	-0.207720	-0.030186	28.7888	-0.205634	-162.89	0.000185	NaN
174	1.000000	0.819218	7.36674e+06	-47339.1	955.818	-29766.9	0.000000	0.000000	6.819073	-0.051444	NaN	0.000000	0.001726	0.001733	28.1343	0.158560	0.001885	84.1018	-110.109	-168.203	-0.093585	0.817964	-0.198429	-0.199683	-0.051444	84.1018	-0.197970	-121.98	0.000422	NaN
174	1.000000	0.827221	7.36674e+06	-47339.1	955.818	-29766.9	0.000000	0.000000	6.827081	0.064425	NaN	0.000000	0.001723	0.001742	28.1346	0.055011	0.002035	27.0297	116.112	-166.643	-0.016549	0.825897	-0.190426	-0.191750	0.064425	27.0297	-0.192214	-97.9351	-0.000658	NaN
174	1.000000	0.835190	7.36674e+06	-47339.1	955.819	-29766.9	0.000000	0.000000	6.835048	0.028916	NaN	0.000000	0.001653	0.001688	28.1333	0.092748	0.002054	45.1509	133.011	-167.487	0.049027	0.833877	-0.182457	-0.183770	0.028916	45.1509	-0.182938	-68.4392	-0.000423	NaN
174	1.000000	0.843229	7.36674e+06	-47339.1	955.818	-29766.9	0.000000	0.000000	6.843088	0.031126	NaN	0.000000	0.001617	0.001712	28.1337	0.036247	0.002009	18.0443	-158.556	-165.444	0.016567	0.841928	-0.174418	-0.175719	0.031126	18.0443	-0.175711	-51.5458	-0.000604	NaN
174	1.000000	0.851235	7.36674e+06	-47339.1	955.818	-29766.9	0.000000	0.000000	6.851090	-0.052369	NaN	0.000000	0.001700	0.001728	28.1336	0.023020	0.002055	11.2042	5.009525	-171.179	-0.022213	0.849962	-0.166412	-0.167684	-0.052369	11.2042	-0.162906	-30.8638	0.001697	NaN
174	1.000000	0.859235	7.36674e+06	-47339.1	955.818	-29766.9	0.000000	0.000000	6.859091	-0.029007	NaN	0.000000	0.001673	0.001730	28.1332	0.082723	0.002106	39.2773	-156.445	-166.962	0.001998	0.857903	-0.158412	-0.159744	-0.029007	39.2773	-0.157858	-25.1089	0.001155	NaN
174	1.000000	0.867216	7.36674e+06	-47339.1	955.817	-29766.9	0.000000	0.000000	6.867072	-0.055790	NaN	0.000000	0.001662	0.001704	28.1338	0.081470	0.001963	41.5079	-162.015	-165.636	0.022071	0.865952	-0.150431	-0.151695	-0.055790	41.5079	-0.149422	-17.6792	0.003156	NaN
174	1.000000	0.875245	7.36674e+06	-47339.1	955.818	-29766.9	0.000000	0.000000	6.875102	-0.005878	NaN	0.000000	0.001646	0.001676	28.1343	0.040860	0.001840	22.2101	-85.7513	-164.919	-0.078651	0.873925	-0.142402	-0.143722	-0.005878	22.2101	-0.142203	-13.008	0.000452	NaN
174	1.000000	0.883254	7.36674e+06	-47339.1	955.818	-29766.9	0.000000	0.000000	6.883112	0.009781	NaN	0.000000	0.001663	0.001732	28.1352	0.105039	0.002072	50.6963	30.7678	-166.453	-0.020755	0.881927	-0.134392	-0.135720	0.009781	50.6963	-0.134537	-9.320661	-0.001049	NaN
174	1.000000	0.891249	7.36674e+06	-47339.1	955.818	-29766.9	0.000000	0.000000	6.891103	-0.088002	NaN	0.000000	0.001677	0.001719	28.1331	0.064870	0.001989	32.6199	-20.3339	-166.288	-0.002517	0.889892	-0.126398	-0.127755	-0.088002	32.6199	-0.124374	-5.910155	0.014890	NaN
174	1.000000	0.899251	7.36674e+06	-47339.1	955.817	-29766.9	0.000000	0.000000	6.899108	-0.017615	NaN	0.000000	0.001672	0.001773	28.1334	0.025141	0.001991	12.6301	161.005	-163.368	-0.062008	0.897869	-0.118396	-0.119778	-0.017615	12.6301	-0.117350	-4.268689	0.004127	NaN
174	1.000000	0.907264	7.36674e+06	-47339.1	955.818	-29766.9	0.000000	0.000000	6.907120	-0.025320	NaN	0.000000	0.001652	0.001756	28.134	0.041198	0.002074	19.8641	106.163	-168.552	-0.031079	0.905923	-0.110383	-0.111724	-0.025320	19.8641	-0.109427	-2.922685	0.008663	NaN
174	1.000000	0.915241	7.36674e+06	-47339.1	955.819	-29766.9	0.000000	0.000000	6.915101	0.053902	NaN	0.000000	0.001669	0.001770	28.1322	0.089121	0.002111	42.2201	121.547	-166.302	-0.084802	0.913936	-0.102406	-0.103711	0.053902	42.2201	-0.103364	-2.166097	-0.024885	NaN
174	1.000000	0.923252	7.36674e+06	-47339.1	955.817	-29766.9	0.000000	0.000000	6.923107	-0.052118	NaN	0.000000	0.001677	0.001777	28.1322	0.101441	0.001920	52.8349	-20.7052	-166.796	-0.056061	0.921980	-0.094395	-0.095667	-0.052118	52.8349	-0.093655	-1.314165	0.039658	NaN
174	1.000000	0.931251	7.36674e+06	-47339.1	955.818	-29766.9	0.000000	0.000000	6.931108	-0.000306	NaN	0.000000	0.001700	0.001743	28.132	0.037271	0.001994	18.6933	157.928	-164.424	-0.086138	0.929999	-0.086396	-0.087648	-0.000306	18.6933	-0.086384	-0.887198	0.000345	NaN
174	1.000000	0.939262	7.36674e+06	-47339.1	955.817	-29766.9	0.000000	0.000000	6.939119	-0.004096	NaN	0.000000	0.001680	0.001714	28.1328	0.053333	0.001846	28.8904	-144.727	-161.137	0.010221	0.937972	-0.078385	-0.079675	-0.004096	28.8904	-0.078279	-0.560267	0.007312	NaN
174	1.000000	0.947273	7.36674e+06	-47339.1	955.817	-29766.9	0.000000	0.000000	6.947130	0.006510	NaN	0.000000	0.001654	0.001728	28.1324	0.079650	0.001893	42.0784	-160.814	-164.29	-0.068039	0.945952	-0.070374	-0.071695	0.006510	42.0784	-0.070490	-0.351566	-0.018517	NaN
174	1.000000	0.955293	7.36674e+06	-47339.1	955.818	-29766.9	0.000000	0.000000	6.955151	0.016708	NaN	0.000000	0.001637	0.001712	28.1332	0.070011	0.002211	31.6598	-119.051	-164.57	0.041464	0.953962	-0.062354	-0.063685	0.016708	31.6598	-0.062750	-0.215610	-0.077493	NaN
174	1.000000	0.963290	7.36674e+06	-47339.1	955.818	-29766.9	0.000000	0.000000	6.963147	-0.021193	NaN	0.000000	0.001672	0.001716	28.1335	0.060693	0.001883	32.238	-39.0296	-167.968	0.002246	0.961934	-0.054357	-0.055713	-0.021193	32.238	-0.053864	-0.119167	0.177843	NaN
174	1.000000	0.971273	7.36674e+06	-47339.1	955.819	-29766.9	0.000000	0.000000	6.971128	-0.062054	NaN	0.000000	0.001652	0.001718	28.1338	0.096379	0.001982	48.6282	-57.7801	-163.307	-0.101284	0.969965	-0.046374	-0.047682	-0.062054	48.6282	-0.045417	-0.066181	0.937648	NaN
174	1.000000	0.979290	7.36674e+06	-47339.1	955.817	-29766.9	0.000000	0.000000	6.979147	0.006322	NaN	0.000000	0.001666	0.001738	28.1333	0.052766	0.002055	25.6763	33.5675	-166.391	0.051614	0.978024	-0.038357	-0.039623	0.006322	25.6763	-0.038542	-0.040850	-0.154771	NaN
174	1.000000	0.987298	7.36674e+06	-47339.1	955.816	-29766.9	0.000000	0.000000	6.987156	0.014534	NaN	0.000000	0.001695	0.001733	28.1335	0.102131	0.001947	52.4547	-83.5884	-167.763	-0.025719	0.985972	-0.030349	-0.031675	0.014534	52.4547	-0.030557	-0.023853	-0.609342	NaN
174	1.000000	0.995300	7.36674e+06	-47339.1	955.817	-29766.9	0.000000	0.000000	6.995158	0.013333	NaN	0.000000	0.001655	0.001693	28.1327	0.063865	0.001904	33.538	-170.951	-167.607	-0.044469	0.993975	-0.022347	-0.023672	0.013333	33.538	-0.022645	-0.014667	-0.909083	NaN
174	1.000000	1.003266	7.36674e+06	-47339.1	955.817	-29766.9	0.000000	0.000000	7.003122	-0.016248	NaN	0.000000	0.001673	0.001728	28.1325	0.091483	0.002021	45.256	-32.9859	-164.249	-0.033597	1.002017	-0.014381	-0.015630	-0.016248	45.256	-0.014112	-0.008749	1.857095	NaN
174	1.000000	1.011290	7.36674e+06	-47339.1	955.818	-29766.9	0.000000	0.000000	7.011147	-0.012968	NaN	0.000000	0.001663	0.001689	28.1327	0.107789	0.001967	54.7923	-115.718	-168.714	0.031021	1.009977	-0.006357	-0.007670	-0.012968	54.7923	-0.006179	-0.004146	3.128198	NaN
174	1.000000	1.019298	7.36674e+06	-47339.1	955.817	-29766.9	0.000000	0.000000	7.019186	0.759545	NaN	0.000000	0.001678	0.001736	28.1321	1.278128	0.002003	638.106	14.6847	-165.163	0.341997	1.018001	0.001651	0.000354	0.759545	638.106	0.000758	0.000575	1321.06	24313.6
174	2.000000	1.026740	7.36674e+06	-47339.1	955.817	-29766.9	0.000000	0.000000	7.026946	8.479953	NaN	0.000000	0.001676	0.001690	28.1336	8.241453	0.001528	5392.92	6.866720	-170.762	8.214263	1.025963	0.009093	0.008316	8.479953	5392.92	0.007913	0.006953	1219.54	59087.8
174	2.000000	1.028861	7.36674e+06	-47339.1	955.818	-29766.9	0.000000	0.000000	7.029237	12.6174	NaN	0.000000	0.001678	0.001732	28.1347	10.4392	0.001644	6349.28	10.3118	-176.004	12.7699	1.028512	0.011214	0.010865	12.6174	6349.28	0.009723	0.008876	1421.56	61573.8
174	2.000000	1.030786	7.36674e+06	-47339.1	955.817	-29766.9	0.000000	0.000000	7.031270	15.2552	NaN	0.000000	0.001657	0.001736	28.1348	13.1828	0.001671	7888.38	7.540725	-178.61	13.6547	1.030551	0.013139	0.012904	15.2552	7888.38	0.011688	0.011119	1372	68348.7
174	2.000000	1.032764	7.36674e+06	-47339.1	955.818	-29766.9	0.000000	0.000000	7.033393	18.7732	NaN	0.000000	0.001687	0.001695	28.1349	14.4904	0.001618	8956.15	7.036358	-177.031	17.9362	1.032501	0.015117	0.014854	18.7732	8956.15	0.013545	0.013393	1401.68	70704.8
174	2.000000	1.034788	7.36674e+06	-47339.1	955.817	-29766.9	0.000000	0.000000	7.035505	20.9213	NaN	0.000000	0.001673	0.001688	28.1348	17.1114	0.001751	9772.67	4.680835	-176.423	20.0941	1.034464	0.017141	0.016817	20.9213	9772.67	0.015535	0.016006	1307.11	70574.5
174	2.000000	1.036765	7.36674e+06	-47339.1	955.818	-29766.9	0.000000	0.000000	7.037667	25.4035	NaN	0.000000	0.001664	0.001724	28.1351	18.8934	0.001799	10499.6	0.527740	-171.484	24.061	1.036461	0.019118	0.018814	25.4035	10499.6	0.017303	0.018481	1374.6	70565.1
174	2.000000	1.038740	7.36674e+06	-47339.1	955.818	-29766.9	0.000000	0.000000	7.039945	32.7787	NaN	0.000000	0.001648	0.001771	28.1342	20.8597	0.001758	11862.7	4.891643	-177.449	31.6667	1.038377	0.021093	0.020730	32.7787	11862.7	0.019021	0.021026	1558.93	74743.6
174	2.000000	1.040729	7.36674e+06	-47339.1	955.818	-29766.9	0.000000	0.000000	7.041981	33.9343	NaN	0.000000	0.001623	0.001781	28.1337	23.6705	0.001779	13308.4	4.532132	-179.114	31.8903	1.040487	0.023082	0.022841	33.9343	13308.4	0.021170	0.024414	1389.98	77818.7
174	2.000000	1.042770	7.36674e+06	-47339.1	955.819	-29766.9	0.000000	0.000000	7.044214	38.587	NaN	0.000000	0.001638	0.001680	28.1337	24.5713	0.001736	14153.5	4.176290	-177.533	38.9158	1.042372	0.025123	0.024725	38.587	14153.5	0.023078	0.027612	1397.46	77819.2
174	2.000000	1.044708	7.36674e+06	-47339.1	955.818	-29766.9	0.000000	0.000000	7.046400	44.6144	NaN	0.000000	0.001642	0.001721	28.1337	26.9507	0.001780	15143.8	7.421595	178.943	43.1892	1.044375	0.027062	0.026728	44.6144	15143.8	0.024852	0.030747	1451.02	78905.5
174	2.000000	1.046771	7.36674e+06	-47339.1	955.818	-29766.9	0.000000	0.000000	7.048775	52.1978	NaN	0.000000	0.001638	0.001709	28.1338	28.6696	0.001779	16112.3	4.251908	-179.136	51.7433	1.046480	0.029124	0.028833	52.1978	16112.3	0.026695	0.034171	1527.55	79634.9
174	2.000000	1.048698	7.36674e+06	-47339.1	955.818	-29766.9	0.000000	0.000000	7.051067	61.1108	NaN	0.000000	0.001639	0.001747	28.1344	29.8042	0.001727	17255.7	1.582151	-177.388	58.6704	1.048436	0.031051	0.030789	61.1108	17255.7	0.028395	0.037482	1630.4	81432.1
174	2.000000	1.050761	7.36674e+06	-47339.1	955.818	-29766.9	0.000000	0.000000	7.053271	64.5073	NaN	0.000000	0.001622	0.001723	28.1347	32.8579	0.001700	19324.8	2.424543	-179.562	64.4739	1.050490	0.033114	0.032843	64.5073	19324.8	0.030611	0.042019	1535.2	86132.3
174	2.000000	1.052726	7.36674e+06	-47339.1	955.818	-29766.9	0.000000	0.000000	7.055572	72.694	NaN	0.000000	0.001609	0.001723	28.1346	34.4197	0.001776	19380.3	4.969136	178.907	71.7049	1.052439	0.035079	0.034792	72.694	19380.3	0.032266	0.045571	1595.19	82944.9
174	2.000000	1.054689	7.36674e+06	-47339.1	955.819	-29766.9	0.000000	0.000000	7.057980	83.5112	NaN	0.000000	0.001585	0.001690	28.1345	37.3274	0.001881	19842.7	5.050772	178.619	81.2995	1.054379	0.037042	0.036732	83.5112	19842.7	0.033886	0.049183	1697.97	81745.8
174	2.000000	1.056713	7.36674e+06	-47339.1	955.819	-29766.9	0.000000	0.000000	7.060278	90.1775	NaN	0.000000	0.001651	0.001681	28.1357	38.8926	0.001776	21895.8	5.986411	177.43	89.5077	1.056406	0.039067	0.038759	90.1775	21895.8	0.035978	0.054047	1668.5	86049.5
174	2.000000	1.058683	7.36674e+06	-47339.1	955.819	-29766.9	0.000000	0.000000	7.062487	95.9865	NaN	0.000000	0.001647	0.001668	28.1338	40.7049	0.001852	21984.4	4.487048	177.793	94.3716	1.058322	0.041036	0.040676	95.9865	21984.4	0.037762	0.058372	1644.4	83135.4
174	2.000000	1.060735	7.36674e+06	-47339.1	955.819	-29766.9	0.000000	0.000000	7.064737	100.816	NaN	0.000000	0.001654	0.001711	28.1324	43.3948	0.001858	23355.5	8.111336	173.927	101.239	1.060422	0.043088	0.042775	100.816	23355.5	0.039850	0.063642	1584.11	84584.3
174	2.000000	1.062692	7.36674e+06	-47339.1	955.817	-29766.9	0.000000	0.000000	7.067197	113.053	NaN	0.000000	0.001659	0.001726	28.1328	43.2645	0.001671	25892.9	3.493383	176.738	111.78	1.062397	0.045045	0.044750	113.053	25892.9	0.041770	0.068683	1646	90266.9
174	2.000000	1.064666	7.36674e+06	-47339.1	955.816	-29766.9	0.000000	0.000000	7.069629	124.176	NaN	0.000000	0.001649	0.001730	28.1325	45.9419	0.001728	26589.6	3.992110	176.738	121.314	1.064398	0.047019	0.046751	124.176	26589.6	0.043517	0.073432	1691.04	89648.4
174	2.000000	1.066733	7.36674e+06	-47339.1	955.817	-29766.9	0.000000	0.000000	7.072046	132.718	NaN	0.000000	0.001650	0.001689	28.1328	49.0826	0.001873	26210.2	6.799577	174.247	131.056	1.066477	0.049086	0.048831	132.718	26210.2	0.045288	0.078407	1692.67	85519.5
174	2.000000	1.068678	7.36674e+06	-47339.1	955.818	-29766.9	0.000000	0.000000	7.074413	142.953	NaN	0.000000	0.001628	0.001739	28.1332	50.7748	0.001837	27633.3	6.681119	173.605	140.001	1.068422	0.051031	0.050775	142.953	27633.3	0.047151	0.083812	1705.64	87207.2
174	2.000000	1.070638	7.36674e+06	-47339.1	955.818	-29766.9	0.000000	0.000000	7.076850	154.583	NaN	0.000000	0.001656	0.001747	28.1335	51.9397	0.001748	29719.9	3.846719	176.299	151.703	1.070366	0.052991	0.052719	154.583	29719.9	0.049090	0.089620	1724.87	90702.3
174	2.000000	1.072673	7.36674e+06	-47339.1	955.817	-29766.9	0.000000	0.000000	7.079466	168.697	NaN	0.000000	0.001649	0.001744	28.1337	52.5995	0.001802	29186.3	3.218205	178.171	167.899	1.072317	0.055026	0.054670	168.697	29186.3	0.050691	0.094561	1784	86715.3
174	2.000000	1.074668	7.36674e+06	-47339.1	955.817	-29766.9	0.000000	0.000000	7.081625	172.688	NaN	0.000000	0.001640	0.001723	28.1337	56.3113	0.001867	30155.6	4.899349	174.561	169.22	1.074386	0.057021	0.056739	172.688	30155.6	0.052726	0.101026	1709.34	86681.1
174	2.000000	1.076714	7.36674e+06	-47339.1	955.818	-29766.9	0.000000	0.000000	7.084359	189.416	NaN	0.000000	0.001659	0.001666	28.1332	57.1114	0.001676	34080.5	1.724544	178.393	187.809	1.076280	0.059067	0.058633	189.416	34080.5	0.054899	0.108155	1751.35	94679.7
174	2.000000	1.078611	7.36674e+06	-47339.1	955.817	-29766.9	0.000000	0.000000	7.086882	204.655	NaN	0.000000	0.001630	0.001696	28.1322	59.3032	0.001796	33012.6	5.965796	173.458	201.561	1.078384	0.060964	0.060737	204.655	33012.6	0.056314	0.112924	1812.32	89755.2
174	2.000000	1.080575	7.36674e+06	-47339.1	955.816	-29766.9	0.000000	0.000000	7.089019	208.836	NaN	0.000000	0.001632	0.001707	28.1323	62.742	0.001883	33321.6	5.647692	173.274	202.333	1.080392	0.062928	0.062745	208.836	33321.6	0.058228	0.119531	1747.13	88056
174	2.000000	1.082602	7.36674e+06	-47339.1	955.818	-29766.9	0.000000	0.000000	7.091618	222.758	NaN	0.000000	0.001626	0.001671	28.1321	62.6545	0.001705	36756.6	5.703715	172.417	219.03	1.082380	0.064955	0.064733	222.758	36756.6	0.060410	0.127282	1750.11	94129.2
174	2.000000	1.084594	7.36674e+06	-47339.1	955.817	-29766.9	0.000000	0.000000	7.094125	235.299	NaN	0.000000	0.001636	0.001693	28.1324	65.7637	0.001807	36394.9	6.391452	171.696	230.29	1.084283	0.066947	0.066636	235.299	36394.9	0.062098	0.133440	1763.33	91027.1
174	2.000000	1.086632	7.36674e+06	-47339.1	955.818	-29766.9	0.000000	0.000000	7.096502	243.55	NaN	0.000000	0.001624	0.001681	28.1321	68.2246	0.001879	36318.2	8.219701	170.429	240.53	1.086300	0.068985	0.068653	243.55	36318.2	0.063956	0.140373	1735.02	88563.5
174	2.000000	1.088692	7.36674e+06	-47339.1	955.818	-29766.9	0.000000	0.000000	7.099337	262.385	NaN	0.000000	0.001608	0.001731	28.1331	69.4172	0.001740	39894.8	5.510881	172.386	261.832	1.088329	0.071045	0.070682	262.385	39894.8	0.066112	0.148634	1765.31	94543.2
174	2.000000	1.090626	7.36674e+06	-47339.1	955.818	-29766.9	0.000000	0.000000	7.101691	272.601	NaN	0.000000	0.001604	0.001750	28.1337	73.0262	0.001789	40815.6	6.762367	170.541	270.198	1.090325	0.072979	0.072678	272.601	40815.6	0.067970	0.155929	1748.24	94435.5
174	2.000000	1.092637	7.36674e+06	-47339.1	955.818	-29766.9	0.000000	0.000000	7.104164	283.853	NaN	0.000000	0.001613	0.001707	28.1334	73.9381	0.001806	40938.8	5.704289	171.386	281.799	1.092361	0.074990	0.074714	283.853	40938.8	0.069790	0.163233	1738.94	92577.3
174	2.000000	1.094606	7.36674e+06	-47339.1	955.817	-29766.9	0.000000	0.000000	7.106874	301.858	NaN	0.000000	0.001623	0.001705	28.1347	76.6147	0.001826	41952.3	2.890819	174.427	297.246	1.094403	0.076960	0.076756	301.858	41952.3	0.071563	0.170505	1770.38	92824.1
174	2.000000	1.096679	7.36674e+06	-47339.1	955.816	-29766.9	0.000000	0.000000	7.109668	319.417	NaN	0.000000	0.001616	0.001668	28.1345	79.1302	0.001835	43124.8	5.051642	172.974	318.805	1.096246	0.079032	0.078599	319.417	43124.8	0.073477	0.178517	1789.28	93252.3
174	2.000000	1.098563	7.36674e+06	-47339.1	955.817	-29766.9	0.000000	0.000000	7.112179	334.643	NaN	0.000000	0.001589	0.001702	28.1338	79.9169	0.001832	43617.5	5.377524	172.183	330.475	1.098320	0.080917	0.080673	334.643	43617.5	0.075162	0.185720	1801.87	92470.9
174	2.000000	1.100602	7.36674e+06	-47339.1	955.817	-29766.9	0.000000	0.000000	7.114837	349.712	NaN	0.000000	0.001612	0.001683	28.1337	81.6286	0.001744	46809.2	3.770736	172.776	345.39	1.100311	0.082956	0.082665	349.712	46809.2	0.077352	0.195276	1790.87	96778.9
174	2.000000	1.102650	7.36674e+06	-47339.1	955.817	-29766.9	0.000000	0.000000	7.117526	365.317	NaN	0.000000	0.001603	0.001720	28.1338	82.6634	0.001698	48689.9	6.756015	169.308	364.701	1.102247	0.085003	0.084600	365.317	48689.9	0.079376	0.204304	1788.1	98417.8
174	2.000000	1.104805	7.36674e+06	-47339.1	955.817	-29766.9	0.000000	0.000000	7.120175	377.338	NaN	0.000000	0.001589	0.001711	28.1336	85.4891	0.001829	46732.1	3.292670	173.531	382.823	1.104403	0.087158	0.086756	377.338	46732.1	0.081102	0.212157	1778.58	92695.7
174	2.000000	1.106637	7.36674e+06	-47339.1	955.818	-29766.9	0.000000	0.000000	7.122708	394.373	NaN	0.000000	0.001596	0.001717	28.1335	86.4881	0.001744	49587.1	1.575314	174.947	391.321	1.106344	0.088990	0.088697	394.373	49587.1	0.083025	0.221071	1783.92	96355.5
174	2.000000	1.108613	7.36674e+06	-47339.1	955.818	-29766.9	0.000000	0.000000	7.125365	410.936	NaN	0.000000	0.001644	0.001692	28.1343	88.8407	0.001775	50060.6	4.566337	171.901	407.946	1.108256	0.090966	0.090609	410.936	50060.6	0.084810	0.229494	1790.62	95473.7
174	2.000000	1.110568	7.36674e+06	-47339.1	955.818	-29766.9	0.000000	0.000000	7.127749	421.378	NaN	0.000000	0.001677	0.001701	28.1347	90.9807	0.001820	49997.3	0.296104	175.984	416.254	1.110442	0.092921	0.092795	421.378	49997.3	0.086600	0.238094	1769.8	93615
174	2.000000	1.112529	7.36674e+06	-47339.1	955.817	-29766.9	0.000000	0.000000	7.130505	440.712	NaN	0.000000	0.001624	0.001745	28.1348	92.0511	0.001789	51441.1	3.946625	172.324	433.279	1.112184	0.094882	0.094538	440.712	51441.1	0.088457	0.247166	1783.06	94534.2
174	2.000000	1.114574	7.36674e+06	-47339.1	955.818	-29766.9	0.000000	0.000000	7.133334	459.776	NaN	0.000000	0.001595	0.001713	28.1347	95.5176	0.001743	54811	3.299597	172.341	453.498	1.114172	0.096927	0.096525	459.776	54811	0.090636	0.258019	1781.94	98585.8
174	2.000000	1.116611	7.36674e+06	-47339.1	955.819	-29766.9	0.000000	0.000000	7.136120	477.986	NaN	0.000000	0.001591	0.001706	28.1349	98.0807	0.001815	54046.5	6.146773	170.075	475.531	1.116281	0.098964	0.098634	477.986	54046.5	0.092331	0.266612	1792.81	95631.5
174	2.000000	1.118537	7.36674e+06	-47339.1	955.818	-29766.9	0.000000	0.000000	7.138917	499.19	NaN	0.000000	0.001618	0.001667	28.134	99.3471	0.001836	54107	5.438792	170.235	492.419	1.118303	0.100890	0.100656	499.19	54107	0.093970	0.275045	1814.94	94259.5
174	2.000000	1.120560	7.36674e+06	-47339.1	955.817	-29766.9	0.000000	0.000000	7.141671	516.953	NaN	0.000000	0.001622	0.001693	28.1338	101.62	0.001812	56087.6	2.447645	173.245	510.766	1.120260	0.102913	0.102613	516.953	56087.6	0.096001	0.285659	1809.69	95877.4
174	2.000000	1.122569	7.36674e+06	-47339.1	955.818	-29766.9	0.000000	0.000000	7.144358	533.456	NaN	0.000000	0.001614	0.001720	28.1336	102.5	0.001698	60381.7	4.569527	169.972	528.689	1.122263	0.104922	0.104616	533.456	60381.7	0.098296	0.297885	1790.81	101077
174	2.000000	1.124579	7.36674e+06	-47339.1	955.817	-29766.9	0.000000	0.000000	7.147701	565.899	NaN	0.000000	0.001597	0.001698	28.1333	106.307	0.001782	59659.3	7.994185	167.009	561.305	1.124164	0.106932	0.106517	565.899	59659.3	0.099818	0.306124	1848.59	98515
174	2.000000	1.125194	7.36674e+06	-47339.1	955.818	-29766.9	0.000000	0.000000	7.148316	565.89	NaN	0.000000	0.001617	0.001702	28.0994	105.471	0.001753	60173.7	2.690290	-7.710188	565.901	1.124810	0.107547	0.107164	565.89	60173.7	0.100494	0.309819	1826.52	98770.2