File: remote_trans/data/nanoindenter/0828-1/data/Data_2025-08-06,11h17m57s/2025-07-22_16-23-58_1_394.txt
2025-07-22, 16:23:58, 1
Index	Phase	Displacement	Time	Pos X	Pos Y	Pos Z	Rot A	Rot B	Piezo Z	Force A	Force B	Gripper	Voltage A	Voltage B	Temperature	Amplitude force	Amplitude pos	Stiffness	Phase shift	Phase excitation	Force A raw	Displacement raw	HMax	HMax raw	Real Force	Real Stiffness	Contact Depth	Area	Hardness	Reduced Mod.
[#]	[#]	[um]	[s]	[um]	[um]	[um]	[m°]	[m°]	[um]	[uN]	[uN]	[V]	[V]	[V]	[°C]	[uN]	[um]	[N/m]	[°]	[°]	[uN]	[um]	[um]	[um]	[uN]	[N/m]	[um]	[um^2]	[MPa]	[MPa]
394	1.000000	0.002591	7.36892e+06	-57389.1	1005.82	-29737.2	0.000000	0.000000	6.002781	-0.049345	NaN	0.000000	0.001627	0.001629	28.0806	0.025180	0.001021	24.6583	126.06	-161.65	-0.053980	0.001389	-1.021133	-1.022335	-0.049345	24.6583	-1.019632	-4.168761E+13	1.183689E-15	NaN
394	1.000000	0.010561	7.36892e+06	-57389.1	1005.82	-29737.2	0.000000	0.000000	6.010753	-0.003859	NaN	0.000000	0.001641	0.001626	28.0805	0.066763	0.000871	76.6862	111.117	-163.632	0.006089	0.009271	-1.013163	-1.014453	-0.003859	76.6862	-1.013126	-3.407588E+13	1.132448E-16	NaN
394	1.000000	0.018542	7.36892e+06	-57389.1	1005.82	-29737.2	0.000000	0.000000	6.018733	-0.023927	NaN	0.000000	0.001639	0.001647	28.0803	0.055549	0.001685	32.9681	-29.7456	-166.895	-0.057450	0.017258	-1.005182	-1.006466	-0.023927	32.9681	-1.004638	-2.619447E+13	9.134203E-16	NaN
394	1.000000	0.026615	7.36892e+06	-57389.1	1005.82	-29737.2	0.000000	0.000000	6.026807	-0.024259	NaN	0.000000	0.001617	0.001665	28.0804	0.035358	0.001795	19.6973	114.874	-168.704	-0.055544	0.025231	-0.997109	-0.998493	-0.024259	19.6973	-0.996185	-2.015583E+13	1.203565E-15	NaN
394	1.000000	0.034544	7.36892e+06	-57389.1	1005.82	-29737.2	0.000000	0.000000	6.034736	0.008523	NaN	0.000000	0.001646	0.001629	28.0801	0.013654	0.001912	7.142208	-114.26	-167.016	-0.160145	0.033243	-0.989180	-0.990481	0.008523	7.142208	-0.990075	-1.667725E+13	-5.110815E-16	NaN
394	1.000000	0.042572	7.36892e+06	-57389.1	1005.82	-29737.2	0.000000	0.000000	6.042763	-0.025902	NaN	0.000000	0.001654	0.001653	28.0809	0.081498	0.001990	40.9599	138.39	-167.609	0.017694	0.041227	-0.981152	-0.982497	-0.025902	40.9599	-0.980677	-1.246050E+13	2.078725E-15	NaN
394	1.000000	0.050553	7.36892e+06	-57389.1	1005.82	-29737.2	0.000000	0.000000	6.050747	0.059374	NaN	0.000000	0.001675	0.001649	28.0803	0.043244	0.002031	21.29	16.8596	-165.922	0.103058	0.049241	-0.973171	-0.974483	0.059374	21.29	-0.975263	-1.053374E+13	-5.636526E-15	NaN
394	1.000000	0.058562	7.36892e+06	-57389.1	1005.82	-29737.2	0.000000	0.000000	6.058755	0.020842	NaN	0.000000	0.001661	0.001676	28.0803	0.121974	0.001879	64.9185	-61.9804	-166.027	-0.023619	0.057221	-0.965162	-0.966503	0.020842	64.9185	-0.965402	-7.757033E+12	-2.686789E-15	NaN
394	1.000000	0.066613	7.36892e+06	-57389.1	1005.82	-29737.2	0.000000	0.000000	6.066807	0.045363	NaN	0.000000	0.001644	0.001650	28.0805	0.065569	0.002008	32.6551	-104.001	-166.777	0.087894	0.065271	-0.957111	-0.958453	0.045363	32.6551	-0.958153	-6.193958E+12	-7.323746E-15	NaN
394	1.000000	0.074576	7.36892e+06	-57389.1	1005.82	-29737.2	0.000000	0.000000	6.074767	-0.029074	NaN	0.000000	0.001675	0.001653	28.0802	0.033416	0.002036	16.4095	-171.856	-167.552	-0.040287	0.073279	-0.949148	-0.950445	-0.029074	16.4095	-0.947819	-4.493754E+12	6.469790E-15	NaN
394	1.000000	0.082552	7.36892e+06	-57389.1	1005.82	-29737.2	0.000000	0.000000	6.082745	0.019266	NaN	0.000000	0.001612	0.001650	28.0806	0.079413	0.002037	38.9775	47.9289	-169.009	0.093214	0.081240	-0.941172	-0.942484	0.019266	38.9775	-0.941542	-3.697829E+12	-5.210090E-15	NaN
394	1.000000	0.090585	7.36892e+06	-57389.1	1005.82	-29737.2	0.000000	0.000000	6.090776	-0.021281	NaN	0.000000	0.001613	0.001640	28.0802	0.088964	0.001991	44.6821	124.036	-167.912	0.006183	0.089307	-0.933139	-0.934417	-0.021281	44.6821	-0.932782	-2.816703E+12	7.555394E-15	NaN
394	1.000000	0.098577	7.36892e+06	-57389.1	1005.82	-29737.2	0.000000	0.000000	6.098768	-0.027854	NaN	0.000000	0.001647	0.001632	28.0803	0.047635	0.002001	23.8077	-23.1085	-165.517	0.034257	0.097202	-0.925147	-0.926522	-0.027854	23.8077	-0.924269	-2.161953E+12	1.288354E-14	NaN
394	1.000000	0.106570	7.36892e+06	-57389.1	1005.82	-29737.2	0.000000	0.000000	6.106763	0.040351	NaN	0.000000	0.001600	0.001664	28.0795	0.071737	0.001938	37.0215	45.7443	-168.548	-0.012029	0.105210	-0.917154	-0.918514	0.040351	37.0215	-0.917972	-1.777537E+12	-2.270030E-14	NaN
394	1.000000	0.114565	7.36892e+06	-57389.1	1005.82	-29737.2	0.000000	0.000000	6.114757	0.000304	NaN	0.000000	0.001638	0.001674	28.0793	0.012398	0.001927	6.433680	-129.639	-166.018	-0.005612	0.113330	-0.909159	-0.910394	0.000304	6.433680	-0.909194	-1.352935E+12	-2.245812E-16	NaN
394	1.000000	0.122593	7.36892e+06	-57389.1	1005.82	-29737.2	0.000000	0.000000	6.122785	-0.010322	NaN	0.000000	0.001623	0.001643	28.0795	0.048896	0.001895	25.7991	-90.7582	-167.351	0.010594	0.121259	-0.901131	-0.902466	-0.010322	25.7991	-0.900831	-1.043010E+12	9.896606E-15	NaN
394	1.000000	0.130601	7.36892e+06	-57389.1	1005.82	-29737.2	0.000000	0.000000	6.130793	-0.010691	NaN	0.000000	0.001674	0.001639	28.0792	0.106697	0.002048	52.0952	173.642	-167.311	0.101784	0.129274	-0.893123	-0.894450	-0.010691	52.0952	-0.892969	-8.166730E+11	1.309064E-14	NaN
394	1.000000	0.138594	7.36892e+06	-57389.1	1005.82	-29737.2	0.000000	0.000000	6.138786	-0.015281	NaN	0.000000	0.001667	0.001671	28.0793	0.157310	0.002007	78.3625	137.375	-167.378	-0.008566	0.137278	-0.885130	-0.886446	-0.015281	78.3625	-0.884983	-6.369317E+11	2.399176E-14	NaN
394	1.000000	0.146612	7.36892e+06	-57389.1	1005.82	-29737.2	0.000000	0.000000	6.146803	-0.016296	NaN	0.000000	0.001655	0.001676	28.0795	0.098746	0.001966	50.2322	-33.1551	-167.201	-0.035059	0.145306	-0.877112	-0.878418	-0.016296	50.2322	-0.876869	-4.947272E+11	3.293932E-14	NaN
394	1.000000	0.154627	7.36892e+06	-57389.1	1005.82	-29737.2	0.000000	0.000000	6.154818	-0.016820	NaN	0.000000	0.001641	0.001648	28.0793	0.052326	0.002061	25.3855	-39.2788	-166.809	-0.075066	0.153276	-0.869097	-0.870448	-0.016820	25.3855	-0.868600	-3.823908E+11	4.398606E-14	NaN
394	1.000000	0.162601	7.36892e+06	-57389.1	1005.82	-29737.2	0.000000	0.000000	6.162792	-0.031412	NaN	0.000000	0.001627	0.001654	28.0794	0.182436	0.001980	92.1309	149.972	-165.597	-0.052183	0.161337	-0.861123	-0.862387	-0.031412	92.1309	-0.860867	-3.005070E+11	1.045287E-13	NaN
394	1.000000	0.170589	7.36892e+06	-57389.1	1005.82	-29737.2	0.000000	0.000000	6.170780	-0.032298	NaN	0.000000	0.001683	0.001657	28.0796	0.108608	0.002050	52.9859	-147.194	-165.082	-0.014440	0.169294	-0.853135	-0.854430	-0.032298	52.9859	-0.852678	-2.328063E+11	1.387337E-13	NaN
394	1.000000	0.178597	7.36892e+06	-57389.1	1005.82	-29737.2	0.000000	0.000000	6.178790	0.033102	NaN	0.000000	0.001647	0.001664	28.0795	0.047491	0.001883	25.2274	106.617	-167.949	-0.025390	0.177341	-0.845127	-0.846383	0.033102	25.2274	-0.846111	-1.897024E+11	-1.744945E-13	NaN
394	1.000000	0.186605	7.36892e+06	-57389.1	1005.82	-29737.2	0.000000	0.000000	6.186795	-0.060851	NaN	0.000000	0.001663	0.001651	28.0796	0.023010	0.002071	11.1105	55.4235	-163.759	-0.055891	0.185363	-0.837119	-0.838361	-0.060851	11.1105	-0.833011	-1.260643E+11	4.826982E-13	NaN
394	1.000000	0.194625	7.36892e+06	-57389.1	1005.82	-29737.2	0.000000	0.000000	6.194817	0.019235	NaN	0.000000	0.001690	0.001666	28.0795	0.051080	0.002108	24.229	-150.771	-165.584	-0.075355	0.193322	-0.829099	-0.830402	0.019235	24.229	-0.829695	-1.136703E+11	-1.692144E-13	NaN
394	1.000000	0.202609	7.36892e+06	-57389.1	1005.82	-29737.2	0.000000	0.000000	6.202801	0.009340	NaN	0.000000	0.001678	0.001650	28.0805	0.088822	0.001938	45.8257	37.4146	-165.597	0.032372	0.201320	-0.821115	-0.822404	0.009340	45.8257	-0.821268	-8.737959E+10	-1.068907E-13	NaN
394	1.000000	0.210603	7.36892e+06	-57389.1	1005.82	-29737.2	0.000000	0.000000	6.210793	-0.042332	NaN	0.000000	0.001665	0.001644	28.0794	0.031510	0.002021	15.5885	-74.9406	-167.889	-0.078264	0.209335	-0.813121	-0.814389	-0.042332	15.5885	-0.811084	-6.357454E+10	6.658673E-13	NaN
394	1.000000	0.218617	7.36892e+06	-57389.1	1005.82	-29737.2	0.000000	0.000000	6.218810	0.011568	NaN	0.000000	0.001699	0.001689	28.0796	0.070297	0.001919	36.6398	-145.305	-166.527	0.112142	0.217285	-0.805107	-0.806439	0.011568	36.6398	-0.805344	-5.313621E+10	-2.177130E-13	NaN
394	1.000000	0.226655	7.36892e+06	-57389.1	1005.82	-29737.2	0.000000	0.000000	6.226848	0.025784	NaN	0.000000	0.001711	0.001657	28.0794	0.056390	0.001983	28.4323	-76.1562	-163.355	0.099095	0.225316	-0.797069	-0.798408	0.025784	28.4323	-0.797749	-4.190885E+10	-6.152400E-13	NaN
394	1.000000	0.234627	7.36892e+06	-57389.1	1005.82	-29737.2	0.000000	0.000000	6.234820	0.020449	NaN	0.000000	0.001724	0.001680	28.0794	0.071176	0.002120	33.5754	-89.5497	-169.953	0.027985	0.233265	-0.789097	-0.790459	0.020449	33.5754	-0.789554	-3.243591E+10	-6.304433E-13	NaN
394	1.000000	0.242664	7.36892e+06	-57389.1	1005.82	-29737.2	0.000000	0.000000	6.242856	0.001278	NaN	0.000000	0.001661	0.001694	28.0805	0.138941	0.001966	70.6559	177.647	-167.389	-0.012866	0.241297	-0.781060	-0.782427	0.001278	70.6559	-0.781074	-2.487840E+10	-5.138446E-14	NaN
394	1.000000	0.250639	7.36892e+06	-57389.1	1005.82	-29737.2	0.000000	0.000000	6.250833	0.044026	NaN	0.000000	0.001685	0.001678	28.0805	0.093558	0.001918	48.7756	-1.073314	-168.008	0.003323	0.249302	-0.773085	-0.774422	0.044026	48.7756	-0.773761	-1.978988E+10	-2.224658E-12	NaN
394	1.000000	0.258623	7.36892e+06	-57389.1	1005.82	-29737.2	0.000000	0.000000	6.258813	-0.044285	NaN	0.000000	0.001660	0.001693	28.0805	0.037020	0.001943	19.0569	-42.5541	-168.006	-0.031873	0.257356	-0.765101	-0.766368	-0.044285	19.0569	-0.763358	-1.428828E+10	3.099398E-12	NaN
394	1.000000	0.266645	7.36892e+06	-57389.1	1005.82	-29737.2	0.000000	0.000000	6.266835	-0.059532	NaN	0.000000	0.001673	0.001695	28.0803	0.084073	0.002017	41.6899	-147.788	-165.396	-0.108768	0.265282	-0.757079	-0.758442	-0.059532	41.6899	-0.756008	-1.134965E+10	5.245232E-12	NaN
394	1.000000	0.274650	7.36892e+06	-57389.1	1005.82	-29737.2	0.000000	0.000000	6.274842	0.017230	NaN	0.000000	0.001649	0.001699	28.0805	0.113818	0.001958	58.1255	60.1492	-168.058	0.027149	0.273362	-0.749074	-0.750362	0.017230	58.1255	-0.749297	-9.197015E+9	-1.873478E-12	NaN
394	1.000000	0.282623	7.36892e+06	-57389.1	1005.82	-29737.2	0.000000	0.000000	6.282810	-0.124957	NaN	0.000000	0.001663	0.001650	28.0801	0.042285	0.002022	20.9167	-41.578	-166.874	-0.119029	0.281370	-0.741101	-0.742354	-0.124957	20.9167	-0.736621	-6.180475E+9	2.021807E-11	NaN
394	1.000000	0.290671	7.36892e+06	-57389.1	1005.82	-29737.2	0.000000	0.000000	6.290863	-0.007576	NaN	0.000000	0.001669	0.001659	28.0801	0.043454	0.002025	21.4565	145.058	-169.152	-0.078195	0.289358	-0.733053	-0.734366	-0.007576	21.4565	-0.732788	-5.480255E+9	1.382502E-12	NaN
394	1.000000	0.298650	7.36892e+06	-57389.1	1005.82	-29737.2	0.000000	0.000000	6.298843	0.033177	NaN	0.000000	0.001674	0.001688	28.0802	0.181101	0.001870	96.8665	-155.134	-167.889	-0.003867	0.297343	-0.725074	-0.726381	0.033177	96.8665	-0.725331	-4.336795E+9	-7.650039E-12	NaN
394	1.000000	0.306688	7.36892e+06	-57389.1	1005.82	-29737.2	0.000000	0.000000	6.306880	0.009300	NaN	0.000000	0.001638	0.001654	28.0801	0.010679	0.001983	5.384193	-101.787	-163.771	0.020450	0.305338	-0.717036	-0.718386	0.009300	5.384193	-0.718331	-3.481094E+9	-2.671585E-12	NaN
394	1.000000	0.314657	7.36892e+06	-57389.1	1005.82	-29737.2	0.000000	0.000000	6.314845	-0.099809	NaN	0.000000	0.001724	0.001658	28.0803	0.071039	0.001954	36.3564	-155.238	-166.308	-0.043788	0.313381	-0.709067	-0.710343	-0.099809	36.3564	-0.707008	-2.438979E+9	4.092263E-11	NaN
394	1.000000	0.322668	7.36892e+06	-57389.1	1005.82	-29737.2	0.000000	0.000000	6.322858	-0.051152	NaN	0.000000	0.001665	0.001655	28.0802	0.031643	0.002057	15.3821	40.1922	-167.369	-0.025324	0.321358	-0.701056	-0.702366	-0.051152	15.3821	-0.698562	-1.870196E+9	2.735114E-11	NaN
394	1.000000	0.330641	7.36892e+06	-57389.1	1005.82	-29737.2	0.000000	0.000000	6.330831	-0.051994	NaN	0.000000	0.001682	0.001652	28.0805	0.070417	0.002018	34.8951	-44.0044	-166.088	-0.063158	0.329326	-0.693083	-0.694398	-0.051994	34.8951	-0.691966	-1.519783E+9	3.421174E-11	NaN
394	1.000000	0.338701	7.36892e+06	-57389.1	1005.82	-29737.2	0.000000	0.000000	6.338894	0.016501	NaN	0.000000	0.001708	0.001654	28.0803	0.055200	0.001931	28.5822	-82.2745	-165.455	0.076139	0.337340	-0.685023	-0.686384	0.016501	28.5822	-0.685456	-1.238234E+9	-1.332615E-11	NaN
394	1.000000	0.346718	7.36892e+06	-57389.1	1005.82	-29737.2	0.000000	0.000000	6.346907	-0.072521	NaN	0.000000	0.001637	0.001667	28.0803	0.073942	0.002011	36.7746	-77.9623	-165.35	0.045145	0.345382	-0.677006	-0.678342	-0.072521	36.7746	-0.675527	-9.057709E+8	8.006579E-11	NaN
394	1.000000	0.354680	7.36892e+06	-57389.1	1005.82	-29737.2	0.000000	0.000000	6.354874	0.028420	NaN	0.000000	0.001616	0.001650	28.0802	0.098540	0.002146	45.9196	-5.235506	-161.794	0.073047	0.353390	-0.669044	-0.670334	0.028420	45.9196	-0.669508	-7.492983E+8	-3.792932E-11	NaN
394	1.000000	0.362675	7.36892e+06	-57389.1	1005.82	-29737.2	0.000000	0.000000	6.362868	0.013018	NaN	0.000000	0.001627	0.001659	28.0801	0.017551	0.002145	8.180909	-105.433	-165.001	-0.001448	0.361368	-0.661049	-0.662356	0.013018	8.180909	-0.662242	-5.959122E+8	-2.184584E-11	NaN
394	1.000000	0.370681	7.36892e+06	-57389.1	1005.82	-29737.2	0.000000	0.000000	6.370872	-0.013831	NaN	0.000000	0.001654	0.001635	28.0806	0.033584	0.001917	17.522	-12.7415	-169.307	-0.058144	0.369395	-0.653043	-0.654329	-0.013831	17.522	-0.652451	-4.375581E+8	3.160905E-11	NaN
394	1.000000	0.378715	7.36892e+06	-57389.1	1005.82	-29737.2	0.000000	0.000000	6.378906	-0.022561	NaN	0.000000	0.001620	0.001629	28.0794	0.064853	0.002155	30.099	-146.066	-162.483	-0.012994	0.377403	-0.645009	-0.646321	-0.022561	30.099	-0.644447	-3.398564E+8	6.638534E-11	NaN
394	1.000000	0.386700	7.36892e+06	-57389.1	1005.82	-29737.2	0.000000	0.000000	6.386893	0.025108	NaN	0.000000	0.001628	0.001618	28.0792	0.193134	0.001963	98.3882	-171.505	-165.382	-0.017963	0.385313	-0.637024	-0.638411	0.025108	98.3882	-0.637215	-2.704414E+8	-9.284008E-11	NaN
394	1.000000	0.394703	7.36892e+06	-57389.1	1005.82	-29737.2	0.000000	0.000000	6.394894	-0.035265	NaN	0.000000	0.001647	0.001637	28.0792	0.104342	0.002067	50.469	100.551	-163.743	0.036091	0.393421	-0.629021	-0.630303	-0.035265	50.469	-0.628497	-2.052937E+8	1.717807E-10	NaN
394	1.000000	0.402705	7.36892e+06	-57389.1	1005.82	-29737.2	0.000000	0.000000	6.402898	0.021077	NaN	0.000000	0.001653	0.001663	28.0791	0.027225	0.001899	14.3331	-177.963	-163.652	0.002584	0.401378	-0.621019	-0.622346	0.021077	14.3331	-0.622121	-1.677995E+8	-1.256103E-10	NaN
394	1.000000	0.410712	7.36892e+06	-57389.1	1005.82	-29737.2	0.000000	0.000000	6.410903	-0.039749	NaN	0.000000	0.001620	0.001622	28.0793	0.029851	0.001876	15.9146	158.393	-164.938	-0.039511	0.409434	-0.613012	-0.614290	-0.039749	15.9146	-0.611139	-1.185162E+8	3.353857E-10	NaN
394	1.000000	0.418734	7.36892e+06	-57389.1	1005.82	-29737.2	0.000000	0.000000	6.418926	0.003960	NaN	0.000000	0.001634	0.001594	28.0791	0.008032	0.001896	4.236321	132.386	-166.741	-0.089203	0.417443	-0.604991	-0.606281	0.003960	4.236321	-0.605692	-9.972965E+7	-3.970677E-11	NaN
394	1.000000	0.426722	7.36892e+06	-57389.1	1005.82	-29737.2	0.000000	0.000000	6.426915	0.018980	NaN	0.000000	0.001601	0.001624	28.0792	0.031354	0.002102	14.9151	14.6169	-164.059	0.070558	0.425404	-0.597002	-0.598320	0.018980	14.9151	-0.597956	-7.803882E+7	-2.432084E-10	NaN
394	1.000000	0.434711	7.36892e+06	-57389.1	1005.82	-29737.2	0.000000	0.000000	6.434900	-0.067115	NaN	0.000000	0.001590	0.001603	28.0792	0.039430	0.002183	18.0583	70.8222	-164.991	-0.059542	0.433404	-0.589013	-0.590320	-0.067115	18.0583	-0.586226	-5.378022E+7	1.247942E-9	NaN
394	1.000000	0.442726	7.36892e+06	-57389.1	1005.82	-29737.2	0.000000	0.000000	6.442917	-0.024566	NaN	0.000000	0.001636	0.001643	28.079	0.053196	0.001913	27.8071	24.608	-161.765	-0.014454	0.441418	-0.580998	-0.582306	-0.024566	27.8071	-0.580336	-4.460274E+7	5.507625E-10	NaN
394	1.000000	0.450759	7.36892e+06	-57389.1	1005.82	-29737.2	0.000000	0.000000	6.450953	0.055542	NaN	0.000000	0.001624	0.001644	28.0795	0.028741	0.002040	14.0894	64.3584	-162.992	0.091461	0.449460	-0.572965	-0.574264	0.055542	14.0894	-0.575922	-3.876399E+7	-1.432819E-9	NaN
394	1.000000	0.458699	7.36892e+06	-57389.1	1005.82	-29737.2	0.000000	0.000000	6.458890	-0.029325	NaN	0.000000	0.001642	0.001622	28.0791	0.084879	0.002096	40.4895	-83.245	-164.167	-0.025856	0.457376	-0.565025	-0.566348	-0.029325	40.4895	-0.564482	-2.693753E+7	1.088630E-9	NaN
394	1.000000	0.466717	7.36892e+06	-57389.1	1005.82	-29737.2	0.000000	0.000000	6.466906	-0.073603	NaN	0.000000	0.001607	0.001631	28.0798	0.081390	0.001947	41.7928	115.02	-168.235	-0.045024	0.465436	-0.557007	-0.558288	-0.073603	41.7928	-0.555686	-2.035543E+7	3.615892E-9	NaN
394	1.000000	0.474708	7.36892e+06	-57389.1	1005.82	-29737.2	0.000000	0.000000	6.474899	-0.040202	NaN	0.000000	0.001643	0.001656	28.0793	0.122794	0.001909	64.3261	-61.8181	-163.891	-0.001642	0.473422	-0.549016	-0.550302	-0.040202	64.3261	-0.548547	-1.621173E+7	2.479784E-9	NaN
394	1.000000	0.482759	7.36892e+06	-57389.1	1005.82	-29737.2	0.000000	0.000000	6.482952	0.009484	NaN	0.000000	0.001600	0.001637	28.0792	0.069004	0.001999	34.515	68.4601	-166.582	0.033342	0.481422	-0.540965	-0.542302	0.009484	34.515	-0.541171	-1.281129E+7	-7.403057E-10	NaN
394	1.000000	0.490733	7.36892e+06	-57389.1	1005.82	-29737.2	0.000000	0.000000	6.490927	0.046706	NaN	0.000000	0.001626	0.001645	28.0795	0.041698	0.002081	20.0369	138.384	-163.78	0.015393	0.489486	-0.532991	-0.534238	0.046706	20.0369	-0.534739	-1.043202E+7	-4.477165E-9	NaN
394	1.000000	0.498727	7.36892e+06	-57389.1	1005.82	-29737.2	0.000000	0.000000	6.498918	-0.011908	NaN	0.000000	0.001583	0.001647	28.0791	0.089527	0.002100	42.6362	158.259	-160.227	-0.055932	0.497432	-0.524997	-0.526292	-0.011908	42.6362	-0.524788	-7.58862e+06	1.569130E-9	NaN
394	1.000000	0.506769	7.36892e+06	-57389.1	1005.82	-29737.2	0.000000	0.000000	6.506957	-0.088643	NaN	0.000000	0.001634	0.001625	28.0792	0.070558	0.001986	35.5306	-10.6414	-164.982	0.002089	0.505431	-0.516955	-0.518293	-0.088643	35.5306	-0.515084	-5.56161e+06	1.593844E-8	NaN
394	1.000000	0.514742	7.36892e+06	-57389.1	1005.82	-29737.2	0.000000	0.000000	6.514934	-0.019399	NaN	0.000000	0.001621	0.001620	28.0801	0.002094	0.001833	1.142234	157.102	-170.55	-0.018349	0.513414	-0.508982	-0.510310	-0.019399	1.142234	-0.496244	-3.0381e+06	6.385345E-9	NaN
394	1.000000	0.522738	7.36892e+06	-57389.1	1005.82	-29737.2	0.000000	0.000000	6.522927	-0.087090	NaN	0.000000	0.001619	0.001639	28.0804	0.142024	0.001965	72.2921	-112.861	-163.861	-0.059153	0.521483	-0.500986	-0.502241	-0.087090	72.2921	-0.500082	-3.43686e+06	2.533992E-8	NaN
394	1.000000	0.530746	7.36892e+06	-57389.1	1005.82	-29737.2	0.000000	0.000000	6.530936	-0.037908	NaN	0.000000	0.001632	0.001669	28.0804	0.036092	0.002013	17.9314	44.1907	-164.73	-0.002784	0.529444	-0.492978	-0.494280	-0.037908	17.9314	-0.491393	-2.59929e+06	1.458401E-8	NaN
394	1.000000	0.538778	7.36892e+06	-57389.1	1005.82	-29737.2	0.000000	0.000000	6.538969	-0.039197	NaN	0.000000	0.001642	0.001639	28.0803	0.082368	0.001984	41.5195	20.6189	-164.847	-0.076757	0.537434	-0.484946	-0.486290	-0.039197	41.5195	-0.484238	-2.06456e+06	1.898552E-8	NaN
394	1.000000	0.546743	7.36892e+06	-57389.1	1005.82	-29737.2	0.000000	0.000000	6.546935	0.012821	NaN	0.000000	0.001606	0.001618	28.0806	0.062483	0.002061	30.3189	29.1084	-167.363	-0.013778	0.545460	-0.476981	-0.478264	0.012821	30.3189	-0.477299	-1.65083e+06	-7.766411E-9	NaN
394	1.000000	0.554784	7.36892e+06	-57389.1	1005.82	-29737.2	0.000000	0.000000	6.554972	-0.088163	NaN	0.000000	0.001612	0.001633	28.0805	0.152349	0.001983	76.8344	149.347	-163.228	-0.042060	0.553491	-0.468940	-0.470233	-0.088163	76.8344	-0.468079	-1.22593e+06	7.191550E-8	NaN
394	1.000000	0.562794	7.36892e+06	-57389.1	1005.82	-29737.2	0.000000	0.000000	6.562983	-0.063120	NaN	0.000000	0.001629	0.001674	28.0805	0.101248	0.002039	49.6523	-164.389	-165.351	-0.053433	0.561478	-0.460930	-0.462246	-0.063120	49.6523	-0.459977	-943398	6.690684E-8	NaN
394	1.000000	0.570783	7.36892e+06	-57389.1	1005.82	-29737.2	0.000000	0.000000	6.570974	-0.016100	NaN	0.000000	0.001625	0.001676	28.0803	0.072713	0.001906	38.1418	109.125	-167.522	0.006609	0.569483	-0.452941	-0.454241	-0.016100	38.1418	-0.452625	-743525	2.165308E-8	NaN
394	1.000000	0.578782	7.36892e+06	-57389.1	1005.82	-29737.2	0.000000	0.000000	6.578975	0.037729	NaN	0.000000	0.001606	0.001650	28.0802	0.048476	0.002014	24.071	-115.584	-167.182	0.009911	0.577508	-0.444942	-0.446216	0.037729	24.071	-0.446118	-602075	-6.266536E-8	NaN
394	1.000000	0.586800	7.36892e+06	-57389.1	1005.82	-29737.2	0.000000	0.000000	6.586993	0.029200	NaN	0.000000	0.001615	0.001694	28.0805	0.048633	0.001977	24.5972	-176.72	-168.171	0.003828	0.585479	-0.436924	-0.438245	0.029200	24.5972	-0.437814	-459733	-6.351479E-8	NaN
394	1.000000	0.594792	7.36892e+06	-57389.1	1005.82	-29737.2	0.000000	0.000000	6.594981	-0.059491	NaN	0.000000	0.001648	0.001689	28.0805	0.056096	0.002033	27.596	-56.725	-165.094	-0.115677	0.593510	-0.428932	-0.430214	-0.059491	27.596	-0.427316	-326643	1.821276E-7	NaN
394	1.000000	0.602773	7.36892e+06	-57389.1	1005.82	-29737.2	0.000000	0.000000	6.602962	-0.074719	NaN	0.000000	0.001707	0.001607	28.0804	0.102187	0.001896	53.8988	-66.3866	-160.136	0.007972	0.601472	-0.420951	-0.422252	-0.074719	53.8988	-0.419911	-256538	2.912601E-7	NaN
394	1.000000	0.610763	7.36892e+06	-57389.1	1005.82	-29737.2	0.000000	0.000000	6.610956	0.029922	NaN	0.000000	0.001679	0.001622	28.0804	0.010471	0.002003	5.227420	104.388	-170.341	-0.015168	0.609486	-0.412961	-0.414238	0.029922	5.227420	-0.417254	-235210	-1.272142E-7	NaN
394	1.000000	0.618794	7.36892e+06	-57389.1	1005.82	-29737.2	0.000000	0.000000	6.618988	0.044826	NaN	0.000000	0.001680	0.001655	28.0806	0.107679	0.001961	54.9202	-128.263	-167.301	-0.039042	0.617450	-0.404930	-0.406274	0.044826	54.9202	-0.405543	-160315	-2.796127E-7	NaN
394	1.000000	0.626792	7.36892e+06	-57389.1	1005.82	-29737.2	0.000000	0.000000	6.626986	0.035101	NaN	0.000000	0.001685	0.001617	28.0804	0.033530	0.002085	16.0823	-80.0105	-167.756	0.023585	0.625476	-0.396932	-0.398248	0.035101	16.0823	-0.398569	-127519	-2.752612E-7	NaN
394	1.000000	0.634818	7.36892e+06	-57389.1	1005.82	-29737.2	0.000000	0.000000	6.635008	-0.038188	NaN	0.000000	0.001691	0.001636	28.0804	0.058386	0.002134	27.3605	-64.5526	-165.251	0.025749	0.633504	-0.388906	-0.390220	-0.038188	27.3605	-0.387859	-89646.5	4.259828E-7	NaN
394	1.000000	0.642767	7.36892e+06	-57389.1	1005.82	-29737.2	0.000000	0.000000	6.642958	-0.041212	NaN	0.000000	0.001608	0.001635	28.0804	0.055032	0.002008	27.4005	-156.488	-169.412	-0.042098	0.641496	-0.380957	-0.382228	-0.041212	27.4005	-0.379829	-68775.2	5.992236E-7	NaN
394	1.000000	0.650830	7.36892e+06	-57389.1	1005.82	-29737.2	0.000000	0.000000	6.651021	-0.027680	NaN	0.000000	0.001594	0.001613	28.0796	0.043562	0.001980	21.9991	-160.065	-165.282	-0.039096	0.649471	-0.372894	-0.374253	-0.027680	21.9991	-0.371951	-52992	5.223506E-7	NaN
394	1.000000	0.658800	7.36892e+06	-57389.1	1005.82	-29737.2	0.000000	0.000000	6.658992	0.001629	NaN	0.000000	0.001609	0.001601	28.0791	0.037513	0.001857	20.1978	44.6697	-166.51	-0.084622	0.657591	-0.364924	-0.366133	0.001629	20.1978	-0.364985	-42056.7	-3.873993E-8	NaN
394	1.000000	0.666831	7.36892e+06	-57389.1	1005.82	-29737.2	0.000000	0.000000	6.667023	-0.000498	NaN	0.000000	0.001608	0.001617	28.079	0.075885	0.002013	37.6931	175.873	-166.25	0.030659	0.665570	-0.356893	-0.358154	-0.000498	37.6931	-0.356883	-32118.6	1.549852E-8	NaN
394	1.000000	0.674822	7.36892e+06	-57389.1	1005.82	-29737.2	0.000000	0.000000	6.675015	0.027793	NaN	0.000000	0.001645	0.001605	28.0791	0.007529	0.002075	3.627991	-108.46	-164.305	0.067185	0.673507	-0.348902	-0.350217	0.027793	3.627991	-0.354648	-29812.1	-9.322880E-7	NaN
394	1.000000	0.682822	7.36892e+06	-57389.1	1005.82	-29737.2	0.000000	0.000000	6.683013	-0.015718	NaN	0.000000	0.001640	0.001629	28.0792	0.059799	0.002115	28.2775	35.5788	-166.053	0.011072	0.681517	-0.340902	-0.342207	-0.015718	28.2775	-0.340485	-18562.2	8.467927E-7	NaN
394	1.000000	0.690842	7.36892e+06	-57389.1	1005.82	-29737.2	0.000000	0.000000	6.691030	-0.095034	NaN	0.000000	0.001629	0.001638	28.0789	0.082666	0.001961	42.1546	169.271	-165.503	-0.150939	0.689530	-0.332882	-0.334194	-0.095034	42.1546	-0.331191	-13579.6	6.998256E-6	NaN
394	1.000000	0.698868	7.36892e+06	-57389.1	1005.82	-29737.2	0.000000	0.000000	6.699056	-0.098729	NaN	0.000000	0.001625	0.001669	28.0791	0.033104	0.002027	16.3314	140.605	-168.881	-0.083777	0.697547	-0.324856	-0.326177	-0.098729	16.3314	-0.320322	-9405.38	1.049705E-5	NaN
394	1.000000	0.706828	7.36892e+06	-57389.1	1005.82	-29737.2	0.000000	0.000000	6.707020	0.001543	NaN	0.000000	0.001610	0.001640	28.0789	0.043450	0.002007	21.6444	-46.2132	-164.728	-0.033204	0.705494	-0.316896	-0.318230	0.001543	21.6444	-0.316950	-8388.98	-1.839859E-7	NaN
394	1.000000	0.714826	7.36892e+06	-57389.1	1005.82	-29737.2	0.000000	0.000000	6.715015	-0.070337	NaN	0.000000	0.001619	0.001678	28.0792	0.052440	0.001867	28.0839	-150.8	-164.862	-0.085815	0.713554	-0.308898	-0.310170	-0.070337	28.0839	-0.307020	-5982.91	1.175639E-5	NaN
394	1.000000	0.722853	7.36892e+06	-57389.1	1005.82	-29737.2	0.000000	0.000000	6.723044	-0.024757	NaN	0.000000	0.001650	0.001659	28.0793	0.007580	0.002044	3.708751	90.1289	-165.431	-0.069269	0.721526	-0.300871	-0.302198	-0.024757	3.708751	-0.295865	-4083.22	6.063060E-6	NaN
394	1.000000	0.730850	7.36892e+06	-57389.1	1005.82	-29737.2	0.000000	0.000000	6.731041	-0.022463	NaN	0.000000	0.001639	0.001658	28.0789	0.012223	0.002165	5.646611	139.578	-165.262	-0.041801	0.729535	-0.292874	-0.294189	-0.022463	5.646611	-0.289890	-3323.98	6.757907E-6	NaN
394	1.000000	0.738860	7.36892e+06	-57389.1	1005.82	-29737.2	0.000000	0.000000	6.739052	-0.021394	NaN	0.000000	0.001588	0.001661	28.0792	0.012235	0.002059	5.941429	122.602	-167.041	0.029619	0.737538	-0.284864	-0.286186	-0.021394	5.941429	-0.282163	-2544.34	8.408480E-6	NaN
394	1.000000	0.746849	7.36892e+06	-57389.1	1005.82	-29737.2	0.000000	0.000000	6.747040	-0.033006	NaN	0.000000	0.001598	0.001675	28.079	0.041811	0.001949	21.4498	-39.6512	-163.701	-0.090171	0.745557	-0.276875	-0.278167	-0.033006	21.4498	-0.275721	-2033.82	1.622841E-5	NaN
394	1.000000	0.754840	7.36892e+06	-57389.1	1005.82	-29737.2	0.000000	0.000000	6.755031	-0.020307	NaN	0.000000	0.001635	0.001668	28.0792	0.052898	0.002073	25.5156	115.053	-163.856	-0.031744	0.753585	-0.268884	-0.270139	-0.020307	25.5156	-0.268287	-1568.53	1.294617E-5	NaN
394	1.000000	0.762855	7.36892e+06	-57389.1	1005.82	-29737.2	0.000000	0.000000	6.763047	9.801481E-5	NaN	0.000000	0.001612	0.001660	28.0791	0.109048	0.001885	57.8441	-172.722	-165.721	0.047053	0.761511	-0.260869	-0.262213	9.801481E-5	57.8441	-0.260870	-1208.52	-8.110343E-8	NaN
394	1.000000	0.770875	7.36892e+06	-57389.1	1005.82	-29737.2	0.000000	0.000000	6.771070	0.067700	NaN	0.000000	0.001620	0.001651	28.0789	0.034622	0.002009	17.2336	-90.6993	-163.502	0.122669	0.769552	-0.252849	-0.254172	0.067700	17.2336	-0.255795	-1010.07	-6.702487E-5	NaN
394	1.000000	0.778859	7.36892e+06	-57389.1	1005.82	-29737.2	0.000000	0.000000	6.779051	-0.011483	NaN	0.000000	0.001604	0.001685	28.0793	0.053052	0.001938	27.3786	130.969	-165.36	-0.006763	0.777500	-0.244865	-0.246224	-0.011483	27.3786	-0.244550	-676.807	1.696624E-5	NaN
394	1.000000	0.786876	7.36892e+06	-57389.1	1005.82	-29737.2	0.000000	0.000000	6.787067	-0.010474	NaN	0.000000	0.001597	0.001675	28.0794	0.117370	0.002032	57.7571	-150.165	-168.318	-0.009733	0.785531	-0.236848	-0.238193	-0.010474	57.7571	-0.236712	-510.637	2.051108E-5	NaN
394	1.000000	0.794861	7.36892e+06	-57389.1	1005.82	-29737.2	0.000000	0.000000	6.795050	-0.080316	NaN	0.000000	0.001605	0.001635	28.0806	0.184451	0.002072	89.0129	-177.364	-170.625	0.006830	0.793534	-0.228863	-0.230190	-0.080316	89.0129	-0.228186	-374.844	0.000214	NaN
394	1.000000	0.802888	7.36892e+06	-57389.1	1005.82	-29737.2	0.000000	0.000000	6.803079	-0.027978	NaN	0.000000	0.001645	0.001654	28.0804	0.102967	0.001970	52.2557	-86.276	-164.743	-0.037678	0.801565	-0.220836	-0.222160	-0.027978	52.2557	-0.220434	-282.236	9.912821E-5	NaN
394	1.000000	0.810880	7.36892e+06	-57389.1	1005.82	-29737.2	0.000000	0.000000	6.811069	-0.065347	NaN	0.000000	0.001677	0.001681	28.0804	0.093303	0.001988	46.9211	-58.7107	-164.062	-0.045454	0.809583	-0.212844	-0.214141	-0.065347	46.9211	-0.211800	-205.082	0.000319	NaN
394	1.000000	0.818872	7.36892e+06	-57389.1	1005.82	-29737.2	0.000000	0.000000	6.819065	0.016250	NaN	0.000000	0.001706	0.001659	28.0807	0.094970	0.001946	48.7981	-141.001	-165.119	-0.021223	0.817567	-0.204852	-0.206157	0.016250	48.7981	-0.205101	-159.665	-0.000102	NaN
394	1.000000	0.826899	7.36892e+06	-57389.1	1005.82	-29737.2	0.000000	0.000000	6.827089	-0.066643	NaN	0.000000	0.001675	0.001670	28.0807	0.006759	0.002012	3.359238	-59.4188	-165.821	-0.093830	0.825560	-0.196825	-0.198164	-0.066643	3.359238	-0.181946	-65.8426	0.001012	NaN
394	1.000000	0.834881	7.36892e+06	-57389.1	1005.82	-29737.2	0.000000	0.000000	6.835068	-0.111353	NaN	0.000000	0.001697	0.001666	28.0806	0.014017	0.001938	7.230813	-45.4316	-165.149	-0.113215	0.833567	-0.188843	-0.190157	-0.111353	7.230813	-0.177293	-54.8646	0.002030	NaN
394	1.000000	0.842848	7.36892e+06	-57389.1	1005.82	-29737.2	0.000000	0.000000	6.843039	-0.029569	NaN	0.000000	0.001605	0.001701	28.0806	0.077043	0.001898	40.5953	-7.737000	-168.98	-0.119467	0.841593	-0.180876	-0.182131	-0.029569	40.5953	-0.180329	-61.8116	0.000478	NaN
394	1.000000	0.850891	7.36892e+06	-57389.1	1005.82	-29737.2	0.000000	0.000000	6.851083	-0.001948	NaN	0.000000	0.001602	0.001668	28.0806	0.070480	0.001996	35.3149	-96.1292	-166.435	0.061435	0.849610	-0.172833	-0.174114	-0.001948	35.3149	-0.172791	-45.9135	4.241668E-5	NaN
394	1.000000	0.858904	7.36892e+06	-57389.1	1005.82	-29737.2	0.000000	0.000000	6.859094	-0.049095	NaN	0.000000	0.001621	0.001669	28.0804	0.112540	0.002049	54.9177	-56.4836	-165.593	-0.046332	0.857624	-0.164820	-0.166100	-0.049095	54.9177	-0.164150	-32.4611	0.001512	NaN
394	1.000000	0.866899	7.36892e+06	-57389.1	1005.82	-29737.2	0.000000	0.000000	6.867096	0.101766	NaN	0.000000	0.001606	0.001684	28.0804	0.053238	0.002000	26.621	-168.984	-166.818	0.072514	0.865556	-0.156825	-0.158168	0.101766	26.621	-0.159692	-27.0711	-0.003759	NaN
394	1.000000	0.874881	7.36892e+06	-57389.1	1005.82	-29737.2	0.000000	0.000000	6.875072	-0.030821	NaN	0.000000	0.001613	0.001650	28.0805	0.121248	0.001924	63.0273	130.968	-166.704	-0.109854	0.873620	-0.148843	-0.150104	-0.030821	63.0273	-0.148476	-16.9885	0.001814	NaN
394	1.000000	0.882912	7.36892e+06	-57389.1	1005.82	-29737.2	0.000000	0.000000	6.883105	0.016161	NaN	0.000000	0.001640	0.001651	28.0804	0.093566	0.002070	45.2014	-2.281098	-167.927	-0.009199	0.881599	-0.140812	-0.142125	0.016161	45.2014	-0.141080	-12.3943	-0.001304	NaN
394	1.000000	0.890901	7.36892e+06	-57389.1	1005.82	-29737.2	0.000000	0.000000	6.891092	-0.027050	NaN	0.000000	0.001600	0.001646	28.0803	0.175744	0.002072	84.8047	-111.072	-164.792	0.045861	0.889581	-0.132823	-0.134143	-0.027050	84.8047	-0.132583	-8.549962	0.003164	NaN
394	1.000000	0.898892	7.36892e+06	-57389.1	1005.82	-29737.2	0.000000	0.000000	6.899082	-0.052634	NaN	0.000000	0.001630	0.001672	28.0802	0.013000	0.001966	6.611922	-149.985	-163.925	0.041493	0.897594	-0.124832	-0.126130	-0.052634	6.611922	-0.118861	-4.581910	0.011487	NaN
394	1.000000	0.906940	7.36892e+06	-57389.1	1005.82	-29737.2	0.000000	0.000000	6.907134	0.052946	NaN	0.000000	0.001670	0.001668	28.0804	0.055233	0.001981	27.8743	113.461	-166.751	0.004981	0.905681	-0.116784	-0.118043	0.052946	27.8743	-0.118209	-4.444231	-0.011913	NaN
394	1.000000	0.914935	7.36892e+06	-57389.1	1005.82	-29737.2	0.000000	0.000000	6.915127	0.000120	NaN	0.000000	0.001648	0.001673	28.0803	0.028032	0.002030	13.8065	-155.792	-168.106	-0.056590	0.913622	-0.108789	-0.110102	0.000120	13.8065	-0.108795	-2.833997	-4.248666E-5	NaN
394	1.000000	0.922931	7.36892e+06	-57389.1	1005.82	-29737.2	0.000000	0.000000	6.923122	-0.031192	NaN	0.000000	0.001621	0.001706	28.0799	0.108429	0.002100	51.6214	-151.718	-169.2	0.019962	0.921592	-0.100793	-0.102132	-0.031192	51.6214	-0.100340	-1.859091	0.016778	NaN
394	1.000000	0.930918	7.36892e+06	-57389.1	1005.82	-29737.2	0.000000	0.000000	6.931114	0.092472	NaN	0.000000	0.001617	0.001698	28.0788	0.042851	0.001957	21.8967	-16.551	-166.597	0.110235	0.929569	-0.092806	-0.094155	0.092472	21.8967	-0.095973	-1.484314	-0.062300	NaN
394	1.000000	0.938938	7.36892e+06	-57389.1	1005.82	-29737.2	0.000000	0.000000	6.939129	-0.028532	NaN	0.000000	0.001636	0.001666	28.0787	0.056694	0.001905	29.7665	162.852	-168.043	0.022750	0.937604	-0.084786	-0.086120	-0.028532	29.7665	-0.084067	-0.779890	0.036584	NaN
394	1.000000	0.946930	7.36892e+06	-57389.1	1005.82	-29737.2	0.000000	0.000000	6.947120	-0.047047	NaN	0.000000	0.001619	0.001639	28.079	0.075901	0.001917	39.5939	-48.0833	-164.342	-0.049561	0.945615	-0.076794	-0.078109	-0.047047	39.5939	-0.075902	-0.487297	0.096547	NaN
394	1.000000	0.954928	7.36892e+06	-57389.1	1005.82	-29737.2	0.000000	0.000000	6.955117	-0.077789	NaN	0.000000	0.001645	0.001682	28.079	0.100711	0.002027	49.6922	81.1334	-168.085	-0.104933	0.953632	-0.068796	-0.070092	-0.077789	49.6922	-0.067622	-0.294209	0.264399	NaN
394	1.000000	0.962891	7.36892e+06	-57389.1	1005.82	-29737.2	0.000000	0.000000	6.963081	-0.067807	NaN	0.000000	0.001627	0.001652	28.0788	0.025301	0.002088	12.1157	106.232	-167.368	-0.030726	0.961581	-0.060833	-0.062143	-0.067807	12.1157	-0.056635	-0.143864	0.471329	NaN
394	1.000000	0.970936	7.36892e+06	-57389.1	1005.82	-29737.2	0.000000	0.000000	6.971126	-0.050438	NaN	0.000000	0.001655	0.001660	28.079	0.120886	0.001950	61.9781	24.8775	-166.252	-0.067696	0.969614	-0.052788	-0.054110	-0.050438	61.9781	-0.052178	-0.106123	0.475274	NaN
394	1.000000	0.978953	7.36892e+06	-57389.1	1005.82	-29737.2	0.000000	0.000000	6.979145	-0.011556	NaN	0.000000	0.001598	0.001680	28.0789	0.149455	0.002044	73.107	-80.0691	-162.221	0.041086	0.977591	-0.044771	-0.046133	-0.011556	73.107	-0.044652	-0.062713	0.184265	NaN
394	1.000000	0.986950	7.36892e+06	-57389.1	1005.82	-29737.2	0.000000	0.000000	6.987142	-0.011023	NaN	0.000000	0.001613	0.001666	28.079	0.068596	0.001999	34.3069	148.351	-167.502	-0.026693	0.985638	-0.036774	-0.038086	-0.011023	34.3069	-0.036533	-0.035556	0.310016	NaN
394	1.000000	0.994958	7.36892e+06	-57389.1	1005.82	-29737.2	0.000000	0.000000	6.995146	-0.079510	NaN	0.000000	0.001590	0.001674	28.079	0.043868	0.001908	22.9969	97.5318	-163.406	-0.090518	0.993637	-0.028767	-0.030087	-0.079510	22.9969	-0.026173	-0.018113	4.389655	NaN
394	1.000000	1.002956	7.36892e+06	-57389.1	1005.82	-29737.2	0.000000	0.000000	7.003148	-0.009803	NaN	0.000000	0.001595	0.001641	28.079	0.070043	0.002057	34.0536	73.123	-164.251	0.071695	1.001653	-0.020768	-0.022071	-0.009803	34.0536	-0.020552	-0.012973	0.755635	NaN
394	1.000000	1.010941	7.36892e+06	-57389.1	1005.82	-29737.2	0.000000	0.000000	7.011129	-0.090882	NaN	0.000000	0.001613	0.001656	28.0791	0.089843	0.002077	43.2564	-46.3745	-165.503	0.026607	1.009646	-0.012783	-0.014078	-0.090882	43.2564	-0.011208	-0.007076	12.8429	NaN
394	1.000000	1.018962	7.36892e+06	-57389.1	1005.82	-29737.2	0.000000	0.000000	7.019152	-0.050889	NaN	0.000000	0.001609	0.001683	28.0791	0.110879	0.002129	52.0725	173.268	-166.824	-0.082790	1.017645	-0.004762	-0.006079	-0.050889	52.0725	-0.004029	-0.002798	18.1881	NaN
394	1.000000	1.026904	7.36892e+06	-57389.1	1005.82	-29737.2	0.000000	0.000000	7.027211	2.777927	NaN	0.000000	0.001601	0.001663	28.0792	3.406221	0.001721	1979.29	2.148997	-169.208	1.117499	1.025643	0.003180	0.001919	2.777927	1979.29	0.002128	0.001658	1675.18	44407.2
394	2.000000	1.032577	7.36892e+06	-57389.1	1005.82	-29737.2	0.000000	0.000000	7.033128	8.714392	NaN	0.000000	0.001558	0.001636	28.0792	8.760705	0.001710	5124.52	5.134827	-171.277	8.169708	1.032247	0.008853	0.008523	8.714392	5124.52	0.007578	0.006612	1318.06	57580.6
394	2.000000	1.034517	7.36892e+06	-57389.1	1005.82	-29737.2	0.000000	0.000000	7.035211	12.1985	NaN	0.000000	0.001572	0.001666	28.0794	11.2151	0.001790	6265.41	3.339401	-171.508	11.4304	1.034238	0.010793	0.010514	12.1985	6265.41	0.009333	0.008450	1443.64	62273
394	2.000000	1.036532	7.36892e+06	-57389.1	1005.82	-29737.2	0.000000	0.000000	7.037327	14.6701	NaN	0.000000	0.001554	0.001640	28.0793	12.4516	0.001666	7475.88	5.925748	-173.169	15.0876	1.036278	0.012808	0.012554	14.6701	7475.88	0.011336	0.010704	1370.5	66017.6
394	2.000000	1.038514	7.36892e+06	-57389.1	1005.82	-29737.2	0.000000	0.000000	7.039489	19.026	NaN	0.000000	0.001566	0.001668	28.079	15.4554	0.001721	8979.13	5.087400	-176.265	19.1038	1.038198	0.014790	0.014474	19.026	8979.13	0.013201	0.012961	1467.97	72059.5
394	2.000000	1.040519	7.36892e+06	-57389.1	1005.82	-29737.2	0.000000	0.000000	7.041525	19.7764	NaN	0.000000	0.001561	0.001665	28.0805	17.0117	0.001887	9014.42	6.133088	-174.612	18.8753	1.040157	0.016795	0.016433	19.7764	9014.42	0.015150	0.015486	1277.05	66182.2
394	2.000000	1.042447	7.36892e+06	-57389.1	1005.82	-29737.2	0.000000	0.000000	7.043747	26.9297	NaN	0.000000	0.001575	0.001610	28.0803	18.8544	0.001747	10791.4	5.523603	-178.417	25.4318	1.042145	0.018723	0.018421	26.9297	10791.4	0.016851	0.017834	1510.06	73829.6
394	2.000000	1.044459	7.36892e+06	-57389.1	1005.82	-29737.2	0.000000	0.000000	7.045865	29.5028	NaN	0.000000	0.001600	0.001677	28.0808	21.064	0.001847	11405.7	5.871721	-177.354	27.8051	1.044082	0.020735	0.020358	29.5028	11405.7	0.018795	0.020684	1426.37	72457
394	2.000000	1.046499	7.36892e+06	-57389.1	1005.82	-29737.2	0.000000	0.000000	7.047929	30.0812	NaN	0.000000	0.001595	0.001665	28.0806	21.5781	0.001728	12483.8	11.9895	176.815	31.816	1.046130	0.022775	0.022406	30.0812	12483.8	0.020968	0.024086	1248.91	73491.8
394	2.000000	1.048478	7.36892e+06	-57389.1	1005.82	-29737.2	0.000000	0.000000	7.049825	28.0785	NaN	0.000000	0.001593	0.001614	28.0804	24.3859	0.001868	13055.1	8.050215	179.292	29.5137	1.048222	0.024754	0.024498	28.0785	13055.1	0.023141	0.027720	1012.93	71640
394	2.000000	1.050444	7.36892e+06	-57389.1	1005.82	-29737.2	0.000000	0.000000	7.052076	35.0049	NaN	0.000000	0.001612	0.001622	28.0806	25.8171	0.001856	13906.4	4.627731	-177.044	34.463	1.050094	0.026720	0.026370	35.0049	13906.4	0.024832	0.030711	1139.83	72500.7
394	2.000000	1.052432	7.36892e+06	-57389.1	1005.82	-29737.2	0.000000	0.000000	7.054300	40.7332	NaN	0.000000	0.001602	0.001589	28.0807	27.4182	0.001719	15951.1	5.444802	179.709	40.0742	1.052109	0.028708	0.028385	40.7332	15951.1	0.026793	0.034358	1185.56	78623.5
394	2.000000	1.054478	7.36892e+06	-57389.1	1005.82	-29737.2	0.000000	0.000000	7.056412	42.3378	NaN	0.000000	0.001591	0.001635	28.0807	29.521	0.001906	15487.1	4.376570	-178.52	43.0445	1.054204	0.030754	0.030480	42.3378	15487.1	0.028704	0.038100	1111.23	72490.7
394	2.000000	1.056447	7.36892e+06	-57389.1	1005.82	-29737.2	0.000000	0.000000	7.058586	47.3215	NaN	0.000000	0.001623	0.001655	28.0807	31.0099	0.001762	17601.2	3.269750	-178.767	46.3647	1.056091	0.032723	0.032367	47.3215	17601.2	0.030707	0.042221	1120.8	78261.7
394	2.000000	1.058439	7.36892e+06	-57389.1	1005.82	-29737.2	0.000000	0.000000	7.060833	53.5024	NaN	0.000000	0.001600	0.001703	28.0804	32.2572	0.001767	18251.7	3.692111	-178.501	54.315	1.058121	0.034715	0.034397	53.5024	18251.7	0.032517	0.046122	1160.02	77646.7
394	2.000000	1.060467	7.36892e+06	-57389.1	1005.82	-29737.2	0.000000	0.000000	7.063087	59.0045	NaN	0.000000	0.001605	0.001673	28.0807	34.6137	0.001796	19267.6	5.582369	179.603	60.1971	1.060149	0.036743	0.036425	59.0045	19267.6	0.034446	0.050464	1169.24	78362.8
394	2.000000	1.062557	7.36892e+06	-57389.1	1005.82	-29737.2	0.000000	0.000000	7.065099	57.1191	NaN	0.000000	0.001636	0.001727	28.0808	35.925	0.001861	19307.8	5.681052	178.32	64.055	1.062256	0.038833	0.038532	57.1191	19307.8	0.036614	0.055570	1027.87	74831.2
394	2.000000	1.064433	7.36892e+06	-57389.1	1005.82	-29737.2	0.000000	0.000000	7.067342	66.0454	NaN	0.000000	0.001628	0.001732	28.0805	38.7869	0.001898	20432	6.811076	176.862	66.9634	1.064151	0.040709	0.040427	66.0454	20432	0.038284	0.059669	1106.86	76420.2
394	2.000000	1.066487	7.36892e+06	-57389.1	1005.82	-29737.2	0.000000	0.000000	7.069499	68.5485	NaN	0.000000	0.001613	0.001720	28.0805	39.0807	0.001678	23287.8	6.660964	173.926	69.4156	1.066276	0.042763	0.042552	68.5485	23287.8	0.040555	0.065471	1047	83152.5
394	2.000000	1.068401	7.36892e+06	-57389.1	1005.82	-29737.2	0.000000	0.000000	7.071890	80.1146	NaN	0.000000	0.001637	0.001670	28.0806	40.6722	0.001712	23757.1	-0.638353	-178.113	77.9267	1.068109	0.044677	0.044385	80.1146	23757.1	0.042148	0.069698	1149.46	82216.1
394	2.000000	1.070366	7.36892e+06	-57389.1	1005.82	-29737.2	0.000000	0.000000	7.074035	84.5111	NaN	0.000000	0.001695	0.001652	28.0805	43.3943	0.001811	23965.7	5.356061	176.142	79.131	1.070057	0.046642	0.046333	84.5111	23965.7	0.043997	0.074766	1130.35	80077.8
394	2.000000	1.072425	7.36892e+06	-57389.1	1005.82	-29737.2	0.000000	0.000000	7.076413	92.2439	NaN	0.000000	0.001626	0.001695	28.0806	45.4002	0.001800	25216.2	4.411738	177.763	93.3649	1.072086	0.048701	0.048362	92.2439	25216.2	0.045958	0.080330	1148.32	81286
394	2.000000	1.074480	7.36892e+06	-57389.1	1005.82	-29737.2	0.000000	0.000000	7.078772	99.6472	NaN	0.000000	0.001634	0.001728	28.0791	49.3786	0.002013	24533.3	9.784928	172.791	103.068	1.074118	0.050756	0.050394	99.6472	24533.3	0.047710	0.085466	1165.93	76671.4
394	2.000000	1.076387	7.36892e+06	-57389.1	1005.82	-29737.2	0.000000	0.000000	7.081040	108.417	NaN	0.000000	0.001621	0.001709	28.0791	49.9371	0.001856	26910.3	7.743034	173.391	107.319	1.076032	0.052663	0.052308	108.417	26910.3	0.049642	0.091309	1187.36	81364.5
394	2.000000	1.078416	7.36892e+06	-57389.1	1005.82	-29737.2	0.000000	0.000000	7.083402	116.505	NaN	0.000000	0.001597	0.001703	28.079	52.236	0.001833	28502.4	8.180549	172.573	115.912	1.078060	0.054692	0.054335	116.505	28502.4	0.051627	0.097507	1194.84	83394.3
394	2.000000	1.080472	7.36892e+06	-57389.1	1005.82	-29737.2	0.000000	0.000000	7.085799	124.804	NaN	0.000000	0.001641	0.001655	28.079	54.0557	0.001977	27340.9	7.223029	174.016	125.806	1.080025	0.056748	0.056301	124.804	27340.9	0.053325	0.102966	1212.08	77846.3
394	2.000000	1.082401	7.36892e+06	-57389.1	1005.82	-29737.2	0.000000	0.000000	7.088060	132.879	NaN	0.000000	0.001665	0.001608	28.0792	54.514	0.001787	30511.8	4.134147	176.583	132.523	1.081972	0.058677	0.058248	132.879	30511.8	0.055411	0.109868	1209.44	84101.7
394	2.000000	1.084428	7.36892e+06	-57389.1	1005.82	-29737.2	0.000000	0.000000	7.090285	137.69	NaN	0.000000	0.001634	0.001648	28.0793	58.5917	0.001855	31589.8	8.556758	171.287	139.875	1.084127	0.060704	0.060403	137.69	31589.8	0.057435	0.116772	1179.13	84459.9
394	2.000000	1.086450	7.36892e+06	-57389.1	1005.82	-29737.2	0.000000	0.000000	7.092760	148.697	NaN	0.000000	0.001591	0.001717	28.0795	58.7851	0.001824	32227.8	10.0649	169.881	149.852	1.085977	0.062726	0.062253	148.697	32227.8	0.059265	0.123187	1207.08	83892.1
394	2.000000	1.088329	7.36892e+06	-57389.1	1005.82	-29737.2	0.000000	0.000000	7.094962	156.548	NaN	0.000000	0.001602	0.001677	28.0793	61.888	0.001920	32233.3	7.063235	172.25	153.565	1.088102	0.064605	0.064378	156.548	32233.3	0.060962	0.129282	1210.9	81904.7
394	2.000000	1.090357	7.36892e+06	-57389.1	1005.82	-29737.2	0.000000	0.000000	7.097330	164.817	NaN	0.000000	0.001608	0.001664	28.0792	62.5667	0.001855	33734.4	4.294199	175.091	161.385	1.090008	0.066633	0.066284	164.817	33734.4	0.062968	0.136668	1205.97	83370.7
394	2.000000	1.092381	7.36892e+06	-57389.1	1005.82	-29737.2	0.000000	0.000000	7.100039	181.45	NaN	0.000000	0.001583	0.001682	28.0793	63.3125	0.001664	38055.4	3.696376	174.275	180.556	1.091972	0.068657	0.068248	181.45	38055.4	0.065081	0.144656	1254.36	91416
394	2.000000	1.094379	7.36892e+06	-57389.1	1005.82	-29737.2	0.000000	0.000000	7.102042	181.575	NaN	0.000000	0.001648	0.001675	28.0792	67.1312	0.001759	38163.2	3.472569	174.334	179.337	1.094052	0.070655	0.070328	181.575	38163.2	0.067087	0.152439	1191.13	89303.7
394	2.000000	1.096421	7.36892e+06	-57389.1	1005.82	-29737.2	0.000000	0.000000	7.104531	192.441	NaN	0.000000	0.001654	0.001691	28.0794	68.0909	0.001710	39825.4	5.502527	172.262	194.048	1.096056	0.072697	0.072332	192.441	39825.4	0.069073	0.160338	1200.22	90868.9
394	2.000000	1.098315	7.36892e+06	-57389.1	1005.82	-29737.2	0.000000	0.000000	7.106754	200.458	NaN	0.000000	0.001626	0.001632	28.0796	70.6786	0.001833	38565.7	4.082724	173.568	196.071	1.098042	0.074591	0.074318	200.458	38565.7	0.070692	0.166916	1200.95	86243.4
394	2.000000	1.100427	7.36892e+06	-57389.1	1005.82	-29737.2	0.000000	0.000000	7.109279	210.465	NaN	0.000000	0.001603	0.001661	28.0793	72.3935	0.001822	39730.1	4.532107	173.597	210.021	1.099980	0.076703	0.076256	210.465	39730.1	0.072730	0.175371	1200.12	86679.1
394	2.000000	1.102318	7.36892e+06	-57389.1	1005.82	-29737.2	0.000000	0.000000	7.111751	224.595	NaN	0.000000	0.001621	0.001655	28.0791	74.3142	0.001832	40567.1	8.273178	169.158	221.943	1.101990	0.078594	0.078265	224.595	40567.1	0.074442	0.182626	1229.81	86729.2
394	2.000000	1.104323	7.36892e+06	-57389.1	1005.82	-29737.2	0.000000	0.000000	7.113827	226.322	NaN	0.000000	0.001616	0.001684	28.0793	74.9734	0.001706	43950.4	0.459902	176.406	223.261	1.104249	0.080599	0.080525	226.322	43950.4	0.076737	0.192567	1175.29	91505.1
394	2.000000	1.106410	7.36892e+06	-57389.1	1005.82	-29737.2	0.000000	0.000000	7.116518	241.002	NaN	0.000000	0.001627	0.001607	28.0793	77.1528	0.001721	44818.8	9.770401	167.713	241.703	1.106056	0.082686	0.082332	241.002	44818.8	0.078653	0.201057	1198.68	91321.7
394	2.000000	1.108303	7.36892e+06	-57389.1	1005.82	-29737.2	0.000000	0.000000	7.118615	245.967	NaN	0.000000	0.001616	0.001634	28.0807	78.7903	0.001816	43398	-0.264399	176.984	242.624	1.108185	0.084579	0.084461	245.967	43398	0.080328	0.208620	1179.02	86808.9
394	2.000000	1.110298	7.36892e+06	-57389.1	1005.82	-29737.2	0.000000	0.000000	7.121310	262.982	NaN	0.000000	0.001632	0.001667	28.0806	80.705	0.001793	45018.9	2.666174	174.616	256.908	1.110021	0.086574	0.086297	262.982	45018.9	0.082192	0.217191	1210.84	88256.7
394	2.000000	1.112394	7.36892e+06	-57389.1	1005.82	-29737.2	0.000000	0.000000	7.124153	281.134	NaN	0.000000	0.001607	0.001627	28.0804	82.4139	0.001837	44861	2.872689	173.899	282.803	1.112042	0.088670	0.088318	281.134	44861	0.083970	0.225511	1246.65	86309.4
394	2.000000	1.114358	7.36892e+06	-57389.1	1005.82	-29737.2	0.000000	0.000000	7.126351	286.824	NaN	0.000000	0.001564	0.001629	28.0805	85.1124	0.001779	47836.7	1.871360	174.524	284.313	1.114046	0.090634	0.090322	286.824	47836.7	0.086137	0.235857	1216.1	89993.3
394	2.000000	1.116285	7.36892e+06	-57389.1	1005.82	-29737.2	0.000000	0.000000	7.128868	301.166	NaN	0.000000	0.001535	0.001663	28.0806	85.9533	0.001718	50019.7	4.681087	171.534	297.896	1.116012	0.092561	0.092288	301.166	50019.7	0.088045	0.245140	1228.54	92301
394	2.000000	1.118361	7.36892e+06	-57389.1	1005.82	-29737.2	0.000000	0.000000	7.131370	311.503	NaN	0.000000	0.001549	0.001654	28.0809	88.7288	0.001847	48048.6	3.327493	173.714	309.106	1.117969	0.094637	0.094245	311.503	48048.6	0.089775	0.253703	1227.83	87154.7
394	2.000000	1.120352	7.36892e+06	-57389.1	1005.82	-29737.2	0.000000	0.000000	7.133411	312.722	NaN	0.000000	0.001538	0.001619	28.0807	90.8647	0.001854	49008	6.043483	169.91	310.869	1.120096	0.096628	0.096372	312.722	49008	0.091842	0.264118	1184.03	87124.8
394	2.000000	1.122367	7.36892e+06	-57389.1	1005.82	-29737.2	0.000000	0.000000	7.135979	326.168	NaN	0.000000	0.001574	0.001650	28.0806	91.1173	0.001702	53549.1	3.656921	171.72	325.078	1.122121	0.098643	0.098397	326.168	53549.1	0.094075	0.275586	1183.54	93195.9
394	2.000000	1.124390	7.36892e+06	-57389.1	1005.82	-29737.2	0.000000	0.000000	7.138952	349.254	NaN	0.000000	0.001596	0.001724	28.0806	94.9178	0.001870	50766.5	4.955227	171.287	348.369	1.123998	0.100666	0.100274	349.254	50766.5	0.095506	0.283056	1233.87	87179.5
394	2.000000	1.126310	7.36892e+06	-57389.1	1005.82	-29737.2	0.000000	0.000000	7.141236	358.086	NaN	0.000000	0.001573	0.001662	28.0807	96.4677	0.001857	51935.2	8.810497	167.508	356.588	1.125971	0.102586	0.102247	358.086	51935.2	0.097415	0.293167	1221.44	87635
394	2.000000	1.128315	7.36892e+06	-57389.1	1005.82	-29737.2	0.000000	0.000000	7.143802	371.752	NaN	0.000000	0.001580	0.001659	28.0809	97.7845	0.001858	52641.6	8.498952	167.24	368.44	1.127997	0.104591	0.104273	371.752	52641.6	0.099294	0.303280	1225.77	87333.4
394	2.000000	1.130466	7.36892e+06	-57389.1	1005.82	-29737.2	0.000000	0.000000	7.146300	380.176	NaN	0.000000	0.001553	0.001646	28.0805	99.2645	0.001761	56380.5	6.183475	169.27	385.906	1.130090	0.106742	0.106366	380.176	56380.5	0.101685	0.316378	1201.65	91579.8