File: remote_trans/data/nanoindenter/0828-1/data/Data_2025-08-06,11h17m57s/2025-07-22_16-23-58_1_551.txt
2025-07-22, 16:23:58, 1
Index	Phase	Displacement	Time	Pos X	Pos Y	Pos Z	Rot A	Rot B	Piezo Z	Force A	Force B	Gripper	Voltage A	Voltage B	Temperature	Amplitude force	Amplitude pos	Stiffness	Phase shift	Phase excitation	Force A raw	Displacement raw	HMax	HMax raw	Real Force	Real Stiffness	Contact Depth	Area	Hardness	Reduced Mod.
[#]	[#]	[um]	[s]	[um]	[um]	[um]	[m°]	[m°]	[um]	[uN]	[uN]	[V]	[V]	[V]	[°C]	[uN]	[um]	[N/m]	[°]	[°]	[uN]	[um]	[um]	[um]	[uN]	[N/m]	[um]	[um^2]	[MPa]	[MPa]
551	1.000000	0.002349	7.37044e+06	-49539.1	1005.82	-29758.6	0.000000	0.000000	6.002785	-0.035915	NaN	0.000000	0.001617	0.001803	28.0825	0.048393	0.001019	47.5059	138.754	-169.055	-0.025378	0.001070	-1.084145	-1.085425	-0.035915	47.5059	-1.083578	-3.016996E+14	1.190434E-16	NaN
551	1.000000	0.012396	7.37044e+06	-49539.1	1005.82	-29758.6	0.000000	0.000000	6.012836	0.050260	NaN	0.000000	0.001578	0.001812	28.0815	0.104990	0.001225	85.7392	-15.4598	18.3399	0.002381	0.010986	-1.074098	-1.075509	0.050260	85.7392	-1.074537	-2.281109E+14	-2.203330E-16	NaN
551	1.000000	0.022304	7.37044e+06	-49539.1	1005.82	-29758.6	0.000000	0.000000	6.022739	-0.071320	NaN	0.000000	0.001594	0.001820	28.0815	0.139695	0.001575	88.6986	-103.871	-164.126	0.064651	0.020941	-1.064190	-1.065553	-0.071320	88.6986	-1.063587	-1.625622E+14	4.387267E-16	NaN
551	1.000000	0.032307	7.37044e+06	-49539.1	1005.82	-29758.6	0.000000	0.000000	6.032742	-0.046484	NaN	0.000000	0.001628	0.001791	28.0816	0.077558	0.001961	39.5425	71.938	16.3173	-0.057287	0.030930	-1.054188	-1.055565	-0.046484	39.5425	-1.053306	-1.182637E+14	3.930521E-16	NaN
551	1.000000	0.042328	7.37044e+06	-49539.1	1005.82	-29758.6	0.000000	0.000000	6.042764	-0.038647	NaN	0.000000	0.001606	0.001776	28.0815	0.061623	0.002057	29.9622	6.919455	-167.086	-0.103413	0.041005	-1.044166	-1.045490	-0.038647	29.9622	-1.043198	-8.649170E+13	4.468304E-16	NaN
551	1.000000	0.052334	7.37044e+06	-49539.1	1005.82	-29758.6	0.000000	0.000000	6.052767	-0.121678	NaN	0.000000	0.001629	0.001801	28.0816	0.056882	0.001974	28.8108	76.7429	13.5974	-0.090666	0.050941	-1.034160	-1.035553	-0.121678	28.8108	-1.030992	-5.926914E+13	2.052968E-15	NaN
551	1.000000	0.062273	7.37044e+06	-49539.1	1005.82	-29758.6	0.000000	0.000000	6.062707	-0.065533	NaN	0.000000	0.001630	0.001801	28.0811	0.098730	0.001925	51.3016	-129.455	-163.087	0.040674	0.060994	-1.024221	-1.025500	-0.065533	51.3016	-1.023263	-4.665083E+13	1.404753E-15	NaN
551	1.000000	0.072329	7.37044e+06	-49539.1	1005.82	-29758.6	0.000000	0.000000	6.072763	-0.084784	NaN	0.000000	0.001618	0.001801	28.0814	0.076631	0.001830	41.88	-160.14	15.1892	-0.035966	0.070975	-1.014166	-1.015519	-0.084784	41.88	-1.012647	-3.357451E+13	2.525253E-15	NaN
551	1.000000	0.082315	7.37044e+06	-49539.1	1005.82	-29758.6	0.000000	0.000000	6.082754	0.031248	NaN	0.000000	0.001577	0.001851	28.0809	0.044849	0.002072	21.6409	129.379	-166	-0.022361	0.081059	-1.004179	-1.005435	0.031248	21.6409	-1.005262	-2.670576E+13	-1.170098E-15	NaN
551	1.000000	0.092298	7.37044e+06	-49539.1	1005.82	-29758.6	0.000000	0.000000	6.092733	-0.071997	NaN	0.000000	0.001611	0.001814	28.0813	0.056343	0.002099	26.8431	120.991	13.3959	-0.032622	0.090951	-0.994196	-0.995543	-0.071997	26.8431	-0.992184	-1.780447E+13	4.043745E-15	NaN
551	1.000000	0.102344	7.37044e+06	-49539.1	1005.82	-29758.6	0.000000	0.000000	6.102780	-0.033839	NaN	0.000000	0.001567	0.001858	28.0808	0.151587	0.001958	77.4109	-62.8925	-166.634	-0.096394	0.100994	-0.984150	-0.985500	-0.033839	77.4109	-0.983822	-1.373729E+13	2.463285E-15	NaN
551	1.000000	0.112343	7.37044e+06	-49539.1	1005.82	-29758.6	0.000000	0.000000	6.112778	-0.071561	NaN	0.000000	0.001565	0.001827	28.0812	0.039927	0.001997	19.9973	128.667	14.8938	-0.067319	0.110984	-0.974151	-0.975510	-0.071561	19.9973	-0.971467	-9.363462E+12	7.642571E-15	NaN
551	1.000000	0.122330	7.37044e+06	-49539.1	1005.82	-29758.6	0.000000	0.000000	6.122763	-0.086674	NaN	0.000000	0.001600	0.001859	28.0811	0.019914	0.001950	10.2136	-58.202	-165.016	-0.113501	0.121027	-0.964165	-0.965467	-0.086674	10.2136	-0.957800	-6.126441E+12	1.414757E-14	NaN
551	1.000000	0.132364	7.37044e+06	-49539.1	1005.82	-29758.6	0.000000	0.000000	6.132799	-0.048822	NaN	0.000000	0.001579	0.001832	28.0812	0.105004	0.001992	52.7141	101.824	12.4857	-0.032889	0.130997	-0.954130	-0.955497	-0.048822	52.7141	-0.953436	-5.350093E+12	9.125494E-15	NaN
551	1.000000	0.142372	7.37044e+06	-49539.1	1005.82	-29758.6	0.000000	0.000000	6.142805	-0.091918	NaN	0.000000	0.001598	0.001800	28.0813	0.110518	0.001998	55.3008	-49.1375	-159.955	-0.077306	0.140971	-0.944122	-0.945523	-0.091918	55.3008	-0.942876	-3.854197E+12	2.384883E-14	NaN
551	1.000000	0.152345	7.37044e+06	-49539.1	1005.82	-29758.6	0.000000	0.000000	6.152779	-0.089432	NaN	0.000000	0.001573	0.001777	28.0827	0.037580	0.002027	18.5422	115.062	18.613	-0.119938	0.150997	-0.934149	-0.935497	-0.089432	18.5422	-0.930532	-2.626483E+12	3.405024E-14	NaN
551	1.000000	0.162320	7.37044e+06	-49539.1	1005.82	-29758.6	0.000000	0.000000	6.162755	-0.046459	NaN	0.000000	0.001591	0.001800	28.0826	0.059953	0.001997	30.0154	-71.7252	-164.997	-0.074042	0.161007	-0.924175	-0.925487	-0.046459	30.0154	-0.923014	-2.079185E+12	2.234477E-14	NaN
551	1.000000	0.172375	7.37044e+06	-49539.1	1005.82	-29758.6	0.000000	0.000000	6.172807	-0.132623	NaN	0.000000	0.001605	0.001813	28.0825	0.059276	0.001974	30.0227	-9.262660	16.7767	-0.146257	0.171024	-0.914119	-0.915471	-0.132623	30.0227	-0.910806	-1.422490E+12	9.323290E-14	NaN
551	1.000000	0.182388	7.37044e+06	-49539.1	1005.82	-29758.6	0.000000	0.000000	6.182823	-0.065362	NaN	0.000000	0.001623	0.001782	28.0826	0.016183	0.001982	8.165290	23.4835	-165.426	-0.076730	0.181042	-0.904106	-0.905452	-0.065362	8.165290	-0.898102	-9.581292E+11	6.821800E-14	NaN
551	1.000000	0.192364	7.37044e+06	-49539.1	1005.82	-29758.6	0.000000	0.000000	6.192799	-0.056605	NaN	0.000000	0.001570	0.001769	28.0824	0.081628	0.002044	39.929	-64.9178	17.7613	-0.027289	0.191025	-0.894130	-0.895469	-0.056605	39.929	-0.893067	-8.191673E+11	6.910059E-14	NaN
551	1.000000	0.202379	7.37044e+06	-49539.1	1005.82	-29758.6	0.000000	0.000000	6.202816	-0.013870	NaN	0.000000	0.001625	0.001802	28.0825	0.045684	0.001995	22.8999	-20.5029	-166.154	-0.025290	0.201101	-0.884115	-0.885393	-0.013870	22.8999	-0.883661	-6.112390E+11	2.269113E-14	NaN
551	1.000000	0.212398	7.37044e+06	-49539.1	1005.82	-29758.6	0.000000	0.000000	6.212833	-0.046075	NaN	0.000000	0.001597	0.001778	28.0822	0.062185	0.001918	32.4252	-88.3172	16.5469	-0.095082	0.211007	-0.874096	-0.875487	-0.046075	32.4252	-0.873031	-4.389794E+11	1.049584E-13	NaN
551	1.000000	0.222401	7.37044e+06	-49539.1	1005.82	-29758.6	0.000000	0.000000	6.222837	-0.050849	NaN	0.000000	0.001570	0.001750	28.0822	0.055265	0.002009	27.5108	130.923	-164.017	-0.017136	0.221053	-0.864093	-0.865441	-0.050849	27.5108	-0.862707	-3.182401E+11	1.597824E-13	NaN
551	1.000000	0.232387	7.37044e+06	-49539.1	1005.82	-29758.6	0.000000	0.000000	6.232823	-0.045135	NaN	0.000000	0.001561	0.001764	28.0823	0.123650	0.002096	59.0069	-132.27	14.7099	-0.049695	0.230997	-0.854107	-0.855497	-0.045135	59.0069	-0.853533	-2.391001E+11	1.887684E-13	NaN
551	1.000000	0.242406	7.37044e+06	-49539.1	1005.82	-29758.6	0.000000	0.000000	6.242843	-0.030128	NaN	0.000000	0.001596	0.001784	28.0822	0.131521	0.002044	64.3541	24.0185	-167.718	-0.050880	0.241113	-0.844088	-0.845381	-0.030128	64.3541	-0.843737	-1.761618E+11	1.710241E-13	NaN
551	1.000000	0.252406	7.37044e+06	-49539.1	1005.82	-29758.6	0.000000	0.000000	6.252841	-0.070376	NaN	0.000000	0.001580	0.001791	28.0822	0.020907	0.001965	10.6393	169.67	13.4024	0.010471	0.251079	-0.834088	-0.835415	-0.070376	10.6393	-0.829127	-1.116740E+11	6.301882E-13	NaN
551	1.000000	0.262426	7.37044e+06	-49539.1	1005.82	-29758.7	0.000000	0.000000	6.262864	0.012768	NaN	0.000000	0.001556	0.001789	28.0822	0.082799	0.001968	42.0716	141.7	-164.878	-0.029375	0.261111	-0.824068	-0.825384	0.012768	42.0716	-0.824296	-9.604148E+10	-1.329413E-13	NaN
551	1.000000	0.272404	7.37044e+06	-49539.1	1005.82	-29758.7	0.000000	0.000000	6.272841	-0.007587	NaN	0.000000	0.001616	0.001753	28.0829	0.022758	0.001992	11.423	138.309	12.7387	-0.055179	0.271068	-0.814091	-0.815426	-0.007587	11.423	-0.813592	-6.875551E+10	1.103477E-13	NaN
551	1.000000	0.282409	7.37044e+06	-49539.1	1005.82	-29758.7	0.000000	0.000000	6.282840	-0.144648	NaN	0.000000	0.001602	0.001783	28.0821	0.043957	0.002078	21.1557	114.404	-168.588	-0.115083	0.281082	-0.804085	-0.805412	-0.144648	21.1557	-0.798957	-4.352212E+10	3.323541E-12	NaN
551	1.000000	0.292405	7.37044e+06	-49539.1	1005.82	-29758.7	0.000000	0.000000	6.292838	-0.111190	NaN	0.000000	0.001608	0.001767	28.081	0.085797	0.001998	42.9375	-0.748609	15.0616	-0.055648	0.291096	-0.794089	-0.795398	-0.111190	42.9375	-0.792147	-3.517511E+10	3.161036E-12	NaN
551	1.000000	0.302447	7.37044e+06	-49539.1	1005.82	-29758.7	0.000000	0.000000	6.302883	-0.036083	NaN	0.000000	0.001586	0.001803	28.081	0.055976	0.001898	29.4959	92.8391	-164.458	-0.037396	0.301093	-0.784047	-0.785401	-0.036083	29.4959	-0.783130	-2.653124E+10	1.360022E-12	NaN
551	1.000000	0.312410	7.37044e+06	-49539.1	1005.82	-29758.7	0.000000	0.000000	6.312844	-0.088565	NaN	0.000000	0.001559	0.001797	28.0811	0.027178	0.001960	13.8643	30.5999	15.3637	-0.087566	0.311051	-0.774084	-0.775443	-0.088565	13.8643	-0.769293	-1.720660E+10	5.147141E-12	NaN
551	1.000000	0.322429	7.37044e+06	-49539.1	1005.82	-29758.7	0.000000	0.000000	6.322863	-0.083193	NaN	0.000000	0.001604	0.001770	28.0813	0.128320	0.001979	64.8407	158.52	-163.087	-0.094647	0.321112	-0.764065	-0.765382	-0.083193	64.8407	-0.763103	-1.417464E+10	5.869152E-12	NaN
551	1.000000	0.332428	7.37044e+06	-49539.1	1005.82	-29758.7	0.000000	0.000000	6.332862	-0.090430	NaN	0.000000	0.001593	0.001800	28.0812	0.026956	0.001980	13.6134	-68.9966	17.7611	-0.124096	0.331109	-0.754066	-0.755385	-0.090430	13.6134	-0.749084	-9.135925E+9	9.898335E-12	NaN
551	1.000000	0.342437	7.37044e+06	-49539.1	1005.82	-29758.7	0.000000	0.000000	6.342874	-0.009553	NaN	0.000000	0.001558	0.001796	28.0814	0.069303	0.001954	35.4731	157.284	-164.328	-0.079930	0.341152	-0.744058	-0.745342	-0.009553	35.4731	-0.743856	-7.754724E+9	1.231839E-12	NaN
551	1.000000	0.352462	7.37044e+06	-49539.1	1005.82	-29758.7	0.000000	0.000000	6.352899	-0.006842	NaN	0.000000	0.001582	0.001793	28.0811	0.030605	0.002032	15.0622	-56.1114	11.1667	0.062384	0.351071	-0.734032	-0.735423	-0.006842	15.0622	-0.733692	-5.637893E+9	1.213541E-12	NaN
551	1.000000	0.362418	7.37044e+06	-49539.1	1005.82	-29758.7	0.000000	0.000000	6.362853	-0.049999	NaN	0.000000	0.001577	0.001767	28.0813	0.036324	0.001951	18.6183	-31.0312	-165.729	-0.045826	0.361129	-0.724077	-0.725365	-0.049999	18.6183	-0.722063	-3.913808E+9	1.277515E-11	NaN
551	1.000000	0.372439	7.37044e+06	-49539.1	1005.82	-29758.7	0.000000	0.000000	6.372875	-0.052246	NaN	0.000000	0.001602	0.001763	28.081	0.054818	0.002000	27.4134	-148.378	16.2589	-0.049331	0.371110	-0.714055	-0.715385	-0.052246	27.4134	-0.712625	-2.909879E+9	1.795462E-11	NaN
551	1.000000	0.382449	7.37044e+06	-49539.1	1005.82	-29758.7	0.000000	0.000000	6.382883	-0.076968	NaN	0.000000	0.001575	0.001783	28.0814	0.149943	0.001993	75.2161	33.1607	-164.666	-0.077705	0.381131	-0.704045	-0.705363	-0.076968	75.2161	-0.703277	-2.169126E+9	3.548342E-11	NaN
551	1.000000	0.392468	7.37044e+06	-49539.1	1005.82	-29758.7	0.000000	0.000000	6.392901	-0.099753	NaN	0.000000	0.001544	0.001749	28.081	0.112873	0.002078	54.3081	-62.3789	17.4585	-0.069808	0.391064	-0.694027	-0.695430	-0.099753	54.3081	-0.692649	-1.552801E+9	6.424071E-11	NaN
551	1.000000	0.402465	7.37044e+06	-49539.1	1005.82	-29758.7	0.000000	0.000000	6.402900	-0.050407	NaN	0.000000	0.001577	0.001770	28.081	0.054431	0.001993	27.3071	70.4688	-160.117	-0.042874	0.401137	-0.684030	-0.685357	-0.050407	27.3071	-0.682645	-1.133386E+9	4.447484E-11	NaN
551	1.000000	0.412450	7.37044e+06	-49539.1	1005.82	-29758.7	0.000000	0.000000	6.412884	-0.085490	NaN	0.000000	0.001577	0.001751	28.0812	0.065300	0.001928	33.873	48.884	16.0656	-0.041280	0.411121	-0.674045	-0.675373	-0.085490	33.873	-0.672152	-8.144003E+8	1.049727E-10	NaN
551	1.000000	0.422462	7.37044e+06	-49539.1	1005.82	-29758.7	0.000000	0.000000	6.422896	-0.077683	NaN	0.000000	0.001565	0.001775	28.0821	0.067673	0.001919	35.2715	-136.405	-164.6	-0.078696	0.421158	-0.664032	-0.665336	-0.077683	35.2715	-0.662380	-5.985079E+8	1.297943E-10	NaN
551	1.000000	0.432483	7.37044e+06	-49539.1	1005.82	-29758.7	0.000000	0.000000	6.432920	-0.021563	NaN	0.000000	0.001577	0.001784	28.0822	0.069760	0.001908	36.57	13.2	17.1231	-0.067803	0.431120	-0.654011	-0.655375	-0.021563	36.57	-0.653569	-4.532657E+8	4.757342E-11	NaN
551	1.000000	0.442470	7.37044e+06	-49539.1	1005.82	-29758.7	0.000000	0.000000	6.442906	-0.038562	NaN	0.000000	0.001571	0.001797	28.082	0.012255	0.002024	6.054289	156.923	-163.342	-0.042259	0.441209	-0.644024	-0.645285	-0.038562	6.054289	-0.639247	-2.883761E+8	1.337223E-10	NaN
551	1.000000	0.452470	7.37044e+06	-49539.1	1005.82	-29758.7	0.000000	0.000000	6.452905	-0.056280	NaN	0.000000	0.001594	0.001750	28.0822	0.043422	0.002092	20.7553	133.875	14.1123	-0.089542	0.451133	-0.634024	-0.635361	-0.056280	20.7553	-0.631991	-2.292760E+8	2.454676E-10	NaN
551	1.000000	0.462491	7.37044e+06	-49539.1	1005.82	-29758.7	0.000000	0.000000	6.462929	0.025618	NaN	0.000000	0.001587	0.001748	28.0821	0.092393	0.001900	48.6354	120.202	-164.939	-0.031026	0.461189	-0.624003	-0.625305	0.025618	48.6354	-0.624398	-1.803336E+8	-1.420598E-10	NaN
551	1.000000	0.472470	7.37044e+06	-49539.1	1005.82	-29758.7	0.000000	0.000000	6.472905	-0.055391	NaN	0.000000	0.001564	0.001736	28.0824	0.059922	0.001934	30.9802	-179.067	14.3837	-0.016974	0.471114	-0.614024	-0.615380	-0.055391	30.9802	-0.612683	-1.244600E+8	4.450530E-10	NaN
551	1.000000	0.482509	7.37044e+06	-49539.1	1005.82	-29758.7	0.000000	0.000000	6.482942	-0.102429	NaN	0.000000	0.001590	0.001761	28.0823	0.079181	0.002155	36.7365	84.076	-166.293	-0.152632	0.481194	-0.603985	-0.605301	-0.102429	36.7365	-0.601894	-8.841778E+7	1.158462E-9	NaN
551	1.000000	0.492498	7.37044e+06	-49539.1	1005.82	-29758.7	0.000000	0.000000	6.492934	-0.046483	NaN	0.000000	0.001571	0.001777	28.0824	0.015652	0.002130	7.347700	-179.431	12.3197	-0.054049	0.491177	-0.593996	-0.595317	-0.046483	7.347700	-0.589251	-5.920340E+7	7.851324E-10	NaN
551	1.000000	0.502503	7.37044e+06	-49539.1	1005.82	-29758.7	0.000000	0.000000	6.502938	-0.057190	NaN	0.000000	0.001617	0.001763	28.0822	0.046221	0.002058	22.4555	-28.2945	-162.132	-0.047851	0.501198	-0.583992	-0.585296	-0.057190	22.4555	-0.582081	-4.714652E+7	1.213018E-9	NaN
551	1.000000	0.512503	7.37044e+06	-49539.1	1005.82	-29758.7	0.000000	0.000000	6.512938	-0.068897	NaN	0.000000	0.001612	0.001772	28.0822	0.063314	0.001947	32.5122	97.8636	13.9148	-0.014776	0.511161	-0.573991	-0.575333	-0.068897	32.5122	-0.572402	-3.465850E+7	1.987886E-9	NaN
551	1.000000	0.522490	7.37044e+06	-49539.1	1005.82	-29758.7	0.000000	0.000000	6.522923	-0.105346	NaN	0.000000	0.001602	0.001708	28.0821	0.123920	0.002066	59.9911	91.6175	-167.864	-0.126361	0.521220	-0.564004	-0.565274	-0.105346	59.9911	-0.562687	-2.544141E+7	4.140728E-9	NaN
551	1.000000	0.532523	7.37044e+06	-49539.1	1005.82	-29758.7	0.000000	0.000000	6.532963	0.058558	NaN	0.000000	0.001559	0.001770	28.0824	0.043656	0.002027	21.533	19.2769	14.8697	-0.056922	0.531139	-0.553971	-0.555355	0.058558	21.533	-0.556010	-2.056717E+7	-2.847139E-9	NaN
551	1.000000	0.542507	7.37044e+06	-49539.1	1005.82	-29758.7	0.000000	0.000000	6.542942	-0.060412	NaN	0.000000	0.001593	0.001733	28.0823	0.064616	0.001977	32.6794	-95.2111	-167.866	-0.054124	0.541213	-0.543987	-0.545281	-0.060412	32.6794	-0.542600	-1.340958E+7	4.505165E-9	NaN
551	1.000000	0.552485	7.37044e+06	-49539.1	1005.82	-29758.7	0.000000	0.000000	6.552921	-0.048473	NaN	0.000000	0.001589	0.001729	28.0825	0.119645	0.002053	58.2843	-113.489	14.3736	-0.086512	0.551185	-0.534009	-0.535309	-0.048473	58.2843	-0.533385	-9.99023e+06	4.852090E-9	NaN
551	1.000000	0.562497	7.37044e+06	-49539.1	1005.82	-29758.7	0.000000	0.000000	6.562930	-0.125400	NaN	0.000000	0.001567	0.001734	28.0813	0.035295	0.002025	17.4276	99.9608	-162.81	-0.102895	0.561188	-0.523997	-0.525306	-0.125400	17.4276	-0.518600	-6.22482e+06	2.014516E-8	NaN
551	1.000000	0.572534	7.37044e+06	-49539.1	1005.82	-29758.7	0.000000	0.000000	6.572969	-0.038632	NaN	0.000000	0.001585	0.001693	28.0814	0.012754	0.001928	6.613476	-135.346	14.6244	-0.028676	0.571167	-0.513961	-0.515327	-0.038632	6.613476	-0.509579	-4.66185e+06	8.286944E-9	NaN
551	1.000000	0.582539	7.37044e+06	-49539.1	1005.82	-29758.7	0.000000	0.000000	6.582973	-0.080652	NaN	0.000000	0.001576	0.001707	28.0812	0.076820	0.002010	38.2154	41.7588	-162.73	-0.071781	0.581264	-0.503955	-0.505230	-0.080652	38.2154	-0.502373	-3.69924e+06	2.180235E-8	NaN
551	1.000000	0.592551	7.37044e+06	-49539.1	1005.82	-29758.7	0.000000	0.000000	6.592988	-0.024358	NaN	0.000000	0.001565	0.001719	28.0812	0.069047	0.002030	34.0201	16.841	15.1551	-0.136528	0.591138	-0.493943	-0.495357	-0.024358	34.0201	-0.493406	-2.77317e+06	8.783342E-9	NaN
551	1.000000	0.602530	7.37044e+06	-49539.1	1005.82	-29758.7	0.000000	0.000000	6.602963	-0.087230	NaN	0.000000	0.001551	0.001753	28.0814	0.035505	0.001913	18.5562	-19.7608	-163.804	-0.136771	0.601208	-0.483965	-0.485286	-0.087230	18.5562	-0.480439	-1.82672e+06	4.775223E-8	NaN
551	1.000000	0.612555	7.37044e+06	-49539.1	1005.82	-29758.7	0.000000	0.000000	6.612991	-0.032430	NaN	0.000000	0.001562	0.001730	28.0812	0.085419	0.002011	42.4729	21.9722	17.4315	-0.010599	0.611191	-0.473939	-0.475303	-0.032430	42.4729	-0.473366	-1.45414e+06	2.230193E-8	NaN
551	1.000000	0.622561	7.37044e+06	-49539.1	1005.82	-29758.7	0.000000	0.000000	6.622997	-0.030598	NaN	0.000000	0.001594	0.001730	28.0813	0.049092	0.001896	25.8888	79.3961	-165.224	-0.054063	0.621275	-0.463933	-0.465219	-0.030598	25.8888	-0.463047	-1.04189e+06	2.936771E-8	NaN
551	1.000000	0.632576	7.37044e+06	-49539.1	1005.82	-29758.7	0.000000	0.000000	6.633009	-0.098050	NaN	0.000000	0.001594	0.001724	28.0814	0.024448	0.001976	12.3733	102.773	12.9287	-0.112579	0.631170	-0.453918	-0.455324	-0.098050	12.3733	-0.447975	-639470	1.533305E-7	NaN
551	1.000000	0.642549	7.37044e+06	-49539.1	1005.82	-29758.7	0.000000	0.000000	6.642986	-0.025104	NaN	0.000000	0.001593	0.001745	28.0814	0.106860	0.001883	56.7378	-131.046	-163.132	-0.050628	0.641247	-0.443945	-0.445248	-0.025104	56.7378	-0.443613	-555054	4.522729E-8	NaN
551	1.000000	0.652551	7.37044e+06	-49539.1	1005.82	-29758.7	0.000000	0.000000	6.652985	-0.078134	NaN	0.000000	0.001596	0.001753	28.0813	0.107485	0.002020	53.2067	161.323	15.1344	-0.036346	0.651248	-0.433943	-0.435246	-0.078134	53.2067	-0.432842	-391069	1.997971E-7	NaN
551	1.000000	0.662566	7.37044e+06	-49539.1	1005.82	-29758.7	0.000000	0.000000	6.662998	-0.121385	NaN	0.000000	0.001564	0.001681	28.0811	0.048293	0.001975	24.4551	2.841552	-163.36	-0.134429	0.661259	-0.423929	-0.425235	-0.121385	24.4551	-0.420206	-259021	4.686287E-7	NaN
551	1.000000	0.672573	7.37044e+06	-49539.1	1005.82	-29758.7	0.000000	0.000000	6.673010	-0.021447	NaN	0.000000	0.001572	0.001721	28.0816	0.068680	0.002041	33.6522	-113.225	15.6745	-0.028047	0.671238	-0.413921	-0.415256	-0.021447	33.6522	-0.413443	-207655	1.032799E-7	NaN
551	1.000000	0.682576	7.37044e+06	-49539.1	1005.82	-29758.7	0.000000	0.000000	6.683010	-0.084309	NaN	0.000000	0.001558	0.001679	28.0812	0.053495	0.002089	25.6141	-154.243	-165.6	-0.037619	0.681258	-0.403918	-0.405236	-0.084309	25.6141	-0.401449	-140172	6.014722E-7	NaN
551	1.000000	0.692576	7.37044e+06	-49539.1	1005.82	-29758.7	0.000000	0.000000	6.693011	-0.062629	NaN	0.000000	0.001534	0.001719	28.0812	0.086794	0.001924	45.11	127.622	13.7545	-0.023189	0.691233	-0.393918	-0.395261	-0.062629	45.11	-0.392877	-105755	5.922120E-7	NaN
551	1.000000	0.702585	7.37044e+06	-49539.1	1005.82	-29758.7	0.000000	0.000000	6.703020	-0.071807	NaN	0.000000	0.001517	0.001738	28.0825	0.065231	0.002002	32.5787	-73.4515	-161.739	-0.032015	0.701271	-0.383909	-0.385224	-0.071807	32.5787	-0.382256	-74516.6	9.636326E-7	NaN
551	1.000000	0.712584	7.37044e+06	-49539.1	1005.82	-29758.7	0.000000	0.000000	6.713021	-0.013445	NaN	0.000000	0.001516	0.001692	28.0825	0.072512	0.001950	37.1927	42.0358	12.4943	-0.042194	0.711212	-0.373910	-0.375282	-0.013445	37.1927	-0.373639	-56039.7	2.399138E-7	NaN
551	1.000000	0.722570	7.37044e+06	-49539.1	1005.82	-29758.7	0.000000	0.000000	6.723003	-0.114822	NaN	0.000000	0.001503	0.001740	28.0825	0.058565	0.001987	29.476	-10.8859	-164.156	-0.081940	0.721296	-0.363924	-0.365198	-0.114822	29.476	-0.361003	-36841.6	3.116642E-6	NaN
551	1.000000	0.732596	7.37044e+06	-49539.1	1005.82	-29758.7	0.000000	0.000000	6.733030	-0.088698	NaN	0.000000	0.001621	0.001752	28.0823	0.043177	0.001874	23.0419	-65.7605	12.0256	-0.088833	0.731284	-0.353898	-0.355211	-0.088698	23.0419	-0.351011	-26404.2	3.359229E-6	NaN
551	1.000000	0.742616	7.37044e+06	-49539.1	1005.82	-29758.7	0.000000	0.000000	6.743050	-0.077258	NaN	0.000000	0.001650	0.001705	28.0825	0.037462	0.001890	19.8172	9.178324	-161.645	-0.072566	0.741292	-0.343878	-0.345202	-0.077258	19.8172	-0.340954	-18856.4	4.097203E-6	NaN
551	1.000000	0.752577	7.37044e+06	-49539.1	1005.82	-29758.7	0.000000	0.000000	6.753011	-0.061019	NaN	0.000000	0.001637	0.001737	28.0821	0.083806	0.002105	39.8067	128.936	15.3631	-0.028259	0.751263	-0.333918	-0.335231	-0.061019	39.8067	-0.332768	-14320.6	4.260949E-6	NaN
551	1.000000	0.762598	7.37044e+06	-49539.1	1005.82	-29758.7	0.000000	0.000000	6.763034	-0.035335	NaN	0.000000	0.001612	0.001699	28.0822	0.085651	0.001983	43.2026	6.244556	-163.229	-0.072817	0.761326	-0.323896	-0.325168	-0.035335	43.2026	-0.323283	-10397.3	3.398448E-6	NaN
551	1.000000	0.772613	7.37044e+06	-49539.1	1005.82	-29758.7	0.000000	0.000000	6.773048	-0.054814	NaN	0.000000	0.001637	0.001729	28.082	0.071400	0.001907	37.4316	151.626	16.5426	-0.002327	0.771207	-0.313881	-0.315287	-0.054814	37.4316	-0.312783	-7281.32	7.528019E-6	NaN
551	1.000000	0.782606	7.37044e+06	-49539.1	1005.82	-29758.7	0.000000	0.000000	6.783039	-0.089856	NaN	0.000000	0.001630	0.001693	28.0827	0.082385	0.001894	43.4972	-89.51	-163.369	-0.100264	0.781342	-0.303889	-0.305152	-0.089856	43.4972	-0.302339	-5098.42	1.762432E-5	NaN
551	1.000000	0.792610	7.37044e+06	-49539.1	1005.82	-29758.7	0.000000	0.000000	6.793046	-0.034111	NaN	0.000000	0.001667	0.001708	28.0821	0.094770	0.002121	44.6827	129.459	15.9287	-0.069037	0.791246	-0.293884	-0.295248	-0.034111	44.6827	-0.293311	-3739.89	9.120839E-6	NaN
551	1.000000	0.802610	7.37044e+06	-49539.1	1005.82	-29758.7	0.000000	0.000000	6.803044	-0.081497	NaN	0.000000	0.001661	0.001696	28.0824	0.110835	0.001989	55.7281	-52.0765	-161.338	-0.111850	0.801322	-0.283884	-0.285172	-0.081497	55.7281	-0.282787	-2600.01	3.134483E-5	NaN
551	1.000000	0.812621	7.37044e+06	-49539.1	1005.82	-29758.7	0.000000	0.000000	6.813054	-0.100395	NaN	0.000000	0.001631	0.001702	28.0821	0.084530	0.001952	43.2982	113.005	12.0854	-0.014118	0.811272	-0.273874	-0.275222	-0.100395	43.2982	-0.272135	-1794.59	5.594308E-5	NaN
551	1.000000	0.822637	7.37044e+06	-49539.1	1005.82	-29758.7	0.000000	0.000000	6.823071	-0.081292	NaN	0.000000	0.001577	0.001718	28.0827	0.029995	0.002066	14.5181	-166.849	-165.983	-0.050728	0.821301	-0.263857	-0.265194	-0.081292	14.5181	-0.259658	-1157.91	7.020581E-5	NaN
551	1.000000	0.832650	7.37044e+06	-49539.1	1005.82	-29758.7	0.000000	0.000000	6.833083	-0.101639	NaN	0.000000	0.001581	0.001686	28.0809	0.029249	0.001829	15.9886	-119.313	17.8931	-0.124922	0.831246	-0.253844	-0.255248	-0.101639	15.9886	-0.249076	-795.562	0.000128	NaN
551	1.000000	0.842674	7.37044e+06	-49539.1	1005.82	-29758.7	0.000000	0.000000	6.843107	-0.094945	NaN	0.000000	0.001556	0.001709	28.081	0.135424	0.002160	62.6917	-75.0191	-164.901	-0.042640	0.841340	-0.243821	-0.245154	-0.094945	62.6917	-0.242685	-633.04	0.000150	NaN
551	1.000000	0.852654	7.37044e+06	-49539.1	1005.82	-29758.7	0.000000	0.000000	6.853088	-0.080442	NaN	0.000000	0.001576	0.001694	28.0808	0.102346	0.002027	50.4805	150.608	13.5031	-0.126206	0.851285	-0.233840	-0.235209	-0.080442	50.4805	-0.232645	-440.781	0.000182	NaN
551	1.000000	0.862641	7.37044e+06	-49539.1	1005.82	-29758.7	0.000000	0.000000	6.863074	-0.104931	NaN	0.000000	0.001557	0.001692	28.0812	0.105303	0.002024	52.0227	175.352	-164.008	-0.119283	0.861345	-0.223853	-0.225149	-0.104931	52.0227	-0.222340	-302.705	0.000347	NaN
551	1.000000	0.872663	7.37044e+06	-49539.1	1005.82	-29758.7	0.000000	0.000000	6.873101	0.006196	NaN	0.000000	0.001656	0.001743	28.0827	0.059366	0.001906	31.1489	-12.4885	15.9612	-0.088246	0.871312	-0.213831	-0.215182	0.006196	31.1489	-0.213980	-222.385	-2.786287E-5	NaN
551	1.000000	0.882663	7.37044e+06	-49539.1	1005.82	-29758.7	0.000000	0.000000	6.883100	-0.018906	NaN	0.000000	0.001650	0.001784	28.0846	0.012349	0.002097	5.887712	132.284	-167.286	-0.012311	0.881365	-0.203831	-0.205130	-0.018906	5.887712	-0.201423	-139.013	0.000136	NaN
551	1.000000	0.892654	7.37044e+06	-49539.1	1005.82	-29758.7	0.000000	0.000000	6.893086	-0.110910	NaN	0.000000	0.001644	0.001765	28.0817	0.077966	0.002035	38.3194	35.5416	13.3893	-0.139570	0.891311	-0.193841	-0.195183	-0.110910	38.3194	-0.191670	-95.9146	0.001156	NaN
551	1.000000	0.902666	7.37044e+06	-49539.1	1005.82	-29758.7	0.000000	0.000000	6.903100	-0.101375	NaN	0.000000	0.001585	0.001776	28.0814	0.059348	0.002051	28.9295	-34.5584	-166.125	-0.033245	0.901338	-0.183828	-0.185156	-0.101375	28.9295	-0.181200	-63.9521	0.001585	NaN
551	1.000000	0.912685	7.37044e+06	-49539.1	1005.82	-29758.7	0.000000	0.000000	6.913120	-0.054207	NaN	0.000000	0.001617	0.001770	28.0811	0.135666	0.002220	61.1118	-104.647	13.3473	-0.092117	0.911281	-0.173809	-0.175213	-0.054207	61.1118	-0.173144	-46.5618	0.001164	NaN
551	1.000000	0.922672	7.37044e+06	-49539.1	1005.82	-29758.7	0.000000	0.000000	6.923109	-0.019655	NaN	0.000000	0.001609	0.001717	28.0811	0.041530	0.001953	21.2645	154.493	-163.415	-0.074707	0.921388	-0.163822	-0.165106	-0.019655	21.2645	-0.163129	-31.1441	0.000631	NaN
551	1.000000	0.932690	7.37044e+06	-49539.1	1005.82	-29758.7	0.000000	0.000000	6.933125	-0.049006	NaN	0.000000	0.001625	0.001761	28.0812	0.008911	0.001901	4.688643	104.827	17.5692	-0.054762	0.931375	-0.153804	-0.155119	-0.049006	4.688643	-0.145965	-15.2756	0.003208	NaN
551	1.000000	0.942676	7.37044e+06	-49539.1	1005.82	-29758.7	0.000000	0.000000	6.943110	-0.066085	NaN	0.000000	0.001569	0.001776	28.0813	0.099729	0.002021	49.3386	-46.6644	-167.525	-0.060658	0.941409	-0.143819	-0.145085	-0.066085	49.3386	-0.142814	-13.3536	0.004949	NaN
551	1.000000	0.952639	7.37044e+06	-49539.1	1005.82	-29758.7	0.000000	0.000000	6.953074	-0.063200	NaN	0.000000	0.001610	0.001748	28.0813	0.111298	0.001886	59.0128	132.416	13.0083	-0.062838	0.951338	-0.133855	-0.135156	-0.063200	59.0128	-0.133052	-8.729171	0.007240	NaN
551	1.000000	0.962684	7.37044e+06	-49539.1	1005.82	-29758.7	0.000000	0.000000	6.963119	-0.075885	NaN	0.000000	0.001613	0.001765	28.0813	0.112001	0.002148	52.13	-157.313	-161.574	-0.086011	0.961404	-0.123810	-0.125091	-0.075885	52.13	-0.122718	-5.478224	0.013852	NaN
551	1.000000	0.972683	7.37044e+06	-49539.1	1005.82	-29758.7	0.000000	0.000000	6.973116	-0.105815	NaN	0.000000	0.001678	0.001776	28.0826	0.020876	0.001998	10.446	43.5163	18.6494	-0.024464	0.971278	-0.113811	-0.115216	-0.105815	10.446	-0.106214	-2.496396	0.042387	NaN
551	1.000000	0.982680	7.37044e+06	-49539.1	1005.82	-29758.7	0.000000	0.000000	6.983117	-0.004793	NaN	0.000000	0.001658	0.001743	28.0827	0.052214	0.001970	26.505	170.796	-167.955	0.035338	0.981391	-0.103814	-0.105103	-0.004793	26.505	-0.103679	-2.200595	0.002178	NaN
551	1.000000	0.992709	7.37044e+06	-49539.1	1005.82	-29758.7	0.000000	0.000000	6.993144	-0.074328	NaN	0.000000	0.001675	0.001739	28.0827	0.102056	0.002045	49.9093	169.231	13.3234	-0.102485	0.991368	-0.093785	-0.095127	-0.074328	49.9093	-0.092668	-1.247158	0.059598	NaN
551	1.000000	1.002712	7.37044e+06	-49539.1	1005.82	-29758.7	0.000000	0.000000	7.003144	-0.121774	NaN	0.000000	0.001581	0.001758	28.0826	0.130438	0.001877	69.4982	-44.3068	-164.22	-0.042270	1.001465	-0.083782	-0.085029	-0.121774	69.4982	-0.082468	-0.712690	0.170866	NaN
551	1.000000	1.012727	7.37044e+06	-49539.1	1005.82	-29758.7	0.000000	0.000000	7.013162	-0.037324	NaN	0.000000	0.001603	0.001766	28.0828	0.092222	0.001957	47.1267	-56.9965	14.822	-0.016934	1.011343	-0.073768	-0.075152	-0.037324	47.1267	-0.073174	-0.413972	0.090160	NaN
551	1.000000	1.022737	7.37044e+06	-49539.1	1005.82	-29758.7	0.000000	0.000000	7.023174	-0.004099	NaN	0.000000	0.001601	0.001739	28.0826	0.092431	0.001962	47.1109	60.6584	-165.214	-0.037146	1.021340	-0.063758	-0.065154	-0.004099	47.1109	-0.063692	-0.229160	0.017888	NaN
551	1.000000	1.032735	7.37044e+06	-49539.1	1005.82	-29758.7	0.000000	0.000000	7.033170	-0.057343	NaN	0.000000	0.001610	0.001736	28.0827	0.081999	0.002023	40.5327	105.458	12.8132	0.039294	1.031312	-0.053759	-0.055183	-0.057343	40.5327	-0.052698	-0.110000	0.521296	NaN
551	1.000000	1.042699	7.37044e+06	-49539.1	1005.82	-29758.7	0.000000	0.000000	7.043137	0.004587	NaN	0.000000	0.001587	0.001734	28.0826	0.103226	0.001977	52.2062	33.9114	-164.426	0.003947	1.041388	-0.043795	-0.045106	0.004587	52.2062	-0.043861	-0.059314	-0.077329	NaN
551	1.000000	1.052728	7.37044e+06	-49539.1	1005.82	-29758.7	0.000000	0.000000	7.053160	-0.133046	NaN	0.000000	0.001599	0.001769	28.0831	0.098424	0.002001	49.1815	-36.9619	13.5246	-0.119207	1.051347	-0.033766	-0.035147	-0.133046	49.1815	-0.031737	-0.025757	5.165340	NaN
551	1.000000	1.062728	7.37044e+06	-49539.1	1005.82	-29758.7	0.000000	0.000000	7.063160	-0.114695	NaN	0.000000	0.001619	0.001788	28.0832	0.036712	0.002064	17.7844	-27.7328	-166.797	-0.118844	1.061414	-0.023767	-0.025080	-0.114695	17.7844	-0.018930	-0.011795	9.723756	NaN
551	1.000000	1.072719	7.37044e+06	-49539.1	1005.82	-29758.7	0.000000	0.000000	7.073155	-0.038294	NaN	0.000000	0.001659	0.001743	28.083	0.048378	0.001958	24.7038	78.0147	15.0584	-0.026185	1.071372	-0.013775	-0.015122	-0.038294	24.7038	-0.012613	-0.007879	4.859934	NaN
551	1.000000	1.082687	7.37044e+06	-49539.1	1005.82	-29758.7	0.000000	0.000000	7.083159	0.836409	NaN	0.000000	0.001662	0.001741	28.0826	1.277826	0.001992	641.623	10.5619	-166.574	0.209412	1.081469	-0.003807	-0.005025	0.836409	641.623	-0.004785	-0.003281	-254.919	NaN
551	2.000000	1.091788	7.37044e+06	-49539.1	1005.82	-29758.7	0.000000	0.000000	7.092564	8.247514	NaN	0.000000	0.001657	0.001753	28.0831	9.002667	0.001637	5500.82	6.514388	10.6206	7.534694	1.091241	0.005293	0.004747	8.247514	5500.82	0.004169	0.003387	2434.73	86350.4
551	2.000000	1.094332	7.37044e+06	-49539.1	1005.82	-29758.7	0.000000	0.000000	7.095289	12.6517	NaN	0.000000	0.001671	0.001727	28.0824	11.4469	0.001511	7575.89	5.614492	-174.852	12.2652	1.094022	0.007837	0.007527	12.6517	7575.89	0.006585	0.005627	2248.48	92273.5
551	2.000000	1.096751	7.37044e+06	-49539.1	1005.82	-29758.7	0.000000	0.000000	7.097771	14.1581	NaN	0.000000	0.001697	0.001738	28.0816	14.4588	0.001727	8374.33	6.614146	5.476818	12.58	1.096406	0.010257	0.009912	14.1581	8374.33	0.008989	0.008080	1752.33	85119.3
551	2.000000	1.099287	7.37044e+06	-49539.1	1005.82	-29758.7	0.000000	0.000000	7.100451	17.6925	NaN	0.000000	0.001663	0.001729	28.0813	17.2182	0.001819	9464.31	9.810575	-176.477	17.5331	1.098974	0.012792	0.012480	17.6925	9464.31	0.011390	0.010768	1643.07	83329
551	2.000000	1.101768	7.37044e+06	-49539.1	1005.82	-29758.7	0.000000	0.000000	7.103212	24.4944	NaN	0.000000	0.001635	0.001712	28.0819	20.5339	0.001919	10697.5	9.171729	1.444948	22.332	1.101394	0.015273	0.014900	24.4944	10697.5	0.013556	0.013408	1826.85	84406.4
551	2.000000	1.104263	7.37044e+06	-49539.1	1005.82	-29758.7	0.000000	0.000000	7.105929	29.8692	NaN	0.000000	0.001623	0.001726	28.0813	22.6419	0.001916	11816.9	7.384868	-176.857	28.6807	1.103903	0.017769	0.017409	29.8692	11816.9	0.015873	0.016468	1813.8	84131.8
551	2.000000	1.106683	7.37044e+06	-49539.1	1005.82	-29758.7	0.000000	0.000000	7.108592	35.8004	NaN	0.000000	0.001621	0.001719	28.0815	25.7122	0.001791	14356	5.539088	2.527584	31.8547	1.106366	0.020188	0.019871	35.8004	14356	0.018318	0.019968	1792.9	92820
551	2.000000	1.109176	7.37044e+06	-49539.1	1005.82	-29758.7	0.000000	0.000000	7.111387	43.1297	NaN	0.000000	0.001613	0.001738	28.0815	28.879	0.001829	15786.5	9.944912	177.512	41.0049	1.108886	0.022682	0.022391	43.1297	15786.5	0.020633	0.023547	1831.66	93992.7
551	2.000000	1.111749	7.37044e+06	-49539.1	1005.82	-29758.7	0.000000	0.000000	7.114162	48.0336	NaN	0.000000	0.001608	0.001692	28.0813	30.0824	0.001786	16840.1	7.853786	0.776862	46.6494	1.111284	0.025255	0.024790	48.0336	16840.1	0.023116	0.027677	1735.51	92482.4
551	2.000000	1.114233	7.37044e+06	-49539.1	1005.82	-29758.7	0.000000	0.000000	7.117086	58.7485	NaN	0.000000	0.001589	0.001687	28.0814	32.615	0.001816	17960.5	4.658587	-177.851	57.759	1.113871	0.027739	0.027377	58.7485	17960.5	0.025286	0.031538	1862.79	92400.5
551	2.000000	1.116678	7.37044e+06	-49539.1	1005.82	-29758.7	0.000000	0.000000	7.119872	67.0544	NaN	0.000000	0.001592	0.001703	28.0813	36.1254	0.001735	20820.5	1.762117	2.982147	63.7576	1.116325	0.030184	0.029831	67.0544	20820.5	0.027768	0.036245	1850.04	99917.4
551	2.000000	1.119231	7.37044e+06	-49539.1	1005.82	-29758.7	0.000000	0.000000	7.122640	72.2782	NaN	0.000000	0.001574	0.001692	28.0816	39.7757	0.001806	22020.4	5.990825	177.278	69.5666	1.118952	0.032737	0.032457	72.2782	22020.4	0.030275	0.041316	1749.41	98978.2
551	2.000000	1.121706	7.37044e+06	-49539.1	1005.82	-29758.7	0.000000	0.000000	7.125462	80.7095	NaN	0.000000	0.001607	0.001697	28.0814	41.1105	0.001782	23072.3	4.930748	-0.879000	78.1981	1.121315	0.035212	0.034821	80.7095	23072.3	0.032588	0.046279	1743.97	97987.4
551	2.000000	1.124149	7.37044e+06	-49539.1	1005.82	-29758.7	0.000000	0.000000	7.128442	93.7668	NaN	0.000000	0.001563	0.001702	28.0819	42.9847	0.001640	26203.5	4.673480	177.376	90.8783	1.123805	0.037654	0.037311	93.7668	26203.5	0.034971	0.051677	1814.46	105313
551	2.000000	1.126712	7.37044e+06	-49539.1	1005.82	-29758.7	0.000000	0.000000	7.131241	99.5112	NaN	0.000000	0.001575	0.001700	28.0816	47.0075	0.001815	25896.4	6.667287	-4.181003	98.7367	1.126362	0.040218	0.039867	99.5112	25896.4	0.037336	0.057325	1735.91	98819
551	2.000000	1.129179	7.37044e+06	-49539.1	1005.82	-29758.7	0.000000	0.000000	7.134118	109.465	NaN	0.000000	0.001558	0.001669	28.0829	49.5826	0.001818	27279.2	4.266203	177.286	106.76	1.128887	0.042685	0.042392	109.465	27279.2	0.039676	0.063193	1732.23	99145
551	2.000000	1.131757	7.37044e+06	-49539.1	1005.82	-29758.7	0.000000	0.000000	7.137049	118.059	NaN	0.000000	0.001603	0.001670	28.0826	51.7698	0.001862	27798.6	7.911995	-5.356045	119.262	1.131373	0.045263	0.044879	118.059	27798.6	0.042077	0.069507	1698.52	96334.2
551	2.000000	1.134136	7.37044e+06	-49539.1	1005.82	-29758.7	0.000000	0.000000	7.139992	131.781	NaN	0.000000	0.001587	0.001695	28.0825	53.9706	0.001821	29630.7	6.978695	174.209	128.833	1.133860	0.047641	0.047366	131.781	29630.7	0.044306	0.075629	1742.47	98439.9
551	2.000000	1.136644	7.37044e+06	-49539.1	1005.82	-29758.7	0.000000	0.000000	7.142898	141.448	NaN	0.000000	0.001571	0.001730	28.083	56.95	0.001770	32171.4	5.872554	-4.215183	139.065	1.136208	0.050150	0.049714	141.448	32171.4	0.046852	0.082932	1705.58	102066
551	2.000000	1.139228	7.37044e+06	-49539.1	1005.82	-29758.7	0.000000	0.000000	7.146026	154.673	NaN	0.000000	0.001594	0.001719	28.0826	58.6217	0.001761	33295.5	3.702458	176.675	155.857	1.138923	0.052734	0.052429	154.673	33295.5	0.049250	0.090109	1716.51	101339
551	2.000000	1.141637	7.37044e+06	-49539.1	1005.82	-29758.7	0.000000	0.000000	7.149062	169.937	NaN	0.000000	0.001582	0.001697	28.0827	61.2503	0.001829	33482.4	5.636988	-4.551681	164.158	1.141268	0.055143	0.054774	169.937	33482.4	0.051337	0.096589	1759.39	98429.7
551	2.000000	1.144232	7.37044e+06	-49539.1	1005.82	-29758.7	0.000000	0.000000	7.151949	177.056	NaN	0.000000	0.001584	0.001680	28.0825	63.6489	0.001678	37920.2	5.113587	173.723	177.301	1.144021	0.057737	0.057527	177.056	37920.2	0.054236	0.105953	1671.08	106436
551	2.000000	1.146724	7.37044e+06	-49539.1	1005.82	-29758.7	0.000000	0.000000	7.155104	193.168	NaN	0.000000	0.001597	0.001689	28.0826	65.9771	0.001854	35583	4.629024	-4.545211	194.122	1.146284	0.060230	0.059790	193.168	35583	0.056158	0.112393	1718.68	96971.8
551	2.000000	1.149178	7.37044e+06	-49539.1	1005.82	-29758.7	0.000000	0.000000	7.158274	210.581	NaN	0.000000	0.001536	0.001723	28.0824	67.5925	0.001740	38855	2.062411	176.672	209.879	1.148894	0.062684	0.062399	210.581	38855	0.058619	0.120903	1741.74	102094
551	2.000000	1.151749	7.37044e+06	-49539.1	1005.82	-29758.7	0.000000	0.000000	7.161407	224.236	NaN	0.000000	0.001618	0.001685	28.0825	69.7955	0.001672	41749.4	8.332015	-8.980780	226.188	1.151193	0.065255	0.064698	224.236	41749.4	0.061227	0.130244	1721.66	105693
551	2.000000	1.154093	7.37044e+06	-49539.1	1005.82	-29758.7	0.000000	0.000000	7.164129	233.438	NaN	0.000000	0.001591	0.001733	28.0825	71.7728	0.001747	41092.4	3.173740	174.788	228.064	1.153819	0.067599	0.067324	233.438	41092.4	0.063338	0.138049	1690.98	101046
551	2.000000	1.156663	7.37044e+06	-49539.1	1005.82	-29758.7	0.000000	0.000000	7.167433	251.275	NaN	0.000000	0.001577	0.001746	28.0827	75.024	0.001829	41018.7	3.462384	-5.061365	248.994	1.156388	0.070169	0.069894	251.275	41018.7	0.065575	0.146553	1714.56	97894.3
551	2.000000	1.159251	7.37044e+06	-49539.1	1005.82	-29758.7	0.000000	0.000000	7.170624	265.953	NaN	0.000000	0.001571	0.001712	28.0826	76.6182	0.001702	45003.7	0.362131	177.832	267.626	1.158882	0.072756	0.072388	265.953	45003.7	0.068324	0.157338	1690.33	103659
551	2.000000	1.161658	7.37044e+06	-49539.1	1005.82	-29758.7	0.000000	0.000000	7.173914	287.428	NaN	0.000000	0.001581	0.001726	28.0824	79.2503	0.001695	46745.6	3.729287	-5.958629	283.723	1.161294	0.075164	0.074800	287.428	46745.6	0.070552	0.166343	1727.93	104716
551	2.000000	1.164153	7.37044e+06	-49539.1	1005.82	-29758.7	0.000000	0.000000	7.177013	302.134	NaN	0.000000	0.001556	0.001740	28.0815	81.4437	0.001728	47142.9	1.518870	176.442	301.078	1.163914	0.077658	0.077420	302.134	47142.9	0.072852	0.175882	1717.83	102702
551	2.000000	1.166562	7.37044e+06	-49539.1	1005.82	-29758.7	0.000000	0.000000	7.180186	320.705	NaN	0.000000	0.001599	0.001713	28.0814	83.9196	0.001769	47427.6	3.570203	-5.820983	315.039	1.166361	0.080068	0.079867	320.705	47427.6	0.074996	0.185004	1733.5	100743
551	2.000000	1.169161	7.37044e+06	-49539.1	1005.82	-29758.7	0.000000	0.000000	7.183260	332.258	NaN	0.000000	0.001581	0.001715	28.0816	87.6213	0.001807	48500.2	3.579310	173.807	331.432	1.169023	0.082666	0.082529	332.258	48500.2	0.077528	0.196054	1694.73	100076
551	2.000000	1.171614	7.37044e+06	-49539.1	1005.82	-29758.7	0.000000	0.000000	7.186897	361.028	NaN	0.000000	0.001601	0.001741	28.0811	88.4762	0.001705	51880.7	6.984406	-8.643679	356.221	1.171316	0.085120	0.084822	361.028	51880.7	0.079901	0.206680	1746.8	104263
551	2.000000	1.174138	7.37045e+06	-49539.1	1005.82	-29758.7	0.000000	0.000000	7.190216	380.379	NaN	0.000000	0.001574	0.001712	28.0816	90.9853	0.001743	52192.2	7.310098	170.884	377.871	1.173608	0.087644	0.087114	380.379	52192.2	0.082178	0.217123	1751.9	102335
551	2.000000	1.176589	7.37045e+06	-49539.1	1005.82	-29758.7	0.000000	0.000000	7.193566	402.233	NaN	0.000000	0.001579	0.001676	28.0813	93.8333	0.001719	54575.8	5.622391	-8.598434	397.836	1.176303	0.090095	0.089809	402.233	54575.8	0.084567	0.228341	1761.55	104347
551	2.000000	1.179099	7.37045e+06	-49539.1	1005.82	-29758.7	0.000000	0.000000	7.196968	423.939	NaN	0.000000	0.001599	0.001736	28.0813	97.1842	0.001795	54148.5	4.210033	172.864	418.76	1.178816	0.092605	0.092322	423.939	54148.5	0.086733	0.238736	1775.76	101251
551	2.000000	1.181475	7.37045e+06	-49539.1	1005.82	-29758.7	0.000000	0.000000	7.199969	439.143	NaN	0.000000	0.001596	0.001754	28.0813	97.9924	0.001738	56394.4	4.785598	-7.336459	426.351	1.181100	0.094980	0.094606	439.143	56394.4	0.089140	0.250547	1752.74	102935
551	2.000000	1.184153	7.37045e+06	-49539.1	1005.82	-29758.7	0.000000	0.000000	7.203487	459.575	NaN	0.000000	0.001670	0.001733	28.0814	101.212	0.001712	59124.5	9.823892	167.286	458.394	1.183725	0.097659	0.097231	459.575	59124.5	0.091829	0.264051	1740.48	105123
551	2.000000	1.186585	7.37045e+06	-49539.1	1005.82	-29758.7	0.000000	0.000000	7.206506	473.835	NaN	0.000000	0.001648	0.001728	28.0813	103.807	0.001799	57715	4.328613	-6.947118	468.355	1.186307	0.100091	0.099813	473.835	57715	0.093934	0.274854	1723.95	100580
551	2.000000	1.189184	7.37045e+06	-49539.1	1005.82	-29758.7	0.000000	0.000000	7.209886	492.845	NaN	0.000000	0.001655	0.001724	28.0813	106.649	0.001753	60825.9	2.335451	173.928	492.663	1.188924	0.102689	0.102430	492.845	60825.9	0.096612	0.288895	1705.97	103393
551	2.000000	1.190064	7.37045e+06	-49539.1	1005.82	-29758.7	0.000000	0.000000	7.211321	506.341	NaN	0.000000	0.001632	0.001724	28.0813	107.82	0.001906	56582.2	4.448676	172.584	502.409	1.189682	0.103569	0.103188	506.341	56582.2	0.096858	0.290198	1744.81	95963.5