File: remote_trans/data/nanoindenter/0828-1/data/Data_2025-08-06,11h17m57s/2025-07-22_16-23-58_1_120.txt
2025-07-22, 16:23:58, 1
Index	Phase	Displacement	Time	Pos X	Pos Y	Pos Z	Rot A	Rot B	Piezo Z	Force A	Force B	Gripper	Voltage A	Voltage B	Temperature	Amplitude force	Amplitude pos	Stiffness	Phase shift	Phase excitation	Force A raw	Displacement raw	HMax	HMax raw	Real Force	Real Stiffness	Contact Depth	Area	Hardness	Reduced Mod.
[#]	[#]	[um]	[s]	[um]	[um]	[um]	[m°]	[m°]	[um]	[uN]	[uN]	[V]	[V]	[V]	[°C]	[uN]	[um]	[N/m]	[°]	[°]	[uN]	[um]	[um]	[um]	[uN]	[N/m]	[um]	[um^2]	[MPa]	[MPa]
120	1.000000	0.002895	7.36621e+06	-44639.1	955.818	-29775.6	0.000000	0.000000	6.002818	-0.043313	NaN	0.000000	0.001622	0.001702	28.117	0.052043	0.000911	57.1579	86.437	-162.236	-0.014688	0.001589	-1.148855	-1.150160	-0.043313	57.1579	-1.148286	-2.227634E+15	1.944345E-17	NaN
120	1.000000	0.012943	7.36621e+06	-44639.1	955.819	-29775.6	0.000000	0.000000	6.012867	-0.013040	NaN	0.000000	0.001641	0.001694	28.0822	0.059413	0.001145	51.8786	80.6922	18.0219	-0.047847	0.011519	-1.138807	-1.140231	-0.013040	51.8786	-1.138618	-1.652752E+15	7.889986E-18	NaN
120	1.000000	0.022852	7.36621e+06	-44639.1	955.818	-29775.6	0.000000	0.000000	6.022776	-0.003297	NaN	0.000000	0.001644	0.001733	28.0852	0.063553	0.001769	35.9302	-125.674	-163.18	-0.040810	0.021497	-1.128898	-1.130253	-0.003297	35.9302	-1.128829	-1.221552E+15	2.698670E-18	NaN
120	1.000000	0.032815	7.36621e+06	-44639.1	955.818	-29775.6	0.000000	0.000000	6.032739	-0.007643	NaN	0.000000	0.001638	0.001698	28.1226	0.033455	0.001825	18.331	-166.085	16.6319	-0.045535	0.031536	-1.118934	-1.120213	-0.007643	18.331	-1.118621	-8.912013E+14	8.576280E-18	NaN
120	1.000000	0.042866	7.36621e+06	-44639.1	955.819	-29775.6	0.000000	0.000000	6.042790	-0.005963	NaN	0.000000	0.001593	0.001725	28.116	0.099176	0.001974	50.2479	44.9271	-163.809	0.037669	0.041563	-1.108884	-1.110186	-0.005963	50.2479	-1.108795	-6.578332E+14	9.064116E-18	NaN
120	1.000000	0.052832	7.36621e+06	-44639.1	955.818	-29775.6	0.000000	0.000000	6.052755	-0.024120	NaN	0.000000	0.001640	0.001691	28.0819	0.083660	0.002130	39.2739	-145.839	15.6033	-0.056043	0.051467	-1.098917	-1.100282	-0.024120	39.2739	-1.098457	-4.779173E+14	5.046927E-17	NaN
120	1.000000	0.062830	7.36621e+06	-44639.1	955.818	-29775.6	0.000000	0.000000	6.062753	-0.009492	NaN	0.000000	0.001635	0.001700	28.0846	0.043669	0.001881	23.2156	60.575	-166.866	-0.069337	0.061500	-1.088920	-1.090249	-0.009492	23.2156	-1.088613	-3.525273E+14	2.692446E-17	NaN
120	1.000000	0.072820	7.36621e+06	-44639.1	955.818	-29775.6	0.000000	0.000000	6.072747	0.059654	NaN	0.000000	0.001666	0.001717	28.1227	0.033426	0.002021	16.5363	173.221	17.7891	0.054786	0.071510	-1.078929	-1.080239	0.059654	16.5363	-1.081635	-2.841022E+14	-2.099752E-16	NaN
120	1.000000	0.082858	7.36621e+06	-44639.1	955.818	-29775.6	0.000000	0.000000	6.082781	-0.014885	NaN	0.000000	0.001616	0.001729	28.1183	0.057765	0.001998	28.9064	127.051	-167.033	0.106008	0.081559	-1.068892	-1.070191	-0.014885	28.9064	-1.068506	-1.892836E+14	7.863607E-17	NaN
120	1.000000	0.092858	7.36621e+06	-44639.1	955.818	-29775.6	0.000000	0.000000	6.092779	-0.082291	NaN	0.000000	0.001651	0.001673	28.0843	0.094711	0.002059	46.0011	-151.506	14.6852	0.005833	0.091447	-1.058892	-1.060302	-0.082291	46.0011	-1.057550	-1.348646E+14	6.101776E-16	NaN
120	1.000000	0.102833	7.36621e+06	-44639.1	955.818	-29775.6	0.000000	0.000000	6.102756	-0.027910	NaN	0.000000	0.001598	0.001701	28.0864	0.015541	0.002052	7.574182	-54.8925	-167.886	0.032458	0.101535	-1.048916	-1.050214	-0.027910	7.574182	-1.046153	-9.477496E+13	2.944912E-16	NaN
120	1.000000	0.112854	7.36621e+06	-44639.1	955.818	-29775.6	0.000000	0.000000	6.112778	-0.001628	NaN	0.000000	0.001614	0.001734	28.1235	0.053222	0.001961	27.1372	-172.195	15.4946	-0.065223	0.111484	-1.038896	-1.040266	-0.001628	27.1372	-1.038851	-7.559808E+13	2.152883E-17	NaN
120	1.000000	0.122843	7.36621e+06	-44639.1	955.818	-29775.6	0.000000	0.000000	6.122768	0.022931	NaN	0.000000	0.001608	0.001664	28.1176	0.048327	0.002016	23.9722	-85.845	-165.324	-0.030299	0.121553	-1.028907	-1.030197	0.022931	23.9722	-1.029624	-5.680979E+13	-4.036478E-16	NaN
120	1.000000	0.132836	7.36621e+06	-44639.1	955.818	-29775.6	0.000000	0.000000	6.132758	-0.057352	NaN	0.000000	0.001620	0.001704	28.0823	0.057630	0.002052	28.0804	71.8285	12.0762	-0.062027	0.131498	-1.018914	-1.020252	-0.057352	28.0804	-1.017382	-3.887973E+13	1.475123E-15	NaN
120	1.000000	0.142848	7.36621e+06	-44639.1	955.818	-29775.6	0.000000	0.000000	6.142772	-0.028605	NaN	0.000000	0.001633	0.001716	28.0849	0.128364	0.001837	69.8696	-172.918	-165.236	-0.029516	0.141522	-1.008901	-1.010227	-0.028605	69.8696	-1.008594	-2.961147E+13	9.660170E-16	NaN
120	1.000000	0.152878	7.36621e+06	-44639.1	955.818	-29775.6	0.000000	0.000000	6.152801	-0.033593	NaN	0.000000	0.001606	0.001679	28.1222	0.093170	0.002015	46.2345	129.201	11.8735	-0.023802	0.151493	-0.998871	-1.000256	-0.033593	46.2345	-0.998326	-2.153933E+13	1.559601E-15	NaN
120	1.000000	0.162875	7.36621e+06	-44639.1	955.818	-29775.6	0.000000	0.000000	6.162801	0.048268	NaN	0.000000	0.001587	0.001694	28.1186	0.039627	0.002030	19.5182	-142.754	-163.711	-0.015202	0.161516	-0.988874	-0.990234	0.048268	19.5182	-0.990729	-1.701892E+13	-2.836108E-15	NaN
120	1.000000	0.172907	7.36621e+06	-44639.1	955.818	-29775.6	0.000000	0.000000	6.172832	0.000809	NaN	0.000000	0.001636	0.001723	28.0845	0.023679	0.002070	11.4396	-177.276	16.2439	-0.079579	0.171517	-0.978842	-0.980233	0.000809	11.4396	-0.978895	-1.179041E+13	-6.858380E-17	NaN
120	1.000000	0.182881	7.36621e+06	-44639.1	955.819	-29775.6	0.000000	0.000000	6.182806	0.018234	NaN	0.000000	0.001591	0.001712	28.0854	0.090012	0.002040	44.1303	26.2883	-167.342	0.008452	0.181599	-0.968869	-0.970150	0.018234	44.1303	-0.969179	-8.721606E+12	-2.090685E-15	NaN
120	1.000000	0.192881	7.36621e+06	-44639.1	955.818	-29775.6	0.000000	0.000000	6.192808	0.052436	NaN	0.000000	0.001629	0.001682	28.1222	0.087349	0.002115	41.3033	-150.549	14.4766	0.060714	0.191535	-0.958868	-0.960215	0.052436	41.3033	-0.959820	-6.523004E+12	-8.038592E-15	NaN
120	1.000000	0.202924	7.36621e+06	-44639.1	955.818	-29775.6	0.000000	0.000000	6.202849	-0.001935	NaN	0.000000	0.001609	0.001696	28.1169	0.021684	0.001946	11.1451	173.778	-162.462	0.041189	0.201528	-0.948825	-0.950221	-0.001935	11.1451	-0.948695	-4.617715E+12	4.189713E-16	NaN
120	1.000000	0.212893	7.36621e+06	-44639.1	955.818	-29775.6	0.000000	0.000000	6.212817	0.000111	NaN	0.000000	0.001624	0.001705	28.0805	0.090290	0.002077	43.4638	63.1095	12.6944	0.007635	0.211529	-0.938856	-0.940220	0.000111	43.4638	-0.938858	-3.401999E+12	-3.264905E-17	NaN
120	1.000000	0.222869	7.36621e+06	-44639.1	955.818	-29775.6	0.000000	0.000000	6.222792	-0.019512	NaN	0.000000	0.001620	0.001704	28.0835	0.068854	0.002016	34.1549	-6.617279	-167.207	-0.037664	0.221610	-0.928881	-0.930139	-0.019512	34.1549	-0.928452	-2.462111E+12	7.924808E-15	NaN
120	1.000000	0.232900	7.36621e+06	-44639.1	955.819	-29775.6	0.000000	0.000000	6.232824	0.001931	NaN	0.000000	0.001615	0.001698	28.121	0.030051	0.002066	14.5461	-85.6794	18.0711	-0.012624	0.231544	-0.918850	-0.920206	0.001931	14.5461	-0.918949	-1.832398E+12	-1.054053E-15	NaN
120	1.000000	0.242876	7.36621e+06	-44639.1	955.818	-29775.6	0.000000	0.000000	6.242800	-0.020444	NaN	0.000000	0.001603	0.001681	28.1179	0.029465	0.002148	13.719	65.6263	-162.36	-0.047204	0.241611	-0.908873	-0.910139	-0.020444	13.719	-0.907756	-1.293738E+12	1.580196E-14	NaN
120	1.000000	0.252918	7.36621e+06	-44639.1	955.818	-29775.6	0.000000	0.000000	6.252843	0.014242	NaN	0.000000	0.001553	0.001745	28.0818	0.108354	0.002042	53.054	-116.845	15.5648	0.040399	0.251567	-0.898832	-0.900183	0.014242	53.054	-0.899033	-9.862794E+11	-1.443977E-14	NaN
120	1.000000	0.262892	7.36621e+06	-44639.1	955.818	-29775.6	0.000000	0.000000	6.262817	0.014334	NaN	0.000000	0.001542	0.001723	28.0846	0.109032	0.002097	51.9978	-100.852	-163.797	0.033985	0.261599	-0.888858	-0.890151	0.014334	51.9978	-0.889064	-7.232156E+11	-1.981933E-14	NaN
120	1.000000	0.272908	7.36621e+06	-44639.1	955.818	-29775.6	0.000000	0.000000	6.272832	-0.012585	NaN	0.000000	0.001565	0.001747	28.1221	0.034088	0.001964	17.3523	-31.4834	15.2545	-0.003348	0.271568	-0.878841	-0.880182	-0.012585	17.3523	-0.878297	-5.172296E+11	2.433217E-14	NaN
120	1.000000	0.282938	7.36621e+06	-44639.1	955.818	-29775.6	0.000000	0.000000	6.282861	-0.042157	NaN	0.000000	0.001598	0.001739	28.117	0.090195	0.001988	45.3761	160.734	-165.147	-0.033977	0.281573	-0.868811	-0.870177	-0.042157	45.3761	-0.868115	-3.766470E+11	1.119279E-13	NaN
120	1.000000	0.292940	7.36621e+06	-44639.1	955.818	-29775.6	0.000000	0.000000	6.292865	0.010095	NaN	0.000000	0.001574	0.001730	28.082	0.065972	0.002042	32.3002	167.777	16.2068	-0.066730	0.291607	-0.858809	-0.860143	0.010095	32.3002	-0.859044	-2.839090E+11	-3.555861E-14	NaN
120	1.000000	0.302954	7.36621e+06	-44639.1	955.817	-29775.6	0.000000	0.000000	6.302877	-0.050577	NaN	0.000000	0.001587	0.001703	28.0834	0.189443	0.002063	91.8209	-173.925	-167.215	-0.013007	0.301670	-0.848795	-0.850080	-0.050577	91.8209	-0.848382	-2.036226E+11	2.483862E-13	NaN
120	1.000000	0.312926	7.36621e+06	-44639.1	955.818	-29775.6	0.000000	0.000000	6.312855	0.094482	NaN	0.000000	0.001577	0.001708	28.1212	0.049892	0.001843	27.0661	76.5036	12.0456	0.097417	0.311550	-0.838823	-0.840199	0.094482	27.0661	-0.841441	-1.639895E+11	-5.761462E-13	NaN
120	1.000000	0.322939	7.36621e+06	-44639.1	955.819	-29775.6	0.000000	0.000000	6.322863	-0.003348	NaN	0.000000	0.001602	0.001705	28.1186	0.091769	0.002174	42.2185	-129.462	-163.154	-0.014550	0.321649	-0.828811	-0.830101	-0.003348	42.2185	-0.828751	-1.103713E+11	3.033426E-14	NaN
120	1.000000	0.332963	7.36621e+06	-44639.1	955.818	-29775.6	0.000000	0.000000	6.332885	-0.042424	NaN	0.000000	0.001577	0.001676	28.0836	0.023729	0.002127	11.1573	35.1597	13.6471	-0.016252	0.331631	-0.818787	-0.820119	-0.042424	11.1573	-0.815935	-7.397440E+10	5.734898E-13	NaN
120	1.000000	0.342966	7.36621e+06	-44639.1	955.818	-29775.6	0.000000	0.000000	6.342890	-0.002789	NaN	0.000000	0.001594	0.001702	28.0848	0.076010	0.002083	36.4822	-160.368	-168.49	-0.064662	0.341659	-0.808784	-0.810090	-0.002789	36.4822	-0.808727	-5.905992E+10	4.722067E-14	NaN
120	1.000000	0.352931	7.36621e+06	-44639.1	955.818	-29775.6	0.000000	0.000000	6.352855	-0.022031	NaN	0.000000	0.001589	0.001699	28.1227	0.109166	0.002003	54.5123	92.4616	15.786	0.034594	0.351562	-0.798818	-0.800188	-0.022031	54.5123	-0.798515	-4.292434E+10	5.132517E-13	NaN
120	1.000000	0.362959	7.36621e+06	-44639.1	955.818	-29775.6	0.000000	0.000000	6.362882	-0.033669	NaN	0.000000	0.001594	0.001727	28.1189	0.122723	0.001910	64.2559	42.2833	-166.176	0.059137	0.361639	-0.788791	-0.790110	-0.033669	64.2559	-0.788398	-3.128419E+10	1.076230E-12	NaN
120	1.000000	0.372954	7.36621e+06	-44639.1	955.818	-29775.6	0.000000	0.000000	6.372878	-0.007937	NaN	0.000000	0.001622	0.001698	28.0829	0.064469	0.001902	33.9001	-145.196	15.3227	-0.022380	0.371552	-0.778795	-0.780198	-0.007937	33.9001	-0.778620	-2.303968E+10	3.444953E-13	NaN
120	1.000000	0.382976	7.36621e+06	-44639.1	955.818	-29775.6	0.000000	0.000000	6.382898	-0.061277	NaN	0.000000	0.001599	0.001697	28.084	0.022146	0.001934	11.4526	-147.913	-165.698	-0.082577	0.381612	-0.768773	-0.770138	-0.061277	11.4526	-0.764761	-1.492990E+10	4.104334E-12	NaN
120	1.000000	0.392998	7.36621e+06	-44639.1	955.818	-29775.6	0.000000	0.000000	6.392921	-0.021515	NaN	0.000000	0.001617	0.001697	28.1216	0.063792	0.001989	32.0784	-145.593	15.5509	-0.017722	0.391554	-0.758752	-0.760195	-0.021515	32.0784	-0.758249	-1.217530E+10	1.767133E-12	NaN
120	1.000000	0.402979	7.36621e+06	-44639.1	955.818	-29775.6	0.000000	0.000000	6.402904	0.013102	NaN	0.000000	0.001630	0.001726	28.1202	0.139081	0.002164	64.279	143.566	-165.75	-0.076994	0.401624	-0.748770	-0.750126	0.013102	64.279	-0.748923	-9.089918E+9	-1.441368E-12	NaN
120	1.000000	0.412988	7.36621e+06	-44639.1	955.817	-29775.6	0.000000	0.000000	6.412908	-0.099610	NaN	0.000000	0.001579	0.001699	28.0866	0.077975	0.002085	37.4004	103.397	13.4764	-0.065329	0.411575	-0.738762	-0.740175	-0.099610	37.4004	-0.736764	-6.208414E+9	1.604437E-11	NaN
120	1.000000	0.422989	7.36621e+06	-44639.1	955.818	-29775.6	0.000000	0.000000	6.422914	0.009155	NaN	0.000000	0.001628	0.001699	28.087	0.086376	0.002114	40.8571	-141.212	-166.026	0.029244	0.421703	-0.728760	-0.730047	0.009155	40.8571	-0.728928	-4.855123E+9	-1.885688E-12	NaN
120	1.000000	0.432958	7.36621e+06	-44639.1	955.818	-29775.6	0.000000	0.000000	6.432884	0.043110	NaN	0.000000	0.001595	0.001710	28.1242	0.019690	0.001940	10.1519	-76.7886	15.5832	0.015068	0.431590	-0.718792	-0.720160	0.043110	10.1519	-0.721976	-3.903249E+9	-1.104469E-11	NaN
120	1.000000	0.442991	7.36621e+06	-44639.1	955.818	-29775.6	0.000000	0.000000	6.442915	-0.007370	NaN	0.000000	0.001569	0.001709	28.1209	0.004773	0.001934	2.467696	-91.0292	-166.061	0.022146	0.441692	-0.708758	-0.710058	-0.007370	2.467696	-0.706519	-2.401769E+9	3.068481E-12	NaN
120	1.000000	0.452991	7.36621e+06	-44639.1	955.818	-29775.6	0.000000	0.000000	6.452912	-0.063582	NaN	0.000000	0.001570	0.001720	28.0828	0.084015	0.002132	39.4112	-147.723	12.2741	-0.055653	0.451689	-0.698759	-0.700061	-0.063582	39.4112	-0.697549	-1.811571E+9	3.509763E-11	NaN
120	1.000000	0.463013	7.36621e+06	-44639.1	955.817	-29775.6	0.000000	0.000000	6.462936	-0.039044	NaN	0.000000	0.001641	0.001712	28.0831	0.021356	0.001955	10.925	-56.3704	-167.392	-0.023037	0.461722	-0.688737	-0.690027	-0.039044	10.925	-0.686056	-1.261870E+9	3.094167E-11	NaN
120	1.000000	0.472980	7.36621e+06	-44639.1	955.818	-29775.6	0.000000	0.000000	6.472902	-0.073515	NaN	0.000000	0.001614	0.001697	28.1196	0.033301	0.001994	16.704	61.8148	12.6919	0.005331	0.471681	-0.678769	-0.680069	-0.073515	16.704	-0.675469	-9.041105E+8	8.131220E-11	NaN
120	1.000000	0.483013	7.36621e+06	-44639.1	955.819	-29775.6	0.000000	0.000000	6.482937	-0.019800	NaN	0.000000	0.001631	0.001683	28.1194	0.073079	0.001986	36.7996	-73.5195	-166.026	-0.020560	0.481690	-0.668736	-0.670060	-0.019800	36.7996	-0.668333	-7.220497E+8	2.742182E-11	NaN
120	1.000000	0.493023	7.36621e+06	-44639.1	955.818	-29775.6	0.000000	0.000000	6.492948	0.005194	NaN	0.000000	0.001621	0.001698	28.0834	0.109842	0.001978	55.5275	-1.348172	16.0008	0.039828	0.491673	-0.658726	-0.660077	0.005194	55.5275	-0.658796	-5.345382E+8	-9.717062E-12	NaN
120	1.000000	0.503015	7.36621e+06	-44639.1	955.819	-29775.6	0.000000	0.000000	6.502942	0.058962	NaN	0.000000	0.001611	0.001672	28.0839	0.060468	0.001973	30.6518	-46.8731	-167.237	0.046055	0.501683	-0.648735	-0.650067	0.058962	30.6518	-0.650177	-4.072575E+8	-1.447782E-10	NaN
120	1.000000	0.513024	7.36621e+06	-44639.1	955.817	-29775.6	0.000000	0.000000	6.512946	-0.055933	NaN	0.000000	0.001601	0.001661	28.121	0.041123	0.002020	20.3539	164.468	15.6341	-0.072587	0.511632	-0.638726	-0.640117	-0.055933	20.3539	-0.636665	-2.657818E+8	2.104455E-10	NaN
120	1.000000	0.523026	7.36621e+06	-44639.1	955.818	-29775.6	0.000000	0.000000	6.522951	0.014861	NaN	0.000000	0.001609	0.001732	28.1189	0.094854	0.002085	45.4841	59.8685	-163.053	0.080786	0.521698	-0.628724	-0.630051	0.014861	45.4841	-0.628969	-2.083838E+8	-7.131761E-11	NaN
120	1.000000	0.533044	7.36621e+06	-44639.1	955.819	-29775.6	0.000000	0.000000	6.532970	0.045122	NaN	0.000000	0.001617	0.001703	28.0821	0.086174	0.002131	40.4375	66.7924	14.7775	0.025171	0.531693	-0.618706	-0.620057	0.045122	40.4375	-0.619543	-1.546489E+8	-2.917681E-10	NaN
120	1.000000	0.543002	7.36621e+06	-44639.1	955.818	-29775.6	0.000000	0.000000	6.542923	-0.080483	NaN	0.000000	0.001620	0.001682	28.0827	0.034535	0.001934	17.8577	127.467	-163.529	-0.011510	0.541696	-0.608748	-0.610053	-0.080483	17.8577	-0.605367	-9.871009E+7	8.153516E-10	NaN
120	1.000000	0.553065	7.36621e+06	-44639.1	955.819	-29775.6	0.000000	0.000000	6.552985	-0.096692	NaN	0.000000	0.001597	0.001705	28.1201	0.020698	0.001964	10.5397	-29.5281	12.8501	-0.065756	0.551641	-0.598685	-0.600108	-0.096692	10.5397	-0.591804	-6.420071E+7	1.506092E-9	NaN
120	1.000000	0.563024	7.36621e+06	-44639.1	955.819	-29775.6	0.000000	0.000000	6.562948	-0.013870	NaN	0.000000	0.001631	0.001679	28.1199	0.056086	0.001909	29.3784	29.0153	-167.249	-0.039345	0.561730	-0.588725	-0.590020	-0.013870	29.3784	-0.588371	-5.757177E+7	2.409198E-10	NaN
120	1.000000	0.573044	7.36621e+06	-44639.1	955.818	-29775.6	0.000000	0.000000	6.572969	0.005388	NaN	0.000000	0.001627	0.001697	28.0854	0.037269	0.001934	19.2735	149.169	12.2262	-0.020473	0.571687	-0.578706	-0.580063	0.005388	19.2735	-0.578915	-4.263365E+7	-1.263770E-10	NaN
120	1.000000	0.583056	7.36621e+06	-44639.1	955.818	-29775.6	0.000000	0.000000	6.582978	-0.069985	NaN	0.000000	0.001613	0.001705	28.0834	0.011533	0.002099	5.494883	-131.13	-166.88	-0.019933	0.581791	-0.568693	-0.569958	-0.069985	5.494883	-0.559141	-2.272453E+7	3.079709E-9	NaN
120	1.000000	0.593043	7.36621e+06	-44639.1	955.818	-29775.6	0.000000	0.000000	6.592968	0.012192	NaN	0.000000	0.001639	0.001680	28.1212	0.090545	0.002127	42.5634	-169.329	13.7708	-0.042124	0.591701	-0.558707	-0.560049	0.012192	42.5634	-0.558921	-2.256612E+7	-5.402701E-10	NaN
120	1.000000	0.603077	7.36621e+06	-44639.1	955.818	-29775.6	0.000000	0.000000	6.603001	0.009413	NaN	0.000000	0.001589	0.001672	28.1201	0.074242	0.001907	38.9218	174.801	-164.197	-0.021555	0.601738	-0.548673	-0.550012	0.009413	38.9218	-0.548854	-1.637138E+7	-5.749652E-10	NaN
120	1.000000	0.613078	7.36621e+06	-44639.1	955.817	-29775.6	0.000000	0.000000	6.613001	-0.048154	NaN	0.000000	0.001596	0.001706	28.0837	0.064202	0.001908	33.6567	-6.055827	16.7193	-0.036922	0.611737	-0.538671	-0.540012	-0.048154	33.6567	-0.537598	-1.142995E+7	4.212942E-9	NaN
120	1.000000	0.623048	7.36621e+06	-44639.1	955.818	-29775.6	0.000000	0.000000	6.622973	0.012231	NaN	0.000000	0.001634	0.001661	28.084	0.023297	0.002102	11.0836	134.454	-163.837	0.054210	0.621792	-0.528702	-0.529958	0.012231	11.0836	-0.529529	-8.83152e+06	-1.384882E-9	NaN
120	1.000000	0.633071	7.36621e+06	-44639.1	955.817	-29775.6	0.000000	0.000000	6.632993	-0.051262	NaN	0.000000	0.001619	0.001698	28.1206	0.079526	0.002037	39.0491	63.2574	12.4457	-0.086068	0.631683	-0.518678	-0.520067	-0.051262	39.0491	-0.517694	-6.04669e+06	8.477671E-9	NaN
120	1.000000	0.643091	7.36621e+06	-44639.1	955.82	-29775.6	0.000000	0.000000	6.643016	0.015978	NaN	0.000000	0.001646	0.001680	28.1212	0.098756	0.001887	52.3417	10.2938	-166.209	0.040772	0.641731	-0.508659	-0.510018	0.015978	52.3417	-0.508888	-4.55956e+06	-3.504387E-9	NaN
120	1.000000	0.653081	7.36621e+06	-44639.1	955.819	-29775.6	0.000000	0.000000	6.653006	0.014152	NaN	0.000000	0.001616	0.001690	28.0842	0.137150	0.001901	72.1474	69.7628	13.1958	-0.065066	0.651673	-0.498669	-0.500076	0.014152	72.1474	-0.498816	-3.29989e+06	-4.288750E-9	NaN
120	1.000000	0.663067	7.36621e+06	-44639.1	955.818	-29775.6	0.000000	0.000000	6.662991	-0.006885	NaN	0.000000	0.001601	0.001670	28.0838	0.040823	0.001870	21.834	-76.3227	-166.08	0.018752	0.661762	-0.488682	-0.489988	-0.006885	21.834	-0.488446	-2.36413e+06	2.912382E-9	NaN
120	1.000000	0.673122	7.36621e+06	-44639.1	955.818	-29775.6	0.000000	0.000000	6.673049	0.060734	NaN	0.000000	0.001619	0.001657	28.1212	0.055488	0.001996	27.796	-56.0953	16.2425	0.110943	0.671743	-0.478628	-0.480007	0.060734	27.796	-0.480266	-1.81659e+06	-3.343294E-8	NaN
120	1.000000	0.683083	7.36621e+06	-44639.1	955.818	-29775.6	0.000000	0.000000	6.683007	-0.004015	NaN	0.000000	0.001632	0.001663	28.1202	0.107817	0.002007	53.7156	-44.1077	-164.781	-0.002310	0.681823	-0.468667	-0.469926	-0.004015	53.7156	-0.468611	-1.24715e+06	3.219489E-9	NaN
120	1.000000	0.693093	7.36621e+06	-44639.1	955.818	-29775.6	0.000000	0.000000	6.693015	-0.057923	NaN	0.000000	0.001637	0.001672	28.0829	0.092213	0.001980	46.5632	124.246	13.5184	0.006947	0.691732	-0.458656	-0.460018	-0.057923	46.5632	-0.457723	-877028	6.604489E-8	NaN
120	1.000000	0.703100	7.36621e+06	-44639.1	955.818	-29775.6	0.000000	0.000000	6.703024	-0.011475	NaN	0.000000	0.001645	0.001669	28.0837	0.099886	0.002136	46.7682	-158.835	-163.702	-0.023633	0.701803	-0.448650	-0.449946	-0.011475	46.7682	-0.448466	-649726	1.766090E-8	NaN
120	1.000000	0.713155	7.36621e+06	-44639.1	955.819	-29775.6	0.000000	0.000000	6.713078	-0.026702	NaN	0.000000	0.001648	0.001660	28.1201	0.030409	0.001867	16.2889	-86.6925	12.4542	-0.045943	0.711751	-0.438594	-0.439999	-0.026702	16.2889	-0.437365	-453067	5.893630E-8	NaN
120	1.000000	0.723106	7.36621e+06	-44639.1	955.818	-29775.6	0.000000	0.000000	6.723029	-0.032842	NaN	0.000000	0.001611	0.001647	28.1219	0.005948	0.002003	2.969434	173.722	-165.484	-0.053812	0.721826	-0.428643	-0.429924	-0.032842	2.969434	-0.420348	-260229	1.262047E-7	NaN
120	1.000000	0.733124	7.36621e+06	-44639.1	955.819	-29775.6	0.000000	0.000000	6.733047	-0.030872	NaN	0.000000	0.001655	0.001676	28.0854	0.033011	0.001881	17.5463	-153.988	11.4898	0.008294	0.731817	-0.418626	-0.419932	-0.030872	17.5463	-0.417306	-235610	1.310306E-7	NaN
120	1.000000	0.743127	7.36621e+06	-44639.1	955.818	-29775.6	0.000000	0.000000	6.743050	-0.033538	NaN	0.000000	0.001600	0.001680	28.083	0.031992	0.002003	15.9704	-34.8157	-165.891	0.012660	0.741794	-0.408623	-0.409956	-0.033538	15.9704	-0.407048	-168423	1.991298E-7	NaN
120	1.000000	0.753119	7.36621e+06	-44639.1	955.819	-29775.6	0.000000	0.000000	6.753043	-0.000324	NaN	0.000000	0.001716	0.001688	28.1196	0.012793	0.002059	6.212606	-21.0867	16.1976	0.055439	0.751811	-0.398631	-0.399939	-0.000324	6.212606	-0.398592	-127616	2.535537E-9	NaN
120	1.000000	0.763115	7.36621e+06	-44639.1	955.819	-29775.6	0.000000	0.000000	6.763036	-0.070862	NaN	0.000000	0.001664	0.001701	28.1199	0.061057	0.002037	29.9714	90.2492	-167.386	-0.128487	0.761848	-0.388635	-0.389902	-0.070862	29.9714	-0.386861	-86745.4	8.168998E-7	NaN
120	1.000000	0.773114	7.36621e+06	-44639.1	955.819	-29775.6	0.000000	0.000000	6.773039	0.005946	NaN	0.000000	0.001587	0.001682	28.0812	0.035488	0.001922	18.4594	-161.903	14.0191	0.005594	0.771760	-0.378635	-0.379990	0.005946	18.4594	-0.378877	-66645.2	-8.921727E-8	NaN
120	1.000000	0.783126	7.36621e+06	-44639.1	955.818	-29775.6	0.000000	0.000000	6.783052	0.043598	NaN	0.000000	0.001577	0.001691	28.0808	0.087993	0.002057	42.7843	-27.7513	-164.255	0.097631	0.781857	-0.368624	-0.369893	0.043598	42.7843	-0.369388	-48676.2	-8.956803E-7	NaN
120	1.000000	0.793138	7.36621e+06	-44639.1	955.818	-29775.6	0.000000	0.000000	6.793062	0.004757	NaN	0.000000	0.001591	0.001689	28.1188	0.119205	0.001916	62.2122	-70.9323	11.2921	-0.041564	0.791754	-0.358612	-0.359995	0.004757	62.2122	-0.358669	-34087.9	-1.395399E-7	NaN
120	1.000000	0.803136	7.36621e+06	-44639.1	955.819	-29775.6	0.000000	0.000000	6.803060	-0.009568	NaN	0.000000	0.001567	0.001680	28.1209	0.076862	0.001950	39.4121	-179.235	-164.864	0.018863	0.801838	-0.348614	-0.349911	-0.009568	39.4121	-0.348432	-24223.4	3.949953E-7	NaN
120	1.000000	0.813117	7.36621e+06	-44639.1	955.819	-29775.6	0.000000	0.000000	6.813043	0.041611	NaN	0.000000	0.001607	0.001672	28.0829	0.097506	0.001966	49.5912	-95.1669	14.6752	-0.060443	0.811741	-0.338632	-0.340008	0.041611	49.5912	-0.339261	-17815	-2.335749E-6	NaN
120	1.000000	0.823148	7.36621e+06	-44639.1	955.817	-29775.6	0.000000	0.000000	6.823071	-0.018305	NaN	0.000000	0.001567	0.001700	28.0817	0.032787	0.001962	16.714	-169.255	-164.576	0.103284	0.821874	-0.328602	-0.329876	-0.018305	16.714	-0.327780	-12103.9	1.512316E-6	NaN
120	1.000000	0.833148	7.36621e+06	-44639.1	955.818	-29775.6	0.000000	0.000000	6.833071	-0.042603	NaN	0.000000	0.001563	0.001659	28.1196	0.092278	0.001963	47.0178	100.715	14.0793	-0.021293	0.831786	-0.318602	-0.319964	-0.042603	47.0178	-0.317922	-8670.32	4.913624E-6	NaN
120	1.000000	0.843167	7.36621e+06	-44639.1	955.818	-29775.6	0.000000	0.000000	6.843092	0.009154	NaN	0.000000	0.001575	0.001716	28.1194	0.073946	0.001975	37.4459	-152.593	-168.194	-0.018299	0.841894	-0.308582	-0.309856	0.009154	37.4459	-0.308766	-6350.15	-1.441595E-6	NaN
120	1.000000	0.853143	7.36621e+06	-44639.1	955.818	-29775.6	0.000000	0.000000	6.853066	-0.018851	NaN	0.000000	0.001513	0.001693	28.082	0.073633	0.001996	36.8888	111.783	13.8896	-0.031704	0.851746	-0.298607	-0.300003	-0.018851	36.8888	-0.298224	-4427.7	4.257547E-6	NaN
120	1.000000	0.863180	7.36621e+06	-44639.1	955.818	-29775.6	0.000000	0.000000	6.863101	-0.071070	NaN	0.000000	0.001645	0.001677	28.0817	0.020171	0.001991	10.1305	-173.662	-167.916	-0.089162	0.861873	-0.288569	-0.289876	-0.071070	10.1305	-0.283308	-2647.37	2.684532E-5	NaN
120	1.000000	0.873171	7.36621e+06	-44639.1	955.817	-29775.6	0.000000	0.000000	6.873095	-0.010965	NaN	0.000000	0.001599	0.001692	28.1189	0.079924	0.002025	39.4707	-106.183	10.2386	0.064201	0.871821	-0.278579	-0.279928	-0.010965	39.4707	-0.278370	-2230.34	4.916211E-6	NaN
120	1.000000	0.883154	7.36621e+06	-44639.1	955.818	-29775.6	0.000000	0.000000	6.883078	-0.015230	NaN	0.000000	0.001586	0.001673	28.1218	0.120384	0.002092	57.5372	5.517841	-164.407	0.107041	0.881902	-0.268595	-0.269848	-0.015230	57.5372	-0.268397	-1574.54	9.672338E-6	NaN
120	1.000000	0.893181	7.36621e+06	-44639.1	955.818	-29775.6	0.000000	0.000000	6.893106	0.022002	NaN	0.000000	0.001617	0.001691	28.0852	0.087668	0.001929	45.4441	67.879	14.7981	0.036885	0.891853	-0.258569	-0.259896	0.022002	45.4441	-0.258932	-1128.6	-1.949486E-5	NaN
120	1.000000	0.903193	7.36621e+06	-44639.1	955.819	-29775.6	0.000000	0.000000	6.903116	-0.036569	NaN	0.000000	0.001661	0.001714	28.0839	0.083684	0.002071	40.4082	89.7052	-166.57	0.015736	0.901885	-0.248556	-0.249865	-0.036569	40.4082	-0.247877	-762.263	4.797423E-5	NaN
120	1.000000	0.913169	7.36621e+06	-44639.1	955.818	-29775.6	0.000000	0.000000	6.913092	-0.043339	NaN	0.000000	0.001623	0.001719	28.1201	0.032025	0.002013	15.9082	-80.9594	12.43	-0.019898	0.911850	-0.238580	-0.239900	-0.043339	15.9082	-0.236537	-507.418	8.541062E-5	NaN
120	1.000000	0.923180	7.36621e+06	-44639.1	955.818	-29775.6	0.000000	0.000000	6.923107	0.042026	NaN	0.000000	0.001625	0.001667	28.1211	0.049716	0.001864	26.6685	-171.824	-167.088	0.033671	0.921841	-0.228569	-0.229908	0.042026	26.6685	-0.229751	-396.811	-0.000106	NaN
120	1.000000	0.933200	7.36621e+06	-44639.1	955.818	-29775.6	0.000000	0.000000	6.933123	-0.043823	NaN	0.000000	0.001669	0.001702	28.0842	0.085002	0.001932	44.0064	-67.0857	11.5799	-0.114411	0.931838	-0.218549	-0.219911	-0.043823	44.0064	-0.217802	-256.157	0.000171	NaN
120	1.000000	0.943196	7.36621e+06	-44639.1	955.818	-29775.6	0.000000	0.000000	6.943121	0.008496	NaN	0.000000	0.001713	0.001695	28.0834	0.014551	0.001838	7.917169	-30.0467	-163.533	-0.057140	0.941908	-0.208553	-0.209842	0.008496	7.917169	-0.209358	-187.25	-4.537217E-5	NaN
120	1.000000	0.953206	7.36621e+06	-44639.1	955.817	-29775.6	0.000000	0.000000	6.953131	0.012177	NaN	0.000000	0.001715	0.001672	28.1189	0.035976	0.001944	18.5103	118.504	12.0606	0.025074	0.951858	-0.198543	-0.199892	0.012177	18.5103	-0.199036	-127.014	-9.587282E-5	NaN
120	1.000000	0.963215	7.36621e+06	-44639.1	955.818	-29775.6	0.000000	0.000000	6.963137	-0.057312	NaN	0.000000	0.001701	0.001695	28.123	0.122620	0.002000	61.3012	28.4071	-166.882	-0.075497	0.961941	-0.188534	-0.189808	-0.057312	61.3012	-0.187833	-82.7489	0.000693	NaN
120	1.000000	0.973209	7.36621e+06	-44639.1	955.818	-29775.6	0.000000	0.000000	6.973132	-0.054844	NaN	0.000000	0.001701	0.001696	28.0848	0.069330	0.002041	33.9682	80.354	15.0094	-0.051322	0.971809	-0.178540	-0.179941	-0.054844	33.9682	-0.177329	-54.9425	0.000998	NaN
120	1.000000	0.983188	7.36621e+06	-44639.1	955.817	-29775.6	0.000000	0.000000	6.983111	-0.043031	NaN	0.000000	0.001681	0.001641	28.0834	0.105152	0.002105	49.9578	131.266	-166.705	-0.042961	0.981924	-0.168562	-0.169825	-0.043031	49.9578	-0.167916	-37.7864	0.001139	NaN
120	1.000000	0.993212	7.36621e+06	-44639.1	955.818	-29775.6	0.000000	0.000000	6.993136	-0.012857	NaN	0.000000	0.001638	0.001657	28.1192	0.131985	0.001922	68.672	-48.1736	16.7922	-0.028002	0.991884	-0.158537	-0.159866	-0.012857	68.672	-0.158397	-25.671	0.000501	NaN
120	1.000000	1.003204	7.36621e+06	-44639.1	955.817	-29775.6	0.000000	0.000000	7.003129	0.016176	NaN	0.000000	0.001561	0.001666	28.1219	0.032618	0.002008	16.2445	115.872	-168.368	0.040829	1.001929	-0.148545	-0.149820	0.016176	16.2445	-0.149292	-17.5826	-0.000920	NaN
120	1.000000	1.013240	7.36622e+06	-44639.1	955.819	-29775.6	0.000000	0.000000	7.013164	-0.018339	NaN	0.000000	0.001602	0.001675	28.0825	0.057852	0.001960	29.5188	57.7378	13.0446	0.033897	1.011873	-0.138509	-0.139877	-0.018339	29.5188	-0.138044	-10.8668	0.001688	NaN
120	1.000000	1.023253	7.36622e+06	-44639.1	955.818	-29775.6	0.000000	0.000000	7.023176	-0.018201	NaN	0.000000	0.001600	0.001697	28.0804	0.120582	0.001970	61.1954	-74.2246	-168.665	-0.013673	1.021906	-0.128497	-0.129844	-0.018201	61.1954	-0.128274	-7.053009	0.002581	NaN
120	1.000000	1.033245	7.36622e+06	-44639.1	955.818	-29775.6	0.000000	0.000000	7.033174	0.096254	NaN	0.000000	0.001635	0.001718	28.1177	0.078291	0.001884	41.5461	130.438	13.2034	0.057128	1.031871	-0.118504	-0.119879	0.096254	41.5461	-0.120242	-4.886075	-0.019700	NaN
120	1.000000	1.043221	7.36622e+06	-44639.1	955.818	-29775.6	0.000000	0.000000	7.043145	-0.012564	NaN	0.000000	0.001650	0.001696	28.1222	0.040878	0.001946	21.0094	-76.7437	-164.731	-0.032697	1.041931	-0.108529	-0.109819	-0.012564	21.0094	-0.108080	-2.736582	0.004591	NaN
120	1.000000	1.053250	7.36622e+06	-44639.1	955.818	-29775.6	0.000000	0.000000	7.053173	-0.032625	NaN	0.000000	0.001651	0.001772	28.0835	0.017919	0.002043	8.770274	4.307825	11.8608	0.073358	1.051825	-0.098500	-0.099924	-0.032625	8.770274	-0.095710	-1.464062	0.022284	NaN
120	1.000000	1.063250	7.36622e+06	-44639.1	955.817	-29775.6	0.000000	0.000000	7.063172	-0.048597	NaN	0.000000	0.001621	0.001750	28.0824	0.142625	0.002000	71.3038	-31.9866	-170.188	-0.071892	1.061930	-0.088499	-0.089819	-0.048597	71.3038	-0.087988	-0.969006	0.050152	NaN
120	1.000000	1.073240	7.36622e+06	-44639.1	955.817	-29775.6	0.000000	0.000000	7.073164	-0.007505	NaN	0.000000	0.001604	0.001748	28.1181	0.068298	0.001981	34.4727	39.3312	13.3733	-0.061478	1.071915	-0.078510	-0.079834	-0.007505	34.4727	-0.078347	-0.562489	0.013342	NaN
120	1.000000	1.083246	7.36622e+06	-44639.1	955.818	-29775.6	0.000000	0.000000	7.083170	-0.016546	NaN	0.000000	0.001606	0.001764	28.121	0.049881	0.002139	23.3146	-51.9124	-164.545	-0.016391	1.081916	-0.068504	-0.069834	-0.016546	23.3146	-0.067971	-0.300718	0.055023	NaN
120	1.000000	1.093233	7.36622e+06	-44639.1	955.817	-29775.6	0.000000	0.000000	7.093159	0.025841	NaN	0.000000	0.001609	0.001762	28.0824	0.016529	0.001996	8.282118	133.819	12.3827	0.011858	1.091849	-0.058516	-0.059900	0.025841	8.282118	-0.060856	-0.190544	-0.135618	NaN
120	1.000000	1.103258	7.36622e+06	-44639.1	955.819	-29775.6	0.000000	0.000000	7.103182	0.008342	NaN	0.000000	0.001629	0.001780	28.0825	0.136103	0.002127	63.9802	-152.235	-166.331	0.030417	1.101908	-0.048492	-0.049842	0.008342	63.9802	-0.048590	-0.082697	-0.100879	NaN
120	1.000000	1.113282	7.36622e+06	-44639.1	955.818	-29775.6	0.000000	0.000000	7.113203	-0.076589	NaN	0.000000	0.001577	0.001761	28.1169	0.163907	0.001919	85.4052	118.995	10.1292	-0.049919	1.111885	-0.038468	-0.039864	-0.076589	85.4052	-0.037795	-0.038789	1.974490	NaN
120	1.000000	1.123258	7.36622e+06	-44639.1	955.818	-29775.6	0.000000	0.000000	7.123182	-0.010540	NaN	0.000000	0.001619	0.001777	28.1224	0.025237	0.002072	12.1797	53.2714	-167.779	0.134917	1.121923	-0.028492	-0.029827	-0.010540	12.1797	-0.027843	-0.020077	0.524986	NaN
120	1.000000	1.133259	7.36622e+06	-44639.1	955.818	-29775.6	0.000000	0.000000	7.133181	-0.061857	NaN	0.000000	0.001623	0.001800	28.0836	0.044184	0.001978	22.3424	137.54	11.5831	-0.056613	1.131943	-0.018490	-0.019807	-0.061857	22.3424	-0.016414	-0.010140	6.100308	NaN
120	1.000000	1.143293	7.36622e+06	-44639.1	955.818	-29775.6	0.000000	0.000000	7.143218	-0.000590	NaN	0.000000	0.001598	0.001803	28.0826	0.136297	0.001945	70.0907	80.0487	-167.211	0.042024	1.142043	-0.008456	-0.009707	-0.000590	70.0907	-0.008450	-0.005494	0.107394	NaN
120	1.000000	1.153251	7.36622e+06	-44639.1	955.817	-29775.6	0.000000	0.000000	7.153223	1.151962	NaN	0.000000	0.001589	0.001775	28.1191	1.848095	0.001980	933.515	10.0755	14.6893	0.332318	1.151938	0.001502	0.000189	1.151962	933.515	0.000576	0.000435	2645.64	40873.4
120	2.000000	1.160863	7.36622e+06	-44639.1	955.819	-29775.6	0.000000	0.000000	7.161216	10.4346	NaN	0.000000	0.001583	0.001752	28.1222	9.709049	0.001734	5597.86	3.542341	-169.131	10.2023	1.160501	0.009113	0.008752	10.4346	5597.86	0.007715	0.006751	1545.65	62246.3
120	2.000000	1.163341	7.36622e+06	-44639.1	955.818	-29775.6	0.000000	0.000000	7.163870	14.7184	NaN	0.000000	0.001605	0.001748	28.085	11.8858	0.001540	7717.38	1.810720	11.0763	14.3634	1.162975	0.011591	0.011225	14.7184	7717.38	0.010161	0.009361	1572.39	72877.5
120	2.000000	1.165765	7.36622e+06	-44639.1	955.818	-29775.6	0.000000	0.000000	7.166450	18.5105	NaN	0.000000	0.001615	0.001767	28.0821	14.746	0.001669	8832.59	4.891228	-175.693	16.9399	1.165460	0.014016	0.013711	18.5105	8832.59	0.012444	0.012026	1539.21	73587.1
120	2.000000	1.168293	7.36622e+06	-44639.1	955.818	-29775.6	0.000000	0.000000	7.169114	21.8074	NaN	0.000000	0.001637	0.001742	28.1182	17.0337	0.001719	9910.43	6.781209	4.860272	22.9715	1.167918	0.016543	0.016169	21.8074	9910.43	0.014893	0.015143	1440.11	73580.3
120	2.000000	1.170717	7.36622e+06	-44639.1	955.818	-29775.6	0.000000	0.000000	7.171802	28.2453	NaN	0.000000	0.001627	0.001728	28.1236	19.911	0.001808	11012.2	1.083283	-172.627	26.4718	1.170465	0.018968	0.018716	28.2453	11012.2	0.017044	0.018108	1559.81	74767
120	2.000000	1.173250	7.36622e+06	-44639.1	955.818	-29775.6	0.000000	0.000000	7.174637	35.5903	NaN	0.000000	0.001588	0.001779	28.0849	21.9629	0.001743	12602.2	5.731445	1.659145	34.2543	1.172867	0.021501	0.021118	35.5903	12602.2	0.019382	0.021581	1649.14	78376
120	2.000000	1.175720	7.36622e+06	-44639.1	955.818	-29775.6	0.000000	0.000000	7.177212	38.1232	NaN	0.000000	0.001618	0.001717	28.083	24.1474	0.001845	13091.2	5.238361	-178.027	37.3175	1.175405	0.023971	0.023655	38.1232	13091.2	0.021787	0.025428	1499.24	75005.7
120	2.000000	1.178248	7.36622e+06	-44639.1	955.818	-29775.6	0.000000	0.000000	7.180030	45.1903	NaN	0.000000	0.001600	0.001758	28.1193	26.6891	0.001783	14966.7	4.775526	0.441137	44.3436	1.177912	0.026498	0.026162	45.1903	14966.7	0.024234	0.029636	1524.83	79430.5
120	2.000000	1.180703	7.36622e+06	-44639.1	955.818	-29775.6	0.000000	0.000000	7.182861	54.3614	NaN	0.000000	0.001607	0.001775	28.1225	29.3708	0.001816	16169.3	6.320242	178.543	52.5949	1.180366	0.028953	0.028617	54.3614	16169.3	0.026432	0.033671	1614.46	80507.1
120	2.000000	1.183215	7.36622e+06	-44639.1	955.818	-29775.6	0.000000	0.000000	7.185676	61.7127	NaN	0.000000	0.001604	0.001763	28.0863	31.173	0.001654	18849	7.664836	-3.527667	60.8394	1.182885	0.031466	0.031135	61.7127	18849	0.029010	0.038717	1593.92	87520.3
120	2.000000	1.185700	7.36622e+06	-44639.1	955.818	-29775.6	0.000000	0.000000	7.188361	66.5822	NaN	0.000000	0.001607	0.001711	28.0818	32.4137	0.001867	17358.5	3.427668	-178.793	64.5304	1.185355	0.033950	0.033606	66.5822	17358.5	0.031073	0.042998	1548.5	76482.8
120	2.000000	1.188174	7.36622e+06	-44639.1	955.818	-29775.6	0.000000	0.000000	7.191220	75.9451	NaN	0.000000	0.001613	0.001765	28.1167	35.6156	0.001884	18908.5	5.724247	-1.300026	73.5003	1.187889	0.036424	0.036139	75.9451	18908.5	0.033412	0.048113	1578.49	78759.3
120	2.000000	1.190694	7.36622e+06	-44639.1	955.818	-29775.6	0.000000	0.000000	7.194216	87.5312	NaN	0.000000	0.001600	0.001747	28.1227	37.588	0.001752	21459.9	3.780126	179.38	86.9603	1.190367	0.038944	0.038618	87.5312	21459.9	0.035885	0.053827	1626.17	84508.8
120	2.000000	1.193218	7.36622e+06	-44639.1	955.818	-29775.6	0.000000	0.000000	7.197129	96.9817	NaN	0.000000	0.001662	0.001753	28.0856	40.4327	0.001767	22875.8	8.661650	-5.371188	96.3723	1.192788	0.041469	0.041038	96.9817	22875.8	0.038289	0.059682	1624.97	85551.7
120	2.000000	1.195722	7.36622e+06	-44639.1	955.818	-29775.6	0.000000	0.000000	7.200046	107.013	NaN	0.000000	0.001651	0.001769	28.0826	42.4781	0.001684	25223.6	6.207164	175.708	107.429	1.195321	0.043973	0.043571	107.013	25223.6	0.040791	0.066089	1619.23	89642.9
120	2.000000	1.198201	7.36622e+06	-44639.1	955.818	-29775.6	0.000000	0.000000	7.202683	110.886	NaN	0.000000	0.001634	0.001747	28.1165	46.1233	0.001928	23926.7	3.947696	-2.339020	109.956	1.197979	0.046451	0.046230	110.886	23926.7	0.042975	0.071944	1541.29	81500.4
120	2.000000	1.200706	7.36622e+06	-44639.1	955.818	-29775.6	0.000000	0.000000	7.205741	124.331	NaN	0.000000	0.001658	0.001726	28.1218	47.5207	0.001745	27226.6	5.222320	175.608	124.836	1.200440	0.048956	0.048690	124.331	27226.6	0.045532	0.079104	1571.75	88444.2
120	2.000000	1.203132	7.36622e+06	-44639.1	955.818	-29775.6	0.000000	0.000000	7.208955	143.492	NaN	0.000000	0.001647	0.001734	28.0831	49.6285	0.001796	27637.6	5.872546	-4.997660	139.233	1.202761	0.051382	0.051011	143.492	27637.6	0.047489	0.084809	1691.94	86706.8
120	2.000000	1.205640	7.36622e+06	-44639.1	955.818	-29775.6	0.000000	0.000000	7.211806	151.84	NaN	0.000000	0.001643	0.001715	28.0813	50.9587	0.001709	29812.2	3.796600	177.433	149.722	1.205244	0.053891	0.053495	151.84	29812.2	0.050071	0.092633	1639.16	89492.1
120	2.000000	1.208162	7.36622e+06	-44639.1	955.819	-29775.6	0.000000	0.000000	7.214873	165.106	NaN	0.000000	0.001612	0.001737	28.1153	54.5847	0.001796	30385.5	2.828763	-3.433649	162.904	1.207861	0.056413	0.056112	165.106	30385.5	0.052338	0.099775	1654.77	87887.7
120	2.000000	1.210658	7.36622e+06	-44639.1	955.818	-29775.6	0.000000	0.000000	7.217928	178.705	NaN	0.000000	0.001628	0.001731	28.1233	57.8125	0.001818	31799.7	3.727674	175.56	176.287	1.210326	0.058908	0.058577	178.705	31799.7	0.054693	0.107470	1662.84	88624.4
120	2.000000	1.213185	7.36622e+06	-44639.1	955.819	-29775.6	0.000000	0.000000	7.221171	196.105	NaN	0.000000	0.001666	0.001743	28.0846	58.9103	0.001737	33906.8	6.090231	-6.095331	193.424	1.212748	0.061436	0.060998	196.105	33906.8	0.057098	0.115608	1696.29	91110.1
120	2.000000	1.215664	7.36622e+06	-44639.1	955.819	-29775.6	0.000000	0.000000	7.224246	210.623	NaN	0.000000	0.001637	0.001755	28.0822	61.2093	0.001735	35287.1	4.214228	173.626	209.044	1.215331	0.063914	0.063582	210.623	35287.1	0.059438	0.123800	1701.31	91628.2
120	2.000000	1.218155	7.36622e+06	-44639.1	955.818	-29775.6	0.000000	0.000000	7.227080	218.966	NaN	0.000000	0.001682	0.001735	28.1165	65.6007	0.001815	36147.5	2.433365	-3.968445	216.701	1.217926	0.066405	0.066176	218.966	36147.5	0.061862	0.132569	1651.71	90704.8
120	2.000000	1.220686	7.36622e+06	-44639.1	955.818	-29775.6	0.000000	0.000000	7.230482	240.168	NaN	0.000000	0.001706	0.001732	28.1223	68.0074	0.001810	37580.9	4.478703	174.272	238.236	1.220246	0.068936	0.068497	240.168	37580.9	0.064143	0.141083	1702.32	91411.9
120	2.000000	1.223124	7.36622e+06	-44639.1	955.82	-29775.6	0.000000	0.000000	7.233518	254.713	NaN	0.000000	0.001692	0.001754	28.0847	69.5737	0.001787	38940.4	8.580484	-9.853436	249.463	1.222755	0.071374	0.071005	254.713	38940.4	0.066468	0.150019	1697.87	91854.5
120	2.000000	1.225638	7.36622e+06	-44639.1	955.819	-29775.6	0.000000	0.000000	7.236684	270.587	NaN	0.000000	0.001724	0.001753	28.0823	72.3625	0.001795	40304.9	6.510720	171.119	270.809	1.225351	0.073888	0.073601	270.587	40304.9	0.068853	0.159453	1696.97	92217.8
120	2.000000	1.228141	7.36622e+06	-44639.1	955.819	-29775.6	0.000000	0.000000	7.239871	287.197	NaN	0.000000	0.001654	0.001752	28.1162	73.8861	0.001710	43212.1	3.316691	-5.984228	284.142	1.227771	0.076392	0.076021	287.197	43212.1	0.071407	0.169859	1690.8	95793.1
120	2.000000	1.230713	7.36622e+06	-44639.1	955.818	-29775.6	0.000000	0.000000	7.243151	304.446	NaN	0.000000	0.001622	0.001778	28.1245	78.2715	0.001855	42190	5.432669	172.199	305.991	1.230317	0.078963	0.078567	304.446	42190	0.073551	0.178833	1702.41	91150.5
120	2.000000	1.233169	7.36622e+06	-44639.1	955.819	-29775.6	0.000000	0.000000	7.246281	320.826	NaN	0.000000	0.001612	0.001756	28.0852	79.3756	0.001728	45938.3	4.102639	-7.319146	319.407	1.232880	0.081420	0.081130	320.826	45938.3	0.076182	0.190141	1687.31	96252.3
120	2.000000	1.235688	7.36622e+06	-44639.1	955.819	-29775.6	0.000000	0.000000	7.249689	342.458	NaN	0.000000	0.001618	0.001710	28.0833	80.6983	0.001700	47462.3	4.192532	172.16	343.952	1.235363	0.083938	0.083614	342.458	47462.3	0.078527	0.200492	1708.09	96844.2
120	2.000000	1.238101	7.36622e+06	-44639.1	955.82	-29775.6	0.000000	0.000000	7.252984	363.905	NaN	0.000000	0.001659	0.001779	28.1171	84.1046	0.001849	45493.8	3.507803	-6.997142	359.119	1.237725	0.086352	0.085975	363.905	45493.8	0.080353	0.208732	1743.41	90976.9
120	2.000000	1.240615	7.36622e+06	-44639.1	955.819	-29775.6	0.000000	0.000000	7.256309	383.63	NaN	0.000000	0.001628	0.001767	28.1238	86.4424	0.001866	46330.9	3.167319	173.782	382.305	1.240344	0.088866	0.088594	383.63	46330.9	0.082655	0.219344	1748.99	90381.8
120	2.000000	1.243126	7.36622e+06	-44639.1	955.819	-29775.6	0.000000	0.000000	7.259679	404.536	NaN	0.000000	0.001600	0.001779	28.085	88.3362	0.001737	50843.5	4.864225	-8.498465	400.409	1.242838	0.091377	0.091088	404.536	50843.5	0.085409	0.232358	1741	96367.4
120	2.000000	1.245578	7.36622e+06	-44639.1	955.819	-29775.6	0.000000	0.000000	7.263038	426.616	NaN	0.000000	0.001624	0.001729	28.0824	90.2326	0.001714	52640.7	3.592539	172.33	423.516	1.245260	0.093828	0.093511	426.616	52640.7	0.087750	0.243696	1750.61	97425.1
120	2.000000	1.248104	7.36622e+06	-44639.1	955.819	-29775.6	0.000000	0.000000	7.266326	445.13	NaN	0.000000	0.001623	0.001804	28.1153	94.401	0.001739	54288.8	4.250573	-8.636177	440.217	1.247811	0.096354	0.096061	445.13	54288.8	0.090205	0.255856	1739.77	98058.7
120	2.000000	1.250630	7.36622e+06	-44639.1	955.819	-29775.6	0.000000	0.000000	7.269771	467.483	NaN	0.000000	0.001632	0.001766	28.1248	98.4197	0.001846	53312.8	5.699126	169.879	465.408	1.250373	0.098881	0.098624	467.483	53312.8	0.092304	0.266474	1754.33	94357.6
120	2.000000	1.253131	7.36622e+06	-44639.1	955.82	-29775.6	0.000000	0.000000	7.273562	498.894	NaN	0.000000	0.001651	0.001776	28.0854	99.254	0.001854	53542.9	4.620207	-8.154075	494.6	1.252650	0.101381	0.100900	498.894	53542.9	0.094393	0.277238	1799.51	92907
120	2.000000	1.255560	7.36622e+06	-44639.1	955.819	-29775.6	0.000000	0.000000	7.276705	516.249	NaN	0.000000	0.001612	0.001770	28.0826	101.591	0.001790	56760.5	5.016327	170.52	512.553	1.255260	0.103811	0.103511	516.249	56760.5	0.096989	0.290896	1774.69	96150.3
120	2.000000	1.257998	7.36622e+06	-44639.1	955.82	-29775.6	0.000000	0.000000	7.279908	534.877	NaN	0.000000	0.001611	0.001797	28.1166	104.427	0.001830	57073.7	1.842208	-6.682809	524.264	1.257782	0.106248	0.106032	534.877	57073.7	0.099220	0.302874	1766	94749.7
120	2.000000	1.258505	7.36622e+06	-44639.1	955.82	-29775.6	0.000000	0.000000	7.280949	547.84	NaN	0.000000	0.001625	0.001766	28.1241	104.531	0.001801	58027	4.184069	171.26	541.336	1.258180	0.106756	0.106431	547.84	58027	0.099675	0.305347	1794.16	95941.6