File: remote_trans/data/nanoindenter/0828-1/data/Data_2025-08-06,11h17m57s/2025-07-22_16-23-58_1_3.txt
2025-07-22, 16:23:58, 1
Index	Phase	Displacement	Time	Pos X	Pos Y	Pos Z	Rot A	Rot B	Piezo Z	Force A	Force B	Gripper	Voltage A	Voltage B	Temperature	Amplitude force	Amplitude pos	Stiffness	Phase shift	Phase excitation	Force A raw	Displacement raw	HMax	HMax raw	Real Force	Real Stiffness	Contact Depth	Area	Hardness	Reduced Mod.
[#]	[#]	[um]	[s]	[um]	[um]	[um]	[m°]	[m°]	[um]	[uN]	[uN]	[V]	[V]	[V]	[°C]	[uN]	[um]	[N/m]	[°]	[°]	[uN]	[um]	[um]	[um]	[uN]	[N/m]	[um]	[um^2]	[MPa]	[MPa]
3.000000	1.000000	0.002500	7.36507e+06	-38789.1	955.819	-29797	0.000000	0.000000	6.002825	-0.019289	NaN	0.000000	0.001660	0.001661	28.1126	0.019656	0.000902	21.7806	19.7145	-167.598	0.019707	0.001267	-1.024817	-1.026050	-0.019289	21.7806	-1.024153	-4.795420E+13	4.022430E-16	NaN
3.000000	1.000000	0.010476	7.36507e+06	-38789.1	955.818	-29797	0.000000	0.000000	6.010803	0.027413	NaN	0.000000	0.001683	0.001669	28.113	0.044413	0.001011	43.9171	65.3384	-164.462	0.066604	0.009133	-1.016841	-1.018184	0.027413	43.9171	-1.017309	-3.879257E+13	-7.066639E-16	NaN
3.000000	1.000000	0.018461	7.36507e+06	-38789.1	955.819	-29797	0.000000	0.000000	6.018787	-0.007106	NaN	0.000000	0.001651	0.001707	28.1126	0.058054	0.001746	33.259	-11.8675	-163.203	-0.050995	0.017164	-1.008855	-1.010153	-0.007106	33.259	-1.008695	-2.970420E+13	2.392337E-16	NaN
3.000000	1.000000	0.026496	7.36507e+06	-38789.1	955.818	-29797	0.000000	0.000000	6.026818	-0.089165	NaN	0.000000	0.001682	0.001705	28.1138	0.110576	0.001758	62.8943	-177.246	-163.344	-0.040582	0.025127	-1.000821	-1.002189	-0.089165	62.8943	-0.999758	-2.251699E+13	3.959903E-15	NaN
3.000000	1.000000	0.034432	7.36507e+06	-38789.1	955.819	-29797	0.000000	0.000000	6.034758	-0.016606	NaN	0.000000	0.001666	0.001709	28.113	0.033970	0.001749	19.4247	-30.7213	-163.064	-0.010682	0.033158	-0.992884	-0.994159	-0.016606	19.4247	-0.992243	-1.783699E+13	9.310133E-16	NaN
3.000000	1.000000	0.042457	7.36507e+06	-38789.1	955.818	-29797	0.000000	0.000000	6.042782	-0.018283	NaN	0.000000	0.001679	0.001698	28.1127	0.045712	0.002035	22.46	-178.706	-164.598	0.039478	0.041178	-0.984859	-0.986139	-0.018283	22.46	-0.984249	-1.392034E+13	1.313402E-15	NaN
3.000000	1.000000	0.050450	7.36507e+06	-38789.1	955.819	-29797	0.000000	0.000000	6.050777	0.027092	NaN	0.000000	0.001687	0.001674	28.1142	0.095118	0.001982	47.9918	-134.801	-166.487	0.057285	0.049107	-0.976867	-0.978210	0.027092	47.9918	-0.977290	-1.121761E+13	-2.415150E-15	NaN
3.000000	1.000000	0.058461	7.36507e+06	-38789.1	955.819	-29797	0.000000	0.000000	6.058787	-0.004276	NaN	0.000000	0.001652	0.001670	28.1129	0.112848	0.002073	54.4457	-21.9221	-164.623	-0.013891	0.057134	-0.968856	-0.970183	-0.004276	54.4457	-0.968797	-8.618765E+12	4.961176E-16	NaN
3.000000	1.000000	0.066456	7.36507e+06	-38789.1	955.818	-29797	0.000000	0.000000	6.066781	-0.027400	NaN	0.000000	0.001663	0.001697	28.1129	0.043809	0.002108	20.7844	115.255	-165.544	0.016309	0.065091	-0.960861	-0.962226	-0.027400	20.7844	-0.959872	-6.533459E+12	4.193802E-15	NaN
3.000000	1.000000	0.074458	7.36507e+06	-38789.1	955.818	-29797	0.000000	0.000000	6.074785	0.022987	NaN	0.000000	0.001647	0.001696	28.1146	0.065776	0.001951	33.7086	26.4894	-163.332	0.021742	0.073143	-0.952858	-0.954173	0.022987	33.7086	-0.953370	-5.339162E+12	-4.305382E-15	NaN
3.000000	1.000000	0.082463	7.36507e+06	-38789.1	955.818	-29797	0.000000	0.000000	6.082789	-0.000843	NaN	0.000000	0.001584	0.001668	28.1136	0.016980	0.002035	8.342193	107.644	-166.054	-0.011440	0.081119	-0.944854	-0.946198	-0.000843	8.342193	-0.944778	-4.088818E+12	2.060809E-16	NaN
3.000000	1.000000	0.090454	7.36507e+06	-38789.1	955.818	-29797	0.000000	0.000000	6.090778	-0.043772	NaN	0.000000	0.001628	0.001675	28.1132	0.134123	0.001984	67.5983	167.437	-166.106	-0.057033	0.089150	-0.936863	-0.938167	-0.043772	67.5983	-0.936377	-3.149620E+12	1.389741E-14	NaN
3.000000	1.000000	0.098468	7.36507e+06	-38789.1	955.818	-29797	0.000000	0.000000	6.098795	0.021293	NaN	0.000000	0.001646	0.001671	28.1136	0.041175	0.001781	23.1166	-123.049	-165.34	-0.008817	0.097109	-0.928849	-0.930208	0.021293	23.1166	-0.929539	-2.546718E+12	-8.360884E-15	NaN
3.000000	1.000000	0.106500	7.36507e+06	-38789.1	955.818	-29797	0.000000	0.000000	6.106823	-0.058595	NaN	0.000000	0.001656	0.001668	28.1134	0.023169	0.001970	11.7633	135.22	-166.35	-0.105314	0.105153	-0.920817	-0.922164	-0.058595	11.7633	-0.917081	-1.728989E+12	3.388960E-14	NaN
3.000000	1.000000	0.114468	7.36507e+06	-38789.1	955.819	-29797	0.000000	0.000000	6.114794	0.004962	NaN	0.000000	0.001648	0.001696	28.1121	0.087842	0.002044	42.9732	32.314	-162.383	0.041107	0.113200	-0.912849	-0.914117	0.004962	42.9732	-0.912935	-1.519870E+12	-3.264724E-15	NaN
3.000000	1.000000	0.122444	7.36507e+06	-38789.1	955.819	-29797	0.000000	0.000000	6.122771	0.014053	NaN	0.000000	0.001638	0.001697	28.1117	0.011527	0.002091	5.512804	66.105	-164.93	0.036856	0.121163	-0.904873	-0.906154	0.014053	5.512804	-0.906784	-1.255241E+12	-1.119556E-14	NaN
3.000000	1.000000	0.130475	7.36507e+06	-38789.1	955.818	-29797	0.000000	0.000000	6.130802	0.009620	NaN	0.000000	0.001588	0.001708	28.1149	0.048087	0.002037	23.6094	-150.642	-166.684	0.062646	0.129133	-0.896841	-0.898184	0.009620	23.6094	-0.897147	-9.300641E+11	-1.034331E-14	NaN
3.000000	1.000000	0.138454	7.36507e+06	-38789.1	955.818	-29797	0.000000	0.000000	6.138781	0.030069	NaN	0.000000	0.001624	0.001687	28.1131	0.110234	0.002007	54.9382	-72.9224	-163.816	0.021871	0.137184	-0.888863	-0.890132	0.030069	54.9382	-0.889273	-7.279295E+11	-4.130768E-14	NaN
3.000000	1.000000	0.146475	7.36507e+06	-38789.1	955.819	-29797	0.000000	0.000000	6.146801	-0.009833	NaN	0.000000	0.001607	0.001702	28.1122	0.046850	0.001875	24.9841	38.6071	-164.19	0.060193	0.145234	-0.880842	-0.882083	-0.009833	24.9841	-0.880547	-5.547520E+11	1.772443E-14	NaN
3.000000	1.000000	0.154488	7.36507e+06	-38789.1	955.818	-29797	0.000000	0.000000	6.154817	0.065776	NaN	0.000000	0.001631	0.001692	28.1134	0.022082	0.001939	11.3895	7.822486	-167.623	-0.024405	0.153189	-0.872829	-0.874127	0.065776	11.3895	-0.877160	-4.992286E+11	-1.317543E-13	NaN
3.000000	1.000000	0.162484	7.36507e+06	-38789.1	955.819	-29797	0.000000	0.000000	6.162810	0.003622	NaN	0.000000	0.001636	0.001677	28.1126	0.059120	0.002022	29.2417	-170.831	-162.938	-0.014602	0.161176	-0.864832	-0.866141	0.003622	29.2417	-0.864925	-3.410183E+11	-1.062175E-14	NaN
3.000000	1.000000	0.170482	7.36507e+06	-38789.1	955.818	-29797	0.000000	0.000000	6.170807	-0.002051	NaN	0.000000	0.001645	0.001699	28.1121	0.044800	0.001958	22.8843	-109.569	-164.449	-0.060627	0.169168	-0.856835	-0.858149	-0.002051	22.8843	-0.856768	-2.644671E+11	7.756855E-15	NaN
3.000000	1.000000	0.178514	7.36507e+06	-38789.1	955.818	-29797	0.000000	0.000000	6.178840	0.013380	NaN	0.000000	0.001653	0.001686	28.1124	0.059786	0.001963	30.4543	129.469	-163.043	-0.062315	0.177181	-0.848803	-0.850135	0.013380	30.4543	-0.849133	-2.084447E+11	-6.419051E-14	NaN
3.000000	1.000000	0.186502	7.36507e+06	-38789.1	955.818	-29797	0.000000	0.000000	6.186826	-0.037003	NaN	0.000000	0.001618	0.001703	28.1121	0.008782	0.002056	4.271979	151.746	-164.902	-0.006487	0.185225	-0.840815	-0.842092	-0.037003	4.271979	-0.834318	-1.313135E+11	2.817906E-13	NaN
3.000000	1.000000	0.194509	7.36507e+06	-38789.1	955.819	-29797	0.000000	0.000000	6.194834	-0.020670	NaN	0.000000	0.001615	0.001688	28.1109	0.059034	0.001863	31.6845	-170.876	-164.373	-0.040641	0.193184	-0.832808	-0.834133	-0.020670	31.6845	-0.832319	-1.233711E+11	1.675426E-13	NaN
3.000000	1.000000	0.202508	7.36507e+06	-38789.1	955.819	-29797	0.000000	0.000000	6.202833	-0.016129	NaN	0.000000	0.001615	0.001667	28.1109	0.046110	0.002006	22.9864	141.249	-163.702	0.043927	0.201173	-0.824809	-0.826144	-0.016129	22.9864	-0.824283	-9.600223E+10	1.680079E-13	NaN
3.000000	1.000000	0.210514	7.36507e+06	-38789.1	955.818	-29797	0.000000	0.000000	6.210837	-0.084212	NaN	0.000000	0.001639	0.001631	28.1106	0.048119	0.002053	23.4336	-63.8265	-164.36	-0.026178	0.209213	-0.816803	-0.818104	-0.084212	23.4336	-0.814107	-6.987013E+10	1.205270E-12	NaN
3.000000	1.000000	0.218480	7.36507e+06	-38789.1	955.818	-29797	0.000000	0.000000	6.218805	-0.001772	NaN	0.000000	0.001628	0.001681	28.1108	0.111870	0.002042	54.7972	-23.1834	-164.41	-0.008478	0.217156	-0.808837	-0.810161	-0.001772	54.7972	-0.808813	-5.921952E+10	2.991467E-14	NaN
3.000000	1.000000	0.226507	7.36507e+06	-38789.1	955.818	-29797	0.000000	0.000000	6.226835	0.051592	NaN	0.000000	0.001615	0.001684	28.1099	0.026005	0.001970	13.2005	-132.88	-163.367	0.081614	0.225220	-0.800810	-0.802096	0.051592	13.2005	-0.803741	-5.054098E+10	-1.020796E-12	NaN
3.000000	1.000000	0.234545	7.36507e+06	-38789.1	955.818	-29797	0.000000	0.000000	6.234872	0.036189	NaN	0.000000	0.001588	0.001680	28.112	0.143195	0.001956	73.1905	124.765	-166.623	-0.095714	0.233253	-0.792772	-0.794064	0.036189	73.1905	-0.793143	-3.628804E+10	-9.972816E-13	NaN
3.000000	1.000000	0.242507	7.36507e+06	-38789.1	955.818	-29797	0.000000	0.000000	6.242832	-0.021801	NaN	0.000000	0.001602	0.001653	28.111	0.095281	0.002117	45.0083	63.1712	-166.894	-0.051008	0.241206	-0.784809	-0.786111	-0.021801	45.0083	-0.784446	-2.764660E+10	7.885711E-13	NaN
3.000000	1.000000	0.250507	7.36507e+06	-38789.1	955.818	-29797	0.000000	0.000000	6.250835	0.047168	NaN	0.000000	0.001594	0.001694	28.1113	0.039682	0.002176	18.2335	118.769	-161.999	0.030070	0.249218	-0.776810	-0.778098	0.047168	18.2335	-0.778750	-2.313349E+10	-2.038935E-12	NaN
3.000000	1.000000	0.258536	7.36507e+06	-38789.1	955.819	-29797	0.000000	0.000000	6.258863	0.026411	NaN	0.000000	0.001542	0.001665	28.1113	0.100145	0.001935	51.7449	-108.331	-165.587	0.056838	0.257246	-0.768781	-0.770071	0.026411	51.7449	-0.769164	-1.713689E+10	-1.541167E-12	NaN
3.000000	1.000000	0.266547	7.36507e+06	-38789.1	955.818	-29797	0.000000	0.000000	6.266870	-0.072700	NaN	0.000000	0.001571	0.001661	28.1108	0.019456	0.002064	9.425893	10.7689	-163.934	0.025858	0.265240	-0.760769	-0.762077	-0.072700	9.425893	-0.754985	-1.099170E+10	6.614120E-12	NaN
3.000000	1.000000	0.274519	7.36507e+06	-38789.1	955.818	-29797	0.000000	0.000000	6.274845	-0.009883	NaN	0.000000	0.001555	0.001642	28.1105	0.073919	0.001986	37.2186	95.4886	-166.396	0.026483	0.273222	-0.752798	-0.754095	-0.009883	37.2186	-0.752598	-1.019969E+10	9.689346E-13	NaN
3.000000	1.000000	0.282540	7.36507e+06	-38789.1	955.818	-29797	0.000000	0.000000	6.282867	0.017577	NaN	0.000000	0.001550	0.001676	28.11	0.035913	0.001940	18.5118	-166.671	-165.759	-0.037567	0.281215	-0.744776	-0.746102	0.017577	18.5118	-0.745489	-8.162087E+9	-2.153447E-12	NaN
3.000000	1.000000	0.290555	7.36507e+06	-38789.1	955.818	-29797	0.000000	0.000000	6.290882	0.025562	NaN	0.000000	0.001563	0.001678	28.1108	0.145981	0.002024	72.1162	-77.6112	-165.522	0.047824	0.289222	-0.736762	-0.738095	0.025562	72.1162	-0.737027	-6.259867E+9	-4.083510E-12	NaN
3.000000	1.000000	0.298549	7.36507e+06	-38789.1	955.818	-29797	0.000000	0.000000	6.298872	-0.054285	NaN	0.000000	0.001526	0.001661	28.1114	0.068415	0.002152	31.7963	-84.2368	-161.604	-0.067508	0.297238	-0.728768	-0.730079	-0.054285	31.7963	-0.727488	-4.640500E+9	1.169811E-11	NaN
3.000000	1.000000	0.306550	7.36507e+06	-38789.1	955.819	-29797	0.000000	0.000000	6.306875	-0.016595	NaN	0.000000	0.001560	0.001668	28.1117	0.069342	0.002044	33.9281	43.9183	-165.113	-0.040293	0.305265	-0.720767	-0.722052	-0.016595	33.9281	-0.720400	-3.714701E+9	4.467519E-12	NaN
3.000000	1.000000	0.314558	7.36507e+06	-38789.1	955.818	-29797	0.000000	0.000000	6.314885	0.022066	NaN	0.000000	0.001588	0.001631	28.112	0.069899	0.001856	37.671	-128.015	-165.548	0.043238	0.313211	-0.712759	-0.714106	0.022066	37.671	-0.713198	-2.962708E+9	-7.448020E-12	NaN
3.000000	1.000000	0.322543	7.36507e+06	-38789.1	955.818	-29797	0.000000	0.000000	6.322868	-0.011085	NaN	0.000000	0.001592	0.001630	28.1118	0.041016	0.002085	19.6745	46.9598	-163.382	-0.030503	0.321218	-0.704774	-0.706099	-0.011085	19.6745	-0.704351	-2.243589E+9	4.940561E-12	NaN
3.000000	1.000000	0.330543	7.36507e+06	-38789.1	955.818	-29797	0.000000	0.000000	6.330870	0.044891	NaN	0.000000	0.001566	0.001673	28.1128	0.075682	0.002098	36.065	-49.4578	-165.767	0.031535	0.329292	-0.696774	-0.698025	0.044891	36.065	-0.697708	-1.820633E+9	-2.465682E-11	NaN
3.000000	1.000000	0.338554	7.36507e+06	-38789.1	955.818	-29797	0.000000	0.000000	6.338877	-0.067300	NaN	0.000000	0.001613	0.001686	28.1124	0.083799	0.001960	42.7581	160.53	-164.016	-0.022514	0.337233	-0.688763	-0.690084	-0.067300	42.7581	-0.687582	-1.323963E+9	5.083204E-11	NaN
3.000000	1.000000	0.346568	7.36507e+06	-38789.1	955.818	-29797	0.000000	0.000000	6.346893	-0.027705	NaN	0.000000	0.001565	0.001712	28.1122	0.021812	0.001997	10.9243	48.0166	-166.99	-0.022599	0.345302	-0.680749	-0.682015	-0.027705	10.9243	-0.678847	-1.005613E+9	2.755006E-11	NaN
3.000000	1.000000	0.354558	7.36507e+06	-38789.1	955.819	-29797	0.000000	0.000000	6.354883	-0.016660	NaN	0.000000	0.001575	0.001712	28.1114	0.051932	0.002072	25.0582	122.735	-162.488	0.064225	0.353257	-0.672759	-0.674060	-0.016660	25.0582	-0.672260	-8.171955E+8	2.038668E-11	NaN
3.000000	1.000000	0.362580	7.36507e+06	-38789.1	955.818	-29797	0.000000	0.000000	6.362909	0.080890	NaN	0.000000	0.001583	0.001668	28.1106	0.042058	0.002012	20.9043	119.053	-164.412	0.088718	0.361314	-0.664737	-0.666003	0.080890	20.9043	-0.667639	-7.064374E+8	-1.145039E-10	NaN
3.000000	1.000000	0.370581	7.36507e+06	-38789.1	955.82	-29797	0.000000	0.000000	6.370904	-0.079553	NaN	0.000000	0.001552	0.001677	28.1115	0.111174	0.001935	57.4502	-75.5352	-165.121	0.029274	0.369248	-0.656736	-0.658069	-0.079553	57.4502	-0.655697	-4.847518E+8	1.641110E-10	NaN
3.000000	1.000000	0.378567	7.36507e+06	-38789.1	955.818	-29797	0.000000	0.000000	6.378895	0.062175	NaN	0.000000	0.001604	0.001651	28.111	0.058506	0.002036	28.7356	95.1851	-159.595	0.025158	0.377216	-0.648750	-0.650101	0.062175	28.7356	-0.650372	-4.097726E+8	-1.517298E-10	NaN
3.000000	1.000000	0.386576	7.36507e+06	-38789.1	955.819	-29797	0.000000	0.000000	6.386903	0.027727	NaN	0.000000	0.001622	0.001703	28.1113	0.079838	0.001808	44.1577	170.13	-163.364	0.127641	0.385250	-0.640741	-0.642067	0.027727	44.1577	-0.641212	-3.068407E+8	-9.036174E-11	NaN
3.000000	1.000000	0.394569	7.36507e+06	-38789.1	955.818	-29797	0.000000	0.000000	6.394897	0.048313	NaN	0.000000	0.001588	0.001694	28.1126	0.092718	0.001906	48.656	153.791	-166.058	0.027894	0.393297	-0.632748	-0.634020	0.048313	48.656	-0.633493	-2.404255E+8	-2.009499E-10	NaN
3.000000	1.000000	0.402608	7.36507e+06	-38789.1	955.817	-29797	0.000000	0.000000	6.402933	-0.017920	NaN	0.000000	0.001595	0.001703	28.1117	0.030328	0.002153	14.0897	-150.25	-163.138	0.013250	0.401286	-0.624709	-0.626031	-0.017920	14.0897	-0.623755	-1.767003E+8	1.014149E-10	NaN
3.000000	1.000000	0.410556	7.36507e+06	-38789.1	955.818	-29797	0.000000	0.000000	6.410881	-0.003525	NaN	0.000000	0.001600	0.001668	28.1119	0.123162	0.002015	61.1325	145.216	-164.383	-0.015828	0.409285	-0.616761	-0.618032	-0.003525	61.1325	-0.616718	-1.414203E+8	2.492345E-11	NaN
3.000000	1.000000	0.418599	7.36507e+06	-38789.1	955.818	-29797	0.000000	0.000000	6.418924	-0.021539	NaN	0.000000	0.001583	0.001684	28.1119	0.094455	0.001903	49.6338	143.481	-164.187	-0.033930	0.417318	-0.608718	-0.609999	-0.021539	49.6338	-0.608393	-1.086420E+8	1.982576E-10	NaN
3.000000	1.000000	0.426596	7.36507e+06	-38789.1	955.819	-29797	0.000000	0.000000	6.426921	-0.016578	NaN	0.000000	0.001624	0.001706	28.1116	0.033568	0.002035	16.4967	146.107	-166.687	-0.013876	0.425288	-0.600721	-0.602029	-0.016578	16.4967	-0.599967	-8.317777E+7	1.993095E-10	NaN
3.000000	1.000000	0.434614	7.36507e+06	-38789.1	955.817	-29797	0.000000	0.000000	6.434943	0.079696	NaN	0.000000	0.001584	0.001709	28.1094	0.116318	0.001985	58.6003	-142.084	-164.954	0.076106	0.433285	-0.592703	-0.594032	0.079696	58.6003	-0.593723	-6.823149E+7	-1.168023E-9	NaN
3.000000	1.000000	0.442611	7.36508e+06	-38789.1	955.818	-29797	0.000000	0.000000	6.442936	-0.014549	NaN	0.000000	0.001620	0.001675	28.1097	0.055250	0.002182	25.3231	-36.3175	-166.594	-0.010916	0.441299	-0.584706	-0.586018	-0.014549	25.3231	-0.584275	-5.054931E+7	2.878081E-10	NaN
3.000000	1.000000	0.450582	7.36508e+06	-38789.1	955.818	-29797	0.000000	0.000000	6.450908	0.002689	NaN	0.000000	0.001573	0.001704	28.1089	0.083999	0.001995	42.1107	-41.9099	-164.819	0.021720	0.449330	-0.576734	-0.577987	0.002689	42.1107	-0.576782	-3.983898E+7	-6.749400E-11	NaN
3.000000	1.000000	0.458597	7.36508e+06	-38789.1	955.819	-29797	0.000000	0.000000	6.458926	0.053942	NaN	0.000000	0.001569	0.001672	28.1095	0.080511	0.001968	40.9147	-7.304388	-165.047	0.082660	0.457264	-0.568719	-0.570052	0.053942	40.9147	-0.569708	-3.181254E+7	-1.695612E-9	NaN
3.000000	1.000000	0.466637	7.36508e+06	-38789.1	955.818	-29797	0.000000	0.000000	6.466963	0.000100	NaN	0.000000	0.001574	0.001713	28.1084	0.034588	0.001813	19.0802	-130.602	-161.361	-0.058806	0.465296	-0.560680	-0.562021	0.000100	19.0802	-0.560684	-2.386918E+7	-4.202287E-12	NaN
3.000000	1.000000	0.474612	7.36508e+06	-38789.1	955.818	-29797	0.000000	0.000000	6.474942	0.103235	NaN	0.000000	0.001522	0.001702	28.11	0.039154	0.001948	20.0998	76.3669	-161.972	0.046299	0.473319	-0.552705	-0.553997	0.103235	20.0998	-0.556557	-2.092851E+7	-4.932733E-9	NaN
3.000000	1.000000	0.482628	7.36508e+06	-38789.1	955.818	-29797	0.000000	0.000000	6.482954	-0.002928	NaN	0.000000	0.001571	0.001681	28.1094	0.064649	0.002047	31.5901	116.733	-166.844	0.040586	0.481323	-0.544688	-0.545993	-0.002928	31.5901	-0.544619	-1.430206E+7	2.046943E-10	NaN
3.000000	1.000000	0.490595	7.36508e+06	-38789.1	955.818	-29797	0.000000	0.000000	6.490922	0.017350	NaN	0.000000	0.001579	0.001714	28.1104	0.028228	0.002006	14.0683	45.9367	-164.987	0.039645	0.489331	-0.536722	-0.537986	0.017350	14.0683	-0.537647	-1.144764E+7	-1.515589E-9	NaN
3.000000	1.000000	0.498646	7.36508e+06	-38789.1	955.819	-29797	0.000000	0.000000	6.498973	0.026978	NaN	0.000000	0.001598	0.001689	28.1099	0.133783	0.001948	68.6934	-162.652	-165.063	0.020549	0.497330	-0.528671	-0.529986	0.026978	68.6934	-0.528965	-8.67367e+06	-3.110390E-9	NaN
3.000000	1.000000	0.506623	7.36508e+06	-38789.1	955.818	-29797	0.000000	0.000000	6.506948	-0.025449	NaN	0.000000	0.001577	0.001691	28.1104	0.020581	0.001929	10.6698	40.0542	-164.813	0.002364	0.505314	-0.520694	-0.522003	-0.025449	10.6698	-0.518905	-6.28591e+06	4.048621E-9	NaN
3.000000	1.000000	0.514611	7.36508e+06	-38789.1	955.819	-29797	0.000000	0.000000	6.514938	0.018368	NaN	0.000000	0.001613	0.001703	28.1088	0.114011	0.001969	57.9133	67.1605	-167.75	-0.028384	0.513320	-0.512706	-0.513996	0.018368	57.9133	-0.512944	-5.19287e+06	-3.537147E-9	NaN
3.000000	1.000000	0.522611	7.36508e+06	-38789.1	955.818	-29797	0.000000	0.000000	6.522938	0.017361	NaN	0.000000	0.001571	0.001673	28.1083	0.017814	0.002006	8.881538	91.2739	-163.774	-0.010091	0.521324	-0.504706	-0.505993	0.017361	8.881538	-0.506172	-4.17905e+06	-4.154407E-9	NaN
3.000000	1.000000	0.530606	7.36508e+06	-38789.1	955.819	-29797	0.000000	0.000000	6.530930	-0.032954	NaN	0.000000	0.001571	0.001706	28.1091	0.052002	0.001954	26.6192	-81.5691	-165.527	-0.016943	0.529336	-0.496711	-0.497980	-0.032954	26.6192	-0.495783	-2.99338e+06	1.100883E-8	NaN
3.000000	1.000000	0.538624	7.36508e+06	-38789.1	955.818	-29797	0.000000	0.000000	6.538951	0.029190	NaN	0.000000	0.001571	0.001700	28.1078	0.070379	0.002066	34.0653	69.5127	-165.001	0.014379	0.537354	-0.488693	-0.489962	0.029190	34.0653	-0.489335	-2.43279e+06	-1.199841E-8	NaN
3.000000	1.000000	0.546648	7.36508e+06	-38789.1	955.818	-29797	0.000000	0.000000	6.546974	-0.005833	NaN	0.000000	0.001569	0.001705	28.1083	0.142308	0.002050	69.4223	20.9742	-163.176	-0.008853	0.545355	-0.480669	-0.481961	-0.005833	69.4223	-0.480606	-1.83657e+06	3.175941E-9	NaN
3.000000	1.000000	0.554638	7.36508e+06	-38789.1	955.818	-29797	0.000000	0.000000	6.554962	-0.034475	NaN	0.000000	0.001598	0.001678	28.1103	0.098245	0.001952	50.3272	-63.8863	-167.127	0.048861	0.553322	-0.472679	-0.473995	-0.034475	50.3272	-0.472165	-1.39884e+06	2.464540E-8	NaN
3.000000	1.000000	0.562639	7.36508e+06	-38789.1	955.818	-29797	0.000000	0.000000	6.562967	0.057731	NaN	0.000000	0.001600	0.001720	28.1093	0.057763	0.001902	30.3635	-124.579	-164.264	0.030031	0.561371	-0.464678	-0.465946	0.057731	30.3635	-0.466104	-1.15013e+06	-5.019512E-8	NaN
3.000000	1.000000	0.570644	7.36508e+06	-38789.1	955.818	-29797	0.000000	0.000000	6.570969	-0.017086	NaN	0.000000	0.001557	0.001721	28.1107	0.094267	0.001863	50.5981	75.3682	-165.343	0.048226	0.569335	-0.456673	-0.457982	-0.017086	50.5981	-0.456420	-840783	2.032202E-8	NaN
3.000000	1.000000	0.578662	7.36508e+06	-38789.1	955.818	-29797	0.000000	0.000000	6.578989	0.020348	NaN	0.000000	0.001589	0.001696	28.1106	0.117844	0.002124	55.493	-27.9295	-167.224	-0.001921	0.577375	-0.448655	-0.449942	0.020348	55.493	-0.448930	-659585	-3.085000E-8	NaN
3.000000	1.000000	0.586644	7.36508e+06	-38789.1	955.818	-29797	0.000000	0.000000	6.586970	-0.008164	NaN	0.000000	0.001568	0.001673	28.1104	0.122182	0.002046	59.7138	46.3662	-165.354	-0.022605	0.585385	-0.440672	-0.441932	-0.008164	59.7138	-0.440570	-502811	1.623741E-8	NaN
3.000000	1.000000	0.594669	7.36508e+06	-38789.1	955.818	-29797	0.000000	0.000000	6.594994	-0.020496	NaN	0.000000	0.001600	0.001681	28.1097	0.124500	0.001910	65.1747	62.1505	-164.752	0.007928	0.593347	-0.432648	-0.433970	-0.020496	65.1747	-0.432412	-385637	5.314863E-8	NaN
3.000000	1.000000	0.602672	7.36508e+06	-38789.1	955.817	-29797	0.000000	0.000000	6.602999	0.050708	NaN	0.000000	0.001595	0.001652	28.1093	0.156137	0.001986	78.6078	-115.762	-165.039	-0.031415	0.601339	-0.424645	-0.425977	0.050708	78.6078	-0.425129	-304166	-1.667127E-7	NaN
3.000000	1.000000	0.610675	7.36508e+06	-38789.1	955.818	-29797	0.000000	0.000000	6.611000	-0.037469	NaN	0.000000	0.001574	0.001707	28.1088	0.072438	0.002066	35.0673	153.536	-163.562	-0.115281	0.609379	-0.416642	-0.417937	-0.037469	35.0673	-0.415840	-224587	1.668358E-7	NaN
3.000000	1.000000	0.618682	7.36508e+06	-38789.1	955.818	-29797	0.000000	0.000000	6.619008	-0.001155	NaN	0.000000	0.001572	0.001733	28.1095	0.071303	0.001987	35.8813	-152.438	-163.838	0.027458	0.617418	-0.408635	-0.409899	-0.001155	35.8813	-0.408611	-177272	6.517375E-9	NaN
3.000000	1.000000	0.626668	7.36508e+06	-38789.1	955.818	-29797	0.000000	0.000000	6.626991	-0.059537	NaN	0.000000	0.001590	0.001716	28.1095	0.017851	0.001937	9.215912	116.893	-163.278	-0.069851	0.625381	-0.400649	-0.401936	-0.059537	9.215912	-0.395804	-116442	5.113030E-7	NaN
3.000000	1.000000	0.634676	7.36508e+06	-38789.1	955.818	-29797	0.000000	0.000000	6.635002	0.008738	NaN	0.000000	0.001590	0.001753	28.111	0.016001	0.001952	8.196223	-162.24	-163.252	-0.045056	0.633406	-0.392640	-0.393911	0.008738	8.196223	-0.393440	-107733	-8.111036E-8	NaN
3.000000	1.000000	0.642692	7.36508e+06	-38789.1	955.818	-29797	0.000000	0.000000	6.643018	-0.012330	NaN	0.000000	0.001604	0.001738	28.1113	0.123394	0.002018	61.1589	-131.071	-164.581	-0.001656	0.641407	-0.384624	-0.385910	-0.012330	61.1589	-0.384473	-80174.5	1.537885E-7	NaN
3.000000	1.000000	0.650689	7.36508e+06	-38789.1	955.819	-29797	0.000000	0.000000	6.651018	0.084834	NaN	0.000000	0.001603	0.001758	28.1102	0.019199	0.001967	9.761850	-71.592	-166.247	0.069036	0.649411	-0.376628	-0.377906	0.084834	9.761850	-0.383145	-76737.2	-1.105513E-6	NaN
3.000000	1.000000	0.658731	7.36508e+06	-38789.1	955.818	-29797	0.000000	0.000000	6.659056	-0.009274	NaN	0.000000	0.001621	0.001765	28.1108	0.105091	0.001982	53.0223	-96.3408	-168.411	-0.042002	0.657397	-0.368586	-0.369920	-0.009274	53.0223	-0.368455	-47191.6	1.965286E-7	NaN
3.000000	1.000000	0.666695	7.36508e+06	-38789.1	955.818	-29797	0.000000	0.000000	6.667022	0.042910	NaN	0.000000	0.001606	0.001763	28.1105	0.107841	0.001987	54.2801	-13.0025	-166.048	0.047023	0.665403	-0.360622	-0.361913	0.042910	54.2801	-0.361215	-37102.8	-1.156515E-6	NaN
3.000000	1.000000	0.674712	7.36508e+06	-38789.1	955.818	-29797	0.000000	0.000000	6.675036	-0.045711	NaN	0.000000	0.001588	0.001740	28.1095	0.065880	0.002044	32.2267	-179.167	-166.726	0.005160	0.673407	-0.352605	-0.353910	-0.045711	32.2267	-0.351541	-26876.1	1.700810E-6	NaN
3.000000	1.000000	0.682710	7.36508e+06	-38789.1	955.819	-29797	0.000000	0.000000	6.683035	-0.018169	NaN	0.000000	0.001548	0.001756	28.1086	0.106328	0.002081	51.0965	-11.6355	-164.488	-0.017250	0.681392	-0.344607	-0.345925	-0.018169	51.0965	-0.344340	-21123.3	8.601180E-7	NaN
3.000000	1.000000	0.690705	7.36508e+06	-38789.1	955.819	-29797	0.000000	0.000000	6.691034	0.068086	NaN	0.000000	0.001585	0.001791	28.1091	0.098027	0.002102	46.6352	-147.231	-163.452	0.019527	0.689375	-0.336611	-0.337942	0.068086	46.6352	-0.337706	-16908.4	-4.026732E-6	NaN
3.000000	1.000000	0.698708	7.36508e+06	-38789.1	955.818	-29797	0.000000	0.000000	6.699035	0.040315	NaN	0.000000	0.001520	0.001765	28.1091	0.053188	0.001851	28.7389	-155.74	-164.595	0.010519	0.697388	-0.328609	-0.329928	0.040315	28.7389	-0.329661	-12896.9	-3.125926E-6	NaN
3.000000	1.000000	0.706706	7.36508e+06	-38789.1	955.818	-29797	0.000000	0.000000	6.707031	-0.025665	NaN	0.000000	0.001558	0.001749	28.1084	0.035970	0.002032	17.7049	-57.9468	-165.476	0.008991	0.705362	-0.320611	-0.321955	-0.025665	17.7049	-0.319524	-9154.3	2.803571E-6	NaN
3.000000	1.000000	0.714718	7.36508e+06	-38789.1	955.818	-29797	0.000000	0.000000	6.715046	0.050100	NaN	0.000000	0.001572	0.001757	28.1098	0.073837	0.002044	36.1297	-118.022	-165.183	0.003474	0.713385	-0.312599	-0.313932	0.050100	36.1297	-0.313639	-7496.39	-6.683170E-6	NaN
3.000000	1.000000	0.722745	7.36508e+06	-38789.1	955.818	-29797	0.000000	0.000000	6.723072	0.008698	NaN	0.000000	0.001625	0.001749	28.1086	0.092458	0.002014	45.9087	115.628	-167.493	-0.019271	0.721418	-0.304571	-0.305898	0.008698	45.9087	-0.304714	-5529.72	-1.572926E-6	NaN
3.000000	1.000000	0.730717	7.36508e+06	-38789.1	955.819	-29797	0.000000	0.000000	6.731043	0.015217	NaN	0.000000	0.001641	0.001735	28.1084	0.027833	0.001800	15.4588	88.1319	-165.799	0.034730	0.729387	-0.296600	-0.297929	0.015217	15.4588	-0.297338	-4295.13	-3.542819E-6	NaN
3.000000	1.000000	0.738725	7.36508e+06	-38789.1	955.819	-29797	0.000000	0.000000	6.739051	-0.008173	NaN	0.000000	0.001647	0.001730	28.1085	0.067099	0.001946	34.4815	-166.354	-166.577	-0.014288	0.737368	-0.288591	-0.289949	-0.008173	34.4815	-0.288414	-3158.81	2.587351E-6	NaN
3.000000	1.000000	0.746737	7.36508e+06	-38789.1	955.818	-29797	0.000000	0.000000	6.747062	-0.021309	NaN	0.000000	0.001654	0.001707	28.1083	0.125799	0.001973	63.7486	112.885	-166.04	-0.053533	0.745444	-0.280580	-0.281873	-0.021309	63.7486	-0.280329	-2387.44	8.925350E-6	NaN
3.000000	1.000000	0.754752	7.36508e+06	-38789.1	955.819	-29797	0.000000	0.000000	6.755078	0.019765	NaN	0.000000	0.001572	0.001745	28.1075	0.120094	0.001949	61.6203	-43.3384	-164.307	-0.021094	0.753442	-0.272565	-0.273874	0.019765	61.6203	-0.272806	-1837.16	-1.075867E-5	NaN
3.000000	1.000000	0.762682	7.36508e+06	-38789.1	955.818	-29797	0.000000	0.000000	6.763007	-0.014513	NaN	0.000000	0.001580	0.001748	28.1073	0.037088	0.002016	18.3946	163.029	-163.247	-0.032986	0.761434	-0.264635	-0.265883	-0.014513	18.3946	-0.264043	-1351.37	1.073935E-5	NaN
3.000000	1.000000	0.770740	7.36508e+06	-38789.1	955.818	-29797	0.000000	0.000000	6.771066	0.001780	NaN	0.000000	0.001594	0.001757	28.1077	0.024472	0.001980	12.3568	179.625	-165.447	0.038495	0.769441	-0.256577	-0.257876	0.001780	12.3568	-0.256685	-1042.4	-1.707938E-6	NaN
3.000000	1.000000	0.778756	7.36508e+06	-38789.1	955.818	-29797	0.000000	0.000000	6.779083	0.022059	NaN	0.000000	0.001551	0.001757	28.107	0.042484	0.001960	21.677	15.3962	-162.656	0.015554	0.777444	-0.248561	-0.249873	0.022059	21.677	-0.249324	-802.618	-2.748330E-5	NaN
3.000000	1.000000	0.786752	7.36508e+06	-38789.1	955.818	-29797	0.000000	0.000000	6.787079	0.018934	NaN	0.000000	0.001597	0.001716	28.1059	0.041956	0.002107	19.9103	89.1026	-166.208	0.044424	0.785444	-0.240565	-0.241873	0.018934	19.9103	-0.241278	-601.871	-3.145923E-5	NaN
3.000000	1.000000	0.794738	7.36508e+06	-38789.1	955.818	-29797	0.000000	0.000000	6.795065	0.033150	NaN	0.000000	0.001563	0.001729	28.1085	0.063096	0.002029	31.0973	-166.92	-161.618	0.087737	0.793448	-0.232579	-0.233868	0.033150	31.0973	-0.233378	-452.649	-7.323501E-5	NaN
3.000000	1.000000	0.802747	7.36508e+06	-38789.1	955.818	-29797	0.000000	0.000000	6.803074	0.029459	NaN	0.000000	0.001588	0.001722	28.1085	0.058453	0.001928	30.3234	160.28	-162.944	0.096063	0.801444	-0.224570	-0.225873	0.029459	30.3234	-0.225298	-337.344	-8.732572E-5	NaN
3.000000	1.000000	0.810750	7.36508e+06	-38789.1	955.818	-29797	0.000000	0.000000	6.811074	-0.050762	NaN	0.000000	0.001580	0.001718	28.1076	0.083038	0.002116	39.2437	-166.578	-168.779	0.019200	0.809462	-0.216567	-0.217855	-0.050762	39.2437	-0.215597	-236.105	0.000215	NaN
3.000000	1.000000	0.818765	7.36508e+06	-38789.1	955.818	-29797	0.000000	0.000000	6.819088	-0.072888	NaN	0.000000	0.001592	0.001725	28.1088	0.055640	0.002066	26.9288	-131.244	-166.713	-0.079658	0.817477	-0.208552	-0.209839	-0.072888	26.9288	-0.206522	-168.403	0.000433	NaN
3.000000	1.000000	0.826770	7.36508e+06	-38789.1	955.818	-29797	0.000000	0.000000	6.827098	0.041960	NaN	0.000000	0.001567	0.001742	28.109	0.155350	0.001986	78.2072	-31.2165	-164.429	0.078466	0.825464	-0.200546	-0.201853	0.041960	78.2072	-0.200949	-136.547	-0.000307	NaN
3.000000	1.000000	0.834796	7.36508e+06	-38789.1	955.817	-29797	0.000000	0.000000	6.835122	0.005073	NaN	0.000000	0.001577	0.001748	28.1066	0.032769	0.001985	16.5109	-106.095	-162.684	0.054492	0.833464	-0.192521	-0.193853	0.005073	16.5109	-0.192751	-99.9715	-5.074637E-5	NaN
3.000000	1.000000	0.842753	7.36508e+06	-38789.1	955.818	-29797	0.000000	0.000000	6.843079	-0.007981	NaN	0.000000	0.001554	0.001742	28.1089	0.068714	0.001937	35.4685	79.228	-168.722	-0.020626	0.841458	-0.184564	-0.185859	-0.007981	35.4685	-0.184395	-72.4312	0.000110	NaN
3.000000	1.000000	0.850759	7.36508e+06	-38789.1	955.818	-29797	0.000000	0.000000	6.851085	-0.001005	NaN	0.000000	0.001579	0.001738	28.1085	0.040414	0.001999	20.2223	-13.7234	-165.536	0.039640	0.849428	-0.176558	-0.177888	-0.001005	20.2223	-0.176521	-53.2191	1.887613E-5	NaN
3.000000	1.000000	0.858787	7.36508e+06	-38789.1	955.819	-29797	0.000000	0.000000	6.859113	0.001987	NaN	0.000000	0.001612	0.001733	28.1083	0.045482	0.002044	22.2498	-178.279	-166.241	-0.012546	0.857471	-0.168530	-0.169846	0.001987	22.2498	-0.168597	-38.8336	-5.115795E-5	NaN
3.000000	1.000000	0.866786	7.36508e+06	-38789.1	955.818	-29797	0.000000	0.000000	6.867111	-0.030923	NaN	0.000000	0.001601	0.001729	28.1079	0.088600	0.002068	42.8477	-63.8428	-163.2	-0.004445	0.865491	-0.160531	-0.161826	-0.030923	42.8477	-0.159989	-27.4029	0.001128	NaN
3.000000	1.000000	0.874774	7.36508e+06	-38789.1	955.819	-29797	0.000000	0.000000	6.875101	0.031852	NaN	0.000000	0.001551	0.001756	28.1088	0.019207	0.002088	9.200122	138.134	-163.607	-0.088628	0.873448	-0.152543	-0.153869	0.031852	9.200122	-0.155139	-22.4432	-0.001419	NaN
3.000000	1.000000	0.882808	7.36508e+06	-38789.1	955.818	-29797	0.000000	0.000000	6.883135	0.037257	NaN	0.000000	0.001542	0.001754	28.1099	0.029038	0.001825	15.9138	-118.889	-163.14	0.057941	0.881475	-0.144509	-0.145842	0.037257	15.9138	-0.146265	-15.471	-0.002408	NaN
3.000000	1.000000	0.890796	7.36508e+06	-38789.1	955.818	-29797	0.000000	0.000000	6.891121	-0.028513	NaN	0.000000	0.001561	0.001769	28.1088	0.023901	0.001954	12.2332	11.9667	-166.818	0.015067	0.889448	-0.136521	-0.137869	-0.028513	12.2332	-0.134773	-9.417738	0.003028	NaN
3.000000	1.000000	0.898796	7.36508e+06	-38789.1	955.818	-29797	0.000000	0.000000	6.899122	0.003400	NaN	0.000000	0.001598	0.001746	28.1084	0.077437	0.001951	39.701	101.916	-163.406	0.072424	0.897529	-0.128521	-0.129788	0.003400	39.701	-0.128585	-7.152490	-0.000475	NaN
3.000000	1.000000	0.906768	7.36508e+06	-38789.1	955.819	-29797	0.000000	0.000000	6.907094	0.003236	NaN	0.000000	0.001601	0.001715	28.109	0.076399	0.002023	37.7583	-79.401	-166.366	-0.030259	0.905529	-0.120549	-0.121788	0.003236	37.7583	-0.120613	-4.971011	-0.000651	NaN
3.000000	1.000000	0.914801	7.36508e+06	-38789.1	955.819	-29797	0.000000	0.000000	6.915126	-0.020046	NaN	0.000000	0.001626	0.001763	28.108	0.119399	0.002019	59.1359	-85.0889	-165.171	-0.022784	0.913519	-0.112516	-0.113798	-0.020046	59.1359	-0.112262	-3.352102	0.005980	NaN
3.000000	1.000000	0.922799	7.36508e+06	-38789.1	955.819	-29797	0.000000	0.000000	6.923127	0.037957	NaN	0.000000	0.001619	0.001711	28.1081	0.067655	0.001965	34.4338	174.563	-160.88	-0.033823	0.921480	-0.104518	-0.105837	0.037957	34.4338	-0.105344	-2.391133	-0.015874	NaN
3.000000	1.000000	0.930830	7.36508e+06	-38789.1	955.819	-29797	0.000000	0.000000	6.931156	0.024627	NaN	0.000000	0.001636	0.001696	28.1077	0.068432	0.001875	36.5044	69.3253	-167.257	-0.067905	0.929433	-0.096487	-0.097884	0.024627	36.5044	-0.096993	-1.565225	-0.015734	NaN
3.000000	1.000000	0.938815	7.36508e+06	-38789.1	955.819	-29797	0.000000	0.000000	6.939142	0.046714	NaN	0.000000	0.001677	0.001709	28.1079	0.061932	0.001957	31.6422	161.208	-165.139	-0.004963	0.937449	-0.088502	-0.089868	0.046714	31.6422	-0.089609	-1.058376	-0.044138	NaN
3.000000	1.000000	0.946799	7.36508e+06	-38789.1	955.819	-29797	0.000000	0.000000	6.947125	0.018400	NaN	0.000000	0.001694	0.001706	28.1079	0.046470	0.002085	22.2884	-174.232	-162.552	-0.016743	0.945490	-0.080518	-0.081826	0.018400	22.2884	-0.081137	-0.660716	-0.027848	NaN
3.000000	1.000000	0.954800	7.36508e+06	-38789.1	955.819	-29797	0.000000	0.000000	6.955126	0.010661	NaN	0.000000	0.001692	0.001717	28.1086	0.048784	0.002041	23.8967	-124.567	-166.529	0.014154	0.953446	-0.072517	-0.073871	0.010661	23.8967	-0.072852	-0.406001	-0.026259	NaN
3.000000	1.000000	0.962847	7.36508e+06	-38789.1	955.818	-29797	0.000000	0.000000	6.963174	0.016237	NaN	0.000000	0.001671	0.001721	28.108	0.044021	0.002153	20.4447	1.855343	-162.368	0.024919	0.961477	-0.064469	-0.065840	0.016237	20.4447	-0.065065	-0.250254	-0.064883	NaN
3.000000	1.000000	0.970835	7.36508e+06	-38789.1	955.818	-29797	0.000000	0.000000	6.971159	-0.043803	NaN	0.000000	0.001687	0.001706	28.108	0.109271	0.002099	52.0484	-78.6788	-165.317	-0.058667	0.969522	-0.056482	-0.057795	-0.043803	52.0484	-0.055851	-0.136435	0.321052	NaN
3.000000	1.000000	0.978839	7.36508e+06	-38789.1	955.818	-29797	0.000000	0.000000	6.979165	-0.002621	NaN	0.000000	0.001679	0.001694	28.1071	0.131109	0.001818	72.1345	-141.683	-164.458	0.011435	0.977525	-0.048478	-0.049792	-0.002621	72.1345	-0.048451	-0.081895	0.032007	NaN
3.000000	1.000000	0.986844	7.36508e+06	-38789.1	955.818	-29797	0.000000	0.000000	6.987172	0.054790	NaN	0.000000	0.001698	0.001722	28.1078	0.032679	0.002077	15.7346	-176.249	-162.861	0.034748	0.985513	-0.040473	-0.041804	0.054790	15.7346	-0.043085	-0.056159	-0.975622	NaN
3.000000	1.000000	0.994835	7.36508e+06	-38789.1	955.819	-29797	0.000000	0.000000	6.995159	-0.036229	NaN	0.000000	0.001646	0.001748	28.1057	0.088628	0.002126	41.695	-163.561	-162.686	-0.032743	0.993552	-0.032482	-0.033765	-0.036229	41.695	-0.031830	-0.025916	1.397933	NaN
3.000000	1.000000	1.002833	7.36508e+06	-38789.1	955.818	-29797	0.000000	0.000000	7.003158	-0.031531	NaN	0.000000	0.001637	0.001732	28.1059	0.048379	0.001943	24.893	23.0296	-167.123	-0.034638	1.001551	-0.024484	-0.025765	-0.031531	24.893	-0.023534	-0.015457	2.039994	NaN
3.000000	1.000000	1.010808	7.36508e+06	-38789.1	955.818	-29797	0.000000	0.000000	7.011134	2.714467E-5	NaN	0.000000	0.001613	0.001742	28.1055	0.111751	0.002051	54.4813	40.8876	-165.491	-0.010535	1.009552	-0.016509	-0.017765	2.714467E-5	54.4813	-0.016509	-0.010200	-0.002661	NaN
3.000000	1.000000	1.018870	7.36508e+06	-38789.1	955.818	-29797	0.000000	0.000000	7.019196	0.019739	NaN	0.000000	0.001613	0.001742	28.1056	0.133938	0.002065	64.8708	-7.840947	-164.661	0.008005	1.017554	-0.008447	-0.009763	0.019739	64.8708	-0.008675	-0.005625	-3.509087	NaN
3.000000	1.000000	1.026846	7.36508e+06	-38789.1	955.819	-29797	0.000000	0.000000	7.027178	0.169299	NaN	0.000000	0.001579	0.001739	28.106	0.382493	0.001893	202.013	20.6542	-165.368	-0.021094	1.025521	-0.000471	-0.001796	0.169299	202.013	-0.001100	-0.000805	-210.385	NaN
3.000000	1.000000	1.034673	7.36508e+06	-38789.1	955.818	-29797	0.000000	0.000000	7.035357	8.700138	NaN	0.000000	0.001609	0.001716	28.1061	7.803923	0.001570	4971.92	9.304646	-170.352	6.764448	1.033480	0.007356	0.006163	8.700138	4971.92	0.006044	0.005106	1703.76	63568
3.000000	2.000000	1.037379	7.36508e+06	-38789.1	955.818	-29797	0.000000	0.000000	7.038168	11.2788	NaN	0.000000	0.001614	0.001694	28.1068	11.1158	0.001742	6379.28	8.645282	-175.54	10.699	1.037038	0.010062	0.009722	11.2788	6379.28	0.008736	0.007810	1444.12	65950.1
3.000000	2.000000	1.039359	7.36508e+06	-38789.1	955.818	-29797	0.000000	0.000000	7.040235	13.3789	NaN	0.000000	0.001630	0.001702	28.1068	12.5155	0.001546	8093.07	6.481554	-175.704	13.2969	1.039072	0.012042	0.011755	13.3789	8093.07	0.010802	0.010087	1326.38	73622.4
3.000000	2.000000	1.041306	7.36508e+06	-38789.1	955.819	-29797	0.000000	0.000000	7.042395	18.5769	NaN	0.000000	0.001625	0.001686	28.1063	14.8994	0.001770	8416.8	5.793428	-172.815	17.6288	1.041008	0.013989	0.013692	18.5769	8416.8	0.012334	0.011892	1562.1	70516.1
3.000000	2.000000	1.043317	7.36508e+06	-38789.1	955.818	-29797	0.000000	0.000000	7.044482	20.4349	NaN	0.000000	0.001645	0.001683	28.1067	17.1138	0.001858	9210.21	5.855222	-172.934	19.6777	1.042992	0.016000	0.015675	20.4349	9210.21	0.014336	0.014410	1418.1	70098.6
3.000000	2.000000	1.045289	7.36508e+06	-38789.1	955.818	-29797	0.000000	0.000000	7.046599	23.9635	NaN	0.000000	0.001595	0.001656	28.1053	18.3526	0.001587	11564.2	10.6305	179.256	22.6824	1.045011	0.017972	0.017695	23.9635	11564.2	0.016418	0.017223	1391.37	80507.3
3.000000	2.000000	1.047310	7.36508e+06	-38789.1	955.818	-29797	0.000000	0.000000	7.048943	31.802	NaN	0.000000	0.001617	0.001699	28.1057	20.8165	0.001643	12672.4	2.300664	-174.468	31.1259	1.046954	0.019993	0.019637	31.802	12672.4	0.018111	0.019660	1617.57	82572.7
3.000000	2.000000	1.049240	7.36508e+06	-38789.1	955.819	-29797	0.000000	0.000000	7.050815	30.3823	NaN	0.000000	0.001601	0.001700	28.1063	21.5928	0.001786	12088.9	4.257306	-175.611	27.2582	1.048979	0.021924	0.021662	30.3823	12088.9	0.020039	0.022603	1344.17	73464.5
3.000000	2.000000	1.051323	7.36508e+06	-38789.1	955.819	-29797	0.000000	0.000000	7.052975	32.2561	NaN	0.000000	0.001620	0.001674	28.1051	24.4156	0.001800	13565.9	4.764805	-176.685	34.3243	1.050958	0.024007	0.023641	32.2561	13565.9	0.022223	0.026157	1233.16	76634.6
3.000000	2.000000	1.053310	7.36508e+06	-38789.1	955.819	-29797	0.000000	0.000000	7.055224	38.649	NaN	0.000000	0.001676	0.001687	28.1053	26.6795	0.001914	13936.3	6.547820	-177.948	38.0314	1.052976	0.025993	0.025659	38.649	13936.3	0.023913	0.029068	1329.62	74682
3.000000	2.000000	1.055226	7.36508e+06	-38789.1	955.818	-29797	0.000000	0.000000	7.057250	41.3205	NaN	0.000000	0.001672	0.001712	28.1078	27.6525	0.001781	15522.2	7.278452	179.595	40.5692	1.054963	0.027910	0.027646	41.3205	15522.2	0.025913	0.032698	1263.71	78427.1
3.000000	2.000000	1.057258	7.36508e+06	-38789.1	955.818	-29797	0.000000	0.000000	7.059478	46.0927	NaN	0.000000	0.001694	0.001690	28.1073	29.8572	0.001775	16820.3	7.168264	179.037	45.2434	1.056969	0.029941	0.029652	46.0927	16820.3	0.027886	0.036476	1263.64	80464.4
3.000000	2.000000	1.059237	7.36508e+06	-38789.1	955.819	-29797	0.000000	0.000000	7.061753	53.2976	NaN	0.000000	0.001654	0.001717	28.1089	31.3719	0.001833	17113.6	5.386739	-179.244	50.2839	1.058927	0.031921	0.031610	53.2976	17113.6	0.029585	0.039887	1336.2	78288.3
3.000000	2.000000	1.061269	7.36508e+06	-38789.1	955.818	-29797	0.000000	0.000000	7.064125	61.5661	NaN	0.000000	0.001676	0.001729	28.1075	33.7636	0.001857	18177.4	7.764008	178.826	61.2919	1.060883	0.033953	0.033566	61.5661	18177.4	0.031412	0.043722	1408.13	79424.7
3.000000	2.000000	1.063291	7.36508e+06	-38789.1	955.818	-29797	0.000000	0.000000	7.066372	67.0419	NaN	0.000000	0.001681	0.001716	28.1066	35.2663	0.001764	19991.1	5.006127	-179.683	66.7303	1.062910	0.035975	0.035593	67.0419	19991.1	0.033459	0.048219	1390.35	83176
3.000000	2.000000	1.065245	7.36508e+06	-38789.1	955.818	-29797	0.000000	0.000000	7.068499	71.2477	NaN	0.000000	0.001714	0.001741	28.1065	37.0245	0.001747	21195.1	4.775510	179.239	71.466	1.064993	0.037929	0.037676	71.2477	21195.1	0.035407	0.052699	1351.98	84354.6
3.000000	2.000000	1.067295	7.36508e+06	-38789.1	955.819	-29797	0.000000	0.000000	7.070394	67.4881	NaN	0.000000	0.001695	0.001740	28.105	39.0867	0.001818	21498.9	4.712986	178.789	66.2913	1.067072	0.039978	0.039755	67.4881	21498.9	0.037624	0.058032	1162.95	81537.2
3.000000	2.000000	1.069235	7.36508e+06	-38789.1	955.819	-29797	0.000000	0.000000	7.072961	82.7557	NaN	0.000000	0.001664	0.001735	28.1067	40.4807	0.001822	22214.5	6.470838	177.994	82.3513	1.068963	0.041918	0.041646	82.7557	22214.5	0.039124	0.061784	1339.43	81652.7
3.000000	2.000000	1.071203	7.36508e+06	-38789.1	955.819	-29797	0.000000	0.000000	7.075263	90.8923	NaN	0.000000	0.001726	0.001732	28.106	42.5962	0.001702	25020.2	1.625555	-179.254	87.6066	1.070897	0.043886	0.043580	90.8923	25020.2	0.041161	0.067064	1355.31	88271.1
3.000000	2.000000	1.073251	7.36508e+06	-38789.1	955.819	-29797	0.000000	0.000000	7.077510	95.7209	NaN	0.000000	0.001678	0.001708	28.1058	45.3801	0.001797	25250.1	5.351911	177.87	94.2312	1.072888	0.045934	0.045571	95.7209	25250.1	0.043091	0.072260	1324.67	85819.5
3.000000	2.000000	1.075254	7.36508e+06	-38789.1	955.818	-29797	0.000000	0.000000	7.079832	103.49	NaN	0.000000	0.001644	0.001721	28.107	46.108	0.001866	24712.8	1.237180	-177.971	104.382	1.074948	0.047937	0.047631	103.49	24712.8	0.044796	0.077009	1343.86	81362.4
3.000000	2.000000	1.077203	7.36508e+06	-38789.1	955.819	-29797	0.000000	0.000000	7.082140	112.216	NaN	0.000000	0.001645	0.001724	28.107	49.3536	0.001779	27746.8	5.161528	176.37	109.171	1.076971	0.049886	0.049654	112.216	27746.8	0.046853	0.082936	1353.05	88026.9
3.000000	2.000000	1.079217	7.36508e+06	-38789.1	955.818	-29797	0.000000	0.000000	7.084660	124.516	NaN	0.000000	0.001612	0.001709	28.1075	49.9047	0.001795	27804.3	5.136441	176.697	124.225	1.078909	0.051901	0.051592	124.516	27804.3	0.048542	0.087960	1415.59	85653.2
3.000000	2.000000	1.081176	7.36508e+06	-38789.1	955.818	-29797	0.000000	0.000000	7.087032	134.578	NaN	0.000000	0.001622	0.001735	28.1086	52.647	0.001778	29603.2	3.545542	177.604	131.666	1.080871	0.053859	0.053555	134.578	29603.2	0.050449	0.093807	1434.62	88306.8
3.000000	2.000000	1.083314	7.36508e+06	-38789.1	955.819	-29797	0.000000	0.000000	7.089239	136.248	NaN	0.000000	0.001605	0.001742	28.1074	55.3818	0.001843	30052.7	7.649545	175.214	139.437	1.082892	0.055998	0.055576	136.248	30052.7	0.052597	0.100610	1354.22	86563.6
3.000000	2.000000	1.085183	7.36508e+06	-38789.1	955.817	-29797	0.000000	0.000000	7.091605	148.355	NaN	0.000000	0.001615	0.001728	28.1062	57.244	0.001761	32502.9	4.283065	176.397	145.722	1.084808	0.057866	0.057491	148.355	32502.9	0.054443	0.106639	1391.19	90936.2
3.000000	2.000000	1.087192	7.36508e+06	-38789.1	955.817	-29797	0.000000	0.000000	7.094043	158.8	NaN	0.000000	0.001622	0.001713	28.1058	59.6166	0.001910	31219.1	1.742243	179.254	155.051	1.086945	0.059875	0.059628	158.8	31219.1	0.056060	0.112061	1417.1	85205.4
3.000000	2.000000	1.089231	7.36508e+06	-38789.1	955.817	-29797	0.000000	0.000000	7.096299	164.085	NaN	0.000000	0.001637	0.001749	28.1045	60.8945	0.001746	34883.5	5.786719	174.83	163.796	1.088884	0.061914	0.061567	164.085	34883.5	0.058386	0.120085	1366.41	91970.5
3.000000	2.000000	1.091181	7.36508e+06	-38789.1	955.817	-29797	0.000000	0.000000	7.098460	169.212	NaN	0.000000	0.001630	0.001758	28.1042	62.4708	0.001706	36614.1	3.229157	176.528	166.681	1.090925	0.063864	0.063608	169.212	36614.1	0.060398	0.127240	1329.86	93779.6
3.000000	2.000000	1.093314	7.36508e+06	-38789.1	955.817	-29797	0.000000	0.000000	7.101299	186.395	NaN	0.000000	0.001635	0.001741	28.1044	66.3643	0.001892	35077.8	8.674375	172.606	189.995	1.092899	0.065997	0.065583	186.395	35077.8	0.062012	0.133121	1400.2	87838.2
3.000000	2.000000	1.095228	7.36508e+06	-38789.1	955.818	-29797	0.000000	0.000000	7.103486	193.037	NaN	0.000000	0.001661	0.001727	28.1051	67.0047	0.001833	36563.7	3.627004	176.389	195.064	1.094921	0.067911	0.067604	193.037	36563.7	0.063952	0.140358	1375.31	89167
3.000000	2.000000	1.097303	7.36508e+06	-38789.1	955.818	-29797	0.000000	0.000000	7.105906	201.436	NaN	0.000000	0.001641	0.001732	28.1059	70.892	0.001909	37127.5	6.750480	173.209	205.809	1.096959	0.069986	0.069642	201.436	37127.5	0.065917	0.147876	1362.2	88210.6
3.000000	2.000000	1.099173	7.36508e+06	-38789.1	955.818	-29797	0.000000	0.000000	7.108355	215.527	NaN	0.000000	0.001623	0.001717	28.1052	70.2837	0.001774	39626.6	4.324796	174.763	214.041	1.098822	0.071856	0.071505	215.527	39626.6	0.067777	0.155162	1389.05	91911.2
3.000000	2.000000	1.101220	7.36508e+06	-38789.1	955.819	-29797	0.000000	0.000000	7.110947	228.768	NaN	0.000000	0.001656	0.001727	28.106	72.9377	0.001768	41247.8	4.200294	174.406	228.24	1.100900	0.073904	0.073584	228.768	41247.8	0.069744	0.163048	1403.07	93328.8
3.000000	2.000000	1.103182	7.36508e+06	-38789.1	955.818	-29797	0.000000	0.000000	7.113440	241.704	NaN	0.000000	0.001605	0.001729	28.1062	75.302	0.001840	40924.5	6.785693	171.996	238.23	1.102850	0.075865	0.075533	241.704	40924.5	0.071435	0.169976	1421.99	90690.8
3.000000	2.000000	1.105178	7.36508e+06	-38789.1	955.819	-29797	0.000000	0.000000	7.115861	252.044	NaN	0.000000	0.001654	0.001727	28.1041	76.6033	0.001805	42433.2	2.693273	176.086	251.933	1.104895	0.077862	0.077579	252.044	42433.2	0.073407	0.178222	1414.21	91832.9
3.000000	2.000000	1.107152	7.36508e+06	-38789.1	955.818	-29797	0.000000	0.000000	7.118094	258.37	NaN	0.000000	0.001648	0.001715	28.1049	79.2331	0.001889	41953.8	2.532357	176.133	253.634	1.106901	0.079835	0.079584	258.37	41953.8	0.075216	0.185951	1389.46	88888.5
3.000000	2.000000	1.109184	7.36508e+06	-38789.1	955.817	-29797	0.000000	0.000000	7.120919	277.644	NaN	0.000000	0.001632	0.001765	28.1044	79.7715	0.001860	42898.7	3.456140	175.286	276.295	1.108810	0.081867	0.081493	277.644	42898.7	0.077013	0.193781	1432.77	89035.4
3.000000	2.000000	1.111242	7.36508e+06	-38789.1	955.818	-29797	0.000000	0.000000	7.123118	281.08	NaN	0.000000	0.001634	0.001722	28.1033	82.1387	0.001786	45982.8	2.548553	175.564	280.62	1.110909	0.083925	0.083592	281.08	45982.8	0.079341	0.204148	1376.85	92981.5
3.000000	2.000000	1.113153	7.36508e+06	-38789.1	955.816	-29797	0.000000	0.000000	7.125971	304.003	NaN	0.000000	0.001646	0.001708	28.1044	84.9126	0.001913	44393.9	5.586085	173.274	300.432	1.112830	0.085836	0.085514	304.003	44393.9	0.080700	0.210316	1445.45	88442.2
3.000000	2.000000	1.115148	7.36508e+06	-38789.1	955.818	-29797	0.000000	0.000000	7.128415	314.932	NaN	0.000000	0.001644	0.001718	28.1047	86.0334	0.001808	47575.4	3.391318	174.866	313.23	1.114798	0.087831	0.087481	314.932	47575.4	0.082866	0.220328	1429.38	92601.9
3.000000	2.000000	1.117193	7.36508e+06	-38789.1	955.818	-29797	0.000000	0.000000	7.130869	324.87	NaN	0.000000	0.001624	0.001772	28.1049	88.9227	0.001811	49101.6	4.694195	172.79	322.853	1.116831	0.089876	0.089514	324.87	49101.6	0.084914	0.229992	1412.53	93543.3
3.000000	2.000000	1.119135	7.36508e+06	-38789.1	955.818	-29797	0.000000	0.000000	7.133759	347.937	NaN	0.000000	0.001639	0.001767	28.1053	89.7882	0.001775	50597	9.449447	168.327	345.486	1.118830	0.091819	0.091513	347.937	50597	0.086661	0.238390	1459.53	94679.1
3.000000	2.000000	1.121061	7.36508e+06	-38789.1	955.817	-29797	0.000000	0.000000	7.135649	347.087	NaN	0.000000	0.001621	0.001787	28.1045	91.7474	0.001807	50768.6	5.685234	171.278	340.514	1.120812	0.093744	0.093495	347.087	50768.6	0.088616	0.247955	1399.8	93149.8
3.000000	2.000000	1.123153	7.36508e+06	-38789.1	955.818	-29797	0.000000	0.000000	7.138620	368.467	NaN	0.000000	0.001611	0.001759	28.108	92.9044	0.001832	50698.4	6.170048	171.534	364.958	1.122883	0.095837	0.095566	368.467	50698.4	0.090386	0.256762	1435.06	91411.9
3.000000	2.000000	1.125195	7.36508e+06	-38789.1	955.818	-29797	0.000000	0.000000	7.141221	382.06	NaN	0.000000	0.001616	0.001778	28.1055	94.113	0.001816	51834.7	5.272953	171.957	382.947	1.124819	0.097879	0.097502	382.06	51834.7	0.092350	0.266709	1432.5	91701.1
3.000000	2.000000	1.127203	7.36508e+06	-38789.1	955.818	-29797	0.000000	0.000000	7.143902	398.446	NaN	0.000000	0.001699	0.001745	28.105	97.933	0.001849	52964.4	10.6456	166.415	399.556	1.126916	0.099886	0.099599	398.446	52964.4	0.094244	0.276463	1441.23	92032
3.000000	2.000000	1.129067	7.36508e+06	-38789.1	955.818	-29797	0.000000	0.000000	7.146570	418.015	NaN	0.000000	0.001674	0.001750	28.1064	96.6012	0.001831	52766.4	2.746050	174.838	410.402	1.128747	0.101750	0.101430	418.015	52766.4	0.095808	0.284645	1468.55	90360.5
3.000000	2.000000	1.131155	7.36508e+06	-38789.1	955.818	-29797	0.000000	0.000000	7.148900	423.89	NaN	0.000000	0.001650	0.001751	28.1045	98.4088	0.001822	54019	2.972566	174.291	422.505	1.130828	0.103839	0.103511	423.89	54019	0.097953	0.296047	1431.83	90706.8
3.000000	2.000000	1.133119	7.36508e+06	-38789.1	955.818	-29797	0.000000	0.000000	7.151740	445.217	NaN	0.000000	0.001661	0.001695	28.1062	100.762	0.001932	52147.5	4.199780	173.616	438.486	1.132770	0.105802	0.105453	445.217	52147.5	0.099399	0.303847	1465.27	86432.9
3.000000	2.000000	1.134151	7.36508e+06	-38789.1	955.817	-29797	0.000000	0.000000	7.152989	450.517	NaN	0.000000	0.001662	0.001713	28.0936	102.494	0.001899	53977.6	7.242752	169.818	448.45	1.133842	0.106834	0.106525	450.517	53977.6	0.100574	0.310259	1452.07	88536.8