File: remote_trans/data/nanoindenter/0828-1/data/Data_2025-08-06,11h17m57s/2025-07-22_16-23-58_1_806.txt
2025-07-22, 16:23:58, 1
Index	Phase	Displacement	Time	Pos X	Pos Y	Pos Z	Rot A	Rot B	Piezo Z	Force A	Force B	Gripper	Voltage A	Voltage B	Temperature	Amplitude force	Amplitude pos	Stiffness	Phase shift	Phase excitation	Force A raw	Displacement raw	HMax	HMax raw	Real Force	Real Stiffness	Contact Depth	Area	Hardness	Reduced Mod.
[#]	[#]	[um]	[s]	[um]	[um]	[um]	[m°]	[m°]	[um]	[uN]	[uN]	[V]	[V]	[V]	[°C]	[uN]	[um]	[N/m]	[°]	[°]	[uN]	[um]	[um]	[um]	[uN]	[N/m]	[um]	[um^2]	[MPa]	[MPa]
806	1.000000	0.002519	7.37294e+06	-40439.1	1055.82	-29790	0.000000	0.000000	6.002788	-0.024631	NaN	0.000000	0.001658	0.001749	28.0832	0.057063	0.000970	58.829	84.2758	-169.566	0.032207	0.001292	-1.058818	-1.060046	-0.024631	58.829	-1.058504	-1.389046E+14	1.773215E-16	NaN
806	1.000000	0.010480	7.37294e+06	-40439.1	1055.82	-29790	0.000000	0.000000	6.010748	-0.028937	NaN	0.000000	0.001729	0.001735	28.083	0.078806	0.000939	83.9114	118.486	-163.933	-0.036414	0.009165	-1.050858	-1.052172	-0.028937	83.9114	-1.050599	-1.087593E+14	2.660647E-16	NaN
806	1.000000	0.018505	7.37294e+06	-40439.1	1055.82	-29790	0.000000	0.000000	6.018775	-0.018498	NaN	0.000000	0.001711	0.001741	28.0832	0.052245	0.001719	30.3928	-84.4045	-163.527	0.000184	0.017170	-1.042832	-1.044167	-0.018498	30.3928	-1.042376	-8.431586E+13	2.193947E-16	NaN
806	1.000000	0.026516	7.37294e+06	-40439.1	1055.82	-29790	0.000000	0.000000	6.026788	0.059771	NaN	0.000000	0.001720	0.001735	28.0832	0.068956	0.001769	38.977	168.64	-162.875	-0.016413	0.025161	-1.034821	-1.036176	0.059771	38.977	-1.035971	-6.915022E+13	-8.643696E-16	NaN
806	1.000000	0.034494	7.37294e+06	-40439.1	1055.82	-29790	0.000000	0.000000	6.034763	-0.033009	NaN	0.000000	0.001757	0.001685	28.0831	0.080368	0.001954	41.1242	121.562	-163.354	0.037940	0.033175	-1.026843	-1.028162	-0.033009	41.1242	-1.026241	-5.115827E+13	6.452258E-16	NaN
806	1.000000	0.042469	7.37294e+06	-40439.1	1055.82	-29790	0.000000	0.000000	6.042740	0.030238	NaN	0.000000	0.001690	0.001759	28.0835	0.053851	0.001920	28.0476	111.083	-166.506	0.077905	0.041190	-1.018869	-1.020147	0.030238	28.0476	-1.019677	-4.174538E+13	-7.243408E-16	NaN
806	1.000000	0.050460	7.37294e+06	-40439.1	1055.82	-29790	0.000000	0.000000	6.050729	-0.037730	NaN	0.000000	0.001677	0.001719	28.0833	0.086973	0.001983	43.8572	110.369	-165.223	0.025202	0.049172	-1.010877	-1.012165	-0.037730	43.8572	-1.010232	-3.115331E+13	1.211103E-15	NaN
806	1.000000	0.058467	7.37294e+06	-40439.1	1055.82	-29790	0.000000	0.000000	6.058737	0.006770	NaN	0.000000	0.001698	0.001746	28.0834	0.083280	0.001972	42.2355	-125.857	-164.22	-0.016737	0.057225	-1.002870	-1.004112	0.006770	42.2355	-1.002990	-2.489016E+13	-2.719780E-16	NaN
806	1.000000	0.066483	7.37294e+06	-40439.1	1055.82	-29790	0.000000	0.000000	6.066751	-0.045398	NaN	0.000000	0.001644	0.001750	28.0828	0.173892	0.001951	89.1496	-132.085	-161.607	-0.019222	0.065174	-0.994855	-0.996163	-0.045398	89.1496	-0.994473	-1.911378E+13	2.375125E-15	NaN
806	1.000000	0.074475	7.37294e+06	-40439.1	1055.82	-29790	0.000000	0.000000	6.074744	-0.027459	NaN	0.000000	0.001616	0.001721	28.0832	0.089987	0.002128	42.2891	101.823	-159.893	0.001993	0.073176	-0.986862	-0.988161	-0.027459	42.2891	-0.986375	-1.486941E+13	1.846659E-15	NaN
806	1.000000	0.082448	7.37294e+06	-40439.1	1055.82	-29790	0.000000	0.000000	6.082717	-0.040553	NaN	0.000000	0.001641	0.001751	28.0831	0.055884	0.001827	30.5958	-170.036	-162.228	-0.039066	0.081108	-0.978889	-0.980229	-0.040553	30.5958	-0.977895	-1.143006E+13	3.547918E-15	NaN
806	1.000000	0.090513	7.37294e+06	-40439.1	1055.82	-29790	0.000000	0.000000	6.090783	-0.008231	NaN	0.000000	0.001648	0.001745	28.0831	0.111711	0.001886	59.2432	-17.668	-163.837	0.021846	0.089143	-0.970824	-0.972194	-0.008231	59.2432	-0.970720	-9.148731E+12	8.996932E-16	NaN
806	1.000000	0.098468	7.37294e+06	-40439.1	1055.82	-29790	0.000000	0.000000	6.098738	0.002878	NaN	0.000000	0.001638	0.001719	28.082	0.105301	0.002031	51.8428	-144.505	-166.815	-0.027410	0.097153	-0.962869	-0.964184	0.002878	51.8428	-0.962911	-7.179809E+12	-4.008995E-16	NaN
806	1.000000	0.106495	7.37294e+06	-40439.1	1055.82	-29790	0.000000	0.000000	6.106765	0.001227	NaN	0.000000	0.001677	0.001772	28.0821	0.042765	0.001953	21.9012	140.882	-164.848	-0.033229	0.105173	-0.954843	-0.956165	0.001227	21.9012	-0.954885	-5.596268E+12	-2.192112E-16	NaN
806	1.000000	0.114506	7.37294e+06	-40439.1	1055.82	-29790	0.000000	0.000000	6.114775	-0.033814	NaN	0.000000	0.001659	0.001745	28.0822	0.066903	0.001902	35.1716	27.3904	-166.395	-0.030889	0.113207	-0.946831	-0.948130	-0.033814	35.1716	-0.946110	-4.261455E+12	7.934801E-15	NaN
806	1.000000	0.122498	7.37294e+06	-40439.1	1055.82	-29790	0.000000	0.000000	6.122767	-0.037448	NaN	0.000000	0.001645	0.001727	28.082	0.055487	0.001967	28.2162	-79.2121	-165.717	-0.104265	0.121203	-0.938839	-0.940134	-0.037448	28.2162	-0.937844	-3.296432E+12	1.136019E-14	NaN
806	1.000000	0.130508	7.37294e+06	-40439.1	1055.82	-29790	0.000000	0.000000	6.130781	0.077536	NaN	0.000000	0.001645	0.001705	28.082	0.022691	0.002066	10.9821	1.806321	-165.077	0.009572	0.129171	-0.930829	-0.932167	0.077536	10.9821	-0.936124	-3.124962E+12	-2.481187E-14	NaN
806	1.000000	0.138520	7.37294e+06	-40439.1	1055.82	-29790	0.000000	0.000000	6.138788	-0.036148	NaN	0.000000	0.001656	0.001714	28.0819	0.021025	0.002044	10.2876	177.235	-164.052	0.047994	0.137229	-0.922818	-0.924109	-0.036148	10.2876	-0.920182	-1.903999E+12	1.898542E-14	NaN
806	1.000000	0.146506	7.37294e+06	-40439.1	1055.82	-29790	0.000000	0.000000	6.146774	-0.032865	NaN	0.000000	0.001670	0.001724	28.082	0.134708	0.002070	65.0864	-178.552	-164.133	-0.057145	0.145254	-0.914832	-0.916083	-0.032865	65.0864	-0.914453	-1.593316E+12	2.062710E-14	NaN
806	1.000000	0.154514	7.37294e+06	-40439.1	1055.82	-29790	0.000000	0.000000	6.154784	0.007400	NaN	0.000000	0.001641	0.001733	28.082	0.099948	0.002000	49.981	72.4229	-167.792	0.016296	0.153190	-0.906823	-0.908147	0.007400	49.981	-0.906934	-1.261107E+12	-5.868193E-15	NaN
806	1.000000	0.162524	7.37294e+06	-40439.1	1055.82	-29790	0.000000	0.000000	6.162790	-0.091758	NaN	0.000000	0.001613	0.001749	28.0816	0.039870	0.001992	20.0112	-32.6663	-169.083	-0.092590	0.161225	-0.898814	-0.900112	-0.091758	20.0112	-0.895375	-8.801580E+11	1.042522E-13	NaN
806	1.000000	0.170489	7.37294e+06	-40439.1	1055.82	-29790	0.000000	0.000000	6.170758	-0.033638	NaN	0.000000	0.001607	0.001710	28.0819	0.059566	0.001980	30.09	-113.884	-165.698	-0.032343	0.169226	-0.890848	-0.892111	-0.033638	30.09	-0.890010	-7.448098E+11	4.516288E-14	NaN
806	1.000000	0.178538	7.37294e+06	-40439.1	1055.82	-29790	0.000000	0.000000	6.178807	-0.035740	NaN	0.000000	0.001602	0.001706	28.0818	0.103001	0.001949	52.8466	-38.2145	-159.393	0.031966	0.177179	-0.882799	-0.884158	-0.035740	52.8466	-0.882292	-5.857338E+11	6.101667E-14	NaN
806	1.000000	0.186534	7.37294e+06	-40439.1	1055.82	-29790	0.000000	0.000000	6.186803	-0.007618	NaN	0.000000	0.001627	0.001735	28.0817	0.124881	0.002030	61.5091	-127.539	-165.82	-0.030814	0.185207	-0.874804	-0.876130	-0.007618	61.5091	-0.874711	-4.625616E+11	1.646982E-14	NaN
806	1.000000	0.194541	7.37294e+06	-40439.1	1055.82	-29790	0.000000	0.000000	6.194810	-0.043716	NaN	0.000000	0.001669	0.001724	28.0816	0.091867	0.001892	48.5523	123.801	-163.527	-0.098853	0.193216	-0.866796	-0.868121	-0.043716	48.5523	-0.866120	-3.539584E+11	1.235059E-13	NaN
806	1.000000	0.202532	7.37294e+06	-40439.1	1055.82	-29790	0.000000	0.000000	6.202801	-0.018460	NaN	0.000000	0.001638	0.001746	28.0818	0.072104	0.002077	34.7219	-46.8463	-162.363	-0.066284	0.201206	-0.858806	-0.860131	-0.018460	34.7219	-0.858407	-2.783288E+11	6.632395E-14	NaN
806	1.000000	0.210545	7.37294e+06	-40439.1	1055.82	-29790	0.000000	0.000000	6.210818	0.077280	NaN	0.000000	0.001602	0.001735	28.0818	0.037810	0.002189	17.2699	102.41	-164.104	0.027543	0.209232	-0.850792	-0.852105	0.077280	17.2699	-0.854148	-2.437288E+11	-3.170755E-13	NaN
806	1.000000	0.218541	7.37294e+06	-40439.1	1055.82	-29790	0.000000	0.000000	6.218809	-0.045335	NaN	0.000000	0.001667	0.001721	28.0819	0.072101	0.001942	37.1292	135.326	-164.401	-0.073592	0.217213	-0.842797	-0.844124	-0.045335	37.1292	-0.841881	-1.662548E+11	2.726851E-13	NaN
806	1.000000	0.226589	7.37294e+06	-40439.1	1055.82	-29790	0.000000	0.000000	6.226860	0.015253	NaN	0.000000	0.001644	0.001738	28.082	0.041497	0.001871	22.1744	-168.009	-163.607	-0.048288	0.225168	-0.834748	-0.836169	0.015253	22.1744	-0.835264	-1.352470E+11	-1.127772E-13	NaN
806	1.000000	0.234569	7.37294e+06	-40439.1	1055.82	-29790	0.000000	0.000000	6.234839	-0.002468	NaN	0.000000	0.001648	0.001700	28.0831	0.114133	0.002003	56.9792	-81.5509	-168.658	-0.010785	0.233254	-0.826768	-0.828083	-0.002468	56.9792	-0.826736	-1.036431E+11	2.380996E-14	NaN
806	1.000000	0.242548	7.37294e+06	-40439.1	1055.82	-29790	0.000000	0.000000	6.242817	-0.039341	NaN	0.000000	0.001659	0.001715	28.0832	0.049818	0.002185	22.8015	9.299461	-167.061	-0.010735	0.241230	-0.818789	-0.820107	-0.039341	22.8015	-0.817495	-7.766789E+10	5.065311E-13	NaN
806	1.000000	0.250581	7.37294e+06	-40439.1	1055.82	-29790	0.000000	0.000000	6.250848	-0.088844	NaN	0.000000	0.001661	0.001715	28.0834	0.071094	0.001990	35.7288	-73.8281	-166.151	-0.057610	0.249239	-0.810756	-0.812098	-0.088844	35.7288	-0.808891	-5.936435E+10	1.496580E-12	NaN
806	1.000000	0.258577	7.37294e+06	-40439.1	1055.82	-29790	0.000000	0.000000	6.258849	0.049642	NaN	0.000000	0.001644	0.001728	28.0832	0.032350	0.002094	15.4512	169.16	-170.82	-0.000193	0.257253	-0.802760	-0.804084	0.049642	15.4512	-0.805170	-5.284817E+10	-9.393361E-13	NaN
806	1.000000	0.266549	7.37294e+06	-40439.1	1055.82	-29790	0.000000	0.000000	6.266821	0.040445	NaN	0.000000	0.001661	0.001753	28.0831	0.171580	0.001939	88.5085	-140.092	-164.282	-0.033836	0.265265	-0.794788	-0.796072	0.040445	88.5085	-0.795131	-3.861516E+10	-1.047394E-12	NaN
806	1.000000	0.274593	7.37294e+06	-40439.1	1055.82	-29790	0.000000	0.000000	6.274860	-0.063448	NaN	0.000000	0.001655	0.001752	28.0833	0.018371	0.001919	9.573389	54.1521	-167.147	-0.013139	0.273261	-0.786744	-0.788076	-0.063448	9.573389	-0.781774	-2.542913E+10	2.495108E-12	NaN
806	1.000000	0.282560	7.37294e+06	-40439.1	1055.82	-29790	0.000000	0.000000	6.282828	-0.051152	NaN	0.000000	0.001690	0.001737	28.0834	0.057626	0.002124	27.1251	-104.717	-165.929	-0.082124	0.281210	-0.778777	-0.780127	-0.051152	27.1251	-0.777363	-2.215090E+10	2.309252E-12	NaN
806	1.000000	0.290578	7.37294e+06	-40439.1	1055.82	-29790	0.000000	0.000000	6.290846	-0.042517	NaN	0.000000	0.001682	0.001765	28.0831	0.082364	0.001986	41.4819	119.175	-167.971	-0.106117	0.289274	-0.770759	-0.772063	-0.042517	41.4819	-0.769991	-1.758641E+10	2.417623E-12	NaN
806	1.000000	0.298579	7.37294e+06	-40439.1	1055.82	-29790	0.000000	0.000000	6.298851	0.037412	NaN	0.000000	0.001693	0.001772	28.083	0.078255	0.002008	38.9693	142.259	-168.113	0.031947	0.297262	-0.762758	-0.764076	0.037412	38.9693	-0.763478	-1.434221E+10	-2.608542E-12	NaN
806	1.000000	0.306581	7.37294e+06	-40439.1	1055.82	-29790	0.000000	0.000000	6.306854	0.059232	NaN	0.000000	0.001670	0.001736	28.083	0.105155	0.001955	53.7989	15.5492	-161.771	0.065963	0.305272	-0.754756	-0.756065	0.059232	53.7989	-0.755582	-1.119923E+10	-5.288911E-12	NaN
806	1.000000	0.314621	7.37294e+06	-40439.1	1055.82	-29790	0.000000	0.000000	6.314890	-0.023033	NaN	0.000000	0.001668	0.001790	28.0831	0.084603	0.001809	46.7674	-105.632	-161.801	-0.035941	0.313305	-0.746716	-0.748032	-0.023033	46.7674	-0.746347	-8.384708E+9	2.746976E-12	NaN
806	1.000000	0.322641	7.37294e+06	-40439.1	1055.82	-29790	0.000000	0.000000	6.322909	-0.069936	NaN	0.000000	0.001652	0.001765	28.0834	0.106475	0.001947	54.6831	-51.4721	-164.793	-0.056801	0.321300	-0.738696	-0.740037	-0.069936	54.6831	-0.737737	-6.400671E+9	1.092633E-11	NaN
806	1.000000	0.330585	7.37294e+06	-40439.1	1055.82	-29790	0.000000	0.000000	6.330854	-0.018680	NaN	0.000000	0.001637	0.001770	28.0828	0.136864	0.001969	69.502	68.8443	-163.037	-0.020638	0.329354	-0.730752	-0.731984	-0.018680	69.502	-0.730551	-5.108705E+9	3.656410E-12	NaN
806	1.000000	0.338580	7.37294e+06	-40439.1	1055.82	-29790	0.000000	0.000000	6.338850	-0.002058	NaN	0.000000	0.001646	0.001754	28.0831	0.012281	0.002012	6.103586	178.432	-165.623	0.067547	0.337286	-0.722758	-0.724052	-0.002058	6.103586	-0.722505	-3.968518E+9	5.186520E-13	NaN
806	1.000000	0.346599	7.37294e+06	-40439.1	1055.82	-29790	0.000000	0.000000	6.346870	0.006887	NaN	0.000000	0.001630	0.001728	28.0829	0.032051	0.002083	15.3902	157.072	-164.58	-0.071061	0.345284	-0.714738	-0.716053	0.006887	15.3902	-0.715074	-3.142512E+9	-2.191462E-12	NaN
806	1.000000	0.354596	7.37294e+06	-40439.1	1055.82	-29790	0.000000	0.000000	6.354869	0.051162	NaN	0.000000	0.001670	0.001748	28.083	0.121367	0.002024	59.9652	-31.2513	-166.333	0.013112	0.353294	-0.706741	-0.708043	0.051162	59.9652	-0.707381	-2.467750E+9	-2.073233E-11	NaN
806	1.000000	0.362622	7.37294e+06	-40439.1	1055.82	-29790	0.000000	0.000000	6.362893	0.024355	NaN	0.000000	0.001689	0.001767	28.0832	0.053883	0.001986	27.1304	-107.317	-169.326	0.007559	0.361315	-0.698715	-0.700023	0.024355	27.1304	-0.699389	-1.919474E+9	-1.268859E-11	NaN
806	1.000000	0.370595	7.37294e+06	-40439.1	1055.82	-29790	0.000000	0.000000	6.370865	-0.012302	NaN	0.000000	0.001690	0.001789	28.0823	0.080403	0.002008	40.0407	69.282	-165.288	-0.025943	0.369287	-0.690742	-0.692050	-0.012302	40.0407	-0.690512	-1.451812E+9	8.473610E-12	NaN
806	1.000000	0.378635	7.37294e+06	-40439.1	1055.82	-29790	0.000000	0.000000	6.378907	0.031905	NaN	0.000000	0.001734	0.001768	28.0823	0.065133	0.002093	31.1149	108.688	-165.477	0.060308	0.377289	-0.682702	-0.684048	0.031905	31.1149	-0.683471	-1.163237E+9	-2.742762E-11	NaN
806	1.000000	0.386628	7.37294e+06	-40439.1	1055.82	-29790	0.000000	0.000000	6.386898	-0.004497	NaN	0.000000	0.001703	0.001733	28.0818	0.038189	0.001942	19.6622	144.453	-164.137	-0.045691	0.385326	-0.674709	-0.676011	-0.004497	19.6622	-0.674538	-8.779779E+8	5.122248E-12	NaN
806	1.000000	0.394600	7.37294e+06	-40439.1	1055.82	-29790	0.000000	0.000000	6.394867	-0.057771	NaN	0.000000	0.001655	0.001722	28.0822	0.069792	0.001964	35.5329	-173.57	-167.928	-0.081774	0.393282	-0.666737	-0.668055	-0.057771	35.5329	-0.665518	-6.607497E+8	8.743257E-11	NaN
806	1.000000	0.402627	7.37294e+06	-40439.1	1055.82	-29790	0.000000	0.000000	6.402896	-0.008334	NaN	0.000000	0.001694	0.001720	28.0822	0.018303	0.001950	9.387360	-106.537	-159.78	0.028933	0.401289	-0.658711	-0.660049	-0.008334	9.387360	-0.658045	-5.220181E+8	1.596482E-11	NaN
806	1.000000	0.410621	7.37294e+06	-40439.1	1055.82	-29790	0.000000	0.000000	6.410892	0.028835	NaN	0.000000	0.001707	0.001754	28.0824	0.051461	0.001946	26.4404	16.6341	-165.831	-0.055601	0.409261	-0.650716	-0.652077	0.028835	26.4404	-0.651534	-4.250750E+8	-6.783562E-11	NaN
806	1.000000	0.418667	7.37294e+06	-40439.1	1055.82	-29790	0.000000	0.000000	6.418938	0.039376	NaN	0.000000	0.001648	0.001787	28.0824	0.035901	0.001966	18.2602	-69.4567	-164.169	0.042306	0.417294	-0.642670	-0.644043	0.039376	18.2602	-0.644288	-3.381500E+8	-1.164461E-10	NaN
806	1.000000	0.426616	7.37294e+06	-40439.1	1055.82	-29790	0.000000	0.000000	6.426885	-0.017140	NaN	0.000000	0.001667	0.001741	28.0821	0.044052	0.001931	22.8156	-119.659	-165.357	-0.075992	0.425341	-0.634722	-0.635996	-0.017140	22.8156	-0.634158	-2.455360E+8	6.980698E-11	NaN
806	1.000000	0.434654	7.37294e+06	-40439.1	1055.82	-29790	0.000000	0.000000	6.434924	0.012629	NaN	0.000000	0.001626	0.001769	28.0825	0.122175	0.002095	58.3046	-17.0642	-164.61	-0.001290	0.433374	-0.626683	-0.627964	0.012629	58.3046	-0.626846	-1.948514E+8	-6.481242E-11	NaN
806	1.000000	0.442654	7.37294e+06	-40439.1	1055.82	-29790	0.000000	0.000000	6.442922	-0.059893	NaN	0.000000	0.001615	0.001773	28.0821	0.102521	0.001864	54.9983	-58.3422	-166.055	-0.072457	0.441318	-0.618683	-0.620019	-0.059893	54.9983	-0.617866	-1.466565E+8	4.083890E-10	NaN
806	1.000000	0.450644	7.37294e+06	-40439.1	1055.82	-29790	0.000000	0.000000	6.450913	-0.028017	NaN	0.000000	0.001610	0.001749	28.0822	0.103544	0.001879	55.1009	4.817337	-162.724	0.046003	0.449352	-0.610694	-0.611985	-0.028017	55.1009	-0.610312	-1.154542E+8	2.426713E-10	NaN
806	1.000000	0.458667	7.37294e+06	-40439.1	1055.82	-29790	0.000000	0.000000	6.458933	-0.091972	NaN	0.000000	0.001603	0.001767	28.0821	0.051316	0.002014	25.4849	-47.208	-163.905	-0.011821	0.457332	-0.602671	-0.604005	-0.091972	25.4849	-0.599964	-8.316921E+7	1.105846E-9	NaN
806	1.000000	0.466670	7.37294e+06	-40439.1	1055.82	-29790	0.000000	0.000000	6.466940	-0.006058	NaN	0.000000	0.001595	0.001778	28.0823	0.063159	0.001851	34.113	60.0772	-165.921	-0.022581	0.465305	-0.594667	-0.596032	-0.006058	34.113	-0.594534	-7.001033E+7	8.653019E-11	NaN
806	1.000000	0.474624	7.37294e+06	-40439.1	1055.82	-29790	0.000000	0.000000	6.474897	0.058252	NaN	0.000000	0.001585	0.001776	28.0822	0.098616	0.001939	50.8691	-134.378	-159.997	0.112148	0.473293	-0.586713	-0.588044	0.058252	50.8691	-0.587572	-5.612858E+7	-1.037837E-9	NaN
806	1.000000	0.482641	7.37294e+06	-40439.1	1055.82	-29790	0.000000	0.000000	6.482911	0.005461	NaN	0.000000	0.001609	0.001738	28.0823	0.076606	0.001893	40.4735	-141.295	-159.928	0.002598	0.481328	-0.578696	-0.580009	0.005461	40.4735	-0.578798	-4.247452E+7	-1.285690E-10	NaN
806	1.000000	0.490642	7.37294e+06	-40439.1	1055.82	-29790	0.000000	0.000000	6.490911	-0.022518	NaN	0.000000	0.001634	0.001769	28.0823	0.089198	0.002048	43.5593	-112.903	-165.656	-0.057733	0.489385	-0.570695	-0.571952	-0.022518	43.5593	-0.570307	-3.242493E+7	6.944538E-10	NaN
806	1.000000	0.498686	7.37294e+06	-40439.1	1055.82	-29790	0.000000	0.000000	6.498956	-0.006693	NaN	0.000000	0.001676	0.001736	28.0819	0.056871	0.002060	27.6016	110.321	-163.17	0.007281	0.497346	-0.562651	-0.563991	-0.006693	27.6016	-0.562469	-2.526577E+7	2.648987E-10	NaN
806	1.000000	0.506660	7.37294e+06	-40439.1	1055.82	-29790	0.000000	0.000000	6.506928	-0.056202	NaN	0.000000	0.001640	0.001771	28.0829	0.041247	0.002117	19.4811	-148.116	-167.226	-0.003034	0.505357	-0.554677	-0.555980	-0.056202	19.4811	-0.552514	-1.839777E+7	3.054823E-9	NaN
806	1.000000	0.514666	7.37294e+06	-40439.1	1055.82	-29790	0.000000	0.000000	6.514934	-0.052049	NaN	0.000000	0.001650	0.001740	28.0831	0.027691	0.001875	14.7688	46.0811	-166.412	-0.022554	0.513336	-0.546672	-0.548002	-0.052049	14.7688	-0.544028	-1.403499E+7	3.708498E-9	NaN
806	1.000000	0.522684	7.37294e+06	-40439.1	1055.82	-29790	0.000000	0.000000	6.522953	-0.020335	NaN	0.000000	0.001636	0.001751	28.0831	0.028697	0.001994	14.391	87.6386	-162.792	-0.015085	0.521402	-0.538653	-0.539936	-0.020335	14.391	-0.537593	-1.142818E+7	1.779379E-9	NaN
806	1.000000	0.530636	7.37294e+06	-40439.1	1055.82	-29790	0.000000	0.000000	6.530905	-0.026595	NaN	0.000000	0.001580	0.001748	28.0831	0.098037	0.002229	43.9884	151.698	-164.385	0.012914	0.529402	-0.530702	-0.531935	-0.026595	43.9884	-0.530248	-9.03693e+06	2.942879E-9	NaN
806	1.000000	0.538679	7.37294e+06	-40439.1	1055.82	-29790	0.000000	0.000000	6.538945	-0.093348	NaN	0.000000	0.001653	0.001779	28.0829	0.064206	0.001961	32.7369	149.784	-164.113	0.031620	0.537348	-0.522659	-0.523989	-0.093348	32.7369	-0.520520	-6.61959e+06	1.410176E-8	NaN
806	1.000000	0.546688	7.37294e+06	-40439.1	1055.82	-29790	0.000000	0.000000	6.546959	0.036408	NaN	0.000000	0.001596	0.001778	28.0834	0.058421	0.002000	29.2145	138.017	-162.913	0.094660	0.545375	-0.514650	-0.515962	0.036408	29.2145	-0.515584	-5.6515e+06	-6.442235E-9	NaN
806	1.000000	0.554669	7.37294e+06	-40439.1	1055.82	-29790	0.000000	0.000000	6.554937	-0.041952	NaN	0.000000	0.001650	0.001794	28.083	0.039474	0.002010	19.6426	-55.1515	-164.276	0.076929	0.553415	-0.506668	-0.507922	-0.041952	19.6426	-0.505066	-4.03339e+06	1.040107E-8	NaN
806	1.000000	0.562691	7.37294e+06	-40439.1	1055.82	-29790	0.000000	0.000000	6.562962	0.024079	NaN	0.000000	0.001613	0.001812	28.0829	0.043983	0.001970	22.3278	-126.981	-166.579	0.044015	0.561406	-0.498647	-0.499932	0.024079	22.3278	-0.499455	-3.36837e+06	-7.148704E-9	NaN
806	1.000000	0.570706	7.37294e+06	-40439.1	1055.82	-29790	0.000000	0.000000	6.570976	-0.014687	NaN	0.000000	0.001610	0.001787	28.083	0.038579	0.002097	18.4001	-56.393	-162.604	-0.019172	0.569410	-0.490631	-0.491927	-0.014687	18.4001	-0.490032	-2.48797e+06	5.903044E-9	NaN
806	1.000000	0.578678	7.37294e+06	-40439.1	1055.82	-29790	0.000000	0.000000	6.578950	0.043588	NaN	0.000000	0.001571	0.001768	28.083	0.015911	0.001975	8.057202	-101.169	-164.703	-0.003445	0.577378	-0.482659	-0.483959	0.043588	8.057202	-0.486717	-2.23613e+06	-1.949279E-8	NaN
806	1.000000	0.586694	7.37294e+06	-40439.1	1055.82	-29790	0.000000	0.000000	6.586970	0.125952	NaN	0.000000	0.001605	0.001759	28.0833	0.013628	0.001857	7.337668	-132.36	-164.347	0.066486	0.585390	-0.474643	-0.475947	0.125952	7.337668	-0.487517	-2.29447e+06	-5.489366E-8	NaN
806	1.000000	0.594715	7.37294e+06	-40439.1	1055.82	-29790	0.000000	0.000000	6.594988	0.061542	NaN	0.000000	0.001630	0.001755	28.0842	0.038906	0.001969	19.7624	73.4005	-164.267	0.000810	0.593416	-0.466622	-0.467922	0.061542	19.7624	-0.468958	-1.26121e+06	-4.879557E-8	NaN
806	1.000000	0.602706	7.37294e+06	-40439.1	1055.82	-29790	0.000000	0.000000	6.602976	0.010469	NaN	0.000000	0.001619	0.001767	28.0836	0.021088	0.002018	10.4499	145.114	-166.065	0.141895	0.601331	-0.458631	-0.460007	0.010469	10.4499	-0.459383	-925431	-1.131240E-8	NaN
806	1.000000	0.610701	7.37294e+06	-40439.1	1055.82	-29790	0.000000	0.000000	6.610971	-0.004621	NaN	0.000000	0.001584	0.001724	28.0833	0.060869	0.002122	28.6855	-109.392	-162.687	-0.074891	0.609424	-0.450636	-0.451914	-0.004621	28.6855	-0.450516	-694388	6.654179E-9	NaN
806	1.000000	0.618720	7.37294e+06	-40439.1	1055.82	-29790	0.000000	0.000000	6.618991	0.008318	NaN	0.000000	0.001634	0.001757	28.0833	0.038558	0.001965	19.6198	-11.8299	-163.676	0.049925	0.617407	-0.442617	-0.443930	0.008318	19.6198	-0.442935	-542964	-1.532026E-8	NaN
806	1.000000	0.626745	7.37294e+06	-40439.1	1055.82	-29790	0.000000	0.000000	6.627015	-0.012964	NaN	0.000000	0.001603	0.001762	28.0837	0.098453	0.002006	49.0842	-109.983	-164.592	-0.085067	0.625468	-0.434592	-0.435869	-0.012964	49.0842	-0.434394	-411330	3.151758E-8	NaN
806	1.000000	0.634694	7.37294e+06	-40439.1	1055.82	-29790	0.000000	0.000000	6.634965	0.021911	NaN	0.000000	0.001603	0.001781	28.0833	0.115380	0.001996	57.8118	-166.55	-166	0.010867	0.633432	-0.426643	-0.427906	0.021911	57.8118	-0.426928	-322537	-6.793339E-8	NaN
806	1.000000	0.642748	7.37294e+06	-40439.1	1055.82	-29790	0.000000	0.000000	6.643018	-0.003434	NaN	0.000000	0.001609	0.001727	28.0832	0.122679	0.002092	58.6548	-111.746	-167.103	-0.048000	0.641412	-0.418589	-0.419925	-0.003434	58.6548	-0.418545	-245344	1.399650E-8	NaN
806	1.000000	0.650717	7.37294e+06	-40439.1	1055.82	-29790	0.000000	0.000000	6.650986	-0.028295	NaN	0.000000	0.001613	0.001787	28.0821	0.040924	0.002045	20.0122	-89.3296	-167.123	-0.001483	0.649414	-0.410620	-0.411924	-0.028295	20.0122	-0.409559	-182867	1.547277E-7	NaN
806	1.000000	0.658738	7.37294e+06	-40439.1	1055.82	-29790	0.000000	0.000000	6.659005	-0.061756	NaN	0.000000	0.001599	0.001763	28.0821	0.098231	0.001939	50.659	-104.315	-165.492	-0.024920	0.657393	-0.402599	-0.403945	-0.061756	50.659	-0.401685	-141261	4.371772E-7	NaN
806	1.000000	0.666748	7.37294e+06	-40439.1	1055.82	-29790	0.000000	0.000000	6.667019	0.031650	NaN	0.000000	0.001635	0.001762	28.0822	0.076534	0.002102	36.4023	-163.889	-166.541	0.095810	0.665451	-0.394589	-0.395887	0.031650	36.4023	-0.395241	-114310	-2.768758E-7	NaN
806	1.000000	0.674723	7.37294e+06	-40439.1	1055.82	-29790	0.000000	0.000000	6.674991	-0.046955	NaN	0.000000	0.001620	0.001759	28.0821	0.057539	0.002097	27.4446	-78.7594	-163.875	-0.071377	0.673409	-0.386614	-0.387929	-0.046955	27.4446	-0.385331	-82476.5	5.693133E-7	NaN
806	1.000000	0.682752	7.37294e+06	-40439.1	1055.82	-29790	0.000000	0.000000	6.683021	-0.019747	NaN	0.000000	0.001614	0.001755	28.0821	0.082239	0.001986	41.409	-16.2002	-164.245	-0.017578	0.681459	-0.378585	-0.379878	-0.019747	41.409	-0.378228	-65229.6	3.027234E-7	NaN
806	1.000000	0.690743	7.37294e+06	-40439.1	1055.82	-29790	0.000000	0.000000	6.691012	-0.018770	NaN	0.000000	0.001606	0.001764	28.0821	0.002310	0.002001	1.154073	-0.898008	-163.788	0.034594	0.689413	-0.370594	-0.371925	-0.018770	1.154073	-0.358396	-33779.2	5.556768E-7	NaN
806	1.000000	0.698748	7.37294e+06	-40439.1	1055.82	-29790	0.000000	0.000000	6.699016	-0.049808	NaN	0.000000	0.001581	0.001748	28.0824	0.054491	0.001982	27.489	-23.6401	-163.568	-0.035760	0.697426	-0.362589	-0.363911	-0.049808	27.489	-0.361230	-37121	1.341784E-6	NaN
806	1.000000	0.706745	7.37294e+06	-40439.1	1055.82	-29790	0.000000	0.000000	6.707012	-0.062106	NaN	0.000000	0.001609	0.001738	28.082	0.090047	0.001988	45.2978	-5.338744	-167.484	0.003167	0.705469	-0.354593	-0.355868	-0.062106	45.2978	-0.353564	-28753.9	2.159910E-6	NaN
806	1.000000	0.714732	7.37294e+06	-40439.1	1055.82	-29790	0.000000	0.000000	6.715002	0.015018	NaN	0.000000	0.001601	0.001784	28.082	0.056713	0.002052	27.6317	-3.863836	-164.097	-0.006869	0.713488	-0.346606	-0.347850	0.015018	27.6317	-0.347013	-23100.8	-6.501186E-7	NaN
806	1.000000	0.722766	7.37294e+06	-40439.1	1055.82	-29790	0.000000	0.000000	6.723038	0.024925	NaN	0.000000	0.001600	0.001750	28.0821	0.052674	0.001911	27.5568	-159.486	-163.308	-0.059972	0.721463	-0.338571	-0.339874	0.024925	27.5568	-0.339249	-17807.7	-1.399705E-6	NaN
806	1.000000	0.730795	7.37294e+06	-40439.1	1055.82	-29790	0.000000	0.000000	6.731063	-0.039974	NaN	0.000000	0.001570	0.001772	28.0821	0.070650	0.001933	36.5537	-103.624	-162.4	-0.056893	0.729434	-0.330543	-0.331903	-0.039974	36.5537	-0.329722	-12923.7	3.093090E-6	NaN
806	1.000000	0.738771	7.37294e+06	-40439.1	1055.82	-29790	0.000000	0.000000	6.739042	0.032559	NaN	0.000000	0.001642	0.001707	28.0823	0.082863	0.001896	43.7087	-144.573	-166.726	0.013733	0.737491	-0.322567	-0.323846	0.032559	43.7087	-0.323125	-10341.9	-3.148222E-6	NaN
806	1.000000	0.746753	7.37294e+06	-40439.1	1055.82	-29790	0.000000	0.000000	6.747022	-0.021854	NaN	0.000000	0.001596	0.001761	28.082	0.085809	0.001946	44.0896	68.7533	-166.451	-0.044704	0.745442	-0.314584	-0.315896	-0.021854	44.0896	-0.314212	-7644	2.859007E-6	NaN
806	1.000000	0.754785	7.37294e+06	-40439.1	1055.82	-29790	0.000000	0.000000	6.755057	0.056335	NaN	0.000000	0.001663	0.001764	28.0822	0.083563	0.001964	42.5398	81.3587	-163.058	-0.054328	0.753428	-0.306552	-0.307910	0.056335	42.5398	-0.307546	-6091.26	-9.248551E-6	NaN
806	1.000000	0.762759	7.37294e+06	-40439.1	1055.82	-29790	0.000000	0.000000	6.763027	-0.042372	NaN	0.000000	0.001601	0.001787	28.0819	0.030421	0.001979	15.3744	149.855	-168.033	-0.100407	0.761437	-0.298579	-0.299900	-0.042372	15.3744	-0.296512	-4174.95	1.014913E-5	NaN
806	1.000000	0.770786	7.37294e+06	-40439.1	1055.82	-29790	0.000000	0.000000	6.771057	0.026677	NaN	0.000000	0.001634	0.001783	28.0819	0.040083	0.001959	20.4569	140.209	-164.978	-0.023416	0.769467	-0.290552	-0.291870	0.026677	20.4569	-0.291530	-3517.28	-7.584542E-6	NaN
806	1.000000	0.778819	7.37294e+06	-40439.1	1055.82	-29790	0.000000	0.000000	6.779090	0.021528	NaN	0.000000	0.001599	0.001771	28.0821	0.121800	0.002034	59.8818	-114.396	-163.143	-0.024398	0.777520	-0.282518	-0.283817	0.021528	59.8818	-0.282788	-2600.08	-8.279736E-6	NaN
806	1.000000	0.786773	7.37294e+06	-40439.1	1055.82	-29790	0.000000	0.000000	6.787040	-0.061241	NaN	0.000000	0.001642	0.001783	28.0832	0.038724	0.002050	18.8905	-32.7285	-163.004	-0.121530	0.785462	-0.274564	-0.275875	-0.061241	18.8905	-0.272133	-1794.49	3.412695E-5	NaN
806	1.000000	0.794779	7.37294e+06	-40439.1	1055.82	-29790	0.000000	0.000000	6.795049	-0.011290	NaN	0.000000	0.001634	0.001758	28.0836	0.024909	0.001997	12.4761	101.986	-165.563	0.027798	0.793465	-0.266558	-0.267873	-0.011290	12.4761	-0.265879	-1441.47	7.832162E-6	NaN
806	1.000000	0.802813	7.37294e+06	-40439.1	1055.82	-29790	0.000000	0.000000	6.803083	0.009802	NaN	0.000000	0.001641	0.001716	28.0831	0.057813	0.001884	30.6839	-154.032	-163.099	-0.033156	0.801486	-0.258525	-0.259851	0.009802	30.6839	-0.258764	-1121.94	-8.736294E-6	NaN
806	1.000000	0.810791	7.37294e+06	-40439.1	1055.82	-29790	0.000000	0.000000	6.811057	-0.111171	NaN	0.000000	0.001628	0.001776	28.0832	0.073271	0.001942	37.7233	154.947	-165.414	-0.069011	0.809444	-0.250546	-0.251893	-0.111171	37.7233	-0.248336	-774.829	0.000143	NaN
806	1.000000	0.818810	7.37294e+06	-40439.1	1055.82	-29790	0.000000	0.000000	6.819078	-0.051726	NaN	0.000000	0.001638	0.001766	28.083	0.063332	0.002029	31.2076	-66.7609	-164.453	-0.067070	0.817446	-0.242527	-0.243891	-0.051726	31.2076	-0.241284	-601.996	8.592489E-5	NaN
806	1.000000	0.826822	7.37294e+06	-40439.1	1055.82	-29790	0.000000	0.000000	6.827090	-0.046768	NaN	0.000000	0.001620	0.001738	28.0831	0.009163	0.002106	4.350806	60.2721	-168.426	-0.005373	0.825519	-0.234516	-0.235818	-0.046768	4.350806	-0.226454	-351.887	0.000133	NaN
806	1.000000	0.834816	7.37294e+06	-40439.1	1055.82	-29790	0.000000	0.000000	6.835088	0.054792	NaN	0.000000	0.001626	0.001754	28.0834	0.068439	0.002110	32.4327	84.7314	-164.533	-0.017079	0.833477	-0.226521	-0.227860	0.054792	32.4327	-0.227788	-369.446	-0.000148	NaN
806	1.000000	0.842795	7.37294e+06	-40439.1	1055.82	-29790	0.000000	0.000000	6.843065	-0.003977	NaN	0.000000	0.001611	0.001744	28.083	0.118876	0.001948	61.0389	-177.112	-166.107	-0.048675	0.841479	-0.218542	-0.219858	-0.003977	61.0389	-0.218493	-262.766	1.513467E-5	NaN
806	1.000000	0.850812	7.37294e+06	-40439.1	1055.82	-29790	0.000000	0.000000	6.851081	-0.010437	NaN	0.000000	0.001633	0.001725	28.0832	0.019749	0.001999	9.879392	130.442	-164.68	-0.040406	0.849466	-0.210526	-0.211871	-0.010437	9.879392	-0.209733	-189.889	5.496521E-5	NaN
806	1.000000	0.858825	7.37294e+06	-40439.1	1055.82	-29790	0.000000	0.000000	6.859096	0.007503	NaN	0.000000	0.001600	0.001740	28.0832	0.061004	0.001836	33.2213	-124.296	-167.417	0.045185	0.857567	-0.202512	-0.203770	0.007503	33.2213	-0.202681	-145.771	-5.147219E-5	NaN
806	1.000000	0.866796	7.37294e+06	-40439.1	1055.82	-29790	0.000000	0.000000	6.867067	0.023309	NaN	0.000000	0.001629	0.001718	28.0831	0.044856	0.001938	23.1469	21.725	-168.32	0.042283	0.865478	-0.194541	-0.195859	0.023309	23.1469	-0.195296	-110.182	-0.000212	NaN
806	1.000000	0.874814	7.37294e+06	-40439.1	1055.82	-29790	0.000000	0.000000	6.875086	0.047209	NaN	0.000000	0.001582	0.001745	28.0831	0.075719	0.001912	39.6075	71.8842	-165.288	0.042884	0.873499	-0.186523	-0.187838	0.047209	39.6075	-0.187417	-81.4294	-0.000580	NaN
806	1.000000	0.882854	7.37294e+06	-40439.1	1055.82	-29790	0.000000	0.000000	6.883122	-0.058004	NaN	0.000000	0.001657	0.001727	28.0831	0.229483	0.002040	112.504	-156.517	-162.244	-0.104817	0.881514	-0.178483	-0.179824	-0.058004	112.504	-0.178097	-56.6273	0.001024	NaN
806	1.000000	0.890802	7.37294e+06	-40439.1	1055.82	-29790	0.000000	0.000000	6.891073	0.008291	NaN	0.000000	0.001640	0.001784	28.0834	0.018084	0.001966	9.200177	174.69	-166.361	-0.016057	0.889497	-0.170535	-0.171840	0.008291	9.200177	-0.171211	-43.1138	-0.000192	NaN
806	1.000000	0.898833	7.37294e+06	-40439.1	1055.82	-29790	0.000000	0.000000	6.899101	-0.033340	NaN	0.000000	0.001631	0.001706	28.0832	0.008436	0.001928	4.375815	100.522	-163.953	-0.079582	0.897500	-0.162505	-0.163838	-0.033340	4.375815	-0.156790	-24.0283	0.001388	NaN
806	1.000000	0.906839	7.37294e+06	-40439.1	1055.82	-29790	0.000000	0.000000	6.907107	-0.031231	NaN	0.000000	0.001735	0.001765	28.0831	0.087819	0.002088	42.0535	17.0057	-164.585	0.007852	0.905526	-0.154499	-0.155811	-0.031231	42.0535	-0.153942	-21.3554	0.001462	NaN
806	1.000000	0.914814	7.37294e+06	-40439.1	1055.82	-29790	0.000000	0.000000	6.915084	-0.006928	NaN	0.000000	0.001706	0.001750	28.0832	0.054071	0.001880	28.7556	-116.399	-164.223	-0.103014	0.913524	-0.146524	-0.147813	-0.006928	28.7556	-0.146343	-15.5225	0.000446	NaN
806	1.000000	0.922836	7.37294e+06	-40439.1	1055.82	-29790	0.000000	0.000000	6.923106	0.002575	NaN	0.000000	0.001710	0.001770	28.0818	0.052207	0.002049	25.4814	109.118	-167.964	-0.003080	0.921462	-0.138502	-0.139875	0.002575	25.4814	-0.138577	-11.1221	-0.000231	NaN
806	1.000000	0.930871	7.37294e+06	-40439.1	1055.82	-29790	0.000000	0.000000	6.931140	-0.022027	NaN	0.000000	0.001673	0.001743	28.082	0.072763	0.002140	34	136.17	-165.494	0.022376	0.929565	-0.130467	-0.131773	-0.022027	34	-0.129981	-7.614403	0.002893	NaN
806	1.000000	0.938841	7.37294e+06	-40439.1	1055.82	-29790	0.000000	0.000000	6.939110	-0.025975	NaN	0.000000	0.001682	0.001783	28.0819	0.101780	0.001961	51.9065	-89.5607	-163.927	0.022647	0.937515	-0.122496	-0.123822	-0.025975	51.9065	-0.122121	-5.329698	0.004874	NaN
806	1.000000	0.946850	7.37294e+06	-40439.1	1055.82	-29790	0.000000	0.000000	6.947121	0.031054	NaN	0.000000	0.001722	0.001756	28.0818	0.028348	0.001965	14.4265	167.764	-162.577	0.065232	0.945576	-0.114487	-0.115762	0.031054	14.4265	-0.116102	-4.024935	-0.007715	NaN
806	1.000000	0.954833	7.37294e+06	-40439.1	1055.82	-29790	0.000000	0.000000	6.955104	0.025941	NaN	0.000000	0.001654	0.001781	28.0819	0.046044	0.001998	23.0483	91.2258	-161.822	0.049257	0.953556	-0.106504	-0.107781	0.025941	23.0483	-0.107349	-2.640063	-0.009826	NaN
806	1.000000	0.962855	7.37294e+06	-40439.1	1055.82	-29790	0.000000	0.000000	6.963126	0.014872	NaN	0.000000	0.001639	0.001751	28.082	0.055177	0.002008	27.4852	-33.2359	-165.129	0.008857	0.961576	-0.098482	-0.099761	0.014872	27.4852	-0.098888	-1.726010	-0.008616	NaN
806	1.000000	0.970839	7.37294e+06	-40439.1	1055.82	-29790	0.000000	0.000000	6.971110	0.020732	NaN	0.000000	0.001652	0.001706	28.082	0.071736	0.001940	36.9867	-147.76	-168.28	-0.001397	0.969565	-0.090498	-0.091772	0.020732	36.9867	-0.090918	-1.135807	-0.018253	NaN
806	1.000000	0.978837	7.37294e+06	-40439.1	1055.82	-29790	0.000000	0.000000	6.979106	-0.022413	NaN	0.000000	0.001662	0.001704	28.0821	0.201489	0.002014	100.067	103.111	-162.213	-0.028909	0.977559	-0.082500	-0.083778	-0.022413	100.067	-0.082333	-0.707233	0.031691	NaN
806	1.000000	0.986865	7.37294e+06	-40439.1	1055.82	-29790	0.000000	0.000000	6.987136	0.013584	NaN	0.000000	0.001660	0.001727	28.0822	0.024536	0.002006	12.2326	-97.7752	-168.6	0.091629	0.985585	-0.074472	-0.075752	0.013584	12.2326	-0.075305	-0.470335	-0.028882	NaN
806	1.000000	0.994875	7.37294e+06	-40439.1	1055.82	-29790	0.000000	0.000000	6.995143	-0.052523	NaN	0.000000	0.001631	0.001704	28.0818	0.041126	0.001977	20.8001	-143.273	-165.301	-0.051087	0.993562	-0.066462	-0.067775	-0.052523	20.8001	-0.064569	-0.242432	0.216651	NaN
806	1.000000	1.002880	7.37294e+06	-40439.1	1055.82	-29790	0.000000	0.000000	7.003150	0.017622	NaN	0.000000	0.001656	0.001713	28.0823	0.115997	0.002049	56.6201	96.9017	-166.671	-0.004470	1.001563	-0.058458	-0.059774	0.017622	56.6201	-0.058691	-0.165118	-0.106727	NaN
806	1.000000	1.010876	7.37294e+06	-40439.1	1055.82	-29790	0.000000	0.000000	7.011145	-0.020606	NaN	0.000000	0.001680	0.001738	28.082	0.086496	0.002129	40.6222	126.758	-165.521	0.048818	1.009631	-0.050461	-0.051706	-0.020606	40.6222	-0.050081	-0.091766	0.224546	NaN
806	1.000000	1.018883	7.37294e+06	-40439.1	1055.82	-29790	0.000000	0.000000	7.019155	0.047900	NaN	0.000000	0.001661	0.001741	28.0824	0.031673	0.002029	15.6069	71.8257	-165.041	-0.067129	1.017565	-0.042454	-0.043772	0.047900	15.6069	-0.044756	-0.063172	-0.758246	NaN
806	1.000000	1.026871	7.37294e+06	-40439.1	1055.82	-29790	0.000000	0.000000	7.027142	0.019225	NaN	0.000000	0.001628	0.001728	28.082	0.005861	0.002125	2.758616	175.145	-164.884	-0.040284	1.025584	-0.034466	-0.035753	0.019225	2.758616	-0.039693	-0.044261	-0.434353	NaN
806	1.000000	1.034894	7.37294e+06	-40439.1	1055.82	-29790	0.000000	0.000000	7.035162	-0.044492	NaN	0.000000	0.001682	0.001732	28.0819	0.045547	0.001828	24.9198	-11.7065	-162.045	0.034466	1.033571	-0.026443	-0.027766	-0.044492	24.9198	-0.025104	-0.016976	2.620853	NaN
806	1.000000	1.042866	7.37294e+06	-40439.1	1055.82	-29790	0.000000	0.000000	7.043135	-0.020436	NaN	0.000000	0.001649	0.001703	28.0821	0.097289	0.002130	45.6749	142.317	-161.642	0.064107	1.041567	-0.018471	-0.019770	-0.020436	45.6749	-0.018136	-0.011253	1.815960	NaN
806	1.000000	1.050896	7.37294e+06	-40439.1	1055.82	-29790	0.000000	0.000000	7.051164	-0.032769	NaN	0.000000	0.001644	0.001752	28.0819	0.035873	0.002012	17.8271	-100.683	-167.518	-0.078568	1.049543	-0.010442	-0.011794	-0.032769	17.8271	-0.009063	-0.005849	5.602310	NaN
806	1.000000	1.058880	7.37294e+06	-40439.1	1055.82	-29790	0.000000	0.000000	7.059194	1.076106	NaN	0.000000	0.001635	0.001724	28.0835	1.455706	0.001858	783.416	7.596054	-166.874	0.196635	1.057567	-0.002457	-0.003771	1.076106	783.416	-0.003488	-0.002444	-440.258	NaN
806	2.000000	1.065449	7.37294e+06	-40439.1	1055.82	-29790	0.000000	0.000000	7.066095	9.138653	NaN	0.000000	0.001653	0.001678	28.0832	9.431964	0.001801	5237.55	8.999346	-172.108	8.870155	1.065065	0.004112	0.003728	9.138653	5237.55	0.002803	0.002215	4125.56	101672
806	2.000000	1.067419	7.37294e+06	-40439.1	1055.82	-29790	0.000000	0.000000	7.068180	11.9543	NaN	0.000000	0.001691	0.001716	28.0829	10.837	0.001575	6880.75	3.014288	-169.143	11.6914	1.067080	0.006081	0.005743	11.9543	6880.75	0.004778	0.003932	3040.29	100255
806	2.000000	1.069450	7.37294e+06	-40439.1	1055.82	-29790	0.000000	0.000000	7.070290	13.8546	NaN	0.000000	0.001648	0.001703	28.0831	14.017	0.001740	8057.47	0.699977	-168.742	13.447	1.069039	0.008113	0.007702	13.8546	8057.47	0.006823	0.005860	2364.35	96168
806	2.000000	1.071375	7.37294e+06	-40439.1	1055.82	-29790	0.000000	0.000000	7.072446	19.4672	NaN	0.000000	0.001617	0.001712	28.0828	15.5291	0.001746	8895.61	6.463460	-173.912	18.6732	1.071031	0.010038	0.009694	19.4672	8895.61	0.008397	0.007454	2611.72	94137.1
806	2.000000	1.073356	7.37294e+06	-40439.1	1055.82	-29790	0.000000	0.000000	7.074523	21.812	NaN	0.000000	0.001631	0.001697	28.083	18.2091	0.001707	10670.4	4.175424	-175.386	20.1649	1.073036	0.012019	0.011699	21.812	10670.4	0.010486	0.009726	2242.53	98850
806	2.000000	1.075360	7.37294e+06	-40439.1	1055.82	-29790	0.000000	0.000000	7.076741	27.0324	NaN	0.000000	0.001656	0.001700	28.0831	21.045	0.001676	12554.8	6.162490	-177.637	25.087	1.074999	0.014023	0.013662	27.0324	12554.8	0.012408	0.011982	2256.01	104788
806	2.000000	1.077364	7.37294e+06	-40439.1	1055.82	-29790	0.000000	0.000000	7.078820	28.8668	NaN	0.000000	0.001639	0.001705	28.0831	23.146	0.001873	12355.5	6.285565	-177.379	29.4018	1.077076	0.016027	0.015739	28.8668	12355.5	0.014275	0.014330	2014.41	94299.4
806	2.000000	1.079367	7.37294e+06	-40439.1	1055.82	-29790	0.000000	0.000000	7.081090	35.3674	NaN	0.000000	0.001640	0.001729	28.0833	24.8596	0.001855	13398.7	5.694215	-176.344	35.5603	1.079025	0.018029	0.017688	35.3674	13398.7	0.016050	0.016711	2116.46	94697.7
806	2.000000	1.081345	7.37294e+06	-40439.1	1055.82	-29790	0.000000	0.000000	7.083352	42.2749	NaN	0.000000	0.001613	0.001722	28.083	26.653	0.001778	14989.8	5.688383	-179.26	42.0248	1.081110	0.020007	0.019773	42.2749	14989.8	0.017892	0.019338	2186.12	98483.6
806	2.000000	1.083297	7.37294e+06	-40439.1	1055.82	-29790	0.000000	0.000000	7.085667	51.09	NaN	0.000000	0.001621	0.001725	28.0831	29.2561	0.001837	15921.9	6.228930	-179.552	49.4545	1.082981	0.021960	0.021644	51.09	15921.9	0.019553	0.021845	2338.72	98421.1
806	2.000000	1.085325	7.37294e+06	-40439.1	1055.82	-29790	0.000000	0.000000	7.087875	55.4741	NaN	0.000000	0.001691	0.001704	28.0833	31.0714	0.001803	17229.2	4.324932	-178.862	52.8158	1.085040	0.023988	0.023703	55.4741	17229.2	0.021573	0.025074	2212.37	99408
806	2.000000	1.087237	7.37294e+06	-40439.1	1055.82	-29790	0.000000	0.000000	7.089983	60.2534	NaN	0.000000	0.001642	0.001703	28.083	32.0134	0.001686	18982.4	3.326914	-178.322	56.3714	1.086952	0.025900	0.025615	60.2534	18982.4	0.023519	0.028376	2123.37	102955
806	2.000000	1.089352	7.37294e+06	-40439.1	1055.82	-29790	0.000000	0.000000	7.092359	66.5941	NaN	0.000000	0.001623	0.001710	28.0833	35.8337	0.001851	19354.6	5.990849	178.726	67.112	1.089038	0.028015	0.027701	66.5941	19354.6	0.025434	0.031810	2093.47	99145.3
806	2.000000	1.091317	7.37294e+06	-40439.1	1055.82	-29790	0.000000	0.000000	7.094762	77.2592	NaN	0.000000	0.001648	0.001706	28.0831	36.2475	0.001851	19585.6	4.026159	-179.357	75.1796	1.091005	0.029979	0.029668	77.2592	19585.6	0.027021	0.034795	2220.4	95929.2
806	2.000000	1.093284	7.37294e+06	-40439.1	1055.82	-29790	0.000000	0.000000	7.097133	87.0751	NaN	0.000000	0.001625	0.001700	28.0829	37.388	0.001837	20351.9	1.168329	-175.819	85.6042	1.092987	0.031947	0.031650	87.0751	20351.9	0.028738	0.038169	2281.33	95175.4
806	2.000000	1.095376	7.37294e+06	-40439.1	1055.82	-29790	0.000000	0.000000	7.099376	90.7732	NaN	0.000000	0.001606	0.001747	28.083	39.925	0.001849	21598	4.474881	-179.615	91.86	1.094933	0.034039	0.033596	90.7732	21598	0.030886	0.042601	2130.77	95604.1
806	2.000000	1.097292	7.37294e+06	-40439.1	1055.82	-29790	0.000000	0.000000	7.101827	103.783	NaN	0.000000	0.001618	0.001708	28.0816	41.4671	0.001705	24325.2	6.638380	176.507	102.718	1.096965	0.035954	0.035628	103.783	24325.2	0.032755	0.046647	2224.87	102901
806	2.000000	1.099403	7.37294e+06	-40439.1	1055.82	-29790	0.000000	0.000000	7.104178	109.621	NaN	0.000000	0.001619	0.001722	28.0824	45.055	0.001778	25343.3	4.906347	178.928	114.197	1.099021	0.038066	0.037684	109.621	25343.3	0.034822	0.051332	2135.54	102198
806	2.000000	1.101307	7.37294e+06	-40439.1	1055.82	-29790	0.000000	0.000000	7.106422	117.876	NaN	0.000000	0.001599	0.001754	28.0819	46.0817	0.001688	27300.8	4.027827	177.364	116.858	1.101042	0.039970	0.039705	117.876	27300.8	0.036732	0.055856	2110.36	105540
806	2.000000	1.103333	7.37294e+06	-40439.1	1055.82	-29790	0.000000	0.000000	7.108986	130.974	NaN	0.000000	0.001652	0.001703	28.0816	48.4702	0.001765	27455.1	4.024377	178.261	130.989	1.102981	0.041996	0.041644	130.974	27455.1	0.038418	0.060005	2182.72	102401
806	2.000000	1.105293	7.37294e+06	-40439.1	1055.82	-29790	0.000000	0.000000	7.111226	137.813	NaN	0.000000	0.001653	0.001720	28.0819	50.5442	0.001747	28925.8	1.509472	179.577	134.88	1.105059	0.043956	0.043722	137.813	28925.8	0.040382	0.065020	2119.53	103642
806	2.000000	1.107361	7.37294e+06	-40439.1	1055.82	-29790	0.000000	0.000000	7.113724	148.28	NaN	0.000000	0.001644	0.001757	28.0817	53.6778	0.001855	28940.4	8.831636	173.031	150.771	1.106988	0.046023	0.045651	148.28	28940.4	0.042181	0.069786	2124.79	100091
806	2.000000	1.109258	7.37294e+06	-40439.1	1055.82	-29790	0.000000	0.000000	7.116032	158.243	NaN	0.000000	0.001615	0.001746	28.0842	54.9057	0.001757	31246.5	3.371138	176.656	155.171	1.109047	0.047921	0.047710	158.243	31246.5	0.044123	0.075117	2106.62	104161
806	2.000000	1.111299	7.37294e+06	-40439.1	1055.82	-29790	0.000000	0.000000	7.118686	173.188	NaN	0.000000	0.001599	0.001724	28.0846	56.6646	0.001742	32522.2	4.726052	176.27	173.073	1.110975	0.049961	0.049638	173.188	32522.2	0.045967	0.080357	2155.22	104819
806	2.000000	1.113170	7.37294e+06	-40439.1	1055.82	-29790	0.000000	0.000000	7.120980	183.47	NaN	0.000000	0.001590	0.001729	28.0827	59.0162	0.001750	33730.6	5.106400	174.246	176.246	1.112938	0.051833	0.051601	183.47	33730.6	0.047753	0.085595	2143.45	105335
806	2.000000	1.115309	7.37294e+06	-40439.1	1055.82	-29790	0.000000	0.000000	7.123742	198.651	NaN	0.000000	0.001611	0.001717	28.082	61.2921	0.001702	36011.7	7.057531	173.561	197.139	1.114977	0.053971	0.053640	198.651	36011.7	0.049834	0.091901	2161.58	108532
806	2.000000	1.117246	7.37294e+06	-40439.1	1055.82	-29790	0.000000	0.000000	7.126057	207.839	NaN	0.000000	0.001607	0.001711	28.0818	62.9049	0.001692	37175.5	2.460995	176.247	205.593	1.116939	0.055908	0.055602	207.839	37175.5	0.051715	0.097789	2125.38	108614
806	2.000000	1.119241	7.37294e+06	-40439.1	1055.82	-29790	0.000000	0.000000	7.128486	218.382	NaN	0.000000	0.001635	0.001689	28.0819	65.7228	0.001805	36418	0.673718	178.533	215.278	1.119085	0.057904	0.057747	218.382	36418	0.053407	0.103233	2115.43	103557
806	2.000000	1.121292	7.37294e+06	-40439.1	1055.82	-29790	0.000000	0.000000	7.131221	235.017	NaN	0.000000	0.001647	0.001696	28.082	67.5828	0.001851	36504.3	6.912323	172.319	234.436	1.120979	0.059955	0.059642	235.017	36504.3	0.055127	0.108915	2157.8	101059
806	2.000000	1.123300	7.37294e+06	-40439.1	1055.82	-29790	0.000000	0.000000	7.133880	250.888	NaN	0.000000	0.001620	0.001701	28.0815	70.1177	0.001794	39089	7.210631	171.498	252.305	1.122955	0.061962	0.061618	250.888	39089	0.057149	0.115782	2166.89	104956
806	2.000000	1.125329	7.37294e+06	-40439.1	1055.82	-29790	0.000000	0.000000	7.136497	265.18	NaN	0.000000	0.001640	0.001696	28.0819	71.6285	0.001702	42073	5.132262	173.546	266.393	1.124884	0.063992	0.063547	265.18	42073	0.059265	0.123185	2152.69	109521
806	2.000000	1.127271	7.37294e+06	-40439.1	1055.82	-29790	0.000000	0.000000	7.138774	273.336	NaN	0.000000	0.001622	0.001719	28.0815	73.5278	0.001799	40881.1	5.399801	173.107	272.133	1.126918	0.065934	0.065581	273.336	40881.1	0.060919	0.129124	2116.84	103942
806	2.000000	1.129305	7.37294e+06	-40439.1	1055.82	-29790	0.000000	0.000000	7.141489	289.919	NaN	0.000000	0.001630	0.001683	28.0817	75.512	0.001729	43673.6	6.703131	172.174	290.55	1.128855	0.067967	0.067518	289.919	43673.6	0.062989	0.136743	2120.18	107905
806	2.000000	1.131218	7.37294e+06	-40439.1	1055.82	-29790	0.000000	0.000000	7.144273	311.096	NaN	0.000000	0.001612	0.001719	28.083	75.3846	0.001786	42216.3	2.194128	176.868	306.862	1.130849	0.069881	0.069512	311.096	42216.3	0.064354	0.141883	2192.63	102397
806	2.000000	1.133221	7.37294e+06	-40439.1	1055.82	-29790	0.000000	0.000000	7.146730	322.148	NaN	0.000000	0.001602	0.001677	28.0831	79.137	0.001839	43039.2	6.590077	171.312	319.164	1.132891	0.071884	0.071554	322.148	43039.2	0.066270	0.149246	2158.5	101786
806	2.000000	1.135311	7.37294e+06	-40439.1	1055.82	-29790	0.000000	0.000000	7.149413	336.601	NaN	0.000000	0.001588	0.001730	28.0832	80.8289	0.001692	47779.3	5.416924	172.135	335.494	1.134897	0.073973	0.073560	336.601	47779.3	0.068690	0.158798	2119.67	109544
806	2.000000	1.137224	7.37294e+06	-40439.1	1055.82	-29790	0.000000	0.000000	7.151967	352.188	NaN	0.000000	0.001553	0.001725	28.0829	81.6013	0.001749	46645.1	1.906107	175.758	347.681	1.136941	0.075886	0.075604	352.188	46645.1	0.070224	0.164998	2134.49	104915
806	2.000000	1.139255	7.37294e+06	-40439.1	1055.82	-29790	0.000000	0.000000	7.154670	368.531	NaN	0.000000	0.001591	0.001727	28.0829	85.331	0.001893	45075.1	3.878871	174.302	367.46	1.138857	0.077918	0.077520	368.531	45075.1	0.071786	0.171428	2149.77	99464.7
806	2.000000	1.141265	7.37294e+06	-40439.1	1055.82	-29790	0.000000	0.000000	7.157386	385.716	NaN	0.000000	0.001553	0.001708	28.0828	86.4538	0.001821	47473.9	5.152107	172.804	387.912	1.140922	0.079927	0.079585	385.716	47473.9	0.073834	0.180033	2142.48	102224
806	2.000000	1.143198	7.37294e+06	-40439.1	1055.82	-29790	0.000000	0.000000	7.160039	403.228	NaN	0.000000	0.001563	0.001725	28.0832	89.0758	0.001804	49370.3	6.974425	170.084	400.075	1.143013	0.081861	0.081676	403.228	49370.3	0.075735	0.188197	2142.59	103976
806	2.000000	1.145189	7.37294e+06	-40439.1	1055.82	-29790	0.000000	0.000000	7.162903	424.485	NaN	0.000000	0.001582	0.001743	28.0831	88.9139	0.001699	52328.8	-0.271575	178.016	419.445	1.144924	0.083851	0.083586	424.485	52328.8	0.077768	0.197113	2153.51	107685
806	2.000000	1.147267	7.37294e+06	-40439.1	1055.82	-29790	0.000000	0.000000	7.165355	433.581	NaN	0.000000	0.001607	0.001754	28.0829	93.0634	0.001716	54234	6.825009	169.608	432.865	1.146889	0.085930	0.085552	433.581	54234	0.079934	0.206828	2096.34	108953
806	2.000000	1.149233	7.37294e+06	-40439.1	1055.82	-29790	0.000000	0.000000	7.168110	452.784	NaN	0.000000	0.001603	0.001707	28.0831	94.5641	0.001733	54577.3	3.178698	173.021	449.285	1.149047	0.087896	0.087709	452.784	54577.3	0.081674	0.214789	2108.04	107592
806	2.000000	1.151301	7.37294e+06	-40439.1	1055.82	-29790	0.000000	0.000000	7.170852	469.176	NaN	0.000000	0.001610	0.001697	28.0829	95.374	0.001679	56804.2	3.658707	172.429	470.202	1.150979	0.089964	0.089641	469.176	56804.2	0.083769	0.224565	2089.26	109517
806	2.000000	1.153107	7.37294e+06	-40439.1	1055.82	-29790	0.000000	0.000000	7.173653	493.389	NaN	0.000000	0.001605	0.001711	28.0832	97.4916	0.001760	55395.6	2.516913	174.195	484.55	1.152916	0.091770	0.091579	493.389	55395.6	0.085090	0.230829	2137.46	105342
806	2.000000	1.155159	7.37294e+06	-40439.1	1055.82	-29790	0.000000	0.000000	7.176362	509.388	NaN	0.000000	0.001595	0.001709	28.0829	100.906	0.001736	58120.3	6.071109	170.484	505.349	1.154816	0.093822	0.093479	509.388	58120.3	0.087248	0.241244	2111.51	108112
806	2.000000	1.157096	7.37294e+06	-40439.1	1055.82	-29790	0.000000	0.000000	7.179289	533.465	NaN	0.000000	0.001582	0.001703	28.0832	101.195	0.001767	57278.8	3.241474	173.338	525.277	1.156874	0.095759	0.095537	533.465	57278.8	0.088774	0.248733	2144.73	104930
806	2.000000	1.159135	7.37294e+06	-40439.1	1055.82	-29790	0.000000	0.000000	7.182099	552.229	NaN	0.000000	0.001639	0.001724	28.0833	105.01	0.001794	58538.9	3.149510	172.883	545.74	1.158710	0.097798	0.097373	552.229	58538.9	0.090722	0.258454	2136.66	105203
806	2.000000	1.161266	7.37294e+06	-40439.1	1055.82	-29790	0.000000	0.000000	7.184884	568.132	NaN	0.000000	0.001573	0.001708	28.0832	105.203	0.001773	59340	1.905542	174.149	567.278	1.160932	0.099929	0.099595	568.132	59340	0.092748	0.268745	2114.02	104581
806	2.000000	1.163179	7.37294e+06	-40439.1	1055.82	-29790	0.000000	0.000000	7.187605	587.785	NaN	0.000000	0.001549	0.001700	28.0831	109.361	0.001816	60225.2	7.597224	168.501	585.222	1.162768	0.101842	0.101431	587.785	60225.2	0.094522	0.277912	2115.01	104375