File: remote_trans/data/nanoindenter/0828-1/data/Data_2025-08-06,11h17m57s/2025-07-22_16-23-58_1_408.txt
2025-07-22, 16:23:58, 1
Index	Phase	Displacement	Time	Pos X	Pos Y	Pos Z	Rot A	Rot B	Piezo Z	Force A	Force B	Gripper	Voltage A	Voltage B	Temperature	Amplitude force	Amplitude pos	Stiffness	Phase shift	Phase excitation	Force A raw	Displacement raw	HMax	HMax raw	Real Force	Real Stiffness	Contact Depth	Area	Hardness	Reduced Mod.
[#]	[#]	[um]	[s]	[um]	[um]	[um]	[m°]	[m°]	[um]	[uN]	[uN]	[V]	[V]	[V]	[°C]	[uN]	[um]	[N/m]	[°]	[°]	[uN]	[um]	[um]	[um]	[uN]	[N/m]	[um]	[um^2]	[MPa]	[MPa]
408	1.000000	0.002039	7.36905e+06	-56689.1	1005.82	-29738.4	0.000000	0.000000	6.002778	0.006446	NaN	0.000000	0.001617	0.001614	28.0801	0.093044	0.000858	108.481	-138.275	-169.875	0.045688	0.000838	-1.220508	-1.221710	0.006446	108.481	-1.220553	-2.069697E+16	-3.114560E-19	NaN
408	1.000000	0.012146	7.36905e+06	-56689.1	1005.82	-29738.4	0.000000	0.000000	6.012890	0.138926	NaN	0.000000	0.001657	0.001683	28.0814	0.045619	0.001307	34.9161	38.8603	14.832	0.045269	0.010654	-1.210402	-1.211893	0.138926	34.9161	-1.213386	-1.659481E+16	-8.371681E-18	NaN
408	1.000000	0.022029	7.36905e+06	-56689.1	1005.82	-29738.4	0.000000	0.000000	6.022769	0.043220	NaN	0.000000	0.001629	0.001627	28.0811	0.130621	0.001857	70.3239	-72.0504	-163.897	0.063479	0.020720	-1.200519	-1.201827	0.043220	70.3239	-1.200980	-1.132051E+16	-3.817891E-18	NaN
408	1.000000	0.031997	7.36905e+06	-56689.1	1005.82	-29738.4	0.000000	0.000000	6.032737	0.021199	NaN	0.000000	0.001617	0.001602	28.0811	0.082944	0.001922	43.146	91.0561	13.095	-0.023113	0.030698	-1.190550	-1.191850	0.021199	43.146	-1.190919	-8.301004E+15	-2.553736E-18	NaN
408	1.000000	0.041995	7.36905e+06	-56689.1	1005.82	-29738.4	0.000000	0.000000	6.042737	0.093882	NaN	0.000000	0.001624	0.001624	28.0808	0.083819	0.001973	42.4838	119.21	-163.659	0.086203	0.040753	-1.180553	-1.181795	0.093882	42.4838	-1.182210	-6.345695E+15	-1.479467E-17	NaN
408	1.000000	0.052011	7.36905e+06	-56689.1	1005.82	-29738.4	0.000000	0.000000	6.052752	0.058733	NaN	0.000000	0.001633	0.001636	28.081	0.054368	0.002038	26.6768	-92.0235	14.9742	0.000111	0.050666	-1.170537	-1.171882	0.058733	26.6768	-1.172188	-4.658054E+15	-1.260886E-17	NaN
408	1.000000	0.061994	7.36905e+06	-56689.1	1005.82	-29738.4	0.000000	0.000000	6.062736	0.082502	NaN	0.000000	0.001640	0.001637	28.0813	0.076102	0.001958	38.8611	165.301	-163.052	0.105087	0.060753	-1.160554	-1.161794	0.082502	38.8611	-1.162146	-3.416892E+15	-2.414547E-17	NaN
408	1.000000	0.072008	7.36905e+06	-56689.1	1005.82	-29738.4	0.000000	0.000000	6.072747	0.007191	NaN	0.000000	0.001594	0.001622	28.0814	0.106928	0.002202	48.5518	-167.337	14.1043	0.012882	0.070667	-1.150540	-1.151881	0.007191	48.5518	-1.150651	-2.396321E+15	-3.000722E-18	NaN
408	1.000000	0.082003	7.36905e+06	-56689.1	1005.82	-29738.4	0.000000	0.000000	6.082743	0.056768	NaN	0.000000	0.001636	0.001620	28.0812	0.087641	0.001880	46.6163	120.268	-163.91	-0.059640	0.080628	-1.140545	-1.141919	0.056768	46.6163	-1.141458	-1.804241E+15	-3.146361E-17	NaN
408	1.000000	0.092036	7.36905e+06	-56689.1	1005.82	-29738.4	0.000000	0.000000	6.092776	0.040491	NaN	0.000000	0.001631	0.001623	28.0813	0.038488	0.001812	21.2432	132.302	14.4121	0.075587	0.090698	-1.130512	-1.131850	0.040491	21.2432	-1.131941	-1.344807E+15	-3.010879E-17	NaN
408	1.000000	0.102018	7.36905e+06	-56689.1	1005.82	-29738.4	0.000000	0.000000	6.102759	0.047278	NaN	0.000000	0.001627	0.001598	28.0813	0.036418	0.001961	18.5757	143.351	-167.153	0.061277	0.100678	-1.120530	-1.121869	0.047278	18.5757	-1.122438	-1.002736E+15	-4.714920E-17	NaN
408	1.000000	0.112039	7.36905e+06	-56689.1	1005.82	-29738.4	0.000000	0.000000	6.112780	0.054384	NaN	0.000000	0.001683	0.001644	28.0813	0.023663	0.001928	12.27	-125.774	12.9986	0.112066	0.110731	-1.110508	-1.111817	0.054384	12.27	-1.113832	-7.686287E+14	-7.075416E-17	NaN
408	1.000000	0.122024	7.36905e+06	-56689.1	1005.82	-29738.4	0.000000	0.000000	6.122765	0.068453	NaN	0.000000	0.001680	0.001645	28.0811	0.105503	0.001918	55.0033	28.1188	-164.202	0.041525	0.120755	-1.100524	-1.101793	0.068453	55.0033	-1.101457	-5.243637E+14	-1.305453E-16	NaN
408	1.000000	0.132070	7.36905e+06	-56689.1	1005.82	-29738.4	0.000000	0.000000	6.132810	0.044399	NaN	0.000000	0.001665	0.001638	28.0813	0.037178	0.002047	18.1598	-61.431	15.2702	0.012953	0.130672	-1.090478	-1.091875	0.044399	18.1598	-1.092312	-3.952310E+14	-1.123357E-16	NaN
408	1.000000	0.142045	7.36905e+06	-56689.1	1005.82	-29738.4	0.000000	0.000000	6.142784	0.033153	NaN	0.000000	0.001696	0.001651	28.0805	0.066619	0.001996	33.3777	124.443	-160.623	-0.006957	0.140771	-1.080503	-1.081777	0.033153	33.3777	-1.081248	-2.807245E+14	-1.180965E-16	NaN
408	1.000000	0.152069	7.36905e+06	-56689.1	1005.82	-29738.4	0.000000	0.000000	6.152808	0.017327	NaN	0.000000	0.001653	0.001711	28.0802	0.033673	0.002030	16.5839	-29.1602	16.7858	-0.072206	0.150691	-1.070479	-1.071857	0.017327	16.5839	-1.071263	-2.061350E+14	-8.405741E-17	NaN
408	1.000000	0.162080	7.36905e+06	-56689.1	1005.82	-29738.4	0.000000	0.000000	6.162819	0.019556	NaN	0.000000	0.001664	0.001598	28.08	0.057490	0.001954	29.4189	-76.9625	-163.674	0.072725	0.160734	-1.060468	-1.061813	0.019556	29.4189	-1.060967	-1.499029E+14	-1.304556E-16	NaN
408	1.000000	0.172039	7.36905e+06	-56689.1	1005.82	-29738.4	0.000000	0.000000	6.172778	0.011427	NaN	0.000000	0.001647	0.001626	28.0804	0.026343	0.002035	12.9458	97.422	15.1017	-0.002898	0.170725	-1.050509	-1.051822	0.011427	12.9458	-1.051171	-1.107015E+14	-1.032196E-16	NaN
408	1.000000	0.182066	7.36905e+06	-56689.1	1005.82	-29738.4	0.000000	0.000000	6.182809	0.087584	NaN	0.000000	0.001678	0.001648	28.08	0.062854	0.001905	32.9996	-150.386	-162.967	0.134063	0.180691	-1.040481	-1.041857	0.087584	32.9996	-1.042472	-8.456735E+13	-1.035673E-15	NaN
408	1.000000	0.192050	7.36905e+06	-56689.1	1005.82	-29738.4	0.000000	0.000000	6.192790	0.047096	NaN	0.000000	0.001665	0.001621	28.08	0.136935	0.001955	70.0384	136.038	18.2493	-0.016292	0.190668	-1.030498	-1.031880	0.047096	70.0384	-1.031002	-5.928664E+13	-7.943758E-16	NaN
408	1.000000	0.202059	7.36905e+06	-56689.1	1005.82	-29738.4	0.000000	0.000000	6.202799	0.030691	NaN	0.000000	0.001689	0.001656	28.0798	0.022132	0.001941	11.3999	-124.632	-164.218	0.085103	0.200742	-1.020488	-1.021806	0.030691	11.3999	-1.022507	-4.557086E+13	-6.734748E-16	NaN
408	1.000000	0.212079	7.36905e+06	-56689.1	1005.82	-29738.4	0.000000	0.000000	6.212816	-0.040458	NaN	0.000000	0.001679	0.001633	28.0801	0.083181	0.002023	41.1105	29.588	12.356	-0.030439	0.210754	-1.010468	-1.011794	-0.040458	41.1105	-1.009730	-3.067248E+13	1.319045E-15	NaN
408	1.000000	0.222084	7.36905e+06	-56689.1	1005.82	-29738.4	0.000000	0.000000	6.222824	0.028952	NaN	0.000000	0.001685	0.001612	28.08	0.024741	0.001946	12.7152	-29.9139	-166.321	-0.058161	0.220772	-1.000464	-1.001775	0.028952	12.7152	-1.002171	-2.426625E+13	-1.193079E-15	NaN
408	1.000000	0.232082	7.36905e+06	-56689.1	1005.82	-29738.4	0.000000	0.000000	6.232820	0.008787	NaN	0.000000	0.001685	0.001659	28.0799	0.112062	0.002055	54.5219	69.0892	13.4088	0.005271	0.230741	-0.990466	-0.991807	0.008787	54.5219	-0.990587	-1.694401E+13	-5.186045E-16	NaN
408	1.000000	0.242085	7.36905e+06	-56689.1	1005.82	-29738.4	0.000000	0.000000	6.242829	0.133195	NaN	0.000000	0.001660	0.001661	28.08	0.077928	0.001938	40.2054	-0.469528	-164.012	0.069295	0.240795	-0.980462	-0.981752	0.133195	40.2054	-0.982947	-1.336933E+13	-9.962736E-15	NaN
408	1.000000	0.252098	7.36905e+06	-56689.1	1005.82	-29738.4	0.000000	0.000000	6.252837	0.008604	NaN	0.000000	0.001661	0.001655	28.0802	0.115664	0.002040	56.698	-152.674	15.626	-0.023361	0.250758	-0.970450	-0.971789	0.008604	56.698	-0.970564	-9.104535E+12	-9.450549E-16	NaN
408	1.000000	0.262095	7.36905e+06	-56689.1	1005.82	-29738.4	0.000000	0.000000	6.262836	0.069240	NaN	0.000000	0.001664	0.001644	28.0799	0.092854	0.001882	49.3406	-156.56	-162.917	0.008898	0.260827	-0.960453	-0.961720	0.069240	49.3406	-0.961505	-6.873216E+12	-1.007392E-14	NaN
408	1.000000	0.272127	7.36905e+06	-56689.1	1005.82	-29738.4	0.000000	0.000000	6.272863	-0.061505	NaN	0.000000	0.001643	0.001635	28.0799	0.035761	0.002108	16.9666	16.8025	13.6724	-0.067367	0.270754	-0.950421	-0.951794	-0.061505	16.9666	-0.947702	-4.477487E+12	1.373655E-14	NaN
408	1.000000	0.282121	7.36905e+06	-56689.1	1005.82	-29738.4	0.000000	0.000000	6.282860	0.016638	NaN	0.000000	0.001677	0.001664	28.0812	0.060419	0.001942	31.1179	92.4223	-165.6	0.004760	0.280788	-0.940426	-0.941759	0.016638	31.1179	-0.940827	-3.616593E+12	-4.600480E-15	NaN
408	1.000000	0.292075	7.36905e+06	-56689.1	1005.82	-29738.4	0.000000	0.000000	6.292813	-0.010733	NaN	0.000000	0.001650	0.001641	28.0817	0.033706	0.001830	18.4209	-32.283	9.933422	0.019694	0.290738	-0.930472	-0.931809	-0.010733	18.4209	-0.930035	-2.586276E+12	4.150009E-15	NaN
408	1.000000	0.302113	7.36905e+06	-56689.1	1005.82	-29738.4	0.000000	0.000000	6.302851	-0.009016	NaN	0.000000	0.001642	0.001675	28.0809	0.180028	0.002046	87.9991	140.718	-168.26	-0.097108	0.300785	-0.920435	-0.921763	-0.009016	87.9991	-0.920358	-1.914432E+12	4.709708E-15	NaN
408	1.000000	0.312106	7.36905e+06	-56689.1	1005.82	-29738.4	0.000000	0.000000	6.312844	-0.000495	NaN	0.000000	0.001650	0.001620	28.0812	0.048823	0.001969	24.7993	-69.8827	16.4286	0.114147	0.310758	-0.910442	-0.911790	-0.000495	24.7993	-0.910427	-1.405820E+12	3.518469E-16	NaN
408	1.000000	0.322122	7.36905e+06	-56689.1	1005.82	-29738.4	0.000000	0.000000	6.322862	0.056818	NaN	0.000000	0.001637	0.001662	28.0813	0.079284	0.001965	40.3561	59.7488	-165.083	-0.013674	0.320848	-0.900426	-0.901700	0.056818	40.3561	-0.901482	-1.064366E+12	-5.338159E-14	NaN
408	1.000000	0.332144	7.36905e+06	-56689.1	1005.82	-29738.4	0.000000	0.000000	6.332884	0.028078	NaN	0.000000	0.001703	0.001631	28.0812	0.057485	0.002041	28.1582	-147.105	15.6567	0.029358	0.330782	-0.890403	-0.891765	0.028078	28.1582	-0.891151	-7.717483E+11	-3.638285E-14	NaN
408	1.000000	0.342157	7.36905e+06	-56689.1	1005.82	-29738.4	0.000000	0.000000	6.342898	0.068573	NaN	0.000000	0.001673	0.001676	28.081	0.090852	0.001995	45.545	22.9514	-163.938	0.039381	0.340847	-0.880391	-0.881701	0.068573	45.545	-0.881520	-5.718245E+11	-1.199193E-13	NaN
408	1.000000	0.352129	7.36905e+06	-56689.1	1005.82	-29738.4	0.000000	0.000000	6.352871	0.072182	NaN	0.000000	0.001664	0.001602	28.0812	0.026557	0.001966	13.5095	99.5707	10.5958	0.124457	0.350749	-0.870418	-0.871799	0.072182	13.5095	-0.874425	-4.584702E+11	-1.574404E-13	NaN
408	1.000000	0.362104	7.36905e+06	-56689.1	1005.82	-29738.4	0.000000	0.000000	6.362844	0.035277	NaN	0.000000	0.001671	0.001644	28.0814	0.093272	0.002013	46.3435	93.5132	-167.025	0.091029	0.360826	-0.860443	-0.861722	0.035277	46.3435	-0.861014	-3.018909E+11	-1.168525E-13	NaN
408	1.000000	0.372137	7.36905e+06	-56689.1	1005.82	-29738.4	0.000000	0.000000	6.372877	0.025812	NaN	0.000000	0.001670	0.001635	28.0814	0.123270	0.001989	61.975	-107.211	15.9694	0.010154	0.370744	-0.850410	-0.851803	0.025812	61.975	-0.850723	-2.190402E+11	-1.178421E-13	NaN
408	1.000000	0.382178	7.36905e+06	-56689.1	1005.82	-29738.4	0.000000	0.000000	6.382917	0.018339	NaN	0.000000	0.001701	0.001641	28.0813	0.072022	0.001892	38.0735	111.347	-164.611	0.049136	0.380888	-0.840370	-0.841659	0.018339	38.0735	-0.840731	-1.603974E+11	-1.143362E-13	NaN
408	1.000000	0.392155	7.36905e+06	-56689.1	1005.82	-29738.4	0.000000	0.000000	6.392892	-0.016470	NaN	0.000000	0.001626	0.001603	28.0813	0.133041	0.001954	68.071	-68.4612	14.1459	-0.080597	0.390789	-0.830393	-0.831759	-0.016470	68.071	-0.830212	-1.155187E+11	1.425702E-13	NaN
408	1.000000	0.402104	7.36905e+06	-56689.1	1005.82	-29738.4	0.000000	0.000000	6.402845	0.056846	NaN	0.000000	0.001604	0.001649	28.0817	0.033804	0.002003	16.8806	-49.6783	-162.163	0.042062	0.400870	-0.820443	-0.821678	0.056846	16.8806	-0.822969	-9.214411E+10	-6.169201E-13	NaN
408	1.000000	0.412143	7.36905e+06	-56689.1	1005.82	-29738.4	0.000000	0.000000	6.412882	0.009082	NaN	0.000000	0.001599	0.001635	28.0812	0.072068	0.002045	35.2438	-115.232	12.2597	-0.054759	0.410828	-0.810405	-0.811719	0.009082	35.2438	-0.810598	-6.261578E+10	-1.450443E-13	NaN
408	1.000000	0.422198	7.36905e+06	-56689.1	1005.82	-29738.4	0.000000	0.000000	6.422937	0.004508	NaN	0.000000	0.001614	0.001637	28.08	0.055409	0.002161	25.6377	84.8416	-164.181	0.038438	0.420930	-0.800350	-0.801617	0.004508	25.6377	-0.800481	-4.564554E+10	-9.876285E-14	NaN
408	1.000000	0.432191	7.36905e+06	-56689.1	1005.82	-29738.4	0.000000	0.000000	6.432929	-0.005467	NaN	0.000000	0.001617	0.001615	28.0804	0.124728	0.001966	63.4306	58.4489	15.5053	-0.041410	0.430861	-0.790357	-0.791686	-0.005467	63.4306	-0.790292	-3.319327E+10	1.647043E-13	NaN
408	1.000000	0.442186	7.36905e+06	-56689.1	1005.82	-29738.4	0.000000	0.000000	6.442924	-0.010058	NaN	0.000000	0.001597	0.001631	28.0802	0.014141	0.001980	7.142739	-62.8547	-167.307	-0.013894	0.440807	-0.780362	-0.781741	-0.010058	7.142739	-0.779305	-2.353924E+10	4.272986E-13	NaN
408	1.000000	0.452178	7.36905e+06	-56689.1	1005.82	-29738.4	0.000000	0.000000	6.452917	0.011307	NaN	0.000000	0.001616	0.001628	28.08	0.089185	0.002058	43.3353	9.551458	14.4806	0.055404	0.450874	-0.770370	-0.771674	0.011307	43.3353	-0.770565	-1.790577E+10	-6.314972E-13	NaN
408	1.000000	0.462174	7.36905e+06	-56689.1	1005.82	-29738.4	0.000000	0.000000	6.462915	0.057267	NaN	0.000000	0.001577	0.001591	28.0799	0.038996	0.002009	19.4097	132.607	-166.671	0.112207	0.460876	-0.760373	-0.761671	0.057267	19.4097	-0.762586	-1.394706E+10	-4.106032E-12	NaN
408	1.000000	0.472185	7.36905e+06	-56689.1	1005.82	-29738.4	0.000000	0.000000	6.472925	0.047703	NaN	0.000000	0.001630	0.001653	28.0801	0.094347	0.002009	46.9611	-108.742	15.2103	-0.013875	0.470816	-0.750363	-0.751731	0.047703	46.9611	-0.751125	-9.739299E+9	-4.897993E-12	NaN
408	1.000000	0.482191	7.36905e+06	-56689.1	1005.82	-29738.4	0.000000	0.000000	6.482932	0.082504	NaN	0.000000	0.001601	0.001598	28.0799	0.082992	0.002037	40.7423	169.427	-167.854	0.031321	0.480853	-0.740357	-0.741695	0.082504	40.7423	-0.741876	-7.287927E+9	-1.132057E-11	NaN
408	1.000000	0.492196	7.36905e+06	-56689.1	1005.82	-29738.4	0.000000	0.000000	6.492938	0.075832	NaN	0.000000	0.001571	0.001621	28.0799	0.089722	0.002024	44.3297	69.298	18.178	0.048224	0.490832	-0.730351	-0.731715	0.075832	44.3297	-0.731634	-5.285461E+9	-1.434726E-11	NaN
408	1.000000	0.502215	7.36905e+06	-56689.1	1005.82	-29738.4	0.000000	0.000000	6.502956	0.068309	NaN	0.000000	0.001538	0.001590	28.0803	0.140286	0.002037	68.8584	-116.204	-165.184	0.096659	0.500877	-0.720332	-0.721670	0.068309	68.8584	-0.721077	-3.794494E+9	-1.800214E-11	NaN
408	1.000000	0.512189	7.36905e+06	-56689.1	1005.82	-29738.4	0.000000	0.000000	6.512928	0.004721	NaN	0.000000	0.001573	0.001640	28.0798	0.025888	0.001996	12.9674	-35.4701	15.4699	0.013436	0.510830	-0.710359	-0.711718	0.004721	12.9674	-0.710632	-2.733180E+9	-1.727248E-12	NaN
408	1.000000	0.522190	7.36905e+06	-56689.1	1005.82	-29738.4	0.000000	0.000000	6.522930	0.057158	NaN	0.000000	0.001601	0.001645	28.0797	0.091850	0.002024	45.3834	99.8096	-163.337	0.041390	0.520895	-0.700358	-0.701653	0.057158	45.3834	-0.701303	-2.038544E+9	-2.803881E-11	NaN
408	1.000000	0.532210	7.36905e+06	-56689.1	1005.82	-29738.4	0.000000	0.000000	6.532949	0.018965	NaN	0.000000	0.001591	0.001631	28.0796	0.033397	0.002123	15.732	8.703735	18.4075	-0.040284	0.530832	-0.690338	-0.691715	0.018965	15.732	-0.691242	-1.485552E+9	-1.276635E-11	NaN
408	1.000000	0.542207	7.36905e+06	-56689.1	1005.82	-29738.4	0.000000	0.000000	6.542947	0.056240	NaN	0.000000	0.001565	0.001580	28.0809	0.024567	0.002021	12.1589	-20.6991	-163.906	-0.011517	0.540932	-0.680341	-0.681615	0.056240	12.1589	-0.683810	-1.175729E+9	-4.783420E-11	NaN
408	1.000000	0.552244	7.36905e+06	-56689.1	1005.82	-29738.4	0.000000	0.000000	6.552984	0.041290	NaN	0.000000	0.001604	0.001591	28.0808	0.095180	0.001986	47.9362	-105.222	17.0292	0.070844	0.550826	-0.670303	-0.671721	0.041290	47.9362	-0.670949	-7.841243E+8	-5.265735E-11	NaN
408	1.000000	0.562239	7.36905e+06	-56689.1	1005.82	-29738.4	0.000000	0.000000	6.562977	0.000553	NaN	0.000000	0.001610	0.001621	28.0811	0.065368	0.001946	33.5894	-49.3115	-166.426	0.039970	0.560938	-0.660309	-0.661610	0.000553	33.5894	-0.660321	-5.608826E+8	-9.865192E-13	NaN
408	1.000000	0.572254	7.36905e+06	-56689.1	1005.82	-29738.4	0.000000	0.000000	6.572990	-0.049777	NaN	0.000000	0.001597	0.001632	28.081	0.078150	0.001952	40.0399	148.152	13.6642	0.028953	0.570802	-0.650294	-0.651746	-0.049777	40.0399	-0.649361	-3.969005E+8	1.254149E-10	NaN
408	1.000000	0.582221	7.36905e+06	-56689.1	1005.82	-29738.4	0.000000	0.000000	6.582958	-0.028673	NaN	0.000000	0.001584	0.001652	28.0814	0.032327	0.002046	15.797	27.1394	-165.22	-0.031687	0.580914	-0.640326	-0.641634	-0.028673	15.797	-0.638965	-2.858189E+8	1.003173E-10	NaN
408	1.000000	0.592240	7.36905e+06	-56689.1	1005.82	-29738.4	0.000000	0.000000	6.592978	-0.003311	NaN	0.000000	0.001571	0.001613	28.0812	0.096293	0.001847	52.1213	12.0413	16.5761	0.058199	0.590889	-0.630308	-0.631658	-0.003311	52.1213	-0.630260	-2.170686E+8	1.525203E-11	NaN
408	1.000000	0.602259	7.36905e+06	-56689.1	1005.82	-29738.4	0.000000	0.000000	6.602998	-0.001206	NaN	0.000000	0.001572	0.001636	28.0812	0.134165	0.002053	65.3442	48.6723	-166.316	0.050846	0.600927	-0.620288	-0.621620	-0.001206	65.3442	-0.620274	-1.582724E+8	7.618515E-12	NaN
408	1.000000	0.612244	7.36905e+06	-56689.1	1005.82	-29738.4	0.000000	0.000000	6.612985	0.071678	NaN	0.000000	0.001597	0.001640	28.0813	0.024224	0.002045	11.8452	174.844	18.206	0.051047	0.610904	-0.610304	-0.611644	0.071678	11.8452	-0.614842	-1.332657E+8	-5.378545E-10	NaN
408	1.000000	0.622229	7.36905e+06	-56689.1	1005.82	-29738.4	0.000000	0.000000	6.622970	0.049983	NaN	0.000000	0.001539	0.001650	28.0812	0.074325	0.002065	35.9976	-67.8125	-161.441	0.059766	0.620938	-0.600318	-0.601609	0.049983	35.9976	-0.601360	-8.693357E+7	-5.749577E-10	NaN
408	1.000000	0.632237	7.36905e+06	-56689.1	1005.82	-29738.4	0.000000	0.000000	6.632977	0.021635	NaN	0.000000	0.001576	0.001669	28.0812	0.005698	0.001950	2.922361	-45.6367	15.9153	0.093972	0.630955	-0.590310	-0.591593	0.021635	2.922361	-0.595863	-7.302462E+7	-2.962686E-10	NaN
408	1.000000	0.642266	7.36905e+06	-56689.1	1005.82	-29738.4	0.000000	0.000000	6.643005	0.014214	NaN	0.000000	0.001584	0.001658	28.081	0.026491	0.001987	13.3288	-47.5525	-163.854	0.074561	0.640904	-0.580282	-0.581644	0.014214	13.3288	-0.581082	-4.567231E+7	-3.112271E-10	NaN
408	1.000000	0.652272	7.36905e+06	-56689.1	1005.82	-29738.4	0.000000	0.000000	6.653010	-0.005892	NaN	0.000000	0.001592	0.001640	28.0816	0.073522	0.001959	37.5256	-178.573	17.4785	0.014544	0.650940	-0.570276	-0.571607	-0.005892	37.5256	-0.570158	-3.227096E+7	1.825743E-10	NaN
408	1.000000	0.662266	7.36905e+06	-56689.1	1005.82	-29738.4	0.000000	0.000000	6.663006	0.037871	NaN	0.000000	0.001568	0.001598	28.0812	0.021470	0.002038	10.5367	-41.927	-167.441	0.070239	0.660942	-0.560282	-0.561606	0.037871	10.5367	-0.562977	-2.567786E+7	-1.474857E-9	NaN
408	1.000000	0.672276	7.36905e+06	-56689.1	1005.82	-29738.4	0.000000	0.000000	6.673017	0.058113	NaN	0.000000	0.001592	0.001632	28.0813	0.046453	0.001957	23.7399	-92.149	15.2339	-0.032271	0.670879	-0.550271	-0.551669	0.058113	23.7399	-0.552107	-1.816096E+7	-3.199865E-9	NaN
408	1.000000	0.682292	7.36905e+06	-56689.1	1005.82	-29738.4	0.000000	0.000000	6.683032	0.046768	NaN	0.000000	0.001589	0.001624	28.0812	0.089975	0.002042	44.0715	-132.774	-167.546	0.010421	0.680956	-0.540256	-0.541591	0.046768	44.0715	-0.541052	-1.276276E+7	-3.664437E-9	NaN
408	1.000000	0.692261	7.36905e+06	-56689.1	1005.82	-29738.4	0.000000	0.000000	6.693002	0.066090	NaN	0.000000	0.001550	0.001672	28.08	0.058333	0.002076	28.0965	16.8317	17.9139	0.057821	0.690863	-0.530287	-0.531685	0.066090	28.0965	-0.532051	-9.57315e+06	-6.903717E-9	NaN
408	1.000000	0.702282	7.36905e+06	-56689.1	1005.82	-29738.4	0.000000	0.000000	6.703021	0.019057	NaN	0.000000	0.001574	0.001620	28.08	0.076619	0.001986	38.5833	23.0969	-165.305	0.013452	0.700980	-0.520266	-0.521568	0.019057	38.5833	-0.520636	-6.64419e+06	-2.868152E-9	NaN
408	1.000000	0.712284	7.36905e+06	-56689.1	1005.82	-29738.4	0.000000	0.000000	6.713026	0.092768	NaN	0.000000	0.001578	0.001651	28.0799	0.042094	0.002079	20.2433	85.6417	17.1266	0.124617	0.710913	-0.510264	-0.511635	0.092768	20.2433	-0.513701	-5.32045e+06	-1.743621E-8	NaN
408	1.000000	0.722303	7.36905e+06	-56689.1	1005.82	-29738.4	0.000000	0.000000	6.723042	0.009284	NaN	0.000000	0.001592	0.001672	28.0802	0.120500	0.002041	59.0459	-27.0013	-164.988	0.009781	0.720962	-0.500245	-0.501586	0.009284	59.0459	-0.500363	-3.46801e+06	-2.676917E-9	NaN
408	1.000000	0.732286	7.36905e+06	-56689.1	1005.82	-29738.4	0.000000	0.000000	6.733024	-0.000324	NaN	0.000000	0.001600	0.001651	28.0799	0.026721	0.001927	13.8667	6.739989	15.6826	0.018045	0.730923	-0.490262	-0.491625	-0.000324	13.8667	-0.490244	-2.505e+06	1.292147E-10	NaN
408	1.000000	0.742304	7.36905e+06	-56689.1	1005.82	-29738.4	0.000000	0.000000	6.743042	-0.007143	NaN	0.000000	0.001617	0.001658	28.0801	0.043634	0.002104	20.7422	-61.2263	-164.57	0.060785	0.740939	-0.480244	-0.481608	-0.007143	20.7422	-0.479985	-1.8002e+06	3.967762E-9	NaN
408	1.000000	0.752337	7.36905e+06	-56689.1	1005.82	-29738.4	0.000000	0.000000	6.753078	0.056089	NaN	0.000000	0.001608	0.001633	28.08	0.055197	0.001990	27.7305	50.7532	18.8835	0.085001	0.750933	-0.470210	-0.471614	0.056089	27.7305	-0.471727	-1.3792e+06	-4.066772E-8	NaN
408	1.000000	0.762319	7.36905e+06	-56689.1	1005.82	-29738.4	0.000000	0.000000	6.763059	0.023105	NaN	0.000000	0.001597	0.001650	28.0801	0.094771	0.002021	46.8986	5.532833	-164.915	0.038677	0.760956	-0.460228	-0.461591	0.023105	46.8986	-0.460598	-962536	-2.400479E-8	NaN
408	1.000000	0.772319	7.36905e+06	-56689.1	1005.82	-29738.4	0.000000	0.000000	6.773057	-0.007460	NaN	0.000000	0.001572	0.001620	28.0797	0.042204	0.002045	20.6349	-22.6685	13.9906	-0.037855	0.770952	-0.450229	-0.451596	-0.007460	20.6349	-0.449958	-681944	1.093922E-8	NaN
408	1.000000	0.782322	7.36905e+06	-56689.1	1005.82	-29738.4	0.000000	0.000000	6.783064	0.087466	NaN	0.000000	0.001623	0.001639	28.0799	0.068369	0.001955	34.9663	-38.2781	-165.134	0.027872	0.781015	-0.440225	-0.441533	0.087466	34.9663	-0.442102	-528467	-1.655099E-7	NaN
408	1.000000	0.792314	7.36905e+06	-56689.1	1005.82	-29738.4	0.000000	0.000000	6.793052	-0.011862	NaN	0.000000	0.001630	0.001634	28.0798	0.068571	0.002028	33.8167	-179.916	11.9741	0.079158	0.790959	-0.430234	-0.431589	-0.011862	33.8167	-0.429971	-356164	3.330604E-8	NaN
408	1.000000	0.802333	7.36905e+06	-56689.1	1005.82	-29738.4	0.000000	0.000000	6.803072	0.031549	NaN	0.000000	0.001587	0.001662	28.0798	0.030094	0.002078	14.4851	139.564	-165.285	-0.040677	0.801033	-0.420215	-0.421515	0.031549	14.4851	-0.421848	-273290	-1.154399E-7	NaN
408	1.000000	0.812326	7.36905e+06	-56689.1	1005.82	-29738.4	0.000000	0.000000	6.813065	0.012795	NaN	0.000000	0.001609	0.001651	28.0797	0.112968	0.001886	59.8884	12.8363	15.4385	0.010818	0.810975	-0.410222	-0.411573	0.012795	59.8884	-0.410382	-187859	-6.811035E-8	NaN
408	1.000000	0.822349	7.36905e+06	-56689.1	1005.82	-29738.4	0.000000	0.000000	6.823087	0.006994	NaN	0.000000	0.001646	0.001618	28.0796	0.025653	0.001850	13.868	-54.0405	-164.673	0.069551	0.821043	-0.400199	-0.401504	0.006994	13.868	-0.400577	-136215	-5.134418E-8	NaN
408	1.000000	0.832362	7.36905e+06	-56689.1	1005.82	-29738.4	0.000000	0.000000	6.833101	0.017793	NaN	0.000000	0.001591	0.001592	28.0812	0.022105	0.001978	11.1733	54.1137	15.6305	-0.035666	0.831008	-0.390186	-0.391539	0.017793	11.1733	-0.391380	-100672	-1.767420E-7	NaN
408	1.000000	0.842360	7.36905e+06	-56689.1	1005.82	-29738.4	0.000000	0.000000	6.843100	0.037451	NaN	0.000000	0.001618	0.001651	28.0808	0.073828	0.002019	36.5641	36.0036	-165.435	0.077605	0.840990	-0.380188	-0.381558	0.037451	36.5641	-0.380956	-71385.7	-5.246329E-7	NaN
408	1.000000	0.852372	7.36905e+06	-56689.1	1005.82	-29738.4	0.000000	0.000000	6.853111	0.025718	NaN	0.000000	0.001681	0.001634	28.0809	0.112682	0.002074	54.3265	-1.555368	14.1872	0.099204	0.851011	-0.370176	-0.371536	0.025718	54.3265	-0.370531	-50556.2	-5.086991E-7	NaN
408	1.000000	0.862341	7.36905e+06	-56689.1	1005.82	-29738.4	0.000000	0.000000	6.863080	0.021705	NaN	0.000000	0.001713	0.001654	28.0809	0.119913	0.001909	62.8147	-92.0065	-163.626	-0.003312	0.861012	-0.360207	-0.361536	0.021705	62.8147	-0.360466	-36189.7	-5.997563E-7	NaN
408	1.000000	0.872344	7.36905e+06	-56689.1	1005.82	-29738.4	0.000000	0.000000	6.873083	0.000200	NaN	0.000000	0.001658	0.001645	28.0812	0.069397	0.001939	35.7915	-151.129	17.2543	0.008709	0.871019	-0.350203	-0.351528	0.000200	35.7915	-0.350207	-25704.7	-7.762529E-9	NaN
408	1.000000	0.882352	7.36905e+06	-56689.1	1005.82	-29738.4	0.000000	0.000000	6.883092	0.037196	NaN	0.000000	0.001656	0.001614	28.0812	0.046981	0.001995	23.5476	-62.4945	-166.232	0.030547	0.881083	-0.340195	-0.341465	0.037196	23.5476	-0.341380	-19127.7	-1.944599E-6	NaN
408	1.000000	0.892363	7.36905e+06	-56689.1	1005.82	-29738.4	0.000000	0.000000	6.893103	0.033664	NaN	0.000000	0.001666	0.001622	28.081	0.068802	0.001971	34.9033	177.613	14.119	-0.039541	0.891024	-0.330184	-0.331523	0.033664	34.9033	-0.330908	-13450.6	-2.502768E-6	NaN
408	1.000000	0.902375	7.36905e+06	-56689.1	1005.82	-29738.4	0.000000	0.000000	6.903115	0.025871	NaN	0.000000	0.001665	0.001648	28.0815	0.153477	0.002055	74.6916	0.748999	-164.854	0.003364	0.901109	-0.320172	-0.321439	0.025871	74.6916	-0.320432	-9440.55	-2.740440E-6	NaN
408	1.000000	0.912357	7.36905e+06	-56689.1	1005.82	-29738.4	0.000000	0.000000	6.913095	-0.010571	NaN	0.000000	0.001683	0.001659	28.0811	0.072595	0.002028	35.7911	115.364	16.3488	-0.053808	0.910966	-0.310191	-0.311582	-0.010571	35.7911	-0.309969	-6616.1	1.597732E-6	NaN
408	1.000000	0.922358	7.36905e+06	-56689.1	1005.82	-29738.4	0.000000	0.000000	6.923100	0.078662	NaN	0.000000	0.001676	0.001641	28.0811	0.069508	0.001966	35.3539	8.333981	-164.124	0.097020	0.921129	-0.300190	-0.301418	0.078662	35.3539	-0.301858	-5015.15	-1.568498E-5	NaN
408	1.000000	0.932385	7.36905e+06	-56689.1	1005.82	-29738.4	0.000000	0.000000	6.933124	0.011162	NaN	0.000000	0.001665	0.001666	28.081	0.068987	0.002123	32.4948	174.801	16.0544	0.141175	0.931017	-0.290163	-0.291531	0.011162	32.4948	-0.290420	-3385.3	-3.297202E-6	NaN
408	1.000000	0.942362	7.36905e+06	-56689.1	1005.82	-29738.4	0.000000	0.000000	6.943103	0.056418	NaN	0.000000	0.001665	0.001652	28.0815	0.132932	0.001959	67.8598	-54.9164	-168.165	-0.006810	0.941103	-0.280185	-0.281445	0.056418	67.8598	-0.280809	-2427.56	-2.324049E-5	NaN
408	1.000000	0.952396	7.36905e+06	-56689.1	1005.82	-29738.4	0.000000	0.000000	6.953136	0.056744	NaN	0.000000	0.001668	0.001654	28.081	0.031044	0.001949	15.9264	148.715	13.6748	0.071025	0.951029	-0.270152	-0.271518	0.056744	15.9264	-0.272824	-1838.35	-3.086704E-5	NaN
408	1.000000	0.962386	7.36905e+06	-56689.1	1005.82	-29738.4	0.000000	0.000000	6.963124	7.215342E-5	NaN	0.000000	0.001685	0.001652	28.0797	0.050230	0.002018	24.8925	-56.7807	-168.634	-0.079151	0.961125	-0.260162	-0.261423	7.215342E-5	24.8925	-0.260164	-1178.77	-6.121060E-8	NaN
408	1.000000	0.972417	7.36905e+06	-56689.1	1005.82	-29738.4	0.000000	0.000000	6.973157	0.042959	NaN	0.000000	0.001699	0.001637	28.0798	0.067888	0.001935	35.0802	-155.743	13.6729	0.001568	0.971047	-0.250131	-0.251500	0.042959	35.0802	-0.251049	-853.472	-5.033498E-5	NaN
408	1.000000	0.982391	7.36905e+06	-56689.1	1005.82	-29738.4	0.000000	0.000000	6.983132	0.042094	NaN	0.000000	0.001684	0.001669	28.0797	0.052598	0.002180	24.1299	44.5266	-164.277	0.043688	0.981109	-0.240156	-0.241438	0.042094	24.1299	-0.241465	-605.915	-6.947135E-5	NaN
408	1.000000	0.992405	7.36906e+06	-56689.1	1005.82	-29738.4	0.000000	0.000000	6.993145	0.033117	NaN	0.000000	0.001687	0.001684	28.0798	0.070104	0.001889	37.1155	-75.2132	14.2053	0.036993	0.991033	-0.230142	-0.231515	0.033117	37.1155	-0.230812	-412.406	-8.030309E-5	NaN
408	1.000000	1.002404	7.36906e+06	-56689.1	1005.82	-29738.4	0.000000	0.000000	7.003144	0.036695	NaN	0.000000	0.001665	0.001698	28.0798	0.148356	0.002075	71.4977	83.4387	-164.858	0.065575	1.001070	-0.220143	-0.221478	0.036695	71.4977	-0.220528	-283.215	-0.000130	NaN
408	1.000000	1.012438	7.36906e+06	-56689.1	1005.82	-29738.4	0.000000	0.000000	7.013178	0.043256	NaN	0.000000	0.001717	0.001657	28.0799	0.033602	0.002004	16.7642	145.297	15.5828	0.079173	1.011048	-0.210110	-0.211499	0.043256	16.7642	-0.212045	-206.961	-0.000209	NaN
408	1.000000	1.022399	7.36906e+06	-56689.1	1005.82	-29738.4	0.000000	0.000000	7.023136	-0.022289	NaN	0.000000	0.001715	0.001681	28.0797	0.110649	0.001965	56.3069	-42.4381	-164.236	-0.026636	1.021126	-0.200149	-0.201421	-0.022289	56.3069	-0.199852	-130.998	0.000170	NaN
408	1.000000	1.032420	7.36906e+06	-56689.1	1005.82	-29738.4	0.000000	0.000000	7.033160	0.058033	NaN	0.000000	0.001680	0.001691	28.0796	0.124568	0.001919	64.9161	29.4547	15.2944	0.086275	1.031060	-0.190128	-0.191488	0.058033	64.9161	-0.190799	-92.7595	-0.000626	NaN
408	1.000000	1.042408	7.36906e+06	-56689.1	1005.82	-29738.4	0.000000	0.000000	7.043147	0.009241	NaN	0.000000	0.001689	0.001658	28.0796	0.099307	0.002052	48.4038	122.53	-164.385	0.021080	1.041092	-0.180139	-0.181456	0.009241	48.4038	-0.180282	-61.6977	-0.000150	NaN
408	1.000000	1.052441	7.36906e+06	-56689.1	1005.82	-29738.4	0.000000	0.000000	7.053181	0.022169	NaN	0.000000	0.001714	0.001698	28.0797	0.137763	0.001965	70.1155	-111.913	19.3953	-0.072387	1.051094	-0.170106	-0.171454	0.022169	70.1155	-0.170344	-41.6464	-0.000532	NaN
408	1.000000	1.062399	7.36906e+06	-56689.1	1005.82	-29738.4	0.000000	0.000000	7.063135	-0.054784	NaN	0.000000	0.001711	0.001648	28.0796	0.064241	0.001996	32.1852	-59.0605	-164.978	0.000315	1.061091	-0.160149	-0.161457	-0.054784	32.1852	-0.158872	-26.177	0.002093	NaN
408	1.000000	1.072450	7.36906e+06	-56689.1	1005.82	-29738.4	0.000000	0.000000	7.073191	0.058820	NaN	0.000000	0.001674	0.001654	28.0795	0.058337	0.002016	28.9358	-167.211	15.169	0.026638	1.071070	-0.150098	-0.151477	0.058820	28.9358	-0.151622	-19.3878	-0.003034	NaN
408	1.000000	1.082429	7.36906e+06	-56689.1	1005.82	-29738.4	0.000000	0.000000	7.083170	0.057467	NaN	0.000000	0.001681	0.001644	28.0797	0.106836	0.001946	54.8926	-98.3052	-163.718	0.018307	1.081126	-0.140119	-0.141422	0.057467	54.8926	-0.140904	-12.3005	-0.004672	NaN
408	1.000000	1.092446	7.36906e+06	-56689.1	1005.82	-29738.4	0.000000	0.000000	7.093184	0.002015	NaN	0.000000	0.001662	0.001653	28.0797	0.043158	0.002000	21.5776	105.439	17.5038	-0.002994	1.091041	-0.130102	-0.131507	0.002015	21.5776	-0.130172	-7.679849	-0.000262	NaN
408	1.000000	1.102416	7.36906e+06	-56689.1	1005.82	-29738.4	0.000000	0.000000	7.103153	-0.055358	NaN	0.000000	0.001674	0.001635	28.0808	0.069531	0.001966	35.3579	-21.6733	-166.263	0.059512	1.101078	-0.120131	-0.121470	-0.055358	35.3579	-0.118957	-4.602445	0.012028	NaN
408	1.000000	1.112449	7.36906e+06	-56689.1	1005.82	-29738.4	0.000000	0.000000	7.113187	-0.014687	NaN	0.000000	0.001663	0.001639	28.081	0.024383	0.001911	12.7598	172.206	17.1336	-0.123454	1.111109	-0.110098	-0.111439	-0.014687	12.7598	-0.109235	-2.895453	0.005072	NaN
408	1.000000	1.122465	7.36906e+06	-56689.1	1005.82	-29738.4	0.000000	0.000000	7.123208	0.102647	NaN	0.000000	0.001684	0.001647	28.0811	0.148422	0.002035	72.9257	-37.382	-165.099	0.057772	1.121136	-0.100083	-0.101412	0.102647	72.9257	-0.101138	-1.936109	-0.053017	NaN
408	1.000000	1.132462	7.36906e+06	-56689.1	1005.82	-29738.4	0.000000	0.000000	7.133200	-0.007722	NaN	0.000000	0.001664	0.001646	28.0811	0.005689	0.001955	2.910365	-25.8868	16.148	-0.006578	1.131125	-0.090085	-0.091423	-0.007722	2.910365	-0.088096	-0.974707	0.007922	NaN
408	1.000000	1.142500	7.36906e+06	-56689.1	1005.82	-29738.4	0.000000	0.000000	7.143238	-0.030810	NaN	0.000000	0.001713	0.001644	28.0809	0.060690	0.002011	30.1766	-147.908	-167.066	0.014365	1.141129	-0.080047	-0.081419	-0.030810	30.1766	-0.079282	-0.593849	0.051881	NaN
408	1.000000	1.152489	7.36906e+06	-56689.1	1005.82	-29738.4	0.000000	0.000000	7.153228	0.008150	NaN	0.000000	0.001683	0.001639	28.0811	0.084942	0.001981	42.8683	149.556	13.7149	0.133727	1.151130	-0.070059	-0.071417	0.008150	42.8683	-0.070201	-0.345363	-0.023600	NaN
408	1.000000	1.162479	7.36906e+06	-56689.1	1005.82	-29738.4	0.000000	0.000000	7.163219	0.042205	NaN	0.000000	0.001682	0.001657	28.0812	0.048216	0.001975	24.4097	-105.629	-163.187	0.088967	1.161104	-0.060069	-0.061443	0.042205	24.4097	-0.061366	-0.197014	-0.214222	NaN
408	1.000000	1.172459	7.36906e+06	-56689.1	1005.82	-29738.4	0.000000	0.000000	7.173201	0.080428	NaN	0.000000	0.001681	0.001643	28.0812	0.033616	0.001990	16.8928	-92.7899	11.0671	-0.004640	1.171112	-0.050088	-0.051435	0.080428	16.8928	-0.053659	-0.117509	-0.684441	NaN
408	1.000000	1.182470	7.36906e+06	-56689.1	1005.82	-29738.4	0.000000	0.000000	7.183211	0.042365	NaN	0.000000	0.001689	0.001636	28.0809	0.080169	0.001951	41.0919	-164.991	-163.696	-0.038860	1.181149	-0.040077	-0.041399	0.042365	41.0919	-0.040851	-0.047997	-0.882647	NaN
408	1.000000	1.192467	7.36906e+06	-56689.1	1005.82	-29738.4	0.000000	0.000000	7.193208	0.078126	NaN	0.000000	0.001641	0.001682	28.0813	0.076043	0.002013	37.7769	-24.9866	14.5791	0.078591	1.191120	-0.030081	-0.031428	0.078126	37.7769	-0.031632	-0.025581	-3.054059	NaN
408	1.000000	1.202487	7.36906e+06	-56689.1	1005.82	-29738.4	0.000000	0.000000	7.203226	0.012522	NaN	0.000000	0.001708	0.001623	28.0813	0.082671	0.002148	38.4912	-140.285	-165.383	0.026424	1.201151	-0.020060	-0.021397	0.012522	38.4912	-0.020304	-0.012787	-0.979281	NaN
408	1.000000	1.212494	7.36906e+06	-56689.1	1005.82	-29738.4	0.000000	0.000000	7.213231	-0.040345	NaN	0.000000	0.001737	0.001624	28.0813	0.110107	0.002036	54.0917	-125.274	16.2147	-0.030871	1.211142	-0.010054	-0.011405	-0.040345	54.0917	-0.009495	-0.006098	6.616377	NaN
408	1.000000	1.222492	7.36906e+06	-56689.1	1005.82	-29738.4	0.000000	0.000000	7.223233	0.063979	NaN	0.000000	0.001736	0.001654	28.0814	0.083043	0.002066	40.2002	-36.1816	-167.321	-0.062637	1.221222	-5.590720E-5	-0.001325	0.063979	40.2002	-0.001250	-0.000912	-70.1652	NaN
408	2.000000	1.232247	7.36906e+06	-56689.1	1005.82	-29738.4	0.000000	0.000000	7.233311	7.909923	NaN	0.000000	0.001743	0.001633	28.0813	7.529374	0.001719	4379.2	12.9745	6.706717	6.069220	1.231081	0.009699	0.008533	7.909923	4379.2	0.008345	0.007399	1069.04	46513.4
408	2.000000	1.235188	7.36906e+06	-56689.1	1005.82	-29738.4	0.000000	0.000000	7.236303	9.138724	NaN	0.000000	0.001661	0.001634	28.0799	9.719859	0.001778	5467.08	5.407910	-169.965	8.682481	1.234907	0.012641	0.012360	9.138724	5467.08	0.011387	0.010764	849.013	48144.1
408	2.000000	1.237692	7.36906e+06	-56689.1	1005.82	-29738.4	0.000000	0.000000	7.238944	12.4806	NaN	0.000000	0.001720	0.001600	28.0804	12.3143	0.001709	7204.01	10.9405	4.001270	12.4365	1.237258	0.015144	0.014710	12.4806	7204.01	0.013845	0.013775	906.002	56078.3
408	2.000000	1.240129	7.36906e+06	-56689.1	1005.82	-29738.4	0.000000	0.000000	7.241573	17.1356	NaN	0.000000	0.001696	0.001664	28.08	14.506	0.001560	9296.62	5.087822	-174.337	16.3268	1.239757	0.017582	0.017210	17.1356	9296.62	0.016199	0.016918	1012.85	65301.2
408	2.000000	1.242633	7.36906e+06	-56689.1	1005.82	-29738.4	0.000000	0.000000	7.244054	16.6018	NaN	0.000000	0.001701	0.001653	28.0813	17.2446	0.001790	9632.54	11.8784	0.196712	16.5293	1.242205	0.020085	0.019657	16.6018	9632.54	0.018792	0.020680	802.787	61197.9
408	2.000000	1.245123	7.36906e+06	-56689.1	1005.82	-29738.4	0.000000	0.000000	7.246737	21.2956	NaN	0.000000	0.001659	0.001629	28.0799	19.7831	0.001919	10309.1	6.605237	-175.016	20.6446	1.244785	0.022575	0.022238	21.2956	10309.1	0.021026	0.024180	880.725	60571.6
408	2.000000	1.247610	7.36906e+06	-56689.1	1005.82	-29738.4	0.000000	0.000000	7.249331	23.8789	NaN	0.000000	0.001675	0.001644	28.0807	21.7623	0.001888	11528.1	11.7151	0.229823	23.1273	1.247354	0.025063	0.024807	23.8789	11528.1	0.023509	0.028359	842.022	62543.8
408	2.000000	1.250080	7.36906e+06	-56689.1	1005.82	-29738.4	0.000000	0.000000	7.252054	30.0252	NaN	0.000000	0.001639	0.001646	28.08	24.0279	0.001755	13687.8	6.150678	-177.49	29.1695	1.249825	0.027533	0.027277	30.0252	13687.8	0.025887	0.032650	919.609	69209.4
408	2.000000	1.252618	7.36906e+06	-56689.1	1005.82	-29738.4	0.000000	0.000000	7.254798	35.045	NaN	0.000000	0.001689	0.001676	28.0805	26.5773	0.001774	14979.6	7.206769	1.116206	35.3003	1.252197	0.030070	0.029649	35.045	14979.6	0.028316	0.037325	938.913	70839.2
408	2.000000	1.255109	7.36906e+06	-56689.1	1005.82	-29738.4	0.000000	0.000000	7.257455	39.0844	NaN	0.000000	0.001655	0.001641	28.08	29.3486	0.001731	16958.2	8.127229	178.296	39.0017	1.254768	0.032561	0.032220	39.0844	16958.2	0.030832	0.042487	919.924	75167.2
408	2.000000	1.257626	7.36906e+06	-56689.1	1005.82	-29738.4	0.000000	0.000000	7.260141	43.1825	NaN	0.000000	0.001669	0.001706	28.0812	31.5338	0.001734	18181.1	5.121470	0.071218	43.3284	1.257390	0.035079	0.034843	43.1825	18181.1	0.033297	0.047856	902.351	75932.4
408	2.000000	1.260140	7.36906e+06	-56689.1	1005.82	-29738.4	0.000000	0.000000	7.263044	52.6316	NaN	0.000000	0.001659	0.001707	28.08	33.7026	0.001679	20070	6.730669	177.255	54.2095	1.259786	0.037593	0.037239	52.6316	20070	0.035626	0.053214	989.064	79489.4
408	2.000000	1.262562	7.36906e+06	-56689.1	1005.82	-29738.4	0.000000	0.000000	7.265719	58.7862	NaN	0.000000	0.001697	0.001714	28.0812	36.1853	0.001833	19743.7	2.696577	2.162183	56.0079	1.262152	0.040014	0.039604	58.7862	19743.7	0.037781	0.058419	1006.28	74631.7
408	2.000000	1.265037	7.36906e+06	-56689.1	1005.82	-29738.4	0.000000	0.000000	7.268488	65.9227	NaN	0.000000	0.001672	0.001712	28.0799	38.8151	0.001780	21809.6	6.133644	176.825	64.9698	1.264817	0.042490	0.042270	65.9227	21809.6	0.040223	0.064605	1020.39	78394.9
408	2.000000	1.267629	7.36906e+06	-56689.1	1005.82	-29738.4	0.000000	0.000000	7.271328	71.9722	NaN	0.000000	0.001676	0.001685	28.0813	41.4112	0.001863	22227	7.338097	-3.871957	71.8867	1.267282	0.045081	0.044735	71.9722	22227	0.042653	0.071063	1012.79	76178.2
408	2.000000	1.270023	7.36906e+06	-56689.1	1005.82	-29738.4	0.000000	0.000000	7.274369	87.6934	NaN	0.000000	0.001665	0.001697	28.0813	43.8906	0.001774	24743	3.890387	178.078	84.4955	1.269732	0.047475	0.047184	87.6934	24743	0.044817	0.077069	1137.86	81430.4
408	2.000000	1.272548	7.36906e+06	-56689.1	1005.82	-29738.4	0.000000	0.000000	7.277151	93.9308	NaN	0.000000	0.001724	0.001691	28.0816	46.4191	0.001748	26554	4.453622	-2.734022	93.0125	1.272178	0.050001	0.049630	93.9308	26554	0.047348	0.084392	1113.03	83512.7
408	2.000000	1.275081	7.36906e+06	-56689.1	1005.82	-29738.4	0.000000	0.000000	7.279884	98.8059	NaN	0.000000	0.001674	0.001694	28.0814	48.4752	0.001722	28146.1	-0.911580	-178.203	99.244	1.274869	0.052533	0.052321	98.8059	28146.1	0.049900	0.092105	1072.76	84732.7
408	2.000000	1.277553	7.36906e+06	-56689.1	1005.82	-29738.4	0.000000	0.000000	7.282952	113.299	NaN	0.000000	0.001668	0.001663	28.0821	50.8495	0.001793	28366.5	4.016104	-2.904991	110.776	1.277172	0.055005	0.054624	113.299	28366.5	0.052009	0.098725	1147.62	82483.2
408	2.000000	1.280044	7.36906e+06	-56689.1	1005.82	-29738.4	0.000000	0.000000	7.285891	124.166	NaN	0.000000	0.001680	0.001720	28.0814	52.702	0.001725	30549.2	2.771700	177.576	123.397	1.279732	0.057496	0.057185	124.166	30549.2	0.054448	0.106656	1164.17	85463.6
408	2.000000	1.282461	7.36906e+06	-56689.1	1005.82	-29738.4	0.000000	0.000000	7.288854	137.443	NaN	0.000000	0.001681	0.001643	28.0822	54.9301	0.001676	32774.7	0.592734	-1.528649	130.95	1.282179	0.059914	0.059631	137.443	32774.7	0.056768	0.114476	1200.63	88502.5
408	2.000000	1.284981	7.36906e+06	-56689.1	1005.82	-29738.4	0.000000	0.000000	7.291806	147.937	NaN	0.000000	0.001665	0.001652	28.0813	58.5561	0.001818	32210.7	2.455893	177.257	145.423	1.284792	0.062433	0.062244	147.937	32210.7	0.058988	0.122206	1210.56	84183.5
408	2.000000	1.287466	7.36906e+06	-56689.1	1005.82	-29738.4	0.000000	0.000000	7.294996	165.073	NaN	0.000000	0.001684	0.001640	28.0812	61.1856	0.001759	34789.6	4.062406	-4.700413	159.202	1.287097	0.064919	0.064549	165.073	34789.6	0.061360	0.130730	1262.71	87909.5
408	2.000000	1.290005	7.36906e+06	-56689.1	1005.82	-29738.4	0.000000	0.000000	7.298061	177.848	NaN	0.000000	0.001692	0.001657	28.0812	63.1039	0.001690	37350.1	2.210875	176.96	174.79	1.289649	0.067458	0.067101	177.848	37350.1	0.063887	0.140113	1269.32	91164.5
408	2.000000	1.292435	7.36906e+06	-56689.1	1005.82	-29738.4	0.000000	0.000000	7.301153	193.954	NaN	0.000000	0.001712	0.001629	28.0814	67.9156	0.001717	39563.6	8.369589	-10.3976	187.111	1.292168	0.069887	0.069620	193.954	39563.6	0.066211	0.149016	1301.57	93638.3
408	2.000000	1.295023	7.36906e+06	-56689.1	1005.82	-29738.4	0.000000	0.000000	7.304468	211.604	NaN	0.000000	0.001655	0.001618	28.0811	71.6534	0.001908	37549.3	5.919473	172.748	211.258	1.294768	0.072476	0.072220	211.604	37549.3	0.068249	0.157038	1347.47	86571
408	2.000000	1.297523	7.36906e+06	-56689.1	1005.82	-29738.4	0.000000	0.000000	7.307527	225.213	NaN	0.000000	0.001649	0.001637	28.0812	72.941	0.001792	40709.5	8.241399	-9.561937	224.54	1.297020	0.074975	0.074473	225.213	40709.5	0.070826	0.167463	1344.85	90888.4
408	2.000000	1.300032	7.36906e+06	-56689.1	1005.82	-29738.4	0.000000	0.000000	7.310831	244.536	NaN	0.000000	0.001653	0.001659	28.0814	74.3974	0.001802	41290.7	4.398518	173.733	243.606	1.299575	0.077484	0.077028	244.536	41290.7	0.073042	0.176683	1384.04	89748.7
408	2.000000	1.302503	7.36906e+06	-56689.1	1005.82	-29738.4	0.000000	0.000000	7.313741	255.191	NaN	0.000000	0.001640	0.001661	28.08	78.531	0.001931	40660.5	5.418307	-7.471920	251.959	1.302249	0.079955	0.079702	255.191	40660.5	0.075248	0.186090	1371.33	86116
408	2.000000	1.304981	7.36906e+06	-56689.1	1005.82	-29738.4	0.000000	0.000000	7.317173	278.383	NaN	0.000000	0.001645	0.001652	28.0799	81.1466	0.001817	44654.5	4.564385	172.316	275.534	1.304722	0.082433	0.082174	278.383	44654.5	0.077758	0.197069	1412.62	91903
408	2.000000	1.307614	7.36906e+06	-56689.1	1005.82	-29738.4	0.000000	0.000000	7.320494	295.102	NaN	0.000000	0.001638	0.001632	28.0799	82.568	0.001825	45239	6.627209	-8.518352	298.394	1.307068	0.085066	0.084520	295.102	45239	0.080174	0.207919	1419.31	90643.9
408	2.000000	1.310091	7.36906e+06	-56689.1	1005.82	-29738.4	0.000000	0.000000	7.323805	315.373	NaN	0.000000	0.001596	0.001677	28.0802	84.4117	0.001785	47286.7	6.696771	170.336	318.632	1.309629	0.087544	0.087081	315.373	47286.7	0.082541	0.218813	1441.29	92358.2
408	2.000000	1.312458	7.36906e+06	-56689.1	1005.82	-29738.4	0.000000	0.000000	7.326957	334.47	NaN	0.000000	0.001546	0.001684	28.08	87.4661	0.001883	46445.6	4.184937	-7.267990	329.453	1.312133	0.089910	0.089586	334.47	46445.6	0.084509	0.228066	1466.55	88856.1
408	2.000000	1.315061	7.36906e+06	-56689.1	1005.82	-29738.4	0.000000	0.000000	7.330060	346.617	NaN	0.000000	0.001608	0.001643	28.0802	88.565	0.001758	50367.3	2.290190	174.238	349.632	1.314711	0.092513	0.092163	346.617	50367.3	0.087352	0.241748	1433.79	93592.5
408	2.000000	1.317465	7.36906e+06	-56689.1	1005.82	-29738.4	0.000000	0.000000	7.333342	367.973	NaN	0.000000	0.001562	0.001659	28.08	91.1565	0.001789	50959.7	4.821942	-8.886512	362.398	1.317114	0.094917	0.094566	367.973	50959.7	0.089501	0.252342	1458.23	92684.2
408	2.000000	1.319947	7.36906e+06	-56689.1	1005.82	-29738.4	0.000000	0.000000	7.336813	391.996	NaN	0.000000	0.001581	0.001651	28.0803	93.1549	0.001827	50976.8	3.140913	172.861	387.647	1.319621	0.097399	0.097073	391.996	50976.8	0.091632	0.263049	1490.2	90808.6
408	2.000000	1.322442	7.36906e+06	-56689.1	1005.82	-29738.4	0.000000	0.000000	7.340199	413.651	NaN	0.000000	0.001564	0.001649	28.08	96.7067	0.001747	55344.3	2.159103	-6.350262	407.144	1.322189	0.099894	0.099641	413.651	55344.3	0.094288	0.276695	1494.97	96127.1
408	2.000000	1.325037	7.36906e+06	-56689.1	1005.82	-29738.4	0.000000	0.000000	7.343470	430.091	NaN	0.000000	0.001573	0.001667	28.0804	99.3803	0.001742	57038.4	-0.712980	176.833	433.981	1.324682	0.102489	0.102134	430.091	57038.4	0.096834	0.290072	1482.71	96758.3
408	2.000000	1.327430	7.36906e+06	-56689.1	1005.82	-29738.4	0.000000	0.000000	7.346888	455.003	NaN	0.000000	0.001565	0.001631	28.0803	101.96	0.001704	59823.6	6.904510	-12.2409	447.126	1.327173	0.104882	0.104625	455.003	59823.6	0.099178	0.302647	1503.41	99352.2
408	2.000000	1.329975	7.36906e+06	-56689.1	1005.82	-29738.4	0.000000	0.000000	7.350433	479.303	NaN	0.000000	0.001591	0.001675	28.0802	103.459	0.001750	59118.3	3.807878	172.101	476.286	1.329635	0.107427	0.107088	479.303	59118.3	0.101347	0.314509	1523.97	96311.7
408	2.000000	1.331043	7.36906e+06	-56689.1	1005.82	-29738.4	0.000000	0.000000	7.352123	494.412	NaN	0.000000	0.001556	0.001656	28.0804	105.172	0.001822	57721.4	4.932901	171.489	491.607	1.330443	0.108496	0.107896	494.412	57721.4	0.102072	0.318521	1552.21	93441.7