File: remote_trans/data/nanoindenter/0828-1/data/Data_2025-08-06,11h17m57s/2025-07-22_16-23-58_1_111.txt
2025-07-22, 16:23:58, 1
Index	Phase	Displacement	Time	Pos X	Pos Y	Pos Z	Rot A	Rot B	Piezo Z	Force A	Force B	Gripper	Voltage A	Voltage B	Temperature	Amplitude force	Amplitude pos	Stiffness	Phase shift	Phase excitation	Force A raw	Displacement raw	HMax	HMax raw	Real Force	Real Stiffness	Contact Depth	Area	Hardness	Reduced Mod.
[#]	[#]	[um]	[s]	[um]	[um]	[um]	[m°]	[m°]	[um]	[uN]	[uN]	[V]	[V]	[V]	[°C]	[uN]	[um]	[N/m]	[°]	[°]	[uN]	[um]	[um]	[um]	[uN]	[N/m]	[um]	[um^2]	[MPa]	[MPa]
111	1.000000	0.002796	7.36612e+06	-44189.1	955.819	-29777	0.000000	0.000000	6.002811	0.037382	NaN	0.000000	0.001543	0.001642	28.0824	0.049815	0.001037	48.0385	-162.767	-163.557	0.050756	0.001542	-1.178721	-1.179976	0.037382	48.0385	-1.179305	-5.801755E+15	-6.443259E-18	NaN
111	1.000000	0.012853	7.36612e+06	-44189.1	955.819	-29777	0.000000	0.000000	6.012866	-0.032325	NaN	0.000000	0.001543	0.001638	28.085	0.036476	0.001150	31.7076	32.2262	20.7256	-0.054869	0.011377	-1.168664	-1.170140	-0.032325	31.7076	-1.167899	-4.080707E+15	7.921397E-18	NaN
111	1.000000	0.022742	7.36612e+06	-44189.1	955.818	-29777	0.000000	0.000000	6.022754	-0.040954	NaN	0.000000	0.001553	0.001625	28.124	0.104153	0.001798	57.9263	89.2162	-166.455	-0.012202	0.021436	-1.158775	-1.160082	-0.040954	57.9263	-1.158245	-3.029342E+15	1.351905E-17	NaN
111	1.000000	0.032731	7.36612e+06	-44189.1	955.817	-29777	0.000000	0.000000	6.032746	0.027661	NaN	0.000000	0.001542	0.001642	28.1165	0.039808	0.001926	20.6711	35.4207	10.6044	0.004129	0.031355	-1.148786	-1.150162	0.027661	20.6711	-1.149790	-2.333461E+15	-1.185399E-17	NaN
111	1.000000	0.042728	7.36612e+06	-44189.1	955.818	-29777	0.000000	0.000000	6.042741	-0.021965	NaN	0.000000	0.001542	0.001588	28.0817	0.066693	0.001966	33.9221	130.07	-167.844	-0.044157	0.041474	-1.138789	-1.140043	-0.021965	33.9221	-1.138304	-1.636769E+15	1.341957E-17	NaN
111	1.000000	0.052754	7.36612e+06	-44189.1	955.818	-29777	0.000000	0.000000	6.052767	-0.010014	NaN	0.000000	0.001515	0.001596	28.0852	0.023263	0.001930	12.0505	127.752	14.2375	-0.076406	0.051357	-1.128763	-1.130160	-0.010014	12.0505	-1.128140	-1.195824E+15	8.373841E-18	NaN
111	1.000000	0.062735	7.36612e+06	-44189.1	955.818	-29777	0.000000	0.000000	6.062744	-0.099769	NaN	0.000000	0.001535	0.001637	28.1227	0.074984	0.001960	38.2494	-154.492	-167.89	-0.050284	0.061428	-1.118782	-1.120089	-0.099769	38.2494	-1.116826	-8.431088E+14	1.183352E-16	NaN
111	1.000000	0.072731	7.36612e+06	-44189.1	955.818	-29777	0.000000	0.000000	6.072745	-0.002147	NaN	0.000000	0.001522	0.001592	28.1165	0.089526	0.001883	47.5455	143.519	13.8557	-0.122017	0.071385	-1.108786	-1.110132	-0.002147	47.5455	-1.108752	-6.569590E+14	3.268032E-18	NaN
111	1.000000	0.082722	7.36612e+06	-44189.1	955.818	-29777	0.000000	0.000000	6.082731	-0.125521	NaN	0.000000	0.001504	0.001658	28.0806	0.088343	0.002139	41.2934	133.908	-166.015	-0.142247	0.081411	-1.098795	-1.100106	-0.125521	41.2934	-1.096515	-4.500720E+14	2.788914E-16	NaN
111	1.000000	0.092765	7.36612e+06	-44189.1	955.818	-29777	0.000000	0.000000	6.092774	-0.123878	NaN	0.000000	0.001509	0.001632	28.084	0.038898	0.002116	18.3829	142.663	14.2156	-0.060578	0.091381	-1.088752	-1.090136	-0.123878	18.3829	-1.083698	-3.028198E+14	4.090816E-16	NaN
111	1.000000	0.102762	7.36612e+06	-44189.1	955.818	-29777	0.000000	0.000000	6.102774	-0.035289	NaN	0.000000	0.001482	0.001622	28.121	0.102701	0.002106	48.7735	-53.9658	-165.337	-0.000659	0.101401	-1.078756	-1.080116	-0.035289	48.7735	-1.078213	-2.555735E+14	1.380784E-16	NaN
111	1.000000	0.112771	7.36612e+06	-44189.1	955.818	-29777	0.000000	0.000000	6.112782	-0.054081	NaN	0.000000	0.001540	0.001657	28.1145	0.118227	0.001831	64.5763	138.088	15.5046	0.026413	0.111391	-1.068746	-1.070126	-0.054081	64.5763	-1.068118	-1.870292E+14	2.891591E-16	NaN
111	1.000000	0.122790	7.36612e+06	-44189.1	955.818	-29777	0.000000	0.000000	6.122804	0.008205	NaN	0.000000	0.001511	0.001635	28.0799	0.042709	0.002073	20.6061	-122.554	-163.252	0.012352	0.121439	-1.058727	-1.060078	0.008205	20.6061	-1.059026	-1.411660E+14	-5.812373E-17	NaN
111	1.000000	0.132749	7.36612e+06	-44189.1	955.818	-29777	0.000000	0.000000	6.132761	-0.048170	NaN	0.000000	0.001540	0.001616	28.084	0.123924	0.002068	59.923	-73.8437	12.8618	0.029572	0.131420	-1.048768	-1.050098	-0.048170	59.923	-1.048165	-1.008671E+14	4.775610E-16	NaN
111	1.000000	0.142751	7.36612e+06	-44189.1	955.817	-29777	0.000000	0.000000	6.142766	0.039685	NaN	0.000000	0.001521	0.001598	28.1217	0.053443	0.002065	25.8785	-147.453	-166.568	-0.037957	0.141451	-1.038766	-1.040066	0.039685	25.8785	-1.039916	-7.813474E+13	-5.078998E-16	NaN
111	1.000000	0.152757	7.36612e+06	-44189.1	955.818	-29777	0.000000	0.000000	6.152767	-0.089668	NaN	0.000000	0.001558	0.001613	28.115	0.086181	0.001952	44.154	26.1642	18.7292	0.037250	0.151370	-1.028760	-1.030147	-0.089668	44.154	-1.027237	-5.276117E+13	1.699516E-15	NaN
111	1.000000	0.162799	7.36612e+06	-44189.1	955.818	-29777	0.000000	0.000000	6.162812	-0.020443	NaN	0.000000	0.001526	0.001632	28.0804	0.009522	0.001931	4.930001	136.205	-165.606	-0.012057	0.161509	-1.018718	-1.020008	-0.020443	4.930001	-1.015608	-3.680059E+13	5.555194E-16	NaN
111	1.000000	0.172783	7.36612e+06	-44189.1	955.817	-29777	0.000000	0.000000	6.172797	0.020216	NaN	0.000000	0.001553	0.001618	28.084	0.056223	0.002052	27.3972	93.2262	13.2558	0.031173	0.171448	-1.008735	-1.010069	0.020216	27.3972	-1.009288	-3.025508E+13	-6.681853E-16	NaN
111	1.000000	0.182774	7.36612e+06	-44189.1	955.818	-29777	0.000000	0.000000	6.182788	0.000249	NaN	0.000000	0.001537	0.001624	28.1216	0.074180	0.002048	36.2255	-114.846	-166.749	-0.014303	0.181503	-0.998743	-1.000014	0.000249	36.2255	-0.998748	-2.182297E+13	-1.141259E-17	NaN
111	1.000000	0.192795	7.36612e+06	-44189.1	955.817	-29777	0.000000	0.000000	6.192808	-0.026890	NaN	0.000000	0.001533	0.001601	28.1152	0.057004	0.002179	26.157	-11.3909	15.4959	-0.049695	0.191414	-0.988722	-0.990104	-0.026890	26.157	-0.987951	-1.561395E+13	1.722199E-15	NaN
111	1.000000	0.202786	7.36612e+06	-44189.1	955.818	-29777	0.000000	0.000000	6.202798	-0.035899	NaN	0.000000	0.001537	0.001594	28.0811	0.045340	0.002019	22.4514	88.2725	-166.688	0.008503	0.201487	-0.978731	-0.980030	-0.035899	22.4514	-0.977532	-1.130213E+13	3.176264E-15	NaN
111	1.000000	0.212782	7.36612e+06	-44189.1	955.818	-29777	0.000000	0.000000	6.212796	-0.004498	NaN	0.000000	0.001515	0.001629	28.0835	0.098073	0.002095	46.8034	-147.032	11.1352	-0.056926	0.211466	-0.968735	-0.970051	-0.004498	46.8034	-0.968663	-8.583002E+12	5.240477E-16	NaN
111	1.000000	0.222813	7.36612e+06	-44189.1	955.819	-29777	0.000000	0.000000	6.222825	-0.018341	NaN	0.000000	0.001520	0.001616	28.123	0.068652	0.002088	32.8773	-51.7113	-165.924	0.027546	0.221475	-0.958705	-0.960042	-0.018341	32.8773	-0.958286	-6.219602E+12	2.948897E-15	NaN
111	1.000000	0.232809	7.36612e+06	-44189.1	955.817	-29777	0.000000	0.000000	6.232821	-0.052171	NaN	0.000000	0.001551	0.001633	28.1173	0.168555	0.002082	80.9456	89.333	13.1798	-0.006074	0.231496	-0.948708	-0.950021	-0.052171	80.9456	-0.948225	-4.550752E+12	1.146425E-14	NaN
111	1.000000	0.242836	7.36612e+06	-44189.1	955.819	-29777	0.000000	0.000000	6.242845	-0.114151	NaN	0.000000	0.001516	0.001613	28.0823	0.121885	0.002051	59.4192	-76.7169	-165.773	0.002197	0.241498	-0.938681	-0.940020	-0.114151	59.4192	-0.937240	-3.235201E+12	3.528391E-14	NaN
111	1.000000	0.252803	7.36612e+06	-44189.1	955.819	-29777	0.000000	0.000000	6.252820	0.078057	NaN	0.000000	0.001513	0.001604	28.0845	0.132260	0.002019	65.5047	59.2495	11.679	0.056021	0.251442	-0.928714	-0.930075	0.078057	65.5047	-0.929608	-2.552154E+12	-3.058478E-14	NaN
111	1.000000	0.262785	7.36612e+06	-44189.1	955.819	-29777	0.000000	0.000000	6.262797	-0.041372	NaN	0.000000	0.001535	0.001621	28.1217	0.108906	0.002101	51.8312	-127.452	-166.239	-0.065116	0.261544	-0.918732	-0.919973	-0.041372	51.8312	-0.918133	-1.786504E+12	2.315800E-14	NaN
111	1.000000	0.272812	7.36612e+06	-44189.1	955.819	-29777	0.000000	0.000000	6.272823	-0.076139	NaN	0.000000	0.001551	0.001608	28.1156	0.067326	0.001956	34.4219	-66.4665	11.4943	-0.051689	0.271470	-0.908705	-0.910047	-0.076139	34.4219	-0.907046	-1.265490E+12	6.016551E-14	NaN
111	1.000000	0.282846	7.36612e+06	-44189.1	955.818	-29777	0.000000	0.000000	6.282858	-0.023384	NaN	0.000000	0.001523	0.001624	28.0819	0.054039	0.002147	25.1704	-56.1232	-165.778	-0.078659	0.281502	-0.898672	-0.900016	-0.023384	25.1704	-0.897975	-9.543310E+11	2.450306E-14	NaN
111	1.000000	0.292836	7.36612e+06	-44189.1	955.819	-29777	0.000000	0.000000	6.292845	-0.123197	NaN	0.000000	0.001511	0.001588	28.0839	0.017430	0.002075	8.399747	44.0627	13.8753	-0.118859	0.291477	-0.888681	-0.890040	-0.123197	8.399747	-0.877681	-5.073875E+11	2.428071E-13	NaN
111	1.000000	0.302846	7.36612e+06	-44189.1	955.818	-29777	0.000000	0.000000	6.302856	-0.078049	NaN	0.000000	0.001616	0.001588	28.1224	0.168332	0.001964	85.7009	-153.543	-164.724	-0.035178	0.301540	-0.878672	-0.879977	-0.078049	85.7009	-0.877989	-5.122773E+11	1.523561E-13	NaN
111	1.000000	0.312867	7.36612e+06	-44189.1	955.818	-29777	0.000000	0.000000	6.312880	-0.030326	NaN	0.000000	0.001609	0.001563	28.1173	0.104587	0.001999	52.3197	-82.1212	15.4899	-0.084016	0.311468	-0.868650	-0.870049	-0.030326	52.3197	-0.868215	-3.778283E+11	8.026519E-14	NaN
111	1.000000	0.322835	7.36612e+06	-44189.1	955.817	-29777	0.000000	0.000000	6.322848	-0.010392	NaN	0.000000	0.001516	0.001576	28.0809	0.135266	0.002030	66.6421	105.935	-164.943	0.070492	0.321539	-0.858683	-0.859978	-0.010392	66.6421	-0.858566	-2.797080E+11	3.715294E-14	NaN
111	1.000000	0.332872	7.36612e+06	-44189.1	955.818	-29777	0.000000	0.000000	6.332885	-0.009785	NaN	0.000000	0.001538	0.001561	28.0823	0.051982	0.001930	26.9382	-2.805946	15.4438	-0.028856	0.331490	-0.848646	-0.850027	-0.009785	26.9382	-0.848373	-2.035666E+11	4.806754E-14	NaN
111	1.000000	0.342873	7.36613e+06	-44189.1	955.818	-29777	0.000000	0.000000	6.342884	-0.076854	NaN	0.000000	0.001565	0.001593	28.1199	0.056779	0.002031	27.9529	20.3721	-166.089	-0.069100	0.341529	-0.838644	-0.839988	-0.076854	27.9529	-0.836582	-1.409230E+11	5.453589E-13	NaN
111	1.000000	0.352880	7.36613e+06	-44189.1	955.818	-29777	0.000000	0.000000	6.352891	-0.058671	NaN	0.000000	0.001565	0.001567	28.1158	0.034485	0.001912	18.0407	-152.047	16.2508	0.005649	0.351485	-0.828637	-0.830032	-0.058671	18.0407	-0.826198	-1.019173E+11	5.756692E-13	NaN
111	1.000000	0.362853	7.36613e+06	-44189.1	955.818	-29777	0.000000	0.000000	6.362866	-0.026189	NaN	0.000000	0.001565	0.001589	28.0802	0.095906	0.001947	49.2559	57.8215	-166.468	-0.069162	0.361520	-0.818664	-0.819998	-0.026189	49.2559	-0.818265	-7.955840E+10	3.291830E-13	NaN
111	1.000000	0.372880	7.36613e+06	-44189.1	955.818	-29777	0.000000	0.000000	6.372890	-0.098204	NaN	0.000000	0.001536	0.001561	28.0826	0.018868	0.002031	9.288238	161.358	11.545	-0.002723	0.371440	-0.808637	-0.810077	-0.098204	9.288238	-0.800707	-4.596898E+10	2.136318E-12	NaN
111	1.000000	0.382882	7.36613e+06	-44189.1	955.817	-29777	0.000000	0.000000	6.382894	-0.035739	NaN	0.000000	0.001514	0.001604	28.1212	0.055970	0.002015	27.7705	39.7601	-167.064	0.010731	0.381541	-0.798635	-0.799977	-0.035739	27.7705	-0.797670	-4.180572E+10	8.548769E-13	NaN
111	1.000000	0.392859	7.36613e+06	-44189.1	955.817	-29777	0.000000	0.000000	6.392870	-0.050189	NaN	0.000000	0.001542	0.001608	28.1165	0.109306	0.001862	58.7114	-105.357	16.0529	-0.049223	0.391545	-0.788658	-0.789972	-0.050189	58.7114	-0.788017	-3.091366E+10	1.623523E-12	NaN
111	1.000000	0.402866	7.36613e+06	-44189.1	955.818	-29777	0.000000	0.000000	6.402879	-0.011323	NaN	0.000000	0.001512	0.001654	28.0817	0.166503	0.002074	80.2626	134.059	-166.44	-0.036970	0.401582	-0.778651	-0.779935	-0.011323	80.2626	-0.778545	-2.298611E+10	4.926225E-13	NaN
111	1.000000	0.412883	7.36613e+06	-44189.1	955.818	-29777	0.000000	0.000000	6.412897	0.010862	NaN	0.000000	0.001512	0.001630	28.0818	0.024264	0.001989	12.2003	91.0386	16.4922	-0.032362	0.411541	-0.768634	-0.769976	0.010862	12.2003	-0.769302	-1.721127E+10	-6.310739E-13	NaN
111	1.000000	0.422896	7.36613e+06	-44189.1	955.818	-29777	0.000000	0.000000	6.422907	-0.044019	NaN	0.000000	0.001525	0.001599	28.1191	0.101807	0.002004	50.7905	143.529	-168.888	-0.075976	0.421579	-0.758622	-0.759938	-0.044019	50.7905	-0.757972	-1.206993E+10	3.647023E-12	NaN
111	1.000000	0.432911	7.36613e+06	-44189.1	955.818	-29777	0.000000	0.000000	6.432922	-0.046311	NaN	0.000000	0.001550	0.001624	28.1151	0.035854	0.001992	17.9947	-90.4765	12.3673	0.019267	0.431594	-0.748607	-0.749923	-0.046311	17.9947	-0.746676	-8.471765E+9	5.466559E-12	NaN
111	1.000000	0.442873	7.36613e+06	-44189.1	955.818	-29777	0.000000	0.000000	6.442885	-0.041997	NaN	0.000000	0.001511	0.001617	28.0811	0.123927	0.001901	65.1948	-157.797	-167.182	-0.014889	0.441643	-0.738644	-0.739874	-0.041997	65.1948	-0.738161	-6.486341E+9	6.474749E-12	NaN
111	1.000000	0.452940	7.36613e+06	-44189.1	955.818	-29777	0.000000	0.000000	6.452952	-0.027977	NaN	0.000000	0.001495	0.001629	28.0843	0.051553	0.002012	25.6176	-20.1687	14.1232	-0.038500	0.451517	-0.728577	-0.730000	-0.027977	25.6176	-0.727758	-4.680061E+9	5.977992E-12	NaN
111	1.000000	0.462913	7.36613e+06	-44189.1	955.818	-29777	0.000000	0.000000	6.462924	-0.041632	NaN	0.000000	0.001529	0.001600	28.1223	0.062088	0.002057	30.1883	165.38	-166.375	-0.071562	0.461555	-0.718605	-0.719963	-0.041632	30.1883	-0.717570	-3.398866E+9	1.224870E-11	NaN
111	1.000000	0.472897	7.36613e+06	-44189.1	955.818	-29777	0.000000	0.000000	6.472908	-0.069286	NaN	0.000000	0.001536	0.001624	28.1182	0.036261	0.002000	18.1344	-151.095	16.8307	-0.127471	0.471579	-0.708620	-0.709938	-0.069286	18.1344	-0.705755	-2.344790E+9	2.954901E-11	NaN
111	1.000000	0.482935	7.36613e+06	-44189.1	955.818	-29777	0.000000	0.000000	6.482949	0.017141	NaN	0.000000	0.001539	0.001633	28.0827	0.066490	0.001967	33.8035	-42.7565	-165.84	0.048414	0.481592	-0.698582	-0.699925	0.017141	33.8035	-0.698962	-1.893907E+9	-9.050704E-12	NaN
111	1.000000	0.492929	7.36613e+06	-44189.1	955.818	-29777	0.000000	0.000000	6.492941	-0.050480	NaN	0.000000	0.001554	0.001582	28.0828	0.068517	0.001982	34.5761	105.217	17.7768	-0.043196	0.491613	-0.688588	-0.689904	-0.050480	34.5761	-0.687493	-1.320236E+9	3.823590E-11	NaN
111	1.000000	0.502939	7.36613e+06	-44189.1	955.818	-29777	0.000000	0.000000	6.502951	-0.038775	NaN	0.000000	0.001538	0.001606	28.1202	0.156624	0.001933	81.037	-135.385	-164.009	-0.067692	0.501650	-0.678578	-0.679867	-0.038775	81.037	-0.678220	-9.859491E+8	3.932727E-11	NaN
111	1.000000	0.512931	7.36613e+06	-44189.1	955.818	-29777	0.000000	0.000000	6.512943	-0.035543	NaN	0.000000	0.001605	0.001605	28.1175	0.051196	0.002023	25.3062	14.7874	17.2289	0.023516	0.511568	-0.668586	-0.669949	-0.035543	25.3062	-0.667533	-7.040751E+8	5.048157E-11	NaN
111	1.000000	0.522955	7.36613e+06	-44189.1	955.818	-29777	0.000000	0.000000	6.522968	-0.022482	NaN	0.000000	0.001548	0.001597	28.0824	0.066499	0.001939	34.2894	79.3258	-164.003	0.025640	0.521653	-0.658562	-0.659865	-0.022482	34.2894	-0.658070	-5.224361E+8	4.303336E-11	NaN
111	1.000000	0.532916	7.36613e+06	-44189.1	955.817	-29777	0.000000	0.000000	6.532929	-0.028705	NaN	0.000000	0.001552	0.001604	28.0849	0.058743	0.001884	31.1864	169.259	14.1389	-0.041052	0.531571	-0.648601	-0.649946	-0.028705	31.1864	-0.647911	-3.791329E+8	7.571343E-11	NaN
111	1.000000	0.542979	7.36613e+06	-44189.1	955.818	-29777	0.000000	0.000000	6.542990	-0.071284	NaN	0.000000	0.001600	0.001597	28.1216	0.136247	0.001903	71.6132	94.269	-167.048	-0.074870	0.541637	-0.638538	-0.639880	-0.071284	71.6132	-0.637791	-2.754118E+8	2.588265E-10	NaN
111	1.000000	0.552931	7.36613e+06	-44189.1	955.818	-29777	0.000000	0.000000	6.552944	0.008520	NaN	0.000000	0.001566	0.001596	28.1186	0.128652	0.002010	63.9971	-159.375	13.1037	-0.079406	0.551610	-0.628587	-0.629907	0.008520	63.9971	-0.628686	-2.065305E+8	-4.125163E-11	NaN
111	1.000000	0.562995	7.36613e+06	-44189.1	955.818	-29777	0.000000	0.000000	6.563009	-0.003735	NaN	0.000000	0.001542	0.001642	28.0836	0.070762	0.001842	38.4121	110.819	-165.786	0.008876	0.561612	-0.618522	-0.619905	-0.003735	38.4121	-0.618449	-1.493875E+8	2.500082E-11	NaN
111	1.000000	0.572965	7.36613e+06	-44189.1	955.818	-29777	0.000000	0.000000	6.572976	-0.084376	NaN	0.000000	0.001569	0.001612	28.0832	0.111127	0.001944	57.177	129.772	10.7977	0.013624	0.571647	-0.608552	-0.609870	-0.084376	57.177	-0.607445	-1.054278E+8	8.003178E-10	NaN
111	1.000000	0.582941	7.36613e+06	-44189.1	955.818	-29777	0.000000	0.000000	6.582956	0.047372	NaN	0.000000	0.001524	0.001608	28.1199	0.142608	0.002090	68.2246	-87.8822	-165.741	0.030047	0.581670	-0.598576	-0.599847	0.047372	68.2246	-0.599097	-8.091393E+7	-5.854571E-10	NaN
111	1.000000	0.592976	7.36613e+06	-44189.1	955.818	-29777	0.000000	0.000000	6.592987	-0.056952	NaN	0.000000	0.001524	0.001622	28.1163	0.084940	0.001975	43.0018	-38.1261	16.1637	-0.145418	0.591601	-0.588541	-0.589917	-0.056952	43.0018	-0.587548	-5.608607E+7	1.015443E-9	NaN
111	1.000000	0.602952	7.36613e+06	-44189.1	955.819	-29777	0.000000	0.000000	6.602968	0.059527	NaN	0.000000	0.001522	0.001630	28.0802	0.023872	0.001889	12.6346	-55.4157	-165.148	0.044087	0.601621	-0.578565	-0.579896	0.059527	12.6346	-0.582098	-4.717206E+7	-1.261921E-9	NaN
111	1.000000	0.612998	7.36613e+06	-44189.1	955.818	-29777	0.000000	0.000000	6.613013	0.036199	NaN	0.000000	0.001572	0.001573	28.0821	0.039418	0.002114	18.6429	157.736	14.0394	0.013548	0.611579	-0.568519	-0.569938	0.036199	18.6429	-0.569975	-3.208413E+7	-1.128254E-9	NaN
111	1.000000	0.622984	7.36613e+06	-44189.1	955.818	-29777	0.000000	0.000000	6.622999	0.021132	NaN	0.000000	0.001564	0.001617	28.1197	0.107238	0.001959	54.7393	103.689	-166.084	-0.002326	0.621644	-0.558533	-0.559874	0.021132	54.7393	-0.558822	-2.249493E+7	-9.393979E-10	NaN
111	1.000000	0.632979	7.36613e+06	-44189.1	955.818	-29777	0.000000	0.000000	6.632991	-0.040019	NaN	0.000000	0.001603	0.001646	28.1175	0.113983	0.001951	58.4232	-173.891	12.3067	0.015324	0.631601	-0.548538	-0.549916	-0.040019	58.4232	-0.548024	-1.594370E+7	2.510008E-9	NaN
111	1.000000	0.643025	7.36613e+06	-44189.1	955.818	-29777	0.000000	0.000000	6.643039	0.010229	NaN	0.000000	0.001579	0.001669	28.0813	0.016097	0.002069	7.779368	-89.648	-166.21	0.038097	0.641739	-0.538492	-0.539778	0.010229	7.779368	-0.539478	-1.213726E+7	-8.427942E-10	NaN
111	1.000000	0.653027	7.36613e+06	-44189.1	955.818	-29777	0.000000	0.000000	6.653038	-0.041680	NaN	0.000000	0.001574	0.001667	28.0819	0.070911	0.001917	37	111.087	12.7328	0.001024	0.651593	-0.528490	-0.529924	-0.041680	37	-0.527646	-8.3152e+06	5.012452E-9	NaN
111	1.000000	0.663037	7.36613e+06	-44189.1	955.818	-29777	0.000000	0.000000	6.663047	-0.073051	NaN	0.000000	0.001543	0.001634	28.1187	0.051564	0.001932	26.6858	-134.567	-166.695	-0.042959	0.661667	-0.518480	-0.519851	-0.073051	26.6858	-0.516427	-5.80625e+06	1.258147E-8	NaN
111	1.000000	0.672995	7.36613e+06	-44189.1	955.818	-29777	0.000000	0.000000	6.673008	0.005195	NaN	0.000000	0.001524	0.001654	28.1167	0.007945	0.002135	3.720738	-27.0321	13.4665	-0.094528	0.671672	-0.508522	-0.509845	0.005195	3.720738	-0.509570	-4.66038e+06	-1.114699E-9	NaN
111	1.000000	0.683010	7.36613e+06	-44189.1	955.818	-29777	0.000000	0.000000	6.683025	0.023937	NaN	0.000000	0.001578	0.001677	28.0803	0.071798	0.001896	37.8623	29.8504	-170.349	0.051238	0.681712	-0.498507	-0.499805	0.023937	37.8623	-0.498981	-3.31746e+06	-7.215416E-9	NaN
111	1.000000	0.693057	7.36613e+06	-44189.1	955.818	-29777	0.000000	0.000000	6.693068	-0.063554	NaN	0.000000	0.001554	0.001661	28.0814	0.081849	0.002082	39.3087	84.6722	9.065819	-0.104558	0.691651	-0.488460	-0.489866	-0.063554	39.3087	-0.487247	-2.27467e+06	2.793989E-8	NaN
111	1.000000	0.703015	7.36613e+06	-44189.1	955.818	-29777	0.000000	0.000000	6.703027	-0.031273	NaN	0.000000	0.001552	0.001646	28.1201	0.013576	0.001993	6.811046	104.685	-167.818	0.011411	0.701668	-0.478502	-0.479849	-0.031273	6.811046	-0.475058	-1.53574e+06	2.036380E-8	NaN
111	1.000000	0.713015	7.36613e+06	-44189.1	955.819	-29777	0.000000	0.000000	6.713024	-0.109681	NaN	0.000000	0.001537	0.001652	28.1181	0.132892	0.002102	63.2266	-45.0814	14.3709	-0.095316	0.711660	-0.468502	-0.469857	-0.109681	63.2266	-0.467201	-1.19164e+06	9.204240E-8	NaN
111	1.000000	0.723054	7.36613e+06	-44189.1	955.818	-29777	0.000000	0.000000	6.723066	-0.033554	NaN	0.000000	0.001511	0.001662	28.0823	0.016087	0.002066	7.788111	-50.2204	-168.19	0.005488	0.721712	-0.458463	-0.459806	-0.033554	7.788111	-0.455232	-809064	4.147249E-8	NaN
111	1.000000	0.733055	7.36613e+06	-44189.1	955.819	-29777	0.000000	0.000000	6.733068	-0.028424	NaN	0.000000	0.001515	0.001659	28.0824	0.091751	0.002015	45.5301	85.8195	14.5526	-0.067408	0.731652	-0.448462	-0.449865	-0.028424	45.5301	-0.447994	-639858	4.442235E-8	NaN
111	1.000000	0.743040	7.36613e+06	-44189.1	955.817	-29777	0.000000	0.000000	6.743051	-0.052135	NaN	0.000000	0.001486	0.001640	28.1201	0.110516	0.002082	53.0728	105.915	-163.734	-0.057701	0.741703	-0.438477	-0.439814	-0.052135	53.0728	-0.437741	-458636	1.136741E-7	NaN
111	1.000000	0.753035	7.36613e+06	-44189.1	955.817	-29777	0.000000	0.000000	6.753046	-0.054517	NaN	0.000000	0.001515	0.001663	28.1194	0.014532	0.001843	7.886893	110.317	15.597	-0.017811	0.751686	-0.428483	-0.429831	-0.054517	7.886893	-0.423298	-286533	1.902645E-7	NaN
111	1.000000	0.763023	7.36613e+06	-44189.1	955.818	-29777	0.000000	0.000000	6.763035	-0.057582	NaN	0.000000	0.001573	0.001675	28.0829	0.073273	0.001958	37.4241	-5.372808	-165.233	-0.098548	0.761675	-0.418494	-0.419842	-0.057582	37.4241	-0.417340	-235870	2.441266E-7	NaN
111	1.000000	0.773057	7.36613e+06	-44189.1	955.817	-29777	0.000000	0.000000	6.773071	-0.000197	NaN	0.000000	0.001585	0.001662	28.0837	0.076691	0.002067	37.1022	-143.047	11.7819	-0.041520	0.771663	-0.408460	-0.409855	-0.000197	37.1022	-0.408456	-176376	1.117605E-9	NaN
111	1.000000	0.783040	7.36613e+06	-44189.1	955.818	-29777	0.000000	0.000000	6.783053	-0.019231	NaN	0.000000	0.001574	0.001632	28.1203	0.061740	0.002133	28.9451	-142.275	-167.189	-0.029809	0.781795	-0.398477	-0.399722	-0.019231	28.9451	-0.397979	-125073	1.537617E-7	NaN
111	1.000000	0.793061	7.36613e+06	-44189.1	955.818	-29777	0.000000	0.000000	6.793075	0.020270	NaN	0.000000	0.001624	0.001645	28.1198	0.045196	0.002085	21.68	143.73	12.1447	-0.087052	0.791708	-0.388456	-0.389809	0.020270	21.68	-0.389158	-93565.4	-2.166392E-7	NaN
111	1.000000	0.803038	7.36613e+06	-44189.1	955.817	-29777	0.000000	0.000000	6.803050	-0.027607	NaN	0.000000	0.001638	0.001669	28.084	0.095750	0.001961	48.8394	-68.6539	-163.399	-0.018826	0.801793	-0.378480	-0.379724	-0.027607	48.8394	-0.378056	-64859.8	4.256383E-7	NaN
111	1.000000	0.813045	7.36613e+06	-44189.1	955.818	-29777	0.000000	0.000000	6.813056	-0.065965	NaN	0.000000	0.001572	0.001629	28.0825	0.088952	0.001941	45.8391	-80.1741	12.949	-0.034021	0.811711	-0.368472	-0.369806	-0.065965	45.8391	-0.367393	-45558.3	1.447929E-6	NaN
111	1.000000	0.823056	7.36613e+06	-44189.1	955.818	-29777	0.000000	0.000000	6.823067	-0.051990	NaN	0.000000	0.001534	0.001700	28.1186	0.133987	0.001878	71.3302	84.4957	-162.951	-0.044441	0.821726	-0.358462	-0.359791	-0.051990	71.3302	-0.357915	-33242.4	1.563957E-6	NaN
111	1.000000	0.833044	7.36613e+06	-44189.1	955.818	-29777	0.000000	0.000000	6.833056	-0.041038	NaN	0.000000	0.001551	0.001693	28.1188	0.020950	0.001973	10.6195	128.808	15.5352	-0.050204	0.831720	-0.348473	-0.349797	-0.041038	10.6195	-0.345575	-22015	1.864087E-6	NaN
111	1.000000	0.843086	7.36613e+06	-44189.1	955.819	-29777	0.000000	0.000000	6.843099	-0.030783	NaN	0.000000	0.001540	0.001728	28.0824	0.028513	0.002049	13.9143	-105.606	-165.312	0.016777	0.841757	-0.338431	-0.339760	-0.030783	13.9143	-0.336772	-16385.5	1.878638E-6	NaN
111	1.000000	0.853061	7.36613e+06	-44189.1	955.818	-29777	0.000000	0.000000	6.853073	-0.023383	NaN	0.000000	0.001561	0.001670	28.0838	0.057866	0.001990	29.0776	64.3061	12.5595	0.068803	0.851694	-0.328457	-0.329823	-0.023383	29.0776	-0.327853	-12133.8	1.927092E-6	NaN
111	1.000000	0.863034	7.36613e+06	-44189.1	955.818	-29777	0.000000	0.000000	6.863044	-0.075393	NaN	0.000000	0.001544	0.001678	28.119	0.042667	0.001960	21.774	-43.1183	-166.58	-0.041462	0.861751	-0.318483	-0.319766	-0.075393	21.774	-0.315886	-8091.46	9.317628E-6	NaN
111	1.000000	0.873085	7.36613e+06	-44189.1	955.818	-29777	0.000000	0.000000	6.873095	-0.072947	NaN	0.000000	0.001552	0.001655	28.1187	0.133152	0.001908	69.7708	-103.991	12.8336	-0.062835	0.871707	-0.308433	-0.309810	-0.072947	69.7708	-0.307648	-6112.69	1.193378E-5	NaN
111	1.000000	0.883061	7.36613e+06	-44189.1	955.818	-29777	0.000000	0.000000	6.883076	0.035286	NaN	0.000000	0.001542	0.001646	28.0831	0.061447	0.002084	29.4837	147.617	-169.397	0.067261	0.881748	-0.298456	-0.299769	0.035286	29.4837	-0.299354	-4602.72	-7.666437E-6	NaN
111	1.000000	0.893107	7.36613e+06	-44189.1	955.817	-29777	0.000000	0.000000	6.893116	-0.104136	NaN	0.000000	0.001532	0.001680	28.0815	0.047082	0.002076	22.6805	-165.953	13.8683	-0.036176	0.891733	-0.288411	-0.289784	-0.104136	22.6805	-0.284967	-2803.95	3.713895E-5	NaN
111	1.000000	0.903095	7.36613e+06	-44189.1	955.817	-29777	0.000000	0.000000	6.903109	0.007317	NaN	0.000000	0.001526	0.001655	28.1176	0.073788	0.001917	38.49	-94.0452	-166.534	0.002601	0.901769	-0.278422	-0.279748	0.007317	38.49	-0.278564	-2245.43	-3.258416E-6	NaN
111	1.000000	0.913101	7.36613e+06	-44189.1	955.818	-29777	0.000000	0.000000	6.913114	-0.015664	NaN	0.000000	0.001547	0.001676	28.1184	0.080440	0.001968	40.8803	91.5964	15.6152	-0.011176	0.911739	-0.268416	-0.269778	-0.015664	40.8803	-0.268128	-1559.81	1.004219E-5	NaN
111	1.000000	0.923120	7.36613e+06	-44189.1	955.818	-29777	0.000000	0.000000	6.923133	0.000790	NaN	0.000000	0.001544	0.001667	28.0819	0.073155	0.002064	35.4349	-51.8143	-164.038	0.028216	0.921817	-0.258398	-0.259700	0.000790	35.4349	-0.258414	-1108.15	-7.129427E-7	NaN
111	1.000000	0.933079	7.36613e+06	-44189.1	955.817	-29777	0.000000	0.000000	6.933090	-0.062554	NaN	0.000000	0.001539	0.001667	28.0826	0.009337	0.002003	4.662138	-79.9502	14.1377	-0.038869	0.931761	-0.248438	-0.249756	-0.062554	4.662138	-0.238375	-542.186	0.000115	NaN
111	1.000000	0.943127	7.36613e+06	-44189.1	955.818	-29777	0.000000	0.000000	6.943138	-0.079321	NaN	0.000000	0.001546	0.001684	28.1186	0.139831	0.001943	71.9596	152.633	-166.024	-0.119996	0.941810	-0.238390	-0.239707	-0.079321	71.9596	-0.237563	-526.551	0.000151	NaN
111	1.000000	0.953121	7.36613e+06	-44189.1	955.817	-29777	0.000000	0.000000	6.953133	-0.048563	NaN	0.000000	0.001554	0.001669	28.1196	0.026584	0.002066	12.8702	67.9796	7.710139	-0.027113	0.951784	-0.228396	-0.229733	-0.048563	12.8702	-0.225566	-340.657	0.000143	NaN
111	1.000000	0.963123	7.36613e+06	-44189.1	955.818	-29777	0.000000	0.000000	6.963135	-0.023017	NaN	0.000000	0.001549	0.001656	28.0827	0.078376	0.002034	38.532	-123.641	-164.511	-0.049236	0.961770	-0.218395	-0.219747	-0.023017	38.532	-0.217947	-257.523	8.937974E-5	NaN
111	1.000000	0.973117	7.36613e+06	-44189.1	955.82	-29777	0.000000	0.000000	6.973128	-0.065327	NaN	0.000000	0.001585	0.001682	28.0808	0.114831	0.002062	55.6816	-29.5135	9.008688	-0.014119	0.971773	-0.208400	-0.209744	-0.065327	55.6816	-0.207520	-174.818	0.000374	NaN
111	1.000000	0.983110	7.36613e+06	-44189.1	955.821	-29777	0.000000	0.000000	6.983121	-0.065486	NaN	0.000000	0.001591	0.001653	28.1178	0.012909	0.002032	6.351611	145.051	-164.935	-0.145738	0.981784	-0.198407	-0.199733	-0.065486	6.351611	-0.190674	-92.3186	0.000709	NaN
111	1.000000	0.993137	7.36613e+06	-44189.1	955.819	-29777	0.000000	0.000000	6.993146	-0.108302	NaN	0.000000	0.001627	0.001689	28.1186	0.084527	0.002084	40.5569	167.23	10.6891	-0.076934	0.991755	-0.188380	-0.189762	-0.108302	40.5569	-0.186377	-78.219	0.001385	NaN
111	1.000000	1.003159	7.36613e+06	-44189.1	955.819	-29777	0.000000	0.000000	7.003169	-0.088010	NaN	0.000000	0.001633	0.001672	28.084	0.097304	0.002038	47.756	-111.531	-164.225	-0.074547	1.001801	-0.178358	-0.179716	-0.088010	47.756	-0.176976	-54.1841	0.001624	NaN
111	1.000000	1.013159	7.36613e+06	-44189.1	955.819	-29777	0.000000	0.000000	7.013172	-0.004635	NaN	0.000000	0.001630	0.001685	28.0835	0.003590	0.001997	1.798255	15.7293	15.7779	-0.032862	1.011810	-0.168358	-0.169707	-0.004635	1.798255	-0.166425	-35.5872	0.000130	NaN
111	1.000000	1.023169	7.36613e+06	-44189.1	955.818	-29777	0.000000	0.000000	7.023183	-0.013102	NaN	0.000000	0.001607	0.001698	28.1196	0.010270	0.001925	5.335327	163.658	-168.356	0.029479	1.021928	-0.158348	-0.159589	-0.013102	5.335327	-0.156506	-23.748	0.000552	NaN
111	1.000000	1.033137	7.36613e+06	-44189.1	955.818	-29777	0.000000	0.000000	7.033149	-0.050441	NaN	0.000000	0.001618	0.001656	28.1204	0.067200	0.001887	35.6217	-128.693	17.344	-0.051422	1.031856	-0.148380	-0.149662	-0.050441	35.6217	-0.147318	-16.1773	0.003118	NaN
111	1.000000	1.043148	7.36613e+06	-44189.1	955.819	-29777	0.000000	0.000000	7.043162	0.008661	NaN	0.000000	0.001650	0.001669	28.0845	0.089310	0.002101	42.4999	68.5358	-162.612	0.088110	1.041850	-0.138369	-0.139667	0.008661	42.4999	-0.138522	-11.0954	-0.000781	NaN
111	1.000000	1.053134	7.36613e+06	-44189.1	955.819	-29777	0.000000	0.000000	7.053144	-0.080307	NaN	0.000000	0.001619	0.001643	28.082	0.133741	0.001951	68.5652	-87.2366	14.8795	-0.116304	1.051860	-0.128383	-0.129658	-0.080307	68.5652	-0.127505	-6.812737	0.011788	NaN
111	1.000000	1.063167	7.36613e+06	-44189.1	955.82	-29777	0.000000	0.000000	7.063181	-0.001445	NaN	0.000000	0.001607	0.001683	28.1183	0.074277	0.002104	35.3072	112.288	-166.073	0.027876	1.061816	-0.118350	-0.119701	-0.001445	35.3072	-0.118319	-4.467214	0.000323	NaN
111	1.000000	1.073129	7.36613e+06	-44189.1	955.82	-29777	0.000000	0.000000	7.073140	-0.069155	NaN	0.000000	0.001594	0.001654	28.1201	0.135698	0.002015	67.3426	-30.948	13.5277	0.004580	1.071826	-0.108388	-0.109691	-0.069155	67.3426	-0.107618	-2.675243	0.025850	NaN
111	1.000000	1.083187	7.36613e+06	-44189.1	955.819	-29777	0.000000	0.000000	7.083199	-0.035267	NaN	0.000000	0.001612	0.001676	28.0832	0.041248	0.001936	21.3078	-109.198	-166.99	-0.085214	1.081899	-0.098330	-0.099618	-0.035267	21.3078	-0.097089	-1.572999	0.022420	NaN
111	1.000000	1.093170	7.36613e+06	-44189.1	955.82	-29777	0.000000	0.000000	7.093180	-0.084840	NaN	0.000000	0.001566	0.001733	28.0834	0.077311	0.002018	38.3134	55.1151	13.3123	-0.053635	1.091733	-0.088347	-0.089784	-0.084840	38.3134	-0.086686	-0.902150	0.094043	NaN
111	1.000000	1.103158	7.36613e+06	-44189.1	955.82	-29777	0.000000	0.000000	7.103171	-0.004081	NaN	0.000000	0.001577	0.001712	28.1188	0.045483	0.002097	21.6872	-111.505	-164.865	0.016426	1.101872	-0.078359	-0.079645	-0.004081	21.6872	-0.078218	-0.558293	0.007310	NaN
111	1.000000	1.113160	7.36613e+06	-44189.1	955.821	-29777	0.000000	0.000000	7.113173	-0.015933	NaN	0.000000	0.001603	0.001703	28.1208	0.054894	0.002063	26.6127	123.319	15.0258	-0.015899	1.111800	-0.068358	-0.069718	-0.015933	26.6127	-0.067908	-0.299536	0.053193	NaN
111	1.000000	1.123165	7.36613e+06	-44189.1	955.82	-29777	0.000000	0.000000	7.123175	-0.072907	NaN	0.000000	0.001598	0.001725	28.0839	0.186719	0.001841	101.434	121.143	-170.855	-0.048870	1.121889	-0.058352	-0.059628	-0.072907	101.434	-0.057813	-0.155718	0.468200	NaN
111	1.000000	1.133192	7.36613e+06	-44189.1	955.82	-29777	0.000000	0.000000	7.133206	0.008601	NaN	0.000000	0.001536	0.001729	28.0829	0.005061	0.002089	2.422855	166.554	16.5516	0.031405	1.131808	-0.048325	-0.049709	0.008601	2.422855	-0.050987	-0.097733	-0.088006	NaN
111	1.000000	1.143197	7.36613e+06	-44189.1	955.821	-29777	0.000000	0.000000	7.143209	-0.036691	NaN	0.000000	0.001542	0.001720	28.1162	0.140760	0.002138	65.8317	-78.547	-165.043	-0.015458	1.141904	-0.038320	-0.039614	-0.036691	65.8317	-0.037902	-0.039076	0.938973	NaN
111	1.000000	1.153173	7.36613e+06	-44189.1	955.82	-29777	0.000000	0.000000	7.153185	-0.041498	NaN	0.000000	0.001535	0.001715	28.1192	0.035043	0.001980	17.6988	-47.2061	15.5534	0.019677	1.151871	-0.028344	-0.029646	-0.041498	17.6988	-0.026586	-0.018575	2.234014	NaN
111	1.000000	1.163212	7.36613e+06	-44189.1	955.819	-29777	0.000000	0.000000	7.163222	-0.094440	NaN	0.000000	0.001539	0.001696	28.0818	0.058063	0.002023	28.704	-153.477	-167.77	-0.086857	1.161905	-0.018305	-0.019612	-0.094440	28.704	-0.015837	-0.009783	9.653564	NaN
111	1.000000	1.173229	7.36613e+06	-44189.1	955.819	-29777	0.000000	0.000000	7.173243	0.011921	NaN	0.000000	0.001514	0.001710	28.0828	0.098939	0.001997	49.552	-4.205037	14.7953	-0.092755	1.171845	-0.008288	-0.009672	0.011921	49.552	-0.008468	-0.005505	-2.165445	NaN
111	1.000000	1.183205	7.36613e+06	-44189.1	955.819	-29777	0.000000	0.000000	7.183240	0.515435	NaN	0.000000	0.001506	0.001686	28.1172	0.859276	0.001991	431.578	10.1671	-166.382	0.113443	1.181915	0.001688	0.000398	0.515435	431.578	0.000792	0.000601	857.261	16080.6
111	2.000000	1.191294	7.36613e+06	-44189.1	955.821	-29777	0.000000	0.000000	7.191657	8.497317	NaN	0.000000	0.001536	0.001744	28.121	9.319502	0.001812	5143.46	6.976916	10.8108	7.941762	1.190970	0.009777	0.009453	8.497317	5143.46	0.008538	0.007602	1117.82	53898
111	2.000000	1.193763	7.36613e+06	-44189.1	955.822	-29777	0.000000	0.000000	7.194270	12.0051	NaN	0.000000	0.001567	0.001737	28.083	12.0667	0.001746	6912.31	8.318114	-174.73	11.1643	1.193493	0.012246	0.011976	12.0051	6912.31	0.010944	0.010249	1171.34	62381.4
111	2.000000	1.196285	7.36613e+06	-44189.1	955.82	-29777	0.000000	0.000000	7.196936	15.5094	NaN	0.000000	0.001521	0.001704	28.0804	14.314	0.001624	8812.44	8.732447	2.450133	14.3031	1.195951	0.014768	0.014434	15.5094	8812.44	0.013448	0.013271	1168.62	69889.1
111	2.000000	1.198751	7.36613e+06	-44189.1	955.821	-29777	0.000000	0.000000	7.199593	20.1609	NaN	0.000000	0.001538	0.001733	28.1164	17.0197	0.001717	9913.92	6.988372	-176.064	20.2314	1.198311	0.017233	0.016794	20.1609	9913.92	0.015708	0.016241	1241.33	71073.3
111	2.000000	1.201212	7.36613e+06	-44189.1	955.82	-29777	0.000000	0.000000	7.202231	24.4495	NaN	0.000000	0.001516	0.001702	28.1195	19.6905	0.001785	11033.1	5.255703	3.827007	23.1813	1.200862	0.019695	0.019345	24.4495	11033.1	0.018033	0.019545	1250.92	72102.6
111	2.000000	1.203756	7.36613e+06	-44189.1	955.82	-29777	0.000000	0.000000	7.204992	29.7389	NaN	0.000000	0.001598	0.001699	28.082	22.1976	0.001774	12514	3.266779	-175.771	29.4551	1.203450	0.022238	0.021933	29.7389	12514	0.020456	0.023264	1278.32	74959.3
111	2.000000	1.206216	7.36613e+06	-44189.1	955.82	-29777	0.000000	0.000000	7.207811	38.4607	NaN	0.000000	0.001614	0.001719	28.0824	24.5799	0.001858	13232.5	7.374210	1.550225	37.1935	1.205860	0.024699	0.024343	38.4607	13232.5	0.022519	0.026657	1442.8	74047.4
111	2.000000	1.208698	7.36613e+06	-44189.1	955.82	-29777	0.000000	0.000000	7.210401	41.108	NaN	0.000000	0.001619	0.001686	28.1164	27.4786	0.001837	14958.7	4.836988	-177.774	40.0989	1.208374	0.027181	0.026857	41.108	14958.7	0.025120	0.031234	1316.12	77330.5
111	2.000000	1.211214	7.36613e+06	-44189.1	955.82	-29777	0.000000	0.000000	7.213270	49.7002	NaN	0.000000	0.001594	0.001698	28.1218	29.5348	0.001759	16791.8	2.550660	3.028296	48.1581	1.210813	0.029697	0.029296	49.7002	16791.8	0.027477	0.035676	1393.08	81222.9
111	2.000000	1.213707	7.36613e+06	-44189.1	955.82	-29777	0.000000	0.000000	7.216114	58.2256	NaN	0.000000	0.001631	0.001747	28.0838	32.355	0.001913	16911.4	4.617170	179.791	57.7416	1.213382	0.032190	0.031864	58.2256	16911.4	0.029608	0.039935	1458.02	77317.4
111	2.000000	1.216235	7.36613e+06	-44189.1	955.82	-29777	0.000000	0.000000	7.218850	63.2983	NaN	0.000000	0.001616	0.001714	28.0816	34.0076	0.001879	18102.6	2.822545	2.171325	62.202	1.215853	0.034717	0.034336	63.2983	18102.6	0.032095	0.045198	1400.47	77795.5
111	2.000000	1.218647	7.36613e+06	-44189.1	955.819	-29777	0.000000	0.000000	7.221684	73.5673	NaN	0.000000	0.001565	0.001731	28.1165	37.2531	0.001912	19483.2	8.773658	175.377	71.433	1.218344	0.037130	0.036826	73.5673	19483.2	0.034298	0.050123	1467.72	79508.4
111	2.000000	1.221176	7.36613e+06	-44189.1	955.82	-29777	0.000000	0.000000	7.224554	81.8575	NaN	0.000000	0.001562	0.001710	28.1213	39.8187	0.001714	23227.4	8.019853	-6.188498	79.6867	1.220779	0.039659	0.039262	81.8575	23227.4	0.037016	0.056543	1447.7	89244.8
111	2.000000	1.223708	7.36613e+06	-44189.1	955.82	-29777	0.000000	0.000000	7.227258	86.0302	NaN	0.000000	0.001564	0.001756	28.0841	44.2925	0.001967	22521.5	9.277197	173.174	87.2139	1.223373	0.042191	0.041856	86.0302	22521.5	0.039326	0.062299	1380.93	82438.5
111	2.000000	1.226230	7.36613e+06	-44189.1	955.819	-29777	0.000000	0.000000	7.230324	99.2726	NaN	0.000000	0.001527	0.001752	28.0827	44.5589	0.001770	25169.5	4.868600	-2.853977	98.1698	1.225890	0.044712	0.044373	99.2726	25169.5	0.041754	0.068641	1446.26	87772.2
111	2.000000	1.228709	7.36613e+06	-44189.1	955.82	-29777	0.000000	0.000000	7.233281	110.902	NaN	0.000000	0.001536	0.001728	28.1174	46.6158	0.001743	26737.4	8.667470	172.724	112.619	1.228299	0.047192	0.046782	110.902	26737.4	0.044081	0.075000	1478.7	89199.4
111	2.000000	1.231153	7.36613e+06	-44189.1	955.82	-29777	0.000000	0.000000	7.236128	120.702	NaN	0.000000	0.001526	0.001725	28.122	48.2003	0.001760	27380.7	-0.392038	0.487311	120.536	1.230879	0.049636	0.049362	120.702	27380.7	0.046330	0.081408	1482.69	87676.9
111	2.000000	1.233660	7.36613e+06	-44189.1	955.82	-29777	0.000000	0.000000	7.239080	131.524	NaN	0.000000	0.001553	0.001754	28.0853	52.3643	0.001815	28847.1	4.486635	175.188	131.11	1.233414	0.052143	0.051897	131.524	28847.1	0.048723	0.088508	1486.01	88589.9
111	2.000000	1.236180	7.36613e+06	-44189.1	955.82	-29777	0.000000	0.000000	7.242180	145.623	NaN	0.000000	0.001548	0.001729	28.0807	53.9203	0.001882	28647.2	4.215303	-3.284258	143.305	1.235832	0.054663	0.054315	145.623	28647.2	0.050851	0.095061	1531.89	84889.7
111	2.000000	1.238656	7.36613e+06	-44189.1	955.821	-29777	0.000000	0.000000	7.245103	156.513	NaN	0.000000	0.001547	0.001739	28.116	56.7914	0.001740	32641.6	3.946364	175.144	156.17	1.238369	0.057139	0.056852	156.513	32641.6	0.053543	0.103678	1509.61	92619.4
111	2.000000	1.241202	7.36613e+06	-44189.1	955.821	-29777	0.000000	0.000000	7.248280	171.859	NaN	0.000000	0.001544	0.001742	28.1213	60.0894	0.001857	32365.8	6.136943	-6.019459	172.801	1.240665	0.059685	0.059148	171.859	32365.8	0.055703	0.110852	1550.35	88815.4
111	2.000000	1.243592	7.36613e+06	-44189.1	955.821	-29777	0.000000	0.000000	7.251001	179.913	NaN	0.000000	0.001577	0.001725	28.0837	61.5359	0.001748	35207.4	1.279532	176.773	175.133	1.243356	0.062075	0.061839	179.913	35207.4	0.058242	0.119581	1504.52	93019.8
111	2.000000	1.246083	7.36613e+06	-44189.1	955.822	-29777	0.000000	0.000000	7.254337	200.467	NaN	0.000000	0.001511	0.001748	28.0814	62.7764	0.001783	35206.3	1.331495	-2.115459	195.779	1.245782	0.064566	0.064265	200.467	35206.3	0.060296	0.126871	1580.09	90305.3
111	2.000000	1.248625	7.36613e+06	-44189.1	955.821	-29777	0.000000	0.000000	7.257430	213.892	NaN	0.000000	0.001563	0.001723	28.1157	65.1619	0.001722	37840.6	1.776129	177.096	213.533	1.248381	0.067108	0.066864	213.892	37840.6	0.062868	0.136294	1569.34	93646.7
111	2.000000	1.251108	7.36613e+06	-44189.1	955.821	-29777	0.000000	0.000000	7.260395	225.594	NaN	0.000000	0.001562	0.001718	28.121	70.1559	0.001717	40857.1	5.805308	-8.551093	220.797	1.250768	0.069591	0.069251	225.594	40857.1	0.065450	0.146073	1544.39	97668.7
111	2.000000	1.253646	7.36613e+06	-44189.1	955.82	-29777	0.000000	0.000000	7.263769	245.942	NaN	0.000000	0.001587	0.001721	28.0837	73.255	0.001884	38892	5.545327	172.269	244.688	1.253373	0.072129	0.071856	245.942	38892	0.067387	0.153620	1600.98	90658.8
111	2.000000	1.256146	7.36613e+06	-44189.1	955.821	-29777	0.000000	0.000000	7.266837	259.759	NaN	0.000000	0.001556	0.001702	28.0804	74.2624	0.001804	41162.7	1.729754	-4.082907	256.708	1.255748	0.074629	0.074230	259.759	41162.7	0.069896	0.163665	1587.14	92960.6
111	2.000000	1.258680	7.36613e+06	-44189.1	955.821	-29777	0.000000	0.000000	7.269683	267.355	NaN	0.000000	0.001538	0.001719	28.1145	76.6	0.001799	42578.8	3.360682	174.445	272.145	1.258309	0.077162	0.076792	267.355	42578.8	0.072453	0.174210	1534.67	93203.1
111	2.000000	1.261041	7.36613e+06	-44189.1	955.821	-29777	0.000000	0.000000	7.272914	288.532	NaN	0.000000	0.001586	0.001752	28.1203	79.46	0.001800	44145.6	3.406048	-6.334395	282.102	1.260762	0.079524	0.079245	288.532	44145.6	0.074622	0.183395	1573.28	94181.7
111	2.000000	1.263596	7.36613e+06	-44189.1	955.822	-29777	0.000000	0.000000	7.276172	305.617	NaN	0.000000	0.001591	0.001718	28.0824	82.0504	0.001831	44800.9	3.690605	172.931	302.347	1.263338	0.082079	0.081821	305.617	44800.9	0.076963	0.193560	1578.93	93036.3
111	2.000000	1.266149	7.36613e+06	-44189.1	955.82	-29777	0.000000	0.000000	7.279408	322.228	NaN	0.000000	0.001600	0.001720	28.0809	83.3043	0.001825	45643.6	5.523037	-8.173740	320.409	1.265783	0.084632	0.084266	322.228	45643.6	0.079338	0.204132	1578.53	92299.1
111	2.000000	1.268572	7.36613e+06	-44189.1	955.82	-29777	0.000000	0.000000	7.282592	340.742	NaN	0.000000	0.001571	0.001725	28.1153	84.0451	0.001830	45938	-0.288992	177.493	337.929	1.268291	0.087055	0.086774	340.742	45938	0.081492	0.213951	1592.61	90737.6
111	2.000000	1.271114	7.36613e+06	-44189.1	955.821	-29777	0.000000	0.000000	7.286023	362.368	NaN	0.000000	0.001562	0.001725	28.1215	86.9803	0.001836	47376	1.870774	-4.959973	358.237	1.270653	0.089597	0.089136	362.368	47376	0.083861	0.224997	1610.55	91252.3
111	2.000000	1.273534	7.36613e+06	-44189.1	955.821	-29777	0.000000	0.000000	7.289176	380.216	NaN	0.000000	0.001552	0.001737	28.0837	89.009	0.001763	50490.7	0.965561	175.804	375.27	1.273287	0.092016	0.091770	380.216	50490.7	0.086369	0.236974	1604.47	94762.1
111	2.000000	1.276049	7.36613e+06	-44189.1	955.822	-29777	0.000000	0.000000	7.292253	393.882	NaN	0.000000	0.001568	0.001724	28.0808	91.6243	0.001778	51533.1	4.576396	-8.177032	385.882	1.275711	0.094532	0.094193	393.882	51533.1	0.088800	0.248860	1582.75	94380.5
111	2.000000	1.278610	7.36613e+06	-44189.1	955.821	-29777	0.000000	0.000000	7.295723	416.002	NaN	0.000000	0.001560	0.001728	28.114	94.2411	0.001754	53732.7	8.167418	168.347	413.969	1.278163	0.097093	0.096646	416.002	53732.7	0.091286	0.261298	1592.06	96038.1
111	2.000000	1.281021	7.36613e+06	-44189.1	955.82	-29777	0.000000	0.000000	7.299026	437.706	NaN	0.000000	0.001570	0.001735	28.1219	96.6103	0.001762	54835	5.696147	-9.556933	430.988	1.280630	0.099504	0.099113	437.706	54835	0.093517	0.272701	1605.08	95937.4
111	2.000000	1.283584	7.36613e+06	-44189.1	955.822	-29777	0.000000	0.000000	7.302249	453.765	NaN	0.000000	0.001548	0.001687	28.0849	100.056	0.001799	55618.7	4.003080	171.471	450.297	1.283215	0.102067	0.101698	453.765	55618.7	0.095948	0.285380	1590.04	95122.3
111	2.000000	1.286204	7.36613e+06	-44189.1	955.822	-29777	0.000000	0.000000	7.305735	474.825	NaN	0.000000	0.001502	0.001688	28.0827	102.082	0.001703	59926	8.121943	-12.2704	476.604	1.285622	0.104687	0.104105	474.825	59926	0.098744	0.300302	1581.16	99910.2
111	2.000000	1.288493	7.36613e+06	-44189.1	955.822	-29777	0.000000	0.000000	7.307878	471.274	NaN	0.000000	0.001512	0.001691	28.1167	104.039	0.001809	57497.6	2.892184	171.872	464.498	1.288399	0.106976	0.106882	471.274	57497.6	0.100829	0.311658	1512.15	94098.7
111	2.000000	1.288894	7.36613e+06	-44189.1	955.822	-29777	0.000000	0.000000	7.309010	489.07	NaN	0.000000	0.001507	0.001684	28.1229	104.583	0.001850	56546.5	5.075696	-9.789557	475.752	1.288538	0.107377	0.107021	489.07	56546.5	0.100890	0.311995	1567.56	92492.2