File: remote_trans/data/nanoindenter/0828-1/data/Data_2025-08-06,11h17m57s/2025-07-22_16-23-58_1_180.txt
2025-07-22, 16:23:58, 1
Index	Phase	Displacement	Time	Pos X	Pos Y	Pos Z	Rot A	Rot B	Piezo Z	Force A	Force B	Gripper	Voltage A	Voltage B	Temperature	Amplitude force	Amplitude pos	Stiffness	Phase shift	Phase excitation	Force A raw	Displacement raw	HMax	HMax raw	Real Force	Real Stiffness	Contact Depth	Area	Hardness	Reduced Mod.
[#]	[#]	[um]	[s]	[um]	[um]	[um]	[m°]	[m°]	[um]	[uN]	[uN]	[V]	[V]	[V]	[°C]	[uN]	[um]	[N/m]	[°]	[°]	[uN]	[um]	[um]	[um]	[uN]	[N/m]	[um]	[um^2]	[MPa]	[MPa]
180	1.000000	0.002278	7.3668e+06	-47639.1	955.817	-29765.7	0.000000	0.000000	6.002814	-0.060790	NaN	0.000000	0.001662	0.001831	28.1268	0.105673	0.001081	97.7949	25.4484	-163.797	-0.101487	0.001006	-1.036420	-1.037692	-0.060790	97.7949	-1.035954	-6.911249E+13	8.795862E-16	NaN
180	1.000000	0.010232	7.3668e+06	-47639.1	955.818	-29765.7	0.000000	0.000000	6.010767	-0.081661	NaN	0.000000	0.001667	0.001821	28.1266	0.121432	0.000986	123.151	-130.097	-166.579	-0.147591	0.008920	-1.028466	-1.029778	-0.081661	123.151	-1.027969	-5.397082E+13	1.513067E-15	NaN
180	1.000000	0.018234	7.3668e+06	-47639.1	955.82	-29765.7	0.000000	0.000000	6.018769	-0.048976	NaN	0.000000	0.001583	0.001781	28.1265	0.089150	0.001807	49.3277	-128.729	-161.379	-0.037650	0.016900	-1.020465	-1.021799	-0.048976	49.3277	-1.019720	-4.180081E+13	1.171654E-15	NaN
180	1.000000	0.026235	7.3668e+06	-47639.1	955.819	-29765.7	0.000000	0.000000	6.026775	0.046183	NaN	0.000000	0.001582	0.001778	28.1274	0.065317	0.001783	36.635	123.834	-168.135	0.000609	0.024927	-1.012463	-1.013772	0.046183	36.635	-1.013408	-3.437597E+13	-1.343462E-15	NaN
180	1.000000	0.034212	7.3668e+06	-47639.1	955.819	-29765.7	0.000000	0.000000	6.034746	-0.107510	NaN	0.000000	0.001568	0.001767	28.1272	0.083018	0.001774	46.7992	78.4742	-166.657	-0.095114	0.032891	-1.004486	-1.005807	-0.107510	46.7992	-1.002763	-2.471537E+13	4.349932E-15	NaN
180	1.000000	0.042228	7.3668e+06	-47639.1	955.819	-29765.7	0.000000	0.000000	6.042763	-0.070520	NaN	0.000000	0.001615	0.001758	28.1282	0.147852	0.001937	76.3133	-90.5583	-168.286	-0.112494	0.040901	-0.996470	-0.997798	-0.070520	76.3133	-0.995777	-1.990249E+13	3.543259E-15	NaN
180	1.000000	0.050219	7.3668e+06	-47639.1	955.818	-29765.7	0.000000	0.000000	6.050754	-0.066393	NaN	0.000000	0.001598	0.001781	28.1281	0.065476	0.001954	33.5112	-109.485	-165.85	-0.055862	0.048941	-0.988479	-0.989757	-0.066393	33.5112	-0.986993	-1.515708E+13	4.380358E-15	NaN
180	1.000000	0.058201	7.3668e+06	-47639.1	955.819	-29765.7	0.000000	0.000000	6.058737	-0.033121	NaN	0.000000	0.001600	0.001776	28.128	0.019186	0.001968	9.747100	0.447286	-167.49	0.013511	0.056932	-0.980498	-0.981766	-0.033121	9.747100	-0.977949	-1.144929E+13	2.892839E-15	NaN
180	1.000000	0.066214	7.3668e+06	-47639.1	955.818	-29765.7	0.000000	0.000000	6.066752	0.002007	NaN	0.000000	0.001600	0.001819	28.1262	0.032977	0.001878	17.5622	96.831	-169.968	-0.029144	0.064883	-0.972485	-0.973815	0.002007	17.5622	-0.972570	-9.689501E+12	-2.071331E-16	NaN
180	1.000000	0.074232	7.3668e+06	-47639.1	955.818	-29765.7	0.000000	0.000000	6.074766	-0.105068	NaN	0.000000	0.001582	0.001793	28.1261	0.016987	0.001830	9.280327	158.147	-167.726	-0.055405	0.072956	-0.964466	-0.965742	-0.105068	9.280327	-0.955975	-5.788974E+12	1.814962E-14	NaN
180	1.000000	0.082210	7.3668e+06	-47639.1	955.819	-29765.7	0.000000	0.000000	6.082748	0.001398	NaN	0.000000	0.001562	0.001787	28.1264	0.066522	0.002020	32.9327	-13.0898	-169.938	0.107814	0.080865	-0.956488	-0.957834	0.001398	32.9327	-0.956520	-5.887743E+12	-2.374945E-16	NaN
180	1.000000	0.090239	7.3668e+06	-47639.1	955.819	-29765.7	0.000000	0.000000	6.090776	-0.026154	NaN	0.000000	0.001576	0.001780	28.1268	0.102307	0.001898	53.8898	-172.553	-166.569	-0.017383	0.088929	-0.948459	-0.949769	-0.026154	53.8898	-0.948095	-4.532522E+12	5.770237E-15	NaN
180	1.000000	0.098237	7.3668e+06	-47639.1	955.819	-29765.7	0.000000	0.000000	6.098773	-0.046235	NaN	0.000000	0.001595	0.001770	28.1263	0.077687	0.002009	38.6727	-104.351	-168.311	-0.104920	0.096948	-0.940461	-0.941751	-0.046235	38.6727	-0.939564	-3.477427E+12	1.329572E-14	NaN
180	1.000000	0.106252	7.3668e+06	-47639.1	955.818	-29765.7	0.000000	0.000000	6.106785	-0.114531	NaN	0.000000	0.001553	0.001759	28.1269	0.060445	0.001989	30.3889	59.8905	-169.774	-0.059444	0.104910	-0.932447	-0.933788	-0.114531	30.3889	-0.929620	-2.553095E+12	4.485956E-14	NaN
180	1.000000	0.114230	7.3668e+06	-47639.1	955.819	-29765.7	0.000000	0.000000	6.114764	-0.086897	NaN	0.000000	0.001574	0.001744	28.1276	0.077400	0.001966	39.3772	-96.9679	-165.026	-0.045500	0.112925	-0.924468	-0.925773	-0.086897	39.3772	-0.922813	-2.066274E+12	4.205513E-14	NaN
180	1.000000	0.122274	7.3668e+06	-47639.1	955.819	-29765.7	0.000000	0.000000	6.122812	0.009802	NaN	0.000000	0.001580	0.001777	28.1287	0.077107	0.002083	37.0227	-118.066	-166.053	0.016839	0.120946	-0.916424	-0.917752	0.009802	37.0227	-0.916623	-1.704533E+12	-5.750682E-15	NaN
180	1.000000	0.130265	7.3668e+06	-47639.1	955.818	-29765.7	0.000000	0.000000	6.130803	0.010135	NaN	0.000000	0.001579	0.001730	28.1285	0.094691	0.002079	45.5546	45.1046	-163.944	0.058354	0.128936	-0.908434	-0.909762	0.010135	45.5546	-0.908601	-1.328191E+12	-7.630315E-15	NaN
180	1.000000	0.138251	7.3668e+06	-47639.1	955.817	-29765.7	0.000000	0.000000	6.138786	-0.077545	NaN	0.000000	0.001585	0.001738	28.1285	0.060752	0.001985	30.6094	-159.974	-165.667	-0.028936	0.136854	-0.900447	-0.901844	-0.077545	30.6094	-0.898547	-9.714752E+11	7.982205E-14	NaN
180	1.000000	0.146233	7.3668e+06	-47639.1	955.818	-29765.7	0.000000	0.000000	6.146772	0.020525	NaN	0.000000	0.001606	0.001748	28.1273	0.080998	0.001898	42.6668	153.625	-164.554	-0.004838	0.144964	-0.892465	-0.893734	0.020525	42.6668	-0.892826	-8.130368E+11	-2.524538E-14	NaN
180	1.000000	0.154265	7.3668e+06	-47639.1	955.818	-29765.7	0.000000	0.000000	6.154803	0.008010	NaN	0.000000	0.001605	0.001775	28.1275	0.116234	0.002011	57.7941	72.8144	-165.662	-0.057446	0.153042	-0.884434	-0.885657	0.008010	57.7941	-0.884538	-6.281564E+11	-1.275155E-14	NaN
180	1.000000	0.162252	7.3668e+06	-47639.1	955.819	-29765.7	0.000000	0.000000	6.162787	-0.061443	NaN	0.000000	0.001607	0.001746	28.1274	0.116160	0.002067	56.1869	20.1993	-165.36	-0.084206	0.160959	-0.876446	-0.877739	-0.061443	56.1869	-0.875626	-4.759395E+11	1.290986E-13	NaN
180	1.000000	0.170250	7.3668e+06	-47639.1	955.818	-29765.7	0.000000	0.000000	6.170787	-0.025230	NaN	0.000000	0.001564	0.001748	28.1277	0.073502	0.002058	35.7192	-111.936	-166.221	-0.030963	0.168951	-0.868448	-0.869747	-0.025230	35.7192	-0.867919	-3.743538E+11	6.739680E-14	NaN
180	1.000000	0.178288	7.3668e+06	-47639.1	955.82	-29765.7	0.000000	0.000000	6.178822	-0.089097	NaN	0.000000	0.001614	0.001755	28.1278	0.048506	0.001935	25.0725	141.701	-166.727	0.030456	0.176968	-0.860410	-0.861731	-0.089097	25.0725	-0.857745	-2.726470E+11	3.267854E-13	NaN
180	1.000000	0.186276	7.3668e+06	-47639.1	955.819	-29765.7	0.000000	0.000000	6.186811	-0.069236	NaN	0.000000	0.001680	0.001753	28.1286	0.083981	0.001991	42.1815	76.8445	-164.474	-0.120285	0.184982	-0.852422	-0.853716	-0.069236	42.1815	-0.851191	-2.222619E+11	3.115057E-13	NaN
180	1.000000	0.194251	7.3668e+06	-47639.1	955.819	-29765.7	0.000000	0.000000	6.194787	-0.029222	NaN	0.000000	0.001656	0.001749	28.1291	0.001628	0.002021	0.805311	99.8921	-169.076	-0.047641	0.192997	-0.844448	-0.845702	-0.029222	0.805311	-0.817233	-7.703393E+10	3.793384E-13	NaN
180	1.000000	0.202265	7.3668e+06	-47639.1	955.818	-29765.7	0.000000	0.000000	6.202798	-0.092982	NaN	0.000000	0.001688	0.001773	28.1287	0.052726	0.001952	27.0134	4.063563	-164.74	-0.084537	0.200951	-0.836434	-0.837747	-0.092982	27.0134	-0.833852	-1.294173E+11	7.184643E-13	NaN
180	1.000000	0.210297	7.3668e+06	-47639.1	955.819	-29765.7	0.000000	0.000000	6.210832	-0.052457	NaN	0.000000	0.001667	0.001732	28.1288	0.036033	0.001987	18.1316	-88.2905	-164.504	-0.020261	0.208889	-0.828402	-0.829809	-0.052457	18.1316	-0.826232	-1.020244E+11	5.141622E-13	NaN
180	1.000000	0.218299	7.3668e+06	-47639.1	955.819	-29765.7	0.000000	0.000000	6.218833	-0.081635	NaN	0.000000	0.001719	0.001742	28.1283	0.087241	0.002018	43.239	-124.202	-168.067	-0.110590	0.216969	-0.820399	-0.821729	-0.081635	43.239	-0.818983	-8.136235E+10	1.003353E-12	NaN
180	1.000000	0.226263	7.3668e+06	-47639.1	955.818	-29765.7	0.000000	0.000000	6.226800	-0.026024	NaN	0.000000	0.001648	0.001731	28.1271	0.042601	0.002044	20.8465	125.4	-165.717	-0.067710	0.224994	-0.812435	-0.813705	-0.026024	20.8465	-0.811499	-6.440313E+10	4.040867E-13	NaN
180	1.000000	0.234313	7.3668e+06	-47639.1	955.82	-29765.7	0.000000	0.000000	6.234850	-0.008793	NaN	0.000000	0.001586	0.001750	28.1274	0.117147	0.001891	61.9444	-48.2378	-164.166	0.054090	0.232954	-0.804386	-0.805744	-0.008793	61.9444	-0.804279	-5.139747E+10	1.710735E-13	NaN
180	1.000000	0.242316	7.3668e+06	-47639.1	955.819	-29765.7	0.000000	0.000000	6.242853	-0.031654	NaN	0.000000	0.001672	0.001731	28.1275	0.046166	0.002078	22.2165	-27.3893	-167.319	-0.008593	0.240985	-0.796382	-0.797713	-0.031654	22.2165	-0.795314	-3.883650E+10	8.150528E-13	NaN
180	1.000000	0.250303	7.3668e+06	-47639.1	955.819	-29765.7	0.000000	0.000000	6.250838	-0.071849	NaN	0.000000	0.001663	0.001674	28.1274	0.096365	0.001957	49.2481	90.3895	-167.111	-0.037550	0.249034	-0.788395	-0.789664	-0.071849	49.2481	-0.787301	-3.022868E+10	2.376834E-12	NaN
180	1.000000	0.258297	7.3668e+06	-47639.1	955.818	-29765.7	0.000000	0.000000	6.258836	0.018856	NaN	0.000000	0.001664	0.001677	28.1259	0.024736	0.002054	12.0435	-25.4704	-160.925	-0.047145	0.256943	-0.780401	-0.781755	0.018856	12.0435	-0.781575	-2.527182E+10	-7.461122E-13	NaN
180	1.000000	0.266305	7.3668e+06	-47639.1	955.818	-29765.7	0.000000	0.000000	6.266842	-0.010059	NaN	0.000000	0.001645	0.001702	28.1267	0.064159	0.002077	30.8964	159.336	-167.55	0.002992	0.265000	-0.772394	-0.773698	-0.010059	30.8964	-0.772149	-1.881598E+10	5.346020E-13	NaN
180	1.000000	0.274284	7.3668e+06	-47639.1	955.818	-29765.7	0.000000	0.000000	6.274825	0.088366	NaN	0.000000	0.001630	0.001644	28.1266	0.155437	0.002076	74.8768	107.611	-167.88	0.107570	0.272968	-0.764414	-0.765730	0.088366	74.8768	-0.765300	-1.518404E+10	-5.819663E-12	NaN
180	1.000000	0.282296	7.3668e+06	-47639.1	955.818	-29765.7	0.000000	0.000000	6.282832	-0.050874	NaN	0.000000	0.001691	0.001677	28.1269	0.020559	0.001940	10.5969	-63.2183	-163.774	-0.008421	0.281004	-0.756402	-0.757694	-0.050874	10.5969	-0.752801	-1.026471E+10	4.956249E-12	NaN
180	1.000000	0.290312	7.3668e+06	-47639.1	955.819	-29765.7	0.000000	0.000000	6.290847	-0.065492	NaN	0.000000	0.001658	0.001728	28.1277	0.072902	0.001965	37.1016	32.4359	-161.575	-0.042901	0.288960	-0.748387	-0.749738	-0.065492	37.1016	-0.747063	-8.574964E+9	7.637536E-12	NaN
180	1.000000	0.298304	7.3668e+06	-47639.1	955.82	-29765.7	0.000000	0.000000	6.298842	0.006013	NaN	0.000000	0.001706	0.001678	28.127	0.142450	0.001839	77.4568	137.167	-168.083	-0.011774	0.297001	-0.740395	-0.741697	0.006013	77.4568	-0.740453	-6.969876E+9	-8.627090E-13	NaN
180	1.000000	0.306307	7.3668e+06	-47639.1	955.819	-29765.7	0.000000	0.000000	6.306845	0.016648	NaN	0.000000	0.001657	0.001717	28.1256	0.075147	0.001935	38.8354	86.2508	-164.945	-0.077911	0.304988	-0.732391	-0.733710	0.016648	38.8354	-0.732713	-5.467392E+9	-3.044907E-12	NaN
180	1.000000	0.314334	7.3668e+06	-47639.1	955.819	-29765.7	0.000000	0.000000	6.314871	-0.022789	NaN	0.000000	0.001651	0.001740	28.1259	0.003540	0.002029	1.744853	-136.767	-167.057	-0.067232	0.313023	-0.724364	-0.725676	-0.022789	1.744853	-0.714569	-3.093096E+9	7.367566E-12	NaN
180	1.000000	0.322305	7.3668e+06	-47639.1	955.82	-29765.7	0.000000	0.000000	6.322839	-0.091262	NaN	0.000000	0.001657	0.001699	28.1257	0.033607	0.002036	16.5048	14.3218	-168.891	-0.067326	0.321000	-0.716394	-0.717698	-0.091262	16.5048	-0.712247	-2.875440E+9	3.173828E-11	NaN
180	1.000000	0.330306	7.3668e+06	-47639.1	955.819	-29765.7	0.000000	0.000000	6.330840	-0.091526	NaN	0.000000	0.001671	0.001689	28.126	0.084631	0.001909	44.326	156.877	-167.216	-0.089341	0.329048	-0.708392	-0.709651	-0.091526	44.326	-0.706843	-2.426406E+9	3.772097E-11	NaN
180	1.000000	0.338326	7.3668e+06	-47639.1	955.819	-29765.7	0.000000	0.000000	6.338862	-0.043724	NaN	0.000000	0.001656	0.001667	28.1256	0.061365	0.001911	32.1092	95.0744	-165.397	-0.074826	0.337053	-0.700372	-0.701645	-0.043724	32.1092	-0.699351	-1.917199E+9	2.280620E-11	NaN
180	1.000000	0.346364	7.3668e+06	-47639.1	955.818	-29765.7	0.000000	0.000000	6.346899	-0.069279	NaN	0.000000	0.001640	0.001689	28.1271	0.058835	0.001905	30.8927	-46.1476	-167.184	-0.068125	0.344996	-0.692334	-0.693702	-0.069279	30.8927	-0.690652	-1.458243E+9	4.750827E-11	NaN
180	1.000000	0.354323	7.3668e+06	-47639.1	955.819	-29765.7	0.000000	0.000000	6.354859	-0.025263	NaN	0.000000	0.001650	0.001663	28.1266	0.121660	0.001929	63.0531	39.5915	-164.769	-0.063305	0.353065	-0.684376	-0.685633	-0.025263	63.0531	-0.684075	-1.185577E+9	2.130827E-11	NaN
180	1.000000	0.362353	7.3668e+06	-47639.1	955.819	-29765.7	0.000000	0.000000	6.362887	-0.094560	NaN	0.000000	0.001646	0.001723	28.1263	0.066333	0.001983	33.4532	100.466	-168.998	-0.044194	0.361021	-0.676345	-0.677678	-0.094560	33.4532	-0.674225	-8.693793E+8	1.087670E-10	NaN
180	1.000000	0.370362	7.3668e+06	-47639.1	955.818	-29765.7	0.000000	0.000000	6.370899	-0.018252	NaN	0.000000	0.001647	0.001740	28.1263	0.084840	0.002157	39.3263	38.2176	-170.435	-0.045583	0.369064	-0.668336	-0.669634	-0.018252	39.3263	-0.667988	-7.142498E+8	2.555408E-11	NaN
180	1.000000	0.378314	7.3668e+06	-47639.1	955.819	-29765.7	0.000000	0.000000	6.378847	-0.116390	NaN	0.000000	0.001655	0.001704	28.1263	0.008853	0.002037	4.345349	144.317	-168.276	-0.035592	0.377019	-0.660385	-0.661680	-0.116390	4.345349	-0.640296	-2.980910E+8	3.904510E-10	NaN
180	1.000000	0.386361	7.3668e+06	-47639.1	955.818	-29765.7	0.000000	0.000000	6.386894	-0.104078	NaN	0.000000	0.001661	0.001717	28.1255	0.022636	0.002040	11.0955	-81.5241	-164.646	-0.076278	0.385021	-0.652338	-0.653677	-0.104078	11.0955	-0.645302	-3.491614E+8	2.980799E-10	NaN
180	1.000000	0.394394	7.3668e+06	-47639.1	955.819	-29765.7	0.000000	0.000000	6.394929	-0.073433	NaN	0.000000	0.001590	0.001729	28.1263	0.012802	0.001917	6.678123	-68.3064	-166.957	-0.098757	0.393048	-0.644304	-0.645650	-0.073433	6.678123	-0.636057	-2.607236E+8	2.816495E-10	NaN
180	1.000000	0.402364	7.3668e+06	-47639.1	955.819	-29765.7	0.000000	0.000000	6.402902	-0.005024	NaN	0.000000	0.001574	0.001737	28.1262	0.099276	0.001978	50.1991	-145.629	-169.233	0.027817	0.401088	-0.636334	-0.637610	-0.005024	50.1991	-0.636259	-2.623932E+8	1.914553E-11	NaN
180	1.000000	0.410364	7.3668e+06	-47639.1	955.819	-29765.7	0.000000	0.000000	6.410901	-0.009651	NaN	0.000000	0.001579	0.001700	28.1263	0.061714	0.001932	31.9505	96.27	-167.009	-0.036514	0.409053	-0.628335	-0.629646	-0.009651	31.9505	-0.628108	-2.027863E+8	4.759094E-11	NaN
180	1.000000	0.418361	7.3668e+06	-47639.1	955.818	-29765.7	0.000000	0.000000	6.418898	-0.003501	NaN	0.000000	0.001579	0.001717	28.1265	0.061366	0.002138	28.7035	-81.2292	-165.051	-0.099117	0.417074	-0.620338	-0.621624	-0.003501	28.7035	-0.620246	-1.581313E+8	2.214087E-11	NaN
180	1.000000	0.426357	7.3668e+06	-47639.1	955.818	-29765.7	0.000000	0.000000	6.426894	-0.030654	NaN	0.000000	0.001576	0.001707	28.1278	0.066006	0.002018	32.7079	-59.2627	-166.682	-0.092548	0.425035	-0.612341	-0.613663	-0.030654	32.7079	-0.611638	-1.204061E+8	2.545858E-10	NaN
180	1.000000	0.434376	7.3668e+06	-47639.1	955.819	-29765.7	0.000000	0.000000	6.434913	-0.013881	NaN	0.000000	0.001557	0.001721	28.1278	0.079382	0.001889	42.019	171.087	-164.421	-0.088434	0.433071	-0.604323	-0.605628	-0.013881	42.019	-0.604075	-9.474791E+7	1.465071E-10	NaN
180	1.000000	0.442381	7.3668e+06	-47639.1	955.819	-29765.7	0.000000	0.000000	6.442921	0.055166	NaN	0.000000	0.001576	0.001693	28.1276	0.060055	0.002073	28.9681	-78.0403	-166.358	-0.035530	0.441125	-0.596317	-0.597574	0.055166	28.9681	-0.597745	-7.751832E+7	-7.116538E-10	NaN
180	1.000000	0.450413	7.3668e+06	-47639.1	955.819	-29765.7	0.000000	0.000000	6.450952	0.044838	NaN	0.000000	0.001591	0.001669	28.1273	0.074940	0.002073	36.1432	149.304	-166.534	-0.017052	0.449099	-0.588285	-0.589599	0.044838	36.1432	-0.589216	-5.913650E+7	-7.582180E-10	NaN
180	1.000000	0.458405	7.3668e+06	-47639.1	955.819	-29765.7	0.000000	0.000000	6.458943	0.006454	NaN	0.000000	0.001593	0.001692	28.1278	0.032048	0.001908	16.7923	43.0055	-170.645	-0.032559	0.457136	-0.580294	-0.581562	0.006454	16.7923	-0.580582	-4.495293E+7	-1.435699E-10	NaN
180	1.000000	0.466379	7.3668e+06	-47639.1	955.819	-29765.7	0.000000	0.000000	6.466915	-0.033369	NaN	0.000000	0.001588	0.001701	28.1264	0.044855	0.002028	22.1132	-89.9512	-160.536	-0.101269	0.465140	-0.572319	-0.573558	-0.033369	22.1132	-0.571188	-3.334589E+7	1.000692E-9	NaN
180	1.000000	0.474416	7.3668e+06	-47639.1	955.819	-29765.7	0.000000	0.000000	6.474953	-0.035008	NaN	0.000000	0.001602	0.001725	28.1265	0.024991	0.001956	12.7796	17.7066	-167.879	-0.088443	0.473054	-0.564282	-0.565644	-0.035008	12.7796	-0.562227	-2.507180E+7	1.396314E-9	NaN
180	1.000000	0.482401	7.3668e+06	-47639.1	955.818	-29765.7	0.000000	0.000000	6.482937	-0.052015	NaN	0.000000	0.001585	0.001685	28.1257	0.052160	0.002037	25.6123	65.3465	-163.582	-0.103334	0.481090	-0.556297	-0.557609	-0.052015	25.6123	-0.554774	-1.977247E+7	2.630658E-9	NaN
180	1.000000	0.490415	7.3668e+06	-47639.1	955.818	-29765.7	0.000000	0.000000	6.490952	-0.022659	NaN	0.000000	0.001608	0.001714	28.1258	0.077314	0.001983	38.9907	42.5078	-166.233	-0.024502	0.489075	-0.548283	-0.549623	-0.022659	38.9907	-0.547847	-1.585382E+7	1.429247E-9	NaN
180	1.000000	0.498403	7.3668e+06	-47639.1	955.819	-29765.7	0.000000	0.000000	6.498938	-0.070997	NaN	0.000000	0.001564	0.001708	28.1266	0.076601	0.002033	37.681	111.797	-165.893	-0.098357	0.497125	-0.540295	-0.541573	-0.070997	37.681	-0.538882	-1.190848E+7	5.961870E-9	NaN
180	1.000000	0.506389	7.3668e+06	-47639.1	955.819	-29765.7	0.000000	0.000000	6.506925	-0.038406	NaN	0.000000	0.001572	0.001675	28.127	0.061121	0.001980	30.8748	-177.759	-164.245	-0.002056	0.505115	-0.532310	-0.533583	-0.038406	30.8748	-0.531377	-9.36901e+06	4.099215E-9	NaN
180	1.000000	0.514427	7.3668e+06	-47639.1	955.818	-29765.7	0.000000	0.000000	6.514964	-0.026495	NaN	0.000000	0.001570	0.001683	28.1266	0.023762	0.002100	11.3149	-25.6553	-168.386	-0.013978	0.513055	-0.524271	-0.525643	-0.026495	11.3149	-0.522515	-7.05609e+06	3.754920E-9	NaN
180	1.000000	0.522410	7.3668e+06	-47639.1	955.818	-29765.7	0.000000	0.000000	6.522946	-0.058885	NaN	0.000000	0.001583	0.001694	28.1267	0.034125	0.002019	16.8992	-171.582	-167.503	-0.060603	0.521121	-0.516288	-0.517577	-0.058885	16.8992	-0.513675	-5.31601e+06	1.107701E-8	NaN
180	1.000000	0.530411	7.3668e+06	-47639.1	955.819	-29765.7	0.000000	0.000000	6.530947	-0.034429	NaN	0.000000	0.001618	0.001715	28.1255	0.068610	0.002053	33.4229	-61.9429	-165.03	-0.058674	0.529072	-0.508288	-0.509627	-0.034429	33.4229	-0.507515	-4.36312e+06	7.890884E-9	NaN
180	1.000000	0.538379	7.3668e+06	-47639.1	955.818	-29765.7	0.000000	0.000000	6.538916	-0.022719	NaN	0.000000	0.001633	0.001716	28.1258	0.086481	0.001904	45.4207	-84.0609	-166.284	-0.068344	0.537104	-0.500319	-0.501594	-0.022719	45.4207	-0.499944	-3.42167e+06	6.639766E-9	NaN
180	1.000000	0.546407	7.3668e+06	-47639.1	955.819	-29765.7	0.000000	0.000000	6.546945	-0.007833	NaN	0.000000	0.001608	0.001697	28.1243	0.065034	0.002035	31.9577	61.827	-167.026	0.060982	0.545177	-0.492291	-0.493521	-0.007833	31.9577	-0.492107	-2.65971e+06	2.944952E-9	NaN
180	1.000000	0.554427	7.3668e+06	-47639.1	955.818	-29765.7	0.000000	0.000000	6.554961	-0.085410	NaN	0.000000	0.001632	0.001692	28.1243	0.138911	0.001921	72.3172	-167.288	-167.39	-0.046266	0.553141	-0.484271	-0.485557	-0.085410	72.3172	-0.483385	-2.00865e+06	4.252093E-8	NaN
180	1.000000	0.562432	7.3668e+06	-47639.1	955.819	-29765.7	0.000000	0.000000	6.562968	-0.041966	NaN	0.000000	0.001642	0.001694	28.1242	0.106763	0.002009	53.1379	40.3675	-166.012	0.021995	0.561095	-0.476266	-0.477603	-0.041966	53.1379	-0.475674	-1.56655e+06	2.678847E-8	NaN
180	1.000000	0.570450	7.3668e+06	-47639.1	955.818	-29765.7	0.000000	0.000000	6.570990	0.046147	NaN	0.000000	0.001602	0.001724	28.1247	0.061083	0.002109	28.9629	-126.978	-166.445	-0.077536	0.569125	-0.468248	-0.469573	0.046147	28.9629	-0.469443	-1.28115e+06	-3.601993E-8	NaN
180	1.000000	0.578450	7.3668e+06	-47639.1	955.819	-29765.7	0.000000	0.000000	6.578982	-0.140629	NaN	0.000000	0.001593	0.001670	28.1241	0.064359	0.001997	32.2306	81.5212	-170.04	-0.071057	0.577114	-0.460248	-0.461584	-0.140629	32.2306	-0.456976	-856065	1.642733E-7	NaN
180	1.000000	0.586441	7.3668e+06	-47639.1	955.818	-29765.7	0.000000	0.000000	6.586980	0.028529	NaN	0.000000	0.001614	0.001678	28.1257	0.127227	0.001983	64.1488	-59.1914	-167.534	-0.003921	0.585163	-0.452258	-0.453535	0.028529	64.1488	-0.452591	-742715	-3.841157E-8	NaN
180	1.000000	0.594464	7.3668e+06	-47639.1	955.819	-29765.7	0.000000	0.000000	6.595000	-0.046882	NaN	0.000000	0.001574	0.001667	28.1253	0.053530	0.002048	26.1431	-92.8457	-163.74	-0.085781	0.593054	-0.444234	-0.445644	-0.046882	26.1431	-0.442889	-542163	8.647271E-8	NaN
180	1.000000	0.602466	7.3668e+06	-47639.1	955.819	-29765.7	0.000000	0.000000	6.603002	-0.048916	NaN	0.000000	0.001622	0.001701	28.1256	0.095284	0.001964	48.5271	-78.5404	-168.551	0.025293	0.601164	-0.436233	-0.437534	-0.048916	48.5271	-0.435476	-426076	1.148065E-7	NaN
180	1.000000	0.610446	7.3668e+06	-47639.1	955.819	-29765.7	0.000000	0.000000	6.610981	-0.086302	NaN	0.000000	0.001613	0.001712	28.1256	0.045089	0.001978	22.7982	160.481	-163.407	-0.099458	0.609126	-0.428252	-0.429572	-0.086302	22.7982	-0.425413	-306994	2.811195E-7	NaN
180	1.000000	0.618444	7.3668e+06	-47639.1	955.818	-29765.7	0.000000	0.000000	6.618982	0.000562	NaN	0.000000	0.001613	0.001695	28.1261	0.069318	0.001941	35.7089	-82.41	-166.098	-0.071122	0.617124	-0.420254	-0.421575	0.000562	35.7089	-0.420266	-259530	-2.166144E-9	NaN
180	1.000000	0.626472	7.3668e+06	-47639.1	955.818	-29765.7	0.000000	0.000000	6.627007	-0.058748	NaN	0.000000	0.001586	0.001709	28.1239	0.027242	0.002041	13.3442	-120.523	-165.456	-0.034592	0.625133	-0.412226	-0.413565	-0.058748	13.3442	-0.408924	-179102	3.280152E-7	NaN
180	1.000000	0.634462	7.3668e+06	-47639.1	955.818	-29765.7	0.000000	0.000000	6.634998	-0.024469	NaN	0.000000	0.001594	0.001695	28.1241	0.055233	0.002093	26.3956	148.997	-168.005	-0.143554	0.633153	-0.404237	-0.405545	-0.024469	26.3956	-0.403541	-150132	1.629800E-7	NaN
180	1.000000	0.642453	7.3668e+06	-47639.1	955.818	-29765.7	0.000000	0.000000	6.642989	-0.042853	NaN	0.000000	0.001593	0.001687	28.1246	0.085267	0.002030	41.9976	-85.2649	-166.421	-0.031429	0.641132	-0.396246	-0.397566	-0.042853	41.9976	-0.395480	-115211	3.719472E-7	NaN
180	1.000000	0.650476	7.3668e+06	-47639.1	955.819	-29765.7	0.000000	0.000000	6.651015	0.025120	NaN	0.000000	0.001601	0.001676	28.124	0.047419	0.002087	22.7189	61.1228	-167.654	-0.014393	0.649164	-0.388222	-0.389534	0.025120	22.7189	-0.389051	-93237.8	-2.694186E-7	NaN
180	1.000000	0.658488	7.3668e+06	-47639.1	955.818	-29765.7	0.000000	0.000000	6.659024	-0.026695	NaN	0.000000	0.001603	0.001708	28.1245	0.066825	0.001953	34.2098	-96.6809	-166.145	-0.061933	0.657168	-0.380211	-0.381531	-0.026695	34.2098	-0.379625	-68314.5	3.907718E-7	NaN
180	1.000000	0.666501	7.3668e+06	-47639.1	955.819	-29765.7	0.000000	0.000000	6.667036	-0.069898	NaN	0.000000	0.001613	0.001696	28.1269	0.064496	0.002059	31.3185	30.8456	-167.081	-0.095527	0.665167	-0.372197	-0.373531	-0.069898	31.3185	-0.370523	-50543.5	1.382927E-6	NaN
180	1.000000	0.674483	7.3668e+06	-47639.1	955.819	-29765.7	0.000000	0.000000	6.675020	-0.024856	NaN	0.000000	0.001614	0.001705	28.1262	0.053596	0.002078	25.7857	-145.154	-164.092	0.097211	0.673142	-0.364215	-0.365556	-0.024856	25.7857	-0.363492	-40021.7	6.210520E-7	NaN
180	1.000000	0.682502	7.3668e+06	-47639.1	955.82	-29765.7	0.000000	0.000000	6.683039	-0.029753	NaN	0.000000	0.001591	0.001686	28.1267	0.077470	0.001995	38.8233	-137.608	-168.801	-0.012457	0.681195	-0.356196	-0.357503	-0.029753	38.8233	-0.355621	-30796.1	9.661359E-7	NaN
180	1.000000	0.690502	7.3668e+06	-47639.1	955.818	-29765.7	0.000000	0.000000	6.691035	-0.108723	NaN	0.000000	0.001606	0.001707	28.1267	0.077050	0.002059	37.4191	-48.8005	-167.238	-0.044432	0.689151	-0.348196	-0.349547	-0.108723	37.4191	-0.346017	-22343.3	4.866019E-6	NaN
180	1.000000	0.698496	7.3668e+06	-47639.1	955.818	-29765.7	0.000000	0.000000	6.699035	0.029955	NaN	0.000000	0.001594	0.001684	28.1264	0.121861	0.001963	62.0905	-141.306	-164.062	0.033392	0.697186	-0.340203	-0.341512	0.029955	62.0905	-0.340565	-18611.5	-1.609474E-6	NaN
180	1.000000	0.706490	7.3668e+06	-47639.1	955.818	-29765.7	0.000000	0.000000	6.707025	-0.074834	NaN	0.000000	0.001583	0.001717	28.1259	0.056512	0.002098	26.9308	65.5829	-167.859	-0.121182	0.705147	-0.332208	-0.333551	-0.074834	26.9308	-0.330124	-13100	5.712554E-6	NaN
180	1.000000	0.714457	7.3668e+06	-47639.1	955.819	-29765.7	0.000000	0.000000	6.714991	-0.100417	NaN	0.000000	0.001625	0.001702	28.1255	0.048261	0.001973	24.4607	96.1564	-164.373	-0.175298	0.713135	-0.324241	-0.325564	-0.100417	24.4607	-0.321162	-9677.02	1.037680E-5	NaN
180	1.000000	0.722551	7.3668e+06	-47639.1	955.82	-29765.7	0.000000	0.000000	6.723088	-0.013605	NaN	0.000000	0.001595	0.001659	28.126	0.025147	0.001890	13.3051	-7.568261	-171.833	0.030982	0.721189	-0.316147	-0.317509	-0.013605	13.3051	-0.315380	-7953.55	1.710540E-6	NaN
180	1.000000	0.730472	7.3668e+06	-47639.1	955.818	-29765.7	0.000000	0.000000	6.731008	-0.030077	NaN	0.000000	0.001565	0.001649	28.1252	0.013877	0.001951	7.111280	0.188121	-166.242	-0.011602	0.729163	-0.308227	-0.309535	-0.030077	7.111280	-0.305054	-5594.51	5.376252E-6	NaN
180	1.000000	0.738487	7.3668e+06	-47639.1	955.819	-29765.7	0.000000	0.000000	6.739022	-0.069088	NaN	0.000000	0.001599	0.001698	28.1254	0.033530	0.002037	16.4628	162.453	-167.125	0.013316	0.737226	-0.300211	-0.301472	-0.069088	16.4628	-0.297064	-4254.87	1.623737E-5	NaN
180	1.000000	0.746494	7.3668e+06	-47639.1	955.818	-29765.7	0.000000	0.000000	6.747029	-0.058289	NaN	0.000000	0.001605	0.001695	28.1269	0.050050	0.001994	25.0958	161.631	-165.408	-0.000508	0.745183	-0.292204	-0.293515	-0.058289	25.0958	-0.290462	-3390.2	1.719346E-5	NaN
180	1.000000	0.754510	7.3668e+06	-47639.1	955.819	-29765.7	0.000000	0.000000	6.755045	-0.063970	NaN	0.000000	0.001522	0.001673	28.1267	0.107601	0.002041	52.7151	151.234	-165.101	-0.045116	0.753171	-0.284188	-0.285527	-0.063970	52.7151	-0.283278	-2644.62	2.418881E-5	NaN
180	1.000000	0.762508	7.3668e+06	-47639.1	955.818	-29765.7	0.000000	0.000000	6.763044	-0.019098	NaN	0.000000	0.001550	0.001701	28.1261	0.033635	0.001997	16.8433	-24.6155	-164.911	-0.021077	0.761180	-0.276191	-0.277518	-0.019098	16.8433	-0.275340	-2007.03	9.515693E-6	NaN
180	1.000000	0.770539	7.3668e+06	-47639.1	955.818	-29765.7	0.000000	0.000000	6.771077	-0.009530	NaN	0.000000	0.001511	0.001678	28.126	0.062486	0.002133	29.2882	-17.7097	-166.224	-0.016008	0.769220	-0.268159	-0.269479	-0.009530	29.2882	-0.267915	-1548.2	6.155310E-6	NaN
180	1.000000	0.778527	7.3668e+06	-47639.1	955.818	-29765.7	0.000000	0.000000	6.779063	-0.052770	NaN	0.000000	0.001530	0.001660	28.1263	0.116310	0.001951	59.605	-62.1402	-168.131	-0.019174	0.777199	-0.260171	-0.261499	-0.052770	59.605	-0.259507	-1151.75	4.581698E-5	NaN
180	1.000000	0.786531	7.3668e+06	-47639.1	955.819	-29765.7	0.000000	0.000000	6.787066	-0.055889	NaN	0.000000	0.001541	0.001654	28.1253	0.062703	0.001880	33.3458	89.3381	-164.543	-0.053957	0.785254	-0.252167	-0.253444	-0.055889	33.3458	-0.250910	-849.26	6.580918E-5	NaN
180	1.000000	0.794535	7.3668e+06	-47639.1	955.818	-29765.7	0.000000	0.000000	6.795071	-0.041503	NaN	0.000000	0.001508	0.001660	28.1252	0.037768	0.001975	19.1281	42.7617	-165.151	-0.097603	0.793183	-0.244163	-0.245516	-0.041503	19.1281	-0.242536	-629.671	6.591198E-5	NaN
180	1.000000	0.802526	7.3668e+06	-47639.1	955.819	-29765.7	0.000000	0.000000	6.803061	-0.058399	NaN	0.000000	0.001549	0.001718	28.1242	0.051549	0.002066	24.9521	-154.866	-166.442	-0.013076	0.801228	-0.236172	-0.237470	-0.058399	24.9521	-0.234417	-469.992	0.000124	NaN
180	1.000000	0.810494	7.3668e+06	-47639.1	955.819	-29765.7	0.000000	0.000000	6.811030	-0.058762	NaN	0.000000	0.001581	0.001682	28.1237	0.078991	0.001896	41.6669	23.3183	-166.404	-0.094534	0.809217	-0.228204	-0.229481	-0.058762	41.6669	-0.227146	-360.895	0.000163	NaN
180	1.000000	0.818549	7.3668e+06	-47639.1	955.818	-29765.7	0.000000	0.000000	6.819083	-0.076058	NaN	0.000000	0.001553	0.001670	28.1236	0.049733	0.002007	24.7818	46.0219	-165.745	-0.112752	0.817214	-0.220150	-0.221484	-0.076058	24.7818	-0.217848	-256.588	0.000296	NaN
180	1.000000	0.826568	7.3668e+06	-47639.1	955.818	-29765.7	0.000000	0.000000	6.827103	-0.063335	NaN	0.000000	0.001560	0.001710	28.1249	0.069739	0.002114	32.9959	-111.945	-165.103	-0.012341	0.825236	-0.212130	-0.213463	-0.063335	32.9959	-0.210691	-196.787	0.000322	NaN
180	1.000000	0.834534	7.3668e+06	-47639.1	955.819	-29765.7	0.000000	0.000000	6.835069	-0.063254	NaN	0.000000	0.001563	0.001733	28.1244	0.062137	0.001946	31.9321	-71.7334	-167.881	-0.034109	0.833254	-0.204165	-0.205445	-0.063254	31.9321	-0.202679	-145.759	0.000434	NaN
180	1.000000	0.842524	7.3668e+06	-47639.1	955.818	-29765.7	0.000000	0.000000	6.843060	-0.048348	NaN	0.000000	0.001532	0.001665	28.1252	0.171702	0.002046	83.9362	19.1986	-161.771	-0.001168	0.841194	-0.196174	-0.197505	-0.048348	83.9362	-0.195742	-112.07	0.000431	NaN
180	1.000000	0.850542	7.3668e+06	-47639.1	955.818	-29765.7	0.000000	0.000000	6.851079	-0.025629	NaN	0.000000	0.001545	0.001655	28.1245	0.032642	0.002021	16.1485	101.261	-167.668	-0.055441	0.849286	-0.188156	-0.189412	-0.025629	16.1485	-0.186966	-80.0221	0.000320	NaN
180	1.000000	0.858534	7.3668e+06	-47639.1	955.819	-29765.7	0.000000	0.000000	6.859069	-0.055170	NaN	0.000000	0.001552	0.001702	28.1246	0.068178	0.001873	36.392	-112.768	-164.172	-0.102777	0.857264	-0.180164	-0.181435	-0.055170	36.392	-0.179027	-58.7361	0.000939	NaN
180	1.000000	0.866578	7.3668e+06	-47639.1	955.818	-29765.7	0.000000	0.000000	6.867111	-0.132758	NaN	0.000000	0.001569	0.001693	28.1235	0.015772	0.002093	7.534488	16.386	-167.388	-0.100999	0.865213	-0.172120	-0.173485	-0.132758	7.534488	-0.158905	-26.212	0.005065	NaN
180	1.000000	0.874570	7.3668e+06	-47639.1	955.818	-29765.7	0.000000	0.000000	6.875108	-0.013518	NaN	0.000000	0.001558	0.001671	28.1232	0.136290	0.001981	68.8156	96.5506	-166.645	-0.001046	0.873226	-0.164128	-0.165473	-0.013518	68.8156	-0.163981	-32.239	0.000419	NaN
180	1.000000	0.882545	7.3668e+06	-47639.1	955.819	-29765.7	0.000000	0.000000	6.883083	0.015771	NaN	0.000000	0.001565	0.001661	28.1233	0.009339	0.002031	4.598262	96.6935	-162.082	-0.052220	0.881223	-0.156154	-0.157475	0.015771	4.598262	-0.158726	-26.0202	-0.000606	NaN
180	1.000000	0.890548	7.3668e+06	-47639.1	955.818	-29765.7	0.000000	0.000000	6.891084	-0.038691	NaN	0.000000	0.001578	0.001707	28.1232	0.131706	0.002101	62.6882	70.5989	-162.845	-0.039121	0.889256	-0.148151	-0.149442	-0.038691	62.6882	-0.147688	-16.4323	0.002355	NaN
180	1.000000	0.898538	7.3668e+06	-47639.1	955.818	-29765.7	0.000000	0.000000	6.899073	-0.070322	NaN	0.000000	0.001550	0.001652	28.1234	0.055133	0.002020	27.2884	21.4263	-166.179	0.025776	0.897263	-0.140160	-0.141435	-0.070322	27.2884	-0.138227	-10.954	0.006420	NaN
180	1.000000	0.906550	7.3668e+06	-47639.1	955.819	-29765.7	0.000000	0.000000	6.907085	-0.074333	NaN	0.000000	0.001524	0.001721	28.1243	0.113301	0.001930	58.7085	128.063	-165.153	-0.095665	0.905249	-0.132148	-0.133450	-0.074333	58.7085	-0.131199	-8.039754	0.009246	NaN
180	1.000000	0.914574	7.3668e+06	-47639.1	955.818	-29765.7	0.000000	0.000000	6.915111	-0.021052	NaN	0.000000	0.001536	0.001696	28.1242	0.037439	0.001888	19.8264	128.252	-167.514	-0.020130	0.913252	-0.124125	-0.125447	-0.021052	19.8264	-0.123328	-5.633859	0.003737	NaN
180	1.000000	0.922569	7.3668e+06	-47639.1	955.819	-29765.7	0.000000	0.000000	6.923104	-0.070724	NaN	0.000000	0.001558	0.001676	28.1238	0.058693	0.001916	30.6349	-76.7853	-169.018	0.033998	0.921246	-0.116129	-0.117453	-0.070724	30.6349	-0.114398	-3.712578	0.019050	NaN
180	1.000000	0.930570	7.3668e+06	-47639.1	955.818	-29765.7	0.000000	0.000000	6.931106	-0.047515	NaN	0.000000	0.001594	0.001672	28.1242	0.079474	0.001875	42.3911	-9.189145	-166.14	-0.031192	0.929317	-0.108128	-0.109381	-0.047515	42.3911	-0.107287	-2.632111	0.018052	NaN
180	1.000000	0.938595	7.3668e+06	-47639.1	955.818	-29765.7	0.000000	0.000000	6.939130	-0.066541	NaN	0.000000	0.001584	0.001672	28.1246	0.110465	0.001918	57.6015	87.3625	-169.427	0.001881	0.937312	-0.100103	-0.101386	-0.066541	57.6015	-0.099237	-1.757219	0.037867	NaN
180	1.000000	0.946595	7.3668e+06	-47639.1	955.818	-29765.7	0.000000	0.000000	6.947132	-0.033362	NaN	0.000000	0.001527	0.001694	28.1242	0.071642	0.002007	35.6989	-37.0434	-163.841	0.033327	0.945305	-0.092103	-0.093393	-0.033362	35.6989	-0.091402	-1.165671	0.028620	NaN
180	1.000000	0.954576	7.3668e+06	-47639.1	955.818	-29765.7	0.000000	0.000000	6.955112	-0.038345	NaN	0.000000	0.001570	0.001661	28.1244	0.027330	0.002025	13.4952	-157.301	-167.851	0.033679	0.953263	-0.084123	-0.085435	-0.038345	13.4952	-0.081992	-0.693686	0.055277	NaN
180	1.000000	0.962602	7.3668e+06	-47639.1	955.818	-29765.7	0.000000	0.000000	6.963137	-0.051000	NaN	0.000000	0.001592	0.001699	28.1239	0.041258	0.002003	20.6007	92.5608	-165.811	-0.071470	0.961239	-0.076097	-0.077459	-0.051000	20.6007	-0.074240	-0.441374	0.115549	NaN
180	1.000000	0.970573	7.3668e+06	-47639.1	955.818	-29765.7	0.000000	0.000000	6.971107	-0.091886	NaN	0.000000	0.001649	0.001719	28.1244	0.058146	0.001995	29.1385	-2.132045	-167.157	-0.072150	0.969285	-0.068125	-0.069413	-0.091886	29.1385	-0.065760	-0.261582	0.351269	NaN
180	1.000000	0.978579	7.3668e+06	-47639.1	955.819	-29765.7	0.000000	0.000000	6.979114	-0.054291	NaN	0.000000	0.001559	0.001718	28.1238	0.073712	0.001999	36.8745	76.4594	-167.647	-0.068594	0.977329	-0.060120	-0.061370	-0.054291	36.8745	-0.059015	-0.168718	0.321784	NaN
180	1.000000	0.986642	7.3668e+06	-47639.1	955.818	-29765.7	0.000000	0.000000	6.987179	-0.000499	NaN	0.000000	0.001582	0.001695	28.1256	0.118042	0.002103	56.1389	-62.764	-166.445	-0.019047	0.985328	-0.052057	-0.053371	-0.000499	56.1389	-0.052050	-0.105192	0.004746	NaN
180	1.000000	0.994616	7.3668e+06	-47639.1	955.817	-29765.7	0.000000	0.000000	6.995151	-0.059794	NaN	0.000000	0.001585	0.001701	28.1257	0.067617	0.002088	32.3872	-166.815	-168.386	-0.077671	0.993336	-0.044082	-0.045362	-0.059794	32.3872	-0.042698	-0.054650	1.094138	NaN
180	1.000000	1.002603	7.3668e+06	-47639.1	955.817	-29765.7	0.000000	0.000000	7.003137	-0.090653	NaN	0.000000	0.001607	0.001688	28.1256	0.037552	0.002004	18.7402	-51.8249	-165.378	-0.080005	1.001341	-0.036095	-0.037357	-0.090653	18.7402	-0.032467	-0.027026	3.354321	NaN
180	1.000000	1.010605	7.3668e+06	-47639.1	955.817	-29765.7	0.000000	0.000000	7.011139	-0.078933	NaN	0.000000	0.001571	0.001649	28.1258	0.045866	0.002007	22.8549	-89.5937	-165.487	-0.014331	1.009284	-0.028094	-0.029414	-0.078933	22.8549	-0.025503	-0.017391	4.538849	NaN
180	1.000000	1.018626	7.3668e+06	-47639.1	955.818	-29765.7	0.000000	0.000000	7.019162	-0.025984	NaN	0.000000	0.001564	0.001686	28.1253	0.098646	0.002057	47.9512	-43.4255	-165.263	-0.033770	1.017284	-0.020073	-0.021414	-0.025984	47.9512	-0.019666	-0.012318	2.109488	NaN
180	1.000000	1.026621	7.3668e+06	-47639.1	955.818	-29765.7	0.000000	0.000000	7.027154	-0.112150	NaN	0.000000	0.001567	0.001678	28.1243	0.114352	0.002010	56.8802	-163.649	-167.962	-0.063754	1.025335	-0.012078	-0.013363	-0.112150	56.8802	-0.010599	-0.006729	16.6658	NaN
180	1.000000	1.034601	7.3668e+06	-47639.1	955.817	-29765.7	0.000000	0.000000	7.035136	-0.061163	NaN	0.000000	0.001635	0.001687	28.1245	0.071155	0.001960	36.3025	-120.191	-166.218	-0.131327	1.033331	-0.004097	-0.005367	-0.061163	36.3025	-0.002834	-0.002009	30.4469	NaN
180	1.000000	1.042614	7.3668e+06	-47639.1	955.818	-29765.7	0.000000	0.000000	7.043228	1.855454	NaN	0.000000	0.001616	0.001697	28.1238	2.708971	0.001765	1534.53	4.496377	-169.875	0.727250	1.041315	0.003916	0.002617	1.855454	1534.53	0.003009	0.002387	777.182	28693.7
180	2.000000	1.049209	7.3668e+06	-47639.1	955.818	-29765.7	0.000000	0.000000	7.050134	9.429160	NaN	0.000000	0.001582	0.001703	28.1236	9.214225	0.001605	5742.24	8.426901	-173.646	8.861707	1.048789	0.010511	0.010090	9.429160	5742.24	0.009279	0.008391	1123.67	57271.4
180	2.000000	1.051199	7.3668e+06	-47639.1	955.819	-29765.7	0.000000	0.000000	7.052249	12.4598	NaN	0.000000	0.001610	0.001724	28.1239	12.1164	0.001652	7336.47	7.156047	-175.079	12.0228	1.050892	0.012501	0.012194	12.4598	7336.47	0.011227	0.010578	1177.93	65172.7
180	2.000000	1.053227	7.3668e+06	-47639.1	955.819	-29765.7	0.000000	0.000000	7.054414	15.7965	NaN	0.000000	0.001623	0.001714	28.1245	14.4929	0.001784	8123.69	7.597157	-175.108	15.0727	1.052857	0.014528	0.014159	15.7965	8123.69	0.013070	0.012797	1234.36	65609.7
180	2.000000	1.055161	7.3668e+06	-47639.1	955.819	-29765.7	0.000000	0.000000	7.056488	19.1846	NaN	0.000000	0.001618	0.001726	28.1252	16.2031	0.001738	9322.85	5.551596	-176.222	18.6124	1.054833	0.016463	0.016135	19.1846	9322.85	0.014920	0.015178	1263.95	69137.2
180	2.000000	1.057159	7.3668e+06	-47639.1	955.818	-29765.7	0.000000	0.000000	7.058585	21.6062	NaN	0.000000	0.001587	0.001736	28.1238	19.3482	0.001853	10444.3	9.399011	179.876	20.6859	1.056905	0.018460	0.018207	21.6062	10444.3	0.016909	0.017916	1206	71291
180	2.000000	1.059109	7.3668e+06	-47639.1	955.818	-29765.7	0.000000	0.000000	7.060774	27.4137	NaN	0.000000	0.001608	0.001669	28.1241	20.5753	0.001786	11517.1	3.199946	-174.385	26.0961	1.058881	0.020411	0.020183	27.4137	11517.1	0.018626	0.020429	1341.9	73619.6
180	2.000000	1.061166	7.3668e+06	-47639.1	955.818	-29765.7	0.000000	0.000000	7.062986	31.1859	NaN	0.000000	0.001671	0.001741	28.1238	22.8188	0.001713	13319.3	7.908503	178.702	31.5497	1.060850	0.022468	0.022151	31.1859	13319.3	0.020712	0.023673	1317.37	79091.5
180	2.000000	1.063178	7.3668e+06	-47639.1	955.818	-29765.7	0.000000	0.000000	7.065164	35.217	NaN	0.000000	0.001654	0.001713	28.1222	25.1919	0.001716	14680.4	6.742267	179.316	34.4149	1.062845	0.024480	0.024146	35.217	14680.4	0.022681	0.026931	1307.67	81730.4
180	2.000000	1.065147	7.36681e+06	-47639.1	955.818	-29765.7	0.000000	0.000000	7.067315	39.6608	NaN	0.000000	0.001631	0.001731	28.1226	26.7473	0.001782	15012.7	4.076534	-178.159	39.9516	1.064829	0.026449	0.026131	39.6608	15012.7	0.024468	0.030054	1319.65	79119
180	2.000000	1.067102	7.36681e+06	-47639.1	955.819	-29765.7	0.000000	0.000000	7.069555	46.5726	NaN	0.000000	0.001658	0.001713	28.1225	29.1389	0.001937	15040.4	4.375150	-178.07	44.4806	1.066774	0.028404	0.028076	46.5726	15040.4	0.026082	0.033013	1410.75	75629.8
180	2.000000	1.069091	7.36681e+06	-47639.1	955.818	-29765.7	0.000000	0.000000	7.071805	52.9106	NaN	0.000000	0.001642	0.001685	28.1221	30.508	0.001807	16882.5	8.163900	177.229	50.6208	1.068719	0.030393	0.030021	52.9106	16882.5	0.028043	0.036784	1438.4	80422.8
180	2.000000	1.071084	7.36681e+06	-47639.1	955.819	-29765.7	0.000000	0.000000	7.074036	58.7232	NaN	0.000000	0.001679	0.001684	28.1229	32.3523	0.001702	19012.7	6.430913	177.613	58.2161	1.070834	0.032385	0.032136	58.7232	19012.7	0.030069	0.040886	1436.25	85907
180	2.000000	1.073131	7.36681e+06	-47639.1	955.819	-29765.7	0.000000	0.000000	7.076455	67.7892	NaN	0.000000	0.001652	0.001679	28.1231	34.37	0.001798	19112.7	7.251636	177.644	67.3252	1.072826	0.034432	0.034127	67.7892	19112.7	0.031772	0.044497	1523.45	82780.6
180	2.000000	1.075142	7.36681e+06	-47639.1	955.818	-29765.7	0.000000	0.000000	7.078722	73.9951	NaN	0.000000	0.001668	0.001691	28.1229	36.6204	0.001817	20155.1	5.309921	177.557	74.2256	1.074761	0.036444	0.036063	73.9951	20155.1	0.033691	0.048741	1518.12	83408.4
180	2.000000	1.077067	7.36681e+06	-47639.1	955.819	-29765.7	0.000000	0.000000	7.080969	81.8117	NaN	0.000000	0.001673	0.001713	28.1236	38.2649	0.001784	21449.5	3.735711	178.194	79.7577	1.076808	0.038369	0.038110	81.8117	21449.5	0.035508	0.052937	1545.46	85175
180	2.000000	1.079086	7.36681e+06	-47639.1	955.819	-29765.7	0.000000	0.000000	7.083311	89.6844	NaN	0.000000	0.001614	0.001697	28.1227	39.3658	0.001763	22330.1	2.558369	179.866	88.7882	1.078748	0.040387	0.040050	89.6844	22330.1	0.037375	0.057421	1561.87	85138.9
180	2.000000	1.081056	7.36681e+06	-47639.1	955.818	-29765.7	0.000000	0.000000	7.085635	98.3073	NaN	0.000000	0.001626	0.001717	28.1243	41.5696	0.001738	23924.7	1.948764	179.614	94.7532	1.080717	0.042357	0.042019	98.3073	23924.7	0.039276	0.062170	1581.27	87665.8
180	2.000000	1.083122	7.36681e+06	-47639.1	955.818	-29765.7	0.000000	0.000000	7.088035	106.425	NaN	0.000000	0.001614	0.001684	28.1217	44.5736	0.001806	24683.7	8.251524	173.274	104.833	1.082754	0.044424	0.044056	106.425	24683.7	0.041190	0.067140	1585.13	87034.9
180	2.000000	1.085041	7.36681e+06	-47639.1	955.82	-29765.7	0.000000	0.000000	7.090260	113.871	NaN	0.000000	0.001609	0.001755	28.122	45.7346	0.001853	24674.7	7.489665	174.573	111.944	1.084768	0.046343	0.046070	113.871	24674.7	0.042881	0.071687	1588.45	84198.7
180	2.000000	1.087066	7.36681e+06	-47639.1	955.82	-29765.7	0.000000	0.000000	7.092525	119.694	NaN	0.000000	0.001605	0.001695	28.1215	48.0671	0.001840	26128.8	6.280243	173.637	118.205	1.086860	0.048368	0.048161	119.694	26128.8	0.044932	0.077395	1546.54	85809.9
180	2.000000	1.089026	7.36681e+06	-47639.1	955.82	-29765.7	0.000000	0.000000	7.095100	134.661	NaN	0.000000	0.001652	0.001744	28.1214	48.3533	0.001888	25609	3.604267	178.167	131.771	1.088758	0.050328	0.050060	134.661	25609	0.046384	0.081565	1650.96	81924.3
180	2.000000	1.091055	7.36681e+06	-47639.1	955.818	-29765.7	0.000000	0.000000	7.097291	138.598	NaN	0.000000	0.001635	0.001752	28.1243	51.559	0.001843	27982.7	5.379481	175.076	136.591	1.090764	0.052356	0.052066	138.598	27982.7	0.048642	0.088261	1570.33	86055.7
180	2.000000	1.093119	7.36681e+06	-47639.1	955.819	-29765.7	0.000000	0.000000	7.099813	149.748	NaN	0.000000	0.001662	0.001750	28.1239	52.8214	0.001883	28054.7	5.559851	175.821	151.355	1.092781	0.054421	0.054082	149.748	28054.7	0.050417	0.093707	1598.03	83732
180	2.000000	1.095027	7.36681e+06	-47639.1	955.819	-29765.7	0.000000	0.000000	7.102317	164.239	NaN	0.000000	0.001613	0.001727	28.1243	54.1122	0.001715	31559.2	5.708261	173.355	162.122	1.094729	0.056328	0.056031	164.239	31559.2	0.052425	0.100057	1641.45	91153.9
180	2.000000	1.097047	7.36681e+06	-47639.1	955.819	-29765.7	0.000000	0.000000	7.104405	165.895	NaN	0.000000	0.001562	0.001748	28.1239	56.5588	0.001774	31874	0.259426	178.891	164.676	1.096849	0.058349	0.058150	165.895	31874	0.054445	0.106647	1555.55	89173.3
180	2.000000	1.099050	7.36681e+06	-47639.1	955.818	-29765.7	0.000000	0.000000	7.106895	177.749	NaN	0.000000	0.001581	0.001729	28.1236	58.1908	0.001798	32370.5	3.929410	175.014	173.869	1.098823	0.060351	0.060124	177.749	32370.5	0.056233	0.112648	1577.91	88117.1
180	2.000000	1.101015	7.36681e+06	-47639.1	955.819	-29765.7	0.000000	0.000000	7.109616	196.131	NaN	0.000000	0.001578	0.001766	28.1243	62.1246	0.001862	33371.6	8.914173	170.777	192.729	1.100587	0.062317	0.061889	196.131	33371.6	0.057909	0.118417	1656.28	88601.9
180	2.000000	1.103081	7.36681e+06	-47639.1	955.82	-29765.7	0.000000	0.000000	7.111990	203.61	NaN	0.000000	0.001559	0.001739	28.1227	63.6373	0.001645	38677.5	5.473247	172.156	202.015	1.102736	0.064383	0.064038	203.61	38677.5	0.060434	0.127371	1598.56	99014
180	2.000000	1.105103	7.36681e+06	-47639.1	955.82	-29765.7	0.000000	0.000000	7.114635	218.776	NaN	0.000000	0.001581	0.001762	28.1227	66.1189	0.001880	35168.7	6.826239	172.318	219.954	1.104732	0.066405	0.066033	218.776	35168.7	0.061739	0.132118	1655.91	88399.2
180	2.000000	1.107043	7.36681e+06	-47639.1	955.82	-29765.7	0.000000	0.000000	7.116814	224.587	NaN	0.000000	0.001582	0.001713	28.1232	67.0578	0.001836	36531.5	3.082403	175.261	224.119	1.106769	0.068345	0.068071	224.587	36531.5	0.063734	0.139538	1609.51	89350.1
180	2.000000	1.109088	7.36681e+06	-47639.1	955.82	-29765.7	0.000000	0.000000	7.119650	243.82	NaN	0.000000	0.001531	0.001732	28.1232	68.1609	0.001674	40709.7	5.024399	173.76	244.508	1.108569	0.070390	0.069870	243.82	40709.7	0.065898	0.147803	1649.62	96745.1
180	2.000000	1.110988	7.36681e+06	-47639.1	955.819	-29765.7	0.000000	0.000000	7.122070	256.454	NaN	0.000000	0.001557	0.001767	28.1231	70.9722	0.001829	38809.9	6.646857	171.78	254.134	1.110690	0.072290	0.071992	256.454	38809.9	0.067334	0.153412	1671.66	90528.6
180	2.000000	1.113054	7.36681e+06	-47639.1	955.82	-29765.7	0.000000	0.000000	7.124592	267.556	NaN	0.000000	0.001590	0.001760	28.1236	72.7111	0.001763	41237.7	4.419303	173.582	265.808	1.112709	0.074356	0.074011	267.556	41237.7	0.069490	0.162018	1651.39	93602
180	2.000000	1.114976	7.36681e+06	-47639.1	955.82	-29765.7	0.000000	0.000000	7.127103	281.877	NaN	0.000000	0.001583	0.001736	28.1235	73.5218	0.001581	46499.8	4.021159	172.168	278.073	1.114761	0.076278	0.076063	281.877	46499.8	0.071732	0.171203	1646.44	102676
180	2.000000	1.117068	7.36681e+06	-47639.1	955.821	-29765.7	0.000000	0.000000	7.129429	287.577	NaN	0.000000	0.001575	0.001711	28.1235	78.3255	0.001818	43089	1.931973	174.833	287.199	1.116910	0.078370	0.078212	287.577	43089	0.073364	0.178042	1615.22	93299.4
180	2.000000	1.118983	7.36681e+06	-47639.1	955.82	-29765.7	0.000000	0.000000	7.132315	311.201	NaN	0.000000	0.001545	0.001720	28.1235	79.4547	0.001821	43629.4	5.802725	171.046	308.358	1.118701	0.080284	0.080003	311.201	43629.4	0.074935	0.184740	1684.54	92741.1
180	2.000000	1.121059	7.36681e+06	-47639.1	955.82	-29765.7	0.000000	0.000000	7.135054	327.338	NaN	0.000000	0.001565	0.001680	28.1236	82.4943	0.001799	45851.6	7.331062	169.367	327.057	1.120742	0.082360	0.082044	327.338	45851.6	0.077006	0.193749	1689.49	95171.6
180	2.000000	1.123083	7.36681e+06	-47639.1	955.821	-29765.7	0.000000	0.000000	7.138074	351.565	NaN	0.000000	0.001601	0.001667	28.1225	84.6	0.001837	46064.4	8.337942	168.693	351.569	1.122639	0.084384	0.083941	351.565	46064.4	0.078660	0.201090	1748.3	93852
180	2.000000	1.125007	7.36681e+06	-47639.1	955.82	-29765.7	0.000000	0.000000	7.140503	363.828	NaN	0.000000	0.001578	0.001676	28.1214	85.2321	0.001802	47286.2	3.885030	173.051	362.303	1.124693	0.086309	0.085994	363.828	47286.2	0.080538	0.209579	1736	94370.1
180	2.000000	1.126920	7.36681e+06	-47639.1	955.821	-29765.7	0.000000	0.000000	7.143110	380.712	NaN	0.000000	0.001568	0.001697	28.1213	87.1079	0.001800	48393.4	3.413810	172.854	374.117	1.126714	0.088222	0.088015	380.712	48393.4	0.082322	0.217792	1748.05	94741.2
180	2.000000	1.129085	7.36681e+06	-47639.1	955.82	-29765.7	0.000000	0.000000	7.146016	398.721	NaN	0.000000	0.001580	0.001673	28.1213	88.3267	0.001777	49707.3	3.630261	172.875	400.401	1.128721	0.090387	0.090023	398.721	49707.3	0.084371	0.227410	1753.32	95233.4
180	2.000000	1.131037	7.36681e+06	-47639.1	955.821	-29765.7	0.000000	0.000000	7.148893	421.219	NaN	0.000000	0.001609	0.001657	28.1208	93.1666	0.001944	47921.4	8.184905	167.961	422.485	1.130705	0.092339	0.092007	421.219	47921.4	0.085747	0.233976	1800.27	90514.3
180	2.000000	1.132978	7.36681e+06	-47639.1	955.82	-29765.7	0.000000	0.000000	7.151449	436.203	NaN	0.000000	0.001554	0.001649	28.1218	92.5227	0.001696	54553.9	2.593329	172.894	432.745	1.132656	0.094279	0.093958	436.203	54553.9	0.088282	0.246309	1770.96	100429
180	2.000000	1.135138	7.36681e+06	-47639.1	955.82	-29765.7	0.000000	0.000000	7.154463	456.964	NaN	0.000000	0.001554	0.001682	28.122	94.8812	0.001855	51139.2	7.768446	168.67	463.506	1.134629	0.096440	0.095931	456.964	51139.2	0.089738	0.253521	1802.47	92794.2
180	2.000000	1.136951	7.36681e+06	-47639.1	955.821	-29765.7	0.000000	0.000000	7.157106	477.154	NaN	0.000000	0.001587	0.001698	28.1222	96.7324	0.001839	52595.9	4.404066	171.635	473.134	1.136673	0.098252	0.097975	477.154	52595.9	0.091448	0.262120	1820.36	93858.9
180	2.000000	1.138962	7.36681e+06	-47639.1	955.82	-29765.7	0.000000	0.000000	7.159908	496.382	NaN	0.000000	0.001609	0.001678	28.1218	96.1154	0.001746	55037.4	2.725954	172.612	490.997	1.138655	0.100264	0.099957	496.382	55037.4	0.093500	0.272609	1820.86	96307.7
180	2.000000	1.141031	7.36681e+06	-47639.1	955.82	-29765.7	0.000000	0.000000	7.162753	515.26	NaN	0.000000	0.001568	0.001681	28.1218	101.444	0.001722	58901.3	4.492518	170.223	514.134	1.140717	0.102333	0.102018	515.26	58901.3	0.095772	0.284455	1811.39	100900
180	2.000000	1.143111	7.36681e+06	-47639.1	955.82	-29765.7	0.000000	0.000000	7.165804	538.89	NaN	0.000000	0.001650	0.001670	28.1206	103.701	0.001839	56404.6	6.011950	169.461	542.771	1.142707	0.104413	0.104009	538.89	56404.6	0.097247	0.292270	1843.81	95322.5
180	2.000000	1.144884	7.36681e+06	-47639.1	955.819	-29765.7	0.000000	0.000000	7.168417	559.302	NaN	0.000000	0.001572	0.001661	28.1202	104.136	0.001765	58999.9	3.594356	171.312	552.026	1.144649	0.106186	0.105951	559.302	58999.9	0.099076	0.302097	1851.4	98073.3
180	2.000000	1.147026	7.36681e+06	-47639.1	955.819	-29765.7	0.000000	0.000000	7.171270	576.597	NaN	0.000000	0.001540	0.001639	28.1217	107.574	0.001862	57785.9	2.947303	172.057	576.594	1.146804	0.108328	0.108106	576.597	57785.9	0.100844	0.311743	1849.59	94557.6