File: remote_trans/data/nanoindenter/0828-1/data/Data_2025-08-06,11h17m57s/2025-07-22_16-23-58_1_10.txt
2025-07-22, 16:23:58, 1
Index	Phase	Displacement	Time	Pos X	Pos Y	Pos Z	Rot A	Rot B	Piezo Z	Force A	Force B	Gripper	Voltage A	Voltage B	Temperature	Amplitude force	Amplitude pos	Stiffness	Phase shift	Phase excitation	Force A raw	Displacement raw	HMax	HMax raw	Real Force	Real Stiffness	Contact Depth	Area	Hardness	Reduced Mod.
[#]	[#]	[um]	[s]	[um]	[um]	[um]	[m°]	[m°]	[um]	[uN]	[uN]	[V]	[V]	[V]	[°C]	[uN]	[um]	[N/m]	[°]	[°]	[uN]	[um]	[um]	[um]	[uN]	[N/m]	[um]	[um^2]	[MPa]	[MPa]
10	1.000000	0.002752	7.36514e+06	-39139.1	955.819	-29795.6	0.000000	0.000000	6.002800	0.026024	NaN	0.000000	0.001635	0.001698	28.1313	0.082013	0.000895	91.6716	114.669	-165.455	-0.060427	0.001568	-1.108480	-1.109664	0.026024	91.6716	-1.108693	-6.557643E+14	-3.968439E-17	NaN
10	1.000000	0.010729	7.36514e+06	-39139.1	955.818	-29795.6	0.000000	0.000000	6.010780	0.074547	NaN	0.000000	0.001661	0.001653	28.1307	0.074845	0.000932	80.2926	167.443	-168.988	0.060134	0.009393	-1.100503	-1.101839	0.074547	80.2926	-1.101199	-5.201896E+14	-1.433075E-16	NaN
10	1.000000	0.018716	7.36514e+06	-39139.1	955.818	-29795.6	0.000000	0.000000	6.018765	0.052991	NaN	0.000000	0.001649	0.001676	28.1303	0.057138	0.001694	33.7223	-10.692	-161.102	0.010326	0.017423	-1.092516	-1.093809	0.052991	33.7223	-1.093695	-4.124953E+14	-1.284639E-16	NaN
10	1.000000	0.026771	7.36514e+06	-39139.1	955.818	-29795.6	0.000000	0.000000	6.026818	0.010139	NaN	0.000000	0.001629	0.001661	28.1307	0.015792	0.001805	8.749389	30.5662	-162.828	0.067840	0.025432	-1.084461	-1.085800	0.010139	8.749389	-1.085330	-3.184977E+14	-3.183493E-17	NaN
10	1.000000	0.034692	7.36514e+06	-39139.1	955.819	-29795.6	0.000000	0.000000	6.034741	0.043689	NaN	0.000000	0.001615	0.001660	28.129	0.066504	0.001796	37.0268	-61.5912	-167.163	0.014474	0.033410	-1.076540	-1.077822	0.043689	37.0268	-1.077425	-2.494189E+14	-1.751635E-16	NaN
10	1.000000	0.042717	7.36514e+06	-39139.1	955.818	-29795.6	0.000000	0.000000	6.042767	0.070733	NaN	0.000000	0.001559	0.001675	28.1292	0.093500	0.001966	47.5678	32.1364	-165.848	0.161752	0.041429	-1.068515	-1.069804	0.070733	47.5678	-1.069630	-1.959841E+14	-3.609126E-16	NaN
10	1.000000	0.050722	7.36514e+06	-39139.1	955.818	-29795.6	0.000000	0.000000	6.050767	-0.061481	NaN	0.000000	0.001556	0.001658	28.1312	0.002007	0.001901	1.055465	162.075	-167.411	0.022885	0.049428	-1.060510	-1.061805	-0.061481	1.055465	-1.016822	-3.821152E+13	1.608958E-15	NaN
10	1.000000	0.058700	7.36514e+06	-39139.1	955.819	-29795.6	0.000000	0.000000	6.058746	-0.025622	NaN	0.000000	0.001555	0.001666	28.1309	0.057038	0.002031	28.0846	-123.359	-165.341	-0.018956	0.057414	-1.052532	-1.053818	-0.025622	28.0846	-1.051848	-1.130456E+14	2.266479E-16	NaN
10	1.000000	0.066715	7.36514e+06	-39139.1	955.819	-29795.6	0.000000	0.000000	6.066762	-0.019048	NaN	0.000000	0.001596	0.001661	28.1305	0.087543	0.002029	43.1413	150.993	-163.222	0.007453	0.065420	-1.044517	-1.045812	-0.019048	43.1413	-1.044186	-8.917550E+13	2.135992E-16	NaN
10	1.000000	0.074702	7.36514e+06	-39139.1	955.818	-29795.6	0.000000	0.000000	6.074750	0.030668	NaN	0.000000	0.001580	0.001692	28.1321	0.134851	0.001903	70.8447	128.394	-167.27	-0.003749	0.073451	-1.036530	-1.037781	0.030668	70.8447	-1.036855	-7.106813E+13	-4.315284E-16	NaN
10	1.000000	0.082705	7.36514e+06	-39139.1	955.817	-29795.6	0.000000	0.000000	6.082751	-0.034769	NaN	0.000000	0.001598	0.001658	28.1313	0.112242	0.002108	53.2557	33.7762	-169.831	-0.029465	0.081393	-1.028527	-1.029839	-0.034769	53.2557	-1.028037	-5.408487E+13	6.428590E-16	NaN
10	1.000000	0.090717	7.36514e+06	-39139.1	955.819	-29795.6	0.000000	0.000000	6.090762	-0.033025	NaN	0.000000	0.001580	0.001724	28.1318	0.091953	0.002143	42.9024	150.669	-167.494	-0.045520	0.089402	-1.020515	-1.021830	-0.033025	42.9024	-1.019938	-4.208424E+13	7.847387E-16	NaN
10	1.000000	0.098746	7.36514e+06	-39139.1	955.818	-29795.6	0.000000	0.000000	6.098793	-0.007073	NaN	0.000000	0.001574	0.001707	28.1321	0.090787	0.002125	42.7238	105.124	-162.512	-0.002214	0.097436	-1.012486	-1.013796	-0.007073	42.7238	-1.012362	-3.327882E+13	2.125405E-16	NaN
10	1.000000	0.106711	7.36514e+06	-39139.1	955.819	-29795.6	0.000000	0.000000	6.106761	0.079360	NaN	0.000000	0.001617	0.001690	28.1318	0.072743	0.002067	35.1909	139.769	-167.308	0.026935	0.105390	-1.004521	-1.005842	0.079360	35.1909	-1.006213	-2.750445E+13	-2.885334E-15	NaN
10	1.000000	0.114762	7.36514e+06	-39139.1	955.817	-29795.6	0.000000	0.000000	6.114808	-0.019668	NaN	0.000000	0.001575	0.001693	28.1308	0.086997	0.001890	46.0375	97.6514	-165.142	-0.020939	0.113448	-0.996470	-0.997784	-0.019668	46.0375	-0.996150	-2.013390E+13	9.768525E-16	NaN
10	1.000000	0.122742	7.36514e+06	-39139.1	955.819	-29795.6	0.000000	0.000000	6.122790	0.033112	NaN	0.000000	0.001601	0.001673	28.1306	0.131840	0.002011	65.552	-136.904	-163.517	0.035120	0.121387	-0.988490	-0.989845	0.033112	65.552	-0.988869	-1.606506E+13	-2.061097E-15	NaN
10	1.000000	0.130728	7.36514e+06	-39139.1	955.818	-29795.6	0.000000	0.000000	6.130778	0.063034	NaN	0.000000	0.001577	0.001712	28.131	0.088262	0.002167	40.7364	141.292	-164.253	0.049524	0.129435	-0.980504	-0.981797	0.063034	40.7364	-0.981664	-1.284797E+13	-4.906159E-15	NaN
10	1.000000	0.138729	7.36514e+06	-39139.1	955.818	-29795.6	0.000000	0.000000	6.138775	-0.013816	NaN	0.000000	0.001503	0.001694	28.1312	0.077546	0.002026	38.2762	170.355	-166.275	0.054056	0.137445	-0.972504	-0.973788	-0.013816	38.2762	-0.972233	-9.588567E+12	1.440890E-15	NaN
10	1.000000	0.146748	7.36514e+06	-39139.1	955.816	-29795.6	0.000000	0.000000	6.146798	0.076952	NaN	0.000000	0.001570	0.001686	28.1304	0.088882	0.002055	43.2453	-147.27	-161.968	0.006979	0.145495	-0.964485	-0.965737	0.076952	43.2453	-0.965819	-7.858014E+12	-9.792799E-15	NaN
10	1.000000	0.154733	7.36514e+06	-39139.1	955.819	-29795.6	0.000000	0.000000	6.154780	0.012744	NaN	0.000000	0.001558	0.001690	28.1321	0.008289	0.001945	4.261223	-112.509	-164.294	0.009445	0.153482	-0.956499	-0.957750	0.012744	4.261223	-0.958742	-6.308286E+12	-2.020239E-15	NaN
10	1.000000	0.162750	7.36514e+06	-39139.1	955.818	-29795.6	0.000000	0.000000	6.162797	-0.013000	NaN	0.000000	0.001551	0.001673	28.132	0.041889	0.002108	19.875	-17.3256	-165.621	0.024954	0.161482	-0.948482	-0.949750	-0.013000	19.875	-0.947991	-4.517912E+12	2.877347E-15	NaN
10	1.000000	0.170767	7.36514e+06	-39139.1	955.818	-29795.6	0.000000	0.000000	6.170814	0.012303	NaN	0.000000	0.001549	0.001650	28.132	0.131573	0.002114	62.2326	-104.537	-163.674	0.005464	0.169516	-0.940465	-0.941716	0.012303	62.2326	-0.940614	-3.592660E+12	-3.424594E-15	NaN
10	1.000000	0.178754	7.36514e+06	-39139.1	955.819	-29795.6	0.000000	0.000000	6.178801	0.012658	NaN	0.000000	0.001602	0.001666	28.1316	0.103706	0.001974	52.5412	-154.913	-165.1	0.009181	0.177415	-0.932478	-0.933817	0.012658	52.5412	-0.932659	-2.805980E+12	-4.511021E-15	NaN
10	1.000000	0.186736	7.36514e+06	-39139.1	955.819	-29795.6	0.000000	0.000000	6.186783	-0.001219	NaN	0.000000	0.001558	0.001689	28.1305	0.065116	0.002117	30.7659	-122.679	-169.829	-0.001254	0.185463	-0.924496	-0.925769	-0.001219	30.7659	-0.924466	-2.175196E+12	5.605336E-16	NaN
10	1.000000	0.194756	7.36514e+06	-39139.1	955.818	-29795.6	0.000000	0.000000	6.194803	0.006760	NaN	0.000000	0.001552	0.001637	28.1293	0.168999	0.002071	81.5877	36.0206	-164.777	-0.042535	0.193432	-0.916476	-0.917800	0.006760	81.5877	-0.916538	-1.700053E+12	-3.976402E-15	NaN
10	1.000000	0.202763	7.36514e+06	-39139.1	955.817	-29795.6	0.000000	0.000000	6.202811	0.037311	NaN	0.000000	0.001536	0.001663	28.1291	0.020780	0.002019	10.2945	19.2954	-169.123	0.036268	0.201420	-0.908469	-0.909812	0.037311	10.2945	-0.911188	-1.439476E+12	-2.591969E-14	NaN
10	1.000000	0.210767	7.36514e+06	-39139.1	955.818	-29795.6	0.000000	0.000000	6.210815	0.023875	NaN	0.000000	0.001541	0.001664	28.1292	0.023862	0.002040	11.6989	-68.239	-168.361	-0.043961	0.209492	-0.900465	-0.901740	0.023875	11.6989	-0.901996	-1.081517E+12	-2.207524E-14	NaN
10	1.000000	0.218780	7.36514e+06	-39139.1	955.818	-29795.6	0.000000	0.000000	6.218824	-0.063200	NaN	0.000000	0.001547	0.001695	28.1286	0.119624	0.001898	63.0132	-112.371	-168.748	-0.076931	0.217454	-0.892452	-0.893778	-0.063200	63.0132	-0.891700	-7.850517E+11	8.050417E-14	NaN
10	1.000000	0.226790	7.36514e+06	-39139.1	955.819	-29795.6	0.000000	0.000000	6.226838	0.013702	NaN	0.000000	0.001530	0.001642	28.1295	0.098857	0.001899	52.0666	63.7114	-165.722	-0.036022	0.225480	-0.884442	-0.885752	0.013702	52.0666	-0.884639	-6.301411E+11	-2.174355E-14	NaN
10	1.000000	0.234803	7.36514e+06	-39139.1	955.818	-29795.6	0.000000	0.000000	6.234851	0.036006	NaN	0.000000	0.001557	0.001666	28.1297	0.104407	0.002047	50.9992	-101.732	-164.022	-0.060953	0.233455	-0.876429	-0.877777	0.036006	50.9992	-0.876959	-4.961113E+11	-7.257649E-14	NaN
10	1.000000	0.242795	7.36514e+06	-39139.1	955.818	-29795.6	0.000000	0.000000	6.242842	-0.007806	NaN	0.000000	0.001605	0.001683	28.1304	0.037877	0.001995	18.9828	89.4733	-163.644	-0.054373	0.241490	-0.868437	-0.869742	-0.007806	18.9828	-0.868128	-3.768085E+11	2.071669E-14	NaN
10	1.000000	0.250772	7.36514e+06	-39139.1	955.818	-29795.6	0.000000	0.000000	6.250822	0.091802	NaN	0.000000	0.001557	0.001653	28.1306	0.041210	0.002032	20.28	152.241	-164.037	0.112819	0.249513	-0.860460	-0.861719	0.091802	20.28	-0.863855	-3.298386E+11	-2.783253E-13	NaN
10	1.000000	0.258808	7.36514e+06	-39139.1	955.818	-29795.6	0.000000	0.000000	6.258854	-0.023982	NaN	0.000000	0.001573	0.001640	28.1302	0.065495	0.001948	33.6206	-145.455	-168.826	-0.035593	0.257464	-0.852424	-0.853768	-0.023982	33.6206	-0.851889	-2.271526E+11	1.055752E-13	NaN
10	1.000000	0.266810	7.36514e+06	-39139.1	955.818	-29795.6	0.000000	0.000000	6.266860	0.076576	NaN	0.000000	0.001554	0.001678	28.1299	0.047587	0.001988	23.9369	-112.433	-169.057	0.130543	0.265478	-0.844422	-0.845754	0.076576	23.9369	-0.846822	-1.939529E+11	-3.948153E-13	NaN
10	1.000000	0.274791	7.36514e+06	-39139.1	955.818	-29795.6	0.000000	0.000000	6.274836	-0.049249	NaN	0.000000	0.001557	0.001671	28.1297	0.016525	0.001924	8.590028	104.648	-165.694	-0.043060	0.273441	-0.836441	-0.837791	-0.049249	8.590028	-0.832141	-1.226871E+11	4.014188E-13	NaN
10	1.000000	0.282797	7.36514e+06	-39139.1	955.818	-29795.6	0.000000	0.000000	6.282845	0.022230	NaN	0.000000	0.001511	0.001666	28.1293	0.057157	0.002101	27.203	-31.8981	-163.831	0.061650	0.281534	-0.828435	-0.829698	0.022230	27.203	-0.829048	-1.113996E+11	-1.995551E-13	NaN
10	1.000000	0.290825	7.36514e+06	-39139.1	955.819	-29795.6	0.000000	0.000000	6.290871	-0.042758	NaN	0.000000	0.001543	0.001606	28.1287	0.059607	0.002070	28.7983	-131.284	-165.92	-0.027317	0.289489	-0.820407	-0.821743	-0.042758	28.7983	-0.819293	-8.215323E+10	5.204717E-13	NaN
10	1.000000	0.298781	7.36514e+06	-39139.1	955.817	-29795.6	0.000000	0.000000	6.298829	0.018101	NaN	0.000000	0.001541	0.001634	28.1292	0.135790	0.001956	69.4209	-156.388	-168.533	0.028463	0.297476	-0.812451	-0.813756	0.018101	69.4209	-0.812647	-6.675371E+10	-2.711574E-13	NaN
10	1.000000	0.306814	7.36514e+06	-39139.1	955.818	-29795.6	0.000000	0.000000	6.306861	0.003195	NaN	0.000000	0.001566	0.001628	28.1288	0.091929	0.002016	45.6091	43.6639	-164.897	-0.072979	0.305508	-0.804418	-0.805725	0.003195	45.6091	-0.804471	-5.170668E+10	-6.179686E-14	NaN
10	1.000000	0.314841	7.36514e+06	-39139.1	955.818	-29795.6	0.000000	0.000000	6.314891	0.070447	NaN	0.000000	0.001505	0.001633	28.1309	0.022119	0.002006	11.0264	95.7382	-166.613	0.138594	0.313492	-0.796391	-0.797740	0.070447	11.0264	-0.801183	-4.665678E+10	-1.509894E-12	NaN
10	1.000000	0.322850	7.36514e+06	-39139.1	955.819	-29795.6	0.000000	0.000000	6.322896	-0.027445	NaN	0.000000	0.001541	0.001647	28.1312	0.032435	0.001877	17.2787	120.295	-163.803	-0.013480	0.321500	-0.788382	-0.789732	-0.027445	17.2787	-0.787191	-3.012492E+10	9.110482E-13	NaN
10	1.000000	0.330828	7.36514e+06	-39139.1	955.818	-29795.6	0.000000	0.000000	6.330876	0.032370	NaN	0.000000	0.001530	0.001658	28.1313	0.068872	0.001948	35.3603	-160.468	-165.327	0.125085	0.329454	-0.780405	-0.781778	0.032370	35.3603	-0.781091	-2.489190E+10	-1.300410E-12	NaN
10	1.000000	0.338815	7.36514e+06	-39139.1	955.818	-29795.6	0.000000	0.000000	6.338864	0.054679	NaN	0.000000	0.001511	0.001668	28.1318	0.023000	0.002044	11.2522	97.3819	-167.032	0.032666	0.337552	-0.772418	-0.773680	0.054679	11.2522	-0.776062	-2.126743E+10	-2.571034E-12	NaN
10	1.000000	0.346833	7.36514e+06	-39139.1	955.818	-29795.6	0.000000	0.000000	6.346876	-0.112099	NaN	0.000000	0.001528	0.001656	28.1309	0.031440	0.002067	15.2135	137.996	-166.057	-0.153627	0.345541	-0.764399	-0.765691	-0.112099	15.2135	-0.758873	-1.241555E+10	9.028934E-12	NaN
10	1.000000	0.354834	7.36514e+06	-39139.1	955.818	-29795.6	0.000000	0.000000	6.354882	0.020183	NaN	0.000000	0.001570	0.001647	28.1299	0.034072	0.001939	17.5766	-146.069	-166.192	0.067888	0.353528	-0.756398	-0.757704	0.020183	17.5766	-0.757259	-1.180346E+10	-1.709890E-12	NaN
10	1.000000	0.362841	7.36514e+06	-39139.1	955.818	-29795.6	0.000000	0.000000	6.362887	-0.033582	NaN	0.000000	0.001538	0.001633	28.1302	0.034377	0.001964	17.5042	179.063	-168.081	-0.035469	0.361532	-0.748391	-0.749700	-0.033582	17.5042	-0.746952	-8.545354E+9	3.929891E-12	NaN
10	1.000000	0.370829	7.36514e+06	-39139.1	955.819	-29795.6	0.000000	0.000000	6.370878	0.032302	NaN	0.000000	0.001595	0.001647	28.13	0.081164	0.002028	40.0265	-120.01	-169.141	0.029890	0.369509	-0.740403	-0.741723	0.032302	40.0265	-0.741008	-7.092262E+9	-4.554557E-12	NaN
10	1.000000	0.378829	7.36514e+06	-39139.1	955.819	-29795.6	0.000000	0.000000	6.378877	0.003149	NaN	0.000000	0.001579	0.001677	28.13	0.032876	0.002073	15.8617	-29.9324	-167.298	0.108422	0.377528	-0.732403	-0.733704	0.003149	15.8617	-0.732552	-5.439783E+9	-5.789121E-13	NaN
10	1.000000	0.386855	7.36514e+06	-39139.1	955.819	-29795.6	0.000000	0.000000	6.386901	-0.016491	NaN	0.000000	0.001589	0.001698	28.1296	0.097033	0.002023	47.9715	-168.557	-164.499	-0.105984	0.385504	-0.724377	-0.725728	-0.016491	47.9715	-0.724119	-4.174858E+9	3.950035E-12	NaN
10	1.000000	0.394848	7.36514e+06	-39139.1	955.819	-29795.6	0.000000	0.000000	6.394897	0.046684	NaN	0.000000	0.001554	0.001686	28.1309	0.110076	0.001924	57.2035	-152.932	-167.871	0.038613	0.393548	-0.716384	-0.717684	0.046684	57.2035	-0.716996	-3.338105E+9	-1.398510E-11	NaN
10	1.000000	0.402868	7.36514e+06	-39139.1	955.82	-29795.6	0.000000	0.000000	6.402913	-0.046996	NaN	0.000000	0.001558	0.001678	28.131	0.027475	0.001954	14.0636	116.498	-165.863	-0.029673	0.401554	-0.708364	-0.709678	-0.046996	14.0636	-0.705858	-2.352391E+9	1.997817E-11	NaN
10	1.000000	0.410880	7.36514e+06	-39139.1	955.818	-29795.6	0.000000	0.000000	6.410929	0.050125	NaN	0.000000	0.001572	0.001684	28.1315	0.025076	0.002051	12.227	153.567	-168.582	0.000134	0.409519	-0.700352	-0.701713	0.050125	12.227	-0.703427	-2.179353E+9	-2.299977E-11	NaN
10	1.000000	0.418891	7.36514e+06	-39139.1	955.818	-29795.6	0.000000	0.000000	6.418938	-0.009663	NaN	0.000000	0.001566	0.001667	28.1309	0.073273	0.002025	36.1892	47.4505	-165.484	0.088020	0.417562	-0.692341	-0.693670	-0.009663	36.1892	-0.692141	-1.528175E+9	6.323078E-12	NaN
10	1.000000	0.426847	7.36514e+06	-39139.1	955.818	-29795.6	0.000000	0.000000	6.426895	0.026298	NaN	0.000000	0.001535	0.001695	28.1304	0.059760	0.002015	29.6549	-179.072	-166.409	0.003155	0.425534	-0.684385	-0.685698	0.026298	29.6549	-0.685050	-1.222541E+9	-2.151073E-11	NaN
10	1.000000	0.434869	7.36514e+06	-39139.1	955.818	-29795.6	0.000000	0.000000	6.434918	0.051473	NaN	0.000000	0.001577	0.001690	28.1295	0.089943	0.002036	44.1869	-85.2003	-166.388	0.067154	0.433562	-0.676363	-0.677670	0.051473	44.1869	-0.677236	-9.558870E+8	-5.384796E-11	NaN
10	1.000000	0.442912	7.36514e+06	-39139.1	955.818	-29795.6	0.000000	0.000000	6.442958	-0.025332	NaN	0.000000	0.001565	0.001665	28.1294	0.121322	0.002061	58.8759	161.344	-167.18	0.003523	0.441554	-0.668321	-0.669678	-0.025332	58.8759	-0.667998	-7.144715E+8	3.545498E-11	NaN
10	1.000000	0.450897	7.36514e+06	-39139.1	955.819	-29795.6	0.000000	0.000000	6.450944	0.011827	NaN	0.000000	0.001583	0.001694	28.1292	0.062000	0.001868	33.1948	41.7696	-166.111	-0.013557	0.449540	-0.660336	-0.661692	0.011827	33.1948	-0.660603	-5.658810E+8	-2.090102E-11	NaN
10	1.000000	0.458864	7.36514e+06	-39139.1	955.819	-29795.6	0.000000	0.000000	6.458914	0.063875	NaN	0.000000	0.001567	0.001683	28.1281	0.006483	0.002010	3.225497	-6.263520	-165.253	0.104974	0.457582	-0.652368	-0.653650	0.063875	3.225497	-0.667220	-6.971747E+8	-9.161937E-11	NaN
10	1.000000	0.466885	7.36514e+06	-39139.1	955.818	-29795.6	0.000000	0.000000	6.466934	0.057216	NaN	0.000000	0.001564	0.001657	28.1281	0.051427	0.002020	25.4576	-37.8854	-166.371	0.072969	0.465564	-0.644347	-0.645668	0.057216	25.4576	-0.646033	-3.573094E+8	-1.601291E-10	NaN
10	1.000000	0.474869	7.36514e+06	-39139.1	955.819	-29795.6	0.000000	0.000000	6.474917	0.026784	NaN	0.000000	0.001584	0.001687	28.129	0.086354	0.001894	45.584	36.7485	-164.832	-0.052344	0.473583	-0.636363	-0.637649	0.026784	45.584	-0.636804	-2.669494E+8	-1.003322E-10	NaN
10	1.000000	0.482918	7.36514e+06	-39139.1	955.818	-29795.6	0.000000	0.000000	6.482964	-0.016840	NaN	0.000000	0.001545	0.001674	28.1301	0.031205	0.001961	15.9143	-111.339	-162.923	0.005073	0.481536	-0.628314	-0.629696	-0.016840	15.9143	-0.627520	-1.990531E+8	8.459943E-11	NaN
10	1.000000	0.490900	7.36514e+06	-39139.1	955.818	-29795.6	0.000000	0.000000	6.490949	0.043273	NaN	0.000000	0.001541	0.001696	28.1291	0.125902	0.001926	65.3538	-77.0539	-163.372	-0.034487	0.489536	-0.620332	-0.621696	0.043273	65.3538	-0.620829	-1.610735E+8	-2.686536E-10	NaN
10	1.000000	0.498904	7.36514e+06	-39139.1	955.819	-29795.6	0.000000	0.000000	6.498953	0.046222	NaN	0.000000	0.001561	0.001681	28.1291	0.061357	0.002078	29.521	171.387	-163.837	0.012175	0.497600	-0.612328	-0.613632	0.046222	29.521	-0.613502	-1.277294E+8	-3.618706E-10	NaN
10	1.000000	0.506908	7.36514e+06	-39139.1	955.817	-29795.6	0.000000	0.000000	6.506955	0.016247	NaN	0.000000	0.001570	0.001699	28.1289	0.058599	0.002012	29.1275	-146.246	-166.317	0.004477	0.505532	-0.604324	-0.605700	0.016247	29.1275	-0.604743	-9.677484E+7	-1.678820E-10	NaN
10	1.000000	0.514867	7.36514e+06	-39139.1	955.818	-29795.6	0.000000	0.000000	6.514914	-0.001348	NaN	0.000000	0.001567	0.001672	28.128	0.072995	0.001939	37.6384	74.9163	-166.052	-0.070597	0.513559	-0.596365	-0.597673	-0.001348	37.6384	-0.596338	-7.413393E+7	1.818940E-11	NaN
10	1.000000	0.522918	7.36514e+06	-39139.1	955.818	-29795.6	0.000000	0.000000	6.522966	0.010276	NaN	0.000000	0.001536	0.001646	28.1285	0.078141	0.001989	39.2932	152.472	-168.165	0.018615	0.521609	-0.588314	-0.589623	0.010276	39.2932	-0.588510	-5.782578E+7	-1.777109E-10	NaN
10	1.000000	0.530894	7.36514e+06	-39139.1	955.819	-29795.6	0.000000	0.000000	6.530942	0.013121	NaN	0.000000	0.001543	0.001630	28.128	0.012899	0.002064	6.250537	87.6384	-164.583	-0.011520	0.529639	-0.580338	-0.581593	0.013121	6.250537	-0.581912	-4.689340E+7	-2.797997E-10	NaN
10	1.000000	0.538923	7.36514e+06	-39139.1	955.818	-29795.6	0.000000	0.000000	6.538969	-0.024650	NaN	0.000000	0.001559	0.001652	28.1278	0.077127	0.002091	36.8877	87.1687	-164.929	-0.006063	0.537618	-0.572309	-0.573614	-0.024650	36.8877	-0.571808	-3.401054E+7	7.247823E-10	NaN
10	1.000000	0.546932	7.36514e+06	-39139.1	955.817	-29795.6	0.000000	0.000000	6.546980	0.010584	NaN	0.000000	0.001551	0.001702	28.1279	0.102867	0.001956	52.6	87.3457	-166.494	-0.027660	0.545597	-0.564300	-0.565635	0.010584	52.6	-0.564451	-2.691125E+7	-3.933027E-10	NaN
10	1.000000	0.554921	7.36514e+06	-39139.1	955.818	-29795.6	0.000000	0.000000	6.554968	-0.001412	NaN	0.000000	0.001554	0.001674	28.129	0.060999	0.001982	30.7823	152.349	-166.078	0.074247	0.553639	-0.556311	-0.557593	-0.001412	30.7823	-0.556277	-2.074247E+7	6.807533E-11	NaN
10	1.000000	0.562949	7.36514e+06	-39139.1	955.819	-29795.6	0.000000	0.000000	6.562999	0.074677	NaN	0.000000	0.001549	0.001701	28.1292	0.055171	0.002066	26.7018	-89.2219	-163.707	-0.005332	0.561594	-0.548283	-0.549639	0.074677	26.7018	-0.550381	-1.718818E+7	-4.344642E-9	NaN
10	1.000000	0.570955	7.36514e+06	-39139.1	955.819	-29795.6	0.000000	0.000000	6.571000	-0.039427	NaN	0.000000	0.001595	0.001693	28.1288	0.051261	0.002002	25.602	-118.84	-167.268	-0.015278	0.569642	-0.540277	-0.541590	-0.039427	25.602	-0.539122	-1.200003E+7	3.285557E-9	NaN
10	1.000000	0.578931	7.36514e+06	-39139.1	955.818	-29795.6	0.000000	0.000000	6.578976	-0.048666	NaN	0.000000	0.001590	0.001644	28.129	0.057992	0.002025	28.6432	114.091	-164.581	-0.017781	0.577624	-0.532301	-0.533608	-0.048666	28.6432	-0.531027	-9.26481e+06	5.252757E-9	NaN
10	1.000000	0.586951	7.36514e+06	-39139.1	955.817	-29795.6	0.000000	0.000000	6.587001	0.064634	NaN	0.000000	0.001592	0.001648	28.1291	0.057601	0.001959	29.4001	70.2786	-166.336	0.100454	0.585626	-0.524281	-0.525606	0.064634	29.4001	-0.525930	-7.87104e+06	-8.211566E-9	NaN
10	1.000000	0.594922	7.36514e+06	-39139.1	955.818	-29795.6	0.000000	0.000000	6.594967	-0.036274	NaN	0.000000	0.001580	0.001669	28.1292	0.123736	0.002003	61.7727	-77.1983	-167.215	-0.025307	0.593574	-0.516310	-0.517658	-0.036274	61.7727	-0.515870	-5.70346e+06	6.359978E-9	NaN
10	1.000000	0.602941	7.36514e+06	-39139.1	955.818	-29795.6	0.000000	0.000000	6.602991	0.079534	NaN	0.000000	0.001532	0.001630	28.1291	0.017719	0.001896	9.344603	-75.3159	-167.656	0.058172	0.601650	-0.508291	-0.509582	0.079534	9.344603	-0.514675	-5.48917e+06	-1.448930E-8	NaN
10	1.000000	0.610950	7.36514e+06	-39139.1	955.818	-29795.6	0.000000	0.000000	6.610997	-0.003062	NaN	0.000000	0.001565	0.001617	28.1288	0.010924	0.002067	5.284025	-114.099	-166.102	-0.033996	0.609638	-0.500282	-0.501594	-0.003062	5.284025	-0.499848	-3.41109e+06	8.976465E-10	NaN
10	1.000000	0.618964	7.36514e+06	-39139.1	955.819	-29795.6	0.000000	0.000000	6.619010	-0.011453	NaN	0.000000	0.001519	0.001619	28.1288	0.042813	0.002042	20.9636	147.965	-164.534	-0.042442	0.617625	-0.492268	-0.493607	-0.011453	20.9636	-0.491858	-2.63851e+06	4.340819E-9	NaN
10	1.000000	0.626921	7.36514e+06	-39139.1	955.818	-29795.6	0.000000	0.000000	6.626966	-0.063481	NaN	0.000000	0.001570	0.001632	28.1295	0.018244	0.002036	8.960465	44.8138	-169.221	-0.074085	0.625594	-0.484311	-0.485638	-0.063481	8.960465	-0.478997	-1.74378e+06	3.640427E-8	NaN
10	1.000000	0.634968	7.36514e+06	-39139.1	955.819	-29795.6	0.000000	0.000000	6.635016	0.044729	NaN	0.000000	0.001573	0.001603	28.1297	0.031949	0.001944	16.4318	-57.6051	-164.566	0.002627	0.633629	-0.476264	-0.477603	0.044729	16.4318	-0.478306	-1.70534e+06	-2.622900E-8	NaN
10	1.000000	0.642960	7.36514e+06	-39139.1	955.818	-29795.6	0.000000	0.000000	6.643009	0.050268	NaN	0.000000	0.001613	0.001629	28.13	0.062152	0.002046	30.3709	119.899	-165.044	0.019830	0.641676	-0.468272	-0.469556	0.050268	30.3709	-0.469514	-1.28406e+06	-3.914816E-8	NaN
10	1.000000	0.650954	7.36514e+06	-39139.1	955.818	-29795.6	0.000000	0.000000	6.651001	0.014455	NaN	0.000000	0.001650	0.001610	28.1301	0.054165	0.002076	26.0893	-161.093	-164.679	-0.107538	0.649669	-0.460278	-0.461563	0.014455	26.0893	-0.460694	-965540	-1.497132E-8	NaN
10	1.000000	0.658984	7.36514e+06	-39139.1	955.818	-29795.6	0.000000	0.000000	6.659031	-0.011680	NaN	0.000000	0.001637	0.001649	28.1297	0.132127	0.001964	67.2817	-142.34	-167.159	-0.000714	0.657637	-0.452248	-0.453595	-0.011680	67.2817	-0.452118	-731408	1.596931E-8	NaN
10	1.000000	0.666946	7.36514e+06	-39139.1	955.819	-29795.6	0.000000	0.000000	6.666994	0.036708	NaN	0.000000	0.001620	0.001633	28.1299	0.016309	0.001992	8.188252	-156.998	-165.325	0.129519	0.665718	-0.444287	-0.445514	0.036708	8.188252	-0.447649	-632738	-5.801461E-8	NaN
10	1.000000	0.675010	7.36514e+06	-39139.1	955.818	-29795.6	0.000000	0.000000	6.675057	-0.002624	NaN	0.000000	0.001654	0.001648	28.1287	0.041388	0.002036	20.3261	-144.463	-164.349	-0.004232	0.673629	-0.436222	-0.437604	-0.002624	20.3261	-0.436125	-435160	6.030413E-9	NaN
10	1.000000	0.682973	7.36514e+06	-39139.1	955.819	-29795.6	0.000000	0.000000	6.683018	-0.036744	NaN	0.000000	0.001655	0.001641	28.1286	0.124115	0.002121	58.5253	-138.107	-162.936	-0.037448	0.681715	-0.428259	-0.429517	-0.036744	58.5253	-0.427789	-331717	1.107686E-7	NaN
10	1.000000	0.690983	7.36514e+06	-39139.1	955.818	-29795.6	0.000000	0.000000	6.691029	-0.027296	NaN	0.000000	0.001650	0.001635	28.1286	0.059099	0.002132	27.7143	-41.5964	-168.629	0.042415	0.689691	-0.420249	-0.421541	-0.027296	27.7143	-0.419510	-253204	1.078038E-7	NaN
10	1.000000	0.698973	7.36514e+06	-39139.1	955.819	-29795.6	0.000000	0.000000	6.699023	0.053933	NaN	0.000000	0.001627	0.001658	28.1284	0.057996	0.002057	28.2008	-157.81	-168.027	0.017425	0.697666	-0.412259	-0.413566	0.053933	28.2008	-0.413693	-209358	-2.576118E-7	NaN
10	1.000000	0.707002	7.36514e+06	-39139.1	955.818	-29795.6	0.000000	0.000000	6.707050	0.043597	NaN	0.000000	0.001620	0.001666	28.1287	0.034012	0.002004	16.969	12.4725	-163.99	0.033856	0.705661	-0.404231	-0.405571	0.043597	16.969	-0.406157	-163579	-2.665190E-7	NaN
10	1.000000	0.714969	7.36514e+06	-39139.1	955.818	-29795.6	0.000000	0.000000	6.715017	0.020769	NaN	0.000000	0.001582	0.001696	28.1292	0.019188	0.002080	9.227030	-110.948	-165.958	0.074451	0.713725	-0.396263	-0.397507	0.020769	9.227030	-0.397951	-124958	-1.662048E-7	NaN
10	1.000000	0.722992	7.36514e+06	-39139.1	955.818	-29795.6	0.000000	0.000000	6.723039	-0.013486	NaN	0.000000	0.001567	0.001700	28.1295	0.059601	0.001986	30.0149	-71.9472	-164.562	0.040617	0.721677	-0.388240	-0.389555	-0.013486	30.0149	-0.387903	-89775.1	1.502210E-7	NaN
10	1.000000	0.731018	7.36514e+06	-39139.1	955.818	-29795.6	0.000000	0.000000	6.731066	0.020758	NaN	0.000000	0.001552	0.001669	28.1282	0.065097	0.002064	31.5396	124.97	-164.492	-0.014356	0.729711	-0.380214	-0.381521	0.020758	31.5396	-0.380708	-70801.9	-2.931848E-7	NaN
10	1.000000	0.739003	7.36514e+06	-39139.1	955.819	-29795.6	0.000000	0.000000	6.739053	0.056177	NaN	0.000000	0.001531	0.001636	28.1284	0.110287	0.001898	58.102	81.9981	-163.667	0.010913	0.737647	-0.372229	-0.373585	0.056177	58.102	-0.372954	-54782.8	-1.025455E-6	NaN
10	1.000000	0.747033	7.36514e+06	-39139.1	955.818	-29795.6	0.000000	0.000000	6.747077	-0.076254	NaN	0.000000	0.001590	0.001653	28.1282	0.036868	0.002081	17.7127	-98.6119	-170.754	-0.054566	0.745726	-0.364199	-0.365506	-0.076254	17.7127	-0.360970	-36801.8	2.072026E-6	NaN
10	1.000000	0.754997	7.36514e+06	-39139.1	955.818	-29795.6	0.000000	0.000000	6.755046	0.043743	NaN	0.000000	0.001560	0.001677	28.1275	0.038858	0.002068	18.7936	78.1	-167.748	0.018024	0.753714	-0.356235	-0.357518	0.043743	18.7936	-0.357981	-33315.5	-1.312993E-6	NaN
10	1.000000	0.763023	7.36514e+06	-39139.1	955.818	-29795.6	0.000000	0.000000	6.763070	0.002433	NaN	0.000000	0.001562	0.001658	28.1272	0.041868	0.002010	20.8251	172.79	-167.042	0.015454	0.761706	-0.348209	-0.349526	0.002433	20.8251	-0.348297	-24114.3	-1.008864E-7	NaN
10	1.000000	0.771010	7.36514e+06	-39139.1	955.819	-29795.6	0.000000	0.000000	6.771058	0.024428	NaN	0.000000	0.001532	0.001662	28.1272	0.051344	0.002099	24.456	-155.883	-162.953	0.000453	0.769701	-0.340222	-0.341531	0.024428	24.456	-0.340971	-18867.1	-1.294721E-6	NaN
10	1.000000	0.779045	7.36514e+06	-39139.1	955.818	-29795.6	0.000000	0.000000	6.779092	0.000297	NaN	0.000000	0.001549	0.001654	28.1269	0.087090	0.001856	46.9151	176.189	-170.666	0.075103	0.777711	-0.332187	-0.333521	0.000297	46.9151	-0.332192	-14045.3	-2.114732E-8	NaN
10	1.000000	0.787004	7.36514e+06	-39139.1	955.818	-29795.6	0.000000	0.000000	6.787053	0.047564	NaN	0.000000	0.001597	0.001647	28.1267	0.053932	0.001996	27.0243	104.395	-165.119	0.038950	0.785670	-0.324228	-0.325562	0.047564	27.0243	-0.325548	-11224.9	-4.237407E-6	NaN
10	1.000000	0.795020	7.36514e+06	-39139.1	955.818	-29795.6	0.000000	0.000000	6.795069	0.060208	NaN	0.000000	0.001664	0.001663	28.1278	0.063259	0.001983	31.9019	-27.4746	-165.374	0.046481	0.793743	-0.316213	-0.317489	0.060208	31.9019	-0.317628	-8584.28	-7.013748E-6	NaN
10	1.000000	0.803045	7.36514e+06	-39139.1	955.818	-29795.6	0.000000	0.000000	6.803092	-0.001004	NaN	0.000000	0.001648	0.001677	28.1282	0.033778	0.002001	16.8786	170.485	-167.067	-0.007382	0.801738	-0.308187	-0.309494	-0.001004	16.8786	-0.308143	-6216.64	1.614902E-7	NaN
10	1.000000	0.811012	7.36514e+06	-39139.1	955.818	-29795.6	0.000000	0.000000	6.811060	0.021151	NaN	0.000000	0.001634	0.001689	28.1287	0.043560	0.001990	21.8848	-124.972	-168.567	-0.010294	0.809755	-0.300220	-0.301477	0.021151	21.8848	-0.300944	-4860.62	-4.351551E-6	NaN
10	1.000000	0.819044	7.36514e+06	-39139.1	955.818	-29795.6	0.000000	0.000000	6.819094	0.078805	NaN	0.000000	0.001628	0.001662	28.1281	0.068774	0.002054	33.4782	175.671	-167.268	0.038497	0.817697	-0.292188	-0.293535	0.078805	33.4782	-0.293953	-3823.45	-2.061111E-5	NaN
10	1.000000	0.827034	7.36514e+06	-39139.1	955.819	-29795.6	0.000000	0.000000	6.827081	0.009495	NaN	0.000000	0.001603	0.001675	28.128	0.042004	0.002008	20.9228	131.328	-167.187	0.056709	0.825720	-0.284198	-0.285512	0.009495	20.9228	-0.284539	-2762.69	-3.436734E-6	NaN
10	1.000000	0.835022	7.36514e+06	-39139.1	955.818	-29795.6	0.000000	0.000000	6.835069	-0.003427	NaN	0.000000	0.001655	0.001705	28.127	0.018427	0.002069	8.905790	121.335	-166.463	0.073243	0.833705	-0.276210	-0.277527	-0.003427	8.905790	-0.275921	-2048.09	1.673436E-6	NaN
10	1.000000	0.843055	7.36514e+06	-39139.1	955.818	-29795.6	0.000000	0.000000	6.843104	0.031578	NaN	0.000000	0.001630	0.001655	28.1272	0.031163	0.002113	14.7509	23.4124	-166.909	0.039339	0.841747	-0.268177	-0.269485	0.031578	14.7509	-0.269782	-1652.85	-1.910499E-5	NaN
10	1.000000	0.851034	7.36514e+06	-39139.1	955.819	-29795.6	0.000000	0.000000	6.851080	-0.015406	NaN	0.000000	0.001650	0.001679	28.1275	0.035573	0.002037	17.4615	148.434	-165.782	-0.020639	0.849698	-0.260199	-0.261534	-0.015406	17.4615	-0.259537	-1152.97	1.336211E-5	NaN
10	1.000000	0.859069	7.36514e+06	-39139.1	955.819	-29795.6	0.000000	0.000000	6.859116	-0.010842	NaN	0.000000	0.001643	0.001692	28.1267	0.066018	0.001973	33.4605	-66.6151	-164.718	0.026990	0.857771	-0.252163	-0.253461	-0.010842	33.4605	-0.251920	-880.306	1.231658E-5	NaN
10	1.000000	0.867064	7.36514e+06	-39139.1	955.818	-29795.6	0.000000	0.000000	6.867112	0.015515	NaN	0.000000	0.001635	0.001686	28.1278	0.048102	0.001924	25.0073	124.581	-163.339	-0.029693	0.865715	-0.244168	-0.245517	0.015515	25.0073	-0.244633	-678.821	-2.285623E-5	NaN
10	1.000000	0.875051	7.36514e+06	-39139.1	955.818	-29795.6	0.000000	0.000000	6.875100	0.059150	NaN	0.000000	0.001599	0.001719	28.1295	0.059135	0.001966	30.0783	120.629	-163.324	0.073218	0.873744	-0.236181	-0.237489	0.059150	30.0783	-0.237656	-528.318	-0.000112	NaN
10	1.000000	0.883064	7.36514e+06	-39139.1	955.818	-29795.6	0.000000	0.000000	6.883111	0.003846	NaN	0.000000	0.001599	0.001704	28.1288	0.049124	0.001954	25.1434	-127.86	-165.989	-0.029362	0.881768	-0.228168	-0.229464	0.003846	25.1434	-0.228283	-376.165	-1.022440E-5	NaN
10	1.000000	0.891059	7.36514e+06	-39139.1	955.819	-29795.6	0.000000	0.000000	6.891105	-0.028936	NaN	0.000000	0.001650	0.001659	28.1289	0.108313	0.002005	54.0285	-128.227	-165.302	-0.081327	0.889740	-0.220173	-0.221493	-0.028936	54.0285	-0.219771	-275.438	0.000105	NaN
10	1.000000	0.899067	7.36514e+06	-39139.1	955.818	-29795.6	0.000000	0.000000	6.899116	0.033903	NaN	0.000000	0.001634	0.001703	28.129	0.027943	0.002001	13.9645	-26.9744	-162.704	-0.012833	0.897797	-0.212165	-0.213435	0.033903	13.9645	-0.213986	-222.427	-0.000152	NaN
10	1.000000	0.907067	7.36514e+06	-39139.1	955.818	-29795.6	0.000000	0.000000	6.907115	0.020179	NaN	0.000000	0.001592	0.001717	28.1288	0.149161	0.002041	73.0978	42.178	-165.297	-0.058560	0.905768	-0.204165	-0.205464	0.020179	73.0978	-0.204372	-155.35	-0.000130	NaN
10	1.000000	0.915098	7.36514e+06	-39139.1	955.818	-29795.6	0.000000	0.000000	6.915145	-0.005103	NaN	0.000000	0.001584	0.001695	28.1285	0.132240	0.002039	64.8656	7.046499	-167.628	-0.011864	0.913722	-0.196134	-0.197510	-0.005103	64.8656	-0.196075	-113.501	4.495967E-5	NaN
10	1.000000	0.923091	7.36514e+06	-39139.1	955.818	-29795.6	0.000000	0.000000	6.923140	0.028188	NaN	0.000000	0.001599	0.001693	28.1282	0.146989	0.002059	71.3874	117.481	-161.689	0.044538	0.921757	-0.188141	-0.189475	0.028188	71.3874	-0.188437	-84.6993	-0.000333	NaN
10	1.000000	0.931079	7.36514e+06	-39139.1	955.819	-29795.6	0.000000	0.000000	6.931128	0.047780	NaN	0.000000	0.001578	0.001698	28.1279	0.044367	0.002053	21.6089	117.93	-167.365	0.017093	0.929775	-0.180153	-0.181457	0.047780	21.6089	-0.181812	-65.499	-0.000729	NaN
10	1.000000	0.939092	7.36514e+06	-39139.1	955.819	-29795.6	0.000000	0.000000	6.939141	0.052738	NaN	0.000000	0.001593	0.001675	28.1274	0.054036	0.001890	28.5948	-114.923	-166.34	0.017196	0.937726	-0.172140	-0.173506	0.052738	28.5948	-0.173523	-47.2681	-0.001116	NaN
10	1.000000	0.947087	7.36514e+06	-39139.1	955.819	-29795.6	0.000000	0.000000	6.947133	-0.023432	NaN	0.000000	0.001625	0.001682	28.1283	0.120385	0.002066	58.2592	61.202	-163.221	0.030907	0.945750	-0.164145	-0.165482	-0.023432	58.2592	-0.163843	-32.0599	0.000731	NaN
10	1.000000	0.955090	7.36514e+06	-39139.1	955.818	-29795.6	0.000000	0.000000	6.955136	-0.018343	NaN	0.000000	0.001623	0.001654	28.1295	0.076658	0.002066	37.1058	41.2705	-167.198	-0.021036	0.953747	-0.156143	-0.157485	-0.018343	37.1058	-0.155772	-23.0385	0.000796	NaN
10	1.000000	0.963089	7.36514e+06	-39139.1	955.818	-29795.6	0.000000	0.000000	6.963137	0.026379	NaN	0.000000	0.001618	0.001668	28.129	0.061967	0.002023	30.6348	69.5011	-167.591	0.087109	0.961718	-0.148143	-0.149514	0.026379	30.6348	-0.148789	-17.214	-0.001532	NaN
10	1.000000	0.971097	7.36514e+06	-39139.1	955.817	-29795.6	0.000000	0.000000	6.971144	-0.007381	NaN	0.000000	0.001595	0.001682	28.1293	0.052984	0.001933	27.4117	-12.9896	-162.734	-0.016599	0.969751	-0.140135	-0.141481	-0.007381	27.4117	-0.139933	-11.7951	0.000626	NaN
10	1.000000	0.979083	7.36514e+06	-39139.1	955.817	-29795.6	0.000000	0.000000	6.979130	0.008095	NaN	0.000000	0.001605	0.001685	28.1287	0.046649	0.001992	23.4209	-142.517	-166.331	-0.004342	0.977787	-0.132149	-0.133445	0.008095	23.4209	-0.132409	-8.483995	-0.000954	NaN
10	1.000000	0.987097	7.36514e+06	-39139.1	955.818	-29795.6	0.000000	0.000000	6.987145	0.019580	NaN	0.000000	0.001618	0.001728	28.1292	0.021802	0.002002	10.8906	29.147	-167.419	0.010072	0.985801	-0.124135	-0.125432	0.019580	10.8906	-0.125483	-6.216450	-0.003150	NaN
10	1.000000	0.995124	7.36514e+06	-39139.1	955.818	-29795.6	0.000000	0.000000	6.995173	0.030488	NaN	0.000000	0.001604	0.001683	28.1278	0.172114	0.001915	89.8766	-137.227	-168.638	0.043446	0.993748	-0.116108	-0.117484	0.030488	89.8766	-0.116362	-4.074749	-0.007482	NaN
10	1.000000	1.003144	7.36514e+06	-39139.1	955.816	-29795.6	0.000000	0.000000	7.003188	-0.060156	NaN	0.000000	0.001633	0.001674	28.1263	0.069953	0.002123	32.9449	-31.2535	-164.563	0.028233	1.001802	-0.108088	-0.109430	-0.060156	32.9449	-0.106719	-2.559440	0.023504	NaN
10	1.000000	1.011127	7.36514e+06	-39139.1	955.818	-29795.6	0.000000	0.000000	7.011174	0.009478	NaN	0.000000	0.001634	0.001697	28.1265	0.112265	0.002240	50.1249	-158.543	-165.949	-0.038468	1.009780	-0.100105	-0.101452	0.009478	50.1249	-0.100247	-1.850299	-0.005123	NaN
10	1.000000	1.019098	7.36514e+06	-39139.1	955.817	-29795.6	0.000000	0.000000	7.019146	0.024093	NaN	0.000000	0.001637	0.001698	28.1262	0.141348	0.001960	72.124	59.7235	-164.699	0.016664	1.017786	-0.092134	-0.093446	0.024093	72.124	-0.092385	-1.228515	-0.019612	NaN
10	1.000000	1.027113	7.36514e+06	-39139.1	955.817	-29795.6	0.000000	0.000000	7.027161	0.024599	NaN	0.000000	0.001644	0.001697	28.126	0.061412	0.001996	30.766	5.886203	-166.116	0.037718	1.025791	-0.084119	-0.085441	0.024599	30.766	-0.084718	-0.808826	-0.030413	NaN
10	1.000000	1.035123	7.36514e+06	-39139.1	955.817	-29795.6	0.000000	0.000000	7.035170	-0.002652	NaN	0.000000	0.001646	0.001685	28.1275	0.020574	0.002029	10.1404	25.4392	-167.34	0.044758	1.033823	-0.076109	-0.077409	-0.002652	10.1404	-0.075913	-0.487594	0.005438	NaN
10	1.000000	1.043100	7.36514e+06	-39139.1	955.818	-29795.6	0.000000	0.000000	7.043147	-0.001937	NaN	0.000000	0.001612	0.001671	28.1272	0.060269	0.002077	29.0189	-169.856	-164.29	0.054726	1.041808	-0.068132	-0.069424	-0.001937	29.0189	-0.068082	-0.302811	0.006396	NaN
10	1.000000	1.051127	7.36514e+06	-39139.1	955.818	-29795.6	0.000000	0.000000	7.051173	-0.045853	NaN	0.000000	0.001595	0.001638	28.1271	0.064949	0.001931	33.6357	103.069	-168.635	-0.095684	1.049803	-0.060105	-0.061429	-0.045853	33.6357	-0.059082	-0.169470	0.270566	NaN
10	1.000000	1.059137	7.36514e+06	-39139.1	955.818	-29795.6	0.000000	0.000000	7.059185	0.018619	NaN	0.000000	0.001601	0.001664	28.1272	0.044284	0.001970	22.48	161.775	-168.284	0.061660	1.057833	-0.052095	-0.053399	0.018619	22.48	-0.052716	-0.110137	-0.169052	NaN
10	1.000000	1.067134	7.36514e+06	-39139.1	955.818	-29795.6	0.000000	0.000000	7.067186	0.118265	NaN	0.000000	0.001638	0.001681	28.1267	0.155827	0.002037	76.511	1.371570	-164.626	0.130747	1.065811	-0.044098	-0.045421	0.118265	76.511	-0.045257	-0.065443	-1.807152	NaN
10	1.000000	1.075107	7.36514e+06	-39139.1	955.818	-29795.6	0.000000	0.000000	7.075211	1.397178	NaN	0.000000	0.001630	0.001667	28.126	1.009324	0.002031	496.901	10.2386	-164.089	1.165342	1.073816	-0.036125	-0.037416	1.397178	496.901	-0.038234	-0.039986	-34.9414	NaN
10	1.000000	1.083127	7.36514e+06	-39139.1	955.816	-29795.6	0.000000	0.000000	7.083325	3.673807	NaN	0.000000	0.001601	0.001670	28.1258	1.484762	0.002020	734.879	9.202502	-165.784	3.232545	1.081841	-0.028105	-0.029391	3.673807	734.879	-0.031854	-0.025956	-141.537	NaN
10	1.000000	1.091133	7.36515e+06	-39139.1	955.817	-29795.6	0.000000	0.000000	7.091438	6.276395	NaN	0.000000	0.001569	0.001654	28.1258	2.189321	0.001846	1185.86	5.279080	-166.642	5.728938	1.089854	-0.020099	-0.021378	6.276395	1185.86	-0.024068	-0.015955	-393.369	NaN
10	2.000000	1.095853	7.36515e+06	-39139.1	955.818	-29795.6	0.000000	0.000000	7.096307	9.892812	NaN	0.000000	0.001563	0.001655	28.1262	5.880980	0.001787	3291.14	6.622496	-168.711	9.739430	1.095500	-0.015379	-0.015732	9.892812	3291.14	-0.017633	-0.010920	-905.923	NaN
10	2.000000	1.097822	7.36515e+06	-39139.1	955.818	-29795.6	0.000000	0.000000	7.098367	12.1272	NaN	0.000000	0.001573	0.001676	28.1257	8.233884	0.001754	4695.43	8.201896	-172.058	11.7846	1.097517	-0.013410	-0.013715	12.1272	4695.43	-0.015348	-0.009485	-1278.61	NaN
10	2.000000	1.099807	7.36515e+06	-39139.1	955.818	-29795.6	0.000000	0.000000	7.100473	15.0729	NaN	0.000000	0.001583	0.001673	28.1273	10.244	0.001760	5818.93	3.781122	-169.168	14.5937	1.099445	-0.011425	-0.011787	15.0729	5818.93	-0.013368	-0.008315	-1812.74	NaN
10	2.000000	1.101761	7.36515e+06	-39139.1	955.816	-29795.6	0.000000	0.000000	7.102537	17.7484	NaN	0.000000	0.001592	0.001654	28.1268	13.105	0.001778	7371.96	6.416761	-174.505	17.0603	1.101456	-0.009471	-0.009776	17.7484	7371.96	-0.011277	-0.007116	-2494.15	NaN
10	2.000000	1.103733	7.36515e+06	-39139.1	955.817	-29795.6	0.000000	0.000000	7.104716	22.7876	NaN	0.000000	0.001574	0.001661	28.127	15.058	0.001791	8408.35	6.616709	-175.957	21.8978	1.103462	-0.007499	-0.007770	22.7876	8408.35	-0.009532	-0.006119	-3723.92	NaN
10	2.000000	1.105774	7.36515e+06	-39139.1	955.817	-29795.6	0.000000	0.000000	7.106876	25.6727	NaN	0.000000	0.001571	0.001669	28.1291	17.6841	0.001721	10277.2	4.945806	-176.271	25.1875	1.105501	-0.005458	-0.005731	25.6727	10277.2	-0.007332	-0.004838	-5306.69	NaN
10	2.000000	1.107762	7.36515e+06	-39139.1	955.818	-29795.6	0.000000	0.000000	7.109123	31.9811	NaN	0.000000	0.001570	0.001672	28.1283	20.0608	0.001854	10821	7.742232	-177.905	31.1284	1.107437	-0.003470	-0.003795	31.9811	10821	-0.005687	-0.003844	-8319.97	NaN
10	2.000000	1.109676	7.36515e+06	-39139.1	955.818	-29795.6	0.000000	0.000000	7.111208	36.1502	NaN	0.000000	0.001581	0.001635	28.1275	21.4346	0.001664	12878.8	1.209512	-175.478	33.2038	1.109384	-0.001556	-0.001848	36.1502	12878.8	-0.003662	-0.002559	-14129.1	NaN
10	2.000000	1.111741	7.36515e+06	-39139.1	955.819	-29795.6	0.000000	0.000000	7.113573	43.4419	NaN	0.000000	0.001557	0.001642	28.1271	24.2689	0.001862	13034	4.541187	-176.486	43.4656	1.111402	0.000509	0.000170	43.4419	13034	-0.001991	-0.001433	-30319.6	NaN
10	2.000000	1.113751	7.36515e+06	-39139.1	955.818	-29795.6	0.000000	0.000000	7.115682	45.8447	NaN	0.000000	0.001562	0.001679	28.1273	25.3121	0.001761	14371.8	3.235510	-175.9	45.9156	1.113388	0.002519	0.002156	45.8447	14371.8	0.000127	9.482850E-5	483449	1.34839e+06
10	2.000000	1.115755	7.36515e+06	-39139.1	955.819	-29795.6	0.000000	0.000000	7.117942	52.0733	NaN	0.000000	0.001557	0.001670	28.1276	27.9119	0.001883	14822.4	5.457932	-179.082	52.4528	1.115372	0.004523	0.004140	52.0733	14822.4	0.001888	0.001465	35552.3	353850
10	2.000000	1.117730	7.36515e+06	-39139.1	955.818	-29795.6	0.000000	0.000000	7.120348	62.5645	NaN	0.000000	0.001549	0.001660	28.1269	29.8187	0.001846	16155.9	4.966213	-179.01	60.6893	1.117399	0.006497	0.006167	62.5645	16155.9	0.003593	0.002885	21684.7	274799
10	2.000000	1.119695	7.36515e+06	-39139.1	955.818	-29795.6	0.000000	0.000000	7.122533	67.911	NaN	0.000000	0.001527	0.001673	28.1282	31.8077	0.001818	17498.2	4.410330	-179.71	67.0407	1.119495	0.008463	0.008263	67.911	17498.2	0.005553	0.004643	14625.6	234613
10	2.000000	1.121709	7.36515e+06	-39139.1	955.818	-29795.6	0.000000	0.000000	7.124898	76.4449	NaN	0.000000	0.001571	0.001661	28.128	34.0969	0.001751	19478.3	4.211891	178.695	74.3558	1.121398	0.010477	0.010166	76.4449	19478.3	0.007534	0.006567	11640.7	219604
10	2.000000	1.123664	7.36515e+06	-39139.1	955.819	-29795.6	0.000000	0.000000	7.127314	87.6836	NaN	0.000000	0.001579	0.001666	28.1278	35.086	0.001707	20557.3	5.200533	177.867	86.1096	1.123399	0.012431	0.012167	87.6836	20557.3	0.009232	0.008341	10512.5	205652
10	2.000000	1.125741	7.36515e+06	-39139.1	955.817	-29795.6	0.000000	0.000000	7.129567	91.9683	NaN	0.000000	0.001561	0.001666	28.1285	38.9448	0.001716	22691.2	5.628186	176.48	93.2582	1.125468	0.014509	0.014236	91.9683	22691.2	0.011469	0.010860	8468.21	198933
10	2.000000	1.127784	7.36515e+06	-39139.1	955.818	-29795.6	0.000000	0.000000	7.132218	106.759	NaN	0.000000	0.001542	0.001662	28.1276	40.8113	0.001838	22201.7	3.877126	-179.981	108.402	1.127312	0.016552	0.016080	106.759	22201.7	0.012946	0.012642	8444.47	180403
10	2.000000	1.129648	7.36515e+06	-39139.1	955.817	-29795.6	0.000000	0.000000	7.134456	115.85	NaN	0.000000	0.001608	0.001678	28.1282	43.1789	0.001856	23263	5.991900	176.324	113.924	1.129352	0.018416	0.018120	115.85	23263	0.014681	0.014863	7794.58	174336
10	2.000000	1.131671	7.36515e+06	-39139.1	955.818	-29795.6	0.000000	0.000000	7.136776	123.075	NaN	0.000000	0.001600	0.001675	28.1268	46.0853	0.001874	24593.8	6.477379	174.737	121.334	1.131414	0.020439	0.020182	123.075	24593.8	0.016686	0.017600	6992.93	169373
10	2.000000	1.133693	7.36515e+06	-39139.1	955.816	-29795.6	0.000000	0.000000	7.139241	133.858	NaN	0.000000	0.001533	0.001676	28.1267	47.0794	0.001828	25748.6	7.501333	173.396	134.564	1.133365	0.022461	0.022133	133.858	25748.6	0.018562	0.020333	6583.44	164980
10	2.000000	1.135630	7.36515e+06	-39139.1	955.817	-29795.6	0.000000	0.000000	7.141817	149.405	NaN	0.000000	0.001612	0.001648	28.1268	49.25	0.001787	27564.6	6.861530	173.003	145.371	1.135348	0.024398	0.024116	149.405	27564.6	0.020333	0.023068	6476.74	165814
10	2.000000	1.137728	7.36515e+06	-39139.1	955.818	-29795.6	0.000000	0.000000	7.144305	158.892	NaN	0.000000	0.001596	0.001658	28.1263	50.2206	0.001749	28711.8	2.728915	178.159	158.279	1.137392	0.026496	0.026159	158.892	28711.8	0.022346	0.026363	6027.03	161560
10	2.000000	1.139638	7.36515e+06	-39139.1	955.818	-29795.6	0.000000	0.000000	7.146748	171.899	NaN	0.000000	0.001597	0.001667	28.1268	52.7271	0.001866	28253.9	7.912547	172.746	169.827	1.139322	0.028406	0.028090	171.899	28253.9	0.023842	0.028943	5939.15	151732
10	2.000000	1.141697	7.36515e+06	-39139.1	955.817	-29795.6	0.000000	0.000000	7.149037	177.466	NaN	0.000000	0.001625	0.001651	28.1266	54.2551	0.001826	29713.9	3.049016	176.811	177.642	1.141509	0.030465	0.030277	177.466	29713.9	0.025986	0.032833	5405.12	149823
10	2.000000	1.143631	7.36515e+06	-39139.1	955.818	-29795.6	0.000000	0.000000	7.151725	195.818	NaN	0.000000	0.001590	0.001676	28.126	54.9389	0.001729	31776.2	1.002727	178.567	192.117	1.143325	0.032399	0.032093	195.818	31776.2	0.027777	0.036263	5399.95	152456
10	2.000000	1.145696	7.36515e+06	-39139.1	955.816	-29795.6	0.000000	0.000000	7.154198	205.749	NaN	0.000000	0.001598	0.001658	28.1262	58.5018	0.001824	32080.8	3.987259	175.217	203.675	1.145370	0.034464	0.034138	205.749	32080.8	0.029654	0.040030	5139.86	146496
10	2.000000	1.147780	7.36515e+06	-39139.1	955.818	-29795.6	0.000000	0.000000	7.156723	216.49	NaN	0.000000	0.001613	0.001652	28.126	60.8043	0.001784	34077.6	4.529612	174.258	218.683	1.147440	0.036548	0.036208	216.49	34077.6	0.031783	0.044521	4862.63	147557
10	2.000000	1.149722	7.36515e+06	-39139.1	955.817	-29795.6	0.000000	0.000000	7.159206	229.654	NaN	0.000000	0.001574	0.001666	28.1252	62.1684	0.001724	36056.4	5.086746	173.349	234.266	1.149421	0.038490	0.038188	229.654	36056.4	0.033713	0.048792	4706.82	149136
10	2.000000	1.151632	7.36515e+06	-39139.1	955.818	-29795.6	0.000000	0.000000	7.162047	252.322	NaN	0.000000	0.001576	0.001711	28.1257	64.8725	0.001761	36848.5	3.252976	174.882	249.183	1.151361	0.040399	0.040129	252.322	36848.5	0.035264	0.052362	4818.8	147124
10	2.000000	1.153605	7.36515e+06	-39139.1	955.816	-29795.6	0.000000	0.000000	7.164691	268.635	NaN	0.000000	0.001554	0.001713	28.1246	65.6566	0.001670	39324	5.506969	172.272	264.818	1.153323	0.042373	0.042091	268.635	39324	0.037249	0.057113	4703.6	150337
10	2.000000	1.155540	7.36515e+06	-39139.1	955.817	-29795.6	0.000000	0.000000	7.167032	278.522	NaN	0.000000	0.001566	0.001707	28.1247	67.1752	0.001664	40372.4	0.650750	176.626	270.383	1.155282	0.044308	0.044050	278.522	40372.4	0.039133	0.061808	4506.23	148366
10	2.000000	1.157674	7.36515e+06	-39139.1	955.818	-29795.6	0.000000	0.000000	7.169853	295.249	NaN	0.000000	0.001550	0.001694	28.1247	70.4745	0.001736	40600.1	4.358887	173.283	292.59	1.157382	0.046442	0.046150	295.249	40600.1	0.040988	0.066605	4432.81	143729
10	2.000000	1.159655	7.36515e+06	-39139.1	955.818	-29795.6	0.000000	0.000000	7.172412	309.299	NaN	0.000000	0.001592	0.001735	28.1256	72.6558	0.001829	39718.2	4.012342	173.562	308.436	1.159364	0.048423	0.048132	309.299	39718.2	0.042583	0.070873	4364.14	136309
10	2.000000	1.161632	7.36515e+06	-39139.1	955.817	-29795.6	0.000000	0.000000	7.175129	327.294	NaN	0.000000	0.001523	0.001703	28.126	74.5589	0.001796	41519.1	1.601477	175.821	325.07	1.161356	0.050400	0.050124	327.294	41519.1	0.044488	0.076140	4298.57	137472
10	2.000000	1.163643	7.36515e+06	-39139.1	955.818	-29795.6	0.000000	0.000000	7.178050	349.453	NaN	0.000000	0.001599	0.001720	28.1259	75.9003	0.001743	43551.8	3.250140	173.68	350.095	1.163360	0.052411	0.052128	349.453	43551.8	0.046393	0.081590	4283.03	139303
10	2.000000	1.165595	7.36515e+06	-39139.1	955.819	-29795.6	0.000000	0.000000	7.180669	365.687	NaN	0.000000	0.001580	0.001699	28.1257	79.1259	0.001732	45688.1	6.104735	170.503	361.265	1.165332	0.054363	0.054100	365.687	45688.1	0.048360	0.087411	4183.52	141186
10	2.000000	1.167726	7.36515e+06	-39139.1	955.819	-29795.6	0.000000	0.000000	7.183501	382.737	NaN	0.000000	0.001570	0.001692	28.1261	81.774	0.001778	45987.8	5.639054	171.18	383.918	1.167308	0.056494	0.056076	382.737	45987.8	0.050252	0.093194	4106.9	137633
10	2.000000	1.169647	7.36515e+06	-39139.1	955.816	-29795.6	0.000000	0.000000	7.186021	397.312	NaN	0.000000	0.001557	0.001719	28.1251	83.404	0.001744	47822.6	7.447635	169.014	396.726	1.169282	0.058415	0.058050	397.312	47822.6	0.052184	0.099283	4001.81	138666
10	2.000000	1.171631	7.36515e+06	-39139.1	955.816	-29795.6	0.000000	0.000000	7.188601	411.82	NaN	0.000000	0.001588	0.001722	28.1253	85.1548	0.001908	44623.3	3.474865	173.323	407.859	1.171342	0.060399	0.060110	411.82	44623.3	0.053478	0.103465	3980.28	126747
10	2.000000	1.173645	7.36515e+06	-39139.1	955.818	-29795.6	0.000000	0.000000	7.191397	430.84	NaN	0.000000	0.001568	0.001721	28.1261	85.4657	0.001742	49068.7	2.778190	173.064	430.258	1.173391	0.062413	0.062159	430.84	49068.7	0.055828	0.111275	3871.86	134394
10	2.000000	1.175672	7.36515e+06	-39139.1	955.818	-29795.6	0.000000	0.000000	7.193947	443.577	NaN	0.000000	0.001574	0.001755	28.1257	88.4454	0.001781	49661.6	4.189945	171.858	445.551	1.175439	0.064440	0.064207	443.577	49661.6	0.057741	0.117832	3764.48	132179
10	2.000000	1.177677	7.36515e+06	-39139.1	955.816	-29795.6	0.000000	0.000000	7.196983	468.674	NaN	0.000000	0.001591	0.001731	28.1262	90.2057	0.001812	49788.3	6.010507	170.525	469.066	1.177268	0.066445	0.066036	468.674	49788.3	0.059385	0.123611	3791.53	129381
10	2.000000	1.179703	7.36515e+06	-39139.1	955.819	-29795.6	0.000000	0.000000	7.199501	480.65	NaN	0.000000	0.001567	0.001716	28.127	91.8205	0.001920	47815.9	8.368298	169.44	482.858	1.179164	0.068471	0.067932	480.65	47815.9	0.060932	0.129170	3721.06	121553
10	2.000000	1.181516	7.36515e+06	-39139.1	955.819	-29795.6	0.000000	0.000000	7.202064	498.899	NaN	0.000000	0.001612	0.001670	28.1269	92.9313	0.001782	52153	6.134142	169.619	492.668	1.181292	0.070284	0.070060	498.899	52153	0.063109	0.137192	3636.5	128643
10	2.000000	1.183650	7.36515e+06	-39139.1	955.818	-29795.6	0.000000	0.000000	7.204957	517.355	NaN	0.000000	0.001596	0.001664	28.1266	94.0394	0.001849	50849.5	5.795394	170.088	518.568	1.183293	0.072418	0.072061	517.355	50849.5	0.064788	0.143534	3604.42	122626
10	2.000000	1.185543	7.36515e+06	-39139.1	955.817	-29795.6	0.000000	0.000000	7.207444	531.81	NaN	0.000000	0.001582	0.001671	28.1269	95.7032	0.001766	54194.9	3.453200	171.923	526.208	1.185308	0.074311	0.074076	531.81	54194.9	0.066951	0.151907	3500.88	127041
10	2.000000	1.187689	7.36515e+06	-39139.1	955.818	-29795.6	0.000000	0.000000	7.210514	554.289	NaN	0.000000	0.001582	0.001683	28.1271	98.5564	0.001850	53279.4	3.638109	172.844	555.309	1.187234	0.076457	0.076002	554.289	53279.4	0.068655	0.158658	3493.6	122208
10	2.000000	1.189621	7.36515e+06	-39139.1	955.817	-29795.6	0.000000	0.000000	7.213102	570.286	NaN	0.000000	0.001573	0.001668	28.1261	99.3161	0.001660	59842	1.735574	173.3	569.6	1.189420	0.078389	0.078188	570.286	59842	0.071241	0.169174	3371.01	132927
10	2.000000	1.191602	7.36515e+06	-39139.1	955.819	-29795.6	0.000000	0.000000	7.216068	594.237	NaN	0.000000	0.001562	0.001680	28.1257	104.669	0.001904	54979.4	8.311218	167.11	591.576	1.191204	0.080370	0.079972	594.237	54979.4	0.072263	0.173417	3426.63	120622
10	2.000000	1.193038	7.36515e+06	-39139.1	955.818	-29795.6	0.000000	0.000000	7.218100	608.742	NaN	0.000000	0.001597	0.001654	28.0878	103.311	0.001777	58127.4	1.834235	-6.415535	601.288	1.192687	0.081806	0.081455	608.742	58127.4	0.073952	0.180535	3371.88	124990