File: remote_trans/data/nanoindenter/0828-1/data/Data_2025-08-06,11h17m57s/2025-07-22_16-23-58_1_1088.txt
2025-07-22, 16:23:58, 1
Index	Phase	Displacement	Time	Pos X	Pos Y	Pos Z	Rot A	Rot B	Piezo Z	Force A	Force B	Gripper	Voltage A	Voltage B	Temperature	Amplitude force	Amplitude pos	Stiffness	Phase shift	Phase excitation	Force A raw	Displacement raw	HMax	HMax raw	Real Force	Real Stiffness	Contact Depth	Area	Hardness	Reduced Mod.
[#]	[#]	[um]	[s]	[um]	[um]	[um]	[m°]	[m°]	[um]	[uN]	[uN]	[V]	[V]	[V]	[°C]	[uN]	[um]	[N/m]	[°]	[°]	[uN]	[um]	[um]	[um]	[uN]	[N/m]	[um]	[um^2]	[MPa]	[MPa]
1088	1.000000	0.003246	7.3757e+06	-54539.1	1055.82	-29743.3	0.000000	0.000000	6.002779	-0.022678	NaN	0.000000	0.001592	0.001691	28.0835	0.040871	0.000906	45.1243	-1.584647	-166.061	-0.056237	0.001969	-1.112385	-1.113661	-0.022678	45.1243	-1.112008	-7.264953E+14	3.121550E-17	NaN
1088	1.000000	0.013324	7.3757e+06	-54539.1	1055.82	-29743.3	0.000000	0.000000	6.012861	0.069709	NaN	0.000000	0.001590	0.001695	28.0837	0.065850	0.001203	54.7282	-92.6906	17.5281	0.083599	0.011923	-1.102307	-1.103708	0.069709	54.7282	-1.103262	-5.544475E+14	-1.257266E-16	NaN
1088	1.000000	0.023230	7.3757e+06	-54539.1	1055.82	-29743.3	0.000000	0.000000	6.022767	0.076713	NaN	0.000000	0.001659	0.001694	28.0846	0.129520	0.001739	74.4854	-58.9238	-163.026	0.066186	0.021873	-1.092401	-1.093758	0.076713	74.4854	-1.093174	-4.059032E+14	-1.889923E-16	NaN
1088	1.000000	0.033195	7.3757e+06	-54539.1	1055.82	-29743.3	0.000000	0.000000	6.032734	0.108947	NaN	0.000000	0.001661	0.001695	28.0846	0.094947	0.002046	46.3989	-78.9876	16.079	0.093098	0.031892	-1.082436	-1.083738	0.108947	46.3989	-1.084197	-3.075256E+14	-3.542703E-16	NaN
1088	1.000000	0.043227	7.3757e+06	-54539.1	1055.82	-29743.3	0.000000	0.000000	6.042760	-0.015835	NaN	0.000000	0.001647	0.001690	28.0851	0.054540	0.001924	28.3498	5.938075	-165.729	0.024077	0.041872	-1.072404	-1.073759	-0.015835	28.3498	-1.071985	-2.107939E+14	7.511970E-17	NaN
1088	1.000000	0.053218	7.3757e+06	-54539.1	1055.82	-29743.3	0.000000	0.000000	6.052751	-0.022963	NaN	0.000000	0.001589	0.001715	28.0847	0.033643	0.001951	17.2448	-83.9859	19.1887	0.029209	0.051885	-1.062413	-1.063746	-0.022963	17.2448	-1.061414	-1.519933E+14	1.510779E-16	NaN
1088	1.000000	0.063199	7.3757e+06	-54539.1	1055.82	-29743.3	0.000000	0.000000	6.062737	0.080108	NaN	0.000000	0.001531	0.001658	28.0851	0.078336	0.001948	40.2167	32.7356	-163.514	0.123756	0.061901	-1.052432	-1.053730	0.080108	40.2167	-1.053926	-1.205539E+14	-6.644961E-16	NaN
1088	1.000000	0.073190	7.3757e+06	-54539.1	1055.82	-29743.3	0.000000	0.000000	6.072727	0.062643	NaN	0.000000	0.001540	0.001667	28.085	0.035040	0.001888	18.5609	53.2687	16.1913	0.008091	0.071877	-1.042441	-1.043754	0.062643	18.5609	-1.044972	-9.137301E+13	-6.855757E-16	NaN
1088	1.000000	0.083208	7.3757e+06	-54539.1	1055.82	-29743.3	0.000000	0.000000	6.082745	0.054034	NaN	0.000000	0.001571	0.001741	28.0853	0.165552	0.002003	82.6357	105.92	-164.443	0.024990	0.081912	-1.032422	-1.033719	0.054034	82.6357	-1.032913	-6.290131E+13	-8.590341E-16	NaN
1088	1.000000	0.093224	7.3757e+06	-54539.1	1055.82	-29743.3	0.000000	0.000000	6.092762	0.110403	NaN	0.000000	0.001588	0.001643	28.085	0.117991	0.001975	59.7542	115.381	13.0195	0.056247	0.091820	-1.022407	-1.023810	0.110403	59.7542	-1.023793	-4.742195E+13	-2.328102E-15	NaN
1088	1.000000	0.103226	7.3757e+06	-54539.1	1055.82	-29743.3	0.000000	0.000000	6.102760	-0.010740	NaN	0.000000	0.001573	0.001721	28.0851	0.056203	0.002002	28.0708	19.154	-163.385	0.012861	0.101909	-1.012405	-1.013722	-0.010740	28.0708	-1.012118	-3.302833E+13	3.251669E-16	NaN
1088	1.000000	0.113228	7.3757e+06	-54539.1	1055.82	-29743.3	0.000000	0.000000	6.112765	0.076508	NaN	0.000000	0.001568	0.001722	28.0849	0.098997	0.002152	45.996	-137.136	14.6988	-0.033790	0.111892	-1.002403	-1.003739	0.076508	45.996	-1.003651	-2.540491E+13	-3.011544E-15	NaN
1088	1.000000	0.123262	7.3757e+06	-54539.1	1055.82	-29743.3	0.000000	0.000000	6.122797	0.029216	NaN	0.000000	0.001541	0.001679	28.0851	0.114818	0.001919	59.8324	159.169	-165.701	0.040187	0.121914	-0.992369	-0.993717	0.029216	59.8324	-0.992735	-1.811128E+13	-1.613153E-15	NaN
1088	1.000000	0.133251	7.3757e+06	-54539.1	1055.82	-29743.3	0.000000	0.000000	6.132786	0.023521	NaN	0.000000	0.001578	0.001682	28.0847	0.040864	0.001768	23.1167	132.749	16.3119	-0.028642	0.131893	-0.982380	-0.983738	0.023521	23.1167	-0.983143	-1.345082E+13	-1.748641E-15	NaN
1088	1.000000	0.143279	7.3757e+06	-54539.1	1055.82	-29743.3	0.000000	0.000000	6.142818	0.099824	NaN	0.000000	0.001590	0.001679	28.0848	0.058964	0.002129	27.6924	-106.792	-164.779	0.012132	0.141934	-0.972351	-0.973696	0.099824	27.6924	-0.975055	-1.046608E+13	-9.537901E-15	NaN
1088	1.000000	0.153232	7.3757e+06	-54539.1	1055.82	-29743.3	0.000000	0.000000	6.152768	0.048411	NaN	0.000000	0.001531	0.001656	28.085	0.030020	0.001940	15.4733	-118.458	14.6073	0.095983	0.151892	-0.962399	-0.963739	0.048411	15.4733	-0.964746	-7.600543E+12	-6.369447E-15	NaN
1088	1.000000	0.163269	7.3757e+06	-54539.1	1055.82	-29743.3	0.000000	0.000000	6.162805	0.070318	NaN	0.000000	0.001550	0.001650	28.0836	0.075224	0.001983	37.9388	-67.6286	-161.445	0.099021	0.161964	-0.952362	-0.953667	0.070318	37.9388	-0.953752	-5.402952E+12	-1.301481E-14	NaN
1088	1.000000	0.173273	7.3757e+06	-54539.1	1055.82	-29743.3	0.000000	0.000000	6.172809	0.043729	NaN	0.000000	0.001558	0.001663	28.0835	0.083985	0.002052	40.9254	156.217	16.5185	0.045549	0.171897	-0.942358	-0.943734	0.043729	40.9254	-0.943159	-3.888281E+12	-1.124632E-14	NaN
1088	1.000000	0.183253	7.3757e+06	-54539.1	1055.82	-29743.3	0.000000	0.000000	6.182789	0.049529	NaN	0.000000	0.001555	0.001657	28.0842	0.057566	0.001941	29.6546	52.0269	-164.034	0.085208	0.181940	-0.932378	-0.933691	0.049529	29.6546	-0.933631	-2.891974E+12	-1.712649E-14	NaN
1088	1.000000	0.193291	7.3757e+06	-54539.1	1055.82	-29743.3	0.000000	0.000000	6.192825	0.002561	NaN	0.000000	0.001594	0.001670	28.084	0.036003	0.001999	18.0124	92.6276	19.371	-0.009632	0.191868	-0.922340	-0.923763	0.002561	18.0124	-0.922447	-2.042880E+12	-1.253820E-15	NaN
1088	1.000000	0.203268	7.3757e+06	-54539.1	1055.82	-29743.3	0.000000	0.000000	6.202802	-0.001812	NaN	0.000000	0.001556	0.001683	28.0837	0.060679	0.002050	29.6041	105.621	-167.24	0.052267	0.201973	-0.912363	-0.913658	-0.001812	29.6041	-0.912317	-1.490936E+12	1.215433E-15	NaN
1088	1.000000	0.213259	7.3757e+06	-54539.1	1055.82	-29743.3	0.000000	0.000000	6.212795	0.043664	NaN	0.000000	0.001589	0.001637	28.0839	0.038205	0.001914	19.9585	-108.567	15.3004	0.097157	0.211884	-0.902372	-0.903747	0.043664	19.9585	-0.904013	-1.151555E+12	-3.791724E-14	NaN
1088	1.000000	0.223270	7.3757e+06	-54539.1	1055.82	-29743.3	0.000000	0.000000	6.222806	0.047092	NaN	0.000000	0.001591	0.001640	28.084	0.156442	0.002047	76.422	89.7299	-164.647	0.110066	0.221958	-0.892361	-0.893673	0.047092	76.422	-0.892823	-8.129717E+11	-5.792608E-14	NaN
1088	1.000000	0.233294	7.3757e+06	-54539.1	1055.82	-29743.3	0.000000	0.000000	6.232829	0.005127	NaN	0.000000	0.001598	0.001664	28.0837	0.037873	0.002002	18.9222	-43.6852	16.1586	0.034489	0.231909	-0.882336	-0.883722	0.005127	18.9222	-0.882540	-5.902707E+11	-8.685237E-15	NaN
1088	1.000000	0.243287	7.3757e+06	-54539.1	1055.82	-29743.3	0.000000	0.000000	6.242826	0.116016	NaN	0.000000	0.001541	0.001711	28.0835	0.118819	0.001939	61.2697	-42.4387	-164.837	0.065257	0.241966	-0.872344	-0.873664	0.116016	61.2697	-0.873764	-4.491198E+11	-2.583195E-13	NaN
1088	1.000000	0.253298	7.3757e+06	-54539.1	1055.82	-29743.3	0.000000	0.000000	6.252834	0.042442	NaN	0.000000	0.001638	0.001676	28.0835	0.055036	0.002004	27.4667	-6.312990	15.4341	-0.024928	0.251938	-0.862333	-0.863693	0.042442	27.4667	-0.863492	-3.261210E+11	-1.301427E-13	NaN
1088	1.000000	0.263265	7.3757e+06	-54539.1	1055.82	-29743.3	0.000000	0.000000	6.262805	0.148258	NaN	0.000000	0.001629	0.001723	28.0837	0.046505	0.001982	23.4683	-173.186	-162.671	0.137364	0.261952	-0.852366	-0.853679	0.148258	23.4683	-0.857104	-2.672479E+11	-5.547587E-13	NaN
1088	1.000000	0.273296	7.3757e+06	-54539.1	1055.82	-29743.3	0.000000	0.000000	6.272832	0.042507	NaN	0.000000	0.001627	0.001706	28.0835	0.060996	0.001900	32.1099	-50.4942	13.1801	0.061124	0.271999	-0.842335	-0.843632	0.042507	32.1099	-0.843328	-1.739300E+11	-2.443920E-13	NaN
1088	1.000000	0.283308	7.3757e+06	-54539.1	1055.82	-29743.3	0.000000	0.000000	6.282844	0.055265	NaN	0.000000	0.001604	0.001661	28.0834	0.113009	0.002098	53.86	-160.097	-163.139	0.086582	0.282045	-0.832323	-0.833586	0.055265	53.86	-0.833092	-1.263850E+11	-4.372749E-13	NaN
1088	1.000000	0.293292	7.3757e+06	-54539.1	1055.82	-29743.3	0.000000	0.000000	6.292829	0.073276	NaN	0.000000	0.001533	0.001683	28.0836	0.026539	0.001976	13.4319	-107.284	15.7574	0.072286	0.292007	-0.822339	-0.823624	0.073276	13.4319	-0.826431	-1.026604E+11	-7.137730E-13	NaN
1088	1.000000	0.303311	7.3757e+06	-54539.1	1055.82	-29743.3	0.000000	0.000000	6.302846	0.024121	NaN	0.000000	0.001499	0.001731	28.0849	0.059193	0.002033	29.1229	83.0009	-166.44	0.096366	0.302030	-0.812320	-0.813600	0.024121	29.1229	-0.812941	-6.737100E+10	-3.580363E-13	NaN
1088	1.000000	0.313310	7.3757e+06	-54539.1	1055.82	-29743.3	0.000000	0.000000	6.312844	0.009320	NaN	0.000000	0.001563	0.001703	28.0849	0.034013	0.001931	17.6118	66.3592	17.1516	-0.018033	0.311978	-0.802321	-0.803652	0.009320	17.6118	-0.802718	-4.895012E+10	-1.903926E-13	NaN
1088	1.000000	0.323294	7.3757e+06	-54539.1	1055.82	-29743.3	0.000000	0.000000	6.322826	-0.049814	NaN	0.000000	0.001557	0.001726	28.0844	0.099224	0.002080	47.7086	-122.218	-166.725	-0.009432	0.322093	-0.792337	-0.793538	-0.049814	47.7086	-0.791554	-3.452940E+10	1.442664E-12	NaN
1088	1.000000	0.333311	7.3757e+06	-54539.1	1055.82	-29743.3	0.000000	0.000000	6.332847	0.049498	NaN	0.000000	0.001541	0.001700	28.0851	0.047923	0.002055	23.3145	124.885	15.7843	-0.022582	0.331988	-0.782320	-0.783643	0.049498	23.3145	-0.783912	-2.718849E+10	-1.820550E-12	NaN
1088	1.000000	0.343322	7.3757e+06	-54539.1	1055.82	-29743.3	0.000000	0.000000	6.342858	0.035505	NaN	0.000000	0.001568	0.001671	28.0846	0.024815	0.002115	11.7332	77.473	-165.758	0.052751	0.342023	-0.772309	-0.773608	0.035505	11.7332	-0.774578	-2.030228E+10	-1.748824E-12	NaN
1088	1.000000	0.353333	7.3757e+06	-54539.1	1055.82	-29743.3	0.000000	0.000000	6.352871	0.090889	NaN	0.000000	0.001541	0.001713	28.0849	0.062339	0.001958	31.8319	39.6709	16.8937	0.093975	0.351977	-0.762297	-0.763654	0.090889	31.8319	-0.764439	-1.478029E+10	-6.149332E-12	NaN
1088	1.000000	0.363352	7.3757e+06	-54539.1	1055.82	-29743.3	0.000000	0.000000	6.362892	0.136407	NaN	0.000000	0.001553	0.001704	28.0845	0.093494	0.001912	48.9071	128.671	-166.454	0.102118	0.362031	-0.752279	-0.753600	0.136407	48.9071	-0.754371	-1.078221E+10	-1.265115E-11	NaN
1088	1.000000	0.373346	7.3757e+06	-54539.1	1055.82	-29743.3	0.000000	0.000000	6.372880	-0.005340	NaN	0.000000	0.001583	0.001639	28.0851	0.075962	0.002059	36.8992	173.985	17.3147	0.075551	0.371955	-0.742285	-0.743676	-0.005340	36.8992	-0.742177	-7.357003E+9	7.258211E-13	NaN
1088	1.000000	0.383358	7.3757e+06	-54539.1	1055.82	-29743.3	0.000000	0.000000	6.382890	-0.048974	NaN	0.000000	0.001567	0.001649	28.0846	0.081726	0.002104	38.841	120.364	-166.948	-0.001143	0.382013	-0.732273	-0.733618	-0.048974	38.841	-0.731328	-5.234800E+9	9.355460E-12	NaN
1088	1.000000	0.393359	7.3757e+06	-54539.1	1055.82	-29743.3	0.000000	0.000000	6.392898	0.120952	NaN	0.000000	0.001542	0.001651	28.0849	0.065571	0.001925	34.0702	100.071	15.728	0.069097	0.392000	-0.722272	-0.723631	0.120952	34.0702	-0.724934	-4.283089E+9	-2.823933E-11	NaN
1088	1.000000	0.403349	7.3757e+06	-54539.1	1055.82	-29743.3	0.000000	0.000000	6.402886	0.067345	NaN	0.000000	0.001658	0.001650	28.0844	0.054821	0.001973	27.7828	-71.5069	-162.45	0.113701	0.402031	-0.712282	-0.713599	0.067345	27.7828	-0.714100	-3.047842E+9	-2.209592E-11	NaN
1088	1.000000	0.413371	7.3757e+06	-54539.1	1055.82	-29743.3	0.000000	0.000000	6.412908	0.076152	NaN	0.000000	0.001624	0.001633	28.0847	0.148228	0.002058	72.0122	158.852	16.1655	-0.013296	0.412018	-0.702260	-0.703613	0.076152	72.0122	-0.703053	-2.153904E+9	-3.535518E-11	NaN
1088	1.000000	0.423341	7.3757e+06	-54539.1	1055.82	-29743.3	0.000000	0.000000	6.422878	0.064013	NaN	0.000000	0.001626	0.001672	28.0845	0.031573	0.002006	15.7363	-45.399	-163.131	0.102232	0.422075	-0.692290	-0.693556	0.064013	15.7363	-0.695341	-1.690025E+9	-3.787692E-11	NaN
1088	1.000000	0.433392	7.3757e+06	-54539.1	1055.82	-29743.3	0.000000	0.000000	6.432928	0.058743	NaN	0.000000	0.001690	0.001683	28.0834	0.056255	0.001873	30.038	-139.948	15.2279	0.008158	0.432071	-0.682239	-0.683560	0.058743	30.038	-0.683706	-1.171875E+9	-5.012759E-11	NaN
1088	1.000000	0.443364	7.3757e+06	-54539.1	1055.82	-29743.3	0.000000	0.000000	6.442898	0.003844	NaN	0.000000	0.001687	0.001688	28.0835	0.167993	0.002150	78.1397	-156.124	-163.683	-0.038069	0.442092	-0.672267	-0.673539	0.003844	78.1397	-0.672304	-8.183054E+8	-4.697498E-12	NaN
1088	1.000000	0.453371	7.3757e+06	-54539.1	1055.82	-29743.3	0.000000	0.000000	6.452905	0.003778	NaN	0.000000	0.001636	0.001653	28.0835	0.093741	0.002021	46.3913	173.945	16.9027	0.043782	0.452029	-0.662260	-0.663602	0.003778	46.3913	-0.662321	-5.973840E+8	-6.324324E-12	NaN
1088	1.000000	0.463344	7.3757e+06	-54539.1	1055.82	-29743.3	0.000000	0.000000	6.462880	0.051299	NaN	0.000000	0.001624	0.001646	28.0833	0.108193	0.001845	58.6447	45.9182	-162.512	0.025451	0.462039	-0.652287	-0.653592	0.051299	58.6447	-0.652943	-4.444042E+8	-1.154339E-10	NaN
1088	1.000000	0.473397	7.3757e+06	-54539.1	1055.82	-29743.3	0.000000	0.000000	6.472932	0.008229	NaN	0.000000	0.001632	0.001682	28.0836	0.090623	0.001960	46.2269	-42.2315	15.1579	0.063137	0.472007	-0.642234	-0.643624	0.008229	46.2269	-0.642367	-3.182467E+8	-2.585783E-11	NaN
1088	1.000000	0.483371	7.3757e+06	-54539.1	1055.82	-29743.3	0.000000	0.000000	6.482906	0.032901	NaN	0.000000	0.001610	0.001632	28.0837	0.065112	0.001962	33.1945	-148.721	-164.864	0.019286	0.482082	-0.632260	-0.633549	0.032901	33.1945	-0.633003	-2.367342E+8	-1.389786E-10	NaN
1088	1.000000	0.493418	7.3757e+06	-54539.1	1055.82	-29743.3	0.000000	0.000000	6.492957	0.100217	NaN	0.000000	0.001641	0.001697	28.0837	0.134338	0.002008	66.8903	-174.196	15.4685	0.032773	0.492044	-0.622212	-0.623587	0.100217	66.8903	-0.623336	-1.743742E+8	-5.747226E-10	NaN
1088	1.000000	0.503420	7.3757e+06	-54539.1	1055.82	-29743.3	0.000000	0.000000	6.502956	0.055116	NaN	0.000000	0.001627	0.001727	28.0836	0.071817	0.002083	34.474	-112.65	-163.453	0.088926	0.502093	-0.612211	-0.613537	0.055116	34.474	-0.613410	-1.273576E+8	-4.327648E-10	NaN
1088	1.000000	0.513416	7.3757e+06	-54539.1	1055.82	-29743.3	0.000000	0.000000	6.512953	0.068426	NaN	0.000000	0.001654	0.001683	28.0838	0.066464	0.001999	33.2545	7.224344	13.0025	0.103479	0.512047	-0.602215	-0.603584	0.068426	33.2545	-0.603758	-9.380081E+7	-7.294830E-10	NaN
1088	1.000000	0.523383	7.3757e+06	-54539.1	1055.82	-29743.3	0.000000	0.000000	6.522919	0.031066	NaN	0.000000	0.001666	0.001648	28.0839	0.067422	0.002016	33.44	-70.7726	-163.458	0.087856	0.522100	-0.592248	-0.593531	0.031066	33.44	-0.592944	-6.656599E+7	-4.666970E-10	NaN
1088	1.000000	0.533412	7.3757e+06	-54539.1	1055.82	-29743.3	0.000000	0.000000	6.532950	0.096831	NaN	0.000000	0.001639	0.001729	28.0837	0.054129	0.002021	26.786	76.7934	17.4897	0.053468	0.532063	-0.582219	-0.583568	0.096831	26.786	-0.584930	-5.161162E+7	-1.876148E-9	NaN
1088	1.000000	0.543418	7.3757e+06	-54539.1	1055.82	-29743.3	0.000000	0.000000	6.542951	-0.028151	NaN	0.000000	0.001641	0.001679	28.0837	0.122280	0.001952	62.637	30.3746	-161.674	0.029500	0.542057	-0.572213	-0.573573	-0.028151	62.637	-0.571876	-3.408389E+7	8.259279E-10	NaN
1088	1.000000	0.553427	7.3757e+06	-54539.1	1055.82	-29743.3	0.000000	0.000000	6.552961	0.002459	NaN	0.000000	0.001645	0.001657	28.0837	0.026759	0.001946	13.7506	164.674	16.7914	0.012010	0.552044	-0.562204	-0.563587	0.002459	13.7506	-0.562338	-2.516033E+7	-9.774741E-11	NaN
1088	1.000000	0.563419	7.3757e+06	-54539.1	1055.82	-29743.3	0.000000	0.000000	6.562956	0.061138	NaN	0.000000	0.001703	0.001642	28.0838	0.018683	0.002007	9.311157	41.9936	-168.745	0.039285	0.562137	-0.552212	-0.553494	0.061138	9.311157	-0.557136	-2.131836E+7	-2.867871E-9	NaN
1088	1.000000	0.573418	7.3757e+06	-54539.1	1055.82	-29743.3	0.000000	0.000000	6.572951	-0.032441	NaN	0.000000	0.001574	0.001659	28.0851	0.058521	0.002017	29.0199	-28.5586	14.9719	-0.003612	0.572009	-0.542213	-0.543622	-0.032441	29.0199	-0.541374	-1.289486E+7	2.515776E-9	NaN
1088	1.000000	0.583417	7.3757e+06	-54539.1	1055.82	-29743.3	0.000000	0.000000	6.582949	-0.043452	NaN	0.000000	0.001590	0.001675	28.0853	0.058455	0.001945	30.0564	-7.535874	-169.199	-0.065897	0.582092	-0.532214	-0.533539	-0.043452	30.0564	-0.531130	-9.29531e+06	4.674648E-9	NaN
1088	1.000000	0.593430	7.3757e+06	-54539.1	1055.82	-29743.3	0.000000	0.000000	6.592964	-0.000312	NaN	0.000000	0.001544	0.001708	28.0851	0.122349	0.002041	59.9552	-116.85	15.6498	-0.032131	0.592071	-0.522201	-0.523560	-0.000312	59.9552	-0.522197	-6.98477e+06	4.467756E-11	NaN
1088	1.000000	0.603435	7.3757e+06	-54539.1	1055.82	-29743.3	0.000000	0.000000	6.602969	0.004370	NaN	0.000000	0.001620	0.001663	28.0852	0.046952	0.002051	22.8954	-165.255	-163.748	0.091319	0.602117	-0.512196	-0.513514	0.004370	22.8954	-0.512339	-5.09323e+06	-8.579819E-10	NaN
1088	1.000000	0.613454	7.3757e+06	-54539.1	1055.82	-29743.3	0.000000	0.000000	6.612988	0.004592	NaN	0.000000	0.001594	0.001684	28.0851	0.097520	0.002034	47.946	-96.4766	9.830502	-0.021692	0.612139	-0.502177	-0.503492	0.004592	47.946	-0.502249	-3.68453e+06	-1.246364E-9	NaN
1088	1.000000	0.623446	7.3757e+06	-54539.1	1055.82	-29743.3	0.000000	0.000000	6.622981	0.041498	NaN	0.000000	0.001597	0.001633	28.0851	0.066627	0.002018	33.014	-138.253	-164.376	-0.011508	0.622121	-0.492185	-0.493509	0.041498	33.014	-0.493128	-2.74848e+06	-1.509842E-8	NaN
1088	1.000000	0.633465	7.3757e+06	-54539.1	1055.82	-29743.3	0.000000	0.000000	6.633000	0.019051	NaN	0.000000	0.001556	0.001665	28.0853	0.050189	0.002057	24.4011	-13.6659	17.0054	0.055412	0.632047	-0.482166	-0.483583	0.019051	24.4011	-0.482752	-1.96806e+06	-9.679930E-9	NaN
1088	1.000000	0.643462	7.3757e+06	-54539.1	1055.82	-29743.3	0.000000	0.000000	6.642999	0.081750	NaN	0.000000	0.001645	0.001660	28.085	0.140542	0.001919	73.2362	67.8131	-164.711	0.036173	0.642134	-0.472169	-0.473497	0.081750	73.2362	-0.473006	-1.43733e+06	-5.687647E-8	NaN
1088	1.000000	0.653469	7.3757e+06	-54539.1	1055.82	-29743.3	0.000000	0.000000	6.653002	-0.023226	NaN	0.000000	0.001600	0.001661	28.085	0.028005	0.002086	13.422	133.501	14.0861	-0.018826	0.652097	-0.462162	-0.463534	-0.023226	13.422	-0.460864	-970880	2.392258E-8	NaN
1088	1.000000	0.663460	7.3757e+06	-54539.1	1055.82	-29743.3	0.000000	0.000000	6.662993	-0.025302	NaN	0.000000	0.001589	0.001673	28.0851	0.096224	0.002082	46.2238	126.681	-164.933	0.055949	0.662158	-0.452171	-0.453473	-0.025302	46.2238	-0.451761	-722991	3.499683E-8	NaN
1088	1.000000	0.673497	7.3757e+06	-54539.1	1055.82	-29743.3	0.000000	0.000000	6.673033	0.045718	NaN	0.000000	0.001623	0.001690	28.0852	0.055633	0.002057	27.0419	-171.162	15.8905	0.064687	0.672095	-0.442134	-0.443536	0.045718	27.0419	-0.443402	-551256	-8.293439E-8	NaN
1088	1.000000	0.683460	7.3757e+06	-54539.1	1055.82	-29743.3	0.000000	0.000000	6.682996	0.047413	NaN	0.000000	0.001611	0.001685	28.0851	0.060246	0.001876	32.1062	136.541	-165.483	0.034178	0.682103	-0.432171	-0.433527	0.047413	32.1062	-0.433279	-396667	-1.195295E-7	NaN
1088	1.000000	0.693499	7.3757e+06	-54539.1	1055.82	-29743.3	0.000000	0.000000	6.693034	0.029970	NaN	0.000000	0.001541	0.001684	28.0852	0.028626	0.002079	13.7672	-145.949	16.0048	0.041064	0.692064	-0.422132	-0.423567	0.029970	13.7672	-0.423765	-290925	-1.030174E-7	NaN
1088	1.000000	0.703457	7.3757e+06	-54539.1	1055.82	-29743.3	0.000000	0.000000	6.702993	0.051003	NaN	0.000000	0.001614	0.001676	28.0853	0.023063	0.001979	11.6545	-9.664398	-167.089	0.023073	0.702202	-0.412174	-0.413429	0.051003	11.6545	-0.415456	-221783	-2.299679E-7	NaN
1088	1.000000	0.713492	7.3757e+06	-54539.1	1055.82	-29743.3	0.000000	0.000000	6.713026	-0.001962	NaN	0.000000	0.001662	0.001647	28.0839	0.114537	0.002047	55.9472	-17.6261	16.489	-0.104023	0.712162	-0.402138	-0.403469	-0.001962	55.9472	-0.402112	-143254	1.369682E-8	NaN
1088	1.000000	0.723495	7.3757e+06	-54539.1	1055.82	-29743.3	0.000000	0.000000	6.723032	0.070702	NaN	0.000000	0.001656	0.001683	28.0841	0.036258	0.002049	17.6982	10.6449	-165.194	0.121694	0.722172	-0.392136	-0.393459	0.070702	17.6982	-0.395132	-113900	-6.207314E-7	NaN
1088	1.000000	0.733472	7.3757e+06	-54539.1	1055.82	-29743.3	0.000000	0.000000	6.733008	0.032678	NaN	0.000000	0.001657	0.001685	28.0839	0.032275	0.001951	16.5467	-106.995	15.5957	0.038694	0.732200	-0.382158	-0.383431	0.032678	16.5467	-0.383640	-77999.3	-4.189483E-7	NaN
1088	1.000000	0.743511	7.3757e+06	-54539.1	1055.82	-29743.3	0.000000	0.000000	6.743048	0.069663	NaN	0.000000	0.001670	0.001707	28.0842	0.120614	0.001982	60.8637	52.6979	-163.889	0.054072	0.742163	-0.372120	-0.373468	0.069663	60.8637	-0.372978	-54827.4	-1.270587E-6	NaN
1088	1.000000	0.753517	7.3757e+06	-54539.1	1055.82	-29743.3	0.000000	0.000000	6.753051	0.011834	NaN	0.000000	0.001658	0.001686	28.0838	0.081571	0.001925	42.3725	-63.3353	15.3063	-0.036539	0.752135	-0.362114	-0.363496	0.011834	42.3725	-0.362324	-38496.4	-3.073987E-7	NaN
1088	1.000000	0.763509	7.3757e+06	-54539.1	1055.82	-29743.3	0.000000	0.000000	6.763041	-0.047250	NaN	0.000000	0.001659	0.001675	28.084	0.047911	0.002135	22.4408	140.997	-164.819	-0.071020	0.762197	-0.352122	-0.353434	-0.047250	22.4408	-0.350543	-25994.2	1.817703E-6	NaN
1088	1.000000	0.773520	7.3757e+06	-54539.1	1055.82	-29743.3	0.000000	0.000000	6.773057	0.064553	NaN	0.000000	0.001654	0.001717	28.0839	0.052153	0.002005	26.0059	79.2048	16.4971	0.095479	0.772202	-0.342111	-0.343429	0.064553	26.0059	-0.343973	-20864.6	-3.093895E-6	NaN
1088	1.000000	0.783519	7.3757e+06	-54539.1	1055.82	-29743.3	0.000000	0.000000	6.783056	0.071447	NaN	0.000000	0.001682	0.001705	28.0841	0.026709	0.002023	13.201	-7.268565	-163.075	0.058849	0.782215	-0.332112	-0.333416	0.071447	13.201	-0.336171	-16058	-4.449327E-6	NaN
1088	1.000000	0.793546	7.3757e+06	-54539.1	1055.82	-29743.3	0.000000	0.000000	6.793080	-0.013925	NaN	0.000000	0.001697	0.001707	28.0841	0.021347	0.001975	10.8104	-36.819	16.9951	0.004392	0.792134	-0.322085	-0.323497	-0.013925	10.8104	-0.321118	-9662.65	1.441164E-6	NaN
1088	1.000000	0.803535	7.3757e+06	-54539.1	1055.82	-29743.3	0.000000	0.000000	6.803068	-0.014505	NaN	0.000000	0.001605	0.001692	28.0838	0.071012	0.002059	34.4824	149.817	-164.595	0.047283	0.802219	-0.312096	-0.313412	-0.014505	34.4824	-0.311780	-7037.05	2.061237E-6	NaN
1088	1.000000	0.813530	7.3757e+06	-54539.1	1055.82	-29743.3	0.000000	0.000000	6.813063	-0.033038	NaN	0.000000	0.001566	0.001699	28.0842	0.018908	0.001936	9.768691	-172.261	15.2916	-0.077764	0.812196	-0.302101	-0.303435	-0.033038	9.768691	-0.299564	-4636.04	7.126252E-6	NaN
1088	1.000000	0.823524	7.3757e+06	-54539.1	1055.82	-29743.3	0.000000	0.000000	6.823060	0.042686	NaN	0.000000	0.001560	0.001660	28.084	0.053524	0.001973	27.1218	59.7115	-166.055	0.116122	0.822196	-0.292107	-0.293435	0.042686	27.1218	-0.293287	-3736.77	-1.142319E-5	NaN
1088	1.000000	0.833538	7.3757e+06	-54539.1	1055.82	-29743.3	0.000000	0.000000	6.833072	-0.007525	NaN	0.000000	0.001606	0.001653	28.0843	0.049218	0.001850	26.5989	-150.544	16.1969	0.024688	0.832164	-0.282093	-0.283466	-0.007525	26.5989	-0.281880	-2519.52	2.986745E-6	NaN
1088	1.000000	0.843520	7.3757e+06	-54539.1	1055.82	-29743.3	0.000000	0.000000	6.843055	0.009521	NaN	0.000000	0.001621	0.001667	28.0853	0.107391	0.002028	52.9562	64.0265	-161.4	-0.022714	0.842206	-0.272111	-0.273425	0.009521	52.9562	-0.272246	-1801.56	-5.285061E-6	NaN
1088	1.000000	0.853506	7.3757e+06	-54539.1	1055.82	-29743.3	0.000000	0.000000	6.853044	0.093182	NaN	0.000000	0.001568	0.001683	28.0867	0.057457	0.001951	29.4468	117.109	14.9317	0.051091	0.852220	-0.262125	-0.263410	0.093182	29.4468	-0.264498	-1373.19	-6.785806E-5	NaN
1088	1.000000	0.863533	7.3757e+06	-54539.1	1055.82	-29743.3	0.000000	0.000000	6.863068	0.027601	NaN	0.000000	0.001589	0.001708	28.0853	0.089913	0.002056	43.7299	52.9647	-164.799	0.113662	0.862188	-0.252098	-0.253443	0.027601	43.7299	-0.252571	-900.915	-3.063660E-5	NaN
1088	1.000000	0.873566	7.3757e+06	-54539.1	1055.82	-29743.3	0.000000	0.000000	6.873100	0.001956	NaN	0.000000	0.001587	0.001690	28.0852	0.048211	0.001952	24.6982	158.95	14.7816	0.021676	0.872165	-0.242065	-0.243465	0.001956	24.6982	-0.242124	-620.439	-3.152602E-6	NaN
1088	1.000000	0.883585	7.3757e+06	-54539.1	1055.82	-29743.3	0.000000	0.000000	6.883122	0.066571	NaN	0.000000	0.001610	0.001665	28.0851	0.041295	0.001968	20.9801	160.305	-164.604	0.071535	0.882270	-0.232046	-0.233361	0.066571	20.9801	-0.234425	-470.137	-0.000142	NaN
1088	1.000000	0.893571	7.3757e+06	-54539.1	1055.82	-29743.3	0.000000	0.000000	6.893106	0.021004	NaN	0.000000	0.001591	0.001674	28.0853	0.053630	0.001964	27.3024	162.425	11.7126	0.059603	0.892175	-0.222060	-0.223456	0.021004	27.3024	-0.222637	-306.015	-6.863790E-5	NaN
1088	1.000000	0.903580	7.3757e+06	-54539.1	1055.82	-29743.3	0.000000	0.000000	6.903114	-0.004404	NaN	0.000000	0.001614	0.001669	28.085	0.103222	0.001923	53.6825	-84.9357	-164.131	0.038882	0.902273	-0.212051	-0.213358	-0.004404	53.6825	-0.211989	-206.531	2.132276E-5	NaN
1088	1.000000	0.913561	7.3757e+06	-54539.1	1055.82	-29743.3	0.000000	0.000000	6.913094	-0.003267	NaN	0.000000	0.001599	0.001615	28.085	0.048750	0.002046	23.8272	141.31	16.852	0.002428	0.912183	-0.202070	-0.203448	-0.003267	23.8272	-0.201967	-141.901	2.302004E-5	NaN
1088	1.000000	0.923566	7.3757e+06	-54539.1	1055.82	-29743.3	0.000000	0.000000	6.923102	0.043645	NaN	0.000000	0.001599	0.001691	28.0852	0.031851	0.001950	16.3335	-52.6832	-165.845	0.080336	0.922278	-0.192065	-0.193353	0.043645	16.3335	-0.194069	-105.14	-0.000415	NaN
1088	1.000000	0.933610	7.3757e+06	-54539.1	1055.82	-29743.3	0.000000	0.000000	6.933146	0.053324	NaN	0.000000	0.001620	0.001692	28.085	0.099037	0.002063	48.0107	-85.4961	16.8904	0.023122	0.932161	-0.182021	-0.183470	0.053324	48.0107	-0.182854	-68.2161	-0.000782	NaN
1088	1.000000	0.943576	7.3757e+06	-54539.1	1055.82	-29743.3	0.000000	0.000000	6.943111	0.028364	NaN	0.000000	0.001625	0.001695	28.085	0.134815	0.001979	68.1347	6.253584	-160.956	0.000331	0.942276	-0.172055	-0.173355	0.028364	68.1347	-0.172367	-45.1456	-0.000628	NaN
1088	1.000000	0.953604	7.3757e+06	-54539.1	1055.82	-29743.3	0.000000	0.000000	6.953138	0.004763	NaN	0.000000	0.001620	0.001720	28.085	0.057015	0.002001	28.4924	-83.0056	16.3926	0.059530	0.952236	-0.162027	-0.163395	0.004763	28.4924	-0.162153	-29.9322	-0.000159	NaN
1088	1.000000	0.963585	7.3757e+06	-54539.1	1055.82	-29743.3	0.000000	0.000000	6.963118	-0.018076	NaN	0.000000	0.001554	0.001701	28.0852	0.120826	0.002072	58.3199	-96.8194	-161.121	0.036183	0.962221	-0.152046	-0.153410	-0.018076	58.3199	-0.151813	-19.543	0.000925	NaN
1088	1.000000	0.973601	7.3757e+06	-54539.1	1055.82	-29743.3	0.000000	0.000000	6.973136	0.037436	NaN	0.000000	0.001584	0.001692	28.085	0.031833	0.001926	16.5316	-101.615	22.1871	0.057658	0.972265	-0.142030	-0.143366	0.037436	16.5316	-0.143729	-13.8868	-0.002696	NaN
1088	1.000000	0.983578	7.3757e+06	-54539.1	1055.82	-29743.3	0.000000	0.000000	6.983115	0.052188	NaN	0.000000	0.001594	0.001672	28.0838	0.053419	0.001917	27.8713	-2.685896	-167.62	0.124609	0.982267	-0.132052	-0.133364	0.052188	27.8713	-0.133457	-8.886887	-0.005872	NaN
1088	1.000000	0.993616	7.3757e+06	-54539.1	1055.82	-29743.3	0.000000	0.000000	6.993149	-0.014465	NaN	0.000000	0.001609	0.001621	28.0839	0.065267	0.002104	31.0229	-56.004	13.5789	0.017613	0.992177	-0.122015	-0.123454	-0.014465	31.0229	-0.121665	-5.218873	0.002772	NaN
1088	1.000000	1.003632	7.3757e+06	-54539.1	1055.82	-29743.3	0.000000	0.000000	7.003166	0.006041	NaN	0.000000	0.001588	0.001637	28.0839	0.096894	0.002071	46.792	-104.325	-165.055	0.093219	1.002335	-0.111999	-0.113296	0.006041	46.792	-0.112096	-3.325504	-0.001817	NaN
1088	1.000000	1.013634	7.3757e+06	-54539.1	1055.82	-29743.3	0.000000	0.000000	7.013167	-0.040458	NaN	0.000000	0.001586	0.001695	28.084	0.036236	0.001974	18.354	131.205	12.0493	-0.040577	1.012252	-0.101997	-0.103379	-0.040458	18.354	-0.100343	-1.859417	0.021759	NaN
1088	1.000000	1.023634	7.3757e+06	-54539.1	1055.82	-29743.3	0.000000	0.000000	7.023167	-0.030214	NaN	0.000000	0.001584	0.001651	28.0838	0.037175	0.001919	19.3722	-121.946	-166.109	-0.015037	1.022352	-0.091997	-0.093279	-0.030214	19.3722	-0.090827	-1.130250	0.026732	NaN
1088	1.000000	1.033637	7.3757e+06	-54539.1	1055.82	-29743.3	0.000000	0.000000	7.033175	0.107215	NaN	0.000000	0.001587	0.001641	28.084	0.075063	0.002008	37.387	-46.3108	16.659	0.067541	1.032254	-0.081994	-0.083377	0.107215	37.387	-0.084145	-0.783289	-0.136877	NaN
1088	1.000000	1.043635	7.3757e+06	-54539.1	1055.82	-29743.3	0.000000	0.000000	7.043171	0.048860	NaN	0.000000	0.001588	0.001659	28.0839	0.074564	0.001971	37.8372	-177.402	-165.109	0.081694	1.042321	-0.071996	-0.073309	0.048860	37.8372	-0.072965	-0.408783	-0.119526	NaN
1088	1.000000	1.053636	7.3757e+06	-54539.1	1055.82	-29743.3	0.000000	0.000000	7.053170	0.006013	NaN	0.000000	0.001610	0.001675	28.0839	0.104263	0.001945	53.6154	37.3557	13.582	0.071948	1.052293	-0.061995	-0.063337	0.006013	53.6154	-0.062079	-0.206408	-0.029133	NaN
1088	1.000000	1.063641	7.3757e+06	-54539.1	1055.82	-29743.3	0.000000	0.000000	7.063177	0.035807	NaN	0.000000	0.001590	0.001653	28.084	0.085548	0.001971	43.4129	56.5292	-165.976	-0.031815	1.062342	-0.051990	-0.053289	0.035807	43.4129	-0.052608	-0.109322	-0.327539	NaN
1088	1.000000	1.073645	7.3757e+06	-54539.1	1055.82	-29743.3	0.000000	0.000000	7.073181	0.041382	NaN	0.000000	0.001577	0.001680	28.0842	0.113834	0.002085	54.6088	167.757	15.7541	0.076153	1.072238	-0.041986	-0.043393	0.041382	54.6088	-0.042554	-0.054100	-0.764916	NaN
1088	1.000000	1.083620	7.3757e+06	-54539.1	1055.82	-29743.3	0.000000	0.000000	7.083154	-0.001512	NaN	0.000000	0.001604	0.001643	28.084	0.051745	0.001889	27.3924	-46.1068	-166.572	0.040957	1.082376	-0.032011	-0.033254	-0.001512	27.3924	-0.031969	-0.026153	0.057800	NaN
1088	1.000000	1.093646	7.3757e+06	-54539.1	1055.82	-29743.3	0.000000	0.000000	7.093182	0.063544	NaN	0.000000	0.001559	0.001659	28.0841	0.038243	0.001836	20.8298	-83.5702	13.3905	-0.007554	1.092253	-0.021985	-0.023377	0.063544	20.8298	-0.024273	-0.016151	-3.934285	NaN
1088	1.000000	1.103649	7.3757e+06	-54539.1	1055.82	-29743.3	0.000000	0.000000	7.103184	0.028841	NaN	0.000000	0.001586	0.001666	28.0843	0.093455	0.002060	45.3656	167.651	-166.369	-0.009060	1.102333	-0.011982	-0.013298	0.028841	45.3656	-0.012459	-0.007791	-3.701715	NaN
1088	1.000000	1.113615	7.3757e+06	-54539.1	1055.82	-29743.3	0.000000	0.000000	7.113247	2.368510	NaN	0.000000	0.001579	0.001644	28.0846	3.005693	0.001880	1599	5.791964	13.3375	0.887945	1.112312	-0.002016	-0.003319	2.368510	1599	-0.003127	-0.002205	-1074.15	NaN
1088	2.000000	1.119307	7.3757e+06	-54539.1	1055.82	-29743.3	0.000000	0.000000	7.119297	11.1047	NaN	0.000000	0.001581	0.001646	28.0856	9.614707	0.001801	5338.92	6.777864	-170.967	10.3891	1.118973	0.003676	0.003342	11.1047	5338.92	0.002116	0.001649	6735.83	120135
1088	2.000000	1.121797	7.3757e+06	-54539.1	1055.82	-29743.3	0.000000	0.000000	7.122005	16.3887	NaN	0.000000	0.001615	0.001627	28.0853	12.1214	0.001779	6815.3	8.413414	7.688089	15.5816	1.121458	0.006166	0.005828	16.3887	6815.3	0.004363	0.003559	4604.5	104370
1088	2.000000	1.124210	7.3757e+06	-54539.1	1055.82	-29743.3	0.000000	0.000000	7.124561	19.8514	NaN	0.000000	0.001575	0.001661	28.0853	14.4568	0.001705	8481.39	6.321250	-173.828	19.3481	1.123926	0.008579	0.008296	19.8514	8481.39	0.006824	0.005860	3387.48	101224
1088	2.000000	1.126732	7.3757e+06	-54539.1	1055.82	-29743.3	0.000000	0.000000	7.127193	22.5189	NaN	0.000000	0.001608	0.001687	28.0854	17.3091	0.001696	10208.1	5.114638	5.134725	21.092	1.126348	0.011102	0.010718	22.5189	10208.1	0.009447	0.008573	2626.59	100725
1088	2.000000	1.129237	7.3757e+06	-54539.1	1055.82	-29743.3	0.000000	0.000000	7.129951	28.6977	NaN	0.000000	0.001576	0.001683	28.0856	20.9427	0.001863	11238.8	9.232010	179.388	27.714	1.128892	0.013606	0.013262	28.6977	11238.8	0.011691	0.011122	2580.37	97367
1088	2.000000	1.131735	7.3757e+06	-54539.1	1055.82	-29743.3	0.000000	0.000000	7.132714	35.1354	NaN	0.000000	0.001595	0.001661	28.0851	22.2967	0.001768	12613.8	3.674542	5.517454	35.0823	1.131336	0.016104	0.015705	35.1354	12613.8	0.014015	0.013994	2510.8	97421.1
1088	2.000000	1.134167	7.3757e+06	-54539.1	1055.82	-29743.3	0.000000	0.000000	7.135438	42.226	NaN	0.000000	0.001576	0.001671	28.0854	24.6496	0.001779	13857.8	6.910549	-179.351	40.5538	1.133873	0.018536	0.018242	42.226	13857.8	0.016251	0.016990	2485.33	97133.9
1088	2.000000	1.136704	7.3757e+06	-54539.1	1055.82	-29743.3	0.000000	0.000000	7.138039	43.7808	NaN	0.000000	0.001594	0.001661	28.0851	27.3205	0.001919	14234	7.517886	-0.253437	42.9298	1.136328	0.021074	0.020697	43.7808	14234	0.018767	0.020641	2121.03	90517.6
1088	2.000000	1.139180	7.3757e+06	-54539.1	1055.82	-29743.3	0.000000	0.000000	7.140844	51.7769	NaN	0.000000	0.001604	0.001656	28.0853	28.416	0.001661	17108.6	3.686898	-178.215	49.8628	1.138824	0.023549	0.023193	51.7769	17108.6	0.021280	0.024593	2105.34	99673.5
1088	2.000000	1.141687	7.3757e+06	-54539.1	1055.82	-29743.3	0.000000	0.000000	7.143647	58.983	NaN	0.000000	0.001562	0.001672	28.0851	30.2255	0.001770	17077.6	2.667146	4.047008	56.9531	1.141355	0.026056	0.025724	58.983	17077.6	0.023466	0.028283	2085.43	92775.6
1088	2.000000	1.144192	7.3757e+06	-54539.1	1055.82	-29743.3	0.000000	0.000000	7.146367	64.2066	NaN	0.000000	0.001546	0.001668	28.0856	32.4694	0.001849	17565.1	1.858032	-175.81	63.1586	1.143881	0.028561	0.028250	64.2066	17565.1	0.025820	0.032524	1974.12	88985.7
1088	2.000000	1.146673	7.3757e+06	-54539.1	1055.82	-29743.3	0.000000	0.000000	7.149403	77.6926	NaN	0.000000	0.001526	0.001671	28.0848	36.5847	0.001809	20220.4	5.693325	-1.181821	74.8217	1.146279	0.031042	0.030648	77.6926	20220.4	0.028161	0.037018	2098.79	96019.3
1088	2.000000	1.149152	7.3757e+06	-54539.1	1055.82	-29743.3	0.000000	0.000000	7.151910	78.3779	NaN	0.000000	0.001515	0.001702	28.0852	38.9785	0.001795	21714.4	4.135837	178.765	76.2132	1.148963	0.033521	0.033332	78.3779	21714.4	0.030814	0.042448	1846.44	96292.3
1088	2.000000	1.151660	7.3757e+06	-54539.1	1055.82	-29743.3	0.000000	0.000000	7.155043	93.5641	NaN	0.000000	0.001600	0.001709	28.0837	40.7981	0.001798	22685.7	3.657417	0.163239	91.0937	1.151237	0.036029	0.035606	93.5641	22685.7	0.032936	0.047049	1988.64	95554
1088	2.000000	1.154189	7.3757e+06	-54539.1	1055.82	-29743.3	0.000000	0.000000	7.157829	99.8107	NaN	0.000000	0.001581	0.001685	28.0845	43.6832	0.001944	22465.9	6.097639	178.905	100.049	1.153747	0.038558	0.038116	99.8107	22465.9	0.035226	0.052273	1909.4	89775.1
1088	2.000000	1.156679	7.3757e+06	-54539.1	1055.82	-29743.3	0.000000	0.000000	7.160891	113.726	NaN	0.000000	0.001637	0.001692	28.0836	45.2587	0.001791	25273.8	6.834975	-3.613919	111.847	1.156290	0.041048	0.040659	113.726	25273.8	0.037673	0.058154	1955.61	95753.7
1088	2.000000	1.159146	7.3757e+06	-54539.1	1055.82	-29743.3	0.000000	0.000000	7.163703	122.108	NaN	0.000000	0.001609	0.001725	28.0838	48.4003	0.001844	26244.5	2.886158	179.428	120.716	1.158874	0.043515	0.043243	122.108	26244.5	0.040026	0.064095	1905.12	94711.1
1088	2.000000	1.161726	7.3757e+06	-54539.1	1055.82	-29743.3	0.000000	0.000000	7.166684	131.847	NaN	0.000000	0.001593	0.001688	28.0839	50.622	0.001769	28611.1	7.119459	-4.608846	133.662	1.161320	0.046095	0.045689	131.847	28611.1	0.042639	0.071026	1856.33	98084.2
1088	2.000000	1.164212	7.3757e+06	-54539.1	1055.82	-29743.3	0.000000	0.000000	7.169578	141.791	NaN	0.000000	0.001579	0.001652	28.0839	52.604	0.001810	29060.7	6.152429	175.556	144.305	1.163824	0.048581	0.048194	141.791	29060.7	0.044921	0.077364	1832.77	95457.3
1088	2.000000	1.166605	7.3757e+06	-54539.1	1055.82	-29743.3	0.000000	0.000000	7.172574	156.434	NaN	0.000000	0.001593	0.001658	28.0836	54.5141	0.001749	31169.5	5.293281	-4.293845	151.469	1.166234	0.050974	0.050603	156.434	31169.5	0.047210	0.083985	1862.63	98265.5
1088	2.000000	1.169150	7.3757e+06	-54539.1	1055.82	-29743.3	0.000000	0.000000	7.175508	165.886	NaN	0.000000	0.001661	0.001673	28.0836	57.5992	0.001724	33408.8	3.960128	176.875	165.479	1.168873	0.053520	0.053242	165.886	33408.8	0.049796	0.091782	1807.38	100752
1088	2.000000	1.171733	7.3757e+06	-54539.1	1055.82	-29743.3	0.000000	0.000000	7.178661	179.765	NaN	0.000000	0.001659	0.001674	28.0839	60.0808	0.001794	33495	8.044893	-7.649957	180.91	1.171229	0.056102	0.055598	179.765	33495	0.052077	0.098940	1816.92	97290
1088	2.000000	1.174023	7.3757e+06	-54539.1	1055.82	-29743.3	0.000000	0.000000	7.181464	192.23	NaN	0.000000	0.001659	0.001670	28.0838	61.1007	0.001726	35405.8	2.391349	177.41	189.348	1.173867	0.058392	0.058236	192.23	35405.8	0.054320	0.106233	1809.52	99247
1088	2.000000	1.176575	7.3757e+06	-54539.1	1055.82	-29743.3	0.000000	0.000000	7.184544	205.042	NaN	0.000000	0.001663	0.001666	28.0837	64.1327	0.001688	37999.9	4.230619	-5.285195	199.525	1.176340	0.060944	0.060710	205.042	37999.9	0.056897	0.114919	1784.24	102414
1088	2.000000	1.179067	7.3757e+06	-54539.1	1055.82	-29743.3	0.000000	0.000000	7.187626	219.402	NaN	0.000000	0.001671	0.001648	28.0838	67.4214	0.001877	35911.8	4.176432	175.639	216.346	1.178873	0.063436	0.063242	219.402	35911.8	0.058854	0.121732	1802.34	94039.2
1088	2.000000	1.181611	7.3757e+06	-54539.1	1055.82	-29743.3	0.000000	0.000000	7.190854	236.031	NaN	0.000000	0.001641	0.001680	28.0838	68.6836	0.001793	38301.9	2.893434	-3.529902	232.286	1.181241	0.065980	0.065610	236.031	38301.9	0.061358	0.130724	1805.57	96787
1088	2.000000	1.184094	7.3757e+06	-54539.1	1055.82	-29743.3	0.000000	0.000000	7.194055	253.5	NaN	0.000000	0.001678	0.001664	28.0837	70.0001	0.001681	41637.3	7.090284	171.191	251.318	1.183779	0.068463	0.068148	253.5	41637.3	0.063897	0.140151	1808.77	101615
1088	2.000000	1.186486	7.3757e+06	-54539.1	1055.82	-29743.3	0.000000	0.000000	7.196874	263.866	NaN	0.000000	0.001672	0.001652	28.085	74.1508	0.001778	41712.6	4.507723	-5.832964	253.765	1.186125	0.070855	0.070494	263.866	41712.6	0.066110	0.148626	1775.37	98853.7
1088	2.000000	1.189075	7.3757e+06	-54539.1	1055.82	-29743.3	0.000000	0.000000	7.200105	279.474	NaN	0.000000	0.001663	0.001644	28.0851	77.0147	0.001861	41391.2	1.769750	177.343	275.232	1.188823	0.073444	0.073192	279.474	41391.2	0.068380	0.157559	1773.77	95270.9
1088	2.000000	1.191628	7.3757e+06	-54539.1	1055.82	-29743.3	0.000000	0.000000	7.203441	298.526	NaN	0.000000	0.001669	0.001677	28.0851	79.9871	0.001899	42129.4	9.101317	-9.682183	298.375	1.191189	0.075997	0.075558	298.526	42129.4	0.070682	0.166874	1788.93	94224.4
1088	2.000000	1.194079	7.3757e+06	-54539.1	1055.82	-29743.3	0.000000	0.000000	7.206804	320.676	NaN	0.000000	0.001695	0.001665	28.0849	81.0316	0.001727	46926.5	4.317217	174.522	316.951	1.193643	0.078448	0.078012	320.676	46926.5	0.073323	0.177866	1802.91	101659
1088	2.000000	1.196626	7.3757e+06	-54539.1	1055.82	-29743.3	0.000000	0.000000	7.210193	341.153	NaN	0.000000	0.001573	0.001667	28.0848	83.0144	0.001844	45014.1	2.922160	-4.296287	339.415	1.196243	0.080995	0.080612	341.153	45014.1	0.075311	0.186361	1830.61	95267.5
1088	2.000000	1.199197	7.3757e+06	-54539.1	1055.82	-29743.3	0.000000	0.000000	7.213294	354.032	NaN	0.000000	0.001617	0.001669	28.0848	85.8344	0.001772	48451.3	5.132244	172.863	355.377	1.198753	0.083566	0.083122	354.032	48451.3	0.078086	0.198526	1783.3	99350.3
1088	2.000000	1.201653	7.3757e+06	-54539.1	1055.82	-29743.3	0.000000	0.000000	7.216596	374.59	NaN	0.000000	0.001554	0.001680	28.0849	87.4321	0.001666	52488.5	5.356639	-7.543779	373.423	1.201321	0.086022	0.085691	374.59	52488.5	0.080670	0.210179	1782.24	104603
1088	2.000000	1.204151	7.3757e+06	-54539.1	1055.82	-29743.3	0.000000	0.000000	7.220151	400.293	NaN	0.000000	0.001598	0.001638	28.0847	90.8763	0.001851	49099.1	11.8469	167.118	400.412	1.203573	0.088520	0.087942	400.293	49099.1	0.082406	0.218182	1834.67	96036.7
1088	2.000000	1.206547	7.3757e+06	-54539.1	1055.82	-29743.3	0.000000	0.000000	7.223110	413.994	NaN	0.000000	0.001581	0.001664	28.0846	92.659	0.001786	51881.3	5.038001	-7.819329	409.423	1.206263	0.090916	0.090632	413.994	51881.3	0.084931	0.230074	1799.39	98821.1
1088	2.000000	1.209159	7.3757e+06	-54539.1	1055.82	-29743.3	0.000000	0.000000	7.226112	423.449	NaN	0.000000	0.001593	0.001688	28.0847	95.105	0.001756	54151.3	0.996598	175.758	423.494	1.208915	0.093528	0.093284	423.449	54151.3	0.087663	0.243271	1740.65	100308
1088	2.000000	1.211489	7.3757e+06	-54539.1	1055.82	-29743.3	0.000000	0.000000	7.229675	453.456	NaN	0.000000	0.001619	0.001672	28.0846	96.1045	0.001694	56746.9	5.220771	-8.220537	444.83	1.211122	0.095858	0.095491	453.456	56746.9	0.089865	0.254152	1784.19	102841
1088	2.000000	1.214100	7.3757e+06	-54539.1	1055.82	-29743.3	0.000000	0.000000	7.233294	477.945	NaN	0.000000	0.001605	0.001664	28.0848	98.8218	0.001825	54162.7	5.237867	172.155	476.4	1.213639	0.098470	0.098008	477.945	54162.7	0.091851	0.264165	1809.26	96279.8
1088	2.000000	1.216029	7.3757e+06	-54539.1	1055.82	-29743.3	0.000000	0.000000	7.235728	490.204	NaN	0.000000	0.001609	0.001674	28.085	102.174	0.001823	56053.7	5.745188	171.191	485.443	1.215732	0.100398	0.100101	490.204	56053.7	0.093839	0.274366	1786.68	97771.5