File: remote_trans/data/nanoindenter/0828-1/data/Data_2025-08-06,11h17m57s/2025-07-22_16-23-58_1_604.txt
2025-07-22, 16:23:58, 1
Index	Phase	Displacement	Time	Pos X	Pos Y	Pos Z	Rot A	Rot B	Piezo Z	Force A	Force B	Gripper	Voltage A	Voltage B	Temperature	Amplitude force	Amplitude pos	Stiffness	Phase shift	Phase excitation	Force A raw	Displacement raw	HMax	HMax raw	Real Force	Real Stiffness	Contact Depth	Area	Hardness	Reduced Mod.
[#]	[#]	[um]	[s]	[um]	[um]	[um]	[m°]	[m°]	[um]	[uN]	[uN]	[V]	[V]	[V]	[°C]	[uN]	[um]	[N/m]	[°]	[°]	[uN]	[um]	[um]	[um]	[uN]	[N/m]	[um]	[um^2]	[MPa]	[MPa]
604	1.000000	0.002680	7.37096e+06	-46889.1	1005.82	-29767.7	0.000000	0.000000	6.002817	0.035791	NaN	0.000000	0.001536	0.001730	28.0815	0.121248	0.000942	128.674	-109.953	-160.449	0.082534	0.001423	-1.148160	-1.149417	0.035791	128.674	-1.148369	-2.233336E+15	-1.602558E-17	NaN
604	1.000000	0.012738	7.37096e+06	-46889.1	1005.82	-29767.7	0.000000	0.000000	6.012879	0.111054	NaN	0.000000	0.001546	0.001764	28.0812	0.093429	0.001160	80.5688	159.274	15.9324	0.007692	0.011255	-1.138102	-1.139585	0.111054	80.5688	-1.139135	-1.679359E+15	-6.612882E-17	NaN
604	1.000000	0.022630	7.37096e+06	-46889.1	1005.82	-29767.7	0.000000	0.000000	6.022770	0.070873	NaN	0.000000	0.001489	0.001774	28.0809	0.022672	0.001626	13.9468	-160	-167.023	0.072606	0.021268	-1.128210	-1.129572	0.070873	13.9468	-1.132021	-1.348118E+15	-5.257199E-17	NaN
604	1.000000	0.032636	7.37096e+06	-46889.1	1005.82	-29767.7	0.000000	0.000000	6.032774	0.037181	NaN	0.000000	0.001522	0.001757	28.0811	0.039058	0.001928	20.2604	-113.194	13.5457	0.048681	0.031225	-1.118204	-1.119615	0.037181	20.2604	-1.119581	-9.180028E+14	-4.050156E-17	NaN
604	1.000000	0.042620	7.37096e+06	-46889.1	1005.82	-29767.7	0.000000	0.000000	6.042756	-0.019783	NaN	0.000000	0.001534	0.001729	28.0811	0.067762	0.002024	33.4711	105.224	-165.714	-0.017310	0.041300	-1.108220	-1.109540	-0.019783	33.4711	-1.107776	-6.374483E+14	3.103468E-17	NaN
604	1.000000	0.052604	7.37096e+06	-46889.1	1005.82	-29767.7	0.000000	0.000000	6.052738	-0.064695	NaN	0.000000	0.001548	0.001768	28.0812	0.030812	0.001972	15.6253	148.797	15.7955	-0.023054	0.051314	-1.098236	-1.099526	-0.064695	15.6253	-1.095131	-4.312224E+14	1.500265E-16	NaN
604	1.000000	0.062600	7.37096e+06	-46889.1	1005.82	-29767.7	0.000000	0.000000	6.062734	-0.046546	NaN	0.000000	0.001523	0.001777	28.0824	0.047813	0.001968	24.2913	102.789	-163.111	-0.022145	0.061275	-1.088240	-1.089565	-0.046546	24.2913	-1.086803	-3.333388E+14	1.396348E-16	NaN
604	1.000000	0.072618	7.37096e+06	-46889.1	1005.82	-29767.7	0.000000	0.000000	6.072755	0.027172	NaN	0.000000	0.001530	0.001784	28.0822	0.040948	0.002080	19.6822	-73.0962	13.21	0.000919	0.071248	-1.078222	-1.079592	0.027172	19.6822	-1.079258	-2.639676E+14	-1.029357E-16	NaN
604	1.000000	0.082620	7.37096e+06	-46889.1	1005.82	-29767.7	0.000000	0.000000	6.082756	0.005422	NaN	0.000000	0.001503	0.001776	28.0823	0.082691	0.002009	41.166	-177.419	-167.998	-0.023578	0.081368	-1.068220	-1.069472	0.005422	41.166	-1.068319	-1.881934E+14	-2.880823E-17	NaN
604	1.000000	0.092621	7.37096e+06	-46889.1	1005.82	-29767.7	0.000000	0.000000	6.092760	0.055173	NaN	0.000000	0.001516	0.001794	28.0824	0.033343	0.002033	16.4042	104.971	14.7182	0.025447	0.091294	-1.058219	-1.059546	0.055173	16.4042	-1.060741	-1.488617E+14	-3.706355E-16	NaN
604	1.000000	0.102599	7.37096e+06	-46889.1	1005.82	-29767.7	0.000000	0.000000	6.102737	0.050964	NaN	0.000000	0.001544	0.001736	28.0821	0.080646	0.001930	41.777	-138.316	-166.875	0.063865	0.101303	-1.048241	-1.049537	0.050964	41.777	-1.049156	-1.040087E+14	-4.900022E-16	NaN
604	1.000000	0.112649	7.37096e+06	-46889.1	1005.82	-29767.7	0.000000	0.000000	6.112787	0.038743	NaN	0.000000	0.001524	0.001775	28.0826	0.042957	0.002015	21.323	174.864	10.5044	-0.028522	0.111328	-1.038191	-1.039512	0.038743	21.323	-1.039554	-7.726241E+13	-5.014459E-16	NaN
604	1.000000	0.122657	7.37096e+06	-46889.1	1005.82	-29767.7	0.000000	0.000000	6.122793	0.012227	NaN	0.000000	0.001567	0.001767	28.082	0.039115	0.001970	19.8514	-9.214870	-165.476	0.027339	0.121331	-1.028183	-1.029509	0.012227	19.8514	-1.028645	-5.511373E+13	-2.218589E-16	NaN
604	1.000000	0.132613	7.37096e+06	-46889.1	1005.82	-29767.7	0.000000	0.000000	6.132749	-0.007065	NaN	0.000000	0.001569	0.001800	28.082	0.101421	0.001981	51.1902	59.1571	14.8908	-0.012684	0.131320	-1.018227	-1.019520	-0.007065	51.1902	-1.018124	-3.978380E+13	1.775753E-16	NaN
604	1.000000	0.142628	7.37096e+06	-46889.1	1005.82	-29767.7	0.000000	0.000000	6.142765	0.020115	NaN	0.000000	0.001550	0.001787	28.082	0.085155	0.002009	42.3844	71.157	-168.26	0.045468	0.141330	-1.008212	-1.009511	0.020115	42.3844	-1.008568	-2.958730E+13	-6.798693E-16	NaN
604	1.000000	0.152653	7.37096e+06	-46889.1	1005.82	-29767.7	0.000000	0.000000	6.152791	0.038326	NaN	0.000000	0.001591	0.001792	28.0826	0.029545	0.002028	14.572	-154.933	13.8405	0.017745	0.151316	-0.998187	-0.999524	0.038326	14.572	-1.000160	-2.279908E+13	-1.681034E-15	NaN
604	1.000000	0.162636	7.37096e+06	-46889.1	1005.82	-29767.7	0.000000	0.000000	6.162773	0.031296	NaN	0.000000	0.001574	0.001751	28.0822	0.021119	0.002051	10.2991	76.3081	-165.784	0.046514	0.161364	-0.988204	-0.989476	0.031296	10.2991	-0.990483	-1.688964E+13	-1.853000E-15	NaN
604	1.000000	0.172641	7.37096e+06	-46889.1	1005.82	-29767.7	0.000000	0.000000	6.172778	0.030522	NaN	0.000000	0.001627	0.001771	28.0823	0.116036	0.001993	58.227	166.33	15.5675	0.113063	0.171312	-0.978199	-0.979528	0.030522	58.227	-0.978593	-1.168017E+13	-2.613187E-15	NaN
604	1.000000	0.182663	7.37096e+06	-46889.1	1005.82	-29767.7	0.000000	0.000000	6.182801	0.041298	NaN	0.000000	0.001641	0.001755	28.0823	0.057848	0.002064	28.0281	-102.519	-164.21	0.049848	0.181374	-0.968177	-0.969466	0.041298	28.0281	-0.969282	-8.749590E+12	-4.720000E-15	NaN
604	1.000000	0.192668	7.37096e+06	-46889.1	1005.82	-29767.7	0.000000	0.000000	6.192806	0.029540	NaN	0.000000	0.001635	0.001801	28.0827	0.097010	0.001921	50.5119	155.734	16.7389	0.091780	0.191301	-0.958172	-0.959539	0.029540	50.5119	-0.958611	-6.282561E+12	-4.701967E-15	NaN
604	1.000000	0.202694	7.37096e+06	-46889.1	1005.82	-29767.7	0.000000	0.000000	6.202832	0.045180	NaN	0.000000	0.001573	0.001763	28.0812	0.070126	0.002033	34.4879	110.694	-167.199	0.021549	0.201345	-0.948146	-0.949495	0.045180	34.4879	-0.949129	-4.680360E+12	-9.653075E-15	NaN
604	1.000000	0.212686	7.37096e+06	-46889.1	1005.82	-29767.7	0.000000	0.000000	6.212820	-0.042609	NaN	0.000000	0.001532	0.001778	28.0813	0.105608	0.001867	56.5518	-177.368	12.1339	-0.040060	0.211293	-0.938154	-0.939547	-0.042609	56.5518	-0.937589	-3.270477E+12	1.302847E-14	NaN
604	1.000000	0.222698	7.37096e+06	-46889.1	1005.82	-29767.7	0.000000	0.000000	6.222834	-0.010983	NaN	0.000000	0.001533	0.001757	28.0813	0.073536	0.001962	37.4721	160.663	-167.032	0.003598	0.221378	-0.928142	-0.929462	-0.010983	37.4721	-0.927922	-2.421904E+12	4.534924E-15	NaN
604	1.000000	0.232696	7.37096e+06	-46889.1	1005.82	-29767.7	0.000000	0.000000	6.232836	0.091049	NaN	0.000000	0.001517	0.001764	28.0815	0.028951	0.002171	13.334	60.3029	12.6318	0.090449	0.231283	-0.918144	-0.919557	0.091049	13.334	-0.923265	-2.095492E+12	-4.344986E-14	NaN
604	1.000000	0.242696	7.37096e+06	-46889.1	1005.82	-29767.7	0.000000	0.000000	6.242834	0.030318	NaN	0.000000	0.001536	0.001703	28.0814	0.032533	0.002018	16.1186	-79.3105	-164.328	-0.024561	0.241366	-0.908144	-0.909474	0.030318	16.1186	-0.909555	-1.368194E+12	-2.215922E-14	NaN
604	1.000000	0.252694	7.37096e+06	-46889.1	1005.82	-29767.7	0.000000	0.000000	6.252830	-0.012794	NaN	0.000000	0.001543	0.001721	28.0814	0.108165	0.002031	53.2526	-164.641	15.3423	-0.060382	0.251317	-0.898146	-0.899523	-0.012794	53.2526	-0.897966	-9.540650E+11	1.340949E-14	NaN
604	1.000000	0.262684	7.37096e+06	-46889.1	1005.82	-29767.7	0.000000	0.000000	6.262822	0.039270	NaN	0.000000	0.001526	0.001746	28.0816	0.108425	0.001850	58.6107	71.1152	-167.288	0.042307	0.261439	-0.888156	-0.889401	0.039270	58.6107	-0.888658	-7.141322E+11	-5.498949E-14	NaN
604	1.000000	0.272725	7.37096e+06	-46889.1	1005.82	-29767.7	0.000000	0.000000	6.272863	0.042569	NaN	0.000000	0.001517	0.001746	28.0812	0.032451	0.001963	16.5299	-179.714	12.2551	0.037171	0.271402	-0.878115	-0.879438	0.042569	16.5299	-0.880047	-5.461836E+11	-7.793939E-14	NaN
604	1.000000	0.282706	7.37096e+06	-46889.1	1005.82	-29767.7	0.000000	0.000000	6.282842	-0.019009	NaN	0.000000	0.001529	0.001765	28.0814	0.061778	0.001935	31.9298	-42.3477	-164.618	0.031652	0.281396	-0.868134	-0.869444	-0.019009	31.9298	-0.867687	-3.716672E+11	5.114466E-14	NaN
604	1.000000	0.292702	7.37096e+06	-46889.1	1005.82	-29767.7	0.000000	0.000000	6.292840	0.040242	NaN	0.000000	0.001504	0.001753	28.0812	0.079235	0.001981	39.9955	168.863	12.4792	0.090475	0.291347	-0.858138	-0.859493	0.040242	39.9955	-0.858892	-2.825711E+11	-1.424128E-13	NaN
604	1.000000	0.302709	7.37096e+06	-46889.1	1005.82	-29767.7	0.000000	0.000000	6.302844	-0.047648	NaN	0.000000	0.001517	0.001774	28.0813	0.189447	0.002056	92.1314	-41.8377	-167.158	-0.029878	0.301420	-0.848131	-0.849420	-0.047648	92.1314	-0.847743	-1.996043E+11	2.387122E-13	NaN
604	1.000000	0.312727	7.37096e+06	-46889.1	1005.82	-29767.7	0.000000	0.000000	6.312866	0.069086	NaN	0.000000	0.001503	0.001768	28.0811	0.052039	0.001908	27.2792	-82.8044	15.7098	0.046718	0.311375	-0.838113	-0.839465	0.069086	27.2792	-0.840012	-1.568404E+11	-4.404842E-13	NaN
604	1.000000	0.322743	7.37096e+06	-46889.1	1005.82	-29767.7	0.000000	0.000000	6.322880	0.005093	NaN	0.000000	0.001547	0.001771	28.0812	0.059957	0.001912	31.3525	69.9874	-169.465	-0.000196	0.321401	-0.828097	-0.829439	0.005093	31.3525	-0.828219	-1.085518E+11	-4.692177E-14	NaN
604	1.000000	0.332748	7.37096e+06	-46889.1	1005.82	-29767.7	0.000000	0.000000	6.332887	0.072440	NaN	0.000000	0.001532	0.001774	28.0823	0.025433	0.002023	12.5694	-38.1945	11.6036	0.082362	0.331359	-0.818092	-0.819481	0.072440	12.5694	-0.822414	-9.056267E+10	-7.998893E-13	NaN
604	1.000000	0.342744	7.37096e+06	-46889.1	1005.82	-29767.7	0.000000	0.000000	6.342880	-0.021096	NaN	0.000000	0.001484	0.001746	28.0826	0.039045	0.002028	19.2492	-8.584784	-167.351	0.018841	0.341434	-0.808096	-0.809406	-0.021096	19.2492	-0.807274	-5.643908E+10	3.737854E-13	NaN
604	1.000000	0.352734	7.37096e+06	-46889.1	1005.82	-29767.7	0.000000	0.000000	6.352871	0.031447	NaN	0.000000	0.001501	0.001766	28.0826	0.035571	0.002001	17.7739	61.7094	12.9555	0.033968	0.351348	-0.798107	-0.799492	0.031447	17.7739	-0.799433	-4.417460E+10	-7.118824E-13	NaN
604	1.000000	0.362770	7.37096e+06	-46889.1	1005.82	-29767.7	0.000000	0.000000	6.362907	0.022276	NaN	0.000000	0.001517	0.001768	28.0826	0.108577	0.001961	55.3712	-129.824	-163.312	0.025078	0.361437	-0.788070	-0.789403	0.022276	55.3712	-0.788372	-3.125843E+10	-7.126440E-13	NaN
604	1.000000	0.372731	7.37096e+06	-46889.1	1005.82	-29767.7	0.000000	0.000000	6.372869	0.052175	NaN	0.000000	0.001518	0.001797	28.0827	0.017578	0.002109	8.334573	96.076	13.9322	0.110476	0.371352	-0.778109	-0.779488	0.052175	8.334573	-0.782804	-2.626264E+10	-1.986659E-12	NaN
604	1.000000	0.382727	7.37096e+06	-46889.1	1005.82	-29767.7	0.000000	0.000000	6.382865	0.056039	NaN	0.000000	0.001533	0.001779	28.0826	0.044421	0.001933	22.9843	58.2577	-164.837	0.073851	0.381433	-0.768113	-0.769407	0.056039	22.9843	-0.769942	-1.755975E+10	-3.191353E-12	NaN
604	1.000000	0.392760	7.37096e+06	-46889.1	1005.82	-29767.7	0.000000	0.000000	6.392897	0.020824	NaN	0.000000	0.001518	0.001769	28.0824	0.043494	0.001957	22.2259	22.4897	13.8554	-0.023669	0.391395	-0.758080	-0.759445	0.020824	22.2259	-0.758782	-1.238049E+10	-1.681988E-12	NaN
604	1.000000	0.402761	7.37096e+06	-46889.1	1005.82	-29767.7	0.000000	0.000000	6.402899	0.046919	NaN	0.000000	0.001535	0.001782	28.0824	0.020185	0.001847	10.9269	122.244	-166.138	0.023129	0.401404	-0.748079	-0.749436	0.046919	10.9269	-0.751300	-9.792913E+9	-4.791089E-12	NaN
604	1.000000	0.412806	7.37096e+06	-46889.1	1005.82	-29767.7	0.000000	0.000000	6.412943	0.025441	NaN	0.000000	0.001538	0.001764	28.0825	0.047380	0.002041	23.2166	-78.5313	13.7673	0.055532	0.411387	-0.738034	-0.739453	0.025441	23.2166	-0.738856	-6.629461E+9	-3.837496E-12	NaN
604	1.000000	0.422764	7.37096e+06	-46889.1	1005.82	-29767.7	0.000000	0.000000	6.422897	-0.059155	NaN	0.000000	0.001546	0.001763	28.0824	0.078304	0.002053	38.1492	100.195	-167.647	-0.017406	0.421493	-0.728077	-0.729347	-0.059155	38.1492	-0.726914	-4.557628E+9	1.297941E-11	NaN
604	1.000000	0.432793	7.37096e+06	-46889.1	1005.82	-29767.7	0.000000	0.000000	6.432930	0.015220	NaN	0.000000	0.001552	0.001777	28.0826	0.045590	0.002020	22.5697	-105.359	13.8496	0.090650	0.431390	-0.718047	-0.719450	0.015220	22.5697	-0.718553	-3.505407E+9	-4.341796E-12	NaN
604	1.000000	0.442780	7.37096e+06	-46889.1	1005.82	-29767.7	0.000000	0.000000	6.442918	0.029927	NaN	0.000000	0.001518	0.001747	28.0826	0.095568	0.001994	47.9395	-53.2747	-167.008	0.041602	0.441411	-0.708060	-0.709429	0.029927	47.9395	-0.708528	-2.558339E+9	-1.169793E-11	NaN
604	1.000000	0.452778	7.37096e+06	-46889.1	1005.82	-29767.7	0.000000	0.000000	6.452913	-0.032431	NaN	0.000000	0.001521	0.001769	28.0827	0.084580	0.001941	43.5712	28.2065	11.5426	-0.067816	0.451417	-0.698062	-0.699424	-0.032431	43.5712	-0.697504	-1.809000E+9	1.792780E-11	NaN
604	1.000000	0.462768	7.37096e+06	-46889.1	1005.82	-29767.7	0.000000	0.000000	6.462904	0.002869	NaN	0.000000	0.001481	0.001771	28.0824	0.066636	0.001953	34.1144	50.6877	-163.032	0.043850	0.461499	-0.688072	-0.689342	0.002869	34.1144	-0.688135	-1.347193E+9	-2.129633E-12	NaN
604	1.000000	0.472790	7.37096e+06	-46889.1	1005.82	-29767.7	0.000000	0.000000	6.472928	0.046213	NaN	0.000000	0.001535	0.001754	28.0812	0.022154	0.001966	11.2668	-6.075294	16.8259	-0.033952	0.471471	-0.678050	-0.679369	0.046213	11.2668	-0.681126	-1.080454E+9	-4.277228E-11	NaN
604	1.000000	0.482810	7.37096e+06	-46889.1	1005.82	-29767.7	0.000000	0.000000	6.482942	-0.084500	NaN	0.000000	0.001493	0.001760	28.0815	0.059350	0.001925	30.8385	-66.3438	-166.03	-0.012514	0.481462	-0.668031	-0.669378	-0.084500	30.8385	-0.665975	-6.703462E+8	1.260540E-10	NaN
604	1.000000	0.492763	7.37096e+06	-46889.1	1005.82	-29767.7	0.000000	0.000000	6.492898	-0.023821	NaN	0.000000	0.001531	0.001792	28.0813	0.027826	0.001966	14.1501	40.4607	12.9881	-0.039552	0.491408	-0.658077	-0.659432	-0.023821	14.1501	-0.656815	-5.021478E+8	4.743900E-11	NaN
604	1.000000	0.502767	7.37096e+06	-46889.1	1005.82	-29767.7	0.000000	0.000000	6.502903	-0.011992	NaN	0.000000	0.001584	0.001718	28.0814	0.032415	0.001907	16.997	49.8587	-167.238	0.055150	0.501494	-0.648073	-0.649346	-0.011992	16.997	-0.647544	-3.747696E+8	3.199942E-11	NaN
604	1.000000	0.512831	7.37096e+06	-46889.1	1005.82	-29767.7	0.000000	0.000000	6.512968	0.011238	NaN	0.000000	0.001575	0.001748	28.0813	0.085190	0.001967	43.311	0.547046	13.1838	0.066878	0.511505	-0.638009	-0.639335	0.011238	43.311	-0.638204	-2.790254E+8	-4.027710E-11	NaN
604	1.000000	0.522817	7.37096e+06	-46889.1	1005.82	-29767.7	0.000000	0.000000	6.522953	-0.003648	NaN	0.000000	0.001607	0.001770	28.0815	0.043033	0.001948	22.0923	-112.759	-166.318	0.044336	0.521541	-0.628023	-0.629299	-0.003648	22.0923	-0.627899	-2.014517E+8	1.811018E-11	NaN
604	1.000000	0.532827	7.37096e+06	-46889.1	1005.82	-29767.7	0.000000	0.000000	6.532964	0.020505	NaN	0.000000	0.001569	0.001819	28.0811	0.114381	0.002048	55.8551	60.2855	14.4161	0.040778	0.531492	-0.618013	-0.619348	0.020505	55.8551	-0.618288	-1.486281E+8	-1.379615E-10	NaN
604	1.000000	0.542834	7.37096e+06	-46889.1	1005.82	-29767.7	0.000000	0.000000	6.542972	0.031176	NaN	0.000000	0.001578	0.001812	28.0811	0.057347	0.001963	29.2201	-21.1576	-168.24	0.035777	0.541532	-0.608006	-0.609308	0.031176	29.2201	-0.608806	-1.100751E+8	-2.832276E-10	NaN
604	1.000000	0.552828	7.37096e+06	-46889.1	1005.82	-29767.7	0.000000	0.000000	6.552965	0.027653	NaN	0.000000	0.001565	0.001789	28.0814	0.035129	0.002096	16.7591	-123.264	15.0027	-0.057498	0.551444	-0.598012	-0.599396	0.027653	16.7591	-0.599250	-8.130628E+7	-3.401146E-10	NaN
604	1.000000	0.562811	7.37096e+06	-46889.1	1005.82	-29767.7	0.000000	0.000000	6.562946	-0.032263	NaN	0.000000	0.001568	0.001773	28.0812	0.023121	0.002082	11.1059	45.3128	-164.514	-0.113817	0.561535	-0.588029	-0.589305	-0.032263	11.1059	-0.585850	-5.314278E+7	6.071019E-10	NaN
604	1.000000	0.572825	7.37096e+06	-46889.1	1005.82	-29767.7	0.000000	0.000000	6.572964	0.063215	NaN	0.000000	0.001546	0.001765	28.0813	0.057921	0.001917	30.2074	-29.527	16.0303	0.005534	0.571444	-0.578015	-0.579396	0.063215	30.2074	-0.579585	-4.355060E+7	-1.451538E-9	NaN
604	1.000000	0.582823	7.37096e+06	-46889.1	1005.82	-29767.7	0.000000	0.000000	6.582960	0.026108	NaN	0.000000	0.001561	0.001803	28.0812	0.115739	0.001974	58.6446	-172.988	-167.015	-0.006757	0.581493	-0.568017	-0.569347	0.026108	58.6446	-0.568351	-3.046794E+7	-8.569067E-10	NaN
604	1.000000	0.592823	7.37096e+06	-46889.1	1005.82	-29767.7	0.000000	0.000000	6.592960	0.022375	NaN	0.000000	0.001585	0.001782	28.0814	0.097676	0.002019	48.3742	-158.6	16.214	0.082309	0.591475	-0.558017	-0.559365	0.022375	48.3742	-0.558364	-2.216866E+7	-1.009290E-9	NaN
604	1.000000	0.602839	7.37096e+06	-46889.1	1005.82	-29767.7	0.000000	0.000000	6.602976	0.011882	NaN	0.000000	0.001581	0.001770	28.0812	0.053979	0.001982	27.231	7.691702	-165.902	0.000869	0.601518	-0.548001	-0.549322	0.011882	27.231	-0.548328	-1.609896E+7	-7.380897E-10	NaN
604	1.000000	0.612864	7.37096e+06	-46889.1	1005.82	-29767.7	0.000000	0.000000	6.613001	0.026044	NaN	0.000000	0.001571	0.001725	28.0825	0.076704	0.001962	39.1013	97.0676	13.2164	0.110769	0.611465	-0.537976	-0.539375	0.026044	39.1013	-0.538475	-1.175472E+7	-2.215636E-9	NaN
604	1.000000	0.622830	7.37096e+06	-46889.1	1005.82	-29767.7	0.000000	0.000000	6.622966	-0.004643	NaN	0.000000	0.001521	0.001729	28.0826	0.074125	0.002096	35.358	-151.869	-162.566	-0.136706	0.621583	-0.528010	-0.529257	-0.004643	35.358	-0.527912	-8.38627e+06	5.536134E-10	NaN
604	1.000000	0.632863	7.37096e+06	-46889.1	1005.82	-29767.7	0.000000	0.000000	6.632999	0.000708	NaN	0.000000	0.001533	0.001759	28.0828	0.048173	0.001885	25.555	12.3105	16.5902	0.056416	0.631460	-0.517977	-0.519380	0.000708	25.555	-0.517998	-6.10596e+06	-1.160293E-10	NaN
604	1.000000	0.642857	7.37096e+06	-46889.1	1005.82	-29767.7	0.000000	0.000000	6.642995	0.031941	NaN	0.000000	0.001537	0.001755	28.0826	0.099296	0.002090	47.5205	65.372	-166.75	0.046445	0.641553	-0.507983	-0.509287	0.031941	47.5205	-0.508487	-4.50131e+06	-7.095879E-9	NaN
604	1.000000	0.652880	7.37096e+06	-46889.1	1005.82	-29767.7	0.000000	0.000000	6.653016	-0.007015	NaN	0.000000	0.001543	0.001762	28.0826	0.040626	0.001961	20.7191	-138.697	12.4376	-0.057025	0.651438	-0.497960	-0.499402	-0.007015	20.7191	-0.497706	-3.18426e+06	2.202916E-9	NaN
604	1.000000	0.662880	7.37096e+06	-46889.1	1005.82	-29767.7	0.000000	0.000000	6.663018	0.045343	NaN	0.000000	0.001548	0.001813	28.0827	0.025352	0.001954	12.9734	19.55	-167.395	0.060693	0.661607	-0.487960	-0.489233	0.045343	12.9734	-0.490581	-2.53229e+06	-1.790613E-8	NaN
604	1.000000	0.672844	7.37096e+06	-46889.1	1005.82	-29767.7	0.000000	0.000000	6.672982	0.026620	NaN	0.000000	0.001555	0.001838	28.0827	0.056599	0.001832	30.9015	-94.942	16.3413	0.085637	0.671491	-0.477996	-0.479349	0.026620	30.9015	-0.478642	-1.7239e+06	-1.544190E-8	NaN
604	1.000000	0.682918	7.37096e+06	-46889.1	1005.82	-29767.7	0.000000	0.000000	6.683054	-0.003694	NaN	0.000000	0.001527	0.001804	28.0824	0.034300	0.002010	17.0608	107.69	-164.956	0.002327	0.681592	-0.467922	-0.469248	-0.003694	17.0608	-0.467760	-1.21334e+06	3.044627E-9	NaN
604	1.000000	0.692875	7.37096e+06	-46889.1	1005.82	-29767.7	0.000000	0.000000	6.693012	0.013704	NaN	0.000000	0.001552	0.001810	28.0827	0.095479	0.002086	45.7735	-24.6162	15.0931	-0.018428	0.691514	-0.457965	-0.459326	0.013704	45.7735	-0.458189	-890362	-1.539179E-8	NaN
604	1.000000	0.702877	7.37096e+06	-46889.1	1005.82	-29767.7	0.000000	0.000000	6.703016	0.065666	NaN	0.000000	0.001510	0.001826	28.0827	0.075884	0.002115	35.8771	119.252	-167.787	0.102828	0.701553	-0.447963	-0.449287	0.065666	35.8771	-0.449336	-668328	-9.825377E-8	NaN
604	1.000000	0.712896	7.37096e+06	-46889.1	1005.82	-29767.7	0.000000	0.000000	6.713035	0.073380	NaN	0.000000	0.001537	0.001799	28.0827	0.064497	0.001959	32.9202	130.903	12.0135	0.002468	0.711491	-0.437944	-0.439349	0.073380	32.9202	-0.439616	-487467	-1.505340E-7	NaN
604	1.000000	0.722885	7.37096e+06	-46889.1	1005.82	-29767.7	0.000000	0.000000	6.723022	0.018757	NaN	0.000000	0.001520	0.001792	28.0828	0.101380	0.001926	52.6334	-126.18	-165.666	-0.040466	0.721586	-0.427955	-0.429254	0.018757	52.6334	-0.428222	-336436	-5.575205E-8	NaN
604	1.000000	0.732906	7.37096e+06	-46889.1	1005.82	-29767.7	0.000000	0.000000	6.733041	-0.030594	NaN	0.000000	0.001550	0.001788	28.0827	0.090271	0.001948	46.343	-54.8469	14.5842	0.023549	0.731548	-0.417934	-0.419292	-0.030594	46.343	-0.417439	-236634	1.292902E-7	NaN
604	1.000000	0.742904	7.37096e+06	-46889.1	1005.82	-29767.7	0.000000	0.000000	6.743039	-0.027436	NaN	0.000000	0.001533	0.001829	28.0817	0.038400	0.002058	18.6593	116.796	-166.383	-0.015717	0.741596	-0.407936	-0.409244	-0.027436	18.6593	-0.406833	-167243	1.640462E-7	NaN
604	1.000000	0.752919	7.37096e+06	-46889.1	1005.82	-29767.7	0.000000	0.000000	6.753057	0.037399	NaN	0.000000	0.001562	0.001846	28.0814	0.067952	0.001920	35.3858	110.258	13.8927	0.017967	0.751525	-0.397921	-0.399316	0.037399	35.3858	-0.398714	-128128	-2.918841E-7	NaN
604	1.000000	0.762889	7.37096e+06	-46889.1	1005.82	-29767.7	0.000000	0.000000	6.763028	0.051510	NaN	0.000000	0.001563	0.001840	28.0816	0.060850	0.001924	31.6321	106.22	-165.102	0.038959	0.761584	-0.387951	-0.389256	0.051510	31.6321	-0.389172	-93610.1	-5.502648E-7	NaN
604	1.000000	0.772904	7.37096e+06	-46889.1	1005.82	-29767.7	0.000000	0.000000	6.773039	-0.017950	NaN	0.000000	0.001546	0.001865	28.0816	0.053370	0.002041	26.1471	120.239	15.4528	-0.058030	0.771573	-0.377936	-0.379267	-0.017950	26.1471	-0.377421	-63513.7	2.826187E-7	NaN
604	1.000000	0.782917	7.37096e+06	-46889.1	1005.82	-29767.7	0.000000	0.000000	6.783050	-0.086714	NaN	0.000000	0.001543	0.001854	28.0816	0.030628	0.002005	15.2795	-48.5203	-166.282	-0.094551	0.781593	-0.367923	-0.369247	-0.086714	15.2795	-0.363667	-40254.2	2.154168E-6	NaN
604	1.000000	0.792899	7.37096e+06	-46889.1	1005.82	-29767.7	0.000000	0.000000	6.793038	0.057973	NaN	0.000000	0.001515	0.001847	28.0815	0.068993	0.002057	33.5473	129.119	14.0897	0.078649	0.791606	-0.357941	-0.359234	0.057973	33.5473	-0.359237	-34738.8	-1.668830E-6	NaN
604	1.000000	0.802912	7.37096e+06	-46889.1	1005.82	-29767.7	0.000000	0.000000	6.803048	-0.015198	NaN	0.000000	0.001546	0.001825	28.0815	0.043667	0.001938	22.5268	-159.544	-166.662	0.021127	0.801601	-0.347928	-0.349239	-0.015198	22.5268	-0.347422	-23418.7	6.489801E-7	NaN
604	1.000000	0.812952	7.37096e+06	-46889.1	1005.82	-29767.7	0.000000	0.000000	6.813088	0.014966	NaN	0.000000	0.001533	0.001878	28.0815	0.156542	0.002012	77.8078	122.322	14.5123	0.065491	0.811527	-0.337888	-0.339313	0.014966	77.8078	-0.338033	-17094.8	-8.754737E-7	NaN
604	1.000000	0.822930	7.37096e+06	-46889.1	1005.82	-29767.7	0.000000	0.000000	6.823065	-0.009796	NaN	0.000000	0.001538	0.001830	28.0811	0.082223	0.002099	39.1647	-63.5133	-167.138	-0.001991	0.821570	-0.327910	-0.329270	-0.009796	39.1647	-0.327723	-12080.5	8.108998E-7	NaN
604	1.000000	0.832938	7.37096e+06	-46889.1	1005.82	-29767.7	0.000000	0.000000	6.833073	-0.027284	NaN	0.000000	0.001530	0.001870	28.0814	0.040091	0.002098	19.1101	103.231	13.78	0.017370	0.831608	-0.317902	-0.319232	-0.027284	19.1101	-0.316832	-8355.35	3.265405E-6	NaN
604	1.000000	0.842943	7.37096e+06	-46889.1	1005.82	-29767.7	0.000000	0.000000	6.843080	0.027639	NaN	0.000000	0.001528	0.001836	28.0813	0.024978	0.002010	12.4272	-26.7947	-167.888	0.070651	0.841578	-0.307897	-0.309262	0.027639	12.4272	-0.309565	-6525.61	-4.235425E-6	NaN
604	1.000000	0.852947	7.37096e+06	-46889.1	1005.82	-29767.7	0.000000	0.000000	6.853084	0.016875	NaN	0.000000	0.001501	0.001848	28.0815	0.043777	0.002084	21.0018	-78.7984	14.0151	0.016397	0.851604	-0.297893	-0.299236	0.016875	21.0018	-0.298496	-4469.2	-3.775749E-6	NaN
604	1.000000	0.862936	7.37096e+06	-46889.1	1005.82	-29767.7	0.000000	0.000000	6.863070	-0.063064	NaN	0.000000	0.001518	0.001836	28.0811	0.021601	0.001876	11.5141	-3.462233	-165.913	0.011520	0.861588	-0.287904	-0.289252	-0.063064	11.5141	-0.283796	-2692.51	2.342185E-5	NaN
604	1.000000	0.872957	7.37096e+06	-46889.1	1005.82	-29767.7	0.000000	0.000000	6.873096	0.064940	NaN	0.000000	0.001529	0.001869	28.0814	0.052701	0.001989	26.495	155.807	12.9489	0.077302	0.871614	-0.277883	-0.279226	0.064940	26.495	-0.279721	-2337.58	-2.778087E-5	NaN
604	1.000000	0.882952	7.37096e+06	-46889.1	1005.82	-29767.7	0.000000	0.000000	6.883093	0.108966	NaN	0.000000	0.001528	0.001822	28.0827	0.108470	0.002032	53.3804	161.003	-165.58	0.001755	0.881630	-0.267888	-0.269210	0.108966	53.3804	-0.269419	-1631.97	-6.676990E-5	NaN
604	1.000000	0.892963	7.37096e+06	-46889.1	1005.82	-29767.7	0.000000	0.000000	6.893100	0.014962	NaN	0.000000	0.001543	0.001823	28.0828	0.005511	0.002044	2.696936	82.7614	14.0806	0.018425	0.891576	-0.257877	-0.259264	0.014962	2.696936	-0.262038	-1259.27	-1.188179E-5	NaN
604	1.000000	0.902987	7.37096e+06	-46889.1	1005.82	-29767.7	0.000000	0.000000	6.903123	0.004199	NaN	0.000000	0.001610	0.001813	28.0826	0.030751	0.001837	16.7408	-79.0426	-163.132	0.077486	0.901694	-0.247853	-0.249147	0.004199	16.7408	-0.248041	-766.734	-5.476250E-6	NaN
604	1.000000	0.912977	7.37096e+06	-46889.1	1005.82	-29767.7	0.000000	0.000000	6.913115	0.029289	NaN	0.000000	0.001622	0.001862	28.0827	0.141580	0.002025	69.9038	-146.479	13.7057	-0.032682	0.911645	-0.237863	-0.239195	0.029289	69.9038	-0.238177	-538.33	-5.440655E-5	NaN
604	1.000000	0.922968	7.37096e+06	-46889.1	1005.82	-29767.7	0.000000	0.000000	6.923104	-0.012634	NaN	0.000000	0.001619	0.001814	28.0828	0.056638	0.002002	28.288	-107.876	-170.738	-0.007096	0.921672	-0.227872	-0.229168	-0.012634	28.288	-0.227537	-366.079	3.451096E-5	NaN
604	1.000000	0.932964	7.37096e+06	-46889.1	1005.82	-29767.7	0.000000	0.000000	6.933103	0.052805	NaN	0.000000	0.001571	0.001811	28.0827	0.093976	0.001932	48.6294	-169.899	12.7883	0.021851	0.931645	-0.217876	-0.219195	0.052805	48.6294	-0.218690	-264.684	-0.000200	NaN
604	1.000000	0.942973	7.37096e+06	-46889.1	1005.82	-29767.7	0.000000	0.000000	6.943112	0.061867	NaN	0.000000	0.001532	0.001805	28.0827	0.068691	0.002023	33.9611	-21.2563	-163.593	-0.092327	0.941665	-0.207867	-0.209175	0.061867	33.9611	-0.209233	-186.377	-0.000332	NaN
604	1.000000	0.952982	7.37096e+06	-46889.1	1005.82	-29767.7	0.000000	0.000000	6.953120	0.047303	NaN	0.000000	0.001546	0.001825	28.0828	0.085723	0.002018	42.4749	-25.8385	14.4424	0.014344	0.951655	-0.197858	-0.199185	0.047303	42.4749	-0.198693	-125.373	-0.000377	NaN
604	1.000000	0.962992	7.37096e+06	-46889.1	1005.82	-29767.7	0.000000	0.000000	6.963132	0.092924	NaN	0.000000	0.001518	0.001853	28.0828	0.084908	0.002020	42.0257	99.3753	-166.911	0.059963	0.961661	-0.187848	-0.189179	0.092924	42.0257	-0.189507	-88.2636	-0.001053	NaN
604	1.000000	0.973009	7.37096e+06	-46889.1	1005.82	-29767.7	0.000000	0.000000	6.973146	0.005224	NaN	0.000000	0.001523	0.001813	28.0828	0.101042	0.001982	50.9728	108.064	15.9704	-0.026170	0.971609	-0.177831	-0.179231	0.005224	50.9728	-0.177908	-56.2075	-9.294118E-5	NaN
604	1.000000	0.982991	7.37096e+06	-46889.1	1005.82	-29767.7	0.000000	0.000000	6.983130	0.053258	NaN	0.000000	0.001510	0.001834	28.0827	0.010458	0.001974	5.298017	-10.8518	-164.171	0.068780	0.981671	-0.167849	-0.169169	0.053258	5.298017	-0.175388	-50.8919	-0.001046	NaN
604	1.000000	0.993019	7.37096e+06	-46889.1	1005.82	-29767.7	0.000000	0.000000	6.993157	0.030219	NaN	0.000000	0.001510	0.001854	28.083	0.161660	0.001998	80.9286	-108.996	15.4877	0.089491	0.991612	-0.157821	-0.159228	0.030219	80.9286	-0.158101	-25.3608	-0.001192	NaN
604	1.000000	1.003023	7.37096e+06	-46889.1	1005.82	-29767.7	0.000000	0.000000	7.003158	-0.023263	NaN	0.000000	0.001504	0.001845	28.0829	0.095967	0.001959	48.9904	-89.4348	-164.671	0.058189	1.001632	-0.147817	-0.149208	-0.023263	48.9904	-0.147461	-16.2754	0.001429	NaN
604	1.000000	1.013013	7.37096e+06	-46889.1	1005.82	-29767.7	0.000000	0.000000	7.013151	0.038169	NaN	0.000000	0.001583	0.001812	28.0829	0.104711	0.001828	57.2741	170.129	10.0199	0.022791	1.011634	-0.137827	-0.139206	0.038169	57.2741	-0.138327	-11.0016	-0.003469	NaN
604	1.000000	1.023010	7.37096e+06	-46889.1	1005.82	-29767.7	0.000000	0.000000	7.023147	0.017608	NaN	0.000000	0.001610	0.001830	28.0816	0.053503	0.002143	24.9657	-84.5272	-165.683	0.044336	1.021710	-0.127830	-0.129130	0.017608	24.9657	-0.128359	-7.080182	-0.002487	NaN
604	1.000000	1.033034	7.37096e+06	-46889.1	1005.82	-29767.7	0.000000	0.000000	7.033169	-0.013784	NaN	0.000000	0.001592	0.001828	28.082	0.070147	0.001844	38.0434	13.3025	14.5873	-0.037096	1.031603	-0.117806	-0.119237	-0.013784	38.0434	-0.117535	-4.305974	0.003201	NaN
604	1.000000	1.043016	7.37096e+06	-46889.1	1005.82	-29767.7	0.000000	0.000000	7.043150	-0.075623	NaN	0.000000	0.001507	0.001822	28.0815	0.037684	0.002157	17.4722	-22.9159	-163.98	0.014934	1.041656	-0.107824	-0.109184	-0.075623	17.4722	-0.104578	-2.301641	0.032856	NaN
604	1.000000	1.053042	7.37096e+06	-46889.1	1005.82	-29767.7	0.000000	0.000000	7.053175	-0.063140	NaN	0.000000	0.001537	0.001804	28.0817	0.076322	0.001983	38.4942	-76.5886	15.0049	-0.069713	1.051713	-0.097799	-0.099127	-0.063140	38.4942	-0.096568	-1.531068	0.041239	NaN
604	1.000000	1.063043	7.37096e+06	-46889.1	1005.82	-29767.7	0.000000	0.000000	7.063178	-0.036945	NaN	0.000000	0.001496	0.001844	28.0814	0.069498	0.002178	31.9069	11.6599	-167.606	-0.053978	1.061761	-0.087797	-0.089080	-0.036945	31.9069	-0.086929	-0.914274	0.040409	NaN
604	1.000000	1.073064	7.37096e+06	-46889.1	1005.82	-29767.7	0.000000	0.000000	7.073201	0.019496	NaN	0.000000	0.001509	0.001856	28.0818	0.081132	0.002033	39.9139	162.55	14.1377	0.000657	1.071678	-0.077776	-0.079162	0.019496	39.9139	-0.078142	-0.555821	-0.035075	NaN
604	1.000000	1.083024	7.37096e+06	-46889.1	1005.82	-29767.7	0.000000	0.000000	7.083159	-0.022556	NaN	0.000000	0.001497	0.001829	28.0815	0.100759	0.002022	49.8354	-69.0334	-161.704	-0.019768	1.081720	-0.067816	-0.069120	-0.022556	49.8354	-0.067476	-0.291532	0.077371	NaN
604	1.000000	1.093035	7.37096e+06	-46889.1	1005.82	-29767.7	0.000000	0.000000	7.093173	0.050910	NaN	0.000000	0.001527	0.001790	28.0816	0.022140	0.002081	10.6371	67.3481	15.8042	0.051968	1.091667	-0.057805	-0.059173	0.050910	10.6371	-0.061395	-0.197394	-0.257912	NaN
604	1.000000	1.103032	7.37096e+06	-46889.1	1005.82	-29767.7	0.000000	0.000000	7.103170	0.050756	NaN	0.000000	0.001526	0.001791	28.0814	0.134854	0.002015	66.9205	-153.92	-167.729	0.042941	1.101773	-0.047808	-0.049067	0.050756	66.9205	-0.048377	-0.081475	-0.622958	NaN
604	1.000000	1.113039	7.37096e+06	-46889.1	1005.82	-29767.7	0.000000	0.000000	7.113179	0.111947	NaN	0.000000	0.001484	0.001785	28.0816	0.103157	0.001890	54.5753	-162.38	16.1522	0.090909	1.111639	-0.037801	-0.039201	0.111947	54.5753	-0.039340	-0.043184	-2.592316	NaN
604	1.000000	1.123057	7.37096e+06	-46889.1	1005.82	-29767.7	0.000000	0.000000	7.123192	-0.034560	NaN	0.000000	0.001514	0.001760	28.0815	0.071133	0.001901	37.4185	50.6276	-164.823	-0.036382	1.121748	-0.027783	-0.029092	-0.034560	37.4185	-0.027090	-0.019161	1.803652	NaN
604	1.000000	1.133064	7.37096e+06	-46889.1	1005.82	-29767.7	0.000000	0.000000	7.133198	-0.039806	NaN	0.000000	0.001498	0.001810	28.0816	0.083205	0.002103	39.5681	-46.3906	14.0692	-0.021924	1.131691	-0.017776	-0.019149	-0.039806	39.5681	-0.017022	-0.010524	3.782269	NaN
604	1.000000	1.143061	7.37096e+06	-46889.1	1005.82	-29767.7	0.000000	0.000000	7.143202	0.110173	NaN	0.000000	0.001530	0.001821	28.0818	0.228221	0.002058	110.874	21.2882	-169.114	-0.065266	1.141745	-0.007779	-0.009095	0.110173	110.874	-0.008524	-0.005538	-19.8953	NaN
604	2.000000	1.152776	7.37096e+06	-46889.1	1005.82	-29767.7	0.000000	0.000000	7.153251	8.237288	NaN	0.000000	0.001516	0.001789	28.0828	8.277228	0.001676	4938.13	8.859964	9.619909	6.589402	1.151712	0.001936	0.000872	8.237288	4938.13	0.000685	0.000519	15883.5	198114
604	2.000000	1.155682	7.37096e+06	-46889.1	1005.82	-29767.7	0.000000	0.000000	7.156289	11.4329	NaN	0.000000	0.001567	0.001814	28.0829	11.6599	0.001812	6435.24	6.491160	-173.225	10.4488	1.155391	0.004842	0.004551	11.4329	6435.24	0.003510	0.002813	4063.7	110846
604	2.000000	1.158196	7.37096e+06	-46889.1	1005.82	-29767.7	0.000000	0.000000	7.158938	14.7181	NaN	0.000000	0.001551	0.001817	28.0831	13.9004	0.001672	8314.98	3.596528	7.931048	13.6532	1.157819	0.007356	0.006978	14.7181	8314.98	0.006029	0.005092	2890.43	106461
604	2.000000	1.160667	7.37096e+06	-46889.1	1005.82	-29767.7	0.000000	0.000000	7.161643	20.4256	NaN	0.000000	0.001529	0.001811	28.083	16.9428	0.001713	9893.57	5.124018	-175.924	20.4008	1.160362	0.009827	0.009522	20.4256	9893.57	0.008279	0.007330	2786.41	105575
604	2.000000	1.163118	7.37096e+06	-46889.1	1005.82	-29767.7	0.000000	0.000000	7.164270	24.7184	NaN	0.000000	0.001531	0.001820	28.083	20.1223	0.001783	11287.6	8.214683	-0.274673	23.465	1.162765	0.012278	0.011925	24.7184	11287.6	0.010635	0.009896	2497.82	103668
604	2.000000	1.165619	7.37096e+06	-46889.1	1005.82	-29767.7	0.000000	0.000000	7.166942	28.8574	NaN	0.000000	0.001508	0.001832	28.0831	22.4504	0.001890	11875.9	3.761863	-175.998	27.9856	1.165317	0.014779	0.014477	28.8574	11875.9	0.012957	0.012656	2280.08	96446.8
604	2.000000	1.168169	7.37096e+06	-46889.1	1005.82	-29767.7	0.000000	0.000000	7.169734	34.7603	NaN	0.000000	0.001494	0.001821	28.0832	25.1602	0.001854	13569.6	8.117018	-2.588825	34.431	1.167884	0.017329	0.017044	34.7603	13569.6	0.015408	0.015833	2195.45	98528
604	2.000000	1.170595	7.37096e+06	-46889.1	1005.82	-29767.7	0.000000	0.000000	7.172516	43.4135	NaN	0.000000	0.001469	0.001820	28.0829	27.323	0.001917	14251.3	8.788561	178.045	42.6466	1.170314	0.019755	0.019474	43.4135	14251.3	0.017470	0.018721	2318.94	95161.4
604	2.000000	1.173100	7.37096e+06	-46889.1	1005.82	-29767.7	0.000000	0.000000	7.175362	51.6969	NaN	0.000000	0.001503	0.001782	28.0831	29.0909	0.001790	16252.3	7.175450	-1.560598	49.7571	1.172693	0.022260	0.021853	51.6969	16252.3	0.019874	0.022345	2313.54	99333
604	2.000000	1.175581	7.37096e+06	-46889.1	1005.82	-29767.7	0.000000	0.000000	7.178001	55.5524	NaN	0.000000	0.001507	0.001792	28.0827	32.004	0.001699	18831.9	5.581018	177.747	52.7627	1.175323	0.024741	0.024483	55.5524	18831.9	0.022528	0.026672	2082.8	105351
604	2.000000	1.178136	7.37096e+06	-46889.1	1005.82	-29767.7	0.000000	0.000000	7.181018	66.7877	NaN	0.000000	0.001507	0.001807	28.0834	34.1526	0.001880	18168.3	7.289476	-2.349531	64.4631	1.177704	0.027295	0.026864	66.7877	18168.3	0.024538	0.030181	2212.88	95547.2
604	2.000000	1.180581	7.37096e+06	-46889.1	1005.82	-29767.7	0.000000	0.000000	7.183793	74.819	NaN	0.000000	0.001515	0.001849	28.0827	36.6705	0.001810	20264.5	6.884592	176.893	74.9091	1.180270	0.029741	0.029430	74.819	20264.5	0.026971	0.034700	2156.17	99390.5
604	2.000000	1.183129	7.37096e+06	-46889.1	1005.82	-29767.7	0.000000	0.000000	7.186552	79.9511	NaN	0.000000	0.001469	0.001822	28.0827	39.6763	0.001743	22761.3	3.219764	-1.162301	80.2657	1.182786	0.032289	0.031946	79.9511	22761.3	0.029655	0.040031	1997.24	103937
604	2.000000	1.185583	7.37096e+06	-46889.1	1005.82	-29767.7	0.000000	0.000000	7.189554	93.2781	NaN	0.000000	0.001471	0.001848	28.0828	42.1294	0.001854	22719.1	2.687325	179.543	92.9627	1.185233	0.034743	0.034393	93.2781	22719.1	0.031664	0.044262	2107.39	98661.3
604	2.000000	1.188080	7.37097e+06	-46889.1	1005.82	-29767.7	0.000000	0.000000	7.192256	98.248	NaN	0.000000	0.001513	0.001831	28.0823	43.1552	0.001802	23947.5	1.764988	0.669176	96.6301	1.187708	0.037240	0.036868	98.248	23947.5	0.034163	0.049816	1972.22	98027.6
604	2.000000	1.190568	7.37097e+06	-46889.1	1005.82	-29767.7	0.000000	0.000000	7.195356	113.134	NaN	0.000000	0.001462	0.001839	28.0816	45.0842	0.001619	27842.9	2.434473	177.728	111.727	1.190278	0.039728	0.039438	113.134	27842.9	0.036681	0.055732	2029.96	107754
604	2.000000	1.193126	7.37097e+06	-46889.1	1005.82	-29767.7	0.000000	0.000000	7.198147	118.814	NaN	0.000000	0.001435	0.001838	28.0816	49.9728	0.001836	27214.7	8.608975	-7.710492	120.102	1.192699	0.042286	0.041859	118.814	27214.7	0.039011	0.061498	1932	100264
604	2.000000	1.195573	7.37097e+06	-46889.1	1005.82	-29767.7	0.000000	0.000000	7.200964	127.805	NaN	0.000000	0.001503	0.001810	28.0816	52.1949	0.001783	29273.8	5.548680	173.808	126.07	1.195220	0.044733	0.044380	127.805	29273.8	0.041459	0.067853	1883.55	102676
604	2.000000	1.198073	7.37097e+06	-46889.1	1005.82	-29767.7	0.000000	0.000000	7.204114	143.636	NaN	0.000000	0.001509	0.001819	28.0817	52.9598	0.001848	28657.4	5.264517	-3.767209	143.056	1.197605	0.047233	0.046765	143.636	28657.4	0.043473	0.073313	1959.22	96698.8
604	2.000000	1.200490	7.37097e+06	-46889.1	1005.82	-29767.7	0.000000	0.000000	7.207034	155.86	NaN	0.000000	0.001485	0.001798	28.0816	55.0947	0.001811	30422.5	5.511151	174.332	152.471	1.200163	0.049650	0.049323	155.86	30422.5	0.045807	0.079896	1950.79	98334.8
604	2.000000	1.203074	7.37097e+06	-46889.1	1005.82	-29767.7	0.000000	0.000000	7.209765	159.442	NaN	0.000000	0.001548	0.001801	28.0815	56.9674	0.001661	34305.4	1.561286	-3.251982	158.842	1.202760	0.052234	0.051920	159.442	34305.4	0.048748	0.088584	1799.9	105307
604	2.000000	1.205607	7.37097e+06	-46889.1	1005.82	-29767.7	0.000000	0.000000	7.212788	171.368	NaN	0.000000	0.001536	0.001795	28.0816	61.4276	0.001886	32578.3	5.331149	174.725	175.063	1.205304	0.054767	0.054464	171.368	32578.3	0.050822	0.094970	1804.44	96584.5
604	2.000000	1.208051	7.37097e+06	-46889.1	1005.82	-29767.7	0.000000	0.000000	7.215839	186.12	NaN	0.000000	0.001518	0.001806	28.082	62.2059	0.001837	33858.4	3.049415	-3.074148	185.197	1.207738	0.057211	0.056898	186.12	33858.4	0.053088	0.102197	1821.18	96765.4
604	2.000000	1.210446	7.37097e+06	-46889.1	1005.82	-29767.7	0.000000	0.000000	7.218808	200.093	NaN	0.000000	0.001557	0.001837	28.0816	63.8123	0.001783	35790.7	1.082400	177.476	195.378	1.210207	0.059606	0.059367	200.093	35790.7	0.055413	0.109875	1821.09	98649.2
604	2.000000	1.213019	7.37097e+06	-46889.1	1005.82	-29767.7	0.000000	0.000000	7.221805	210.398	NaN	0.000000	0.001513	0.001862	28.0816	66.882	0.001879	35596.7	5.936778	-7.027616	207.208	1.212721	0.062179	0.061881	210.398	35596.7	0.057746	0.117850	1785.3	94736.8
604	2.000000	1.215456	7.37097e+06	-46889.1	1005.82	-29767.7	0.000000	0.000000	7.224777	223.399	NaN	0.000000	0.001499	0.001848	28.0819	68.0309	0.001708	39840	4.893389	172.764	218.326	1.215161	0.064616	0.064320	223.399	39840	0.060411	0.127286	1755.1	102024
604	2.000000	1.218016	7.37097e+06	-46889.1	1005.82	-29767.7	0.000000	0.000000	7.227460	226.413	NaN	0.000000	0.001484	0.001825	28.0817	70.4711	0.001852	38049.2	5.888843	-7.769141	221.342	1.217770	0.067176	0.066930	226.413	38049.2	0.062713	0.135716	1668.28	94363.2
604	2.000000	1.220515	7.37097e+06	-46889.1	1005.82	-29767.7	0.000000	0.000000	7.231119	254.639	NaN	0.000000	0.001497	0.001821	28.0817	71.7701	0.001766	40645.2	6.434157	171.808	251.527	1.220226	0.069674	0.069386	254.639	40645.2	0.064976	0.144253	1765.22	97773.4
604	2.000000	1.223002	7.37097e+06	-46889.1	1005.82	-29767.7	0.000000	0.000000	7.234080	266.147	NaN	0.000000	0.001536	0.001826	28.083	75.3337	0.001834	41079.3	5.890446	-7.985568	261.35	1.222663	0.072162	0.071823	266.147	41079.3	0.067303	0.153288	1736.25	95860.9
604	2.000000	1.225509	7.37097e+06	-46889.1	1005.82	-29767.7	0.000000	0.000000	7.237094	278.487	NaN	0.000000	0.001529	0.001865	28.0831	76.809	0.001631	47086.2	3.364903	173.43	276.719	1.225294	0.074669	0.074454	278.487	47086.2	0.070233	0.165037	1687.43	105895
604	2.000000	1.228079	7.37097e+06	-46889.1	1005.82	-29767.7	0.000000	0.000000	7.240315	294.312	NaN	0.000000	0.001518	0.001814	28.0828	78.8825	0.001713	46049	3.999832	-6.890973	293.59	1.227747	0.077239	0.076907	294.312	46049	0.072445	0.174177	1689.73	100809
604	2.000000	1.230511	7.37097e+06	-46889.1	1005.82	-29767.7	0.000000	0.000000	7.243708	317.686	NaN	0.000000	0.001531	0.001838	28.0826	81.1153	0.001831	44303.5	5.022399	173.004	316.664	1.230176	0.079671	0.079336	317.686	44303.5	0.074293	0.181989	1745.63	94883.1
604	2.000000	1.233052	7.37097e+06	-46889.1	1005.82	-29767.7	0.000000	0.000000	7.246570	325.503	NaN	0.000000	0.001493	0.001873	28.0827	83.6732	0.001763	47449.2	5.799341	-8.799277	323.849	1.232656	0.082212	0.081816	325.503	47449.2	0.077067	0.194016	1677.71	98419.9
604	2.000000	1.235438	7.37097e+06	-46889.1	1005.82	-29767.7	0.000000	0.000000	7.249642	342.184	NaN	0.000000	0.001502	0.001828	28.083	86.052	0.001856	46365.5	0.306716	176.59	336.719	1.235217	0.084598	0.084377	342.184	46365.5	0.079063	0.202897	1686.49	94043.8
604	2.000000	1.237950	7.37097e+06	-46889.1	1005.82	-29767.7	0.000000	0.000000	7.252817	358.314	NaN	0.000000	0.001514	0.001814	28.0823	87.7286	0.001769	49587.9	4.170926	-7.535340	350.955	1.237576	0.087110	0.086736	358.314	49587.9	0.081691	0.214868	1667.6	97738.1
604	2.000000	1.240591	7.37097e+06	-46889.1	1005.82	-29767.7	0.000000	0.000000	7.255794	366.474	NaN	0.000000	0.001521	0.001834	28.0828	89.7185	0.001761	50955.5	2.211518	174.009	369.763	1.240341	0.089751	0.089501	366.474	50955.5	0.084357	0.227344	1611.98	97638.8
604	2.000000	1.242875	7.37097e+06	-46889.1	1005.82	-29767.7	0.000000	0.000000	7.259119	391.809	NaN	0.000000	0.001518	0.001832	28.0827	93.7768	0.001862	50351.1	7.810517	-11.5873	383.083	1.242524	0.092035	0.091684	391.809	50351.1	0.086199	0.236152	1659.14	94664.2
604	2.000000	1.245392	7.37097e+06	-46889.1	1005.82	-29767.7	0.000000	0.000000	7.262304	408.056	NaN	0.000000	0.001488	0.001819	28.0827	94.4974	0.001659	56973.6	3.375298	172.185	401.512	1.245121	0.094552	0.094281	408.056	56973.6	0.089180	0.250747	1627.36	103951
604	2.000000	1.248067	7.37097e+06	-46889.1	1005.82	-29767.7	0.000000	0.000000	7.265836	428.904	NaN	0.000000	0.001510	0.001866	28.0826	96.7383	0.001761	54937.5	5.416839	-9.165070	427.455	1.247706	0.097227	0.096866	428.904	54937.5	0.091371	0.261729	1638.73	98110.7
604	2.000000	1.250433	7.37097e+06	-46889.1	1005.82	-29767.7	0.000000	0.000000	7.268823	444.022	NaN	0.000000	0.001530	0.001832	28.0829	99.1612	0.001848	53653.6	4.800677	171.195	439.377	1.250333	0.099592	0.099493	444.022	53653.6	0.093386	0.272022	1632.3	93987.5
604	2.000000	1.251535	7.37097e+06	-46889.1	1005.82	-29767.7	0.000000	0.000000	7.270487	457.67	NaN	0.000000	0.001550	0.001847	28.0826	101.091	0.001796	56271.6	4.858319	171.285	459.339	1.251170	0.100695	0.100330	457.67	56271.6	0.094595	0.278292	1644.57	97456.8