File: remote_trans/data/nanoindenter/0828-1/data/Data_2025-08-06,11h17m57s/2025-07-22_16-23-58_1_1064.txt
2025-07-22, 16:23:58, 1
Index	Phase	Displacement	Time	Pos X	Pos Y	Pos Z	Rot A	Rot B	Piezo Z	Force A	Force B	Gripper	Voltage A	Voltage B	Temperature	Amplitude force	Amplitude pos	Stiffness	Phase shift	Phase excitation	Force A raw	Displacement raw	HMax	HMax raw	Real Force	Real Stiffness	Contact Depth	Area	Hardness	Reduced Mod.
[#]	[#]	[um]	[s]	[um]	[um]	[um]	[m°]	[m°]	[um]	[uN]	[uN]	[V]	[V]	[V]	[°C]	[uN]	[um]	[N/m]	[°]	[°]	[uN]	[um]	[um]	[um]	[uN]	[N/m]	[um]	[um^2]	[MPa]	[MPa]
1064	1.000000	0.002711	7.37545e+06	-53339.1	1055.82	-29746.5	0.000000	0.000000	6.002770	0.023685	NaN	0.000000	0.001624	0.001710	28.0829	0.055363	0.000978	56.6107	-51.5868	-160.73	0.002745	0.001498	-1.038899	-1.040111	0.023685	56.6107	-1.039212	-7.644982E+13	-3.098159E-16	NaN
1064	1.000000	0.010692	7.37545e+06	-53339.1	1055.82	-29746.5	0.000000	0.000000	6.010750	-0.013631	NaN	0.000000	0.001623	0.001712	28.083	0.092376	0.000907	101.898	-69.3548	-163.797	0.018040	0.009399	-1.030917	-1.032211	-0.013631	101.898	-1.030817	-5.894825E+13	2.312305E-16	NaN
1064	1.000000	0.018678	7.37545e+06	-53339.1	1055.82	-29746.5	0.000000	0.000000	6.018736	-0.001466	NaN	0.000000	0.001624	0.001706	28.0833	0.063576	0.001832	34.7101	24.6902	-163.959	-0.001825	0.017402	-1.022932	-1.024208	-0.001466	34.7101	-1.022900	-4.612895E+13	3.177001E-17	NaN
1064	1.000000	0.026732	7.37545e+06	-53339.1	1055.82	-29746.5	0.000000	0.000000	6.026793	0.060839	NaN	0.000000	0.001638	0.001625	28.0831	0.118884	0.001835	64.7759	109.035	-167.902	0.067795	0.025400	-1.014878	-1.016209	0.060839	64.7759	-1.015582	-3.677110E+13	-1.654527E-15	NaN
1064	1.000000	0.034686	7.37545e+06	-53339.1	1055.82	-29746.5	0.000000	0.000000	6.034744	-0.012125	NaN	0.000000	0.001595	0.001669	28.0831	0.106628	0.001851	57.6122	12.2984	-162.887	0.006377	0.033397	-1.006923	-1.008212	-0.012125	57.6122	-1.006765	-2.797990E+13	4.333362E-16	NaN
1064	1.000000	0.042687	7.37545e+06	-53339.1	1055.82	-29746.5	0.000000	0.000000	6.042746	0.007422	NaN	0.000000	0.001591	0.001674	28.0833	0.031830	0.001923	16.5524	148.146	-166.729	0.021552	0.041356	-0.998922	-1.000253	0.007422	16.5524	-0.999259	-2.217116E+13	-3.347613E-16	NaN
1064	1.000000	0.050675	7.37545e+06	-53339.1	1055.82	-29746.5	0.000000	0.000000	6.050733	0.005796	NaN	0.000000	0.001554	0.001693	28.0832	0.062117	0.002016	30.8174	-71.2905	-160.187	-0.039526	0.049400	-0.990935	-0.992209	0.005796	30.8174	-0.991076	-1.720289E+13	-3.368977E-16	NaN
1064	1.000000	0.058692	7.37545e+06	-53339.1	1055.82	-29746.5	0.000000	0.000000	6.058749	-0.026307	NaN	0.000000	0.001575	0.001657	28.0834	0.101467	0.002092	48.4907	97.4161	-165.149	-0.092985	0.057374	-0.982918	-0.984236	-0.026307	48.4907	-0.982511	-1.318984E+13	1.994475E-15	NaN
1064	1.000000	0.066690	7.37545e+06	-53339.1	1055.82	-29746.5	0.000000	0.000000	6.066748	0.000734	NaN	0.000000	0.001579	0.001684	28.0831	0.078685	0.001913	41.1278	75.5638	-164.324	-0.033145	0.065379	-0.974919	-0.976231	0.000734	41.1278	-0.974933	-1.042648E+13	-7.035069E-17	NaN
1064	1.000000	0.074692	7.37545e+06	-53339.1	1055.82	-29746.5	0.000000	0.000000	6.074750	-0.010186	NaN	0.000000	0.001536	0.001709	28.0831	0.099816	0.001980	50.4196	25.644	-164.799	-0.011330	0.073408	-0.966918	-0.968202	-0.010186	50.4196	-0.966766	-8.092416E+12	1.258769E-15	NaN
1064	1.000000	0.082710	7.37545e+06	-53339.1	1055.82	-29746.5	0.000000	0.000000	6.082768	-0.020333	NaN	0.000000	0.001600	0.001675	28.0834	0.088392	0.002028	43.5843	48.2357	-165.211	-0.029651	0.081347	-0.958899	-0.960263	-0.020333	43.5843	-0.958550	-6.270664E+12	3.242526E-15	NaN
1064	1.000000	0.090735	7.37545e+06	-53339.1	1055.82	-29746.5	0.000000	0.000000	6.090794	0.017950	NaN	0.000000	0.001555	0.001695	28.0844	0.037246	0.002069	17.9985	-90.2174	-163.809	0.020329	0.089395	-0.950874	-0.952214	0.017950	17.9985	-0.951622	-5.057137E+12	-3.549368E-15	NaN
1064	1.000000	0.098718	7.37545e+06	-53339.1	1055.82	-29746.5	0.000000	0.000000	6.098778	0.021619	NaN	0.000000	0.001545	0.001687	28.0843	0.135529	0.002104	64.4023	64.0709	-164.519	-0.014388	0.097378	-0.942891	-0.944232	0.021619	64.4023	-0.943143	-3.886325E+12	-5.562788E-15	NaN
1064	1.000000	0.106697	7.37545e+06	-53339.1	1055.82	-29746.5	0.000000	0.000000	6.106758	0.058293	NaN	0.000000	0.001545	0.001690	28.0842	0.094369	0.001951	48.3806	-73.3826	-166.237	0.113892	0.105366	-0.934912	-0.936244	0.058293	48.3806	-0.935816	-3.095181E+12	-1.883348E-14	NaN
1064	1.000000	0.114718	7.37546e+06	-53339.1	1055.82	-29746.5	0.000000	0.000000	6.114778	0.037047	NaN	0.000000	0.001573	0.001685	28.0842	0.088043	0.001906	46.1921	-28.04	-166.002	0.108862	0.113424	-0.926891	-0.928186	0.037047	46.1921	-0.927493	-2.389786E+12	-1.550231E-14	NaN
1064	1.000000	0.122702	7.37546e+06	-53339.1	1055.82	-29746.5	0.000000	0.000000	6.122760	0.010235	NaN	0.000000	0.001583	0.001676	28.0843	0.035949	0.001954	18.3956	-16.4209	-167.229	0.019858	0.121401	-0.918908	-0.920209	0.010235	18.3956	-0.919325	-1.853947E+12	-5.520907E-15	NaN
1064	1.000000	0.130733	7.37546e+06	-53339.1	1055.82	-29746.5	0.000000	0.000000	6.130792	0.013368	NaN	0.000000	0.001542	0.001662	28.0843	0.082154	0.001940	42.3536	-21.9234	-163.674	-0.039821	0.129373	-0.910877	-0.912237	0.013368	42.3536	-0.911113	-1.436149E+12	-9.307932E-15	NaN
1064	1.000000	0.138723	7.37546e+06	-53339.1	1055.82	-29746.5	0.000000	0.000000	6.138781	-0.012028	NaN	0.000000	0.001564	0.001668	28.084	0.126373	0.001947	64.915	-128.439	-163.644	0.005467	0.137362	-0.902886	-0.904247	-0.012028	64.915	-0.902748	-1.107107E+12	1.086466E-14	NaN
1064	1.000000	0.146745	7.37546e+06	-53339.1	1055.82	-29746.5	0.000000	0.000000	6.146802	-0.013443	NaN	0.000000	0.001589	0.001676	28.0841	0.097782	0.001956	49.9874	61.4066	-163.45	-0.045814	0.145402	-0.894865	-0.896208	-0.013443	49.9874	-0.894664	-8.608945E+11	1.561506E-14	NaN
1064	1.000000	0.154735	7.37546e+06	-53339.1	1055.82	-29746.5	0.000000	0.000000	6.154793	-0.026658	NaN	0.000000	0.001576	0.001683	28.0841	0.062686	0.001977	31.6997	-116.487	-162.993	-0.021815	0.153418	-0.886874	-0.888192	-0.026658	31.6997	-0.886244	-6.624181E+11	4.024401E-14	NaN
1064	1.000000	0.162713	7.37546e+06	-53339.1	1055.82	-29746.5	0.000000	0.000000	6.162771	0.007009	NaN	0.000000	0.001583	0.001664	28.0841	0.088336	0.002048	43.1285	147.688	-169.251	0.064166	0.161478	-0.878897	-0.880132	0.007009	43.1285	-0.879019	-5.289777E+11	-1.324987E-14	NaN
1064	1.000000	0.170717	7.37546e+06	-53339.1	1055.82	-29746.5	0.000000	0.000000	6.170777	0.041546	NaN	0.000000	0.001561	0.001645	28.0842	0.015576	0.002068	7.530474	-165.056	-165.03	-0.009711	0.169464	-0.870893	-0.872145	0.041546	7.530474	-0.875031	-4.671958E+11	-8.892575E-14	NaN
1064	1.000000	0.178746	7.37546e+06	-53339.1	1055.82	-29746.5	0.000000	0.000000	6.178804	-0.019803	NaN	0.000000	0.001599	0.001692	28.084	0.041660	0.002040	20.4209	51.5064	-165.041	-0.020653	0.177478	-0.862863	-0.864132	-0.019803	20.4209	-0.862136	-3.126313E+11	6.334321E-14	NaN
1064	1.000000	0.186743	7.37546e+06	-53339.1	1055.82	-29746.5	0.000000	0.000000	6.186802	0.008270	NaN	0.000000	0.001582	0.001655	28.0841	0.077787	0.001915	40.6301	-149.717	-165.972	0.035807	0.185397	-0.854866	-0.856213	0.008270	40.6301	-0.855019	-2.504349E+11	-3.302325E-14	NaN
1064	1.000000	0.194728	7.37546e+06	-53339.1	1055.82	-29746.5	0.000000	0.000000	6.194788	0.040163	NaN	0.000000	0.001593	0.001650	28.0837	0.112378	0.001824	61.603	107.159	-165.556	0.020195	0.193449	-0.846882	-0.848161	0.040163	61.603	-0.847371	-1.973020E+11	-2.035598E-13	NaN
1064	1.000000	0.202761	7.37546e+06	-53339.1	1055.82	-29746.5	0.000000	0.000000	6.202819	-0.010246	NaN	0.000000	0.001591	0.001701	28.0839	0.114785	0.002034	56.4458	-85.116	-163.823	-0.053894	0.201416	-0.838849	-0.840194	-0.010246	56.4458	-0.838713	-1.506093E+11	6.803213E-14	NaN
1064	1.000000	0.210748	7.37546e+06	-53339.1	1055.82	-29746.5	0.000000	0.000000	6.210806	0.003861	NaN	0.000000	0.001540	0.001649	28.0843	0.039914	0.002014	19.8157	-135.353	-167.975	-0.028991	0.209415	-0.830862	-0.832194	0.003861	19.8157	-0.831008	-1.184247E+11	-3.260026E-14	NaN
1064	1.000000	0.218740	7.37546e+06	-53339.1	1055.82	-29746.5	0.000000	0.000000	6.218798	-0.022975	NaN	0.000000	0.001563	0.001631	28.0841	0.006828	0.002011	3.394533	155.607	-167.063	0.017742	0.217421	-0.822869	-0.824188	-0.022975	3.394533	-0.817793	-7.839411E+10	2.930673E-13	NaN
1064	1.000000	0.226768	7.37546e+06	-53339.1	1055.82	-29746.5	0.000000	0.000000	6.226828	0.060783	NaN	0.000000	0.001567	0.001661	28.0832	0.052164	0.001948	26.7815	106.792	-169.214	0.031543	0.225454	-0.814842	-0.816155	0.060783	26.7815	-0.816544	-7.539547E+10	-8.061860E-13	NaN
1064	1.000000	0.234765	7.37546e+06	-53339.1	1055.82	-29746.5	0.000000	0.000000	6.234825	0.032435	NaN	0.000000	0.001570	0.001687	28.0828	0.014128	0.002057	6.867222	-22.8615	-163.472	-0.024835	0.233394	-0.806844	-0.808215	0.032435	6.867222	-0.810387	-6.220394E+10	-5.214243E-13	NaN
1064	1.000000	0.242785	7.37546e+06	-53339.1	1055.82	-29746.5	0.000000	0.000000	6.242843	0.016404	NaN	0.000000	0.001560	0.001626	28.0829	0.079354	0.001876	42.2888	-115.688	-165.778	-0.001716	0.241480	-0.798825	-0.800129	0.016404	42.2888	-0.799116	-4.373848E+10	-3.750460E-13	NaN
1064	1.000000	0.250772	7.37546e+06	-53339.1	1055.82	-29746.5	0.000000	0.000000	6.250831	0.023554	NaN	0.000000	0.001552	0.001664	28.0828	0.111708	0.001969	56.7305	32.0235	-167.052	0.013060	0.249496	-0.790838	-0.792114	0.023554	56.7305	-0.791149	-3.409531E+10	-6.908289E-13	NaN
1064	1.000000	0.258780	7.37546e+06	-53339.1	1055.82	-29746.5	0.000000	0.000000	6.258841	0.066171	NaN	0.000000	0.001561	0.001703	28.083	0.154933	0.001955	79.2422	167.66	-169.452	0.036293	0.257427	-0.782830	-0.784182	0.066171	79.2422	-0.783456	-2.680365E+10	-2.468733E-12	NaN
1064	1.000000	0.266806	7.37546e+06	-53339.1	1055.82	-29746.5	0.000000	0.000000	6.266863	-0.006911	NaN	0.000000	0.001587	0.001656	28.0829	0.016000	0.002037	7.852551	99.2243	-165.364	-0.005194	0.265463	-0.774804	-0.776147	-0.006911	7.852551	-0.774144	-2.002832E+10	3.450435E-13	NaN
1064	1.000000	0.274767	7.37546e+06	-53339.1	1055.82	-29746.5	0.000000	0.000000	6.274825	-0.014005	NaN	0.000000	0.001562	0.001691	28.0827	0.104848	0.002088	50.2063	-5.967847	-167.88	-0.008966	0.273490	-0.766843	-0.768120	-0.014005	50.2063	-0.766633	-1.583165E+10	8.846351E-13	NaN
1064	1.000000	0.282785	7.37546e+06	-53339.1	1055.82	-29746.5	0.000000	0.000000	6.282845	0.040521	NaN	0.000000	0.001570	0.001681	28.0829	0.097395	0.002029	47.9944	93.4254	-162.434	0.046293	0.281477	-0.758825	-0.760132	0.040521	47.9944	-0.759458	-1.264524E+10	-3.204427E-12	NaN
1064	1.000000	0.290785	7.37546e+06	-53339.1	1055.82	-29746.5	0.000000	0.000000	6.290844	0.006394	NaN	0.000000	0.001553	0.001688	28.0826	0.009692	0.001944	4.985612	27.231	-164.339	-0.014848	0.289448	-0.750825	-0.752161	0.006394	4.985612	-0.751786	-9.943444E+9	-6.430171E-13	NaN
1064	1.000000	0.298755	7.37546e+06	-53339.1	1055.82	-29746.5	0.000000	0.000000	6.298812	-0.028264	NaN	0.000000	0.001572	0.001676	28.0828	0.073939	0.002031	36.4027	44.4815	-166.914	0.046900	0.297481	-0.742854	-0.744129	-0.028264	36.4027	-0.742272	-7.379045E+9	3.830316E-12	NaN
1064	1.000000	0.306811	7.37546e+06	-53339.1	1055.82	-29746.5	0.000000	0.000000	6.306871	0.042714	NaN	0.000000	0.001550	0.001675	28.0827	0.062821	0.002072	30.3207	36.4618	-163.311	-0.027414	0.305454	-0.734799	-0.736156	0.042714	30.3207	-0.735855	-6.033875E+9	-7.078992E-12	NaN
1064	1.000000	0.314811	7.37546e+06	-53339.1	1055.82	-29746.5	0.000000	0.000000	6.314871	0.028924	NaN	0.000000	0.001591	0.001699	28.0826	0.024685	0.001793	13.7705	62.1278	-168.091	0.063228	0.313500	-0.726798	-0.728110	0.028924	13.7705	-0.728374	-4.771355E+9	-6.062058E-12	NaN
1064	1.000000	0.322793	7.37546e+06	-53339.1	1055.82	-29746.5	0.000000	0.000000	6.322851	-0.004775	NaN	0.000000	0.001604	0.001706	28.0825	0.049799	0.001990	25.0206	-13.3801	-163.736	-0.002828	0.321532	-0.718816	-0.720078	-0.004775	25.0206	-0.718673	-3.518652E+9	1.356961E-12	NaN
1064	1.000000	0.330825	7.37546e+06	-53339.1	1055.82	-29746.5	0.000000	0.000000	6.330884	0.009431	NaN	0.000000	0.001613	0.001644	28.0825	0.070020	0.002051	34.1378	-150.248	-164.183	0.025102	0.329473	-0.710784	-0.712136	0.009431	34.1378	-0.710992	-2.764263E+9	-3.411898E-12	NaN
1064	1.000000	0.338841	7.37546e+06	-53339.1	1055.82	-29746.5	0.000000	0.000000	6.338900	0.026779	NaN	0.000000	0.001651	0.001684	28.0827	0.085618	0.002170	39.4568	-116.058	-162.56	-0.001348	0.337461	-0.702769	-0.704149	0.026779	39.4568	-0.703278	-2.169175E+9	-1.234532E-11	NaN
1064	1.000000	0.346812	7.37546e+06	-53339.1	1055.82	-29746.5	0.000000	0.000000	6.346873	0.067277	NaN	0.000000	0.001617	0.001669	28.0826	0.159747	0.001983	80.5699	1.176339	-163.134	0.021872	0.345567	-0.694798	-0.696043	0.067277	80.5699	-0.695424	-1.694456E+9	-3.970438E-11	NaN
1064	1.000000	0.354846	7.37546e+06	-53339.1	1055.82	-29746.5	0.000000	0.000000	6.354905	0.018343	NaN	0.000000	0.001551	0.001691	28.0826	0.060597	0.001992	30.4272	97.6038	-168.248	0.031850	0.353487	-0.686764	-0.688122	0.018343	30.4272	-0.687216	-1.308772E+9	-1.401530E-11	NaN
1064	1.000000	0.362827	7.37546e+06	-53339.1	1055.82	-29746.5	0.000000	0.000000	6.362888	0.065225	NaN	0.000000	0.001566	0.001689	28.0834	0.035496	0.002076	17.0981	-101.559	-164.542	-0.004826	0.361529	-0.678783	-0.680081	0.065225	17.0981	-0.681644	-1.098213E+9	-5.939216E-11	NaN
1064	1.000000	0.370827	7.37546e+06	-53339.1	1055.82	-29746.5	0.000000	0.000000	6.370885	-0.016681	NaN	0.000000	0.001596	0.001734	28.084	0.054105	0.002016	26.8437	137.195	-161.81	0.018392	0.369549	-0.670783	-0.672060	-0.016681	26.8437	-0.670317	-7.686405E+8	2.170180E-11	NaN
1064	1.000000	0.378813	7.37546e+06	-53339.1	1055.82	-29746.5	0.000000	0.000000	6.378871	0.002006	NaN	0.000000	0.001554	0.001691	28.0841	0.100636	0.001908	52.7401	3.532544	-164.312	0.060136	0.377505	-0.662797	-0.664105	0.002006	52.7401	-0.662825	-6.069607E+8	-3.304948E-12	NaN
1064	1.000000	0.386823	7.37546e+06	-53339.1	1055.82	-29746.5	0.000000	0.000000	6.386883	0.041659	NaN	0.000000	0.001550	0.001716	28.0839	0.080533	0.001969	40.899	-176.704	-164.416	0.028746	0.385480	-0.654787	-0.656129	0.041659	40.899	-0.655551	-4.825201E+8	-8.633604E-11	NaN
1064	1.000000	0.394827	7.37546e+06	-53339.1	1055.82	-29746.6	0.000000	0.000000	6.394883	-0.031552	NaN	0.000000	0.001570	0.001689	28.0842	0.035358	0.001930	18.3203	14.4375	-166.486	0.070070	0.393532	-0.646783	-0.648077	-0.031552	18.3203	-0.645491	-3.512508E+8	8.982715E-11	NaN
1064	1.000000	0.402837	7.37546e+06	-53339.1	1055.82	-29746.6	0.000000	0.000000	6.402894	-0.025370	NaN	0.000000	0.001581	0.001727	28.0836	0.073709	0.002036	36.2046	-107.437	-168.849	-0.030801	0.401520	-0.638773	-0.640090	-0.025370	36.2046	-0.638248	-2.794118E+8	9.079614E-11	NaN
1064	1.000000	0.410858	7.37546e+06	-53339.1	1055.82	-29746.6	0.000000	0.000000	6.410917	0.035921	NaN	0.000000	0.001616	0.001708	28.0837	0.134357	0.002033	66.103	-36.6523	-167.732	0.037388	0.409584	-0.630752	-0.632025	0.035921	66.103	-0.631159	-2.233290E+8	-1.608436E-10	NaN
1064	1.000000	0.418833	7.37546e+06	-53339.1	1055.82	-29746.6	0.000000	0.000000	6.418890	-0.020133	NaN	0.000000	0.001651	0.001705	28.0839	0.087438	0.001996	43.8045	-1.535325	-164.359	-0.041690	0.417564	-0.622777	-0.624046	-0.020133	43.8045	-0.622432	-1.694575E+8	1.188112E-10	NaN
1064	1.000000	0.426821	7.37546e+06	-53339.1	1055.82	-29746.6	0.000000	0.000000	6.426879	-0.004910	NaN	0.000000	0.001668	0.001683	28.0838	0.040742	0.001953	20.859	-162.729	-165.504	-0.044844	0.425567	-0.614788	-0.616043	-0.004910	20.859	-0.614612	-1.322973E+8	3.711165E-11	NaN
1064	1.000000	0.434833	7.37546e+06	-53339.1	1055.82	-29746.6	0.000000	0.000000	6.434893	0.061537	NaN	0.000000	0.001657	0.001698	28.0841	0.047389	0.001906	24.8686	-10.7599	-162.454	0.076330	0.433536	-0.606777	-0.608074	0.061537	24.8686	-0.608633	-1.094722E+8	-5.621251E-10	NaN
1064	1.000000	0.442849	7.37546e+06	-53339.1	1055.82	-29746.6	0.000000	0.000000	6.442909	0.028064	NaN	0.000000	0.001603	0.001694	28.0838	0.049964	0.001979	25.247	-164.288	-166.58	0.062956	0.441584	-0.598760	-0.600026	0.028064	25.247	-0.599594	-8.219968E+7	-3.414094E-10	NaN
1064	1.000000	0.450897	7.37546e+06	-53339.1	1055.82	-29746.6	0.000000	0.000000	6.450956	0.025853	NaN	0.000000	0.001592	0.001673	28.0842	0.081288	0.002021	40.2279	18.9983	-165.243	-0.003956	0.449578	-0.590713	-0.592032	0.025853	40.2279	-0.591195	-6.297008E+7	-4.105548E-10	NaN
1064	1.000000	0.458847	7.37546e+06	-53339.1	1055.82	-29746.6	0.000000	0.000000	6.458903	-0.031225	NaN	0.000000	0.001584	0.001672	28.0838	0.101995	0.001982	51.4591	-105.457	-165.095	-0.037999	0.457576	-0.582763	-0.584034	-0.031225	51.4591	-0.582308	-4.748725E+7	6.575522E-10	NaN
1064	1.000000	0.466872	7.37546e+06	-53339.1	1055.82	-29746.6	0.000000	0.000000	6.466930	0.003221	NaN	0.000000	0.001620	0.001688	28.0837	0.030065	0.002054	14.6379	59.4182	-166.843	-0.011947	0.465524	-0.574738	-0.576086	0.003221	14.6379	-0.574903	-3.752791E+7	-8.581884E-11	NaN
1064	1.000000	0.474872	7.37546e+06	-53339.1	1055.82	-29746.6	0.000000	0.000000	6.474931	0.030559	NaN	0.000000	0.001578	0.001682	28.0839	0.099986	0.002013	49.6782	168.164	-164.097	-0.100096	0.473538	-0.566738	-0.568072	0.030559	49.6782	-0.567199	-2.937140E+7	-1.040423E-9	NaN
1064	1.000000	0.482867	7.37546e+06	-53339.1	1055.82	-29746.6	0.000000	0.000000	6.482925	-0.019289	NaN	0.000000	0.001572	0.001674	28.0838	0.075549	0.002104	35.9077	-176.296	-166.197	-0.002087	0.481577	-0.558742	-0.560033	-0.019289	35.9077	-0.558339	-2.215150E+7	8.707844E-10	NaN
1064	1.000000	0.490884	7.37546e+06	-53339.1	1055.82	-29746.6	0.000000	0.000000	6.490939	-0.071378	NaN	0.000000	0.001570	0.001677	28.0841	0.078699	0.002043	38.5149	83.6813	-165.019	-0.050871	0.489564	-0.550726	-0.552046	-0.071378	38.5149	-0.549336	-1.662494E+7	4.293423E-9	NaN
1064	1.000000	0.498875	7.37546e+06	-53339.1	1055.82	-29746.6	0.000000	0.000000	6.498936	0.073834	NaN	0.000000	0.001599	0.001700	28.0831	0.048832	0.001975	24.7279	16.3386	-164.139	0.129513	0.497560	-0.542735	-0.544050	0.073834	24.7279	-0.544975	-1.446527E+7	-5.104194E-9	NaN
1064	1.000000	0.506849	7.37546e+06	-53339.1	1055.82	-29746.6	0.000000	0.000000	6.506909	0.043480	NaN	0.000000	0.001597	0.001696	28.0826	0.024759	0.002038	12.1468	72.5822	-165.631	0.075288	0.505546	-0.534761	-0.536064	0.043480	12.1468	-0.537445	-1.137418E+7	-3.822665E-9	NaN
1064	1.000000	0.514878	7.37546e+06	-53339.1	1055.82	-29746.6	0.000000	0.000000	6.514938	0.027979	NaN	0.000000	0.001577	0.001678	28.0823	0.067160	0.001934	34.719	46.3259	-165.308	0.054969	0.513504	-0.526731	-0.528106	0.027979	34.719	-0.527336	-8.23316e+06	-3.398311E-9	NaN
1064	1.000000	0.522874	7.37546e+06	-53339.1	1055.82	-29746.6	0.000000	0.000000	6.522931	-0.030411	NaN	0.000000	0.001603	0.001690	28.0824	0.078664	0.001945	40.4467	-121.367	-163.545	0.001160	0.521552	-0.518735	-0.520058	-0.030411	40.4467	-0.518172	-6.13994e+06	4.953036E-9	NaN
1064	1.000000	0.530889	7.37546e+06	-53339.1	1055.82	-29746.6	0.000000	0.000000	6.530949	0.039169	NaN	0.000000	0.001572	0.001655	28.0825	0.028344	0.002067	13.7091	172.612	-164.807	-0.007427	0.529591	-0.510721	-0.512018	0.039169	13.7091	-0.512864	-5.17956e+06	-7.562254E-9	NaN
1064	1.000000	0.538873	7.37546e+06	-53339.1	1055.82	-29746.6	0.000000	0.000000	6.538932	0.027329	NaN	0.000000	0.001575	0.001682	28.0823	0.121331	0.002125	57.1024	168.282	-166.031	-0.012431	0.537543	-0.502737	-0.504067	0.027329	57.1024	-0.503095	-3.7861e+06	-7.218153E-9	NaN
1064	1.000000	0.546886	7.37546e+06	-53339.1	1055.82	-29746.6	0.000000	0.000000	6.546945	0.021197	NaN	0.000000	0.001555	0.001710	28.083	0.062459	0.001929	32.3735	67.196	-167.615	0.032368	0.545598	-0.494724	-0.496012	0.021197	32.3735	-0.495215	-2.93926e+06	-7.211660E-9	NaN
1064	1.000000	0.554898	7.37546e+06	-53339.1	1055.82	-29746.6	0.000000	0.000000	6.554953	-0.082081	NaN	0.000000	0.001573	0.001720	28.0825	0.107111	0.001952	54.8685	4.091427	-168.497	-0.067605	0.553632	-0.486711	-0.487978	-0.082081	54.8685	-0.485589	-2.15642e+06	3.806348E-8	NaN
1064	1.000000	0.562887	7.37546e+06	-53339.1	1055.82	-29746.6	0.000000	0.000000	6.562947	0.046946	NaN	0.000000	0.001604	0.001703	28.0823	0.097904	0.001986	49.2857	-148.134	-165.953	0.006864	0.561576	-0.478722	-0.480034	0.046946	49.2857	-0.479437	-1.76866e+06	-2.654343E-8	NaN
1064	1.000000	0.570895	7.37546e+06	-53339.1	1055.82	-29746.6	0.000000	0.000000	6.570956	0.051575	NaN	0.000000	0.001556	0.001682	28.0824	0.106660	0.001971	54.1234	134.314	-168.152	0.032142	0.569560	-0.470715	-0.472050	0.051575	54.1234	-0.471429	-1.366e+06	-3.775626E-8	NaN
1064	1.000000	0.578943	7.37546e+06	-53339.1	1055.82	-29746.6	0.000000	0.000000	6.579001	-0.006863	NaN	0.000000	0.001561	0.001701	28.0824	0.087682	0.001890	46.3946	-0.074488	-163.393	0.000701	0.577568	-0.462667	-0.464042	-0.006863	46.3946	-0.462556	-1.02549e+06	6.692790E-9	NaN
1064	1.000000	0.586951	7.37546e+06	-53339.1	1055.82	-29746.6	0.000000	0.000000	6.587012	0.064541	NaN	0.000000	0.001598	0.001668	28.0826	0.154489	0.001971	78.3718	98.1075	-166.295	0.013798	0.585635	-0.454659	-0.455975	0.064541	78.3718	-0.455277	-810232	-7.965768E-8	NaN
1064	1.000000	0.594919	7.37546e+06	-53339.1	1055.82	-29746.6	0.000000	0.000000	6.594975	-0.045737	NaN	0.000000	0.001576	0.001705	28.0825	0.089262	0.001972	45.2608	-101.22	-165.854	-0.020227	0.593599	-0.446691	-0.448011	-0.045737	45.2608	-0.445933	-598471	7.642294E-8	NaN
1064	1.000000	0.602915	7.37546e+06	-53339.1	1055.82	-29746.6	0.000000	0.000000	6.602972	-0.007799	NaN	0.000000	0.001526	0.001671	28.0828	0.051780	0.002005	25.825	97.3394	-165.95	0.000992	0.601620	-0.438695	-0.439990	-0.007799	25.825	-0.438469	-469620	1.660674E-8	NaN
1064	1.000000	0.610937	7.37546e+06	-53339.1	1055.82	-29746.6	0.000000	0.000000	6.610995	-0.016324	NaN	0.000000	0.001576	0.001680	28.0825	0.060389	0.001993	30.3039	-55.738	-165.387	-0.035611	0.609613	-0.430673	-0.431996	-0.016324	30.3039	-0.430269	-359635	4.539108E-8	NaN
1064	1.000000	0.618890	7.37546e+06	-53339.1	1055.82	-29746.6	0.000000	0.000000	6.618948	0.004264	NaN	0.000000	0.001639	0.001671	28.0825	0.052556	0.001907	27.5632	-156.38	-167.417	0.025175	0.617604	-0.422720	-0.424006	0.004264	27.5632	-0.422836	-282242	-1.510865E-8	NaN
1064	1.000000	0.626917	7.37546e+06	-53339.1	1055.82	-29746.6	0.000000	0.000000	6.626977	0.052751	NaN	0.000000	0.001623	0.001656	28.0825	0.050937	0.002030	25.0936	164.571	-165.647	0.076446	0.625620	-0.414693	-0.415990	0.052751	25.0936	-0.416270	-227763	-2.316048E-7	NaN
1064	1.000000	0.634959	7.37546e+06	-53339.1	1055.82	-29746.6	0.000000	0.000000	6.635016	-0.021881	NaN	0.000000	0.001634	0.001692	28.0827	0.053926	0.001937	27.8399	-78.7261	-164.164	-0.061934	0.633649	-0.406651	-0.407961	-0.021881	27.8399	-0.406062	-163066	1.341852E-7	NaN
1064	1.000000	0.642941	7.37546e+06	-53339.1	1055.82	-29746.6	0.000000	0.000000	6.642998	-0.034678	NaN	0.000000	0.001632	0.001677	28.0841	0.126771	0.002137	59.3225	115.586	-170.363	-0.013472	0.641669	-0.398669	-0.399940	-0.034678	59.3225	-0.398230	-126110	2.749812E-7	NaN
1064	1.000000	0.650934	7.37546e+06	-53339.1	1055.82	-29746.6	0.000000	0.000000	6.650995	0.072134	NaN	0.000000	0.001659	0.001722	28.0839	0.059299	0.002056	28.8401	18.8067	-165.753	0.110963	0.649639	-0.390676	-0.391970	0.072134	28.8401	-0.392552	-104631	-6.894185E-7	NaN
1064	1.000000	0.658931	7.37546e+06	-53339.1	1055.82	-29746.6	0.000000	0.000000	6.658992	0.061754	NaN	0.000000	0.001652	0.001680	28.084	0.080136	0.002015	39.767	-13.5174	-165.869	-0.000105	0.657629	-0.382679	-0.383981	0.061754	39.767	-0.383843	-78525.2	-7.864220E-7	NaN
1064	1.000000	0.666953	7.37546e+06	-53339.1	1055.82	-29746.6	0.000000	0.000000	6.667013	0.042310	NaN	0.000000	0.001682	0.001687	28.084	0.039636	0.002034	19.4828	42.5348	-167.188	0.025694	0.665611	-0.374656	-0.375999	0.042310	19.4828	-0.376285	-61170.3	-6.916783E-7	NaN
1064	1.000000	0.674916	7.37546e+06	-53339.1	1055.82	-29746.6	0.000000	0.000000	6.674979	0.106130	NaN	0.000000	0.001663	0.001689	28.084	0.201360	0.001888	106.625	171.54	-166.71	0.105148	0.673648	-0.366694	-0.367962	0.106130	106.625	-0.367440	-45629.4	-2.325917E-6	NaN
1064	1.000000	0.682971	7.37546e+06	-53339.1	1055.82	-29746.6	0.000000	0.000000	6.683030	0.034076	NaN	0.000000	0.001645	0.001657	28.0841	0.016431	0.002029	8.098572	-154.633	-164.986	-0.034860	0.681633	-0.358639	-0.359977	0.034076	8.098572	-0.361795	-37824.9	-9.008962E-7	NaN
1064	1.000000	0.690925	7.37546e+06	-53339.1	1055.82	-29746.6	0.000000	0.000000	6.690986	0.060044	NaN	0.000000	0.001608	0.001666	28.0841	0.061790	0.001993	31.0057	174.568	-167.417	0.057249	0.689646	-0.350685	-0.351963	0.060044	31.0057	-0.352137	-27416	-2.190100E-6	NaN
1064	1.000000	0.698946	7.37546e+06	-53339.1	1055.82	-29746.6	0.000000	0.000000	6.699007	0.053614	NaN	0.000000	0.001642	0.001677	28.0841	0.087611	0.001896	46.2038	156.925	-165.06	0.042316	0.697640	-0.342663	-0.343970	0.053614	46.2038	-0.343534	-20560	-2.607691E-6	NaN
1064	1.000000	0.706959	7.37546e+06	-53339.1	1055.82	-29746.6	0.000000	0.000000	6.707018	0.015795	NaN	0.000000	0.001610	0.001668	28.0839	0.064166	0.002082	30.8207	-153.373	-167.614	0.022678	0.705640	-0.334650	-0.335970	0.015795	30.8207	-0.335035	-15455.9	-1.021912E-6	NaN
1064	1.000000	0.714973	7.37546e+06	-53339.1	1055.82	-29746.6	0.000000	0.000000	6.715031	0.004411	NaN	0.000000	0.001654	0.001651	28.0839	0.056331	0.001900	29.6514	131.929	-165.04	0.002678	0.713683	-0.326637	-0.327926	0.004411	29.6514	-0.326749	-11689.5	-3.773633E-7	NaN
1064	1.000000	0.722956	7.37546e+06	-53339.1	1055.82	-29746.6	0.000000	0.000000	6.723016	0.041375	NaN	0.000000	0.001624	0.001687	28.0838	0.082439	0.001927	42.7784	179.917	-169.88	0.099924	0.721611	-0.318653	-0.319999	0.041375	42.7784	-0.319379	-9109.44	-4.542037E-6	NaN
1064	1.000000	0.730978	7.37546e+06	-53339.1	1055.82	-29746.6	0.000000	0.000000	6.731035	-0.021028	NaN	0.000000	0.001589	0.001676	28.0839	0.050736	0.001969	25.7643	-56.7137	-166.119	0.003930	0.729679	-0.310632	-0.311930	-0.021028	25.7643	-0.310020	-6627.54	3.172751E-6	NaN
1064	1.000000	0.738993	7.37546e+06	-53339.1	1055.82	-29746.6	0.000000	0.000000	6.739054	0.064159	NaN	0.000000	0.001607	0.001665	28.0841	0.107770	0.001992	54.1049	53.8935	-166.146	0.009539	0.737667	-0.302617	-0.303943	0.064159	54.1049	-0.303506	-5306.1	-1.209162E-5	NaN
1064	1.000000	0.746973	7.37546e+06	-53339.1	1055.82	-29746.6	0.000000	0.000000	6.747032	0.022860	NaN	0.000000	0.001608	0.001690	28.084	0.009032	0.002083	4.336776	171.194	-166.798	0.090135	0.745682	-0.294636	-0.295928	0.022860	4.336776	-0.298590	-4483.67	-5.098406E-6	NaN
1064	1.000000	0.755016	7.37546e+06	-53339.1	1055.82	-29746.6	0.000000	0.000000	6.755076	0.030081	NaN	0.000000	0.001578	0.001672	28.084	0.040786	0.002130	19.1453	-88.7026	-166.233	-0.015338	0.753706	-0.286593	-0.287904	0.030081	19.1453	-0.287772	-3089.53	-9.736502E-6	NaN
1064	1.000000	0.762986	7.37546e+06	-53339.1	1055.82	-29746.6	0.000000	0.000000	6.763045	0.005376	NaN	0.000000	0.001540	0.001677	28.0839	0.026763	0.001987	13.47	82.3608	-165.191	-0.041070	0.761714	-0.278623	-0.279896	0.005376	13.47	-0.278923	-2273.59	-2.364452E-6	NaN
1064	1.000000	0.770983	7.37546e+06	-53339.1	1055.82	-29746.6	0.000000	0.000000	6.771042	0.038684	NaN	0.000000	0.001539	0.001680	28.0838	0.077798	0.002008	38.75	-179.469	-164.757	0.038625	0.769674	-0.270627	-0.271936	0.038684	38.75	-0.271376	-1747.61	-2.213513E-5	NaN
1064	1.000000	0.779011	7.37546e+06	-53339.1	1055.82	-29746.6	0.000000	0.000000	6.779070	0.030080	NaN	0.000000	0.001565	0.001645	28.0827	0.076189	0.001993	38.2302	177.237	-166.05	0.061019	0.777626	-0.262599	-0.263984	0.030080	38.2302	-0.263189	-1311.37	-2.293819E-5	NaN
1064	1.000000	0.787004	7.37546e+06	-53339.1	1055.82	-29746.6	0.000000	0.000000	6.787063	0.021655	NaN	0.000000	0.001561	0.001658	28.0831	0.043000	0.001958	21.9641	25.9121	-165.692	0.012509	0.785643	-0.254605	-0.255966	0.021655	21.9641	-0.255345	-994.083	-2.178391E-5	NaN
1064	1.000000	0.794998	7.37546e+06	-53339.1	1055.82	-29746.6	0.000000	0.000000	6.795056	0.014507	NaN	0.000000	0.001570	0.001683	28.0829	0.032098	0.002080	15.4341	-57.1108	-167.442	0.007659	0.793744	-0.246612	-0.247866	0.014507	15.4341	-0.247317	-747.172	-1.941585E-5	NaN
1064	1.000000	0.803000	7.37546e+06	-53339.1	1055.82	-29746.6	0.000000	0.000000	6.803059	0.031641	NaN	0.000000	0.001559	0.001655	28.0827	0.071146	0.001862	38.2161	161.938	-163.271	0.010902	0.801693	-0.238610	-0.239916	0.031641	38.2161	-0.239231	-559.155	-5.658762E-5	NaN
1064	1.000000	0.811033	7.37546e+06	-53339.1	1055.82	-29746.6	0.000000	0.000000	6.811090	-0.032438	NaN	0.000000	0.001591	0.001642	28.0828	0.045059	0.001963	22.9505	-128.432	-165.554	-0.095502	0.809732	-0.230577	-0.231877	-0.032438	22.9505	-0.229517	-393.445	8.244537E-5	NaN
1064	1.000000	0.818982	7.37546e+06	-53339.1	1055.82	-29746.6	0.000000	0.000000	6.819037	-0.072185	NaN	0.000000	0.001615	0.001682	28.0825	0.096516	0.001959	49.2711	-178.855	-166.295	-0.076687	0.817716	-0.222628	-0.223893	-0.072185	49.2711	-0.221529	-293.826	0.000246	NaN
1064	1.000000	0.827010	7.37546e+06	-53339.1	1055.82	-29746.6	0.000000	0.000000	6.827068	-0.006061	NaN	0.000000	0.001582	0.001704	28.0828	0.063628	0.001877	33.8941	-40.2661	-166.857	-0.036549	0.825738	-0.214600	-0.215872	-0.006061	33.8941	-0.214465	-226.419	2.676986E-5	NaN
1064	1.000000	0.835020	7.37546e+06	-53339.1	1055.82	-29746.6	0.000000	0.000000	6.835081	0.064046	NaN	0.000000	0.001547	0.001656	28.0828	0.053469	0.002116	25.2699	-82.2176	-160.853	0.028652	0.833695	-0.206590	-0.207914	0.064046	25.2699	-0.208491	-181.281	-0.000353	NaN
1064	1.000000	0.843047	7.37546e+06	-53339.1	1055.82	-29746.6	0.000000	0.000000	6.843105	-0.006219	NaN	0.000000	0.001547	0.001687	28.0827	0.055116	0.002049	26.8984	11.6753	-167.118	0.026719	0.841711	-0.198563	-0.199898	-0.006219	26.8984	-0.198389	-123.936	5.017741E-5	NaN
1064	1.000000	0.851039	7.37546e+06	-53339.1	1055.82	-29746.6	0.000000	0.000000	6.851097	0.005470	NaN	0.000000	0.001609	0.001692	28.083	0.065408	0.001924	33.9938	-135.51	-167.216	0.044926	0.849741	-0.190571	-0.191869	0.005470	33.9938	-0.190692	-92.3801	-5.921435E-5	NaN
1064	1.000000	0.859014	7.37546e+06	-53339.1	1055.82	-29746.6	0.000000	0.000000	6.859070	-0.049806	NaN	0.000000	0.001563	0.001688	28.0827	0.061724	0.001941	31.7944	-59.4015	-165.876	-0.030998	0.857745	-0.182596	-0.183865	-0.049806	31.7944	-0.181421	-64.5069	0.000772	NaN
1064	1.000000	0.867061	7.37546e+06	-53339.1	1055.82	-29746.6	0.000000	0.000000	6.867120	0.036621	NaN	0.000000	0.001529	0.001737	28.0829	0.039437	0.001910	20.6431	153.731	-164.749	-0.054109	0.865788	-0.174549	-0.175821	0.036621	20.6431	-0.175879	-51.8894	-0.000706	NaN
1064	1.000000	0.875027	7.37546e+06	-53339.1	1055.82	-29746.6	0.000000	0.000000	6.875084	-0.034783	NaN	0.000000	0.001562	0.001704	28.083	0.101017	0.001962	51.4824	-137.319	-164.117	-0.024644	0.873761	-0.166583	-0.167848	-0.034783	51.4824	-0.166076	-35.0894	0.000991	NaN
1064	1.000000	0.883051	7.37546e+06	-53339.1	1055.82	-29746.6	0.000000	0.000000	6.883111	0.049606	NaN	0.000000	0.001565	0.001647	28.0828	0.100156	0.002024	49.4723	-164.671	-168.082	0.119515	0.881742	-0.158559	-0.159868	0.049606	49.4723	-0.159311	-26.6522	-0.001861	NaN
1064	1.000000	0.891070	7.37546e+06	-53339.1	1055.82	-29746.6	0.000000	0.000000	6.891126	-0.060271	NaN	0.000000	0.001578	0.001680	28.0829	0.121407	0.002010	60.3874	-55.077	-164.061	-0.049281	0.889726	-0.150540	-0.151884	-0.060271	60.3874	-0.149791	-17.9555	0.003357	NaN
1064	1.000000	0.899051	7.37546e+06	-53339.1	1055.82	-29746.6	0.000000	0.000000	6.899110	0.029740	NaN	0.000000	0.001561	0.001709	28.0828	0.005016	0.001846	2.717206	-86.7177	-167.334	0.042341	0.897735	-0.142559	-0.143875	0.029740	2.717206	-0.150768	-18.7065	-0.001590	NaN
1064	1.000000	0.907050	7.37546e+06	-53339.1	1055.82	-29746.6	0.000000	0.000000	6.907107	-0.019056	NaN	0.000000	0.001568	0.001676	28.0833	0.154057	0.002024	76.0991	-165.457	-164.673	0.054693	0.905729	-0.134560	-0.135881	-0.019056	76.0991	-0.134372	-9.253159	0.002059	NaN
1064	1.000000	0.915067	7.37546e+06	-53339.1	1055.82	-29746.6	0.000000	0.000000	6.915125	0.000996	NaN	0.000000	0.001554	0.001714	28.0841	0.049804	0.002042	24.3888	165.569	-163.403	0.044409	0.913729	-0.126543	-0.127881	0.000996	24.3888	-0.126573	-6.531756	-0.000153	NaN
1064	1.000000	0.923042	7.37546e+06	-53339.1	1055.82	-29746.6	0.000000	0.000000	6.923103	0.082878	NaN	0.000000	0.001550	0.001681	28.0843	0.054274	0.001904	28.5032	2.122910	-166.007	-0.008970	0.921795	-0.118568	-0.119815	0.082878	28.5032	-0.120749	-5.002294	-0.016568	NaN
1064	1.000000	0.931066	7.37546e+06	-53339.1	1055.82	-29746.6	0.000000	0.000000	6.931123	-0.030743	NaN	0.000000	0.001564	0.001708	28.0842	0.011095	0.002039	5.440892	-162.147	-166.772	0.011452	0.929744	-0.110544	-0.111865	-0.030743	5.440892	-0.106306	-2.507788	0.012259	NaN
1064	1.000000	0.939079	7.37546e+06	-53339.1	1055.82	-29746.6	0.000000	0.000000	6.939140	0.067735	NaN	0.000000	0.001625	0.001654	28.0843	0.018683	0.001985	9.412877	-79.7162	-166.016	0.091691	0.937698	-0.102531	-0.103912	0.067735	9.412877	-0.107928	-2.716184	-0.024938	NaN
1064	1.000000	0.947042	7.37546e+06	-53339.1	1055.82	-29746.6	0.000000	0.000000	6.947101	0.018811	NaN	0.000000	0.001555	0.001686	28.0843	0.053930	0.002040	26.4352	-101.267	-166.585	0.113114	0.945781	-0.094568	-0.095828	0.018811	26.4352	-0.095101	-1.418148	-0.013265	NaN
1064	1.000000	0.955080	7.37546e+06	-53339.1	1055.82	-29746.6	0.000000	0.000000	6.955138	0.003857	NaN	0.000000	0.001539	0.001680	28.084	0.084101	0.002027	41.4951	79.7082	-165.323	-0.011734	0.953754	-0.086530	-0.087856	0.003857	41.4951	-0.086600	-0.897837	-0.004296	NaN
1064	1.000000	0.963055	7.37546e+06	-53339.1	1055.82	-29746.6	0.000000	0.000000	6.963115	0.043727	NaN	0.000000	0.001562	0.001624	28.0844	0.090214	0.002010	44.8917	-33.698	-167.104	0.029827	0.961769	-0.078554	-0.079841	0.043727	44.8917	-0.079285	-0.593969	-0.073619	NaN
1064	1.000000	0.971093	7.37546e+06	-53339.1	1055.82	-29746.6	0.000000	0.000000	6.971151	-0.007648	NaN	0.000000	0.001568	0.001681	28.0844	0.036163	0.001992	18.1569	134.412	-168.517	0.028368	0.969790	-0.070517	-0.071819	-0.007648	18.1569	-0.070201	-0.345355	0.022145	NaN
1064	1.000000	0.979094	7.37546e+06	-53339.1	1055.82	-29746.6	0.000000	0.000000	6.979152	0.003135	NaN	0.000000	0.001520	0.001677	28.0842	0.037570	0.002146	17.508	-162.689	-164.617	0.074034	0.977752	-0.062516	-0.063858	0.003135	17.508	-0.062650	-0.214225	-0.014633	NaN
1064	1.000000	0.987095	7.37546e+06	-53339.1	1055.82	-29746.6	0.000000	0.000000	6.987154	0.024628	NaN	0.000000	0.001573	0.001711	28.0842	0.126823	0.002101	60.3532	165.941	-168.661	0.050788	0.985773	-0.054515	-0.055836	0.024628	60.3532	-0.054821	-0.127217	-0.193595	NaN
1064	1.000000	0.995103	7.37546e+06	-53339.1	1055.82	-29746.6	0.000000	0.000000	6.995159	-0.063998	NaN	0.000000	0.001549	0.001708	28.0842	0.170481	0.001958	87.08	-133.817	-165.596	-0.018690	0.993796	-0.046507	-0.047814	-0.063998	87.08	-0.045955	-0.068739	0.931036	NaN
1064	1.000000	1.003090	7.37546e+06	-53339.1	1055.82	-29746.6	0.000000	0.000000	7.003146	-0.041200	NaN	0.000000	0.001530	0.001657	28.0843	0.029297	0.001932	15.1606	-143.091	-166.154	-0.010701	1.001798	-0.038520	-0.039812	-0.041200	15.1606	-0.036482	-0.035432	1.162780	NaN
1064	1.000000	1.011083	7.37546e+06	-53339.1	1055.82	-29746.6	0.000000	0.000000	7.011142	0.012868	NaN	0.000000	0.001559	0.001663	28.0842	0.039288	0.001908	20.5939	-142.871	-163.751	0.002517	1.009753	-0.030527	-0.031857	0.012868	20.5939	-0.030995	-0.024541	-0.524367	NaN
1064	1.000000	1.019090	7.37546e+06	-53339.1	1055.82	-29746.6	0.000000	0.000000	7.019148	-0.021856	NaN	0.000000	0.001603	0.001699	28.0843	0.062738	0.001930	32.5028	80.8516	-169.792	-0.063354	1.017813	-0.022519	-0.023797	-0.021856	32.5028	-0.022015	-0.014134	1.546404	NaN
1064	1.000000	1.027105	7.37546e+06	-53339.1	1055.82	-29746.6	0.000000	0.000000	7.027164	0.012508	NaN	0.000000	0.001584	0.001671	28.0843	0.020907	0.002031	10.293	-161.125	-169.075	0.011848	1.025719	-0.014505	-0.015891	0.012508	10.293	-0.015416	-0.009526	-1.312986	NaN
1064	1.000000	1.035091	7.37546e+06	-53339.1	1055.82	-29746.6	0.000000	0.000000	7.035151	0.053186	NaN	0.000000	0.001579	0.001644	28.0842	0.066984	0.001950	34.3429	7.661598	-165.554	0.005588	1.033786	-0.006519	-0.007824	0.053186	34.3429	-0.007681	-0.005044	-10.5444	NaN
1064	1.000000	1.043081	7.37546e+06	-53339.1	1055.82	-29746.6	0.000000	0.000000	7.043143	0.086025	NaN	0.000000	0.001580	0.001680	28.0842	0.184502	0.001972	93.5558	-18.194	-168.418	-0.012489	1.041810	0.001472	0.000200	0.086025	93.5558	0.000782	0.000593	144.982	3509.05
1064	1.000000	1.050984	7.37546e+06	-53339.1	1055.82	-29746.6	0.000000	0.000000	7.051336	7.157954	NaN	0.000000	0.001605	0.001673	28.0829	7.024406	0.001706	4116.53	6.758046	-169.823	5.124709	1.049798	0.009374	0.008188	7.157954	4116.53	0.008070	0.007114	1006.13	44589.9
1064	2.000000	1.053780	7.37546e+06	-53339.1	1055.82	-29746.6	0.000000	0.000000	7.054293	11.0548	NaN	0.000000	0.001602	0.001697	28.0832	9.710154	0.001534	6328.71	2.646609	-169.81	10.0131	1.053459	0.012171	0.011849	11.0548	6328.71	0.010861	0.010154	1088.75	57382.1
1064	2.000000	1.055846	7.37546e+06	-53339.1	1055.82	-29746.6	0.000000	0.000000	7.056492	14.2693	NaN	0.000000	0.001616	0.001669	28.0832	11.9817	0.001787	6704.23	10.6145	-174.995	15.4281	1.055432	0.014237	0.013822	14.2693	6704.23	0.012640	0.012266	1163.3	55305.2
1064	2.000000	1.057742	7.37546e+06	-53339.1	1055.82	-29746.6	0.000000	0.000000	7.058442	15.6086	NaN	0.000000	0.001603	0.001675	28.0835	14.7242	0.001895	7770.34	10.7916	-178.562	14.8063	1.057458	0.016132	0.015848	15.6086	7770.34	0.014625	0.014789	1055.41	58377.1
1064	2.000000	1.059746	7.37546e+06	-53339.1	1055.82	-29746.6	0.000000	0.000000	7.060672	21.084	NaN	0.000000	0.001595	0.001649	28.0829	16.0279	0.001706	9395.58	3.407189	-174.464	20.3429	1.059452	0.018137	0.017842	21.084	9395.58	0.016454	0.017273	1220.64	65315.1
1064	2.000000	1.061745	7.37546e+06	-53339.1	1055.82	-29746.6	0.000000	0.000000	7.062784	23.8361	NaN	0.000000	0.001604	0.001648	28.0831	17.5614	0.001740	10090	5.416336	-175.468	23.5774	1.061430	0.020135	0.019820	23.8361	10090	0.018364	0.020036	1189.67	65126.7
1064	2.000000	1.063766	7.37546e+06	-53339.1	1055.82	-29746.6	0.000000	0.000000	7.064941	27.1595	NaN	0.000000	0.001551	0.001678	28.083	20.1477	0.001798	11208.3	1.164039	-171.859	28.5248	1.063511	0.022156	0.021901	27.1595	11208.3	0.020338	0.023077	1176.91	67410
1064	2.000000	1.065751	7.37546e+06	-53339.1	1055.82	-29746.6	0.000000	0.000000	7.067265	35.3981	NaN	0.000000	0.001600	0.001682	28.0837	22.4833	0.001871	12014.5	5.923773	-176.639	35.4172	1.065355	0.024141	0.023745	35.3981	12014.5	0.021932	0.025669	1379.01	68512.7
1064	2.000000	1.067725	7.37546e+06	-53339.1	1055.82	-29746.6	0.000000	0.000000	7.069513	42.0687	NaN	0.000000	0.001624	0.001684	28.0831	24.0477	0.001672	14382.8	5.391445	-179.27	41.8835	1.067351	0.026115	0.025741	42.0687	14382.8	0.023921	0.029082	1446.54	77055.2
1064	2.000000	1.069667	7.37546e+06	-53339.1	1055.82	-29746.6	0.000000	0.000000	7.071471	42.4505	NaN	0.000000	0.001603	0.001690	28.083	27.24	0.001668	16332	4.969382	179.428	40.1646	1.069483	0.028057	0.027873	42.4505	16332	0.026107	0.033061	1284	82064.3
1064	2.000000	1.071707	7.37546e+06	-53339.1	1055.82	-29746.6	0.000000	0.000000	7.073919	52.374	NaN	0.000000	0.001615	0.001677	28.0833	28.6315	0.001824	15700.4	6.447713	179.074	51.4375	1.071368	0.030097	0.029758	52.374	15700.4	0.027595	0.035907	1458.59	75699.4
1064	2.000000	1.073625	7.37546e+06	-53339.1	1055.82	-29746.6	0.000000	0.000000	7.076090	58.5326	NaN	0.000000	0.001630	0.001694	28.0831	31.4899	0.001810	17401.6	6.632309	177.767	56.1046	1.073377	0.032015	0.031767	58.5326	17401.6	0.029492	0.039698	1474.45	79795.6
1064	2.000000	1.075666	7.37546e+06	-53339.1	1055.82	-29746.6	0.000000	0.000000	7.078373	64.395	NaN	0.000000	0.001634	0.001699	28.0842	33.646	0.001834	18345.5	6.954336	176.71	62.0707	1.075378	0.034056	0.033769	64.395	18345.5	0.031424	0.043746	1472.01	80136.8
1064	2.000000	1.077665	7.37546e+06	-53339.1	1055.82	-29746.6	0.000000	0.000000	7.080558	68.9047	NaN	0.000000	0.001631	0.001689	28.0833	35.2028	0.001856	18967.9	4.367045	179.124	67.8622	1.077416	0.036056	0.035806	68.9047	18967.9	0.033331	0.047932	1437.56	79155.6
1064	2.000000	1.079673	7.37546e+06	-53339.1	1055.82	-29746.6	0.000000	0.000000	7.082814	74.9448	NaN	0.000000	0.001655	0.001691	28.083	37.11	0.001712	21675.5	4.676282	177.538	73.3566	1.079446	0.038063	0.037836	74.9448	21675.5	0.035470	0.052846	1418.17	86146.4
1064	2.000000	1.081643	7.37546e+06	-53339.1	1055.82	-29746.6	0.000000	0.000000	7.085276	86.9094	NaN	0.000000	0.001621	0.001735	28.083	37.9513	0.001714	22138.5	4.070118	179.006	83.476	1.081335	0.040033	0.039725	86.9094	22138.5	0.037089	0.056722	1532.21	84927.2
1064	2.000000	1.083636	7.37546e+06	-53339.1	1055.82	-29746.6	0.000000	0.000000	7.087530	93.2546	NaN	0.000000	0.001634	0.001710	28.0828	41.8883	0.001851	22624.6	8.720793	174.556	92.1332	1.083318	0.042026	0.041708	93.2546	22624.6	0.038935	0.061305	1521.16	83484.7
1064	2.000000	1.085675	7.37546e+06	-53339.1	1055.82	-29746.6	0.000000	0.000000	7.089805	98.9971	NaN	0.000000	0.001624	0.001667	28.0852	43.6741	0.001891	23096.8	2.410781	179.634	96.9598	1.085412	0.044065	0.043803	98.9971	23096.8	0.040850	0.066245	1494.42	81987.9
1064	2.000000	1.087713	7.37546e+06	-53339.1	1055.82	-29746.6	0.000000	0.000000	7.092369	111.767	NaN	0.000000	0.001590	0.001669	28.0842	45.156	0.001791	25208.4	6.127253	175.076	110.677	1.087316	0.046104	0.045706	111.767	25208.4	0.042778	0.071406	1565.23	86189
1064	2.000000	1.089673	7.37546e+06	-53339.1	1055.82	-29746.6	0.000000	0.000000	7.094680	120.322	NaN	0.000000	0.001593	0.001705	28.084	47.205	0.001777	26569.2	5.785943	175.241	119.186	1.089342	0.048063	0.047733	120.322	26569.2	0.044667	0.076644	1569.88	87682.4
1064	2.000000	1.091666	7.37546e+06	-53339.1	1055.82	-29746.6	0.000000	0.000000	7.097207	133.294	NaN	0.000000	0.001610	0.001710	28.0842	47.0863	0.001649	28554.6	0.546368	-179.9	131.055	1.091363	0.050056	0.049753	133.294	28554.6	0.046555	0.082064	1624.26	91069.4
1064	2.000000	1.093671	7.37546e+06	-53339.1	1055.82	-29746.6	0.000000	0.000000	7.099404	137.978	NaN	0.000000	0.001631	0.001717	28.0841	50.376	0.001715	29369.2	3.600849	176.62	136.249	1.093346	0.052061	0.051736	137.978	29369.2	0.048538	0.087947	1568.88	90480.4
1064	2.000000	1.095684	7.37546e+06	-53339.1	1055.82	-29746.6	0.000000	0.000000	7.101809	147.515	NaN	0.000000	0.001622	0.001704	28.0852	52.4205	0.001718	30505.3	3.705742	176.71	145.396	1.095348	0.054074	0.053738	147.515	30505.3	0.050447	0.093801	1572.64	91000.9
1064	2.000000	1.097701	7.37546e+06	-53339.1	1055.82	-29746.6	0.000000	0.000000	7.104263	158.126	NaN	0.000000	0.001617	0.001736	28.0844	54.1728	0.001791	30250	2.220542	178.058	159.5	1.097339	0.056091	0.055729	158.126	30250	0.052171	0.099240	1593.37	87731.5
1064	2.000000	1.099663	7.37546e+06	-53339.1	1055.82	-29746.6	0.000000	0.000000	7.106649	168.447	NaN	0.000000	0.001615	0.001684	28.0842	57.2196	0.001826	31329.8	6.829955	173.035	168.273	1.099340	0.058053	0.057730	168.447	31329.8	0.054020	0.105244	1600.54	88233.3
1064	2.000000	1.101614	7.37546e+06	-53339.1	1055.82	-29746.6	0.000000	0.000000	7.109129	181.315	NaN	0.000000	0.001622	0.001733	28.0845	58.2979	0.001832	31819.5	5.894609	173.466	178.688	1.101380	0.060004	0.059771	181.315	31819.5	0.055730	0.110944	1634.29	87279.9
1064	2.000000	1.103616	7.37546e+06	-53339.1	1055.82	-29746.6	0.000000	0.000000	7.111597	192.642	NaN	0.000000	0.001656	0.001695	28.0842	62.0837	0.001892	32805.4	6.549179	172.903	190.904	1.103307	0.062006	0.061697	192.642	32805.4	0.057602	0.117350	1641.61	87493.8
1064	2.000000	1.105661	7.37546e+06	-53339.1	1055.82	-29746.6	0.000000	0.000000	7.114168	205.403	NaN	0.000000	0.001627	0.001676	28.0845	64.0453	0.001773	36126.9	6.200235	172.616	207.142	1.105434	0.064051	0.063824	205.403	36126.9	0.059787	0.125047	1642.61	93340.1
1064	2.000000	1.107634	7.37546e+06	-53339.1	1055.82	-29746.6	0.000000	0.000000	7.116469	213.379	NaN	0.000000	0.001622	0.001653	28.0846	63.6786	0.001663	38290.2	2.852061	175.172	211.021	1.107418	0.066024	0.065808	213.379	38290.2	0.061845	0.132506	1610.33	96104.2
1064	2.000000	1.109758	7.37546e+06	-53339.1	1055.82	-29746.6	0.000000	0.000000	7.118944	221.915	NaN	0.000000	0.001608	0.001661	28.0842	68.1941	0.001843	37006.6	2.452901	176.038	227.12	1.109373	0.068148	0.067763	221.915	37006.6	0.063651	0.139224	1593.95	90614.1
1064	2.000000	1.111646	7.37546e+06	-53339.1	1055.82	-29746.6	0.000000	0.000000	7.121680	242.536	NaN	0.000000	0.001621	0.001612	28.0844	68.7173	0.001734	39623.2	6.588948	171.964	242.087	1.111295	0.070036	0.069685	242.536	39623.2	0.065446	0.146056	1660.56	94724.6
1064	2.000000	1.113661	7.37546e+06	-53339.1	1055.82	-29746.6	0.000000	0.000000	7.124138	253.324	NaN	0.000000	0.001550	0.001652	28.0843	72.1452	0.001873	38523.6	6.067093	172.327	255.672	1.113377	0.072051	0.071767	253.324	38523.6	0.067119	0.152566	1660.42	90109.6
1064	2.000000	1.115603	7.37546e+06	-53339.1	1055.82	-29746.6	0.000000	0.000000	7.126663	267.486	NaN	0.000000	0.001552	0.001690	28.0852	73.6562	0.001817	40543.2	7.308770	171.785	264.622	1.115283	0.073993	0.073674	267.486	40543.2	0.069045	0.160224	1669.45	92539.3
1064	2.000000	1.117650	7.37546e+06	-53339.1	1055.82	-29746.6	0.000000	0.000000	7.129176	278.802	NaN	0.000000	0.001569	0.001703	28.0843	74.6994	0.001730	43181.6	2.792916	174.267	278.532	1.117396	0.076041	0.075786	278.802	43181.6	0.071198	0.168997	1649.75	95969.2
1064	2.000000	1.119604	7.37546e+06	-53339.1	1055.82	-29746.6	0.000000	0.000000	7.131713	292.993	NaN	0.000000	0.001590	0.001678	28.0831	77.9759	0.001935	40288.2	4.837739	173.256	291.874	1.119369	0.077994	0.077759	292.993	40288.2	0.072539	0.174572	1678.36	88097.7
1064	2.000000	1.121592	7.37546e+06	-53339.1	1055.82	-29746.6	0.000000	0.000000	7.134307	307.731	NaN	0.000000	0.001577	0.001712	28.0829	78.2887	0.001706	45881.8	4.798720	172.096	304.758	1.121266	0.079982	0.079656	307.731	45881.8	0.074952	0.184812	1665.1	97509.7
1064	2.000000	1.123601	7.37546e+06	-53339.1	1055.82	-29746.6	0.000000	0.000000	7.136814	319.819	NaN	0.000000	0.001571	0.001674	28.0825	80.6812	0.001801	44786	2.738618	174.408	318.181	1.123355	0.081991	0.081745	319.819	44786	0.076635	0.192123	1664.66	93352.5
1064	2.000000	1.125697	7.37546e+06	-53339.1	1055.82	-29746.6	0.000000	0.000000	7.139653	337.913	NaN	0.000000	0.001547	0.001676	28.0828	83.6239	0.001760	47526.6	7.309135	169.702	340.399	1.125383	0.084087	0.083773	337.913	47526.6	0.078754	0.201512	1676.89	96729.8
1064	2.000000	1.127589	7.37546e+06	-53339.1	1055.82	-29746.6	0.000000	0.000000	7.142173	353.161	NaN	0.000000	0.001550	0.001653	28.0827	84.4722	0.001846	45768.6	4.447870	172.893	352.023	1.127218	0.085980	0.085608	353.161	45768.6	0.080192	0.208002	1697.87	91686.7
1064	2.000000	1.129639	7.37546e+06	-53339.1	1055.82	-29746.6	0.000000	0.000000	7.144810	367.419	NaN	0.000000	0.001606	0.001678	28.0832	87.1601	0.001752	49751.3	4.527908	171.457	366.421	1.129282	0.088030	0.087673	367.419	49751.3	0.082491	0.218577	1680.96	97224.5
1064	2.000000	1.131598	7.37546e+06	-53339.1	1055.82	-29746.6	0.000000	0.000000	7.147542	386.222	NaN	0.000000	0.001606	0.001684	28.0828	88.7187	0.001786	49674.5	7.937339	167.972	383.761	1.131318	0.089989	0.089708	386.222	49674.5	0.084157	0.226398	1705.95	95382.9
1064	2.000000	1.133551	7.37546e+06	-53339.1	1055.82	-29746.6	0.000000	0.000000	7.150315	406.175	NaN	0.000000	0.001602	0.001668	28.0829	90.4392	0.001678	53881.4	4.190632	171.35	402.08	1.133315	0.091941	0.091705	406.175	53881.4	0.086287	0.236580	1716.86	101210
1064	2.000000	1.135580	7.37546e+06	-53339.1	1055.82	-29746.6	0.000000	0.000000	7.153477	433.711	NaN	0.000000	0.001597	0.001657	28.0827	92.9051	0.001735	53544.4	6.078408	170.821	429.667	1.135101	0.093970	0.093491	433.711	53544.4	0.087895	0.244405	1774.56	98953.8
1064	2.000000	1.137632	7.37546e+06	-53339.1	1055.82	-29746.6	0.000000	0.000000	7.156282	452.031	NaN	0.000000	0.001617	0.001640	28.0829	95.8796	0.001897	50543.8	10.3905	167.247	451.784	1.137179	0.096022	0.095569	452.031	50543.8	0.089315	0.251413	1797.96	92097.3
1064	2.000000	1.139538	7.37546e+06	-53339.1	1055.82	-29746.6	0.000000	0.000000	7.158707	464.636	NaN	0.000000	0.001608	0.001662	28.0831	97.2824	0.001778	54715.7	3.369771	172.631	459.126	1.139303	0.097928	0.097693	464.636	54715.7	0.091559	0.262683	1768.81	97537
1064	2.000000	1.141645	7.37546e+06	-53339.1	1055.82	-29746.6	0.000000	0.000000	7.161315	476.82	NaN	0.000000	0.001578	0.001714	28.0828	96.8757	0.001674	57875.6	0.134731	175.007	478.757	1.141403	0.100036	0.099793	476.82	57875.6	0.093857	0.274455	1737.33	100933
1064	2.000000	1.143602	7.37546e+06	-53339.1	1055.82	-29746.6	0.000000	0.000000	7.164382	503.801	NaN	0.000000	0.001626	0.001657	28.083	100.411	0.001692	59337.9	3.489488	171.727	503.64	1.143322	0.101992	0.101712	503.801	59337.9	0.095625	0.283679	1775.95	101787
1064	2.000000	1.145601	7.37546e+06	-53339.1	1055.82	-29746.6	0.000000	0.000000	7.167349	527.327	NaN	0.000000	0.001582	0.001663	28.0828	103.491	0.001732	59758.6	5.021295	170.648	525.518	1.145178	0.103992	0.103568	527.327	59758.6	0.097374	0.292944	1800.1	100874
1064	2.000000	1.147641	7.37546e+06	-53339.1	1055.82	-29746.6	0.000000	0.000000	7.170260	548.514	NaN	0.000000	0.001599	0.001650	28.0828	105.754	0.001787	59191.4	5.029351	170.647	552.227	1.147293	0.106031	0.105683	548.514	59191.4	0.099081	0.302124	1815.53	98387.4
1064	2.000000	1.149591	7.37546e+06	-53339.1	1055.82	-29746.6	0.000000	0.000000	7.173151	571.394	NaN	0.000000	0.001595	0.001657	28.0829	108.603	0.001786	60795.2	8.168563	167.402	569.492	1.149212	0.107981	0.107602	571.394	60795.2	0.100932	0.312226	1830.06	99404.9
1064	2.000000	1.150517	7.37546e+06	-53339.1	1055.82	-29746.6	0.000000	0.000000	7.174484	581.278	NaN	0.000000	0.001599	0.001652	28.0829	108.152	0.001714	63095.8	3.980550	170.996	578.729	1.150175	0.108907	0.108565	581.278	63095.8	0.101998	0.318112	1827.28	102208