File: remote_trans/data/nanoindenter/0828-1/data/Data_2025-08-06,11h17m57s/2025-07-22_16-23-58_1_1180.txt
2025-07-22, 16:23:58, 1
Index	Phase	Displacement	Time	Pos X	Pos Y	Pos Z	Rot A	Rot B	Piezo Z	Force A	Force B	Gripper	Voltage A	Voltage B	Temperature	Amplitude force	Amplitude pos	Stiffness	Phase shift	Phase excitation	Force A raw	Displacement raw	HMax	HMax raw	Real Force	Real Stiffness	Contact Depth	Area	Hardness	Reduced Mod.
[#]	[#]	[um]	[s]	[um]	[um]	[um]	[m°]	[m°]	[um]	[uN]	[uN]	[V]	[V]	[V]	[°C]	[uN]	[um]	[N/m]	[°]	[°]	[uN]	[um]	[um]	[um]	[uN]	[N/m]	[um]	[um^2]	[MPa]	[MPa]
1180	1.000000	0.002782	7.37659e+06	-56589.1	1105.82	-29738.4	0.000000	0.000000	6.002783	-0.026050	NaN	0.000000	0.001566	0.001687	28.0818	0.027423	0.000905	30.2954	-19.7633	-159.567	0.001607	0.001525	-1.094172	-1.095429	-0.026050	30.2954	-1.093527	-4.103648E+14	6.347992E-17	NaN
1180	1.000000	0.012890	7.37659e+06	-56589.1	1105.82	-29738.4	0.000000	0.000000	6.012885	-0.173484	NaN	0.000000	0.001574	0.001698	28.0819	0.031857	0.001270	25.0904	97.1289	18.3792	-0.128076	0.011403	-1.084064	-1.085551	-0.173484	25.0904	-1.078878	-2.608861E+14	6.649789E-16	NaN
1180	1.000000	0.022720	7.37659e+06	-56589.1	1105.82	-29738.4	0.000000	0.000000	6.022720	-0.057764	NaN	0.000000	0.001581	0.001674	28.0823	0.026962	0.001701	15.8544	13.9183	-169.925	-0.064743	0.021386	-1.074234	-1.075568	-0.057764	15.8544	-1.071501	-2.076630E+14	2.781643E-16	NaN
1180	1.000000	0.032773	7.37659e+06	-56589.1	1105.82	-29738.4	0.000000	0.000000	6.032773	-0.054880	NaN	0.000000	0.001557	0.001662	28.0822	0.068965	0.001931	35.7073	155.074	12.5449	-0.121722	0.031311	-1.064181	-1.065643	-0.054880	35.7073	-1.063028	-1.597768E+14	3.434785E-16	NaN
1180	1.000000	0.042726	7.37659e+06	-56589.1	1105.82	-29738.4	0.000000	0.000000	6.042727	-0.026989	NaN	0.000000	0.001533	0.001684	28.082	0.133665	0.002008	66.5512	-91.7644	-165.905	0.027828	0.041459	-1.054228	-1.055495	-0.026989	66.5512	-1.053924	-1.205475E+14	2.238897E-16	NaN
1180	1.000000	0.052741	7.37659e+06	-56589.1	1105.82	-29738.4	0.000000	0.000000	6.052742	-0.029948	NaN	0.000000	0.001547	0.001661	28.0823	0.046685	0.001946	23.9875	-31.853	17.402	-0.004846	0.051381	-1.044213	-1.045573	-0.029948	23.9875	-1.043277	-8.670097E+13	3.454160E-16	NaN
1180	1.000000	0.062748	7.37659e+06	-56589.1	1105.82	-29738.4	0.000000	0.000000	6.062749	-0.030663	NaN	0.000000	0.001556	0.001679	28.0821	0.090048	0.001971	45.696	138.135	-164.836	-0.105495	0.061423	-1.034206	-1.035531	-0.030663	45.696	-1.033703	-6.445844E+13	4.757080E-16	NaN
1180	1.000000	0.072753	7.37659e+06	-56589.1	1105.82	-29738.4	0.000000	0.000000	6.072753	-0.053933	NaN	0.000000	0.001553	0.001663	28.082	0.008373	0.001965	4.262062	116.809	15.98	-0.046956	0.071385	-1.024201	-1.025568	-0.053933	4.262062	-1.014711	-3.579131E+13	1.506888E-15	NaN
1180	1.000000	0.082736	7.37659e+06	-56589.1	1105.82	-29738.4	0.000000	0.000000	6.082740	0.019485	NaN	0.000000	0.001559	0.001709	28.0822	0.065780	0.001926	34.1614	-157.521	-164.338	-0.015197	0.081496	-1.014218	-1.015458	0.019485	34.1614	-1.014645	-3.571905E+13	-5.455154E-16	NaN
1180	1.000000	0.092753	7.37659e+06	-56589.1	1105.82	-29738.4	0.000000	0.000000	6.092751	-0.102926	NaN	0.000000	0.001574	0.001657	28.0836	0.061554	0.001959	31.4283	158.38	15.5361	-0.140069	0.091397	-1.004201	-1.005557	-0.102926	31.4283	-1.001745	-2.394768E+13	4.297970E-15	NaN
1180	1.000000	0.102770	7.37659e+06	-56589.1	1105.82	-29738.4	0.000000	0.000000	6.102771	-0.053145	NaN	0.000000	0.001551	0.001667	28.0836	0.058155	0.001856	31.3382	75.0468	-164.089	-0.058384	0.101466	-0.994184	-0.995487	-0.053145	31.3382	-0.992912	-1.821060E+13	2.918363E-15	NaN
1180	1.000000	0.112757	7.37659e+06	-56589.1	1105.82	-29738.4	0.000000	0.000000	6.112755	-0.088218	NaN	0.000000	0.001570	0.001665	28.0833	0.092956	0.002021	46.0013	-26.8194	16.8532	-0.115188	0.111403	-0.984197	-0.985551	-0.088218	46.0013	-0.982759	-1.329159E+13	6.637130E-15	NaN
1180	1.000000	0.122775	7.37659e+06	-56589.1	1105.82	-29738.4	0.000000	0.000000	6.122774	-0.077107	NaN	0.000000	0.001562	0.001676	28.0834	0.019619	0.001946	10.0802	-168.401	-166.426	0.028243	0.121459	-0.974179	-0.975495	-0.077107	10.0802	-0.968442	-8.524373E+12	9.045498E-15	NaN
1180	1.000000	0.132750	7.37659e+06	-56589.1	1105.82	-29738.4	0.000000	0.000000	6.132751	-0.027361	NaN	0.000000	0.001572	0.001653	28.0834	0.139092	0.002066	67.3273	156.126	17.7482	-0.055291	0.131389	-0.964204	-0.965564	-0.027361	67.3273	-0.963899	-7.403431E+12	3.695735E-15	NaN
1180	1.000000	0.142772	7.37659e+06	-56589.1	1105.82	-29738.4	0.000000	0.000000	6.142774	-0.007636	NaN	0.000000	0.001533	0.001667	28.0834	0.097578	0.002000	48.7902	-40.6762	-166.897	0.057026	0.141400	-0.954182	-0.955554	-0.007636	48.7902	-0.954065	-5.455633E+12	1.399738E-15	NaN
1180	1.000000	0.152774	7.37659e+06	-56589.1	1105.82	-29738.4	0.000000	0.000000	6.152779	0.063885	NaN	0.000000	0.001573	0.001715	28.0835	0.081345	0.001957	41.5729	51.895	14.4135	0.025555	0.151401	-0.944180	-0.945553	0.063885	41.5729	-0.945332	-4.159760E+12	-1.535777E-14	NaN
1180	1.000000	0.162787	7.37659e+06	-56589.1	1105.82	-29738.4	0.000000	0.000000	6.162787	-0.037927	NaN	0.000000	0.001567	0.001711	28.0836	0.200621	0.001881	106.68	-130.151	-159.121	-0.024576	0.161502	-0.934167	-0.935452	-0.037927	106.68	-0.933901	-2.916340E+12	1.300499E-14	NaN
1180	1.000000	0.172796	7.37659e+06	-56589.1	1105.82	-29738.4	0.000000	0.000000	6.172796	-0.063174	NaN	0.000000	0.001582	0.001690	28.0835	0.016278	0.001984	8.205910	-98.0742	14.5104	-0.089225	0.171432	-0.924158	-0.925521	-0.063174	8.205910	-0.918384	-1.800458E+12	3.508747E-14	NaN
1180	1.000000	0.182823	7.37659e+06	-56589.1	1105.82	-29738.4	0.000000	0.000000	6.182824	-0.021708	NaN	0.000000	0.001565	0.001717	28.0836	0.018954	0.002078	9.119119	-21.6033	-165.222	0.056804	0.181506	-0.914131	-0.915448	-0.021708	9.119119	-0.912346	-1.492260E+12	1.454688E-14	NaN
1180	1.000000	0.192790	7.37659e+06	-56589.1	1105.82	-29738.4	0.000000	0.000000	6.192790	-0.044318	NaN	0.000000	0.001570	0.001661	28.0838	0.023488	0.001892	12.4138	-46.3673	16.088	-4.577707E-5	0.191454	-0.904164	-0.905500	-0.044318	12.4138	-0.901487	-1.064521E+12	4.163182E-14	NaN
1180	1.000000	0.202825	7.37659e+06	-56589.1	1105.82	-29738.4	0.000000	0.000000	6.202824	-0.079288	NaN	0.000000	0.001574	0.001679	28.0836	0.092815	0.002026	45.8084	-129.907	-162.524	-0.095960	0.201487	-0.894129	-0.895467	-0.079288	45.8084	-0.892831	-8.131722E+11	9.750477E-14	NaN
1180	1.000000	0.212815	7.37659e+06	-56589.1	1105.82	-29738.4	0.000000	0.000000	6.212815	-0.074374	NaN	0.000000	0.001617	0.001637	28.0836	0.065370	0.002062	31.7025	165.854	14.2885	-0.115102	0.211460	-0.884138	-0.885494	-0.074374	31.7025	-0.882379	-5.873248E+11	1.266320E-13	NaN
1180	1.000000	0.222810	7.37659e+06	-56589.1	1105.82	-29738.4	0.000000	0.000000	6.222810	-0.042909	NaN	0.000000	0.001609	0.001648	28.0825	0.104152	0.002028	51.3478	107.076	-165.353	-0.078725	0.221513	-0.874144	-0.875441	-0.042909	51.3478	-0.873518	-4.456877E+11	9.627491E-14	NaN
1180	1.000000	0.232819	7.37659e+06	-56589.1	1105.82	-29738.4	0.000000	0.000000	6.232820	-0.028824	NaN	0.000000	0.001630	0.001688	28.0827	0.132845	0.002145	61.9326	80.6654	15.077	0.013588	0.231406	-0.864135	-0.865548	-0.028824	61.9326	-0.863786	-3.291251E+11	8.757688E-14	NaN
1180	1.000000	0.242826	7.37659e+06	-56589.1	1105.82	-29738.4	0.000000	0.000000	6.242828	-0.022295	NaN	0.000000	0.001585	0.001647	28.0824	0.098213	0.001942	50.576	10.5328	-164.089	-0.139468	0.241504	-0.854127	-0.855450	-0.022295	50.576	-0.853797	-2.410728E+11	9.248104E-14	NaN
1180	1.000000	0.252848	7.37659e+06	-56589.1	1105.82	-29738.4	0.000000	0.000000	6.252847	-0.070145	NaN	0.000000	0.001657	0.001661	28.0826	0.067332	0.001989	33.8513	-64.1111	14.5333	-0.161551	0.251515	-0.844106	-0.845439	-0.070145	33.8513	-0.842552	-1.697707E+11	4.131720E-13	NaN
1180	1.000000	0.262821	7.37659e+06	-56589.1	1105.82	-29738.4	0.000000	0.000000	6.262820	-0.085101	NaN	0.000000	0.001583	0.001651	28.0823	0.108797	0.002002	54.3411	-103.798	-162.607	-0.119927	0.261541	-0.834133	-0.835412	-0.085101	54.3411	-0.832958	-1.258567E+11	6.761700E-13	NaN
1180	1.000000	0.272832	7.37659e+06	-56589.1	1105.82	-29738.4	0.000000	0.000000	6.272832	-0.048930	NaN	0.000000	0.001576	0.001654	28.0823	0.023123	0.002072	11.1602	-124.117	12.2901	-0.001418	0.271506	-0.824122	-0.825447	-0.048930	11.1602	-0.820834	-8.620216E+10	5.676207E-13	NaN
1180	1.000000	0.282830	7.37659e+06	-56589.1	1105.82	-29738.4	0.000000	0.000000	6.282831	-0.033253	NaN	0.000000	0.001611	0.001679	28.0821	0.081759	0.002003	40.8134	-134.409	-163.754	0.020703	0.281562	-0.814124	-0.815392	-0.033253	40.8134	-0.813513	-6.858432E+10	4.848414E-13	NaN
1180	1.000000	0.292842	7.37659e+06	-56589.1	1105.82	-29738.4	0.000000	0.000000	6.292844	-0.009667	NaN	0.000000	0.001592	0.001674	28.0823	0.030053	0.002071	14.5136	87.6272	17.1425	-0.061841	0.291521	-0.804112	-0.805433	-0.009667	14.5136	-0.803612	-5.033754E+10	1.920419E-13	NaN
1180	1.000000	0.302822	7.37659e+06	-56589.1	1105.82	-29738.4	0.000000	0.000000	6.302825	0.006200	NaN	0.000000	0.001607	0.001689	28.0825	0.075538	0.001964	38.4624	87.2651	-162.889	-0.058263	0.301560	-0.794132	-0.795394	0.006200	38.4624	-0.794253	-3.756970E+10	-1.650185E-13	NaN
1180	1.000000	0.312855	7.37659e+06	-56589.1	1105.82	-29738.4	0.000000	0.000000	6.312854	-0.068156	NaN	0.000000	0.001601	0.001685	28.0823	0.015544	0.001964	7.914081	-163.233	13.3418	0.071272	0.311476	-0.784099	-0.785478	-0.068156	7.914081	-0.777640	-2.234408E+10	3.050273E-12	NaN
1180	1.000000	0.322863	7.37659e+06	-56589.1	1105.82	-29738.4	0.000000	0.000000	6.322865	-0.032352	NaN	0.000000	0.001564	0.001670	28.0823	0.033679	0.001914	17.5995	-1.373144	-164.937	-0.060041	0.321528	-0.774090	-0.775426	-0.032352	17.5995	-0.772712	-1.915018E+10	1.689359E-12	NaN
1180	1.000000	0.332886	7.37659e+06	-56589.1	1105.82	-29738.4	0.000000	0.000000	6.332889	-0.003475	NaN	0.000000	0.001561	0.001657	28.0823	0.152968	0.001947	78.5608	-142.478	14.3469	-0.060186	0.331501	-0.764067	-0.765453	-0.003475	78.5608	-0.764034	-1.459416E+10	2.380949E-13	NaN
1180	1.000000	0.342884	7.37659e+06	-56589.1	1105.82	-29738.4	0.000000	0.000000	6.342885	-0.023207	NaN	0.000000	0.001576	0.001680	28.0823	0.095676	0.001906	50.1967	-21.599	-163.759	-0.046058	0.341565	-0.754070	-0.755389	-0.023207	50.1967	-0.753723	-1.056565E+10	2.196453E-12	NaN
1180	1.000000	0.352890	7.37659e+06	-56589.1	1105.82	-29738.4	0.000000	0.000000	6.352892	-0.016911	NaN	0.000000	0.001604	0.001677	28.0823	0.060520	0.002016	30.0203	-85.0659	13.7072	-0.055736	0.351505	-0.744064	-0.745449	-0.016911	30.0203	-0.743641	-7.702717E+9	2.195426E-12	NaN
1180	1.000000	0.362872	7.37659e+06	-56589.1	1105.82	-29738.4	0.000000	0.000000	6.362873	-0.051657	NaN	0.000000	0.001590	0.001690	28.0835	0.035347	0.002175	16.2529	-172.722	-165.073	-0.041852	0.361524	-0.734082	-0.735429	-0.051657	16.2529	-0.731698	-5.295976E+9	9.753999E-12	NaN
1180	1.000000	0.372864	7.37659e+06	-56589.1	1105.82	-29738.4	0.000000	0.000000	6.372865	-0.046837	NaN	0.000000	0.001613	0.001686	28.0838	0.023819	0.001996	11.9337	-95.6627	14.0936	-0.038240	0.371532	-0.724090	-0.725422	-0.046837	11.9337	-0.721146	-3.802807E+9	1.231652E-11	NaN
1180	1.000000	0.382874	7.37659e+06	-56589.1	1105.82	-29738.4	0.000000	0.000000	6.382875	-0.024877	NaN	0.000000	0.001625	0.001655	28.0837	0.013798	0.001941	7.108246	166.944	-161.566	-0.043505	0.381621	-0.714080	-0.715333	-0.024877	7.108246	-0.711455	-2.804829E+9	8.869309E-12	NaN
1180	1.000000	0.392891	7.37659e+06	-56589.1	1105.82	-29738.4	0.000000	0.000000	6.392892	-0.029499	NaN	0.000000	0.001571	0.001663	28.0835	0.123026	0.002075	59.2986	-23.448	16.9125	-0.040978	0.391514	-0.704063	-0.705440	-0.029499	59.2986	-0.703690	-2.197447E+9	1.342429E-11	NaN
1180	1.000000	0.402889	7.37659e+06	-56589.1	1105.82	-29738.4	0.000000	0.000000	6.402891	0.001879	NaN	0.000000	0.001605	0.001687	28.0834	0.034857	0.001935	18.0099	130.784	-167.522	-0.035288	0.401572	-0.694065	-0.695382	0.001879	18.0099	-0.694144	-1.627558E+9	-1.154754E-12	NaN
1180	1.000000	0.412913	7.37659e+06	-56589.1	1105.82	-29738.4	0.000000	0.000000	6.412914	-0.043352	NaN	0.000000	0.001592	0.001655	28.0837	0.113923	0.001981	57.5199	-119.831	14.267	-0.033926	0.411527	-0.684040	-0.685427	-0.043352	57.5199	-0.683475	-1.163396E+9	3.726347E-11	NaN
1180	1.000000	0.422930	7.37659e+06	-56589.1	1105.82	-29738.4	0.000000	0.000000	6.422928	-0.087218	NaN	0.000000	0.001576	0.001670	28.0833	0.163039	0.001966	82.9418	-4.883495	-167.273	-0.087785	0.421609	-0.674024	-0.675344	-0.087218	82.9418	-0.673236	-8.426928E+8	1.034995E-10	NaN
1180	1.000000	0.432913	7.37659e+06	-56589.1	1105.82	-29738.4	0.000000	0.000000	6.432912	-0.077641	NaN	0.000000	0.001602	0.001682	28.0834	0.035550	0.002044	17.3919	-168.625	17.1676	-0.073377	0.431532	-0.664041	-0.665422	-0.077641	17.3919	-0.660693	-5.674916E+8	1.368139E-10	NaN
1180	1.000000	0.442903	7.37659e+06	-56589.1	1105.82	-29738.4	0.000000	0.000000	6.442905	0.005763	NaN	0.000000	0.001608	0.001641	28.0834	0.031005	0.002102	14.7508	74.0188	-163.54	-0.016690	0.441641	-0.654051	-0.655313	0.005763	14.7508	-0.654344	-4.644949E+8	-1.240637E-11	NaN
1180	1.000000	0.452912	7.37659e+06	-56589.1	1105.82	-29738.4	0.000000	0.000000	6.452911	-0.081227	NaN	0.000000	0.001591	0.001667	28.0834	0.060939	0.001929	31.5987	-176.32	16.023	-0.122106	0.451542	-0.644042	-0.645412	-0.081227	31.5987	-0.642114	-3.157170E+8	2.572776E-10	NaN
1180	1.000000	0.462914	7.37659e+06	-56589.1	1105.82	-29738.4	0.000000	0.000000	6.462915	-0.046861	NaN	0.000000	0.001607	0.001688	28.0834	0.138933	0.002018	68.8307	101.467	-162.769	-0.099791	0.461606	-0.634040	-0.635348	-0.046861	68.8307	-0.633529	-2.407017E+8	1.946831E-10	NaN
1180	1.000000	0.472925	7.37659e+06	-56589.1	1105.82	-29738.4	0.000000	0.000000	6.472924	-0.070702	NaN	0.000000	0.001580	0.001722	28.0835	0.108919	0.001984	54.9043	54.3355	16.698	-0.068924	0.471612	-0.624029	-0.625342	-0.070702	54.9043	-0.623063	-1.728744E+8	4.089818E-10	NaN
1180	1.000000	0.482933	7.37659e+06	-56589.1	1105.82	-29738.4	0.000000	0.000000	6.482934	-0.034379	NaN	0.000000	0.001606	0.001708	28.0836	0.088402	0.002008	44.0217	136.747	-163.568	-0.007962	0.481647	-0.614021	-0.615307	-0.034379	44.0217	-0.613435	-1.274586E+8	2.697290E-10	NaN
1180	1.000000	0.492943	7.37659e+06	-56589.1	1105.82	-29738.4	0.000000	0.000000	6.492945	0.003926	NaN	0.000000	0.001600	0.001710	28.0833	0.175820	0.001959	89.7571	116.799	14.8677	0.074337	0.491559	-0.604011	-0.605395	0.003926	89.7571	-0.604044	-9.465513E+7	-4.147504E-11	NaN
1180	1.000000	0.502936	7.37659e+06	-56589.1	1105.82	-29738.4	0.000000	0.000000	6.502938	-0.013571	NaN	0.000000	0.001594	0.001675	28.0822	0.028859	0.002076	13.9015	-136.657	-163.163	-0.046137	0.501621	-0.594018	-0.595333	-0.013571	13.9015	-0.593286	-6.729118E+7	2.016781E-10	NaN
1180	1.000000	0.512949	7.37659e+06	-56589.1	1105.82	-29738.4	0.000000	0.000000	6.512948	-0.088737	NaN	0.000000	0.001606	0.001707	28.0823	0.051595	0.001808	28.543	15.8702	16.1563	-0.042765	0.511550	-0.584005	-0.585404	-0.088737	28.543	-0.581673	-4.653851E+7	1.906746E-9	NaN
1180	1.000000	0.522951	7.37659e+06	-56589.1	1105.82	-29738.4	0.000000	0.000000	6.522957	0.081861	NaN	0.000000	0.001577	0.001765	28.0825	0.074291	0.002101	35.3614	2.938973	-163.734	0.050322	0.521654	-0.574003	-0.575299	0.081861	35.3614	-0.575739	-3.853950E+7	-2.124090E-9	NaN
1180	1.000000	0.532948	7.37659e+06	-56589.1	1105.82	-29738.4	0.000000	0.000000	6.532949	-0.027752	NaN	0.000000	0.001582	0.001761	28.0824	0.043847	0.002067	21.2152	-48.486	17.2274	-0.049211	0.531576	-0.564006	-0.565378	-0.027752	21.2152	-0.563025	-2.571671E+7	1.079126E-9	NaN
1180	1.000000	0.542951	7.37659e+06	-56589.1	1105.82	-29738.4	0.000000	0.000000	6.542952	-0.030487	NaN	0.000000	0.001582	0.001758	28.0822	0.098076	0.002034	48.2122	-62.6295	-164.084	-0.029941	0.541677	-0.554003	-0.555277	-0.030487	48.2122	-0.553529	-1.900293E+7	1.604339E-9	NaN
1180	1.000000	0.552947	7.37659e+06	-56589.1	1105.82	-29738.4	0.000000	0.000000	6.552948	-0.047121	NaN	0.000000	0.001561	0.001747	28.0824	0.088463	0.002047	43.2109	-40.9951	11.9265	-0.109779	0.551573	-0.544007	-0.545381	-0.047121	43.2109	-0.543189	-1.366387E+7	3.448587E-9	NaN
1180	1.000000	0.562966	7.37659e+06	-56589.1	1105.82	-29738.4	0.000000	0.000000	6.562971	0.067458	NaN	0.000000	0.001565	0.001763	28.0823	0.126887	0.001976	64.2032	-106.828	-160.575	0.057647	0.561645	-0.533988	-0.535309	0.067458	64.2032	-0.534776	-1.044444E+7	-6.458766E-9	NaN
1180	1.000000	0.572968	7.37659e+06	-56589.1	1105.82	-29738.4	0.000000	0.000000	6.572967	-0.072602	NaN	0.000000	0.001577	0.001759	28.0821	0.055077	0.001984	27.7569	-117.639	18.0486	-0.074672	0.571609	-0.523986	-0.525345	-0.072602	27.7569	-0.522024	-6.94617e+06	1.045209E-8	NaN
1180	1.000000	0.582963	7.37659e+06	-56589.1	1105.82	-29738.4	0.000000	0.000000	6.582966	0.024597	NaN	0.000000	0.001581	0.001748	28.0822	0.084804	0.002082	40.7275	-1.332718	-164.64	0.049555	0.581628	-0.513991	-0.515326	0.024597	40.7275	-0.514444	-5.44869e+06	-4.514216E-9	NaN
1180	1.000000	0.592956	7.37659e+06	-56589.1	1105.82	-29738.4	0.000000	0.000000	6.592956	-0.040652	NaN	0.000000	0.001586	0.001748	28.0822	0.007078	0.001942	3.644380	151.144	14.9093	-0.067745	0.591612	-0.503998	-0.505342	-0.040652	3.644380	-0.495632	-2.97893e+06	1.364648E-8	NaN
1180	1.000000	0.602985	7.37659e+06	-56589.1	1105.82	-29738.4	0.000000	0.000000	6.602986	-0.027279	NaN	0.000000	0.001566	0.001730	28.0822	0.011845	0.001800	6.581538	-147.383	-161.563	-0.098407	0.601664	-0.493969	-0.495290	-0.027279	6.581538	-0.490860	-2.55515e+06	1.067612E-8	NaN
1180	1.000000	0.612974	7.37659e+06	-56589.1	1105.82	-29738.4	0.000000	0.000000	6.612975	-0.032995	NaN	0.000000	0.001603	0.001759	28.0821	0.096056	0.001942	49.4669	176.262	15.1034	-0.024954	0.611683	-0.483980	-0.485271	-0.032995	49.4669	-0.483480	-2.01475e+06	1.637676E-8	NaN
1180	1.000000	0.622994	7.37659e+06	-56589.1	1105.82	-29738.4	0.000000	0.000000	6.622994	-0.063570	NaN	0.000000	0.001600	0.001721	28.0823	0.110307	0.001954	56.4489	40.8843	-164.032	-0.069700	0.621663	-0.473960	-0.475291	-0.063570	56.4489	-0.473115	-1.4424e+06	4.407221E-8	NaN
1180	1.000000	0.632994	7.37659e+06	-56589.1	1105.82	-29738.4	0.000000	0.000000	6.632998	0.027645	NaN	0.000000	0.001564	0.001741	28.0834	0.079015	0.001954	40.4414	-121.173	15.8494	0.009099	0.631628	-0.463960	-0.465326	0.027645	40.4414	-0.464473	-1.09104e+06	-2.533820E-8	NaN
1180	1.000000	0.642978	7.37659e+06	-56589.1	1105.82	-29738.4	0.000000	0.000000	6.642980	-0.004772	NaN	0.000000	0.001545	0.001743	28.0835	0.043415	0.002099	20.6853	-97.2947	-160.769	-0.012006	0.641637	-0.453976	-0.455317	-0.004772	20.6853	-0.453803	-772465	6.177860E-9	NaN
1180	1.000000	0.653013	7.37659e+06	-56589.1	1105.82	-29738.4	0.000000	0.000000	6.653014	-0.050168	NaN	0.000000	0.001592	0.001712	28.0833	0.069437	0.002022	34.3428	-47.9751	13.4579	-0.072039	0.651634	-0.443941	-0.445319	-0.050168	34.3428	-0.442845	-541382	9.266683E-8	NaN
1180	1.000000	0.663016	7.37659e+06	-56589.1	1105.82	-29738.4	0.000000	0.000000	6.663019	0.021612	NaN	0.000000	0.001587	0.001747	28.0837	0.098904	0.002069	47.8083	-10.6818	-166.311	-0.038850	0.661669	-0.433938	-0.435285	0.021612	47.8083	-0.434277	-409768	-5.274237E-8	NaN
1180	1.000000	0.673026	7.37659e+06	-56589.1	1105.82	-29738.4	0.000000	0.000000	6.673027	-0.032860	NaN	0.000000	0.001576	0.001738	28.0834	0.121059	0.001922	62.9843	51.365	17.2376	-0.004401	0.671665	-0.423928	-0.425289	-0.032860	62.9843	-0.423537	-288771	1.137929E-7	NaN
1180	1.000000	0.682999	7.37659e+06	-56589.1	1105.82	-29738.4	0.000000	0.000000	6.683000	-0.048295	NaN	0.000000	0.001562	0.001770	28.0835	0.077328	0.002085	37.0852	173.958	-165.601	0.054831	0.681692	-0.413955	-0.415262	-0.048295	37.0852	-0.412978	-204518	2.361430E-7	NaN
1180	1.000000	0.692980	7.37659e+06	-56589.1	1105.82	-29738.4	0.000000	0.000000	6.692980	-0.073462	NaN	0.000000	0.001570	0.001733	28.0834	0.020069	0.001953	10.276	-76.0644	15.5888	-0.016624	0.691675	-0.403973	-0.405278	-0.073462	10.276	-0.398612	-127700	5.752725E-7	NaN
1180	1.000000	0.703010	7.37659e+06	-56589.1	1105.82	-29738.4	0.000000	0.000000	6.703010	-0.064207	NaN	0.000000	0.001589	0.001752	28.0836	0.090894	0.001860	48.8638	30.9776	-165.013	-0.102713	0.701708	-0.393944	-0.395245	-0.064207	48.8638	-0.392958	-106039	6.055058E-7	NaN
1180	1.000000	0.713032	7.37659e+06	-56589.1	1105.82	-29738.4	0.000000	0.000000	6.713034	-0.006023	NaN	0.000000	0.001606	0.001744	28.0832	0.037870	0.002097	18.0617	67.6382	11.3876	-0.078025	0.711714	-0.383922	-0.385240	-0.006023	18.0617	-0.383672	-78083.2	7.713486E-8	NaN
1180	1.000000	0.723029	7.37659e+06	-56589.1	1105.82	-29738.4	0.000000	0.000000	6.723029	-0.052314	NaN	0.000000	0.001598	0.001754	28.0833	0.032227	0.001896	17.0004	139.305	-166.24	-0.030975	0.721722	-0.373925	-0.375232	-0.052314	17.0004	-0.371617	-52409.3	9.981781E-7	NaN
1180	1.000000	0.733041	7.37659e+06	-56589.1	1105.82	-29738.4	0.000000	0.000000	6.733043	-0.026295	NaN	0.000000	0.001602	0.001781	28.0831	0.055386	0.002015	27.4936	66.549	12.3856	-0.012527	0.731672	-0.363912	-0.365282	-0.026295	27.4936	-0.363195	-39628.1	6.635319E-7	NaN
1180	1.000000	0.743024	7.37659e+06	-56589.1	1105.82	-29738.4	0.000000	0.000000	6.743026	-0.011567	NaN	0.000000	0.001600	0.001769	28.0831	0.053413	0.001983	26.9391	-65.82	-164.025	-0.073042	0.741723	-0.353929	-0.355231	-0.011567	26.9391	-0.353607	-28795.3	4.016862E-7	NaN
1180	1.000000	0.753033	7.37659e+06	-56589.1	1105.82	-29738.4	0.000000	0.000000	6.753033	-0.060608	NaN	0.000000	0.001602	0.001754	28.0834	0.040608	0.002127	19.0956	-176.366	12.8025	-0.042102	0.751726	-0.343921	-0.345228	-0.060608	19.0956	-0.341540	-19230.8	3.151608E-6	NaN
1180	1.000000	0.763081	7.37659e+06	-56589.1	1105.82	-29738.4	0.000000	0.000000	6.763086	0.060129	NaN	0.000000	0.001589	0.001743	28.0833	0.101854	0.001885	54.0477	-140.841	-163.576	-0.078634	0.761766	-0.333873	-0.335187	0.060129	54.0477	-0.334707	-15286.7	-3.933416E-6	NaN
1180	1.000000	0.773052	7.37659e+06	-56589.1	1105.82	-29738.4	0.000000	0.000000	6.773054	-0.020684	NaN	0.000000	0.001651	0.001751	28.0822	0.034189	0.001943	17.5948	-62.931	17.8127	-0.017303	0.771714	-0.323902	-0.325240	-0.020684	17.5948	-0.323020	-10305.1	2.007180E-6	NaN
1180	1.000000	0.783062	7.37659e+06	-56589.1	1105.82	-29738.4	0.000000	0.000000	6.783062	-0.053467	NaN	0.000000	0.001587	0.001747	28.0822	0.080001	0.001898	42.1396	-146.726	-164.282	-0.068682	0.781762	-0.313892	-0.315192	-0.053467	42.1396	-0.312941	-7320.43	7.303811E-6	NaN
1180	1.000000	0.793045	7.37659e+06	-56589.1	1105.82	-29738.4	0.000000	0.000000	6.793046	-0.029390	NaN	0.000000	0.001572	0.001717	28.0822	0.019999	0.001903	10.5096	-21.0337	13.5606	-0.050021	0.791693	-0.303909	-0.305261	-0.029390	10.5096	-0.301811	-5007.1	5.869592E-6	NaN
1180	1.000000	0.803045	7.37659e+06	-56589.1	1105.82	-29738.4	0.000000	0.000000	6.803048	0.018120	NaN	0.000000	0.001580	0.001719	28.0821	0.024544	0.002090	11.7441	-156.65	-162.817	0.057179	0.801817	-0.293909	-0.295137	0.018120	11.7441	-0.295066	-3972.6	-4.561172E-6	NaN
1180	1.000000	0.813027	7.37659e+06	-56589.1	1105.82	-29738.4	0.000000	0.000000	6.813028	-0.024624	NaN	0.000000	0.001577	0.001746	28.0826	0.095093	0.002024	46.9828	147.552	14.0288	-0.088303	0.811690	-0.283927	-0.285264	-0.024624	46.9828	-0.283534	-2668.18	9.228748E-6	NaN
1180	1.000000	0.823080	7.37659e+06	-56589.1	1105.82	-29738.4	0.000000	0.000000	6.823078	-0.101646	NaN	0.000000	0.001591	0.001742	28.0823	0.108788	0.001990	54.6552	92.0845	-164.5	-0.023409	0.821801	-0.273874	-0.275153	-0.101646	54.6552	-0.272479	-1816.32	5.596274E-5	NaN
1180	1.000000	0.833070	7.37659e+06	-56589.1	1105.82	-29738.4	0.000000	0.000000	6.833069	-0.078956	NaN	0.000000	0.001589	0.001723	28.0824	0.063436	0.002056	30.8599	14.7037	13.3819	-0.015934	0.831658	-0.263884	-0.265295	-0.078956	30.8599	-0.261965	-1256.05	6.286064E-5	NaN
1180	1.000000	0.843081	7.37659e+06	-56589.1	1105.82	-29738.4	0.000000	0.000000	6.843081	-0.060952	NaN	0.000000	0.001620	0.001764	28.0824	0.078704	0.002025	38.8623	-94.3566	-164.157	0.052915	0.841800	-0.253873	-0.255154	-0.060952	38.8623	-0.252697	-904.949	6.735385E-5	NaN
1180	1.000000	0.853106	7.37659e+06	-56589.1	1105.82	-29738.4	0.000000	0.000000	6.853108	-0.013122	NaN	0.000000	0.001579	0.001738	28.0826	0.068954	0.002021	34.1229	64.2932	16.8402	-0.031431	0.851710	-0.243848	-0.245244	-0.013122	34.1229	-0.243560	-653.212	2.008855E-5	NaN
1180	1.000000	0.863070	7.37659e+06	-56589.1	1105.82	-29738.4	0.000000	0.000000	6.863069	-0.081501	NaN	0.000000	0.001587	0.001742	28.0824	0.073322	0.001899	38.6075	-81.5963	-167.129	-0.079528	0.861794	-0.233884	-0.235160	-0.081501	38.6075	-0.232301	-435.315	0.000187	NaN
1180	1.000000	0.873088	7.37659e+06	-56589.1	1105.82	-29738.4	0.000000	0.000000	6.873088	-0.049196	NaN	0.000000	0.001621	0.001757	28.0825	0.118154	0.002001	59.0563	-2.619401	12.6791	-0.069467	0.871696	-0.223866	-0.225258	-0.049196	59.0563	-0.223241	-312.873	0.000157	NaN
1180	1.000000	0.883106	7.37659e+06	-56589.1	1105.82	-29738.4	0.000000	0.000000	6.883109	0.013480	NaN	0.000000	0.001564	0.001732	28.0826	0.055327	0.002006	27.5805	111.545	-164.041	-0.023750	0.881762	-0.213848	-0.215191	0.013480	27.5805	-0.214215	-224.324	-6.009282E-5	NaN
1180	1.000000	0.893103	7.37659e+06	-56589.1	1105.82	-29738.4	0.000000	0.000000	6.893106	0.006815	NaN	0.000000	0.001597	0.001746	28.0826	0.056453	0.001960	28.8004	127.511	12.5171	-0.021069	0.891778	-0.203851	-0.205176	0.006815	28.8004	-0.204028	-153.355	-4.443652E-5	NaN
1180	1.000000	0.903109	7.37659e+06	-56589.1	1105.82	-29738.4	0.000000	0.000000	6.903112	0.008994	NaN	0.000000	0.001546	0.001763	28.0828	0.074264	0.002006	37.0156	-120.53	-166.112	0.039457	0.901805	-0.193845	-0.195149	0.008994	37.0156	-0.194027	-104.972	-8.567557E-5	NaN
1180	1.000000	0.913091	7.37659e+06	-56589.1	1105.82	-29738.4	0.000000	0.000000	6.913092	-0.043120	NaN	0.000000	0.001569	0.001741	28.0838	0.070301	0.002012	34.9368	-36.1625	12.3971	0.047096	0.911812	-0.183863	-0.185142	-0.043120	34.9368	-0.182937	-68.4383	0.000630	NaN
1180	1.000000	0.923108	7.37659e+06	-56589.1	1105.82	-29738.4	0.000000	0.000000	6.923107	-0.070089	NaN	0.000000	0.001587	0.001779	28.0838	0.148607	0.002033	73.0845	177.287	-164.079	-0.019127	0.921853	-0.173846	-0.175101	-0.070089	73.0845	-0.173127	-46.5297	0.001506	NaN
1180	1.000000	0.933107	7.37659e+06	-56589.1	1105.82	-29738.4	0.000000	0.000000	6.933110	-0.005061	NaN	0.000000	0.001581	0.001783	28.0838	0.039655	0.002048	19.3648	174.367	15.6586	0.004392	0.931758	-0.163847	-0.165196	-0.005061	19.3648	-0.163651	-31.8105	0.000159	NaN
1180	1.000000	0.943099	7.37659e+06	-56589.1	1105.82	-29738.4	0.000000	0.000000	6.943100	-0.045433	NaN	0.000000	0.001598	0.001792	28.0837	0.096532	0.002065	46.7514	161.243	-161.925	0.033954	0.941799	-0.153854	-0.155155	-0.045433	46.7514	-0.153126	-20.6427	0.002201	NaN
1180	1.000000	0.953100	7.37659e+06	-56589.1	1105.82	-29738.4	0.000000	0.000000	6.953102	-0.028675	NaN	0.000000	0.001605	0.001778	28.0839	0.064163	0.002092	30.6636	-85.4106	16.1699	0.043817	0.951762	-0.143854	-0.145192	-0.028675	30.6636	-0.143152	-13.5484	0.002117	NaN
1180	1.000000	0.963120	7.37659e+06	-56589.1	1105.82	-29738.4	0.000000	0.000000	6.963123	0.012459	NaN	0.000000	0.001578	0.001805	28.0837	0.048028	0.002024	23.7316	17.1612	-164.354	-0.099138	0.961825	-0.133834	-0.135129	0.012459	23.7316	-0.134228	-9.194462	-0.001355	NaN
1180	1.000000	0.973134	7.37659e+06	-56589.1	1105.82	-29738.4	0.000000	0.000000	6.973133	-0.079025	NaN	0.000000	0.001613	0.001782	28.0837	0.077837	0.001902	40.9224	77.5542	16.0469	-0.122629	0.971766	-0.123820	-0.125188	-0.079025	40.9224	-0.122372	-5.391617	0.014657	NaN
1180	1.000000	0.983180	7.37659e+06	-56589.1	1105.82	-29738.4	0.000000	0.000000	6.983178	-0.103725	NaN	0.000000	0.001618	0.001769	28.0837	0.091992	0.001947	47.2381	44.7225	-167.134	-0.118808	0.981813	-0.113774	-0.115140	-0.103725	47.2381	-0.112127	-3.330420	0.031145	NaN
1180	1.000000	0.993163	7.37659e+06	-56589.1	1105.82	-29738.4	0.000000	0.000000	6.993165	-0.032308	NaN	0.000000	0.001621	0.001769	28.0838	0.081107	0.001935	41.9074	90.1948	18.2134	-0.007024	0.991787	-0.103790	-0.105167	-0.032308	41.9074	-0.103212	-2.149705	0.015029	NaN
1180	1.000000	1.003145	7.37659e+06	-56589.1	1105.82	-29738.4	0.000000	0.000000	7.003148	-0.004460	NaN	0.000000	0.001632	0.001791	28.0835	0.020135	0.002073	9.715311	-132.698	-165.317	-0.026346	1.001861	-0.093808	-0.095093	-0.004460	9.715311	-0.093464	-1.300962	0.003428	NaN
1180	1.000000	1.013103	7.37659e+06	-56589.1	1105.82	-29738.4	0.000000	0.000000	7.013106	0.004381	NaN	0.000000	0.001611	0.001796	28.0835	0.056598	0.002110	26.8245	-173.603	10.6685	-0.072027	1.011828	-0.083851	-0.085126	0.004381	26.8245	-0.083973	-0.775788	-0.005647	NaN
1180	1.000000	1.023138	7.37659e+06	-56589.1	1105.82	-29738.4	0.000000	0.000000	7.023138	-0.071118	NaN	0.000000	0.001622	0.001741	28.0838	0.035684	0.002003	17.8188	-141.631	-167.594	-0.029790	1.021812	-0.073815	-0.075142	-0.071118	17.8188	-0.070822	-0.358796	0.198214	NaN
1180	1.000000	1.033161	7.37659e+06	-56589.1	1105.82	-29738.4	0.000000	0.000000	7.033160	-0.078256	NaN	0.000000	0.001622	0.001768	28.0838	0.039094	0.001997	19.5797	-107.392	14.5515	-0.100610	1.031777	-0.063793	-0.065176	-0.078256	19.5797	-0.060796	-0.189786	0.412336	NaN
1180	1.000000	1.043140	7.37659e+06	-56589.1	1105.82	-29738.4	0.000000	0.000000	7.043140	-0.061977	NaN	0.000000	0.001620	0.001808	28.0822	0.069261	0.002030	34.115	97.2562	-163.034	-0.024001	1.041848	-0.053814	-0.055106	-0.061977	34.115	-0.052451	-0.108145	0.573091	NaN
1180	1.000000	1.053167	7.37659e+06	-56589.1	1105.82	-29738.4	0.000000	0.000000	7.053170	0.019831	NaN	0.000000	0.001621	0.001782	28.0823	0.017044	0.001988	8.572750	41.0065	13.0879	-0.054753	1.051818	-0.043787	-0.045136	0.019831	8.572750	-0.045522	-0.066672	-0.297434	NaN
1180	1.000000	1.063153	7.37659e+06	-56589.1	1105.82	-29738.4	0.000000	0.000000	7.063151	-0.095746	NaN	0.000000	0.001619	0.001786	28.0823	0.097100	0.001957	49.6183	-67.8135	-163.392	-0.112633	1.061913	-0.033801	-0.035041	-0.095746	49.6183	-0.032354	-0.026825	3.569335	NaN
1180	1.000000	1.073141	7.37659e+06	-56589.1	1105.82	-29738.4	0.000000	0.000000	7.073142	-0.041573	NaN	0.000000	0.001582	0.001799	28.0823	0.097609	0.001952	49.9994	4.546269	18.9854	-0.051832	1.071818	-0.023812	-0.025136	-0.041573	49.9994	-0.023189	-0.015144	2.745141	NaN
1180	1.000000	1.083191	7.37659e+06	-56589.1	1105.82	-29738.4	0.000000	0.000000	7.083190	-0.097313	NaN	0.000000	0.001604	0.001779	28.0822	0.053066	0.001968	26.9582	160.292	-165.695	-0.079421	1.081863	-0.013762	-0.015091	-0.097313	26.9582	-0.011055	-0.006989	13.9229	NaN
1180	1.000000	1.093190	7.37659e+06	-56589.1	1105.82	-29738.4	0.000000	0.000000	7.093190	-0.070212	NaN	0.000000	0.001603	0.001750	28.0823	0.063683	0.002197	28.9902	130.324	12.131	-0.084152	1.091805	-0.003764	-0.005149	-0.070212	28.9902	-0.001947	-0.001403	50.0533	NaN
1180	1.000000	1.103018	7.37659e+06	-56589.1	1105.82	-29738.4	0.000000	0.000000	7.103380	8.742751	NaN	0.000000	0.001606	0.001758	28.0822	8.591385	0.001683	5105.36	11.0206	-170.407	6.995212	1.101820	0.006064	0.004866	8.742751	5105.36	0.004780	0.003933	2222.66	74372.4
1180	2.000000	1.106129	7.37659e+06	-56589.1	1105.82	-29738.4	0.000000	0.000000	7.106716	14.2052	NaN	0.000000	0.001637	0.001776	28.0822	12.1663	0.001677	7256.83	6.052927	5.717805	12.3486	1.105810	0.009176	0.008856	14.2052	7256.83	0.007708	0.006743	2106.57	80739.4
1180	2.000000	1.108620	7.37659e+06	-56589.1	1105.82	-29738.4	0.000000	0.000000	7.109315	16.8164	NaN	0.000000	0.001600	0.001765	28.0821	14.9916	0.001746	8587.12	6.546390	-174.287	16.3399	1.108302	0.011667	0.011348	16.8164	8587.12	0.010198	0.009402	1788.58	80911.2
1180	2.000000	1.111113	7.37659e+06	-56589.1	1105.82	-29738.4	0.000000	0.000000	7.112039	22.4597	NaN	0.000000	0.001587	0.001773	28.0823	17.2562	0.001685	10241.2	8.507562	2.244956	21.5722	1.110774	0.014159	0.013820	22.4597	10241.2	0.012514	0.012112	1854.37	85019.9
1180	2.000000	1.113632	7.37659e+06	-56589.1	1105.82	-29738.4	0.000000	0.000000	7.114825	28.9445	NaN	0.000000	0.001575	0.001794	28.0822	19.8616	0.001731	11473.5	4.787719	-176.174	29.5303	1.113308	0.016678	0.016354	28.9445	11473.5	0.014786	0.015001	1929.53	85587.8
1180	2.000000	1.116037	7.37659e+06	-56589.1	1105.82	-29738.4	0.000000	0.000000	7.117381	32.6247	NaN	0.000000	0.001617	0.001745	28.082	23.0903	0.001823	12663.4	7.841170	-0.222027	30.5811	1.115714	0.019083	0.018760	32.6247	12663.4	0.017151	0.018261	1786.58	85617.7
1180	2.000000	1.118605	7.37659e+06	-56589.1	1105.82	-29738.4	0.000000	0.000000	7.120132	37.0471	NaN	0.000000	0.001623	0.001755	28.0823	25.3289	0.001836	13797	0.113337	-172.029	37.13	1.118265	0.021651	0.021312	37.0471	13797	0.019637	0.021976	1685.82	85032.9
1180	2.000000	1.121113	7.37659e+06	-56589.1	1105.82	-29738.4	0.000000	0.000000	7.123044	46.8892	NaN	0.000000	0.001669	0.001729	28.0822	27.5636	0.001825	15099.8	3.891580	3.097579	45.1567	1.120623	0.024159	0.023669	46.8892	15099.8	0.021830	0.025499	1838.83	86393.4
1180	2.000000	1.123575	7.37659e+06	-56589.1	1105.82	-29738.4	0.000000	0.000000	7.125685	51.2253	NaN	0.000000	0.001662	0.001755	28.0836	30.4242	0.001665	18273	6.789708	177.146	50.5958	1.123326	0.026621	0.026372	51.2253	18273	0.024519	0.030146	1699.25	96154.4
1180	2.000000	1.126060	7.3766e+06	-56589.1	1105.82	-29738.4	0.000000	0.000000	7.128519	59.725	NaN	0.000000	0.001671	0.001770	28.0833	32.4532	0.001727	18791.1	4.387502	-0.566663	57.4418	1.125771	0.029106	0.028817	59.725	18791.1	0.026722	0.034223	1745.15	92803.2
1180	2.000000	1.128547	7.3766e+06	-56589.1	1105.82	-29738.4	0.000000	0.000000	7.131190	64.1944	NaN	0.000000	0.001663	0.001780	28.0833	36.1421	0.001835	19697	7.236677	176.465	63.1345	1.128303	0.031593	0.031349	64.1944	19697	0.029148	0.038997	1646.13	91128.9
1180	2.000000	1.131108	7.3766e+06	-56589.1	1105.82	-29738.4	0.000000	0.000000	7.134249	76.2741	NaN	0.000000	0.001588	0.001793	28.0836	38.0205	0.001676	22684	5.715982	-3.739738	75.9342	1.130804	0.034155	0.033850	76.2741	22684	0.031633	0.044196	1725.83	98583
1180	2.000000	1.133552	7.3766e+06	-56589.1	1105.82	-29738.4	0.000000	0.000000	7.137135	87.0301	NaN	0.000000	0.001607	0.001734	28.0833	39.8748	0.001663	23981.9	5.085652	176.54	86.0884	1.133256	0.036598	0.036302	87.0301	23981.9	0.033876	0.049162	1770.28	98819.3
1180	2.000000	1.135984	7.3766e+06	-56589.1	1105.82	-29738.4	0.000000	0.000000	7.140043	98.5952	NaN	0.000000	0.001650	0.001675	28.0834	43.0829	0.001753	24583.2	4.750515	-3.193837	94.1668	1.135653	0.039030	0.038699	98.5952	24583.2	0.036022	0.054153	1820.67	96516.1
1180	2.000000	1.138612	7.3766e+06	-56589.1	1105.82	-29738.4	0.000000	0.000000	7.143051	107.832	NaN	0.000000	0.001639	0.001686	28.0832	47.0222	0.001915	24549.6	8.340100	174.556	110.751	1.138176	0.041658	0.041222	107.832	24549.6	0.038364	0.059868	1801.16	91668.4
1180	2.000000	1.141062	7.3766e+06	-56589.1	1105.82	-29738.4	0.000000	0.000000	7.145826	115.727	NaN	0.000000	0.001549	0.001679	28.0836	48.8517	0.001910	25583.2	8.017960	-5.340897	116.746	1.140606	0.044109	0.043652	115.727	25583.2	0.040716	0.065891	1756.33	91057.2
1180	2.000000	1.143534	7.3766e+06	-56589.1	1105.82	-29738.4	0.000000	0.000000	7.148997	132.736	NaN	0.000000	0.001533	0.001692	28.0833	49.3929	0.001627	30361.2	2.674462	176.935	132.921	1.143222	0.046580	0.046268	132.736	30361.2	0.043301	0.072838	1822.34	102781
1180	2.000000	1.145982	7.3766e+06	-56589.1	1105.82	-29738.4	0.000000	0.000000	7.151843	142.402	NaN	0.000000	0.001551	0.001693	28.0832	53.2302	0.001717	31004.6	2.646297	-3.422422	137.733	1.145695	0.049028	0.048741	142.402	31004.6	0.045583	0.079252	1796.83	100622
1180	2.000000	1.148475	7.3766e+06	-56589.1	1105.82	-29738.4	0.000000	0.000000	7.154695	151.131	NaN	0.000000	0.001565	0.001767	28.0832	56.9359	0.001792	31776.3	4.240235	175.032	147.614	1.148208	0.051521	0.051254	151.131	31776.3	0.047954	0.086193	1753.4	98887.4
1180	2.000000	1.150972	7.3766e+06	-56589.1	1105.82	-29738.4	0.000000	0.000000	7.157874	167.701	NaN	0.000000	0.001569	0.001707	28.0835	59.0023	0.001680	35130.3	5.718850	-7.273434	164.573	1.150659	0.054018	0.053706	167.701	35130.3	0.050438	0.093771	1788.4	104814
1180	2.000000	1.153542	7.3766e+06	-56589.1	1105.82	-29738.4	0.000000	0.000000	7.161041	182.214	NaN	0.000000	0.001563	0.001739	28.0833	61.2772	0.001768	34665.2	6.618089	172.306	183.445	1.153134	0.056588	0.056181	182.214	34665.2	0.052645	0.100765	1808.3	99772.7
1180	2.000000	1.155963	7.3766e+06	-56589.1	1105.82	-29738.4	0.000000	0.000000	7.163999	195.259	NaN	0.000000	0.001556	0.001719	28.0828	64.0649	0.001792	35749.2	4.763037	-6.342329	191.219	1.155611	0.059009	0.058657	195.259	35749.2	0.054913	0.108201	1804.59	99294.2
1180	2.000000	1.158533	7.3766e+06	-56589.1	1105.82	-29738.4	0.000000	0.000000	7.167315	213.409	NaN	0.000000	0.001553	0.001711	28.082	66.775	0.001817	36753.2	3.757251	174.626	211.48	1.158110	0.061579	0.061156	213.409	36753.2	0.057224	0.116042	1839.06	98573.6
1180	2.000000	1.161001	7.3766e+06	-56589.1	1105.82	-29738.4	0.000000	0.000000	7.170371	227.711	NaN	0.000000	0.001556	0.001730	28.082	67.7228	0.001739	38932.9	2.258471	-4.711366	223.833	1.160650	0.064047	0.063696	227.711	38932.9	0.059660	0.124592	1827.65	100773
1180	2.000000	1.163451	7.3766e+06	-56589.1	1105.82	-29738.4	0.000000	0.000000	7.173262	238.41	NaN	0.000000	0.001549	0.001697	28.0821	69.7435	0.001757	39697.2	0.379240	176.263	235.203	1.163310	0.066497	0.066357	238.41	39697.2	0.061993	0.133050	1791.88	99431.8
1180	2.000000	1.165980	7.3766e+06	-56589.1	1105.82	-29738.4	0.000000	0.000000	7.176968	267.029	NaN	0.000000	0.001571	0.001710	28.0822	72.7531	0.001690	43053.8	4.930112	-8.283074	263.102	1.165589	0.069026	0.068635	267.029	43053.8	0.064374	0.141960	1881.02	104400
1180	2.000000	1.168542	7.3766e+06	-56589.1	1105.82	-29738.4	0.000000	0.000000	7.180156	282.239	NaN	0.000000	0.001579	0.001665	28.0822	76.9848	0.001874	41077.2	6.471723	171.607	283.05	1.168181	0.071588	0.071227	282.239	41077.2	0.066435	0.149889	1882.99	96936.9
1180	2.000000	1.170969	7.3766e+06	-56589.1	1105.82	-29738.4	0.000000	0.000000	7.183280	299.179	NaN	0.000000	0.001586	0.001660	28.0822	77.5548	0.001675	46314.9	4.891931	-8.592195	294.788	1.170669	0.074015	0.073715	299.179	46314.9	0.069170	0.160729	1861.39	105547
1180	2.000000	1.173440	7.3766e+06	-56589.1	1105.82	-29738.4	0.000000	0.000000	7.186545	318.49	NaN	0.000000	0.001575	0.001697	28.0823	79.4456	0.001637	48521.2	6.267789	169.153	313.614	1.173167	0.076486	0.076213	318.49	48521.2	0.071563	0.170503	1867.94	107359
1180	2.000000	1.175962	7.3766e+06	-56589.1	1105.82	-29738.4	0.000000	0.000000	7.189732	334.653	NaN	0.000000	0.001599	0.001686	28.0822	81.6859	0.001630	50129.4	1.493475	-5.673051	332.376	1.175602	0.079008	0.078648	334.653	50129.4	0.074001	0.180744	1851.54	107729
1180	2.000000	1.178462	7.3766e+06	-56589.1	1105.82	-29738.4	0.000000	0.000000	7.192902	350.94	NaN	0.000000	0.001582	0.001710	28.0823	87.3405	0.001878	46518.9	6.292603	170.458	348.235	1.178029	0.081508	0.081075	350.94	46518.9	0.075850	0.188696	1859.82	97841.2
1180	2.000000	1.181000	7.3766e+06	-56589.1	1105.82	-29738.4	0.000000	0.000000	7.196062	366.034	NaN	0.000000	0.001551	0.001695	28.0822	88.6335	0.001751	50611.5	7.047056	-11.5768	360.273	1.180679	0.084046	0.083725	366.034	50611.5	0.078622	0.200918	1821.81	103160
1180	2.000000	1.183429	7.3766e+06	-56589.1	1105.82	-29738.4	0.000000	0.000000	7.199502	390.617	NaN	0.000000	0.001559	0.001696	28.0821	90.8359	0.001911	47535.2	4.728012	171.41	385.652	1.183160	0.086475	0.086207	390.617	47535.2	0.080312	0.208548	1873.03	95101
1180	2.000000	1.186054	7.3766e+06	-56589.1	1105.82	-29738.4	0.000000	0.000000	7.202794	406.841	NaN	0.000000	0.001578	0.001680	28.0821	94.5691	0.001865	50698	5.324336	-9.170959	409.869	1.185546	0.089100	0.088592	406.841	50698	0.083081	0.221334	1838.13	98455.6
1180	2.000000	1.188552	7.3766e+06	-56589.1	1105.82	-29738.4	0.000000	0.000000	7.206197	428.842	NaN	0.000000	0.001571	0.001684	28.0824	95.9763	0.001825	52586.1	8.462975	167.915	431.802	1.188062	0.091598	0.091108	428.842	52586.1	0.085481	0.232704	1842.86	99596
1180	2.000000	1.190929	7.3766e+06	-56589.1	1105.82	-29738.4	0.000000	0.000000	7.209516	451.737	NaN	0.000000	0.001575	0.001683	28.0834	97.3567	0.002021	48161	4.608625	-8.360780	445.271	1.190609	0.093975	0.093655	451.737	48161	0.086940	0.239743	1884.25	89865.9
1180	2.000000	1.193514	7.3766e+06	-56589.1	1105.82	-29738.4	0.000000	0.000000	7.213050	474.809	NaN	0.000000	0.001556	0.001652	28.0835	99.2232	0.001805	54961.5	8.631397	166.85	472.663	1.193111	0.096560	0.096158	474.809	54961.5	0.090081	0.255232	1860.3	99394.9
1180	2.000000	1.195952	7.3766e+06	-56589.1	1105.82	-29738.4	0.000000	0.000000	7.216271	493.834	NaN	0.000000	0.001614	0.001681	28.0833	101.378	0.001804	56195.6	3.216273	-8.489362	489.982	1.195679	0.098998	0.098725	493.834	56195.6	0.092407	0.266998	1849.58	99362.2
1180	2.000000	1.198591	7.3766e+06	-56589.1	1105.82	-29738.4	0.000000	0.000000	7.219819	515.912	NaN	0.000000	0.001586	0.001656	28.0834	104.303	0.001740	59945.5	5.034764	169.72	521.89	1.198142	0.101637	0.101188	515.912	59945.5	0.095182	0.281357	1833.65	103252
1180	2.000000	1.200881	7.3766e+06	-56589.1	1105.82	-29738.4	0.000000	0.000000	7.223492	549.517	NaN	0.000000	0.001591	0.001692	28.0832	105.397	0.001773	59461.8	3.255784	-8.353346	539.922	1.200447	0.103928	0.103493	549.517	59461.8	0.096996	0.290934	1888.8	100720
1180	2.000000	1.202397	7.3766e+06	-56589.1	1105.82	-29738.4	0.000000	0.000000	7.225349	557.83	NaN	0.000000	0.001610	0.001670	28.0835	108.471	0.001824	59454	7.496753	166.484	552.987	1.202124	0.105443	0.105170	557.83	59454	0.098406	0.298480	1868.9	99425.3