File: remote_trans/data/nanoindenter/0828-1/data/Data_2025-08-06,11h17m57s/2025-07-22_16-23-58_1_411.txt
2025-07-22, 16:23:58, 1
Index	Phase	Displacement	Time	Pos X	Pos Y	Pos Z	Rot A	Rot B	Piezo Z	Force A	Force B	Gripper	Voltage A	Voltage B	Temperature	Amplitude force	Amplitude pos	Stiffness	Phase shift	Phase excitation	Force A raw	Displacement raw	HMax	HMax raw	Real Force	Real Stiffness	Contact Depth	Area	Hardness	Reduced Mod.
[#]	[#]	[um]	[s]	[um]	[um]	[um]	[m°]	[m°]	[um]	[uN]	[uN]	[V]	[V]	[V]	[°C]	[uN]	[um]	[N/m]	[°]	[°]	[uN]	[um]	[um]	[um]	[uN]	[N/m]	[um]	[um^2]	[MPa]	[MPa]
411	1.000000	0.002431	7.36908e+06	-56539.1	1005.82	-29738.8	0.000000	0.000000	6.002814	0.035265	NaN	0.000000	0.001596	0.001624	28.0808	0.063213	0.001133	55.7782	168.041	-166.877	0.105291	0.001198	-1.166627	-1.167859	0.035265	55.7782	-1.167101	-3.981388E+15	-8.857539E-18	NaN
411	1.000000	0.012471	7.36908e+06	-56539.1	1005.82	-29738.8	0.000000	0.000000	6.012853	0.007485	NaN	0.000000	0.001605	0.001592	28.0807	0.037266	0.001307	28.5073	-44.9133	21.794	0.078360	0.011020	-1.156587	-1.158038	0.007485	28.5073	-1.156784	-2.895725E+15	-2.584692E-18	NaN
411	1.000000	0.022346	7.36908e+06	-56539.1	1005.82	-29738.8	0.000000	0.000000	6.022728	0.008927	NaN	0.000000	0.001591	0.001576	28.0807	0.082993	0.001590	52.1943	49.6023	-162.146	-0.049031	0.021069	-1.146711	-1.147988	0.008927	52.1943	-1.146839	-2.130326E+15	-4.190369E-18	NaN
411	1.000000	0.032367	7.36908e+06	-56539.1	1005.82	-29738.8	0.000000	0.000000	6.032747	-0.039904	NaN	0.000000	0.001571	0.001581	28.0809	0.096041	0.001902	50.4968	-177.271	16.7781	0.002402	0.031049	-1.136690	-1.138009	-0.039904	50.4968	-1.136098	-1.528992E+15	2.609794E-17	NaN
411	1.000000	0.042347	7.36908e+06	-56539.1	1005.82	-29738.8	0.000000	0.000000	6.042730	0.012101	NaN	0.000000	0.001565	0.001589	28.0813	0.202635	0.002104	96.2979	-32.1378	-166.523	0.044787	0.041056	-1.126710	-1.128002	0.012101	96.2979	-1.126804	-1.147509E+15	-1.054541E-17	NaN
411	1.000000	0.052374	7.36908e+06	-56539.1	1005.82	-29738.8	0.000000	0.000000	6.052755	0.003478	NaN	0.000000	0.001564	0.001612	28.081	0.053782	0.002120	25.3683	130.468	13.6721	-0.053905	0.051039	-1.116684	-1.118019	0.003478	25.3683	-1.116787	-8.420945E+14	-4.130753E-18	NaN
411	1.000000	0.062380	7.36908e+06	-56539.1	1005.82	-29738.8	0.000000	0.000000	6.062763	0.018402	NaN	0.000000	0.001571	0.001586	28.0814	0.094065	0.002019	46.5911	-106.908	-165.676	-0.005887	0.061062	-1.106677	-1.107996	0.018402	46.5911	-1.106973	-6.218253E+14	-2.959321E-17	NaN
411	1.000000	0.072400	7.36908e+06	-56539.1	1005.82	-29738.8	0.000000	0.000000	6.072782	0.015739	NaN	0.000000	0.001597	0.001591	28.0824	0.105976	0.002040	51.9575	-102.062	16.0081	0.001609	0.071030	-1.096657	-1.098028	0.015739	51.9575	-1.096885	-4.552468E+14	-3.457325E-17	NaN
411	1.000000	0.082393	7.36908e+06	-56539.1	1005.82	-29738.8	0.000000	0.000000	6.082776	0.035757	NaN	0.000000	0.001583	0.001584	28.0823	0.044271	0.002011	22.0187	-56.8084	-163.01	0.101817	0.081069	-1.086665	-1.087989	0.035757	22.0187	-1.087883	-3.446512E+14	-1.037490E-16	NaN
411	1.000000	0.092389	7.36908e+06	-56539.1	1005.82	-29738.8	0.000000	0.000000	6.092770	-0.016239	NaN	0.000000	0.001591	0.001610	28.0819	0.072588	0.001935	37.5084	-160.457	15.7572	0.051462	0.091005	-1.076669	-1.078053	-0.016239	37.5084	-1.076344	-2.412181E+14	6.732087E-17	NaN
411	1.000000	0.102384	7.36908e+06	-56539.1	1005.82	-29738.8	0.000000	0.000000	6.102765	-0.036247	NaN	0.000000	0.001555	0.001564	28.0823	0.070644	0.002033	34.7458	67.8639	-165.713	0.041469	0.101065	-1.066673	-1.067992	-0.036247	34.7458	-1.065891	-1.745733E+14	2.076302E-16	NaN
411	1.000000	0.112397	7.36908e+06	-56539.1	1005.82	-29738.8	0.000000	0.000000	6.112780	0.026201	NaN	0.000000	0.001535	0.001565	28.0822	0.083561	0.001972	42.3748	-14.8564	9.205015	0.066518	0.111055	-1.056660	-1.058002	0.026201	42.3748	-1.057124	-1.330972E+14	-1.968529E-16	NaN
411	1.000000	0.122380	7.36908e+06	-56539.1	1005.82	-29738.8	0.000000	0.000000	6.122761	-0.023040	NaN	0.000000	0.001545	0.001593	28.0821	0.050796	0.001974	25.731	26.938	-168.988	0.055011	0.121099	-1.046678	-1.047959	-0.023040	25.731	-1.046006	-9.434585E+13	2.442048E-16	NaN
411	1.000000	0.132428	7.36908e+06	-56539.1	1005.82	-29738.8	0.000000	0.000000	6.132811	0.026488	NaN	0.000000	0.001574	0.001597	28.0825	0.136888	0.001964	69.6938	135.488	10.7692	-0.016360	0.131088	-1.036629	-1.037969	0.026488	69.6938	-1.036915	-7.119937E+13	-3.720271E-16	NaN
411	1.000000	0.142376	7.36908e+06	-56539.1	1005.82	-29738.8	0.000000	0.000000	6.142757	-0.013114	NaN	0.000000	0.001592	0.001595	28.0819	0.118470	0.002156	54.9409	-136.722	-165.277	-0.051802	0.141047	-1.026681	-1.028011	-0.013114	54.9409	-1.026502	-5.157424E+13	2.542827E-16	NaN
411	1.000000	0.152414	7.36908e+06	-56539.1	1005.82	-29738.8	0.000000	0.000000	6.152793	-0.064660	NaN	0.000000	0.001536	0.001584	28.0821	0.053151	0.001967	27.0269	102.174	12.1728	-0.094357	0.151063	-1.016644	-1.017995	-0.064660	27.0269	-1.014849	-3.594567E+13	1.798812E-15	NaN
411	1.000000	0.162402	7.36908e+06	-56539.1	1005.82	-29738.8	0.000000	0.000000	6.162780	-0.083546	NaN	0.000000	0.001560	0.001598	28.082	0.141252	0.001952	72.3569	-30.9289	-165.475	-0.042815	0.161038	-1.006655	-1.008019	-0.083546	72.3569	-1.005789	-2.714608E+13	3.077655E-15	NaN
411	1.000000	0.172404	7.36908e+06	-56539.1	1005.82	-29738.8	0.000000	0.000000	6.172785	-0.008960	NaN	0.000000	0.001579	0.001580	28.082	0.134779	0.001909	70.5939	148.536	14.7401	-0.049379	0.171103	-0.996653	-0.997955	-0.008960	70.5939	-0.996558	-2.039051E+13	4.394134E-16	NaN
411	1.000000	0.182407	7.36908e+06	-56539.1	1005.82	-29738.8	0.000000	0.000000	6.182789	0.004863	NaN	0.000000	0.001607	0.001601	28.082	0.038761	0.001941	19.9723	-155.207	-166.656	0.002570	0.181102	-0.986651	-0.987956	0.004863	19.9723	-0.986833	-1.508200E+13	-3.224595E-16	NaN
411	1.000000	0.192409	7.36908e+06	-56539.1	1005.82	-29738.8	0.000000	0.000000	6.192789	-0.034739	NaN	0.000000	0.001608	0.001592	28.0822	0.077753	0.001963	39.6012	-48.7107	13.6112	-0.025688	0.191026	-0.976648	-0.978031	-0.034739	39.6012	-0.975991	-1.077432E+13	3.224252E-15	NaN
411	1.000000	0.202457	7.36908e+06	-56539.1	1005.82	-29738.8	0.000000	0.000000	6.202839	0.005515	NaN	0.000000	0.001562	0.001574	28.0818	0.040574	0.001908	21.2677	164.388	-166.234	-0.057998	0.201127	-0.966600	-0.967930	0.005515	21.2677	-0.966795	-8.099574E+12	-6.808614E-16	NaN
411	1.000000	0.212422	7.36908e+06	-56539.1	1005.82	-29738.8	0.000000	0.000000	6.212801	-0.054273	NaN	0.000000	0.001579	0.001581	28.0806	0.132043	0.002083	63.3871	-93.61	13.9181	0.008490	0.211065	-0.956636	-0.957993	-0.054273	63.3871	-0.955993	-5.792285E+12	9.369835E-15	NaN
411	1.000000	0.222428	7.36908e+06	-56539.1	1005.82	-29738.8	0.000000	0.000000	6.222808	-0.030390	NaN	0.000000	0.001595	0.001584	28.0815	0.179548	0.002098	85.5849	-64.9066	-170.002	-0.006189	0.221075	-0.946630	-0.947982	-0.030390	85.5849	-0.946363	-4.295140E+12	7.075446E-15	NaN
411	1.000000	0.232461	7.36908e+06	-56539.1	1005.82	-29738.8	0.000000	0.000000	6.232840	-0.061759	NaN	0.000000	0.001592	0.001541	28.0809	0.017609	0.001977	8.905065	-148.453	14.7001	-0.007803	0.231099	-0.936597	-0.937958	-0.061759	8.905065	-0.931395	-2.697897E+12	2.289159E-14	NaN
411	1.000000	0.242463	7.36908e+06	-56539.1	1005.82	-29738.8	0.000000	0.000000	6.242844	-0.023930	NaN	0.000000	0.001610	0.001557	28.0807	0.116686	0.001975	59.0954	42.969	-167.863	-0.016478	0.241125	-0.926594	-0.927932	-0.023930	59.0954	-0.926291	-2.302125E+12	1.039472E-14	NaN
411	1.000000	0.252475	7.36908e+06	-56539.1	1005.82	-29738.8	0.000000	0.000000	6.252854	-0.061411	NaN	0.000000	0.001606	0.001528	28.0807	0.025822	0.001987	12.9946	-108.213	14.0858	-0.020267	0.251090	-0.916582	-0.917968	-0.061411	12.9946	-0.913038	-1.524735E+12	4.027682E-14	NaN
411	1.000000	0.262457	7.36908e+06	-56539.1	1005.82	-29738.8	0.000000	0.000000	6.262842	0.091766	NaN	0.000000	0.001611	0.001575	28.0812	0.018698	0.002014	9.284343	133.758	-168.708	0.063995	0.261152	-0.906601	-0.907905	0.091766	9.284343	-0.914013	-1.571697E+12	-5.838641E-14	NaN
411	1.000000	0.272446	7.36908e+06	-56539.1	1005.82	-29738.8	0.000000	0.000000	6.272827	-0.008943	NaN	0.000000	0.001624	0.001541	28.0805	0.027257	0.002027	13.4453	-98.1666	16.1199	0.004702	0.271167	-0.896611	-0.897891	-0.008943	13.4453	-0.896113	-9.006061E+11	9.929953E-15	NaN
411	1.000000	0.282475	7.36908e+06	-56539.1	1005.82	-29738.8	0.000000	0.000000	6.282858	0.021669	NaN	0.000000	0.001584	0.001580	28.0806	0.041771	0.002078	20.0975	119.564	-166.299	0.018586	0.281168	-0.886582	-0.887889	0.021669	20.0975	-0.887391	-6.865027E+11	-3.156399E-14	NaN
411	1.000000	0.292456	7.36908e+06	-56539.1	1005.82	-29738.8	0.000000	0.000000	6.292838	0.015638	NaN	0.000000	0.001606	0.001617	28.0808	0.039590	0.001996	19.8305	172.003	14.0649	-0.026605	0.291122	-0.876601	-0.877935	0.015638	19.8305	-0.877193	-4.997390E+11	-3.129324E-14	NaN
411	1.000000	0.302482	7.36908e+06	-56539.1	1005.82	-29738.8	0.000000	0.000000	6.302864	0.009104	NaN	0.000000	0.001627	0.001606	28.0806	0.078991	0.001980	39.9013	-38.6258	-166.717	-0.019967	0.301142	-0.866576	-0.867916	0.009104	39.9013	-0.866747	-3.609338E+11	-2.522337E-14	NaN
411	1.000000	0.312473	7.36908e+06	-56539.1	1005.82	-29738.8	0.000000	0.000000	6.312852	-0.081085	NaN	0.000000	0.001576	0.001589	28.0807	0.183997	0.002125	86.6026	122.685	12.3706	-0.015943	0.311178	-0.856584	-0.857880	-0.081085	86.6026	-0.855882	-2.572635E+11	3.151820E-13	NaN
411	1.000000	0.322482	7.36908e+06	-56539.1	1005.82	-29738.8	0.000000	0.000000	6.322862	-0.036418	NaN	0.000000	0.001623	0.001552	28.0806	0.097049	0.002063	47.0353	15.9292	-168.032	-0.100611	0.321176	-0.846576	-0.847882	-0.036418	47.0353	-0.845995	-1.890178E+11	1.926679E-13	NaN
411	1.000000	0.332519	7.36908e+06	-56539.1	1005.82	-29738.8	0.000000	0.000000	6.332901	0.001630	NaN	0.000000	0.001648	0.001584	28.0806	0.068892	0.001922	35.8513	23.8552	12.0552	0.054992	0.331139	-0.836538	-0.837919	0.001630	35.8513	-0.836572	-1.408804E+11	-1.157255E-14	NaN
411	1.000000	0.342484	7.36908e+06	-56539.1	1005.82	-29738.8	0.000000	0.000000	6.342866	-0.010192	NaN	0.000000	0.001651	0.001583	28.0809	0.064051	0.001960	32.6754	73.2193	-165.619	-0.038238	0.341209	-0.826573	-0.827848	-0.010192	32.6754	-0.826339	-1.023676E+11	9.955821E-14	NaN
411	1.000000	0.352480	7.36908e+06	-56539.1	1005.82	-29738.8	0.000000	0.000000	6.352862	0.023427	NaN	0.000000	0.001658	0.001543	28.0822	0.049908	0.002028	24.6066	33.9283	15.2407	0.008484	0.351123	-0.816578	-0.817935	0.023427	24.6066	-0.817292	-7.717601E+10	-3.035518E-13	NaN
411	1.000000	0.362472	7.36908e+06	-56539.1	1005.82	-29738.8	0.000000	0.000000	6.362854	0.017901	NaN	0.000000	0.001699	0.001657	28.0821	0.079542	0.002096	37.9584	86.0886	-164.695	-0.032522	0.361217	-0.806586	-0.807840	0.017901	37.9584	-0.806939	-5.585238E+10	-3.204983E-13	NaN
411	1.000000	0.372483	7.36908e+06	-56539.1	1005.82	-29738.8	0.000000	0.000000	6.372864	-0.032789	NaN	0.000000	0.001700	0.001602	28.0823	0.106690	0.001938	55.0607	-68.6134	15.5871	0.019906	0.371186	-0.796574	-0.797871	-0.032789	55.0607	-0.796128	-3.983745E+10	8.230642E-13	NaN
411	1.000000	0.382530	7.36908e+06	-56539.1	1005.82	-29738.8	0.000000	0.000000	6.382909	-0.060760	NaN	0.000000	0.001627	0.001598	28.0819	0.013246	0.002016	6.569135	-3.278161	-168.67	-0.003943	0.381184	-0.786528	-0.787874	-0.060760	6.569135	-0.779591	-2.375036E+10	2.558271E-12	NaN
411	1.000000	0.392519	7.36908e+06	-56539.1	1005.82	-29738.8	0.000000	0.000000	6.392899	-0.044795	NaN	0.000000	0.001613	0.001584	28.0818	0.022663	0.002003	11.3125	149.895	11.61	-0.035378	0.391096	-0.776538	-0.777962	-0.044795	11.3125	-0.773569	-1.967075E+10	2.277247E-12	NaN
411	1.000000	0.402525	7.36908e+06	-56539.1	1005.82	-29738.8	0.000000	0.000000	6.402906	-0.015502	NaN	0.000000	0.001652	0.001605	28.0819	0.099459	0.001949	51.0369	83.1715	-163.579	0.015446	0.401199	-0.766532	-0.767858	-0.015502	51.0369	-0.766304	-1.566946E+10	9.893005E-13	NaN
411	1.000000	0.412521	7.36908e+06	-56539.1	1005.82	-29738.8	0.000000	0.000000	6.412903	0.016161	NaN	0.000000	0.001617	0.001573	28.0819	0.115247	0.001989	57.9333	-23.9697	13.3557	0.115250	0.411160	-0.756537	-0.757898	0.016161	57.9333	-0.756746	-1.161537E+10	-1.391374E-12	NaN
411	1.000000	0.422554	7.36908e+06	-56539.1	1005.82	-29738.8	0.000000	0.000000	6.422937	0.024534	NaN	0.000000	0.001603	0.001560	28.0818	0.049516	0.001910	25.9308	-102.219	-164.513	0.075623	0.421204	-0.746503	-0.747853	0.024534	25.9308	-0.747213	-8.615385E+9	-2.847641E-12	NaN
411	1.000000	0.432533	7.36908e+06	-56539.1	1005.82	-29738.8	0.000000	0.000000	6.432915	-0.009329	NaN	0.000000	0.001617	0.001596	28.0818	0.145449	0.001844	78.8903	64.3445	16.7315	-0.016208	0.431126	-0.736524	-0.737931	-0.009329	78.8903	-0.736435	-6.144670E+9	1.518253E-12	NaN
411	1.000000	0.442547	7.36908e+06	-56539.1	1005.82	-29738.8	0.000000	0.000000	6.442927	-0.036111	NaN	0.000000	0.001592	0.001587	28.082	0.054995	0.002133	25.7774	-43.6638	-165.213	-0.076631	0.441326	-0.726510	-0.727732	-0.036111	25.7774	-0.725460	-4.354305E+9	8.293181E-12	NaN
411	1.000000	0.452497	7.36908e+06	-56539.1	1005.82	-29738.8	0.000000	0.000000	6.452876	-0.054579	NaN	0.000000	0.001595	0.001571	28.082	0.029952	0.002015	14.8676	110.29	13.7487	-0.117336	0.451092	-0.716561	-0.717966	-0.054579	14.8676	-0.713808	-3.019979E+9	1.807271E-11	NaN
411	1.000000	0.462520	7.36908e+06	-56539.1	1005.82	-29738.8	0.000000	0.000000	6.462900	-0.024035	NaN	0.000000	0.001624	0.001590	28.0821	0.076110	0.002147	35.445	113.485	-165.794	-0.025737	0.461246	-0.706538	-0.707811	-0.024035	35.445	-0.706029	-2.365110E+9	1.016213E-11	NaN
411	1.000000	0.472576	7.36908e+06	-56539.1	1005.82	-29738.8	0.000000	0.000000	6.472957	-0.020004	NaN	0.000000	0.001610	0.001620	28.0822	0.118794	0.001893	62.7521	66.4064	10.8152	0.012157	0.471160	-0.696481	-0.697897	-0.020004	62.7521	-0.696242	-1.738620E+9	1.150580E-11	NaN
411	1.000000	0.482574	7.36908e+06	-56539.1	1005.82	-29738.8	0.000000	0.000000	6.482956	-0.010016	NaN	0.000000	0.001613	0.001614	28.0805	0.125999	0.002038	61.8111	-107.825	-165.985	0.024601	0.481220	-0.686483	-0.687838	-0.010016	61.8111	-0.686362	-1.274058E+9	7.861440E-12	NaN
411	1.000000	0.492543	7.36908e+06	-56539.1	1005.82	-29738.8	0.000000	0.000000	6.492925	0.009045	NaN	0.000000	0.001616	0.001684	28.0808	0.063391	0.002152	29.4556	61.4079	11.3237	0.116611	0.491154	-0.676514	-0.677903	0.009045	29.4556	-0.676744	-9.411868E+8	-9.610714E-12	NaN
411	1.000000	0.502550	7.36908e+06	-56539.1	1005.82	-29738.8	0.000000	0.000000	6.502934	0.063140	NaN	0.000000	0.001609	0.001688	28.0807	0.140017	0.002032	68.9165	-136.713	-169.572	0.021507	0.501213	-0.666508	-0.667844	0.063140	68.9165	-0.667195	-6.966223E+8	-9.063688E-11	NaN
411	1.000000	0.512534	7.36908e+06	-56539.1	1005.82	-29738.8	0.000000	0.000000	6.512914	-0.048920	NaN	0.000000	0.001581	0.001675	28.0807	0.095898	0.001895	50.6096	-114.975	14.8963	0.017865	0.511222	-0.656523	-0.657836	-0.048920	50.6096	-0.655798	-4.862989E+8	1.005962E-10	NaN
411	1.000000	0.522572	7.36908e+06	-56539.1	1005.82	-29738.8	0.000000	0.000000	6.522953	-0.006915	NaN	0.000000	0.001614	0.001650	28.0805	0.058756	0.002108	27.8769	156.656	-167.055	-0.104683	0.521271	-0.646486	-0.647786	-0.006915	27.8769	-0.646300	-3.603294E+8	1.919075E-11	NaN
411	1.000000	0.532597	7.36908e+06	-56539.1	1005.82	-29738.8	0.000000	0.000000	6.532977	-0.036277	NaN	0.000000	0.001620	0.001668	28.0801	0.039994	0.001976	20.2372	114.812	16.1493	-0.017185	0.531255	-0.636461	-0.637802	-0.036277	20.2372	-0.635116	-2.530865E+8	1.433386E-10	NaN
411	1.000000	0.542580	7.36908e+06	-56539.1	1005.82	-29738.8	0.000000	0.000000	6.542961	-0.031338	NaN	0.000000	0.001615	0.001662	28.0804	0.075803	0.002039	37.177	-52.7442	-167.054	-0.043621	0.541235	-0.626477	-0.627822	-0.031338	37.177	-0.625845	-1.887781E+8	1.660061E-10	NaN
411	1.000000	0.552597	7.36908e+06	-56539.1	1005.82	-29738.8	0.000000	0.000000	6.552978	0.002069	NaN	0.000000	0.001612	0.001650	28.0804	0.057070	0.002021	28.2327	-96.9008	17.2952	-0.050220	0.551259	-0.616461	-0.617799	0.002069	28.2327	-0.616516	-1.405195E+8	-1.472043E-11	NaN
411	1.000000	0.562619	7.36908e+06	-56539.1	1005.82	-29738.8	0.000000	0.000000	6.562999	-0.034719	NaN	0.000000	0.001612	0.001645	28.0804	0.095810	0.002087	45.908	150.67	-166.318	-0.076300	0.561250	-0.606439	-0.607807	-0.034719	45.908	-0.605872	-1.003000E+8	3.461491E-10	NaN
411	1.000000	0.572611	7.36908e+06	-56539.1	1005.82	-29738.8	0.000000	0.000000	6.572991	-0.036623	NaN	0.000000	0.001607	0.001677	28.0802	0.109638	0.001980	55.3606	26.5589	11.0798	0.009106	0.571239	-0.596447	-0.597818	-0.036623	55.3606	-0.595950	-7.322787E+7	5.001213E-10	NaN
411	1.000000	0.582628	7.36908e+06	-56539.1	1005.82	-29738.8	0.000000	0.000000	6.583007	-0.072460	NaN	0.000000	0.001617	0.001666	28.0804	0.051911	0.001927	26.9361	116.521	-168.473	0.010252	0.581293	-0.586429	-0.587765	-0.072460	26.9361	-0.584412	-5.076907E+7	1.427238E-9	NaN
411	1.000000	0.592586	7.36908e+06	-56539.1	1005.82	-29738.8	0.000000	0.000000	6.592965	-0.064177	NaN	0.000000	0.001637	0.001676	28.0803	0.082757	0.002075	39.8771	-48.4296	13.6619	-0.022185	0.591238	-0.576471	-0.577819	-0.064177	39.8771	-0.575264	-3.796207E+7	1.690555E-9	NaN
411	1.000000	0.602589	7.36908e+06	-56539.1	1005.82	-29738.8	0.000000	0.000000	6.602971	0.017331	NaN	0.000000	0.001602	0.001670	28.08	0.096722	0.001948	49.6634	176.828	-166.713	0.010960	0.601273	-0.566469	-0.567785	0.017331	49.6634	-0.566730	-2.893662E+7	-5.989206E-10	NaN
411	1.000000	0.612599	7.36908e+06	-56539.1	1005.82	-29738.8	0.000000	0.000000	6.612979	-0.022908	NaN	0.000000	0.001588	0.001652	28.0806	0.092915	0.002038	45.5952	-110.687	14.5796	-0.088284	0.611190	-0.556459	-0.557867	-0.022908	45.5952	-0.556082	-2.061418E+7	1.111290E-9	NaN
411	1.000000	0.622635	7.36908e+06	-56539.1	1005.82	-29738.8	0.000000	0.000000	6.623016	-0.013780	NaN	0.000000	0.001606	0.001683	28.0817	0.042500	0.002115	20.0951	-25.3395	-171.092	0.058048	0.621291	-0.546423	-0.547767	-0.013780	20.0951	-0.545908	-1.490278E+7	9.246823E-10	NaN
411	1.000000	0.632615	7.36908e+06	-56539.1	1005.82	-29738.8	0.000000	0.000000	6.632995	-0.031113	NaN	0.000000	0.001639	0.001655	28.0814	0.033259	0.002036	16.3329	-162.6	12.1127	-0.034832	0.631263	-0.536443	-0.537794	-0.031113	16.3329	-0.535014	-1.052420E+7	2.956287E-9	NaN
411	1.000000	0.642601	7.36908e+06	-56539.1	1005.82	-29738.8	0.000000	0.000000	6.642985	0.079007	NaN	0.000000	0.001601	0.001648	28.0815	0.061674	0.002006	30.7504	137.197	-165.67	-0.029648	0.641324	-0.526457	-0.527734	0.079007	30.7504	-0.528384	-8.5139e+06	-9.279788E-9	NaN
411	1.000000	0.652632	7.36908e+06	-56539.1	1005.82	-29738.8	0.000000	0.000000	6.653012	-0.056679	NaN	0.000000	0.001650	0.001644	28.0817	0.128216	0.002072	61.8771	-142.84	15.0201	-0.027504	0.651253	-0.516425	-0.517805	-0.056679	61.8771	-0.515738	-5.67948e+06	9.979536E-9	NaN
411	1.000000	0.662617	7.36908e+06	-56539.1	1005.82	-29738.8	0.000000	0.000000	6.662996	-0.063729	NaN	0.000000	0.001611	0.001664	28.0818	0.047386	0.001951	24.2929	-175.138	-166.648	-0.011155	0.661347	-0.506441	-0.507710	-0.063729	24.2929	-0.504473	-3.9573e+06	1.610414E-8	NaN
411	1.000000	0.672651	7.36908e+06	-56539.1	1005.82	-29738.8	0.000000	0.000000	6.673033	0.028480	NaN	0.000000	0.001597	0.001683	28.0816	0.065828	0.001933	34.0467	-115.309	14.8345	-0.036873	0.671198	-0.496407	-0.497860	0.028480	34.0467	-0.497034	-3.11625e+06	-9.139114E-9	NaN
411	1.000000	0.682647	7.36908e+06	-56539.1	1005.82	-29738.8	0.000000	0.000000	6.683029	-0.000258	NaN	0.000000	0.001676	0.001676	28.0817	0.087659	0.001932	45.365	-23.0341	-169.241	-0.018601	0.681365	-0.486410	-0.487692	-0.000258	45.365	-0.486406	-2.21389e+06	1.163317E-10	NaN
411	1.000000	0.692615	7.36908e+06	-56539.1	1005.82	-29738.8	0.000000	0.000000	6.692999	0.050424	NaN	0.000000	0.001679	0.001669	28.082	0.030706	0.002032	15.1128	-85.7061	13.6163	0.066093	0.691266	-0.476442	-0.477791	0.050424	15.1128	-0.478944	-1.7408e+06	-2.896618E-8	NaN
411	1.000000	0.702664	7.36908e+06	-56539.1	1005.82	-29738.8	0.000000	0.000000	6.703043	-0.064462	NaN	0.000000	0.001734	0.001697	28.0817	0.042081	0.001975	21.3078	100.214	-167.62	-0.019062	0.701317	-0.466394	-0.467740	-0.064462	21.3078	-0.464125	-1.07884e+06	5.975162E-8	NaN
411	1.000000	0.712659	7.36908e+06	-56539.1	1005.82	-29738.8	0.000000	0.000000	6.713038	-0.069537	NaN	0.000000	0.001696	0.001674	28.0818	0.056371	0.002001	28.1681	115.106	12.4943	-0.011560	0.711312	-0.456398	-0.457746	-0.069537	28.1681	-0.454547	-791296	8.787738E-8	NaN
411	1.000000	0.722673	7.36908e+06	-56539.1	1005.82	-29738.8	0.000000	0.000000	6.723055	-0.000887	NaN	0.000000	0.001685	0.001627	28.0818	0.060648	0.001925	31.5016	-174.63	-163.023	-0.013006	0.721323	-0.446384	-0.447734	-0.000887	31.5016	-0.446363	-606889	1.462293E-9	NaN
411	1.000000	0.732669	7.36908e+06	-56539.1	1005.82	-29738.8	0.000000	0.000000	6.733048	-0.057292	NaN	0.000000	0.001644	0.001668	28.0819	0.051241	0.002028	25.2653	-72.6187	14.3253	-0.066579	0.731285	-0.436389	-0.437772	-0.057292	25.2653	-0.434688	-415282	1.379589E-7	NaN
411	1.000000	0.742661	7.36908e+06	-56539.1	1005.82	-29738.8	0.000000	0.000000	6.743039	-0.072056	NaN	0.000000	0.001621	0.001651	28.0817	0.055976	0.002036	27.4935	-133.524	-164.098	0.035511	0.741364	-0.426397	-0.427694	-0.072056	27.4935	-0.424431	-297323	2.423484E-7	NaN
411	1.000000	0.752646	7.36908e+06	-56539.1	1005.82	-29738.8	0.000000	0.000000	6.753025	-0.054318	NaN	0.000000	0.001574	0.001663	28.0817	0.127702	0.001961	65.1158	-72.3337	12.2011	-0.100719	0.751285	-0.416411	-0.417772	-0.054318	65.1158	-0.415786	-224189	2.422856E-7	NaN
411	1.000000	0.762672	7.36908e+06	-56539.1	1005.82	-29738.8	0.000000	0.000000	6.763056	0.059808	NaN	0.000000	0.001689	0.001617	28.0807	0.028350	0.002099	13.5067	130.982	-167.038	0.054758	0.761302	-0.406385	-0.407755	0.059808	13.5067	-0.409706	-183748	-3.254879E-7	NaN
411	1.000000	0.772679	7.36908e+06	-56539.1	1005.82	-29738.8	0.000000	0.000000	6.773057	-0.071099	NaN	0.000000	0.001655	0.001714	28.0805	0.090713	0.002002	45.3185	-39.1344	17.5417	-0.129876	0.771280	-0.396379	-0.397778	-0.071099	45.3185	-0.395202	-114163	6.227815E-7	NaN
411	1.000000	0.782690	7.36908e+06	-56539.1	1005.82	-29738.8	0.000000	0.000000	6.783073	0.023205	NaN	0.000000	0.001677	0.001695	28.0804	0.028033	0.002028	13.8243	46.9695	-170.206	0.040707	0.781391	-0.386367	-0.387666	0.023205	13.8243	-0.387626	-88960.4	-2.608430E-7	NaN
411	1.000000	0.792718	7.36908e+06	-56539.1	1005.82	-29738.8	0.000000	0.000000	6.793098	-0.034455	NaN	0.000000	0.001673	0.001641	28.0804	0.120354	0.002085	57.7211	177.096	14.6526	0.070418	0.791282	-0.376340	-0.377776	-0.034455	57.7211	-0.375892	-60379.9	5.706452E-7	NaN
411	1.000000	0.802689	7.36908e+06	-56539.1	1005.82	-29738.8	0.000000	0.000000	6.803069	-0.037977	NaN	0.000000	0.001643	0.001633	28.0807	0.130899	0.001984	65.964	163.243	-166.724	0.007615	0.801378	-0.366369	-0.367679	-0.037977	65.964	-0.365937	-43407.8	8.748887E-7	NaN
411	1.000000	0.812667	7.36908e+06	-56539.1	1005.82	-29738.8	0.000000	0.000000	6.813044	-0.102047	NaN	0.000000	0.001691	0.001648	28.0803	0.036593	0.001988	18.4081	92.9145	16.5107	-0.008286	0.811352	-0.356391	-0.357705	-0.102047	18.4081	-0.352233	-27504.1	3.710259E-6	NaN
411	1.000000	0.822690	7.36908e+06	-56539.1	1005.82	-29738.8	0.000000	0.000000	6.823071	-0.013015	NaN	0.000000	0.001649	0.001637	28.0804	0.140352	0.002075	67.6271	14.2273	-170.547	0.030055	0.821395	-0.346368	-0.347663	-0.013015	67.6271	-0.346223	-22498	5.785152E-7	NaN
411	1.000000	0.832711	7.36908e+06	-56539.1	1005.82	-29738.8	0.000000	0.000000	6.833091	-0.031933	NaN	0.000000	0.001678	0.001641	28.0803	0.076034	0.002026	37.5289	135.555	12.1684	-0.021836	0.831341	-0.336347	-0.337717	-0.031933	37.5289	-0.335709	-15810.4	2.019739E-6	NaN
411	1.000000	0.842701	7.36908e+06	-56539.1	1005.82	-29738.8	0.000000	0.000000	6.843083	-0.007277	NaN	0.000000	0.001650	0.001641	28.0806	0.024450	0.001958	12.4842	162.257	-165.374	-0.007052	0.841402	-0.326356	-0.327655	-0.007277	12.4842	-0.325919	-11366.5	6.402101E-7	NaN
411	1.000000	0.852692	7.36908e+06	-56539.1	1005.82	-29738.8	0.000000	0.000000	6.853074	-0.002882	NaN	0.000000	0.001646	0.001698	28.0804	0.067580	0.002087	32.3786	23.7724	12.637	0.039038	0.851365	-0.316365	-0.317693	-0.002882	32.3786	-0.316299	-8205.49	3.512152E-7	NaN
411	1.000000	0.862684	7.36908e+06	-56539.1	1005.82	-29738.8	0.000000	0.000000	6.863063	-0.062629	NaN	0.000000	0.001640	0.001700	28.0808	0.072431	0.001988	36.4398	31.6386	-168.445	-0.120654	0.861468	-0.306373	-0.307589	-0.062629	36.4398	-0.305084	-5600.2	1.118335E-5	NaN
411	1.000000	0.872732	7.36908e+06	-56539.1	1005.82	-29738.8	0.000000	0.000000	6.873111	-0.067975	NaN	0.000000	0.001632	0.001679	28.0807	0.024090	0.002073	11.6184	88.9214	11.6532	-0.115574	0.871351	-0.296325	-0.297707	-0.067975	11.6184	-0.291937	-3567.03	1.905641E-5	NaN
411	1.000000	0.882748	7.36908e+06	-56539.1	1005.82	-29738.8	0.000000	0.000000	6.883129	-0.011291	NaN	0.000000	0.001649	0.001661	28.0806	0.053713	0.001832	29.3168	-133.07	-168.109	0.062411	0.881417	-0.286309	-0.287641	-0.011291	29.3168	-0.286021	-2908.06	3.882639E-6	NaN
411	1.000000	0.892740	7.36908e+06	-56539.1	1005.82	-29738.8	0.000000	0.000000	6.893121	0.001290	NaN	0.000000	0.001634	0.001660	28.0817	0.045997	0.002064	22.2879	12.8678	13.5823	0.046621	0.891326	-0.276318	-0.277731	0.001290	22.2879	-0.276361	-2079.71	-6.202051E-7	NaN
411	1.000000	0.902724	7.36908e+06	-56539.1	1005.82	-29738.8	0.000000	0.000000	6.903102	-0.107360	NaN	0.000000	0.001627	0.001651	28.0819	0.166418	0.001920	86.6915	-168.314	-166.97	-0.044308	0.901433	-0.266333	-0.267624	-0.107360	86.6915	-0.265404	-1417.62	7.573248E-5	NaN
411	1.000000	0.912734	7.36908e+06	-56539.1	1005.82	-29738.8	0.000000	0.000000	6.913111	-0.114740	NaN	0.000000	0.001629	0.001689	28.082	0.053596	0.001965	27.2765	-131.545	15.1543	-0.043304	0.911359	-0.256324	-0.257698	-0.114740	27.2765	-0.253169	-920.245	0.000125	NaN
411	1.000000	0.922726	7.36908e+06	-56539.1	1005.82	-29738.8	0.000000	0.000000	6.923106	-0.026918	NaN	0.000000	0.001668	0.001664	28.0819	0.054634	0.002079	26.2794	28.0406	-166.973	-0.039020	0.921395	-0.246332	-0.247663	-0.026918	26.2794	-0.245564	-701.797	3.835562E-5	NaN
411	1.000000	0.932735	7.36908e+06	-56539.1	1005.82	-29738.8	0.000000	0.000000	6.933116	0.005885	NaN	0.000000	0.001649	0.001651	28.0817	0.066218	0.002033	32.5643	-53.992	13.8493	-0.020194	0.931393	-0.236323	-0.237665	0.005885	32.5643	-0.236459	-505.98	-1.163045E-5	NaN
411	1.000000	0.942742	7.36908e+06	-56539.1	1005.82	-29738.8	0.000000	0.000000	6.943122	-0.043101	NaN	0.000000	0.001667	0.001690	28.0819	0.057118	0.002056	27.7849	-107.978	-166.024	-0.092360	0.941419	-0.226315	-0.227639	-0.043101	27.7849	-0.225152	-335.543	0.000128	NaN
411	1.000000	0.952720	7.36908e+06	-56539.1	1005.82	-29738.8	0.000000	0.000000	6.953101	-0.026603	NaN	0.000000	0.001633	0.001676	28.0817	0.096075	0.001928	49.8258	162.881	13.1338	0.004142	0.951413	-0.216337	-0.217644	-0.026603	49.8258	-0.215937	-239.097	0.000111	NaN
411	1.000000	0.962767	7.36908e+06	-56539.1	1005.82	-29738.8	0.000000	0.000000	6.963148	-0.016351	NaN	0.000000	0.001646	0.001641	28.0817	0.031003	0.001967	15.7623	-171.314	-164.739	0.003994	0.961452	-0.206290	-0.207606	-0.016351	15.7623	-0.205512	-162.148	0.000101	NaN
411	1.000000	0.972759	7.36908e+06	-56539.1	1005.82	-29738.8	0.000000	0.000000	6.973140	-0.015317	NaN	0.000000	0.001659	0.001618	28.0817	0.040220	0.002130	18.8807	-135.41	13.0802	0.013144	0.971421	-0.196299	-0.197636	-0.015317	18.8807	-0.195690	-111.848	0.000137	NaN
411	1.000000	0.982753	7.36908e+06	-56539.1	1005.82	-29738.8	0.000000	0.000000	6.983140	0.107937	NaN	0.000000	0.001638	0.001644	28.0818	0.107236	0.002111	50.8076	-96.2985	-170.021	0.087025	0.981466	-0.186304	-0.187592	0.107937	50.8076	-0.187897	-82.9543	-0.001301	NaN
411	1.000000	0.992742	7.36908e+06	-56539.1	1005.82	-29738.8	0.000000	0.000000	6.993120	-0.065149	NaN	0.000000	0.001628	0.001638	28.0818	0.107958	0.002015	53.5894	94.667	12.741	-0.130663	0.991414	-0.176316	-0.177643	-0.065149	53.5894	-0.175404	-50.9241	0.001279	NaN
411	1.000000	1.002766	7.36908e+06	-56539.1	1005.82	-29738.8	0.000000	0.000000	7.003146	-0.026802	NaN	0.000000	0.001688	0.001600	28.0817	0.109658	0.002061	53.2109	46.7308	-163.807	-0.028860	1.001440	-0.166292	-0.167618	-0.026802	53.2109	-0.165914	-34.861	0.000769	NaN
411	1.000000	1.012766	7.36908e+06	-56539.1	1005.82	-29738.8	0.000000	0.000000	7.013150	0.041600	NaN	0.000000	0.001671	0.001643	28.0814	0.055770	0.002022	27.5809	79.0914	14.8203	-0.010493	1.011417	-0.156291	-0.157641	0.041600	27.5809	-0.157422	-24.6625	-0.001687	NaN
411	1.000000	1.022815	7.36908e+06	-56539.1	1005.82	-29738.8	0.000000	0.000000	7.023196	-0.017719	NaN	0.000000	0.001658	0.001661	28.0818	0.017000	0.002013	8.444952	-159.411	-167.491	-0.042927	1.021472	-0.146243	-0.147586	-0.017719	8.444952	-0.144669	-14.4559	0.001226	NaN
411	1.000000	1.032753	7.36908e+06	-56539.1	1005.82	-29738.8	0.000000	0.000000	7.033133	-0.044551	NaN	0.000000	0.001673	0.001676	28.0808	0.102170	0.001913	53.421	-16.8647	14.1568	-0.042266	1.031417	-0.136305	-0.137641	-0.044551	53.421	-0.135679	-9.800291	0.004546	NaN
411	1.000000	1.042760	7.36909e+06	-56539.1	1005.82	-29738.8	0.000000	0.000000	7.043138	-0.090966	NaN	0.000000	0.001640	0.001692	28.0803	0.060131	0.001856	32.3909	-80.6378	-167.415	-0.053402	1.041452	-0.126298	-0.127605	-0.090966	32.3909	-0.124191	-5.860968	0.015521	NaN
411	1.000000	1.052844	7.36909e+06	-56539.1	1005.82	-29738.8	0.000000	0.000000	7.053224	-0.031150	NaN	0.000000	0.001660	0.001672	28.0806	0.008603	0.001891	4.549063	18.3556	11.3268	-0.035874	1.051427	-0.116214	-0.117631	-0.031150	4.549063	-0.111078	-3.166264	0.009838	NaN
411	1.000000	1.062809	7.36909e+06	-56539.1	1005.82	-29738.8	0.000000	0.000000	7.063192	0.035900	NaN	0.000000	0.001725	0.001663	28.081	0.043954	0.002058	21.3528	-158.36	-167.719	0.003827	1.061518	-0.106248	-0.107540	0.035900	21.3528	-0.107509	-2.660988	-0.013491	NaN
411	1.000000	1.072779	7.36909e+06	-56539.1	1005.82	-29738.8	0.000000	0.000000	7.073160	-0.021106	NaN	0.000000	0.001650	0.001675	28.0806	0.122174	0.001992	61.3211	88.015	12.8864	-0.051973	1.071398	-0.096279	-0.097660	-0.021106	61.3211	-0.096021	-1.487995	0.014184	NaN
411	1.000000	1.082803	7.36909e+06	-56539.1	1005.82	-29738.8	0.000000	0.000000	7.083185	0.018918	NaN	0.000000	0.001658	0.001662	28.0806	0.059850	0.002177	27.4914	-65.2582	-165.125	-0.023284	1.081449	-0.086254	-0.087609	0.018918	27.4914	-0.086771	-0.906342	-0.020873	NaN
411	1.000000	1.092788	7.36909e+06	-56539.1	1005.82	-29738.8	0.000000	0.000000	7.093169	-0.021447	NaN	0.000000	0.001656	0.001674	28.0805	0.029110	0.001962	14.8392	179.84	14.432	-0.041666	1.091450	-0.076269	-0.077608	-0.021447	14.8392	-0.075185	-0.466998	0.045925	NaN
411	1.000000	1.102828	7.36909e+06	-56539.1	1005.82	-29738.8	0.000000	0.000000	7.103207	-0.072587	NaN	0.000000	0.001670	0.001638	28.0806	0.070794	0.002015	35.1253	85.2923	-164.249	-0.144401	1.101538	-0.066229	-0.067519	-0.072587	35.1253	-0.064679	-0.244159	0.297295	NaN
411	1.000000	1.112789	7.36909e+06	-56539.1	1005.82	-29738.8	0.000000	0.000000	7.113169	-0.038107	NaN	0.000000	0.001636	0.001645	28.0802	0.051070	0.002106	24.2469	56.8322	12.732	-0.128161	1.111444	-0.056268	-0.057614	-0.038107	24.2469	-0.055090	-0.129566	0.294110	NaN
411	1.000000	1.122809	7.36909e+06	-56539.1	1005.82	-29738.8	0.000000	0.000000	7.123192	0.028613	NaN	0.000000	0.001682	0.001634	28.0804	0.033580	0.002039	16.4687	-32.1886	-165.644	0.046151	1.121557	-0.046249	-0.047501	0.028613	16.4687	-0.047552	-0.076897	-0.372092	NaN
411	1.000000	1.132789	7.36909e+06	-56539.1	1005.82	-29738.8	0.000000	0.000000	7.133170	0.008604	NaN	0.000000	0.001691	0.001663	28.0808	0.096009	0.001941	49.4662	-98.5838	13.5234	-0.003024	1.131450	-0.036269	-0.037608	0.008604	49.4662	-0.036399	-0.035232	-0.244203	NaN
411	1.000000	1.142820	7.36909e+06	-56539.1	1005.82	-29738.8	0.000000	0.000000	7.143204	0.053177	NaN	0.000000	0.001676	0.001620	28.0804	0.035712	0.002080	17.1663	65.2317	-162.844	0.055143	1.141497	-0.026238	-0.027561	0.053177	17.1663	-0.028561	-0.021002	-2.532061	NaN
411	1.000000	1.152821	7.36909e+06	-56539.1	1005.82	-29738.8	0.000000	0.000000	7.153205	0.049092	NaN	0.000000	0.001641	0.001694	28.0806	0.092494	0.001915	48.2913	91.0407	14.4874	0.031200	1.151464	-0.016236	-0.017594	0.049092	48.2913	-0.016999	-0.010510	-4.671091	NaN
411	1.000000	1.162872	7.36909e+06	-56539.1	1005.82	-29738.8	0.000000	0.000000	7.163260	0.133853	NaN	0.000000	0.001581	0.001656	28.0808	0.318925	0.002029	157.191	36.2787	-168.4	0.120774	1.161469	-0.006185	-0.007588	0.133853	157.191	-0.006824	-0.004535	-29.5156	NaN
411	1.000000	1.172817	7.36909e+06	-56539.1	1005.82	-29738.8	0.000000	0.000000	7.173277	1.897017	NaN	0.000000	0.001698	0.001636	28.0821	2.564463	0.001946	1318.01	11.6476	10.7525	1.069850	1.171453	0.003760	0.002395	1.897017	1318.01	0.002680	0.002112	898.03	26200.1
411	2.000000	1.180450	7.36909e+06	-56539.1	1005.82	-29738.8	0.000000	0.000000	7.181168	8.180324	NaN	0.000000	0.001715	0.001603	28.0816	8.897810	0.001670	5327.02	6.039694	-172.819	8.179712	1.180137	0.011392	0.011080	8.180324	5327.02	0.010241	0.009450	865.616	50065
411	2.000000	1.182883	7.36909e+06	-56539.1	1005.82	-29738.8	0.000000	0.000000	7.183736	11.4719	NaN	0.000000	0.001680	0.001670	28.0818	11.9019	0.001717	6933.73	3.524016	8.846977	11.1795	1.182595	0.013825	0.013537	11.4719	6933.73	0.012584	0.012198	940.501	57359.1
411	2.000000	1.185343	7.36909e+06	-56539.1	1005.82	-29738.8	0.000000	0.000000	7.186325	14.5925	NaN	0.000000	0.001674	0.001671	28.0818	14.8536	0.001867	7957.65	4.706732	-174.184	13.6957	1.185116	0.016285	0.016058	14.5925	7957.65	0.014910	0.015166	962.206	59037.4
411	2.000000	1.187877	7.36909e+06	-56539.1	1005.82	-29738.8	0.000000	0.000000	7.189076	19.8581	NaN	0.000000	0.001698	0.001625	28.0819	17.5674	0.001852	9487.46	6.070567	4.144491	19.1585	1.187457	0.018820	0.018400	19.8581	9487.46	0.017250	0.018404	1079.02	63895.2
411	2.000000	1.190333	7.36909e+06	-56539.1	1005.82	-29738.8	0.000000	0.000000	7.191767	25.5688	NaN	0.000000	0.001660	0.001649	28.0817	19.6771	0.001723	11418.8	5.422763	-177.319	24.6146	1.190028	0.021276	0.020970	25.5688	11418.8	0.019596	0.021912	1166.88	70478.1
411	2.000000	1.192800	7.36909e+06	-56539.1	1005.82	-29738.8	0.000000	0.000000	7.194397	29.5419	NaN	0.000000	0.001627	0.001665	28.0816	22.6074	0.001770	12771.3	6.833897	-0.435296	27.2163	1.192530	0.023742	0.023472	29.5419	12771.3	0.022007	0.025795	1145.24	72650.6
411	2.000000	1.195362	7.36909e+06	-56539.1	1005.82	-29738.8	0.000000	0.000000	7.197239	36.354	NaN	0.000000	0.001573	0.001678	28.0817	25.182	0.001775	14189	6.668313	179.948	36.5603	1.194971	0.026304	0.025914	36.354	14189	0.024383	0.029902	1215.76	74967.2
411	2.000000	1.197835	7.36909e+06	-56539.1	1005.82	-29738.8	0.000000	0.000000	7.200016	43.7386	NaN	0.000000	0.001647	0.001675	28.082	26.8311	0.001799	14912.3	2.005337	2.775995	41.2496	1.197515	0.028778	0.028457	43.7386	14912.3	0.026578	0.033949	1288.35	73944.3
411	2.000000	1.200279	7.36909e+06	-56539.1	1005.82	-29738.8	0.000000	0.000000	7.202764	51.1438	NaN	0.000000	0.001616	0.001684	28.0819	29.4522	0.001792	16436.7	4.501315	-179.852	49.4985	1.199988	0.031221	0.030930	51.1438	16436.7	0.028887	0.038469	1329.47	76565
411	2.000000	1.202825	7.36909e+06	-56539.1	1005.82	-29738.8	0.000000	0.000000	7.205561	57.2383	NaN	0.000000	0.001639	0.001661	28.0819	32.2522	0.001753	18400.7	5.112697	-1.712761	55.2404	1.202477	0.033767	0.033420	57.2383	18400.7	0.031434	0.043769	1307.74	80357.1
411	2.000000	1.205322	7.36909e+06	-56539.1	1005.82	-29738.8	0.000000	0.000000	7.208417	65.9487	NaN	0.000000	0.001620	0.001646	28.0819	34.8282	0.001832	19010.6	2.922157	-179.066	64.861	1.204984	0.036265	0.035926	65.9487	19010.6	0.033663	0.048678	1354.78	78723
411	2.000000	1.207834	7.36909e+06	-56539.1	1005.82	-29738.8	0.000000	0.000000	7.211308	75.1737	NaN	0.000000	0.001608	0.001673	28.0822	36.7776	0.001755	20955.4	2.765547	0.338849	72.876	1.207383	0.038776	0.038326	75.1737	20955.4	0.036086	0.054305	1384.29	82158.1
411	2.000000	1.210300	7.36909e+06	-56539.1	1005.82	-29738.8	0.000000	0.000000	7.214105	83.2113	NaN	0.000000	0.001605	0.001660	28.0805	39.241	0.001824	21514.2	4.442651	178.132	82.7364	1.209995	0.041242	0.040937	83.2113	21514.2	0.038341	0.059812	1391.22	80372.1
411	2.000000	1.212771	7.36909e+06	-56539.1	1005.82	-29738.8	0.000000	0.000000	7.217022	94.0624	NaN	0.000000	0.001638	0.001664	28.0812	41.658	0.001854	22465.5	5.594665	-3.132278	91.6782	1.212391	0.043713	0.043333	94.0624	22465.5	0.040573	0.065517	1435.69	80188.4
411	2.000000	1.215298	7.36909e+06	-56539.1	1005.82	-29738.8	0.000000	0.000000	7.219915	102.954	NaN	0.000000	0.001621	0.001622	28.0809	44.6004	0.001814	24586.6	4.412423	176.878	102.051	1.215022	0.046240	0.045964	102.954	24586.6	0.043100	0.072285	1424.28	83550.5
411	2.000000	1.217788	7.36909e+06	-56539.1	1005.82	-29738.8	0.000000	0.000000	7.222817	112.954	NaN	0.000000	0.001633	0.001617	28.0807	46.184	0.001770	26088.1	3.529604	-2.547836	109.953	1.217450	0.048730	0.048392	112.954	26088.1	0.045483	0.078965	1430.43	84820
411	2.000000	1.220298	7.36909e+06	-56539.1	1005.82	-29738.8	0.000000	0.000000	7.225789	124.184	NaN	0.000000	0.001594	0.001692	28.0806	48.1515	0.001749	27535	4.599749	175.557	123.309	1.219968	0.051241	0.050911	124.184	27535	0.047858	0.085908	1445.54	85830.3
411	2.000000	1.222721	7.36909e+06	-56539.1	1005.82	-29738.8	0.000000	0.000000	7.228703	136.113	NaN	0.000000	0.001640	0.001699	28.0808	50.9613	0.001837	27746	2.905492	-2.594418	131.237	1.222415	0.053663	0.053358	136.113	27746	0.049984	0.092364	1473.65	83410.7
411	2.000000	1.225269	7.36909e+06	-56539.1	1005.82	-29738.8	0.000000	0.000000	7.231532	142.976	NaN	0.000000	0.001632	0.001678	28.0807	53.7358	0.001798	29894	3.520997	175.798	142.357	1.225010	0.056211	0.055952	142.976	29894	0.052624	0.100696	1419.88	86070.1
411	2.000000	1.227759	7.36909e+06	-56539.1	1005.82	-29738.8	0.000000	0.000000	7.234882	163.849	NaN	0.000000	0.001637	0.001672	28.0806	54.9217	0.001822	30145	5.191632	-4.756484	160.016	1.227326	0.058702	0.058268	163.849	30145	0.054625	0.107244	1527.82	84101.3
411	2.000000	1.230313	7.36909e+06	-56539.1	1005.82	-29738.8	0.000000	0.000000	7.237832	173.484	NaN	0.000000	0.001670	0.001634	28.0805	57.4272	0.001789	32092.5	4.576852	174.573	174.745	1.229926	0.061256	0.060869	173.484	32092.5	0.057202	0.115965	1496	86102
411	2.000000	1.232749	7.36909e+06	-56539.1	1005.82	-29738.8	0.000000	0.000000	7.240767	185.615	NaN	0.000000	0.001601	0.001677	28.0806	60.6421	0.001779	34092.3	7.772229	-9.192319	183.736	1.232414	0.063692	0.063357	185.615	34092.3	0.059608	0.124407	1491.99	88309.3
411	2.000000	1.235248	7.36909e+06	-56539.1	1005.82	-29738.8	0.000000	0.000000	7.243841	199.573	NaN	0.000000	0.001649	0.001641	28.0807	62.6215	0.001794	34915.7	3.323049	175.041	197.041	1.234949	0.066191	0.065891	199.573	34915.7	0.061904	0.132723	1503.68	87562.9
411	2.000000	1.237719	7.36909e+06	-56539.1	1005.82	-29738.8	0.000000	0.000000	7.246849	212.633	NaN	0.000000	0.001639	0.001657	28.0806	64.6163	0.001791	36081	4.689520	-6.402618	207.91	1.237503	0.068661	0.068445	212.633	36081	0.064241	0.141455	1503.18	87647.9
411	2.000000	1.240234	7.36909e+06	-56539.1	1005.82	-29738.8	0.000000	0.000000	7.249988	227.804	NaN	0.000000	0.001644	0.001651	28.0805	66.006	0.001785	36976.4	1.886767	176.112	226.605	1.239987	0.071177	0.070929	227.804	36976.4	0.066556	0.150361	1515.05	87122.5
411	2.000000	1.242721	7.36909e+06	-56539.1	1005.82	-29738.8	0.000000	0.000000	7.252950	239.347	NaN	0.000000	0.001667	0.001647	28.0807	69.549	0.001775	39175.6	6.436289	-9.218149	235.842	1.242399	0.073664	0.073341	239.347	39175.6	0.069082	0.160372	1492.45	89376.7
411	2.000000	1.245294	7.36909e+06	-56539.1	1005.82	-29738.8	0.000000	0.000000	7.255940	249.484	NaN	0.000000	0.001635	0.001609	28.0814	71.4999	0.001702	42009.2	1.436328	174.905	248.307	1.245038	0.076237	0.075981	249.484	42009.2	0.071783	0.171416	1455.43	92702.6
411	2.000000	1.247771	7.36909e+06	-56539.1	1005.82	-29738.8	0.000000	0.000000	7.259387	273.048	NaN	0.000000	0.001628	0.001645	28.082	73.604	0.001736	42404.9	3.024996	-5.509171	270.807	1.247341	0.078714	0.078283	273.048	42404.9	0.073885	0.180248	1514.85	91254.4
411	2.000000	1.250274	7.36909e+06	-56539.1	1005.82	-29738.8	0.000000	0.000000	7.262380	284.982	NaN	0.000000	0.001631	0.001624	28.0817	75.9949	0.001785	42575.9	5.388632	172.3	286.288	1.249848	0.081216	0.080790	284.982	42575.9	0.076196	0.190202	1498.31	89192.7
411	2.000000	1.252730	7.36909e+06	-56539.1	1005.82	-29738.8	0.000000	0.000000	7.265322	296.792	NaN	0.000000	0.001584	0.001649	28.0819	79.2218	0.001821	43495.6	6.341011	-9.847220	291.795	1.252427	0.083672	0.083369	296.792	43495.6	0.078555	0.200617	1479.39	88722.7
411	2.000000	1.255283	7.36909e+06	-56539.1	1005.82	-29738.8	0.000000	0.000000	7.268609	314.632	NaN	0.000000	0.001645	0.001682	28.0815	81.2139	0.001824	44520.1	2.988344	173.303	314.743	1.255043	0.086226	0.085986	314.632	44520.1	0.080925	0.211347	1488.69	88477
411	2.000000	1.257802	7.36909e+06	-56539.1	1005.82	-29738.8	0.000000	0.000000	7.271970	335.112	NaN	0.000000	0.001635	0.001648	28.082	82.5342	0.001620	50934.2	5.843587	-9.732110	332.685	1.257314	0.088744	0.088257	335.112	50934.2	0.083810	0.224756	1491	98158.2
411	2.000000	1.260256	7.36909e+06	-56539.1	1005.82	-29738.8	0.000000	0.000000	7.274904	346.757	NaN	0.000000	0.001599	0.001657	28.0817	84.373	0.001732	48713.7	3.915786	172.137	346.758	1.259815	0.091199	0.090757	346.757	48713.7	0.085860	0.234522	1478.57	91903.6
411	2.000000	1.262747	7.36909e+06	-56539.1	1005.82	-29738.8	0.000000	0.000000	7.278332	369.546	NaN	0.000000	0.001646	0.001643	28.0818	88.2663	0.001834	48130	6.740107	-10.4041	367.872	1.262422	0.093689	0.093364	369.546	48130	0.087931	0.244581	1510.93	88915.5
411	2.000000	1.265278	7.36909e+06	-56539.1	1005.82	-29738.8	0.000000	0.000000	7.281112	375.603	NaN	0.000000	0.001627	0.001673	28.0817	91.0584	0.001731	52616.9	6.035840	169.031	374.983	1.265008	0.096220	0.095950	375.603	52616.9	0.090867	0.259180	1449.2	94427.2
411	2.000000	1.267779	7.36909e+06	-56539.1	1005.82	-29738.8	0.000000	0.000000	7.284739	402.944	NaN	0.000000	0.001583	0.001692	28.0819	92.1773	0.001841	50061.7	3.373160	-6.919167	401.573	1.267422	0.098722	0.098364	402.944	50061.7	0.092685	0.268421	1501.16	88281.6
411	2.000000	1.270210	7.36909e+06	-56539.1	1005.82	-29738.8	0.000000	0.000000	7.288123	426.131	NaN	0.000000	0.001589	0.001674	28.0817	94.0106	0.001781	52770.9	7.141787	168.949	424.615	1.269838	0.101152	0.100780	426.131	52770.9	0.095096	0.280904	1517	90967.9
411	2.000000	1.272691	7.36909e+06	-56539.1	1005.82	-29738.8	0.000000	0.000000	7.290909	433.534	NaN	0.000000	0.001533	0.001658	28.0816	97.2556	0.001802	53981.1	4.749182	-9.657797	429.127	1.272430	0.103633	0.103372	433.534	53981.1	0.097610	0.294206	1473.57	90926.2
411	2.000000	1.275170	7.36909e+06	-56539.1	1005.82	-29738.8	0.000000	0.000000	7.294307	455.898	NaN	0.000000	0.001551	0.001607	28.0815	100.717	0.001865	53991.4	7.164225	168.168	451.679	1.274923	0.106112	0.105865	455.898	53991.4	0.099779	0.305914	1490.28	89186.3
411	2.000000	1.277571	7.36909e+06	-56539.1	1005.82	-29738.8	0.000000	0.000000	7.297525	475.73	NaN	0.000000	0.001606	0.001639	28.0815	101.232	0.001725	58689.3	4.194293	-9.734243	464.371	1.277277	0.108513	0.108220	475.73	58689.3	0.102434	0.320534	1484.18	94709.8
411	2.000000	1.278193	7.36909e+06	-56539.1	1005.82	-29738.8	0.000000	0.000000	7.298495	484.188	NaN	0.000000	0.001600	0.001616	28.0803	103.637	0.001869	55462.8	7.058556	169.075	482.073	1.277738	0.109135	0.108680	484.188	55462.8	0.102588	0.321392	1506.54	89383.5