File: remote_trans/data/nanoindenter/0828-1/data/Data_2025-08-06,11h17m57s/2025-07-22_16-23-58_1_531.txt
2025-07-22, 16:23:58, 1
Index	Phase	Displacement	Time	Pos X	Pos Y	Pos Z	Rot A	Rot B	Piezo Z	Force A	Force B	Gripper	Voltage A	Voltage B	Temperature	Amplitude force	Amplitude pos	Stiffness	Phase shift	Phase excitation	Force A raw	Displacement raw	HMax	HMax raw	Real Force	Real Stiffness	Contact Depth	Area	Hardness	Reduced Mod.
[#]	[#]	[um]	[s]	[um]	[um]	[um]	[m°]	[m°]	[um]	[uN]	[uN]	[V]	[V]	[V]	[°C]	[uN]	[um]	[N/m]	[°]	[°]	[uN]	[um]	[um]	[um]	[uN]	[N/m]	[um]	[um^2]	[MPa]	[MPa]
531	1.000000	0.002425	7.37024e+06	-50539.1	1005.82	-29755.3	0.000000	0.000000	6.002796	0.014415	NaN	0.000000	0.001605	0.001675	28.08	0.151608	0.001062	142.769	128.357	-167.785	0.012353	0.001162	-1.144015	-1.145278	0.014415	142.769	-1.144091	-1.956998E+15	-7.365889E-18	NaN
531	1.000000	0.012465	7.37024e+06	-50539.1	1005.82	-29755.3	0.000000	0.000000	6.012833	-0.053974	NaN	0.000000	0.001592	0.001651	28.0801	0.035597	0.001268	28.0674	160.133	17.2167	-0.047936	0.011056	-1.133975	-1.135384	-0.053974	28.0674	-1.132533	-1.369606E+15	3.940856E-17	NaN
531	1.000000	0.022383	7.37024e+06	-50539.1	1005.82	-29755.3	0.000000	0.000000	6.022753	0.004467	NaN	0.000000	0.001648	0.001670	28.0802	0.060806	0.001683	36.1309	55.5958	-166.998	0.018402	0.021124	-1.124057	-1.125316	0.004467	36.1309	-1.124150	-1.057177E+15	-4.225751E-18	NaN
531	1.000000	0.032373	7.37024e+06	-50539.1	1005.82	-29755.3	0.000000	0.000000	6.032746	0.045361	NaN	0.000000	0.001663	0.001700	28.0796	0.073915	0.001935	38.1947	-10.0839	13.2361	0.044577	0.031021	-1.114067	-1.115418	0.045361	38.1947	-1.114957	-7.958136E+14	-5.700007E-17	NaN
531	1.000000	0.042395	7.37024e+06	-50539.1	1005.82	-29755.3	0.000000	0.000000	6.042768	0.047234	NaN	0.000000	0.001657	0.001700	28.08	0.057848	0.002113	27.3737	-93.6995	-166.319	-0.018062	0.041122	-1.104044	-1.105318	0.047234	27.3737	-1.105339	-5.911884E+14	-7.989739E-17	NaN
531	1.000000	0.052357	7.37024e+06	-50539.1	1005.82	-29755.3	0.000000	0.000000	6.052727	-0.022512	NaN	0.000000	0.001645	0.001668	28.0798	0.030235	0.002039	14.8312	140.677	13.5555	-0.040887	0.051084	-1.094083	-1.095356	-0.022512	14.8312	-1.092944	-4.030358E+14	5.585692E-17	NaN
531	1.000000	0.062374	7.37024e+06	-50539.1	1005.82	-29755.3	0.000000	0.000000	6.062742	-0.071207	NaN	0.000000	0.001656	0.001677	28.0796	0.072800	0.001927	37.7717	-78.0828	-164.632	-0.014728	0.061094	-1.084065	-1.085346	-0.071207	37.7717	-1.082651	-2.931773E+14	2.428807E-16	NaN
531	1.000000	0.072399	7.37024e+06	-50539.1	1005.82	-29755.3	0.000000	0.000000	6.072769	-0.010591	NaN	0.000000	0.001648	0.001697	28.0798	0.128626	0.001893	67.9659	-158.58	13.1453	0.046101	0.070990	-1.074041	-1.075449	-0.010591	67.9659	-1.073924	-2.238249E+14	4.731782E-17	NaN
531	1.000000	0.082370	7.37024e+06	-50539.1	1005.82	-29755.3	0.000000	0.000000	6.082743	0.059781	NaN	0.000000	0.001655	0.001687	28.0798	0.074834	0.002165	34.5716	-10.6971	-169.243	0.017763	0.081110	-1.064069	-1.065330	0.059781	34.5716	-1.065366	-1.717643E+14	-3.480422E-16	NaN
531	1.000000	0.092388	7.37024e+06	-50539.1	1005.82	-29755.3	0.000000	0.000000	6.092759	-0.001233	NaN	0.000000	0.001669	0.001712	28.08	0.028403	0.002040	13.9204	-108.482	16.0805	0.039219	0.091072	-1.054052	-1.055368	-0.001233	13.9204	-1.053985	-1.207763E+14	1.020539E-17	NaN
531	1.000000	0.102384	7.37024e+06	-50539.1	1005.82	-29755.3	0.000000	0.000000	6.102756	0.040172	NaN	0.000000	0.001631	0.001711	28.0797	0.052194	0.002006	26.0227	-109.277	-164.406	0.029927	0.101068	-1.044056	-1.045372	0.040172	26.0227	-1.045213	-9.205868E+13	-4.363738E-16	NaN
531	1.000000	0.112417	7.37024e+06	-50539.1	1005.82	-29755.3	0.000000	0.000000	6.112788	0.021673	NaN	0.000000	0.001614	0.001730	28.0815	0.058361	0.001984	29.4159	-156.747	14.5532	-0.014513	0.111053	-1.034023	-1.035387	0.021673	29.4159	-1.034575	-6.622413E+13	-3.272716E-16	NaN
531	1.000000	0.122418	7.37024e+06	-50539.1	1005.82	-29755.3	0.000000	0.000000	6.122789	0.002862	NaN	0.000000	0.001634	0.001703	28.0818	0.062694	0.001896	33.0704	-31.1197	-168.336	-0.052558	0.121138	-1.024021	-1.025301	0.002862	33.0704	-1.024086	-4.785522E+13	-5.980894E-17	NaN
531	1.000000	0.132450	7.37024e+06	-50539.1	1005.82	-29755.3	0.000000	0.000000	6.132823	0.070546	NaN	0.000000	0.001650	0.001735	28.0813	0.087729	0.002067	42.4511	52.0557	13.8212	-0.033977	0.131057	-1.013990	-1.015383	0.070546	42.4511	-1.015237	-3.637937E+13	-1.939169E-15	NaN
531	1.000000	0.142435	7.37024e+06	-50539.1	1005.82	-29755.3	0.000000	0.000000	6.142806	0.006706	NaN	0.000000	0.001658	0.001687	28.0811	0.056870	0.002033	27.9792	-69.8376	-166.089	0.060558	0.141100	-1.004004	-1.005340	0.006706	27.9792	-1.004184	-2.582835E+13	-2.596321E-16	NaN
531	1.000000	0.152420	7.37024e+06	-50539.1	1005.82	-29755.3	0.000000	0.000000	6.152789	-0.020692	NaN	0.000000	0.001671	0.001718	28.081	0.094092	0.002027	46.4271	85.1436	12.3943	0.033335	0.151057	-0.994020	-0.995383	-0.020692	46.4271	-0.993686	-1.865293E+13	1.109292E-15	NaN
531	1.000000	0.162437	7.37024e+06	-50539.1	1005.82	-29755.3	0.000000	0.000000	6.162806	-0.028435	NaN	0.000000	0.001657	0.001699	28.081	0.042453	0.001979	21.4478	-92.7944	-164.909	-0.079475	0.161148	-0.984003	-0.985291	-0.028435	21.4478	-0.983009	-1.339508E+13	2.122826E-15	NaN
531	1.000000	0.172414	7.37024e+06	-50539.1	1005.82	-29755.3	0.000000	0.000000	6.172780	-0.091173	NaN	0.000000	0.001634	0.001700	28.0809	0.031049	0.001999	15.5334	138.449	10.7431	-0.065224	0.171108	-0.974026	-0.975332	-0.091173	15.5334	-0.969624	-8.842935E+12	1.031024E-14	NaN
531	1.000000	0.182437	7.37024e+06	-50539.1	1005.82	-29755.3	0.000000	0.000000	6.182808	0.030564	NaN	0.000000	0.001635	0.001742	28.0808	0.039352	0.001966	20.014	21.7979	-169.097	0.022535	0.181105	-0.964003	-0.965335	0.030564	20.014	-0.965149	-7.696165E+12	-3.971367E-15	NaN
531	1.000000	0.192440	7.37024e+06	-50539.1	1005.82	-29755.3	0.000000	0.000000	6.192810	-0.023968	NaN	0.000000	0.001680	0.001711	28.081	0.019105	0.002047	9.332453	169.632	14.5084	-0.031463	0.191049	-0.953999	-0.955391	-0.023968	9.332453	-0.952073	-5.128452E+12	4.673449E-15	NaN
531	1.000000	0.202404	7.37024e+06	-50539.1	1005.82	-29755.3	0.000000	0.000000	6.202776	0.034444	NaN	0.000000	0.001687	0.001735	28.0807	0.065811	0.002004	32.8394	142.192	-166.498	-0.000758	0.201147	-0.944036	-0.945293	0.034444	32.8394	-0.944822	-4.094421E+12	-8.412504E-15	NaN
531	1.000000	0.212417	7.37024e+06	-50539.1	1005.82	-29755.3	0.000000	0.000000	6.212785	-0.058009	NaN	0.000000	0.001598	0.001707	28.0805	0.057462	0.001959	29.33	102.801	15.7677	-0.005559	0.211023	-0.934023	-0.935417	-0.058009	29.33	-0.932540	-2.795589E+12	2.075023E-14	NaN
531	1.000000	0.222463	7.37024e+06	-50539.1	1005.82	-29755.3	0.000000	0.000000	6.222834	0.023669	NaN	0.000000	0.001589	0.001696	28.0806	0.026669	0.002078	12.8363	-146.399	-165.19	0.042961	0.221135	-0.923977	-0.925305	0.023669	12.8363	-0.925360	-2.236494E+12	-1.058314E-14	NaN
531	1.000000	0.232462	7.37024e+06	-50539.1	1005.82	-29755.3	0.000000	0.000000	6.232833	-0.003281	NaN	0.000000	0.001615	0.001686	28.0809	0.048668	0.001949	24.9742	102.046	17.511	-0.069198	0.231066	-0.913978	-0.915374	-0.003281	24.9742	-0.913879	-1.565138E+12	2.096233E-15	NaN
531	1.000000	0.242470	7.37024e+06	-50539.1	1005.82	-29755.3	0.000000	0.000000	6.242840	-0.023334	NaN	0.000000	0.001601	0.001697	28.0808	0.072034	0.001968	36.6029	-136.02	-169.736	0.019615	0.241183	-0.903970	-0.905257	-0.023334	36.6029	-0.903492	-1.133034E+12	2.059451E-14	NaN
531	1.000000	0.252461	7.37024e+06	-50539.1	1005.82	-29755.3	0.000000	0.000000	6.252828	-0.076887	NaN	0.000000	0.001603	0.001692	28.0807	0.038723	0.002033	19.0437	7.444130	13.0087	-0.095952	0.251108	-0.893979	-0.895332	-0.076887	19.0437	-0.890951	-7.669580E+11	1.002490E-13	NaN
531	1.000000	0.262464	7.37024e+06	-50539.1	1005.82	-29755.3	0.000000	0.000000	6.262835	0.015982	NaN	0.000000	0.001614	0.001693	28.0796	0.041399	0.001951	21.2162	-131.429	-165.97	-0.027330	0.261196	-0.883976	-0.885244	0.015982	21.2162	-0.884541	-6.282174E+11	-2.544056E-14	NaN
531	1.000000	0.272476	7.37024e+06	-50539.1	1005.82	-29755.3	0.000000	0.000000	6.272846	-0.008097	NaN	0.000000	0.001607	0.001647	28.0795	0.048148	0.001984	24.2628	69.8238	11.8237	-0.078315	0.271060	-0.873964	-0.875380	-0.008097	24.2628	-0.873714	-4.484193E+11	1.805754E-14	NaN
531	1.000000	0.282455	7.37024e+06	-50539.1	1005.82	-29755.3	0.000000	0.000000	6.282825	-0.012605	NaN	0.000000	0.001565	0.001624	28.0795	0.034707	0.002010	17.2706	68.4606	-163.469	0.007510	0.281179	-0.863984	-0.865260	-0.012605	17.2706	-0.863437	-3.255659E+11	3.871657E-14	NaN
531	1.000000	0.292462	7.37024e+06	-50539.1	1005.82	-29755.3	0.000000	0.000000	6.292831	-0.032360	NaN	0.000000	0.001559	0.001699	28.0797	0.070927	0.002051	34.5806	98.8037	14.3792	0.103624	0.291113	-0.853978	-0.855327	-0.032360	34.5806	-0.853276	-2.371927E+11	1.364280E-13	NaN
531	1.000000	0.302464	7.37024e+06	-50539.1	1005.82	-29755.3	0.000000	0.000000	6.302836	0.029935	NaN	0.000000	0.001593	0.001706	28.0798	0.031786	0.001830	17.3652	-72.18	-165.694	0.103282	0.301133	-0.843975	-0.845307	0.029935	17.3652	-0.845268	-1.847809E+11	-1.620008E-13	NaN
531	1.000000	0.312500	7.37024e+06	-50539.1	1005.82	-29755.3	0.000000	0.000000	6.312869	-0.033553	NaN	0.000000	0.001622	0.001688	28.0795	0.098349	0.002062	47.7031	-90.5136	11.363	0.037600	0.311169	-0.833939	-0.835271	-0.033553	47.7031	-0.833412	-1.276511E+11	2.628493E-13	NaN
531	1.000000	0.322479	7.37024e+06	-50539.1	1005.82	-29755.3	0.000000	0.000000	6.322848	-0.024176	NaN	0.000000	0.001603	0.001609	28.0796	0.083780	0.001996	41.9793	120.177	-166.333	0.025599	0.321206	-0.823961	-0.825234	-0.024176	41.9793	-0.823529	-9.376970E+10	2.578219E-13	NaN
531	1.000000	0.332525	7.37024e+06	-50539.1	1005.82	-29755.3	0.000000	0.000000	6.332896	0.000645	NaN	0.000000	0.001606	0.001662	28.0795	0.071172	0.001907	37.3202	-123.215	14.9634	-0.105540	0.331154	-0.813914	-0.815286	0.000645	37.3202	-0.813927	-6.947840E+10	-9.284041E-15	NaN
531	1.000000	0.342506	7.37024e+06	-50539.1	1005.82	-29755.3	0.000000	0.000000	6.342875	-0.016424	NaN	0.000000	0.001607	0.001645	28.0798	0.030010	0.002021	14.8466	153.936	-169.938	-0.009897	0.341200	-0.803934	-0.805240	-0.016424	14.8466	-0.803104	-4.954511E+10	3.315010E-13	NaN
531	1.000000	0.352548	7.37024e+06	-50539.1	1005.82	-29755.3	0.000000	0.000000	6.352917	-0.036071	NaN	0.000000	0.001623	0.001651	28.0794	0.110956	0.001902	58.3245	81.906	14.1812	0.010072	0.351173	-0.793891	-0.795266	-0.036071	58.3245	-0.793428	-3.661265E+10	9.851995E-13	NaN
531	1.000000	0.362519	7.37024e+06	-50539.1	1005.82	-29755.3	0.000000	0.000000	6.362886	-0.063054	NaN	0.000000	0.001578	0.001649	28.0793	0.042302	0.001886	22.4258	-143.444	-164.499	-0.061601	0.361206	-0.783921	-0.785234	-0.063054	22.4258	-0.781813	-2.546014E+10	2.476561E-12	NaN
531	1.000000	0.372508	7.37024e+06	-50539.1	1005.82	-29755.3	0.000000	0.000000	6.372877	-0.025436	NaN	0.000000	0.001636	0.001667	28.0795	0.026184	0.001975	13.2565	132.373	12.8998	-0.020002	0.371116	-0.773932	-0.775324	-0.025436	13.2565	-0.772493	-1.901933E+10	1.337386E-12	NaN
531	1.000000	0.382526	7.37024e+06	-50539.1	1005.82	-29755.3	0.000000	0.000000	6.382899	0.054754	NaN	0.000000	0.001598	0.001656	28.0794	0.097345	0.001981	49.1443	104.725	-167.377	0.016786	0.381212	-0.763914	-0.765227	0.054754	49.1443	-0.764749	-1.492471E+10	-3.668689E-12	NaN
531	1.000000	0.392529	7.37024e+06	-50539.1	1005.82	-29755.3	0.000000	0.000000	6.392900	0.003767	NaN	0.000000	0.001639	0.001663	28.0794	0.025599	0.001939	13.2003	-59.32	12.5614	0.009132	0.391162	-0.753911	-0.755278	0.003767	13.2003	-0.754125	-1.069941E+10	-3.520642E-13	NaN
531	1.000000	0.402521	7.37024e+06	-50539.1	1005.82	-29755.3	0.000000	0.000000	6.402889	-0.038663	NaN	0.000000	0.001613	0.001680	28.0808	0.032472	0.002067	15.7064	-108.267	-165.731	-0.056409	0.401225	-0.743919	-0.745215	-0.038663	15.7064	-0.742073	-7.333137E+9	5.272388E-12	NaN
531	1.000000	0.412517	7.37024e+06	-50539.1	1005.82	-29755.3	0.000000	0.000000	6.412888	0.010705	NaN	0.000000	0.001617	0.001641	28.0809	0.052389	0.002044	25.6296	-113.587	15.7437	-0.051969	0.411183	-0.733923	-0.735257	0.010705	25.6296	-0.734236	-5.735010E+9	-1.866630E-12	NaN
531	1.000000	0.422535	7.37024e+06	-50539.1	1005.82	-29755.3	0.000000	0.000000	6.422907	0.033925	NaN	0.000000	0.001615	0.001628	28.0807	0.139281	0.001939	71.8211	160.272	-164.757	0.034528	0.421240	-0.723904	-0.725199	0.033925	71.8211	-0.724259	-4.193181E+9	-8.090559E-12	NaN
531	1.000000	0.432563	7.37024e+06	-50539.1	1005.82	-29755.3	0.000000	0.000000	6.432933	-0.008008	NaN	0.000000	0.001625	0.001657	28.0806	0.054345	0.001970	27.5885	170.244	12.9286	0.004617	0.431167	-0.713877	-0.715273	-0.008008	27.5885	-0.713660	-3.005965E+9	2.663884E-12	NaN
531	1.000000	0.442527	7.37025e+06	-50539.1	1005.82	-29755.3	0.000000	0.000000	6.442898	-0.000454	NaN	0.000000	0.001634	0.001653	28.0806	0.045545	0.002009	22.6699	36.0874	-164.268	0.047118	0.441252	-0.703913	-0.705187	-0.000454	22.6699	-0.703898	-2.211833E+9	2.050829E-13	NaN
531	1.000000	0.452558	7.37025e+06	-50539.1	1005.82	-29755.3	0.000000	0.000000	6.452925	-0.085126	NaN	0.000000	0.001598	0.001658	28.0808	0.092889	0.002057	45.1549	82.7462	15.3964	-0.043161	0.451206	-0.693882	-0.695233	-0.085126	45.1549	-0.692468	-1.543996E+9	5.513365E-11	NaN
531	1.000000	0.462537	7.37025e+06	-50539.1	1005.82	-29755.3	0.000000	0.000000	6.462906	-0.037903	NaN	0.000000	0.001635	0.001679	28.0806	0.107945	0.001942	55.5881	-141.497	-166.234	0.015574	0.461181	-0.683903	-0.685259	-0.037903	55.5881	-0.683391	-1.160328E+9	3.266606E-11	NaN
531	1.000000	0.472554	7.37025e+06	-50539.1	1005.82	-29755.3	0.000000	0.000000	6.472927	0.052109	NaN	0.000000	0.001628	0.001657	28.0808	0.029480	0.002007	14.6864	-56.2838	11.0007	-0.010852	0.471191	-0.673885	-0.675249	0.052109	14.6864	-0.676546	-9.353346E+8	-5.571132E-11	NaN
531	1.000000	0.482554	7.37025e+06	-50539.1	1005.82	-29755.3	0.000000	0.000000	6.482926	0.021013	NaN	0.000000	0.001614	0.001651	28.081	0.039878	0.002038	19.5709	-63.8307	-163.742	0.023448	0.481284	-0.663885	-0.665156	0.021013	19.5709	-0.664691	-6.437339E+8	-3.264299E-11	NaN
531	1.000000	0.492541	7.37025e+06	-50539.1	1005.82	-29755.3	0.000000	0.000000	6.492908	-0.069591	NaN	0.000000	0.001605	0.001669	28.081	0.040589	0.002040	19.8926	-19.2657	15.8589	-0.050789	0.491186	-0.653899	-0.655253	-0.069591	19.8926	-0.651275	-4.216150E+8	1.650583E-10	NaN
531	1.000000	0.502562	7.37025e+06	-50539.1	1005.82	-29755.3	0.000000	0.000000	6.502932	-0.001467	NaN	0.000000	0.001612	0.001679	28.0806	0.196057	0.002119	92.5302	-168.299	-164.728	0.032374	0.501339	-0.643878	-0.645101	-0.001467	92.5302	-0.643866	-3.336773E+8	4.396889E-12	NaN
531	1.000000	0.512562	7.37025e+06	-50539.1	1005.82	-29755.3	0.000000	0.000000	6.512930	-0.047617	NaN	0.000000	0.001602	0.001706	28.0807	0.077750	0.001902	40.8817	-99.8784	15.4369	-0.109338	0.511224	-0.633878	-0.635216	-0.047617	40.8817	-0.633005	-2.367439E+8	2.011344E-10	NaN
531	1.000000	0.522560	7.37025e+06	-50539.1	1005.82	-29755.3	0.000000	0.000000	6.522930	-0.024581	NaN	0.000000	0.001620	0.001657	28.0809	0.088917	0.002038	43.6209	-6.693049	-163.652	0.009489	0.521252	-0.623880	-0.625188	-0.024581	43.6209	-0.623457	-1.750423E+8	1.404304E-10	NaN
531	1.000000	0.532567	7.37025e+06	-50539.1	1005.82	-29755.3	0.000000	0.000000	6.532938	0.003456	NaN	0.000000	0.001564	0.001642	28.08	0.076519	0.001910	40.067	72.038	14.4562	0.082890	0.531239	-0.613873	-0.615200	0.003456	40.067	-0.613937	-1.295024E+8	-2.669039E-11	NaN
531	1.000000	0.542575	7.37025e+06	-50539.1	1005.82	-29755.3	0.000000	0.000000	6.542944	-0.042368	NaN	0.000000	0.001606	0.001682	28.081	0.071290	0.001885	37.8198	-125.904	-164.296	-0.025050	0.541301	-0.603865	-0.605138	-0.042368	37.8198	-0.603024	-9.164484E+7	4.623018E-10	NaN
531	1.000000	0.552593	7.37025e+06	-50539.1	1005.82	-29755.3	0.000000	0.000000	6.552959	-0.108195	NaN	0.000000	0.001604	0.001633	28.0801	0.076563	0.001995	38.3797	119.57	11.7199	-0.046787	0.551244	-0.593847	-0.595196	-0.108195	38.3797	-0.591733	-6.405474E+7	1.689100E-9	NaN
531	1.000000	0.562588	7.37025e+06	-50539.1	1005.82	-29755.3	0.000000	0.000000	6.562956	-0.071336	NaN	0.000000	0.001567	0.001628	28.0795	0.104394	0.001993	52.3902	20.1255	-165.926	-0.065180	0.561288	-0.583851	-0.585152	-0.071336	52.3902	-0.582830	-4.828141E+7	1.477498E-9	NaN
531	1.000000	0.572616	7.37025e+06	-50539.1	1005.82	-29755.3	0.000000	0.000000	6.572988	0.047785	NaN	0.000000	0.001581	0.001661	28.0792	0.050855	0.001922	26.4553	-150.291	17.6744	-0.002747	0.571240	-0.573824	-0.575200	0.047785	26.4553	-0.575179	-3.785866E+7	-1.262207E-9	NaN
531	1.000000	0.582604	7.37025e+06	-50539.1	1005.82	-29755.3	0.000000	0.000000	6.582973	-0.031247	NaN	0.000000	0.001589	0.001660	28.0793	0.025777	0.001984	12.9937	76.6267	-166.531	-0.042167	0.581325	-0.563836	-0.565115	-0.031247	12.9937	-0.562032	-2.491662E+7	1.254057E-9	NaN
531	1.000000	0.592628	7.37025e+06	-50539.1	1005.82	-29755.3	0.000000	0.000000	6.592996	-0.062756	NaN	0.000000	0.001554	0.001675	28.0794	0.039014	0.001902	20.5103	112.022	14.0605	-0.128954	0.591302	-0.553812	-0.555138	-0.062756	20.5103	-0.551517	-1.782256E+7	3.521159E-9	NaN
531	1.000000	0.602609	7.37025e+06	-50539.1	1005.82	-29755.3	0.000000	0.000000	6.602977	-0.075977	NaN	0.000000	0.001599	0.001674	28.0794	0.034496	0.002073	16.6398	2.825504	-169.841	-0.116652	0.601325	-0.543830	-0.545114	-0.075977	16.6398	-0.540406	-1.250223E+7	6.077103E-9	NaN
531	1.000000	0.612597	7.37025e+06	-50539.1	1005.82	-29755.3	0.000000	0.000000	6.612966	-0.041307	NaN	0.000000	0.001571	0.001666	28.0794	0.037320	0.002041	18.2831	-25.7301	10.7701	-0.051740	0.611278	-0.533843	-0.535161	-0.041307	18.2831	-0.532148	-9.60299e+06	4.301461E-9	NaN
531	1.000000	0.622628	7.37025e+06	-50539.1	1005.82	-29755.3	0.000000	0.000000	6.622995	-0.071490	NaN	0.000000	0.001590	0.001677	28.0795	0.018597	0.002103	8.841908	54.2364	-164.652	-0.102053	0.621337	-0.523812	-0.525103	-0.071490	8.841908	-0.517748	-6.05723e+06	1.180247E-8	NaN
531	1.000000	0.632622	7.37025e+06	-50539.1	1005.82	-29755.3	0.000000	0.000000	6.632993	0.013993	NaN	0.000000	0.001560	0.001668	28.0796	0.052917	0.001936	27.3327	-174.933	12.3237	0.011148	0.631258	-0.513817	-0.515181	0.013993	27.3327	-0.514201	-5.40649e+06	-2.588140E-9	NaN
531	1.000000	0.642615	7.37025e+06	-50539.1	1005.82	-29755.3	0.000000	0.000000	6.642983	-0.055612	NaN	0.000000	0.001575	0.001667	28.0794	0.031636	0.001866	16.9498	-50.3293	-165.272	0.000811	0.641265	-0.503825	-0.505174	-0.055612	16.9498	-0.501364	-3.58134e+06	1.552826E-8	NaN
531	1.000000	0.652646	7.37025e+06	-50539.1	1005.82	-29755.3	0.000000	0.000000	6.653015	-0.038849	NaN	0.000000	0.001576	0.001682	28.0794	0.022049	0.002120	10.4004	-96.0499	11.4274	-0.088830	0.651218	-0.493793	-0.495222	-0.038849	10.4004	-0.490992	-2.56598e+06	1.513985E-8	NaN
531	1.000000	0.662628	7.37025e+06	-50539.1	1005.82	-29755.3	0.000000	0.000000	6.662999	-0.001915	NaN	0.000000	0.001527	0.001690	28.0797	0.080620	0.001891	42.6234	-121.256	-166.16	0.016450	0.661309	-0.483811	-0.485131	-0.001915	42.6234	-0.483778	-2.03421e+06	9.415917E-10	NaN
531	1.000000	0.672629	7.37025e+06	-50539.1	1005.82	-29755.3	0.000000	0.000000	6.672998	-0.019857	NaN	0.000000	0.001612	0.001645	28.081	0.018332	0.002143	8.553327	-78.7237	17.1652	-0.004258	0.671239	-0.473811	-0.475201	-0.019857	8.553327	-0.472070	-1.39455e+06	1.423881E-8	NaN
531	1.000000	0.682648	7.37025e+06	-50539.1	1005.82	-29755.3	0.000000	0.000000	6.683018	-0.013258	NaN	0.000000	0.001553	0.001629	28.0808	0.096483	0.002090	46.1609	1.268484	-167.654	-0.042894	0.681406	-0.463791	-0.465034	-0.013258	46.1609	-0.463576	-1.05987e+06	1.250923E-8	NaN
531	1.000000	0.692638	7.37025e+06	-50539.1	1005.82	-29755.3	0.000000	0.000000	6.693007	-0.039625	NaN	0.000000	0.001576	0.001693	28.0811	0.075862	0.001961	38.6866	-103.932	12.6237	-0.038038	0.691266	-0.453801	-0.455174	-0.039625	38.6866	-0.453033	-753429	5.259222E-8	NaN
531	1.000000	0.702659	7.37025e+06	-50539.1	1005.82	-29755.3	0.000000	0.000000	6.703027	-0.050973	NaN	0.000000	0.001543	0.001648	28.0809	0.130150	0.002025	64.277	167.237	-164.087	-0.064470	0.701377	-0.443781	-0.445062	-0.050973	64.277	-0.443186	-547415	9.311635E-8	NaN
531	1.000000	0.712622	7.37025e+06	-50539.1	1005.82	-29755.3	0.000000	0.000000	6.712995	0.063087	NaN	0.000000	0.001589	0.001683	28.0807	0.054606	0.001989	27.4501	60.0791	16.0432	0.089753	0.711277	-0.433817	-0.435163	0.063087	27.4501	-0.435541	-426971	-1.477546E-7	NaN
531	1.000000	0.722674	7.37025e+06	-50539.1	1005.82	-29755.3	0.000000	0.000000	6.723043	-0.042703	NaN	0.000000	0.001562	0.001708	28.0811	0.075328	0.001987	37.9066	24.5546	-166.978	-0.064391	0.721359	-0.423766	-0.425081	-0.042703	37.9066	-0.422921	-283026	1.508793E-7	NaN
531	1.000000	0.732669	7.37025e+06	-50539.1	1005.82	-29755.3	0.000000	0.000000	6.733040	0.008382	NaN	0.000000	0.001555	0.001697	28.0808	0.089475	0.001932	46.3101	-14.9143	10.8787	-0.011815	0.731266	-0.413771	-0.415174	0.008382	46.3101	-0.413906	-210825	-3.975761E-8	NaN
531	1.000000	0.742685	7.37025e+06	-50539.1	1005.82	-29755.3	0.000000	0.000000	6.743058	0.076732	NaN	0.000000	0.001584	0.001665	28.0815	0.067585	0.002049	32.9796	-166.151	-170.176	0.059233	0.741319	-0.403755	-0.405120	0.076732	32.9796	-0.405500	-160092	-4.792993E-7	NaN
531	1.000000	0.752691	7.37025e+06	-50539.1	1005.82	-29755.3	0.000000	0.000000	6.753061	-0.019430	NaN	0.000000	0.001583	0.001675	28.0808	0.089417	0.001946	45.9534	-153.753	11.7499	0.058943	0.751329	-0.393748	-0.395110	-0.019430	45.9534	-0.393431	-107702	1.804043E-7	NaN
531	1.000000	0.762641	7.37025e+06	-50539.1	1005.82	-29755.3	0.000000	0.000000	6.763014	0.067739	NaN	0.000000	0.001543	0.001646	28.0811	0.039856	0.001906	20.908	4.639104	-167.729	0.023311	0.761374	-0.383799	-0.385066	0.067739	20.908	-0.386229	-84955.1	-7.973483E-7	NaN
531	1.000000	0.772656	7.37025e+06	-50539.1	1005.82	-29755.3	0.000000	0.000000	6.773028	0.059832	NaN	0.000000	0.001508	0.001659	28.0807	0.023277	0.001958	11.8896	104.911	14.5621	0.064564	0.771286	-0.373784	-0.375153	0.059832	11.8896	-0.377559	-63802.3	-9.377799E-7	NaN
531	1.000000	0.782665	7.37025e+06	-50539.1	1005.82	-29755.3	0.000000	0.000000	6.783038	0.059130	NaN	0.000000	0.001536	0.001641	28.081	0.075685	0.002021	37.452	118.467	-167.96	0.009582	0.781386	-0.363774	-0.365054	0.059130	37.452	-0.364959	-42020	-1.407179E-6	NaN
531	1.000000	0.792693	7.37025e+06	-50539.1	1005.82	-29755.3	0.000000	0.000000	6.793061	-0.039428	NaN	0.000000	0.001567	0.001641	28.0807	0.090620	0.001904	47.5932	120.808	12.6078	-0.018279	0.791381	-0.353747	-0.355059	-0.039428	47.5932	-0.353126	-28336.1	1.391458E-6	NaN
531	1.000000	0.802690	7.37025e+06	-50539.1	1005.82	-29755.3	0.000000	0.000000	6.803061	0.024610	NaN	0.000000	0.001566	0.001664	28.0808	0.041788	0.002012	20.7717	-81.3307	-166.303	-0.003132	0.801428	-0.343750	-0.345012	0.024610	20.7717	-0.344639	-21335.4	-1.153491E-6	NaN
531	1.000000	0.812699	7.37025e+06	-50539.1	1005.82	-29755.3	0.000000	0.000000	6.813072	0.048071	NaN	0.000000	0.001567	0.001676	28.0795	0.075665	0.002180	34.715	-89.5164	12.2962	-0.021190	0.811353	-0.333741	-0.335086	0.048071	34.715	-0.334779	-15323.6	-3.137085E-6	NaN
531	1.000000	0.822667	7.37025e+06	-50539.1	1005.82	-29755.3	0.000000	0.000000	6.823038	0.008529	NaN	0.000000	0.001557	0.001654	28.0796	0.147447	0.001954	75.4613	119.164	-166.168	0.015689	0.821372	-0.323773	-0.325067	0.008529	75.4613	-0.323858	-10601.3	-8.045209E-7	NaN
531	1.000000	0.832680	7.37025e+06	-50539.1	1005.82	-29755.3	0.000000	0.000000	6.833049	-0.034705	NaN	0.000000	0.001556	0.001681	28.0792	0.106138	0.002013	52.7318	-56.3922	19.213	-0.017388	0.831340	-0.313760	-0.315100	-0.034705	52.7318	-0.313266	-7402.01	4.688649E-6	NaN
531	1.000000	0.842712	7.37025e+06	-50539.1	1005.82	-29755.3	0.000000	0.000000	6.843084	0.040966	NaN	0.000000	0.001580	0.001648	28.0795	0.118918	0.001957	60.7684	157.962	-167.23	0.117466	0.841404	-0.303728	-0.305036	0.040966	60.7684	-0.304233	-5439.68	-7.530971E-6	NaN
531	1.000000	0.852716	7.37025e+06	-50539.1	1005.82	-29755.3	0.000000	0.000000	6.853088	0.030500	NaN	0.000000	0.001626	0.001660	28.0797	0.094932	0.001927	49.2553	-105.202	13.5264	0.071786	0.851345	-0.293724	-0.295095	0.030500	49.2553	-0.294188	-3854.44	-7.912862E-6	NaN
531	1.000000	0.862728	7.37025e+06	-50539.1	1005.82	-29755.3	0.000000	0.000000	6.863101	0.058831	NaN	0.000000	0.001646	0.001677	28.0796	0.070909	0.001952	36.3296	144.441	-166.233	0.049904	0.861382	-0.283712	-0.285058	0.058831	36.3296	-0.284926	-2800.02	-2.101083E-5	NaN
531	1.000000	0.872725	7.37025e+06	-50539.1	1005.82	-29755.3	0.000000	0.000000	6.873096	0.016782	NaN	0.000000	0.001595	0.001736	28.0793	0.087791	0.002094	41.9246	7.303627	14.5878	-0.026151	0.871380	-0.273715	-0.275059	0.016782	41.9246	-0.274015	-1916.38	-8.757275E-6	NaN
531	1.000000	0.882737	7.37025e+06	-50539.1	1005.82	-29755.3	0.000000	0.000000	6.883107	-0.015442	NaN	0.000000	0.001641	0.001736	28.0796	0.067361	0.002004	33.6109	59.4674	-165.143	-0.026060	0.881466	-0.263703	-0.264974	-0.015442	33.6109	-0.263358	-1319.22	1.170542E-5	NaN
531	1.000000	0.892712	7.37025e+06	-50539.1	1005.82	-29755.3	0.000000	0.000000	6.893083	0.011100	NaN	0.000000	0.001613	0.001705	28.08	0.126297	0.001959	64.4701	-142.835	13.2502	0.039203	0.891399	-0.253728	-0.255041	0.011100	64.4701	-0.253857	-943.005	-1.177082E-5	NaN
531	1.000000	0.902721	7.37025e+06	-50539.1	1005.82	-29755.3	0.000000	0.000000	6.903092	0.011324	NaN	0.000000	0.001626	0.001696	28.0795	0.043344	0.001981	21.8839	57.2836	-167.913	-0.058075	0.901424	-0.243719	-0.245016	0.011324	21.8839	-0.244107	-666.143	-1.699980E-5	NaN
531	1.000000	0.912715	7.37025e+06	-50539.1	1005.82	-29755.3	0.000000	0.000000	6.913084	-0.016521	NaN	0.000000	0.001606	0.001714	28.0795	0.071926	0.002055	34.997	-137.239	14.2123	0.004879	0.911412	-0.233725	-0.235027	-0.016521	34.997	-0.233371	-452.532	3.650747E-5	NaN
531	1.000000	0.922750	7.37025e+06	-50539.1	1005.82	-29755.3	0.000000	0.000000	6.923120	-0.002215	NaN	0.000000	0.001597	0.001707	28.0796	0.009606	0.001919	5.006503	93.3042	-167.95	-0.078559	0.921452	-0.223690	-0.224988	-0.002215	5.006503	-0.223358	-314.215	7.047874E-6	NaN
531	1.000000	0.932757	7.37025e+06	-50539.1	1005.82	-29755.3	0.000000	0.000000	6.933129	0.054387	NaN	0.000000	0.001571	0.001735	28.0794	0.088773	0.001922	46.1789	172.535	15.9357	0.009634	0.931389	-0.213683	-0.215051	0.054387	46.1789	-0.214567	-227.269	-0.000239	NaN
531	1.000000	0.942773	7.37025e+06	-50539.1	1005.82	-29755.3	0.000000	0.000000	6.943143	0.001365	NaN	0.000000	0.001600	0.001746	28.0806	0.074403	0.002037	36.5338	-50.043	-165.223	-0.028546	0.941504	-0.203667	-0.204936	0.001365	36.5338	-0.203695	-151.444	-9.016207E-6	NaN
531	1.000000	0.952741	7.37025e+06	-50539.1	1005.82	-29755.3	0.000000	0.000000	6.953109	-0.055642	NaN	0.000000	0.001638	0.001723	28.0807	0.009125	0.002101	4.342866	82.9596	17.8266	-0.026319	0.951350	-0.193699	-0.195090	-0.055642	4.342866	-0.184090	-71.5783	0.000777	NaN
531	1.000000	0.962747	7.37025e+06	-50539.1	1005.82	-29755.3	0.000000	0.000000	6.963118	0.000455	NaN	0.000000	0.001638	0.001730	28.0809	0.051636	0.002115	24.4104	124.804	-168.216	0.008194	0.961440	-0.183692	-0.185000	0.000455	24.4104	-0.183706	-70.5187	-6.448184E-6	NaN
531	1.000000	0.972766	7.37025e+06	-50539.1	1005.82	-29755.3	0.000000	0.000000	6.973140	0.074374	NaN	0.000000	0.001615	0.001719	28.0809	0.179716	0.002031	88.4679	-63.9853	12.2185	0.078197	0.971450	-0.173674	-0.174990	0.074374	88.4679	-0.174304	-48.7544	-0.001525	NaN
531	1.000000	0.982760	7.37025e+06	-50539.1	1005.82	-29755.3	0.000000	0.000000	6.983133	0.062730	NaN	0.000000	0.001663	0.001808	28.0807	0.012351	0.002022	6.107027	-93.2185	-167.481	-0.048602	0.981455	-0.163680	-0.164985	0.062730	6.107027	-0.171384	-43.4117	-0.001445	NaN
531	1.000000	0.992770	7.37025e+06	-50539.1	1005.82	-29755.3	0.000000	0.000000	6.993139	-0.024138	NaN	0.000000	0.001593	0.001803	28.0809	0.069997	0.002082	33.6162	170.157	13.5622	0.056403	0.991442	-0.153670	-0.154998	-0.024138	33.6162	-0.153131	-20.6476	0.001169	NaN
531	1.000000	1.002756	7.37025e+06	-50539.1	1005.82	-29755.3	0.000000	0.000000	7.003125	-0.016690	NaN	0.000000	0.001602	0.001794	28.0807	0.036478	0.002094	17.4217	-173.154	-165.306	0.053162	1.001549	-0.143684	-0.144890	-0.016690	17.4217	-0.142966	-13.4406	0.001242	NaN
531	1.000000	1.012765	7.37025e+06	-50539.1	1005.82	-29755.3	0.000000	0.000000	7.013136	0.009935	NaN	0.000000	0.001608	0.001764	28.0811	0.118085	0.001997	59.1164	-166.505	13.4833	0.022351	1.011409	-0.133675	-0.135031	0.009935	59.1164	-0.133801	-9.022894	-0.001101	NaN
531	1.000000	1.022770	7.37025e+06	-50539.1	1005.82	-29755.3	0.000000	0.000000	7.023139	-0.032048	NaN	0.000000	0.001642	0.001764	28.0808	0.084746	0.001831	46.293	171.946	-165.378	-0.018563	1.021469	-0.123670	-0.124971	-0.032048	46.293	-0.123150	-5.588119	0.005735	NaN
531	1.000000	1.032764	7.37025e+06	-50539.1	1005.82	-29755.3	0.000000	0.000000	7.033137	0.060534	NaN	0.000000	0.001617	0.001747	28.0811	0.110528	0.001987	55.6125	-31.6328	13.8888	0.093636	1.031449	-0.113676	-0.114991	0.060534	55.6125	-0.114493	-3.729355	-0.016232	NaN
531	1.000000	1.042769	7.37025e+06	-50539.1	1005.82	-29755.3	0.000000	0.000000	7.043138	-0.043867	NaN	0.000000	0.001667	0.001774	28.0806	0.104663	0.001902	55.0376	-39.907	-164.229	-0.053758	1.041497	-0.103671	-0.104942	-0.043867	55.0376	-0.103073	-2.134723	0.020549	NaN
531	1.000000	1.052798	7.37025e+06	-50539.1	1005.82	-29755.3	0.000000	0.000000	7.053169	0.034830	NaN	0.000000	0.001621	0.001800	28.0808	0.048533	0.001998	24.2956	-78.8369	13.3242	0.036734	1.051458	-0.093642	-0.094981	0.034830	24.2956	-0.094717	-1.389862	-0.025060	NaN
531	1.000000	1.062799	7.37025e+06	-50539.1	1005.82	-29755.3	0.000000	0.000000	7.063169	-0.007792	NaN	0.000000	0.001654	0.001794	28.0805	0.067688	0.001897	35.6812	-98.9683	-165.183	-0.095311	1.061505	-0.083641	-0.084935	-0.007792	35.6812	-0.083477	-0.754463	0.010328	NaN
531	1.000000	1.072806	7.37025e+06	-50539.1	1005.82	-29755.3	0.000000	0.000000	7.073177	0.012773	NaN	0.000000	0.001670	0.001797	28.0809	0.049089	0.001992	24.6417	179.233	13.125	-0.000830	1.071444	-0.073634	-0.074996	0.012773	24.6417	-0.074023	-0.435663	-0.029318	NaN
531	1.000000	1.082805	7.37025e+06	-50539.1	1005.82	-29755.3	0.000000	0.000000	7.083173	-0.047730	NaN	0.000000	0.001712	0.001765	28.0792	0.019449	0.001990	9.775355	123.234	-165.967	-0.041062	1.081463	-0.063635	-0.064977	-0.047730	9.775355	-0.059973	-0.179775	0.265501	NaN
531	1.000000	1.092825	7.37025e+06	-50539.1	1005.82	-29755.3	0.000000	0.000000	7.093195	-0.007317	NaN	0.000000	0.001661	0.001787	28.0797	0.099915	0.002091	47.7848	-2.513677	17.0362	-0.090647	1.091479	-0.053614	-0.054961	-0.007317	47.7848	-0.053500	-0.116230	0.062951	NaN
531	1.000000	1.102795	7.37025e+06	-50539.1	1005.82	-29755.3	0.000000	0.000000	7.103164	-0.017494	NaN	0.000000	0.001612	0.001788	28.0793	0.024830	0.002138	11.6114	-128.799	-162.803	-0.004592	1.101496	-0.043645	-0.044944	-0.017494	11.6114	-0.042515	-0.053952	0.324244	NaN
531	1.000000	1.112812	7.37025e+06	-50539.1	1005.82	-29755.3	0.000000	0.000000	7.113181	-0.042740	NaN	0.000000	0.001657	0.001782	28.0794	0.076546	0.001922	39.8282	156.009	8.749018	-0.048880	1.111469	-0.033628	-0.034971	-0.042740	39.8282	-0.032823	-0.027671	1.544566	NaN
531	1.000000	1.122817	7.37025e+06	-50539.1	1005.82	-29755.3	0.000000	0.000000	7.123184	-0.082549	NaN	0.000000	0.001680	0.001798	28.0792	0.033518	0.001989	16.855	98.4179	-162.102	-0.063335	1.121540	-0.023623	-0.024900	-0.082549	16.855	-0.019950	-0.012524	6.591377	NaN
531	1.000000	1.132820	7.37025e+06	-50539.1	1005.82	-29755.3	0.000000	0.000000	7.133188	-0.047272	NaN	0.000000	0.001606	0.001797	28.0793	0.026191	0.001841	14.2272	67.1948	13.7865	-0.066973	1.131451	-0.013620	-0.014989	-0.047272	14.2272	-0.011128	-0.007031	6.723230	NaN
531	1.000000	1.142838	7.37025e+06	-50539.1	1005.82	-29755.3	0.000000	0.000000	7.143219	0.246336	NaN	0.000000	0.001558	0.001797	28.0794	0.516425	0.001883	274.223	13.1744	-165.251	-0.073087	1.141466	-0.003602	-0.004974	0.246336	274.223	-0.004276	-0.002957	-83.3192	NaN
531	2.000000	1.151912	7.37025e+06	-50539.1	1005.82	-29755.3	0.000000	0.000000	7.152607	7.909280	NaN	0.000000	0.001596	0.001734	28.0793	8.176318	0.001613	5068.15	15.0524	4.546986	8.160345	1.151305	0.005472	0.004865	7.909280	5068.15	0.004301	0.003505	2256.68	78214.8
531	2.000000	1.154490	7.37025e+06	-50539.1	1005.82	-29755.3	0.000000	0.000000	7.155264	9.825095	NaN	0.000000	0.001598	0.001783	28.0794	11.4709	0.001760	6516.84	6.875100	-173.104	9.764975	1.154172	0.008050	0.007732	9.825095	6516.84	0.006919	0.005954	1650.19	77162.8
531	2.000000	1.156963	7.37025e+06	-50539.1	1005.82	-29755.3	0.000000	0.000000	7.157873	13.114	NaN	0.000000	0.001619	0.001786	28.0793	13.8494	0.001818	7619.04	11.0549	3.599522	12.8666	1.156602	0.010523	0.010162	13.114	7619.04	0.009232	0.008341	1572.3	76220.9
531	2.000000	1.159412	7.37025e+06	-50539.1	1005.82	-29755.3	0.000000	0.000000	7.160442	16.0365	NaN	0.000000	0.001541	0.001800	28.0799	16.174	0.001751	9234.46	8.194156	-174.377	16.0809	1.159091	0.012972	0.012651	16.0365	9234.46	0.011670	0.011097	1445.17	80092.1
531	2.000000	1.161867	7.37025e+06	-50539.1	1005.82	-29755.3	0.000000	0.000000	7.163121	21.4744	NaN	0.000000	0.001641	0.001802	28.0793	19.223	0.001743	11026.9	4.014712	4.726202	19.315	1.161479	0.015427	0.015040	21.4744	11026.9	0.013967	0.013932	1541.37	85352.9
531	2.000000	1.164433	7.37025e+06	-50539.1	1005.82	-29755.3	0.000000	0.000000	7.165776	23.6338	NaN	0.000000	0.001601	0.001748	28.0792	21.8473	0.001869	11686.4	6.244262	-175.842	24.7208	1.164153	0.017993	0.017713	23.6338	11686.4	0.016477	0.017305	1365.7	81164.4
531	2.000000	1.166938	7.37025e+06	-50539.1	1005.82	-29755.3	0.000000	0.000000	7.168507	29.1563	NaN	0.000000	0.001624	0.001789	28.0794	23.5004	0.001708	13763	3.288604	4.946094	29.2186	1.166617	0.020498	0.020177	29.1563	13763	0.018909	0.020857	1397.9	87067.7
531	2.000000	1.169398	7.37025e+06	-50539.1	1005.82	-29755.3	0.000000	0.000000	7.171299	37.2145	NaN	0.000000	0.001589	0.001804	28.0807	26.519	0.001710	15507.4	8.924898	177.098	37.7057	1.169019	0.022959	0.022579	37.2145	15507.4	0.021159	0.024396	1525.43	90709.2
531	2.000000	1.171910	7.37025e+06	-50539.1	1005.82	-29755.3	0.000000	0.000000	7.174021	42.3324	NaN	0.000000	0.001586	0.001811	28.0808	29.9683	0.001857	16141.8	10.0515	-4.408611	41.8574	1.171543	0.025470	0.025103	42.3324	16141.8	0.023503	0.028348	1493.3	87591.8
531	2.000000	1.174341	7.37025e+06	-50539.1	1005.82	-29755.3	0.000000	0.000000	7.176741	49.3631	NaN	0.000000	0.001552	0.001818	28.0806	31.0974	0.001749	17781.2	3.575381	-178.736	47.6226	1.174130	0.027901	0.027690	49.3631	17781.2	0.025819	0.032522	1517.84	90083.8
531	2.000000	1.176886	7.37025e+06	-50539.1	1005.82	-29755.3	0.000000	0.000000	7.179695	59.2984	NaN	0.000000	0.001618	0.001811	28.0812	33.4242	0.001775	18832.6	6.276526	-1.464976	58.3979	1.176478	0.030446	0.030038	59.2984	18832.6	0.028084	0.036867	1608.45	89612.1
531	2.000000	1.179330	7.37025e+06	-50539.1	1005.82	-29755.3	0.000000	0.000000	7.182264	62.3269	NaN	0.000000	0.001600	0.001781	28.0809	35.962	0.001979	18169.7	8.663194	176.695	60.9863	1.179044	0.032891	0.032604	62.3269	18169.7	0.030318	0.041405	1505.29	81581.8
531	2.000000	1.181853	7.37025e+06	-50539.1	1005.82	-29755.3	0.000000	0.000000	7.185217	72.8037	NaN	0.000000	0.001592	0.001801	28.0808	38.0616	0.001843	20653.3	6.979337	-3.472647	72.1581	1.181465	0.035413	0.035025	72.8037	20653.3	0.032769	0.046679	1559.68	87338
531	2.000000	1.184367	7.37025e+06	-50539.1	1005.82	-29755.3	0.000000	0.000000	7.187944	77.9725	NaN	0.000000	0.001580	0.001780	28.0806	40.098	0.001634	24541.3	3.942491	177.973	79.8189	1.184083	0.037927	0.037643	77.9725	24541.3	0.035544	0.053021	1470.6	97374.7
531	2.000000	1.186841	7.37025e+06	-50539.1	1005.82	-29755.3	0.000000	0.000000	7.191004	92.2254	NaN	0.000000	0.001591	0.001780	28.0818	41.2905	0.001636	25235.8	3.703058	-0.976919	90.7516	1.186459	0.040401	0.040020	92.2254	25235.8	0.037660	0.058121	1586.77	95636.2
531	2.000000	1.189322	7.37025e+06	-50539.1	1005.82	-29755.3	0.000000	0.000000	7.193621	95.5181	NaN	0.000000	0.001627	0.001773	28.0809	44.3645	0.001752	25324.7	3.811859	177.621	94.2873	1.189050	0.042883	0.042610	95.5181	25324.7	0.040054	0.064167	1488.58	91339.8
531	2.000000	1.191793	7.37025e+06	-50539.1	1005.82	-29755.3	0.000000	0.000000	7.196832	113.541	NaN	0.000000	0.001637	0.001783	28.0803	46.6093	0.001667	27963.2	-1.228779	1.792903	110.635	1.191531	0.045353	0.045091	113.541	27963.2	0.042308	0.070128	1619.05	96474.9
531	2.000000	1.194300	7.37025e+06	-50539.1	1005.82	-29755.3	0.000000	0.000000	7.199570	119.156	NaN	0.000000	0.001635	0.001787	28.0807	50.9974	0.001794	28432.9	1.924361	179.009	117.759	1.194048	0.047860	0.047609	119.156	28432.9	0.044717	0.076787	1551.78	93745.9
531	2.000000	1.196877	7.37025e+06	-50539.1	1005.82	-29755.3	0.000000	0.000000	7.202686	132.248	NaN	0.000000	0.001629	0.001757	28.0812	53.3795	0.001737	30736	8.183771	-7.186578	132.071	1.196343	0.050437	0.049904	132.248	30736	0.047210	0.083985	1574.66	96899
531	2.000000	1.199333	7.37025e+06	-50539.1	1005.82	-29755.3	0.000000	0.000000	7.205514	141.312	NaN	0.000000	0.001627	0.001770	28.0807	56.2466	0.001865	30153.9	7.780059	172.574	140.202	1.199001	0.052893	0.052561	141.312	30153.9	0.049378	0.090501	1561.44	91577.6
531	2.000000	1.201726	7.37025e+06	-50539.1	1005.82	-29755.3	0.000000	0.000000	7.208457	154.689	NaN	0.000000	0.001598	0.001775	28.0795	57.6773	0.001750	32966.6	4.820636	-5.522735	148.163	1.201407	0.055286	0.054967	154.689	32966.6	0.051767	0.097952	1579.24	96236.9
531	2.000000	1.204285	7.37025e+06	-50539.1	1005.82	-29755.3	0.000000	0.000000	7.211729	172.024	NaN	0.000000	0.001632	0.001767	28.0794	60.0436	0.001704	35228.9	4.271298	175.431	169.481	1.203980	0.057845	0.057540	172.024	35228.9	0.054183	0.105778	1626.27	98963.4
531	2.000000	1.206917	7.37025e+06	-50539.1	1005.82	-29755.3	0.000000	0.000000	7.214650	179.021	NaN	0.000000	0.001600	0.001766	28.0795	63.9548	0.001881	33993.5	8.466659	-8.014129	181.482	1.206433	0.060478	0.059993	179.021	33993.5	0.056528	0.113653	1575.15	92125.2
531	2.000000	1.209297	7.37025e+06	-50539.1	1005.82	-29755.3	0.000000	0.000000	7.217722	195.865	NaN	0.000000	0.001634	0.001740	28.0796	65.1296	0.001784	36502.2	5.661817	172.879	193.048	1.209041	0.062857	0.062601	195.865	36502.2	0.058833	0.121657	1609.98	95614.5
531	2.000000	1.211788	7.37025e+06	-50539.1	1005.82	-29755.3	0.000000	0.000000	7.220863	211.67	NaN	0.000000	0.001641	0.001739	28.0795	67.1853	0.001770	37956.2	3.367011	-4.497702	208.593	1.211441	0.065349	0.065001	211.67	37956.2	0.061166	0.130023	1627.94	96171.3
531	2.000000	1.214373	7.37025e+06	-50539.1	1005.82	-29755.3	0.000000	0.000000	7.223965	224.262	NaN	0.000000	0.001635	0.001768	28.0796	69.526	0.001848	37616.2	1.035132	177.644	226.434	1.214037	0.067933	0.067597	224.262	37616.2	0.063461	0.138512	1619.08	92343
531	2.000000	1.216795	7.37025e+06	-50539.1	1005.82	-29755.3	0.000000	0.000000	7.227125	242.211	NaN	0.000000	0.001719	0.001737	28.0795	70.9468	0.001844	38474	2.196977	-2.856928	238.751	1.216442	0.070355	0.070002	242.211	38474	0.065633	0.146779	1650.17	91750.5
531	2.000000	1.219293	7.37025e+06	-50539.1	1005.82	-29755.3	0.000000	0.000000	7.230381	260.648	NaN	0.000000	0.001724	0.001750	28.0795	73.2766	0.001819	40287.9	4.833773	173.524	260.703	1.219065	0.072853	0.072626	260.648	40287.9	0.068001	0.156050	1670.28	93178.5
531	2.000000	1.221734	7.37025e+06	-50539.1	1005.82	-29755.3	0.000000	0.000000	7.233502	277.189	NaN	0.000000	0.001675	0.001777	28.0795	77.0539	0.001806	42675.8	5.119109	-7.541627	271.653	1.221392	0.075294	0.074953	277.189	42675.8	0.070422	0.165810	1671.72	95752.4
531	2.000000	1.224380	7.37025e+06	-50539.1	1005.82	-29755.3	0.000000	0.000000	7.237042	298.915	NaN	0.000000	0.001645	0.001826	28.0797	78.561	0.001758	44684.2	-0.005791	177.823	300.147	1.223967	0.077940	0.077527	298.915	44684.2	0.072923	0.176182	1696.63	97262.7
531	2.000000	1.226808	7.37025e+06	-50539.1	1005.82	-29755.3	0.000000	0.000000	7.240337	320	NaN	0.000000	0.001647	0.001802	28.0795	81.7474	0.001722	47475.5	5.833307	-8.929869	317.113	1.226463	0.080368	0.080023	320	47475.5	0.075313	0.186369	1717.03	100475
531	2.000000	1.229188	7.37025e+06	-50539.1	1005.82	-29755.3	0.000000	0.000000	7.243602	341.512	NaN	0.000000	0.001614	0.001777	28.0795	84.0304	0.001866	45030.8	4.600849	173.234	335.983	1.228892	0.082748	0.082453	341.512	45030.8	0.077061	0.193989	1760.47	93410.1
531	2.000000	1.231830	7.37025e+06	-50539.1	1005.82	-29755.3	0.000000	0.000000	7.247044	360.97	NaN	0.000000	0.001606	0.001776	28.0806	86.7151	0.001788	48496.8	3.258453	-5.945821	359.164	1.231467	0.085390	0.085028	360.97	48496.8	0.079808	0.206258	1750.09	97561.9
531	2.000000	1.234283	7.37025e+06	-50539.1	1005.82	-29755.3	0.000000	0.000000	7.250603	387.87	NaN	0.000000	0.001615	0.001794	28.0797	89.9077	0.001900	47329.6	1.811594	175.754	387.516	1.233986	0.087843	0.087546	387.87	47329.6	0.081697	0.214895	1804.93	93280.9
531	2.000000	1.236792	7.37025e+06	-50539.1	1005.82	-29755.3	0.000000	0.000000	7.253906	407.175	NaN	0.000000	0.001598	0.001796	28.0808	92.1222	0.001871	49246.6	6.469401	-8.899512	404.058	1.236342	0.090353	0.089902	407.175	49246.6	0.084151	0.226370	1798.71	94567
531	2.000000	1.239205	7.37025e+06	-50539.1	1005.82	-29755.3	0.000000	0.000000	7.257374	432.834	NaN	0.000000	0.001586	0.001780	28.0807	92.4095	0.001732	53344.6	1.689476	174.815	427.182	1.238980	0.092765	0.092540	432.834	53344.6	0.086680	0.238479	1814.97	99801.9
531	2.000000	1.241678	7.37025e+06	-50539.1	1005.82	-29755.3	0.000000	0.000000	7.260799	455.972	NaN	0.000000	0.001599	0.001769	28.0808	96.8974	0.001721	56293.2	4.604303	-8.755767	448.381	1.241487	0.095238	0.095047	455.972	56293.2	0.089163	0.250660	1819.08	102727
531	2.000000	1.244215	7.37025e+06	-50539.1	1005.82	-29755.3	0.000000	0.000000	7.264353	480.702	NaN	0.000000	0.001650	0.001767	28.0808	100.29	0.001713	58541.9	8.374835	167.823	476.257	1.243794	0.097776	0.097354	480.702	58541.9	0.091617	0.262976	1827.93	104299
531	2.000000	1.246736	7.37025e+06	-50539.1	1005.82	-29755.3	0.000000	0.000000	7.268114	510.863	NaN	0.000000	0.001639	0.001754	28.0806	100.954	0.001802	56036.9	5.820444	-9.533260	505.867	1.246465	0.100296	0.100025	510.863	56036.9	0.093458	0.272397	1875.43	98094.8
531	2.000000	1.249205	7.37025e+06	-50539.1	1005.82	-29755.3	0.000000	0.000000	7.271284	527.921	NaN	0.000000	0.001676	0.001731	28.0806	101.79	0.001715	59348.2	3.986984	172.198	523.085	1.248886	0.102765	0.102446	527.921	59348.2	0.096093	0.286148	1844.92	101364
531	2.000000	1.250247	7.37025e+06	-50539.1	1005.82	-29755.3	0.000000	0.000000	7.272743	538.05	NaN	0.000000	0.001658	0.001739	28.0808	104.821	0.001946	53867.6	5.340290	171.509	536.305	1.249971	0.103807	0.103532	538.05	53867.6	0.096316	0.287324	1872.62	91815.2