File: remote_trans/data/nanoindenter/0828-1/data/Data_2025-08-06,11h17m57s/2025-07-22_16-23-58_1_741.txt
2025-07-22, 16:23:58, 1
Index	Phase	Displacement	Time	Pos X	Pos Y	Pos Z	Rot A	Rot B	Piezo Z	Force A	Force B	Gripper	Voltage A	Voltage B	Temperature	Amplitude force	Amplitude pos	Stiffness	Phase shift	Phase excitation	Force A raw	Displacement raw	HMax	HMax raw	Real Force	Real Stiffness	Contact Depth	Area	Hardness	Reduced Mod.
[#]	[#]	[um]	[s]	[um]	[um]	[um]	[m°]	[m°]	[um]	[uN]	[uN]	[V]	[V]	[V]	[°C]	[uN]	[um]	[N/m]	[°]	[°]	[uN]	[um]	[um]	[um]	[uN]	[N/m]	[um]	[um^2]	[MPa]	[MPa]
741	1.000000	0.002289	7.3723e+06	-40039.1	1005.82	-29791.5	0.000000	0.000000	6.002793	-0.009015	NaN	0.000000	0.001548	0.001692	28.0813	0.101166	0.001012	99.9698	77.643	-161.119	0.067178	0.000977	-1.124907	-1.126219	-0.009015	99.9698	-1.124839	-1.079923E+15	8.347938E-18	NaN
741	1.000000	0.012344	7.3723e+06	-40039.1	1005.82	-29791.5	0.000000	0.000000	6.012848	-0.013620	NaN	0.000000	0.001572	0.001745	28.0814	0.127385	0.001223	104.15	-177.568	15.8214	0.010260	0.010889	-1.114852	-1.116307	-0.013620	104.15	-1.114754	-7.908339E+14	1.722247E-17	NaN
741	1.000000	0.022238	7.3723e+06	-40039.1	1005.82	-29791.5	0.000000	0.000000	6.022743	0.013576	NaN	0.000000	0.001574	0.001745	28.0812	0.043964	0.001554	28.2943	100.292	-166.85	-0.026515	0.020937	-1.104958	-1.106259	0.013576	28.2943	-1.105318	-5.908154E+14	-2.297924E-17	NaN
741	1.000000	0.032256	7.3723e+06	-40039.1	1005.82	-29791.5	0.000000	0.000000	6.032759	-0.034810	NaN	0.000000	0.001574	0.001749	28.0813	0.113887	0.001924	59.1956	125.95	14.0609	-0.084747	0.030891	-1.094940	-1.096305	-0.034810	59.1956	-1.094499	-4.228784E+14	8.231647E-17	NaN
741	1.000000	0.042261	7.3723e+06	-40039.1	1005.82	-29791.5	0.000000	0.000000	6.042766	0.017297	NaN	0.000000	0.001574	0.001723	28.0814	0.057884	0.002020	28.6573	37.3192	-163.369	0.023406	0.040954	-1.084935	-1.086242	0.017297	28.6573	-1.085388	-3.190639E+14	-5.421231E-17	NaN
741	1.000000	0.052221	7.3723e+06	-40039.1	1005.82	-29791.5	0.000000	0.000000	6.052724	-0.037241	NaN	0.000000	0.001527	0.001722	28.081	0.041573	0.001811	22.9557	-163.979	13.7697	-0.028482	0.050881	-1.074975	-1.076315	-0.037241	22.9557	-1.073758	-2.226758E+14	1.672428E-16	NaN
741	1.000000	0.062219	7.3723e+06	-40039.1	1005.82	-29791.5	0.000000	0.000000	6.062725	0.036329	NaN	0.000000	0.001583	0.001733	28.0808	0.059749	0.002025	29.5023	41.5058	-170.039	0.051862	0.060940	-1.064977	-1.066256	0.036329	29.5023	-1.065900	-1.746251E+14	-2.080388E-16	NaN
741	1.000000	0.072231	7.3723e+06	-40039.1	1005.82	-29791.5	0.000000	0.000000	6.072735	0.004250	NaN	0.000000	0.001592	0.001732	28.081	0.051945	0.001981	26.2228	-97.9553	17.2127	-0.005731	0.070900	-1.054966	-1.056296	0.004250	26.2228	-1.055087	-1.249663E+14	-3.401160E-17	NaN
741	1.000000	0.082266	7.3723e+06	-40039.1	1005.82	-29791.5	0.000000	0.000000	6.082770	-0.000210	NaN	0.000000	0.001611	0.001771	28.0816	0.089250	0.001946	45.8738	-94.1436	-169.213	-0.015883	0.080953	-1.044930	-1.046243	-0.000210	45.8738	-1.044927	-9.124565E+13	2.299719E-18	NaN
741	1.000000	0.092287	7.3723e+06	-40039.1	1005.82	-29791.5	0.000000	0.000000	6.092792	0.008589	NaN	0.000000	0.001586	0.001766	28.081	0.110818	0.002031	54.5578	129.371	15.6121	-0.034295	0.090890	-1.034909	-1.036306	0.008589	54.5578	-1.035027	-6.715707E+13	-1.278915E-16	NaN
741	1.000000	0.102268	7.3723e+06	-40039.1	1005.82	-29791.5	0.000000	0.000000	6.102773	0.024802	NaN	0.000000	0.001661	0.001754	28.0831	0.128567	0.002055	62.5785	-30.8337	-164.262	0.027584	0.100984	-1.024928	-1.026212	0.024802	62.5785	-1.025226	-4.957444E+13	-5.002883E-16	NaN
741	1.000000	0.112243	7.3723e+06	-40039.1	1005.82	-29791.5	0.000000	0.000000	6.112746	-0.030614	NaN	0.000000	0.001677	0.001714	28.0855	0.061627	0.001869	32.9679	-148.907	16.6133	-0.069564	0.110888	-1.014953	-1.016308	-0.030614	32.9679	-1.014257	-3.529156E+13	8.674660E-16	NaN
741	1.000000	0.122246	7.3723e+06	-40039.1	1005.82	-29791.5	0.000000	0.000000	6.122751	0.026546	NaN	0.000000	0.001663	0.001724	28.0833	0.023204	0.002040	11.3727	104.213	-167.58	-0.063377	0.120934	-1.004950	-1.006262	0.026546	11.3727	-1.006701	-2.792376E+13	-9.506554E-16	NaN
741	1.000000	0.132274	7.3723e+06	-40039.1	1005.82	-29791.5	0.000000	0.000000	6.132777	-0.026825	NaN	0.000000	0.001658	0.001739	28.0831	0.017295	0.001983	8.723551	149.169	13.4014	-0.074203	0.130956	-0.994923	-0.996240	-0.026825	8.723551	-0.992616	-1.804459E+13	1.486570E-15	NaN
741	1.000000	0.142298	7.3723e+06	-40039.1	1005.82	-29791.5	0.000000	0.000000	6.142800	-0.043395	NaN	0.000000	0.001586	0.001743	28.0825	0.115808	0.001950	59.3932	-170.118	-166.659	-0.029533	0.140975	-0.984898	-0.986221	-0.043395	59.3932	-0.984350	-1.396425E+13	3.107604E-15	NaN
741	1.000000	0.152258	7.3723e+06	-40039.1	1005.82	-29791.5	0.000000	0.000000	6.152762	-0.017371	NaN	0.000000	0.001582	0.001752	28.0822	0.114579	0.002090	54.8314	124.513	14.7543	-0.090081	0.150878	-0.974938	-0.976318	-0.017371	54.8314	-0.974700	-1.035155E+13	1.678123E-15	NaN
741	1.000000	0.162267	7.3723e+06	-40039.1	1005.82	-29791.5	0.000000	0.000000	6.162771	-0.007918	NaN	0.000000	0.001566	0.001778	28.0827	0.036799	0.002004	18.3642	9.971822	-164.885	0.004979	0.160999	-0.964929	-0.966197	-0.007918	18.3642	-0.964606	-7.567624E+12	1.046241E-15	NaN
741	1.000000	0.172315	7.3723e+06	-40039.1	1005.82	-29791.5	0.000000	0.000000	6.172821	0.030738	NaN	0.000000	0.001599	0.001770	28.0825	0.089223	0.001934	46.139	-12.9428	13.5887	0.016218	0.170943	-0.954881	-0.956253	0.030738	46.139	-0.955381	-5.683102E+12	-5.408583E-15	NaN
741	1.000000	0.182296	7.3723e+06	-40039.1	1005.82	-29791.5	0.000000	0.000000	6.182802	0.038607	NaN	0.000000	0.001568	0.001794	28.0825	0.060634	0.001886	32.1502	-92.1247	-164.371	0.053553	0.180962	-0.944900	-0.946234	0.038607	32.1502	-0.945801	-4.220784E+12	-9.146778E-15	NaN
741	1.000000	0.192276	7.3723e+06	-40039.1	1005.82	-29791.5	0.000000	0.000000	6.192780	-0.023436	NaN	0.000000	0.001589	0.001690	28.0823	0.018946	0.002009	9.431313	143.388	14.4466	-0.069524	0.190946	-0.934920	-0.936250	-0.023436	9.431313	-0.933056	-2.840795E+12	8.249839E-15	NaN
741	1.000000	0.202306	7.3723e+06	-40039.1	1005.82	-29791.5	0.000000	0.000000	6.202811	0.035210	NaN	0.000000	0.001559	0.001738	28.0827	0.084647	0.001981	42.7215	-61.8067	-168.361	-0.045584	0.200989	-0.924890	-0.926207	0.035210	42.7215	-0.925509	-2.246848E+12	-1.567075E-14	NaN
741	1.000000	0.212322	7.3723e+06	-40039.1	1005.82	-29791.5	0.000000	0.000000	6.212828	0.041682	NaN	0.000000	0.001568	0.001702	28.0824	0.061595	0.001986	31.0135	16.5994	9.887135	0.018559	0.210916	-0.914874	-0.916280	0.041682	31.0135	-0.915882	-1.665737E+12	-2.502344E-14	NaN
741	1.000000	0.222346	7.3723e+06	-40039.1	1005.82	-29791.5	0.000000	0.000000	6.222849	-0.014858	NaN	0.000000	0.001600	0.001731	28.0824	0.092826	0.002019	45.9833	-12.1526	-168.435	-0.024266	0.220981	-0.904850	-0.906215	-0.014858	45.9833	-0.904608	-1.173079E+12	1.266561E-14	NaN
741	1.000000	0.232297	7.3723e+06	-40039.1	1005.82	-29791.5	0.000000	0.000000	6.232801	-0.028617	NaN	0.000000	0.001572	0.001731	28.0822	0.060602	0.001964	30.8496	-100.239	13.051	-0.025065	0.230917	-0.894899	-0.896279	-0.028617	30.8496	-0.894203	-8.486416E+11	3.372039E-14	NaN
741	1.000000	0.242323	7.3723e+06	-40039.1	1005.82	-29791.5	0.000000	0.000000	6.242828	0.013998	NaN	0.000000	0.001574	0.001719	28.0823	0.026154	0.001946	13.4432	-106.041	-165.973	0.003785	0.241008	-0.884873	-0.886188	0.013998	13.4432	-0.885654	-6.503647E+11	-2.152334E-14	NaN
741	1.000000	0.252301	7.3723e+06	-40039.1	1005.82	-29791.5	0.000000	0.000000	6.252804	-0.024718	NaN	0.000000	0.001548	0.001708	28.0812	0.052098	0.001885	27.643	82.5617	10.73	-0.029968	0.250964	-0.874895	-0.876232	-0.024718	27.643	-0.874225	-4.556121E+11	5.425221E-14	NaN
741	1.000000	0.262325	7.3723e+06	-40039.1	1005.82	-29791.5	0.000000	0.000000	6.262825	-0.092893	NaN	0.000000	0.001566	0.001721	28.0811	0.079681	0.001981	40.2186	-140.519	-167.033	-0.056618	0.261017	-0.864872	-0.866179	-0.092893	40.2186	-0.863139	-3.225586E+11	2.879882E-13	NaN
741	1.000000	0.272346	7.3723e+06	-40039.1	1005.82	-29791.5	0.000000	0.000000	6.272850	-0.003829	NaN	0.000000	0.001555	0.001757	28.0811	0.034145	0.002121	16.0951	-25.6098	15.7506	0.016004	0.270997	-0.854850	-0.856199	-0.003829	16.0951	-0.854672	-2.477374E+11	1.545725E-14	NaN
741	1.000000	0.282341	7.3723e+06	-40039.1	1005.82	-29791.5	0.000000	0.000000	6.282844	-0.039954	NaN	0.000000	0.001579	0.001764	28.081	0.095120	0.002093	45.4389	-54.4442	-171.201	0.048225	0.281016	-0.844855	-0.846180	-0.039954	45.4389	-0.844195	-1.786997E+11	2.235797E-13	NaN
741	1.000000	0.292340	7.3723e+06	-40039.1	1005.82	-29791.5	0.000000	0.000000	6.292843	-0.039278	NaN	0.000000	0.001562	0.001760	28.0812	0.019808	0.001932	10.2526	62.2534	14.6631	-0.039000	0.290982	-0.834856	-0.836214	-0.039278	10.2526	-0.831982	-1.220823E+11	3.217367E-13	NaN
741	1.000000	0.302342	7.3723e+06	-40039.1	1005.82	-29791.5	0.000000	0.000000	6.302849	0.062294	NaN	0.000000	0.001557	0.001695	28.081	0.105563	0.001956	53.9605	-111.723	-168.805	0.010854	0.301032	-0.824854	-0.826164	0.062294	53.9605	-0.825720	-1.004078E+11	-6.204108E-13	NaN
741	1.000000	0.312353	7.3723e+06	-40039.1	1005.82	-29791.5	0.000000	0.000000	6.312856	-0.030640	NaN	0.000000	0.001568	0.001697	28.081	0.102313	0.002018	50.6938	49.4979	14.3841	-0.011172	0.310959	-0.814843	-0.816237	-0.030640	50.6938	-0.814390	-7.049005E+10	4.346642E-13	NaN
741	1.000000	0.322383	7.3723e+06	-40039.1	1005.82	-29791.5	0.000000	0.000000	6.322885	-0.052099	NaN	0.000000	0.001590	0.001718	28.0811	0.028895	0.001978	14.6088	-176.767	-170.009	-0.084737	0.321056	-0.804813	-0.806140	-0.052099	14.6088	-0.802138	-4.807102E+10	1.083797E-12	NaN
741	1.000000	0.332344	7.3723e+06	-40039.1	1005.82	-29791.5	0.000000	0.000000	6.332845	-0.087037	NaN	0.000000	0.001568	0.001712	28.0809	0.011373	0.002023	5.623034	11.7804	14.2042	-0.096576	0.330980	-0.794852	-0.796217	-0.087037	5.623034	-0.783243	-2.662520E+10	3.268976E-12	NaN
741	1.000000	0.342364	7.3723e+06	-40039.1	1005.82	-29791.5	0.000000	0.000000	6.342867	-0.031107	NaN	0.000000	0.001532	0.001655	28.0809	0.075356	0.002097	35.9331	75.2641	-168.366	-0.056039	0.341061	-0.784832	-0.786135	-0.031107	35.9331	-0.784183	-2.741992E+10	1.134468E-12	NaN
741	1.000000	0.352370	7.3723e+06	-40039.1	1005.82	-29791.5	0.000000	0.000000	6.352873	-0.048437	NaN	0.000000	0.001554	0.001658	28.081	0.110206	0.001951	56.4734	101.956	14.0595	-0.079285	0.350983	-0.774826	-0.776213	-0.048437	56.4734	-0.774183	-2.005241E+10	2.415511E-12	NaN
741	1.000000	0.362377	7.3723e+06	-40039.1	1005.82	-29791.5	0.000000	0.000000	6.362883	0.045656	NaN	0.000000	0.001562	0.001676	28.0811	0.054322	0.001947	27.9036	164.39	-161.475	-0.002637	0.361003	-0.764819	-0.766193	0.045656	27.9036	-0.766046	-1.554310E+10	-2.937368E-12	NaN
741	1.000000	0.372353	7.3723e+06	-40039.1	1005.82	-29791.5	0.000000	0.000000	6.372855	-0.044922	NaN	0.000000	0.001566	0.001677	28.081	0.036331	0.001968	18.4657	-129.181	12.0856	-0.012043	0.371030	-0.754843	-0.756166	-0.044922	18.4657	-0.753019	-1.033499E+10	4.346562E-12	NaN
741	1.000000	0.382382	7.3723e+06	-40039.1	1005.82	-29791.5	0.000000	0.000000	6.382888	0.048866	NaN	0.000000	0.001573	0.001709	28.0807	0.096173	0.001995	48.2072	-63.3948	-168.659	0.052685	0.381070	-0.744815	-0.746126	0.048866	48.2072	-0.745575	-8.184175E+9	-5.970778E-12	NaN
741	1.000000	0.392380	7.3723e+06	-40039.1	1005.82	-29791.5	0.000000	0.000000	6.392882	-0.050050	NaN	0.000000	0.001545	0.001629	28.0823	0.055967	0.001959	28.5643	-35.4894	15.0904	-0.013256	0.390984	-0.734816	-0.736212	-0.050050	28.5643	-0.733502	-5.604490E+9	8.930353E-12	NaN
741	1.000000	0.402391	7.3723e+06	-40039.1	1005.82	-29791.5	0.000000	0.000000	6.402892	-0.080023	NaN	0.000000	0.001530	0.001661	28.0821	0.080846	0.001993	40.5665	118.28	-163.612	0.026674	0.401082	-0.724805	-0.726114	-0.080023	40.5665	-0.723326	-4.072146E+9	1.965136E-11	NaN
741	1.000000	0.412371	7.3723e+06	-40039.1	1005.82	-29791.5	0.000000	0.000000	6.412873	-0.056695	NaN	0.000000	0.001553	0.001670	28.0823	0.046446	0.001986	23.3858	-25.8072	9.398297	0.013654	0.411041	-0.714825	-0.716155	-0.056695	23.3858	-0.713006	-2.944912E+9	1.925171E-11	NaN
741	1.000000	0.422386	7.3723e+06	-40039.1	1005.82	-29791.5	0.000000	0.000000	6.422891	0.008113	NaN	0.000000	0.001569	0.001666	28.082	0.036820	0.001882	19.5633	-158.486	-168.293	-0.040100	0.421175	-0.704810	-0.706021	0.008113	19.5633	-0.705121	-2.298562E+9	-3.529734E-12	NaN
741	1.000000	0.432394	7.3723e+06	-40039.1	1005.82	-29791.5	0.000000	0.000000	6.432896	-0.078201	NaN	0.000000	0.001533	0.001670	28.0823	0.065616	0.002092	31.3613	77.1002	16.0128	-0.015952	0.431016	-0.694802	-0.696180	-0.078201	31.3613	-0.692931	-1.566664E+9	4.991535E-11	NaN
741	1.000000	0.442401	7.3723e+06	-40039.1	1005.82	-29791.5	0.000000	0.000000	6.442908	0.065851	NaN	0.000000	0.001560	0.001673	28.0821	0.043709	0.002002	21.8362	-162.757	-167.522	0.048265	0.441107	-0.684795	-0.686089	0.065851	21.8362	-0.687057	-1.302240E+9	-5.056774E-11	NaN
741	1.000000	0.452408	7.3723e+06	-40039.1	1005.82	-29791.5	0.000000	0.000000	6.452909	-0.097418	NaN	0.000000	0.001556	0.001641	28.0823	0.051592	0.001971	26.1768	-100.665	15.3651	-0.040025	0.451020	-0.674788	-0.676176	-0.097418	26.1768	-0.671996	-8.104260E+8	1.202064E-10	NaN
741	1.000000	0.462417	7.3723e+06	-40039.1	1005.82	-29791.5	0.000000	0.000000	6.462920	-0.030295	NaN	0.000000	0.001549	0.001641	28.0823	0.075570	0.001922	39.3113	81.5044	-166.599	-0.132105	0.461128	-0.664779	-0.666068	-0.030295	39.3113	-0.664201	-6.338747E+8	4.779338E-11	NaN
741	1.000000	0.472416	7.3723e+06	-40039.1	1005.82	-29791.5	0.000000	0.000000	6.472920	-0.024341	NaN	0.000000	0.001557	0.001658	28.0825	0.028182	0.001860	15.1494	-51.788	12.5747	0.024872	0.471075	-0.654780	-0.656121	-0.024341	15.1494	-0.653575	-4.533501E+8	5.369221E-11	NaN
741	1.000000	0.482429	7.3723e+06	-40039.1	1005.82	-29791.5	0.000000	0.000000	6.482931	-0.060125	NaN	0.000000	0.001558	0.001648	28.0824	0.062340	0.002029	30.7196	-80.8431	-165.985	-0.011108	0.481136	-0.644767	-0.646060	-0.060125	30.7196	-0.643299	-3.277512E+8	1.834474E-10	NaN
741	1.000000	0.492454	7.3723e+06	-40039.1	1005.82	-29791.5	0.000000	0.000000	6.492957	-0.027309	NaN	0.000000	0.001568	0.001646	28.0825	0.131937	0.002104	62.7184	174.991	11.6959	-0.035768	0.491098	-0.634742	-0.636098	-0.027309	62.7184	-0.634416	-2.475442E+8	1.103213E-10	NaN
741	1.000000	0.502414	7.3723e+06	-40039.1	1005.82	-29791.5	0.000000	0.000000	6.502918	-0.002007	NaN	0.000000	0.001610	0.001679	28.0823	0.020276	0.002026	10.008	157.388	-167.65	-0.004578	0.501134	-0.624782	-0.626062	-0.002007	10.008	-0.624632	-1.816721E+8	1.104516E-11	NaN
741	1.000000	0.512463	7.3723e+06	-40039.1	1005.82	-29791.5	0.000000	0.000000	6.512965	-0.043023	NaN	0.000000	0.001594	0.001675	28.0825	0.074771	0.001947	38.3936	-14.6429	14.9187	0.004374	0.511062	-0.614733	-0.616134	-0.043023	38.3936	-0.613893	-1.293190E+8	3.326858E-10	NaN
741	1.000000	0.522445	7.3723e+06	-40039.1	1005.82	-29791.5	0.000000	0.000000	6.522948	-0.032927	NaN	0.000000	0.001552	0.001692	28.0812	0.103759	0.001960	52.9281	111.162	-167.513	0.033623	0.521162	-0.604751	-0.606034	-0.032927	52.9281	-0.604284	-9.537805E+7	3.452210E-10	NaN
741	1.000000	0.532468	7.3723e+06	-40039.1	1005.82	-29791.5	0.000000	0.000000	6.532972	0.002774	NaN	0.000000	0.001589	0.001743	28.0809	0.060373	0.001979	30.5096	-124.483	16.3936	-0.060933	0.531078	-0.594728	-0.596118	0.002774	30.5096	-0.594797	-7.059591E+7	-3.929228E-11	NaN
741	1.000000	0.542461	7.3723e+06	-40039.1	1005.82	-29791.5	0.000000	0.000000	6.542964	-0.039510	NaN	0.000000	0.001571	0.001663	28.081	0.054858	0.002023	27.1172	171.708	-163.357	-0.000174	0.541113	-0.584735	-0.586083	-0.039510	27.1172	-0.583642	-4.954341E+7	7.974806E-10	NaN
741	1.000000	0.552458	7.3723e+06	-40039.1	1005.82	-29791.5	0.000000	0.000000	6.552961	-0.022491	NaN	0.000000	0.001564	0.001681	28.0813	0.106498	0.001861	57.2401	-177.284	14.4291	-0.129031	0.551145	-0.574738	-0.576051	-0.022491	57.2401	-0.574444	-3.698406E+7	6.081330E-10	NaN
741	1.000000	0.562421	7.3723e+06	-40039.1	1005.82	-29791.5	0.000000	0.000000	6.562922	-0.061961	NaN	0.000000	0.001581	0.001678	28.0808	0.013296	0.001981	6.711220	116.396	-167.076	0.033474	0.561123	-0.564776	-0.566073	-0.061961	6.711220	-0.557851	-2.180964E+7	2.840992E-9	NaN
741	1.000000	0.572503	7.3723e+06	-40039.1	1005.82	-29791.5	0.000000	0.000000	6.573004	-0.068072	NaN	0.000000	0.001568	0.001663	28.081	0.133641	0.002093	63.8593	29.7417	10.2189	0.040687	0.571110	-0.554693	-0.556086	-0.068072	63.8593	-0.553894	-1.922539E+7	3.540757E-9	NaN
741	1.000000	0.582468	7.3723e+06	-40039.1	1005.82	-29791.5	0.000000	0.000000	6.582975	0.061021	NaN	0.000000	0.001573	0.001678	28.0811	0.029735	0.002054	14.4751	-64.1441	-167.076	0.028542	0.581113	-0.544728	-0.546083	0.061021	14.4751	-0.547889	-1.587511E+7	-3.843794E-9	NaN
741	1.000000	0.592461	7.3723e+06	-40039.1	1005.82	-29791.5	0.000000	0.000000	6.592965	-0.019458	NaN	0.000000	0.001558	0.001700	28.0811	0.145735	0.001831	79.5917	-47.5521	13.721	-0.058221	0.591124	-0.534735	-0.536072	-0.019458	79.5917	-0.534551	-1.036968E+7	1.876409E-9	NaN
741	1.000000	0.602486	7.3723e+06	-40039.1	1005.82	-29791.5	0.000000	0.000000	6.602989	-0.028141	NaN	0.000000	0.001565	0.001669	28.081	0.028022	0.002077	13.4919	65.7662	-165.695	-0.058837	0.601182	-0.524710	-0.526014	-0.028141	13.4919	-0.523146	-7.20003e+06	3.908437E-9	NaN
741	1.000000	0.612463	7.3723e+06	-40039.1	1005.82	-29791.5	0.000000	0.000000	6.612967	0.003549	NaN	0.000000	0.001636	0.001688	28.0812	0.029040	0.002023	14.3518	151.986	17.1715	-0.010066	0.611108	-0.514734	-0.516088	0.003549	14.3518	-0.514919	-5.5323e+06	-6.414744E-10	NaN
741	1.000000	0.622480	7.3723e+06	-40039.1	1005.82	-29791.5	0.000000	0.000000	6.622985	0.032268	NaN	0.000000	0.001619	0.001725	28.0812	0.024886	0.002047	12.1555	56.2488	-163.816	-0.084967	0.621154	-0.504716	-0.506042	0.032268	12.1555	-0.506707	-4.25149e+06	-7.589730E-9	NaN
741	1.000000	0.632509	7.3723e+06	-40039.1	1005.82	-29791.5	0.000000	0.000000	6.633014	0.018989	NaN	0.000000	0.001655	0.001708	28.0811	0.155013	0.002027	76.458	141.45	11.5284	-0.050393	0.631146	-0.494687	-0.496050	0.018989	76.458	-0.494873	-2.90711e+06	-6.531949E-9	NaN
741	1.000000	0.642505	7.3723e+06	-40039.1	1005.82	-29791.5	0.000000	0.000000	6.643012	0.065499	NaN	0.000000	0.001616	0.001701	28.081	0.080019	0.001879	42.5827	152.613	-167.538	0.102833	0.641190	-0.484691	-0.486006	0.065499	42.5827	-0.485845	-2.17425e+06	-3.012498E-8	NaN
741	1.000000	0.652495	7.37231e+06	-40039.1	1005.82	-29791.5	0.000000	0.000000	6.652998	-0.040189	NaN	0.000000	0.001604	0.001677	28.081	0.043576	0.001945	22.4038	0.275999	12.2825	-0.051675	0.651139	-0.474701	-0.476057	-0.040189	22.4038	-0.473356	-1.45363e+06	2.764731E-8	NaN
741	1.000000	0.662501	7.37231e+06	-40039.1	1005.82	-29791.5	0.000000	0.000000	6.663003	-0.059910	NaN	0.000000	0.001642	0.001670	28.0824	0.059046	0.002008	29.4054	-100.37	-168.855	0.005004	0.661176	-0.464695	-0.466020	-0.059910	29.4054	-0.463167	-1.04593e+06	5.727923E-8	NaN
741	1.000000	0.672489	7.37231e+06	-40039.1	1005.82	-29791.5	0.000000	0.000000	6.672995	0.046771	NaN	0.000000	0.001615	0.001664	28.0826	0.042487	0.001956	21.7197	-105.606	12.4656	0.031587	0.671132	-0.454707	-0.456064	0.046771	21.7197	-0.456323	-838145	-5.580308E-8	NaN
741	1.000000	0.682504	7.37231e+06	-40039.1	1005.82	-29791.5	0.000000	0.000000	6.683008	-0.014998	NaN	0.000000	0.001619	0.001675	28.0825	0.059730	0.002115	28.2413	49.477	-162.422	-0.001236	0.681160	-0.444692	-0.446036	-0.014998	28.2413	-0.444294	-567461	2.642991E-8	NaN
741	1.000000	0.692520	7.37231e+06	-40039.1	1005.82	-29791.5	0.000000	0.000000	6.693022	-0.051595	NaN	0.000000	0.001582	0.001678	28.0826	0.117060	0.001894	61.8213	-100.802	14.215	-0.026145	0.691192	-0.434676	-0.436004	-0.051595	61.8213	-0.434050	-406754	1.268459E-7	NaN
741	1.000000	0.702509	7.37231e+06	-40039.1	1005.82	-29791.5	0.000000	0.000000	6.703013	-0.000165	NaN	0.000000	0.001550	0.001683	28.0826	0.057600	0.002047	28.1396	-38.4196	-164.797	-0.008753	0.701173	-0.424687	-0.426023	-0.000165	28.1396	-0.424682	-299768	5.497110E-10	NaN
741	1.000000	0.712521	7.37231e+06	-40039.1	1005.82	-29791.5	0.000000	0.000000	6.713026	0.002148	NaN	0.000000	0.001614	0.001640	28.0823	0.063753	0.002070	30.7987	-124.022	14.6424	0.015535	0.711155	-0.414675	-0.416041	0.002148	30.7987	-0.414727	-216560	-9.916962E-9	NaN
741	1.000000	0.722509	7.37231e+06	-40039.1	1005.82	-29791.5	0.000000	0.000000	6.723016	0.061743	NaN	0.000000	0.001600	0.001662	28.0823	0.030065	0.001947	15.4401	-73.5353	-162.616	0.067563	0.721171	-0.404687	-0.406025	0.061743	15.4401	-0.407686	-171984	-3.590060E-7	NaN
741	1.000000	0.732537	7.37231e+06	-40039.1	1005.82	-29791.5	0.000000	0.000000	6.733041	-0.003444	NaN	0.000000	0.001578	0.001663	28.0825	0.157625	0.001973	79.9049	131.993	14.9294	-0.053790	0.731203	-0.394659	-0.395993	-0.003444	79.9049	-0.394627	-112022	3.074260E-8	NaN
741	1.000000	0.742559	7.37231e+06	-40039.1	1005.82	-29791.5	0.000000	0.000000	6.743062	-0.011992	NaN	0.000000	0.001570	0.001652	28.0825	0.055174	0.001979	27.8776	101.297	-166.176	-0.036805	0.741250	-0.384637	-0.385946	-0.011992	27.8776	-0.384315	-79756.9	1.503534E-7	NaN
741	1.000000	0.752571	7.37231e+06	-40039.1	1005.82	-29791.5	0.000000	0.000000	6.753073	-0.055447	NaN	0.000000	0.001580	0.001639	28.0823	0.093284	0.001881	49.6031	-175.684	14.3461	-0.031663	0.751229	-0.374625	-0.375967	-0.055447	49.6031	-0.373787	-56315.8	9.845692E-7	NaN
741	1.000000	0.762537	7.37231e+06	-40039.1	1005.82	-29791.5	0.000000	0.000000	6.763040	-0.026401	NaN	0.000000	0.001614	0.001637	28.0824	0.139625	0.001955	71.4021	-57.0066	-166.583	-0.061375	0.761262	-0.364659	-0.365934	-0.026401	71.4021	-0.364382	-41222.5	6.404624E-7	NaN
741	1.000000	0.772536	7.37231e+06	-40039.1	1005.82	-29791.5	0.000000	0.000000	6.773039	-0.032592	NaN	0.000000	0.001582	0.001630	28.0825	0.039084	0.001961	19.929	42.087	14.5822	-0.059732	0.771240	-0.354660	-0.355956	-0.032592	19.929	-0.353434	-28628.9	1.138440E-6	NaN
741	1.000000	0.782530	7.37231e+06	-40039.1	1005.82	-29791.5	0.000000	0.000000	6.783037	0.070019	NaN	0.000000	0.001634	0.001654	28.0826	0.101563	0.001812	56.0383	-44.9835	-169.92	0.023233	0.781229	-0.344666	-0.345967	0.070019	56.0383	-0.345603	-22035.8	-3.177512E-6	NaN
741	1.000000	0.792561	7.37231e+06	-40039.1	1005.82	-29791.5	0.000000	0.000000	6.793064	-0.034205	NaN	0.000000	0.001589	0.001636	28.0823	0.087275	0.001970	44.3129	141.022	12.3289	-0.007971	0.791206	-0.334635	-0.335990	-0.034205	44.3129	-0.334056	-14955	2.287196E-6	NaN
741	1.000000	0.802551	7.37231e+06	-40039.1	1005.82	-29791.5	0.000000	0.000000	6.803054	-0.031271	NaN	0.000000	0.001643	0.001655	28.0813	0.067676	0.002098	32.2631	42.0126	-166.938	-0.078357	0.801236	-0.324645	-0.325960	-0.031271	32.2631	-0.323918	-10622.9	2.943761E-6	NaN
741	1.000000	0.812574	7.37231e+06	-40039.1	1005.82	-29791.5	0.000000	0.000000	6.813077	-0.039180	NaN	0.000000	0.001601	0.001631	28.0814	0.066434	0.001997	33.266	5.266713	14.4888	-0.026754	0.811153	-0.314622	-0.316043	-0.039180	33.266	-0.313739	-7521.91	5.208839E-6	NaN
741	1.000000	0.822568	7.37231e+06	-40039.1	1005.82	-29791.5	0.000000	0.000000	6.823073	0.001033	NaN	0.000000	0.001644	0.001646	28.0811	0.067016	0.001952	34.3367	-1.926859	-167.66	0.113904	0.821213	-0.304628	-0.305983	0.001033	34.3367	-0.304650	-5517.78	-1.872225E-7	NaN
741	1.000000	0.832561	7.37231e+06	-40039.1	1005.82	-29791.5	0.000000	0.000000	6.833063	-0.055855	NaN	0.000000	0.001650	0.001605	28.0813	0.081771	0.001913	42.736	31.3943	15.8897	-0.028470	0.831204	-0.294635	-0.295992	-0.055855	42.736	-0.293655	-3784.33	1.475946E-5	NaN
741	1.000000	0.842561	7.37231e+06	-40039.1	1005.82	-29791.5	0.000000	0.000000	6.843064	-0.043647	NaN	0.000000	0.001633	0.001667	28.0811	0.078437	0.001899	41.2991	-149.682	-166.043	-0.055864	0.841219	-0.284635	-0.285977	-0.043647	41.2991	-0.283842	-2696.85	1.618450E-5	NaN
741	1.000000	0.852574	7.37231e+06	-40039.1	1005.82	-29791.5	0.000000	0.000000	6.853079	0.012991	NaN	0.000000	0.001605	0.001650	28.0813	0.008177	0.002026	4.035556	13.0056	9.638420	-0.034925	0.851167	-0.274622	-0.276029	0.012991	4.035556	-0.277036	-2129.18	-6.101262E-6	NaN
741	1.000000	0.862587	7.37231e+06	-40039.1	1005.82	-29791.5	0.000000	0.000000	6.863090	-0.025598	NaN	0.000000	0.001655	0.001685	28.0807	0.043849	0.002127	20.6159	-178.673	-168.086	-0.057539	0.861270	-0.264609	-0.265926	-0.025598	20.6159	-0.263678	-1334.14	1.918715E-5	NaN
741	1.000000	0.872588	7.37231e+06	-40039.1	1005.82	-29791.5	0.000000	0.000000	6.873092	-0.001059	NaN	0.000000	0.001600	0.001652	28.081	0.086075	0.002091	41.169	82.226	13.3402	-0.065636	0.871249	-0.254608	-0.255948	-0.001059	41.169	-0.254589	-967.809	1.094044E-6	NaN
741	1.000000	0.882603	7.37231e+06	-40039.1	1005.82	-29791.5	0.000000	0.000000	6.883110	0.052342	NaN	0.000000	0.001621	0.001651	28.081	0.082019	0.002002	40.9624	-75.7166	-163.75	0.055136	0.881355	-0.244593	-0.245841	0.052342	40.9624	-0.245551	-701.48	-7.461689E-5	NaN
741	1.000000	0.892626	7.37231e+06	-40039.1	1005.82	-29791.5	0.000000	0.000000	6.893128	-0.044138	NaN	0.000000	0.001596	0.001664	28.0812	0.035003	0.002045	17.1186	-149.97	12.563	-0.100091	0.891214	-0.234570	-0.235982	-0.044138	17.1186	-0.232636	-440.643	0.000100	NaN
741	1.000000	0.902579	7.37231e+06	-40039.1	1005.82	-29791.5	0.000000	0.000000	6.903083	0.015111	NaN	0.000000	0.001606	0.001669	28.0811	0.080588	0.002017	39.9522	156.958	-165.703	-0.046406	0.901316	-0.224618	-0.225880	0.015111	39.9522	-0.224901	-332.48	-4.544934E-5	NaN
741	1.000000	0.912588	7.37231e+06	-40039.1	1005.82	-29791.5	0.000000	0.000000	6.913091	-0.030493	NaN	0.000000	0.001580	0.001634	28.0813	0.067700	0.001934	35.0034	-63.3968	15.6034	-0.089970	0.911292	-0.214609	-0.215904	-0.030493	35.0034	-0.213955	-222.176	0.000137	NaN
741	1.000000	0.922597	7.37231e+06	-40039.1	1005.82	-29791.5	0.000000	0.000000	6.923102	0.012937	NaN	0.000000	0.001604	0.001636	28.0813	0.046436	0.001979	23.4683	89.4787	-166.146	0.060009	0.921315	-0.204599	-0.205881	0.012937	23.4683	-0.205013	-159.135	-8.129523E-5	NaN
741	1.000000	0.932624	7.37231e+06	-40039.1	1005.82	-29791.5	0.000000	0.000000	6.933127	-0.024227	NaN	0.000000	0.001622	0.001636	28.0825	0.086481	0.002019	42.8327	96.7301	14.891	-0.016118	0.931243	-0.194572	-0.195953	-0.024227	42.8327	-0.194148	-105.456	0.000230	NaN
741	1.000000	0.942591	7.37231e+06	-40039.1	1005.82	-29791.5	0.000000	0.000000	6.943093	-0.049447	NaN	0.000000	0.001628	0.001625	28.0824	0.043208	0.001955	22.1034	63.8967	-166.718	-0.009586	0.941297	-0.184605	-0.185899	-0.049447	22.1034	-0.182927	-68.4117	0.000723	NaN
741	1.000000	0.952629	7.37231e+06	-40039.1	1005.82	-29791.5	0.000000	0.000000	6.953132	-0.034893	NaN	0.000000	0.001664	0.001601	28.0823	0.021335	0.002071	10.2995	-90.7183	10.1453	-0.008111	0.951299	-0.174567	-0.175897	-0.034893	10.2995	-0.172026	-44.5375	0.000783	NaN
741	1.000000	0.962634	7.37231e+06	-40039.1	1005.82	-29791.5	0.000000	0.000000	6.963135	-0.065189	NaN	0.000000	0.001618	0.001637	28.0825	0.036846	0.001976	18.6493	120.619	-168.686	-0.063303	0.961383	-0.164562	-0.165813	-0.065189	18.6493	-0.161941	-29.6748	0.002197	NaN
741	1.000000	0.972625	7.37231e+06	-40039.1	1005.82	-29791.5	0.000000	0.000000	6.973130	0.017795	NaN	0.000000	0.001627	0.001612	28.0828	0.060196	0.002006	30.0021	135.166	11.1118	0.042420	0.971224	-0.154571	-0.155972	0.017795	30.0021	-0.155015	-22.3285	-0.000797	NaN
741	1.000000	0.982626	7.37231e+06	-40039.1	1005.82	-29791.5	0.000000	0.000000	6.983130	-0.010165	NaN	0.000000	0.001595	0.001639	28.0825	0.006856	0.001830	3.745793	83.0577	-168.773	-0.048704	0.981327	-0.144570	-0.145869	-0.010165	3.745793	-0.142535	-13.1946	0.000770	NaN
741	1.000000	0.992660	7.37231e+06	-40039.1	1005.82	-29791.5	0.000000	0.000000	6.993163	-0.015264	NaN	0.000000	0.001629	0.001646	28.0826	0.011010	0.002048	5.375850	20.2008	14.9071	-0.012674	0.991241	-0.134536	-0.135955	-0.015264	5.375850	-0.132407	-8.483265	0.001799	NaN
741	1.000000	1.002612	7.37231e+06	-40039.1	1005.82	-29791.5	0.000000	0.000000	7.003115	-0.033042	NaN	0.000000	0.001612	0.001658	28.0827	0.131731	0.001917	68.7067	19.6363	-168.527	-0.048766	1.001287	-0.124584	-0.125909	-0.033042	68.7067	-0.124223	-5.869427	0.005630	NaN
741	1.000000	1.012673	7.37231e+06	-40039.1	1005.82	-29791.5	0.000000	0.000000	7.013176	-0.027451	NaN	0.000000	0.001609	0.001655	28.0826	0.086696	0.002034	42.6235	-157.098	13.6187	0.029966	1.011294	-0.114523	-0.115902	-0.027451	42.6235	-0.114040	-3.649793	0.007521	NaN
741	1.000000	1.022650	7.37231e+06	-40039.1	1005.82	-29791.5	0.000000	0.000000	7.023152	-0.058868	NaN	0.000000	0.001566	0.001649	28.0827	0.064542	0.001896	34.0456	-78.4867	-166.768	-0.029719	1.021331	-0.104546	-0.105865	-0.058868	34.0456	-0.103249	-2.153697	0.027333	NaN
741	1.000000	1.032639	7.37231e+06	-40039.1	1005.82	-29791.5	0.000000	0.000000	7.033142	-0.025791	NaN	0.000000	0.001586	0.001623	28.0825	0.023592	0.002115	11.1523	-25.569	8.651487	-0.043848	1.031280	-0.094557	-0.095917	-0.025791	11.1523	-0.092823	-1.257469	0.020511	NaN
741	1.000000	1.042664	7.37231e+06	-40039.1	1005.82	-29791.5	0.000000	0.000000	7.043167	-0.044894	NaN	0.000000	0.001573	0.001635	28.083	0.024544	0.002035	12.0628	71.419	-166.922	-0.065851	1.041347	-0.084532	-0.085849	-0.044894	12.0628	-0.081741	-0.683849	0.065648	NaN
741	1.000000	1.052657	7.37231e+06	-40039.1	1005.82	-29791.5	0.000000	0.000000	7.053160	-0.030874	NaN	0.000000	0.001589	0.001622	28.0825	0.100093	0.001926	51.9723	-35.0216	10.4419	0.042196	1.051304	-0.074539	-0.075892	-0.030874	51.9723	-0.074094	-0.437518	0.070566	NaN
741	1.000000	1.062644	7.37231e+06	-40039.1	1005.82	-29791.5	0.000000	0.000000	7.063150	0.039258	NaN	0.000000	0.001576	0.001629	28.0828	0.079809	0.001937	41.1971	58.6158	-165.864	0.020576	1.061367	-0.064552	-0.065829	0.039258	41.1971	-0.065267	-0.253498	-0.154865	NaN
741	1.000000	1.072679	7.37231e+06	-40039.1	1005.82	-29791.5	0.000000	0.000000	7.073180	-0.064930	NaN	0.000000	0.001570	0.001646	28.0814	0.016018	0.001991	8.043178	-138.354	13.856	-0.100820	1.071297	-0.054517	-0.055899	-0.064930	8.043178	-0.048463	-0.081966	0.792159	NaN
741	1.000000	1.082662	7.37231e+06	-40039.1	1005.82	-29791.5	0.000000	0.000000	7.083164	-0.044933	NaN	0.000000	0.001570	0.001631	28.0819	0.071606	0.002053	34.8717	-114.138	-167.534	0.001513	1.081387	-0.044535	-0.045809	-0.044933	34.8717	-0.043568	-0.058103	0.773324	NaN
741	1.000000	1.092671	7.37231e+06	-40039.1	1005.82	-29791.5	0.000000	0.000000	7.093177	0.044637	NaN	0.000000	0.001549	0.001639	28.0812	0.066332	0.002033	32.6337	42.3031	12.6874	0.002722	1.091306	-0.034525	-0.035890	0.044637	32.6337	-0.035551	-0.033246	-1.342618	NaN
741	1.000000	1.102684	7.37231e+06	-40039.1	1005.82	-29791.5	0.000000	0.000000	7.103193	0.117632	NaN	0.000000	0.001559	0.001644	28.0815	0.165011	0.002172	75.9693	51.0242	-167.717	0.100878	1.101397	-0.024512	-0.025799	0.117632	75.9693	-0.025673	-0.017570	-6.694939	NaN
741	1.000000	1.112696	7.37231e+06	-40039.1	1005.82	-29791.5	0.000000	0.000000	7.113250	1.197892	NaN	0.000000	0.001610	0.001628	28.0816	1.019255	0.001999	509.992	7.091937	16.5553	1.105980	1.111357	-0.014500	-0.015839	1.197892	509.992	-0.016261	-0.010045	-119.255	NaN
741	1.000000	1.122678	7.37231e+06	-40039.1	1005.82	-29791.5	0.000000	0.000000	7.123241	1.433311	NaN	0.000000	0.001592	0.001696	28.0816	1.172040	0.002061	568.722	34.4865	-164.444	2.125415	1.121334	-0.004518	-0.005862	1.433311	568.722	-0.006408	-0.004285	-334.516	NaN
741	1.000000	1.132609	7.37231e+06	-40039.1	1005.82	-29791.5	0.000000	0.000000	7.133407	7.146597	NaN	0.000000	0.001558	0.001651	28.0812	7.465665	0.001751	4264.78	8.742057	10.8833	5.329987	1.131317	0.005413	0.004120	7.146597	4264.78	0.004156	0.003376	2116.8	67059.5
741	2.000000	1.136258	7.37231e+06	-40039.1	1005.82	-29791.5	0.000000	0.000000	7.137219	11.1096	NaN	0.000000	0.001583	0.001664	28.0817	10.8236	0.001611	6718.33	6.433803	-173.563	10.5689	1.135964	0.009062	0.008768	11.1096	6718.33	0.007822	0.006860	1619.54	74110.6
741	2.000000	1.138766	7.37231e+06	-40039.1	1005.82	-29791.5	0.000000	0.000000	7.139968	16.9687	NaN	0.000000	0.001555	0.001649	28.0814	13.5785	0.001640	8281.95	8.038256	4.891662	18.8746	1.138390	0.011570	0.011194	16.9687	8281.95	0.010033	0.009218	1840.72	78809.1
741	2.000000	1.141255	7.37231e+06	-40039.1	1005.82	-29791.5	0.000000	0.000000	7.142573	19.8026	NaN	0.000000	0.001587	0.001642	28.0814	17.2563	0.001864	9258.44	7.985254	-177.096	20.0834	1.140920	0.014059	0.013724	19.8026	9258.44	0.012455	0.012040	1644.75	77090.4
741	2.000000	1.143762	7.37231e+06	-40039.1	1005.82	-29791.5	0.000000	0.000000	7.145346	26.2625	NaN	0.000000	0.001571	0.001663	28.0814	19.865	0.001710	11613.7	12.1732	-2.819951	26.8972	1.143284	0.016566	0.016088	26.2625	11613.7	0.014870	0.015113	1737.76	86311.7
741	2.000000	1.146278	7.37231e+06	-40039.1	1005.82	-29791.5	0.000000	0.000000	7.148023	30.2002	NaN	0.000000	0.001554	0.001700	28.0815	22.1243	0.001717	12882	10.5223	177.038	32.4431	1.145882	0.019082	0.018686	30.2002	12882	0.017323	0.018510	1631.59	86507.8
741	2.000000	1.148659	7.37231e+06	-40039.1	1005.82	-29791.5	0.000000	0.000000	7.150672	36.7282	NaN	0.000000	0.001606	0.001663	28.0816	24.6224	0.001695	14529.6	0.457685	5.001390	33.7677	1.148335	0.021463	0.021139	36.7282	14529.6	0.019567	0.021866	1679.68	89771.8
741	2.000000	1.151253	7.37231e+06	-40039.1	1005.82	-29791.5	0.000000	0.000000	7.153473	41.7555	NaN	0.000000	0.001586	0.001670	28.0815	28.9383	0.001933	14969.8	10.7151	175.661	44.7492	1.150946	0.024057	0.023750	41.7555	14969.8	0.021965	0.025725	1623.18	85273.8
741	2.000000	1.153681	7.37231e+06	-40039.1	1005.82	-29791.5	0.000000	0.000000	7.156501	56.3481	NaN	0.000000	0.001575	0.001613	28.0825	30.6355	0.001847	16590.2	6.153575	-0.875207	52.831	1.153255	0.026485	0.026059	56.3481	16590.2	0.023938	0.029112	1935.56	88836.2
741	2.000000	1.156187	7.37231e+06	-40039.1	1005.82	-29791.5	0.000000	0.000000	7.159200	61.043	NaN	0.000000	0.001575	0.001658	28.0828	33.4141	0.001776	18818.1	10.2642	174.248	60.8624	1.155878	0.028991	0.028682	61.043	18818.1	0.026558	0.033912	1800.05	93362.4
741	2.000000	1.158682	7.37231e+06	-40039.1	1005.82	-29791.5	0.000000	0.000000	7.162092	70.7087	NaN	0.000000	0.001608	0.001654	28.0828	36.1992	0.001907	18983	6.446563	-2.951815	69.1913	1.158363	0.031486	0.031167	70.7087	18983	0.028692	0.038077	1857	88880.6
741	2.000000	1.161163	7.37231e+06	-40039.1	1005.82	-29791.5	0.000000	0.000000	7.165015	81.4592	NaN	0.000000	0.001619	0.001659	28.0828	38.0755	0.001770	21510.7	5.699105	176.688	82.0818	1.160908	0.033967	0.033712	81.4592	21510.7	0.031127	0.043112	1889.47	94651.8
741	2.000000	1.163667	7.37231e+06	-40039.1	1005.82	-29791.5	0.000000	0.000000	7.168035	94.008	NaN	0.000000	0.001648	0.001671	28.0827	40.1819	0.001708	23523.8	5.833146	-4.314014	90.857	1.163316	0.036471	0.036120	94.008	23523.8	0.033474	0.048252	1948.26	97841
741	2.000000	1.166118	7.37231e+06	-40039.1	1005.82	-29791.5	0.000000	0.000000	7.171041	107.535	NaN	0.000000	0.001585	0.001697	28.083	42.6459	0.001749	24384.9	6.603215	174.256	104.786	1.165836	0.038922	0.038640	107.535	24384.9	0.035615	0.053187	2021.84	96603.6
741	2.000000	1.168622	7.37231e+06	-40039.1	1005.82	-29791.5	0.000000	0.000000	7.174241	124.471	NaN	0.000000	0.001584	0.001695	28.0827	44.7707	0.001639	27315.3	3.511330	-3.570590	120.851	1.168344	0.041426	0.041148	124.471	27315.3	0.038008	0.058982	2110.32	102759
741	2.000000	1.171156	7.37231e+06	-40039.1	1005.82	-29791.5	0.000000	0.000000	7.177315	137.604	NaN	0.000000	0.001580	0.001662	28.0826	49.1523	0.001789	27467.1	5.460812	175.031	137.187	1.170864	0.043960	0.043668	137.604	27467.1	0.040203	0.064554	2131.61	98770.2
741	2.000000	1.173670	7.37231e+06	-40039.1	1005.82	-29791.5	0.000000	0.000000	7.180692	158.591	NaN	0.000000	0.001588	0.001692	28.0826	50.9651	0.001725	29542.7	7.992426	-7.903332	157.488	1.173157	0.046474	0.045961	158.591	29542.7	0.042448	0.070507	2249.28	101649
741	2.000000	1.176126	7.37231e+06	-40039.1	1005.82	-29791.5	0.000000	0.000000	7.183630	170.346	NaN	0.000000	0.001591	0.001639	28.0828	53.8567	0.001914	28141.3	4.197242	175.621	169.57	1.175946	0.048930	0.048750	170.346	28141.3	0.044390	0.075864	2245.4	93346.7
741	2.000000	1.178629	7.37231e+06	-40039.1	1005.82	-29791.5	0.000000	0.000000	7.186947	190.157	NaN	0.000000	0.001597	0.001644	28.0829	57.044	0.001816	31408.4	3.811349	-4.654024	188.313	1.178301	0.051433	0.051105	190.157	31408.4	0.046892	0.083049	2289.7	99575.7
741	2.000000	1.181138	7.37231e+06	-40039.1	1005.82	-29791.5	0.000000	0.000000	7.190241	209.243	NaN	0.000000	0.001595	0.001639	28.0829	59.0504	0.001860	31754.1	2.670485	176.164	207.281	1.180860	0.053942	0.053664	209.243	31754.1	0.049000	0.089346	2341.94	97058.8
741	2.000000	1.183596	7.37231e+06	-40039.1	1005.82	-29791.5	0.000000	0.000000	7.193680	233.098	NaN	0.000000	0.001642	0.001629	28.0828	61.5007	0.001740	35345.6	6.630916	-8.456500	227.721	1.183138	0.056400	0.055942	233.098	35345.6	0.051454	0.096961	2404.04	103708
741	2.000000	1.186107	7.37231e+06	-40039.1	1005.82	-29791.5	0.000000	0.000000	7.196803	248.008	NaN	0.000000	0.001656	0.001667	28.0818	63.2447	0.001771	35710.1	4.690146	173.248	246.838	1.185875	0.058911	0.058678	248.008	35710.1	0.053702	0.104198	2380.15	101073
741	2.000000	1.188631	7.37231e+06	-40039.1	1005.82	-29791.5	0.000000	0.000000	7.200309	271.897	NaN	0.000000	0.001564	0.001653	28.0816	65.487	0.001726	37931.1	3.798425	-6.663854	269.302	1.188270	0.061435	0.061074	271.897	37931.1	0.056059	0.112055	2426.46	103527
741	2.000000	1.191171	7.37231e+06	-40039.1	1005.82	-29791.5	0.000000	0.000000	7.203792	294.836	NaN	0.000000	0.001621	0.001647	28.0817	68.1205	0.001704	39972.5	2.280424	175.057	297.238	1.190928	0.063975	0.063731	294.836	39972.5	0.058443	0.120286	2451.13	105300
741	2.000000	1.193609	7.37231e+06	-40039.1	1005.82	-29791.5	0.000000	0.000000	7.207018	314.029	NaN	0.000000	0.001609	0.001634	28.0814	69.7788	0.001773	39357.3	2.880272	-5.900711	308.725	1.193260	0.066412	0.066064	314.029	39357.3	0.060428	0.127349	2465.9	100763
741	2.000000	1.196048	7.37231e+06	-40039.1	1005.82	-29791.5	0.000000	0.000000	7.210574	341.212	NaN	0.000000	0.001605	0.001663	28.0816	72.3168	0.001783	40566.1	3.732189	173.757	337.908	1.195763	0.068852	0.068567	341.212	40566.1	0.062543	0.135085	2525.89	100840
741	2.000000	1.198532	7.37231e+06	-40039.1	1005.82	-29791.5	0.000000	0.000000	7.214140	367.523	NaN	0.000000	0.001621	0.001706	28.0813	75.1929	0.001798	41811.9	4.967780	-8.487856	359.606	1.198183	0.071336	0.070987	367.523	41811.9	0.064744	0.143366	2563.53	100890
741	2.000000	1.201045	7.37231e+06	-40039.1	1005.82	-29791.5	0.000000	0.000000	7.217686	392.661	NaN	0.000000	0.001620	0.001677	28.0813	77.3163	0.001853	41735.9	2.220995	174.569	388.175	1.200765	0.073849	0.073569	392.661	41735.9	0.066793	0.151288	2595.45	98034.8
741	2.000000	1.203623	7.37231e+06	-40039.1	1005.82	-29791.5	0.000000	0.000000	7.220610	401.096	NaN	0.000000	0.001593	0.001678	28.0814	78.8188	0.001745	45171.5	0.802843	-4.262240	397.294	1.203316	0.076427	0.076120	401.096	45171.5	0.069768	0.163143	2458.55	102177
741	2.000000	1.206123	7.37231e+06	-40039.1	1005.82	-29791.5	0.000000	0.000000	7.224686	439.442	NaN	0.000000	0.001571	0.001680	28.0813	81.7355	0.001731	47210	3.458757	173.035	440.936	1.205810	0.078927	0.078614	439.442	47210	0.071945	0.172092	2553.53	103975
741	2.000000	1.208543	7.37231e+06	-40039.1	1005.82	-29791.5	0.000000	0.000000	7.227556	450.391	NaN	0.000000	0.001598	0.001677	28.0811	84.1241	0.001763	47706.2	0.918523	-5.195511	444.714	1.208399	0.081347	0.081203	450.391	47706.2	0.074266	0.181874	2476.4	102203
741	2.000000	1.211126	7.37231e+06	-40039.1	1005.82	-29791.5	0.000000	0.000000	7.231452	482.333	NaN	0.000000	0.001607	0.001696	28.0812	87.6835	0.001723	50890.2	1.878243	173.405	482.156	1.210976	0.083930	0.083780	482.333	50890.2	0.076822	0.192941	2499.9	105851
741	2.000000	1.213524	7.37231e+06	-40039.1	1005.82	-29791.5	0.000000	0.000000	7.235651	526.177	NaN	0.000000	0.001594	0.001691	28.0811	89.2327	0.001673	53322.2	5.828186	-10.8766	517.92	1.213123	0.086328	0.085927	526.177	53322.2	0.078927	0.202285	2601.17	108318
741	2.000000	1.215958	7.37231e+06	-40039.1	1005.82	-29791.5	0.000000	0.000000	7.239173	552.634	NaN	0.000000	0.001576	0.001684	28.0811	90.8261	0.001623	55967.7	3.213496	171.338	544.181	1.215684	0.088762	0.088488	552.634	55967.7	0.081356	0.213327	2590.54	110710
741	2.000000	1.218416	7.37231e+06	-40039.1	1005.82	-29791.5	0.000000	0.000000	7.242850	582.298	NaN	0.000000	0.001611	0.001641	28.081	93.5611	0.001825	51279.3	5.667398	-10.626	571.306	1.218233	0.091220	0.091036	582.298	51279.3	0.082704	0.219569	2652	99983.9
741	2.000000	1.220976	7.37231e+06	-40039.1	1005.82	-29791.5	0.000000	0.000000	7.246106	599.233	NaN	0.000000	0.001579	0.001653	28.0825	96.5764	0.001867	51727.4	5.778966	169.483	592.132	1.220759	0.093780	0.093563	599.233	51727.4	0.085092	0.230839	2595.89	98364.6
741	2.000000	1.223515	7.37231e+06	-40039.1	1005.82	-29791.5	0.000000	0.000000	7.250417	642.368	NaN	0.000000	0.001609	0.001703	28.0826	98.3043	0.001739	56544.7	3.489576	-8.742801	634.627	1.223163	0.096319	0.095967	642.368	56544.7	0.087798	0.243932	2633.39	104600
741	2.000000	1.225877	7.37231e+06	-40039.1	1005.82	-29791.5	0.000000	0.000000	7.254101	674.544	NaN	0.000000	0.001594	0.001673	28.0826	100.036	0.001673	59795.4	3.310501	170.856	664.712	1.225675	0.098681	0.098479	674.544	59795.4	0.090220	0.255931	2635.65	107989
741	2.000000	1.228412	7.37231e+06	-40039.1	1005.82	-29791.5	0.000000	0.000000	7.257919	705.761	NaN	0.000000	0.001630	0.001666	28.0828	103.656	0.001863	55646.8	4.993107	-10.271	694.32	1.228060	0.101216	0.100864	705.761	55646.8	0.091704	0.263416	2679.26	99058.7
741	2.000000	1.230946	7.37231e+06	-40039.1	1005.82	-29791.5	0.000000	0.000000	7.262022	743.925	NaN	0.000000	0.001626	0.001672	28.0828	106.228	0.001763	60269.6	5.749286	168.305	734.748	1.230601	0.103750	0.103405	743.925	60269.6	0.094493	0.277758	2678.32	104481
741	2.000000	1.232581	7.37231e+06	-40039.1	1005.82	-29791.5	0.000000	0.000000	7.263885	749.483	NaN	0.000000	0.001598	0.001689	28.0825	105.896	0.001751	60464.8	2.887333	-8.543062	746.206	1.232366	0.105385	0.105170	749.483	60464.8	0.096088	0.286122	2619.46	103276