File: remote_trans/data/nanoindenter/0828-1/data/Data_2025-08-06,11h17m57s/2025-07-22_16-23-58_1_115.txt
2025-07-22, 16:23:58, 1
Index	Phase	Displacement	Time	Pos X	Pos Y	Pos Z	Rot A	Rot B	Piezo Z	Force A	Force B	Gripper	Voltage A	Voltage B	Temperature	Amplitude force	Amplitude pos	Stiffness	Phase shift	Phase excitation	Force A raw	Displacement raw	HMax	HMax raw	Real Force	Real Stiffness	Contact Depth	Area	Hardness	Reduced Mod.
[#]	[#]	[um]	[s]	[um]	[um]	[um]	[m°]	[m°]	[um]	[uN]	[uN]	[V]	[V]	[V]	[°C]	[uN]	[um]	[N/m]	[°]	[°]	[uN]	[um]	[um]	[um]	[uN]	[N/m]	[um]	[um^2]	[MPa]	[MPa]
115	1.000000	0.002519	7.36616e+06	-44389.1	955.818	-29776.4	0.000000	0.000000	6.002777	-0.009975	NaN	0.000000	0.001623	0.001675	28.0883	0.062079	0.000950	65.3306	-12.8997	-159.979	-0.028227	0.001284	-1.158386	-1.159621	-0.009975	65.3306	-1.158271	-3.031759E+15	3.290054E-18	NaN
115	1.000000	0.012583	7.36616e+06	-44389.1	955.818	-29776.4	0.000000	0.000000	6.012844	0.035624	NaN	0.000000	0.001593	0.001682	28.1272	0.083082	0.001342	61.9174	-139.144	19.8986	0.051155	0.011115	-1.148321	-1.149790	0.035624	61.9174	-1.148753	-2.259932E+15	-1.576336E-17	NaN
115	1.000000	0.022501	7.36616e+06	-44389.1	955.818	-29776.4	0.000000	0.000000	6.022761	0.036132	NaN	0.000000	0.001615	0.001679	28.1122	0.047406	0.001585	29.9075	18.8285	-168.02	0.050788	0.021167	-1.138404	-1.139738	0.036132	29.9075	-1.139310	-1.688425E+15	-2.140008E-17	NaN
115	1.000000	0.032470	7.36616e+06	-44389.1	955.819	-29776.4	0.000000	0.000000	6.032728	-0.034933	NaN	0.000000	0.001607	0.001634	28.0807	0.091101	0.002011	45.2912	-61.152	14.7193	-0.024326	0.031157	-1.128434	-1.129747	-0.034933	45.2912	-1.127856	-1.185388E+15	2.946937E-17	NaN
115	1.000000	0.042491	7.36616e+06	-44389.1	955.818	-29776.4	0.000000	0.000000	6.042752	0.052605	NaN	0.000000	0.001619	0.001708	28.0868	0.038451	0.001966	19.5588	29.7628	-163.786	0.067850	0.041175	-1.118413	-1.119730	0.052605	19.5588	-1.120430	-9.424207E+14	-5.581888E-17	NaN
115	1.000000	0.052510	7.36616e+06	-44389.1	955.818	-29776.4	0.000000	0.000000	6.052769	-0.008574	NaN	0.000000	0.001599	0.001625	28.1245	0.053762	0.002039	26.3616	154.45	15.6312	-0.016165	0.051197	-1.108394	-1.109707	-0.008574	26.3616	-1.108150	-6.448574E+14	1.329580E-17	NaN
115	1.000000	0.062502	7.36616e+06	-44389.1	955.819	-29776.4	0.000000	0.000000	6.062761	0.006727	NaN	0.000000	0.001599	0.001683	28.1123	0.014578	0.002059	7.081549	-107.616	-168.758	0.108720	0.061175	-1.098403	-1.099729	0.006727	7.081549	-1.099115	-4.877419E+14	-1.379172E-17	NaN
115	1.000000	0.072516	7.36616e+06	-44389.1	955.818	-29776.4	0.000000	0.000000	6.072776	0.024210	NaN	0.000000	0.001606	0.001678	28.0814	0.082600	0.002004	41.2102	96.3995	15.7825	0.006831	0.071118	-1.088388	-1.089787	0.024210	41.2102	-1.088829	-3.548822E+14	-6.821917E-17	NaN
115	1.000000	0.082493	7.36616e+06	-44389.1	955.818	-29776.4	0.000000	0.000000	6.082751	-0.035650	NaN	0.000000	0.001586	0.001653	28.086	0.073320	0.002173	33.747	-56.1991	-165.814	-0.029465	0.081158	-1.078411	-1.079747	-0.035650	33.747	-1.077619	-2.509195E+14	1.420776E-16	NaN
115	1.000000	0.092472	7.36616e+06	-44389.1	955.818	-29776.4	0.000000	0.000000	6.092733	0.048248	NaN	0.000000	0.001601	0.001671	28.125	0.055184	0.002122	26.0062	132.319	12.7188	-0.016352	0.091105	-1.068433	-1.069799	0.048248	26.0062	-1.069824	-1.971630E+14	-2.447087E-16	NaN
115	1.000000	0.102506	7.36616e+06	-44389.1	955.817	-29776.4	0.000000	0.000000	6.102763	-0.034089	NaN	0.000000	0.001620	0.001623	28.1107	0.043250	0.001929	22.4262	-78.9267	-161.943	-0.009847	0.101193	-1.058398	-1.059711	-0.034089	22.4262	-1.057258	-1.336521E+14	2.550553E-16	NaN
115	1.000000	0.112502	7.36616e+06	-44389.1	955.818	-29776.4	0.000000	0.000000	6.112759	-0.032798	NaN	0.000000	0.001586	0.001692	28.0787	0.138802	0.001996	69.5475	-65.1376	16.2574	-0.062337	0.111223	-1.048403	-1.049681	-0.032798	69.5475	-1.048049	-1.005047E+14	3.263300E-16	NaN
115	1.000000	0.122522	7.36616e+06	-44389.1	955.819	-29776.4	0.000000	0.000000	6.122783	0.050078	NaN	0.000000	0.001639	0.001676	28.085	0.008684	0.002099	4.137082	8.459997	-165.082	-0.084088	0.121222	-1.038382	-1.039682	0.050078	4.137082	-1.047461	-9.869126E+13	-5.074162E-16	NaN
115	1.000000	0.132511	7.36616e+06	-44389.1	955.818	-29776.4	0.000000	0.000000	6.132770	0.002864	NaN	0.000000	0.001624	0.001674	28.1238	0.111251	0.001997	55.7061	68.3463	15.7038	0.100962	0.131168	-1.028393	-1.029736	0.002864	55.7061	-1.028432	-5.474989E+13	-5.230848E-17	NaN
115	1.000000	0.142498	7.36616e+06	-44389.1	955.818	-29776.4	0.000000	0.000000	6.142760	0.078273	NaN	0.000000	0.001630	0.001701	28.1117	0.031389	0.002045	15.3497	-117.553	-165.404	0.041014	0.141234	-1.018407	-1.019670	0.078273	15.3497	-1.022231	-4.518249E+13	-1.732370E-15	NaN
115	1.000000	0.152536	7.36616e+06	-44389.1	955.818	-29776.4	0.000000	0.000000	6.152795	0.006794	NaN	0.000000	0.001617	0.001708	28.0808	0.074941	0.002136	35.08	71.3356	16.4723	0.079319	0.151161	-1.008369	-1.009743	0.006794	35.08	-1.008514	-2.953784E+13	-2.299995E-16	NaN
115	1.000000	0.162515	7.36616e+06	-44389.1	955.818	-29776.4	0.000000	0.000000	6.162777	0.067265	NaN	0.000000	0.001649	0.001680	28.0875	0.056467	0.001996	28.2953	-38.3445	-168.803	0.036571	0.161199	-0.998389	-0.999705	0.067265	28.2953	-1.000172	-2.280772E+13	-2.949209E-15	NaN
115	1.000000	0.172523	7.36616e+06	-44389.1	955.818	-29776.4	0.000000	0.000000	6.172780	-0.033861	NaN	0.000000	0.001637	0.001704	28.1259	0.041618	0.002054	20.2652	-100.574	15.2174	-0.004689	0.171178	-0.988382	-0.989727	-0.033861	20.2652	-0.987129	-1.522083E+13	2.224673E-15	NaN
115	1.000000	0.182538	7.36616e+06	-44389.1	955.817	-29776.4	0.000000	0.000000	6.182797	0.005395	NaN	0.000000	0.001634	0.001695	28.1123	0.051658	0.001964	26.3026	95.271	-163.252	-0.005805	0.181290	-0.978366	-0.979614	0.005395	26.3026	-0.978520	-1.165400E+13	-4.629626E-16	NaN
115	1.000000	0.192535	7.36616e+06	-44389.1	955.818	-29776.4	0.000000	0.000000	6.192796	0.056380	NaN	0.000000	0.001620	0.001655	28.0801	0.056792	0.002020	28.1136	42.7156	18.033	0.033987	0.191217	-0.968370	-0.969688	0.056380	28.1136	-0.969874	-8.911744E+12	-6.326516E-15	NaN
115	1.000000	0.202541	7.36616e+06	-44389.1	955.819	-29776.4	0.000000	0.000000	6.202801	0.019299	NaN	0.000000	0.001646	0.001682	28.0858	0.118510	0.001977	59.9296	65.7106	-166.798	0.022782	0.201246	-0.958363	-0.959658	0.019299	59.9296	-0.958605	-6.281398E+12	-3.072472E-15	NaN
115	1.000000	0.212536	7.36616e+06	-44389.1	955.818	-29776.4	0.000000	0.000000	6.212795	0.009638	NaN	0.000000	0.001664	0.001686	28.1257	0.124789	0.001986	62.8345	-104.967	14.2297	0.089549	0.211146	-0.948368	-0.949759	0.009638	62.8345	-0.948484	-4.587490E+12	-2.100888E-15	NaN
115	1.000000	0.222555	7.36616e+06	-44389.1	955.818	-29776.4	0.000000	0.000000	6.222816	0.045289	NaN	0.000000	0.001650	0.001685	28.1131	0.093065	0.002004	46.4407	153.642	-165.143	-0.009187	0.221230	-0.938350	-0.939675	0.045289	46.4407	-0.939081	-3.425604E+12	-1.322068E-14	NaN
115	1.000000	0.232580	7.36616e+06	-44389.1	955.819	-29776.4	0.000000	0.000000	6.232843	0.101555	NaN	0.000000	0.001619	0.001669	28.0809	0.052217	0.001993	26.1953	-175.407	18.3626	0.034792	0.231206	-0.928324	-0.929698	0.101555	26.1953	-0.931232	-2.684257E+12	-3.783356E-14	NaN
115	1.000000	0.242597	7.36616e+06	-44389.1	955.818	-29776.4	0.000000	0.000000	6.242856	0.021752	NaN	0.000000	0.001639	0.001682	28.0862	0.037667	0.001983	18.9971	-40.9378	-164.516	-0.049516	0.241224	-0.918308	-0.919680	0.021752	18.9971	-0.919167	-1.844818E+12	-1.179106E-14	NaN
115	1.000000	0.252579	7.36616e+06	-44389.1	955.819	-29776.4	0.000000	0.000000	6.252839	0.008785	NaN	0.000000	0.001624	0.001718	28.1258	0.046220	0.001979	23.3496	132.721	12.5059	0.016959	0.251181	-0.908325	-0.909723	0.008785	23.3496	-0.908607	-1.328464E+12	-6.612997E-15	NaN
115	1.000000	0.262579	7.36616e+06	-44389.1	955.819	-29776.4	0.000000	0.000000	6.262837	-0.018098	NaN	0.000000	0.001626	0.001697	28.1128	0.036937	0.002050	18.0199	119.451	-162.57	0.093212	0.261278	-0.898325	-0.899627	-0.018098	18.0199	-0.897572	-9.424433E+11	1.920319E-14	NaN
115	1.000000	0.272593	7.36616e+06	-44389.1	955.818	-29776.4	0.000000	0.000000	6.272852	0.008229	NaN	0.000000	0.001635	0.001675	28.0807	0.029199	0.002109	13.8464	-140.576	15.406	-0.000899	0.271274	-0.888312	-0.889630	0.008229	13.8464	-0.888757	-7.163374E+11	-1.148813E-14	NaN
115	1.000000	0.282589	7.36616e+06	-44389.1	955.818	-29776.4	0.000000	0.000000	6.282851	0.080924	NaN	0.000000	0.001676	0.001689	28.085	0.148092	0.002112	70.1188	35.4728	-167.863	0.013815	0.281290	-0.878315	-0.879614	0.080924	70.1188	-0.879181	-5.316540E+11	-1.522125E-13	NaN
115	1.000000	0.292603	7.36616e+06	-44389.1	955.818	-29776.4	0.000000	0.000000	6.292864	0.050836	NaN	0.000000	0.001620	0.001733	28.1249	0.030371	0.002047	14.8366	-74.238	15.15	0.044980	0.291242	-0.868301	-0.869662	0.050836	14.8366	-0.870871	-4.104189E+11	-1.238644E-13	NaN
115	1.000000	0.302590	7.36616e+06	-44389.1	955.819	-29776.4	0.000000	0.000000	6.302849	0.001331	NaN	0.000000	0.001650	0.001704	28.1133	0.112383	0.001917	58.612	-46.2167	-167.451	-0.030000	0.301299	-0.858315	-0.859605	0.001331	58.612	-0.858332	-2.776759E+11	-4.794985E-15	NaN
115	1.000000	0.312606	7.36616e+06	-44389.1	955.819	-29776.4	0.000000	0.000000	6.312865	-0.001596	NaN	0.000000	0.001669	0.001718	28.0802	0.074794	0.001929	38.7774	170.463	15.4543	0.063267	0.311304	-0.848298	-0.849600	-0.001596	38.7774	-0.848267	-2.028948E+11	7.868476E-15	NaN
115	1.000000	0.322595	7.36616e+06	-44389.1	955.817	-29776.4	0.000000	0.000000	6.322853	-0.015823	NaN	0.000000	0.001655	0.001678	28.0854	0.055005	0.001985	27.7104	-123.291	-166.434	0.036730	0.321264	-0.838309	-0.839640	-0.015823	27.7104	-0.837881	-1.467522E+11	1.078236E-13	NaN
115	1.000000	0.332586	7.36616e+06	-44389.1	955.818	-29776.4	0.000000	0.000000	6.332846	0.017436	NaN	0.000000	0.001614	0.001687	28.1244	0.016207	0.001958	8.275497	166.047	13.1451	0.038065	0.331278	-0.828318	-0.829626	0.017436	8.275497	-0.829898	-1.143951E+11	-1.524148E-13	NaN
115	1.000000	0.342613	7.36616e+06	-44389.1	955.818	-29776.4	0.000000	0.000000	6.342872	0.000272	NaN	0.000000	0.001637	0.001677	28.1127	0.041580	0.001933	21.5077	162.732	-164.467	0.019515	0.341354	-0.818292	-0.819550	0.000272	21.5077	-0.818301	-7.964758E+10	-3.419791E-15	NaN
115	1.000000	0.352618	7.36616e+06	-44389.1	955.818	-29776.4	0.000000	0.000000	6.352875	-0.050206	NaN	0.000000	0.001591	0.001694	28.0784	0.071986	0.001931	37.2785	-157.232	19.092	-0.012106	0.351231	-0.808286	-0.809673	-0.050206	37.2785	-0.807276	-5.644348E+10	8.894838E-13	NaN
115	1.000000	0.362632	7.36616e+06	-44389.1	955.819	-29776.4	0.000000	0.000000	6.362891	0.020724	NaN	0.000000	0.001601	0.001717	28.0845	0.013523	0.002103	6.431069	103.078	-166.323	0.002936	0.361358	-0.798273	-0.799546	0.020724	6.431069	-0.800690	-4.594348E+10	-4.510700E-13	NaN
115	1.000000	0.372634	7.36616e+06	-44389.1	955.818	-29776.4	0.000000	0.000000	6.372896	0.070252	NaN	0.000000	0.001635	0.001687	28.1229	0.168038	0.002041	82.3325	175.354	13.0284	0.031405	0.371246	-0.788271	-0.789658	0.070252	82.3325	-0.788911	-3.178972E+10	-2.209912E-12	NaN
115	1.000000	0.382645	7.36616e+06	-44389.1	955.819	-29776.4	0.000000	0.000000	6.382907	0.075024	NaN	0.000000	0.001661	0.001663	28.1133	0.014334	0.002060	6.956977	97.7069	-162.642	0.043527	0.381311	-0.778259	-0.779594	0.075024	6.956977	-0.786347	-2.934049E+10	-2.557021E-12	NaN
115	1.000000	0.392627	7.36616e+06	-44389.1	955.819	-29776.4	0.000000	0.000000	6.392888	0.061252	NaN	0.000000	0.001647	0.001666	28.0808	0.058097	0.002006	28.9553	69.9316	15.4093	-0.011777	0.391274	-0.768277	-0.769631	0.061252	28.9553	-0.769864	-1.751681E+10	-3.496781E-12	NaN
115	1.000000	0.402631	7.36616e+06	-44389.1	955.818	-29776.4	0.000000	0.000000	6.402890	-0.003922	NaN	0.000000	0.001615	0.001688	28.0848	0.095719	0.001801	53.1365	-178.262	-164.4	0.045664	0.401319	-0.758273	-0.759586	-0.003922	53.1365	-0.758218	-1.216354E+10	3.224674E-13	NaN
115	1.000000	0.412644	7.36616e+06	-44389.1	955.818	-29776.4	0.000000	0.000000	6.412903	0.001422	NaN	0.000000	0.001632	0.001703	28.1243	0.036628	0.002112	17.3449	55.6029	14.4286	-0.025541	0.411243	-0.748261	-0.749662	0.001422	17.3449	-0.748322	-8.920344E+9	-1.594644E-13	NaN
115	1.000000	0.422659	7.36616e+06	-44389.1	955.818	-29776.4	0.000000	0.000000	6.422920	0.035332	NaN	0.000000	0.001643	0.001689	28.1128	0.079943	0.002028	39.4281	61.7079	-164.771	0.054904	0.421321	-0.738245	-0.739583	0.035332	39.4281	-0.738917	-6.642080E+9	-5.319479E-12	NaN
115	1.000000	0.432671	7.36616e+06	-44389.1	955.818	-29776.4	0.000000	0.000000	6.432931	0.027341	NaN	0.000000	0.001651	0.001686	28.0824	0.067112	0.001975	33.9757	-0.173835	11.2002	-0.004146	0.431323	-0.728234	-0.729581	0.027341	33.9757	-0.728837	-4.841286E+9	-5.647445E-12	NaN
115	1.000000	0.442638	7.36616e+06	-44389.1	955.818	-29776.4	0.000000	0.000000	6.442893	-0.084046	NaN	0.000000	0.001607	0.001684	28.0837	0.117799	0.001944	60.6104	159.896	-165.596	-0.119323	0.441381	-0.718267	-0.719523	-0.084046	60.6104	-0.717227	-3.362380E+9	2.499587E-11	NaN
115	1.000000	0.452683	7.36616e+06	-44389.1	955.818	-29776.4	0.000000	0.000000	6.452944	0.061460	NaN	0.000000	0.001607	0.001710	28.1243	0.058562	0.001951	30.0229	-1.108449	13.277	0.104628	0.451283	-0.708222	-0.709621	0.061460	30.0229	-0.709757	-2.659071E+9	-2.311319E-11	NaN
115	1.000000	0.462686	7.36616e+06	-44389.1	955.819	-29776.4	0.000000	0.000000	6.462947	0.053799	NaN	0.000000	0.001630	0.001684	28.1142	0.122479	0.002010	60.9268	64.1293	-162.556	-0.010981	0.461351	-0.698218	-0.699553	0.053799	60.9268	-0.698880	-1.889042E+9	-2.847935E-11	NaN
115	1.000000	0.472668	7.36616e+06	-44389.1	955.818	-29776.4	0.000000	0.000000	6.472925	-0.041931	NaN	0.000000	0.001620	0.001715	28.0833	0.067320	0.002108	31.9416	-125.431	18.4744	0.046691	0.471326	-0.688237	-0.689578	-0.041931	31.9416	-0.687252	-1.310277E+9	3.200187E-11	NaN
115	1.000000	0.482653	7.36616e+06	-44389.1	955.819	-29776.4	0.000000	0.000000	6.482911	-0.021116	NaN	0.000000	0.001619	0.001710	28.0858	0.089472	0.002069	43.2543	24.3206	-162.832	-0.029037	0.481383	-0.678252	-0.679521	-0.021116	43.2543	-0.677885	-9.756253E+8	2.164313E-11	NaN
115	1.000000	0.492682	7.36616e+06	-44389.1	955.817	-29776.4	0.000000	0.000000	6.492941	-0.007060	NaN	0.000000	0.001594	0.001731	28.1248	0.074980	0.002116	35.4284	-65.5074	19.0141	-0.023122	0.491375	-0.668222	-0.669529	-0.007060	35.4284	-0.668073	-7.161644E+8	9.858068E-12	NaN
115	1.000000	0.502717	7.36616e+06	-44389.1	955.818	-29776.4	0.000000	0.000000	6.502976	0.002302	NaN	0.000000	0.001616	0.001731	28.1146	0.104410	0.002082	50.1525	-157.68	-166.831	0.054844	0.501391	-0.658187	-0.659514	0.002302	50.1525	-0.658222	-5.249358E+8	-4.385836E-12	NaN
115	1.000000	0.512711	7.36616e+06	-44389.1	955.818	-29776.4	0.000000	0.000000	6.512969	-0.030555	NaN	0.000000	0.001598	0.001686	28.0811	0.059517	0.001957	30.4126	-72.9433	17.2729	0.026124	0.511310	-0.648193	-0.649594	-0.030555	30.4126	-0.647439	-3.735349E+8	8.180089E-11	NaN
115	1.000000	0.522691	7.36616e+06	-44389.1	955.818	-29776.4	0.000000	0.000000	6.522950	0.003009	NaN	0.000000	0.001604	0.001699	28.0849	0.048400	0.002081	23.2593	-57.318	-162.396	0.083688	0.521383	-0.638213	-0.639521	0.003009	23.2593	-0.638310	-2.799668E+8	-1.074651E-11	NaN
115	1.000000	0.532672	7.36616e+06	-44389.1	955.818	-29776.4	0.000000	0.000000	6.532932	0.031225	NaN	0.000000	0.001619	0.001719	28.1235	0.087990	0.001990	44.215	65.941	13.0942	-0.028073	0.531294	-0.628232	-0.629610	0.031225	44.215	-0.628762	-2.070241E+8	-1.508290E-10	NaN
115	1.000000	0.542710	7.36616e+06	-44389.1	955.819	-29776.4	0.000000	0.000000	6.542970	0.029099	NaN	0.000000	0.001615	0.001723	28.1146	0.044744	0.002015	22.2101	128.269	-162.871	0.037575	0.541390	-0.618194	-0.619514	0.029099	22.2101	-0.619177	-1.528688E+8	-1.903555E-10	NaN
115	1.000000	0.552716	7.36616e+06	-44389.1	955.818	-29776.4	0.000000	0.000000	6.552976	0.032195	NaN	0.000000	0.001621	0.001723	28.082	0.101423	0.001880	53.9621	-67.5506	14.9958	-0.075633	0.551352	-0.608188	-0.609552	0.032195	53.9621	-0.608636	-1.094826E+8	-2.940672E-10	NaN
115	1.000000	0.562707	7.36616e+06	-44389.1	955.818	-29776.4	0.000000	0.000000	6.562965	-0.012857	NaN	0.000000	0.001608	0.001705	28.0852	0.038051	0.001972	19.2911	36.562	-166.422	-0.020301	0.561398	-0.598198	-0.599507	-0.012857	19.2911	-0.597698	-7.740175E+7	1.661107E-10	NaN
115	1.000000	0.572718	7.36616e+06	-44389.1	955.819	-29776.4	0.000000	0.000000	6.572978	0.013449	NaN	0.000000	0.001644	0.001721	28.123	0.125441	0.002112	59.3861	121.991	17.4639	0.010007	0.571403	-0.588186	-0.589502	0.013449	59.3861	-0.588356	-5.754376E+7	-2.337103E-10	NaN
115	1.000000	0.582716	7.36616e+06	-44389.1	955.819	-29776.4	0.000000	0.000000	6.582976	0.035481	NaN	0.000000	0.001616	0.001716	28.1133	0.025621	0.001961	13.0639	-86.4949	-163.983	0.026053	0.581427	-0.578189	-0.579477	0.035481	13.0639	-0.580226	-4.444682E+7	-7.982757E-10	NaN
115	1.000000	0.592738	7.36616e+06	-44389.1	955.819	-29776.4	0.000000	0.000000	6.592998	0.029435	NaN	0.000000	0.001641	0.001707	28.0793	0.064529	0.001951	33.0807	152.261	16.4132	0.006663	0.591363	-0.568166	-0.569541	0.029435	33.0807	-0.568833	-3.093940E+7	-9.513612E-10	NaN
115	1.000000	0.602690	7.36616e+06	-44389.1	955.818	-29776.4	0.000000	0.000000	6.602947	-0.040382	NaN	0.000000	0.001621	0.001735	28.0838	0.020788	0.002062	10.0814	-58.5696	-162.29	0.006895	0.601443	-0.558215	-0.559461	-0.040382	10.0814	-0.555210	-2.004941E+7	2.014110E-9	NaN
115	1.000000	0.612732	7.36616e+06	-44389.1	955.818	-29776.4	0.000000	0.000000	6.612991	0.000236	NaN	0.000000	0.001570	0.001716	28.1221	0.142733	0.001969	72.4785	107.748	13.6897	0.081281	0.611376	-0.548173	-0.549528	0.000236	72.4785	-0.548175	-1.602050E+7	-1.473450E-11	NaN
115	1.000000	0.622739	7.36616e+06	-44389.1	955.818	-29776.4	0.000000	0.000000	6.623001	0.084744	NaN	0.000000	0.001598	0.001705	28.114	0.070971	0.001980	35.8396	-15.5531	-164.629	0.048331	0.621442	-0.538166	-0.539462	0.084744	35.8396	-0.539939	-1.231721E+7	-6.880093E-9	NaN
115	1.000000	0.632745	7.36616e+06	-44389.1	955.819	-29776.4	0.000000	0.000000	6.633003	-0.017976	NaN	0.000000	0.001602	0.001727	28.0828	0.038391	0.001940	19.7923	-152.165	13.4876	-0.032216	0.631372	-0.528160	-0.529533	-0.017976	19.7923	-0.527478	-8.27085e+06	2.173389E-9	NaN
115	1.000000	0.642727	7.36616e+06	-44389.1	955.818	-29776.4	0.000000	0.000000	6.642986	-0.002390	NaN	0.000000	0.001572	0.001720	28.0841	0.082397	0.002105	39.1427	160.76	-165.449	-0.018703	0.641441	-0.518178	-0.519464	-0.002390	39.1427	-0.518132	-6.13213e+06	3.897104E-10	NaN
115	1.000000	0.652753	7.36616e+06	-44389.1	955.82	-29776.4	0.000000	0.000000	6.653014	0.032050	NaN	0.000000	0.001586	0.001762	28.123	0.047545	0.001913	24.8543	-155.499	17.7478	0.073703	0.651406	-0.508151	-0.509498	0.032050	24.8543	-0.509118	-4.59339e+06	-6.977448E-9	NaN
115	1.000000	0.662768	7.36616e+06	-44389.1	955.818	-29776.4	0.000000	0.000000	6.663027	0.017337	NaN	0.000000	0.001574	0.001730	28.1143	0.086313	0.002046	42.1774	-113.505	-166.296	0.052645	0.661430	-0.498137	-0.499474	0.017337	42.1774	-0.498445	-3.26079e+06	-5.316854E-9	NaN
115	1.000000	0.672767	7.36617e+06	-44389.1	955.819	-29776.4	0.000000	0.000000	6.673026	-0.000847	NaN	0.000000	0.001616	0.001724	28.0801	0.061224	0.001858	32.954	-3.016205	11.0738	-0.059150	0.671389	-0.488137	-0.489515	-0.000847	32.954	-0.488118	-2.33929e+06	3.622317E-10	NaN
115	1.000000	0.682747	7.36617e+06	-44389.1	955.819	-29776.4	0.000000	0.000000	6.683005	-0.021373	NaN	0.000000	0.001589	0.001708	28.0829	0.082690	0.002032	40.695	86.5435	-168.269	-0.067052	0.681462	-0.478157	-0.479443	-0.021373	40.695	-0.477763	-1.67575e+06	1.275454E-8	NaN
115	1.000000	0.692794	7.36617e+06	-44389.1	955.819	-29776.4	0.000000	0.000000	6.693056	0.088205	NaN	0.000000	0.001614	0.001723	28.122	0.070961	0.002152	32.9694	-47.0672	16.0971	0.039271	0.691367	-0.468111	-0.469537	0.088205	32.9694	-0.470117	-1.30934e+06	-6.736615E-8	NaN
115	1.000000	0.702759	7.36617e+06	-44389.1	955.818	-29776.4	0.000000	0.000000	6.703018	0.000611	NaN	0.000000	0.001612	0.001710	28.1145	0.056277	0.002014	27.9418	-81.4502	-161.49	0.040350	0.701432	-0.458145	-0.459472	0.000611	27.9418	-0.458162	-889570	-6.865069E-10	NaN
115	1.000000	0.712780	7.36617e+06	-44389.1	955.819	-29776.4	0.000000	0.000000	6.713041	0.039359	NaN	0.000000	0.001615	0.001719	28.0824	0.091453	0.001978	46.2419	95.3205	15.9071	0.085914	0.711383	-0.448124	-0.449521	0.039359	46.2419	-0.448763	-656017	-5.999694E-8	NaN
115	1.000000	0.722780	7.36617e+06	-44389.1	955.819	-29776.4	0.000000	0.000000	6.723038	-0.003494	NaN	0.000000	0.001637	0.001728	28.0852	0.035671	0.002013	17.7229	18.1212	-160.904	0.022661	0.721490	-0.438125	-0.439414	-0.003494	17.7229	-0.437977	-462171	7.559442E-9	NaN
115	1.000000	0.732786	7.36617e+06	-44389.1	955.819	-29776.4	0.000000	0.000000	6.733045	0.018103	NaN	0.000000	0.001601	0.001732	28.1241	0.019604	0.002052	9.554685	21.0412	13.4937	0.042610	0.731413	-0.428119	-0.429491	0.018103	9.554685	-0.429540	-351194	-5.154712E-8	NaN
115	1.000000	0.742783	7.36617e+06	-44389.1	955.818	-29776.4	0.000000	0.000000	6.743042	-0.002574	NaN	0.000000	0.001642	0.001721	28.1157	0.072252	0.002060	35.0678	-177.588	-164.779	0.033560	0.741486	-0.418121	-0.419419	-0.002574	35.0678	-0.418066	-241537	1.065849E-8	NaN
115	1.000000	0.752787	7.36617e+06	-44389.1	955.818	-29776.4	0.000000	0.000000	6.753044	-0.046432	NaN	0.000000	0.001630	0.001725	28.0814	0.091765	0.001994	46.0123	-95.5282	15.69	-0.012123	0.751466	-0.408117	-0.409439	-0.046432	46.0123	-0.407361	-170158	2.728736E-7	NaN
115	1.000000	0.762793	7.36617e+06	-44389.1	955.819	-29776.4	0.000000	0.000000	6.763050	-0.036815	NaN	0.000000	0.001619	0.001709	28.0845	0.067288	0.001957	34.3864	100.707	-167.007	-0.034996	0.761438	-0.398112	-0.399466	-0.036815	34.3864	-0.397309	-122349	3.009041E-7	NaN
115	1.000000	0.772760	7.36617e+06	-44389.1	955.818	-29776.4	0.000000	0.000000	6.773018	-0.007110	NaN	0.000000	0.001613	0.001690	28.123	0.063112	0.001954	32.3061	-14.1053	17.1717	-0.023434	0.771436	-0.388145	-0.389468	-0.007110	32.3061	-0.387980	-90002.7	7.899818E-8	NaN
115	1.000000	0.782762	7.36617e+06	-44389.1	955.82	-29776.4	0.000000	0.000000	6.783023	0.050369	NaN	0.000000	0.001604	0.001668	28.1162	0.097855	0.002040	47.9731	-122.143	-165.069	-0.005382	0.781494	-0.378143	-0.379410	0.050369	47.9731	-0.378930	-66762.3	-7.544592E-7	NaN
115	1.000000	0.792813	7.36617e+06	-44389.1	955.819	-29776.4	0.000000	0.000000	6.793074	0.054813	NaN	0.000000	0.001634	0.001724	28.0828	0.113042	0.001999	56.5456	-69.9299	20.4785	-0.041630	0.791407	-0.368092	-0.369497	0.054813	56.5456	-0.368819	-47765.1	-1.147549E-6	NaN
115	1.000000	0.802796	7.36617e+06	-44389.1	955.818	-29776.4	0.000000	0.000000	6.803056	0.010067	NaN	0.000000	0.001613	0.001751	28.0854	0.052852	0.002050	25.7874	113.52	-163.91	0.024151	0.801521	-0.358108	-0.359384	0.010067	25.7874	-0.358401	-33784.8	-2.979696E-7	NaN
115	1.000000	0.812834	7.36617e+06	-44389.1	955.819	-29776.4	0.000000	0.000000	6.813096	0.085796	NaN	0.000000	0.001644	0.001705	28.1247	0.024723	0.002026	12.2039	-66.767	16.8973	0.029568	0.811486	-0.348071	-0.349419	0.085796	12.2039	-0.353343	-28542.6	-3.005910E-6	NaN
115	1.000000	0.822811	7.36617e+06	-44389.1	955.818	-29776.4	0.000000	0.000000	6.823070	0.003998	NaN	0.000000	0.001619	0.001743	28.116	0.057491	0.002007	28.6508	53.3338	-166.376	0.088270	0.821540	-0.338094	-0.339364	0.003998	28.6508	-0.338198	-17190.3	-2.325558E-7	NaN
115	1.000000	0.832821	7.36617e+06	-44389.1	955.818	-29776.4	0.000000	0.000000	6.833081	0.042475	NaN	0.000000	0.001586	0.001735	28.0814	0.141871	0.001988	71.363	43.4995	16.998	0.024350	0.831487	-0.328084	-0.329417	0.042475	71.363	-0.328530	-12414.1	-3.421483E-6	NaN
115	1.000000	0.842815	7.36617e+06	-44389.1	955.819	-29776.4	0.000000	0.000000	6.843076	0.039968	NaN	0.000000	0.001572	0.001727	28.0835	0.033970	0.001931	17.5935	69.8731	-165.615	-0.043510	0.841534	-0.318089	-0.319370	0.039968	17.5935	-0.319793	-9238.2	-4.326380E-6	NaN
115	1.000000	0.852844	7.36617e+06	-44389.1	955.818	-29776.4	0.000000	0.000000	6.853101	-0.043952	NaN	0.000000	0.001559	0.001723	28.1211	0.021470	0.002049	10.4804	143.349	14.9765	-0.048871	0.851448	-0.308061	-0.309456	-0.043952	10.4804	-0.304915	-5567.99	7.893748E-6	NaN
115	1.000000	0.862856	7.36617e+06	-44389.1	955.817	-29776.4	0.000000	0.000000	6.863112	-0.072897	NaN	0.000000	0.001641	0.001751	28.1157	0.088091	0.002148	41.0097	64.6519	-162.228	-0.070206	0.861505	-0.298048	-0.299400	-0.072897	41.0097	-0.296715	-4204.17	1.733928E-5	NaN
115	1.000000	0.872844	7.36617e+06	-44389.1	955.818	-29776.4	0.000000	0.000000	6.873103	-0.015662	NaN	0.000000	0.001636	0.001727	28.0803	0.061936	0.002030	30.5068	-96.1617	16.0735	0.045693	0.871453	-0.288060	-0.289451	-0.015662	30.5068	-0.287675	-3079.22	5.086480E-6	NaN
115	1.000000	0.882819	7.36617e+06	-44389.1	955.818	-29776.4	0.000000	0.000000	6.883080	0.053124	NaN	0.000000	0.001600	0.001721	28.0829	0.069649	0.002043	34.0949	-35.8106	-166.469	0.147672	0.881517	-0.278085	-0.279387	0.053124	34.0949	-0.279254	-2299.92	-2.309800E-5	NaN
115	1.000000	0.892845	7.36617e+06	-44389.1	955.818	-29776.4	0.000000	0.000000	6.893104	-0.005769	NaN	0.000000	0.001638	0.001749	28.122	0.041783	0.002050	20.3846	-66.28	13.7189	-0.071759	0.891524	-0.268059	-0.269380	-0.005769	20.3846	-0.267847	-1544.49	3.735381E-6	NaN
115	1.000000	0.902829	7.36617e+06	-44389.1	955.818	-29776.4	0.000000	0.000000	6.903089	0.028696	NaN	0.000000	0.001614	0.001756	28.1156	0.006300	0.001999	3.151611	-125.995	-163.892	0.035061	0.901500	-0.258075	-0.259404	0.028696	3.151611	-0.264904	-1392.93	-2.060113E-5	NaN
115	1.000000	0.912860	7.36617e+06	-44389.1	955.818	-29776.4	0.000000	0.000000	6.913118	-0.019007	NaN	0.000000	0.001643	0.001731	28.0796	0.057768	0.001842	31.3537	-78.7948	15.5145	0.031491	0.911512	-0.248044	-0.249393	-0.019007	31.3537	-0.247590	-754.476	2.519280E-5	NaN
115	1.000000	0.922840	7.36617e+06	-44389.1	955.818	-29776.4	0.000000	0.000000	6.923100	0.011971	NaN	0.000000	0.001594	0.001745	28.0837	0.079766	0.001887	42.2807	80.6485	-166.107	0.035477	0.921558	-0.238064	-0.239347	0.011971	42.2807	-0.238277	-540.267	-2.215752E-5	NaN
115	1.000000	0.932848	7.36617e+06	-44389.1	955.819	-29776.4	0.000000	0.000000	6.933109	0.046426	NaN	0.000000	0.001582	0.001751	28.1209	0.031359	0.002069	15.1534	-108.634	14.0192	0.011457	0.931475	-0.228057	-0.229429	0.046426	15.1534	-0.230354	-405.614	-0.000114	NaN
115	1.000000	0.942884	7.36617e+06	-44389.1	955.818	-29776.4	0.000000	0.000000	6.943142	-0.009169	NaN	0.000000	0.001593	0.001698	28.1162	0.174318	0.002090	83.3981	133.241	-163.712	-0.005086	0.941542	-0.218021	-0.219362	-0.009169	83.3981	-0.217938	-257.446	3.561577E-5	NaN
115	1.000000	0.952876	7.36617e+06	-44389.1	955.818	-29776.4	0.000000	0.000000	6.953136	0.022110	NaN	0.000000	0.001602	0.001734	28.0819	0.038340	0.001887	20.3183	-61.2197	14.0803	0.088521	0.951492	-0.208028	-0.209412	0.022110	20.3183	-0.208845	-183.693	-0.000120	NaN
115	1.000000	0.962900	7.36617e+06	-44389.1	955.818	-29776.4	0.000000	0.000000	6.963161	0.041823	NaN	0.000000	0.001544	0.001719	28.0829	0.080593	0.002181	36.9484	-41.5635	-162.45	-0.006150	0.961534	-0.198004	-0.199370	0.041823	36.9484	-0.198853	-126.135	-0.000332	NaN
115	1.000000	0.972852	7.36617e+06	-44389.1	955.819	-29776.4	0.000000	0.000000	6.973111	-0.015021	NaN	0.000000	0.001554	0.001715	28.1213	0.084084	0.002011	41.8153	-94.1642	16.4545	0.058823	0.971576	-0.188052	-0.189328	-0.015021	41.8153	-0.187782	-82.5869	0.000182	NaN
115	1.000000	0.982873	7.36617e+06	-44389.1	955.819	-29776.4	0.000000	0.000000	6.983132	0.014825	NaN	0.000000	0.001612	0.001718	28.1174	0.042550	0.001989	21.398	-144.12	-164.934	-0.010529	0.981605	-0.178032	-0.179299	0.014825	21.398	-0.178551	-57.6482	-0.000257	NaN
115	1.000000	0.992868	7.36617e+06	-44389.1	955.819	-29776.4	0.000000	0.000000	6.993128	0.021224	NaN	0.000000	0.001587	0.001708	28.0809	0.036188	0.001914	18.9044	23.958	16.9198	0.032202	0.991514	-0.168036	-0.169390	0.021224	18.9044	-0.168878	-39.2745	-0.000540	NaN
115	1.000000	1.002909	7.36617e+06	-44389.1	955.819	-29776.4	0.000000	0.000000	7.003169	0.036728	NaN	0.000000	0.001575	0.001740	28.0841	0.120751	0.002056	58.7336	-100.417	-163.372	0.081497	1.001592	-0.157996	-0.159312	0.036728	58.7336	-0.158465	-25.7424	-0.001427	NaN
115	1.000000	1.012845	7.36617e+06	-44389.1	955.818	-29776.4	0.000000	0.000000	7.013103	-0.013259	NaN	0.000000	0.001605	0.001756	28.1215	0.028413	0.002036	13.9563	99.0363	14.6288	0.014582	1.011531	-0.148059	-0.149373	-0.013259	13.9563	-0.147347	-16.1971	0.000819	NaN
115	1.000000	1.022929	7.36617e+06	-44389.1	955.819	-29776.4	0.000000	0.000000	7.023188	0.009593	NaN	0.000000	0.001596	0.001731	28.1181	0.033948	0.002100	16.1685	-106.224	-164.384	0.027330	1.021590	-0.137975	-0.139315	0.009593	16.1685	-0.138420	-11.0465	-0.000868	NaN
115	1.000000	1.032902	7.36617e+06	-44389.1	955.819	-29776.4	0.000000	0.000000	7.033163	0.060074	NaN	0.000000	0.001588	0.001766	28.0832	0.149275	0.002054	72.6677	132.308	15.8063	0.102640	1.031550	-0.128002	-0.129355	0.060074	72.6677	-0.128622	-7.164514	-0.008385	NaN
115	1.000000	1.042894	7.36617e+06	-44389.1	955.818	-29776.4	0.000000	0.000000	7.043154	0.022892	NaN	0.000000	0.001602	0.001777	28.0838	0.036775	0.002099	17.5226	-161.563	-165.804	0.024237	1.041587	-0.118010	-0.119318	0.022892	17.5226	-0.118990	-4.609522	-0.004966	NaN
115	1.000000	1.052899	7.36617e+06	-44389.1	955.818	-29776.4	0.000000	0.000000	7.053159	0.024353	NaN	0.000000	0.001626	0.001779	28.1225	0.067078	0.002023	33.1539	-85.0911	13.4822	0.055989	1.051546	-0.108005	-0.109359	0.024353	33.1539	-0.108556	-2.801054	-0.008694	NaN
115	1.000000	1.062932	7.36617e+06	-44389.1	955.817	-29776.4	0.000000	0.000000	7.063195	0.090990	NaN	0.000000	0.001611	0.001803	28.1169	0.039841	0.002025	19.677	61.0275	-165.022	0.062316	1.061574	-0.097972	-0.099330	0.090990	19.677	-0.101441	-1.966004	-0.046281	NaN
115	1.000000	1.072902	7.36617e+06	-44389.1	955.818	-29776.4	0.000000	0.000000	7.073161	-0.006294	NaN	0.000000	0.001632	0.001793	28.0824	0.089781	0.001992	45.0735	-36.8474	16.7644	-0.021961	1.071538	-0.088002	-0.089367	-0.006294	45.0735	-0.087897	-0.964197	0.006528	NaN
115	1.000000	1.082912	7.36617e+06	-44389.1	955.819	-29776.4	0.000000	0.000000	7.083170	-0.021290	NaN	0.000000	0.001638	0.001765	28.0819	0.068824	0.001935	35.5707	-154.427	-165.351	0.044703	1.081570	-0.077992	-0.079335	-0.021290	35.5707	-0.077543	-0.536708	0.039668	NaN
115	1.000000	1.092896	7.36617e+06	-44389.1	955.818	-29776.4	0.000000	0.000000	7.093156	0.037300	NaN	0.000000	0.001668	0.001772	28.1212	0.083720	0.001850	45.2604	66.5831	14.5734	0.041770	1.091539	-0.068009	-0.069366	0.037300	45.2604	-0.068627	-0.313274	-0.119064	NaN
115	1.000000	1.102943	7.36617e+06	-44389.1	955.819	-29776.4	0.000000	0.000000	7.103206	0.100206	NaN	0.000000	0.001632	0.001749	28.1175	0.018934	0.001899	9.972125	58.6999	-162.746	0.100200	1.101597	-0.057961	-0.059307	0.100206	9.972125	-0.065498	-0.257250	-0.389527	NaN
115	1.000000	1.112944	7.36617e+06	-44389.1	955.818	-29776.4	0.000000	0.000000	7.113203	0.003751	NaN	0.000000	0.001644	0.001766	28.0819	0.080534	0.002010	40.062	-35.4527	20.6311	0.088164	1.111556	-0.047961	-0.049348	0.003751	40.062	-0.048031	-0.079524	-0.047166	NaN
115	1.000000	1.122934	7.36617e+06	-44389.1	955.819	-29776.4	0.000000	0.000000	7.123193	-0.007126	NaN	0.000000	0.001620	0.001723	28.0828	0.076690	0.001972	38.8845	-64.7593	-163.143	-0.017098	1.121642	-0.037970	-0.039262	-0.007126	38.8845	-0.037833	-0.038889	0.183238	NaN
115	1.000000	1.132928	7.36617e+06	-44389.1	955.819	-29776.4	0.000000	0.000000	7.133186	-0.023802	NaN	0.000000	0.001641	0.001682	28.1211	0.075727	0.002038	37.1492	-169.671	12.6349	0.029943	1.131603	-0.027976	-0.029302	-0.023802	37.1492	-0.027496	-0.019649	1.211378	NaN
115	1.000000	1.142958	7.36617e+06	-44389.1	955.818	-29776.4	0.000000	0.000000	7.143217	0.015500	NaN	0.000000	0.001652	0.001713	28.1164	0.039689	0.002130	18.6336	161.984	-166.608	-0.040795	1.141674	-0.017947	-0.019230	0.015500	18.6336	-0.018571	-0.011548	-1.342257	NaN
115	1.000000	1.152965	7.36617e+06	-44389.1	955.819	-29776.4	0.000000	0.000000	7.153226	0.046332	NaN	0.000000	0.001650	0.001692	28.0797	0.137222	0.001973	69.5405	44.3914	16.6359	0.051133	1.151582	-0.007939	-0.009322	0.046332	69.5405	-0.008439	-0.005488	-8.442589	NaN
115	1.000000	1.162950	7.36617e+06	-44389.1	955.82	-29776.4	0.000000	0.000000	7.163207	-0.037820	NaN	0.000000	0.001658	0.001724	28.0812	0.029169	0.001928	15.1323	2.963672	-164.347	-0.023192	1.161650	0.002045	0.000745	-0.037820	15.1323	0.003920	0.003169	-11.9351	245.6
115	1.000000	1.172951	7.36617e+06	-44389.1	955.819	-29776.4	0.000000	0.000000	7.173483	6.650293	NaN	0.000000	0.001630	0.001737	28.1195	6.703952	0.001744	3843.49	14.374	9.777556	6.359147	1.171513	0.012047	0.010609	6.650293	3843.49	0.010749	0.010026	663.322	35070.4
115	2.000000	1.177466	7.36617e+06	-44389.1	955.82	-29776.4	0.000000	0.000000	7.178182	11.1136	NaN	0.000000	0.001617	0.001736	28.1163	10.6284	0.001502	7077.19	3.442017	-170.95	9.884541	1.177175	0.016562	0.016271	11.1136	7077.19	0.015384	0.015801	703.339	51438.6
115	2.000000	1.179955	7.36617e+06	-44389.1	955.819	-29776.4	0.000000	0.000000	7.180753	13.1304	NaN	0.000000	0.001631	0.001752	28.0816	13.5225	0.001721	7858.32	3.590720	9.100749	11.7685	1.179641	0.019050	0.018736	13.1304	7858.32	0.017797	0.019198	683.939	51817
115	2.000000	1.182442	7.36617e+06	-44389.1	955.82	-29776.4	0.000000	0.000000	7.183505	19.5474	NaN	0.000000	0.001613	0.001772	28.0834	17.0504	0.001682	10138.6	2.716683	-174.081	18.2694	1.182161	0.021538	0.021257	19.5474	10138.6	0.020092	0.022687	861.625	61498.9
115	2.000000	1.184925	7.36617e+06	-44389.1	955.819	-29776.4	0.000000	0.000000	7.186127	22.9477	NaN	0.000000	0.001613	0.001763	28.1207	19.4783	0.001821	10693.6	3.374501	7.187247	21.4252	1.184578	0.024020	0.023674	22.9477	10693.6	0.022411	0.026473	866.822	60047.4
115	2.000000	1.187462	7.36617e+06	-44389.1	955.819	-29776.4	0.000000	0.000000	7.188887	28.37	NaN	0.000000	0.001631	0.001782	28.1166	22.5499	0.001818	12403.1	7.999328	-179.271	28.3699	1.187105	0.026558	0.026200	28.37	12403.1	0.024842	0.030730	923.213	64643.5
115	2.000000	1.189912	7.36617e+06	-44389.1	955.82	-29776.4	0.000000	0.000000	7.191503	32.4051	NaN	0.000000	0.001613	0.001797	28.08	24.7468	0.001697	14580	5.231357	1.715567	30.2939	1.189524	0.029007	0.028619	32.4051	14580	0.027340	0.035411	915.106	70788
115	2.000000	1.192417	7.36617e+06	-44389.1	955.82	-29776.4	0.000000	0.000000	7.194359	40.9484	NaN	0.000000	0.001658	0.001801	28.0815	27.9368	0.001748	15978.5	5.708086	-178.962	40.4212	1.192124	0.031512	0.031220	40.9484	15978.5	0.029590	0.039899	1026.31	73085.2
115	2.000000	1.194925	7.36617e+06	-44389.1	955.819	-29776.4	0.000000	0.000000	7.197079	46.1059	NaN	0.000000	0.001624	0.001774	28.1212	30.0826	0.001869	16094.5	7.994045	-0.797644	45.7307	1.194527	0.034020	0.033623	46.1059	16094.5	0.031872	0.044713	1031.15	69540.1
115	2.000000	1.197444	7.36617e+06	-44389.1	955.82	-29776.4	0.000000	0.000000	7.199815	51.3702	NaN	0.000000	0.001631	0.001768	28.1193	32.9025	0.001896	17351.3	8.758545	177.266	53.7563	1.197096	0.036540	0.036192	51.3702	17351.3	0.034319	0.050173	1023.87	70773.8
115	2.000000	1.199858	7.36617e+06	-44389.1	955.82	-29776.4	0.000000	0.000000	7.202651	61.653	NaN	0.000000	0.001634	0.001777	28.0841	34.5877	0.001854	18654.3	4.784132	1.211890	59.4663	1.199545	0.038954	0.038640	61.653	18654.3	0.036475	0.055236	1116.17	72517
115	2.000000	1.202373	7.36617e+06	-44389.1	955.819	-29776.4	0.000000	0.000000	7.205462	68.8556	NaN	0.000000	0.001656	0.001774	28.0838	36.9714	0.001802	20522.4	1.444720	-176.992	67.3534	1.202038	0.041468	0.041134	68.8556	20522.4	0.038952	0.061348	1122.37	75700.9
115	2.000000	1.204882	7.36617e+06	-44389.1	955.82	-29776.4	0.000000	0.000000	7.208527	82.3905	NaN	0.000000	0.001637	0.001781	28.1212	38.932	0.001734	22457.9	3.414505	1.290365	80.406	1.204546	0.043977	0.043642	82.3905	22457.9	0.041226	0.067234	1225.42	79130.9
115	2.000000	1.207343	7.36617e+06	-44389.1	955.82	-29776.4	0.000000	0.000000	7.211326	90.6042	NaN	0.000000	0.001612	0.001790	28.1188	41.1836	0.001682	24483	3.214049	179.609	88.7027	1.207080	0.046439	0.046176	90.6042	24483	0.043663	0.073838	1227.06	82318.4
115	2.000000	1.209856	7.36617e+06	-44389.1	955.819	-29776.4	0.000000	0.000000	7.214254	100.699	NaN	0.000000	0.001647	0.001791	28.0819	44.7511	0.001816	24642.4	4.268934	-1.813945	98.6333	1.209594	0.048951	0.048690	100.699	24642.4	0.045887	0.080124	1256.78	79537.7
115	2.000000	1.212382	7.36617e+06	-44389.1	955.819	-29776.4	0.000000	0.000000	7.217278	112.814	NaN	0.000000	0.001635	0.001766	28.0832	47.0722	0.001751	26884.3	4.903665	177.286	113.308	1.212029	0.051477	0.051125	112.814	26884.3	0.048330	0.087322	1291.93	83121.2
115	2.000000	1.214930	7.36617e+06	-44389.1	955.819	-29776.4	0.000000	0.000000	7.220442	127.794	NaN	0.000000	0.001615	0.001739	28.1202	47.6565	0.001781	26757.6	2.522562	0.666384	126.156	1.214535	0.054026	0.053630	127.794	26757.6	0.050444	0.093791	1362.54	79825.1
115	2.000000	1.217301	7.36617e+06	-44389.1	955.819	-29776.4	0.000000	0.000000	7.223169	136.45	NaN	0.000000	0.001608	0.001757	28.1191	50.5881	0.001750	28901	3.131786	178.182	132.383	1.217006	0.056397	0.056102	136.45	28901	0.052856	0.101444	1345.08	82903.6
115	2.000000	1.219817	7.36617e+06	-44389.1	955.819	-29776.4	0.000000	0.000000	7.226004	144.224	NaN	0.000000	0.001649	0.001743	28.0834	53.6339	0.001772	30261	4.692458	-3.136570	141.06	1.219419	0.058912	0.058515	144.224	30261	0.055338	0.109623	1315.64	83503.7
115	2.000000	1.222351	7.36617e+06	-44389.1	955.82	-29776.4	0.000000	0.000000	7.229010	155.701	NaN	0.000000	0.001642	0.001753	28.0841	56.9952	0.001927	29583.3	7.860254	174.866	154.707	1.221942	0.061447	0.061038	155.701	29583.3	0.057499	0.116994	1330.84	79020.1
115	2.000000	1.224867	7.36617e+06	-44389.1	955.819	-29776.4	0.000000	0.000000	7.231784	161.962	NaN	0.000000	0.001613	0.001729	28.1217	57.91	0.001822	31786.6	3.514405	-2.496160	159.921	1.224645	0.063963	0.063740	161.962	31786.6	0.060142	0.126317	1282.19	81712.3
115	2.000000	1.227401	7.36617e+06	-44389.1	955.82	-29776.4	0.000000	0.000000	7.235024	179.162	NaN	0.000000	0.001619	0.001740	28.1189	59.1764	0.001714	34518.7	3.537576	176.961	180.905	1.227003	0.066496	0.066098	179.162	34518.7	0.062603	0.135309	1324.09	85736.2
115	2.000000	1.229860	7.36617e+06	-44389.1	955.82	-29776.4	0.000000	0.000000	7.237900	189.287	NaN	0.000000	0.001600	0.001758	28.0817	61.2803	0.001698	36080.5	3.393868	-3.597389	187.662	1.229528	0.068956	0.068623	189.287	36080.5	0.065021	0.144426	1310.62	86740.6
115	2.000000	1.232235	7.36617e+06	-44389.1	955.82	-29776.4	0.000000	0.000000	7.240802	202.11	NaN	0.000000	0.001638	0.001733	28.0813	64.8339	0.001887	34362.8	4.138220	176.241	195.946	1.231954	0.071331	0.071049	202.11	34362.8	0.066920	0.151785	1331.56	80583.8
115	2.000000	1.234841	7.36617e+06	-44389.1	955.82	-29776.4	0.000000	0.000000	7.244104	219.055	NaN	0.000000	0.001635	0.001731	28.1192	66.2754	0.001771	37420.7	3.595811	-3.547075	215.94	1.234573	0.073937	0.073669	219.055	37420.7	0.069547	0.162248	1350.13	84878.1
115	2.000000	1.237325	7.36617e+06	-44389.1	955.82	-29776.4	0.000000	0.000000	7.247141	232.51	NaN	0.000000	0.001604	0.001733	28.1182	68.1045	0.001704	39977.4	1.555697	177.016	230.594	1.236921	0.076421	0.076017	232.51	39977.4	0.072059	0.172564	1347.38	87925.1
115	2.000000	1.239761	7.36617e+06	-44389.1	955.82	-29776.4	0.000000	0.000000	7.250222	248.193	NaN	0.000000	0.001607	0.001739	28.0824	72.2962	0.001761	41052.2	5.205455	-6.351209	244.296	1.239387	0.078857	0.078483	248.193	41052.2	0.074322	0.182115	1362.84	87889.5
115	2.000000	1.242434	7.36617e+06	-44389.1	955.82	-29776.4	0.000000	0.000000	7.253325	258.653	NaN	0.000000	0.001587	0.001708	28.0819	75.489	0.001802	41889.8	4.292199	174.741	263.033	1.241957	0.081530	0.081053	258.653	41889.8	0.076899	0.193277	1338.25	87054.5
115	2.000000	1.244875	7.36617e+06	-44389.1	955.82	-29776.4	0.000000	0.000000	7.256396	273.969	NaN	0.000000	0.001630	0.001746	28.1204	77.7947	0.001828	42548.2	4.754607	-5.859502	272.034	1.244391	0.083971	0.083487	273.969	42548.2	0.079142	0.203250	1347.94	86226.1
115	2.000000	1.247317	7.36617e+06	-44389.1	955.821	-29776.4	0.000000	0.000000	7.259673	294.291	NaN	0.000000	0.001613	0.001731	28.1182	78.9612	0.001901	41542.5	2.775713	176.969	292.212	1.246929	0.086413	0.086024	294.291	41542.5	0.081100	0.212148	1387.2	82403.8
115	2.000000	1.249825	7.36617e+06	-44389.1	955.82	-29776.4	0.000000	0.000000	7.262454	300.951	NaN	0.000000	0.001587	0.001749	28.0808	82.0049	0.001791	45784.8	2.984007	-5.110066	298.822	1.249560	0.088920	0.088656	300.951	45784.8	0.083990	0.225609	1333.95	88067.6
115	2.000000	1.252261	7.36617e+06	-44389.1	955.821	-29776.4	0.000000	0.000000	7.265846	324.206	NaN	0.000000	0.001646	0.001759	28.0811	84.9156	0.001713	49575	3.887114	174.038	319.995	1.251902	0.091357	0.090998	324.206	49575	0.086452	0.237376	1365.79	92964.6
115	2.000000	1.254797	7.36617e+06	-44389.1	955.82	-29776.4	0.000000	0.000000	7.269028	339.919	NaN	0.000000	0.001620	0.001746	28.1184	87.7881	0.001923	45644.4	6.748006	-8.239211	335.041	1.254451	0.093892	0.093547	339.919	45644.4	0.088307	0.246429	1379.38	84006.8
115	2.000000	1.257244	7.36617e+06	-44389.1	955.82	-29776.4	0.000000	0.000000	7.272329	360.699	NaN	0.000000	0.001610	0.001766	28.1186	89.0836	0.001756	50736.3	6.586807	170.979	356.176	1.256910	0.096340	0.096005	360.699	50736.3	0.091008	0.259891	1387.88	90927.7
115	2.000000	1.259758	7.36617e+06	-44389.1	955.821	-29776.4	0.000000	0.000000	7.275522	377.204	NaN	0.000000	0.001618	0.001737	28.0828	93.3723	0.001773	52657.9	5.896957	-8.704666	371.804	1.259383	0.098854	0.098479	377.204	52657.9	0.093481	0.272515	1384.16	92159.8
115	2.000000	1.262531	7.36617e+06	-44389.1	955.82	-29776.4	0.000000	0.000000	7.278517	382.613	NaN	0.000000	0.001616	0.001755	28.0819	97.5543	0.001889	51648.7	8.764079	168.894	395.936	1.262065	0.101627	0.101161	382.613	51648.7	0.096071	0.286029	1337.67	88232.2
115	2.000000	1.264855	7.36617e+06	-44389.1	955.821	-29776.4	0.000000	0.000000	7.281975	410.202	NaN	0.000000	0.001631	0.001715	28.1209	97.5276	0.001820	53590.7	5.069445	-7.989729	407.598	1.264374	0.103951	0.103470	410.202	53590.7	0.098210	0.297423	1379.19	89779.1
115	2.000000	1.267196	7.36617e+06	-44389.1	955.821	-29776.4	0.000000	0.000000	7.285309	434.363	NaN	0.000000	0.001704	0.001720	28.1206	99.5813	0.001811	54991.9	4.915654	171.856	428.863	1.266906	0.106292	0.106001	434.363	54991.9	0.100368	0.309128	1405.12	90365.6
115	2.000000	1.269766	7.36617e+06	-44389.1	955.82	-29776.4	0.000000	0.000000	7.288912	459.494	NaN	0.000000	0.001708	0.001716	28.082	101.636	0.001752	58012.1	5.925100	-8.934895	453.26	1.269383	0.108862	0.108478	459.494	58012.1	0.102921	0.323253	1421.47	93222.4
115	2.000000	1.272288	7.36617e+06	-44389.1	955.821	-29776.4	0.000000	0.000000	7.291831	469.144	NaN	0.000000	0.001740	0.001734	28.0826	104.735	0.001886	55547.4	-0.034659	176.626	468.445	1.272111	0.111384	0.111207	469.144	55547.4	0.105050	0.335254	1399.37	87649.6
115	2.000000	1.274310	7.36617e+06	-44389.1	955.821	-29776.4	0.000000	0.000000	7.294557	486.267	NaN	0.000000	0.001712	0.001764	28.082	105.644	0.001810	58377.6	2.379212	173.863	486.294	1.274023	0.113406	0.113118	486.267	58377.6	0.107159	0.347345	1399.95	90498