File: remote_trans/data/nanoindenter/0828-1/data/Data_2025-08-06,11h17m57s/2025-07-22_16-23-58_1_1034.txt
2025-07-22, 16:23:58, 1
Index	Phase	Displacement	Time	Pos X	Pos Y	Pos Z	Rot A	Rot B	Piezo Z	Force A	Force B	Gripper	Voltage A	Voltage B	Temperature	Amplitude force	Amplitude pos	Stiffness	Phase shift	Phase excitation	Force A raw	Displacement raw	HMax	HMax raw	Real Force	Real Stiffness	Contact Depth	Area	Hardness	Reduced Mod.
[#]	[#]	[um]	[s]	[um]	[um]	[um]	[m°]	[m°]	[um]	[uN]	[uN]	[V]	[V]	[V]	[°C]	[uN]	[um]	[N/m]	[°]	[°]	[uN]	[um]	[um]	[um]	[uN]	[N/m]	[um]	[um^2]	[MPa]	[MPa]
1034	1.000000	0.002830	7.37516e+06	-51839.1	1055.82	-29750.8	0.000000	0.000000	6.002854	-0.022907	NaN	0.000000	0.001572	0.001602	28.0838	0.058005	0.000926	62.6151	10.0903	-160.942	-0.059282	0.001511	-1.101582	-1.102901	-0.022907	62.6151	-1.101308	-5.219468E+14	4.388680E-17	NaN
1034	1.000000	0.012862	7.37516e+06	-51839.1	1055.82	-29750.8	0.000000	0.000000	6.012884	-0.056119	NaN	0.000000	0.001557	0.001587	28.0838	0.115942	0.001225	94.6159	1.471662	11.3111	-0.057416	0.011403	-1.091550	-1.093010	-0.056119	94.6159	-1.091105	-3.807620E+14	1.473872E-16	NaN
1034	1.000000	0.022726	7.37516e+06	-51839.1	1055.82	-29750.8	0.000000	0.000000	6.022750	-0.017033	NaN	0.000000	0.001553	0.001596	28.0839	0.053901	0.001845	29.2194	-116.395	-164.066	-0.038416	0.021416	-1.081686	-1.082996	-0.017033	29.2194	-1.081249	-2.807335E+14	6.067200E-17	NaN
1034	1.000000	0.032718	7.37516e+06	-51839.1	1055.82	-29750.8	0.000000	0.000000	6.032740	-0.065113	NaN	0.000000	0.001564	0.001594	28.0839	0.043501	0.001760	24.7146	60.8397	14.6014	-0.106717	0.031401	-1.071694	-1.073011	-0.065113	24.7146	-1.069718	-1.965198E+14	3.313283E-16	NaN
1034	1.000000	0.042752	7.37516e+06	-51839.1	1055.82	-29750.8	0.000000	0.000000	6.042777	0.004015	NaN	0.000000	0.001573	0.001586	28.0838	0.055074	0.002009	27.4187	176.886	-165.93	-0.029163	0.041436	-1.061660	-1.062976	0.004015	27.4187	-1.061770	-1.536766E+14	-2.612570E-17	NaN
1034	1.000000	0.052706	7.37516e+06	-51839.1	1055.82	-29750.8	0.000000	0.000000	6.052731	0.017567	NaN	0.000000	0.001573	0.001585	28.0836	0.146553	0.001980	74.0227	52.1446	15.1049	0.007844	0.051402	-1.051706	-1.053011	0.017567	74.0227	-1.051884	-1.131738E+14	-1.552243E-16	NaN
1034	1.000000	0.062727	7.37516e+06	-51839.1	1055.82	-29750.8	0.000000	0.000000	6.062750	-0.020317	NaN	0.000000	0.001588	0.001586	28.0839	0.065870	0.002080	31.6746	7.497290	-165.05	-0.055296	0.061422	-1.041686	-1.042990	-0.020317	31.6746	-1.041205	-8.131396E+13	2.498629E-16	NaN
1034	1.000000	0.072719	7.37516e+06	-51839.1	1055.82	-29750.8	0.000000	0.000000	6.072743	-0.026069	NaN	0.000000	0.001637	0.001590	28.084	0.071117	0.002083	34.1495	12.2334	17.9168	-0.039533	0.071374	-1.031693	-1.033038	-0.026069	34.1495	-1.031121	-5.950499E+13	4.381030E-16	NaN
1034	1.000000	0.082693	7.37516e+06	-51839.1	1055.82	-29750.8	0.000000	0.000000	6.082718	0.002963	NaN	0.000000	0.001669	0.001556	28.0842	0.073443	0.001885	38.9613	-174.824	-163.757	-0.024308	0.081406	-1.021719	-1.023006	0.002963	38.9613	-1.021776	-4.455052E+13	-6.651733E-17	NaN
1034	1.000000	0.092728	7.37516e+06	-51839.1	1055.82	-29750.8	0.000000	0.000000	6.092752	-0.018983	NaN	0.000000	0.001651	0.001531	28.0839	0.114553	0.001957	58.545	178.241	18.4718	-0.003995	0.091407	-1.011684	-1.013005	-0.018983	58.545	-1.011441	-3.234282E+13	5.869303E-16	NaN
1034	1.000000	0.102731	7.37516e+06	-51839.1	1055.82	-29750.8	0.000000	0.000000	6.102755	-0.028694	NaN	0.000000	0.001653	0.001583	28.0833	0.058921	0.001916	30.7595	39.7098	-162.11	-0.000203	0.101417	-1.001681	-1.002995	-0.028694	30.7595	-1.000982	-2.338751E+13	1.226890E-15	NaN
1034	1.000000	0.112738	7.37516e+06	-51839.1	1055.82	-29750.8	0.000000	0.000000	6.112760	-0.062629	NaN	0.000000	0.001636	0.001617	28.0829	0.038641	0.001998	19.3445	-14.51	16.1704	-0.067925	0.111420	-0.991674	-0.992992	-0.062629	19.3445	-0.989246	-1.625384E+13	3.853201E-15	NaN
1034	1.000000	0.122759	7.37516e+06	-51839.1	1055.82	-29750.8	0.000000	0.000000	6.122781	-0.084155	NaN	0.000000	0.001644	0.001646	28.0826	0.107201	0.001898	56.4916	20.6969	-163.508	-0.070428	0.121418	-0.981653	-0.982994	-0.084155	56.4916	-0.980536	-1.240588E+13	6.783452E-15	NaN
1034	1.000000	0.132780	7.37516e+06	-51839.1	1055.82	-29750.8	0.000000	0.000000	6.132804	-0.011011	NaN	0.000000	0.001653	0.001623	28.0827	0.051168	0.002022	25.3	101.169	13.9553	-0.005396	0.131389	-0.971632	-0.973024	-0.011011	25.3	-0.971306	-9.316744E+12	1.181813E-15	NaN
1034	1.000000	0.142794	7.37516e+06	-51839.1	1055.82	-29750.8	0.000000	0.000000	6.142817	-0.039786	NaN	0.000000	0.001680	0.001611	28.0827	0.015943	0.002121	7.515121	-111.329	-163.129	0.026549	0.141484	-0.961618	-0.962929	-0.039786	7.515121	-0.957648	-6.097581E+12	6.524843E-15	NaN
1034	1.000000	0.152771	7.37516e+06	-51839.1	1055.82	-29750.8	0.000000	0.000000	6.152792	-0.084058	NaN	0.000000	0.001653	0.001610	28.0829	0.148076	0.001878	78.8278	77.0019	13.2855	-0.064066	0.151363	-0.951641	-0.953050	-0.084058	78.8278	-0.950841	-4.935975E+12	1.702975E-14	NaN
1034	1.000000	0.162776	7.37516e+06	-51839.1	1055.82	-29750.8	0.000000	0.000000	6.162802	0.028936	NaN	0.000000	0.001630	0.001599	28.0823	0.061253	0.002075	29.5251	-113.838	-160.787	-0.027832	0.161435	-0.941636	-0.942978	0.028936	29.5251	-0.942371	-3.794205E+12	-7.626426E-15	NaN
1034	1.000000	0.172771	7.37516e+06	-51839.1	1055.82	-29750.8	0.000000	0.000000	6.172794	-0.039364	NaN	0.000000	0.001627	0.001589	28.0825	0.053519	0.002029	26.3732	-114.702	14.7842	-0.082874	0.171389	-0.931641	-0.933023	-0.039364	26.3732	-0.930522	-2.625677E+12	1.499200E-14	NaN
1034	1.000000	0.182790	7.37516e+06	-51839.1	1055.82	-29750.8	0.000000	0.000000	6.182812	-0.055974	NaN	0.000000	0.001655	0.001629	28.0828	0.148160	0.002104	70.4327	-122.441	-161.828	-0.083813	0.181484	-0.921623	-0.922928	-0.055974	70.4327	-0.921027	-1.954635E+12	2.863642E-14	NaN
1034	1.000000	0.192771	7.37516e+06	-51839.1	1055.82	-29750.8	0.000000	0.000000	6.192794	-0.038651	NaN	0.000000	0.001611	0.001619	28.0826	0.099967	0.001932	51.7486	-179.644	15.9373	-0.027489	0.191442	-0.911641	-0.912970	-0.038651	51.7486	-0.911081	-1.434715E+12	2.694001E-14	NaN
1034	1.000000	0.202811	7.37516e+06	-51839.1	1055.82	-29750.8	0.000000	0.000000	6.202836	0.026369	NaN	0.000000	0.001637	0.001628	28.0823	0.046061	0.002054	22.4261	67.5972	-168	-0.048075	0.201491	-0.901602	-0.902921	0.026369	22.4261	-0.902484	-1.098053E+12	-2.401454E-14	NaN
1034	1.000000	0.212794	7.37516e+06	-51839.1	1055.82	-29750.8	0.000000	0.000000	6.212817	-0.041702	NaN	0.000000	0.001655	0.001591	28.0825	0.102085	0.002050	49.7876	84.4702	15.4914	-0.008224	0.211424	-0.891618	-0.892988	-0.041702	49.7876	-0.890990	-7.678865E+11	5.430808E-14	NaN
1034	1.000000	0.222805	7.37516e+06	-51839.1	1055.82	-29750.8	0.000000	0.000000	6.222832	0.045727	NaN	0.000000	0.001587	0.001615	28.0825	0.016483	0.001809	9.109007	-38.8868	-166.439	0.077152	0.221536	-0.881607	-0.882876	0.045727	9.109007	-0.885372	-6.446833E+11	-7.092954E-14	NaN
1034	1.000000	0.232783	7.37516e+06	-51839.1	1055.82	-29750.8	0.000000	0.000000	6.232806	-0.025514	NaN	0.000000	0.001558	0.001626	28.0824	0.035677	0.002073	17.2065	-74.8016	13.3428	-0.085543	0.231416	-0.871630	-0.872996	-0.025514	17.2065	-0.870517	-4.059235E+11	6.285476E-14	NaN
1034	1.000000	0.242775	7.37516e+06	-51839.1	1055.82	-29750.8	0.000000	0.000000	6.242802	0.053886	NaN	0.000000	0.001575	0.001615	28.0837	0.068508	0.001998	34.2959	171.59	-164.267	0.013818	0.241503	-0.861637	-0.862909	0.053886	34.2959	-0.862815	-3.193192E+11	-1.687522E-13	NaN
1034	1.000000	0.252826	7.37516e+06	-51839.1	1055.82	-29750.8	0.000000	0.000000	6.252851	-0.008397	NaN	0.000000	0.001591	0.001590	28.0838	0.146489	0.001926	76.0398	-79.3515	15.2595	-0.008818	0.251382	-0.851586	-0.853030	-0.008397	76.0398	-0.851503	-2.244338E+11	3.741372E-14	NaN
1034	1.000000	0.262800	7.37516e+06	-51839.1	1055.82	-29750.8	0.000000	0.000000	6.262822	-0.074588	NaN	0.000000	0.001586	0.001579	28.0839	0.033641	0.002051	16.4001	-21.2177	-168.135	-0.100912	0.261467	-0.841612	-0.842945	-0.074588	16.4001	-0.838201	-1.482242E+11	5.032131E-13	NaN
1034	1.000000	0.272796	7.37516e+06	-51839.1	1055.82	-29750.8	0.000000	0.000000	6.272818	-0.060507	NaN	0.000000	0.001571	0.001630	28.0836	0.043889	0.001932	22.7214	-144.15	18.5751	-0.117079	0.271482	-0.831616	-0.832930	-0.060507	22.7214	-0.829619	-1.134009E+11	5.335633E-13	NaN
1034	1.000000	0.282863	7.37516e+06	-51839.1	1055.82	-29750.8	0.000000	0.000000	6.282886	-0.035265	NaN	0.000000	0.001575	0.001621	28.0836	0.094825	0.001992	47.6066	-68.2434	-165.705	-0.038424	0.281531	-0.821549	-0.822881	-0.035265	47.6066	-0.820994	-8.663384E+10	4.070557E-13	NaN
1034	1.000000	0.292804	7.37516e+06	-51839.1	1055.82	-29750.8	0.000000	0.000000	6.292829	-0.006847	NaN	0.000000	0.001618	0.001623	28.0836	0.059305	0.001977	29.9966	90.6121	12.4026	-0.000391	0.291513	-0.811608	-0.812899	-0.006847	29.9966	-0.811437	-6.427825E+10	1.065180E-13	NaN
1034	1.000000	0.302844	7.37516e+06	-51839.1	1055.82	-29750.8	0.000000	0.000000	6.302870	0.024799	NaN	0.000000	0.001598	0.001554	28.0835	0.075324	0.002000	37.66	-55.5817	-170.626	-0.056863	0.301533	-0.801568	-0.802880	0.024799	37.66	-0.802062	-4.795712E+10	-5.171059E-13	NaN
1034	1.000000	0.312840	7.37516e+06	-51839.1	1055.82	-29750.8	0.000000	0.000000	6.312866	0.049253	NaN	0.000000	0.001612	0.001566	28.0834	0.110935	0.001881	58.9901	144.622	13.9998	0.042096	0.311493	-0.791573	-0.792919	0.049253	58.9901	-0.792199	-3.523255E+10	-1.397931E-12	NaN
1034	1.000000	0.322847	7.37516e+06	-51839.1	1055.82	-29750.8	0.000000	0.000000	6.322868	-0.090266	NaN	0.000000	0.001601	0.001613	28.0833	0.060881	0.002051	29.6799	-82.7705	-165.383	-0.050866	0.321511	-0.781565	-0.782901	-0.090266	29.6799	-0.779284	-2.352370E+10	3.837244E-12	NaN
1034	1.000000	0.332819	7.37516e+06	-51839.1	1055.82	-29750.8	0.000000	0.000000	6.332843	-0.001926	NaN	0.000000	0.001599	0.001614	28.0837	0.022143	0.002110	10.4923	-106.567	14.2897	-0.064484	0.331508	-0.771594	-0.772905	-0.001926	10.4923	-0.771456	-1.841194E+10	1.045860E-13	NaN
1034	1.000000	0.342842	7.37516e+06	-51839.1	1055.82	-29750.8	0.000000	0.000000	6.342869	0.058525	NaN	0.000000	0.001586	0.001630	28.0837	0.091555	0.002044	44.7976	-131.612	-162.378	0.072886	0.341510	-0.761570	-0.762903	0.058525	44.7976	-0.762550	-1.393116E+10	-4.201046E-12	NaN
1034	1.000000	0.352823	7.37516e+06	-51839.1	1055.82	-29750.8	0.000000	0.000000	6.352847	-0.013626	NaN	0.000000	0.001566	0.001622	28.0839	0.016630	0.001839	9.045434	126.233	18.8298	-0.052441	0.351512	-0.751590	-0.752900	-0.013626	9.045434	-0.750460	-9.538482E+9	1.428479E-12	NaN
1034	1.000000	0.362849	7.37516e+06	-51839.1	1055.82	-29750.8	0.000000	0.000000	6.362871	-0.057425	NaN	0.000000	0.001557	0.001594	28.0837	0.054105	0.002047	26.4334	44.9379	-166.588	-0.075066	0.361526	-0.741563	-0.742886	-0.057425	26.4334	-0.739934	-6.857322E+9	8.374216E-12	NaN
1034	1.000000	0.372849	7.37516e+06	-51839.1	1055.82	-29750.8	0.000000	0.000000	6.372872	-0.026512	NaN	0.000000	0.001562	0.001576	28.0836	0.052645	0.001972	26.6943	41.1475	13.7552	-0.028468	0.371425	-0.731564	-0.732987	-0.026512	26.6943	-0.730819	-5.151888E+9	5.146088E-12	NaN
1034	1.000000	0.382843	7.37516e+06	-51839.1	1055.82	-29750.8	0.000000	0.000000	6.382867	-0.002285	NaN	0.000000	0.001550	0.001613	28.0822	0.054904	0.002085	26.3305	-137.428	-167.692	-0.062940	0.381577	-0.721569	-0.722835	-0.002285	26.3305	-0.721504	-3.845811E+9	5.942721E-13	NaN
1034	1.000000	0.392894	7.37516e+06	-51839.1	1055.82	-29750.8	0.000000	0.000000	6.392916	-0.059340	NaN	0.000000	0.001543	0.001600	28.0822	0.060747	0.002009	30.2439	121.924	15.7469	-0.013957	0.391557	-0.711518	-0.712855	-0.059340	30.2439	-0.710046	-2.683384E+9	2.211395E-11	NaN
1034	1.000000	0.402890	7.37516e+06	-51839.1	1055.82	-29750.8	0.000000	0.000000	6.402913	-0.040207	NaN	0.000000	0.001592	0.001585	28.0824	0.095323	0.002007	47.4931	-104.986	-166.435	0.005094	0.401562	-0.701523	-0.702850	-0.040207	47.4931	-0.700888	-2.012118E+9	1.998247E-11	NaN
1034	1.000000	0.412893	7.37516e+06	-51839.1	1055.82	-29750.8	0.000000	0.000000	6.412917	-0.027065	NaN	0.000000	0.001583	0.001612	28.082	0.036300	0.001986	18.2823	-71.3493	17.0477	-0.032079	0.411505	-0.691519	-0.692907	-0.027065	18.2823	-0.690409	-1.447111E+9	1.870297E-11	NaN
1034	1.000000	0.422887	7.37516e+06	-51839.1	1055.82	-29750.8	0.000000	0.000000	6.422910	-0.039481	NaN	0.000000	0.001560	0.001628	28.082	0.093879	0.002122	44.244	-45.1866	-165.76	-0.031845	0.421599	-0.681525	-0.682814	-0.039481	44.244	-0.680856	-1.071306E+9	3.685343E-11	NaN
1034	1.000000	0.432908	7.37516e+06	-51839.1	1055.82	-29750.8	0.000000	0.000000	6.432931	-0.048602	NaN	0.000000	0.001569	0.001619	28.082	0.041992	0.001991	21.0915	175.49	12.2805	-0.004455	0.431495	-0.671504	-0.672917	-0.048602	21.0915	-0.669775	-7.556435E+8	6.431874E-11	NaN
1034	1.000000	0.442884	7.37516e+06	-51839.1	1055.82	-29750.8	0.000000	0.000000	6.442909	-0.009688	NaN	0.000000	0.001558	0.001612	28.0822	0.068555	0.002098	32.6807	153.245	-167.038	-0.005849	0.441577	-0.661528	-0.662835	-0.009688	32.6807	-0.661305	-5.785603E+8	1.674466E-11	NaN
1034	1.000000	0.452894	7.37516e+06	-51839.1	1055.82	-29750.8	0.000000	0.000000	6.452917	-0.041280	NaN	0.000000	0.001589	0.001578	28.0816	0.117271	0.002014	58.2155	-178.304	18.3459	0.016458	0.451464	-0.651518	-0.652948	-0.041280	58.2155	-0.650987	-4.177938E+8	9.880417E-11	NaN
1034	1.000000	0.462905	7.37516e+06	-51839.1	1055.82	-29750.8	0.000000	0.000000	6.462927	-0.068256	NaN	0.000000	0.001572	0.001569	28.0822	0.034450	0.001948	17.6854	118.187	-163.665	-0.056195	0.461567	-0.641507	-0.642846	-0.068256	17.6854	-0.638613	-2.826542E+8	2.414839E-10	NaN
1034	1.000000	0.472907	7.37516e+06	-51839.1	1055.82	-29750.8	0.000000	0.000000	6.472928	-0.094540	NaN	0.000000	0.001574	0.001563	28.0822	0.095240	0.002007	47.4499	-147.226	13.4278	-0.093236	0.471547	-0.631505	-0.632865	-0.094540	47.4499	-0.630010	-2.153610E+8	4.389826E-10	NaN
1034	1.000000	0.482908	7.37516e+06	-51839.1	1055.82	-29750.8	0.000000	0.000000	6.482934	0.032173	NaN	0.000000	0.001585	0.001534	28.0821	0.043407	0.001966	22.0753	69.4814	-166.394	0.051721	0.481598	-0.621505	-0.622814	0.032173	22.0753	-0.622598	-1.703474E+8	-1.888665E-10	NaN
1034	1.000000	0.492914	7.37516e+06	-51839.1	1055.82	-29750.8	0.000000	0.000000	6.492938	-0.033961	NaN	0.000000	0.001643	0.001564	28.0819	0.030685	0.001817	16.8862	22.2652	17.0565	-0.012202	0.491554	-0.611498	-0.612858	-0.033961	16.8862	-0.609990	-1.142802E+8	2.971736E-10	NaN
1034	1.000000	0.502913	7.37516e+06	-51839.1	1055.82	-29750.8	0.000000	0.000000	6.502935	-0.046410	NaN	0.000000	0.001578	0.001558	28.0822	0.028700	0.001924	14.9183	7.090153	-169.398	-0.011382	0.501610	-0.601500	-0.602802	-0.046410	14.9183	-0.599166	-8.109212E+7	5.723159E-10	NaN
1034	1.000000	0.512930	7.37516e+06	-51839.1	1055.82	-29750.8	0.000000	0.000000	6.512953	-0.051234	NaN	0.000000	0.001598	0.001578	28.0831	0.087000	0.001989	43.7494	117.746	12.2899	0.038189	0.511561	-0.591482	-0.592851	-0.051234	43.7494	-0.590604	-6.180008E+7	8.290326E-10	NaN
1034	1.000000	0.522925	7.37516e+06	-51839.1	1055.82	-29750.8	0.000000	0.000000	6.522947	-0.061299	NaN	0.000000	0.001575	0.001581	28.083	0.070909	0.001851	38.31	119.413	-164.074	-0.025121	0.521588	-0.581487	-0.582824	-0.061299	38.31	-0.580287	-4.453391E+7	1.376465E-9	NaN
1034	1.000000	0.532944	7.37516e+06	-51839.1	1055.82	-29750.8	0.000000	0.000000	6.532967	-0.027689	NaN	0.000000	0.001556	0.001592	28.0831	0.093472	0.001962	47.6295	-34.0506	12.4381	-0.049465	0.531561	-0.571469	-0.572851	-0.027689	47.6295	-0.571033	-3.318170E+7	8.344625E-10	NaN
1034	1.000000	0.542939	7.37516e+06	-51839.1	1055.82	-29750.8	0.000000	0.000000	6.542962	-0.044509	NaN	0.000000	0.001557	0.001609	28.0834	0.066545	0.002068	32.1742	32.5442	-163.821	-0.076672	0.541625	-0.561473	-0.562787	-0.044509	32.1742	-0.560436	-2.368132E+7	1.879507E-9	NaN
1034	1.000000	0.552941	7.37516e+06	-51839.1	1055.82	-29750.8	0.000000	0.000000	6.552963	-0.056982	NaN	0.000000	0.001577	0.001560	28.0831	0.060164	0.002090	28.7821	-147.231	15.3978	-0.126752	0.551548	-0.551472	-0.552865	-0.056982	28.7821	-0.549987	-1.697356E+7	3.357077E-9	NaN
1034	1.000000	0.562937	7.37516e+06	-51839.1	1055.82	-29750.8	0.000000	0.000000	6.562959	-0.056272	NaN	0.000000	0.001544	0.001589	28.0831	0.077825	0.002071	37.5806	-179.06	-163.988	-0.019466	0.561602	-0.541476	-0.542810	-0.056272	37.5806	-0.540353	-1.248094E+7	4.508650E-9	NaN
1034	1.000000	0.572958	7.37516e+06	-51839.1	1055.82	-29750.8	0.000000	0.000000	6.572983	0.012892	NaN	0.000000	0.001554	0.001587	28.0831	0.071843	0.001961	36.6276	53.1969	16.1981	0.077862	0.571606	-0.531454	-0.532806	0.012892	36.6276	-0.531718	-9.47183e+06	-1.361078E-9	NaN
1034	1.000000	0.582960	7.37516e+06	-51839.1	1055.82	-29750.8	0.000000	0.000000	6.582983	-0.048010	NaN	0.000000	0.001574	0.001572	28.0836	0.043114	0.001950	22.1057	-171.011	-163.658	-0.029503	0.581643	-0.521452	-0.522770	-0.048010	22.1057	-0.519823	-6.47348e+06	7.416350E-9	NaN
1034	1.000000	0.592954	7.37516e+06	-51839.1	1055.82	-29750.8	0.000000	0.000000	6.592979	0.017560	NaN	0.000000	0.001612	0.001601	28.0831	0.033794	0.002008	16.8275	94.4547	16.1828	-0.067727	0.591618	-0.511458	-0.512795	0.017560	16.8275	-0.512241	-5.07718e+06	-3.458686E-9	NaN
1034	1.000000	0.602969	7.37516e+06	-51839.1	1055.82	-29750.8	0.000000	0.000000	6.602994	-0.002350	NaN	0.000000	0.001586	0.001607	28.0833	0.021929	0.001997	10.9819	49.2376	-161.433	-0.059596	0.601677	-0.501443	-0.502735	-0.002350	10.9819	-0.501283	-3.57198e+06	6.580242E-10	NaN
1034	1.000000	0.612968	7.37516e+06	-51839.1	1055.82	-29750.8	0.000000	0.000000	6.612992	-0.016472	NaN	0.000000	0.001595	0.001625	28.0832	0.043144	0.001946	22.175	-131.9	12.2444	0.018766	0.611565	-0.491445	-0.492847	-0.016472	22.175	-0.490888	-2.55738e+06	6.441067E-9	NaN
1034	1.000000	0.622942	7.37516e+06	-51839.1	1055.82	-29750.8	0.000000	0.000000	6.622964	-0.078431	NaN	0.000000	0.001596	0.001563	28.0833	0.098567	0.001993	49.455	-61.244	-167.569	-0.091261	0.621669	-0.481470	-0.482743	-0.078431	49.455	-0.480281	-1.81742e+06	4.315511E-8	NaN
1034	1.000000	0.632958	7.37516e+06	-51839.1	1055.82	-29750.8	0.000000	0.000000	6.632985	0.063638	NaN	0.000000	0.001560	0.001568	28.0829	0.056832	0.002019	28.1477	-136.667	13.4828	0.031172	0.631654	-0.471455	-0.472758	0.063638	28.1477	-0.473150	-1.44403e+06	-4.406981E-8	NaN
1034	1.000000	0.642960	7.37516e+06	-51839.1	1055.82	-29750.9	0.000000	0.000000	6.642981	-0.106737	NaN	0.000000	0.001555	0.001578	28.0832	0.055763	0.002036	27.3935	-104.966	-164.757	-0.127924	0.641659	-0.461452	-0.462753	-0.106737	27.3935	-0.458530	-900227	1.185665E-7	NaN
1034	1.000000	0.652973	7.37516e+06	-51839.1	1055.82	-29750.9	0.000000	0.000000	6.653001	0.067049	NaN	0.000000	0.001545	0.001560	28.0821	0.029630	0.001992	14.873	-141.315	13.7624	0.013650	0.651659	-0.451439	-0.452753	0.067049	14.873	-0.454820	-798340	-8.398548E-8	NaN
1034	1.000000	0.662998	7.37516e+06	-51839.1	1055.82	-29750.9	0.000000	0.000000	6.663022	-0.016125	NaN	0.000000	0.001537	0.001604	28.0821	0.077972	0.001984	39.2949	138.658	-166.123	-0.027631	0.661638	-0.441415	-0.442774	-0.016125	39.2949	-0.441107	-511661	3.151405E-8	NaN
1034	1.000000	0.672998	7.37516e+06	-51839.1	1055.82	-29750.9	0.000000	0.000000	6.673022	-0.034922	NaN	0.000000	0.001596	0.001605	28.0822	0.063191	0.001971	32.0523	-26.619	14.1749	-0.062948	0.671634	-0.431414	-0.432778	-0.034922	32.0523	-0.430597	-363497	9.607279E-8	NaN
1034	1.000000	0.682994	7.37516e+06	-51839.1	1055.82	-29750.9	0.000000	0.000000	6.683017	-0.048346	NaN	0.000000	0.001585	0.001571	28.0821	0.040956	0.001918	21.3515	41.8788	-166.639	-0.003119	0.681733	-0.421418	-0.422679	-0.048346	21.3515	-0.419720	-254941	1.896368E-7	NaN
1034	1.000000	0.692994	7.37516e+06	-51839.1	1055.82	-29750.9	0.000000	0.000000	6.693017	-0.029690	NaN	0.000000	0.001550	0.001605	28.0821	0.105210	0.001976	53.2443	15.7173	12.5297	-0.034232	0.691640	-0.411418	-0.412772	-0.029690	53.2443	-0.411000	-191700	1.548769E-7	NaN
1034	1.000000	0.703008	7.37517e+06	-51839.1	1055.82	-29750.9	0.000000	0.000000	6.703031	-0.044432	NaN	0.000000	0.001547	0.001565	28.082	0.031624	0.001936	16.3361	-63.9971	-163.336	0.005539	0.701723	-0.401404	-0.402689	-0.044432	16.3361	-0.399364	-130896	3.394479E-7	NaN
1034	1.000000	0.713019	7.37517e+06	-51839.1	1055.82	-29750.9	0.000000	0.000000	6.713044	-0.007021	NaN	0.000000	0.001538	0.001556	28.0821	0.035868	0.002036	17.6179	33.4169	14.5515	0.003126	0.711580	-0.391393	-0.392832	-0.007021	17.6179	-0.391094	-99727.5	7.039878E-8	NaN
1034	1.000000	0.723005	7.37517e+06	-51839.1	1055.82	-29750.9	0.000000	0.000000	6.723030	0.002004	NaN	0.000000	0.001580	0.001591	28.0821	0.062156	0.001956	31.7707	113.551	-165.612	0.012892	0.721676	-0.381407	-0.382737	0.002004	31.7707	-0.381454	-72569.2	-2.762029E-8	NaN
1034	1.000000	0.733017	7.37517e+06	-51839.1	1055.82	-29750.9	0.000000	0.000000	6.733040	-0.039350	NaN	0.000000	0.001535	0.001571	28.0823	0.051651	0.001983	26.0416	12.8055	17.6781	-0.029487	0.731711	-0.371395	-0.372701	-0.039350	26.0416	-0.370262	-50107	7.853217E-7	NaN
1034	1.000000	0.742992	7.37517e+06	-51839.1	1055.82	-29750.9	0.000000	0.000000	6.743015	-0.044352	NaN	0.000000	0.001545	0.001583	28.0819	0.110356	0.001925	57.3424	161.587	-162.863	-0.092915	0.741737	-0.361420	-0.362675	-0.044352	57.3424	-0.360840	-36642.6	1.210405E-6	NaN
1034	1.000000	0.753033	7.37517e+06	-51839.1	1055.82	-29750.9	0.000000	0.000000	6.753057	-0.022815	NaN	0.000000	0.001564	0.001600	28.0821	0.054563	0.002040	26.7497	-1.421923	12.9971	0.005034	0.751660	-0.351379	-0.352752	-0.022815	26.7497	-0.350739	-26165.5	8.719509E-7	NaN
1034	1.000000	0.763015	7.37517e+06	-51839.1	1055.82	-29750.9	0.000000	0.000000	6.763040	0.021635	NaN	0.000000	0.001562	0.001596	28.082	0.012578	0.002088	6.022996	124.776	-164.769	0.008919	0.761757	-0.341397	-0.342655	0.021635	6.022996	-0.344092	-20947.9	-1.032812E-6	NaN
1034	1.000000	0.773005	7.37517e+06	-51839.1	1055.82	-29750.9	0.000000	0.000000	6.773030	-0.005271	NaN	0.000000	0.001619	0.001559	28.082	0.071724	0.002016	35.5846	-136.08	16.8613	-0.085240	0.771654	-0.331407	-0.332758	-0.005271	35.5846	-0.331296	-13627.7	3.867734E-7	NaN
1034	1.000000	0.783028	7.37517e+06	-51839.1	1055.82	-29750.9	0.000000	0.000000	6.783054	0.017533	NaN	0.000000	0.001660	0.001601	28.0822	0.050150	0.002086	24.0425	-120.838	-165.885	0.009328	0.781729	-0.321384	-0.322684	0.017533	24.0425	-0.321931	-9932.11	-1.765296E-6	NaN
1034	1.000000	0.793049	7.37517e+06	-51839.1	1055.82	-29750.9	0.000000	0.000000	6.793073	-0.034827	NaN	0.000000	0.001653	0.001582	28.0832	0.046576	0.002068	22.5208	-140.637	16.1679	-0.033463	0.791677	-0.311363	-0.312735	-0.034827	22.5208	-0.310203	-6668.96	5.222240E-6	NaN
1034	1.000000	0.803036	7.37517e+06	-51839.1	1055.82	-29750.9	0.000000	0.000000	6.803059	-0.029497	NaN	0.000000	0.001558	0.001593	28.0832	0.102900	0.001933	53.2403	-25.0198	-168.747	-0.069498	0.801732	-0.301376	-0.302680	-0.029497	53.2403	-0.300961	-4863.34	6.065260E-6	NaN
1034	1.000000	0.813028	7.37517e+06	-51839.1	1055.82	-29750.9	0.000000	0.000000	6.813054	0.024978	NaN	0.000000	0.001547	0.001607	28.083	0.061440	0.001905	32.2535	-115.517	14.424	0.042721	0.811674	-0.291384	-0.292739	0.024978	32.2535	-0.291965	-3570.47	-6.995744E-6	NaN
1034	1.000000	0.823068	7.37517e+06	-51839.1	1055.82	-29750.9	0.000000	0.000000	6.823091	-0.047798	NaN	0.000000	0.001532	0.001582	28.0829	0.070002	0.002033	34.4343	-104.214	-166.017	-0.029076	0.821724	-0.281344	-0.282689	-0.047798	34.4343	-0.280303	-2385.26	2.003914E-5	NaN
1034	1.000000	0.833040	7.37517e+06	-51839.1	1055.82	-29750.9	0.000000	0.000000	6.833066	0.029929	NaN	0.000000	0.001577	0.001595	28.0831	0.039569	0.001989	19.892	115.537	16.5073	-0.008805	0.831709	-0.271372	-0.272703	0.029929	19.892	-0.272501	-1817.7	-1.646550E-5	NaN
1034	1.000000	0.843059	7.37517e+06	-51839.1	1055.82	-29750.9	0.000000	0.000000	6.843080	-0.090668	NaN	0.000000	0.001566	0.001595	28.0832	0.007390	0.002064	3.579668	-18.4311	-164.403	-0.103227	0.841744	-0.261353	-0.262668	-0.090668	3.579668	-0.242357	-625.638	0.000145	NaN
1034	1.000000	0.853060	7.37517e+06	-51839.1	1055.82	-29750.9	0.000000	0.000000	6.853083	-0.029910	NaN	0.000000	0.001519	0.001599	28.0829	0.034096	0.002067	16.4938	-90.2286	13.6974	-0.006986	0.851731	-0.251352	-0.252681	-0.029910	16.4938	-0.249992	-821.953	3.638946E-5	NaN
1034	1.000000	0.863065	7.37517e+06	-51839.1	1055.82	-29750.9	0.000000	0.000000	6.863083	-0.152719	NaN	0.000000	0.001572	0.001613	28.083	0.062855	0.002009	31.2869	-0.838987	-164.329	-0.058339	0.861757	-0.241348	-0.242655	-0.152719	31.2869	-0.237687	-528.901	0.000289	NaN
1034	1.000000	0.873058	7.37517e+06	-51839.1	1055.82	-29750.9	0.000000	0.000000	6.873083	0.021736	NaN	0.000000	0.001550	0.001604	28.0831	0.018926	0.001923	9.839912	20.2432	17.4892	0.021175	0.871717	-0.231354	-0.232695	0.021736	9.839912	-0.233011	-446.666	-4.866227E-5	NaN
1034	1.000000	0.883054	7.37517e+06	-51839.1	1055.82	-29750.9	0.000000	0.000000	6.883078	-0.011494	NaN	0.000000	0.001530	0.001585	28.0829	0.025314	0.002010	12.5922	128.368	-167.756	0.031443	0.881789	-0.221358	-0.222623	-0.011494	12.5922	-0.220674	-284.732	4.036659E-5	NaN
1034	1.000000	0.893086	7.37517e+06	-51839.1	1055.82	-29750.9	0.000000	0.000000	6.893108	-0.065096	NaN	0.000000	0.001586	0.001579	28.0831	0.111598	0.001980	56.361	-103.825	15.9635	-0.125044	0.891756	-0.211326	-0.212656	-0.065096	56.361	-0.210460	-195.102	0.000334	NaN
1034	1.000000	0.903063	7.37517e+06	-51839.1	1055.82	-29750.9	0.000000	0.000000	6.903087	-0.013278	NaN	0.000000	0.001586	0.001585	28.0832	0.068258	0.002020	33.7913	-55.2335	-166.097	-0.012200	0.901752	-0.201349	-0.202660	-0.013278	33.7913	-0.201054	-137.093	9.685371E-5	NaN
1034	1.000000	0.913046	7.37517e+06	-51839.1	1055.82	-29750.9	0.000000	0.000000	6.913070	-0.011305	NaN	0.000000	0.001550	0.001583	28.0833	0.098471	0.002095	46.993	-47.6583	14.704	0.009944	0.911724	-0.191366	-0.192688	-0.011305	46.993	-0.191186	-94.15	0.000120	NaN
1034	1.000000	0.923119	7.37517e+06	-51839.1	1055.82	-29750.9	0.000000	0.000000	6.923142	-0.040469	NaN	0.000000	0.001582	0.001556	28.0821	0.068632	0.001882	36.4621	130.548	-164.265	-0.038242	0.921705	-0.181294	-0.182707	-0.040469	36.4621	-0.180461	-62.131	0.000651	NaN
1034	1.000000	0.933099	7.37517e+06	-51839.1	1055.82	-29750.9	0.000000	0.000000	6.933124	0.003760	NaN	0.000000	0.001562	0.001581	28.0819	0.077203	0.002147	35.9575	43.382	15.3875	-0.009656	0.931739	-0.171313	-0.172673	0.003760	35.9575	-0.171392	-43.4259	-8.658093E-5	NaN
1034	1.000000	0.943090	7.37517e+06	-51839.1	1055.82	-29750.9	0.000000	0.000000	6.943113	-0.035331	NaN	0.000000	0.001569	0.001560	28.082	0.054791	0.001997	27.442	106.089	-164.207	0.028825	0.941804	-0.161322	-0.162608	-0.035331	27.442	-0.160357	-27.8178	0.001270	NaN
1034	1.000000	0.953080	7.37517e+06	-51839.1	1055.82	-29750.9	0.000000	0.000000	6.953102	-0.064033	NaN	0.000000	0.001578	0.001571	28.082	0.037773	0.001915	19.7212	7.763869	11.5246	-0.072478	0.951747	-0.151332	-0.152666	-0.064033	19.7212	-0.148897	-17.2926	0.003703	NaN
1034	1.000000	0.963127	7.37517e+06	-51839.1	1055.82	-29750.9	0.000000	0.000000	6.963150	-0.030018	NaN	0.000000	0.001575	0.001584	28.0819	0.076068	0.002087	36.4486	-63.381	-164.179	0.011910	0.961809	-0.141285	-0.142603	-0.030018	36.4486	-0.140668	-12.1758	0.002465	NaN
1034	1.000000	0.973098	7.37517e+06	-51839.1	1055.82	-29750.9	0.000000	0.000000	6.973120	-0.052547	NaN	0.000000	0.001554	0.001568	28.0819	0.082669	0.001915	43.1692	76.614	16.2641	-0.125809	0.971779	-0.131315	-0.132633	-0.052547	43.1692	-0.130402	-7.759035	0.006772	NaN
1034	1.000000	0.983142	7.37517e+06	-51839.1	1055.82	-29750.9	0.000000	0.000000	6.983165	-0.034126	NaN	0.000000	0.001549	0.001528	28.0824	0.091243	0.002051	44.4884	-151.38	-164.385	-0.076311	0.981793	-0.121270	-0.122619	-0.034126	44.4884	-0.120695	-4.989842	0.006839	NaN
1034	1.000000	0.993101	7.37517e+06	-51839.1	1055.82	-29750.9	0.000000	0.000000	6.993125	0.001973	NaN	0.000000	0.001562	0.001554	28.0822	0.082241	0.001910	43.0684	164.732	11.557	-0.010185	0.991731	-0.111312	-0.112682	0.001973	43.0684	-0.111346	-3.207475	-0.000615	NaN
1034	1.000000	1.003131	7.37517e+06	-51839.1	1055.82	-29750.9	0.000000	0.000000	7.003156	-0.002255	NaN	0.000000	0.001540	0.001532	28.0823	0.039952	0.001968	20.298	-93.1315	-167.768	-0.008135	1.001801	-0.101281	-0.102611	-0.002255	20.298	-0.101198	-1.941954	0.001161	NaN
1034	1.000000	1.013140	7.37517e+06	-51839.1	1055.82	-29750.9	0.000000	0.000000	7.013164	-0.039368	NaN	0.000000	0.001556	0.001554	28.0826	0.028015	0.001861	15.0564	-148.347	17.1129	-0.053173	1.011785	-0.091272	-0.092628	-0.039368	15.0564	-0.089311	-1.041383	0.037804	NaN
1034	1.000000	1.023114	7.37517e+06	-51839.1	1055.82	-29750.9	0.000000	0.000000	7.023140	0.044422	NaN	0.000000	0.001551	0.001566	28.0824	0.054197	0.001973	27.4708	-130.894	-164.056	0.065446	1.021804	-0.081299	-0.082608	0.044422	27.4708	-0.082511	-0.714436	-0.062177	NaN
1034	1.000000	1.033115	7.37517e+06	-51839.1	1055.82	-29750.9	0.000000	0.000000	7.033139	-0.003160	NaN	0.000000	0.001590	0.001556	28.0823	0.035661	0.002059	17.3201	118.937	16.218	-0.067865	1.031749	-0.071298	-0.072664	-0.003160	17.3201	-0.071161	-0.366321	0.008625	NaN
1034	1.000000	1.043133	7.37517e+06	-51839.1	1055.82	-29750.9	0.000000	0.000000	7.043156	-0.035858	NaN	0.000000	0.001545	0.001540	28.0822	0.038314	0.002040	18.7813	-111.676	-163.993	-0.059321	1.041861	-0.061280	-0.062551	-0.035858	18.7813	-0.059848	-0.178289	0.201121	NaN
1034	1.000000	1.053143	7.37517e+06	-51839.1	1055.82	-29750.9	0.000000	0.000000	7.053167	-0.010535	NaN	0.000000	0.001578	0.001572	28.0823	0.053658	0.002067	25.9619	124.402	18.5127	0.008820	1.051817	-0.051269	-0.052595	-0.010535	25.9619	-0.050965	-0.097582	0.107961	NaN
1034	1.000000	1.063152	7.37517e+06	-51839.1	1055.82	-29750.9	0.000000	0.000000	7.063174	-0.074876	NaN	0.000000	0.001670	0.001549	28.0833	0.019910	0.002103	9.465724	-45.0636	-164.717	-0.041592	1.061830	-0.041260	-0.042582	-0.074876	9.465724	-0.035327	-0.032744	2.286715	NaN
1034	1.000000	1.073145	7.37517e+06	-51839.1	1055.82	-29750.9	0.000000	0.000000	7.073169	-0.012145	NaN	0.000000	0.001665	0.001557	28.0833	0.059282	0.002001	29.6241	-110.942	18.5787	-0.099245	1.071745	-0.031267	-0.032668	-0.012145	29.6241	-0.030960	-0.024484	0.496041	NaN
1034	1.000000	1.083153	7.37517e+06	-51839.1	1055.82	-29750.9	0.000000	0.000000	7.083174	-0.095525	NaN	0.000000	0.001642	0.001524	28.0832	0.051640	0.001932	26.7342	-108.254	-163.227	-0.107938	1.081801	-0.021259	-0.022611	-0.095525	26.7342	-0.018579	-0.011554	8.268069	NaN
1034	1.000000	1.093129	7.37517e+06	-51839.1	1055.82	-29750.9	0.000000	0.000000	7.093155	0.024167	NaN	0.000000	0.001620	0.001533	28.0831	0.015601	0.001900	8.209426	-104.22	18.1083	0.109952	1.091808	-0.011283	-0.012604	0.024167	8.209426	-0.013491	-0.008386	-2.881765	NaN
1034	1.000000	1.103182	7.37517e+06	-51839.1	1055.82	-29750.9	0.000000	0.000000	7.103207	0.006894	NaN	0.000000	0.001632	0.001550	28.0831	0.031835	0.001927	16.524	-135.795	-161.205	-0.059654	1.101881	-0.001230	-0.002531	0.006894	16.524	-0.001543	-0.001120	-6.156546	NaN
1034	1.000000	1.113118	7.37517e+06	-51839.1	1055.82	-29750.9	0.000000	0.000000	7.113346	4.942335	NaN	0.000000	0.001627	0.001588	28.0831	5.666088	0.001685	3361.83	12.9503	7.312123	3.509871	1.111767	0.008706	0.007354	4.942335	3361.83	0.007603	0.006637	744.648	37701.5
1034	2.000000	1.117784	7.37517e+06	-51839.1	1055.82	-29750.9	0.000000	0.000000	7.118224	10.097	NaN	0.000000	0.001661	0.001536	28.0834	10.4513	0.001647	6344.49	6.685172	-173.789	9.468319	1.117390	0.013372	0.012978	10.097	6344.49	0.012179	0.011705	862.646	53578.5
1034	2.000000	1.120256	7.37517e+06	-51839.1	1055.82	-29750.9	0.000000	0.000000	7.120826	13.2384	NaN	0.000000	0.001630	0.001599	28.0832	12.4446	0.001829	6805.19	8.249375	5.772789	12.5185	1.119954	0.015844	0.015542	13.2384	6805.19	0.014385	0.014474	914.614	51679.1
1034	2.000000	1.122703	7.37517e+06	-51839.1	1055.82	-29750.9	0.000000	0.000000	7.123459	17.7846	NaN	0.000000	0.001622	0.001591	28.0832	15.0305	0.001724	8720.24	4.363119	-173.516	17.4427	1.122384	0.018291	0.017972	17.7846	8720.24	0.016761	0.017706	1004.44	59874.4
1034	2.000000	1.125190	7.37517e+06	-51839.1	1055.82	-29750.9	0.000000	0.000000	7.126143	22.5646	NaN	0.000000	0.001578	0.001565	28.0834	17.5671	0.001753	10022.4	5.785603	3.938991	21.6622	1.124873	0.020778	0.020461	22.5646	10022.4	0.019089	0.021131	1067.84	62991.4
1034	2.000000	1.127674	7.37517e+06	-51839.1	1055.82	-29750.9	0.000000	0.000000	7.128825	27.3923	NaN	0.000000	0.001577	0.001557	28.0836	20.7356	0.001797	11538	8.475347	-179.927	26.5735	1.127419	0.023261	0.023007	27.3923	11538	0.021481	0.024923	1099.08	66773.7
1034	2.000000	1.130178	7.37517e+06	-51839.1	1055.82	-29750.9	0.000000	0.000000	7.131646	35.1072	NaN	0.000000	0.001583	0.001597	28.0834	23.1748	0.001741	13310.9	5.515017	1.655855	32.9197	1.129849	0.025766	0.025437	35.1072	13310.9	0.023788	0.028847	1217.03	71603.1
1034	2.000000	1.132640	7.37517e+06	-51839.1	1055.82	-29750.9	0.000000	0.000000	7.134419	42.6554	NaN	0.000000	0.001556	0.001556	28.0833	25.6682	0.001778	14439.8	7.270196	178.298	41.5651	1.132336	0.028227	0.027924	42.6554	14439.8	0.026012	0.032882	1297.21	72753.4
1034	2.000000	1.135146	7.37517e+06	-51839.1	1055.82	-29750.9	0.000000	0.000000	7.137194	49.2039	NaN	0.000000	0.001568	0.001596	28.0833	28.3446	0.001722	16464.3	4.178195	0.194365	47.5211	1.134826	0.030733	0.030413	49.2039	16464.3	0.028492	0.037676	1305.97	77496.4
1034	2.000000	1.137646	7.37517e+06	-51839.1	1055.82	-29750.9	0.000000	0.000000	7.140058	58.0542	NaN	0.000000	0.001568	0.001594	28.0825	31.9495	0.001739	18367.3	4.649749	179.186	57.5908	1.137364	0.033234	0.032952	58.0542	18367.3	0.030863	0.042552	1364.31	81350.1
1034	2.000000	1.140137	7.37517e+06	-51839.1	1055.82	-29750.9	0.000000	0.000000	7.142889	66.3227	NaN	0.000000	0.001592	0.001551	28.0821	34.0556	0.001829	18618.7	9.363158	-4.168719	63.8152	1.139866	0.035724	0.035454	66.3227	18618.7	0.033053	0.047309	1401.9	78207.8
1034	2.000000	1.142622	7.37517e+06	-51839.1	1055.82	-29750.9	0.000000	0.000000	7.145733	75.0413	NaN	0.000000	0.001571	0.001598	28.0821	36.1401	0.001854	19491.3	3.120752	-178.96	73.3047	1.142289	0.038210	0.037876	75.0413	19491.3	0.035323	0.052500	1429.35	77720.2
1034	2.000000	1.145147	7.37517e+06	-51839.1	1055.82	-29750.9	0.000000	0.000000	7.148522	81.4628	NaN	0.000000	0.001584	0.001550	28.0822	38.6838	0.001858	20824.6	4.239178	-1.312146	79.6405	1.144864	0.040735	0.040452	81.4628	20824.6	0.037801	0.058469	1393.26	78684
1034	2.000000	1.147621	7.37517e+06	-51839.1	1055.82	-29750.9	0.000000	0.000000	7.151462	92.806	NaN	0.000000	0.001597	0.001643	28.082	40.5862	0.001795	22614.9	2.492060	179.902	91.7544	1.147330	0.043209	0.042917	92.806	22614.9	0.040131	0.064367	1441.83	81439.9
1034	2.000000	1.150161	7.37517e+06	-51839.1	1055.82	-29750.9	0.000000	0.000000	7.154541	105.905	NaN	0.000000	0.001609	0.001636	28.0821	43.5252	0.001855	23458.7	5.634544	-2.817486	103.749	1.149709	0.045748	0.045297	105.905	23458.7	0.042363	0.070276	1506.98	80848.4
1034	2.000000	1.152640	7.37517e+06	-51839.1	1055.82	-29750.9	0.000000	0.000000	7.157439	116.089	NaN	0.000000	0.001616	0.001614	28.0821	45.9486	0.001813	25337.5	9.429269	173.483	115.754	1.152188	0.048228	0.047776	116.089	25337.5	0.044791	0.076997	1507.72	83426
1034	2.000000	1.155111	7.37517e+06	-51839.1	1055.82	-29750.9	0.000000	0.000000	7.160351	126.809	NaN	0.000000	0.001611	0.001611	28.0822	48.7889	0.001852	26350.1	6.599015	-5.969836	124.104	1.154731	0.050699	0.050318	126.809	26350.1	0.047089	0.083629	1516.32	83248.5
1034	2.000000	1.157614	7.37517e+06	-51839.1	1055.82	-29750.9	0.000000	0.000000	7.163337	138.57	NaN	0.000000	0.001620	0.001600	28.0822	51.8878	0.001826	28413	7.299392	173.218	137.927	1.157329	0.053202	0.052917	138.57	28413	0.049544	0.091009	1522.59	86049.5
1034	2.000000	1.160108	7.37517e+06	-51839.1	1055.82	-29750.9	0.000000	0.000000	7.166354	151.276	NaN	0.000000	0.001595	0.001640	28.082	53.2247	0.001873	28422.5	5.095451	-4.369035	148.583	1.159746	0.055696	0.055334	151.276	28422.5	0.051704	0.097753	1547.53	83055.7
1034	2.000000	1.162604	7.37517e+06	-51839.1	1055.82	-29750.9	0.000000	0.000000	7.169392	164.458	NaN	0.000000	0.001618	0.001620	28.082	54.7948	0.001808	30311.8	2.407631	177.299	164.236	1.162288	0.058191	0.057876	164.458	30311.8	0.054122	0.105580	1557.67	85230.4
1034	2.000000	1.165134	7.37517e+06	-51839.1	1055.82	-29750.9	0.000000	0.000000	7.172260	172.686	NaN	0.000000	0.001580	0.001664	28.0824	57.9672	0.001779	32588.8	3.348943	-4.772054	171.851	1.164857	0.060721	0.060444	172.686	32588.8	0.056747	0.114403	1509.45	88028.5
1034	2.000000	1.167626	7.37517e+06	-51839.1	1055.82	-29750.9	0.000000	0.000000	7.175289	185.728	NaN	0.000000	0.001572	0.001670	28.082	60.581	0.001790	33837.3	2.043879	175.962	186.57	1.167443	0.063214	0.063030	185.728	33837.3	0.059098	0.122592	1515.01	88295.2
1034	2.000000	1.170146	7.37517e+06	-51839.1	1055.82	-29750.9	0.000000	0.000000	7.178496	202.423	NaN	0.000000	0.001586	0.001645	28.083	62.9489	0.001853	33963.1	7.262906	-8.498989	202.925	1.169774	0.065734	0.065362	202.423	33963.1	0.061264	0.130379	1552.57	85936.2
1034	2.000000	1.172532	7.37517e+06	-51839.1	1055.82	-29750.9	0.000000	0.000000	7.181578	219.362	NaN	0.000000	0.001633	0.001651	28.0832	64.9703	0.001792	36249.9	4.380338	173.111	215.391	1.172343	0.068119	0.067931	219.362	36249.9	0.063581	0.138961	1578.59	88845.1
1034	2.000000	1.175073	7.37517e+06	-51839.1	1055.82	-29750.9	0.000000	0.000000	7.184783	235.509	NaN	0.000000	0.001622	0.001700	28.0835	67.4532	0.001767	38184	3.644971	-6.008053	232.246	1.174737	0.070660	0.070325	235.509	38184	0.066035	0.148333	1587.71	90580.9
1034	2.000000	1.177510	7.37517e+06	-51839.1	1055.82	-29750.9	0.000000	0.000000	7.187997	254.401	NaN	0.000000	0.001627	0.001678	28.0835	71.5959	0.001881	38062.7	7.326176	169.772	251.027	1.177270	0.073098	0.072857	254.401	38062.7	0.068085	0.156386	1626.75	87937.6
1034	2.000000	1.180181	7.37517e+06	-51839.1	1055.82	-29750.9	0.000000	0.000000	7.191222	267.884	NaN	0.000000	0.001588	0.001634	28.083	73.0656	0.001803	40523.5	6.340153	-8.828914	269.401	1.179675	0.075769	0.075263	267.884	40523.5	0.070811	0.167401	1600.25	90490
1034	2.000000	1.182598	7.37517e+06	-51839.1	1055.82	-29750.9	0.000000	0.000000	7.194309	284.174	NaN	0.000000	0.001624	0.001650	28.0832	73.3463	0.001750	41921.6	3.986478	172.517	285.415	1.182312	0.078186	0.077900	284.174	41921.6	0.073102	0.176934	1606.1	91055.4
1034	2.000000	1.185031	7.37517e+06	-51839.1	1055.82	-29750.9	0.000000	0.000000	7.197638	305.937	NaN	0.000000	0.001617	0.001656	28.083	76.774	0.001713	44830.1	3.310009	-7.443291	300.554	1.184774	0.080619	0.080362	305.937	44830.1	0.075501	0.187182	1634.44	94669.7
1034	2.000000	1.187632	7.37517e+06	-51839.1	1055.82	-29750.9	0.000000	0.000000	7.200844	320.658	NaN	0.000000	0.001648	0.001630	28.0832	79.4811	0.001757	45233.9	-0.598387	176.92	321.835	1.187366	0.083219	0.082954	320.658	45233.9	0.077903	0.197713	1621.84	92943.7
1034	2.000000	1.190112	7.37517e+06	-51839.1	1055.82	-29750.9	0.000000	0.000000	7.204285	344.028	NaN	0.000000	0.001632	0.001618	28.0831	81.2497	0.001703	47720.4	1.245017	-5.296212	342.039	1.189742	0.085700	0.085329	344.028	47720.4	0.080293	0.208461	1650.32	95491.6
1034	2.000000	1.192580	7.37517e+06	-51839.1	1055.82	-29750.9	0.000000	0.000000	7.207457	361.158	NaN	0.000000	0.001568	0.001672	28.0836	84.4222	0.001768	47743.6	5.046655	171.215	360.273	1.192208	0.088167	0.087796	361.158	47743.6	0.082494	0.218592	1652.2	93297.7
1034	2.000000	1.195031	7.37517e+06	-51839.1	1055.82	-29750.9	0.000000	0.000000	7.210747	381.547	NaN	0.000000	0.001632	0.001634	28.0832	87.8666	0.001862	47194.1	7.639042	-12.2764	377.268	1.194737	0.090619	0.090325	381.547	47194.1	0.084555	0.228286	1671.36	90244.8
1034	2.000000	1.197520	7.37517e+06	-51839.1	1055.82	-29750.9	0.000000	0.000000	7.213770	394.526	NaN	0.000000	0.001630	0.001653	28.0834	88.5847	0.001618	54737.2	2.856747	171.763	392.051	1.197298	0.093108	0.092886	394.526	54737.2	0.087702	0.243460	1620.49	101354
1034	2.000000	1.199999	7.37517e+06	-51839.1	1055.82	-29750.9	0.000000	0.000000	7.217652	428.623	NaN	0.000000	0.001605	0.001694	28.0833	91.292	0.001707	53467.8	6.793915	-11.622	423.36	1.199665	0.095587	0.095252	428.623	53467.8	0.089575	0.252707	1696.13	97175.5
1034	2.000000	1.202563	7.37517e+06	-51839.1	1055.82	-29750.9	0.000000	0.000000	7.220985	447.339	NaN	0.000000	0.001614	0.001673	28.0835	93.5422	0.001766	52963.3	6.197691	168.894	446.029	1.202207	0.098151	0.097795	447.339	52963.3	0.091817	0.263989	1694.54	94179.3
1034	2.000000	1.205034	7.37517e+06	-51839.1	1055.82	-29750.9	0.000000	0.000000	7.224434	471.124	NaN	0.000000	0.001604	0.001704	28.0819	96.7216	0.001740	55586.4	2.917418	-8.107926	465.198	1.204640	0.100621	0.100228	471.124	55586.4	0.094265	0.276571	1703.44	96569.1
1034	2.000000	1.207566	7.37517e+06	-51839.1	1055.82	-29750.9	0.000000	0.000000	7.227677	488.4	NaN	0.000000	0.001648	0.001693	28.0822	101.015	0.001744	57936.6	5.810008	169.072	487.988	1.207263	0.103154	0.102850	488.4	57936.6	0.096832	0.290058	1683.8	98284.2
1034	2.000000	1.210157	7.37517e+06	-51839.1	1055.82	-29750.9	0.000000	0.000000	7.231201	511.097	NaN	0.000000	0.001578	0.001704	28.082	102.758	0.001873	54873.3	6.363985	-10.8627	512.818	1.209724	0.105745	0.105312	511.097	54873.3	0.098759	0.300383	1701.48	91473.7
1034	2.000000	1.212530	7.37517e+06	-51839.1	1055.82	-29750.9	0.000000	0.000000	7.234450	532.404	NaN	0.000000	0.001545	0.001698	28.0822	104.858	0.001797	58341.1	5.641522	169.158	531.8	1.212198	0.108118	0.107786	532.404	58341.1	0.101273	0.314105	1694.99	95106.6
1034	2.000000	1.214501	7.37517e+06	-51839.1	1055.82	-29750.9	0.000000	0.000000	7.237228	552.019	NaN	0.000000	0.001566	0.001693	28.0823	106.976	0.001839	58185.3	5.882767	169.122	547.567	1.214130	0.110089	0.109718	552.019	58185.3	0.102974	0.323546	1706.15	93458.4