File: remote_trans/data/nanoindenter/0828-1/data/Data_2025-08-06,11h17m57s/2025-07-22_16-23-58_1_459.txt
2025-07-22, 16:23:58, 1
Index	Phase	Displacement	Time	Pos X	Pos Y	Pos Z	Rot A	Rot B	Piezo Z	Force A	Force B	Gripper	Voltage A	Voltage B	Temperature	Amplitude force	Amplitude pos	Stiffness	Phase shift	Phase excitation	Force A raw	Displacement raw	HMax	HMax raw	Real Force	Real Stiffness	Contact Depth	Area	Hardness	Reduced Mod.
[#]	[#]	[um]	[s]	[um]	[um]	[um]	[m°]	[m°]	[um]	[uN]	[uN]	[V]	[V]	[V]	[°C]	[uN]	[um]	[N/m]	[°]	[°]	[uN]	[um]	[um]	[um]	[uN]	[N/m]	[um]	[um^2]	[MPa]	[MPa]
459	1.000000	0.002179	7.36955e+06	-54139.1	1005.82	-29744.3	0.000000	0.000000	6.002795	0.014225	NaN	0.000000	0.001675	0.001738	28.0804	0.142354	0.000978	145.617	2.302739	-156.311	-0.070065	0.000884	-1.117030	-1.118325	0.014225	145.617	-1.117104	-8.503776E+14	-1.672823E-17	NaN
459	1.000000	0.012247	7.36955e+06	-54139.1	1005.82	-29744.3	0.000000	0.000000	6.012863	0.003240	NaN	0.000000	0.001593	0.001727	28.0805	0.010721	0.001140	9.402021	-14.9616	13.3265	0.037128	0.010770	-1.106963	-1.108440	0.003240	9.402021	-1.107221	-6.266013E+14	-5.170840E-18	NaN
459	1.000000	0.022130	7.36955e+06	-54139.1	1005.82	-29744.3	0.000000	0.000000	6.022746	-0.008703	NaN	0.000000	0.001578	0.001749	28.0805	0.072578	0.001606	45.2027	31.4239	-165.594	-0.047057	0.020842	-1.097079	-1.098367	-0.008703	45.2027	-1.096935	-4.559539E+14	1.908697E-17	NaN
459	1.000000	0.032142	7.36955e+06	-54139.1	1005.82	-29744.3	0.000000	0.000000	6.032757	-0.019278	NaN	0.000000	0.001623	0.001769	28.0808	0.087082	0.001840	47.3162	147.008	11.7689	-0.051521	0.030743	-1.087067	-1.088466	-0.019278	47.3162	-1.086762	-3.329125E+14	5.790790E-17	NaN
459	1.000000	0.042132	7.36955e+06	-54139.1	1005.82	-29744.3	0.000000	0.000000	6.042749	0.032372	NaN	0.000000	0.001627	0.001766	28.0806	0.099816	0.001937	51.5389	-21.5693	-166.633	0.025919	0.040834	-1.077078	-1.078376	0.032372	51.5389	-1.077549	-2.503763E+14	-1.292931E-16	NaN
459	1.000000	0.052127	7.36955e+06	-54139.1	1005.82	-29744.3	0.000000	0.000000	6.052744	0.026636	NaN	0.000000	0.001621	0.001804	28.081	0.106947	0.002121	50.4308	-153.415	13.8697	0.061896	0.050739	-1.067083	-1.068471	0.026636	50.4308	-1.067479	-1.833650E+14	-1.452605E-16	NaN
459	1.000000	0.062120	7.36955e+06	-54139.1	1005.82	-29744.3	0.000000	0.000000	6.062736	0.014248	NaN	0.000000	0.001607	0.001799	28.0803	0.105475	0.002054	51.3428	-155.414	-163.628	-0.008254	0.060821	-1.057090	-1.058389	0.014248	51.3428	-1.057298	-1.338159E+14	-1.064716E-16	NaN
459	1.000000	0.072128	7.36955e+06	-54139.1	1005.82	-29744.3	0.000000	0.000000	6.072744	0.008246	NaN	0.000000	0.001618	0.001801	28.0804	0.023815	0.002145	11.1041	-89.6313	17.155	-0.021244	0.070780	-1.047081	-1.048429	0.008246	11.1041	-1.047638	-9.923468E+13	-8.309364E-17	NaN
459	1.000000	0.082116	7.36955e+06	-54139.1	1005.82	-29744.3	0.000000	0.000000	6.082735	0.079050	NaN	0.000000	0.001631	0.001787	28.0804	0.070935	0.001939	36.5851	-143.435	-164.441	0.036447	0.080827	-1.037094	-1.038382	0.079050	36.5851	-1.038714	-7.527934E+13	-1.050083E-15	NaN
459	1.000000	0.092162	7.36955e+06	-54139.1	1005.82	-29744.3	0.000000	0.000000	6.092778	-0.011539	NaN	0.000000	0.001637	0.001825	28.0803	0.005772	0.002026	2.849043	-16.6638	15.426	0.050818	0.090753	-1.027047	-1.028456	-0.011539	2.849043	-1.024009	-4.774138E+13	2.417064E-16	NaN
459	1.000000	0.102152	7.36955e+06	-54139.1	1005.82	-29744.3	0.000000	0.000000	6.102766	-0.044334	NaN	0.000000	0.001580	0.001795	28.0809	0.038670	0.002127	18.1826	148.302	-166.528	0.099842	0.100825	-1.017057	-1.018384	-0.044334	18.1826	-1.015229	-3.637059E+13	1.218955E-15	NaN
459	1.000000	0.112180	7.36955e+06	-54139.1	1005.82	-29744.3	0.000000	0.000000	6.112796	-0.002761	NaN	0.000000	0.001603	0.001778	28.082	0.074128	0.001970	37.6246	24.2023	15.876	-0.007170	0.110814	-1.007030	-1.008396	-0.002761	37.6246	-1.006974	-2.816172E+13	9.804819E-17	NaN
459	1.000000	0.122175	7.36955e+06	-54139.1	1005.82	-29744.3	0.000000	0.000000	6.122791	0.000103	NaN	0.000000	0.001600	0.001781	28.0815	0.069080	0.002066	33.4309	140.871	-164.592	-0.054655	0.120827	-0.997034	-0.998383	0.000103	33.4309	-0.997037	-2.069518E+13	-4.959913E-18	NaN
459	1.000000	0.132141	7.36955e+06	-54139.1	1005.82	-29744.3	0.000000	0.000000	6.132756	-0.021060	NaN	0.000000	0.001622	0.001780	28.0814	0.033182	0.002045	16.2255	-81.5084	17.6491	0.001753	0.130797	-0.987068	-0.988413	-0.021060	16.2255	-0.986095	-1.474063E+13	1.428680E-15	NaN
459	1.000000	0.142149	7.36955e+06	-54139.1	1005.82	-29744.3	0.000000	0.000000	6.142764	-0.010408	NaN	0.000000	0.001567	0.001774	28.0815	0.072650	0.002009	36.1637	24.2405	-165.997	-0.069636	0.140848	-0.977061	-0.978361	-0.010408	36.1637	-0.976845	-1.106370E+13	9.406973E-16	NaN
459	1.000000	0.152179	7.36955e+06	-54139.1	1005.82	-29744.3	0.000000	0.000000	6.152796	0.036511	NaN	0.000000	0.001554	0.001778	28.0814	0.039513	0.001982	19.935	60.5774	14.8313	0.061714	0.150791	-0.967031	-0.968418	0.036511	19.935	-0.968404	-8.514468E+12	-4.288061E-15	NaN
459	1.000000	0.162191	7.36955e+06	-54139.1	1005.82	-29744.3	0.000000	0.000000	6.162806	-0.016565	NaN	0.000000	0.001514	0.001776	28.0812	0.091353	0.001766	51.7354	-78.4286	-161.374	0.017331	0.160852	-0.957018	-0.958357	-0.016565	51.7354	-0.956778	-5.935087E+12	2.790949E-15	NaN
459	1.000000	0.172194	7.36955e+06	-54139.1	1005.82	-29744.3	0.000000	0.000000	6.172811	0.028249	NaN	0.000000	0.001559	0.001782	28.0812	0.037416	0.002038	18.3594	65.4874	16.6242	0.067931	0.170814	-0.947015	-0.948395	0.028249	18.3594	-0.948169	-4.542932E+12	-6.218148E-15	NaN
459	1.000000	0.182174	7.36955e+06	-54139.1	1005.82	-29744.3	0.000000	0.000000	6.182787	-0.085570	NaN	0.000000	0.001541	0.001787	28.0812	0.074578	0.001986	37.5432	-161.859	-160.906	-0.071591	0.180832	-0.937035	-0.938377	-0.085570	37.5432	-0.935326	-3.048373E+12	2.807059E-14	NaN
459	1.000000	0.192195	7.36955e+06	-54139.1	1005.82	-29744.3	0.000000	0.000000	6.192815	0.092583	NaN	0.000000	0.001519	0.001780	28.0813	0.027280	0.002114	12.906	176.229	16.0899	0.094918	0.190806	-0.927014	-0.928403	0.092583	12.906	-0.932394	-2.782969E+12	-3.326776E-14	NaN
459	1.000000	0.202163	7.36955e+06	-54139.1	1005.82	-29744.3	0.000000	0.000000	6.202779	0.014754	NaN	0.000000	0.001483	0.001791	28.0812	0.078641	0.001817	43.2766	105.203	-160.485	0.000420	0.200885	-0.917046	-0.918325	0.014754	43.2766	-0.917302	-1.740918E+12	-8.474678E-15	NaN
459	1.000000	0.212228	7.36955e+06	-54139.1	1005.82	-29744.3	0.000000	0.000000	6.212847	0.073293	NaN	0.000000	0.001517	0.001793	28.0814	0.139188	0.001756	79.2567	-56.2547	19.2421	-0.040737	0.210838	-0.906981	-0.908371	0.073293	79.2567	-0.907675	-1.290491E+12	-5.679504E-14	NaN
459	1.000000	0.222187	7.36955e+06	-54139.1	1005.82	-29744.3	0.000000	0.000000	6.222804	0.009715	NaN	0.000000	0.001542	0.001802	28.0816	0.035082	0.001945	18.0354	17.7118	-162.433	-0.025900	0.220894	-0.897022	-0.898315	0.009715	18.0354	-0.897426	-9.381730E+11	-1.035544E-14	NaN
459	1.000000	0.232188	7.36955e+06	-54139.1	1005.82	-29744.3	0.000000	0.000000	6.232806	0.049484	NaN	0.000000	0.001527	0.001792	28.0815	0.082842	0.002079	39.8481	-162.909	15.7014	0.026043	0.230896	-0.887021	-0.888313	0.049484	39.8481	-0.887953	-6.986128E+11	-7.083193E-14	NaN
459	1.000000	0.242194	7.36955e+06	-54139.1	1005.82	-29744.3	0.000000	0.000000	6.242809	-0.016150	NaN	0.000000	0.001577	0.001797	28.0807	0.084426	0.001808	46.6862	17.6911	-167.28	0.046603	0.240903	-0.877016	-0.878306	-0.016150	46.6862	-0.876756	-4.929904E+11	3.275986E-14	NaN
459	1.000000	0.252241	7.36955e+06	-54139.1	1005.82	-29744.3	0.000000	0.000000	6.252854	-0.050807	NaN	0.000000	0.001576	0.001782	28.0803	0.028020	0.001988	14.0941	-10.4469	15.2376	-0.040466	0.250766	-0.866969	-0.868443	-0.050807	14.0941	-0.864265	-3.340740E+11	1.520844E-13	NaN
459	1.000000	0.262212	7.36955e+06	-54139.1	1005.82	-29744.3	0.000000	0.000000	6.262828	0.000197	NaN	0.000000	0.001581	0.001823	28.0803	0.043843	0.001990	22.0346	103.269	-163.985	0.077138	0.260901	-0.856997	-0.858308	0.000197	22.0346	-0.857004	-2.664185E+11	-7.378618E-16	NaN
459	1.000000	0.272215	7.36955e+06	-54139.1	1005.82	-29744.3	0.000000	0.000000	6.272833	0.054147	NaN	0.000000	0.001530	0.001788	28.0803	0.082589	0.002046	40.3607	-168.359	17.1422	0.054636	0.270869	-0.846994	-0.848340	0.054147	40.3607	-0.848000	-2.012127E+11	-2.691050E-13	NaN
459	1.000000	0.282231	7.36955e+06	-54139.1	1005.82	-29744.3	0.000000	0.000000	6.282845	-0.035388	NaN	0.000000	0.001514	0.001781	28.0805	0.035112	0.002086	16.8311	-152.413	-162.205	-0.011136	0.280959	-0.836979	-0.838250	-0.035388	16.8311	-0.835402	-1.358291E+11	2.605342E-13	NaN
459	1.000000	0.292261	7.36955e+06	-54139.1	1005.82	-29744.3	0.000000	0.000000	6.292877	0.002380	NaN	0.000000	0.001566	0.001768	28.08	0.103163	0.002176	47.4145	-179.163	17.609	0.052061	0.290897	-0.826948	-0.828312	0.002380	47.4145	-0.826986	-1.044549E+11	-2.278346E-14	NaN
459	1.000000	0.302251	7.36955e+06	-54139.1	1005.82	-29744.3	0.000000	0.000000	6.302868	0.028538	NaN	0.000000	0.001608	0.001791	28.0805	0.039870	0.001986	20.0751	-51.0111	-161.986	0.042486	0.300965	-0.816959	-0.818244	0.028538	20.0751	-0.818025	-7.896358E+10	-3.614091E-13	NaN
459	1.000000	0.312248	7.36955e+06	-54139.1	1005.82	-29744.3	0.000000	0.000000	6.312862	-0.045982	NaN	0.000000	0.001596	0.001798	28.0801	0.099161	0.002083	47.6139	54.2047	13.4422	-0.005487	0.310857	-0.806961	-0.808353	-0.045982	47.6139	-0.806237	-5.463985E+10	8.415539E-13	NaN
459	1.000000	0.322254	7.36955e+06	-54139.1	1005.82	-29744.4	0.000000	0.000000	6.322872	0.042970	NaN	0.000000	0.001593	0.001760	28.0803	0.100673	0.001979	50.8662	90.0453	-165.052	0.009187	0.320904	-0.796955	-0.798305	0.042970	50.8662	-0.797589	-4.169922E+10	-1.030468E-12	NaN
459	1.000000	0.332243	7.36955e+06	-54139.1	1005.82	-29744.4	0.000000	0.000000	6.332856	-0.056994	NaN	0.000000	0.001572	0.001742	28.0801	0.062150	0.001993	31.1826	105.142	14.5839	0.060197	0.330910	-0.786967	-0.788299	-0.056994	31.1826	-0.785596	-2.865898E+10	1.988703E-12	NaN
459	1.000000	0.342244	7.36955e+06	-54139.1	1005.82	-29744.4	0.000000	0.000000	6.342858	-0.044908	NaN	0.000000	0.001565	0.001797	28.0806	0.045986	0.002094	21.9644	103.389	-167.681	0.011209	0.340948	-0.776965	-0.778261	-0.044908	21.9644	-0.775432	-2.085200E+10	2.153668E-12	NaN
459	1.000000	0.352263	7.36955e+06	-54139.1	1005.82	-29744.4	0.000000	0.000000	6.352879	0.000196	NaN	0.000000	0.001571	0.001794	28.0801	0.089407	0.002035	43.9346	-30.6489	14.3396	-0.048133	0.350910	-0.766946	-0.768300	0.000196	43.9346	-0.766949	-1.598911E+10	-1.226395E-14	NaN
459	1.000000	0.362251	7.36955e+06	-54139.1	1005.82	-29744.4	0.000000	0.000000	6.362868	0.032527	NaN	0.000000	0.001567	0.001771	28.0802	0.057680	0.001975	29.2061	-152.129	-164.805	0.005125	0.360948	-0.756958	-0.758261	0.032527	29.2061	-0.757793	-1.200274E+10	-2.709988E-12	NaN
459	1.000000	0.372258	7.36955e+06	-54139.1	1005.82	-29744.4	0.000000	0.000000	6.372872	-0.036481	NaN	0.000000	0.001502	0.001773	28.0803	0.037020	0.002076	17.8347	-120.916	17.7485	-0.011273	0.370956	-0.746951	-0.748253	-0.036481	17.8347	-0.745417	-8.143857E+9	4.479591E-12	NaN
459	1.000000	0.382259	7.36955e+06	-54139.1	1005.82	-29744.4	0.000000	0.000000	6.382876	0.026212	NaN	0.000000	0.001533	0.001770	28.0813	0.088544	0.002051	43.1788	-44.5794	-160.979	-0.039489	0.380968	-0.736950	-0.738241	0.026212	43.1788	-0.737406	-6.334548E+9	-4.137892E-12	NaN
459	1.000000	0.392251	7.36955e+06	-54139.1	1005.82	-29744.4	0.000000	0.000000	6.392867	0.008830	NaN	0.000000	0.001551	0.001746	28.0814	0.038446	0.002192	17.5379	0.470711	17.007	0.009088	0.390950	-0.726958	-0.728259	0.008830	17.5379	-0.727336	-4.618411E+9	-1.911960E-12	NaN
459	1.000000	0.402280	7.36955e+06	-54139.1	1005.82	-29744.4	0.000000	0.000000	6.402893	-0.058054	NaN	0.000000	0.001548	0.001793	28.0813	0.056468	0.001969	28.6837	120.089	-165.484	0.011259	0.401012	-0.716929	-0.718198	-0.058054	28.6837	-0.715411	-3.176026E+9	1.827875E-11	NaN
459	1.000000	0.412299	7.36955e+06	-54139.1	1005.82	-29744.4	0.000000	0.000000	6.412913	-0.053767	NaN	0.000000	0.001540	0.001778	28.0813	0.068060	0.002005	33.9443	-85.1534	11.2418	-0.087259	0.410869	-0.706910	-0.708341	-0.053767	33.9443	-0.705722	-2.342414E+9	2.295360E-11	NaN
459	1.000000	0.422259	7.36955e+06	-54139.1	1005.82	-29744.4	0.000000	0.000000	6.422877	0.048968	NaN	0.000000	0.001542	0.001760	28.0811	0.032628	0.001986	16.4284	175.042	-163.259	0.004745	0.420989	-0.696950	-0.698221	0.048968	16.4284	-0.699186	-1.907280E+9	-2.567399E-11	NaN
459	1.000000	0.432307	7.36955e+06	-54139.1	1005.82	-29744.4	0.000000	0.000000	6.432923	-0.001294	NaN	0.000000	0.001532	0.001826	28.0811	0.100852	0.001895	53.2096	62.4755	13.1132	0.068292	0.430899	-0.686902	-0.688311	-0.001294	53.2096	-0.686884	-1.295186E+9	9.987088E-13	NaN
459	1.000000	0.442301	7.36955e+06	-54139.1	1005.82	-29744.4	0.000000	0.000000	6.442917	-0.010962	NaN	0.000000	0.001488	0.001847	28.0812	0.083347	0.002026	41.1466	2.462909	-163.33	-0.021087	0.440990	-0.676908	-0.678220	-0.010962	41.1466	-0.676708	-9.401184E+8	1.166039E-11	NaN
459	1.000000	0.452290	7.36955e+06	-54139.1	1005.82	-29744.4	0.000000	0.000000	6.452908	0.049958	NaN	0.000000	0.001553	0.001817	28.0811	0.097805	0.001971	49.6285	-145.63	16.445	0.032227	0.450921	-0.666919	-0.668289	0.049958	49.6285	-0.667674	-7.072171E+8	-7.064029E-11	NaN
459	1.000000	0.462266	7.36955e+06	-54139.1	1005.82	-29744.4	0.000000	0.000000	6.462884	0.043787	NaN	0.000000	0.001525	0.001760	28.0811	0.023266	0.002039	11.4124	-111.196	-165.403	-0.008993	0.460993	-0.656943	-0.658217	0.043787	11.4124	-0.659820	-5.520894E+8	-7.931076E-11	NaN
459	1.000000	0.472318	7.36955e+06	-54139.1	1005.82	-29744.4	0.000000	0.000000	6.472933	-0.018193	NaN	0.000000	0.001539	0.001783	28.081	0.108525	0.002113	51.3693	-15.8516	12.5715	0.042762	0.470947	-0.646891	-0.648263	-0.018193	51.3693	-0.646626	-3.640594E+8	4.997225E-11	NaN
459	1.000000	0.482320	7.36955e+06	-54139.1	1005.82	-29744.4	0.000000	0.000000	6.482936	0.008730	NaN	0.000000	0.001555	0.001809	28.0811	0.070080	0.001956	35.8362	69.1546	-165.869	-0.035507	0.481029	-0.636889	-0.638180	0.008730	35.8362	-0.637072	-2.692210E+8	-3.242797E-11	NaN
459	1.000000	0.492341	7.36955e+06	-54139.1	1005.82	-29744.4	0.000000	0.000000	6.492960	0.087658	NaN	0.000000	0.001538	0.001797	28.0811	0.031936	0.001928	16.5629	124.41	16.2789	0.076596	0.490956	-0.626869	-0.628253	0.087658	16.5629	-0.630838	-2.210718E+8	-3.965145E-10	NaN
459	1.000000	0.502310	7.36955e+06	-54139.1	1005.82	-29744.4	0.000000	0.000000	6.502927	0.026789	NaN	0.000000	0.001537	0.001772	28.081	0.040077	0.002020	19.8425	132.778	-163.963	0.041568	0.501016	-0.616899	-0.618193	0.026789	19.8425	-0.617912	-1.468677E+8	-1.824004E-10	NaN
459	1.000000	0.512337	7.36955e+06	-54139.1	1005.82	-29744.4	0.000000	0.000000	6.512954	0.014869	NaN	0.000000	0.001526	0.001776	28.0812	0.068747	0.001823	37.712	132.459	10.2934	0.052117	0.510959	-0.606872	-0.608250	0.014869	37.712	-0.607168	-1.045055E+8	-1.422795E-10	NaN
459	1.000000	0.522333	7.36955e+06	-54139.1	1005.82	-29744.4	0.000000	0.000000	6.522947	-0.036592	NaN	0.000000	0.001535	0.001807	28.0799	0.074866	0.002095	35.7418	-118.82	-163.367	-0.020262	0.520987	-0.596876	-0.598222	-0.036592	35.7418	-0.596108	-7.359611E+7	4.972066E-10	NaN
459	1.000000	0.532348	7.36955e+06	-54139.1	1005.82	-29744.4	0.000000	0.000000	6.532965	0.007832	NaN	0.000000	0.001520	0.001795	28.08	0.015338	0.002089	7.340453	-76.2482	15.8245	0.029702	0.530990	-0.586861	-0.588219	0.007832	7.340453	-0.587661	-5.628811E+7	-1.391393E-10	NaN
459	1.000000	0.542358	7.36955e+06	-54139.1	1005.82	-29744.4	0.000000	0.000000	6.542974	0.020445	NaN	0.000000	0.001541	0.001798	28.08	0.067232	0.002204	30.4987	-83.5815	-164.347	0.071048	0.541021	-0.576852	-0.578188	0.020445	30.4987	-0.577354	-4.057011E+7	-5.039435E-10	NaN
459	1.000000	0.552337	7.36955e+06	-54139.1	1005.82	-29744.4	0.000000	0.000000	6.552952	-0.005658	NaN	0.000000	0.001503	0.001795	28.0803	0.052090	0.002203	23.6489	-58.3721	14.7641	-0.115878	0.550982	-0.566873	-0.568227	-0.005658	23.6489	-0.566693	-2.890230E+7	1.957776E-10	NaN
459	1.000000	0.562331	7.36955e+06	-54139.1	1005.82	-29744.4	0.000000	0.000000	6.562945	-0.042785	NaN	0.000000	0.001542	0.001741	28.0798	0.088448	0.001846	47.9214	179.275	-165.371	-0.088372	0.561003	-0.556879	-0.558207	-0.042785	47.9214	-0.556209	-2.069775E+7	2.067156E-9	NaN
459	1.000000	0.572334	7.36955e+06	-54139.1	1005.82	-29744.4	0.000000	0.000000	6.572948	-0.043362	NaN	0.000000	0.001560	0.001774	28.0798	0.042595	0.001857	22.9357	67.4779	18.3505	0.013553	0.571035	-0.546875	-0.548174	-0.043362	22.9357	-0.545457	-1.468988E+7	2.951805E-9	NaN
459	1.000000	0.582357	7.36955e+06	-54139.1	1005.82	-29744.4	0.000000	0.000000	6.582971	-0.037064	NaN	0.000000	0.001573	0.001769	28.08	0.077597	0.001980	39.1992	-147.212	-166.673	-0.012837	0.581060	-0.536853	-0.538149	-0.037064	39.1992	-0.536144	-1.091092E+7	3.396945E-9	NaN
459	1.000000	0.592357	7.36955e+06	-54139.1	1005.82	-29744.4	0.000000	0.000000	6.592973	-0.002212	NaN	0.000000	0.001519	0.001781	28.0806	0.078145	0.002062	37.8953	-9.157003	16.7539	0.023689	0.591013	-0.526852	-0.528196	-0.002212	37.8953	-0.526808	-8.09539e+06	2.731998E-10	NaN
459	1.000000	0.602363	7.36955e+06	-54139.1	1005.82	-29744.4	0.000000	0.000000	6.602975	-0.077178	NaN	0.000000	0.001571	0.001774	28.0801	0.070153	0.002117	33.1402	179.34	-166.707	0.096072	0.600994	-0.516847	-0.518216	-0.077178	33.1402	-0.515100	-5.56449e+06	1.386977E-8	NaN
459	1.000000	0.612389	7.36955e+06	-54139.1	1005.82	-29744.4	0.000000	0.000000	6.613005	0.003213	NaN	0.000000	0.001589	0.001788	28.0803	0.026778	0.001808	14.8116	157.148	13.4275	-0.034204	0.611030	-0.506821	-0.508179	0.003213	14.8116	-0.506983	-4.28932e+06	-7.490822E-10	NaN
459	1.000000	0.622369	7.36955e+06	-54139.1	1005.82	-29744.4	0.000000	0.000000	6.622985	-0.005019	NaN	0.000000	0.001581	0.001756	28.0799	0.070075	0.002008	34.8938	-23.8259	-164.986	0.009050	0.621067	-0.496840	-0.498142	-0.005019	34.8938	-0.496732	-3.08613e+06	1.626206E-9	NaN
459	1.000000	0.632367	7.36955e+06	-54139.1	1005.82	-29744.4	0.000000	0.000000	6.632983	-0.001859	NaN	0.000000	0.001565	0.001777	28.0801	0.058759	0.002038	28.8324	-165.791	16.3028	-0.087889	0.631035	-0.486843	-0.488174	-0.001859	28.8324	-0.486794	-2.24172e+06	8.291181E-10	NaN
459	1.000000	0.642412	7.36955e+06	-54139.1	1005.82	-29744.4	0.000000	0.000000	6.643028	-0.009842	NaN	0.000000	0.001567	0.001780	28.0799	0.068498	0.002057	33.3043	-86.2317	-163.19	0.003069	0.641105	-0.476797	-0.478104	-0.009842	33.3043	-0.476576	-1.61277e+06	6.102459E-9	NaN
459	1.000000	0.652413	7.36955e+06	-54139.1	1005.82	-29744.4	0.000000	0.000000	6.653029	0.013635	NaN	0.000000	0.001571	0.001777	28.081	0.093432	0.002091	44.6794	-120.528	18.6961	0.007833	0.651013	-0.466796	-0.468196	0.013635	44.6794	-0.467025	-1.18488e+06	-1.150752E-8	NaN
459	1.000000	0.662355	7.36955e+06	-54139.1	1005.82	-29744.4	0.000000	0.000000	6.662969	-0.031166	NaN	0.000000	0.001575	0.001794	28.0814	0.048120	0.002133	22.5649	-127.899	-164.958	0.018951	0.661075	-0.456855	-0.458134	-0.031166	22.5649	-0.455819	-824586	3.779584E-8	NaN
459	1.000000	0.672412	7.36955e+06	-54139.1	1005.82	-29744.4	0.000000	0.000000	6.673027	-0.004050	NaN	0.000000	0.001579	0.001762	28.0811	0.115474	0.001937	59.6068	-42.9516	14.8054	-0.011201	0.670965	-0.446798	-0.448244	-0.004050	59.6068	-0.446747	-614486	6.591195E-9	NaN
459	1.000000	0.682397	7.36955e+06	-54139.1	1005.82	-29744.4	0.000000	0.000000	6.683015	0.043346	NaN	0.000000	0.001544	0.001748	28.0812	0.048427	0.001982	24.4341	49.4271	-166.469	0.083299	0.681093	-0.436812	-0.438117	0.043346	24.4341	-0.438143	-464667	-9.328340E-8	NaN
459	1.000000	0.692381	7.36955e+06	-54139.1	1005.82	-29744.4	0.000000	0.000000	6.692995	-0.030817	NaN	0.000000	0.001528	0.001757	28.0813	0.041565	0.001922	21.6285	124.413	16.3663	-0.021015	0.691003	-0.426829	-0.428206	-0.030817	21.6285	-0.425760	-310490	9.925288E-8	NaN
459	1.000000	0.702389	7.36955e+06	-54139.1	1005.82	-29744.4	0.000000	0.000000	6.703007	0.057055	NaN	0.000000	0.001594	0.001770	28.0815	0.046302	0.002105	21.9981	-97.5141	-164.952	0.120933	0.701109	-0.416821	-0.418100	0.057055	21.9981	-0.418766	-247121	-2.308791E-7	NaN
459	1.000000	0.712415	7.36955e+06	-54139.1	1005.82	-29744.4	0.000000	0.000000	6.713033	0.059929	NaN	0.000000	0.001534	0.001795	28.0814	0.031284	0.001895	16.5096	148.517	16.1232	0.051057	0.711057	-0.406795	-0.408153	0.059929	16.5096	-0.409517	-182613	-3.281754E-7	NaN
459	1.000000	0.722425	7.36955e+06	-54139.1	1005.82	-29744.4	0.000000	0.000000	6.723042	0.026766	NaN	0.000000	0.001536	0.001779	28.0811	0.154725	0.001908	81.0845	-107.775	-167.18	-0.015502	0.721086	-0.396784	-0.398124	0.026766	81.0845	-0.397032	-121241	-2.207700E-7	NaN
459	1.000000	0.732443	7.36955e+06	-54139.1	1005.82	-29744.4	0.000000	0.000000	6.733058	-0.013918	NaN	0.000000	0.001541	0.001817	28.0814	0.006674	0.002003	3.332060	-177.13	15.3671	-0.021560	0.731037	-0.386767	-0.388173	-0.013918	3.332060	-0.383634	-77984.5	1.784755E-7	NaN
459	1.000000	0.742421	7.36955e+06	-54139.1	1005.82	-29744.4	0.000000	0.000000	6.743038	0.041169	NaN	0.000000	0.001563	0.001828	28.0813	0.015457	0.001976	7.824143	103.176	-166.53	0.015231	0.741104	-0.376788	-0.378105	0.041169	7.824143	-0.380735	-70865.1	-5.809543E-7	NaN
459	1.000000	0.752440	7.36955e+06	-54139.1	1005.82	-29744.4	0.000000	0.000000	6.753055	-0.025205	NaN	0.000000	0.001545	0.001796	28.0813	0.048824	0.002050	23.8186	-139.707	15.7253	-0.066814	0.751059	-0.366770	-0.368151	-0.025205	23.8186	-0.365976	-43464.3	5.798988E-7	NaN
459	1.000000	0.762431	7.36955e+06	-54139.1	1005.82	-29744.4	0.000000	0.000000	6.763047	0.002528	NaN	0.000000	0.001569	0.001796	28.0809	0.052336	0.002142	24.4335	52.0924	-167.364	-0.003668	0.761099	-0.356778	-0.358110	0.002528	24.4335	-0.356856	-32090	-7.878492E-8	NaN
459	1.000000	0.772443	7.36955e+06	-54139.1	1005.82	-29744.4	0.000000	0.000000	6.773056	-0.052596	NaN	0.000000	0.001571	0.001759	28.0815	0.051836	0.002023	25.6222	35.7041	13.6433	0.060968	0.771094	-0.346767	-0.348115	-0.052596	25.6222	-0.345227	-21760.1	2.417060E-6	NaN
459	1.000000	0.782428	7.36955e+06	-54139.1	1005.82	-29744.4	0.000000	0.000000	6.783044	0.019027	NaN	0.000000	0.001560	0.001794	28.0815	0.005877	0.002025	2.902275	-95.651	-167.076	0.062188	0.781188	-0.336782	-0.338021	0.019027	2.902275	-0.341699	-19333.2	-9.841437E-7	NaN
459	1.000000	0.792450	7.36955e+06	-54139.1	1005.82	-29744.4	0.000000	0.000000	6.793070	0.104323	NaN	0.000000	0.001538	0.001809	28.0803	0.100454	0.001828	54.9506	-86.1573	18.5093	0.037173	0.791088	-0.326760	-0.328122	0.104323	54.9506	-0.328184	-12269.8	-8.502380E-6	NaN
459	1.000000	0.802439	7.36955e+06	-54139.1	1005.82	-29744.4	0.000000	0.000000	6.803054	-0.021089	NaN	0.000000	0.001560	0.001778	28.0803	0.136767	0.002011	68.0212	12.4448	-165.356	0.011312	0.801162	-0.316770	-0.318047	-0.021089	68.0212	-0.316538	-8272.4	2.549304E-6	NaN
459	1.000000	0.812459	7.36955e+06	-54139.1	1005.82	-29744.4	0.000000	0.000000	6.813073	-0.029052	NaN	0.000000	0.001561	0.001779	28.0799	0.105093	0.001921	54.7218	-76.0126	16.223	-0.046762	0.811036	-0.306751	-0.308173	-0.029052	54.7218	-0.306353	-5848.19	4.967665E-6	NaN
459	1.000000	0.822468	7.36955e+06	-54139.1	1005.82	-29744.4	0.000000	0.000000	6.823083	-0.005318	NaN	0.000000	0.001566	0.001759	28.0803	0.018176	0.002136	8.510144	14.0081	-165.586	0.042817	0.821109	-0.296742	-0.298101	-0.005318	8.510144	-0.296273	-4140.87	1.284211E-6	NaN
459	1.000000	0.832456	7.36955e+06	-54139.1	1005.82	-29744.4	0.000000	0.000000	6.833071	-0.016551	NaN	0.000000	0.001517	0.001786	28.0799	0.095392	0.001920	49.6782	49.0712	15.1995	-0.029056	0.831118	-0.286754	-0.288091	-0.016551	49.6782	-0.286504	-2957.08	5.597000E-6	NaN
459	1.000000	0.842462	7.36955e+06	-54139.1	1005.82	-29744.4	0.000000	0.000000	6.843077	-0.013431	NaN	0.000000	0.001578	0.001809	28.0812	0.115429	0.002014	57.3016	-54.7719	-166.731	-0.037383	0.841162	-0.276747	-0.278048	-0.013431	57.3016	-0.276572	-2095	6.411175E-6	NaN
459	1.000000	0.852496	7.36955e+06	-54139.1	1005.82	-29744.4	0.000000	0.000000	6.853112	0.012022	NaN	0.000000	0.001550	0.001780	28.0799	0.061003	0.002067	29.5196	-35.7416	15.5503	0.003766	0.851150	-0.266714	-0.268059	0.012022	29.5196	-0.267019	-1500.31	-8.013155E-6	NaN
459	1.000000	0.862497	7.36955e+06	-54139.1	1005.82	-29744.4	0.000000	0.000000	6.863112	-0.032545	NaN	0.000000	0.001530	0.001781	28.0803	0.131305	0.002003	65.5667	-113.41	-165.279	0.028511	0.861178	-0.256712	-0.258031	-0.032545	65.5667	-0.256340	-1029.74	3.160493E-5	NaN
459	1.000000	0.872494	7.36955e+06	-54139.1	1005.82	-29744.4	0.000000	0.000000	6.873111	0.025977	NaN	0.000000	0.001576	0.001769	28.0798	0.108821	0.002076	52.4156	-66.5258	15.4736	0.033153	0.871139	-0.246715	-0.248071	0.025977	52.4156	-0.247087	-741.053	-3.505442E-5	NaN
459	1.000000	0.882495	7.36955e+06	-54139.1	1005.82	-29744.4	0.000000	0.000000	6.883110	-0.030290	NaN	0.000000	0.001559	0.001790	28.0801	0.124202	0.001989	62.4528	96.1624	-164.284	-0.008182	0.881181	-0.236714	-0.238028	-0.030290	62.4528	-0.236350	-504.01	6.009716E-5	NaN
459	1.000000	0.892487	7.36955e+06	-54139.1	1005.82	-29744.4	0.000000	0.000000	6.893104	0.011906	NaN	0.000000	0.001547	0.001777	28.0798	0.048727	0.002044	23.8334	-68.526	14.0164	-0.018087	0.891116	-0.226722	-0.228094	0.011906	23.8334	-0.227097	-360.241	-3.305105E-5	NaN
459	1.000000	0.902505	7.36955e+06	-54139.1	1005.82	-29744.4	0.000000	0.000000	6.903118	-0.063868	NaN	0.000000	0.001564	0.001768	28.0799	0.080539	0.002038	39.5121	100.39	-163.56	-0.022262	0.901194	-0.216704	-0.218016	-0.063868	39.5121	-0.215492	-235.194	0.000272	NaN
459	1.000000	0.912495	7.36955e+06	-54139.1	1005.82	-29744.4	0.000000	0.000000	6.913109	-0.030207	NaN	0.000000	0.001555	0.001771	28.0799	0.018649	0.002016	9.252128	-59.0375	12.0556	0.038723	0.911093	-0.206714	-0.208116	-0.030207	9.252128	-0.204266	-154.731	0.000195	NaN
459	1.000000	0.922513	7.36955e+06	-54139.1	1005.82	-29744.4	0.000000	0.000000	6.923127	-0.026896	NaN	0.000000	0.001546	0.001783	28.0798	0.029973	0.002089	14.3512	6.300129	-165.07	0.036526	0.921223	-0.196697	-0.197987	-0.026896	14.3512	-0.195291	-110.16	0.000244	NaN
459	1.000000	0.932511	7.36955e+06	-54139.1	1005.82	-29744.4	0.000000	0.000000	6.933127	-0.002420	NaN	0.000000	0.001574	0.001819	28.081	0.035609	0.001957	18.1978	-105.278	17.143	0.014940	0.931172	-0.186698	-0.188038	-0.002420	18.1978	-0.186599	-78.8925	3.067280E-5	NaN
459	1.000000	0.942494	7.36955e+06	-54139.1	1005.82	-29744.4	0.000000	0.000000	6.943112	0.048786	NaN	0.000000	0.001534	0.001793	28.0809	0.075107	0.002087	35.9953	151.678	-166.309	-0.036238	0.941173	-0.176715	-0.178036	0.048786	35.9953	-0.177732	-55.8198	-0.000874	NaN
459	1.000000	0.952464	7.36955e+06	-54139.1	1005.82	-29744.4	0.000000	0.000000	6.953080	-0.006751	NaN	0.000000	0.001580	0.001782	28.0813	0.084328	0.002009	41.9734	33.3762	9.527480	-0.076957	0.951120	-0.166745	-0.168090	-0.006751	41.9734	-0.166625	-35.8741	0.000188	NaN
459	1.000000	0.962496	7.36955e+06	-54139.1	1005.82	-29744.4	0.000000	0.000000	6.963114	0.044962	NaN	0.000000	0.001601	0.001767	28.0812	0.065087	0.002103	30.9436	-24.1424	-162.694	0.149543	0.961227	-0.156713	-0.157982	0.044962	30.9436	-0.157803	-25.0516	-0.001795	NaN
459	1.000000	0.972475	7.36955e+06	-54139.1	1005.82	-29744.4	0.000000	0.000000	6.973092	0.027714	NaN	0.000000	0.001563	0.001769	28.0813	0.074531	0.001984	37.5597	169.499	13.4206	0.051008	0.971223	-0.146734	-0.147987	0.027714	37.5597	-0.147287	-16.1563	-0.001715	NaN
459	1.000000	0.982527	7.36955e+06	-54139.1	1005.82	-29744.4	0.000000	0.000000	6.983141	-0.042876	NaN	0.000000	0.001589	0.001764	28.0813	0.076282	0.001908	39.9746	-9.049530	-162.503	-0.010224	0.981235	-0.136682	-0.137974	-0.042876	39.9746	-0.135878	-9.886036	0.004337	NaN
459	1.000000	0.992544	7.36955e+06	-54139.1	1005.82	-29744.4	0.000000	0.000000	6.993159	-0.006541	NaN	0.000000	0.001583	0.001763	28.0813	0.087047	0.001949	44.6724	177.492	16.3054	-0.017613	0.991194	-0.126666	-0.128015	-0.006541	44.6724	-0.126556	-6.526596	0.001002	NaN
459	1.000000	1.002532	7.36955e+06	-54139.1	1005.82	-29744.4	0.000000	0.000000	7.003148	-0.008521	NaN	0.000000	0.001608	0.001758	28.0812	0.016220	0.001856	8.738613	-17.1075	-163.973	0.013729	1.001172	-0.116677	-0.118038	-0.008521	8.738613	-0.115946	-3.995404	0.002133	NaN
459	1.000000	1.012561	7.36955e+06	-54139.1	1005.82	-29744.4	0.000000	0.000000	7.013179	0.042768	NaN	0.000000	0.001598	0.001823	28.0812	0.107815	0.002046	52.7056	153.224	12.8881	0.081476	1.011203	-0.106648	-0.108006	0.042768	52.7056	-0.107256	-2.628126	-0.016273	NaN
459	1.000000	1.022525	7.36955e+06	-54139.1	1005.82	-29744.4	0.000000	0.000000	7.023140	-0.023957	NaN	0.000000	0.001604	0.001829	28.0815	0.028989	0.002059	14.0769	22.174	-167.783	-0.009529	1.021215	-0.096685	-0.097994	-0.023957	14.0769	-0.095408	-1.441129	0.016624	NaN
459	1.000000	1.032534	7.36955e+06	-54139.1	1005.82	-29744.4	0.000000	0.000000	7.033149	-0.004518	NaN	0.000000	0.001643	0.001780	28.0813	0.086137	0.002038	42.2674	176.026	15.0138	0.074212	1.031202	-0.086676	-0.088007	-0.004518	42.2674	-0.086596	-0.897641	0.005033	NaN
459	1.000000	1.042558	7.36955e+06	-54139.1	1005.82	-29744.4	0.000000	0.000000	7.043173	-0.006178	NaN	0.000000	0.001635	0.001841	28.0814	0.037149	0.002023	18.3659	169.858	-164.11	-0.004765	1.041211	-0.076652	-0.077998	-0.006178	18.3659	-0.076399	-0.501818	0.012312	NaN
459	1.000000	1.052525	7.36955e+06	-54139.1	1005.82	-29744.4	0.000000	0.000000	7.053142	0.025199	NaN	0.000000	0.001611	0.001808	28.0815	0.135361	0.002032	66.609	2.529574	11.7439	0.067818	1.051186	-0.066685	-0.068023	0.025199	66.609	-0.066968	-0.282362	-0.089243	NaN
459	1.000000	1.062535	7.36955e+06	-54139.1	1005.82	-29744.4	0.000000	0.000000	7.063151	-0.003932	NaN	0.000000	0.001606	0.001799	28.0803	0.132786	0.002031	65.3905	-2.942113	-167.062	-0.109487	1.061199	-0.056674	-0.058011	-0.003932	65.3905	-0.056629	-0.143807	0.027339	NaN
459	1.000000	1.072534	7.36955e+06	-54139.1	1005.82	-29744.4	0.000000	0.000000	7.073146	-0.081857	NaN	0.000000	0.001614	0.001804	28.0801	0.112268	0.001965	57.1479	-115.211	16.2775	0.031467	1.071162	-0.046675	-0.048048	-0.081857	57.1479	-0.045601	-0.067046	1.220894	NaN
459	1.000000	1.082587	7.36955e+06	-54139.1	1005.82	-29744.4	0.000000	0.000000	7.083203	0.012097	NaN	0.000000	0.001635	0.001770	28.0804	0.037221	0.002033	18.3053	129.517	-164.359	-0.057812	1.081262	-0.036623	-0.037947	0.012097	18.3053	-0.037118	-0.037017	-0.326798	NaN
459	1.000000	1.092530	7.36955e+06	-54139.1	1005.82	-29744.4	0.000000	0.000000	7.093148	0.048683	NaN	0.000000	0.001629	0.001771	28.0803	0.133935	0.001907	70.222	127.56	17.2306	0.079810	1.091234	-0.026679	-0.027976	0.048683	70.222	-0.027199	-0.019291	-2.523588	NaN
459	1.000000	1.102552	7.36955e+06	-54139.1	1005.82	-29744.4	0.000000	0.000000	7.103167	-0.007420	NaN	0.000000	0.001635	0.001785	28.0802	0.009882	0.001846	5.353913	148.074	-168.236	-0.024715	1.101244	-0.016658	-0.017965	-0.007420	5.353913	-0.015618	-0.009649	0.768976	NaN
459	1.000000	1.112564	7.36955e+06	-54139.1	1005.82	-29744.4	0.000000	0.000000	7.113178	-0.022482	NaN	0.000000	0.001652	0.001759	28.0806	0.020061	0.002064	9.721031	111.599	16.5966	-0.009362	1.111213	-0.006646	-0.007997	-0.022482	9.721031	-0.004911	-0.003361	6.689420	NaN
459	1.000000	1.122558	7.36955e+06	-54139.1	1005.82	-29744.4	0.000000	0.000000	7.123281	2.618510	NaN	0.000000	0.001666	0.001757	28.0801	3.315177	0.001814	1827.56	8.819262	-167.526	1.284745	1.121245	0.003348	0.002035	2.618510	1827.56	0.002274	0.001777	1473.33	39606.6
459	2.000000	1.129658	7.36955e+06	-54139.1	1005.82	-29744.4	0.000000	0.000000	7.130743	11.3928	NaN	0.000000	0.001574	0.001753	28.081	10.4983	0.001646	6376.29	8.855808	4.887135	10.3589	1.129265	0.010449	0.010056	11.3928	6376.29	0.009109	0.008208	1388	64301.6
459	2.000000	1.132119	7.36955e+06	-54139.1	1005.82	-29744.4	0.000000	0.000000	7.133385	15.8088	NaN	0.000000	0.001613	0.001760	28.0802	12.6002	0.001737	7252.87	9.129502	-174.174	16.9111	1.131815	0.012909	0.012606	15.8088	7252.87	0.011274	0.010633	1486.83	64263.6
459	2.000000	1.134598	7.36955e+06	-54139.1	1005.82	-29744.4	0.000000	0.000000	7.136049	20.3077	NaN	0.000000	0.001639	0.001789	28.0801	15.6653	0.001816	8625.52	1.173901	10.2944	18.7253	1.134182	0.015389	0.014973	20.3077	8625.52	0.013623	0.013493	1505.05	67842.8
459	2.000000	1.137060	7.36955e+06	-54139.1	1005.82	-29744.4	0.000000	0.000000	7.138630	23.1937	NaN	0.000000	0.001558	0.001715	28.0804	18.6939	0.001845	10132.9	8.468774	-177.766	22.2918	1.136739	0.017851	0.017529	23.1937	10132.9	0.016134	0.016828	1378.31	71366.5
459	2.000000	1.139550	7.36955e+06	-54139.1	1005.82	-29744.4	0.000000	0.000000	7.141343	28.62	NaN	0.000000	0.001575	0.001763	28.0807	20.6239	0.001784	11563.3	9.935398	0.595069	27.6094	1.139118	0.020341	0.019908	28.62	11563.3	0.018485	0.020217	1415.66	74302
459	2.000000	1.142060	7.36955e+06	-54139.1	1005.82	-29744.4	0.000000	0.000000	7.144149	35.8176	NaN	0.000000	0.001539	0.001803	28.0804	22.7146	0.001821	12472.4	7.763470	-179.524	35.8236	1.141725	0.022851	0.022516	35.8176	12472.4	0.020697	0.023650	1514.51	74098.7
459	2.000000	1.144557	7.36955e+06	-54139.1	1005.82	-29744.4	0.000000	0.000000	7.146835	40.4089	NaN	0.000000	0.001546	0.001748	28.0804	25.8756	0.001834	14112.3	5.532908	1.719888	39.2735	1.144227	0.025347	0.025018	40.4089	14112.3	0.023200	0.027822	1452.41	77299.6
459	2.000000	1.147075	7.36955e+06	-54139.1	1005.82	-29744.4	0.000000	0.000000	7.149665	47.9877	NaN	0.000000	0.001567	0.001735	28.0817	28.7506	0.001736	16560.3	8.069881	178.183	49.3125	1.146742	0.027866	0.027532	47.9877	16560.3	0.025692	0.032287	1486.28	84202.9
459	2.000000	1.149499	7.36955e+06	-54139.1	1005.82	-29744.4	0.000000	0.000000	7.152517	58.4117	NaN	0.000000	0.001554	0.001721	28.0815	30.1501	0.001683	17916.6	6.554640	-1.226534	55.4837	1.149127	0.030290	0.029918	58.4117	17916.6	0.027844	0.036394	1604.97	85804.9
459	2.000000	1.151981	7.36955e+06	-54139.1	1005.82	-29744.4	0.000000	0.000000	7.155338	66.6564	NaN	0.000000	0.001542	0.001730	28.0813	31.8114	0.001634	19467.3	1.054423	-176.672	64.5042	1.151689	0.032772	0.032480	66.6564	19467.3	0.030203	0.041167	1619.19	87661.2
459	2.000000	1.154503	7.36955e+06	-54139.1	1005.82	-29744.4	0.000000	0.000000	7.158213	75.2286	NaN	0.000000	0.001553	0.001723	28.0814	35.0893	0.001756	19984.1	5.938372	-1.611180	73.9641	1.154124	0.035294	0.034914	75.2286	19984.1	0.032470	0.046019	1634.72	85111.5
459	2.000000	1.156981	7.36955e+06	-54139.1	1005.82	-29744.4	0.000000	0.000000	7.160862	79.3824	NaN	0.000000	0.001569	0.001719	28.0816	37.7876	0.001846	20465.5	1.864723	-178.198	78.0616	1.156722	0.037771	0.037512	79.3824	20465.5	0.034862	0.051425	1543.65	82453.1
459	2.000000	1.159448	7.36955e+06	-54139.1	1005.82	-29744.4	0.000000	0.000000	7.163953	94.5459	NaN	0.000000	0.001516	0.001737	28.0817	40.3333	0.001805	22340.9	8.136588	-3.880853	92.7393	1.159101	0.040239	0.039892	94.5459	22340.9	0.037065	0.056663	1668.56	85748
459	2.000000	1.162021	7.36955e+06	-54139.1	1005.82	-29744.4	0.000000	0.000000	7.166779	100.702	NaN	0.000000	0.001555	0.001746	28.0815	42.1229	0.001774	23745.9	4.417141	178.483	100.907	1.161698	0.042812	0.042489	100.702	23745.9	0.039631	0.063078	1596.46	86381.5
459	2.000000	1.164494	7.36955e+06	-54139.1	1005.82	-29744.4	0.000000	0.000000	7.169704	111.69	NaN	0.000000	0.001527	0.001760	28.0819	44.9282	0.001830	24550.9	2.145019	-0.282140	109.001	1.164155	0.045285	0.044946	111.69	24550.9	0.041873	0.068957	1619.7	85418.2
459	2.000000	1.167040	7.36955e+06	-54139.1	1005.82	-29744.4	0.000000	0.000000	7.172672	121.958	NaN	0.000000	0.001566	0.001744	28.0813	47.4449	0.001867	25413.2	7.281562	175.616	122.943	1.166698	0.047830	0.047488	121.958	25413.2	0.044231	0.075420	1617.05	84545.4
459	2.000000	1.169497	7.36955e+06	-54139.1	1005.82	-29744.4	0.000000	0.000000	7.175583	132.995	NaN	0.000000	0.001547	0.001765	28.0814	48.6609	0.001702	28588.9	4.624347	-3.113388	132.1	1.169123	0.050288	0.049914	132.995	28588.9	0.046799	0.082776	1606.69	90786
459	2.000000	1.171926	7.36955e+06	-54139.1	1005.82	-29744.4	0.000000	0.000000	7.178515	145.219	NaN	0.000000	0.001557	0.001761	28.0814	51.1767	0.001744	29348.8	2.682859	178.539	141.616	1.171637	0.052717	0.052427	145.219	29348.8	0.049006	0.089365	1625	89697.2
459	2.000000	1.174438	7.36955e+06	-54139.1	1005.82	-29744.4	0.000000	0.000000	7.181260	150.894	NaN	0.000000	0.001566	0.001754	28.0815	53.5952	0.001888	28385.2	1.953419	-0.749931	147.17	1.174183	0.055228	0.054974	150.894	28385.2	0.051242	0.096289	1567.09	83574.9
459	2.000000	1.176962	7.36955e+06	-54139.1	1005.82	-29744.4	0.000000	0.000000	7.184352	164.68	NaN	0.000000	0.001512	0.001771	28.0814	55.8478	0.001752	31881.8	1.876696	178.623	164.198	1.176696	0.057753	0.057487	164.68	31881.8	0.053879	0.104778	1571.71	89987.5
459	2.000000	1.179475	7.36955e+06	-54139.1	1005.82	-29744.4	0.000000	0.000000	7.187626	183.17	NaN	0.000000	0.001557	0.001790	28.0813	58.362	0.001704	34257.3	5.574777	-4.704574	180.879	1.179054	0.060266	0.059844	183.17	34257.3	0.056256	0.112725	1624.92	93221.3
459	2.000000	1.181929	7.36955e+06	-54139.1	1005.82	-29744.4	0.000000	0.000000	7.190753	199.547	NaN	0.000000	0.001602	0.001778	28.0805	60.7329	0.001687	35996.1	3.744429	175.737	197.093	1.181707	0.062719	0.062498	199.547	35996.1	0.058562	0.120701	1653.23	94661.4
459	2.000000	1.184390	7.36955e+06	-54139.1	1005.82	-29744.4	0.000000	0.000000	7.193656	210.308	NaN	0.000000	0.001608	0.001773	28.0802	63.322	0.001871	33846.8	2.741978	-2.707777	205.161	1.184142	0.065181	0.064933	210.308	33846.8	0.060520	0.127681	1647.13	86542
459	2.000000	1.186986	7.36955e+06	-54139.1	1005.82	-29744.4	0.000000	0.000000	7.196799	223.605	NaN	0.000000	0.001619	0.001767	28.0802	67.17	0.001751	38367.2	5.464950	173.781	223.421	1.186593	0.067776	0.067384	223.605	38367.2	0.063405	0.138302	1616.78	94258.3
459	2.000000	1.189518	7.36955e+06	-54139.1	1005.82	-29744.4	0.000000	0.000000	7.200055	241.201	NaN	0.000000	0.001597	0.001787	28.0802	68.4401	0.001839	37224.1	4.588883	-4.327695	239.421	1.189008	0.070309	0.069799	241.201	37224.1	0.065449	0.146069	1651.28	88985.2
459	2.000000	1.191914	7.36955e+06	-54139.1	1005.82	-29744.4	0.000000	0.000000	7.203092	256.783	NaN	0.000000	0.001641	0.001752	28.0805	70.6013	0.001783	39605.9	3.651650	175.061	253.957	1.191690	0.072705	0.072481	256.783	39605.9	0.067842	0.155422	1652.17	91786.2
459	2.000000	1.194416	7.36955e+06	-54139.1	1005.82	-29744.4	0.000000	0.000000	7.206230	272.242	NaN	0.000000	0.001616	0.001768	28.0802	73.3056	0.001787	41012.7	4.865247	-5.536453	269.108	1.194067	0.075207	0.074858	272.242	41012.7	0.070228	0.165017	1649.79	92241.9
459	2.000000	1.196911	7.36955e+06	-54139.1	1005.82	-29744.4	0.000000	0.000000	7.209199	283.763	NaN	0.000000	0.001516	0.001731	28.0802	76.5486	0.001755	43618.5	1.149351	176.584	281.908	1.196816	0.077702	0.077606	283.763	43618.5	0.072822	0.175758	1614.51	95057.3
459	2.000000	1.199384	7.36955e+06	-54139.1	1005.82	-29744.4	0.000000	0.000000	7.212473	303.247	NaN	0.000000	0.001553	0.001741	28.0801	78.7176	0.001841	42762.5	4.258543	-5.643975	298.175	1.199036	0.080175	0.079827	303.247	42762.5	0.074856	0.184400	1644.5	90981.9
459	2.000000	1.201950	7.36955e+06	-54139.1	1005.82	-29744.4	0.000000	0.000000	7.215612	317.188	NaN	0.000000	0.001568	0.001749	28.0804	81.1663	0.001809	44875.9	7.137022	170.532	317.187	1.201722	0.082740	0.082513	317.188	44875.9	0.077439	0.195659	1621.12	92690.7
459	2.000000	1.204253	7.36955e+06	-54139.1	1005.82	-29744.4	0.000000	0.000000	7.218319	327.007	NaN	0.000000	0.001525	0.001746	28.0799	84.3333	0.001797	46942.7	4.705485	-7.712581	315.001	1.203967	0.085043	0.084758	327.007	46942.7	0.079819	0.206307	1585.05	94424.5
459	2.000000	1.206866	7.36955e+06	-54139.1	1005.82	-29744.4	0.000000	0.000000	7.222044	354.021	NaN	0.000000	0.001551	0.001768	28.08	87.3779	0.001842	47439.5	6.135124	171.823	348.479	1.206516	0.087657	0.087306	354.021	47439.5	0.082060	0.216576	1634.63	93133.8
459	2.000000	1.209444	7.36955e+06	-54139.1	1005.82	-29744.4	0.000000	0.000000	7.225328	371.204	NaN	0.000000	0.001594	0.001746	28.0802	87.947	0.001808	48650.4	6.196613	-7.772389	367.682	1.208962	0.090234	0.089752	371.204	48650.4	0.084512	0.228078	1627.53	93071.7
459	2.000000	1.211818	7.36955e+06	-54139.1	1005.82	-29744.4	0.000000	0.000000	7.228479	390.087	NaN	0.000000	0.001580	0.001751	28.0802	90.1677	0.001760	51244.3	2.345028	175.477	384.749	1.211484	0.092609	0.092275	390.087	51244.3	0.086899	0.239546	1628.44	95658.8
459	2.000000	1.214509	7.36955e+06	-54139.1	1005.82	-29744.4	0.000000	0.000000	7.231640	401.503	NaN	0.000000	0.001562	0.001765	28.0812	93.5476	0.001741	53738.8	7.422549	-10.8409	402.071	1.214229	0.095299	0.095019	401.503	53738.8	0.089696	0.253310	1585.02	97551.7
459	2.000000	1.216843	7.36955e+06	-54139.1	1005.82	-29744.4	0.000000	0.000000	7.234801	421.612	NaN	0.000000	0.001575	0.001745	28.0814	96.1699	0.001790	53737.1	5.647480	170.806	415.271	1.216568	0.097633	0.097359	421.612	53737.1	0.091749	0.263645	1599.16	95617.5
459	2.000000	1.219367	7.36955e+06	-54139.1	1005.82	-29744.4	0.000000	0.000000	7.238282	444.888	NaN	0.000000	0.001514	0.001746	28.0815	97.6977	0.001793	54480	6.784294	-10.393	439.804	1.219054	0.100157	0.099845	444.888	54480	0.094033	0.275367	1615.61	94853.6
459	2.000000	1.221851	7.36955e+06	-54139.1	1005.82	-29744.4	0.000000	0.000000	7.241730	468.296	NaN	0.000000	0.001532	0.001774	28.0813	98.4415	0.001676	58734.9	4.561055	171.289	463.636	1.221572	0.102642	0.102363	468.296	58734.9	0.096662	0.289159	1619.51	99793.2
459	2.000000	1.224272	7.36955e+06	-54139.1	1005.82	-29744.4	0.000000	0.000000	7.244890	486.28	NaN	0.000000	0.001575	0.001758	28.0811	100.957	0.001820	55474.3	2.687803	-5.992186	477.018	1.223987	0.105063	0.104778	486.28	55474.3	0.098489	0.298923	1626.77	92701.2
459	2.000000	1.226877	7.36955e+06	-54139.1	1005.82	-29744.4	0.000000	0.000000	7.248392	508.071	NaN	0.000000	0.001592	0.001761	28.0814	104.929	0.001758	59691.5	7.182641	168.529	504.198	1.226619	0.107668	0.107409	508.071	59691.5	0.101284	0.314163	1617.22	97298.9