File: remote_trans/data/nanoindenter/0828-1/data/Data_2025-08-06,11h17m57s/2025-07-22_16-23-58_1_244.txt
2025-07-22, 16:23:58, 1
Index	Phase	Displacement	Time	Pos X	Pos Y	Pos Z	Rot A	Rot B	Piezo Z	Force A	Force B	Gripper	Voltage A	Voltage B	Temperature	Amplitude force	Amplitude pos	Stiffness	Phase shift	Phase excitation	Force A raw	Displacement raw	HMax	HMax raw	Real Force	Real Stiffness	Contact Depth	Area	Hardness	Reduced Mod.
[#]	[#]	[um]	[s]	[um]	[um]	[um]	[m°]	[m°]	[um]	[uN]	[uN]	[V]	[V]	[V]	[°C]	[uN]	[um]	[N/m]	[°]	[°]	[uN]	[um]	[um]	[um]	[uN]	[N/m]	[um]	[um^2]	[MPa]	[MPa]
244	1.000000	0.002237	7.36743e+06	-50839.1	955.819	-29754.7	0.000000	0.000000	6.002798	0.013738	NaN	0.000000	0.001553	0.001705	28.0777	0.038918	0.000993	39.1842	-80.8067	-162.423	0.039181	0.000954	-1.069534	-1.070817	0.013738	39.1842	-1.069797	-1.969955E+14	-6.973685E-17	NaN
244	1.000000	0.010229	7.36743e+06	-50839.1	955.819	-29754.7	0.000000	0.000000	6.010792	0.074696	NaN	0.000000	0.001550	0.001705	28.0779	0.080000	0.001022	78.2479	54.5602	-169.797	0.097001	0.008863	-1.061542	-1.062908	0.074696	78.2479	-1.062258	-1.560157E+14	-4.787705E-16	NaN
244	1.000000	0.018182	7.36743e+06	-50839.1	955.818	-29754.7	0.000000	0.000000	6.018743	0.008935	NaN	0.000000	0.001583	0.001717	28.0778	0.042012	0.001809	23.219	-172.889	-167.961	0.150633	0.016924	-1.053589	-1.054847	0.008935	23.219	-1.053877	-1.203733E+14	-7.422881E-17	NaN
244	1.000000	0.026229	7.36743e+06	-50839.1	955.82	-29754.7	0.000000	0.000000	6.026789	0.008303	NaN	0.000000	0.001602	0.001728	28.0776	0.167289	0.001880	89.005	142.322	-169.244	0.006110	0.024865	-1.045542	-1.046906	0.008303	89.005	-1.045612	-9.320210E+13	-8.908566E-17	NaN
244	1.000000	0.034185	7.36743e+06	-50839.1	955.819	-29754.7	0.000000	0.000000	6.034748	0.061793	NaN	0.000000	0.001612	0.001730	28.0774	0.091700	0.001830	50.111	34.5944	-166.07	-0.015223	0.032849	-1.037586	-1.038922	0.061793	50.111	-1.038511	-7.480692E+13	-8.260350E-16	NaN
244	1.000000	0.042190	7.36743e+06	-50839.1	955.819	-29754.7	0.000000	0.000000	6.042751	0.014954	NaN	0.000000	0.001628	0.001695	28.0792	0.049862	0.001906	26.1582	174.135	-165.774	0.071245	0.040828	-1.029581	-1.030943	0.014954	26.1582	-1.030010	-5.749243E+13	-2.601064E-16	NaN
244	1.000000	0.050208	7.36743e+06	-50839.1	955.818	-29754.7	0.000000	0.000000	6.050766	-0.045067	NaN	0.000000	0.001583	0.001725	28.0795	0.024230	0.001981	12.2332	79.2311	-165.406	0.002204	0.048888	-1.021563	-1.022883	-0.045067	12.2332	-1.018800	-4.062596E+13	1.109311E-15	NaN
244	1.000000	0.058220	7.36743e+06	-50839.1	955.819	-29754.7	0.000000	0.000000	6.058782	0.031575	NaN	0.000000	0.001630	0.001710	28.0792	0.099043	0.001892	52.3514	176.983	-162.378	0.058688	0.056831	-1.013551	-1.014940	0.031575	52.3514	-1.014003	-3.501521E+13	-9.017549E-16	NaN
244	1.000000	0.066186	7.36743e+06	-50839.1	955.819	-29754.7	0.000000	0.000000	6.066746	0.002536	NaN	0.000000	0.001587	0.001700	28.0792	0.119244	0.001961	60.8096	-91.163	-167.494	-0.058097	0.064952	-1.005585	-1.006819	0.002536	60.8096	-1.005616	-2.700083E+13	-9.392268E-17	NaN
244	1.000000	0.074188	7.36743e+06	-50839.1	955.818	-29754.7	0.000000	0.000000	6.074748	-0.015332	NaN	0.000000	0.001557	0.001702	28.0792	0.041755	0.002015	20.7216	-82.5435	-164.033	-0.024649	0.072864	-0.997583	-0.998907	-0.015332	20.7216	-0.997028	-2.068950E+13	7.410583E-16	NaN
244	1.000000	0.082215	7.36743e+06	-50839.1	955.818	-29754.7	0.000000	0.000000	6.082776	0.031642	NaN	0.000000	0.001578	0.001687	28.0793	0.037088	0.001960	18.9206	145.864	-166.143	0.035146	0.080918	-0.989556	-0.990853	0.031642	18.9206	-0.990810	-1.706176E+13	-1.854537E-15	NaN
244	1.000000	0.090189	7.36743e+06	-50839.1	955.819	-29754.7	0.000000	0.000000	6.090751	0.046753	NaN	0.000000	0.001576	0.001733	28.0792	0.088711	0.002115	41.9441	143.955	-164.83	0.064641	0.088862	-0.981582	-0.982909	0.046753	41.9441	-0.982418	-1.315175E+13	-3.554904E-15	NaN
244	1.000000	0.098209	7.36743e+06	-50839.1	955.818	-29754.7	0.000000	0.000000	6.098771	0.044997	NaN	0.000000	0.001589	0.001719	28.079	0.061177	0.001894	32.3076	-65.2665	-164.789	0.042565	0.096870	-0.973562	-0.974901	0.044997	32.3076	-0.974606	-1.032144E+13	-4.359519E-15	NaN
244	1.000000	0.106199	7.36743e+06	-50839.1	955.819	-29754.7	0.000000	0.000000	6.106756	-0.064868	NaN	0.000000	0.001577	0.001694	28.0787	0.037895	0.002084	18.1837	-95.1971	-167.978	-0.055739	0.104897	-0.965572	-0.966874	-0.064868	18.1837	-0.962896	-7.176553E+12	9.038855E-15	NaN
244	1.000000	0.114194	7.36743e+06	-50839.1	955.819	-29754.7	0.000000	0.000000	6.114756	0.053241	NaN	0.000000	0.001565	0.001722	28.0788	0.064359	0.002058	31.2663	-32.3473	-165.864	0.022747	0.112952	-0.957577	-0.958819	0.053241	31.2663	-0.958854	-6.330264E+12	-8.410603E-15	NaN
244	1.000000	0.122183	7.36743e+06	-50839.1	955.819	-29754.7	0.000000	0.000000	6.122745	0.069572	NaN	0.000000	0.001574	0.001716	28.0789	0.065451	0.002041	32.065	141.187	-166.522	0.084164	0.120919	-0.949588	-0.950852	0.069572	32.065	-0.951216	-4.993709E+12	-1.393185E-14	NaN
244	1.000000	0.130221	7.36743e+06	-50839.1	955.818	-29754.7	0.000000	0.000000	6.130784	0.067834	NaN	0.000000	0.001577	0.001680	28.079	0.031462	0.001952	16.117	99.0093	-163.942	0.089289	0.128870	-0.941550	-0.942901	0.067834	16.117	-0.944706	-4.079691E+12	-1.662721E-14	NaN
244	1.000000	0.138221	7.36743e+06	-50839.1	955.819	-29754.7	0.000000	0.000000	6.138781	0.013655	NaN	0.000000	0.001561	0.001685	28.0793	0.099617	0.002082	47.8551	-176.741	-166.479	0.018321	0.136876	-0.933550	-0.934895	0.013655	47.8551	-0.933764	-2.904031E+12	-4.701991E-15	NaN
244	1.000000	0.146226	7.36743e+06	-50839.1	955.819	-29754.7	0.000000	0.000000	6.146786	-0.003594	NaN	0.000000	0.001571	0.001684	28.079	0.041830	0.001903	21.9781	-121.647	-163.894	0.087257	0.144909	-0.925545	-0.926862	-0.003594	21.9781	-0.925422	-2.240833E+12	1.603737E-15	NaN
244	1.000000	0.154212	7.36743e+06	-50839.1	955.82	-29754.7	0.000000	0.000000	6.154769	-0.078057	NaN	0.000000	0.001644	0.001686	28.079	0.079079	0.001920	41.1899	30.6246	-164.865	0.011034	0.152955	-0.917559	-0.918816	-0.078057	41.1899	-0.916138	-1.679025E+12	4.648924E-14	NaN
244	1.000000	0.162235	7.36743e+06	-50839.1	955.818	-29754.7	0.000000	0.000000	6.162795	0.016572	NaN	0.000000	0.001652	0.001706	28.0792	0.108115	0.001959	55.1876	-162.461	-165.202	-0.018561	0.160949	-0.909536	-0.910822	0.016572	55.1876	-0.909762	-1.377031E+12	-1.203478E-14	NaN
244	1.000000	0.170243	7.36743e+06	-50839.1	955.817	-29754.7	0.000000	0.000000	6.170803	0.001263	NaN	0.000000	0.001628	0.001710	28.0792	0.113430	0.001930	58.7759	64.0679	-165.76	0.064619	0.168896	-0.901528	-0.902875	0.001263	58.7759	-0.901544	-1.066432E+12	-1.184152E-15	NaN
244	1.000000	0.178233	7.36743e+06	-50839.1	955.818	-29754.7	0.000000	0.000000	6.178795	0.052553	NaN	0.000000	0.001619	0.001678	28.078	0.135990	0.002003	67.9071	-85.6624	-165.678	0.114779	0.176919	-0.893538	-0.894852	0.052553	67.9071	-0.894119	-8.464223E+11	-6.208804E-14	NaN
244	1.000000	0.186230	7.36743e+06	-50839.1	955.819	-29754.7	0.000000	0.000000	6.186791	0.023289	NaN	0.000000	0.001621	0.001712	28.0779	0.101666	0.002053	49.5146	-157.987	-167.16	0.033278	0.184888	-0.885541	-0.886883	0.023289	49.5146	-0.885893	-6.552342E+11	-3.554247E-14	NaN
244	1.000000	0.194275	7.36743e+06	-50839.1	955.819	-29754.7	0.000000	0.000000	6.194840	0.113048	NaN	0.000000	0.001618	0.001699	28.078	0.118064	0.002004	58.9181	-40.4068	-168.182	0.072352	0.192954	-0.877496	-0.878817	0.113048	58.9181	-0.878935	-5.276042E+11	-2.142663E-13	NaN
244	1.000000	0.202237	7.36743e+06	-50839.1	955.819	-29754.7	0.000000	0.000000	6.202799	0.038387	NaN	0.000000	0.001655	0.001697	28.0779	0.019195	0.001980	9.695095	37.1314	-168.704	0.089491	0.200978	-0.869534	-0.870793	0.038387	9.695095	-0.872503	-4.318259E+11	-8.889352E-14	NaN
244	1.000000	0.210238	7.36743e+06	-50839.1	955.818	-29754.7	0.000000	0.000000	6.210797	-0.018656	NaN	0.000000	0.001630	0.001722	28.0779	0.073819	0.001883	39.2039	127.697	-163.816	0.019722	0.208937	-0.861533	-0.862834	-0.018656	39.2039	-0.861176	-3.034179E+11	6.148678E-14	NaN
244	1.000000	0.218245	7.36743e+06	-50839.1	955.819	-29754.7	0.000000	0.000000	6.218806	0.027261	NaN	0.000000	0.001563	0.001688	28.0781	0.052456	0.002086	25.1509	-141.16	-162.874	0.050889	0.216977	-0.853526	-0.854794	0.027261	25.1509	-0.854339	-2.451831E+11	-1.111848E-13	NaN
244	1.000000	0.226246	7.36743e+06	-50839.1	955.818	-29754.7	0.000000	0.000000	6.226808	0.038172	NaN	0.000000	0.001601	0.001710	28.078	0.092672	0.002038	45.4664	10.4533	-169.892	-0.068607	0.224980	-0.845525	-0.846791	0.038172	45.4664	-0.846154	-1.899585E+11	-2.009496E-13	NaN
244	1.000000	0.234270	7.36743e+06	-50839.1	955.818	-29754.7	0.000000	0.000000	6.234831	0.012555	NaN	0.000000	0.001568	0.001643	28.0782	0.003030	0.001972	1.536371	148.989	-169.606	-0.027960	0.232942	-0.837501	-0.838829	0.012555	1.536371	-0.843630	-1.755750E+11	-7.150862E-14	NaN
244	1.000000	0.242247	7.36743e+06	-50839.1	955.818	-29754.7	0.000000	0.000000	6.242806	-0.032344	NaN	0.000000	0.001582	0.001675	28.0779	0.032188	0.002201	14.6266	63.0864	-163.824	-0.048342	0.240934	-0.829524	-0.830837	-0.032344	14.6266	-0.827865	-1.073616E+11	3.012644E-13	NaN
244	1.000000	0.250291	7.36743e+06	-50839.1	955.818	-29754.7	0.000000	0.000000	6.250852	0.012870	NaN	0.000000	0.001571	0.001667	28.078	0.048584	0.002132	22.7933	-50.215	-166.215	-0.008758	0.248989	-0.821480	-0.822782	0.012870	22.7933	-0.821904	-8.912980E+10	-1.443940E-13	NaN
244	1.000000	0.258278	7.36743e+06	-50839.1	955.818	-29754.7	0.000000	0.000000	6.258838	0.004774	NaN	0.000000	0.001548	0.001681	28.078	0.088721	0.001893	46.874	154.852	-164.788	0.014763	0.257001	-0.813493	-0.814770	0.004774	46.874	-0.813570	-6.870693E+10	-6.949002E-14	NaN
244	1.000000	0.266288	7.36743e+06	-50839.1	955.818	-29754.7	0.000000	0.000000	6.266848	-0.009799	NaN	0.000000	0.001566	0.001696	28.0782	0.064035	0.001913	33.4799	31.4202	-166.243	0.005114	0.264966	-0.805483	-0.806805	-0.009799	33.4799	-0.805263	-5.300289E+10	1.848855E-13	NaN
244	1.000000	0.274285	7.36743e+06	-50839.1	955.818	-29754.7	0.000000	0.000000	6.274845	0.013021	NaN	0.000000	0.001605	0.001684	28.078	0.119479	0.001975	60.4875	90.0749	-163.376	0.084887	0.272933	-0.797486	-0.798838	0.013021	60.4875	-0.797648	-4.177636E+10	-3.116928E-13	NaN
244	1.000000	0.282306	7.36743e+06	-50839.1	955.819	-29754.7	0.000000	0.000000	6.282867	0.010494	NaN	0.000000	0.001574	0.001646	28.0781	0.093266	0.001995	46.7527	-89.3504	-168.243	0.043793	0.280956	-0.789465	-0.790815	0.010494	46.7527	-0.789633	-3.251605E+10	-3.227270E-13	NaN
244	1.000000	0.290293	7.36743e+06	-50839.1	955.818	-29754.7	0.000000	0.000000	6.290853	0.010831	NaN	0.000000	0.001557	0.001735	28.078	0.089580	0.002216	40.4225	-157.902	-166.999	-0.036238	0.289019	-0.781478	-0.782752	0.010831	40.4225	-0.781679	-2.535425E+10	-4.271688E-13	NaN
244	1.000000	0.298303	7.36743e+06	-50839.1	955.818	-29754.7	0.000000	0.000000	6.298867	0.087346	NaN	0.000000	0.001573	0.001716	28.0779	0.007803	0.002166	3.602870	-1.400090	-168.642	0.116089	0.297010	-0.773468	-0.774761	0.087346	3.602870	-0.791650	-3.463339E+10	-2.522021E-12	NaN
244	1.000000	0.306281	7.36743e+06	-50839.1	955.819	-29754.7	0.000000	0.000000	6.306840	-0.018240	NaN	0.000000	0.001566	0.001713	28.0781	0.097863	0.001898	51.5509	-63.578	-166.032	-0.034782	0.304998	-0.765490	-0.766773	-0.018240	51.5509	-0.765225	-1.514867E+10	1.204082E-12	NaN
244	1.000000	0.314314	7.36743e+06	-50839.1	955.819	-29754.7	0.000000	0.000000	6.314873	-0.008031	NaN	0.000000	0.001563	0.001651	28.079	0.107922	0.001912	56.4481	34.8032	-167.964	-0.075052	0.313046	-0.757457	-0.758725	-0.008031	56.4481	-0.757351	-1.183742E+10	6.784573E-13	NaN
244	1.000000	0.322277	7.36743e+06	-50839.1	955.819	-29754.7	0.000000	0.000000	6.322838	0.018391	NaN	0.000000	0.001612	0.001646	28.079	0.047559	0.001920	24.7756	178.035	-165.047	0.073963	0.320958	-0.749494	-0.750813	0.018391	24.7756	-0.750051	-9.416989E+9	-1.952988E-12	NaN
244	1.000000	0.330307	7.36743e+06	-50839.1	955.818	-29754.7	0.000000	0.000000	6.330869	0.029334	NaN	0.000000	0.001608	0.001674	28.0789	0.013743	0.001924	7.144885	-18.4583	-168.036	-0.057257	0.329022	-0.741464	-0.742749	0.029334	7.144885	-0.744543	-7.923577E+9	-3.702056E-12	NaN
244	1.000000	0.338304	7.36743e+06	-50839.1	955.818	-29754.7	0.000000	0.000000	6.338865	0.026706	NaN	0.000000	0.001605	0.001670	28.0788	0.034359	0.002141	16.0494	151.643	-165.109	-0.024795	0.337005	-0.733467	-0.734766	0.026706	16.0494	-0.734715	-5.821814E+9	-4.587296E-12	NaN
244	1.000000	0.346256	7.36743e+06	-50839.1	955.818	-29754.7	0.000000	0.000000	6.346815	-0.011564	NaN	0.000000	0.001593	0.001669	28.0789	0.025549	0.001952	13.0916	58.1402	-165.696	0.010408	0.345004	-0.725515	-0.726767	-0.011564	13.0916	-0.724853	-4.272103E+9	2.706951E-12	NaN
244	1.000000	0.354333	7.36743e+06	-50839.1	955.818	-29754.7	0.000000	0.000000	6.354893	0.010016	NaN	0.000000	0.001603	0.001654	28.0788	0.045068	0.001917	23.5098	24.1535	-169.72	0.042636	0.353024	-0.717438	-0.718747	0.010016	23.5098	-0.717758	-3.418964E+9	-2.929661E-12	NaN
244	1.000000	0.362314	7.36743e+06	-50839.1	955.819	-29754.7	0.000000	0.000000	6.362874	0.004699	NaN	0.000000	0.001570	0.001678	28.0788	0.089041	0.001952	45.6117	-168.67	-167.976	0.040177	0.361057	-0.709457	-0.710714	0.004699	45.6117	-0.709534	-2.640530E+9	-1.779392E-12	NaN
244	1.000000	0.370312	7.36743e+06	-50839.1	955.819	-29754.7	0.000000	0.000000	6.370874	0.050066	NaN	0.000000	0.001595	0.001662	28.079	0.084061	0.002067	40.6621	119.029	-168.686	-0.021559	0.369004	-0.701459	-0.702767	0.050066	40.6621	-0.702382	-2.108919E+9	-2.374022E-11	NaN
244	1.000000	0.378339	7.36743e+06	-50839.1	955.818	-29754.7	0.000000	0.000000	6.378902	0.076706	NaN	0.000000	0.001605	0.001691	28.0792	0.083096	0.001918	43.3212	157.463	-164.993	0.002905	0.377018	-0.693432	-0.694753	0.076706	43.3212	-0.694760	-1.659411E+9	-4.622473E-11	NaN
244	1.000000	0.386320	7.36743e+06	-50839.1	955.818	-29754.7	0.000000	0.000000	6.386881	0.033979	NaN	0.000000	0.001620	0.001667	28.0788	0.045156	0.001980	22.8063	-154.636	-164.233	0.089595	0.384956	-0.685451	-0.686815	0.033979	22.8063	-0.686569	-1.282387E+9	-2.649655E-11	NaN
244	1.000000	0.394322	7.36743e+06	-50839.1	955.819	-29754.7	0.000000	0.000000	6.394882	-0.017694	NaN	0.000000	0.001617	0.001716	28.0786	0.102356	0.001996	51.2682	14.4533	-164.624	0.085052	0.393044	-0.677449	-0.678727	-0.017694	51.2682	-0.677190	-9.544883E+8	1.853735E-11	NaN
244	1.000000	0.402367	7.36743e+06	-50839.1	955.819	-29754.7	0.000000	0.000000	6.402924	-0.072751	NaN	0.000000	0.001629	0.001704	28.0788	0.081465	0.002079	39.1926	84.7783	-166.209	-0.039124	0.400986	-0.669404	-0.670785	-0.072751	39.1926	-0.668012	-7.147957E+8	1.017793E-10	NaN
244	1.000000	0.410348	7.36743e+06	-50839.1	955.819	-29754.7	0.000000	0.000000	6.410908	-0.004244	NaN	0.000000	0.001629	0.001694	28.0787	0.032504	0.001911	17.0106	83.3476	-168.315	-0.009483	0.408985	-0.661423	-0.662786	-0.004244	17.0106	-0.661236	-5.772984E+8	7.352230E-12	NaN
244	1.000000	0.418307	7.36743e+06	-50839.1	955.82	-29754.7	0.000000	0.000000	6.418867	0.011149	NaN	0.000000	0.001614	0.001663	28.0788	0.112962	0.001832	61.655	117.004	-166.076	0.013235	0.417051	-0.653464	-0.654720	0.011149	61.655	-0.653600	-4.537127E+8	-2.457227E-11	NaN
244	1.000000	0.426378	7.36743e+06	-50839.1	955.818	-29754.7	0.000000	0.000000	6.426939	0.029535	NaN	0.000000	0.001612	0.001683	28.0789	0.084297	0.002012	41.901	-134.055	-166.537	-0.028792	0.425077	-0.645393	-0.646694	0.029535	41.901	-0.645922	-3.560604E+8	-8.295040E-11	NaN
244	1.000000	0.434337	7.36743e+06	-50839.1	955.819	-29754.7	0.000000	0.000000	6.434898	0.025137	NaN	0.000000	0.001607	0.001668	28.0784	0.033503	0.001914	17.5042	-54.3681	-167.182	0.060780	0.433013	-0.637434	-0.638758	0.025137	17.5042	-0.638511	-2.817457E+8	-8.921958E-11	NaN
244	1.000000	0.442367	7.36743e+06	-50839.1	955.818	-29754.7	0.000000	0.000000	6.442927	-0.019713	NaN	0.000000	0.001618	0.001653	28.0789	0.075809	0.001991	38.0771	-27.426	-166.596	0.064642	0.441048	-0.629404	-0.630723	-0.019713	38.0771	-0.629015	-2.086900E+8	9.446033E-11	NaN
244	1.000000	0.450373	7.36743e+06	-50839.1	955.817	-29754.7	0.000000	0.000000	6.450936	0.063418	NaN	0.000000	0.001640	0.001668	28.0777	0.011969	0.002082	5.749542	33.0097	-167.232	0.084862	0.449071	-0.621398	-0.622700	0.063418	5.749542	-0.629670	-2.130581E+8	-2.976558E-10	NaN
244	1.000000	0.458368	7.36743e+06	-50839.1	955.82	-29754.7	0.000000	0.000000	6.458930	0.056742	NaN	0.000000	0.001642	0.001659	28.0774	0.140245	0.001924	72.9077	135.536	-166.309	0.040702	0.457071	-0.613403	-0.614700	0.056742	72.9077	-0.613987	-1.297049E+8	-4.374691E-10	NaN
244	1.000000	0.466361	7.36743e+06	-50839.1	955.819	-29754.7	0.000000	0.000000	6.466925	0.080730	NaN	0.000000	0.001624	0.001688	28.0778	0.046439	0.001896	24.4866	-104.319	-166.396	0.103047	0.465116	-0.605410	-0.606655	0.080730	24.4866	-0.607882	-1.068994E+8	-7.551941E-10	NaN
244	1.000000	0.474379	7.36743e+06	-50839.1	955.818	-29754.7	0.000000	0.000000	6.474938	-0.010070	NaN	0.000000	0.001625	0.001698	28.0776	0.117548	0.001953	60.1915	155.046	-169.158	0.047908	0.473067	-0.597392	-0.598704	-0.010070	60.1915	-0.597267	-7.635033E+7	1.318957E-10	NaN
244	1.000000	0.482397	7.36743e+06	-50839.1	955.819	-29754.7	0.000000	0.000000	6.482957	0.000974	NaN	0.000000	0.001635	0.001704	28.0777	0.161179	0.002017	79.9	39.9792	-167.392	0.022930	0.481040	-0.589374	-0.590731	0.000974	79.9	-0.589383	-5.945127E+7	-1.638134E-11	NaN
244	1.000000	0.490363	7.36743e+06	-50839.1	955.819	-29754.7	0.000000	0.000000	6.490925	0.057859	NaN	0.000000	0.001624	0.001703	28.0776	0.076171	0.001961	38.8427	166.032	-166.65	0.024452	0.489064	-0.581408	-0.582707	0.057859	38.8427	-0.582525	-4.781623E+7	-1.210022E-9	NaN
244	1.000000	0.498369	7.36743e+06	-50839.1	955.819	-29754.7	0.000000	0.000000	6.498928	-0.022984	NaN	0.000000	0.001617	0.001687	28.0778	0.114752	0.001863	61.5992	62.66	-165.08	-0.006226	0.497048	-0.573402	-0.574723	-0.022984	61.5992	-0.573123	-3.546262E+7	6.481298E-10	NaN
244	1.000000	0.506349	7.36743e+06	-50839.1	955.819	-29754.7	0.000000	0.000000	6.506912	0.067177	NaN	0.000000	0.001619	0.001737	28.0777	0.035545	0.002049	17.3476	39.13	-168.058	-0.063688	0.505050	-0.565422	-0.566721	0.067177	17.3476	-0.568326	-3.044397E+7	-2.206572E-9	NaN
244	1.000000	0.514368	7.36743e+06	-50839.1	955.818	-29754.7	0.000000	0.000000	6.514927	-0.022486	NaN	0.000000	0.001658	0.001681	28.0776	0.133811	0.002094	63.8958	18.5824	-165.909	0.063699	0.513084	-0.557403	-0.558687	-0.022486	63.8958	-0.557139	-2.132039E+7	1.054658E-9	NaN
244	1.000000	0.522365	7.36743e+06	-50839.1	955.818	-29754.7	0.000000	0.000000	6.522927	0.056610	NaN	0.000000	0.001618	0.001681	28.0779	0.055975	0.002072	27.0155	128.141	-165.332	0.025440	0.521122	-0.549406	-0.550649	0.056610	27.0155	-0.550978	-1.751851E+7	-3.231465E-9	NaN
244	1.000000	0.530390	7.36743e+06	-50839.1	955.818	-29754.7	0.000000	0.000000	6.530949	-0.007494	NaN	0.000000	0.001639	0.001711	28.0778	0.038206	0.001956	19.5282	91.2497	-166.015	0.045350	0.529049	-0.541381	-0.542722	-0.007494	19.5282	-0.541094	-1.277976E+7	5.864122E-10	NaN
244	1.000000	0.538393	7.36743e+06	-50839.1	955.819	-29754.7	0.000000	0.000000	6.538955	0.053642	NaN	0.000000	0.001647	0.001671	28.0779	0.100770	0.002002	50.3274	147.66	-165.153	0.050210	0.537027	-0.533378	-0.534744	0.053642	50.3274	-0.534177	-1.024644E+7	-5.235198E-9	NaN
244	1.000000	0.546423	7.36743e+06	-50839.1	955.819	-29754.7	0.000000	0.000000	6.546986	0.073746	NaN	0.000000	0.001639	0.001678	28.0776	0.068261	0.002026	33.6843	147.866	-163.436	0.042423	0.545032	-0.525348	-0.526739	0.073746	33.6843	-0.526990	-8.14269e+06	-9.056682E-9	NaN
244	1.000000	0.554427	7.36743e+06	-50839.1	955.818	-29754.7	0.000000	0.000000	6.554987	0.013239	NaN	0.000000	0.001624	0.001672	28.0778	0.053125	0.002028	26.2007	-133.237	-167.317	0.071093	0.553135	-0.517344	-0.518636	0.013239	26.2007	-0.517723	-6.05244e+06	-2.187398E-9	NaN
244	1.000000	0.562412	7.36743e+06	-50839.1	955.819	-29754.7	0.000000	0.000000	6.562974	0.031406	NaN	0.000000	0.001630	0.001697	28.0778	0.045815	0.001898	24.1374	-79.7745	-163.977	0.007032	0.561138	-0.509359	-0.510633	0.031406	24.1374	-0.510335	-4.77613e+06	-6.575647E-9	NaN
244	1.000000	0.570422	7.36743e+06	-50839.1	955.819	-29754.7	0.000000	0.000000	6.570982	-0.002238	NaN	0.000000	0.001634	0.001681	28.078	0.058760	0.002109	27.8603	140.658	-164.57	0.011190	0.569089	-0.501349	-0.502682	-0.002238	27.8603	-0.501289	-3.5727e+06	6.263084E-10	NaN
244	1.000000	0.578418	7.36743e+06	-50839.1	955.818	-29754.7	0.000000	0.000000	6.578976	-0.043828	NaN	0.000000	0.001662	0.001698	28.0779	0.069410	0.001972	35.2033	145.564	-163.54	-0.062181	0.577088	-0.493353	-0.494683	-0.043828	35.2033	-0.492419	-2.68655e+06	1.631386E-8	NaN
244	1.000000	0.586424	7.36743e+06	-50839.1	955.818	-29754.7	0.000000	0.000000	6.586984	0.009466	NaN	0.000000	0.001597	0.001680	28.079	0.010344	0.002031	5.093973	145.476	-166.658	0.031375	0.585090	-0.485347	-0.486681	0.009466	5.093973	-0.486741	-2.2379e+06	-4.229885E-9	NaN
244	1.000000	0.594394	7.36743e+06	-50839.1	955.819	-29754.7	0.000000	0.000000	6.594954	0.006278	NaN	0.000000	0.001587	0.001683	28.0789	0.065234	0.002060	31.6647	-3.113739	-165.384	0.003285	0.593084	-0.477377	-0.478687	0.006278	31.6647	-0.477526	-1.66298e+06	-3.775213E-9	NaN
244	1.000000	0.602426	7.36744e+06	-50839.1	955.819	-29754.7	0.000000	0.000000	6.602984	-0.047342	NaN	0.000000	0.001582	0.001693	28.0788	0.088009	0.002031	43.333	-78.3667	-164.877	-0.027900	0.601108	-0.469345	-0.470663	-0.047342	43.333	-0.468526	-1.24373e+06	3.806479E-8	NaN
244	1.000000	0.610423	7.36744e+06	-50839.1	955.819	-29754.7	0.000000	0.000000	6.610982	-0.028866	NaN	0.000000	0.001592	0.001686	28.0788	0.018602	0.002011	9.250996	-71.5954	-164.569	0.068909	0.609123	-0.461348	-0.462648	-0.028866	9.250996	-0.459008	-914275	3.157259E-8	NaN
244	1.000000	0.618450	7.36744e+06	-50839.1	955.82	-29754.7	0.000000	0.000000	6.619012	0.038319	NaN	0.000000	0.001577	0.001686	28.0789	0.112352	0.001949	57.656	-150.859	-165.264	0.010180	0.617160	-0.453321	-0.454611	0.038319	57.656	-0.453820	-772874	-4.958019E-8	NaN
244	1.000000	0.626450	7.36744e+06	-50839.1	955.819	-29754.7	0.000000	0.000000	6.627011	0.024012	NaN	0.000000	0.001601	0.001701	28.0789	0.048164	0.002095	22.9894	13.0565	-167.45	-0.003232	0.625125	-0.445321	-0.446646	0.024012	22.9894	-0.446104	-601808	-3.990024E-8	NaN
244	1.000000	0.634422	7.36744e+06	-50839.1	955.819	-29754.7	0.000000	0.000000	6.634987	0.106885	NaN	0.000000	0.001612	0.001708	28.0788	0.117527	0.002045	57.4587	-151.781	-167.894	0.125442	0.633150	-0.437349	-0.438621	0.106885	57.4587	-0.438744	-473838	-2.255719E-7	NaN
244	1.000000	0.642435	7.36744e+06	-50839.1	955.819	-29754.7	0.000000	0.000000	6.642997	0.046752	NaN	0.000000	0.001575	0.001735	28.0787	0.152960	0.001990	76.856	14.2211	-164.412	-0.012634	0.641050	-0.429336	-0.430721	0.046752	76.856	-0.429792	-354092	-1.320328E-7	NaN
244	1.000000	0.650451	7.36744e+06	-50839.1	955.818	-29754.7	0.000000	0.000000	6.651014	0.060990	NaN	0.000000	0.001576	0.001730	28.0787	0.106457	0.002023	52.6297	133.114	-164.775	0.050274	0.649113	-0.421320	-0.422658	0.060990	52.6297	-0.422189	-276342	-2.207053E-7	NaN
244	1.000000	0.658441	7.36744e+06	-50839.1	955.818	-29754.7	0.000000	0.000000	6.658997	-0.081518	NaN	0.000000	0.001575	0.001722	28.0789	0.037164	0.001928	19.2786	35.44	-167.534	-0.054948	0.657130	-0.413330	-0.414641	-0.081518	19.2786	-0.410159	-186493	4.371074E-7	NaN
244	1.000000	0.666430	7.36744e+06	-50839.1	955.819	-29754.7	0.000000	0.000000	6.666993	0.067728	NaN	0.000000	0.001616	0.001713	28.0788	0.016659	0.002015	8.266954	99.4669	-163.742	0.062930	0.665090	-0.405341	-0.406681	0.067728	8.266954	-0.411486	-194770	-3.477339E-7	NaN
244	1.000000	0.674463	7.36744e+06	-50839.1	955.818	-29754.7	0.000000	0.000000	6.675024	0.003719	NaN	0.000000	0.001567	0.001725	28.0789	0.098645	0.001983	49.7523	-160.968	-167.946	0.040325	0.673184	-0.397308	-0.398587	0.003719	49.7523	-0.397364	-122570	-3.034513E-8	NaN
244	1.000000	0.682466	7.36744e+06	-50839.1	955.819	-29754.7	0.000000	0.000000	6.683026	0.012046	NaN	0.000000	0.001570	0.001760	28.0786	0.031829	0.001901	16.7437	-1.480441	-169.18	-0.008473	0.681173	-0.389305	-0.390598	0.012046	16.7437	-0.389845	-95708	-1.258600E-7	NaN
244	1.000000	0.690464	7.36744e+06	-50839.1	955.818	-29754.7	0.000000	0.000000	6.691023	-0.024443	NaN	0.000000	0.001646	0.001711	28.0787	0.041338	0.001994	20.7301	134.72	-164.377	0.025270	0.689164	-0.381307	-0.382607	-0.024443	20.7301	-0.380423	-70138.4	3.484926E-7	NaN
244	1.000000	0.698476	7.36744e+06	-50839.1	955.819	-29754.7	0.000000	0.000000	6.699034	-0.052235	NaN	0.000000	0.001617	0.001689	28.0787	0.073032	0.002020	36.1496	-48.7507	-167.342	-0.007252	0.697137	-0.373295	-0.374634	-0.052235	36.1496	-0.372211	-53451.1	9.772419E-7	NaN
244	1.000000	0.706463	7.36744e+06	-50839.1	955.819	-29754.7	0.000000	0.000000	6.707026	0.069500	NaN	0.000000	0.001632	0.001687	28.0787	0.062554	0.002007	31.1673	-71.0579	-164.879	0.088579	0.705144	-0.365308	-0.366627	0.069500	31.1673	-0.366981	-44938.6	-1.546551E-6	NaN
244	1.000000	0.714483	7.36744e+06	-50839.1	955.819	-29754.7	0.000000	0.000000	6.715045	0.057485	NaN	0.000000	0.001591	0.001681	28.0788	0.106992	0.002085	51.3059	168.757	-165.719	0.032990	0.713220	-0.357288	-0.358551	0.057485	51.3059	-0.358129	-33479.8	-1.717014E-6	NaN
244	1.000000	0.722460	7.36744e+06	-50839.1	955.819	-29754.7	0.000000	0.000000	6.723024	0.075742	NaN	0.000000	0.001603	0.001724	28.0775	0.071922	0.002010	35.7854	73.4969	-167.545	0.085452	0.721093	-0.349311	-0.350678	0.075742	35.7854	-0.350898	-26304.7	-2.879408E-6	NaN
244	1.000000	0.730509	7.36744e+06	-50839.1	955.819	-29754.7	0.000000	0.000000	6.731068	-0.018050	NaN	0.000000	0.001594	0.001741	28.0779	0.038024	0.002012	18.9002	155.889	-167.562	-0.025583	0.729133	-0.341262	-0.342638	-0.018050	18.9002	-0.340546	-18599.8	9.704310E-7	NaN
244	1.000000	0.738460	7.36744e+06	-50839.1	955.818	-29754.7	0.000000	0.000000	6.739021	0.014327	NaN	0.000000	0.001611	0.001706	28.0775	0.066296	0.001869	35.4767	-178.711	-170.098	0.077835	0.737189	-0.333311	-0.334582	0.014327	35.4767	-0.333613	-14734.1	-9.723984E-7	NaN
244	1.000000	0.746502	7.36744e+06	-50839.1	955.819	-29754.7	0.000000	0.000000	6.747064	0.049548	NaN	0.000000	0.001602	0.001688	28.0775	0.025569	0.001935	13.2167	119.441	-163.228	0.001106	0.745103	-0.325269	-0.326668	0.049548	13.2167	-0.328081	-12227.4	-4.052247E-6	NaN
244	1.000000	0.754480	7.36744e+06	-50839.1	955.818	-29754.7	0.000000	0.000000	6.755039	-0.029435	NaN	0.000000	0.001602	0.001714	28.0776	0.109163	0.001946	56.082	-175.65	-165.73	0.058977	0.753198	-0.317291	-0.318573	-0.029435	56.082	-0.316898	-8374.11	3.515037E-6	NaN
244	1.000000	0.762480	7.36744e+06	-50839.1	955.819	-29754.7	0.000000	0.000000	6.763044	0.099811	NaN	0.000000	0.001592	0.001701	28.0776	0.021555	0.001907	11.3049	-44.3035	-165.537	0.039716	0.761153	-0.309291	-0.310618	0.099811	11.3049	-0.315913	-8098.78	-1.232416E-5	NaN
244	1.000000	0.770486	7.36744e+06	-50839.1	955.819	-29754.7	0.000000	0.000000	6.771046	0.000350	NaN	0.000000	0.001584	0.001673	28.0782	0.072527	0.002045	35.4643	-56.0583	-163.669	0.038839	0.769199	-0.301285	-0.302572	0.000350	35.4643	-0.301292	-4918.83	-7.123077E-8	NaN
244	1.000000	0.778506	7.36744e+06	-50839.1	955.817	-29754.7	0.000000	0.000000	6.779065	-0.033574	NaN	0.000000	0.001587	0.001701	28.0775	0.037022	0.002151	17.2127	136.677	-167.5	-0.063366	0.777215	-0.293265	-0.294556	-0.033574	17.2127	-0.291802	-3550.42	9.456223E-6	NaN
244	1.000000	0.786489	7.36744e+06	-50839.1	955.818	-29754.7	0.000000	0.000000	6.787051	0.065528	NaN	0.000000	0.001569	0.001721	28.0777	0.033117	0.002119	15.6253	-27.0914	-166.629	-0.001236	0.785210	-0.285282	-0.286561	0.065528	15.6253	-0.288428	-3160.33	-2.073463E-5	NaN
244	1.000000	0.794506	7.36744e+06	-50839.1	955.819	-29754.7	0.000000	0.000000	6.795065	-0.021590	NaN	0.000000	0.001567	0.001680	28.0774	0.092887	0.001984	46.8256	-155.426	-163.811	0.038557	0.793200	-0.277265	-0.278571	-0.021590	46.8256	-0.276919	-2120.5	1.018166E-5	NaN
244	1.000000	0.802524	7.36744e+06	-50839.1	955.818	-29754.7	0.000000	0.000000	6.803087	0.054239	NaN	0.000000	0.001580	0.001714	28.0778	0.055321	0.002139	25.8597	87.593	-166.109	-0.024678	0.801220	-0.269247	-0.270551	0.054239	25.8597	-0.270820	-1713.95	-3.164563E-5	NaN
244	1.000000	0.810514	7.36744e+06	-50839.1	955.819	-29754.7	0.000000	0.000000	6.811075	0.010934	NaN	0.000000	0.001634	0.001701	28.0774	0.049013	0.001956	25.0638	120.225	-170.871	0.086005	0.809169	-0.261257	-0.262602	0.010934	25.0638	-0.261584	-1239.31	-8.822926E-6	NaN
244	1.000000	0.818483	7.36744e+06	-50839.1	955.819	-29754.7	0.000000	0.000000	6.819044	0.037588	NaN	0.000000	0.001639	0.001706	28.0775	0.038268	0.001884	20.3124	-9.531172	-167.932	0.065461	0.817182	-0.253288	-0.254589	0.037588	20.3124	-0.254676	-970.799	-3.871905E-5	NaN
244	1.000000	0.826538	7.36744e+06	-50839.1	955.817	-29754.7	0.000000	0.000000	6.827100	0.030703	NaN	0.000000	0.001678	0.001701	28.0777	0.017428	0.002110	8.261049	108.605	-168.597	0.036739	0.825205	-0.245233	-0.246566	0.030703	8.261049	-0.248020	-766.158	-4.007435E-5	NaN
244	1.000000	0.834525	7.36744e+06	-50839.1	955.818	-29754.7	0.000000	0.000000	6.835087	0.050563	NaN	0.000000	0.001675	0.001702	28.0776	0.013676	0.002054	6.657840	-108.425	-166.44	-0.070765	0.833179	-0.237246	-0.238592	0.050563	6.657840	-0.242942	-638.903	-7.914058E-5	NaN
244	1.000000	0.842557	7.36744e+06	-50839.1	955.819	-29754.7	0.000000	0.000000	6.843121	0.082669	NaN	0.000000	0.001667	0.001713	28.0775	0.060478	0.001996	30.3036	49.1764	-166.355	0.050263	0.841199	-0.229214	-0.230572	0.082669	30.3036	-0.231260	-419.177	-0.000197	NaN
244	1.000000	0.850508	7.36744e+06	-50839.1	955.819	-29754.7	0.000000	0.000000	6.851069	0.009705	NaN	0.000000	0.001643	0.001694	28.0775	0.118370	0.002006	59.0157	-51.4532	-164.933	-0.039910	0.849203	-0.221263	-0.222568	0.009705	59.0157	-0.221386	-292.286	-3.320329E-5	NaN
244	1.000000	0.858552	7.36744e+06	-50839.1	955.819	-29754.7	0.000000	0.000000	6.859110	-0.032608	NaN	0.000000	0.001542	0.001715	28.0788	0.069771	0.002077	33.5983	75.1592	-167.635	0.037920	0.857176	-0.213219	-0.214595	-0.032608	33.5983	-0.212492	-210.426	0.000155	NaN
244	1.000000	0.866540	7.36744e+06	-50839.1	955.82	-29754.7	0.000000	0.000000	6.867101	0.028506	NaN	0.000000	0.001612	0.001697	28.0788	0.071288	0.002004	35.5773	174.86	-167.502	-0.089580	0.865261	-0.205231	-0.206510	0.028506	35.5773	-0.205832	-164.105	-0.000174	NaN
244	1.000000	0.874549	7.36744e+06	-50839.1	955.819	-29754.7	0.000000	0.000000	6.875109	-0.000312	NaN	0.000000	0.001604	0.001687	28.0788	0.000843	0.002077	0.405685	-29.0929	-162.481	0.009109	0.873247	-0.197222	-0.198524	-0.000312	0.405685	-0.196645	-115.99	2.688685E-6	NaN
244	1.000000	0.882557	7.36744e+06	-50839.1	955.818	-29754.7	0.000000	0.000000	6.883116	-0.033765	NaN	0.000000	0.001599	0.001657	28.0788	0.093779	0.002128	44.0592	-152.836	-165.418	-0.089684	0.881206	-0.189214	-0.190565	-0.033765	44.0592	-0.188639	-85.3631	0.000396	NaN
244	1.000000	0.890533	7.36744e+06	-50839.1	955.819	-29754.7	0.000000	0.000000	6.891094	0.023044	NaN	0.000000	0.001603	0.001604	28.0786	0.063353	0.001983	31.9514	-84.2043	-164.895	0.084091	0.889212	-0.181238	-0.182559	0.023044	31.9514	-0.181778	-65.4145	-0.000352	NaN
244	1.000000	0.898540	7.36744e+06	-50839.1	955.818	-29754.7	0.000000	0.000000	6.899101	0.046585	NaN	0.000000	0.001586	0.001668	28.0787	0.085204	0.002028	42.0211	-20.783	-162.882	0.030216	0.897230	-0.173231	-0.174541	0.046585	42.0211	-0.174063	-48.2906	-0.000965	NaN
244	1.000000	0.906536	7.36744e+06	-50839.1	955.819	-29754.7	0.000000	0.000000	6.907094	-0.063322	NaN	0.000000	0.001611	0.001672	28.0787	0.078804	0.002020	39.0087	-58.7589	-164.755	-0.023037	0.905246	-0.165235	-0.166525	-0.063322	39.0087	-0.164017	-32.287	0.001961	NaN
244	1.000000	0.914561	7.36744e+06	-50839.1	955.818	-29754.7	0.000000	0.000000	6.915124	0.066698	NaN	0.000000	0.001625	0.001674	28.0786	0.023763	0.001940	12.2468	-87.7714	-167.701	0.156003	0.913242	-0.157210	-0.158529	0.066698	12.2468	-0.161294	-28.9035	-0.002308	NaN
244	1.000000	0.922560	7.36744e+06	-50839.1	955.818	-29754.7	0.000000	0.000000	6.923119	-0.028892	NaN	0.000000	0.001637	0.001658	28.0789	0.036176	0.001910	18.9375	151.086	-165.078	-0.009418	0.921185	-0.149211	-0.150586	-0.028892	18.9375	-0.148066	-16.6972	0.001730	NaN
244	1.000000	0.930586	7.36744e+06	-50839.1	955.819	-29754.7	0.000000	0.000000	6.931147	0.015099	NaN	0.000000	0.001603	0.001695	28.0785	0.049432	0.001851	26.703	140.011	-170.056	6.860510E-5	0.929252	-0.141185	-0.142519	0.015099	26.703	-0.141609	-12.6798	-0.001191	NaN
244	1.000000	0.938589	7.36744e+06	-50839.1	955.819	-29754.7	0.000000	0.000000	6.939150	0.009931	NaN	0.000000	0.001602	0.001714	28.0789	0.029918	0.001974	15.155	-61.5785	-167.893	0.052516	0.937267	-0.133182	-0.134504	0.009931	15.155	-0.133673	-8.972239	-0.001107	NaN
244	1.000000	0.946561	7.36744e+06	-50839.1	955.819	-29754.7	0.000000	0.000000	6.947121	-0.003055	NaN	0.000000	0.001568	0.001693	28.0788	0.029896	0.002063	14.4913	125.75	-166.759	0.029521	0.945235	-0.125210	-0.126536	-0.003055	14.4913	-0.125052	-6.095628	0.000501	NaN
244	1.000000	0.954564	7.36744e+06	-50839.1	955.818	-29754.7	0.000000	0.000000	6.955123	-0.015686	NaN	0.000000	0.001616	0.001721	28.0787	0.071801	0.002028	35.4017	46.1999	-167.093	0.034033	0.953224	-0.117207	-0.118547	-0.015686	35.4017	-0.116875	-4.174390	0.003758	NaN
244	1.000000	0.962594	7.36744e+06	-50839.1	955.818	-29754.7	0.000000	0.000000	6.963153	-0.024707	NaN	0.000000	0.001607	0.001684	28.0801	0.126383	0.002039	61.9738	-145.115	-169.506	-0.070007	0.961246	-0.109177	-0.110525	-0.024707	61.9738	-0.108878	-2.845508	0.008683	NaN
244	1.000000	0.970585	7.36744e+06	-50839.1	955.818	-29754.7	0.000000	0.000000	6.971147	0.028094	NaN	0.000000	0.001602	0.001650	28.0786	0.125050	0.001922	65.0747	152.982	-166.113	0.016515	0.969275	-0.101186	-0.102496	0.028094	65.0747	-0.101509	-1.972879	-0.014240	NaN
244	1.000000	0.978554	7.36744e+06	-50839.1	955.818	-29754.7	0.000000	0.000000	6.979115	0.021196	NaN	0.000000	0.001610	0.001704	28.0787	0.137744	0.002103	65.5014	-155.352	-164.054	0.077876	0.977233	-0.093217	-0.094538	0.021196	65.5014	-0.093459	-1.300624	-0.016297	NaN
244	1.000000	0.986570	7.36744e+06	-50839.1	955.819	-29754.7	0.000000	0.000000	6.987129	-0.014429	NaN	0.000000	0.001602	0.001679	28.0788	0.140420	0.001973	71.1822	-123.886	-168.243	0.051318	0.985254	-0.085201	-0.086517	-0.014429	71.1822	-0.085049	-0.823892	0.017513	NaN
244	1.000000	0.994591	7.36744e+06	-50839.1	955.818	-29754.7	0.000000	0.000000	6.995150	-0.008905	NaN	0.000000	0.001617	0.001675	28.0776	0.086890	0.001890	45.9616	-36.6234	-165.243	-0.010951	0.993278	-0.077180	-0.078493	-0.008905	45.9616	-0.077035	-0.520958	0.017094	NaN
244	1.000000	1.002591	7.36744e+06	-50839.1	955.817	-29754.7	0.000000	0.000000	7.003152	0.026214	NaN	0.000000	0.001592	0.001704	28.0777	0.082480	0.002149	38.3834	-140.637	-165.574	0.012179	1.001246	-0.069180	-0.070525	0.026214	38.3834	-0.069692	-0.334682	-0.078324	NaN
244	1.000000	1.010605	7.36744e+06	-50839.1	955.818	-29754.7	0.000000	0.000000	7.011166	0.019840	NaN	0.000000	0.001615	0.001693	28.0773	0.052018	0.002004	25.9625	-146.07	-170.971	0.045299	1.009274	-0.061166	-0.062497	0.019840	25.9625	-0.061739	-0.201882	-0.098278	NaN
244	1.000000	1.018599	7.36744e+06	-50839.1	955.818	-29754.7	0.000000	0.000000	7.019160	0.013973	NaN	0.000000	0.001577	0.001681	28.0776	0.078933	0.001928	40.9349	-2.435783	-166.443	-0.003382	1.017313	-0.053172	-0.054458	0.013973	40.9349	-0.053428	-0.115659	-0.120812	NaN
244	1.000000	1.026622	7.36744e+06	-50839.1	955.819	-29754.7	0.000000	0.000000	7.027179	-0.059177	NaN	0.000000	0.001583	0.001663	28.0771	0.072947	0.002047	35.6311	21.9675	-164.324	-0.057851	1.025300	-0.045149	-0.046471	-0.059177	35.6311	-0.043904	-0.059493	0.994688	NaN
244	1.000000	1.034589	7.36744e+06	-50839.1	955.819	-29754.7	0.000000	0.000000	7.035149	-0.008231	NaN	0.000000	0.001605	0.001699	28.0776	0.048547	0.002065	23.5124	89.1428	-167.967	0.012341	1.033244	-0.037182	-0.038527	-0.008231	23.5124	-0.036919	-0.036513	0.225416	NaN
244	1.000000	1.042586	7.36744e+06	-50839.1	955.818	-29754.7	0.000000	0.000000	7.043148	0.058610	NaN	0.000000	0.001579	0.001729	28.0776	0.051302	0.002070	24.7819	-172.494	-160.294	0.065280	1.041288	-0.029185	-0.030483	0.058610	24.7819	-0.030959	-0.024483	-2.393930	NaN
244	1.000000	1.050600	7.36744e+06	-50839.1	955.818	-29754.7	0.000000	0.000000	7.051156	-0.098676	NaN	0.000000	0.001583	0.001696	28.0774	0.095698	0.001906	50.2122	-177.135	-163.525	-0.072817	1.049285	-0.021171	-0.022486	-0.098676	50.2122	-0.019697	-0.012340	7.996392	NaN
244	1.000000	1.058603	7.36744e+06	-50839.1	955.818	-29754.7	0.000000	0.000000	7.059164	0.032847	NaN	0.000000	0.001604	0.001673	28.0778	0.036135	0.001965	18.3869	-160.748	-168.2	0.005925	1.057285	-0.013168	-0.014486	0.032847	18.3869	-0.014508	-0.008982	-3.656793	NaN
244	1.000000	1.066643	7.36744e+06	-50839.1	955.818	-29754.7	0.000000	0.000000	7.067204	0.040824	NaN	0.000000	0.001570	0.001715	28.0771	0.057905	0.001951	29.6757	-133.582	-167.748	0.015602	1.065322	-0.005128	-0.006449	0.040824	29.6757	-0.006160	-0.004134	-9.874903	NaN
244	1.000000	1.074614	7.36744e+06	-50839.1	955.818	-29754.7	0.000000	0.000000	7.075198	0.572877	NaN	0.000000	0.001631	0.001696	28.0775	0.943921	0.001937	487.195	12.1923	-168.432	0.160187	1.073346	0.002843	0.001575	0.572877	487.195	0.001962	0.001524	375.966	11403
244	1.000000	1.082453	7.36744e+06	-50839.1	955.819	-29754.7	0.000000	0.000000	7.083337	7.861665	NaN	0.000000	0.001592	0.001666	28.0773	8.053512	0.001816	4435.9	13.5994	-174.373	6.060932	1.081202	0.010682	0.009431	7.861665	4435.9	0.009353	0.008471	928.028	44033
244	2.000000	1.085123	7.36744e+06	-50839.1	955.818	-29754.7	0.000000	0.000000	7.086123	10.6922	NaN	0.000000	0.001599	0.001696	28.0774	10.2978	0.001592	6467.7	7.967441	-175.653	9.368961	1.084767	0.013352	0.012996	10.6922	6467.7	0.012112	0.011625	919.758	54805.8
244	2.000000	1.087145	7.36744e+06	-50839.1	955.818	-29754.7	0.000000	0.000000	7.088232	12.8171	NaN	0.000000	0.001605	0.001679	28.0774	12.971	0.001703	7617.81	4.277825	-173.115	12.6777	1.086920	0.015374	0.015149	12.8171	7617.81	0.014112	0.014119	907.778	58573
244	2.000000	1.089211	7.36744e+06	-50839.1	955.819	-29754.7	0.000000	0.000000	7.090418	15.7522	NaN	0.000000	0.001596	0.001719	28.0773	15.4906	0.001828	8472.22	8.768965	-176.854	17.0173	1.088873	0.017440	0.017102	15.7522	8472.22	0.016045	0.016705	942.989	59889.9
244	2.000000	1.091090	7.36744e+06	-50839.1	955.819	-29754.7	0.000000	0.000000	7.092421	18.7524	NaN	0.000000	0.001566	0.001719	28.0776	17.2684	0.001817	9506.37	5.470489	-175.729	18.1538	1.090754	0.019319	0.018983	18.7524	9506.37	0.017839	0.019260	973.629	62583
244	2.000000	1.093099	7.36744e+06	-50839.1	955.819	-29754.7	0.000000	0.000000	7.094582	22.4298	NaN	0.000000	0.001603	0.001688	28.0775	19.3835	0.001771	10942.9	4.836489	-176.892	22.038	1.092877	0.021328	0.021106	22.4298	10942.9	0.019791	0.022215	1009.69	67078.7
244	2.000000	1.095033	7.36744e+06	-50839.1	955.819	-29754.7	0.000000	0.000000	7.096727	27.5694	NaN	0.000000	0.001623	0.001675	28.0791	20.6609	0.001600	12913.1	3.340067	-176.983	26.8748	1.094873	0.023262	0.023102	27.5694	12913.1	0.021661	0.025220	1093.15	74290.4
244	2.000000	1.097097	7.36744e+06	-50839.1	955.819	-29754.7	0.000000	0.000000	7.098985	32.2898	NaN	0.000000	0.001606	0.001700	28.0788	23.3829	0.001613	14495.9	3.735927	-178.633	32.6038	1.096712	0.025326	0.024941	32.2898	14495.9	0.023655	0.028614	1128.45	78294
244	2.000000	1.099091	7.36744e+06	-50839.1	955.819	-29754.7	0.000000	0.000000	7.101110	35.4809	NaN	0.000000	0.001594	0.001669	28.0788	26.4746	0.001861	14225.1	7.898431	178.495	34.6434	1.098777	0.027320	0.027006	35.4809	14225.1	0.025449	0.031838	1114.41	72837.2
244	2.000000	1.101095	7.36744e+06	-50839.1	955.819	-29754.7	0.000000	0.000000	7.103178	37.0522	NaN	0.000000	0.001582	0.001707	28.079	28.3387	0.001978	14327.8	6.480381	-178.946	39.8453	1.100822	0.029324	0.029051	37.0522	14327.8	0.027384	0.035496	1043.83	69480
244	2.000000	1.103021	7.36744e+06	-50839.1	955.819	-29754.7	0.000000	0.000000	7.105496	46.5755	NaN	0.000000	0.001609	0.001655	28.079	30.0145	0.001886	15917.1	3.558067	-178.084	44.6431	1.102724	0.031250	0.030953	46.5755	15917.1	0.029055	0.038808	1200.14	73820.2
244	2.000000	1.105086	7.36744e+06	-50839.1	955.819	-29754.7	0.000000	0.000000	7.107835	53.2454	NaN	0.000000	0.001602	0.001662	28.079	31.1749	0.001671	18660.2	8.231731	175.809	53.6518	1.104688	0.033315	0.032917	53.2454	18660.2	0.031175	0.043214	1232.14	82012
244	2.000000	1.107036	7.36744e+06	-50839.1	955.819	-29754.7	0.000000	0.000000	7.110005	58.5808	NaN	0.000000	0.001634	0.001634	28.0786	34.0116	0.001878	18113.7	5.354049	178.762	57.1136	1.106688	0.035265	0.034917	58.5808	18113.7	0.032839	0.046835	1250.8	76470.9
244	2.000000	1.109042	7.36744e+06	-50839.1	955.819	-29754.7	0.000000	0.000000	7.112249	64.3645	NaN	0.000000	0.001583	0.001686	28.0786	34.9888	0.001771	19760.6	6.461349	176.829	63.3366	1.108732	0.037271	0.036961	64.3645	19760.6	0.034828	0.051347	1253.53	79674.3
244	2.000000	1.111075	7.36744e+06	-50839.1	955.818	-29754.7	0.000000	0.000000	7.114499	69.6432	NaN	0.000000	0.001597	0.001701	28.0791	36.9315	0.001807	20440.3	6.708483	176.705	70.6478	1.110658	0.039304	0.038887	69.6432	20440.3	0.036748	0.055895	1245.96	78990.2
244	2.000000	1.113001	7.36744e+06	-50839.1	955.818	-29754.7	0.000000	0.000000	7.116625	74.5219	NaN	0.000000	0.001598	0.001706	28.0787	39.1382	0.001897	20632	3.848971	178.502	72.2047	1.112767	0.041230	0.040996	74.5219	20632	0.038521	0.060262	1236.64	76788.2
244	2.000000	1.115094	7.36744e+06	-50839.1	955.819	-29754.7	0.000000	0.000000	7.118992	81.1793	NaN	0.000000	0.001612	0.001731	28.0791	40.0968	0.001563	25654.5	6.825671	173.52	83.683	1.114745	0.043323	0.042974	81.1793	25654.5	0.040950	0.066506	1220.63	90887.9
244	2.000000	1.117065	7.36744e+06	-50839.1	955.819	-29754.7	0.000000	0.000000	7.121294	89.2255	NaN	0.000000	0.001578	0.001715	28.0786	41.618	0.001828	22760.7	4.548655	178.298	90.9777	1.116702	0.045294	0.044931	89.2255	22760.7	0.042354	0.070253	1270.05	78455.9
244	2.000000	1.119091	7.36744e+06	-50839.1	955.819	-29754.7	0.000000	0.000000	7.123537	94.4949	NaN	0.000000	0.001600	0.001697	28.0788	43.8567	0.001917	22874.4	4.949277	177.792	95.0411	1.118746	0.047320	0.046975	94.4949	22874.4	0.044222	0.075393	1253.36	76112.6
244	2.000000	1.121060	7.36744e+06	-50839.1	955.82	-29754.7	0.000000	0.000000	7.125886	103.735	NaN	0.000000	0.001591	0.001685	28.079	45.6444	0.001778	25666.7	7.606935	172.871	105.075	1.120742	0.049289	0.048971	103.735	25666.7	0.046257	0.081197	1277.57	82294.9
244	2.000000	1.123034	7.36744e+06	-50839.1	955.819	-29754.7	0.000000	0.000000	7.128222	112.532	NaN	0.000000	0.001578	0.001692	28.0787	47.6443	0.001746	27291.7	4.121774	175.499	112.633	1.122789	0.051263	0.051018	112.532	27291.7	0.048171	0.086843	1295.82	84613
244	2.000000	1.124987	7.36744e+06	-50839.1	955.819	-29754.7	0.000000	0.000000	7.130674	124.687	NaN	0.000000	0.001559	0.001722	28.0792	48.025	0.001705	28166.8	4.096232	176.006	122.587	1.124655	0.053216	0.052884	124.687	28166.8	0.049896	0.092091	1353.95	84801.2
244	2.000000	1.127037	7.36744e+06	-50839.1	955.819	-29754.7	0.000000	0.000000	7.132849	127.73	NaN	0.000000	0.001564	0.001727	28.0787	50.9354	0.001857	27424.3	6.131318	174.323	127.211	1.126666	0.055266	0.054895	127.73	27424.3	0.051772	0.097970	1303.76	80050.1
244	2.000000	1.128978	7.36744e+06	-50839.1	955.819	-29754.7	0.000000	0.000000	7.135227	138.346	NaN	0.000000	0.001533	0.001715	28.0782	51.6569	0.001668	30974	1.053625	178.045	136.538	1.128775	0.057207	0.057004	138.346	30974	0.053857	0.104707	1321.27	87454.6
244	2.000000	1.130957	7.36744e+06	-50839.1	955.82	-29754.7	0.000000	0.000000	7.137620	148.408	NaN	0.000000	0.001585	0.001662	28.0772	54.2176	0.001779	30478	6.416688	172.921	145.977	1.130634	0.059186	0.058863	148.408	30478	0.055534	0.110281	1345.73	83851.1
244	2.000000	1.132956	7.36744e+06	-50839.1	955.82	-29754.7	0.000000	0.000000	7.140092	159.924	NaN	0.000000	0.001572	0.001718	28.0775	56.4148	0.001656	34067.5	2.640116	176.534	157.755	1.132508	0.061185	0.060737	159.924	34067.5	0.057664	0.117564	1360.31	90776.9
244	2.000000	1.134955	7.36744e+06	-50839.1	955.818	-29754.7	0.000000	0.000000	7.142413	167.744	NaN	0.000000	0.001552	0.001672	28.0776	57.786	0.001825	31661.6	5.752537	173.229	163.206	1.134730	0.063184	0.062959	167.744	31661.6	0.059210	0.122991	1363.87	82483.9
244	2.000000	1.136971	7.36744e+06	-50839.1	955.82	-29754.7	0.000000	0.000000	7.144860	178.232	NaN	0.000000	0.001575	0.001676	28.0774	60.6474	0.001666	36402.7	3.841986	173.894	174.496	1.136640	0.065200	0.064869	178.232	36402.7	0.061528	0.131343	1357	91770.5
244	2.000000	1.139019	7.36744e+06	-50839.1	955.819	-29754.7	0.000000	0.000000	7.147227	185.985	NaN	0.000000	0.001565	0.001661	28.0782	62.655	0.001839	34072.6	1.559581	177.561	183.774	1.138706	0.067248	0.066935	185.985	34072.6	0.063154	0.137361	1353.99	83993.6
244	2.000000	1.140961	7.36744e+06	-50839.1	955.819	-29754.7	0.000000	0.000000	7.149641	197.444	NaN	0.000000	0.001572	0.001670	28.0775	64.6785	0.001777	36406.7	1.604324	176.398	196.019	1.140743	0.069190	0.068972	197.444	36406.7	0.065123	0.144816	1363.42	87407.1
244	2.000000	1.142938	7.36744e+06	-50839.1	955.819	-29754.7	0.000000	0.000000	7.152298	213.986	NaN	0.000000	0.001594	0.001629	28.0775	67.8766	0.001831	37075.7	2.930220	175.2	211.004	1.142640	0.071167	0.070869	213.986	37075.7	0.066839	0.151466	1412.76	87037.1
244	2.000000	1.144952	7.36744e+06	-50839.1	955.819	-29754.7	0.000000	0.000000	7.154750	224.653	NaN	0.000000	0.001572	0.001685	28.0775	68.8882	0.001749	39385.9	5.381751	172.49	222.646	1.144634	0.073181	0.072863	224.653	39385.9	0.068903	0.159653	1407.13	90058.6
244	2.000000	1.146936	7.36744e+06	-50839.1	955.819	-29754.7	0.000000	0.000000	7.156900	228.693	NaN	0.000000	0.001559	0.001672	28.0777	71.4701	0.001932	36992.3	1.687297	176.245	223.655	1.146621	0.075165	0.074850	228.693	36992.3	0.070528	0.166242	1375.66	82892.3
244	2.000000	1.148935	7.36744e+06	-50839.1	955.819	-29754.7	0.000000	0.000000	7.159598	245.694	NaN	0.000000	0.001635	0.001686	28.0778	73.1984	0.001815	40319.3	4.504829	172.747	242.562	1.148659	0.077164	0.076888	245.694	40319.3	0.072593	0.174797	1405.6	88108.7
244	2.000000	1.150928	7.36744e+06	-50839.1	955.819	-29754.7	0.000000	0.000000	7.162089	257.769	NaN	0.000000	0.001598	0.001654	28.0775	74.0751	0.001796	41251.6	3.513511	173.384	255.715	1.150663	0.079157	0.078892	257.769	41251.6	0.074471	0.182749	1410.51	88163.2
244	2.000000	1.153009	7.36744e+06	-50839.1	955.819	-29754.7	0.000000	0.000000	7.164511	266.085	NaN	0.000000	0.001597	0.001615	28.0778	77.917	0.001784	43665.8	7.975320	169.023	267.322	1.152665	0.081238	0.080894	266.085	43665.8	0.076668	0.192264	1383.96	90984.1
244	2.000000	1.154957	7.36744e+06	-50839.1	955.819	-29754.7	0.000000	0.000000	7.167201	284.11	NaN	0.000000	0.001647	0.001662	28.0775	78.2747	0.001838	42581.7	7.519875	169.732	282.867	1.154573	0.083186	0.082802	284.11	42581.7	0.078182	0.198955	1428.01	87220.6
244	2.000000	1.156995	7.36744e+06	-50839.1	955.819	-29754.7	0.000000	0.000000	7.169609	293.119	NaN	0.000000	0.001626	0.001681	28.0779	80.5695	0.001801	44728.9	3.100867	173.881	294.059	1.156645	0.085224	0.084874	293.119	44728.9	0.080309	0.208532	1405.63	89490.1
244	2.000000	1.158881	7.36744e+06	-50839.1	955.819	-29754.7	0.000000	0.000000	7.172222	310.809	NaN	0.000000	0.001594	0.001739	28.0781	83.2763	0.001988	41892.2	6.118558	171.463	304.737	1.158538	0.087110	0.086767	310.809	41892.2	0.081545	0.214198	1451.04	82698.9
244	2.000000	1.160888	7.36744e+06	-50839.1	955.819	-29754.7	0.000000	0.000000	7.174650	321.042	NaN	0.000000	0.001616	0.001665	28.0776	85.1265	0.001852	45974.4	7.589491	168.709	316.91	1.160607	0.089117	0.088836	321.042	45974.4	0.083880	0.225086	1426.31	88535
244	2.000000	1.162939	7.36744e+06	-50839.1	955.819	-29754.7	0.000000	0.000000	7.177303	335.695	NaN	0.000000	0.001608	0.001682	28.0783	86.5456	0.001858	46571.6	1.538403	175.061	332.225	1.162598	0.091168	0.090827	335.695	46571.6	0.085762	0.234048	1434.3	87951.2
244	2.000000	1.164949	7.36744e+06	-50839.1	955.819	-29754.7	0.000000	0.000000	7.180010	352.612	NaN	0.000000	0.001610	0.001717	28.0789	87.6041	0.001857	47171.8	3.969046	172.534	350.529	1.164628	0.093178	0.092857	352.612	47171.8	0.087572	0.242824	1452.13	87460
244	2.000000	1.166888	7.36744e+06	-50839.1	955.819	-29754.7	0.000000	0.000000	7.182631	369.221	NaN	0.000000	0.001609	0.001707	28.0789	89.8207	0.001854	48436.5	5.676898	170.374	363.384	1.166605	0.095117	0.094834	369.221	48436.5	0.089400	0.251836	1466.12	88183.5
244	2.000000	1.168985	7.36744e+06	-50839.1	955.818	-29754.7	0.000000	0.000000	7.185271	382.423	NaN	0.000000	0.001614	0.001706	28.0791	91.6265	0.001792	51119.6	6.632092	169.278	382.027	1.168646	0.097214	0.096875	382.423	51119.6	0.091603	0.262905	1454.61	91088
244	2.000000	1.170986	7.36744e+06	-50839.1	955.819	-29754.7	0.000000	0.000000	7.187609	390.612	NaN	0.000000	0.001599	0.001732	28.0788	91.3702	0.001810	50473.9	-0.316843	175.824	391.064	1.170828	0.099215	0.099057	390.612	50473.9	0.093411	0.272151	1435.28	88396.4
244	2.000000	1.173001	7.36744e+06	-50839.1	955.819	-29754.7	0.000000	0.000000	7.190353	408.341	NaN	0.000000	0.001591	0.001698	28.0792	95.5624	0.001805	52932.3	5.862496	169.693	409.445	1.172606	0.101230	0.100835	408.341	52932.3	0.095444	0.282730	1444.28	90951
244	2.000000	1.174967	7.36744e+06	-50839.1	955.819	-29754.7	0.000000	0.000000	7.193160	428.789	NaN	0.000000	0.001620	0.001701	28.079	96.0884	0.001841	52188.2	5.364261	170.275	428.346	1.174571	0.103196	0.102800	428.789	52188.2	0.097034	0.291136	1472.81	88368.5
244	2.000000	1.176988	7.36744e+06	-50839.1	955.82	-29754.7	0.000000	0.000000	7.195597	438.907	NaN	0.000000	0.001607	0.001715	28.0787	98.5947	0.001779	55433.1	3.093119	172.165	441.735	1.176648	0.105217	0.104877	438.907	55433.1	0.099278	0.303193	1447.62	91977.8
244	2.000000	1.179009	7.36744e+06	-50839.1	955.82	-29754.7	0.000000	0.000000	7.198575	462.191	NaN	0.000000	0.001627	0.001675	28.0789	100.597	0.001770	56829.6	9.625889	165.573	463.249	1.178616	0.107238	0.106845	462.191	56829.6	0.101138	0.313358	1474.96	92753
244	2.000000	1.180799	7.36744e+06	-50839.1	955.82	-29754.7	0.000000	0.000000	7.201082	479.62	NaN	0.000000	0.001647	0.001677	28.0786	100.465	0.001709	58791.2	1.880879	172.869	471.087	1.180466	0.109028	0.108695	479.62	58791.2	0.102909	0.323187	1484.03	94484
244	2.000000	1.181972	7.36744e+06	-50839.1	955.82	-29754.7	0.000000	0.000000	7.202475	484.966	NaN	0.000000	0.001614	0.001691	28.0788	102.767	0.001896	54198.8	6.921718	168.696	486.447	1.181781	0.110201	0.110010	484.966	54198.8	0.103490	0.326439	1485.63	86668.6