File: remote_trans/data/nanoindenter/0828-1/data/Data_2025-08-06,11h17m57s/2025-07-22_16-23-58_1_440.txt
2025-07-22, 16:23:58, 1
Index	Phase	Displacement	Time	Pos X	Pos Y	Pos Z	Rot A	Rot B	Piezo Z	Force A	Force B	Gripper	Voltage A	Voltage B	Temperature	Amplitude force	Amplitude pos	Stiffness	Phase shift	Phase excitation	Force A raw	Displacement raw	HMax	HMax raw	Real Force	Real Stiffness	Contact Depth	Area	Hardness	Reduced Mod.
[#]	[#]	[um]	[s]	[um]	[um]	[um]	[m°]	[m°]	[um]	[uN]	[uN]	[V]	[V]	[V]	[°C]	[uN]	[um]	[N/m]	[°]	[°]	[uN]	[um]	[um]	[um]	[uN]	[N/m]	[um]	[um^2]	[MPa]	[MPa]
440	1.000000	0.002623	7.36936e+06	-55089.1	1005.82	-29742.3	0.000000	0.000000	6.002794	0.031679	NaN	0.000000	0.001610	0.001721	28.0797	0.167515	0.001134	147.772	154.27	-171.131	0.053882	0.001401	-1.124933	-1.126156	0.031679	147.772	-1.125094	-1.088457E+15	-2.910489E-17	NaN
440	1.000000	0.012718	7.36936e+06	-55089.1	1005.82	-29742.3	0.000000	0.000000	6.012887	-0.005025	NaN	0.000000	0.001574	0.001709	28.0801	0.082475	0.001275	64.6699	129.662	20.8557	-0.021541	0.011234	-1.114839	-1.116322	-0.005025	64.6699	-1.114780	-7.914744E+14	6.348353E-18	NaN
440	1.000000	0.022556	7.36936e+06	-55089.1	1005.82	-29742.3	0.000000	0.000000	6.022726	0.014528	NaN	0.000000	0.001576	0.001674	28.0803	0.057203	0.001861	30.7417	30.4908	-170.053	-0.019900	0.021278	-1.105001	-1.106279	0.014528	30.7417	-1.105355	-5.914950E+14	-2.456228E-17	NaN
440	1.000000	0.032597	7.36936e+06	-55089.1	1005.82	-29742.3	0.000000	0.000000	6.032770	0.070743	NaN	0.000000	0.001564	0.001706	28.081	0.075139	0.002152	34.9202	-68.4504	13.9344	0.029159	0.031181	-1.094959	-1.096376	0.070743	34.9202	-1.096479	-4.495695E+14	-1.573567E-16	NaN
440	1.000000	0.042550	7.36936e+06	-55089.1	1005.82	-29742.3	0.000000	0.000000	6.042720	0.016548	NaN	0.000000	0.001619	0.001706	28.0812	0.074650	0.001940	38.4843	106.826	-166.55	-0.031734	0.041265	-1.085007	-1.086292	0.016548	38.4843	-1.085329	-3.184861E+14	-5.195918E-17	NaN
440	1.000000	0.052591	7.36936e+06	-55089.1	1005.82	-29742.3	0.000000	0.000000	6.052760	-0.018321	NaN	0.000000	0.001553	0.001753	28.0811	0.026471	0.001964	13.4801	-65.8441	13.7761	-0.002043	0.051254	-1.074965	-1.076302	-0.018321	13.4801	-1.073946	-2.239755E+14	8.180055E-17	NaN
440	1.000000	0.062590	7.36936e+06	-55089.1	1005.82	-29742.3	0.000000	0.000000	6.062760	0.010625	NaN	0.000000	0.001544	0.001746	28.081	0.105072	0.001998	52.5804	32.6364	-165.374	-0.032515	0.061304	-1.064967	-1.066253	0.010625	52.5804	-1.065118	-1.704517E+14	-6.233329E-17	NaN
440	1.000000	0.072590	7.36936e+06	-55089.1	1005.82	-29742.3	0.000000	0.000000	6.072758	-0.048732	NaN	0.000000	0.001580	0.001750	28.081	0.024974	0.001975	12.6453	77.9038	12.4156	-0.031275	0.071238	-1.054967	-1.056318	-0.048732	12.6453	-1.052076	-1.138483E+14	4.280458E-16	NaN
440	1.000000	0.082598	7.36936e+06	-55089.1	1005.82	-29742.3	0.000000	0.000000	6.082766	-0.037839	NaN	0.000000	0.001611	0.001705	28.0812	0.016007	0.002072	7.725628	-91.4996	-163.849	0.001598	0.081301	-1.044959	-1.046256	-0.037839	7.725628	-1.041286	-8.151814E+13	4.641752E-16	NaN
440	1.000000	0.092600	7.36936e+06	-55089.1	1005.82	-29742.3	0.000000	0.000000	6.092769	-0.008155	NaN	0.000000	0.001575	0.001708	28.0811	0.058703	0.002043	28.7363	91.9558	14.6859	-0.029927	0.091231	-1.034957	-1.036326	-0.008155	28.7363	-1.034744	-6.657173E+13	1.224986E-16	NaN
440	1.000000	0.102600	7.36936e+06	-55089.1	1005.82	-29742.3	0.000000	0.000000	6.102769	-0.008171	NaN	0.000000	0.001589	0.001693	28.0812	0.073475	0.001988	36.9656	-89.6563	-165.685	0.010383	0.101271	-1.024957	-1.026286	-0.008171	36.9656	-1.024791	-4.891180E+13	1.670492E-16	NaN
440	1.000000	0.112612	7.36936e+06	-55089.1	1005.82	-29742.3	0.000000	0.000000	6.112781	-0.003510	NaN	0.000000	0.001575	0.001715	28.0812	0.030408	0.002040	14.9066	76.8085	12.6505	-0.032984	0.111241	-1.014945	-1.016316	-0.003510	14.9066	-1.014768	-3.585561E+13	9.788279E-17	NaN
440	1.000000	0.122600	7.36936e+06	-55089.1	1005.82	-29742.3	0.000000	0.000000	6.122768	-0.036829	NaN	0.000000	0.001611	0.001715	28.0812	0.096283	0.002050	46.9728	-2.133879	-169.212	-0.065329	0.121267	-1.004957	-1.006290	-0.036829	46.9728	-1.004369	-2.597674E+13	1.417778E-15	NaN
440	1.000000	0.132602	7.36936e+06	-55089.1	1005.82	-29742.3	0.000000	0.000000	6.132768	-0.081653	NaN	0.000000	0.001581	0.001755	28.0811	0.024446	0.002056	11.8894	54.8187	13.7596	-0.032678	0.131281	-0.994955	-0.996276	-0.081653	11.8894	-0.989804	-1.653762E+13	4.937381E-15	NaN
440	1.000000	0.142617	7.36936e+06	-55089.1	1005.82	-29742.3	0.000000	0.000000	6.142786	0.001821	NaN	0.000000	0.001563	0.001747	28.0812	0.054497	0.002006	27.1647	-133.14	-167.178	-0.049512	0.141321	-0.984940	-0.986236	0.001821	27.1647	-0.984990	-1.424409E+13	-1.278136E-16	NaN
440	1.000000	0.152623	7.36936e+06	-55089.1	1005.82	-29742.3	0.000000	0.000000	6.152792	-0.018916	NaN	0.000000	0.001599	0.001750	28.0817	0.054573	0.001991	27.4137	27.5372	12.0753	-0.046200	0.151270	-0.974934	-0.976287	-0.018916	27.4137	-0.974416	-1.026077E+13	1.843497E-15	NaN
440	1.000000	0.162621	7.36936e+06	-55089.1	1005.82	-29742.3	0.000000	0.000000	6.162791	0.009895	NaN	0.000000	0.001619	0.001731	28.0799	0.033824	0.002048	16.5161	69.0427	-163.977	-0.036599	0.161303	-0.964936	-0.966254	0.009895	16.5161	-0.965385	-7.752840E+12	-1.276338E-15	NaN
440	1.000000	0.172630	7.36936e+06	-55089.1	1005.82	-29742.3	0.000000	0.000000	6.172799	-0.026781	NaN	0.000000	0.001601	0.001735	28.0798	0.057173	0.001985	28.8077	97.5014	13.1717	-0.048921	0.171304	-0.954926	-0.956252	-0.026781	28.8077	-0.954229	-5.483511E+12	4.883946E-15	NaN
440	1.000000	0.182643	7.36936e+06	-55089.1	1005.82	-29742.3	0.000000	0.000000	6.182811	-0.047844	NaN	0.000000	0.001561	0.001748	28.0799	0.050553	0.001988	25.4342	163.303	-165.875	-0.118166	0.181389	-0.944914	-0.946167	-0.047844	25.4342	-0.943503	-3.929986E+12	1.217407E-14	NaN
440	1.000000	0.192645	7.36936e+06	-55089.1	1005.82	-29742.3	0.000000	0.000000	6.192813	-0.042431	NaN	0.000000	0.001564	0.001753	28.0819	0.017013	0.002012	8.454981	-134.438	13.5898	-0.122627	0.191280	-0.934911	-0.936277	-0.042431	8.454981	-0.931147	-2.677205E+12	1.584893E-14	NaN
440	1.000000	0.202606	7.36936e+06	-55089.1	1005.82	-29742.3	0.000000	0.000000	6.202776	-0.013541	NaN	0.000000	0.001620	0.001767	28.0832	0.071299	0.001944	36.6791	-101.778	-166.386	-0.006963	0.201303	-0.924950	-0.926254	-0.013541	36.6791	-0.924673	-2.189260E+12	6.185389E-15	NaN
440	1.000000	0.212665	7.36936e+06	-55089.1	1005.82	-29742.3	0.000000	0.000000	6.212836	0.015288	NaN	0.000000	0.001575	0.001748	28.0802	0.086803	0.002048	42.3924	159.564	12.3738	0.070373	0.211330	-0.914891	-0.916226	0.015288	42.3924	-0.915162	-1.628824E+12	-9.386160E-15	NaN
440	1.000000	0.222670	7.36936e+06	-55089.1	1005.82	-29742.3	0.000000	0.000000	6.222840	-0.002679	NaN	0.000000	0.001636	0.001739	28.0805	0.060422	0.001961	30.8087	-14.3702	-168.215	0.031310	0.221330	-0.904886	-0.906226	-0.002679	30.8087	-0.904821	-1.180877E+12	2.268669E-15	NaN
440	1.000000	0.232640	7.36936e+06	-55089.1	1005.82	-29742.3	0.000000	0.000000	6.232807	-0.060349	NaN	0.000000	0.001615	0.001727	28.0796	0.097452	0.002004	48.6282	41.5157	13.2539	-0.006249	0.231339	-0.894916	-0.896218	-0.060349	48.6282	-0.893986	-8.429222E+11	7.159442E-14	NaN
440	1.000000	0.242669	7.36936e+06	-55089.1	1005.82	-29742.3	0.000000	0.000000	6.242837	-0.036369	NaN	0.000000	0.001619	0.001737	28.0803	0.043062	0.001901	22.6568	2.262263	-172.454	-0.085579	0.241364	-0.884888	-0.886193	-0.036369	22.6568	-0.883684	-6.116781E+11	5.945788E-14	NaN
440	1.000000	0.252646	7.36936e+06	-55089.1	1005.82	-29742.3	0.000000	0.000000	6.252816	-0.010253	NaN	0.000000	0.001626	0.001763	28.0797	0.064637	0.001935	33.408	160.988	12.1513	0.024295	0.251301	-0.874910	-0.876256	-0.010253	33.408	-0.874680	-4.621205E+11	2.218746E-14	NaN
440	1.000000	0.262678	7.36936e+06	-55089.1	1005.82	-29742.3	0.000000	0.000000	6.262845	-0.063815	NaN	0.000000	0.001626	0.001740	28.08	0.074534	0.002034	36.6498	152.254	-165.228	-0.035834	0.261374	-0.864879	-0.866183	-0.063815	36.6498	-0.863573	-3.269445E+11	1.951854E-13	NaN
440	1.000000	0.272692	7.36936e+06	-55089.1	1005.82	-29742.3	0.000000	0.000000	6.272862	0.010792	NaN	0.000000	0.001586	0.001751	28.0797	0.072130	0.001926	37.4506	-151.992	13.9044	0.039399	0.271313	-0.854865	-0.856243	0.010792	37.4506	-0.855081	-2.509174E+11	-4.301072E-14	NaN
440	1.000000	0.282660	7.36936e+06	-55089.1	1005.82	-29742.3	0.000000	0.000000	6.282827	-0.057716	NaN	0.000000	0.001629	0.001775	28.0799	0.042561	0.001993	21.3522	171.626	-168.27	-0.015598	0.281406	-0.844897	-0.846151	-0.057716	21.3522	-0.842869	-1.714597E+11	3.366180E-13	NaN
440	1.000000	0.292683	7.36936e+06	-55089.1	1005.82	-29742.3	0.000000	0.000000	6.292855	0.041560	NaN	0.000000	0.001619	0.001780	28.0796	0.128830	0.002073	62.1454	-99.6931	13.5331	-0.022142	0.291291	-0.834873	-0.836265	0.041560	62.1454	-0.835375	-1.357141E+11	-3.062355E-13	NaN
440	1.000000	0.302683	7.36936e+06	-55089.1	1005.82	-29742.3	0.000000	0.000000	6.302854	0.015570	NaN	0.000000	0.001626	0.001778	28.081	0.083290	0.002068	40.2683	139.782	-162.513	-0.008883	0.301335	-0.824873	-0.826222	0.015570	40.2683	-0.825163	-9.867801E+10	-1.577855E-13	NaN
440	1.000000	0.312706	7.36936e+06	-55089.1	1005.82	-29742.3	0.000000	0.000000	6.312876	0.007032	NaN	0.000000	0.001583	0.001759	28.0812	0.046691	0.001993	23.4246	105.324	15.9862	-0.012800	0.311388	-0.814850	-0.816168	0.007032	23.4246	-0.815075	-7.201474E+10	-9.764245E-14	NaN
440	1.000000	0.322664	7.36936e+06	-55089.1	1005.82	-29742.3	0.000000	0.000000	6.322835	0.025393	NaN	0.000000	0.001616	0.001751	28.0811	0.125588	0.001965	63.9143	-87.0698	-167.421	0.004719	0.321345	-0.804892	-0.806211	0.025393	63.9143	-0.805190	-5.288222E+10	-4.801877E-13	NaN
440	1.000000	0.332722	7.36936e+06	-55089.1	1005.82	-29742.3	0.000000	0.000000	6.332888	-0.084328	NaN	0.000000	0.001642	0.001776	28.081	0.099109	0.001981	50.0298	123.368	14.8236	-0.036353	0.331326	-0.794834	-0.796231	-0.084328	50.0298	-0.793570	-3.677624E+10	2.293000E-12	NaN
440	1.000000	0.342697	7.36936e+06	-55089.1	1005.82	-29742.3	0.000000	0.000000	6.342865	-0.050003	NaN	0.000000	0.001627	0.001792	28.081	0.118610	0.001990	59.5886	-81.3962	-170.494	0.009571	0.341362	-0.784859	-0.786195	-0.050003	59.5886	-0.784230	-2.746034E+10	1.820909E-12	NaN
440	1.000000	0.352697	7.36936e+06	-55089.1	1005.82	-29742.3	0.000000	0.000000	6.352864	-0.046387	NaN	0.000000	0.001613	0.001788	28.0812	0.046323	0.001982	23.3675	175.281	12.4514	-0.061163	0.351355	-0.774860	-0.776201	-0.046387	23.3675	-0.773371	-1.954953E+10	2.372784E-12	NaN
440	1.000000	0.362681	7.36936e+06	-55089.1	1005.82	-29742.3	0.000000	0.000000	6.362851	0.002058	NaN	0.000000	0.001663	0.001743	28.0809	0.007287	0.002074	3.513997	113.954	-163.945	-0.033062	0.361422	-0.764875	-0.766135	0.002058	3.513997	-0.765314	-1.519115E+10	-1.354441E-13	NaN
440	1.000000	0.372722	7.36936e+06	-55089.1	1005.82	-29742.3	0.000000	0.000000	6.372890	-0.042300	NaN	0.000000	0.001595	0.001717	28.081	0.020291	0.001890	10.7355	-154.458	11.6219	-0.021334	0.371324	-0.754835	-0.756233	-0.042300	10.7355	-0.751880	-9.972535E+9	4.241659E-12	NaN
440	1.000000	0.382742	7.36936e+06	-55089.1	1005.82	-29742.3	0.000000	0.000000	6.382909	-0.067257	NaN	0.000000	0.001607	0.001761	28.0811	0.091771	0.002172	42.2424	-169.346	-165.86	0.051570	0.381361	-0.744814	-0.746195	-0.067257	42.2424	-0.743620	-7.697627E+9	8.737414E-12	NaN
440	1.000000	0.392701	7.36936e+06	-55089.1	1005.82	-29742.3	0.000000	0.000000	6.392869	-0.045644	NaN	0.000000	0.001632	0.001757	28.0812	0.105949	0.001986	53.3534	-176.586	10.1769	-0.060640	0.391366	-0.734855	-0.736191	-0.045644	53.3534	-0.734214	-5.730980E+9	7.964380E-12	NaN
440	1.000000	0.402708	7.36936e+06	-55089.1	1005.82	-29742.3	0.000000	0.000000	6.402874	-0.099884	NaN	0.000000	0.001623	0.001743	28.081	0.066340	0.001966	33.7429	-1.614702	-166.344	-0.082511	0.401441	-0.724848	-0.726115	-0.099884	33.7429	-0.722628	-3.983929E+9	2.507164E-11	NaN
440	1.000000	0.412739	7.36936e+06	-55089.1	1005.82	-29742.3	0.000000	0.000000	6.412908	-0.021349	NaN	0.000000	0.001613	0.001732	28.0811	0.064541	0.001984	32.5364	87.8174	12.9682	-0.014566	0.411410	-0.714818	-0.716147	-0.021349	32.5364	-0.714326	-3.069539E+9	6.955041E-12	NaN
440	1.000000	0.422741	7.36936e+06	-55089.1	1005.82	-29742.3	0.000000	0.000000	6.422909	-0.049601	NaN	0.000000	0.001625	0.001756	28.0812	0.069542	0.002061	33.7441	-170.409	-166.061	0.005440	0.421447	-0.704815	-0.706110	-0.049601	33.7441	-0.703713	-2.199009E+9	2.255626E-11	NaN
440	1.000000	0.432721	7.36936e+06	-55089.1	1005.82	-29742.3	0.000000	0.000000	6.432890	-0.011976	NaN	0.000000	0.001617	0.001706	28.0806	0.042233	0.002142	19.721	-176.659	15.7723	-0.030766	0.431381	-0.694836	-0.696176	-0.011976	19.721	-0.694380	-1.639731E+9	7.303375E-12	NaN
440	1.000000	0.442745	7.36936e+06	-55089.1	1005.82	-29742.3	0.000000	0.000000	6.442912	-0.083092	NaN	0.000000	0.001677	0.001746	28.0799	0.083074	0.001993	41.6934	-123.391	-166.045	-0.018616	0.441463	-0.684811	-0.686094	-0.083092	41.6934	-0.683317	-1.157600E+9	7.177945E-11	NaN
440	1.000000	0.452731	7.36936e+06	-55089.1	1005.82	-29742.3	0.000000	0.000000	6.452900	-0.012038	NaN	0.000000	0.001621	0.001724	28.08	0.019775	0.001988	9.947966	110.021	13.744	0.078848	0.451349	-0.674825	-0.676207	-0.012038	9.947966	-0.673918	-8.610050E+8	1.398171E-11	NaN
440	1.000000	0.462723	7.36936e+06	-55089.1	1005.82	-29742.3	0.000000	0.000000	6.462893	-0.013302	NaN	0.000000	0.001654	0.001735	28.0803	0.022175	0.001923	11.5328	-87.8527	-167.105	-0.063636	0.461475	-0.664833	-0.666081	-0.013302	11.5328	-0.663968	-6.292373E+8	2.114007E-11	NaN
440	1.000000	0.472747	7.36936e+06	-55089.1	1005.82	-29742.3	0.000000	0.000000	6.472916	-0.014820	NaN	0.000000	0.001651	0.001747	28.0802	0.033147	0.002011	16.4839	24.2667	15.5904	-0.067341	0.471406	-0.654810	-0.656150	-0.014820	16.4839	-0.654135	-4.614423E+8	3.211724E-11	NaN
440	1.000000	0.482772	7.36936e+06	-55089.1	1005.82	-29742.3	0.000000	0.000000	6.482941	-0.024735	NaN	0.000000	0.001648	0.001747	28.0799	0.130656	0.001937	67.4545	179.205	-167.684	-0.021948	0.481451	-0.644785	-0.646106	-0.024735	67.4545	-0.644510	-3.405277E+8	7.263614E-11	NaN
440	1.000000	0.492784	7.36936e+06	-55089.1	1005.82	-29742.3	0.000000	0.000000	6.492952	-0.031329	NaN	0.000000	0.001640	0.001751	28.0803	0.046792	0.002075	22.5523	108.608	12.7139	-0.009741	0.491389	-0.634773	-0.636167	-0.031329	22.5523	-0.633731	-2.422440E+8	1.293278E-10	NaN
440	1.000000	0.502753	7.36936e+06	-55089.1	1005.82	-29742.3	0.000000	0.000000	6.502923	0.006368	NaN	0.000000	0.001612	0.001755	28.0802	0.025132	0.002016	12.468	-153.767	-163.215	-0.030303	0.501486	-0.624803	-0.626071	0.006368	12.468	-0.625186	-1.848871E+8	-3.444113E-11	NaN
440	1.000000	0.512797	7.36936e+06	-55089.1	1005.82	-29742.3	0.000000	0.000000	6.512964	-0.063559	NaN	0.000000	0.001635	0.001752	28.0802	0.099821	0.002189	45.5968	-81.6571	15.4677	-0.104689	0.511428	-0.614760	-0.616129	-0.063559	45.5968	-0.613714	-1.285905E+8	4.942737E-10	NaN
440	1.000000	0.522766	7.36936e+06	-55089.1	1005.82	-29742.3	0.000000	0.000000	6.522936	-0.000917	NaN	0.000000	0.001676	0.001733	28.0801	0.028724	0.002034	14.1185	-92.7857	-164.421	0.085941	0.521468	-0.604790	-0.606088	-0.000917	14.1185	-0.604742	-9.677176E+7	9.471785E-12	NaN
440	1.000000	0.532820	7.36936e+06	-55089.1	1005.82	-29742.3	0.000000	0.000000	6.532989	-0.016954	NaN	0.000000	0.001681	0.001741	28.0804	0.043734	0.001927	22.6913	126.285	15.3634	-0.048248	0.531445	-0.594737	-0.596111	-0.016954	22.6913	-0.594177	-6.922051E+7	2.449218E-10	NaN
440	1.000000	0.542789	7.36936e+06	-55089.1	1005.82	-29742.3	0.000000	0.000000	6.542958	-0.024214	NaN	0.000000	0.001643	0.001782	28.0799	0.020921	0.002080	10.0598	132.511	-165.16	-0.023400	0.541532	-0.584767	-0.586025	-0.024214	10.0598	-0.582962	-4.848419E+7	4.994188E-10	NaN
440	1.000000	0.552809	7.36936e+06	-55089.1	1005.82	-29742.3	0.000000	0.000000	6.552980	0.036764	NaN	0.000000	0.001644	0.001774	28.0801	0.048205	0.002041	23.6131	72.9021	13.9918	0.009510	0.551441	-0.574748	-0.576116	0.036764	23.6131	-0.575916	-3.875632E+7	-9.485951E-10	NaN
440	1.000000	0.562764	7.36936e+06	-55089.1	1005.82	-29742.3	0.000000	0.000000	6.562934	0.007280	NaN	0.000000	0.001671	0.001746	28.0801	0.014888	0.001972	7.548001	-136.746	-168.768	0.003824	0.561452	-0.564792	-0.566105	0.007280	7.548001	-0.565516	-2.783895E+7	-2.615122E-10	NaN
440	1.000000	0.572773	7.36936e+06	-55089.1	1005.82	-29742.3	0.000000	0.000000	6.572944	0.037297	NaN	0.000000	0.001676	0.001759	28.0816	0.071350	0.001963	36.3427	138.844	16.1941	0.115026	0.571423	-0.554784	-0.556134	0.037297	36.3427	-0.555553	-2.026974E+7	-1.840023E-9	NaN
440	1.000000	0.582774	7.36936e+06	-55089.1	1005.82	-29742.3	0.000000	0.000000	6.582943	-0.005396	NaN	0.000000	0.001637	0.001724	28.0813	0.107324	0.002117	50.7081	-179.069	-166.9	-0.032715	0.581579	-0.544783	-0.545978	-0.005396	50.7081	-0.544703	-1.434056E+7	3.762866E-10	NaN
440	1.000000	0.592817	7.36936e+06	-55089.1	1005.82	-29742.3	0.000000	0.000000	6.592987	0.007859	NaN	0.000000	0.001667	0.001711	28.0813	0.096128	0.002119	45.3602	-165.934	11.7138	0.025530	0.591442	-0.534739	-0.536114	0.007859	45.3602	-0.534869	-1.047557E+7	-7.502680E-10	NaN
440	1.000000	0.602787	7.36936e+06	-55089.1	1005.82	-29742.3	0.000000	0.000000	6.602957	-0.005790	NaN	0.000000	0.001621	0.001745	28.0814	0.059357	0.001936	30.6665	23.9202	-166.939	0.015110	0.601459	-0.524769	-0.526098	-0.005790	30.6665	-0.524628	-7.54987e+06	7.669494E-10	NaN
440	1.000000	0.612820	7.36936e+06	-55089.1	1005.82	-29742.3	0.000000	0.000000	6.612988	-0.030948	NaN	0.000000	0.001647	0.001726	28.0814	0.080580	0.001975	40.8061	-29.1108	15.2165	-0.027892	0.611479	-0.514737	-0.516078	-0.030948	40.8061	-0.514168	-5.40071e+06	5.730284E-9	NaN
440	1.000000	0.622836	7.36936e+06	-55089.1	1005.82	-29742.3	0.000000	0.000000	6.623004	-0.030355	NaN	0.000000	0.001649	0.001715	28.0812	0.025189	0.001987	12.679	-49.3842	-166.188	-0.008400	0.621528	-0.504721	-0.506028	-0.030355	12.679	-0.502925	-3.76545e+06	8.061381E-9	NaN
440	1.000000	0.632815	7.36936e+06	-55089.1	1005.82	-29742.3	0.000000	0.000000	6.632985	-0.003705	NaN	0.000000	0.001688	0.001717	28.0811	0.093434	0.002057	45.4138	-1.243047	17.6121	-0.063995	0.631501	-0.494741	-0.496056	-0.003705	45.4138	-0.494680	-2.88913e+06	1.282320E-9	NaN
440	1.000000	0.642833	7.36936e+06	-55089.1	1005.82	-29742.3	0.000000	0.000000	6.643001	-0.032754	NaN	0.000000	0.001626	0.001726	28.0815	0.050490	0.001936	26.0777	64.3189	-165.145	-0.025452	0.641535	-0.484724	-0.486021	-0.032754	26.0777	-0.483782	-2.03445e+06	1.609983E-8	NaN
440	1.000000	0.652810	7.36936e+06	-55089.1	1005.82	-29742.3	0.000000	0.000000	6.652976	-0.086227	NaN	0.000000	0.001652	0.001729	28.0811	0.058419	0.001994	29.3002	104.466	8.233513	-0.070140	0.651488	-0.474747	-0.476068	-0.086227	29.3002	-0.472540	-1.41585e+06	6.090138E-8	NaN
440	1.000000	0.662815	7.36936e+06	-55089.1	1005.82	-29742.3	0.000000	0.000000	6.662983	-0.044735	NaN	0.000000	0.001599	0.001723	28.0813	0.067923	0.001966	34.5561	64.0911	-169.177	-0.113680	0.661576	-0.464742	-0.465980	-0.044735	34.5561	-0.463771	-1.06657e+06	4.194256E-8	NaN
440	1.000000	0.672862	7.36936e+06	-55089.1	1005.82	-29742.3	0.000000	0.000000	6.673033	0.020388	NaN	0.000000	0.001600	0.001748	28.0812	0.107745	0.002013	53.5138	-99.6415	17.2868	-0.036607	0.671492	-0.454694	-0.456064	0.020388	53.5138	-0.454980	-802486	-2.540660E-8	NaN
440	1.000000	0.682871	7.36936e+06	-55089.1	1005.82	-29742.3	0.000000	0.000000	6.683039	-0.055143	NaN	0.000000	0.001616	0.001733	28.0815	0.073590	0.002099	35.0526	82.2674	-168.779	-0.034363	0.681566	-0.444685	-0.445991	-0.055143	35.0526	-0.443505	-553119	9.969505E-8	NaN
440	1.000000	0.692894	7.36936e+06	-55089.1	1005.82	-29742.3	0.000000	0.000000	6.693062	-0.050674	NaN	0.000000	0.001655	0.001775	28.0812	0.078546	0.001953	40.2124	-169.185	10.15	-0.000794	0.691475	-0.434663	-0.436082	-0.050674	40.2124	-0.433717	-402373	1.259373E-7	NaN
440	1.000000	0.702831	7.36936e+06	-55089.1	1005.82	-29742.3	0.000000	0.000000	6.703001	-0.013220	NaN	0.000000	0.001631	0.001705	28.0817	0.045663	0.002014	22.672	-128.425	-169.631	-0.115347	0.701553	-0.424725	-0.426004	-0.013220	22.672	-0.424288	-295934	4.467284E-8	NaN
440	1.000000	0.712851	7.36936e+06	-55089.1	1005.82	-29742.3	0.000000	0.000000	6.713018	-0.057748	NaN	0.000000	0.001613	0.001742	28.0802	0.053471	0.002016	26.5239	-94.892	15.1114	-0.017091	0.711529	-0.414706	-0.416028	-0.057748	26.5239	-0.413073	-205154	2.814865E-7	NaN
440	1.000000	0.722848	7.36936e+06	-55089.1	1005.82	-29742.3	0.000000	0.000000	6.723014	-0.077900	NaN	0.000000	0.001635	0.001734	28.08	0.071681	0.002115	33.894	135.617	-166.036	-0.009642	0.721558	-0.404709	-0.405999	-0.077900	33.894	-0.402985	-147418	5.284305E-7	NaN
440	1.000000	0.732878	7.36936e+06	-55089.1	1005.82	-29742.3	0.000000	0.000000	6.733046	-0.048109	NaN	0.000000	0.001615	0.001747	28.0798	0.010884	0.002080	5.232671	116.597	11.8516	-0.065438	0.731508	-0.394678	-0.396049	-0.048109	5.232671	-0.387783	-89420.8	5.380018E-7	NaN
440	1.000000	0.742875	7.36937e+06	-55089.1	1005.82	-29742.3	0.000000	0.000000	6.743047	0.043026	NaN	0.000000	0.001659	0.001724	28.0799	0.026603	0.001933	13.7647	173.163	-164.72	0.018047	0.741568	-0.384681	-0.385989	0.043026	13.7647	-0.387026	-87216.5	-4.933193E-7	NaN
440	1.000000	0.752871	7.36937e+06	-55089.1	1005.82	-29742.3	0.000000	0.000000	6.753041	-0.009125	NaN	0.000000	0.001613	0.001780	28.0801	0.074364	0.001953	38.0681	97.8273	12.4475	-0.014131	0.751514	-0.374685	-0.376042	-0.009125	38.0681	-0.374505	-57671.4	1.582272E-7	NaN
440	1.000000	0.762905	7.36937e+06	-55089.1	1005.82	-29742.3	0.000000	0.000000	6.763072	-0.066114	NaN	0.000000	0.001663	0.001765	28.08	0.138255	0.002077	66.5515	68.8864	-163.338	-0.039063	0.761616	-0.364652	-0.365941	-0.066114	66.5515	-0.363907	-40576.6	1.629354E-6	NaN
440	1.000000	0.772896	7.36937e+06	-55089.1	1005.82	-29742.3	0.000000	0.000000	6.773067	0.026710	NaN	0.000000	0.001624	0.001781	28.0798	0.080664	0.002065	39.0629	-79.5152	13.7359	0.098063	0.771588	-0.354660	-0.355968	0.026710	39.0629	-0.355173	-30339	-8.803698E-7	NaN
440	1.000000	0.782899	7.36937e+06	-55089.1	1005.82	-29742.3	0.000000	0.000000	6.783070	0.026078	NaN	0.000000	0.001614	0.001761	28.0799	0.107222	0.001900	56.44	-172.933	-169.123	-0.013857	0.781541	-0.344658	-0.346016	0.026078	56.44	-0.345004	-21598.3	-1.207415E-6	NaN
440	1.000000	0.792919	7.36937e+06	-55089.1	1005.82	-29742.3	0.000000	0.000000	6.793088	-0.028146	NaN	0.000000	0.001588	0.001772	28.08	0.064920	0.001970	32.9519	-68.8157	17.6512	-0.075903	0.791533	-0.334638	-0.336024	-0.028146	32.9519	-0.333997	-14925.5	1.885799E-6	NaN
440	1.000000	0.802891	7.36937e+06	-55089.1	1005.82	-29742.3	0.000000	0.000000	6.803060	-0.023806	NaN	0.000000	0.001634	0.001778	28.08	0.028237	0.001990	14.1904	90.9621	-165.437	0.007709	0.801582	-0.324666	-0.325974	-0.023806	14.1904	-0.323407	-10441.1	2.280052E-6	NaN
440	1.000000	0.812908	7.36937e+06	-55089.1	1005.82	-29742.3	0.000000	0.000000	6.813081	0.068668	NaN	0.000000	0.001595	0.001760	28.0799	0.041547	0.001989	20.8869	63.9828	14.1974	0.049126	0.811514	-0.314648	-0.316043	0.068668	20.8869	-0.317114	-8435.79	-8.140126E-6	NaN
440	1.000000	0.822915	7.36937e+06	-55089.1	1005.82	-29742.3	0.000000	0.000000	6.823085	0.002286	NaN	0.000000	0.001598	0.001753	28.08	0.046700	0.001970	23.7108	124.84	-162.752	0.058077	0.821557	-0.304641	-0.306000	0.002286	23.7108	-0.304713	-5529.71	-4.133284E-7	NaN
440	1.000000	0.832908	7.36937e+06	-55089.1	1005.82	-29742.3	0.000000	0.000000	6.833079	0.018044	NaN	0.000000	0.001667	0.001721	28.0798	0.083893	0.001951	42.9918	-117.29	13.6131	-0.032985	0.831539	-0.294648	-0.296018	0.018044	42.9918	-0.294963	-3958.54	-4.558217E-6	NaN
440	1.000000	0.842907	7.36937e+06	-55089.1	1005.82	-29742.3	0.000000	0.000000	6.843075	-0.055670	NaN	0.000000	0.001657	0.001768	28.0809	0.043207	0.002004	21.5553	-14.1068	-167.156	-0.020579	0.841641	-0.284649	-0.285915	-0.055670	21.5553	-0.282712	-2593.28	2.146709E-5	NaN
440	1.000000	0.852874	7.36937e+06	-55089.1	1005.82	-29742.3	0.000000	0.000000	6.853045	0.028752	NaN	0.000000	0.001646	0.001757	28.0809	0.054841	0.002036	26.939	-39.3244	13.8373	-0.044106	0.851571	-0.274682	-0.275986	0.028752	26.939	-0.275483	-2017.02	-1.425474E-5	NaN
440	1.000000	0.862910	7.36937e+06	-55089.1	1005.82	-29742.3	0.000000	0.000000	6.863079	-0.014517	NaN	0.000000	0.001645	0.001764	28.0814	0.028861	0.002066	13.9683	-36.6058	-166.931	-0.013546	0.861624	-0.264647	-0.265933	-0.014517	13.9683	-0.263867	-1343.06	1.080900E-5	NaN
440	1.000000	0.872936	7.36937e+06	-55089.1	1005.82	-29742.3	0.000000	0.000000	6.873105	-0.012230	NaN	0.000000	0.001620	0.001726	28.081	0.085982	0.001861	46.2047	-179.551	14.51	-0.084626	0.871572	-0.254621	-0.255985	-0.012230	46.2047	-0.254422	-962.092	1.271188E-5	NaN
440	1.000000	0.882923	7.36937e+06	-55089.1	1005.82	-29742.3	0.000000	0.000000	6.883090	-0.067751	NaN	0.000000	0.001650	0.001713	28.081	0.055578	0.002093	26.557	20.0959	-169.714	-0.045120	0.881654	-0.244634	-0.245902	-0.067751	26.557	-0.242720	-633.849	0.000107	NaN
440	1.000000	0.892928	7.36937e+06	-55089.1	1005.82	-29742.3	0.000000	0.000000	6.893096	-0.059890	NaN	0.000000	0.001656	0.001710	28.0811	0.112084	0.002111	53.1008	4.128185	13.4826	-0.075368	0.891555	-0.234628	-0.236002	-0.059890	53.1008	-0.233782	-459.322	0.000130	NaN
440	1.000000	0.902932	7.36937e+06	-55089.1	1005.82	-29742.3	0.000000	0.000000	6.903101	-0.019794	NaN	0.000000	0.001622	0.001722	28.0812	0.053215	0.002080	25.5857	-46.4182	-163.331	-0.039496	0.901638	-0.224625	-0.225918	-0.019794	25.5857	-0.224045	-322.221	6.143057E-5	NaN
440	1.000000	0.912960	7.36937e+06	-55089.1	1005.82	-29742.3	0.000000	0.000000	6.913128	-0.034267	NaN	0.000000	0.001613	0.001754	28.0811	0.026846	0.002018	13.3002	-124.408	14.8847	0.011389	0.911578	-0.214597	-0.215979	-0.034267	13.3002	-0.212664	-211.78	0.000162	NaN
440	1.000000	0.922924	7.36937e+06	-55089.1	1005.82	-29742.3	0.000000	0.000000	6.923092	-0.032764	NaN	0.000000	0.001627	0.001743	28.081	0.063724	0.001911	33.3477	108.713	-166.055	0.013580	0.921652	-0.204633	-0.205905	-0.032764	33.3477	-0.203896	-152.593	0.000215	NaN
440	1.000000	0.932968	7.36937e+06	-55089.1	1005.82	-29742.3	0.000000	0.000000	6.933136	-0.057324	NaN	0.000000	0.001585	0.001745	28.0812	0.072299	0.001770	40.8446	159.179	15.8164	0.030889	0.931561	-0.194588	-0.195996	-0.057324	40.8446	-0.193536	-103.018	0.000556	NaN
440	1.000000	0.942953	7.36937e+06	-55089.1	1005.82	-29742.3	0.000000	0.000000	6.943125	0.060873	NaN	0.000000	0.001628	0.001730	28.081	0.175330	0.001980	88.5511	134.091	-169.836	0.054422	0.941667	-0.184604	-0.185890	0.060873	88.5511	-0.185119	-74.4981	-0.000817	NaN
440	1.000000	0.952972	7.36937e+06	-55089.1	1005.82	-29742.3	0.000000	0.000000	6.953138	-0.096197	NaN	0.000000	0.001619	0.001757	28.081	0.100564	0.002054	48.9704	50.7494	12.9842	-0.115808	0.951569	-0.174584	-0.175988	-0.096197	48.9704	-0.173111	-46.5009	0.002069	NaN
440	1.000000	0.962965	7.36937e+06	-55089.1	1005.82	-29742.3	0.000000	0.000000	6.963134	-0.022429	NaN	0.000000	0.001651	0.001768	28.0809	0.038323	0.001902	20.1464	74.5466	-164.736	-0.084941	0.961648	-0.164591	-0.165908	-0.022429	20.1464	-0.163756	-31.9474	0.000702	NaN
440	1.000000	0.972954	7.36937e+06	-55089.1	1005.82	-29742.3	0.000000	0.000000	6.973123	-0.002637	NaN	0.000000	0.001681	0.001750	28.0813	0.090022	0.002066	43.5741	28.4017	12.8444	0.045721	0.971572	-0.154603	-0.155985	-0.002637	43.5741	-0.154558	-21.9087	0.000120	NaN
440	1.000000	0.982971	7.36937e+06	-55089.1	1005.82	-29742.3	0.000000	0.000000	6.983139	-0.022611	NaN	0.000000	0.001657	0.001752	28.0796	0.013635	0.001951	6.989794	-39.7537	-166.576	-0.008974	0.981671	-0.144586	-0.145886	-0.022611	6.989794	-0.142160	-12.9838	0.001742	NaN
440	1.000000	0.992986	7.36937e+06	-55089.1	1005.82	-29742.3	0.000000	0.000000	6.993157	0.021074	NaN	0.000000	0.001640	0.001739	28.0797	0.108810	0.001990	54.6696	59.0805	12.0657	0.051767	0.991560	-0.134570	-0.135996	0.021074	54.6696	-0.134859	-9.453751	-0.002229	NaN
440	1.000000	1.002967	7.36937e+06	-55089.1	1005.82	-29742.3	0.000000	0.000000	7.003136	-0.036709	NaN	0.000000	0.001622	0.001763	28.0798	0.047124	0.002144	21.9752	-45.1101	-166.347	0.056865	1.001669	-0.124589	-0.125888	-0.036709	21.9752	-0.123336	-5.635970	0.006513	NaN
440	1.000000	1.012976	7.36937e+06	-55089.1	1005.82	-29742.3	0.000000	0.000000	7.013145	-0.003230	NaN	0.000000	0.001621	0.001752	28.0798	0.099233	0.001933	51.3349	89.7246	12.2583	-0.099476	1.011654	-0.114581	-0.115902	-0.003230	51.3349	-0.114534	-3.736645	0.000865	NaN
440	1.000000	1.022983	7.36937e+06	-55089.1	1005.82	-29742.3	0.000000	0.000000	7.023152	-0.036086	NaN	0.000000	0.001607	0.001754	28.0796	0.078748	0.001768	44.5325	19.6963	-163.962	0.004252	1.021680	-0.104573	-0.105876	-0.036086	44.5325	-0.103965	-2.232369	0.016165	NaN
440	1.000000	1.032973	7.36937e+06	-55089.1	1005.82	-29742.3	0.000000	0.000000	7.033141	-0.031999	NaN	0.000000	0.001611	0.001729	28.0796	0.085575	0.002062	41.5092	84.1236	13.5877	0.019539	1.031590	-0.094584	-0.095966	-0.031999	41.5092	-0.094006	-1.338726	0.023903	NaN
440	1.000000	1.042994	7.36937e+06	-55089.1	1005.82	-29742.3	0.000000	0.000000	7.043163	-0.023632	NaN	0.000000	0.001620	0.001721	28.08	0.125916	0.002000	62.9449	171.045	-163.894	-0.031947	1.041693	-0.084563	-0.085864	-0.023632	62.9449	-0.084281	-0.789296	0.029940	NaN
440	1.000000	1.052976	7.36937e+06	-55089.1	1005.82	-29742.3	0.000000	0.000000	7.053143	-0.051825	NaN	0.000000	0.001641	0.001710	28.0801	0.030763	0.001908	16.1269	-130.182	13.5395	-0.112145	1.051616	-0.074581	-0.075940	-0.051825	16.1269	-0.072171	-0.389584	0.133028	NaN
440	1.000000	1.063019	7.36937e+06	-55089.1	1005.82	-29742.3	0.000000	0.000000	7.063189	-0.009379	NaN	0.000000	0.001675	0.001697	28.0796	0.128966	0.002046	63.045	-11.2004	-167.504	-0.054831	1.061712	-0.064537	-0.065845	-0.009379	63.045	-0.064426	-0.240224	0.039042	NaN
440	1.000000	1.072970	7.36937e+06	-55089.1	1005.82	-29742.3	0.000000	0.000000	7.073137	-0.048797	NaN	0.000000	0.001686	0.001750	28.0798	0.037143	0.002081	17.8464	-125.788	13.7569	-0.071895	1.071696	-0.054587	-0.055861	-0.048797	17.8464	-0.052536	-0.108782	0.448579	NaN
440	1.000000	1.082992	7.36937e+06	-55089.1	1005.82	-29742.3	0.000000	0.000000	7.083162	-0.002493	NaN	0.000000	0.001668	0.001714	28.0797	0.047326	0.002103	22.5003	-63.4812	-163.697	0.008369	1.081735	-0.044564	-0.045822	-0.002493	22.5003	-0.044481	-0.061963	0.040232	NaN
440	1.000000	1.093013	7.36937e+06	-55089.1	1005.82	-29742.3	0.000000	0.000000	7.093181	-0.054373	NaN	0.000000	0.001603	0.001721	28.0797	0.046359	0.002036	22.7671	50.9156	9.736828	0.013775	1.091685	-0.034544	-0.035871	-0.054373	22.7671	-0.032752	-0.027542	1.974202	NaN
440	1.000000	1.103032	7.36937e+06	-55089.1	1005.82	-29742.3	0.000000	0.000000	7.103202	0.004539	NaN	0.000000	0.001639	0.001745	28.0797	0.028968	0.001991	14.5469	-64.1639	-166.434	0.042497	1.101712	-0.024525	-0.025845	0.004539	14.5469	-0.024759	-0.016628	-0.273006	NaN
440	1.000000	1.113013	7.36937e+06	-55089.1	1005.82	-29742.3	0.000000	0.000000	7.113183	0.004009	NaN	0.000000	0.001668	0.001721	28.0801	0.063620	0.001985	32.0555	-112.307	10.8227	0.065951	1.111699	-0.014543	-0.015858	0.004009	32.0555	-0.014637	-0.009059	-0.442543	NaN
440	1.000000	1.123001	7.36937e+06	-55089.1	1005.82	-29742.3	0.000000	0.000000	7.123172	0.023529	NaN	0.000000	0.001685	0.001693	28.081	0.086027	0.001925	44.6861	167.375	-165.272	0.041910	1.121703	-0.004555	-0.005854	0.023529	44.6861	-0.004950	-0.003385	-6.950164	NaN
440	1.000000	1.133031	7.36937e+06	-55089.1	1005.82	-29742.3	0.000000	0.000000	7.133348	3.570585	NaN	0.000000	0.001688	0.001744	28.0812	4.608674	0.001820	2532.9	11.1089	11.5371	2.414349	1.131638	0.005474	0.004081	3.570585	2532.9	0.004417	0.003608	989.702	38527.7
440	2.000000	1.139549	7.36937e+06	-55089.1	1005.82	-29742.3	0.000000	0.000000	7.140141	10.2691	NaN	0.000000	0.001751	0.001770	28.0812	10.3947	0.001577	6592.83	8.174980	-174.546	9.791028	1.139256	0.011993	0.011700	10.2691	6592.83	0.010824	0.010112	1015.53	59899.7
440	2.000000	1.142040	7.36937e+06	-55089.1	1005.82	-29742.3	0.000000	0.000000	7.142782	13.893	NaN	0.000000	0.001691	0.001747	28.0815	14.1951	0.001723	8237.99	8.948652	1.313107	13.2375	1.141648	0.014484	0.014091	13.893	8237.99	0.013219	0.012983	1070.09	66055.2
440	2.000000	1.144514	7.36937e+06	-55089.1	1005.82	-29742.3	0.000000	0.000000	7.145412	17.7193	NaN	0.000000	0.001716	0.001779	28.0812	16.8008	0.001831	9175.88	6.563986	-176.097	16.5804	1.144202	0.016957	0.016645	17.7193	9175.88	0.015509	0.015970	1109.54	66338.8
440	2.000000	1.147003	7.36937e+06	-55089.1	1005.82	-29742.3	0.000000	0.000000	7.148170	24.2506	NaN	0.000000	0.001668	0.001754	28.0813	19.4071	0.001907	10176.2	11.5155	-1.592423	22.8768	1.146675	0.019446	0.019118	24.2506	10176.2	0.017659	0.018996	1276.63	67457.1
440	2.000000	1.149504	7.36937e+06	-55089.1	1005.82	-29742.3	0.000000	0.000000	7.150865	28.982	NaN	0.000000	0.001716	0.001746	28.082	22.2635	0.001869	11909.2	10.9455	177.499	28.3566	1.149115	0.021947	0.021558	28.982	11909.2	0.020122	0.022734	1274.84	72163.4
440	2.000000	1.151966	7.36937e+06	-55089.1	1005.82	-29742.3	0.000000	0.000000	7.153432	31.5114	NaN	0.000000	0.001611	0.001745	28.0814	24.5448	0.001739	14110.4	4.336676	1.121783	29.6524	1.151653	0.024410	0.024097	31.5114	14110.4	0.022735	0.027023	1166.08	78422.9
440	2.000000	1.154483	7.36937e+06	-55089.1	1005.82	-29742.3	0.000000	0.000000	7.156198	37.5716	NaN	0.000000	0.001632	0.001704	28.0814	27.8924	0.001966	14190.8	5.695679	-178.39	37.3019	1.154195	0.026926	0.026639	37.5716	14190.8	0.024940	0.030907	1215.63	73747.9
440	2.000000	1.156981	7.36937e+06	-55089.1	1005.82	-29742.3	0.000000	0.000000	7.159048	46.1176	NaN	0.000000	0.001620	0.001762	28.0812	30.4127	0.001860	16350.9	8.178954	-2.871566	45.0368	1.156598	0.029424	0.029042	46.1176	16350.9	0.027309	0.035350	1304.6	79454.8
440	2.000000	1.159447	7.36937e+06	-55089.1	1005.82	-29742.3	0.000000	0.000000	7.161837	53.9652	NaN	0.000000	0.001653	0.001777	28.0816	31.9304	0.001808	17662.5	6.401648	177.378	52.4831	1.159141	0.031891	0.031584	53.9652	17662.5	0.029599	0.039917	1351.92	80769.2
440	2.000000	1.161970	7.36937e+06	-55089.1	1005.82	-29742.3	0.000000	0.000000	7.164740	63.1994	NaN	0.000000	0.001637	0.001759	28.0812	34.6265	0.001784	19413.3	0.955042	1.859286	61.0108	1.161588	0.034414	0.034031	63.1994	19413.3	0.031972	0.044930	1406.61	83676.4
440	2.000000	1.164368	7.36937e+06	-55089.1	1005.82	-29742.3	0.000000	0.000000	7.167329	67.8521	NaN	0.000000	0.001638	0.001753	28.0814	37.4295	0.001594	23476	5.806688	174.393	64.0314	1.164138	0.036812	0.036582	67.8521	23476	0.034644	0.050921	1332.51	95049.6
440	2.000000	1.166977	7.36937e+06	-55089.1	1005.82	-29742.3	0.000000	0.000000	7.170268	75.8849	NaN	0.000000	0.001624	0.001750	28.0801	39.6767	0.001913	20740.7	5.571919	-2.193338	75.792	1.166712	0.039420	0.039155	75.8849	20740.7	0.036676	0.055720	1361.89	80276.8
440	2.000000	1.169427	7.36937e+06	-55089.1	1005.82	-29742.3	0.000000	0.000000	7.173214	87.9325	NaN	0.000000	0.001631	0.001736	28.0815	41.7824	0.001773	23562.8	5.533495	176.018	86.8521	1.169075	0.041870	0.041518	87.9325	23562.8	0.039071	0.061651	1426.3	86702.5
440	2.000000	1.171939	7.36937e+06	-55089.1	1005.82	-29742.3	0.000000	0.000000	7.176194	99.3083	NaN	0.000000	0.001615	0.001755	28.08	44.4721	0.001896	23452.5	6.047964	-4.308145	96.7911	1.171583	0.044383	0.044027	99.3083	23452.5	0.041207	0.067184	1478.15	82666.2
440	2.000000	1.174421	7.36937e+06	-55089.1	1005.82	-29742.3	0.000000	0.000000	7.178989	106.936	NaN	0.000000	0.001616	0.001772	28.0801	46.5102	0.001750	26571.8	3.361246	177.352	104.8	1.174127	0.046864	0.046570	106.936	26571.8	0.043846	0.074344	1438.39	89037
440	2.000000	1.176932	7.36937e+06	-55089.1	1005.82	-29742.3	0.000000	0.000000	7.182087	121.182	NaN	0.000000	0.001643	0.001739	28.08	48.1834	0.001792	26894.3	1.733708	-0.764677	118.278	1.176574	0.049376	0.049018	121.182	26894.3	0.045996	0.080441	1506.48	86635.6
440	2.000000	1.179492	7.36937e+06	-55089.1	1005.82	-29742.3	0.000000	0.000000	7.185034	130.577	NaN	0.000000	0.001617	0.001759	28.0804	50.877	0.001668	30502.7	4.101664	175.63	133.169	1.179100	0.051936	0.051544	130.577	30502.7	0.048725	0.088513	1475.23	93671.6
440	2.000000	1.181947	7.36937e+06	-55089.1	1005.82	-29742.3	0.000000	0.000000	7.188097	145.383	NaN	0.000000	0.001601	0.001779	28.0798	53.2325	0.001718	30992	2.459146	-2.763361	143.615	1.181521	0.054390	0.053964	145.383	30992	0.050872	0.095127	1528.3	91806
440	2.000000	1.184368	7.36937e+06	-55089.1	1005.82	-29742.3	0.000000	0.000000	7.190745	150.891	NaN	0.000000	0.001658	0.001783	28.08	56.2703	0.001853	30369.8	1.605163	177.886	146.18	1.184171	0.056811	0.056615	150.891	30369.8	0.053085	0.102186	1476.62	86799.7
440	2.000000	1.186995	7.36937e+06	-55089.1	1005.82	-29742.3	0.000000	0.000000	7.194000	166.148	NaN	0.000000	0.001707	0.001785	28.0802	58.225	0.001835	31726.2	6.787794	-6.109251	168.6	1.186434	0.059439	0.058877	166.148	31726.2	0.055511	0.110205	1507.62	87315.5
440	2.000000	1.189426	7.36937e+06	-55089.1	1005.82	-29742.3	0.000000	0.000000	7.196967	179.202	NaN	0.000000	0.001707	0.001726	28.0802	59.4586	0.001811	32833.3	3.843035	175.353	178.627	1.189108	0.061869	0.061552	179.202	32833.3	0.057776	0.117953	1519.27	87344.2
440	2.000000	1.191890	7.36937e+06	-55089.1	1005.82	-29742.3	0.000000	0.000000	7.199965	192.164	NaN	0.000000	0.001698	0.001703	28.0797	62.4106	0.001730	36081.6	2.714109	-4.611695	189.42	1.191595	0.064334	0.064038	192.164	36081.6	0.060339	0.127028	1512.76	92492.9
440	2.000000	1.194493	7.36937e+06	-55089.1	1005.82	-29742.3	0.000000	0.000000	7.202883	199.834	NaN	0.000000	0.001687	0.001720	28.0801	66.5796	0.001769	37643.9	4.037196	174.169	203.773	1.194111	0.066937	0.066555	199.834	37643.9	0.062955	0.136618	1462.72	93049.4
440	2.000000	1.196892	7.36937e+06	-55089.1	1005.82	-29742.3	0.000000	0.000000	7.206109	219.918	NaN	0.000000	0.001699	0.001738	28.08	67.8034	0.001816	37330.8	3.467455	-4.882982	216.987	1.196633	0.069336	0.069076	219.918	37330.8	0.064918	0.144030	1526.89	89870
440	2.000000	1.199426	7.36937e+06	-55089.1	1005.82	-29742.3	0.000000	0.000000	7.209260	234.94	NaN	0.000000	0.001702	0.001768	28.0798	70.5906	0.001690	41781.8	4.517492	172.719	234.913	1.199058	0.071869	0.071501	234.94	41781.8	0.067652	0.154667	1519	97064.7
440	2.000000	1.201857	7.36937e+06	-55089.1	1005.82	-29742.3	0.000000	0.000000	7.212208	247.483	NaN	0.000000	0.001655	0.001797	28.081	72.454	0.001665	43528.9	0.320476	-3.499362	243.281	1.201523	0.074301	0.073966	247.483	43528.9	0.070037	0.164237	1506.86	98133
440	2.000000	1.204461	7.36937e+06	-55089.1	1005.82	-29742.3	0.000000	0.000000	7.215416	262.197	NaN	0.000000	0.001647	0.001748	28.0812	76.9845	0.001747	44059.3	2.899264	174.221	265.788	1.204100	0.076904	0.076543	262.197	44059.3	0.072441	0.174159	1505.5	96457.8
440	2.000000	1.206876	7.36937e+06	-55089.1	1005.82	-29742.3	0.000000	0.000000	7.218781	285.281	NaN	0.000000	0.001658	0.001728	28.0813	79.3728	0.001849	42925.4	7.219005	-9.956962	281.905	1.206452	0.079319	0.078895	285.281	42925.4	0.074335	0.182167	1566.04	91886.7
440	2.000000	1.209343	7.36937e+06	-55089.1	1005.82	-29742.3	0.000000	0.000000	7.221709	296.479	NaN	0.000000	0.001649	0.001734	28.081	81.0111	0.001725	46968.7	7.042299	169.252	292.099	1.209019	0.081787	0.081462	296.479	46968.7	0.077053	0.193954	1528.6	97438.8
440	2.000000	1.211865	7.36937e+06	-55089.1	1005.82	-29742.3	0.000000	0.000000	7.224891	312.521	NaN	0.000000	0.001655	0.001751	28.0811	82.4747	0.001791	46051.1	0.875196	-4.256979	307.994	1.211554	0.084309	0.083997	312.521	46051.1	0.079219	0.203598	1534.99	93245.2
440	2.000000	1.214372	7.36937e+06	-55089.1	1005.82	-29742.3	0.000000	0.000000	7.228058	328.587	NaN	0.000000	0.001656	0.001796	28.0812	85.786	0.001801	47628.5	0.936109	175.209	327.663	1.214098	0.086815	0.086542	328.587	47628.5	0.081641	0.214639	1530.88	93925.9
440	2.000000	1.216844	7.36937e+06	-55089.1	1005.82	-29742.3	0.000000	0.000000	7.231518	352.592	NaN	0.000000	0.001628	0.001783	28.0812	87.3399	0.001771	49315.3	5.921518	-9.551175	347.87	1.216511	0.089287	0.088954	352.592	49315.3	0.083925	0.225299	1564.99	94923.9
440	2.000000	1.219281	7.36937e+06	-55089.1	1005.82	-29742.3	0.000000	0.000000	7.234467	365.032	NaN	0.000000	0.001664	0.001783	28.0812	89.6777	0.001824	49168.9	3.807475	172.333	357.992	1.219011	0.091724	0.091455	365.032	49168.9	0.086156	0.235949	1547.08	92481.4
440	2.000000	1.221898	7.36937e+06	-55089.1	1005.82	-29742.3	0.000000	0.000000	7.237950	386.1	NaN	0.000000	0.001692	0.001749	28.0812	91.8974	0.001787	51433.8	1.280581	-5.350797	383.044	1.221505	0.094341	0.093949	386.1	51433.8	0.088711	0.248423	1554.2	94281.3
440	2.000000	1.224356	7.36937e+06	-55089.1	1005.82	-29742.3	0.000000	0.000000	7.241148	404.068	NaN	0.000000	0.001702	0.001793	28.0812	96.0574	0.001796	53485	5.591471	169.738	402.161	1.224094	0.096800	0.096537	404.068	53485	0.091134	0.260527	1550.96	95736.9
440	2.000000	1.226955	7.36937e+06	-55089.1	1005.82	-29742.3	0.000000	0.000000	7.244826	430.294	NaN	0.000000	0.001672	0.001791	28.0812	97.5101	0.001737	56143.1	7.843628	-11.5916	433.175	1.226348	0.099399	0.098791	430.294	56143.1	0.093651	0.273389	1573.92	98102.2
440	2.000000	1.229402	7.36937e+06	-55089.1	1005.82	-29742.3	0.000000	0.000000	7.247665	439.832	NaN	0.000000	0.001643	0.001772	28.0812	99.1284	0.001669	59382.4	2.561603	171.868	440.182	1.229258	0.101846	0.101701	439.832	59382.4	0.096291	0.287191	1531.5	101239
440	2.000000	1.231848	7.36937e+06	-55089.1	1005.82	-29742.3	0.000000	0.000000	7.251377	470.635	NaN	0.000000	0.001627	0.001812	28.0812	101.935	0.001763	57830.7	4.071370	-8.796887	467.14	1.231465	0.104291	0.103909	470.635	57830.7	0.098187	0.297302	1583.02	96901.9
440	2.000000	1.234280	7.36937e+06	-55089.1	1005.82	-29742.3	0.000000	0.000000	7.254694	492.136	NaN	0.000000	0.001624	0.001752	28.0815	104.823	0.001719	60963.1	5.203070	169.309	487.925	1.234049	0.106723	0.106492	492.136	60963.1	0.100669	0.310778	1583.56	99911.3
440	2.000000	1.236831	7.36937e+06	-55089.1	1005.82	-29742.3	0.000000	0.000000	7.258236	516.208	NaN	0.000000	0.001657	0.001749	28.0799	105.42	0.001696	62147.5	2.950276	-8.099595	511.515	1.236476	0.109274	0.108920	516.208	62147.5	0.103045	0.323945	1593.51	99761.2