File: remote_trans/data/nanoindenter/0828-1/data/Data_2025-08-06,11h17m57s/2025-07-22_16-23-58_1_422.txt
2025-07-22, 16:23:58, 1
Index	Phase	Displacement	Time	Pos X	Pos Y	Pos Z	Rot A	Rot B	Piezo Z	Force A	Force B	Gripper	Voltage A	Voltage B	Temperature	Amplitude force	Amplitude pos	Stiffness	Phase shift	Phase excitation	Force A raw	Displacement raw	HMax	HMax raw	Real Force	Real Stiffness	Contact Depth	Area	Hardness	Reduced Mod.
[#]	[#]	[um]	[s]	[um]	[um]	[um]	[m°]	[m°]	[um]	[uN]	[uN]	[V]	[V]	[V]	[°C]	[uN]	[um]	[N/m]	[°]	[°]	[uN]	[um]	[um]	[um]	[uN]	[N/m]	[um]	[um^2]	[MPa]	[MPa]
422	1.000000	0.001999	7.36919e+06	-55989.1	1005.82	-29740.3	0.000000	0.000000	6.002806	0.026708	NaN	0.000000	0.001646	0.001685	28.0792	0.057346	0.000928	61.7931	94.5429	-156.086	0.112661	0.000742	-1.054396	-1.055653	0.026708	61.7931	-1.054720	-1.235552E+14	-2.161648E-16	NaN
422	1.000000	0.009970	7.36919e+06	-55989.1	1005.82	-29740.3	0.000000	0.000000	6.010773	-0.055682	NaN	0.000000	0.001664	0.001680	28.0793	0.091685	0.000870	105.329	-134.378	-160.582	0.009764	0.008578	-1.046426	-1.047818	-0.055682	105.329	-1.046029	-9.441303E+13	5.897677E-16	NaN
422	1.000000	0.017965	7.36919e+06	-55989.1	1005.82	-29740.3	0.000000	0.000000	6.018770	-0.000766	NaN	0.000000	0.001673	0.001689	28.079	0.050929	0.001680	30.3167	-114.544	-170.268	-0.021040	0.016643	-1.038430	-1.039753	-0.000766	30.3167	-1.038411	-7.457709E+13	1.027420E-17	NaN
422	1.000000	0.025975	7.36919e+06	-55989.1	1005.82	-29740.3	0.000000	0.000000	6.026782	0.042172	NaN	0.000000	0.001657	0.001726	28.0792	0.043150	0.001817	23.7455	77.1066	-166.126	0.061620	0.024633	-1.030420	-1.031762	0.042172	23.7455	-1.031752	-6.068036E+13	-6.949909E-16	NaN
422	1.000000	0.033972	7.36919e+06	-55989.1	1005.82	-29740.3	0.000000	0.000000	6.034778	0.027395	NaN	0.000000	0.001648	0.001705	28.0791	0.069367	0.001904	36.4387	150.421	-165.743	0.041098	0.032671	-1.022423	-1.023725	0.027395	36.4387	-1.022987	-4.625349E+13	-5.922773E-16	NaN
422	1.000000	0.041913	7.36919e+06	-55989.1	1005.82	-29740.3	0.000000	0.000000	6.042718	0.003472	NaN	0.000000	0.001689	0.001692	28.0793	0.075822	0.001999	37.9216	52.5174	-165.156	0.020824	0.040643	-1.014483	-1.015752	0.003472	37.9216	-1.014552	-3.561537E+13	-9.749226E-17	NaN
422	1.000000	0.049959	7.36919e+06	-55989.1	1005.82	-29740.3	0.000000	0.000000	6.050766	0.040895	NaN	0.000000	0.001697	0.001683	28.079	0.035433	0.002072	17.1041	-47.5308	-165.475	-0.104337	0.048669	-1.006437	-1.007726	0.040895	17.1041	-1.008230	-2.927902E+13	-1.396751E-15	NaN
422	1.000000	0.057973	7.36919e+06	-55989.1	1005.82	-29740.3	0.000000	0.000000	6.058780	0.029611	NaN	0.000000	0.001676	0.001673	28.0792	0.023056	0.002154	10.7015	114.41	-161.595	0.002343	0.056675	-0.998422	-0.999721	0.029611	10.7015	-1.000498	-2.303918E+13	-1.285256E-15	NaN
422	1.000000	0.065941	7.36919e+06	-55989.1	1005.82	-29740.3	0.000000	0.000000	6.066744	-0.058811	NaN	0.000000	0.001653	0.001662	28.0791	0.029968	0.002008	14.927	-71.5523	-166.05	-0.037209	0.064629	-0.990455	-0.991767	-0.058811	14.927	-0.987500	-1.539703E+13	3.819618E-15	NaN
422	1.000000	0.073938	7.36919e+06	-55989.1	1005.82	-29740.3	0.000000	0.000000	6.074744	0.026610	NaN	0.000000	0.001646	0.001710	28.0795	0.013908	0.002010	6.920418	-165.397	-162.972	0.022112	0.072641	-0.982458	-0.983754	0.026610	6.920418	-0.985341	-1.440009E+13	-1.847898E-15	NaN
422	1.000000	0.081954	7.36919e+06	-55989.1	1005.82	-29740.3	0.000000	0.000000	6.082760	0.000307	NaN	0.000000	0.001659	0.001686	28.0793	0.061207	0.001972	31.0373	-158.313	-164.213	0.002932	0.080637	-0.974441	-0.975758	0.000307	31.0373	-0.974448	-1.027092E+13	-2.985053E-17	NaN
422	1.000000	0.089965	7.36919e+06	-55989.1	1005.82	-29740.3	0.000000	0.000000	6.090770	-0.006975	NaN	0.000000	0.001681	0.001670	28.0791	0.042626	0.002029	21.0091	-70.1399	-162.196	-0.025987	0.088638	-0.966430	-0.967757	-0.006975	21.0091	-0.966181	-7.946831E+12	8.776510E-16	NaN
422	1.000000	0.097956	7.36919e+06	-55989.1	1005.82	-29740.3	0.000000	0.000000	6.098763	0.032369	NaN	0.000000	0.001691	0.001700	28.0793	0.015055	0.002004	7.512020	111.946	-167.743	0.016473	0.096647	-0.958439	-0.959748	0.032369	7.512020	-0.961671	-6.908717E+12	-4.685193E-15	NaN
422	1.000000	0.105982	7.36919e+06	-55989.1	1005.82	-29740.3	0.000000	0.000000	6.106787	-0.004921	NaN	0.000000	0.001667	0.001708	28.0792	0.074261	0.001956	37.9562	58.4386	-163.728	0.029366	0.104621	-0.950414	-0.951774	-0.004921	37.9562	-0.950316	-4.856193E+12	1.013381E-15	NaN
422	1.000000	0.113943	7.36919e+06	-55989.1	1005.82	-29740.3	0.000000	0.000000	6.114748	-0.006838	NaN	0.000000	0.001684	0.001657	28.0806	0.112211	0.002056	54.5791	-23.0841	-168.597	0.008710	0.112663	-0.942452	-0.943733	-0.006838	54.5791	-0.942359	-3.792764E+12	1.802841E-15	NaN
422	1.000000	0.121940	7.36919e+06	-55989.1	1005.82	-29740.3	0.000000	0.000000	6.122745	0.006236	NaN	0.000000	0.001676	0.001701	28.0804	0.038527	0.001924	20.0232	-14.8435	-165.571	0.018165	0.120627	-0.934456	-0.935768	0.006236	20.0232	-0.934689	-2.988700E+12	-2.086483E-15	NaN
422	1.000000	0.129971	7.36919e+06	-55989.1	1005.82	-29740.3	0.000000	0.000000	6.130776	-0.006950	NaN	0.000000	0.001649	0.001685	28.0804	0.045901	0.001898	24.1787	-69.4951	-163.441	-0.011250	0.128604	-0.926424	-0.927791	-0.006950	24.1787	-0.926209	-2.296265E+12	3.026493E-15	NaN
422	1.000000	0.137987	7.36919e+06	-55989.1	1005.82	-29740.3	0.000000	0.000000	6.138792	-0.010122	NaN	0.000000	0.001649	0.001672	28.0806	0.078711	0.002024	38.8891	-19.9875	-168.341	-0.023540	0.136668	-0.918408	-0.919727	-0.010122	38.8891	-0.918213	-1.790935E+12	5.651903E-15	NaN
422	1.000000	0.145991	7.36919e+06	-55989.1	1005.82	-29740.3	0.000000	0.000000	6.146795	-0.026577	NaN	0.000000	0.001670	0.001725	28.0806	0.121643	0.001957	62.1585	154.183	-162.8	0.020594	0.144678	-0.910405	-0.911717	-0.026577	62.1585	-0.910084	-1.390905E+12	1.910781E-14	NaN
422	1.000000	0.153987	7.36919e+06	-55989.1	1005.82	-29740.3	0.000000	0.000000	6.154793	0.022992	NaN	0.000000	0.001698	0.001711	28.0804	0.005010	0.002048	2.446645	-133.517	-163.976	0.104525	0.152667	-0.902409	-0.903728	0.022992	2.446645	-0.909457	-1.364036E+12	-1.685597E-14	NaN
422	1.000000	0.162005	7.36919e+06	-55989.1	1005.82	-29740.3	0.000000	0.000000	6.162808	-0.062469	NaN	0.000000	0.001681	0.001702	28.0805	0.086423	0.002109	40.9859	-81.3277	-166.879	-0.042471	0.160701	-0.894391	-0.895694	-0.062469	40.9859	-0.893248	-8.237812E+11	7.583237E-14	NaN
422	1.000000	0.169997	7.36919e+06	-55989.1	1005.82	-29740.3	0.000000	0.000000	6.170802	-0.021227	NaN	0.000000	0.001680	0.001719	28.0805	0.078419	0.002061	38.0455	-64.9377	-167.516	-0.060087	0.168690	-0.886398	-0.887706	-0.021227	38.0455	-0.885979	-6.569944E+11	3.230937E-14	NaN
422	1.000000	0.177969	7.36919e+06	-55989.1	1005.82	-29740.3	0.000000	0.000000	6.178774	0.011028	NaN	0.000000	0.001675	0.001723	28.0807	0.039293	0.001867	21.0486	130.014	-163.543	0.028965	0.176682	-0.878427	-0.879714	0.011028	21.0486	-0.878820	-5.257119E+11	-2.097809E-14	NaN
422	1.000000	0.186019	7.36919e+06	-55989.1	1005.82	-29740.3	0.000000	0.000000	6.186824	-0.019572	NaN	0.000000	0.001672	0.001715	28.0805	0.050789	0.001972	25.7552	7.014101	-163.013	-0.016518	0.184703	-0.870376	-0.871692	-0.019572	25.7552	-0.869806	-3.970310E+11	4.929620E-14	NaN
422	1.000000	0.194003	7.36919e+06	-55989.1	1005.82	-29740.3	0.000000	0.000000	6.194807	-0.041152	NaN	0.000000	0.001676	0.001703	28.0806	0.118008	0.002018	58.4693	-2.247032	-164.868	-0.102521	0.192629	-0.862392	-0.863766	-0.041152	58.4693	-0.861865	-3.099966E+11	1.327484E-13	NaN
422	1.000000	0.201994	7.36919e+06	-55989.1	1005.82	-29740.3	0.000000	0.000000	6.202802	0.063904	NaN	0.000000	0.001666	0.001701	28.0806	0.037573	0.001979	18.9833	60.7139	-161.913	0.000267	0.200688	-0.854402	-0.855707	0.063904	18.9833	-0.856926	-2.657763E+11	-2.404422E-13	NaN
422	1.000000	0.210035	7.36919e+06	-55989.1	1005.82	-29740.3	0.000000	0.000000	6.210842	0.047261	NaN	0.000000	0.001682	0.001698	28.0809	0.086057	0.002070	41.5776	120.342	-165.236	0.109252	0.208725	-0.846361	-0.847670	0.047261	41.5776	-0.847213	-1.963364E+11	-2.407144E-13	NaN
422	1.000000	0.218019	7.36919e+06	-55989.1	1005.82	-29740.3	0.000000	0.000000	6.218823	-0.033002	NaN	0.000000	0.001650	0.001714	28.0807	0.051774	0.002143	24.1559	-162.401	-164.384	-0.004677	0.216667	-0.838376	-0.839729	-0.033002	24.1559	-0.837352	-1.443487E+11	2.286301E-13	NaN
422	1.000000	0.225950	7.36919e+06	-55989.1	1005.82	-29740.3	0.000000	0.000000	6.226757	0.038850	NaN	0.000000	0.001693	0.001704	28.0805	0.028523	0.002014	14.1653	-1.939437	-164.154	0.075585	0.224700	-0.830445	-0.831696	0.038850	14.1653	-0.832502	-1.240774E+11	-3.131092E-13	NaN
422	1.000000	0.234019	7.36919e+06	-55989.1	1005.82	-29740.3	0.000000	0.000000	6.234827	0.052624	NaN	0.000000	0.001673	0.001692	28.0808	0.018523	0.002009	9.219426	125.901	-164.96	-0.010656	0.232683	-0.822376	-0.823712	0.052624	9.219426	-0.826657	-1.033877E+11	-5.089975E-13	NaN
422	1.000000	0.242026	7.36919e+06	-55989.1	1005.82	-29740.3	0.000000	0.000000	6.242832	0.016291	NaN	0.000000	0.001655	0.001700	28.0806	0.039020	0.001977	19.7335	130.065	-167.972	0.023529	0.240690	-0.814370	-0.815705	0.016291	19.7335	-0.814989	-7.182063E+10	-2.268286E-13	NaN
422	1.000000	0.250054	7.36919e+06	-55989.1	1005.82	-29740.3	0.000000	0.000000	6.250855	-0.096193	NaN	0.000000	0.001650	0.001719	28.0795	0.102067	0.001893	53.9309	60.3598	-168.261	-0.015912	0.248721	-0.806341	-0.807674	-0.096193	53.9309	-0.805004	-5.257457E+10	1.829641E-12	NaN
422	1.000000	0.258030	7.36919e+06	-55989.1	1005.82	-29740.3	0.000000	0.000000	6.258834	-0.032173	NaN	0.000000	0.001631	0.001675	28.0795	0.048996	0.001874	26.1521	-148.467	-166.188	-0.074289	0.256680	-0.798366	-0.799716	-0.032173	26.1521	-0.797443	-4.150978E+10	7.750584E-13	NaN
422	1.000000	0.266057	7.36919e+06	-55989.1	1005.82	-29740.3	0.000000	0.000000	6.266862	-0.003622	NaN	0.000000	0.001675	0.001725	28.0796	0.018593	0.002053	9.057189	24.849	-161.705	0.057182	0.264674	-0.790338	-0.791721	-0.003622	9.057189	-0.790039	-3.293113E+10	1.099909E-13	NaN
422	1.000000	0.274052	7.36919e+06	-55989.1	1005.82	-29740.3	0.000000	0.000000	6.274860	0.065053	NaN	0.000000	0.001633	0.001698	28.0795	0.056963	0.001967	28.9646	163.579	-159.632	0.075837	0.272730	-0.782344	-0.783665	0.065053	28.9646	-0.784028	-2.728754E+10	-2.383971E-12	NaN
422	1.000000	0.282032	7.36919e+06	-55989.1	1005.82	-29740.3	0.000000	0.000000	6.282837	-0.014012	NaN	0.000000	0.001680	0.001684	28.0794	0.041103	0.002075	19.8095	135.612	-167.381	0.004766	0.280791	-0.774363	-0.775604	-0.014012	19.8095	-0.773833	-1.983414E+10	7.064389E-13	NaN
422	1.000000	0.290047	7.36919e+06	-55989.1	1005.82	-29740.3	0.000000	0.000000	6.290852	-0.022654	NaN	0.000000	0.001702	0.001749	28.0798	0.066455	0.001954	34.0065	107.478	-165.524	-0.079232	0.288760	-0.766348	-0.767635	-0.022654	34.0065	-0.765848	-1.544722E+10	1.466534E-12	NaN
422	1.000000	0.298038	7.36919e+06	-55989.1	1005.82	-29740.3	0.000000	0.000000	6.298844	0.002361	NaN	0.000000	0.001677	0.001765	28.0792	0.100225	0.001941	51.6283	-21.5717	-164.029	0.042051	0.296760	-0.758357	-0.759635	0.002361	51.6283	-0.758391	-1.222969E+10	-1.930461E-13	NaN
422	1.000000	0.306039	7.36919e+06	-55989.1	1005.82	-29740.3	0.000000	0.000000	6.306848	0.068476	NaN	0.000000	0.001630	0.001754	28.0796	0.079041	0.002028	38.9716	25.1798	-164.263	0.064993	0.304779	-0.750356	-0.751617	0.068476	38.9716	-0.751674	-9.908376E+9	-6.910951E-12	NaN
422	1.000000	0.314075	7.36919e+06	-55989.1	1005.82	-29740.3	0.000000	0.000000	6.314880	-0.010661	NaN	0.000000	0.001650	0.001734	28.0793	0.076770	0.002053	37.397	131.513	-163.748	0.029511	0.312809	-0.742320	-0.743586	-0.010661	37.397	-0.742106	-7.340797E+9	1.452331E-12	NaN
422	1.000000	0.322081	7.36919e+06	-55989.1	1005.82	-29740.3	0.000000	0.000000	6.322886	-0.006916	NaN	0.000000	0.001690	0.001790	28.0796	0.127318	0.002065	61.6545	93.815	-165.088	-0.059503	0.320712	-0.734315	-0.735683	-0.006916	61.6545	-0.734231	-5.734024E+9	1.206212E-12	NaN
422	1.000000	0.330042	7.36919e+06	-55989.1	1005.82	-29740.3	0.000000	0.000000	6.330848	0.008097	NaN	0.000000	0.001672	0.001793	28.0795	0.084537	0.001971	42.8958	-134.302	-167.208	-0.059953	0.328714	-0.726353	-0.727682	0.008097	42.8958	-0.726495	-4.498129E+9	-1.800049E-12	NaN
422	1.000000	0.338055	7.36919e+06	-55989.1	1005.82	-29740.3	0.000000	0.000000	6.338860	-0.020779	NaN	0.000000	0.001649	0.001742	28.0792	0.079069	0.002020	39.1406	-130.922	-162.845	0.021941	0.336740	-0.718340	-0.719655	-0.020779	39.1406	-0.717942	-3.438798E+9	6.042464E-12	NaN
422	1.000000	0.346069	7.36919e+06	-55989.1	1005.82	-29740.3	0.000000	0.000000	6.346876	0.038878	NaN	0.000000	0.001649	0.001748	28.0794	0.095621	0.001951	49.0205	-115.101	-163.087	0.008282	0.344808	-0.710326	-0.711587	0.038878	49.0205	-0.710921	-2.758169E+9	-1.409562E-11	NaN
422	1.000000	0.354085	7.36919e+06	-55989.1	1005.82	-29740.3	0.000000	0.000000	6.354891	0.009803	NaN	0.000000	0.001659	0.001754	28.0793	0.077508	0.001987	39.0056	87.9637	-166.249	0.057251	0.352746	-0.702310	-0.703649	0.009803	39.0056	-0.702498	-2.116641E+9	-4.631302E-12	NaN
422	1.000000	0.362057	7.36919e+06	-55989.1	1005.82	-29740.3	0.000000	0.000000	6.362861	-0.022085	NaN	0.000000	0.001660	0.001751	28.0796	0.049061	0.001974	24.8478	79.9049	-167.881	0.092659	0.360727	-0.694339	-0.695669	-0.022085	24.8478	-0.693672	-1.603592E+9	1.377194E-11	NaN
422	1.000000	0.370067	7.36919e+06	-55989.1	1005.82	-29740.3	0.000000	0.000000	6.370873	0.017866	NaN	0.000000	0.001682	0.001735	28.0792	0.062377	0.001990	31.3413	-160.251	-167.018	0.013536	0.368789	-0.686328	-0.687607	0.017866	31.3413	-0.686756	-1.289952E+9	-1.385046E-11	NaN
422	1.000000	0.378088	7.36919e+06	-55989.1	1005.82	-29740.3	0.000000	0.000000	6.378895	0.040657	NaN	0.000000	0.001610	0.001763	28.0793	0.027641	0.001959	14.1108	-31.0738	-166.104	0.050088	0.376797	-0.678308	-0.679598	0.040657	14.1108	-0.680469	-1.058317E+9	-3.841663E-11	NaN
422	1.000000	0.386097	7.36919e+06	-55989.1	1005.82	-29740.3	0.000000	0.000000	6.386901	-0.018683	NaN	0.000000	0.001692	0.001777	28.0806	0.125451	0.002047	61.2817	-152.063	-166.626	0.052099	0.384772	-0.670299	-0.671623	-0.018683	61.2817	-0.670070	-7.626922E+8	2.449564E-11	NaN
422	1.000000	0.394100	7.36919e+06	-55989.1	1005.82	-29740.3	0.000000	0.000000	6.394903	-0.042449	NaN	0.000000	0.001667	0.001733	28.0805	0.063142	0.001954	32.3108	-51.4984	-164.738	-0.017035	0.392778	-0.662296	-0.663618	-0.042449	32.3108	-0.661310	-5.786503E+8	7.335814E-11	NaN
422	1.000000	0.402081	7.36919e+06	-55989.1	1005.82	-29740.3	0.000000	0.000000	6.402888	0.031016	NaN	0.000000	0.001640	0.001737	28.0807	0.049207	0.002082	23.629	-18.8737	-163.977	0.016099	0.400769	-0.654314	-0.655627	0.031016	23.629	-0.655299	-4.786955E+8	-6.479370E-11	NaN
422	1.000000	0.410087	7.36919e+06	-55989.1	1005.82	-29740.3	0.000000	0.000000	6.410894	0.035946	NaN	0.000000	0.001611	0.001732	28.0806	0.081855	0.002160	37.8994	150.905	-164.804	0.049934	0.408842	-0.646308	-0.647553	0.035946	37.8994	-0.647020	-3.686151E+8	-9.751668E-11	NaN
422	1.000000	0.418084	7.36919e+06	-55989.1	1005.82	-29740.3	0.000000	0.000000	6.418890	0.022064	NaN	0.000000	0.001644	0.001781	28.0804	0.105905	0.001915	55.3093	-49.7794	-166.396	-0.019689	0.416854	-0.638312	-0.639541	0.022064	55.3093	-0.638611	-2.826359E+8	-7.806355E-11	NaN
422	1.000000	0.426109	7.36919e+06	-55989.1	1005.82	-29740.3	0.000000	0.000000	6.426918	0.078103	NaN	0.000000	0.001657	0.001777	28.0804	0.115950	0.002011	57.6654	-147.064	-163.122	-0.000684	0.424815	-0.630286	-0.631581	0.078103	57.6654	-0.631302	-2.243394E+8	-3.481481E-10	NaN
422	1.000000	0.434123	7.36919e+06	-55989.1	1005.82	-29740.3	0.000000	0.000000	6.434928	-0.013185	NaN	0.000000	0.001632	0.001769	28.0806	0.099844	0.002120	47.0907	149.032	-164.262	0.053016	0.432826	-0.622272	-0.623569	-0.013185	47.0907	-0.622062	-1.674843E+8	7.872086E-11	NaN
422	1.000000	0.442098	7.36919e+06	-55989.1	1005.82	-29740.3	0.000000	0.000000	6.442903	0.001209	NaN	0.000000	0.001624	0.001777	28.0808	0.064151	0.002035	31.5243	-151.059	-161.491	0.013016	0.440870	-0.614298	-0.615526	0.001209	31.5243	-0.614327	-1.311078E+8	-9.218585E-12	NaN
422	1.000000	0.450130	7.36919e+06	-55989.1	1005.82	-29740.3	0.000000	0.000000	6.450935	-0.005667	NaN	0.000000	0.001645	0.001803	28.0806	0.098457	0.002068	47.6001	-49.1621	-165.324	0.033311	0.448834	-0.606265	-0.607562	-0.005667	47.6001	-0.606176	-1.012718E+8	5.595952E-11	NaN
422	1.000000	0.458119	7.36919e+06	-55989.1	1005.82	-29740.3	0.000000	0.000000	6.458925	0.004985	NaN	0.000000	0.001635	0.001755	28.0809	0.080872	0.002026	39.9187	100.157	-164.263	0.000115	0.456848	-0.598276	-0.599548	0.004985	39.9187	-0.598370	-7.906910E+7	-6.304239E-11	NaN
422	1.000000	0.466123	7.36919e+06	-55989.1	1005.82	-29740.3	0.000000	0.000000	6.466927	-0.052649	NaN	0.000000	0.001609	0.001765	28.0808	0.017296	0.001864	9.278331	-43.6521	-162.308	-0.096752	0.464805	-0.590272	-0.591591	-0.052649	9.278331	-0.586016	-5.342343E+7	9.854949E-10	NaN
422	1.000000	0.474116	7.36919e+06	-55989.1	1005.82	-29740.3	0.000000	0.000000	6.474922	0.012363	NaN	0.000000	0.001625	0.001783	28.0805	0.074935	0.001977	37.9124	171.843	-164.084	0.019251	0.472785	-0.582279	-0.583610	0.012363	37.9124	-0.582523	-4.781333E+7	-2.585721E-10	NaN
422	1.000000	0.482143	7.36919e+06	-55989.1	1005.82	-29740.3	0.000000	0.000000	6.482950	0.045458	NaN	0.000000	0.001666	0.001770	28.0805	0.032514	0.002097	15.5071	-57.369	-163.645	-0.063392	0.480802	-0.574252	-0.575593	0.045458	15.5071	-0.576451	-3.942161E+7	-1.153132E-9	NaN
422	1.000000	0.490168	7.36919e+06	-55989.1	1005.82	-29740.3	0.000000	0.000000	6.490975	0.047101	NaN	0.000000	0.001643	0.001775	28.0806	0.092480	0.001970	46.9454	82.5197	-162.706	0.000804	0.488844	-0.566227	-0.567551	0.047101	46.9454	-0.566980	-2.916706E+7	-1.614875E-9	NaN
422	1.000000	0.498143	7.36919e+06	-55989.1	1005.82	-29740.3	0.000000	0.000000	6.498948	-0.015265	NaN	0.000000	0.001652	0.001767	28.0808	0.016643	0.001943	8.565346	136.845	-167.064	-0.097211	0.496814	-0.558252	-0.559582	-0.015265	8.565346	-0.556916	-2.116900E+7	7.210971E-10	NaN
422	1.000000	0.506109	7.36919e+06	-55989.1	1005.82	-29740.3	0.000000	0.000000	6.506915	0.034475	NaN	0.000000	0.001652	0.001792	28.0807	0.068780	0.001953	35.2183	85.0262	-165.061	-0.049404	0.504861	-0.550287	-0.551534	0.034475	35.2183	-0.551021	-1.754274E+7	-1.965215E-9	NaN
422	1.000000	0.514126	7.36919e+06	-55989.1	1005.82	-29740.3	0.000000	0.000000	6.514935	0.089454	NaN	0.000000	0.001637	0.001765	28.0807	0.047372	0.001945	24.3547	-80.3857	-159.372	0.012383	0.512793	-0.542269	-0.543602	0.089454	24.3547	-0.545024	-1.448816E+7	-6.174308E-9	NaN
422	1.000000	0.522139	7.36919e+06	-55989.1	1005.82	-29740.3	0.000000	0.000000	6.522944	0.006647	NaN	0.000000	0.001656	0.001808	28.0794	0.027505	0.002180	12.6139	-142.269	-166.338	0.011590	0.520842	-0.534257	-0.535553	0.006647	12.6139	-0.534652	-1.040300E+7	-6.389744E-10	NaN
422	1.000000	0.530151	7.36919e+06	-55989.1	1005.82	-29740.3	0.000000	0.000000	6.530955	-0.029460	NaN	0.000000	0.001607	0.001783	28.0792	0.039303	0.001977	19.8791	30.1072	-167.162	-0.051794	0.528873	-0.526244	-0.527522	-0.029460	19.8791	-0.525133	-7.6728e+06	3.839581E-9	NaN
422	1.000000	0.538157	7.36919e+06	-55989.1	1005.82	-29740.3	0.000000	0.000000	6.538962	0.009589	NaN	0.000000	0.001598	0.001805	28.0795	0.021176	0.001959	10.8075	11.2699	-165.121	0.040504	0.536860	-0.518239	-0.519536	0.009589	10.8075	-0.518904	-6.28573e+06	-1.525534E-9	NaN
422	1.000000	0.546137	7.36919e+06	-55989.1	1005.82	-29740.3	0.000000	0.000000	6.546942	-0.004461	NaN	0.000000	0.001624	0.001813	28.0792	0.027148	0.002060	13.1772	-35.4401	-167.114	0.054366	0.544866	-0.510258	-0.511529	-0.004461	13.1772	-0.510005	-4.72583e+06	9.439858E-10	NaN
422	1.000000	0.554172	7.36919e+06	-55989.1	1005.82	-29740.3	0.000000	0.000000	6.554976	-0.021291	NaN	0.000000	0.001646	0.001784	28.0797	0.073646	0.002088	35.2698	128.09	-162.587	0.012594	0.552830	-0.502224	-0.503566	-0.021291	35.2698	-0.501771	-3.62845e+06	5.867745E-9	NaN
422	1.000000	0.562154	7.36919e+06	-55989.1	1005.82	-29740.3	0.000000	0.000000	6.562961	0.043242	NaN	0.000000	0.001637	0.001817	28.0792	0.104860	0.001965	53.3748	-162.94	-162.681	0.059723	0.560810	-0.494242	-0.495585	0.043242	53.3748	-0.494849	-2.9049e+06	-1.488591E-8	NaN
422	1.000000	0.570182	7.36919e+06	-55989.1	1005.82	-29740.3	0.000000	0.000000	6.570988	0.000191	NaN	0.000000	0.001632	0.001779	28.0793	0.072950	0.001973	36.9681	159.273	-163.765	0.076597	0.568866	-0.486213	-0.487530	0.000191	36.9681	-0.486217	-2.20044e+06	-8.689484E-11	NaN
422	1.000000	0.578180	7.36919e+06	-55989.1	1005.82	-29740.3	0.000000	0.000000	6.578987	0.040516	NaN	0.000000	0.001634	0.001804	28.0792	0.085764	0.002070	41.4291	0.699904	-165.929	0.002007	0.576845	-0.478215	-0.479551	0.040516	41.4291	-0.478949	-1.74104e+06	-2.327142E-8	NaN
422	1.000000	0.586149	7.36919e+06	-55989.1	1005.82	-29740.3	0.000000	0.000000	6.586955	0.013926	NaN	0.000000	0.001613	0.001783	28.0792	0.077440	0.001991	38.9022	133.564	-164.075	0.021319	0.584862	-0.470246	-0.471533	0.013926	38.9022	-0.470514	-1.32624e+06	-1.050039E-8	NaN
422	1.000000	0.594167	7.36919e+06	-55989.1	1005.82	-29740.3	0.000000	0.000000	6.594975	0.068267	NaN	0.000000	0.001637	0.001777	28.0796	0.071580	0.001973	36.2857	-31.5993	-163.256	0.145356	0.592813	-0.462229	-0.463583	0.068267	36.2857	-0.463640	-1.06206e+06	-6.427770E-8	NaN
422	1.000000	0.602169	7.36919e+06	-55989.1	1005.82	-29740.3	0.000000	0.000000	6.602973	-0.031035	NaN	0.000000	0.001626	0.001809	28.0794	0.080991	0.001937	41.8206	-78.8914	-163.332	0.002114	0.600865	-0.454227	-0.455530	-0.031035	41.8206	-0.453670	-769144	4.035003E-8	NaN
422	1.000000	0.610157	7.36919e+06	-55989.1	1005.82	-29740.3	0.000000	0.000000	6.610963	0.002337	NaN	0.000000	0.001618	0.001811	28.0797	0.043044	0.001881	22.8795	-3.469742	-166.604	0.006961	0.608885	-0.446238	-0.447510	0.002337	22.8795	-0.446315	-605937	-3.856749E-9	NaN
422	1.000000	0.618174	7.36919e+06	-55989.1	1005.82	-29740.3	0.000000	0.000000	6.618980	0.022017	NaN	0.000000	0.001672	0.001827	28.0791	0.051081	0.001960	26.0617	57.3494	-165.983	-0.007416	0.616905	-0.438222	-0.439490	0.022017	26.0617	-0.438855	-475563	-4.629750E-8	NaN
422	1.000000	0.626203	7.36919e+06	-55989.1	1005.82	-29740.3	0.000000	0.000000	6.627007	-0.018179	NaN	0.000000	0.001657	0.001796	28.0795	0.003746	0.002124	1.763402	-24.0471	-162.315	-0.019050	0.624865	-0.430193	-0.431531	-0.018179	1.763402	-0.422461	-278810	6.520091E-8	NaN
422	1.000000	0.634203	7.36919e+06	-55989.1	1005.82	-29740.3	0.000000	0.000000	6.635009	0.010198	NaN	0.000000	0.001685	0.001773	28.0793	0.112352	0.001975	56.8745	49.7468	-166.092	-0.029932	0.632895	-0.422192	-0.423500	0.010198	56.8745	-0.422326	-277588	-3.673849E-8	NaN
422	1.000000	0.642206	7.36919e+06	-55989.1	1005.82	-29740.3	0.000000	0.000000	6.643011	-0.011871	NaN	0.000000	0.001686	0.001789	28.0792	0.111711	0.001947	57.3861	15.6894	-166.389	0.081574	0.640899	-0.414189	-0.415496	-0.011871	57.3861	-0.414034	-211706	5.607147E-8	NaN
422	1.000000	0.650201	7.36919e+06	-55989.1	1005.82	-29740.3	0.000000	0.000000	6.651009	0.049102	NaN	0.000000	0.001676	0.001753	28.0795	0.062360	0.002018	30.9061	-78.0968	-166.035	0.095763	0.648932	-0.406194	-0.407463	0.049102	30.9061	-0.407386	-170297	-2.883298E-7	NaN
422	1.000000	0.658227	7.36919e+06	-55989.1	1005.82	-29740.3	0.000000	0.000000	6.659034	0.046530	NaN	0.000000	0.001648	0.001738	28.0805	0.147571	0.001937	76.1696	165.099	-162.491	0.038999	0.656874	-0.398168	-0.399522	0.046530	76.1696	-0.398626	-127762	-3.641956E-7	NaN
422	1.000000	0.666202	7.36919e+06	-55989.1	1005.82	-29740.3	0.000000	0.000000	6.667009	0.057729	NaN	0.000000	0.001677	0.001720	28.0805	0.043866	0.002094	20.9531	-117.069	-164.812	0.004535	0.664960	-0.390194	-0.391436	0.057729	20.9531	-0.392260	-103630	-5.570662E-7	NaN
422	1.000000	0.674193	7.36919e+06	-55989.1	1005.82	-29740.3	0.000000	0.000000	6.674999	0.005796	NaN	0.000000	0.001645	0.001746	28.0805	0.132999	0.001976	67.3146	-50.7996	-163.912	-0.065396	0.672938	-0.382202	-0.383457	0.005796	67.3146	-0.382267	-74543.1	-7.775355E-8	NaN
422	1.000000	0.682236	7.36919e+06	-55989.1	1005.82	-29740.3	0.000000	0.000000	6.683043	0.040669	NaN	0.000000	0.001691	0.001749	28.0806	0.056671	0.002110	26.8594	-159.152	-163.348	-0.027995	0.680945	-0.374159	-0.375450	0.040669	26.8594	-0.375295	-59197.9	-6.870002E-7	NaN
422	1.000000	0.690210	7.36919e+06	-55989.1	1005.82	-29740.3	0.000000	0.000000	6.691014	-0.024213	NaN	0.000000	0.001683	0.001769	28.0806	0.041783	0.002065	20.234	52.4678	-163.183	-0.074124	0.688923	-0.366186	-0.367473	-0.024213	20.234	-0.365288	-42482.9	5.699524E-7	NaN
422	1.000000	0.698230	7.36919e+06	-55989.1	1005.82	-29740.3	0.000000	0.000000	6.699037	0.036612	NaN	0.000000	0.001706	0.001777	28.0806	0.100927	0.002027	49.7827	-157.519	-165.823	0.114549	0.696858	-0.358166	-0.359537	0.036612	49.7827	-0.358717	-34142.5	-1.072321E-6	NaN
422	1.000000	0.706254	7.36919e+06	-55989.1	1005.82	-29740.3	0.000000	0.000000	6.707059	0.003962	NaN	0.000000	0.001728	0.001756	28.0806	0.083470	0.001980	42.1563	4.268490	-167.376	0.036789	0.704923	-0.350141	-0.351472	0.003962	42.1563	-0.350212	-25708.6	-1.541036E-7	NaN
422	1.000000	0.714184	7.36919e+06	-55989.1	1005.82	-29740.3	0.000000	0.000000	6.714988	-0.040602	NaN	0.000000	0.001708	0.001739	28.0804	0.113184	0.001996	56.7022	-26.9856	-163.002	-0.056637	0.712942	-0.342212	-0.343453	-0.040602	56.7022	-0.341675	-19317.6	2.101799E-6	NaN
422	1.000000	0.722246	7.36919e+06	-55989.1	1005.82	-29740.3	0.000000	0.000000	6.723051	-0.001333	NaN	0.000000	0.001690	0.001778	28.0804	0.038528	0.002057	18.7271	114.795	-166.452	0.054906	0.720908	-0.334150	-0.335488	-0.001333	18.7271	-0.334096	-14975.5	8.901523E-8	NaN
422	1.000000	0.730222	7.36919e+06	-55989.1	1005.82	-29740.3	0.000000	0.000000	6.731029	0.028446	NaN	0.000000	0.001675	0.001784	28.0805	0.176319	0.002043	86.3149	74.3799	-164.452	0.015792	0.728944	-0.326173	-0.327452	0.028446	86.3149	-0.326421	-11560.7	-2.460577E-6	NaN
422	1.000000	0.738232	7.36919e+06	-55989.1	1005.82	-29740.3	0.000000	0.000000	6.739038	-0.003635	NaN	0.000000	0.001641	0.001716	28.0804	0.090505	0.002003	45.1953	-16.5712	-164.487	-0.004548	0.736906	-0.318163	-0.319489	-0.003635	45.1953	-0.318103	-8723.62	4.166638E-7	NaN
422	1.000000	0.746241	7.36919e+06	-55989.1	1005.82	-29740.3	0.000000	0.000000	6.747048	0.017873	NaN	0.000000	0.001641	0.001772	28.0807	0.103797	0.001910	54.3326	-87.7858	-165.79	-0.021298	0.744911	-0.310154	-0.311484	0.017873	54.3326	-0.310401	-6714.04	-2.661965E-6	NaN
422	1.000000	0.754236	7.36919e+06	-55989.1	1005.82	-29740.3	0.000000	0.000000	6.755045	0.083876	NaN	0.000000	0.001636	0.001795	28.0805	0.081743	0.002039	40.0943	178.721	-166.476	0.130175	0.752942	-0.302159	-0.303453	0.083876	40.0943	-0.303728	-5346.58	-1.568773E-5	NaN
422	1.000000	0.762251	7.36919e+06	-55989.1	1005.82	-29740.3	0.000000	0.000000	6.763053	-0.082996	NaN	0.000000	0.001615	0.001791	28.0807	0.035359	0.002048	17.2683	-43.3828	-160.838	-0.069920	0.760945	-0.294144	-0.295450	-0.082996	17.2683	-0.290540	-3399.29	2.441557E-5	NaN
422	1.000000	0.770231	7.36919e+06	-55989.1	1005.82	-29740.3	0.000000	0.000000	6.771037	0.027326	NaN	0.000000	0.001636	0.001764	28.0804	0.161865	0.002040	79.3339	-153.681	-163.716	-0.036706	0.768925	-0.286165	-0.287470	0.027326	79.3339	-0.286423	-2948.83	-9.266863E-6	NaN
422	1.000000	0.778242	7.36919e+06	-55989.1	1005.82	-29740.3	0.000000	0.000000	6.779048	0.037186	NaN	0.000000	0.001632	0.001729	28.0805	0.049797	0.001938	25.692	-38.6068	-167.142	-0.015405	0.777005	-0.278154	-0.279391	0.037186	25.692	-0.279239	-2298.75	-1.617662E-5	NaN
422	1.000000	0.786269	7.36919e+06	-55989.1	1005.82	-29740.3	0.000000	0.000000	6.787075	0.028744	NaN	0.000000	0.001623	0.001755	28.0806	0.036792	0.002031	18.1171	-104.814	-165.613	0.094170	0.784931	-0.270127	-0.271464	0.028744	18.1171	-0.271317	-1744	-1.648194E-5	NaN
422	1.000000	0.794228	7.36919e+06	-55989.1	1005.82	-29740.3	0.000000	0.000000	6.795036	0.068023	NaN	0.000000	0.001728	0.001767	28.0794	0.076629	0.001964	39.0112	18.6196	-163.863	0.086764	0.792900	-0.262168	-0.263495	0.068023	39.0112	-0.263476	-1324.67	-5.135077E-5	NaN
422	1.000000	0.802260	7.36919e+06	-55989.1	1005.82	-29740.3	0.000000	0.000000	6.803066	0.017095	NaN	0.000000	0.001709	0.001756	28.0795	0.029921	0.002069	14.4641	0.581670	-164.284	0.023899	0.800962	-0.254136	-0.255433	0.017095	14.4641	-0.255022	-982.783	-1.739498E-5	NaN
422	1.000000	0.810250	7.36919e+06	-55989.1	1005.82	-29740.3	0.000000	0.000000	6.811054	-0.026902	NaN	0.000000	0.001703	0.001754	28.0795	0.125235	0.002129	58.8251	15.8622	-162.17	-0.054548	0.808971	-0.246145	-0.247424	-0.026902	58.8251	-0.245802	-707.806	3.800694E-5	NaN
422	1.000000	0.818276	7.36919e+06	-55989.1	1005.82	-29740.3	0.000000	0.000000	6.819080	-0.032283	NaN	0.000000	0.001701	0.001806	28.0795	0.091897	0.001991	46.1649	81.0524	-163.572	-0.026725	0.816983	-0.238120	-0.239413	-0.032283	46.1649	-0.237595	-527.163	6.123943E-5	NaN
422	1.000000	0.826255	7.36919e+06	-55989.1	1005.82	-29740.3	0.000000	0.000000	6.827060	-0.016893	NaN	0.000000	0.001702	0.001778	28.0798	0.041631	0.002050	20.3093	7.091032	-162.51	0.064031	0.824940	-0.230140	-0.231456	-0.016893	20.3093	-0.229516	-393.44	4.293765E-5	NaN
422	1.000000	0.834241	7.36919e+06	-55989.1	1005.82	-29740.3	0.000000	0.000000	6.835048	0.044653	NaN	0.000000	0.001706	0.001745	28.0794	0.038563	0.001896	20.3437	59.0355	-164.006	0.087077	0.832951	-0.222154	-0.223444	0.044653	20.3437	-0.223801	-319.353	-0.000140	NaN
422	1.000000	0.842300	7.36919e+06	-55989.1	1005.82	-29740.3	0.000000	0.000000	6.843107	0.039161	NaN	0.000000	0.001732	0.001791	28.0793	0.045093	0.002035	22.1581	60.5997	-163.963	0.026031	0.840983	-0.214096	-0.215413	0.039161	22.1581	-0.215421	-234.578	-0.000167	NaN
422	1.000000	0.850305	7.36919e+06	-55989.1	1005.82	-29740.3	0.000000	0.000000	6.851110	-0.001908	NaN	0.000000	0.001770	0.001788	28.0794	0.150526	0.002070	72.7076	-158.691	-163.409	-0.081030	0.849034	-0.206090	-0.207362	-0.001908	72.7076	-0.206071	-165.581	1.152040E-5	NaN
422	1.000000	0.858276	7.36919e+06	-55989.1	1005.82	-29740.3	0.000000	0.000000	6.859082	0.035806	NaN	0.000000	0.001751	0.001774	28.0796	0.063027	0.001904	33.097	-170.294	-163.028	0.011122	0.856965	-0.198120	-0.199431	0.035806	33.097	-0.198931	-126.508	-0.000283	NaN
422	1.000000	0.866288	7.36919e+06	-55989.1	1005.82	-29740.3	0.000000	0.000000	6.867091	-0.052451	NaN	0.000000	0.001697	0.001778	28.0793	0.107735	0.002105	51.1849	-7.144744	-166.078	0.008607	0.865042	-0.190108	-0.191353	-0.052451	51.1849	-0.189339	-87.6962	0.000598	NaN
422	1.000000	0.874306	7.36919e+06	-55989.1	1005.82	-29740.3	0.000000	0.000000	6.875115	0.088618	NaN	0.000000	0.001684	0.001759	28.0794	0.032868	0.002047	16.0555	109.864	-166.95	0.091422	0.872937	-0.182090	-0.183459	0.088618	16.0555	-0.186229	-77.7725	-0.001139	NaN
422	1.000000	0.882305	7.36919e+06	-55989.1	1005.82	-29740.3	0.000000	0.000000	6.883110	-0.008191	NaN	0.000000	0.001659	0.001730	28.0794	0.093213	0.001936	48.1591	54.8784	-168.966	0.009438	0.881003	-0.174090	-0.175393	-0.008191	48.1591	-0.173962	-48.0985	0.000170	NaN
422	1.000000	0.890289	7.36919e+06	-55989.1	1005.82	-29740.3	0.000000	0.000000	6.891096	0.053255	NaN	0.000000	0.001677	0.001748	28.0794	0.093974	0.002036	46.1494	-6.038690	-164.723	0.010436	0.889008	-0.166107	-0.167387	0.053255	46.1494	-0.166972	-36.3799	-0.001464	NaN
422	1.000000	0.898300	7.36919e+06	-55989.1	1005.82	-29740.3	0.000000	0.000000	6.899102	-0.078341	NaN	0.000000	0.001642	0.001760	28.0796	0.042744	0.002182	19.5893	83.194	-163.721	-0.093746	0.896986	-0.158096	-0.159409	-0.078341	19.5893	-0.155096	-22.4033	0.003497	NaN
422	1.000000	0.906289	7.36919e+06	-55989.1	1005.82	-29740.3	0.000000	0.000000	6.907098	0.085516	NaN	0.000000	0.001679	0.001759	28.0794	0.090386	0.001959	46.1284	-83.1819	-168.35	0.049538	0.905011	-0.150106	-0.151385	0.085516	46.1284	-0.151497	-19.286	-0.004434	NaN
422	1.000000	0.914309	7.36919e+06	-55989.1	1005.82	-29740.3	0.000000	0.000000	6.915116	0.034185	NaN	0.000000	0.001707	0.001780	28.0794	0.065205	0.001843	35.3826	143.94	-161.45	0.086358	0.912973	-0.142086	-0.143422	0.034185	35.3826	-0.142811	-13.3515	-0.002560	NaN
422	1.000000	0.922310	7.36919e+06	-55989.1	1005.82	-29740.3	0.000000	0.000000	6.923118	0.051032	NaN	0.000000	0.001714	0.001797	28.0796	0.072978	0.001939	37.6302	115.321	-166.153	0.003401	0.921023	-0.134085	-0.135372	0.051032	37.6302	-0.135102	-9.555287	-0.005341	NaN
422	1.000000	0.930324	7.36919e+06	-55989.1	1005.82	-29740.3	0.000000	0.000000	6.931131	0.041621	NaN	0.000000	0.001643	0.001820	28.0805	0.042088	0.002004	21.001	179.15	-162.714	0.070237	0.929015	-0.126071	-0.127380	0.041621	21.001	-0.127557	-6.828963	-0.006095	NaN
422	1.000000	0.938316	7.36919e+06	-55989.1	1005.82	-29740.3	0.000000	0.000000	6.939122	0.013137	NaN	0.000000	0.001609	0.001782	28.0807	0.060384	0.001926	31.3498	150.232	-161.435	0.097927	0.937004	-0.118080	-0.119391	0.013137	31.3498	-0.118394	-4.482940	-0.002930	NaN
422	1.000000	0.946341	7.36919e+06	-55989.1	1005.82	-29740.3	0.000000	0.000000	6.947148	0.030716	NaN	0.000000	0.001611	0.001743	28.0806	0.115596	0.001958	59.0316	145.088	-164.728	-0.034364	0.945016	-0.110054	-0.111379	0.030716	59.0316	-0.110445	-3.070724	-0.010003	NaN
422	1.000000	0.954313	7.36919e+06	-55989.1	1005.82	-29740.3	0.000000	0.000000	6.955119	-0.003689	NaN	0.000000	0.001591	0.001782	28.0808	0.083230	0.002145	38.8074	140.309	-167.389	0.016655	0.953001	-0.102082	-0.103394	-0.003689	38.8074	-0.102011	-2.023511	0.001823	NaN
422	1.000000	0.962359	7.36919e+06	-55989.1	1005.82	-29740.3	0.000000	0.000000	6.963166	0.038973	NaN	0.000000	0.001597	0.001758	28.0808	0.058849	0.001925	30.5778	-93.4468	-165.581	0.033042	0.960973	-0.094036	-0.095422	0.038973	30.5778	-0.094992	-1.410033	-0.027640	NaN
422	1.000000	0.970340	7.36919e+06	-55989.1	1005.82	-29740.3	0.000000	0.000000	6.971146	0.020857	NaN	0.000000	0.001607	0.001729	28.0807	0.067381	0.001950	34.5511	7.698993	-165.163	-0.008946	0.969028	-0.086055	-0.087367	0.020857	34.5511	-0.086508	-0.893305	-0.023348	NaN
422	1.000000	0.978358	7.36919e+06	-55989.1	1005.82	-29740.3	0.000000	0.000000	6.979163	-0.008568	NaN	0.000000	0.001582	0.001761	28.0806	0.069451	0.001876	37.0231	-141.161	-168.315	-0.011921	0.977008	-0.078038	-0.079387	-0.008568	37.0231	-0.077864	-0.546885	0.015667	NaN
422	1.000000	0.986360	7.36919e+06	-55989.1	1005.82	-29740.3	0.000000	0.000000	6.987165	-0.008123	NaN	0.000000	0.001597	0.001724	28.0805	0.081607	0.001899	42.9749	102.407	-162.273	-0.037541	0.985060	-0.070036	-0.071336	-0.008123	42.9749	-0.069894	-0.338881	0.023971	NaN
422	1.000000	0.994352	7.36919e+06	-55989.1	1005.82	-29740.3	0.000000	0.000000	6.995157	-0.010392	NaN	0.000000	0.001579	0.001760	28.0808	0.116127	0.001992	58.2856	-113.643	-166.286	0.032410	0.993060	-0.062044	-0.063336	-0.010392	58.2856	-0.061910	-0.204149	0.050904	NaN
422	1.000000	1.002324	7.36919e+06	-55989.1	1005.82	-29740.3	0.000000	0.000000	7.003129	0.006052	NaN	0.000000	0.001603	0.001774	28.0807	0.005474	0.002062	2.655200	-140.838	-166.712	0.037856	1.001057	-0.054072	-0.055339	0.006052	2.655200	-0.055781	-0.135792	-0.044565	NaN
422	1.000000	1.010360	7.36919e+06	-55989.1	1005.82	-29740.3	0.000000	0.000000	7.011166	0.022951	NaN	0.000000	0.001630	0.001751	28.0808	0.090686	0.001930	46.9826	110.998	-161.949	-0.059283	1.008977	-0.046036	-0.047418	0.022951	46.9826	-0.046402	-0.070932	-0.323565	NaN
422	1.000000	1.018362	7.36919e+06	-55989.1	1005.82	-29740.3	0.000000	0.000000	7.019166	-0.017078	NaN	0.000000	0.001625	0.001741	28.0807	0.043827	0.001891	23.1804	-26.6076	-163.688	-0.012431	1.017045	-0.038034	-0.039350	-0.017078	23.1804	-0.037481	-0.037956	0.449933	NaN
422	1.000000	1.026362	7.36919e+06	-55989.1	1005.82	-29740.3	0.000000	0.000000	7.027166	-0.029395	NaN	0.000000	0.001577	0.001743	28.0803	0.049049	0.001871	26.2178	130.76	-163.234	0.003740	1.025079	-0.030033	-0.031316	-0.029395	26.2178	-0.029192	-0.021856	1.344931	NaN
422	1.000000	1.034358	7.36919e+06	-55989.1	1005.82	-29740.3	0.000000	0.000000	7.035161	-0.048879	NaN	0.000000	0.001628	0.001734	28.0805	0.079022	0.002070	38.17	126.752	-165.994	-0.007104	1.033053	-0.022037	-0.023343	-0.048879	38.17	-0.021077	-0.013378	3.653695	NaN
422	1.000000	1.042344	7.36919e+06	-55989.1	1005.82	-29740.3	0.000000	0.000000	7.043150	0.020843	NaN	0.000000	0.001627	0.001759	28.0805	0.051508	0.001863	27.651	12.9904	-166.757	0.047520	1.041108	-0.014051	-0.015287	0.020843	27.651	-0.014617	-0.009047	-2.303893	NaN
422	1.000000	1.050361	7.36919e+06	-55989.1	1005.82	-29740.3	0.000000	0.000000	7.051165	-0.023181	NaN	0.000000	0.001633	0.001768	28.0807	0.058317	0.002044	28.5361	97.468	-163.566	0.053765	1.049046	-0.006035	-0.007349	-0.023181	28.5361	-0.005425	-0.003682	6.295005	NaN
422	1.000000	1.058328	7.36919e+06	-55989.1	1005.82	-29740.3	0.000000	0.000000	7.059185	1.249667	NaN	0.000000	0.001647	0.001767	28.0806	2.007369	0.001910	1051.14	8.814847	-166.956	0.255882	1.057001	0.001932	0.000606	1.249667	1051.14	0.001041	0.000794	1574.47	34088.1
422	2.000000	1.063968	7.36919e+06	-55989.1	1005.82	-29740.3	0.000000	0.000000	7.065220	10.8529	NaN	0.000000	0.001628	0.001760	28.0797	8.764987	0.001744	5026.95	5.148300	-170.23	9.837690	1.063720	0.007573	0.007325	10.8529	5026.95	0.005954	0.005021	2161.6	64817.5
422	2.000000	1.065966	7.36919e+06	-55989.1	1005.82	-29740.3	0.000000	0.000000	7.067391	15.053	NaN	0.000000	0.001610	0.001779	28.0793	9.930178	0.001772	5605.28	5.822472	-169.413	13.7958	1.065645	0.009571	0.009249	15.053	5605.28	0.007557	0.006590	2284.14	63084.2
422	2.000000	1.067957	7.36919e+06	-55989.1	1005.82	-29740.3	0.000000	0.000000	7.069535	18.7775	NaN	0.000000	0.001568	0.001741	28.0793	12.0168	0.001675	7175.7	7.116018	-174.105	18.2007	1.067594	0.011562	0.011199	18.7775	7175.7	0.009599	0.008739	2148.64	70129.3
422	2.000000	1.069969	7.36919e+06	-55989.1	1005.82	-29740.3	0.000000	0.000000	7.071725	23.1209	NaN	0.000000	0.001636	0.001725	28.0794	13.4286	0.001790	7503.04	5.326350	-172.446	23.1281	1.069633	0.013573	0.013237	23.1209	7503.04	0.011262	0.010618	2177.48	66524.9
422	2.000000	1.071953	7.36919e+06	-55989.1	1005.82	-29740.3	0.000000	0.000000	7.073852	26.5804	NaN	0.000000	0.001614	0.001762	28.0796	16.3748	0.001804	9078.13	7.120098	-176.877	26.771	1.071671	0.015557	0.015276	26.5804	9078.13	0.013361	0.013162	2019.5	72295.5
422	2.000000	1.073990	7.36919e+06	-55989.1	1005.82	-29740.3	0.000000	0.000000	7.076055	30.6119	NaN	0.000000	0.001624	0.001741	28.0794	17.6939	0.001785	9910.19	6.236072	-175.531	31.3019	1.073606	0.017595	0.017211	30.6119	9910.19	0.015278	0.015658	1955.07	72358.8
422	2.000000	1.075963	7.36919e+06	-55989.1	1005.82	-29740.3	0.000000	0.000000	7.078130	33.1057	NaN	0.000000	0.001612	0.001717	28.0793	19.4589	0.001884	10331.2	8.903947	-177.692	33.9517	1.075642	0.019568	0.019247	33.1057	10331.2	0.017164	0.018281	1810.99	69811.9
422	2.000000	1.077910	7.36919e+06	-55989.1	1005.82	-29740.3	0.000000	0.000000	7.080292	38.3253	NaN	0.000000	0.001606	0.001742	28.0793	21.0591	0.001757	11983.1	6.738648	-177.819	37.4455	1.077619	0.021515	0.021223	38.3253	11983.1	0.019116	0.021173	1810.14	75241.2
422	2.000000	1.079915	7.36919e+06	-55989.1	1005.82	-29740.3	0.000000	0.000000	7.082398	40.7958	NaN	0.000000	0.001617	0.001742	28.0793	21.9412	0.001801	12181.4	3.978275	-174.644	41.0179	1.079562	0.023519	0.023167	40.7958	12181.4	0.021008	0.024150	1689.25	71616
422	2.000000	1.081882	7.36919e+06	-55989.1	1005.82	-29740.3	0.000000	0.000000	7.084569	45.7483	NaN	0.000000	0.001611	0.001769	28.0794	24.1871	0.001898	12745.7	3.754453	-174.797	43.8672	1.081550	0.025486	0.025154	45.7483	12745.7	0.022794	0.027125	1686.59	70705.6
422	2.000000	1.083915	7.36919e+06	-55989.1	1005.82	-29740.3	0.000000	0.000000	7.086709	48.3298	NaN	0.000000	0.001631	0.001743	28.0796	25.7632	0.001874	13747.9	5.959931	-177.388	48.5963	1.083660	0.027520	0.027265	48.3298	13747.9	0.024883	0.030804	1568.95	71565.8
422	2.000000	1.085933	7.36919e+06	-55989.1	1005.82	-29740.3	0.000000	0.000000	7.088883	52.1257	NaN	0.000000	0.001614	0.001727	28.0795	27.8161	0.001885	14753.4	9.839085	177.821	52.5709	1.085560	0.029538	0.029164	52.1257	14753.4	0.026888	0.034540	1509.12	72527.3
422	2.000000	1.087888	7.36919e+06	-55989.1	1005.82	-29740.3	0.000000	0.000000	7.091162	60.0157	NaN	0.000000	0.001610	0.001758	28.0796	29.5256	0.001812	16295.6	3.947823	-177.744	59.0537	1.087555	0.031492	0.031159	60.0157	16295.6	0.028730	0.038153	1573.04	76222.3
422	2.000000	1.089873	7.36919e+06	-55989.1	1005.82	-29740.3	0.000000	0.000000	7.093373	65.4919	NaN	0.000000	0.001615	0.001741	28.0793	30.9942	0.001812	17105.8	4.618918	-178.796	65.6209	1.089552	0.033478	0.033157	65.4919	17105.8	0.030606	0.042010	1558.96	76250
422	2.000000	1.091853	7.36919e+06	-55989.1	1005.82	-29740.3	0.000000	0.000000	7.095524	69.6507	NaN	0.000000	0.001613	0.001723	28.0794	32.7225	0.001688	19387.4	6.237072	178.921	67.9878	1.091526	0.035457	0.035131	69.6507	19387.4	0.032763	0.046665	1492.55	81996.5
422	2.000000	1.093899	7.36919e+06	-55989.1	1005.82	-29740.3	0.000000	0.000000	7.097805	75.3816	NaN	0.000000	0.001602	0.001717	28.0794	35.0602	0.001829	19164.4	6.935463	179.728	73.7569	1.093524	0.037503	0.037129	75.3816	19164.4	0.034553	0.050711	1486.49	77753.1
422	2.000000	1.095878	7.36919e+06	-55989.1	1005.82	-29740.3	0.000000	0.000000	7.099890	77.9356	NaN	0.000000	0.001605	0.001758	28.0801	36.783	0.001707	21549.5	5.260874	177.969	77.5	1.095598	0.039483	0.039203	77.9356	21549.5	0.036770	0.055948	1392.99	83236.9
422	2.000000	1.097902	7.36919e+06	-55989.1	1005.82	-29740.3	0.000000	0.000000	7.102331	88.0705	NaN	0.000000	0.001619	0.001757	28.0804	39.3184	0.001701	23114	2.674788	-179.265	88.1345	1.097536	0.041507	0.041140	88.0705	23114	0.038649	0.060584	1453.69	85796.2
422	2.000000	1.099874	7.36919e+06	-55989.1	1005.82	-29740.3	0.000000	0.000000	7.104634	96.1149	NaN	0.000000	0.001588	0.001760	28.0808	40.8601	0.001665	24534.3	5.850547	176.823	96.0416	1.099619	0.043479	0.043224	96.1149	24534.3	0.040541	0.065433	1468.91	87629.2
422	2.000000	1.101850	7.36919e+06	-55989.1	1005.82	-29740.3	0.000000	0.000000	7.106967	104.801	NaN	0.000000	0.001650	0.001809	28.0807	43.3595	0.001920	22587.9	3.324214	-178.798	104.999	1.101516	0.045455	0.045121	104.801	22587.9	0.041975	0.069232	1513.76	78432
422	2.000000	1.103888	7.36919e+06	-55989.1	1005.82	-29740.3	0.000000	0.000000	7.109256	110.921	NaN	0.000000	0.001649	0.001791	28.0806	44.731	0.001870	23924.4	6.699709	177.78	109.407	1.103423	0.047492	0.047028	110.921	23924.4	0.044015	0.074816	1482.6	79913.1
422	2.000000	1.105898	7.36919e+06	-55989.1	1005.82	-29740.3	0.000000	0.000000	7.111582	118.599	NaN	0.000000	0.001667	0.001775	28.0808	46.9519	0.001874	25057.8	8.048270	175.369	120.007	1.105580	0.049503	0.049185	118.599	25057.8	0.045953	0.080315	1476.67	80782.6
422	2.000000	1.107892	7.36919e+06	-55989.1	1005.82	-29740.3	0.000000	0.000000	7.113867	125.66	NaN	0.000000	0.001677	0.001796	28.0809	49.1755	0.001862	26409.6	4.235545	177.78	125.926	1.107512	0.051496	0.051116	125.66	26409.6	0.047928	0.086115	1459.2	82223.4
422	2.000000	1.109884	7.36919e+06	-55989.1	1005.82	-29740.3	0.000000	0.000000	7.116199	133.919	NaN	0.000000	0.001674	0.001772	28.0805	49.8003	0.001833	27167.2	9.054302	173.382	135.912	1.109591	0.053489	0.053196	133.919	27167.2	0.049792	0.091771	1459.28	81934.3
422	2.000000	1.111836	7.36919e+06	-55989.1	1005.82	-29740.3	0.000000	0.000000	7.118441	140.97	NaN	0.000000	0.001663	0.001798	28.0806	51.7096	0.001801	28704.4	3.859074	177.054	138.899	1.111509	0.055441	0.055113	140.97	28704.4	0.051757	0.097922	1439.61	83807.1
422	2.000000	1.113908	7.36919e+06	-55989.1	1005.82	-29740.3	0.000000	0.000000	7.120963	151.908	NaN	0.000000	0.001663	0.001840	28.0808	53.8126	0.001757	30635.1	7.604489	173.456	151.444	1.113505	0.057513	0.057110	151.908	30635.1	0.053794	0.104499	1453.68	86583.7
422	2.000000	1.115863	7.36919e+06	-55989.1	1005.82	-29740.3	0.000000	0.000000	7.123450	164.841	NaN	0.000000	0.001678	0.001862	28.0809	54.5758	0.001817	30040.9	3.025204	178.215	164.9	1.115525	0.059467	0.059129	164.841	30040.9	0.055352	0.109671	1503.05	82878.2
422	2.000000	1.117862	7.36919e+06	-55989.1	1005.82	-29740.3	0.000000	0.000000	7.125727	171.611	NaN	0.000000	0.001713	0.001853	28.0809	57.2797	0.001800	31830	6.985309	173.851	172.431	1.117564	0.061466	0.061169	171.611	31830	0.057423	0.116729	1470.16	85117.7
422	2.000000	1.119823	7.36919e+06	-55989.1	1005.82	-29740.3	0.000000	0.000000	7.128309	186.691	NaN	0.000000	0.001677	0.001805	28.0808	57.0118	0.001751	32565.8	3.359493	177.691	184.461	1.119545	0.063428	0.063149	186.691	32565.8	0.059128	0.122701	1521.51	84939.7
422	2.000000	1.121870	7.36919e+06	-55989.1	1005.82	-29740.3	0.000000	0.000000	7.130562	191.687	NaN	0.000000	0.001675	0.001789	28.0807	60.0761	0.001771	33929.3	7.302475	172.875	191.867	1.121585	0.065475	0.065190	191.687	33929.3	0.061238	0.130284	1471.3	85882.2
422	2.000000	1.123797	7.36919e+06	-55989.1	1005.82	-29740.3	0.000000	0.000000	7.132889	201.435	NaN	0.000000	0.001604	0.001777	28.0807	61.6325	0.001776	34708.8	3.897696	176.595	197.417	1.123492	0.067402	0.067097	201.435	34708.8	0.063049	0.136968	1470.67	85684.8
422	2.000000	1.125840	7.36919e+06	-55989.1	1005.82	-29740.3	0.000000	0.000000	7.135505	215.347	NaN	0.000000	0.001588	0.001806	28.0809	63.584	0.001788	35551.6	6.746508	173.997	215.198	1.125459	0.069445	0.069064	215.347	35551.6	0.064902	0.143970	1495.77	85604.4
422	2.000000	1.127920	7.36919e+06	-55989.1	1005.82	-29740.3	0.000000	0.000000	7.137792	220.388	NaN	0.000000	0.001595	0.001764	28.0807	65.7993	0.001794	36672.4	5.427049	174.153	225.96	1.127524	0.071525	0.071129	220.388	36672.4	0.067017	0.152167	1448.32	85891.7
422	2.000000	1.129792	7.36919e+06	-55989.1	1005.82	-29740.3	0.000000	0.000000	7.140295	235.703	NaN	0.000000	0.001599	0.001758	28.0807	66.4348	0.001647	40330	4.841416	173.592	232.072	1.129608	0.073397	0.073213	235.703	40330	0.069014	0.160099	1472.23	92088.9
422	2.000000	1.131812	7.36919e+06	-55989.1	1005.82	-29740.3	0.000000	0.000000	7.142924	250.521	NaN	0.000000	0.001580	0.001760	28.0803	70.2189	0.001854	37865.8	5.169027	174.428	249.924	1.131491	0.075417	0.075096	250.521	37865.8	0.070455	0.165944	1509.67	84925.8
422	2.000000	1.133771	7.36919e+06	-55989.1	1005.82	-29740.3	0.000000	0.000000	7.145311	260.931	NaN	0.000000	0.001600	0.001794	28.0794	71.666	0.001909	37536.6	4.143064	175.351	255.649	1.133454	0.077376	0.077059	260.931	37536.6	0.072162	0.172995	1508.31	82453.9
422	2.000000	1.135820	7.36919e+06	-55989.1	1005.82	-29740.3	0.000000	0.000000	7.147920	274.54	NaN	0.000000	0.001603	0.001762	28.0798	72.0494	0.001734	41539.6	3.665337	175.273	272.539	1.135505	0.079425	0.079109	274.54	41539.6	0.074468	0.182736	1502.39	88781.8
422	2.000000	1.137805	7.36919e+06	-55989.1	1005.82	-29740.3	0.000000	0.000000	7.150312	284.443	NaN	0.000000	0.001571	0.001790	28.0795	75.6327	0.001851	40858.9	3.046986	175.633	282.193	1.137629	0.081409	0.081234	284.443	40858.9	0.076188	0.190168	1495.75	85603.4
422	2.000000	1.139833	7.36919e+06	-55989.1	1005.82	-29740.3	0.000000	0.000000	7.153031	301.211	NaN	0.000000	0.001587	0.001802	28.0797	76.8359	0.001828	42039.3	8.137746	170.594	299.006	1.139414	0.083438	0.083019	301.211	42039.3	0.078064	0.198431	1517.96	86223.1
422	2.000000	1.141820	7.36919e+06	-55989.1	1005.82	-29740.3	0.000000	0.000000	7.155589	315.119	NaN	0.000000	0.001626	0.001762	28.0796	78.9954	0.001735	45538.4	5.635296	172.769	315.98	1.141499	0.085425	0.085103	315.119	45538.4	0.080235	0.208195	1513.57	91183.3
422	2.000000	1.143835	7.36919e+06	-55989.1	1005.82	-29740.3	0.000000	0.000000	7.158162	328.678	NaN	0.000000	0.001666	0.001765	28.0794	81.146	0.001805	44950.8	8.212815	170.469	328.069	1.143485	0.087439	0.087089	328.678	44950.8	0.081955	0.216091	1521.02	88347
422	2.000000	1.145729	7.36919e+06	-55989.1	1005.82	-29740.3	0.000000	0.000000	7.160565	341.034	NaN	0.000000	0.001618	0.001763	28.0798	82.2057	0.001903	43206.7	3.676762	175.049	335.565	1.145461	0.089334	0.089066	341.034	43206.7	0.083414	0.222894	1530.03	83613.2
422	2.000000	1.147819	7.36919e+06	-55989.1	1005.82	-29740.3	0.000000	0.000000	7.163048	350.606	NaN	0.000000	0.001636	0.001792	28.0794	83.4201	0.001769	47147.3	3.033576	175.136	350.725	1.147517	0.091423	0.091122	350.606	47147.3	0.085846	0.234454	1495.41	88961.4
422	2.000000	1.149780	7.36919e+06	-55989.1	1005.82	-29740.3	0.000000	0.000000	7.165769	369.056	NaN	0.000000	0.001642	0.001793	28.0805	84.6985	0.001829	46320.9	4.372182	174.264	365.84	1.149333	0.093385	0.092938	369.056	46320.9	0.087409	0.242029	1524.84	86023.3
422	2.000000	1.151866	7.36919e+06	-55989.1	1005.82	-29740.3	0.000000	0.000000	7.168297	379.824	NaN	0.000000	0.001604	0.001762	28.0793	87.8105	0.001817	48339.6	5.397620	172.046	382.919	1.151518	0.095471	0.095123	379.824	48339.6	0.089578	0.252721	1502.94	87852.7
422	2.000000	1.153909	7.36919e+06	-55989.1	1005.82	-29740.3	0.000000	0.000000	7.171056	397.21	NaN	0.000000	0.001627	0.001799	28.0795	90.5034	0.001931	46878.7	10.0773	168.883	399.914	1.153490	0.097514	0.097094	397.21	46878.7	0.091159	0.260657	1523.88	83890.7
422	2.000000	1.155796	7.36919e+06	-55989.1	1005.82	-29740.3	0.000000	0.000000	7.173500	410.767	NaN	0.000000	0.001622	0.001798	28.0797	91.1475	0.001868	48783.9	7.986407	169.759	410.271	1.155382	0.099400	0.098987	410.767	48783.9	0.093085	0.270476	1518.69	85701
422	2.000000	1.157749	7.36919e+06	-55989.1	1005.82	-29740.3	0.000000	0.000000	7.176339	432.316	NaN	0.000000	0.001630	0.001798	28.0794	92.3235	0.001791	51554.5	6.592653	171.126	428.138	1.157384	0.101353	0.100988	432.316	51554.5	0.095064	0.280739	1539.92	88897.3
422	2.000000	1.159742	7.36919e+06	-55989.1	1005.82	-29740.3	0.000000	0.000000	7.178880	445.615	NaN	0.000000	0.001645	0.001790	28.0797	92.5923	0.001858	49825.1	5.865059	172.155	441.273	1.159384	0.103347	0.102989	445.615	49825.1	0.096639	0.289037	1541.72	84673
422	2.000000	1.161899	7.36919e+06	-55989.1	1005.82	-29740.3	0.000000	0.000000	7.181195	449.463	NaN	0.000000	0.001615	0.001786	28.0794	95.4226	0.001674	57006.1	2.410921	173.529	451.719	1.161610	0.105503	0.105215	449.463	57006.1	0.099590	0.304886	1474.2	94324.7