File: remote_trans/data/nanoindenter/0828-1/data/Data_2025-08-06,11h17m57s/2025-07-22_16-23-58_1_101.txt
2025-07-22, 16:23:58, 1
Index	Phase	Displacement	Time	Pos X	Pos Y	Pos Z	Rot A	Rot B	Piezo Z	Force A	Force B	Gripper	Voltage A	Voltage B	Temperature	Amplitude force	Amplitude pos	Stiffness	Phase shift	Phase excitation	Force A raw	Displacement raw	HMax	HMax raw	Real Force	Real Stiffness	Contact Depth	Area	Hardness	Reduced Mod.
[#]	[#]	[um]	[s]	[um]	[um]	[um]	[m°]	[m°]	[um]	[uN]	[uN]	[V]	[V]	[V]	[°C]	[uN]	[um]	[N/m]	[°]	[°]	[uN]	[um]	[um]	[um]	[uN]	[N/m]	[um]	[um^2]	[MPa]	[MPa]
101	1.000000	0.002930	7.36602e+06	-43689.1	955.819	-29778.8	0.000000	0.000000	6.002801	0.063942	NaN	0.000000	0.001569	0.001655	28.1005	0.101597	0.000981	103.577	-21.957	-167.099	0.091472	0.001701	-0.981113	-0.982342	0.063942	103.577	-0.981576	-1.281268E+13	-4.990491E-15	NaN
101	1.000000	0.010891	7.36602e+06	-43689.1	955.819	-29778.8	0.000000	0.000000	6.010757	-0.045908	NaN	0.000000	0.001577	0.001668	28.0998	0.113685	0.001014	112.08	44.4248	-169.891	-0.049762	0.009575	-0.973152	-0.974467	-0.045908	112.08	-0.972845	-9.772358E+12	4.697706E-15	NaN
101	1.000000	0.018891	7.36602e+06	-43689.1	955.819	-29778.8	0.000000	0.000000	6.018761	0.030611	NaN	0.000000	0.001569	0.001645	28.0987	0.130562	0.001509	86.5117	58.7789	-165.594	0.002763	0.017612	-0.965151	-0.966430	0.030611	86.5117	-0.965417	-7.760466E+12	-3.944516E-15	NaN
101	1.000000	0.026928	7.36603e+06	-43689.1	955.819	-29778.8	0.000000	0.000000	6.026795	-0.046842	NaN	0.000000	0.001561	0.001645	28.0988	0.041287	0.001813	22.7745	133.812	-164.706	-0.017118	0.025535	-0.957114	-0.958507	-0.046842	22.7745	-0.955572	-5.716918E+12	8.193559E-15	NaN
101	1.000000	0.034888	7.36603e+06	-43689.1	955.819	-29778.8	0.000000	0.000000	6.034757	0.017915	NaN	0.000000	0.001577	0.001641	28.0979	0.104131	0.001910	54.5323	11.9723	-165.441	0.024274	0.033600	-0.949155	-0.950443	0.017915	54.5323	-0.949401	-4.720147E+12	-3.795391E-15	NaN
101	1.000000	0.042890	7.36603e+06	-43689.1	955.818	-29778.8	0.000000	0.000000	6.042760	0.051807	NaN	0.000000	0.001534	0.001618	28.0986	0.054431	0.001996	27.2729	-47.3456	-166.295	0.093032	0.041609	-0.941153	-0.942433	0.051807	27.2729	-0.942578	-3.818671E+12	-1.356677E-14	NaN
101	1.000000	0.050891	7.36603e+06	-43689.1	955.819	-29778.8	0.000000	0.000000	6.050761	0.024791	NaN	0.000000	0.001544	0.001652	28.0986	0.054849	0.002097	26.1559	-142.447	-167.014	0.041927	0.049525	-0.933152	-0.934517	0.024791	26.1559	-0.933862	-2.912887E+12	-8.510742E-15	NaN
101	1.000000	0.058910	7.36603e+06	-43689.1	955.818	-29778.8	0.000000	0.000000	6.058779	0.006280	NaN	0.000000	0.001593	0.001623	28.1009	0.077455	0.001887	41.0469	95.6299	-167.43	-0.023135	0.057607	-0.925132	-0.926436	0.006280	41.0469	-0.925247	-2.228649E+12	-2.817873E-15	NaN
101	1.000000	0.066896	7.36603e+06	-43689.1	955.819	-29778.8	0.000000	0.000000	6.066764	0.001889	NaN	0.000000	0.001590	0.001643	28.0994	0.063434	0.002032	31.2149	24.1903	-167.269	0.043058	0.065598	-0.917147	-0.918445	0.001889	31.2149	-0.917192	-1.734994E+12	-1.088985E-15	NaN
101	1.000000	0.074884	7.36603e+06	-43689.1	955.82	-29778.8	0.000000	0.000000	6.074753	0.016152	NaN	0.000000	0.001544	0.001633	28.0982	0.090154	0.002063	43.709	-91.962	-162.843	-0.056793	0.073596	-0.909159	-0.910447	0.016152	43.709	-0.909436	-1.363155E+12	-1.184909E-14	NaN
101	1.000000	0.082900	7.36603e+06	-43689.1	955.819	-29778.8	0.000000	0.000000	6.082767	-0.042163	NaN	0.000000	0.001599	0.001621	28.0986	0.092247	0.001888	48.8472	170.824	-166.699	0.044231	0.081557	-0.901142	-0.902485	-0.042163	48.8472	-0.900495	-1.032177E+12	4.084837E-14	NaN
101	1.000000	0.090920	7.36603e+06	-43689.1	955.819	-29778.8	0.000000	0.000000	6.090789	-0.004596	NaN	0.000000	0.001579	0.001641	28.0983	0.038951	0.002002	19.4606	125.849	-165.583	0.027508	0.089571	-0.893122	-0.894472	-0.004596	19.4606	-0.892945	-8.160656E+11	5.631538E-15	NaN
101	1.000000	0.098878	7.36603e+06	-43689.1	955.818	-29778.8	0.000000	0.000000	6.098746	-0.023652	NaN	0.000000	0.001642	0.001620	28.0978	0.055069	0.001930	28.535	156.621	-168.931	-0.036719	0.097591	-0.885164	-0.886451	-0.023652	28.535	-0.884543	-6.282519E+11	3.764798E-14	NaN
101	1.000000	0.106917	7.36603e+06	-43689.1	955.819	-29778.8	0.000000	0.000000	6.106783	-0.069842	NaN	0.000000	0.001585	0.001626	28.0973	0.150267	0.002073	72.502	-104.316	-163.381	-0.043795	0.105591	-0.877125	-0.878452	-0.069842	72.502	-0.876403	-4.875926E+11	1.432383E-13	NaN
101	1.000000	0.114894	7.36603e+06	-43689.1	955.819	-29778.8	0.000000	0.000000	6.114766	0.069137	NaN	0.000000	0.001585	0.001668	28.0975	0.027331	0.001985	13.7681	-56.7898	-170.124	0.084011	0.113619	-0.869148	-0.870424	0.069137	13.7681	-0.872914	-4.373913E+11	-1.580660E-13	NaN
101	1.000000	0.122930	7.36603e+06	-43689.1	955.818	-29778.8	0.000000	0.000000	6.122799	0.018505	NaN	0.000000	0.001499	0.001616	28.0977	0.037856	0.001992	19.0002	-2.585810	-167.718	-0.035035	0.121594	-0.861113	-0.862449	0.018505	19.0002	-0.861843	-3.097884E+11	-5.973282E-14	NaN
101	1.000000	0.130900	7.36603e+06	-43689.1	955.818	-29778.8	0.000000	0.000000	6.130768	-0.017642	NaN	0.000000	0.001591	0.001662	28.0975	0.121990	0.002105	57.9404	95.3047	-171.325	-0.047251	0.129616	-0.853143	-0.854426	-0.017642	57.9404	-0.852914	-2.345312E+11	7.522195E-14	NaN
101	1.000000	0.138904	7.36603e+06	-43689.1	955.818	-29778.8	0.000000	0.000000	6.138774	0.029255	NaN	0.000000	0.001557	0.001632	28.0984	0.062277	0.002175	28.6328	174.224	-165.14	0.009226	0.137630	-0.845139	-0.846412	0.029255	28.6328	-0.845905	-1.884868E+11	-1.552104E-13	NaN
101	1.000000	0.146915	7.36603e+06	-43689.1	955.819	-29778.8	0.000000	0.000000	6.146785	0.027049	NaN	0.000000	0.001571	0.001602	28.0984	0.057082	0.002029	28.1323	-172.349	-167.277	-0.058928	0.145576	-0.837128	-0.838467	0.027049	28.1323	-0.837849	-1.466048E+11	-1.845024E-13	NaN
101	1.000000	0.154918	7.36603e+06	-43689.1	955.819	-29778.8	0.000000	0.000000	6.154787	-0.000545	NaN	0.000000	0.001562	0.001650	28.0985	0.052158	0.001781	29.28	59.0467	-165.537	0.045511	0.153618	-0.829124	-0.830425	-0.000545	29.28	-0.829111	-1.116164E+11	4.884399E-15	NaN
101	1.000000	0.162931	7.36603e+06	-43689.1	955.819	-29778.8	0.000000	0.000000	6.162797	-0.080875	NaN	0.000000	0.001534	0.001657	28.099	0.128559	0.002043	62.9199	70.4584	-165.095	-0.039759	0.161659	-0.821111	-0.822383	-0.080875	62.9199	-0.820147	-8.437407E+10	9.585303E-13	NaN
101	1.000000	0.170924	7.36603e+06	-43689.1	955.818	-29778.8	0.000000	0.000000	6.170795	0.062007	NaN	0.000000	0.001576	0.001635	28.0995	0.084902	0.001947	43.6153	-67.8312	-162.896	0.028218	0.169616	-0.813119	-0.814427	0.062007	43.6153	-0.814185	-7.003997E+10	-8.853099E-13	NaN
101	1.000000	0.178937	7.36603e+06	-43689.1	955.818	-29778.8	0.000000	0.000000	6.178803	-0.067893	NaN	0.000000	0.001571	0.001624	28.0975	0.048398	0.001996	24.2465	7.019132	-166.561	-0.068209	0.177626	-0.805105	-0.806417	-0.067893	24.2465	-0.803005	-4.939191E+10	1.374579E-12	NaN
101	1.000000	0.186913	7.36603e+06	-43689.1	955.819	-29778.8	0.000000	0.000000	6.186784	0.057095	NaN	0.000000	0.001568	0.001638	28.0976	0.157643	0.001973	79.9	54.4529	-166.438	-0.014236	0.185587	-0.797130	-0.798456	0.057095	79.9	-0.797666	-4.180016E+10	-1.365896E-12	NaN
101	1.000000	0.194920	7.36603e+06	-43689.1	955.819	-29778.8	0.000000	0.000000	6.194787	-0.026203	NaN	0.000000	0.001615	0.001607	28.0981	0.009259	0.002054	4.507451	-133.861	-167.78	0.014167	0.193660	-0.789123	-0.790382	-0.026203	4.507451	-0.784763	-2.792221E+10	9.384169E-13	NaN
101	1.000000	0.202941	7.36603e+06	-43689.1	955.818	-29778.8	0.000000	0.000000	6.202811	0.027872	NaN	0.000000	0.001569	0.001615	28.0978	0.075067	0.001930	38.8917	118.731	-165.461	-0.044697	0.201636	-0.781101	-0.782406	0.027872	38.8917	-0.781639	-2.532223E+10	-1.100696E-12	NaN
101	1.000000	0.210945	7.36603e+06	-43689.1	955.818	-29778.8	0.000000	0.000000	6.210813	-0.013763	NaN	0.000000	0.001559	0.001624	28.0999	0.084896	0.001901	44.6509	-126.293	-167.538	-0.048743	0.209676	-0.773098	-0.774367	-0.013763	44.6509	-0.772866	-1.924306E+10	7.152398E-13	NaN
101	1.000000	0.218928	7.36603e+06	-43689.1	955.82	-29778.8	0.000000	0.000000	6.218794	-0.071335	NaN	0.000000	0.001629	0.001646	28.1005	0.005169	0.001883	2.744888	-97.5961	-167.013	-0.075566	0.217657	-0.765115	-0.766386	-0.071335	2.744888	-0.745624	-8.196716E+9	8.702852E-12	NaN
101	1.000000	0.226953	7.36603e+06	-43689.1	955.819	-29778.8	0.000000	0.000000	6.226820	-0.036423	NaN	0.000000	0.001647	0.001638	28.1002	0.089992	0.001939	46.418	-113.391	-166.715	-0.039443	0.225616	-0.757090	-0.758426	-0.036423	46.418	-0.756502	-1.152668E+10	3.159902E-12	NaN
101	1.000000	0.234941	7.36603e+06	-43689.1	955.818	-29778.8	0.000000	0.000000	6.234809	-0.030511	NaN	0.000000	0.001603	0.001653	28.0999	0.038860	0.002044	19.0124	158.178	-167.238	0.045165	0.233673	-0.749101	-0.750370	-0.030511	19.0124	-0.747898	-8.802426E+9	3.466199E-12	NaN
101	1.000000	0.242967	7.36603e+06	-43689.1	955.819	-29778.8	0.000000	0.000000	6.242834	-0.032664	NaN	0.000000	0.001631	0.001658	28.1005	0.050406	0.002025	24.8891	26.2516	-165.697	-0.057550	0.241665	-0.741076	-0.742378	-0.032664	24.8891	-0.740092	-6.891397E+9	4.739841E-12	NaN
101	1.000000	0.250989	7.36603e+06	-43689.1	955.819	-29778.8	0.000000	0.000000	6.250860	0.043957	NaN	0.000000	0.001590	0.001662	28.1005	0.038911	0.002040	19.0706	-159.429	-164.063	0.038455	0.249652	-0.733053	-0.734390	0.043957	19.0706	-0.734782	-5.834063E+9	-7.534596E-12	NaN
101	1.000000	0.258959	7.36603e+06	-43689.1	955.818	-29778.8	0.000000	0.000000	6.258829	0.039858	NaN	0.000000	0.001608	0.001677	28.0994	0.132340	0.001865	70.9582	154.404	-162.493	0.033723	0.257688	-0.725084	-0.726355	0.039858	70.9582	-0.725505	-4.360477E+9	-9.140813E-12	NaN
101	1.000000	0.266974	7.36603e+06	-43689.1	955.818	-29778.8	0.000000	0.000000	6.266838	-0.113633	NaN	0.000000	0.001589	0.001689	28.1	0.105035	0.001934	54.3127	59.3285	-164.984	-0.087516	0.265635	-0.717068	-0.718407	-0.113633	54.3127	-0.715499	-3.184798E+9	3.567970E-11	NaN
101	1.000000	0.274971	7.36603e+06	-43689.1	955.818	-29778.8	0.000000	0.000000	6.274839	-0.022705	NaN	0.000000	0.001590	0.001705	28.0997	0.049222	0.002017	24.4055	-106.27	-167.31	0.001939	0.273705	-0.709071	-0.710337	-0.022705	24.4055	-0.708374	-2.545962E+9	8.917880E-12	NaN
101	1.000000	0.283001	7.36603e+06	-43689.1	955.818	-29778.8	0.000000	0.000000	6.282871	0.034610	NaN	0.000000	0.001595	0.001664	28.0997	0.079312	0.002122	37.3754	97.3248	-165.567	0.043925	0.281698	-0.701042	-0.702344	0.034610	37.3754	-0.701736	-2.066511E+9	-1.674816E-11	NaN
101	1.000000	0.291001	7.36603e+06	-43689.1	955.819	-29778.8	0.000000	0.000000	6.290868	-0.049396	NaN	0.000000	0.001597	0.001644	28.0995	0.025348	0.001908	13.2872	-15.5789	-166.508	-0.006375	0.289657	-0.693042	-0.694386	-0.049396	13.2872	-0.690253	-1.440062E+9	3.430164E-11	NaN
101	1.000000	0.298998	7.36603e+06	-43689.1	955.818	-29778.8	0.000000	0.000000	6.298866	0.007761	NaN	0.000000	0.001607	0.001676	28.1009	0.058930	0.001978	29.787	104.234	-165.971	-0.023472	0.297702	-0.685045	-0.686340	0.007761	29.787	-0.685241	-1.229881E+9	-6.310206E-12	NaN
101	1.000000	0.307029	7.36603e+06	-43689.1	955.818	-29778.8	0.000000	0.000000	6.306898	-0.000308	NaN	0.000000	0.001561	0.001666	28.1019	0.146142	0.002052	71.2209	-171.901	-162.93	0.068923	0.305698	-0.677014	-0.678344	-0.000308	71.2209	-0.677010	-9.491051E+8	3.242296E-13	NaN
101	1.000000	0.314981	7.36603e+06	-43689.1	955.818	-29778.8	0.000000	0.000000	6.314848	-0.037994	NaN	0.000000	0.001564	0.001689	28.1008	0.033518	0.001971	17.0055	-104.564	-167.192	-0.057625	0.313654	-0.669061	-0.670388	-0.037994	17.0055	-0.667386	-7.008159E+8	5.421349E-11	NaN
101	1.000000	0.323014	7.36603e+06	-43689.1	955.818	-29778.8	0.000000	0.000000	6.322880	-0.059356	NaN	0.000000	0.001562	0.001676	28.1008	0.059349	0.002120	27.9898	-108.78	-162.39	-0.070034	0.321692	-0.661029	-0.662350	-0.059356	27.9898	-0.659438	-5.454731E+8	1.088152E-10	NaN
101	1.000000	0.330993	7.36603e+06	-43689.1	955.819	-29778.8	0.000000	0.000000	6.330861	-0.023686	NaN	0.000000	0.001560	0.001677	28.1004	0.056687	0.002081	27.2415	-2.253948	-164.37	0.031932	0.329710	-0.653049	-0.654333	-0.023686	27.2415	-0.652397	-4.368133E+8	5.422534E-11	NaN
101	1.000000	0.339002	7.36603e+06	-43689.1	955.818	-29778.8	0.000000	0.000000	6.338869	-0.045662	NaN	0.000000	0.001575	0.001688	28.0997	0.139959	0.002018	69.3477	-67.3076	-167.511	0.003035	0.337754	-0.645041	-0.646289	-0.045662	69.3477	-0.644547	-3.409287E+8	1.339346E-10	NaN
101	1.000000	0.346997	7.36603e+06	-43689.1	955.818	-29778.8	0.000000	0.000000	6.346865	-0.011407	NaN	0.000000	0.001566	0.001673	28.0994	0.105481	0.001917	55.0344	-139.863	-168.119	0.010717	0.345677	-0.637045	-0.638366	-0.011407	55.0344	-0.636890	-2.676781E+8	4.261398E-11	NaN
101	1.000000	0.355010	7.36603e+06	-43689.1	955.819	-29778.8	0.000000	0.000000	6.354881	0.040728	NaN	0.000000	0.001586	0.001653	28.0989	0.046498	0.001899	24.486	-35.6466	-164.441	0.010482	0.353680	-0.629032	-0.630363	0.040728	24.486	-0.630280	-2.172038E+8	-1.875109E-10	NaN
101	1.000000	0.363006	7.36603e+06	-43689.1	955.819	-29778.8	0.000000	0.000000	6.362874	-0.024832	NaN	0.000000	0.001598	0.001704	28.0997	0.033048	0.002045	16.1588	-177.978	-162.54	0.007240	0.361696	-0.621036	-0.622346	-0.024832	16.1588	-0.619884	-1.563268E+8	1.588492E-10	NaN
101	1.000000	0.371024	7.36603e+06	-43689.1	955.818	-29778.8	0.000000	0.000000	6.370889	-0.095276	NaN	0.000000	0.001566	0.001654	28.0993	0.155332	0.002088	74.3851	-84.2231	-167.595	-0.072921	0.369704	-0.613018	-0.614339	-0.095276	74.3851	-0.612058	-1.220176E+8	7.808368E-10	NaN
101	1.000000	0.379023	7.36603e+06	-43689.1	955.818	-29778.8	0.000000	0.000000	6.378893	0.019639	NaN	0.000000	0.001574	0.001646	28.1001	0.039646	0.001901	20.855	43.8267	-164.68	-0.005718	0.377718	-0.605020	-0.606325	0.019639	20.855	-0.605726	-9.983774E+7	-1.967100E-10	NaN
101	1.000000	0.387050	7.36603e+06	-43689.1	955.818	-29778.8	0.000000	0.000000	6.386919	0.004424	NaN	0.000000	0.001547	0.001658	28.1	0.016268	0.002024	8.036371	-61.7109	-162.419	-0.053317	0.385697	-0.596993	-0.598345	0.004424	8.036371	-0.597406	-7.668762E+7	-5.769197E-11	NaN
101	1.000000	0.395031	7.36603e+06	-43689.1	955.818	-29778.8	0.000000	0.000000	6.394897	-0.058610	NaN	0.000000	0.001565	0.001666	28.1002	0.103086	0.002223	46.3661	-103.722	-166.839	-0.029843	0.393717	-0.589011	-0.590326	-0.058610	46.3661	-0.588063	-5.701161E+7	1.028039E-9	NaN
101	1.000000	0.403050	7.36603e+06	-43689.1	955.818	-29778.8	0.000000	0.000000	6.402919	0.009877	NaN	0.000000	0.001579	0.001666	28.1003	0.060857	0.001959	31.0674	44.2018	-168.48	0.042055	0.401710	-0.580993	-0.582333	0.009877	31.0674	-0.581232	-4.589041E+7	-2.152205E-10	NaN
101	1.000000	0.411039	7.36603e+06	-43689.1	955.818	-29778.8	0.000000	0.000000	6.410907	-0.004490	NaN	0.000000	0.001545	0.001657	28.101	0.030289	0.001989	15.2292	12.612	-167.943	0.047897	0.409728	-0.573004	-0.574315	-0.004490	15.2292	-0.572783	-3.508160E+7	1.279824E-10	NaN
101	1.000000	0.419040	7.36603e+06	-43689.1	955.819	-29778.8	0.000000	0.000000	6.418910	0.026899	NaN	0.000000	0.001575	0.001630	28.0998	0.068998	0.002038	33.8535	-100.174	-163.747	0.038076	0.417695	-0.565002	-0.566348	0.026899	33.8535	-0.565598	-2.791220E+7	-9.637163E-10	NaN
101	1.000000	0.427050	7.36603e+06	-43689.1	955.819	-29778.8	0.000000	0.000000	6.426920	0.037560	NaN	0.000000	0.001564	0.001678	28.0992	0.046786	0.002003	23.3527	1.949115	-167.134	-0.002946	0.425745	-0.556993	-0.558298	0.037560	23.3527	-0.558199	-2.205272E+7	-1.703187E-9	NaN
101	1.000000	0.435033	7.36603e+06	-43689.1	955.818	-29778.8	0.000000	0.000000	6.434899	-0.051420	NaN	0.000000	0.001572	0.001680	28.1003	0.054154	0.002023	26.7653	-172.109	-167.725	-0.013975	0.433721	-0.549010	-0.550322	-0.051420	26.7653	-0.547569	-1.571386E+7	3.272240E-9	NaN
101	1.000000	0.443037	7.36603e+06	-43689.1	955.818	-29778.8	0.000000	0.000000	6.442906	-0.002589	NaN	0.000000	0.001567	0.001657	28.0992	0.027250	0.002052	13.2768	178.849	-163.898	0.034663	0.441738	-0.541005	-0.542305	-0.002589	13.2768	-0.540859	-1.268452E+7	2.040944E-10	NaN
101	1.000000	0.451042	7.36603e+06	-43689.1	955.819	-29778.8	0.000000	0.000000	6.450908	-0.049321	NaN	0.000000	0.001590	0.001691	28.0993	0.081521	0.001942	41.9675	-140.707	-164.394	0.049190	0.449722	-0.533001	-0.534321	-0.049321	41.9675	-0.532119	-9.59412e+06	5.140782E-9	NaN
101	1.000000	0.459044	7.36603e+06	-43689.1	955.818	-29778.8	0.000000	0.000000	6.458909	-0.088368	NaN	0.000000	0.001644	0.001703	28.1005	0.112283	0.001808	62.1202	166.23	-165.016	-0.043110	0.457733	-0.524999	-0.526310	-0.088368	62.1202	-0.523932	-7.38357e+06	1.196824E-8	NaN
101	1.000000	0.467119	7.36603e+06	-43689.1	955.818	-29778.8	0.000000	0.000000	6.466988	-0.005266	NaN	0.000000	0.001614	0.001689	28.1003	0.045951	0.002027	22.6699	111.537	-164.897	0.086443	0.465760	-0.516923	-0.518283	-0.005266	22.6699	-0.516749	-5.86641e+06	8.976072E-10	NaN
101	1.000000	0.475074	7.36603e+06	-43689.1	955.819	-29778.8	0.000000	0.000000	6.474943	0.016913	NaN	0.000000	0.001586	0.001678	28.1011	0.007631	0.002022	3.773232	15.0502	-167.165	0.008101	0.473772	-0.508969	-0.510271	0.016913	3.773232	-0.512331	-5.09186e+06	-3.321627E-9	NaN
101	1.000000	0.483073	7.36603e+06	-43689.1	955.819	-29778.8	0.000000	0.000000	6.482942	0.012605	NaN	0.000000	0.001602	0.001693	28.1025	0.080353	0.002048	39.2314	47.0978	-169.122	-0.007264	0.481757	-0.500970	-0.502286	0.012605	39.2314	-0.501211	-3.56375e+06	-3.536964E-9	NaN
101	1.000000	0.491082	7.36603e+06	-43689.1	955.818	-29778.8	0.000000	0.000000	6.490954	0.070967	NaN	0.000000	0.001568	0.001697	28.1026	0.094006	0.002022	46.4884	-140.804	-165.031	0.033835	0.489763	-0.492961	-0.494280	0.070967	46.4884	-0.494106	-2.83626e+06	-2.502140E-8	NaN
101	1.000000	0.499099	7.36603e+06	-43689.1	955.819	-29778.8	0.000000	0.000000	6.498965	-0.078411	NaN	0.000000	0.001581	0.001692	28.1012	0.067106	0.002173	30.8773	-168.795	-164.787	-0.047247	0.497750	-0.484944	-0.486293	-0.078411	30.8773	-0.483039	-1.98636e+06	3.947479E-8	NaN
101	1.000000	0.507062	7.36603e+06	-43689.1	955.818	-29778.8	0.000000	0.000000	6.506929	-0.035402	NaN	0.000000	0.001589	0.001633	28.1015	0.050484	0.002050	24.6265	113.069	-165.298	-0.065599	0.505688	-0.476981	-0.478355	-0.035402	24.6265	-0.475903	-1.57815e+06	2.243283E-8	NaN
101	1.000000	0.515078	7.36603e+06	-43689.1	955.818	-29778.8	0.000000	0.000000	6.514947	0.013807	NaN	0.000000	0.001630	0.001693	28.1011	0.080908	0.001969	41.0855	-3.686011	-168.801	0.076611	0.513759	-0.468965	-0.470283	0.013807	41.0855	-0.469217	-1.2718e+06	-1.085626E-8	NaN
101	1.000000	0.523103	7.36603e+06	-43689.1	955.818	-29778.8	0.000000	0.000000	6.522971	0.004836	NaN	0.000000	0.001634	0.001684	28.1009	0.042359	0.001966	21.5427	-83.7217	-166.431	0.020990	0.521760	-0.460940	-0.462282	0.004836	21.5427	-0.461108	-978570	-4.942376E-9	NaN
101	1.000000	0.531066	7.36603e+06	-43689.1	955.818	-29778.8	0.000000	0.000000	6.530930	-0.092629	NaN	0.000000	0.001652	0.001704	28.1015	0.031114	0.002034	15.2977	66.1729	-166.195	-0.081924	0.529732	-0.452977	-0.454311	-0.092629	15.2977	-0.448436	-649100	1.427032E-7	NaN
101	1.000000	0.539083	7.36603e+06	-43689.1	955.818	-29778.8	0.000000	0.000000	6.538952	0.004942	NaN	0.000000	0.001631	0.001685	28.1025	0.049887	0.001938	25.7378	-132.258	-167.499	-0.030817	0.537745	-0.444959	-0.446297	0.004942	25.7378	-0.445103	-582574	-8.483424E-9	NaN
101	1.000000	0.547098	7.36603e+06	-43689.1	955.818	-29778.8	0.000000	0.000000	6.546966	-0.009504	NaN	0.000000	0.001655	0.001665	28.1031	0.026479	0.001921	13.7838	-59.173	-169.962	-0.035482	0.545795	-0.436945	-0.438248	-0.009504	13.7838	-0.436428	-439467	2.162705E-8	NaN
101	1.000000	0.555105	7.36603e+06	-43689.1	955.817	-29778.8	0.000000	0.000000	6.554970	-0.071010	NaN	0.000000	0.001645	0.001661	28.1021	0.019886	0.001974	10.074	-77.3285	-167.549	-0.057182	0.553846	-0.428938	-0.430197	-0.071010	10.074	-0.423651	-289853	2.449869E-7	NaN
101	1.000000	0.563158	7.36603e+06	-43689.1	955.818	-29778.8	0.000000	0.000000	6.563025	-0.040723	NaN	0.000000	0.001669	0.001669	28.1026	0.050004	0.001883	26.5561	-85.011	-165.706	0.031537	0.561771	-0.420885	-0.422271	-0.040723	26.5561	-0.419735	-255065	1.596568E-7	NaN
101	1.000000	0.571129	7.36603e+06	-43689.1	955.819	-29778.8	0.000000	0.000000	6.570996	-0.035714	NaN	0.000000	0.001598	0.001661	28.1027	0.089916	0.002026	44.3848	-110.969	-165.022	-0.001502	0.569814	-0.412914	-0.414229	-0.035714	44.3848	-0.412310	-200098	1.784838E-7	NaN
101	1.000000	0.579110	7.36603e+06	-43689.1	955.818	-29778.8	0.000000	0.000000	6.578978	0.002305	NaN	0.000000	0.001561	0.001658	28.1016	0.025454	0.002013	12.6458	4.512871	-167.193	0.056764	0.577830	-0.404933	-0.406213	0.002305	12.6458	-0.405070	-157848	-1.460504E-8	NaN
101	1.000000	0.587125	7.36603e+06	-43689.1	955.818	-29778.8	0.000000	0.000000	6.586993	-0.004442	NaN	0.000000	0.001569	0.001667	28.1017	0.062551	0.002004	31.2198	127.813	-167.118	-0.063256	0.585770	-0.396918	-0.398272	-0.004442	31.2198	-0.396811	-120363	3.690159E-8	NaN
101	1.000000	0.595144	7.36603e+06	-43689.1	955.818	-29778.8	0.000000	0.000000	6.595011	-0.035560	NaN	0.000000	0.001608	0.001675	28.1012	0.084477	0.002046	41.2852	76.1761	-169.843	-0.052404	0.593807	-0.388898	-0.390235	-0.035560	41.2852	-0.388252	-90815.6	3.915647E-7	NaN
101	1.000000	0.603094	7.36603e+06	-43689.1	955.819	-29778.8	0.000000	0.000000	6.602960	-0.055004	NaN	0.000000	0.001605	0.001652	28.1015	0.029073	0.001883	15.4408	110.615	-164.008	-0.054783	0.601828	-0.380949	-0.382215	-0.055004	15.4408	-0.378277	-65336.2	8.418634E-7	NaN
101	1.000000	0.611114	7.36603e+06	-43689.1	955.819	-29778.8	0.000000	0.000000	6.610986	0.097834	NaN	0.000000	0.001597	0.001688	28.1016	0.029442	0.001946	15.1266	67.9927	-167.007	0.048981	0.609847	-0.372929	-0.374196	0.097834	15.1266	-0.377780	-64270.8	-1.522222E-6	NaN
101	1.000000	0.619122	7.36603e+06	-43689.1	955.818	-29778.8	0.000000	0.000000	6.618990	-0.019902	NaN	0.000000	0.001607	0.001638	28.1018	0.037259	0.002087	17.8507	176.973	-164.913	-0.074941	0.617794	-0.364920	-0.366249	-0.019902	17.8507	-0.364084	-40816.7	4.875902E-7	NaN
101	1.000000	0.627104	7.36603e+06	-43689.1	955.818	-29778.8	0.000000	0.000000	6.626974	0.026032	NaN	0.000000	0.001600	0.001649	28.1021	0.088908	0.001984	44.8209	-79.7371	-164.776	-0.015723	0.625787	-0.356938	-0.358255	0.026032	44.8209	-0.357374	-32648.4	-7.973312E-7	NaN
101	1.000000	0.635110	7.36603e+06	-43689.1	955.818	-29778.8	0.000000	0.000000	6.634977	-0.034058	NaN	0.000000	0.001656	0.001671	28.1012	0.092716	0.001971	47.0346	157.757	-168.702	-0.047064	0.633838	-0.348933	-0.350205	-0.034058	47.0346	-0.348390	-24189.3	1.407975E-6	NaN
101	1.000000	0.643111	7.36603e+06	-43689.1	955.818	-29778.8	0.000000	0.000000	6.642980	0.001596	NaN	0.000000	0.001646	0.001684	28.1015	0.079319	0.002003	39.6084	-23.2343	-165.033	0.024992	0.641816	-0.340931	-0.342226	0.001596	39.6084	-0.340961	-18861.1	-8.460096E-8	NaN
101	1.000000	0.651133	7.36603e+06	-43689.1	955.818	-29778.8	0.000000	0.000000	6.651000	-0.035379	NaN	0.000000	0.001615	0.001649	28.1017	0.134940	0.001996	67.6065	-27.3985	-161.876	0.007493	0.649807	-0.332910	-0.334236	-0.035379	67.6065	-0.332517	-14200.2	2.491467E-6	NaN
101	1.000000	0.659138	7.36603e+06	-43689.1	955.818	-29778.8	0.000000	0.000000	6.659002	-0.091148	NaN	0.000000	0.001617	0.001635	28.1006	0.102325	0.002004	51.0587	-149.653	-164.553	-0.064072	0.657807	-0.324905	-0.326236	-0.091148	51.0587	-0.323566	-10497.4	8.682910E-6	NaN
101	1.000000	0.667129	7.36603e+06	-43689.1	955.819	-29778.8	0.000000	0.000000	6.666999	0.038400	NaN	0.000000	0.001640	0.001651	28.1012	0.023227	0.001937	11.9907	-60.8545	-167.081	-0.023916	0.665838	-0.316914	-0.318205	0.038400	11.9907	-0.319316	-9090.02	-4.224429E-6	NaN
101	1.000000	0.675157	7.36603e+06	-43689.1	955.818	-29778.8	0.000000	0.000000	6.675027	0.031958	NaN	0.000000	0.001634	0.001683	28.1011	0.089604	0.002121	42.2541	64.8198	-167.799	-0.039022	0.673841	-0.308886	-0.310202	0.031958	42.2541	-0.309453	-6500.7	-4.916090E-6	NaN
101	1.000000	0.683159	7.36603e+06	-43689.1	955.819	-29778.8	0.000000	0.000000	6.683029	0.032148	NaN	0.000000	0.001610	0.001676	28.1009	0.066176	0.001930	34.2793	135.98	-166.619	0.048171	0.681815	-0.300883	-0.302228	0.032148	34.2793	-0.301587	-4968.7	-6.470156E-6	NaN
101	1.000000	0.691163	7.36603e+06	-43689.1	955.818	-29778.8	0.000000	0.000000	6.691029	-0.066965	NaN	0.000000	0.001583	0.001634	28.1008	0.071841	0.001974	36.3901	178.869	-166.099	-0.075086	0.689843	-0.292880	-0.294199	-0.066965	36.3901	-0.291499	-3513.61	1.905868E-5	NaN
101	1.000000	0.699173	7.36603e+06	-43689.1	955.818	-29778.8	0.000000	0.000000	6.699042	0.013953	NaN	0.000000	0.001608	0.001644	28.1029	0.059601	0.002052	29.0511	8.031965	-165.995	-0.090788	0.697857	-0.284869	-0.286185	0.013953	29.0511	-0.285230	-2829.55	-4.931189E-6	NaN
101	1.000000	0.707184	7.36603e+06	-43689.1	955.818	-29778.8	0.000000	0.000000	6.707056	0.063842	NaN	0.000000	0.001595	0.001659	28.1017	0.057006	0.002058	27.7028	27.341	-165.181	-0.028367	0.705851	-0.276858	-0.278192	0.063842	27.7028	-0.278587	-2247.18	-2.840999E-5	NaN
101	1.000000	0.715170	7.36603e+06	-43689.1	955.819	-29778.8	0.000000	0.000000	6.715038	-0.036793	NaN	0.000000	0.001586	0.001714	28.102	0.090698	0.001914	47.397	148.349	-166.235	-0.055558	0.713821	-0.268872	-0.270222	-0.036793	47.397	-0.268290	-1568.68	2.345453E-5	NaN
101	1.000000	0.723171	7.36603e+06	-43689.1	955.818	-29778.8	0.000000	0.000000	6.723040	0.005138	NaN	0.000000	0.001593	0.001726	28.1019	0.143567	0.002050	70.0215	13.6978	-165.913	-0.005388	0.721845	-0.260871	-0.262197	0.005138	70.0215	-0.260926	-1210.91	-4.243300E-6	NaN
101	1.000000	0.731186	7.36603e+06	-43689.1	955.818	-29778.8	0.000000	0.000000	6.731052	-0.049035	NaN	0.000000	0.001531	0.001721	28.1019	0.089810	0.002138	41.9983	-144.838	-164.751	0.035331	0.729866	-0.252857	-0.254176	-0.049035	41.9983	-0.251981	-882.233	5.558062E-5	NaN
101	1.000000	0.739206	7.36603e+06	-43689.1	955.818	-29778.8	0.000000	0.000000	6.739073	-0.049156	NaN	0.000000	0.001556	0.001737	28.1013	0.116278	0.001943	59.8299	13.4887	-168.826	-0.098938	0.737868	-0.244836	-0.246175	-0.049156	59.8299	-0.244220	-668.85	7.349344E-5	NaN
101	1.000000	0.747212	7.36603e+06	-43689.1	955.818	-29778.8	0.000000	0.000000	6.747081	0.010769	NaN	0.000000	0.001570	0.001734	28.101	0.100882	0.001799	56.0865	31.1723	-165.444	0.014232	0.745898	-0.236830	-0.238145	0.010769	56.0865	-0.236974	-515.488	-2.089013E-5	NaN
101	1.000000	0.755199	7.36603e+06	-43689.1	955.819	-29778.8	0.000000	0.000000	6.755067	-0.002418	NaN	0.000000	0.001549	0.001696	28.103	0.084512	0.002093	40.3739	108.878	-170.087	0.093424	0.753871	-0.228844	-0.230171	-0.002418	40.3739	-0.228799	-383.302	6.307173E-6	NaN
101	1.000000	0.763174	7.36603e+06	-43689.1	955.818	-29778.8	0.000000	0.000000	6.763045	0.056710	NaN	0.000000	0.001551	0.001640	28.1032	0.010020	0.001958	5.118384	32.4749	-167.843	-0.000879	0.761848	-0.220869	-0.222195	0.056710	5.118384	-0.229179	-388.636	-0.000146	NaN
101	1.000000	0.771183	7.36603e+06	-43689.1	955.818	-29778.8	0.000000	0.000000	6.771052	0.006724	NaN	0.000000	0.001541	0.001645	28.1022	0.076431	0.001957	39.0483	-7.821481	-161.264	-0.071553	0.769886	-0.212859	-0.214157	0.006724	39.0483	-0.212989	-214.347	-3.136820E-5	NaN
101	1.000000	0.779191	7.36603e+06	-43689.1	955.819	-29778.8	0.000000	0.000000	6.779058	-0.032693	NaN	0.000000	0.001575	0.001650	28.1031	0.075208	0.002032	37.016	-9.897258	-167.51	0.025479	0.777862	-0.204852	-0.206180	-0.032693	37.016	-0.204189	-154.286	0.000212	NaN
101	1.000000	0.787187	7.36603e+06	-43689.1	955.819	-29778.8	0.000000	0.000000	6.787054	-0.032686	NaN	0.000000	0.001548	0.001649	28.1036	0.010677	0.002000	5.338422	-129.722	-164.4	-0.054375	0.785885	-0.196856	-0.198158	-0.032686	5.338422	-0.192263	-98.1221	0.000333	NaN
101	1.000000	0.795189	7.36603e+06	-43689.1	955.819	-29778.8	0.000000	0.000000	6.795056	-0.037496	NaN	0.000000	0.001581	0.001660	28.1032	0.118916	0.001870	63.5874	-85.6699	-164.018	0.029052	0.793901	-0.188854	-0.190141	-0.037496	63.5874	-0.188412	-84.6173	0.000443	NaN
101	1.000000	0.803176	7.36603e+06	-43689.1	955.818	-29778.8	0.000000	0.000000	6.803040	-0.090802	NaN	0.000000	0.001576	0.001682	28.1033	0.053736	0.001987	27.0395	163.105	-163.519	-0.122051	0.801918	-0.180867	-0.182124	-0.090802	27.0395	-0.178348	-57.1905	0.001588	NaN
101	1.000000	0.811213	7.36603e+06	-43689.1	955.818	-29778.8	0.000000	0.000000	6.811082	0.023231	NaN	0.000000	0.001566	0.001683	28.1038	0.121025	0.002078	58.2293	-118.201	-166.488	-0.066311	0.809953	-0.172830	-0.174090	0.023231	58.2293	-0.173129	-46.5341	-0.000499	NaN
101	1.000000	0.819236	7.36603e+06	-43689.1	955.818	-29778.8	0.000000	0.000000	6.819105	0.008265	NaN	0.000000	0.001560	0.001676	28.1028	0.091033	0.001961	46.4106	-137.955	-168.314	0.006337	0.817893	-0.164807	-0.166150	0.008265	46.4106	-0.164940	-33.5162	-0.000247	NaN
101	1.000000	0.827219	7.36603e+06	-43689.1	955.819	-29778.8	0.000000	0.000000	6.827085	-0.062635	NaN	0.000000	0.001586	0.001693	28.103	0.170047	0.002133	79.7218	-14.8621	-163.895	-0.017960	0.825914	-0.156823	-0.158129	-0.062635	79.7218	-0.156234	-23.483	0.002667	NaN
101	1.000000	0.835215	7.36603e+06	-43689.1	955.818	-29778.8	0.000000	0.000000	6.835081	-0.041763	NaN	0.000000	0.001573	0.001690	28.1029	0.084118	0.002042	41.1942	-154.084	-166.117	-0.019076	0.833905	-0.148828	-0.150138	-0.041763	41.1942	-0.148068	-16.6982	0.002501	NaN
101	1.000000	0.843207	7.36603e+06	-43689.1	955.818	-29778.8	0.000000	0.000000	6.843075	-0.016904	NaN	0.000000	0.001611	0.001694	28.1026	0.044144	0.001966	22.4591	-127.621	-167.176	0.061757	0.841940	-0.140835	-0.142103	-0.016904	22.4591	-0.140271	-11.9688	0.001412	NaN
101	1.000000	0.851205	7.36603e+06	-43689.1	955.818	-29778.8	0.000000	0.000000	6.851074	0.005960	NaN	0.000000	0.001556	0.001706	28.1032	0.037834	0.002015	18.7735	143.356	-165.498	-0.016560	0.849966	-0.132838	-0.134077	0.005960	18.7735	-0.133076	-8.738419	-0.000682	NaN
101	1.000000	0.859227	7.36603e+06	-43689.1	955.818	-29778.8	0.000000	0.000000	6.859095	-0.016272	NaN	0.000000	0.001598	0.001687	28.1034	0.046954	0.001920	24.4529	-176.632	-163.551	-0.077433	0.857918	-0.124815	-0.126125	-0.016272	24.4529	-0.124316	-5.894474	0.002760	NaN
101	1.000000	0.867230	7.36603e+06	-43689.1	955.818	-29778.8	0.000000	0.000000	6.867098	-0.013841	NaN	0.000000	0.001587	0.001696	28.1039	0.024532	0.002146	11.4312	84.0382	-166.349	-0.048765	0.865929	-0.116813	-0.118113	-0.013841	11.4312	-0.115905	-3.987687	0.003471	NaN
101	1.000000	0.875220	7.36603e+06	-43689.1	955.818	-29778.8	0.000000	0.000000	6.875087	-0.025626	NaN	0.000000	0.001605	0.001675	28.1037	0.114427	0.002041	56.0596	50.4636	-167.395	-0.059910	0.873925	-0.108823	-0.110117	-0.025626	56.0596	-0.108480	-2.790703	0.009183	NaN
101	1.000000	0.883231	7.36603e+06	-43689.1	955.818	-29778.8	0.000000	0.000000	6.883099	-0.009730	NaN	0.000000	0.001615	0.001707	28.1042	0.091016	0.002000	45.5051	-115.69	-168.752	-0.041654	0.881859	-0.100812	-0.102183	-0.009730	45.5051	-0.100652	-1.888836	0.005151	NaN
101	1.000000	0.891241	7.36603e+06	-43689.1	955.818	-29778.8	0.000000	0.000000	6.891108	-0.027894	NaN	0.000000	0.001596	0.001708	28.1032	0.173866	0.001895	91.7453	177.381	-166.312	-0.034186	0.889937	-0.092802	-0.094105	-0.027894	91.7453	-0.092574	-1.240923	0.022479	NaN
101	1.000000	0.899236	7.36603e+06	-43689.1	955.819	-29778.8	0.000000	0.000000	6.899106	0.024422	NaN	0.000000	0.001553	0.001749	28.1017	0.138948	0.001973	70.4186	77.0713	-166.763	-0.028386	0.897945	-0.084807	-0.086098	0.024422	70.4186	-0.085067	-0.824696	-0.029614	NaN
101	1.000000	0.907247	7.36603e+06	-43689.1	955.818	-29778.8	0.000000	0.000000	6.907115	-0.002279	NaN	0.000000	0.001571	0.001691	28.1024	0.054066	0.001898	28.4888	46.5772	-169.083	0.021999	0.905951	-0.076796	-0.078091	-0.002279	28.4888	-0.076736	-0.511869	0.004452	NaN
101	1.000000	0.915254	7.36603e+06	-43689.1	955.819	-29778.8	0.000000	0.000000	6.915122	-0.005009	NaN	0.000000	0.001533	0.001691	28.1022	0.080525	0.001898	42.4172	-152.35	-167.037	-0.084509	0.913946	-0.068789	-0.070097	-0.005009	42.4172	-0.068700	-0.314714	0.015916	NaN
101	1.000000	0.923253	7.36603e+06	-43689.1	955.819	-29778.8	0.000000	0.000000	6.923121	-0.027599	NaN	0.000000	0.001548	0.001673	28.1023	0.111003	0.002142	51.8164	45.7175	-167.616	0.001091	0.921962	-0.060790	-0.062080	-0.027599	51.8164	-0.060390	-0.184789	0.149356	NaN
101	1.000000	0.931226	7.36603e+06	-43689.1	955.818	-29778.8	0.000000	0.000000	6.931093	-0.049931	NaN	0.000000	0.001573	0.001645	28.1027	0.046256	0.002039	22.6808	91.4272	-168.45	-0.064130	0.929986	-0.052817	-0.054057	-0.049931	22.6808	-0.051166	-0.098948	0.504616	NaN
101	1.000000	0.939278	7.36603e+06	-43689.1	955.818	-29778.8	0.000000	0.000000	6.939143	-0.090976	NaN	0.000000	0.001584	0.001646	28.1033	0.096259	0.001970	48.8505	-169.387	-168.003	-0.011911	0.937944	-0.044764	-0.046099	-0.090976	48.8505	-0.043368	-0.057289	1.588018	NaN
101	1.000000	0.947287	7.36603e+06	-43689.1	955.819	-29778.8	0.000000	0.000000	6.947154	-0.043315	NaN	0.000000	0.001572	0.001673	28.1034	0.059204	0.002058	28.7608	-69.3702	-163.388	-0.081816	0.945948	-0.036755	-0.038094	-0.043315	28.7608	-0.035626	-0.033417	1.296225	NaN
101	1.000000	0.955261	7.36603e+06	-43689.1	955.818	-29778.8	0.000000	0.000000	6.955128	-0.023434	NaN	0.000000	0.001593	0.001684	28.1032	0.075498	0.001968	38.3655	-13.6259	-169.452	-0.027623	0.953968	-0.028782	-0.030075	-0.023434	38.3655	-0.028324	-0.020691	1.132570	NaN
101	1.000000	0.963280	7.36603e+06	-43689.1	955.818	-29778.8	0.000000	0.000000	6.963149	-0.000429	NaN	0.000000	0.001558	0.001697	28.1034	0.015963	0.002049	7.791945	-83.5731	-166.143	-0.003290	0.961953	-0.020762	-0.022089	-0.000429	7.791945	-0.020721	-0.013102	0.032760	NaN
101	1.000000	0.971270	7.36603e+06	-43689.1	955.819	-29778.8	0.000000	0.000000	6.971138	-0.012647	NaN	0.000000	0.001537	0.001686	28.1035	0.060589	0.002087	29.0348	124.121	-165.388	-0.013825	0.969904	-0.012772	-0.014139	-0.012647	29.0348	-0.012446	-0.007784	1.624845	NaN
101	1.000000	0.979259	7.36603e+06	-43689.1	955.819	-29778.8	0.000000	0.000000	6.979130	0.047174	NaN	0.000000	0.001557	0.001692	28.1024	0.041415	0.002026	20.4438	151.492	-167.887	-0.054057	0.977944	-0.004784	-0.006099	0.047174	20.4438	-0.006514	-0.004349	-10.8478	NaN
101	1.000000	0.987235	7.36603e+06	-43689.1	955.819	-29778.8	0.000000	0.000000	6.987217	2.745229	NaN	0.000000	0.001556	0.001673	28.1025	3.525350	0.001800	1958.07	10.001	-168.171	1.265849	0.985921	0.003193	0.001878	2.745229	1958.07	0.002141	0.001669	1644.63	43787.1
101	2.000000	0.992001	7.36603e+06	-43689.1	955.819	-29778.8	0.000000	0.000000	6.992215	8.389775	NaN	0.000000	0.001531	0.001694	28.1033	8.981091	0.001633	5500.24	12.4656	-176.508	9.763806	0.991637	0.007959	0.007594	8.389775	5500.24	0.006815	0.005851	1433.82	65694.2
101	2.000000	0.993973	7.36603e+06	-43689.1	955.819	-29778.8	0.000000	0.000000	6.994309	11.3636	NaN	0.000000	0.001528	0.001655	28.1028	10.5804	0.001699	6227.01	6.466783	-174.288	11.23	0.993678	0.009931	0.009635	11.3636	6227.01	0.008562	0.007627	1489.95	65144.9
101	2.000000	0.995946	7.36603e+06	-43689.1	955.819	-29778.8	0.000000	0.000000	6.996443	15.2795	NaN	0.000000	0.001544	0.001688	28.1024	12.794	0.001692	7561.31	8.406463	-176.468	14.556	0.995541	0.011904	0.011499	15.2795	7561.31	0.010388	0.009616	1588.97	70448.9
101	2.000000	0.997878	7.36603e+06	-43689.1	955.82	-29778.8	0.000000	0.000000	6.998528	19.0095	NaN	0.000000	0.001542	0.001673	28.1039	14.9087	0.001838	8112.26	5.245846	-173.146	18.3416	0.997652	0.013836	0.013609	19.0095	8112.26	0.012078	0.011584	1641.06	68864
101	2.000000	0.999950	7.36603e+06	-43689.1	955.819	-29778.8	0.000000	0.000000	7.000781	23.4293	NaN	0.000000	0.001510	0.001652	28.1054	17.4121	0.001855	9385.91	6.771213	-176.162	23.6203	0.999661	0.015907	0.015618	23.4293	9385.91	0.014035	0.014020	1671.14	72422.9
101	2.000000	1.001865	7.36603e+06	-43689.1	955.82	-29778.8	0.000000	0.000000	7.002837	26.841	NaN	0.000000	0.001566	0.001662	28.1054	19.1446	0.001844	10382.3	8.000386	-179.574	26.6076	1.001597	0.017823	0.017555	26.841	10382.3	0.015884	0.016482	1628.51	73886.1
101	2.000000	1.003900	7.36603e+06	-43689.1	955.819	-29778.8	0.000000	0.000000	7.005075	31.77	NaN	0.000000	0.001609	0.001688	28.1054	21.3838	0.001790	11946.3	7.938685	-179.098	31.6342	1.003555	0.019858	0.019513	31.77	11946.3	0.017863	0.019295	1646.55	78575.1
101	2.000000	1.005891	7.36603e+06	-43689.1	955.82	-29778.8	0.000000	0.000000	7.007328	38.1734	NaN	0.000000	0.001575	0.001687	28.1053	22.6493	0.001820	12447	6.580276	-178.372	38.2215	1.005558	0.021848	0.021515	38.1734	12447	0.019548	0.021837	1748.11	76956.3
101	2.000000	1.007841	7.36603e+06	-43689.1	955.82	-29778.8	0.000000	0.000000	7.009590	45.7474	NaN	0.000000	0.001599	0.001678	28.1043	25.4072	0.001848	13751.7	8.115529	-179.977	44.2828	1.007510	0.023798	0.023467	45.7474	13751.7	0.021303	0.024632	1857.25	80053.9
101	2.000000	1.009867	7.36603e+06	-43689.1	955.819	-29778.8	0.000000	0.000000	7.011786	49.8851	NaN	0.000000	0.001570	0.001683	28.1041	26.6639	0.001790	14893.6	7.628484	178.653	48.4472	1.009611	0.025825	0.025568	49.8851	14893.6	0.023313	0.028017	1780.5	81293.8
101	2.000000	1.011870	7.36603e+06	-43689.1	955.82	-29778.8	0.000000	0.000000	7.014136	58.3318	NaN	0.000000	0.001612	0.001662	28.1048	27.8769	0.001822	15296.4	2.409361	-179.101	57.4998	1.011545	0.027827	0.027502	58.3318	15296.4	0.024967	0.030955	1884.38	79431.7
101	2.000000	1.013865	7.36603e+06	-43689.1	955.819	-29778.8	0.000000	0.000000	7.016417	65.2968	NaN	0.000000	0.001619	0.001692	28.1039	32.0218	0.001893	16914.2	7.462323	177.626	64.3499	1.013527	0.029822	0.029484	65.2968	16914.2	0.026927	0.034614	1886.43	83061.4
101	2.000000	1.015852	7.36603e+06	-43689.1	955.819	-29778.8	0.000000	0.000000	7.019003	79.8507	NaN	0.000000	0.001619	0.001674	28.1044	34.2936	0.001831	18729.6	8.088652	175.888	77.4804	1.015452	0.031809	0.031409	79.8507	18729.6	0.028612	0.037916	2105.99	87880.1
101	2.000000	1.017830	7.36603e+06	-43689.1	955.82	-29778.8	0.000000	0.000000	7.021340	88.5737	NaN	0.000000	0.001634	0.001715	28.1054	35.6644	0.001852	19257.5	6.290870	177.665	87.8626	1.017535	0.033788	0.033493	88.5737	19257.5	0.030338	0.041448	2137	86422
101	2.000000	1.019870	7.36603e+06	-43689.1	955.82	-29778.8	0.000000	0.000000	7.023690	96.1211	NaN	0.000000	0.001598	0.001703	28.1048	37.2227	0.001833	20308.5	4.164340	178.948	94.6604	1.019567	0.035828	0.035524	96.1211	20308.5	0.032278	0.045598	2108.03	86891.9
101	2.000000	1.021837	7.36603e+06	-43689.1	955.82	-29778.8	0.000000	0.000000	7.026289	111.509	NaN	0.000000	0.001619	0.001664	28.106	39.0297	0.001800	21677.6	5.189934	177.235	110.953	1.021456	0.037795	0.037413	111.509	21677.6	0.033937	0.049299	2261.91	89200.3
101	2.000000	1.023795	7.36603e+06	-43689.1	955.82	-29778.8	0.000000	0.000000	7.028568	119.316	NaN	0.000000	0.001597	0.001697	28.1057	40.5418	0.001624	24960.9	0.892492	179.763	116.75	1.023621	0.039753	0.039578	119.316	24960.9	0.036168	0.054500	2189.29	97686.6
101	2.000000	1.025835	7.36603e+06	-43689.1	955.82	-29778.8	0.000000	0.000000	7.031238	134.634	NaN	0.000000	0.001618	0.001692	28.1057	41.7661	0.001779	23472.2	4.019186	177.75	133.521	1.025515	0.041792	0.041472	134.634	23472.2	0.037491	0.057704	2333.19	89274
101	2.000000	1.027848	7.36603e+06	-43689.1	955.82	-29778.8	0.000000	0.000000	7.033512	140.99	NaN	0.000000	0.001598	0.001677	28.105	44.8144	0.001708	26236	5.887703	173.945	140.233	1.027618	0.043805	0.043576	140.99	26236	0.039775	0.063448	2222.12	95161.3
101	2.000000	1.029846	7.36603e+06	-43689.1	955.82	-29778.8	0.000000	0.000000	7.036234	158.62	NaN	0.000000	0.001601	0.001662	28.1042	46.9336	0.001819	25796.9	1.973295	-179.745	156.541	1.029376	0.045803	0.045333	158.62	25796.9	0.041192	0.067145	2362.35	90956.8
101	2.000000	1.031815	7.36603e+06	-43689.1	955.821	-29778.8	0.000000	0.000000	7.038747	171.853	NaN	0.000000	0.001583	0.001685	28.1046	49.0465	0.001790	27399.8	5.025421	175.138	169.471	1.031433	0.047772	0.047390	171.853	27399.8	0.043068	0.072198	2380.29	93165.8
101	2.000000	1.033796	7.36603e+06	-43689.1	955.821	-29778.8	0.000000	0.000000	7.040914	176.376	NaN	0.000000	0.001617	0.001680	28.1034	51.4137	0.001816	28309	5.965007	173.957	173.796	1.033516	0.049753	0.049473	176.376	28309	0.045080	0.077815	2266.6	92718.3
101	2.000000	1.035785	7.36603e+06	-43689.1	955.82	-29778.8	0.000000	0.000000	7.043589	193.047	NaN	0.000000	0.001606	0.001668	28.1038	51.5657	0.001786	28868.8	1.949223	178.449	191.012	1.035470	0.051743	0.051427	193.047	28868.8	0.046727	0.082567	2338.07	91790.9
101	2.000000	1.037801	7.36603e+06	-43689.1	955.821	-29778.8	0.000000	0.000000	7.046195	207.423	NaN	0.000000	0.001639	0.001691	28.1049	55.3868	0.001886	29363.1	7.464780	172.69	205.253	1.037418	0.053758	0.053375	207.423	29363.1	0.048460	0.087712	2364.82	90582.7
101	2.000000	1.039796	7.36603e+06	-43689.1	955.821	-29778.8	0.000000	0.000000	7.048629	218.108	NaN	0.000000	0.001566	0.001664	28.1044	56.8801	0.001874	30359.4	5.811465	173.745	214.777	1.039424	0.055753	0.055382	218.108	30359.4	0.050365	0.093544	2331.62	90690
101	2.000000	1.041800	7.36603e+06	-43689.1	955.821	-29778.8	0.000000	0.000000	7.051232	232.666	NaN	0.000000	0.001540	0.001647	28.1042	58.1469	0.001886	30831.7	5.405202	174.271	231.333	1.041535	0.057757	0.057493	232.666	30831.7	0.052098	0.099007	2350	89523.9
101	2.000000	1.043847	7.36603e+06	-43689.1	955.821	-29778.8	0.000000	0.000000	7.053717	243.311	NaN	0.000000	0.001552	0.001673	28.1045	60.1647	0.001809	33255.5	7.618911	170.756	245.189	1.043536	0.059805	0.059494	243.311	33255.5	0.054317	0.106224	2290.56	93223.8
101	2.000000	1.045805	7.36603e+06	-43689.1	955.821	-29778.8	0.000000	0.000000	7.056275	257.93	NaN	0.000000	0.001555	0.001672	28.1054	60.2579	0.001776	33930.7	3.820211	175.254	260.001	1.045559	0.061762	0.061516	257.93	33930.7	0.056061	0.112064	2301.64	92604.8
101	2.000000	1.047793	7.36603e+06	-43689.1	955.822	-29778.8	0.000000	0.000000	7.058793	270.808	NaN	0.000000	0.001526	0.001673	28.1035	63.1985	0.001854	34080.1	6.510306	172.872	269.382	1.047491	0.063750	0.063448	270.808	34080.1	0.057791	0.118006	2294.87	90640.6
101	2.000000	1.049814	7.36603e+06	-43689.1	955.82	-29778.8	0.000000	0.000000	7.061114	278.111	NaN	0.000000	0.001563	0.001677	28.103	64.6706	0.001855	34869.4	5.632699	173.872	277.885	1.049468	0.065772	0.065426	278.111	34869.4	0.059790	0.125056	2223.9	90087.8
101	2.000000	1.051801	7.36603e+06	-43689.1	955.82	-29778.8	0.000000	0.000000	7.063637	291.165	NaN	0.000000	0.001547	0.001665	28.1044	65.8091	0.001795	36670.6	3.015433	175.023	287.393	1.051357	0.067758	0.067315	291.165	36670.6	0.061803	0.132355	2199.89	92092
101	2.000000	1.053892	7.36603e+06	-43689.1	955.82	-29778.8	0.000000	0.000000	7.066396	307.408	NaN	0.000000	0.001547	0.001669	28.1038	67.9028	0.001676	40509.3	2.988247	174.702	311.497	1.053458	0.069849	0.069415	307.408	40509.3	0.064158	0.141139	2178.05	98515.4
101	2.000000	1.055741	7.36603e+06	-43689.1	955.821	-29778.8	0.000000	0.000000	7.068956	324.707	NaN	0.000000	0.001541	0.001683	28.1032	69.0694	0.001818	37983.9	4.978093	172.99	322.194	1.055479	0.071698	0.071437	324.707	37983.9	0.065287	0.145446	2232.5	90996
101	2.000000	1.057771	7.36603e+06	-43689.1	955.821	-29778.8	0.000000	0.000000	7.071484	336.82	NaN	0.000000	0.001527	0.001717	28.1053	71.4642	0.001875	38117.3	2.993878	174.824	335.076	1.057517	0.073728	0.073475	336.82	38117.3	0.067101	0.152496	2208.71	89179.7
101	2.000000	1.059816	7.36603e+06	-43689.1	955.822	-29778.8	0.000000	0.000000	7.073952	347.103	NaN	0.000000	0.001571	0.001668	28.1044	72.0768	0.001697	42482.1	3.669616	173.508	346.686	1.059474	0.075774	0.075431	347.103	42482.1	0.069646	0.162650	2134.05	96239.4
101	2.000000	1.061742	7.36603e+06	-43689.1	955.821	-29778.8	0.000000	0.000000	7.076533	363.073	NaN	0.000000	0.001538	0.001633	28.1053	73.265	0.001735	42215.7	2.113438	174.959	358.173	1.061413	0.077699	0.077370	363.073	42215.7	0.071249	0.169204	2145.77	93765.2
101	2.000000	1.063833	7.36603e+06	-43689.1	955.821	-29778.8	0.000000	0.000000	7.079053	373.479	NaN	0.000000	0.001536	0.001673	28.1051	75.7866	0.001715	44178.7	2.405224	173.955	373.221	1.063512	0.079791	0.079469	373.479	44178.7	0.073450	0.178405	2093.43	95561.4
101	2.000000	1.065791	7.36603e+06	-43689.1	955.82	-29778.8	0.000000	0.000000	7.081747	391.384	NaN	0.000000	0.001521	0.001700	28.1054	76.4496	0.001707	44780	3.182564	173.478	391.324	1.065441	0.081748	0.081399	391.384	44780	0.075193	0.185853	2105.88	94901.3
101	2.000000	1.067815	7.36603e+06	-43689.1	955.82	-29778.8	0.000000	0.000000	7.084239	402.781	NaN	0.000000	0.001523	0.001682	28.106	78.7232	0.001818	43310.7	1.329840	175.937	404.546	1.067572	0.083772	0.083530	402.781	43310.7	0.076797	0.192833	2088.76	90111.1
101	2.000000	1.069789	7.36603e+06	-43689.1	955.82	-29778.8	0.000000	0.000000	7.086652	413.478	NaN	0.000000	0.001547	0.001687	28.1069	81.1118	0.001788	45368.2	5.661773	170.65	413.382	1.069493	0.085746	0.085450	413.478	45368.2	0.078911	0.202212	2044.78	92176.7
101	2.000000	1.071736	7.36603e+06	-43689.1	955.82	-29778.8	0.000000	0.000000	7.089251	429.339	NaN	0.000000	0.001543	0.001599	28.1058	82.5662	0.001829	45151.7	6.971626	170.147	426.134	1.071427	0.087693	0.087385	429.339	45151.7	0.080561	0.209683	2047.56	90087.7
101	2.000000	1.073793	7.36603e+06	-43689.1	955.82	-29778.8	0.000000	0.000000	7.091715	439.216	NaN	0.000000	0.001541	0.001679	28.1063	84.2153	0.001826	46125.6	5.089971	171.314	440.647	1.073500	0.089751	0.089457	439.216	46125.6	0.082609	0.219128	2004.38	90025.5
101	2.000000	1.075860	7.36603e+06	-43689.1	955.821	-29778.8	0.000000	0.000000	7.094273	451.188	NaN	0.000000	0.001567	0.001697	28.1062	84.4138	0.001743	48428.2	4.221712	171.997	453.151	1.075618	0.091817	0.091575	451.188	48428.2	0.084830	0.229589	1965.19	92341.2
101	2.000000	1.077745	7.36603e+06	-43689.1	955.821	-29778.8	0.000000	0.000000	7.096917	469.623	NaN	0.000000	0.001530	0.001643	28.1067	86.7981	0.001784	48649.4	5.167829	170.52	467.213	1.077438	0.093703	0.093395	469.623	48649.4	0.086463	0.237429	1977.96	91218.7
101	2.000000	1.079737	7.36603e+06	-43689.1	955.821	-29778.8	0.000000	0.000000	7.099406	481.728	NaN	0.000000	0.001545	0.001643	28.1076	88.9064	0.001844	48205.2	4.498403	172.455	477.73	1.079403	0.095694	0.095360	481.728	48205.2	0.088199	0.245898	1959.05	88815.6
101	2.000000	1.081683	7.36603e+06	-43689.1	955.821	-29778.8	0.000000	0.000000	7.101884	494.669	NaN	0.000000	0.001583	0.001601	28.1067	91.5175	0.001742	52548.9	9.163721	166.439	491.327	1.081429	0.097641	0.097387	494.669	52548.9	0.090580	0.257739	1919.26	94568.5
101	2.000000	1.083738	7.36603e+06	-43689.1	955.821	-29778.8	0.000000	0.000000	7.104509	508.554	NaN	0.000000	0.001579	0.001668	28.1072	93.0324	0.001792	51913.2	6.616441	169.002	507.724	1.083498	0.099695	0.099455	508.554	51913.2	0.092348	0.266696	1906.87	91842.3
101	2.000000	1.085742	7.36603e+06	-43689.1	955.822	-29778.8	0.000000	0.000000	7.107170	524.543	NaN	0.000000	0.001574	0.001637	28.1067	92.7661	0.001765	52550.6	2.782241	172.639	523.408	1.085460	0.101699	0.101418	524.543	52550.6	0.094213	0.276301	1898.45	91339.6
101	2.000000	1.087800	7.36603e+06	-43689.1	955.821	-29778.8	0.000000	0.000000	7.109721	536.509	NaN	0.000000	0.001565	0.001674	28.1064	95.7845	0.001960	48879.2	3.430040	172.541	537.109	1.087318	0.103757	0.103275	536.509	48879.2	0.095525	0.283156	1894.75	83923.7
101	2.000000	1.089142	7.36603e+06	-43689.1	955.821	-29778.8	0.000000	0.000000	7.111666	551.193	NaN	0.000000	0.001543	0.001683	28.1255	95.9519	0.001773	54117.5	6.900986	-11.6763	543.554	1.088817	0.105099	0.104774	551.193	54117.5	0.097460	0.293406	1878.6	91280.1