File: remote_trans/data/nanoindenter/0828-1/data/Data_2025-08-06,11h17m57s/2025-07-22_16-23-58_1_136.txt
2025-07-22, 16:23:58, 1
Index	Phase	Displacement	Time	Pos X	Pos Y	Pos Z	Rot A	Rot B	Piezo Z	Force A	Force B	Gripper	Voltage A	Voltage B	Temperature	Amplitude force	Amplitude pos	Stiffness	Phase shift	Phase excitation	Force A raw	Displacement raw	HMax	HMax raw	Real Force	Real Stiffness	Contact Depth	Area	Hardness	Reduced Mod.
[#]	[#]	[um]	[s]	[um]	[um]	[um]	[m°]	[m°]	[um]	[uN]	[uN]	[V]	[V]	[V]	[°C]	[uN]	[um]	[N/m]	[°]	[°]	[uN]	[um]	[um]	[um]	[uN]	[N/m]	[um]	[um^2]	[MPa]	[MPa]
136	1.000000	0.001713	7.36637e+06	-45439.1	955.818	-29773	0.000000	0.000000	6.002773	-0.040524	NaN	0.000000	0.001624	0.001734	28.1285	0.031740	0.000937	33.8564	-130.095	-164.878	-0.044261	0.000447	-1.016777	-1.018043	-0.040524	33.8564	-1.015879	-3.711110E+13	1.091961E-15	NaN
136	1.000000	0.009710	7.36637e+06	-45439.1	955.819	-29773	0.000000	0.000000	6.010773	0.027848	NaN	0.000000	0.001635	0.001732	28.1279	0.081260	0.000887	91.6516	86.1517	-162.994	0.005528	0.008406	-1.008781	-1.010084	0.027848	91.6516	-1.009008	-2.999411E+13	-9.284343E-16	NaN
136	1.000000	0.017729	7.36637e+06	-45439.1	955.818	-29773	0.000000	0.000000	6.018790	-0.014166	NaN	0.000000	0.001633	0.001754	28.1274	0.107166	0.001670	64.1622	-40.8039	-164.716	-0.063533	0.016389	-1.000761	-1.002101	-0.014166	64.1622	-1.000595	-2.310919E+13	6.129994E-16	NaN
136	1.000000	0.025732	7.36637e+06	-45439.1	955.819	-29773	0.000000	0.000000	6.026795	0.005391	NaN	0.000000	0.001628	0.001730	28.1273	0.102948	0.001753	58.712	154.15	-164.081	-0.051030	0.024373	-0.992758	-0.994117	0.005391	58.712	-0.992827	-1.816261E+13	-2.968201E-16	NaN
136	1.000000	0.033718	7.36637e+06	-45439.1	955.818	-29773	0.000000	0.000000	6.034780	-0.009738	NaN	0.000000	0.001662	0.001737	28.1277	0.016643	0.001896	8.777595	44.9751	-162.252	-0.035027	0.032431	-0.984772	-0.986059	-0.009738	8.777595	-0.983940	-1.378758E+13	7.063018E-16	NaN
136	1.000000	0.041679	7.36637e+06	-45439.1	955.818	-29773	0.000000	0.000000	6.042741	0.013681	NaN	0.000000	0.001638	0.001724	28.1277	0.083302	0.001971	42.2726	25.0765	-163.46	-0.020963	0.040382	-0.976811	-0.978108	0.013681	42.2726	-0.977054	-1.113579E+13	-1.228537E-15	NaN
136	1.000000	0.049696	7.36637e+06	-45439.1	955.819	-29773	0.000000	0.000000	6.050756	-0.028887	NaN	0.000000	0.001639	0.001775	28.1278	0.100678	0.002030	49.605	-85.3614	-163.495	-0.050871	0.048365	-0.968795	-0.970125	-0.028887	49.605	-0.968358	-8.502175E+12	3.397544E-15	NaN
136	1.000000	0.057716	7.36637e+06	-45439.1	955.818	-29773	0.000000	0.000000	6.058778	-0.010104	NaN	0.000000	0.001643	0.001760	28.1288	0.123980	0.001970	62.9261	-121.747	-163.723	-0.015913	0.056385	-0.960774	-0.962106	-0.010104	62.9261	-0.960653	-6.693854E+12	1.509499E-15	NaN
136	1.000000	0.065726	7.36637e+06	-45439.1	955.818	-29773	0.000000	0.000000	6.066785	-0.065227	NaN	0.000000	0.001624	0.001743	28.1284	0.124359	0.002014	61.7458	-179.318	-165.249	-0.053243	0.064381	-0.952764	-0.954109	-0.065227	61.7458	-0.951972	-5.112400E+12	1.275857E-14	NaN
136	1.000000	0.073686	7.36637e+06	-45439.1	955.818	-29773	0.000000	0.000000	6.074748	0.008691	NaN	0.000000	0.001618	0.001744	28.1283	0.043069	0.002004	21.491	-65.9217	-164.438	0.001906	0.072400	-0.944804	-0.946090	0.008691	21.491	-0.945108	-4.130848E+12	-2.104044E-15	NaN
136	1.000000	0.081706	7.36637e+06	-45439.1	955.819	-29773	0.000000	0.000000	6.082765	-0.055145	NaN	0.000000	0.001600	0.001724	28.1285	0.108596	0.001913	56.7818	-125.8	-165.365	-0.042038	0.080399	-0.936784	-0.938091	-0.055145	56.7818	-0.936056	-3.118335E+12	1.768406E-14	NaN
136	1.000000	0.089709	7.36637e+06	-45439.1	955.818	-29773	0.000000	0.000000	6.090770	-0.008659	NaN	0.000000	0.001608	0.001737	28.128	0.027558	0.002012	13.694	-85.8096	-164.887	-0.055735	0.088462	-0.928781	-0.930028	-0.008659	13.694	-0.928307	-2.451030E+12	3.532725E-15	NaN
136	1.000000	0.097701	7.36637e+06	-45439.1	955.818	-29773	0.000000	0.000000	6.098760	-0.056622	NaN	0.000000	0.001651	0.001729	28.1281	0.044241	0.002198	20.132	-150.945	-164.312	-0.084894	0.096444	-0.920789	-0.922046	-0.056622	20.132	-0.918680	-1.817111E+12	3.116059E-14	NaN
136	1.000000	0.105703	7.36637e+06	-45439.1	955.819	-29773	0.000000	0.000000	6.106764	-0.026889	NaN	0.000000	0.001632	0.001770	28.1284	0.031314	0.001955	16.0216	40.8494	-166.171	0.015434	0.104394	-0.912787	-0.914096	-0.026889	16.0216	-0.911528	-1.454792E+12	1.848291E-14	NaN
136	1.000000	0.113713	7.36637e+06	-45439.1	955.817	-29773	0.000000	0.000000	6.114773	-0.048984	NaN	0.000000	0.001617	0.001723	28.1283	0.009923	0.001918	5.173796	72.7948	-165.629	0.001208	0.112366	-0.904777	-0.906125	-0.048984	5.173796	-0.897676	-9.454981E+11	5.180715E-14	NaN
136	1.000000	0.121721	7.36637e+06	-45439.1	955.818	-29773	0.000000	0.000000	6.122780	-0.069599	NaN	0.000000	0.001630	0.001759	28.1283	0.043818	0.002042	21.4618	113.735	-161.752	-0.127802	0.120445	-0.896769	-0.898045	-0.069599	21.4618	-0.894337	-8.521904E+11	8.167117E-14	NaN
136	1.000000	0.129756	7.36637e+06	-45439.1	955.818	-29773	0.000000	0.000000	6.130816	-0.044626	NaN	0.000000	0.001649	0.001738	28.1287	0.067648	0.002074	32.6175	-82.0219	-163.228	-0.013133	0.128407	-0.888734	-0.890083	-0.044626	32.6175	-0.887708	-6.933096E+11	6.436604E-14	NaN
136	1.000000	0.137715	7.36637e+06	-45439.1	955.818	-29773	0.000000	0.000000	6.138776	-0.036009	NaN	0.000000	0.001640	0.001735	28.1296	0.050580	0.002099	24.0949	78.2404	-164.403	-0.020317	0.136455	-0.880775	-0.882035	-0.036009	24.0949	-0.879654	-5.395439E+11	6.674055E-14	NaN
136	1.000000	0.145676	7.36637e+06	-45439.1	955.818	-29773	0.000000	0.000000	6.146738	0.004493	NaN	0.000000	0.001627	0.001702	28.1295	0.092544	0.002085	44.3846	72.2278	-165.591	-0.059856	0.144415	-0.872814	-0.874075	0.004493	44.3846	-0.872890	-4.370584E+11	-1.027996E-14	NaN
136	1.000000	0.153758	7.36637e+06	-45439.1	955.818	-29773	0.000000	0.000000	6.154815	-0.101780	NaN	0.000000	0.001629	0.001720	28.1294	0.072612	0.001903	38.153	-86.4692	-166.073	-0.081730	0.152384	-0.864732	-0.866106	-0.101780	38.153	-0.862732	-3.184881E+11	3.195718E-13	NaN
136	1.000000	0.161760	7.36637e+06	-45439.1	955.818	-29773	0.000000	0.000000	6.162819	-0.074760	NaN	0.000000	0.001609	0.001689	28.1292	0.012126	0.002081	5.825871	-50.1912	-167.886	0.019148	0.160459	-0.856730	-0.858031	-0.074760	5.825871	-0.847106	-1.956775E+11	3.820569E-13	NaN
136	1.000000	0.169735	7.36637e+06	-45439.1	955.819	-29773	0.000000	0.000000	6.170794	-0.057250	NaN	0.000000	0.001658	0.001676	28.129	0.042034	0.002144	19.6038	-99.0013	-166.384	-0.089042	0.168449	-0.848755	-0.850041	-0.057250	19.6038	-0.846565	-1.924072E+11	2.975469E-13	NaN
136	1.000000	0.177751	7.36637e+06	-45439.1	955.818	-29773	0.000000	0.000000	6.178813	-0.009451	NaN	0.000000	0.001649	0.001742	28.1288	0.102672	0.001913	53.6729	87.6922	-169.592	-0.042305	0.176444	-0.840739	-0.842046	-0.009451	53.6729	-0.840607	-1.597778E+11	5.915234E-14	NaN
136	1.000000	0.185748	7.36637e+06	-45439.1	955.818	-29773	0.000000	0.000000	6.186808	-0.049558	NaN	0.000000	0.001619	0.001730	28.1283	0.069038	0.001948	35.4335	-13.609	-168.066	-0.053565	0.184378	-0.832742	-0.834112	-0.049558	35.4335	-0.831693	-1.209864E+11	4.096182E-13	NaN
136	1.000000	0.193784	7.36637e+06	-45439.1	955.819	-29773	0.000000	0.000000	6.194845	-0.024169	NaN	0.000000	0.001600	0.001716	28.1283	0.038544	0.001986	19.4071	88.0467	-166.566	-0.014342	0.192474	-0.824706	-0.826016	-0.024169	19.4071	-0.823772	-9.448498E+10	2.557990E-13	NaN
136	1.000000	0.201757	7.36637e+06	-45439.1	955.819	-29773	0.000000	0.000000	6.202818	-0.023339	NaN	0.000000	0.001614	0.001723	28.1286	0.076343	0.001966	38.8365	-156.568	-164.229	-0.071040	0.200431	-0.816733	-0.818059	-0.023339	38.8365	-0.816283	-7.478192E+10	3.120880E-13	NaN
136	1.000000	0.209749	7.36637e+06	-45439.1	955.818	-29773	0.000000	0.000000	6.210806	-0.112284	NaN	0.000000	0.001654	0.001710	28.1286	0.126827	0.001863	68.0588	73.8986	-164.867	-0.095169	0.208465	-0.808741	-0.810025	-0.112284	68.0588	-0.807504	-5.684642E+10	1.975211E-12	NaN
136	1.000000	0.217767	7.36637e+06	-45439.1	955.819	-29773	0.000000	0.000000	6.218828	-0.035154	NaN	0.000000	0.001613	0.001721	28.1297	0.132733	0.002000	66.3557	-66.8687	-168.973	0.007429	0.216438	-0.800723	-0.802052	-0.035154	66.3557	-0.800325	-4.542350E+10	7.739158E-13	NaN
136	1.000000	0.225736	7.36637e+06	-45439.1	955.818	-29773	0.000000	0.000000	6.226795	-0.071867	NaN	0.000000	0.001597	0.001768	28.1294	0.032387	0.001956	16.5602	-117.151	-163.215	-0.049924	0.224431	-0.792754	-0.794059	-0.071867	16.5602	-0.789499	-3.238048E+10	2.219468E-12	NaN
136	1.000000	0.233767	7.36637e+06	-45439.1	955.818	-29773	0.000000	0.000000	6.234827	-0.042175	NaN	0.000000	0.001590	0.001743	28.1291	0.028189	0.002008	14.0411	-71.7649	-165.065	-0.047868	0.232500	-0.784723	-0.785990	-0.042175	14.0411	-0.782470	-2.598954E+10	1.622771E-12	NaN
136	1.000000	0.241746	7.36637e+06	-45439.1	955.819	-29773	0.000000	0.000000	6.242805	-0.071591	NaN	0.000000	0.001612	0.001739	28.1282	0.027140	0.002162	12.5546	-128.858	-165.208	0.039571	0.240448	-0.776744	-0.778042	-0.071591	12.5546	-0.772467	-1.900393E+10	3.767191E-12	NaN
136	1.000000	0.249771	7.36637e+06	-45439.1	955.818	-29773	0.000000	0.000000	6.250830	-0.085723	NaN	0.000000	0.001595	0.001750	28.1276	0.142835	0.001896	75.3399	-159.068	-163.507	-0.088199	0.248470	-0.768719	-0.770020	-0.085723	75.3399	-0.767865	-1.645432E+10	5.209767E-12	NaN
136	1.000000	0.257765	7.36637e+06	-45439.1	955.818	-29773	0.000000	0.000000	6.258827	-0.003191	NaN	0.000000	0.001668	0.001726	28.1274	0.038374	0.001942	19.7611	-157.232	-166.114	0.050773	0.256457	-0.760725	-0.762033	-0.003191	19.7611	-0.760604	-1.310728E+10	2.434463E-13	NaN
136	1.000000	0.265758	7.36637e+06	-45439.1	955.818	-29773	0.000000	0.000000	6.266819	-0.010041	NaN	0.000000	0.001666	0.001698	28.1268	0.055796	0.001980	28.1766	-129.758	-165.876	0.002179	0.264493	-0.752733	-0.753997	-0.010041	28.1766	-0.752465	-1.015722E+10	9.886067E-13	NaN
136	1.000000	0.273808	7.36637e+06	-45439.1	955.819	-29773	0.000000	0.000000	6.274867	-0.070031	NaN	0.000000	0.001607	0.001706	28.1267	0.047526	0.001950	24.3675	164.361	-165.372	-0.031420	0.272471	-0.744682	-0.746019	-0.070031	24.3675	-0.742527	-7.438234E+9	9.415058E-12	NaN
136	1.000000	0.281768	7.36637e+06	-45439.1	955.818	-29773	0.000000	0.000000	6.282828	-0.057912	NaN	0.000000	0.001581	0.001716	28.127	0.052843	0.001968	26.8496	-153.58	-168.683	-0.019718	0.280485	-0.736722	-0.738005	-0.057912	26.8496	-0.735104	-5.893308E+9	9.826799E-12	NaN
136	1.000000	0.289788	7.36637e+06	-45439.1	955.818	-29773	0.000000	0.000000	6.290846	-0.100384	NaN	0.000000	0.001656	0.001714	28.1272	0.085138	0.002042	41.685	-172.391	-167.886	-0.061532	0.288500	-0.728702	-0.729990	-0.100384	41.685	-0.726895	-4.555039E+9	2.203804E-11	NaN
136	1.000000	0.297780	7.36637e+06	-45439.1	955.818	-29773	0.000000	0.000000	6.298839	-0.071374	NaN	0.000000	0.001613	0.001687	28.1277	0.092953	0.002029	45.8184	-163.774	-167.433	-0.046166	0.296418	-0.720710	-0.722072	-0.071374	45.8184	-0.719541	-3.615924E+9	1.973881E-11	NaN
136	1.000000	0.305813	7.36637e+06	-45439.1	955.818	-29773	0.000000	0.000000	6.306873	-0.038269	NaN	0.000000	0.001605	0.001703	28.1278	0.049682	0.001990	24.9639	-163.361	-164.611	-0.025261	0.304504	-0.712677	-0.713986	-0.038269	24.9639	-0.711528	-2.811212E+9	1.361315E-11	NaN
136	1.000000	0.313818	7.36637e+06	-45439.1	955.819	-29773	0.000000	0.000000	6.314879	-0.023916	NaN	0.000000	0.001620	0.001729	28.1282	0.109125	0.001969	55.4098	152.671	-166.54	0.028491	0.312511	-0.704672	-0.705979	-0.023916	55.4098	-0.704348	-2.243398E+9	1.066042E-11	NaN
136	1.000000	0.321810	7.36637e+06	-45439.1	955.818	-29773	0.000000	0.000000	6.322871	-0.007875	NaN	0.000000	0.001609	0.001767	28.1283	0.102119	0.002024	50.4454	-107.613	-168.402	0.007266	0.320512	-0.696681	-0.697978	-0.007875	50.4454	-0.696563	-1.756283E+9	4.483862E-12	NaN
136	1.000000	0.329776	7.36637e+06	-45439.1	955.818	-29773	0.000000	0.000000	6.330833	-0.111926	NaN	0.000000	0.001589	0.001759	28.127	0.096199	0.001873	51.3546	-59.8855	-169.078	0.008377	0.328514	-0.688714	-0.689977	-0.111926	51.3546	-0.687080	-1.303179E+9	8.588690E-11	NaN
136	1.000000	0.337795	7.36637e+06	-45439.1	955.818	-29773	0.000000	0.000000	6.338857	-0.010704	NaN	0.000000	0.001599	0.001751	28.1265	0.105831	0.001998	52.9782	12.0855	-163.319	-0.040711	0.336513	-0.680695	-0.681977	-0.010704	52.9782	-0.680543	-1.060811E+9	1.009080E-11	NaN
136	1.000000	0.345857	7.36637e+06	-45439.1	955.818	-29773	0.000000	0.000000	6.346917	-0.031485	NaN	0.000000	0.001573	0.001760	28.1269	0.017997	0.002114	8.515339	8.588134	-166.091	-0.113370	0.344499	-0.672634	-0.673991	-0.031485	8.515339	-0.669860	-7.576702E+8	4.155496E-11	NaN
136	1.000000	0.353793	7.36637e+06	-45439.1	955.818	-29773	0.000000	0.000000	6.354853	-0.050524	NaN	0.000000	0.001647	0.001773	28.1262	0.024041	0.001933	12.4344	90.6435	-164.008	-0.037807	0.352506	-0.664697	-0.665984	-0.050524	12.4344	-0.661650	-5.848738E+8	8.638436E-11	NaN
136	1.000000	0.361819	7.36637e+06	-45439.1	955.819	-29773	0.000000	0.000000	6.362879	-0.045147	NaN	0.000000	0.001666	0.001755	28.1266	0.067627	0.002004	33.7478	-177.11	-166.384	0.000575	0.360510	-0.656671	-0.657980	-0.045147	33.7478	-0.655668	-4.842997E+8	9.322132E-11	NaN
136	1.000000	0.369783	7.36637e+06	-45439.1	955.819	-29773	0.000000	0.000000	6.370847	0.055186	NaN	0.000000	0.001653	0.001746	28.1268	0.040618	0.002011	20.1946	-150.619	-163.35	0.081753	0.368524	-0.648707	-0.649966	0.055186	20.1946	-0.650757	-4.147725E+8	-1.330509E-10	NaN
136	1.000000	0.377795	7.36637e+06	-45439.1	955.818	-29773	0.000000	0.000000	6.378855	-0.039178	NaN	0.000000	0.001673	0.001759	28.1285	0.109269	0.001951	56.0086	-162.4	-168.59	0.001154	0.376523	-0.640695	-0.641967	-0.039178	56.0086	-0.640171	-2.969164E+8	1.319488E-10	NaN
136	1.000000	0.385809	7.36637e+06	-45439.1	955.818	-29773	0.000000	0.000000	6.386870	-0.016206	NaN	0.000000	0.001658	0.001763	28.1288	0.147367	0.001972	74.7451	67.2101	-165.202	-0.030486	0.384574	-0.632681	-0.633916	-0.016206	74.7451	-0.632519	-2.331356E+8	6.951344E-11	NaN
136	1.000000	0.393827	7.36637e+06	-45439.1	955.818	-29773	0.000000	0.000000	6.394887	-0.033377	NaN	0.000000	0.001691	0.001740	28.1286	0.070459	0.001966	35.8382	7.668104	-167.001	-0.024198	0.392521	-0.624663	-0.625969	-0.033377	35.8382	-0.623965	-1.778770E+8	1.876399E-10	NaN
136	1.000000	0.401802	7.36637e+06	-45439.1	955.818	-29773	0.000000	0.000000	6.402863	-0.032128	NaN	0.000000	0.001673	0.001771	28.1289	0.071257	0.002067	34.4708	-89.9491	-166.954	0.036193	0.400598	-0.616688	-0.617892	-0.032128	34.4708	-0.615989	-1.381949E+8	2.324867E-10	NaN
136	1.000000	0.409822	7.36637e+06	-45439.1	955.818	-29773	0.000000	0.000000	6.410881	-0.074648	NaN	0.000000	0.001672	0.001760	28.1278	0.006168	0.002031	3.036731	-33.2294	-165.286	-0.068057	0.408534	-0.608668	-0.609956	-0.074648	3.036731	-0.590232	-6.107509E+7	1.222236E-9	NaN
136	1.000000	0.417854	7.36637e+06	-45439.1	955.819	-29773	0.000000	0.000000	6.418909	-0.160151	NaN	0.000000	0.001647	0.001778	28.1274	0.096350	0.001926	50.0179	-71.6384	-165.765	-0.015978	0.416541	-0.600636	-0.601949	-0.160151	50.0179	-0.598235	-7.873126E+7	2.034147E-9	NaN
136	1.000000	0.425844	7.36637e+06	-45439.1	955.817	-29773	0.000000	0.000000	6.426905	-0.024003	NaN	0.000000	0.001644	0.001740	28.1274	0.015108	0.001876	8.051785	-116.391	-163.439	-0.050828	0.424549	-0.592646	-0.593941	-0.024003	8.051785	-0.590410	-6.142088E+7	3.908018E-10	NaN
136	1.000000	0.433861	7.36637e+06	-45439.1	955.818	-29773	0.000000	0.000000	6.434919	-0.093444	NaN	0.000000	0.001739	0.001773	28.1273	0.056546	0.001945	29.075	114.843	-170.455	-0.074779	0.432585	-0.584629	-0.585905	-0.093444	29.075	-0.582219	-4.735272E+7	1.973371E-9	NaN
136	1.000000	0.441839	7.36637e+06	-45439.1	955.818	-29773	0.000000	0.000000	6.442898	-0.051837	NaN	0.000000	0.001700	0.001755	28.1279	0.072334	0.001887	38.3246	21.827	-164.721	-0.076435	0.440527	-0.576652	-0.577963	-0.051837	38.3246	-0.575637	-3.841458E+7	1.349402E-9	NaN
136	1.000000	0.449875	7.36637e+06	-45439.1	955.818	-29773	0.000000	0.000000	6.450935	-0.041574	NaN	0.000000	0.001733	0.001758	28.1278	0.088459	0.001874	47.2087	92.2856	-164.647	-0.115099	0.448571	-0.568615	-0.569920	-0.041574	47.2087	-0.567955	-3.008620E+7	1.381823E-9	NaN
136	1.000000	0.457856	7.36637e+06	-45439.1	955.818	-29773	0.000000	0.000000	6.458913	-0.115253	NaN	0.000000	0.001749	0.001740	28.1286	0.067564	0.002066	32.7043	146.189	-164.962	-0.046581	0.456566	-0.560634	-0.561924	-0.115253	32.7043	-0.557991	-2.190726E+7	5.260930E-9	NaN
136	1.000000	0.465854	7.36637e+06	-45439.1	955.817	-29773	0.000000	0.000000	6.466917	0.046661	NaN	0.000000	0.001703	0.001745	28.1287	0.058210	0.001941	29.9957	7.011554	-165.767	-0.003940	0.464597	-0.552637	-0.553893	0.046661	29.9957	-0.553803	-1.917000E+7	-2.434050E-9	NaN
136	1.000000	0.473884	7.36637e+06	-45439.1	955.819	-29773	0.000000	0.000000	6.474946	0.000478	NaN	0.000000	0.001746	0.001790	28.1284	0.075869	0.002064	36.7628	16.342	-163.799	-0.043351	0.472555	-0.544606	-0.545935	0.000478	36.7628	-0.544616	-1.430065E+7	-3.339812E-11	NaN
136	1.000000	0.481862	7.36637e+06	-45439.1	955.818	-29773	0.000000	0.000000	6.482920	-0.101608	NaN	0.000000	0.001726	0.001746	28.1286	0.036573	0.002030	18.0199	3.760847	-164.948	-0.001514	0.480567	-0.536628	-0.537923	-0.101608	18.0199	-0.532399	-9.68014e+06	1.049656E-8	NaN
136	1.000000	0.489883	7.36637e+06	-45439.1	955.819	-29773	0.000000	0.000000	6.490942	-0.074413	NaN	0.000000	0.001715	0.001717	28.1279	0.076526	0.001811	42.2566	-60.4483	-161.241	-0.071952	0.488535	-0.528607	-0.529956	-0.074413	42.2566	-0.527286	-8.22008e+06	9.052612E-9	NaN
136	1.000000	0.497886	7.36637e+06	-45439.1	955.818	-29773	0.000000	0.000000	6.498946	-0.052011	NaN	0.000000	0.001684	0.001752	28.1271	0.029058	0.002161	13.4465	-52.1638	-163.945	-0.027060	0.496545	-0.520604	-0.521945	-0.052011	13.4465	-0.517703	-6.04841e+06	8.599165E-9	NaN
136	1.000000	0.505860	7.36637e+06	-45439.1	955.818	-29773	0.000000	0.000000	6.506920	-0.052895	NaN	0.000000	0.001717	0.001749	28.1275	0.087952	0.001919	45.8268	-65.7308	-165.31	-0.039223	0.504572	-0.512630	-0.513918	-0.052895	45.8268	-0.511764	-5.00017e+06	1.057863E-8	NaN
136	1.000000	0.513928	7.36637e+06	-45439.1	955.818	-29773	0.000000	0.000000	6.514988	-0.054625	NaN	0.000000	0.001712	0.001790	28.1259	0.051791	0.002111	24.5356	-54.9596	-164.57	0.003182	0.512612	-0.504562	-0.505878	-0.054625	24.5356	-0.502892	-3.76144e+06	1.452225E-8	NaN
136	1.000000	0.521903	7.36637e+06	-45439.1	955.818	-29773	0.000000	0.000000	6.522964	-0.015345	NaN	0.000000	0.001706	0.001762	28.1259	0.028446	0.001878	15.1476	-139.765	-163.393	-1.652106E-5	0.520575	-0.496588	-0.497915	-0.015345	15.1476	-0.495828	-2.99772e+06	5.119039E-9	NaN
136	1.000000	0.529894	7.36637e+06	-45439.1	955.818	-29773	0.000000	0.000000	6.530953	-0.080984	NaN	0.000000	0.001719	0.001777	28.1269	0.038319	0.001864	20.5531	164.237	-163.046	-0.123014	0.528599	-0.488596	-0.489891	-0.080984	20.5531	-0.485641	-2.16e+06	3.749256E-8	NaN
136	1.000000	0.537918	7.36637e+06	-45439.1	955.819	-29773	0.000000	0.000000	6.538979	-0.016530	NaN	0.000000	0.001729	0.001786	28.1271	0.036874	0.001947	18.937	32.9738	-165.23	-0.074074	0.536591	-0.480572	-0.481899	-0.016530	18.937	-0.479917	-1.79626e+06	9.202323E-9	NaN
136	1.000000	0.545918	7.36637e+06	-45439.1	955.818	-29773	0.000000	0.000000	6.546980	-0.005276	NaN	0.000000	0.001764	0.001789	28.1271	0.063097	0.002007	31.4366	-125.034	-165.446	0.005684	0.544591	-0.472572	-0.473899	-0.005276	31.4366	-0.472446	-1.41158e+06	3.737666E-9	NaN
136	1.000000	0.553893	7.36637e+06	-45439.1	955.818	-29773	0.000000	0.000000	6.554953	-0.045924	NaN	0.000000	0.001739	0.001790	28.1265	0.059385	0.002020	29.4056	112.513	-163.814	-0.000636	0.552589	-0.464597	-0.465901	-0.045924	29.4056	-0.463426	-1.05473e+06	4.354073E-8	NaN
136	1.000000	0.561928	7.36637e+06	-45439.1	955.818	-29773	0.000000	0.000000	6.562990	-0.007481	NaN	0.000000	0.001723	0.001785	28.1268	0.151444	0.001936	78.2082	47.0355	-166.458	0.050723	0.560617	-0.456562	-0.457874	-0.007481	78.2082	-0.456490	-842703	8.877351E-9	NaN
136	1.000000	0.569894	7.36637e+06	-45439.1	955.818	-29773	0.000000	0.000000	6.570957	0.004606	NaN	0.000000	0.001775	0.001768	28.1268	0.042311	0.002083	20.3138	-111.803	-164.739	0.002729	0.568633	-0.448596	-0.449857	0.004606	20.3138	-0.448766	-656083	-7.019905E-9	NaN
136	1.000000	0.577930	7.36637e+06	-45439.1	955.818	-29773	0.000000	0.000000	6.578994	0.049465	NaN	0.000000	0.001754	0.001769	28.1257	0.052214	0.002017	25.8928	54.3121	-165.497	-0.010043	0.576589	-0.440560	-0.441901	0.049465	25.8928	-0.441993	-526601	-9.393351E-8	NaN
136	1.000000	0.585903	7.36637e+06	-45439.1	955.818	-29773	0.000000	0.000000	6.586964	-0.021848	NaN	0.000000	0.001750	0.001733	28.1264	0.120880	0.001874	64.5178	-108.971	-166.592	-0.061786	0.584578	-0.432588	-0.433912	-0.021848	64.5178	-0.432334	-384649	5.679916E-8	NaN
136	1.000000	0.593940	7.36637e+06	-45439.1	955.817	-29773	0.000000	0.000000	6.595001	-0.025611	NaN	0.000000	0.001746	0.001773	28.1257	0.078011	0.002013	38.7584	66.8073	-163.314	-0.119802	0.592615	-0.424550	-0.425875	-0.025611	38.7584	-0.424055	-293692	8.720228E-8	NaN
136	1.000000	0.601911	7.36637e+06	-45439.1	955.818	-29773	0.000000	0.000000	6.602972	-0.010378	NaN	0.000000	0.001765	0.001752	28.1258	0.066329	0.001902	34.8644	-32.1897	-163.599	-0.068768	0.600619	-0.416579	-0.417872	-0.010378	34.8644	-0.416356	-228406	4.543603E-8	NaN
136	1.000000	0.609948	7.36637e+06	-45439.1	955.819	-29773	0.000000	0.000000	6.611006	-0.098077	NaN	0.000000	0.001751	0.001736	28.1265	0.118883	0.001977	60.1245	51.4734	-167.104	-0.103744	0.608641	-0.408542	-0.409849	-0.098077	60.1245	-0.407318	-169923	5.771872E-7	NaN
136	1.000000	0.617933	7.36637e+06	-45439.1	955.818	-29773	0.000000	0.000000	6.618992	-0.088229	NaN	0.000000	0.001779	0.001728	28.1267	0.014158	0.002010	7.041983	79.4321	-169.628	-0.041753	0.616626	-0.400557	-0.401865	-0.088229	7.041983	-0.391160	-99944.2	8.827832E-7	NaN
136	1.000000	0.625914	7.36637e+06	-45439.1	955.818	-29773	0.000000	0.000000	6.626973	-0.072786	NaN	0.000000	0.001742	0.001742	28.1267	0.092588	0.002051	45.1463	-130.197	-167.054	-0.045209	0.624612	-0.392576	-0.393879	-0.072786	45.1463	-0.391367	-100628	7.233155E-7	NaN
136	1.000000	0.633950	7.36637e+06	-45439.1	955.818	-29773	0.000000	0.000000	6.635010	-0.038801	NaN	0.000000	0.001744	0.001739	28.1268	0.080029	0.002022	39.5727	174.605	-166	-0.061400	0.632616	-0.384540	-0.385874	-0.038801	39.5727	-0.383805	-78426.2	4.947415E-7	NaN
136	1.000000	0.641953	7.36637e+06	-45439.1	955.819	-29773	0.000000	0.000000	6.643011	-0.098266	NaN	0.000000	0.001748	0.001713	28.1268	0.139003	0.002019	68.8468	-133.37	-166.148	-0.056277	0.640609	-0.376537	-0.377881	-0.098266	68.8468	-0.375467	-59536.2	1.650523E-6	NaN
136	1.000000	0.649936	7.36637e+06	-45439.1	955.819	-29773	0.000000	0.000000	6.650995	-0.064804	NaN	0.000000	0.001722	0.001740	28.1277	0.092452	0.001938	47.7161	-56.6197	-163.477	-0.049055	0.648705	-0.368554	-0.369786	-0.064804	47.7161	-0.367535	-45773.9	1.415738E-6	NaN
136	1.000000	0.657949	7.36637e+06	-45439.1	955.818	-29773	0.000000	0.000000	6.659009	-0.032960	NaN	0.000000	0.001766	0.001744	28.1269	0.025621	0.001987	12.8937	50.1808	-166.332	-0.059429	0.656609	-0.360542	-0.361881	-0.032960	12.8937	-0.358624	-34037.2	9.683475E-7	NaN
136	1.000000	0.665980	7.36637e+06	-45439.1	955.818	-29773	0.000000	0.000000	6.667039	-0.057077	NaN	0.000000	0.001739	0.001750	28.1272	0.113467	0.002064	54.9851	148.987	-164.77	-0.046786	0.664719	-0.352510	-0.353771	-0.057077	54.9851	-0.351732	-27047.4	2.110257E-6	NaN
136	1.000000	0.673928	7.36637e+06	-45439.1	955.818	-29773	0.000000	0.000000	6.674986	-0.106852	NaN	0.000000	0.001734	0.001741	28.1272	0.118467	0.002077	57.0284	-127.762	-166.697	-0.050872	0.672642	-0.344562	-0.345848	-0.106852	57.0284	-0.343157	-20301.8	5.263164E-6	NaN
136	1.000000	0.681953	7.36637e+06	-45439.1	955.818	-29773	0.000000	0.000000	6.683012	-0.060862	NaN	0.000000	0.001712	0.001735	28.1269	0.168258	0.002121	79.3109	123.373	-169.867	-0.095877	0.680636	-0.336537	-0.337854	-0.060862	79.3109	-0.335961	-15945.3	3.816945E-6	NaN
136	1.000000	0.689952	7.36637e+06	-45439.1	955.818	-29773	0.000000	0.000000	6.691009	-0.108605	NaN	0.000000	0.001714	0.001769	28.1274	0.083747	0.002087	40.1206	20.0326	-160.704	-0.119130	0.688684	-0.328538	-0.329806	-0.108605	40.1206	-0.326508	-11595	9.366536E-6	NaN
136	1.000000	0.697977	7.36637e+06	-45439.1	955.817	-29773	0.000000	0.000000	6.699036	-0.052078	NaN	0.000000	0.001747	0.001772	28.1282	0.078581	0.002015	39.0061	100.01	-164.963	-0.085278	0.696644	-0.320514	-0.321846	-0.052078	39.0061	-0.319512	-9150.78	5.691144E-6	NaN
136	1.000000	0.705974	7.36637e+06	-45439.1	955.818	-29773	0.000000	0.000000	6.707036	-0.000328	NaN	0.000000	0.001735	0.001714	28.128	0.027136	0.001992	13.6214	14.5236	-169.753	-0.044496	0.704635	-0.312516	-0.313855	-0.000328	13.6214	-0.312498	-7211.06	4.544808E-8	NaN
136	1.000000	0.713947	7.36637e+06	-45439.1	955.818	-29773	0.000000	0.000000	6.715008	-0.021488	NaN	0.000000	0.001710	0.001768	28.1284	0.054409	0.001979	27.4863	-22.4802	-166.198	-0.047090	0.712718	-0.304543	-0.305773	-0.021488	27.4863	-0.303957	-5388.51	3.987811E-6	NaN
136	1.000000	0.722011	7.36637e+06	-45439.1	955.818	-29773	0.000000	0.000000	6.723069	-0.095559	NaN	0.000000	0.001729	0.001763	28.1276	0.007360	0.001974	3.727788	-24.2638	-167.839	-0.092181	0.720638	-0.296479	-0.297852	-0.095559	3.727788	-0.277253	-2145.29	4.454377E-5	NaN
136	1.000000	0.729954	7.36637e+06	-45439.1	955.817	-29773	0.000000	0.000000	6.731014	-0.051813	NaN	0.000000	0.001671	0.001768	28.1274	0.118602	0.001848	64.1823	132.63	-167.703	-0.107028	0.728679	-0.288536	-0.289811	-0.051813	64.1823	-0.287930	-3106.52	1.667865E-5	NaN
136	1.000000	0.737978	7.36637e+06	-45439.1	955.818	-29773	0.000000	0.000000	6.739042	0.060242	NaN	0.000000	0.001700	0.001764	28.1267	0.051263	0.002069	24.7746	-165.187	-162.559	0.096725	0.736644	-0.280512	-0.281846	0.060242	24.7746	-0.282336	-2559.66	-2.353522E-5	NaN
136	1.000000	0.745975	7.36637e+06	-45439.1	955.817	-29773	0.000000	0.000000	6.747035	-0.045318	NaN	0.000000	0.001725	0.001758	28.1268	0.098878	0.001923	51.4111	-82.0948	-163.521	-0.073024	0.744617	-0.272515	-0.273873	-0.045318	51.4111	-0.271854	-1777.09	2.550104E-5	NaN
136	1.000000	0.753964	7.36637e+06	-45439.1	955.818	-29773	0.000000	0.000000	6.755026	0.000936	NaN	0.000000	0.001765	0.001749	28.1268	0.102976	0.001965	52.4035	140.578	-165	-0.000187	0.752662	-0.264526	-0.265829	0.000936	52.4035	-0.264540	-1375.18	-6.809689E-7	NaN
136	1.000000	0.761973	7.36637e+06	-45439.1	955.818	-29773	0.000000	0.000000	6.763033	-0.047019	NaN	0.000000	0.001754	0.001756	28.1265	0.016133	0.002034	7.932294	-106.095	-167.168	-0.038110	0.760649	-0.256517	-0.257841	-0.047019	7.932294	-0.252071	-885.056	5.312560E-5	NaN
136	1.000000	0.770013	7.36637e+06	-45439.1	955.819	-29773	0.000000	0.000000	6.771071	-0.092431	NaN	0.000000	0.001709	0.001771	28.1274	0.055444	0.002107	26.3146	94.1537	-165.352	-0.083293	0.768697	-0.248477	-0.249793	-0.092431	26.3146	-0.245843	-708.833	0.000130	NaN
136	1.000000	0.777993	7.36637e+06	-45439.1	955.818	-29773	0.000000	0.000000	6.779054	-0.022517	NaN	0.000000	0.001672	0.001772	28.1283	0.085204	0.002033	41.912	177.623	-167.309	-0.095357	0.776715	-0.240497	-0.241775	-0.022517	41.912	-0.240094	-576.791	3.903865E-5	NaN
136	1.000000	0.786016	7.36637e+06	-45439.1	955.818	-29773	0.000000	0.000000	6.787075	-0.048972	NaN	0.000000	0.001641	0.001787	28.1266	0.074536	0.002002	37.2367	104.03	-166.168	-0.057724	0.784692	-0.232475	-0.233798	-0.048972	37.2367	-0.231488	-422.666	0.000116	NaN
136	1.000000	0.794000	7.36637e+06	-45439.1	955.819	-29773	0.000000	0.000000	6.795059	-0.078047	NaN	0.000000	0.001646	0.001742	28.1271	0.055868	0.002028	27.555	37.5275	-166.733	-0.177994	0.792690	-0.224490	-0.225800	-0.078047	27.555	-0.222365	-302.985	0.000258	NaN
136	1.000000	0.802032	7.36637e+06	-45439.1	955.818	-29773	0.000000	0.000000	6.803092	-0.055744	NaN	0.000000	0.001642	0.001780	28.1263	0.037305	0.002026	18.4154	-97.0438	-164.613	-0.045427	0.800666	-0.216458	-0.217824	-0.055744	18.4154	-0.214187	-224.097	0.000249	NaN
136	1.000000	0.810005	7.36637e+06	-45439.1	955.819	-29773	0.000000	0.000000	6.811067	-0.008221	NaN	0.000000	0.001668	0.001754	28.126	0.022896	0.001941	11.7971	-29.3991	-166.233	-0.023539	0.808696	-0.208485	-0.209795	-0.008221	11.7971	-0.207962	-177.733	4.625704E-5	NaN
136	1.000000	0.817985	7.36637e+06	-45439.1	955.818	-29773	0.000000	0.000000	6.819045	-0.036917	NaN	0.000000	0.001654	0.001760	28.1261	0.065338	0.002026	32.2551	-156.827	-166.548	-0.015613	0.816714	-0.200505	-0.201776	-0.036917	32.2551	-0.199647	-129.985	0.000284	NaN
136	1.000000	0.825994	7.36637e+06	-45439.1	955.817	-29773	0.000000	0.000000	6.827054	-0.041220	NaN	0.000000	0.001619	0.001757	28.1252	0.013763	0.002121	6.489776	-79.4926	-167.177	-0.045996	0.824692	-0.192496	-0.193799	-0.041220	6.489776	-0.187733	-82.4283	0.000500	NaN
136	1.000000	0.834025	7.36637e+06	-45439.1	955.818	-29773	0.000000	0.000000	6.835084	-0.050568	NaN	0.000000	0.001674	0.001772	28.1255	0.124364	0.001988	62.551	173.898	-166.879	0.011928	0.832754	-0.184466	-0.185736	-0.050568	62.551	-0.183859	-70.9391	0.000713	NaN
136	1.000000	0.842021	7.36637e+06	-45439.1	955.818	-29773	0.000000	0.000000	6.843082	-0.019566	NaN	0.000000	0.001665	0.001796	28.1254	0.051121	0.001980	25.8149	-137.28	-168.644	-0.022628	0.840727	-0.176470	-0.177763	-0.019566	25.8149	-0.175901	-51.9337	0.000377	NaN
136	1.000000	0.850042	7.36637e+06	-45439.1	955.818	-29773	0.000000	0.000000	6.851103	-0.008393	NaN	0.000000	0.001695	0.001782	28.126	0.118092	0.002023	58.3789	-176.057	-166.104	-0.066238	0.848686	-0.168448	-0.169804	-0.008393	58.3789	-0.168340	-38.4364	0.000218	NaN
136	1.000000	0.858019	7.36637e+06	-45439.1	955.819	-29773	0.000000	0.000000	6.859079	-0.049493	NaN	0.000000	0.001660	0.001766	28.127	0.017429	0.002017	8.641844	-55.6242	-163.383	-0.035701	0.856768	-0.160471	-0.161722	-0.049493	8.641844	-0.156176	-23.4262	0.002113	NaN
136	1.000000	0.866036	7.36637e+06	-45439.1	955.818	-29773	0.000000	0.000000	6.867092	-0.138905	NaN	0.000000	0.001694	0.001767	28.1268	0.038732	0.001893	20.4624	2.056238	-168.277	-0.131006	0.864710	-0.152454	-0.153780	-0.138905	20.4624	-0.147363	-16.2081	0.008570	NaN
136	1.000000	0.874021	7.36637e+06	-45439.1	955.818	-29773	0.000000	0.000000	6.875078	-0.132441	NaN	0.000000	0.001689	0.001750	28.1265	0.069195	0.001964	35.2274	106.133	-168.158	-0.111440	0.872700	-0.144469	-0.145791	-0.132441	35.2274	-0.141649	-12.7017	0.010427	NaN
136	1.000000	0.882056	7.36637e+06	-45439.1	955.819	-29773	0.000000	0.000000	6.883116	-0.036087	NaN	0.000000	0.001672	0.001775	28.1271	0.099104	0.002032	48.7671	121.799	-168.044	-0.026218	0.880725	-0.136434	-0.137765	-0.036087	48.7671	-0.135879	-9.886689	0.003650	NaN
136	1.000000	0.890036	7.36637e+06	-45439.1	955.818	-29773	0.000000	0.000000	6.891099	0.007929	NaN	0.000000	0.001674	0.001751	28.1257	0.042865	0.002024	21.1831	-171.711	-166.358	0.008260	0.888684	-0.128454	-0.129806	0.007929	21.1831	-0.128735	-7.200690	-0.001101	NaN
136	1.000000	0.898059	7.36637e+06	-45439.1	955.818	-29773	0.000000	0.000000	6.899117	-0.081652	NaN	0.000000	0.001651	0.001729	28.125	0.066803	0.002000	33.3996	122.004	-163.118	-0.033387	0.896744	-0.120431	-0.121746	-0.081652	33.3996	-0.118598	-4.525839	0.018041	NaN
136	1.000000	0.906063	7.36637e+06	-45439.1	955.818	-29773	0.000000	0.000000	6.907123	-0.060193	NaN	0.000000	0.001676	0.001730	28.1252	0.090381	0.001953	46.2747	163.757	-165.854	-0.051494	0.904726	-0.112427	-0.113764	-0.060193	46.2747	-0.111451	-3.223790	0.018671	NaN
136	1.000000	0.914057	7.36637e+06	-45439.1	955.818	-29773	0.000000	0.000000	6.915118	-0.019126	NaN	0.000000	0.001672	0.001739	28.1256	0.122289	0.001989	61.4907	4.202711	-164.223	0.001211	0.912659	-0.104433	-0.105831	-0.019126	61.4907	-0.104200	-2.258671	0.008468	NaN
136	1.000000	0.922055	7.36637e+06	-45439.1	955.818	-29773	0.000000	0.000000	6.923112	-0.120702	NaN	0.000000	0.001643	0.001752	28.1268	0.081811	0.002114	38.7002	-57.6197	-164.635	-0.099817	0.920745	-0.096435	-0.097745	-0.120702	38.7002	-0.094096	-1.345144	0.089732	NaN
136	1.000000	0.930038	7.36637e+06	-45439.1	955.818	-29773	0.000000	0.000000	6.931099	-0.004001	NaN	0.000000	0.001663	0.001762	28.1268	0.072044	0.002017	35.7114	154.484	-166.565	-0.021761	0.928746	-0.088452	-0.089744	-0.004001	35.7114	-0.088368	-0.989339	0.004045	NaN
136	1.000000	0.938050	7.36637e+06	-45439.1	955.818	-29773	0.000000	0.000000	6.939108	-0.094745	NaN	0.000000	0.001682	0.001752	28.1277	0.082869	0.002058	40.2676	2.542458	-165.144	-0.103792	0.936768	-0.080440	-0.081722	-0.094745	40.2676	-0.078675	-0.573345	0.165250	NaN
136	1.000000	0.946009	7.36637e+06	-45439.1	955.818	-29773	0.000000	0.000000	6.947068	-0.061779	NaN	0.000000	0.001647	0.001731	28.1279	0.078169	0.001974	39.5904	62.3341	-168.776	-0.075315	0.944746	-0.072482	-0.073744	-0.061779	39.5904	-0.071311	-0.369706	0.167103	NaN
136	1.000000	0.954056	7.36637e+06	-45439.1	955.818	-29773	0.000000	0.000000	6.955116	-0.043979	NaN	0.000000	0.001663	0.001714	28.1273	0.151852	0.002048	74.1536	-148.419	-166.072	-0.039735	0.952779	-0.064434	-0.065711	-0.043979	74.1536	-0.063989	-0.233581	0.188283	NaN
136	1.000000	0.962092	7.36637e+06	-45439.1	955.819	-29773	0.000000	0.000000	6.963153	-0.023982	NaN	0.000000	0.001628	0.001762	28.1276	0.100769	0.002126	47.4061	-115.494	-167.329	-0.058977	0.960764	-0.056398	-0.057726	-0.023982	47.4061	-0.056019	-0.137998	0.173788	NaN
136	1.000000	0.970067	7.36637e+06	-45439.1	955.818	-29773	0.000000	0.000000	6.971124	-0.119372	NaN	0.000000	0.001657	0.001759	28.1269	0.104370	0.001889	55.2524	-172.974	-170.079	-0.033719	0.968770	-0.048424	-0.049720	-0.119372	55.2524	-0.046803	-0.072960	1.636140	NaN
136	1.000000	0.978065	7.36637e+06	-45439.1	955.819	-29773	0.000000	0.000000	6.979121	-0.138584	NaN	0.000000	0.001622	0.001741	28.1265	0.042419	0.001903	22.2938	2.355806	-170.912	-0.121993	0.976786	-0.040425	-0.041704	-0.138584	22.2938	-0.035763	-0.033731	4.108541	NaN
136	1.000000	0.986071	7.36637e+06	-45439.1	955.819	-29773	0.000000	0.000000	6.987133	0.001054	NaN	0.000000	0.001655	0.001725	28.1264	0.046558	0.001860	25.0307	168.095	-166.118	-0.069397	0.984781	-0.032419	-0.033709	0.001054	25.0307	-0.032451	-0.026997	-0.039034	NaN
136	1.000000	0.994074	7.36637e+06	-45439.1	955.819	-29773	0.000000	0.000000	6.995137	0.028836	NaN	0.000000	0.001679	0.001721	28.1264	0.133461	0.001956	68.2453	93.8123	-163.885	-0.014258	0.992764	-0.024416	-0.025726	0.028836	68.2453	-0.024733	-0.016602	-1.736925	NaN
136	1.000000	1.002103	7.36637e+06	-45439.1	955.819	-29773	0.000000	0.000000	7.003160	-0.110236	NaN	0.000000	0.001690	0.001755	28.1263	0.034603	0.002117	16.3493	-101.352	-165.024	-0.053210	1.000796	-0.016388	-0.017694	-0.110236	16.3493	-0.011331	-0.007147	15.4251	NaN
136	1.000000	1.010113	7.36637e+06	-45439.1	955.82	-29773	0.000000	0.000000	7.011174	-0.036668	NaN	0.000000	0.001662	0.001771	28.1266	0.087056	0.002096	41.5418	-157.82	-164.881	-0.100216	1.008817	-0.008377	-0.009673	-0.036668	41.5418	-0.007715	-0.005064	7.240777	NaN
136	1.000000	1.018077	7.36637e+06	-45439.1	955.82	-29773	0.000000	0.000000	7.019149	0.236703	NaN	0.000000	0.001652	0.001738	28.1279	0.560841	0.002059	272.32	1.370264	-161.573	-0.009384	1.016784	-0.000413	-0.001706	0.236703	272.32	-0.001065	-0.000780	-303.577	NaN
136	1.000000	1.025984	7.36637e+06	-45439.1	955.82	-29773	0.000000	0.000000	7.027365	7.779343	NaN	0.000000	0.001712	0.001758	28.1272	6.470809	0.001873	3454.12	10.8813	-170.602	6.042293	1.024749	0.007494	0.006259	7.779343	3454.12	0.005805	0.004880	1594.24	45176.9
136	2.000000	1.028720	7.36637e+06	-45439.1	955.821	-29773	0.000000	0.000000	7.030181	9.724428	NaN	0.000000	0.001663	0.001757	28.1271	8.278448	0.001679	4931.69	5.827207	-171.939	9.699873	1.028360	0.010229	0.009870	9.724428	4931.69	0.008751	0.007826	1242.62	50933.8
136	2.000000	1.030637	7.36637e+06	-45439.1	955.821	-29773	0.000000	0.000000	7.032201	12.2152	NaN	0.000000	0.001691	0.001755	28.1268	10.5736	0.001785	5923.44	5.922543	-173.156	11.1165	1.030371	0.012147	0.011881	12.2152	5923.44	0.010601	0.009857	1239.3	54511.1
136	2.000000	1.032608	7.36637e+06	-45439.1	955.819	-29773	0.000000	0.000000	7.034428	18.4416	NaN	0.000000	0.001680	0.001729	28.1268	11.9002	0.001770	6721.72	3.653683	-171.389	17.6124	1.032336	0.014118	0.013846	18.4416	6721.72	0.012060	0.011562	1595.04	57113.7
136	2.000000	1.034604	7.36637e+06	-45439.1	955.82	-29773	0.000000	0.000000	7.036384	17.4717	NaN	0.000000	0.001606	0.001737	28.1247	14.1648	0.001863	7601.72	3.856945	-173.067	16.2714	1.034351	0.016114	0.015860	17.4717	7601.72	0.014390	0.014481	1206.52	57714.6
136	2.000000	1.036621	7.36637e+06	-45439.1	955.821	-29773	0.000000	0.000000	7.038797	27.1072	NaN	0.000000	0.001612	0.001736	28.1251	15.6053	0.001732	9009	1.952440	-172.5	26.1098	1.036305	0.018131	0.017815	27.1072	9009	0.015874	0.016469	1645.93	64137.8
136	2.000000	1.038603	7.36637e+06	-45439.1	955.82	-29773	0.000000	0.000000	7.040634	23.5809	NaN	0.000000	0.001630	0.001724	28.1252	17.4391	0.001803	9673.66	5.430840	-177.605	22.5133	1.038264	0.020113	0.019774	23.5809	9673.66	0.018285	0.019918	1183.89	62623.8
136	2.000000	1.040624	7.36637e+06	-45439.1	955.82	-29773	0.000000	0.000000	7.042760	26.1274	NaN	0.000000	0.001640	0.001742	28.1249	19.0707	0.001868	10207.7	7.806811	-176.364	27.1788	1.040291	0.022134	0.021801	26.1274	10207.7	0.020214	0.022880	1141.93	61655.6
136	2.000000	1.042586	7.36637e+06	-45439.1	955.821	-29773	0.000000	0.000000	7.044913	30.7694	NaN	0.000000	0.001617	0.001740	28.1248	20.6171	0.001640	12572.8	5.401345	-179.926	29.204	1.042261	0.024096	0.023771	30.7694	12572.8	0.022261	0.026220	1173.5	70939.3
136	2.000000	1.044591	7.36637e+06	-45439.1	955.82	-29773	0.000000	0.000000	7.047172	36.9553	NaN	0.000000	0.001642	0.001748	28.1252	22.4563	0.001834	12244.5	1.886438	-175.017	34.854	1.044315	0.026101	0.025825	36.9553	12244.5	0.023838	0.028935	1277.19	65766.2
136	2.000000	1.046588	7.36637e+06	-45439.1	955.82	-29773	0.000000	0.000000	7.049438	43.5106	NaN	0.000000	0.001618	0.001710	28.1255	24.3932	0.001767	13807.7	4.948563	-178.87	42.2657	1.046323	0.028097	0.027833	43.5106	13807.7	0.025734	0.032365	1344.39	70123
136	2.000000	1.048551	7.36637e+06	-45439.1	955.82	-29773	0.000000	0.000000	7.051639	49.267	NaN	0.000000	0.001628	0.001710	28.1267	26.1542	0.001789	14623.2	6.513547	178.991	47.0258	1.048280	0.030061	0.029790	49.267	14623.2	0.027535	0.035789	1376.61	70622.7
136	2.000000	1.050545	7.36637e+06	-45439.1	955.82	-29773	0.000000	0.000000	7.053876	55.2018	NaN	0.000000	0.001646	0.001696	28.1257	28.9579	0.001876	15439.4	8.786148	177.003	53.6195	1.050225	0.032055	0.031734	55.2018	15439.4	0.029373	0.039454	1399.14	71016.3
136	2.000000	1.052523	7.36637e+06	-45439.1	955.821	-29773	0.000000	0.000000	7.056055	60.0837	NaN	0.000000	0.001644	0.001746	28.1257	29.3759	0.001808	16248.4	6.707494	178.825	58.3505	1.052197	0.034033	0.033707	60.0837	16248.4	0.031259	0.043395	1384.59	71263.4
136	2.000000	1.054574	7.36637e+06	-45439.1	955.821	-29773	0.000000	0.000000	7.058283	64.4019	NaN	0.000000	0.001623	0.001732	28.1242	31.134	0.001701	18299.3	3.648809	-179.438	63.3526	1.054165	0.036084	0.035675	64.4019	18299.3	0.033444	0.048185	1336.55	76164.4
136	2.000000	1.056548	7.36637e+06	-45439.1	955.82	-29773	0.000000	0.000000	7.060563	71.8619	NaN	0.000000	0.001628	0.001727	28.1243	33.3549	0.001861	17922.6	3.367001	-178.633	68.3062	1.056218	0.038057	0.037728	71.8619	17922.6	0.035050	0.051863	1385.61	71902.6
136	2.000000	1.058576	7.36637e+06	-45439.1	955.821	-29773	0.000000	0.000000	7.062853	78.2104	NaN	0.000000	0.001634	0.001712	28.1244	35.2944	0.001854	19037.4	5.971946	178.539	77.8021	1.058242	0.040086	0.039752	78.2104	19037.4	0.037005	0.056516	1383.85	73163.1
136	2.000000	1.060551	7.36637e+06	-45439.1	955.82	-29773	0.000000	0.000000	7.064997	82.3412	NaN	0.000000	0.001656	0.001699	28.1241	37.1989	0.001800	20666.9	4.054487	179.632	81.7217	1.060272	0.042061	0.041782	82.3412	20666.9	0.039073	0.061653	1335.55	76044.8
136	2.000000	1.062535	7.36637e+06	-45439.1	955.82	-29773	0.000000	0.000000	7.067342	91.1114	NaN	0.000000	0.001622	0.001711	28.1251	38.3823	0.001684	22797.4	1.976965	179.166	89.5374	1.062324	0.044045	0.043834	91.1114	22797.4	0.041047	0.066762	1364.71	80610.8
136	2.000000	1.064480	7.36637e+06	-45439.1	955.821	-29773	0.000000	0.000000	7.069618	99.1685	NaN	0.000000	0.001649	0.001730	28.1252	41.3646	0.001892	21866.4	4.073774	178.282	96.1955	1.064264	0.045990	0.045774	99.1685	21866.4	0.042588	0.070889	1398.93	75034.7
136	2.000000	1.066623	7.36637e+06	-45439.1	955.821	-29773	0.000000	0.000000	7.072030	105.699	NaN	0.000000	0.001653	0.001720	28.1252	42.9107	0.001835	23385.6	4.441292	176.797	105.521	1.066261	0.048133	0.047770	105.699	23385.6	0.044744	0.076861	1375.2	77066.9
136	2.000000	1.068482	7.36637e+06	-45439.1	955.821	-29773	0.000000	0.000000	7.074457	119.508	NaN	0.000000	0.001652	0.001705	28.1269	43.5141	0.001790	24310.3	3.838831	177.739	115.258	1.068161	0.049992	0.049671	119.508	24310.3	0.046305	0.081335	1469.32	77879.6
136	2.000000	1.070529	7.36637e+06	-45439.1	955.82	-29773	0.000000	0.000000	7.076828	127.388	NaN	0.000000	0.001670	0.001706	28.1261	46.1322	0.001786	25831.4	2.484559	179.07	126.268	1.070243	0.052039	0.051753	127.388	25831.4	0.048340	0.087352	1458.33	79851.7
136	2.000000	1.072530	7.36637e+06	-45439.1	955.82	-29773	0.000000	0.000000	7.079184	136.048	NaN	0.000000	0.001645	0.001703	28.1264	46.7011	0.001731	26980.6	0.536451	-179.6	133.376	1.072201	0.054040	0.053711	136.048	26980.6	0.050258	0.093213	1459.55	80739.8
136	2.000000	1.074547	7.36637e+06	-45439.1	955.821	-29773	0.000000	0.000000	7.081497	143.224	NaN	0.000000	0.001655	0.001703	28.1249	49.7208	0.001785	27861.1	5.085063	175.91	142.942	1.074205	0.056057	0.055715	143.224	27861.1	0.052202	0.099340	1441.75	80762.4
136	2.000000	1.076594	7.36637e+06	-45439.1	955.821	-29773	0.000000	0.000000	7.084019	154.773	NaN	0.000000	0.001673	0.001704	28.1253	52.1085	0.001827	28526.3	6.847085	174.181	155.728	1.076184	0.058104	0.057694	154.773	28526.3	0.054035	0.105292	1469.94	80319.3
136	2.000000	1.078625	7.36637e+06	-45439.1	955.821	-29773	0.000000	0.000000	7.086264	160.003	NaN	0.000000	0.001695	0.001726	28.1255	53.5974	0.001840	29132.8	3.860654	175.961	163.053	1.078285	0.060135	0.059795	160.003	29132.8	0.056016	0.111910	1429.75	79564.9
136	2.000000	1.080570	7.36637e+06	-45439.1	955.82	-29773	0.000000	0.000000	7.088702	172	NaN	0.000000	0.001658	0.001706	28.1252	56.6756	0.001860	30478.1	6.714473	173.213	172.57	1.080218	0.062080	0.061728	172	30478.1	0.057847	0.118201	1455.14	80993.6
136	2.000000	1.082536	7.36637e+06	-45439.1	955.821	-29773	0.000000	0.000000	7.091063	181.593	NaN	0.000000	0.001674	0.001740	28.1254	57.0197	0.001791	31830.7	5.034679	174.096	180.067	1.082238	0.064046	0.063747	181.593	31830.7	0.059767	0.124975	1453.04	82263.8
136	2.000000	1.084553	7.36637e+06	-45439.1	955.821	-29773	0.000000	0.000000	7.093533	192.62	NaN	0.000000	0.001664	0.001701	28.126	59.8881	0.001883	31803.8	4.889044	175.209	193.114	1.084122	0.066063	0.065632	192.62	31803.8	0.061520	0.131317	1466.83	80184.8
136	2.000000	1.086559	7.36637e+06	-45439.1	955.821	-29773	0.000000	0.000000	7.096144	207.352	NaN	0.000000	0.001702	0.001725	28.1267	61.5269	0.001786	34454.6	5.163231	173.877	206.63	1.086136	0.068069	0.067646	207.352	34454.6	0.063555	0.138864	1493.2	84474.4
136	2.000000	1.088495	7.36637e+06	-45439.1	955.821	-29773	0.000000	0.000000	7.098293	212.529	NaN	0.000000	0.001683	0.001702	28.1265	62.6926	0.001679	37347.8	5.166480	172.308	209.862	1.088318	0.070005	0.069828	212.529	37347.8	0.065737	0.147179	1444.02	88943.7
136	2.000000	1.090495	7.36637e+06	-45439.1	955.821	-29773	0.000000	0.000000	7.100898	227.24	NaN	0.000000	0.001692	0.001699	28.1263	66.0141	0.001902	34716.4	4.336708	174.379	225.209	1.090282	0.072004	0.071792	227.24	34716.4	0.067095	0.152473	1490.37	81229.1
136	2.000000	1.092533	7.36637e+06	-45439.1	955.822	-29773	0.000000	0.000000	7.103495	240.844	NaN	0.000000	0.001682	0.001669	28.1258	65.914	0.001823	36166.5	1.283898	177.913	240.701	1.092281	0.074043	0.073791	240.844	36166.5	0.069048	0.160237	1503.04	82546.4
136	2.000000	1.094528	7.36637e+06	-45439.1	955.82	-29773	0.000000	0.000000	7.106041	254.226	NaN	0.000000	0.001695	0.001705	28.1252	67.6305	0.001701	39755	2.450077	174.746	254.49	1.094186	0.076038	0.075696	254.226	39755	0.071242	0.169177	1502.72	88306.9
136	2.000000	1.096572	7.36637e+06	-45439.1	955.822	-29773	0.000000	0.000000	7.108637	267.668	NaN	0.000000	0.001657	0.001741	28.1253	71.1221	0.001850	38445.8	7.352520	171.343	267.853	1.096139	0.078082	0.077649	267.668	38445.8	0.072860	0.175917	1521.56	83746.8
136	2.000000	1.098442	7.36637e+06	-45439.1	955.821	-29773	0.000000	0.000000	7.111242	285.549	NaN	0.000000	0.001744	0.001725	28.1248	72.5367	0.001769	40999.7	6.352814	170.973	281.836	1.098134	0.079952	0.079644	285.549	40999.7	0.074729	0.183853	1553.13	87361.1
136	2.000000	1.100508	7.36637e+06	-45439.1	955.821	-29773	0.000000	0.000000	7.113487	289.905	NaN	0.000000	0.001759	0.001758	28.1249	75.2957	0.001771	42514.2	2.531629	174.361	288.352	1.100344	0.082018	0.081854	289.905	42514.2	0.076904	0.193301	1499.76	88346.8
136	2.000000	1.102396	7.36637e+06	-45439.1	955.82	-29773	0.000000	0.000000	7.116149	308.739	NaN	0.000000	0.001756	0.001716	28.1243	76.2567	0.001760	43322.1	2.530533	174.302	303.993	1.102125	0.083906	0.083635	308.739	43322.1	0.078561	0.200646	1538.73	88362.5
136	2.000000	1.104526	7.36637e+06	-45439.1	955.821	-29773	0.000000	0.000000	7.118851	322.643	NaN	0.000000	0.001785	0.001727	28.1249	79.22	0.001805	43898.1	3.538808	173.771	321.897	1.104103	0.086036	0.085613	322.643	43898.1	0.080523	0.209510	1539.99	87622.6
136	2.000000	1.106573	7.36637e+06	-45439.1	955.821	-29773	0.000000	0.000000	7.121284	332.039	NaN	0.000000	0.001734	0.001687	28.1246	82.0146	0.001849	44348.6	4.862661	171.845	334.702	1.106259	0.088083	0.087768	332.039	44348.6	0.082468	0.218471	1519.83	86687.3
136	2.000000	1.108487	7.36637e+06	-45439.1	955.82	-29773	0.000000	0.000000	7.123736	345.124	NaN	0.000000	0.001734	0.001707	28.1248	83.254	0.001924	43281	3.051314	174.274	343.238	1.108193	0.089997	0.089702	345.124	43281	0.084017	0.225732	1528.91	83228.7
136	2.000000	1.110480	7.36637e+06	-45439.1	955.822	-29773	0.000000	0.000000	7.126445	362.537	NaN	0.000000	0.001731	0.001722	28.1248	85.5918	0.001967	43521	8.375371	168.807	361.115	1.110179	0.091990	0.091689	362.537	43521	0.085742	0.233954	1549.61	82206.7
136	2.000000	1.112493	7.36637e+06	-45439.1	955.821	-29773	0.000000	0.000000	7.129099	378.126	NaN	0.000000	0.001714	0.001726	28.124	85.4036	0.001771	48221	7.260224	170.302	376.367	1.112038	0.094003	0.093548	378.126	48221	0.088122	0.245521	1540.1	88913.1
136	2.000000	1.114565	7.36637e+06	-45439.1	955.821	-29773	0.000000	0.000000	7.131630	389.299	NaN	0.000000	0.001646	0.001720	28.1238	88.4321	0.001859	47565.2	7.357600	169.018	392.377	1.114110	0.096075	0.095620	389.299	47565.2	0.089937	0.254512	1529.59	86140.7
136	2.000000	1.116470	7.36638e+06	-45439.1	955.821	-29773	0.000000	0.000000	7.134057	402.005	NaN	0.000000	0.001702	0.001743	28.1231	89.3672	0.001824	48989.5	1.579789	174.525	399.02	1.116206	0.097980	0.097716	402.005	48989.5	0.091825	0.264033	1522.55	87105.8
136	2.000000	1.118508	7.36638e+06	-45439.1	955.821	-29773	0.000000	0.000000	7.136832	419.933	NaN	0.000000	0.001678	0.001697	28.123	90.6116	0.001727	52469.1	5.361412	170.069	419.589	1.118049	0.100018	0.099558	419.933	52469.1	0.094015	0.275276	1525.5	91367.7
136	2.000000	1.120474	7.36638e+06	-45439.1	955.82	-29773	0.000000	0.000000	7.139460	436.041	NaN	0.000000	0.001667	0.001707	28.1239	93.7327	0.001741	53848.1	3.880888	171.463	433.345	1.120186	0.101984	0.101696	436.041	53848.1	0.095911	0.285185	1528.98	92125.5
136	2.000000	1.122356	7.36638e+06	-45439.1	955.821	-29773	0.000000	0.000000	7.141619	442.763	NaN	0.000000	0.001676	0.001709	28.1241	93.4108	0.001815	51453.2	-0.126436	175.373	434.314	1.122152	0.103866	0.103662	442.763	51453.2	0.097412	0.293150	1510.36	86824.2
136	2.000000	1.124446	7.36638e+06	-45439.1	955.821	-29773	0.000000	0.000000	7.144363	458.688	NaN	0.000000	0.001664	0.001762	28.1248	96.6808	0.001896	50995.6	2.820563	172.45	456.662	1.124238	0.105955	0.105748	458.688	50995.6	0.099209	0.302820	1514.72	84667
136	2.000000	1.125440	7.36638e+06	-45439.1	955.82	-29773	0.000000	0.000000	7.146108	476.949	NaN	0.000000	0.001608	0.001739	28.0799	97.2001	0.001740	55855.3	5.860736	169.839	473.676	1.125024	0.106950	0.106534	476.949	55855.3	0.100546	0.310106	1538.02	91639.5