File: remote_trans/data/nanoindenter/0828-1/data/Data_2025-08-06,11h17m57s/2025-07-22_16-23-58_1_1093.txt
2025-07-22, 16:23:58, 1
Index	Phase	Displacement	Time	Pos X	Pos Y	Pos Z	Rot A	Rot B	Piezo Z	Force A	Force B	Gripper	Voltage A	Voltage B	Temperature	Amplitude force	Amplitude pos	Stiffness	Phase shift	Phase excitation	Force A raw	Displacement raw	HMax	HMax raw	Real Force	Real Stiffness	Contact Depth	Area	Hardness	Reduced Mod.
[#]	[#]	[um]	[s]	[um]	[um]	[um]	[m°]	[m°]	[um]	[uN]	[uN]	[V]	[V]	[V]	[°C]	[uN]	[um]	[N/m]	[°]	[°]	[uN]	[um]	[um]	[um]	[uN]	[N/m]	[um]	[um^2]	[MPa]	[MPa]
1093	1.000000	0.002203	7.37574e+06	-54789.1	1055.82	-29742.8	0.000000	0.000000	6.002772	-0.041382	NaN	0.000000	0.001628	0.001695	28.085	0.045018	0.000918	49.0321	82.0493	-156.739	0.001377	0.001005	-1.158968	-1.160167	-0.041382	49.0321	-1.158335	-3.037791E+15	1.362232E-17	NaN
1093	1.000000	0.012272	7.37574e+06	-54789.1	1055.82	-29742.8	0.000000	0.000000	6.012842	-0.032275	NaN	0.000000	0.001654	0.001733	28.085	0.069884	0.001128	61.948	161.215	15.967	-0.003615	0.010874	-1.148899	-1.150298	-0.032275	61.948	-1.148508	-2.242966E+15	1.438951E-17	NaN
1093	1.000000	0.022188	7.37574e+06	-54789.1	1055.82	-29742.8	0.000000	0.000000	6.022759	-0.003637	NaN	0.000000	0.001623	0.001739	28.085	0.060187	0.001615	37.2564	63.4178	-166.005	0.043897	0.020920	-1.138983	-1.140251	-0.003637	37.2564	-1.138910	-1.667705E+15	2.180924E-18	NaN
1093	1.000000	0.032179	7.37574e+06	-54789.1	1055.82	-29742.8	0.000000	0.000000	6.032753	0.077976	NaN	0.000000	0.001614	0.001713	28.0849	0.056411	0.001960	28.7869	-23.9076	11.9188	-0.033852	0.030837	-1.128993	-1.130335	0.077976	28.7869	-1.131024	-1.307256E+15	-5.964853E-17	NaN
1093	1.000000	0.042196	7.37574e+06	-54789.1	1055.82	-29742.8	0.000000	0.000000	6.042767	0.003659	NaN	0.000000	0.001663	0.001685	28.085	0.052351	0.002040	25.6622	99.0131	-166.846	0.076239	0.040851	-1.118976	-1.120320	0.003659	25.6622	-1.119082	-9.039854E+14	-4.047390E-18	NaN
1093	1.000000	0.052194	7.37574e+06	-54789.1	1055.82	-29742.7	0.000000	0.000000	6.052765	-0.008167	NaN	0.000000	0.001601	0.001703	28.0848	0.038465	0.002078	18.512	68.7661	14.7553	-0.008569	0.050870	-1.108978	-1.110301	-0.008167	18.512	-1.108647	-6.548280E+14	1.247164E-17	NaN
1093	1.000000	0.062189	7.37574e+06	-54789.1	1055.82	-29742.7	0.000000	0.000000	6.062761	0.033188	NaN	0.000000	0.001645	0.001676	28.0848	0.106680	0.002087	51.1202	-152.773	-163.62	0.046874	0.060849	-1.098983	-1.100323	0.033188	51.1202	-1.099470	-4.931141E+14	-6.730251E-17	NaN
1093	1.000000	0.072208	7.37574e+06	-54789.1	1055.82	-29742.7	0.000000	0.000000	6.072780	0.024489	NaN	0.000000	0.001673	0.001693	28.0846	0.080705	0.002072	38.9456	-118.52	11.6035	0.084915	0.070831	-1.088964	-1.090341	0.024489	38.9456	-1.089435	-3.615992E+14	-6.772475E-17	NaN
1093	1.000000	0.082185	7.37574e+06	-54789.1	1055.82	-29742.7	0.000000	0.000000	6.082756	0.000234	NaN	0.000000	0.001639	0.001693	28.0846	0.037648	0.002146	17.5439	-179.904	-163.642	0.019800	0.080923	-1.078986	-1.080248	0.000234	17.5439	-1.078996	-2.618422E+14	-8.932277E-19	NaN
1093	1.000000	0.092215	7.37574e+06	-54789.1	1055.82	-29742.7	0.000000	0.000000	6.092789	0.064742	NaN	0.000000	0.001645	0.001708	28.0836	0.074576	0.001906	39.1185	-139.208	13.1849	0.018711	0.090853	-1.068956	-1.070318	0.064742	39.1185	-1.070198	-1.994548E+14	-3.245926E-16	NaN
1093	1.000000	0.102211	7.37574e+06	-54789.1	1055.82	-29742.7	0.000000	0.000000	6.102780	-0.053879	NaN	0.000000	0.001619	0.001719	28.0835	0.025400	0.001967	12.9122	-49.5258	-167.991	-0.014899	0.100852	-1.058960	-1.060319	-0.053879	12.9122	-1.055830	-1.278747E+14	4.213439E-16	NaN
1093	1.000000	0.112234	7.37574e+06	-54789.1	1055.82	-29742.7	0.000000	0.000000	6.112802	-0.085257	NaN	0.000000	0.001655	0.001680	28.0839	0.021911	0.001951	11.2316	-90.5508	13.8371	-0.160449	0.110862	-1.048938	-1.050310	-0.085257	11.2316	-1.043244	-8.661481E+13	9.843206E-16	NaN
1093	1.000000	0.122212	7.37574e+06	-54789.1	1055.82	-29742.7	0.000000	0.000000	6.122784	0.025446	NaN	0.000000	0.001644	0.001706	28.0836	0.077325	0.002063	37.4851	72.4874	-163.905	0.010191	0.120874	-1.038959	-1.040298	0.025446	37.4851	-1.039468	-7.705829E+13	-3.302212E-16	NaN
1093	1.000000	0.132223	7.37574e+06	-54789.1	1055.82	-29742.7	0.000000	0.000000	6.132796	0.036182	NaN	0.000000	0.001624	0.001663	28.0837	0.060451	0.001998	30.2593	-136.91	13.948	0.011792	0.130823	-1.028948	-1.030348	0.036182	30.2593	-1.029845	-5.719955E+13	-6.325507E-16	NaN
1093	1.000000	0.142220	7.37574e+06	-54789.1	1055.82	-29742.7	0.000000	0.000000	6.142792	0.007200	NaN	0.000000	0.001654	0.001654	28.0836	0.081101	0.001939	41.8274	162.731	-169.615	0.038499	0.140919	-1.018951	-1.020252	0.007200	41.8274	-1.019080	-4.098029E+13	-1.756987E-16	NaN
1093	1.000000	0.152234	7.37574e+06	-54789.1	1055.82	-29742.7	0.000000	0.000000	6.152806	0.017895	NaN	0.000000	0.001657	0.001654	28.0839	0.029679	0.001982	14.9725	-166.07	12.2649	0.051599	0.150864	-1.008937	-1.010307	0.017895	14.9725	-1.009834	-3.077127E+13	-5.815528E-16	NaN
1093	1.000000	0.162256	7.37574e+06	-54789.1	1055.82	-29742.7	0.000000	0.000000	6.162827	-0.001109	NaN	0.000000	0.001656	0.001662	28.0838	0.006110	0.001901	3.213188	-67.635	-165.574	0.031974	0.160852	-0.998916	-1.000320	-0.001109	3.213188	-0.998657	-2.176133E+13	5.096426E-17	NaN
1093	1.000000	0.172216	7.37574e+06	-54789.1	1055.82	-29742.7	0.000000	0.000000	6.172784	-0.078063	NaN	0.000000	0.001605	0.001690	28.084	0.068203	0.001988	34.3122	146.425	13.3722	-0.068864	0.170837	-0.988955	-0.990334	-0.078063	34.3122	-0.987249	-1.527782E+13	5.109587E-15	NaN
1093	1.000000	0.182236	7.37574e+06	-54789.1	1055.82	-29742.7	0.000000	0.000000	6.182811	0.101141	NaN	0.000000	0.001675	0.001673	28.0837	0.079933	0.001990	40.1641	-169.39	-167.367	0.061083	0.180909	-0.978936	-0.980262	0.101141	40.1641	-0.980824	-1.251742E+13	-8.080004E-15	NaN
1093	1.000000	0.192221	7.37574e+06	-54789.1	1055.82	-29742.7	0.000000	0.000000	6.192796	0.098366	NaN	0.000000	0.001638	0.001690	28.084	0.029619	0.002055	14.4137	-73.2074	15.0625	0.089243	0.190928	-0.968951	-0.970243	0.098366	14.4137	-0.974069	-1.015078E+13	-9.690536E-15	NaN
1093	1.000000	0.202222	7.37574e+06	-54789.1	1055.82	-29742.7	0.000000	0.000000	6.202795	0.034404	NaN	0.000000	0.001665	0.001675	28.0838	0.128284	0.001881	68.1886	32.079	-165.992	-0.117621	0.200943	-0.958949	-0.960228	0.034404	68.1886	-0.959327	-6.423928E+12	-5.355647E-15	NaN
1093	1.000000	0.212268	7.37574e+06	-54789.1	1055.82	-29742.7	0.000000	0.000000	6.212840	0.025689	NaN	0.000000	0.001662	0.001664	28.084	0.107441	0.002062	52.113	0.231346	16.1913	0.062874	0.210880	-0.948903	-0.950291	0.025689	52.113	-0.949273	-4.701347E+12	-5.464240E-15	NaN
1093	1.000000	0.222242	7.37574e+06	-54789.1	1055.82	-29742.7	0.000000	0.000000	6.222809	-0.084819	NaN	0.000000	0.001639	0.001735	28.0837	0.129578	0.002041	63.49	11.8176	-168.11	-0.018280	0.220963	-0.938930	-0.940209	-0.084819	63.49	-0.937928	-3.305044E+12	2.566349E-14	NaN
1093	1.000000	0.232268	7.37574e+06	-54789.1	1055.82	-29742.7	0.000000	0.000000	6.232841	0.036153	NaN	0.000000	0.001632	0.001752	28.0848	0.134066	0.002220	60.3957	156.414	13.7218	-0.059590	0.230886	-0.928903	-0.930285	0.036153	60.3957	-0.929352	-2.531960E+12	-1.427875E-14	NaN
1093	1.000000	0.242241	7.37574e+06	-54789.1	1055.82	-29742.7	0.000000	0.000000	6.242812	-0.018197	NaN	0.000000	0.001633	0.001713	28.085	0.065549	0.001873	34.9942	-91.4083	-164.877	-0.003321	0.240966	-0.918930	-0.920205	-0.018197	34.9942	-0.918540	-1.809244E+12	1.005804E-14	NaN
1093	1.000000	0.252267	7.37574e+06	-54789.1	1055.82	-29742.7	0.000000	0.000000	6.252837	-0.027293	NaN	0.000000	0.001657	0.001744	28.0846	0.033041	0.001982	16.6667	50.1192	13.892	-0.030640	0.250864	-0.908905	-0.910307	-0.027293	16.6667	-0.907677	-1.290567E+12	2.114775E-14	NaN
1093	1.000000	0.262259	7.37574e+06	-54789.1	1055.82	-29742.7	0.000000	0.000000	6.262829	-0.014800	NaN	0.000000	0.001643	0.001727	28.0847	0.042776	0.001981	21.5941	-32.2398	-165.937	-0.043287	0.260935	-0.898913	-0.900236	-0.014800	21.5941	-0.898399	-9.670043E+11	1.530516E-14	NaN
1093	1.000000	0.272248	7.37574e+06	-54789.1	1055.82	-29742.7	0.000000	0.000000	6.272820	0.012307	NaN	0.000000	0.001631	0.001719	28.085	0.189346	0.001978	95.7393	78.6761	12.9924	0.036535	0.270914	-0.888923	-0.890257	0.012307	95.7393	-0.889019	-7.222041E+11	-1.704139E-14	NaN
1093	1.000000	0.282277	7.37574e+06	-54789.1	1055.82	-29742.7	0.000000	0.000000	6.282848	0.000619	NaN	0.000000	0.001632	0.001728	28.0852	0.085748	0.002147	39.9455	-128.828	-164.226	-0.013501	0.280943	-0.878895	-0.880228	0.000619	39.9455	-0.878906	-5.271286E+11	-1.173968E-15	NaN
1093	1.000000	0.292241	7.37574e+06	-54789.1	1055.82	-29742.7	0.000000	0.000000	6.292811	-0.015132	NaN	0.000000	0.001662	0.001693	28.0852	0.022892	0.002007	11.4054	97.2426	12.9441	-0.013538	0.290927	-0.868931	-0.870245	-0.015132	11.4054	-0.867936	-3.745521E+11	4.040130E-14	NaN
1093	1.000000	0.302276	7.37574e+06	-54789.1	1055.82	-29742.7	0.000000	0.000000	6.302849	0.046036	NaN	0.000000	0.001666	0.001688	28.0849	0.108279	0.002060	52.5611	69.846	-168.548	-0.005553	0.300967	-0.858896	-0.860205	0.046036	52.5611	-0.859553	-2.884456E+11	-1.596012E-13	NaN
1093	1.000000	0.312297	7.37574e+06	-54789.1	1055.82	-29742.7	0.000000	0.000000	6.312869	0.011692	NaN	0.000000	0.001737	0.001729	28.0851	0.032953	0.001949	16.9056	-178.156	8.557938	-0.057765	0.310860	-0.848874	-0.850311	0.011692	16.9056	-0.849393	-2.101440E+11	-5.563683E-14	NaN
1093	1.000000	0.322299	7.37574e+06	-54789.1	1055.82	-29742.7	0.000000	0.000000	6.322870	-0.004439	NaN	0.000000	0.001733	0.001728	28.085	0.074154	0.001955	37.9214	179.851	-163.829	-0.043214	0.321026	-0.838872	-0.840146	-0.004439	37.9214	-0.838785	-1.509478E+11	2.940954E-14	NaN
1093	1.000000	0.332305	7.37574e+06	-54789.1	1055.82	-29742.7	0.000000	0.000000	6.332877	0.025271	NaN	0.000000	0.001736	0.001750	28.0849	0.063315	0.001874	33.7785	-18.5915	10.3276	0.069017	0.330957	-0.828867	-0.830214	0.025271	33.7785	-0.829428	-1.127278E+11	-2.241755E-13	NaN
1093	1.000000	0.342302	7.37574e+06	-54789.1	1055.82	-29742.7	0.000000	0.000000	6.342873	-0.012442	NaN	0.000000	0.001732	0.001712	28.0851	0.014524	0.002105	6.898320	81.3047	-166.264	-0.001859	0.340988	-0.818869	-0.820184	-0.012442	6.898320	-0.817517	-7.771982E+10	1.600893E-13	NaN
1093	1.000000	0.352290	7.37574e+06	-54789.1	1055.82	-29742.7	0.000000	0.000000	6.352860	-0.024923	NaN	0.000000	0.001766	0.001726	28.0853	0.035032	0.001992	17.5892	64.2308	15.646	-0.016636	0.350904	-0.808881	-0.810268	-0.024923	17.5892	-0.807819	-5.740820E+10	4.341349E-13	NaN
1093	1.000000	0.362326	7.37575e+06	-54789.1	1055.82	-29742.7	0.000000	0.000000	6.362898	0.022577	NaN	0.000000	0.001730	0.001690	28.0843	0.125093	0.002011	62.2135	-53.7747	-164.932	0.056872	0.361010	-0.798845	-0.800162	0.022577	62.2135	-0.799118	-4.374058E+10	-5.161457E-13	NaN
1093	1.000000	0.372312	7.37575e+06	-54789.1	1055.82	-29742.7	0.000000	0.000000	6.372882	-0.025267	NaN	0.000000	0.001707	0.001710	28.084	0.084454	0.002059	41.0159	118.862	14.8367	-0.017510	0.370893	-0.788860	-0.790278	-0.025267	41.0159	-0.788398	-3.128387E+10	8.076534E-13	NaN
1093	1.000000	0.382363	7.37575e+06	-54789.1	1055.82	-29742.7	0.000000	0.000000	6.382934	-0.015069	NaN	0.000000	0.001728	0.001661	28.0839	0.091157	0.001875	48.6107	-116.153	-166.38	-0.025111	0.381021	-0.778808	-0.780150	-0.015069	48.6107	-0.778576	-2.300791E+10	6.549617E-13	NaN
1093	1.000000	0.392336	7.37575e+06	-54789.1	1055.82	-29742.7	0.000000	0.000000	6.392906	-0.027006	NaN	0.000000	0.001778	0.001691	28.0837	0.030599	0.001991	15.3722	52.7834	14.2661	-0.106145	0.390967	-0.768836	-0.770205	-0.027006	15.3722	-0.767518	-1.627644E+10	1.659237E-12	NaN
1093	1.000000	0.402337	7.37575e+06	-54789.1	1055.82	-29742.7	0.000000	0.000000	6.402906	-0.047810	NaN	0.000000	0.001691	0.001677	28.0835	0.062628	0.002040	30.7041	-95.4615	-163.952	0.003697	0.401022	-0.758834	-0.760150	-0.047810	30.7041	-0.757667	-1.195519E+10	3.999117E-12	NaN
1093	1.000000	0.412303	7.37575e+06	-54789.1	1055.82	-29742.7	0.000000	0.000000	6.412873	-0.017324	NaN	0.000000	0.001740	0.001680	28.0836	0.097055	0.001968	49.3232	124.169	14.2364	0.057344	0.410920	-0.748869	-0.750251	-0.017324	49.3232	-0.748605	-8.999799E+9	1.924889E-12	NaN
1093	1.000000	0.422325	7.37575e+06	-54789.1	1055.82	-29742.7	0.000000	0.000000	6.422897	0.020675	NaN	0.000000	0.001713	0.001727	28.0835	0.038993	0.001980	19.6912	133.486	-166.182	0.076349	0.421024	-0.738846	-0.740147	0.020675	19.6912	-0.739633	-6.793036E+9	-3.043541E-12	NaN
1093	1.000000	0.432322	7.37575e+06	-54789.1	1055.82	-29742.7	0.000000	0.000000	6.432898	0.114845	NaN	0.000000	0.001728	0.001659	28.0838	0.062244	0.002051	30.3503	-149.958	12.5187	0.013906	0.430968	-0.728849	-0.730203	0.114845	30.3503	-0.731687	-5.294227E+9	-2.169255E-11	NaN
1093	1.000000	0.442352	7.37575e+06	-54789.1	1055.82	-29742.7	0.000000	0.000000	6.442924	0.014986	NaN	0.000000	0.001710	0.001728	28.0836	0.107364	0.001816	59.1057	44.1728	-164.641	0.083522	0.441037	-0.718819	-0.720134	0.014986	59.1057	-0.719010	-3.556037E+9	-4.214192E-12	NaN
1093	1.000000	0.452337	7.37575e+06	-54789.1	1055.82	-29742.7	0.000000	0.000000	6.452907	-0.030812	NaN	0.000000	0.001668	0.001722	28.0837	0.140234	0.001932	72.5815	-113.548	11.5524	-0.054043	0.450995	-0.708834	-0.710176	-0.030812	72.5815	-0.708516	-2.557372E+9	1.204848E-11	NaN
1093	1.000000	0.462363	7.37575e+06	-54789.1	1055.82	-29742.7	0.000000	0.000000	6.462935	0.027684	NaN	0.000000	0.001673	0.001737	28.0837	0.034782	0.001985	17.5235	-74.3418	-166.802	0.021162	0.461027	-0.698808	-0.700144	0.027684	17.5235	-0.699993	-1.956311E+9	-1.415093E-11	NaN
1093	1.000000	0.472351	7.37575e+06	-54789.1	1055.82	-29742.7	0.000000	0.000000	6.472923	0.011438	NaN	0.000000	0.001738	0.001741	28.0835	0.075969	0.001961	38.7403	-40.5255	11.5545	-0.039615	0.470934	-0.688820	-0.690238	0.011438	38.7403	-0.689041	-1.386175E+9	-8.251234E-12	NaN
1093	1.000000	0.482369	7.37575e+06	-54789.1	1055.82	-29742.7	0.000000	0.000000	6.482939	-0.014265	NaN	0.000000	0.001721	0.001756	28.0834	0.050662	0.002047	24.7472	145.043	-169.551	-0.039822	0.481032	-0.678803	-0.680139	-0.014265	24.7472	-0.678370	-9.906385E+8	1.439935E-11	NaN
1093	1.000000	0.492356	7.37575e+06	-54789.1	1055.82	-29742.7	0.000000	0.000000	6.492928	0.020293	NaN	0.000000	0.001762	0.001718	28.0836	0.035358	0.002048	17.2663	11.2915	14.8791	-0.097672	0.490966	-0.668815	-0.670205	0.020293	17.2663	-0.669697	-7.537707E+8	-2.692252E-11	NaN
1093	1.000000	0.502373	7.37575e+06	-54789.1	1055.82	-29742.7	0.000000	0.000000	6.502945	0.016738	NaN	0.000000	0.001756	0.001749	28.0849	0.082044	0.002031	40.396	12.7066	-163.793	-0.011317	0.501098	-0.658798	-0.660073	0.016738	40.396	-0.659109	-5.398399E+8	-3.100574E-11	NaN
1093	1.000000	0.512371	7.37575e+06	-54789.1	1055.82	-29742.7	0.000000	0.000000	6.512943	0.000811	NaN	0.000000	0.001753	0.001746	28.0847	0.078488	0.001879	41.7739	159.06	13.8455	0.025574	0.511048	-0.648800	-0.650123	0.000811	41.7739	-0.648815	-3.901079E+8	-2.079882E-12	NaN
1093	1.000000	0.522394	7.37575e+06	-54789.1	1055.82	-29742.7	0.000000	0.000000	6.522966	0.035773	NaN	0.000000	0.001735	0.001729	28.0848	0.062920	0.001931	32.5815	30.816	-171.41	0.007375	0.521100	-0.638778	-0.640071	0.035773	32.5815	-0.639601	-2.916201E+8	-1.226711E-10	NaN
1093	1.000000	0.532394	7.37575e+06	-54789.1	1055.82	-29742.7	0.000000	0.000000	6.532967	0.063604	NaN	0.000000	0.001691	0.001721	28.0848	0.039391	0.002010	19.5963	68.8703	12.308	0.051974	0.531044	-0.628778	-0.630127	0.063604	19.5963	-0.631212	-2.237007E+8	-2.843275E-10	NaN
1093	1.000000	0.542377	7.37575e+06	-54789.1	1055.82	-29742.7	0.000000	0.000000	6.542947	-0.045843	NaN	0.000000	0.001731	0.001727	28.0848	0.070254	0.001970	35.6573	-132.577	-163.41	0.025663	0.541113	-0.618794	-0.620058	-0.045843	35.6573	-0.617830	-1.464872E+8	3.129485E-10	NaN
1093	1.000000	0.552417	7.37575e+06	-54789.1	1055.82	-29742.7	0.000000	0.000000	6.552987	-0.031827	NaN	0.000000	0.001724	0.001725	28.0847	0.054872	0.002017	27.2003	22.3109	11.8401	-0.063378	0.550999	-0.608754	-0.610172	-0.031827	27.2003	-0.607877	-1.068802E+8	2.977834E-10	NaN
1093	1.000000	0.562404	7.37575e+06	-54789.1	1055.82	-29742.7	0.000000	0.000000	6.562978	0.066417	NaN	0.000000	0.001773	0.001748	28.0848	0.076327	0.001981	38.5304	-91.0922	-169.557	0.061992	0.561114	-0.598768	-0.600058	0.066417	38.5304	-0.600061	-8.342487E+7	-7.961311E-10	NaN
1093	1.000000	0.572405	7.37575e+06	-54789.1	1055.82	-29742.7	0.000000	0.000000	6.572974	-0.050448	NaN	0.000000	0.001741	0.001783	28.085	0.039271	0.001955	20.0841	-95.5424	14.6697	-0.035582	0.571067	-0.588767	-0.590104	-0.050448	20.0841	-0.586883	-5.491426E+7	9.186609E-10	NaN
1093	1.000000	0.582386	7.37575e+06	-54789.1	1055.82	-29742.7	0.000000	0.000000	6.582958	0.031181	NaN	0.000000	0.001669	0.001752	28.0849	0.126671	0.001935	65.4578	-144.577	-167.624	0.062014	0.581137	-0.578786	-0.580035	0.031181	65.4578	-0.579143	-4.294341E+7	-7.260839E-10	NaN
1093	1.000000	0.592401	7.37575e+06	-54789.1	1055.82	-29742.7	0.000000	0.000000	6.592973	0.030973	NaN	0.000000	0.001650	0.001765	28.0847	0.101793	0.001991	51.1333	88.8755	14.3814	-0.005436	0.591050	-0.568770	-0.570121	0.030973	51.1333	-0.569225	-3.132705E+7	-9.886866E-10	NaN
1093	1.000000	0.602428	7.37575e+06	-54789.1	1055.82	-29742.7	0.000000	0.000000	6.603000	0.004341	NaN	0.000000	0.001642	0.001763	28.0849	0.068349	0.002066	33.0788	-8.676683	-165.014	-0.009438	0.601087	-0.558743	-0.560084	0.004341	33.0788	-0.558842	-2.250876E+7	-1.928573E-10	NaN
1093	1.000000	0.612422	7.37575e+06	-54789.1	1055.82	-29742.7	0.000000	0.000000	6.612993	0.004829	NaN	0.000000	0.001693	0.001734	28.085	0.043810	0.002072	21.1421	39.363	14.0585	-0.005613	0.611050	-0.548749	-0.550122	0.004829	21.1421	-0.548921	-1.640617E+7	-2.943636E-10	NaN
1093	1.000000	0.622393	7.37575e+06	-54789.1	1055.82	-29742.7	0.000000	0.000000	6.622965	0.036543	NaN	0.000000	0.001682	0.001737	28.085	0.050202	0.001914	26.2266	-36.2949	-166.824	0.035040	0.621087	-0.538779	-0.540085	0.036543	26.2266	-0.539824	-1.227198E+7	-2.977793E-9	NaN
1093	1.000000	0.632423	7.37575e+06	-54789.1	1055.82	-29742.7	0.000000	0.000000	6.632994	-0.006005	NaN	0.000000	0.001622	0.001714	28.0848	0.188808	0.001940	97.3347	13.7746	17.3557	-0.026372	0.631033	-0.528748	-0.530138	-0.006005	97.3347	-0.528702	-8.601e+06	6.981505E-10	NaN
1093	1.000000	0.642412	7.37575e+06	-54789.1	1055.82	-29742.7	0.000000	0.000000	6.642981	-0.044343	NaN	0.000000	0.001641	0.001739	28.0839	0.107933	0.002113	51.085	-99.675	-166.631	-0.040029	0.641141	-0.518760	-0.520030	-0.044343	51.085	-0.518109	-6.1276e+06	7.236643E-9	NaN
1093	1.000000	0.652427	7.37575e+06	-54789.1	1055.82	-29742.7	0.000000	0.000000	6.652996	-0.052059	NaN	0.000000	0.001613	0.001673	28.0837	0.136039	0.001900	71.6111	-165.836	10.1645	-0.052726	0.651053	-0.508745	-0.510119	-0.052059	71.6111	-0.508199	-4.45998e+06	1.167250E-8	NaN
1093	1.000000	0.662425	7.37575e+06	-54789.1	1055.82	-29742.7	0.000000	0.000000	6.662997	0.021735	NaN	0.000000	0.001585	0.001708	28.0838	0.078441	0.001977	39.6792	82.2542	-167.653	-0.036215	0.661148	-0.498747	-0.500023	0.021735	39.6792	-0.499158	-3.33631e+06	-6.514683E-9	NaN
1093	1.000000	0.672434	7.37575e+06	-54789.1	1055.82	-29742.7	0.000000	0.000000	6.673005	-0.010852	NaN	0.000000	0.001629	0.001739	28.0834	0.022942	0.002011	11.4055	-19.1403	14.7427	-0.007078	0.671033	-0.488737	-0.490138	-0.010852	11.4055	-0.488024	-2.33224e+06	4.653117E-9	NaN
1093	1.000000	0.682425	7.37575e+06	-54789.1	1055.82	-29742.7	0.000000	0.000000	6.682999	0.048457	NaN	0.000000	0.001654	0.001737	28.0839	0.016977	0.002015	8.427152	87.0735	-164.318	0.036286	0.681132	-0.478746	-0.480040	0.048457	8.427152	-0.483059	-1.98762e+06	-2.437954E-8	NaN
1093	1.000000	0.692444	7.37575e+06	-54789.1	1055.82	-29742.7	0.000000	0.000000	6.693018	0.074414	NaN	0.000000	0.001693	0.001746	28.0836	0.028638	0.001970	14.5368	13.8975	11.2198	-0.000652	0.691048	-0.468728	-0.470123	0.074414	14.5368	-0.472567	-1.4171e+06	-5.251114E-8	NaN
1093	1.000000	0.702486	7.37575e+06	-54789.1	1055.82	-29742.7	0.000000	0.000000	6.703056	-0.013631	NaN	0.000000	0.001672	0.001774	28.084	0.086541	0.001983	43.6484	155.705	-164.715	-0.102633	0.701128	-0.458686	-0.460043	-0.013631	43.6484	-0.458452	-897957	1.518026E-8	NaN
1093	1.000000	0.712452	7.37575e+06	-54789.1	1055.82	-29742.7	0.000000	0.000000	6.713021	-0.051720	NaN	0.000000	0.001663	0.001739	28.0836	0.116956	0.002032	57.5449	-43.8512	10.2871	-0.006374	0.711067	-0.448720	-0.450105	-0.051720	57.5449	-0.448046	-640936	8.069401E-8	NaN
1093	1.000000	0.722452	7.37575e+06	-54789.1	1055.82	-29742.7	0.000000	0.000000	6.723023	-0.004865	NaN	0.000000	0.001704	0.001706	28.0837	0.033699	0.001875	17.9703	132.39	-164.499	0.053606	0.721132	-0.438719	-0.440040	-0.004865	17.9703	-0.438516	-470344	1.034382E-8	NaN
1093	1.000000	0.732480	7.37575e+06	-54789.1	1055.82	-29742.7	0.000000	0.000000	6.733049	-0.052812	NaN	0.000000	0.001700	0.001751	28.0836	0.091769	0.001913	47.9594	-150.45	13.3317	-0.061608	0.731082	-0.428691	-0.430090	-0.052812	47.9594	-0.427865	-332547	1.588114E-7	NaN
1093	1.000000	0.742465	7.37575e+06	-54789.1	1055.82	-29742.7	0.000000	0.000000	6.743038	0.050848	NaN	0.000000	0.001665	0.001711	28.0835	0.137628	0.001931	71.2702	92.1908	-167.31	0.029742	0.741159	-0.418706	-0.420012	0.050848	71.2702	-0.419241	-250990	-2.025895E-7	NaN
1093	1.000000	0.752492	7.37575e+06	-54789.1	1055.82	-29742.7	0.000000	0.000000	6.753063	-0.005029	NaN	0.000000	0.001689	0.001709	28.0837	0.092246	0.002010	45.9048	-75.2685	13.719	-0.082797	0.751152	-0.408679	-0.410020	-0.005029	45.9048	-0.408597	-177194	2.838109E-8	NaN
1093	1.000000	0.762484	7.37575e+06	-54789.1	1055.82	-29742.7	0.000000	0.000000	6.763054	-0.037030	NaN	0.000000	0.001662	0.001734	28.0837	0.057223	0.001976	28.9613	-69.8137	-166.135	-0.017934	0.761181	-0.398688	-0.399990	-0.037030	28.9613	-0.397729	-124048	2.985115E-7	NaN
1093	1.000000	0.772471	7.37575e+06	-54789.1	1055.82	-29742.7	0.000000	0.000000	6.773041	-0.022516	NaN	0.000000	0.001616	0.001772	28.0848	0.020450	0.002082	9.824020	14.2547	15.4388	-0.023599	0.771137	-0.388700	-0.390034	-0.022516	9.824020	-0.386981	-87089.5	2.585377E-7	NaN
1093	1.000000	0.782480	7.37575e+06	-54789.1	1055.82	-29742.7	0.000000	0.000000	6.783053	0.055742	NaN	0.000000	0.001668	0.001763	28.0848	0.150391	0.002024	74.3157	-60.7547	-170.489	0.015659	0.781187	-0.378691	-0.379984	0.055742	74.3157	-0.379254	-67481.1	-8.260447E-7	NaN
1093	1.000000	0.792460	7.37575e+06	-54789.1	1055.82	-29742.7	0.000000	0.000000	6.793033	0.044711	NaN	0.000000	0.001680	0.001769	28.0851	0.072038	0.002099	34.321	59.6206	14.4254	0.068637	0.791180	-0.368711	-0.369991	0.044711	34.321	-0.369688	-49162.8	-9.094391E-7	NaN
1093	1.000000	0.802509	7.37575e+06	-54789.1	1055.82	-29742.7	0.000000	0.000000	6.803081	0.033115	NaN	0.000000	0.001627	0.001780	28.0847	0.060066	0.001804	33.3021	-67.1622	-164.183	0.055641	0.801181	-0.358663	-0.359991	0.033115	33.3021	-0.359408	-34937.5	-9.478329E-7	NaN
1093	1.000000	0.812502	7.37575e+06	-54789.1	1055.82	-29742.7	0.000000	0.000000	6.813075	0.048083	NaN	0.000000	0.001704	0.001743	28.0848	0.109466	0.001818	60.2276	-157.585	14.6235	0.015708	0.811121	-0.348669	-0.350050	0.048083	60.2276	-0.349268	-24910.2	-1.930269E-6	NaN
1093	1.000000	0.822507	7.37575e+06	-54789.1	1055.82	-29742.7	0.000000	0.000000	6.823080	0.027670	NaN	0.000000	0.001677	0.001756	28.0847	0.055672	0.001828	30.4534	-107.809	-161.446	0.014972	0.821235	-0.338664	-0.339937	0.027670	30.4534	-0.339346	-17865.4	-1.548810E-6	NaN
1093	1.000000	0.832519	7.37575e+06	-54789.1	1055.82	-29742.7	0.000000	0.000000	6.833090	-0.003474	NaN	0.000000	0.001682	0.001780	28.0847	0.067872	0.002033	33.3876	-157.368	14.4888	-0.072040	0.831143	-0.328653	-0.330028	-0.003474	33.3876	-0.328575	-12432.8	2.794316E-7	NaN
1093	1.000000	0.842504	7.37575e+06	-54789.1	1055.82	-29742.7	0.000000	0.000000	6.843078	0.080173	NaN	0.000000	0.001697	0.001750	28.0847	0.038135	0.001921	19.8512	-43.9739	-165.935	0.077895	0.841191	-0.318667	-0.319980	0.080173	19.8512	-0.321696	-9853.65	-8.136417E-6	NaN
1093	1.000000	0.852507	7.37575e+06	-54789.1	1055.82	-29742.7	0.000000	0.000000	6.853080	0.047249	NaN	0.000000	0.001654	0.001764	28.0848	0.123049	0.002081	59.1229	-56.5377	14.2399	-0.003659	0.851148	-0.308665	-0.310024	0.047249	59.1229	-0.309264	-6458.92	-7.315347E-6	NaN
1093	1.000000	0.862505	7.37575e+06	-54789.1	1055.82	-29742.7	0.000000	0.000000	6.863076	0.005748	NaN	0.000000	0.001638	0.001794	28.0849	0.024737	0.002111	11.7163	-58.4881	-163.505	0.017928	0.861194	-0.298667	-0.299977	0.005748	11.7163	-0.299035	-4552.62	-1.262560E-6	NaN
1093	1.000000	0.872519	7.37575e+06	-54789.1	1055.82	-29742.7	0.000000	0.000000	6.873091	0.016470	NaN	0.000000	0.001607	0.001781	28.0847	0.037036	0.002030	18.2483	-28.5988	14.644	-0.062621	0.871131	-0.288652	-0.290040	0.016470	18.2483	-0.289329	-3260.23	-5.051902E-6	NaN
1093	1.000000	0.882531	7.37575e+06	-54789.1	1055.82	-29742.7	0.000000	0.000000	6.883101	-0.033178	NaN	0.000000	0.001648	0.001718	28.0847	0.127507	0.002030	62.8066	176.247	-168.503	-0.079118	0.881209	-0.278640	-0.279963	-0.033178	62.8066	-0.278244	-2220.55	1.494157E-5	NaN
1093	1.000000	0.892528	7.37575e+06	-54789.1	1055.82	-29742.7	0.000000	0.000000	6.893097	-0.056838	NaN	0.000000	0.001657	0.001740	28.0848	0.041051	0.001902	21.5844	118.417	15.4033	-0.036804	0.891151	-0.268644	-0.270021	-0.056838	21.5844	-0.266669	-1481.96	3.835305E-5	NaN
1093	1.000000	0.902536	7.37575e+06	-54789.1	1055.82	-29742.7	0.000000	0.000000	6.903109	0.030584	NaN	0.000000	0.001646	0.001716	28.085	0.032617	0.001880	17.3478	169.306	-165.036	0.048836	0.901261	-0.258635	-0.259910	0.030584	17.3478	-0.259958	-1170.22	-2.613546E-5	NaN
1093	1.000000	0.912546	7.37575e+06	-54789.1	1055.82	-29742.7	0.000000	0.000000	6.913115	-0.049220	NaN	0.000000	0.001599	0.001749	28.0836	0.084627	0.001938	43.6667	-8.143789	15.7615	0.042973	0.911168	-0.248626	-0.250003	-0.049220	43.6667	-0.247780	-759.629	6.479486E-5	NaN
1093	1.000000	0.922548	7.37575e+06	-54789.1	1055.82	-29742.7	0.000000	0.000000	6.923120	0.040685	NaN	0.000000	0.001626	0.001729	28.0836	0.104187	0.002076	50.1895	117.167	-168.242	-0.019628	0.921263	-0.238624	-0.239909	0.040685	50.1895	-0.239232	-559.178	-7.275933E-5	NaN
1093	1.000000	0.932553	7.37575e+06	-54789.1	1055.82	-29742.7	0.000000	0.000000	6.933125	0.041679	NaN	0.000000	0.001611	0.001708	28.0839	0.045372	0.002100	21.6098	-93.9785	12.3734	0.006584	0.931175	-0.228619	-0.229996	0.041679	21.6098	-0.230065	-401.375	-0.000104	NaN
1093	1.000000	0.942536	7.37575e+06	-54789.1	1055.82	-29742.7	0.000000	0.000000	6.943107	0.009849	NaN	0.000000	0.001643	0.001726	28.084	0.121380	0.001938	62.633	13.8942	-166.707	0.046848	0.941278	-0.218636	-0.219893	0.009849	62.633	-0.218754	-265.305	-3.712363E-5	NaN
1093	1.000000	0.952564	7.37575e+06	-54789.1	1055.82	-29742.7	0.000000	0.000000	6.953139	0.102002	NaN	0.000000	0.001658	0.001761	28.0838	0.109796	0.002129	51.5716	-101.857	8.145925	0.058381	0.951172	-0.208608	-0.210000	0.102002	51.5716	-0.210091	-192.439	-0.000530	NaN
1093	1.000000	0.962586	7.37575e+06	-54789.1	1055.82	-29742.7	0.000000	0.000000	6.963157	-0.009089	NaN	0.000000	0.001659	0.001743	28.0836	0.073910	0.001904	38.8142	-7.878389	-165.235	0.083515	0.961212	-0.198586	-0.199960	-0.009089	38.8142	-0.198410	-124.032	7.328216E-5	NaN
1093	1.000000	0.972525	7.37575e+06	-54789.1	1055.82	-29742.7	0.000000	0.000000	6.973097	-0.001736	NaN	0.000000	0.001624	0.001714	28.0839	0.109478	0.002013	54.3977	-145.241	14.8674	-0.002180	0.971221	-0.188646	-0.189951	-0.001736	54.3977	-0.188622	-85.3062	2.034488E-5	NaN
1093	1.000000	0.982570	7.37575e+06	-54789.1	1055.82	-29742.7	0.000000	0.000000	6.983140	-0.023914	NaN	0.000000	0.001634	0.001751	28.0836	0.018840	0.002175	8.661037	101.52	-167.501	0.002045	0.981274	-0.178602	-0.179897	-0.023914	8.661037	-0.176531	-53.2407	0.000449	NaN
1093	1.000000	0.992560	7.37575e+06	-54789.1	1055.82	-29742.7	0.000000	0.000000	6.993133	0.050392	NaN	0.000000	0.001646	0.001772	28.0835	0.012598	0.001834	6.868910	36.0171	13.6666	-0.028484	0.991239	-0.168612	-0.169932	0.050392	6.868910	-0.174114	-48.3885	-0.001041	NaN
1093	1.000000	1.002580	7.37575e+06	-54789.1	1055.82	-29742.7	0.000000	0.000000	7.003156	0.129306	NaN	0.000000	0.001658	0.001769	28.0835	0.052501	0.001982	26.4953	-70.857	-164.827	0.104780	1.001264	-0.158592	-0.159907	0.129306	26.4953	-0.162252	-30.0532	-0.004303	NaN
1093	1.000000	1.012563	7.37575e+06	-54789.1	1055.82	-29742.7	0.000000	0.000000	7.013136	0.044349	NaN	0.000000	0.001647	0.001775	28.0843	0.086179	0.002069	41.6581	-105.986	13.559	0.061811	1.011250	-0.148609	-0.149922	0.044349	41.6581	-0.149407	-17.6679	-0.002510	NaN
1093	1.000000	1.022570	7.37575e+06	-54789.1	1055.82	-29742.7	0.000000	0.000000	7.023143	0.042815	NaN	0.000000	0.001626	0.001787	28.0837	0.137763	0.002021	68.1731	-178.856	-166.502	0.059504	1.021279	-0.138601	-0.139893	0.042815	68.1731	-0.139072	-11.3635	-0.003768	NaN
1093	1.000000	1.032589	7.37575e+06	-54789.1	1055.82	-29742.7	0.000000	0.000000	7.033161	0.018373	NaN	0.000000	0.001595	0.001759	28.0836	0.095729	0.002056	46.5682	77.6498	11.955	0.085302	1.031294	-0.128583	-0.129878	0.018373	46.5682	-0.128878	-7.247385	-0.002535	NaN
1093	1.000000	1.042580	7.37575e+06	-54789.1	1055.82	-29742.7	0.000000	0.000000	7.043152	0.021142	NaN	0.000000	0.001651	0.001792	28.0835	0.023853	0.002007	11.8837	-38.0737	-163.244	-0.023448	1.041248	-0.118591	-0.119924	0.021142	11.8837	-0.119926	-4.814828	-0.004391	NaN
1093	1.000000	1.052592	7.37575e+06	-54789.1	1055.82	-29742.7	0.000000	0.000000	7.053166	0.060970	NaN	0.000000	0.001631	0.001756	28.0853	0.058099	0.002040	28.4747	149.073	14.655	-0.001057	1.051245	-0.108579	-0.109927	0.060970	28.4747	-0.110185	-3.032322	-0.020107	NaN
1093	1.000000	1.062630	7.37575e+06	-54789.1	1055.82	-29742.7	0.000000	0.000000	7.063202	0.005821	NaN	0.000000	0.001620	0.001754	28.0846	0.079110	0.001892	41.8194	69.2591	-168.698	0.041290	1.061262	-0.098541	-0.099909	0.005821	41.8194	-0.098646	-1.704682	-0.003415	NaN
1093	1.000000	1.072601	7.37575e+06	-54789.1	1055.82	-29742.7	0.000000	0.000000	7.073175	0.066620	NaN	0.000000	0.001628	0.001744	28.0849	0.187885	0.001956	96.0315	24.4709	14.4771	0.043278	1.071234	-0.088571	-0.089938	0.066620	96.0315	-0.089091	-1.029035	-0.064741	NaN
1093	1.000000	1.082621	7.37575e+06	-54789.1	1055.82	-29742.7	0.000000	0.000000	7.083194	0.034234	NaN	0.000000	0.001628	0.001771	28.0848	0.088659	0.002042	43.4235	-65.5299	-163.093	-0.012741	1.081359	-0.078550	-0.079812	0.034234	43.4235	-0.079142	-0.589059	-0.058117	NaN
1093	1.000000	1.092609	7.37575e+06	-54789.1	1055.82	-29742.7	0.000000	0.000000	7.093181	0.011642	NaN	0.000000	0.001649	0.001778	28.085	0.077781	0.002007	38.7465	-139.864	16.5525	-0.029103	1.091249	-0.068562	-0.069923	0.011642	38.7465	-0.068788	-0.316429	-0.036792	NaN
1093	1.000000	1.102595	7.37575e+06	-54789.1	1055.82	-29742.7	0.000000	0.000000	7.103170	0.075726	NaN	0.000000	0.001658	0.001732	28.0847	0.169821	0.001991	85.2809	105.471	-166.392	0.017701	1.101307	-0.058576	-0.059864	0.075726	85.2809	-0.059242	-0.171279	-0.442121	NaN
1093	1.000000	1.112602	7.37575e+06	-54789.1	1055.82	-29742.7	0.000000	0.000000	7.113176	0.077652	NaN	0.000000	0.001667	0.001782	28.0849	0.025722	0.001962	13.1124	7.939931	16.0572	0.024885	1.111206	-0.048570	-0.049966	0.077652	13.1124	-0.053011	-0.112396	-0.690881	NaN
1093	1.000000	1.122591	7.37575e+06	-54789.1	1055.82	-29742.7	0.000000	0.000000	7.123179	0.418474	NaN	0.000000	0.001659	0.001733	28.085	0.477185	0.001989	239.865	8.582600	-162.093	0.202075	1.121263	-0.038581	-0.039909	0.418474	239.865	-0.039889	-0.044873	-9.325749	NaN
1093	1.000000	1.132574	7.37575e+06	-54789.1	1055.82	-29742.7	0.000000	0.000000	7.133317	4.188068	NaN	0.000000	0.001732	0.001765	28.085	1.724373	0.001828	943.334	9.336133	8.617110	3.434019	1.131237	-0.028598	-0.029934	4.188068	943.334	-0.031927	-0.026082	-160.575	NaN
1093	1.000000	1.142489	7.37575e+06	-54789.1	1055.82	-29742.7	0.000000	0.000000	7.143455	9.581090	NaN	0.000000	0.001707	0.001775	28.0848	2.480755	0.001883	1317.25	9.409126	-168.595	8.789645	1.141295	-0.018682	-0.019877	9.581090	1317.25	-0.024137	-0.016021	-598.029	NaN
1093	2.000000	1.145649	7.37575e+06	-54789.1	1055.82	-29742.7	0.000000	0.000000	7.146648	10.3995	NaN	0.000000	0.001712	0.001787	28.0848	2.707599	0.001890	1432.83	7.617757	8.403367	10.119	1.145299	-0.015522	-0.015873	10.3995	1432.83	-0.020965	-0.013291	-782.443	NaN
1093	2.000000	1.148153	7.37575e+06	-54789.1	1055.82	-29742.7	0.000000	0.000000	7.149181	11.1157	NaN	0.000000	0.001723	0.001728	28.0851	2.922174	0.002042	1430.88	4.284141	-166.123	11.1214	1.147836	-0.013019	-0.013335	11.1157	1430.88	-0.018845	-0.011737	-947.089	NaN
1093	2.000000	1.150646	7.37575e+06	-54789.1	1055.82	-29742.7	0.000000	0.000000	7.151695	11.6089	NaN	0.000000	0.001698	0.001726	28.0848	2.995272	0.001867	1604.4	2.377554	15.5095	11.6232	1.150299	-0.010526	-0.010872	11.6089	1604.4	-0.015952	-0.009854	-1178.13	NaN
1093	2.000000	1.153109	7.37575e+06	-54789.1	1055.82	-29742.7	0.000000	0.000000	7.154160	11.6741	NaN	0.000000	0.001732	0.001722	28.0834	3.146810	0.001960	1605.53	2.364618	-164.329	11.4628	1.152751	-0.008063	-0.008420	11.6741	1605.53	-0.013516	-0.008401	-1389.61	NaN
1093	2.000000	1.155588	7.37575e+06	-54789.1	1055.82	-29742.7	0.000000	0.000000	7.156688	12.8675	NaN	0.000000	0.001766	0.001677	28.0834	3.242923	0.001934	1676.39	4.340321	12.9705	12.5119	1.155252	-0.005584	-0.005920	12.8675	1676.39	-0.011340	-0.007152	-1799.13	NaN
1093	2.000000	1.158083	7.37575e+06	-54789.1	1055.82	-29742.7	0.000000	0.000000	7.159246	14.395	NaN	0.000000	0.001673	0.001710	28.0837	3.678344	0.002103	1749.45	5.275269	-165.471	14.3347	1.157811	-0.003089	-0.003361	14.395	1749.45	-0.009260	-0.005963	-2414.1	NaN
1093	2.000000	1.160578	7.37575e+06	-54789.1	1055.82	-29742.7	0.000000	0.000000	7.161813	16.137	NaN	0.000000	0.001660	0.001710	28.0835	4.401465	0.001951	2255.83	10.7092	7.775673	15.7206	1.160178	-0.000594	-0.000994	16.137	2255.83	-0.005959	-0.004011	-4023.06	NaN
1093	2.000000	1.163057	7.37575e+06	-54789.1	1055.82	-29742.7	0.000000	0.000000	7.164380	18.275	NaN	0.000000	0.001650	0.001727	28.0836	5.399930	0.001984	2721.3	9.513987	-172.245	17.9423	1.162864	0.001886	0.001693	18.275	2721.3	-0.003151	-0.002221	-8226.82	NaN
1093	2.000000	1.165568	7.37575e+06	-54789.1	1055.82	-29742.7	0.000000	0.000000	7.166974	20.3061	NaN	0.000000	0.001611	0.001728	28.0836	6.377640	0.001880	3391.59	9.113965	9.050950	20.0669	1.165346	0.004396	0.004175	20.3061	3391.59	-9.406983E-5	-7.017162E-5	-289378	NaN
1093	2.000000	1.168055	7.37575e+06	-54789.1	1055.82	-29742.7	0.000000	0.000000	7.168757	3.194671	NaN	0.000000	0.001636	0.001710	28.0833	4.913086	0.002142	2294.22	19.275	-171.653	2.740379	1.167768	0.006883	0.006597	3.194671	2294.22	0.005839	0.004912	650.364	29907
1093	2.000000	1.170577	7.37575e+06	-54789.1	1055.82	-29742.7	0.000000	0.000000	7.171374	5.496101	NaN	0.000000	0.001635	0.001640	28.0837	7.735942	0.001864	4151.1	10.0593	11.3167	5.163716	1.170201	0.009405	0.009030	5.496101	4151.1	0.008412	0.007470	735.788	43881.9
1093	2.000000	1.173057	7.37575e+06	-54789.1	1055.82	-29742.7	0.000000	0.000000	7.174034	9.871537	NaN	0.000000	0.001657	0.001740	28.0835	11.5654	0.001818	6362.16	11.4116	-173.84	9.272847	1.172731	0.011885	0.011559	9.871537	6362.16	0.010721	0.009994	987.711	58143.4
1093	2.000000	1.175553	7.37575e+06	-54789.1	1055.82	-29742.7	0.000000	0.000000	7.176797	16.352	NaN	0.000000	0.001616	0.001696	28.0837	15.1419	0.001759	8610.54	4.812588	8.828565	15.302	1.175216	0.014382	0.014045	16.352	8610.54	0.012957	0.012657	1291.9	69925.1
1093	2.000000	1.178030	7.37575e+06	-54789.1	1055.82	-29742.7	0.000000	0.000000	7.179768	28.3686	NaN	0.000000	0.001653	0.001707	28.0837	19.3421	0.001599	12095.3	3.452642	-174.485	26.8959	1.177668	0.016858	0.016497	28.3686	12095.3	0.015099	0.015418	1840	88997.9
1093	2.000000	1.180519	7.37575e+06	-54789.1	1055.82	-29742.7	0.000000	0.000000	7.182934	44.8382	NaN	0.000000	0.001653	0.001704	28.0838	22.8003	0.001506	15137.4	4.966467	1.951936	41.2033	1.180147	0.019347	0.018976	44.8382	15137.4	0.017126	0.018226	2460.19	102443
1093	2.000000	1.183048	7.37575e+06	-54789.1	1055.82	-29742.7	0.000000	0.000000	7.186165	61.8971	NaN	0.000000	0.001636	0.001699	28.0839	26.6156	0.001635	16276.3	2.935073	-177.944	60.0187	1.182670	0.021876	0.021498	61.8971	16276.3	0.019024	0.021032	2942.98	102538
1093	2.000000	1.185547	7.37575e+06	-54789.1	1055.82	-29742.7	0.000000	0.000000	7.189493	82.0593	NaN	0.000000	0.001604	0.001723	28.0837	30.6042	0.001733	17663.6	4.247715	0.455229	80.1317	1.185165	0.024375	0.023994	82.0593	17663.6	0.020891	0.023962	3424.57	104254
1093	2.000000	1.187967	7.37575e+06	-54789.1	1055.82	-29742.7	0.000000	0.000000	7.193030	109.201	NaN	0.000000	0.001646	0.001704	28.0848	34.4304	0.001784	19301.5	5.436139	178.444	106.036	1.187664	0.026796	0.026493	109.201	19301.5	0.022552	0.026713	4087.97	107896
1093	2.000000	1.190546	7.37575e+06	-54789.1	1055.82	-29742.7	0.000000	0.000000	7.196693	135.543	NaN	0.000000	0.001632	0.001704	28.0849	36.3996	0.001647	22098.1	4.228648	-1.513290	133.438	1.190140	0.029375	0.028968	135.543	22098.1	0.024775	0.030607	4428.54	115404
1093	2.000000	1.192970	7.37575e+06	-54789.1	1055.82	-29742.7	0.000000	0.000000	7.199775	151.53	NaN	0.000000	0.001644	0.001701	28.0853	39.4502	0.001660	23770.8	4.700320	176.838	148.18	1.192677	0.031799	0.031506	151.53	23770.8	0.027018	0.034789	4355.67	116438
1093	2.000000	1.195481	7.37575e+06	-54789.1	1055.82	-29742.7	0.000000	0.000000	7.203674	185.286	NaN	0.000000	0.001672	0.001722	28.0849	43.5799	0.001850	23561.7	4.678207	-2.456314	181.639	1.195060	0.034309	0.033889	185.286	23561.7	0.028411	0.037515	4938.94	111141
1093	2.000000	1.198082	7.37575e+06	-54789.1	1055.82	-29742.7	0.000000	0.000000	7.207235	208.614	NaN	0.000000	0.001714	0.001722	28.0851	47.9495	0.001875	25578.1	8.743925	175.608	210.629	1.197594	0.036911	0.036423	208.614	25578.1	0.030794	0.042406	4919.5	113483
1093	2.000000	1.200481	7.37575e+06	-54789.1	1055.82	-29742.7	0.000000	0.000000	7.210638	233.016	NaN	0.000000	0.001695	0.001753	28.085	48.2981	0.001763	27390	1.652822	-0.189531	227.91	1.200094	0.039310	0.038922	233.016	27390	0.032929	0.047034	4954.19	115387
1093	2.000000	1.202939	7.37575e+06	-54789.1	1055.82	-29742.7	0.000000	0.000000	7.214581	269.115	NaN	0.000000	0.001676	0.001740	28.085	50.6663	0.001759	28798.8	2.203063	178.441	264.35	1.202598	0.041768	0.041426	269.115	28798.8	0.034759	0.051187	5257.49	116297
1093	2.000000	1.205490	7.37575e+06	-54789.1	1055.82	-29742.7	0.000000	0.000000	7.218465	301.539	NaN	0.000000	0.001683	0.001751	28.0849	55.2566	0.001752	31536.4	6.317484	-6.404106	296.911	1.205059	0.044319	0.043888	301.539	31536.4	0.037147	0.056864	5302.78	120827
1093	2.000000	1.207953	7.37575e+06	-54789.1	1055.82	-29742.7	0.000000	0.000000	7.222007	327.764	NaN	0.000000	0.001685	0.001738	28.085	58.4819	0.001853	31564.4	6.953216	172.542	323.775	1.207693	0.046782	0.046522	327.764	31564.4	0.038994	0.061454	5333.52	116331
1093	2.000000	1.210439	7.37575e+06	-54789.1	1055.82	-29742.7	0.000000	0.000000	7.225732	357.868	NaN	0.000000	0.001701	0.001732	28.0851	59.4981	0.001890	31488.2	2.231452	-2.370360	352.019	1.210163	0.049268	0.048992	357.868	31488.2	0.040744	0.065966	5425.04	112011
1093	2.000000	1.212915	7.37575e+06	-54789.1	1055.82	-29742.7	0.000000	0.000000	7.230094	403.737	NaN	0.000000	0.001681	0.001674	28.0853	62.1585	0.001742	35672.1	6.629942	171.847	400.186	1.212655	0.051743	0.051483	403.737	35672.1	0.043255	0.072710	5552.71	120866
1093	2.000000	1.215449	7.37575e+06	-54789.1	1055.82	-29742.7	0.000000	0.000000	7.234337	445.287	NaN	0.000000	0.001673	0.001692	28.0848	63.5422	0.001798	35336.8	0.377191	-1.427653	440.081	1.215106	0.054277	0.053935	445.287	35336.8	0.044826	0.077095	5775.82	116275
1093	2.000000	1.218072	7.37575e+06	-54789.1	1055.82	-29742.7	0.000000	0.000000	7.238416	480.693	NaN	0.000000	0.001665	0.001762	28.0851	67.7831	0.001919	35316.3	3.738085	175.252	484.502	1.217716	0.056900	0.056544	480.693	35316.3	0.046692	0.082463	5829.19	112362
1093	2.000000	1.220412	7.37575e+06	-54789.1	1055.82	-29742.7	0.000000	0.000000	7.240224	467.735	NaN	0.000000	0.001705	0.001740	28.0848	68.8874	0.001722	39994.1	5.504212	-8.019981	460.825	1.220130	0.059241	0.058959	467.735	39994.1	0.050470	0.093871	4982.76	119263
1093	2.000000	1.222932	7.37575e+06	-54789.1	1055.82	-29742.7	0.000000	0.000000	7.245288	529.607	NaN	0.000000	0.001672	0.001737	28.0835	69.3492	0.001795	38629.9	1.938103	176.39	526.169	1.222602	0.061760	0.061431	529.607	38629.9	0.051478	0.097036	5457.84	113300
1093	2.000000	1.225352	7.37575e+06	-54789.1	1055.82	-29742.7	0.000000	0.000000	7.248509	549.065	NaN	0.000000	0.001691	0.001715	28.0833	71.7001	0.001782	40231.4	-0.126354	-2.151545	539.941	1.225019	0.064180	0.063848	549.065	40231.4	0.053945	0.104995	5229.46	113437
1093	2.000000	1.227968	7.37575e+06	-54789.1	1055.82	-29742.7	0.000000	0.000000	7.252198	575.141	NaN	0.000000	0.001691	0.001768	28.0838	75.2407	0.001845	40781.3	5.082762	172.514	572.894	1.227729	0.066796	0.066558	575.141	40781.3	0.056219	0.112601	5107.8	111036
1093	2.000000	1.230475	7.37575e+06	-54789.1	1055.82	-29742.7	0.000000	0.000000	7.254641	573.577	NaN	0.000000	0.001699	0.001738	28.0833	75.8966	0.001762	43069.9	2.990758	-5.880616	568.96	1.230152	0.069304	0.068980	573.577	43069.9	0.059316	0.123366	4649.39	112034
1093	2.000000	1.233129	7.37575e+06	-54789.1	1055.82	-29742.7	0.000000	0.000000	7.259511	627.466	NaN	0.000000	0.001629	0.001727	28.0835	79.6929	0.001792	44475.2	4.759634	173.1	636.512	1.232707	0.071957	0.071535	627.466	44475.2	0.061376	0.130789	4797.56	112359
1093	2.000000	1.235433	7.37575e+06	-54789.1	1055.82	-29742.7	0.000000	0.000000	7.263089	658.43	NaN	0.000000	0.001610	0.001711	28.0835	80.5094	0.001832	43957	2.817290	-5.358642	653.286	1.235241	0.074261	0.074070	658.43	43957	0.063027	0.136887	4810.04	108548
1093	2.000000	1.237912	7.37575e+06	-54789.1	1055.82	-29742.7	0.000000	0.000000	7.266217	674.223	NaN	0.000000	0.001635	0.001739	28.0851	82.3274	0.001805	45612.5	0.750989	176.068	670.856	1.237728	0.076740	0.076557	674.223	45612.5	0.065654	0.146860	4590.93	108744
1093	2.000000	1.240365	7.37575e+06	-54789.1	1055.82	-29742.7	0.000000	0.000000	7.269980	706.034	NaN	0.000000	0.001597	0.001753	28.0835	84.1225	0.001890	44506.6	2.970000	-5.542303	696.662	1.239979	0.079194	0.078807	706.034	44506.6	0.067296	0.153264	4606.66	103867
1093	2.000000	1.241882	7.37575e+06	-54789.1	1055.82	-29742.7	0.000000	0.000000	7.272269	724.817	NaN	0.000000	0.001637	0.001710	28.0835	85.4444	0.001762	48484.5	2.252925	174.367	718.107	1.241580	0.080711	0.080409	724.817	48484.5	0.069499	0.162055	4472.65	110038