File: remote_trans/data/nanoindenter/0828-1/data/Data_2025-08-06,11h17m57s/2025-07-22_16-23-58_1_226.txt
2025-07-22, 16:23:58, 1
Index	Phase	Displacement	Time	Pos X	Pos Y	Pos Z	Rot A	Rot B	Piezo Z	Force A	Force B	Gripper	Voltage A	Voltage B	Temperature	Amplitude force	Amplitude pos	Stiffness	Phase shift	Phase excitation	Force A raw	Displacement raw	HMax	HMax raw	Real Force	Real Stiffness	Contact Depth	Area	Hardness	Reduced Mod.
[#]	[#]	[um]	[s]	[um]	[um]	[um]	[m°]	[m°]	[um]	[uN]	[uN]	[V]	[V]	[V]	[°C]	[uN]	[um]	[N/m]	[°]	[°]	[uN]	[um]	[um]	[um]	[uN]	[N/m]	[um]	[um^2]	[MPa]	[MPa]
226	1.000000	0.002641	7.36726e+06	-49939.1	955.819	-29757.6	0.000000	0.000000	6.002831	-0.047689	NaN	0.000000	0.001591	0.001696	28.0803	0.019053	0.000956	19.9234	99.9976	-159.919	-0.019902	0.001396	-1.076210	-1.077456	-0.047689	19.9234	-1.074415	-2.272489E+14	2.098546E-16	NaN
226	1.000000	0.010590	7.36726e+06	-49939.1	955.82	-29757.6	0.000000	0.000000	6.010779	-0.081793	NaN	0.000000	0.001593	0.001742	28.0801	0.037192	0.000960	38.7224	49.4475	-163.261	-0.010566	0.009239	-1.068262	-1.069612	-0.081793	38.7224	-1.066677	-1.788746E+14	4.572621E-16	NaN
226	1.000000	0.018613	7.36726e+06	-49939.1	955.818	-29757.6	0.000000	0.000000	6.018807	0.038191	NaN	0.000000	0.001599	0.001766	28.0799	0.037178	0.001718	21.6443	66.5452	-163.367	0.025604	0.017336	-1.060238	-1.061515	0.038191	21.6443	-1.061561	-1.526879E+14	-2.501269E-16	NaN
226	1.000000	0.026599	7.36726e+06	-49939.1	955.819	-29757.6	0.000000	0.000000	6.026790	-0.016028	NaN	0.000000	0.001594	0.001729	28.079	0.126016	0.001864	67.6087	-134.465	-163.457	-0.025812	0.025263	-1.052253	-1.053589	-0.016028	67.6087	-1.052075	-1.138430E+14	1.407940E-16	NaN
226	1.000000	0.034574	7.36726e+06	-49939.1	955.819	-29757.6	0.000000	0.000000	6.034766	0.011356	NaN	0.000000	0.001556	0.001756	28.0786	0.064984	0.001934	33.599	-76.7871	-162.009	0.041799	0.033270	-1.044278	-1.045582	0.011356	33.599	-1.044531	-9.013464E+13	-1.259910E-16	NaN
226	1.000000	0.042546	7.36726e+06	-49939.1	955.817	-29757.6	0.000000	0.000000	6.042734	-0.089349	NaN	0.000000	0.001554	0.001735	28.0788	0.077898	0.002072	37.602	-83.6852	-166.594	-0.027903	0.041276	-1.036306	-1.037576	-0.089349	37.602	-1.034524	-6.611876E+13	1.351334E-15	NaN
226	1.000000	0.050542	7.36726e+06	-49939.1	955.818	-29757.6	0.000000	0.000000	6.050729	-0.105141	NaN	0.000000	0.001574	0.001755	28.0788	0.079068	0.001957	40.3937	-125.067	-165.053	-0.183819	0.049240	-1.028310	-1.029612	-0.105141	40.3937	-1.026358	-5.134384E+13	2.047791E-15	NaN
226	1.000000	0.058565	7.36726e+06	-49939.1	955.819	-29757.6	0.000000	0.000000	6.058754	-0.082601	NaN	0.000000	0.001577	0.001753	28.0795	0.028819	0.001958	14.717	-90.2934	-168.307	-0.033528	0.057231	-1.020286	-1.021621	-0.082601	14.717	-1.016077	-3.733909E+13	2.212185E-15	NaN
226	1.000000	0.066591	7.36726e+06	-49939.1	955.819	-29757.6	0.000000	0.000000	6.066780	-0.063131	NaN	0.000000	0.001589	0.001767	28.0791	0.089368	0.001935	46.1908	-147.865	-164.421	-0.076554	0.065246	-1.012261	-1.013606	-0.063131	46.1908	-1.011236	-3.213778E+13	1.964374E-15	NaN
226	1.000000	0.074561	7.36726e+06	-49939.1	955.819	-29757.6	0.000000	0.000000	6.074751	-0.035963	NaN	0.000000	0.001546	0.001773	28.0788	0.030853	0.001869	16.5093	174.097	-162.335	-0.015341	0.073275	-1.004291	-1.005576	-0.035963	16.5093	-1.002657	-2.463443E+13	1.459855E-15	NaN
226	1.000000	0.082582	7.36726e+06	-49939.1	955.819	-29757.6	0.000000	0.000000	6.082772	-0.039485	NaN	0.000000	0.001564	0.001739	28.0792	0.051182	0.001943	26.3404	6.997240	-162.538	0.029703	0.081321	-0.996270	-0.997530	-0.039485	26.3404	-0.995146	-1.951674E+13	2.023139E-15	NaN
226	1.000000	0.090577	7.36726e+06	-49939.1	955.819	-29757.6	0.000000	0.000000	6.090766	-0.067612	NaN	0.000000	0.001586	0.001745	28.0792	0.041343	0.002054	20.1309	37.302	-163.104	-0.068942	0.089267	-0.988275	-0.989584	-0.067612	20.1309	-0.985756	-1.458632E+13	4.635293E-15	NaN
226	1.000000	0.098547	7.36726e+06	-49939.1	955.818	-29757.6	0.000000	0.000000	6.098738	-0.021979	NaN	0.000000	0.001564	0.001714	28.0796	0.132035	0.002089	63.198	141.723	-166.284	-0.108295	0.097282	-0.980304	-0.981569	-0.021979	63.198	-0.980043	-1.221785E+13	1.798964E-15	NaN
226	1.000000	0.106557	7.36726e+06	-49939.1	955.818	-29757.6	0.000000	0.000000	6.106745	-0.094074	NaN	0.000000	0.001591	0.001718	28.0793	0.078943	0.002020	39.086	-77.9621	-167.441	-0.147018	0.105239	-0.972295	-0.973612	-0.094074	39.086	-0.970490	-9.083657E+12	1.035639E-14	NaN
226	1.000000	0.114608	7.36726e+06	-49939.1	955.818	-29757.6	0.000000	0.000000	6.114798	-0.058562	NaN	0.000000	0.001588	0.001725	28.0797	0.059525	0.001939	30.704	100.739	-164.762	-0.070621	0.113338	-0.964243	-0.965514	-0.058562	30.704	-0.962813	-7.157939E+12	8.181393E-15	NaN
226	1.000000	0.122595	7.36726e+06	-49939.1	955.818	-29757.6	0.000000	0.000000	6.122785	-0.059984	NaN	0.000000	0.001587	0.001738	28.0797	0.053845	0.002017	26.6981	72.1236	-165.334	-0.125003	0.121241	-0.956257	-0.957611	-0.059984	26.6981	-0.954571	-5.542121E+12	1.082331E-14	NaN
226	1.000000	0.130604	7.36726e+06	-49939.1	955.818	-29757.6	0.000000	0.000000	6.130796	0.012428	NaN	0.000000	0.001593	0.001717	28.0794	0.082941	0.002026	40.9469	-29.1715	-165.865	-0.068119	0.129292	-0.948248	-0.949560	0.012428	40.9469	-0.948475	-4.586316E+12	-2.709820E-15	NaN
226	1.000000	0.138599	7.36726e+06	-49939.1	955.818	-29757.6	0.000000	0.000000	6.138790	-0.024686	NaN	0.000000	0.001560	0.001718	28.0793	0.037509	0.002009	18.6694	148.922	-165.628	0.002145	0.137313	-0.940253	-0.941538	-0.024686	18.6694	-0.939261	-3.444852E+12	7.166062E-15	NaN
226	1.000000	0.146557	7.36726e+06	-49939.1	955.818	-29757.6	0.000000	0.000000	6.146750	0.028059	NaN	0.000000	0.001578	0.001741	28.0793	0.056619	0.001910	29.6464	135.366	-164.585	0.058446	0.145307	-0.932295	-0.933545	0.028059	29.6464	-0.933005	-2.836268E+12	-9.892919E-15	NaN
226	1.000000	0.154589	7.36726e+06	-49939.1	955.818	-29757.6	0.000000	0.000000	6.154781	-0.012627	NaN	0.000000	0.001588	0.001724	28.0795	0.074050	0.002016	36.7295	169.24	-166.707	-0.092744	0.153331	-0.924262	-0.925521	-0.012627	36.7295	-0.924004	-2.144203E+12	5.888672E-15	NaN
226	1.000000	0.162644	7.36726e+06	-49939.1	955.818	-29757.6	0.000000	0.000000	6.162833	-0.085358	NaN	0.000000	0.001565	0.001714	28.0808	0.143847	0.001925	74.7325	-54.0353	-163.704	0.052175	0.161250	-0.916207	-0.917602	-0.085358	74.7325	-0.915351	-1.638430E+12	5.209715E-14	NaN
226	1.000000	0.170601	7.36726e+06	-49939.1	955.819	-29757.6	0.000000	0.000000	6.170791	-0.039794	NaN	0.000000	0.001570	0.001769	28.0805	0.060836	0.002016	30.1818	66.3889	-164.155	-0.043262	0.169300	-0.908251	-0.909552	-0.039794	30.1818	-0.907262	-1.274024E+12	3.123456E-14	NaN
226	1.000000	0.178608	7.36726e+06	-49939.1	955.819	-29757.6	0.000000	0.000000	6.178800	-0.018131	NaN	0.000000	0.001578	0.001756	28.0805	0.122447	0.002020	60.6195	-139.598	-163.858	-0.066382	0.177319	-0.900243	-0.901532	-0.018131	60.6195	-0.900019	-1.017001E+12	1.782830E-14	NaN
226	1.000000	0.186601	7.36726e+06	-49939.1	955.819	-29757.6	0.000000	0.000000	6.186790	-0.069955	NaN	0.000000	0.001560	0.001737	28.0804	0.065967	0.001943	33.9443	-165.882	-166.207	-0.112781	0.185367	-0.892251	-0.893484	-0.069955	33.9443	-0.890705	-7.611077E+11	9.191195E-14	NaN
226	1.000000	0.194614	7.36726e+06	-49939.1	955.818	-29757.6	0.000000	0.000000	6.194805	-0.019984	NaN	0.000000	0.001568	0.001707	28.0805	0.081728	0.001995	40.9759	-26.5402	-166.953	-0.056023	0.193333	-0.884238	-0.885519	-0.019984	40.9759	-0.883872	-6.152671E+11	3.247975E-14	NaN
226	1.000000	0.202630	7.36726e+06	-49939.1	955.818	-29757.6	0.000000	0.000000	6.202823	0.030200	NaN	0.000000	0.001571	0.001740	28.0807	0.105293	0.001974	53.3333	-28.621	-166.187	0.017740	0.201233	-0.876221	-0.877619	0.030200	53.3333	-0.876646	-4.913030E+11	-6.146906E-14	NaN
226	1.000000	0.210628	7.36726e+06	-49939.1	955.818	-29757.6	0.000000	0.000000	6.210820	-0.013729	NaN	0.000000	0.001555	0.001737	28.0803	0.046012	0.001992	23.0966	-97.5727	-168.553	0.036201	0.209298	-0.868223	-0.869554	-0.013729	23.0966	-0.867777	-3.727108E+11	3.683423E-14	NaN
226	1.000000	0.218630	7.36726e+06	-49939.1	955.817	-29757.6	0.000000	0.000000	6.218818	-0.091979	NaN	0.000000	0.001573	0.001730	28.0806	0.070422	0.002040	34.5278	-159.755	-165.571	-0.046402	0.217266	-0.860221	-0.861585	-0.091979	34.5278	-0.858223	-2.767406E+11	3.323671E-13	NaN
226	1.000000	0.226644	7.36726e+06	-49939.1	955.82	-29757.6	0.000000	0.000000	6.226832	-0.101707	NaN	0.000000	0.001601	0.001760	28.0804	0.048327	0.001920	25.1701	-139.216	-166.707	-0.029485	0.225351	-0.852208	-0.853501	-0.101707	25.1701	-0.849177	-2.087343E+11	4.872578E-13	NaN
226	1.000000	0.234652	7.36726e+06	-49939.1	955.819	-29757.6	0.000000	0.000000	6.234842	-0.056536	NaN	0.000000	0.001596	0.001761	28.0805	0.035423	0.002038	17.3773	-35.1375	-167.522	-0.027104	0.233360	-0.844200	-0.845492	-0.056536	17.3773	-0.841760	-1.656262E+11	3.413442E-13	NaN
226	1.000000	0.242623	7.36726e+06	-49939.1	955.818	-29757.6	0.000000	0.000000	6.242812	-0.083580	NaN	0.000000	0.001575	0.001752	28.0803	0.095861	0.001925	49.8093	172.743	-166.102	0.009454	0.241309	-0.836228	-0.837543	-0.083580	49.8093	-0.834970	-1.340092E+11	6.236888E-13	NaN
226	1.000000	0.250635	7.36726e+06	-49939.1	955.819	-29757.6	0.000000	0.000000	6.250827	0.008165	NaN	0.000000	0.001600	0.001734	28.0805	0.019463	0.001981	9.826274	-71.2957	-164.78	0.022063	0.249279	-0.828217	-0.829573	0.008165	9.826274	-0.828840	-1.106786E+11	-7.377151E-14	NaN
226	1.000000	0.258655	7.36726e+06	-49939.1	955.818	-29757.6	0.000000	0.000000	6.258843	-0.086255	NaN	0.000000	0.001587	0.001717	28.0808	0.134247	0.002076	64.6522	-37.6582	-167.36	0.001466	0.257374	-0.820197	-0.821477	-0.086255	64.6522	-0.819196	-8.190450E+10	1.053120E-12	NaN
226	1.000000	0.266667	7.36726e+06	-49939.1	955.819	-29757.6	0.000000	0.000000	6.266858	-0.016366	NaN	0.000000	0.001550	0.001754	28.0804	0.056567	0.001958	28.8892	-150.341	-164.386	-0.036401	0.265321	-0.812185	-0.813530	-0.016366	28.8892	-0.811760	-6.492995E+10	2.520516E-13	NaN
226	1.000000	0.274666	7.36726e+06	-49939.1	955.819	-29757.6	0.000000	0.000000	6.274853	-0.106091	NaN	0.000000	0.001589	0.001748	28.0804	0.096267	0.001975	48.7511	137.21	-162.486	-0.118527	0.273371	-0.804186	-0.805481	-0.106091	48.7511	-0.802554	-4.869976E+10	2.178471E-12	NaN
226	1.000000	0.282657	7.36726e+06	-49939.1	955.819	-29757.6	0.000000	0.000000	6.282847	-0.035059	NaN	0.000000	0.001592	0.001734	28.0804	0.032797	0.001979	16.5723	-150.444	-166.897	-0.078843	0.281398	-0.796195	-0.797454	-0.035059	16.5723	-0.794608	-3.798916E+10	9.228601E-13	NaN
226	1.000000	0.290669	7.36726e+06	-49939.1	955.818	-29757.6	0.000000	0.000000	6.290859	-0.050100	NaN	0.000000	0.001580	0.001738	28.0807	0.061117	0.001965	31.107	-112.737	-169.294	-0.051840	0.289370	-0.788182	-0.789482	-0.050100	31.107	-0.786974	-2.992171E+10	1.674386E-12	NaN
226	1.000000	0.298664	7.36726e+06	-49939.1	955.819	-29757.6	0.000000	0.000000	6.298853	-0.072535	NaN	0.000000	0.001577	0.001730	28.0793	0.131437	0.001824	72.0513	87.6377	-167.575	-0.186924	0.297353	-0.780188	-0.781499	-0.072535	72.0513	-0.779433	-2.363337E+10	3.069166E-12	NaN
226	1.000000	0.306659	7.36726e+06	-49939.1	955.818	-29757.6	0.000000	0.000000	6.306850	-0.030647	NaN	0.000000	0.001606	0.001718	28.0791	0.123755	0.002129	58.117	115.584	-164.439	0.029509	0.305356	-0.772193	-0.773495	-0.030647	58.117	-0.771797	-1.860977E+10	1.646824E-12	NaN
226	1.000000	0.314654	7.36726e+06	-49939.1	955.818	-29757.6	0.000000	0.000000	6.314844	-0.060140	NaN	0.000000	0.001603	0.001658	28.0792	0.063297	0.002105	30.0651	-165.264	-163.827	-0.108660	0.313391	-0.764197	-0.765460	-0.060140	30.0651	-0.762697	-1.399551E+10	4.297118E-12	NaN
226	1.000000	0.322634	7.36726e+06	-49939.1	955.819	-29757.6	0.000000	0.000000	6.322824	-0.050913	NaN	0.000000	0.001602	0.001715	28.0791	0.084318	0.002002	42.1078	-97.9359	-162.891	-0.066214	0.321351	-0.756217	-0.757501	-0.050913	42.1078	-0.755310	-1.110434E+10	4.584992E-12	NaN
226	1.000000	0.330653	7.36726e+06	-49939.1	955.819	-29757.6	0.000000	0.000000	6.330845	-0.002908	NaN	0.000000	0.001619	0.001704	28.0794	0.063298	0.002065	30.6516	122.744	-163.626	0.009678	0.329398	-0.748199	-0.749453	-0.002908	30.6516	-0.748128	-8.866062E+9	3.279619E-13	NaN
226	1.000000	0.338680	7.36726e+06	-49939.1	955.819	-29757.6	0.000000	0.000000	6.338873	0.001616	NaN	0.000000	0.001612	0.001697	28.079	0.069713	0.002018	34.5369	-63.9465	-166.99	0.093755	0.337356	-0.740171	-0.741495	0.001616	34.5369	-0.740206	-6.916149E+9	-2.335848E-13	NaN
226	1.000000	0.346694	7.36726e+06	-49939.1	955.818	-29757.7	0.000000	0.000000	6.346885	-0.012101	NaN	0.000000	0.001602	0.001685	28.0791	0.156497	0.001905	82.1365	20.4065	-167.135	0.035254	0.345395	-0.732158	-0.733457	-0.012101	82.1365	-0.732047	-5.354360E+9	2.259952E-12	NaN
226	1.000000	0.354651	7.36726e+06	-49939.1	955.818	-29757.7	0.000000	0.000000	6.354841	-0.048583	NaN	0.000000	0.001591	0.001698	28.0793	0.038858	0.001965	19.7707	-129.813	-166.401	0.030291	0.353402	-0.724200	-0.725450	-0.048583	19.7707	-0.722357	-3.950185E+9	1.229890E-11	NaN
226	1.000000	0.362679	7.36726e+06	-49939.1	955.819	-29757.7	0.000000	0.000000	6.362871	-0.011823	NaN	0.000000	0.001559	0.001689	28.0792	0.070157	0.001955	35.8838	-11.7741	-166.136	0.006393	0.361445	-0.716172	-0.717407	-0.011823	35.8838	-0.715925	-3.227720E+9	3.662931E-12	NaN
226	1.000000	0.370698	7.36726e+06	-49939.1	955.818	-29757.7	0.000000	0.000000	6.370891	0.027119	NaN	0.000000	0.001577	0.001708	28.0794	0.069373	0.001755	39.5312	157.063	-166.747	-0.103402	0.369381	-0.708154	-0.709470	0.027119	39.5312	-0.708668	-2.569631E+9	-1.055381E-11	NaN
226	1.000000	0.378727	7.36726e+06	-49939.1	955.818	-29757.7	0.000000	0.000000	6.378919	0.008278	NaN	0.000000	0.001562	0.001679	28.0791	0.152702	0.001946	78.4844	162.716	-162.866	-0.015723	0.377317	-0.700125	-0.701534	0.008278	78.4844	-0.700204	-1.969325E+9	-4.203398E-12	NaN
226	1.000000	0.386690	7.36726e+06	-49939.1	955.818	-29757.7	0.000000	0.000000	6.386880	-0.042427	NaN	0.000000	0.001562	0.001676	28.0792	0.042175	0.002090	20.1808	11.284	-168.323	-0.023228	0.385406	-0.692162	-0.693446	-0.042427	20.1808	-0.690585	-1.455171E+9	2.915635E-11	NaN
226	1.000000	0.394697	7.36726e+06	-49939.1	955.819	-29757.7	0.000000	0.000000	6.394887	-0.027077	NaN	0.000000	0.001605	0.001673	28.079	0.086081	0.001989	43.2688	159.088	-165.531	0.011002	0.393437	-0.684155	-0.685415	-0.027077	43.2688	-0.683686	-1.171130E+9	2.312017E-11	NaN
226	1.000000	0.402706	7.36726e+06	-49939.1	955.819	-29757.7	0.000000	0.000000	6.402895	-0.062496	NaN	0.000000	0.001603	0.001678	28.0788	0.031103	0.001843	16.8776	-82.0946	-164.027	0.012197	0.401410	-0.676146	-0.677441	-0.062496	16.8776	-0.673369	-8.462341E+8	7.385183E-11	NaN
226	1.000000	0.410733	7.36726e+06	-49939.1	955.819	-29757.7	0.000000	0.000000	6.410923	-0.061991	NaN	0.000000	0.001591	0.001659	28.0792	0.080447	0.001939	41.4815	161.082	-164.935	-0.081118	0.409420	-0.668118	-0.669432	-0.061991	41.4815	-0.666998	-6.922964E+8	8.954335E-11	NaN
226	1.000000	0.418714	7.36726e+06	-49939.1	955.818	-29757.7	0.000000	0.000000	6.418907	0.026162	NaN	0.000000	0.001618	0.001658	28.0786	0.052605	0.002022	26.0209	32.779	-166.842	0.031929	0.417439	-0.660138	-0.661413	0.026162	26.0209	-0.660892	-5.710602E+8	-4.581258E-11	NaN
226	1.000000	0.426727	7.36726e+06	-49939.1	955.819	-29757.7	0.000000	0.000000	6.426917	-0.061569	NaN	0.000000	0.001556	0.001716	28.0786	0.074264	0.002040	36.4092	57.6513	-162.487	-0.078013	0.425403	-0.652124	-0.653449	-0.061569	36.4092	-0.650856	-4.160740E+8	1.479749E-10	NaN
226	1.000000	0.434685	7.36726e+06	-49939.1	955.819	-29757.7	0.000000	0.000000	6.434876	-0.041894	NaN	0.000000	0.001577	0.001652	28.0799	0.059629	0.002111	28.2508	6.139801	-162.69	-0.029833	0.433377	-0.644166	-0.645475	-0.041894	28.2508	-0.643054	-3.252273E+8	1.288133E-10	NaN
226	1.000000	0.442724	7.36726e+06	-49939.1	955.819	-29757.7	0.000000	0.000000	6.442916	-0.008551	NaN	0.000000	0.001569	0.001674	28.0798	0.062769	0.001975	31.7781	31.8933	-164.746	-0.053957	0.441390	-0.636127	-0.637461	-0.008551	31.7781	-0.635926	-2.596436E+8	3.293408E-11	NaN
226	1.000000	0.450739	7.36726e+06	-49939.1	955.818	-29757.7	0.000000	0.000000	6.450931	0.018815	NaN	0.000000	0.001568	0.001685	28.0802	0.047817	0.001990	24.0255	-43.0888	-168.456	0.041120	0.449458	-0.628113	-0.629393	0.018815	24.0255	-0.628700	-2.066204E+8	-9.105978E-11	NaN
226	1.000000	0.458735	7.36726e+06	-49939.1	955.818	-29757.7	0.000000	0.000000	6.458926	-0.020240	NaN	0.000000	0.001551	0.001676	28.0797	0.098610	0.001966	50.1479	124.745	-162.481	0.021289	0.457411	-0.620117	-0.621440	-0.020240	50.1479	-0.619814	-1.559839E+8	1.297584E-10	NaN
226	1.000000	0.466742	7.36726e+06	-49939.1	955.818	-29757.7	0.000000	0.000000	6.466932	-0.039263	NaN	0.000000	0.001605	0.001666	28.08	0.128121	0.002052	62.4475	-141.604	-166.571	-0.017147	0.465427	-0.612110	-0.613425	-0.039263	62.4475	-0.611638	-1.204071E+8	3.260871E-10	NaN
226	1.000000	0.474748	7.36726e+06	-49939.1	955.818	-29757.7	0.000000	0.000000	6.474937	-0.078954	NaN	0.000000	0.001551	0.001689	28.0798	0.132865	0.002035	65.2818	-152.953	-164.291	-0.107391	0.473437	-0.604103	-0.605415	-0.078954	65.2818	-0.603196	-9.214450E+7	8.568515E-10	NaN
226	1.000000	0.482723	7.36726e+06	-49939.1	955.819	-29757.7	0.000000	0.000000	6.482910	-0.119718	NaN	0.000000	0.001552	0.001662	28.0798	0.144490	0.001956	73.8629	28.1214	-165.967	-0.044917	0.481475	-0.596129	-0.597377	-0.119718	73.8629	-0.594913	-7.085797E+7	1.689544E-9	NaN
226	1.000000	0.490752	7.36726e+06	-49939.1	955.819	-29757.7	0.000000	0.000000	6.490946	0.027993	NaN	0.000000	0.001518	0.001704	28.0799	0.023205	0.002014	11.5208	98.052	-165.843	0.007237	0.489382	-0.588099	-0.589470	0.027993	11.5208	-0.589922	-6.047630E+7	-4.628822E-10	NaN
226	1.000000	0.498768	7.36726e+06	-49939.1	955.818	-29757.7	0.000000	0.000000	6.498958	-0.053007	NaN	0.000000	0.001539	0.001678	28.0799	0.022097	0.002007	11.0108	162.295	-166.057	-0.017866	0.497426	-0.580084	-0.581426	-0.053007	11.0108	-0.576473	-3.944917E+7	1.343670E-9	NaN
226	1.000000	0.506729	7.36726e+06	-49939.1	955.818	-29757.7	0.000000	0.000000	6.506920	-0.025755	NaN	0.000000	0.001518	0.001665	28.0802	0.055755	0.002033	27.4291	-158.135	-165.788	-0.035854	0.505412	-0.572123	-0.573440	-0.025755	27.4291	-0.571418	-3.359140E+7	7.667174E-10	NaN
226	1.000000	0.514773	7.36726e+06	-49939.1	955.819	-29757.7	0.000000	0.000000	6.514964	-0.032510	NaN	0.000000	0.001504	0.001688	28.08	0.079271	0.001931	41.0525	-0.112137	-167.553	-0.086199	0.513431	-0.564078	-0.565421	-0.032510	41.0525	-0.563484	-2.609563E+7	1.245812E-9	NaN
226	1.000000	0.522774	7.36726e+06	-49939.1	955.818	-29757.7	0.000000	0.000000	6.522965	-0.031084	NaN	0.000000	0.001567	0.001695	28.0801	0.068228	0.001987	34.3415	83.5369	-166.06	-0.044375	0.521397	-0.556078	-0.557455	-0.031084	34.3415	-0.555399	-2.017015E+7	1.541086E-9	NaN
226	1.000000	0.530785	7.36726e+06	-49939.1	955.819	-29757.7	0.000000	0.000000	6.530978	0.028873	NaN	0.000000	0.001555	0.001697	28.0797	0.071555	0.001959	36.5265	-50.9645	-165.537	-0.024166	0.529447	-0.548067	-0.549405	0.028873	36.5265	-0.548660	-1.627015E+7	-1.774600E-9	NaN
226	1.000000	0.538764	7.36726e+06	-49939.1	955.818	-29757.7	0.000000	0.000000	6.538953	-0.070280	NaN	0.000000	0.001559	0.001691	28.0798	0.115373	0.002139	53.9416	-82.8837	-166.083	-0.088472	0.537432	-0.540087	-0.541419	-0.070280	53.9416	-0.539110	-1.199541E+7	5.858910E-9	NaN
226	1.000000	0.546760	7.36726e+06	-49939.1	955.818	-29757.7	0.000000	0.000000	6.546951	-0.017173	NaN	0.000000	0.001572	0.001702	28.0799	0.038430	0.001954	19.6646	-164.138	-169.373	-0.094614	0.545439	-0.532092	-0.533412	-0.017173	19.6646	-0.531437	-9.38698e+06	1.829408E-9	NaN
226	1.000000	0.554784	7.36726e+06	-49939.1	955.818	-29757.7	0.000000	0.000000	6.554974	-0.064353	NaN	0.000000	0.001566	0.001685	28.0801	0.013151	0.001912	6.878306	-2.906551	-163.018	-0.083537	0.553473	-0.524067	-0.525379	-0.064353	6.878306	-0.517050	-5.92333e+06	1.086426E-8	NaN
226	1.000000	0.562783	7.36726e+06	-49939.1	955.817	-29757.7	0.000000	0.000000	6.562973	-0.045244	NaN	0.000000	0.001581	0.001666	28.0805	0.076387	0.002029	37.6478	-120.48	-166.967	-0.092980	0.561520	-0.516069	-0.517332	-0.045244	37.6478	-0.515167	-5.5765e+06	8.113330E-9	NaN
226	1.000000	0.570788	7.36726e+06	-49939.1	955.819	-29757.7	0.000000	0.000000	6.570977	-0.078415	NaN	0.000000	0.001591	0.001687	28.0788	0.124617	0.002079	59.9396	-165.207	-167.127	-0.058231	0.569433	-0.508063	-0.509419	-0.078415	59.9396	-0.507082	-4.30294e+06	1.822365E-8	NaN
226	1.000000	0.578761	7.36726e+06	-49939.1	955.819	-29757.7	0.000000	0.000000	6.578952	-0.025425	NaN	0.000000	0.001581	0.001741	28.0791	0.086151	0.001819	47.3678	-71.0689	-164.74	-0.016632	0.577442	-0.500090	-0.501410	-0.025425	47.3678	-0.499687	-3.39358e+06	7.492201E-9	NaN
226	1.000000	0.586798	7.36726e+06	-49939.1	955.818	-29757.7	0.000000	0.000000	6.586987	-0.080282	NaN	0.000000	0.001597	0.001794	28.0789	0.057461	0.002047	28.0709	144.337	-168.182	-0.056614	0.585481	-0.492054	-0.493370	-0.080282	28.0709	-0.489909	-2.4781e+06	3.239682E-8	NaN
226	1.000000	0.594787	7.36726e+06	-49939.1	955.819	-29757.7	0.000000	0.000000	6.594977	-0.039222	NaN	0.000000	0.001583	0.001676	28.0789	0.037089	0.001947	19.0453	-13.389	-167.616	-0.002456	0.593466	-0.484065	-0.485386	-0.039222	19.0453	-0.482520	-1.95344e+06	2.007863E-8	NaN
226	1.000000	0.602796	7.36726e+06	-49939.1	955.818	-29757.7	0.000000	0.000000	6.602988	0.006078	NaN	0.000000	0.001634	0.001702	28.0792	0.059735	0.001982	30.1462	157.631	-166.568	0.009029	0.601444	-0.476056	-0.477407	0.006078	30.1462	-0.476207	-1.59371e+06	-3.814036E-9	NaN
226	1.000000	0.610797	7.36726e+06	-49939.1	955.818	-29757.7	0.000000	0.000000	6.610989	0.011990	NaN	0.000000	0.001588	0.001706	28.0789	0.002626	0.002114	1.242278	94.7528	-166.525	0.019516	0.609487	-0.468055	-0.469365	0.011990	1.242278	-0.475294	-1.54744e+06	-7.748139E-9	NaN
226	1.000000	0.618780	7.36726e+06	-49939.1	955.819	-29757.7	0.000000	0.000000	6.618971	-0.028004	NaN	0.000000	0.001570	0.001651	28.0792	0.021986	0.001999	10.9977	78.6443	-167.609	-0.087599	0.617495	-0.460071	-0.461356	-0.028004	10.9977	-0.458162	-889565	3.148049E-8	NaN
226	1.000000	0.626780	7.36726e+06	-49939.1	955.818	-29757.7	0.000000	0.000000	6.626974	0.034566	NaN	0.000000	0.001599	0.001672	28.0787	0.192708	0.002031	94.8617	-157.538	-166.623	-0.029201	0.625497	-0.452071	-0.453355	0.034566	94.8617	-0.452345	-736805	-4.691368E-8	NaN
226	1.000000	0.634795	7.36726e+06	-49939.1	955.819	-29757.7	0.000000	0.000000	6.634983	-0.096347	NaN	0.000000	0.001612	0.001678	28.0788	0.102819	0.002025	50.7677	-121.863	-165.065	-0.118899	0.633545	-0.444057	-0.445307	-0.096347	50.7677	-0.442633	-537676	1.791908E-7	NaN
226	1.000000	0.642810	7.36726e+06	-49939.1	955.818	-29757.7	0.000000	0.000000	6.643002	-0.018667	NaN	0.000000	0.001645	0.001704	28.0797	0.091483	0.002021	45.2667	-82.0236	-163.258	-0.010862	0.641464	-0.436041	-0.437387	-0.018667	45.2667	-0.435732	-429631	4.344799E-8	NaN
226	1.000000	0.650810	7.36726e+06	-49939.1	955.819	-29757.7	0.000000	0.000000	6.651001	-0.028477	NaN	0.000000	0.001637	0.001676	28.0789	0.074033	0.002076	35.6645	-134.084	-165.365	-0.072523	0.649433	-0.428041	-0.429419	-0.028477	35.6645	-0.427443	-327998	8.682112E-8	NaN
226	1.000000	0.658829	7.36726e+06	-49939.1	955.819	-29757.7	0.000000	0.000000	6.659021	-0.002095	NaN	0.000000	0.001609	0.001669	28.0792	0.053864	0.002049	26.2938	-123.004	-162.72	-0.055042	0.657536	-0.420022	-0.421316	-0.002095	26.2938	-0.419962	-256969	8.152069E-9	NaN
226	1.000000	0.666809	7.36726e+06	-49939.1	955.817	-29757.7	0.000000	0.000000	6.667000	-0.034492	NaN	0.000000	0.001596	0.001677	28.0787	0.014447	0.001993	7.248635	-172.8	-162.368	0.015103	0.665477	-0.412042	-0.413375	-0.034492	7.248635	-0.408473	-176476	1.954489E-7	NaN
226	1.000000	0.674806	7.36726e+06	-49939.1	955.819	-29757.7	0.000000	0.000000	6.674996	-0.045627	NaN	0.000000	0.001617	0.001685	28.0787	0.019152	0.002082	9.201074	-102.027	-163.695	-0.072097	0.673520	-0.404046	-0.405331	-0.045627	9.201074	-0.400327	-135099	3.377344E-7	NaN
226	1.000000	0.682827	7.36726e+06	-49939.1	955.818	-29757.7	0.000000	0.000000	6.683018	-0.016827	NaN	0.000000	0.001617	0.001663	28.0789	0.029672	0.001922	15.4374	-138.947	-163.441	-0.044019	0.681490	-0.396025	-0.397361	-0.016827	15.4374	-0.395207	-114181	1.473739E-7	NaN
226	1.000000	0.690835	7.36726e+06	-49939.1	955.818	-29757.7	0.000000	0.000000	6.691023	-0.106603	NaN	0.000000	0.001584	0.001671	28.0788	0.086164	0.001921	44.8461	155.187	-164.755	-0.063936	0.689534	-0.388016	-0.389318	-0.106603	44.8461	-0.386234	-84968.4	1.254623E-6	NaN
226	1.000000	0.698852	7.36726e+06	-49939.1	955.818	-29757.7	0.000000	0.000000	6.699037	-0.167709	NaN	0.000000	0.001585	0.001674	28.0791	0.093175	0.001950	47.7777	151.816	-166.662	-0.102855	0.697572	-0.380000	-0.381280	-0.167709	47.7777	-0.377367	-63400	2.645248E-6	NaN
226	1.000000	0.706855	7.36726e+06	-49939.1	955.818	-29757.7	0.000000	0.000000	6.707044	-0.066798	NaN	0.000000	0.001613	0.001654	28.08	0.061295	0.001925	31.8426	-105.297	-166.751	-0.074600	0.705503	-0.371997	-0.373348	-0.066798	31.8426	-0.370424	-50376.6	1.325964E-6	NaN
226	1.000000	0.714866	7.36726e+06	-49939.1	955.818	-29757.7	0.000000	0.000000	6.715056	-0.054445	NaN	0.000000	0.001621	0.001677	28.0802	0.046965	0.001960	23.9658	141.283	-163.762	-0.087505	0.713532	-0.363985	-0.365319	-0.054445	23.9658	-0.362281	-38442.4	1.416274E-6	NaN
226	1.000000	0.722855	7.36726e+06	-49939.1	955.818	-29757.7	0.000000	0.000000	6.723047	-0.013674	NaN	0.000000	0.001642	0.001659	28.0803	0.021316	0.001974	10.8011	62.7956	-168.634	-0.033271	0.721509	-0.355996	-0.357342	-0.013674	10.8011	-0.355047	-30211.6	4.526079E-7	NaN
226	1.000000	0.730827	7.36726e+06	-49939.1	955.819	-29757.7	0.000000	0.000000	6.731018	-0.034299	NaN	0.000000	0.001623	0.001652	28.0802	0.049916	0.001973	25.3011	-41.6817	-165.602	0.007096	0.729529	-0.348024	-0.349323	-0.034299	25.3011	-0.347008	-23096.4	1.485034E-6	NaN
226	1.000000	0.738854	7.36726e+06	-49939.1	955.818	-29757.7	0.000000	0.000000	6.739044	-0.047190	NaN	0.000000	0.001578	0.001636	28.0804	0.049559	0.002096	23.6464	6.055781	-168.295	0.000350	0.737533	-0.339998	-0.341319	-0.047190	23.6464	-0.338501	-17365.8	2.717378E-6	NaN
226	1.000000	0.746864	7.36726e+06	-49939.1	955.818	-29757.7	0.000000	0.000000	6.747054	-0.049925	NaN	0.000000	0.001602	0.001654	28.0802	0.085627	0.001920	44.5891	150.682	-163.586	0.043689	0.745568	-0.331988	-0.333284	-0.049925	44.5891	-0.331148	-13559.9	3.681858E-6	NaN
226	1.000000	0.754865	7.36726e+06	-49939.1	955.818	-29757.7	0.000000	0.000000	6.755055	-0.028323	NaN	0.000000	0.001633	0.001668	28.0805	0.072313	0.001905	37.966	159.362	-167.018	-0.041433	0.753606	-0.323987	-0.325245	-0.028323	37.966	-0.323427	-10448.2	2.710826E-6	NaN
226	1.000000	0.762864	7.36726e+06	-49939.1	955.819	-29757.7	0.000000	0.000000	6.763054	-0.046217	NaN	0.000000	0.001637	0.001632	28.0804	0.119269	0.002028	58.7983	-6.014299	-168.817	-0.066179	0.761573	-0.315988	-0.317278	-0.046217	58.7983	-0.315398	-7958.42	5.807280E-6	NaN
226	1.000000	0.770897	7.36726e+06	-49939.1	955.817	-29757.7	0.000000	0.000000	6.771086	-0.076346	NaN	0.000000	0.001630	0.001643	28.0801	0.092400	0.002037	45.3635	-137.573	-165.053	-0.024863	0.769529	-0.307954	-0.309323	-0.076346	45.3635	-0.306692	-5916.38	1.290418E-5	NaN
226	1.000000	0.778866	7.36726e+06	-49939.1	955.818	-29757.7	0.000000	0.000000	6.779058	-0.003145	NaN	0.000000	0.001621	0.001607	28.0802	0.030767	0.001967	15.6434	-60.0606	-167.894	-0.058314	0.777555	-0.299986	-0.301297	-0.003145	15.6434	-0.299835	-4679.29	6.720408E-7	NaN
226	1.000000	0.786875	7.36726e+06	-49939.1	955.818	-29757.7	0.000000	0.000000	6.787065	-0.044614	NaN	0.000000	0.001629	0.001677	28.0802	0.154612	0.001941	79.6397	47.4384	-164.05	-0.037511	0.785593	-0.291977	-0.293258	-0.044614	79.6397	-0.291557	-3520.57	1.267249E-5	NaN
226	1.000000	0.794910	7.36726e+06	-49939.1	955.819	-29757.7	0.000000	0.000000	6.795100	-0.048424	NaN	0.000000	0.001607	0.001702	28.0806	0.085726	0.001915	44.7701	-99.9059	-168.215	-0.145328	0.793543	-0.283942	-0.285309	-0.048424	44.7701	-0.283131	-2631.17	1.840404E-5	NaN
226	1.000000	0.802862	7.36726e+06	-49939.1	955.819	-29757.7	0.000000	0.000000	6.803053	-0.038628	NaN	0.000000	0.001625	0.001637	28.0805	0.064689	0.002035	31.794	73.5958	-164.867	-0.057104	0.801528	-0.275989	-0.277324	-0.038628	31.794	-0.275078	-1988.77	1.942287E-5	NaN
226	1.000000	0.810867	7.36726e+06	-49939.1	955.818	-29757.7	0.000000	0.000000	6.811057	-0.051567	NaN	0.000000	0.001597	0.001708	28.0806	0.182986	0.002134	85.7329	105.201	-168.44	-0.073965	0.809603	-0.267984	-0.269249	-0.051567	85.7329	-0.267533	-1527.6	3.375710E-5	NaN
226	1.000000	0.818859	7.36726e+06	-49939.1	955.819	-29757.7	0.000000	0.000000	6.819052	0.017421	NaN	0.000000	0.001586	0.001701	28.0803	0.093885	0.001990	47.1689	-164.817	-162.877	-0.001537	0.817593	-0.259992	-0.261258	0.017421	47.1689	-0.260269	-1183.16	-1.472429E-5	NaN
226	1.000000	0.826885	7.36726e+06	-49939.1	955.819	-29757.7	0.000000	0.000000	6.827078	0.023677	NaN	0.000000	0.001599	0.001686	28.0803	0.064206	0.001942	33.0603	-82.6019	-163.558	0.020438	0.825597	-0.251966	-0.253255	0.023677	33.0603	-0.252503	-898.745	-2.634401E-5	NaN
226	1.000000	0.834893	7.36726e+06	-49939.1	955.819	-29757.7	0.000000	0.000000	6.835083	-0.041659	NaN	0.000000	0.001602	0.001666	28.0804	0.073113	0.001987	36.8026	-57.7076	-163.947	0.009559	0.833600	-0.243959	-0.245251	-0.041659	36.8026	-0.243110	-642.764	6.481213E-5	NaN
226	1.000000	0.842882	7.36726e+06	-49939.1	955.819	-29757.7	0.000000	0.000000	6.843071	-0.068405	NaN	0.000000	0.001567	0.001667	28.0791	0.057342	0.001904	30.1136	-2.519275	-166.098	-0.040469	0.841615	-0.235970	-0.237237	-0.068405	30.1136	-0.234266	-467.438	0.000146	NaN
226	1.000000	0.850894	7.36726e+06	-49939.1	955.819	-29757.7	0.000000	0.000000	6.851083	-0.074582	NaN	0.000000	0.001605	0.001638	28.0792	0.115187	0.001942	59.3123	169.109	-167.741	-0.130650	0.849643	-0.227957	-0.229209	-0.074582	59.3123	-0.227014	-359.162	0.000208	NaN
226	1.000000	0.858920	7.36726e+06	-49939.1	955.818	-29757.7	0.000000	0.000000	6.859111	-0.042851	NaN	0.000000	0.001622	0.001652	28.0788	0.071947	0.002059	34.9366	58.0766	-164.699	-0.061631	0.857591	-0.219931	-0.221260	-0.042851	34.9366	-0.219011	-267.835	0.000160	NaN
226	1.000000	0.866916	7.36726e+06	-49939.1	955.818	-29757.7	0.000000	0.000000	6.867107	-0.023484	NaN	0.000000	0.001583	0.001669	28.079	0.112699	0.001937	58.1699	53.983	-167.79	-0.101847	0.865575	-0.211935	-0.213276	-0.023484	58.1699	-0.211633	-203.812	0.000115	NaN
226	1.000000	0.874914	7.36726e+06	-49939.1	955.818	-29757.7	0.000000	0.000000	6.875106	-0.003559	NaN	0.000000	0.001592	0.001675	28.0789	0.021338	0.002010	10.6161	177.925	-164.574	0.045504	0.873599	-0.203937	-0.205252	-0.003559	10.6161	-0.203686	-151.393	2.350830E-5	NaN
226	1.000000	0.882898	7.36726e+06	-49939.1	955.819	-29757.7	0.000000	0.000000	6.883088	-0.042405	NaN	0.000000	0.001627	0.001684	28.0789	0.096142	0.002082	46.1704	75.8873	-163.431	-0.016950	0.881587	-0.195953	-0.197265	-0.042405	46.1704	-0.195265	-110.048	0.000385	NaN
226	1.000000	0.890909	7.36726e+06	-49939.1	955.818	-29757.7	0.000000	0.000000	6.891100	-0.027575	NaN	0.000000	0.001549	0.001640	28.0792	0.066469	0.002038	32.6174	126.55	-165.104	0.014207	0.889651	-0.187943	-0.189200	-0.027575	32.6174	-0.187308	-81.0885	0.000340	NaN
226	1.000000	0.898908	7.36726e+06	-49939.1	955.818	-29757.7	0.000000	0.000000	6.899098	-0.059768	NaN	0.000000	0.001631	0.001636	28.0789	0.113390	0.002053	55.2212	-162.123	-165.572	-0.025830	0.897557	-0.179944	-0.181294	-0.059768	55.2212	-0.179132	-58.9771	0.001013	NaN
226	1.000000	0.906938	7.36726e+06	-49939.1	955.818	-29757.7	0.000000	0.000000	6.907126	-0.109363	NaN	0.000000	0.001584	0.001687	28.079	0.088972	0.002006	44.3639	71.7623	-168.052	-0.077038	0.905580	-0.171913	-0.173272	-0.109363	44.3639	-0.170064	-41.1842	0.002655	NaN
226	1.000000	0.914913	7.36726e+06	-49939.1	955.819	-29757.7	0.000000	0.000000	6.915103	-0.048929	NaN	0.000000	0.001601	0.001663	28.0788	0.075171	0.002025	37.1231	-6.527406	-166.416	0.068570	0.913616	-0.163939	-0.165235	-0.048929	37.1231	-0.162950	-30.9191	0.001582	NaN
226	1.000000	0.922938	7.36726e+06	-49939.1	955.818	-29757.7	0.000000	0.000000	6.923129	-0.028320	NaN	0.000000	0.001566	0.001614	28.079	0.065159	0.002106	30.9408	-72.0674	-168.275	-0.031409	0.921613	-0.155914	-0.157238	-0.028320	30.9408	-0.155227	-22.5251	0.001257	NaN
226	1.000000	0.930955	7.36726e+06	-49939.1	955.818	-29757.7	0.000000	0.000000	6.931143	-0.107676	NaN	0.000000	0.001582	0.001617	28.0793	0.073615	0.001891	38.9331	-52.7735	-164.033	-0.156772	0.929592	-0.147896	-0.149259	-0.107676	38.9331	-0.145822	-15.1829	0.007092	NaN
226	1.000000	0.938931	7.36726e+06	-49939.1	955.818	-29757.7	0.000000	0.000000	6.939122	-0.009214	NaN	0.000000	0.001588	0.001627	28.079	0.026596	0.002115	12.5777	-95.9603	-166.33	0.003583	0.937591	-0.139921	-0.141261	-0.009214	12.5777	-0.139371	-11.5119	0.000800	NaN
226	1.000000	0.946929	7.36726e+06	-49939.1	955.819	-29757.7	0.000000	0.000000	6.947119	-0.059626	NaN	0.000000	0.001581	0.001645	28.0792	0.083395	0.001993	41.8413	-18.4435	-167.185	-0.059093	0.945613	-0.131922	-0.133239	-0.059626	41.8413	-0.130854	-7.917110	0.007531	NaN
226	1.000000	0.954942	7.36726e+06	-49939.1	955.818	-29757.7	0.000000	0.000000	6.955132	-0.042998	NaN	0.000000	0.001609	0.001663	28.079	0.105565	0.001923	54.8982	-146.14	-164.403	0.033060	0.953593	-0.123910	-0.125258	-0.042998	54.8982	-0.123322	-5.632362	0.007634	NaN
226	1.000000	0.962989	7.36726e+06	-49939.1	955.818	-29757.7	0.000000	0.000000	6.963181	-0.001585	NaN	0.000000	0.001587	0.001692	28.0789	0.090070	0.001923	46.8365	42.3473	-167.784	0.030609	0.961650	-0.115863	-0.117202	-0.001585	46.8365	-0.115838	-3.975037	0.000399	NaN
226	1.000000	0.970928	7.36726e+06	-49939.1	955.817	-29757.7	0.000000	0.000000	6.971119	-0.028369	NaN	0.000000	0.001586	0.001687	28.0793	0.029741	0.002145	13.865	36.2833	-164.844	-0.067440	0.969646	-0.107924	-0.109206	-0.028369	13.865	-0.106389	-2.518123	0.011266	NaN
226	1.000000	0.978954	7.36726e+06	-49939.1	955.817	-29757.7	0.000000	0.000000	6.979146	-0.015367	NaN	0.000000	0.001590	0.001686	28.0798	0.136346	0.001786	76.3605	-104.262	-168.927	0.061041	0.977661	-0.099897	-0.101191	-0.015367	76.3605	-0.099746	-1.803636	0.008520	NaN
226	1.000000	0.986958	7.36726e+06	-49939.1	955.817	-29757.7	0.000000	0.000000	6.987148	-0.031276	NaN	0.000000	0.001606	0.001727	28.0807	0.031985	0.002072	15.4392	62.9768	-168.025	0.035464	0.985666	-0.091894	-0.093186	-0.031276	15.4392	-0.090375	-1.103062	0.028354	NaN
226	1.000000	0.994934	7.36726e+06	-49939.1	955.817	-29757.7	0.000000	0.000000	6.995126	-0.003603	NaN	0.000000	0.001618	0.001705	28.0801	0.096341	0.002099	45.8989	-140.355	-164.759	0.069902	0.993616	-0.083917	-0.085235	-0.003603	45.8989	-0.083858	-0.770817	0.004674	NaN
226	1.000000	1.002947	7.36726e+06	-49939.1	955.818	-29757.7	0.000000	0.000000	7.003137	-0.041855	NaN	0.000000	0.001567	0.001725	28.0802	0.030775	0.002071	14.8602	-153.224	-166.145	-0.003876	1.001614	-0.075905	-0.077237	-0.041855	14.8602	-0.073792	-0.429681	0.097411	NaN
226	1.000000	1.010989	7.36726e+06	-49939.1	955.818	-29757.7	0.000000	0.000000	7.011179	-0.041078	NaN	0.000000	0.001594	0.001691	28.0805	0.057605	0.001896	30.3756	-150.374	-165.436	-0.019839	1.009675	-0.067863	-0.069176	-0.041078	30.3756	-0.066849	-0.280243	0.146581	NaN
226	1.000000	1.018999	7.36726e+06	-49939.1	955.819	-29757.7	0.000000	0.000000	7.019188	-0.065210	NaN	0.000000	0.001602	0.001693	28.0801	0.054619	0.002076	26.3074	-31.4612	-168.344	0.017480	1.017706	-0.059853	-0.061146	-0.065210	26.3074	-0.057993	-0.157605	0.413757	NaN
226	1.000000	1.026954	7.36726e+06	-49939.1	955.818	-29757.7	0.000000	0.000000	7.027145	-0.027905	NaN	0.000000	0.001575	0.001714	28.0805	0.131216	0.002009	65.3027	47.1927	-169.94	-0.034130	1.025697	-0.051898	-0.053155	-0.027905	65.3027	-0.051577	-0.101810	0.274085	NaN
226	1.000000	1.034972	7.36726e+06	-49939.1	955.818	-29757.7	0.000000	0.000000	7.035160	-0.114948	NaN	0.000000	0.001609	0.001730	28.08	0.088153	0.002113	41.7186	117.427	-167.852	-0.090376	1.033683	-0.043879	-0.045169	-0.114948	41.7186	-0.041813	-0.051352	2.238428	NaN
226	1.000000	1.042972	7.36726e+06	-49939.1	955.818	-29757.7	0.000000	0.000000	7.043163	-0.045007	NaN	0.000000	0.001598	0.001707	28.0802	0.032877	0.001942	16.9289	158.786	-165.984	-0.093491	1.041684	-0.035879	-0.037167	-0.045007	16.9289	-0.033885	-0.029704	1.515188	NaN
226	1.000000	1.050942	7.36726e+06	-49939.1	955.818	-29757.7	0.000000	0.000000	7.051134	0.004116	NaN	0.000000	0.001586	0.001713	28.0803	0.128288	0.001959	65.5012	-78.3914	-166.595	0.029150	1.049740	-0.027910	-0.029111	0.004116	65.5012	-0.027957	-0.020221	-0.203569	NaN
226	1.000000	1.058968	7.36726e+06	-49939.1	955.819	-29757.7	0.000000	0.000000	7.059162	0.035065	NaN	0.000000	0.001580	0.001694	28.0801	0.071160	0.002061	34.5242	140.169	-166.698	-0.034862	1.057650	-0.019883	-0.021201	0.035065	34.5242	-0.020645	-0.013044	-2.688212	NaN
226	1.000000	1.066992	7.36726e+06	-49939.1	955.818	-29757.7	0.000000	0.000000	7.067186	0.036124	NaN	0.000000	0.001607	0.001747	28.0803	0.132048	0.001990	66.3604	13.3401	-163.845	0.074267	1.065695	-0.011859	-0.013157	0.036124	66.3604	-0.012268	-0.007682	-4.702728	NaN
226	1.000000	1.074984	7.36726e+06	-49939.1	955.818	-29757.7	0.000000	0.000000	7.075185	0.228826	NaN	0.000000	0.001619	0.001740	28.08	0.250945	0.001833	136.941	30.1156	-165.877	0.079640	1.073675	-0.003868	-0.005177	0.228826	136.941	-0.005121	-0.003493	-65.5171	NaN
226	1.000000	1.082970	7.36726e+06	-49939.1	955.817	-29757.7	0.000000	0.000000	7.083223	1.471167	NaN	0.000000	0.001617	0.001731	28.0802	2.360666	0.001973	1196.57	21.391	-165.976	0.954105	1.081714	0.004119	0.002863	1.471167	1196.57	0.003196	0.002546	577.848	21666.3
226	2.000000	1.089581	7.36726e+06	-49939.1	955.818	-29757.7	0.000000	0.000000	7.090143	9.005912	NaN	0.000000	0.001606	0.001723	28.0799	8.819854	0.001686	5231.72	11.6048	-174.138	9.073633	1.089189	0.010729	0.010338	9.005912	5231.72	0.009438	0.008564	1051.62	51651.4
226	2.000000	1.091582	7.36726e+06	-49939.1	955.818	-29757.7	0.000000	0.000000	7.092244	11.4139	NaN	0.000000	0.001598	0.001696	28.0801	10.6517	0.001656	6431.64	8.722608	-172.946	11.4728	1.091230	0.012731	0.012378	11.4139	6431.64	0.011400	0.010779	1058.88	56598.1
226	2.000000	1.093590	7.36726e+06	-49939.1	955.818	-29757.7	0.000000	0.000000	7.094457	16.4263	NaN	0.000000	0.001658	0.001709	28.0801	13.2627	0.001713	7741.48	9.927978	-175.613	15.9558	1.093193	0.014738	0.014341	16.4263	7741.48	0.013147	0.012893	1274.08	62291
226	2.000000	1.095508	7.36726e+06	-49939.1	955.818	-29757.7	0.000000	0.000000	7.096526	20.0843	NaN	0.000000	0.001638	0.001710	28.0795	14.9969	0.001682	8918.46	5.450376	-174.547	19.1275	1.095201	0.016657	0.016350	20.0843	8918.46	0.014968	0.015242	1317.66	65998.8
226	2.000000	1.097499	7.36726e+06	-49939.1	955.819	-29757.7	0.000000	0.000000	7.098816	27.3776	NaN	0.000000	0.001639	0.001725	28.0816	18.1035	0.001870	9682	4.613180	-173.404	26.3705	1.097233	0.018647	0.018382	27.3776	9682	0.016526	0.017375	1575.71	67108.7
226	2.000000	1.099502	7.36726e+06	-49939.1	955.819	-29757.7	0.000000	0.000000	7.101030	32.5067	NaN	0.000000	0.001620	0.001722	28.0827	19.3703	0.001752	11055.3	5.063245	-175.973	30.654	1.099162	0.020650	0.020310	32.5067	11055.3	0.018445	0.020157	1612.68	71143
226	2.000000	1.101492	7.36726e+06	-49939.1	955.819	-29757.7	0.000000	0.000000	7.103375	41.1395	NaN	0.000000	0.001648	0.001728	28.0795	21.6267	0.001861	11622	3.471556	-173.659	40.2216	1.101161	0.022640	0.022310	41.1395	11622	0.019985	0.022519	1826.87	70758.3
226	2.000000	1.103529	7.36726e+06	-49939.1	955.818	-29757.7	0.000000	0.000000	7.105785	50.2022	NaN	0.000000	0.001631	0.001781	28.0794	24.4034	0.001802	13543.4	6.963284	-179.439	50.0976	1.103202	0.024678	0.024350	50.2022	13543.4	0.021897	0.025612	1960.1	77317.7
226	2.000000	1.105503	7.36726e+06	-49939.1	955.818	-29757.7	0.000000	0.000000	7.108066	57.665	NaN	0.000000	0.001649	0.001726	28.079	25.782	0.001710	15078.7	3.443087	-177.533	57.4536	1.105159	0.026652	0.026307	57.665	15078.7	0.023783	0.028839	1999.52	81123.2
226	2.000000	1.107440	7.36726e+06	-49939.1	955.817	-29757.7	0.000000	0.000000	7.110497	69.6716	NaN	0.000000	0.001652	0.001728	28.0788	28.9968	0.001731	16751.5	3.331817	-178.74	67.4627	1.107203	0.028588	0.028352	69.6716	16751.5	0.025469	0.031874	2185.81	85724.6
226	2.000000	1.109435	7.36726e+06	-49939.1	955.818	-29757.7	0.000000	0.000000	7.112912	79.8712	NaN	0.000000	0.001668	0.001697	28.0789	30.3618	0.001766	17195.4	5.376528	179.832	77.5437	1.109112	0.030584	0.030261	79.8712	17195.4	0.027100	0.034947	2285.49	84038.8
226	2.000000	1.111494	7.36726e+06	-49939.1	955.818	-29757.7	0.000000	0.000000	7.115378	89.7904	NaN	0.000000	0.001658	0.001681	28.079	32.7084	0.001911	17114.1	5.127153	-179.329	89.7205	1.111194	0.032642	0.032342	89.7904	17114.1	0.028707	0.038107	2356.27	80098.7
226	2.000000	1.113439	7.36726e+06	-49939.1	955.817	-29757.7	0.000000	0.000000	7.117836	102.252	NaN	0.000000	0.001621	0.001647	28.0792	34.3505	0.001765	19459.9	5.823804	177.819	99.7473	1.113144	0.034587	0.034293	102.252	19459.9	0.030647	0.042094	2429.1	86656.6
226	2.000000	1.115406	7.36726e+06	-49939.1	955.819	-29757.7	0.000000	0.000000	7.120395	116.664	NaN	0.000000	0.001652	0.001693	28.0787	36.1808	0.001728	20941.6	6.707971	175.413	113.87	1.115111	0.036554	0.036260	116.664	20941.6	0.032376	0.045812	2546.58	89390.7
226	2.000000	1.117422	7.36726e+06	-49939.1	955.819	-29757.7	0.000000	0.000000	7.122660	122.699	NaN	0.000000	0.001650	0.001684	28.0791	38.9509	0.001894	20569.8	5.909630	177.707	120.649	1.117117	0.038571	0.038265	122.699	20569.8	0.034097	0.049664	2470.56	84329.9
226	2.000000	1.119502	7.36726e+06	-49939.1	955.819	-29757.7	0.000000	0.000000	7.125099	131.452	NaN	0.000000	0.001655	0.001663	28.0788	39.6983	0.001691	23470.6	6.443931	176.053	134.603	1.119163	0.040650	0.040311	131.452	23470.6	0.036449	0.055175	2382.47	91290.9
226	2.000000	1.121402	7.36726e+06	-49939.1	955.819	-29757.7	0.000000	0.000000	7.127756	149.848	NaN	0.000000	0.001675	0.001686	28.0794	42.1798	0.001808	23329.6	1.165883	-177.942	147.235	1.121060	0.042551	0.042209	149.848	23329.6	0.037733	0.058302	2570.22	88275.5
226	2.000000	1.123468	7.36726e+06	-49939.1	955.818	-29757.7	0.000000	0.000000	7.130382	163.466	NaN	0.000000	0.001648	0.001680	28.079	44.8102	0.001931	23209.9	3.093666	-179.798	161.227	1.123096	0.044616	0.044245	163.466	23209.9	0.039334	0.062319	2623.05	84944.7
226	2.000000	1.125419	7.36726e+06	-49939.1	955.819	-29757.7	0.000000	0.000000	7.132905	177.398	NaN	0.000000	0.001637	0.001710	28.0789	46.8687	0.001775	26408.7	7.189905	173.546	174.982	1.125172	0.046567	0.046320	177.398	26408.7	0.041529	0.068040	2607.28	92499.7
226	2.000000	1.127443	7.36726e+06	-49939.1	955.818	-29757.7	0.000000	0.000000	7.135571	192.994	NaN	0.000000	0.001653	0.001641	28.079	48.4885	0.001797	26977.2	2.506703	178.312	192.402	1.127225	0.048591	0.048373	192.994	26977.2	0.043226	0.072630	2657.21	91455.9
226	2.000000	1.129416	7.36726e+06	-49939.1	955.818	-29757.7	0.000000	0.000000	7.138330	212.09	NaN	0.000000	0.001638	0.001664	28.079	49.9771	0.001850	27008.7	2.788954	178.583	211.282	1.129133	0.050565	0.050282	212.09	27008.7	0.044675	0.076668	2766.33	89118.6
226	2.000000	1.131391	7.36726e+06	-49939.1	955.818	-29757.7	0.000000	0.000000	7.140918	227.02	NaN	0.000000	0.001624	0.001678	28.0804	51.9661	0.001841	28227.4	1.173296	179.611	223.89	1.131084	0.052539	0.052232	227.02	28227.4	0.046507	0.081924	2771.09	90102.6
226	2.000000	1.133441	7.36726e+06	-49939.1	955.818	-29757.7	0.000000	0.000000	7.143778	246.723	NaN	0.000000	0.001581	0.001676	28.0798	54.382	0.001745	31162.8	5.104637	175.025	244.682	1.133069	0.054589	0.054218	246.723	31162.8	0.048651	0.088290	2794.45	95819.1
226	2.000000	1.135354	7.36726e+06	-49939.1	955.818	-29757.7	0.000000	0.000000	7.146503	266.476	NaN	0.000000	0.001590	0.001704	28.0801	55.2805	0.001740	31765	2.913388	177.185	262.586	1.135053	0.056502	0.056202	266.476	31765	0.050211	0.093066	2863.31	95132.3
226	2.000000	1.137356	7.36726e+06	-49939.1	955.818	-29757.7	0.000000	0.000000	7.149090	280.701	NaN	0.000000	0.001556	0.001701	28.0802	58.3872	0.001874	31155.1	4.866787	174.829	276.22	1.137080	0.058504	0.058228	280.701	31155.1	0.051747	0.097889	2867.55	90977.9
226	2.000000	1.139419	7.36726e+06	-49939.1	955.818	-29757.7	0.000000	0.000000	7.152058	302.686	NaN	0.000000	0.001580	0.001690	28.0799	58.1819	0.001796	32397.7	1.240899	178.558	300.702	1.139117	0.060568	0.060266	302.686	32397.7	0.053561	0.103736	2917.85	91901.6
226	2.000000	1.141379	7.36726e+06	-49939.1	955.819	-29757.7	0.000000	0.000000	7.154811	321.982	NaN	0.000000	0.001546	0.001680	28.0802	61.5439	0.001865	32994.1	4.980759	174.512	317.769	1.141067	0.062528	0.062215	321.982	32994.1	0.055209	0.109191	2948.81	91225.6
226	2.000000	1.143393	7.36726e+06	-49939.1	955.819	-29757.7	0.000000	0.000000	7.157624	341.415	NaN	0.000000	0.001553	0.001650	28.0799	62.7461	0.001781	35229.1	3.543298	175.319	339.271	1.143065	0.064542	0.064213	341.415	35229.1	0.057273	0.116212	2937.87	94416.9
226	2.000000	1.145394	7.36726e+06	-49939.1	955.818	-29757.7	0.000000	0.000000	7.159733	344.042	NaN	0.000000	0.001542	0.001677	28.0802	64.3418	0.001803	35689.2	3.397767	175.137	340.705	1.145079	0.066543	0.066227	344.042	35689.2	0.059313	0.123355	2789.04	92839.3
226	2.000000	1.147425	7.36726e+06	-49939.1	955.82	-29757.7	0.000000	0.000000	7.162945	372.755	NaN	0.000000	0.001531	0.001709	28.0801	66.9182	0.001785	37499.5	2.135477	176.57	371.441	1.147030	0.068573	0.068178	372.755	37499.5	0.061118	0.129849	2870.68	95077.9
226	2.000000	1.149420	7.36726e+06	-49939.1	955.819	-29757.7	0.000000	0.000000	7.165739	392.205	NaN	0.000000	0.001544	0.001708	28.08	68.1539	0.001820	37446.8	4.677576	174.497	391.419	1.149067	0.070568	0.070215	392.205	37446.8	0.062713	0.135716	2889.89	92869.3
226	2.000000	1.151318	7.36726e+06	-49939.1	955.82	-29757.7	0.000000	0.000000	7.168500	413.163	NaN	0.000000	0.001581	0.001686	28.0803	70.385	0.001801	39070.5	4.402913	174.052	407.48	1.151007	0.072467	0.072155	413.163	39070.5	0.064536	0.142573	2897.91	94537.5
226	2.000000	1.153369	7.36726e+06	-49939.1	955.819	-29757.7	0.000000	0.000000	7.171153	427.816	NaN	0.000000	0.001531	0.001713	28.08	73.2356	0.001896	38621.4	6.914405	172.157	424.227	1.153005	0.074518	0.074153	427.816	38621.4	0.066210	0.149013	2871	91409
226	2.000000	1.155320	7.36726e+06	-49939.1	955.818	-29757.7	0.000000	0.000000	7.173631	440.644	NaN	0.000000	0.001526	0.001700	28.0803	73.5286	0.001756	41876.4	3.837523	173.997	434.874	1.155016	0.076469	0.076165	440.644	41876.4	0.068577	0.158347	2782.79	96147.5
226	2.000000	1.157416	7.36726e+06	-49939.1	955.819	-29757.7	0.000000	0.000000	7.176688	464.007	NaN	0.000000	0.001533	0.001741	28.0804	77.1982	0.001766	43704.7	2.376689	175.586	464.969	1.157111	0.078564	0.078260	464.007	43704.7	0.070601	0.166543	2786.12	97844.9
226	2.000000	1.159293	7.36726e+06	-49939.1	955.818	-29757.7	0.000000	0.000000	7.179191	479.23	NaN	0.000000	0.001560	0.001673	28.0802	77.375	0.001728	44787.5	1.102054	176.528	472.508	1.159017	0.080441	0.080165	479.23	44787.5	0.072416	0.174055	2753.33	98081.3
226	2.000000	1.161309	7.36726e+06	-49939.1	955.819	-29757.7	0.000000	0.000000	7.182198	503.342	NaN	0.000000	0.001548	0.001693	28.0805	80.9029	0.001833	44127.4	5.532212	171.802	498.691	1.161054	0.082458	0.082203	503.342	44127.4	0.073903	0.180325	2791.31	94941.1
226	2.000000	1.163405	7.36726e+06	-49939.1	955.819	-29757.7	0.000000	0.000000	7.184987	520.19	NaN	0.000000	0.001554	0.001674	28.0802	82.6282	0.001835	45027.1	5.668918	171.659	516.952	1.163169	0.084553	0.084317	520.19	45027.1	0.075888	0.188863	2754.32	94661.7
226	2.000000	1.165333	7.36726e+06	-49939.1	955.819	-29757.7	0.000000	0.000000	7.188299	553.854	NaN	0.000000	0.001526	0.001677	28.0793	82.6966	0.001736	47648.9	-0.155766	177.334	549.763	1.165073	0.086481	0.086221	553.854	47648.9	0.077764	0.197095	2810.08	98059.1
226	2.000000	1.167357	7.36726e+06	-49939.1	955.82	-29757.7	0.000000	0.000000	7.191213	575.489	NaN	0.000000	0.001545	0.001691	28.0793	86.4725	0.001751	49374.8	3.756010	173.015	573.326	1.167086	0.088505	0.088234	575.489	49374.8	0.079764	0.206057	2792.86	99376.8
226	2.000000	1.169259	7.36726e+06	-49939.1	955.819	-29757.7	0.000000	0.000000	7.193016	573.056	NaN	0.000000	0.001575	0.001698	28.0789	86.8901	0.001782	48762.5	2.645092	173.909	565.015	1.169016	0.090408	0.090165	573.056	48762.5	0.081594	0.214422	2672.56	96210.9
226	2.000000	1.171562	7.36726e+06	-49939.1	955.819	-29757.7	0.000000	0.000000	7.196377	598.823	NaN	0.000000	0.001543	0.001703	28.0793	92.3155	0.001781	51842.4	7.982819	168.979	608.957	1.171129	0.092710	0.092277	598.823	51842.4	0.084047	0.225876	2651.11	99660.6
226	2.000000	1.173255	7.36726e+06	-49939.1	955.818	-29757.7	0.000000	0.000000	7.199483	633.178	NaN	0.000000	0.001537	0.001705	28.0789	92.0471	0.001732	53149.1	3.426894	173.362	623.559	1.172896	0.094403	0.094045	633.178	53149.1	0.085468	0.232641	2721.7	100676
226	2.000000	1.175281	7.36726e+06	-49939.1	955.819	-29757.7	0.000000	0.000000	7.202017	645.533	NaN	0.000000	0.001570	0.001680	28.0792	94.8482	0.001781	53260.2	6.850983	169.297	640.01	1.174980	0.096429	0.096128	645.533	53260.2	0.087339	0.241685	2670.96	98980.7
226	2.000000	1.177402	7.36726e+06	-49939.1	955.819	-29757.7	0.000000	0.000000	7.205446	677.353	NaN	0.000000	0.001564	0.001724	28.0801	96.619	0.001794	53845	4.729223	171.274	676.297	1.177079	0.098550	0.098228	677.353	53845	0.089115	0.250424	2704.83	98306.2
226	2.000000	1.179340	7.36726e+06	-49939.1	955.819	-29757.7	0.000000	0.000000	7.208556	705.853	NaN	0.000000	0.001557	0.001695	28.0789	96.5083	0.001829	52757.8	4.259244	172.301	703.145	1.179008	0.100488	0.100157	705.853	52757.8	0.090454	0.257103	2745.41	95062
226	2.000000	1.181373	7.36726e+06	-49939.1	955.818	-29757.7	0.000000	0.000000	7.211396	725.459	NaN	0.000000	0.001589	0.001709	28.0792	99.222	0.001802	55070.5	5.458397	170.828	723.064	1.180992	0.102522	0.102140	725.459	55070.5	0.092642	0.268200	2704.92	97154.5
226	2.000000	1.183312	7.36726e+06	-49939.1	955.818	-29757.7	0.000000	0.000000	7.213916	739.572	NaN	0.000000	0.001556	0.001731	28.079	100.299	0.001753	57229.8	1.065254	175.182	732.36	1.183091	0.104461	0.104240	739.572	57229.8	0.094769	0.279195	2648.95	98955.9
226	2.000000	1.185259	7.36726e+06	-49939.1	955.819	-29757.7	0.000000	0.000000	7.216926	765.449	NaN	0.000000	0.001568	0.001720	28.079	102.088	0.001828	55851.8	3.626838	172.153	759.533	1.185060	0.106407	0.106208	765.449	55851.8	0.096129	0.286335	2673.27	95361.6
226	2.000000	1.187383	7.36726e+06	-49939.1	955.818	-29757.7	0.000000	0.000000	7.219681	780.799	NaN	0.000000	0.001562	0.001710	28.0791	104.463	0.001717	60832.3	2.188817	173.332	779.751	1.187294	0.108531	0.108443	780.799	60832.3	0.098905	0.301169	2592.56	101275
226	2.000000	1.187803	7.36726e+06	-49939.1	955.818	-29757.7	0.000000	0.000000	7.220515	790.857	NaN	0.000000	0.001526	0.001689	28.0793	104.851	0.001741	60215.5	3.065715	-7.598357	782.714	1.187457	0.108951	0.108606	790.857	60215.5	0.099101	0.302231	2616.73	100072