File: remote_trans/data/nanoindenter/0828-1/data/Data_2025-08-06,11h17m57s/2025-07-22_16-23-58_1_318.txt
2025-07-22, 16:23:58, 1
Index	Phase	Displacement	Time	Pos X	Pos Y	Pos Z	Rot A	Rot B	Piezo Z	Force A	Force B	Gripper	Voltage A	Voltage B	Temperature	Amplitude force	Amplitude pos	Stiffness	Phase shift	Phase excitation	Force A raw	Displacement raw	HMax	HMax raw	Real Force	Real Stiffness	Contact Depth	Area	Hardness	Reduced Mod.
[#]	[#]	[um]	[s]	[um]	[um]	[um]	[m°]	[m°]	[um]	[uN]	[uN]	[V]	[V]	[V]	[°C]	[uN]	[um]	[N/m]	[°]	[°]	[uN]	[um]	[um]	[um]	[uN]	[N/m]	[um]	[um^2]	[MPa]	[MPa]
318	1.000000	0.002483	7.36818e+06	-54539.1	955.819	-29743.6	0.000000	0.000000	6.002821	0.016787	NaN	0.000000	0.001599	0.001687	28.0813	0.093881	0.000931	100.862	71.6019	-164.357	0.065096	0.001217	-1.063360	-1.064626	0.016787	100.862	-1.063485	-1.620504E+14	-1.035924E-16	NaN
318	1.000000	0.010458	7.36818e+06	-54539.1	955.819	-29743.6	0.000000	0.000000	6.010799	0.087549	NaN	0.000000	0.001615	0.001669	28.0797	0.084997	0.001036	82.0397	-89.9958	-162.786	0.059883	0.009151	-1.055385	-1.056693	0.087549	82.0397	-1.056185	-1.292872E+14	-6.771701E-16	NaN
318	1.000000	0.018435	7.36818e+06	-54539.1	955.818	-29743.6	0.000000	0.000000	6.018772	0.006612	NaN	0.000000	0.001601	0.001686	28.0801	0.064869	0.001834	35.3755	-101.481	-164.83	-0.080063	0.017107	-1.047408	-1.048736	0.006612	35.3755	-1.047548	-9.895931E+13	-6.681666E-17	NaN
318	1.000000	0.026423	7.36818e+06	-54539.1	955.818	-29743.6	0.000000	0.000000	6.026759	-0.024743	NaN	0.000000	0.001617	0.001646	28.0801	0.066199	0.001716	38.5851	145.158	-167.763	-0.031528	0.025080	-1.039421	-1.040763	-0.024743	38.5851	-1.038940	-7.580724E+13	3.263994E-16	NaN
318	1.000000	0.034431	7.36818e+06	-54539.1	955.818	-29743.6	0.000000	0.000000	6.034767	-0.023931	NaN	0.000000	0.001637	0.001675	28.0795	0.043237	0.001932	22.3817	-34.8051	-166.998	-0.089324	0.033088	-1.031412	-1.032755	-0.023931	22.3817	-1.030610	-5.857152E+13	4.085768E-16	NaN
318	1.000000	0.042437	7.36818e+06	-54539.1	955.818	-29743.6	0.000000	0.000000	6.042772	-0.028570	NaN	0.000000	0.001626	0.001657	28.0795	0.043536	0.002010	21.6621	-91.1163	-167.106	-0.028007	0.041125	-1.023407	-1.024718	-0.028570	21.6621	-1.022418	-4.544429E+13	6.286837E-16	NaN
318	1.000000	0.050396	7.36818e+06	-54539.1	955.818	-29743.6	0.000000	0.000000	6.050733	0.008226	NaN	0.000000	0.001594	0.001666	28.0796	0.052709	0.001888	27.9201	167.068	-165.644	-0.039516	0.049123	-1.015448	-1.016720	0.008226	27.9201	-1.015669	-3.686992E+13	-2.230991E-16	NaN
318	1.000000	0.058392	7.36818e+06	-54539.1	955.817	-29743.6	0.000000	0.000000	6.058728	-0.020641	NaN	0.000000	0.001600	0.001656	28.0795	0.024429	0.001928	12.6739	-124.726	-164.315	-0.019844	0.057093	-1.007452	-1.008751	-0.020641	12.6739	-1.006230	-2.751946E+13	7.500402E-16	NaN
318	1.000000	0.066398	7.36818e+06	-54539.1	955.819	-29743.6	0.000000	0.000000	6.066736	0.014785	NaN	0.000000	0.001614	0.001654	28.0796	0.055759	0.001955	28.5247	84.953	-164.472	0.003764	0.065097	-0.999445	-1.000747	0.014785	28.5247	-0.999834	-2.256987E+13	-6.550619E-16	NaN
318	1.000000	0.074454	7.36818e+06	-54539.1	955.818	-29743.6	0.000000	0.000000	6.074793	0.033167	NaN	0.000000	0.001608	0.001649	28.0797	0.022936	0.002025	11.324	-119.391	-163.283	-0.018093	0.073095	-0.991389	-0.992748	0.033167	11.324	-0.993586	-1.859521E+13	-1.783610E-15	NaN
318	1.000000	0.082432	7.36818e+06	-54539.1	955.819	-29743.6	0.000000	0.000000	6.082770	0.042463	NaN	0.000000	0.001609	0.001649	28.0798	0.124928	0.001982	63.0242	34.2682	-167.076	0.020006	0.081179	-0.983412	-0.984664	0.042463	63.0242	-0.983917	-1.377774E+13	-3.082023E-15	NaN
318	1.000000	0.090450	7.36818e+06	-54539.1	955.818	-29743.6	0.000000	0.000000	6.090787	-0.008878	NaN	0.000000	0.001638	0.001663	28.0796	0.074815	0.001897	39.4349	-123.772	-165.845	0.059414	0.089132	-0.975393	-0.976711	-0.008878	39.4349	-0.975224	-1.052119E+13	8.438429E-16	NaN
318	1.000000	0.098407	7.36818e+06	-54539.1	955.818	-29743.6	0.000000	0.000000	6.098745	0.014915	NaN	0.000000	0.001616	0.001633	28.0798	0.126348	0.001988	63.5459	-76.1149	-166.374	-0.107726	0.097132	-0.967436	-0.968711	0.014915	63.5459	-0.967612	-8.307740E+12	-1.795257E-15	NaN
318	1.000000	0.106431	7.36818e+06	-54539.1	955.819	-29743.6	0.000000	0.000000	6.106769	0.036172	NaN	0.000000	0.001615	0.001654	28.0795	0.060836	0.001982	30.6923	-95.3521	-163.912	0.003837	0.105089	-0.959412	-0.960754	0.036172	30.6923	-0.960296	-6.620076E+12	-5.463958E-15	NaN
318	1.000000	0.114433	7.36818e+06	-54539.1	955.819	-29743.6	0.000000	0.000000	6.114771	0.020376	NaN	0.000000	0.001554	0.001620	28.0794	0.201343	0.002002	100.588	4.403270	-165.877	0.109415	0.113170	-0.951410	-0.952674	0.020376	100.588	-0.951562	-5.047761E+12	-4.036726E-15	NaN
318	1.000000	0.122450	7.36818e+06	-54539.1	955.819	-29743.6	0.000000	0.000000	6.122787	-0.020189	NaN	0.000000	0.001567	0.001619	28.0795	0.048001	0.002007	23.9179	-116.827	-167.31	0.041361	0.121136	-0.943393	-0.944707	-0.020189	23.9179	-0.942760	-3.840341E+12	5.257115E-15	NaN
318	1.000000	0.130423	7.36818e+06	-54539.1	955.818	-29743.6	0.000000	0.000000	6.130759	-0.024902	NaN	0.000000	0.001555	0.001621	28.0796	0.101658	0.002107	48.2531	-104.055	-168.187	0.011744	0.129130	-0.935421	-0.936713	-0.024902	48.2531	-0.935034	-3.020841E+12	8.243346E-15	NaN
318	1.000000	0.138422	7.36818e+06	-54539.1	955.819	-29743.6	0.000000	0.000000	6.138761	0.067753	NaN	0.000000	0.001571	0.001658	28.0797	0.058583	0.001932	30.3194	-166.91	-169.334	0.024193	0.137119	-0.927422	-0.928724	0.067753	30.3194	-0.929098	-2.511996E+12	-2.697192E-14	NaN
318	1.000000	0.146472	7.36818e+06	-54539.1	955.818	-29743.6	0.000000	0.000000	6.146807	-0.027689	NaN	0.000000	0.001562	0.001667	28.0807	0.064221	0.002090	30.7331	-67.5044	-164.862	-0.030289	0.145136	-0.919372	-0.920707	-0.027689	30.7331	-0.918696	-1.818025E+12	1.523041E-14	NaN
318	1.000000	0.154454	7.36818e+06	-54539.1	955.819	-29743.6	0.000000	0.000000	6.154793	0.056556	NaN	0.000000	0.001549	0.001669	28.0808	0.069829	0.002007	34.7876	-143.223	-165.873	-0.065086	0.153117	-0.911389	-0.912727	0.056556	34.7876	-0.912609	-1.504521E+12	-3.759082E-14	NaN
318	1.000000	0.162469	7.36818e+06	-54539.1	955.819	-29743.6	0.000000	0.000000	6.162809	0.074830	NaN	0.000000	0.001534	0.001645	28.0808	0.121644	0.002104	57.81	-101.714	-166.218	-0.003366	0.161145	-0.903374	-0.904698	0.074830	57.81	-0.904345	-1.163522E+12	-6.431351E-14	NaN
318	1.000000	0.170479	7.36818e+06	-54539.1	955.817	-29743.6	0.000000	0.000000	6.170816	0.001942	NaN	0.000000	0.001540	0.001646	28.0811	0.084382	0.002100	40.1842	164.059	-166.309	0.111840	0.169185	-0.895365	-0.896658	0.001942	40.1842	-0.895401	-8.808766E+11	-2.204621E-15	NaN
318	1.000000	0.178457	7.36818e+06	-54539.1	955.818	-29743.6	0.000000	0.000000	6.178792	-0.067721	NaN	0.000000	0.001530	0.001652	28.0807	0.038249	0.001948	19.6368	177.795	-169.287	0.014808	0.177157	-0.887386	-0.888686	-0.067721	19.6368	-0.884799	-6.332964E+11	1.069343E-13	NaN
318	1.000000	0.186448	7.36818e+06	-54539.1	955.818	-29743.6	0.000000	0.000000	6.186785	-0.001038	NaN	0.000000	0.001559	0.001633	28.081	0.110327	0.001967	56.0927	14.6311	-164.384	0.023107	0.185135	-0.879395	-0.880708	-0.001038	56.0927	-0.879382	-5.349886E+11	1.940574E-15	NaN
318	1.000000	0.194498	7.36818e+06	-54539.1	955.819	-29743.6	0.000000	0.000000	6.194834	-0.027831	NaN	0.000000	0.001556	0.001634	28.0813	0.103027	0.001855	55.537	164.295	-162.822	0.032098	0.193165	-0.871345	-0.872678	-0.027831	55.537	-0.870969	-4.116789E+11	6.760250E-14	NaN
318	1.000000	0.202461	7.36818e+06	-54539.1	955.819	-29743.6	0.000000	0.000000	6.202796	-0.053765	NaN	0.000000	0.001579	0.001652	28.0812	0.097089	0.001986	48.8978	116.027	-166.916	-0.006166	0.201169	-0.863383	-0.864674	-0.053765	48.8978	-0.862558	-3.167676E+11	1.697316E-13	NaN
318	1.000000	0.210488	7.36818e+06	-54539.1	955.818	-29743.6	0.000000	0.000000	6.210825	0.011456	NaN	0.000000	0.001556	0.001621	28.081	0.078994	0.001999	39.511	63.0347	-168.26	0.047439	0.209154	-0.855356	-0.856689	0.011456	39.511	-0.855573	-2.547972E+11	-4.496284E-14	NaN
318	1.000000	0.218481	7.36818e+06	-54539.1	955.819	-29743.6	0.000000	0.000000	6.218818	0.002397	NaN	0.000000	0.001556	0.001636	28.0809	0.040802	0.002118	19.2606	18.6891	-164.352	0.001849	0.217145	-0.847363	-0.848698	0.002397	19.2606	-0.847456	-1.978284E+11	-1.211762E-14	NaN
318	1.000000	0.226482	7.36818e+06	-54539.1	955.818	-29743.6	0.000000	0.000000	6.226821	0.052750	NaN	0.000000	0.001587	0.001622	28.081	0.113903	0.001992	57.1804	67.2561	-165.056	0.014268	0.225180	-0.839361	-0.840663	0.052750	57.1804	-0.840053	-1.570416E+11	-3.358980E-13	NaN
318	1.000000	0.234494	7.36818e+06	-54539.1	955.819	-29743.6	0.000000	0.000000	6.234830	-0.020551	NaN	0.000000	0.001583	0.001694	28.0809	0.034034	0.001992	17.0891	-72.5934	-165.459	0.047339	0.233207	-0.831350	-0.832637	-0.020551	17.0891	-0.830448	-1.163737E+11	1.765942E-13	NaN
318	1.000000	0.242465	7.36818e+06	-54539.1	955.819	-29743.6	0.000000	0.000000	6.242801	-0.028485	NaN	0.000000	0.001610	0.001641	28.0809	0.069191	0.001857	37.2662	2.374658	-165.931	-0.042607	0.241163	-0.823378	-0.824680	-0.028485	37.2662	-0.822805	-9.167379E+10	3.107192E-13	NaN
318	1.000000	0.250473	7.36818e+06	-54539.1	955.817	-29743.6	0.000000	0.000000	6.250810	-0.015424	NaN	0.000000	0.001586	0.001626	28.0811	0.047123	0.001883	25.0249	96.6918	-167.143	0.013959	0.249178	-0.815370	-0.816665	-0.015424	25.0249	-0.814908	-7.163875E+10	2.153033E-13	NaN
318	1.000000	0.258484	7.36818e+06	-54539.1	955.818	-29743.6	0.000000	0.000000	6.258821	-0.000882	NaN	0.000000	0.001593	0.001634	28.0808	0.040587	0.002033	19.9633	56.1684	-167.503	-0.070370	0.257222	-0.807360	-0.808621	-0.000882	19.9633	-0.807327	-5.653246E+10	1.559705E-14	NaN
318	1.000000	0.266492	7.36818e+06	-54539.1	955.818	-29743.6	0.000000	0.000000	6.266829	0.013675	NaN	0.000000	0.001607	0.001655	28.0812	0.091731	0.001979	46.3472	167.465	-166.052	0.022661	0.265204	-0.799352	-0.800640	0.013675	46.3472	-0.799573	-4.436739E+10	-3.082294E-13	NaN
318	1.000000	0.274497	7.36818e+06	-54539.1	955.819	-29743.6	0.000000	0.000000	6.274833	-0.030880	NaN	0.000000	0.001598	0.001654	28.0811	0.068783	0.002083	33.029	-178.455	-165.676	0.057330	0.273248	-0.791346	-0.792596	-0.030880	33.029	-0.790645	-3.356130E+10	9.201138E-13	NaN
318	1.000000	0.282483	7.36818e+06	-54539.1	955.818	-29743.6	0.000000	0.000000	6.282822	0.046310	NaN	0.000000	0.001636	0.001622	28.0797	0.066651	0.002023	32.9399	155.837	-168.595	0.048621	0.281194	-0.783361	-0.784649	0.046310	32.9399	-0.784415	-2.761974E+10	-1.676700E-12	NaN
318	1.000000	0.290561	7.36818e+06	-54539.1	955.818	-29743.6	0.000000	0.000000	6.290896	-0.025702	NaN	0.000000	0.001624	0.001653	28.0796	0.027648	0.001830	15.1106	167.814	-167.517	-0.091338	0.289175	-0.775283	-0.776669	-0.025702	15.1106	-0.774007	-1.994261E+10	1.288792E-12	NaN
318	1.000000	0.298521	7.36818e+06	-54539.1	955.819	-29743.6	0.000000	0.000000	6.298858	0.001449	NaN	0.000000	0.001590	0.001650	28.0796	0.085086	0.001965	43.2962	50.0821	-163.841	0.007073	0.297211	-0.767323	-0.768632	0.001449	43.2962	-0.767348	-1.618980E+10	-8.947963E-14	NaN
318	1.000000	0.306501	7.36818e+06	-54539.1	955.819	-29743.6	0.000000	0.000000	6.306838	-0.005055	NaN	0.000000	0.001594	0.001674	28.0799	0.167061	0.001932	86.4833	112.267	-166.71	-0.033931	0.305221	-0.759342	-0.760622	-0.005055	86.4833	-0.759298	-1.258210E+10	4.017253E-13	NaN
318	1.000000	0.314495	7.36818e+06	-54539.1	955.818	-29743.6	0.000000	0.000000	6.314832	-0.003361	NaN	0.000000	0.001593	0.001707	28.0795	0.028328	0.001992	14.2191	-139.482	-163.403	-0.017295	0.313204	-0.751348	-0.752640	-0.003361	14.2191	-0.751171	-9.753392E+9	3.446335E-13	NaN
318	1.000000	0.322517	7.36818e+06	-54539.1	955.818	-29743.6	0.000000	0.000000	6.322854	0.005457	NaN	0.000000	0.001645	0.001723	28.0796	0.070462	0.002077	33.9179	39.6768	-164.628	0.017310	0.321186	-0.743327	-0.744657	0.005457	33.9179	-0.743447	-7.656095E+9	-7.127373E-13	NaN
318	1.000000	0.330540	7.36818e+06	-54539.1	955.819	-29743.6	0.000000	0.000000	6.330879	0.038467	NaN	0.000000	0.001618	0.001648	28.0796	0.083594	0.001968	42.4734	67.3291	-163.748	0.058886	0.329230	-0.735303	-0.736613	0.038467	42.4734	-0.735982	-6.057953E+9	-6.349796E-12	NaN
318	1.000000	0.338514	7.36818e+06	-54539.1	955.818	-29743.6	0.000000	0.000000	6.338852	0.007070	NaN	0.000000	0.001633	0.001644	28.0794	0.024086	0.001916	12.5692	-34.37	-166.349	-0.009890	0.337233	-0.727329	-0.728611	0.007070	12.5692	-0.727751	-4.678972E+9	-1.511119E-12	NaN
318	1.000000	0.346511	7.36818e+06	-54539.1	955.818	-29743.6	0.000000	0.000000	6.346849	0.026647	NaN	0.000000	0.001625	0.001694	28.0797	0.026327	0.001884	13.9737	38.1579	-169.627	-0.052361	0.345249	-0.719332	-0.720594	0.026647	13.9737	-0.720763	-3.757281E+9	-7.092181E-12	NaN
318	1.000000	0.354522	7.36818e+06	-54539.1	955.819	-29743.6	0.000000	0.000000	6.354860	0.035006	NaN	0.000000	0.001616	0.001641	28.0792	0.142969	0.002044	69.961	33.4188	-166.141	-0.077555	0.353258	-0.711321	-0.712585	0.035006	69.961	-0.711697	-2.826186E+9	-1.238635E-11	NaN
318	1.000000	0.362563	7.36818e+06	-54539.1	955.818	-29743.6	0.000000	0.000000	6.362897	-0.065637	NaN	0.000000	0.001600	0.001693	28.0794	0.026456	0.001982	13.3467	-107.375	-164.071	-0.016426	0.361208	-0.703280	-0.704635	-0.065637	13.3467	-0.699592	-1.931790E+9	3.397723E-11	NaN
318	1.000000	0.370536	7.36818e+06	-54539.1	955.818	-29743.6	0.000000	0.000000	6.370873	-0.006146	NaN	0.000000	0.001604	0.001659	28.0795	0.022548	0.001995	11.3047	-48.9293	-169.139	0.008095	0.369222	-0.695307	-0.696622	-0.006146	11.3047	-0.694899	-1.666703E+9	3.687552E-12	NaN
318	1.000000	0.378540	7.36818e+06	-54539.1	955.818	-29743.6	0.000000	0.000000	6.378874	-0.069234	NaN	0.000000	0.001605	0.001651	28.0792	0.116293	0.002086	55.7381	-41.3597	-163.924	-0.056579	0.377241	-0.687303	-0.688603	-0.069234	55.7381	-0.686371	-1.274448E+9	5.432505E-11	NaN
318	1.000000	0.386553	7.36818e+06	-54539.1	955.819	-29743.6	0.000000	0.000000	6.386890	0.018413	NaN	0.000000	0.001598	0.001663	28.0794	0.062824	0.001950	32.2251	-86.1439	-164.383	0.058078	0.385247	-0.679291	-0.680597	0.018413	32.2251	-0.679719	-1.033635E+9	-1.781338E-11	NaN
318	1.000000	0.394579	7.36818e+06	-54539.1	955.818	-29743.6	0.000000	0.000000	6.394917	0.019868	NaN	0.000000	0.001588	0.001663	28.0792	0.042124	0.001980	21.2695	-120.168	-164.99	0.033239	0.393273	-0.671264	-0.672571	0.019868	21.2695	-0.671964	-8.096086E+8	-2.453973E-11	NaN
318	1.000000	0.402553	7.36818e+06	-54539.1	955.818	-29743.6	0.000000	0.000000	6.402888	-0.046214	NaN	0.000000	0.001614	0.001666	28.0793	0.048340	0.002063	23.4287	-20.9358	-164.133	-0.069520	0.401255	-0.663290	-0.664588	-0.046214	23.4287	-0.661811	-5.878605E+8	7.861472E-11	NaN
318	1.000000	0.410579	7.36818e+06	-54539.1	955.818	-29743.6	0.000000	0.000000	6.410917	0.002011	NaN	0.000000	0.001621	0.001678	28.0792	0.044698	0.001967	22.719	-5.667730	-165.425	-0.017013	0.409264	-0.655264	-0.656580	0.002011	22.719	-0.655330	-4.791728E+8	-4.196732E-12	NaN
318	1.000000	0.418586	7.36818e+06	-54539.1	955.817	-29743.6	0.000000	0.000000	6.418925	0.031326	NaN	0.000000	0.001609	0.001663	28.0804	0.065714	0.001981	33.1744	73.629	-167.219	0.031132	0.417240	-0.647257	-0.648603	0.031326	33.1744	-0.647965	-3.797848E+8	-8.248404E-11	NaN
318	1.000000	0.426598	7.36818e+06	-54539.1	955.818	-29743.6	0.000000	0.000000	6.426934	-0.023434	NaN	0.000000	0.001616	0.001674	28.0806	0.099720	0.001990	50.1085	136.291	-161.829	-0.102645	0.425301	-0.639245	-0.640542	-0.023434	50.1085	-0.638894	-2.851806E+8	8.217414E-11	NaN
318	1.000000	0.434553	7.36818e+06	-54539.1	955.818	-29743.6	0.000000	0.000000	6.434892	0.043711	NaN	0.000000	0.001606	0.001645	28.0806	0.029865	0.002062	14.4805	153.41	-164.522	0.045234	0.433230	-0.631290	-0.632613	0.043711	14.4805	-0.633554	-2.408951E+8	-1.814539E-10	NaN
318	1.000000	0.442566	7.36818e+06	-54539.1	955.818	-29743.6	0.000000	0.000000	6.442901	-0.057293	NaN	0.000000	0.001609	0.001645	28.0807	0.025970	0.001922	13.5115	130.961	-169.022	-0.012726	0.441294	-0.623277	-0.624549	-0.057293	13.5115	-0.620097	-1.573865E+8	3.640242E-10	NaN
318	1.000000	0.450586	7.36818e+06	-54539.1	955.818	-29743.6	0.000000	0.000000	6.450923	0.012556	NaN	0.000000	0.001598	0.001662	28.0804	0.136237	0.001947	69.9594	41.3536	-166.086	-0.022247	0.449295	-0.615258	-0.616548	0.012556	69.9594	-0.615392	-1.356077E+8	-9.258693E-11	NaN
318	1.000000	0.458591	7.36818e+06	-54539.1	955.818	-29743.6	0.000000	0.000000	6.458928	-0.018641	NaN	0.000000	0.001605	0.001638	28.0806	0.069616	0.001980	35.1634	-28.9871	-165.625	-0.020913	0.457220	-0.607252	-0.608624	-0.018641	35.1634	-0.606854	-1.034728E+8	1.801539E-10	NaN
318	1.000000	0.466586	7.36818e+06	-54539.1	955.817	-29743.6	0.000000	0.000000	6.466926	0.064784	NaN	0.000000	0.001613	0.001658	28.0805	0.024757	0.001974	12.54	91.9442	-168.231	0.024582	0.465264	-0.599257	-0.600580	0.064784	12.54	-0.603132	-9.195771E+7	-7.045000E-10	NaN
318	1.000000	0.474593	7.36818e+06	-54539.1	955.818	-29743.6	0.000000	0.000000	6.474930	-0.005596	NaN	0.000000	0.001623	0.001689	28.0802	0.064455	0.002024	31.8449	144.29	-164.693	-0.008462	0.473286	-0.591250	-0.592558	-0.005596	31.8449	-0.591118	-6.281773E+7	8.908705E-11	NaN
318	1.000000	0.482586	7.36818e+06	-54539.1	955.818	-29743.6	0.000000	0.000000	6.482923	-0.001164	NaN	0.000000	0.001585	0.001670	28.0804	0.137940	0.002080	66.3074	-148.767	-162.45	-0.050567	0.481270	-0.583257	-0.584574	-0.001164	66.3074	-0.583244	-4.892030E+7	2.378687E-11	NaN
318	1.000000	0.490597	7.36818e+06	-54539.1	955.818	-29743.6	0.000000	0.000000	6.490936	0.050633	NaN	0.000000	0.001591	0.001678	28.0801	0.115315	0.002008	57.4403	2.327170	-169.792	0.017075	0.489333	-0.575246	-0.576511	0.050633	57.4403	-0.575907	-3.874573E+7	-1.306791E-9	NaN
318	1.000000	0.498642	7.36818e+06	-54539.1	955.818	-29743.6	0.000000	0.000000	6.498977	-0.049364	NaN	0.000000	0.001571	0.001662	28.0804	0.066162	0.002033	32.5502	103.214	-168.002	0.000212	0.497274	-0.567202	-0.568569	-0.049364	32.5502	-0.566064	-2.832936E+7	1.742500E-9	NaN
318	1.000000	0.506593	7.36818e+06	-54539.1	955.818	-29743.6	0.000000	0.000000	6.506929	-0.014700	NaN	0.000000	0.001589	0.001680	28.0804	0.049112	0.002202	22.3031	-12.6617	-167.711	0.002642	0.505270	-0.559250	-0.560573	-0.014700	22.3031	-0.558756	-2.244751E+7	6.548488E-10	NaN
318	1.000000	0.514608	7.36818e+06	-54539.1	955.82	-29743.6	0.000000	0.000000	6.514944	-0.028058	NaN	0.000000	0.001603	0.001679	28.0804	0.116092	0.002023	57.3987	76.956	-166.915	-0.035784	0.513287	-0.551235	-0.552557	-0.028058	57.3987	-0.550869	-1.745761E+7	1.607214E-9	NaN
318	1.000000	0.522635	7.36818e+06	-54539.1	955.818	-29743.6	0.000000	0.000000	6.522972	0.018124	NaN	0.000000	0.001582	0.001678	28.0805	0.077524	0.001981	39.1355	-158.297	-165.172	-0.034717	0.521304	-0.543209	-0.544539	0.018124	39.1355	-0.543556	-1.382500E+7	-1.310985E-9	NaN
318	1.000000	0.530638	7.36818e+06	-54539.1	955.818	-29743.6	0.000000	0.000000	6.530974	-0.025400	NaN	0.000000	0.001568	0.001704	28.0802	0.088223	0.002016	43.766	-82.1416	-166.868	0.003118	0.529304	-0.535205	-0.536539	-0.025400	43.766	-0.534770	-1.044231E+7	2.432391E-9	NaN
318	1.000000	0.538616	7.36818e+06	-54539.1	955.818	-29743.6	0.000000	0.000000	6.538954	0.011457	NaN	0.000000	0.001579	0.001666	28.0806	0.128743	0.001986	64.8114	-169.998	-169.882	-0.053426	0.537334	-0.527227	-0.528509	0.011457	64.8114	-0.527360	-8.23946e+06	-1.390470E-9	NaN
318	1.000000	0.546616	7.36818e+06	-54539.1	955.819	-29743.6	0.000000	0.000000	6.546953	-0.007152	NaN	0.000000	0.001573	0.001660	28.0802	0.125677	0.001936	64.9122	9.621995	-165.537	0.112034	0.545256	-0.519227	-0.520588	-0.007152	64.9122	-0.519145	-6.33437e+06	1.129121E-9	NaN
318	1.000000	0.554649	7.36818e+06	-54539.1	955.818	-29743.6	0.000000	0.000000	6.554987	0.041613	NaN	0.000000	0.001607	0.001664	28.0795	0.063771	0.002069	30.8233	-162.426	-163.91	0.064956	0.553344	-0.511195	-0.512499	0.041613	30.8233	-0.512207	-5.07171e+06	-8.204839E-9	NaN
318	1.000000	0.562633	7.36818e+06	-54539.1	955.819	-29743.6	0.000000	0.000000	6.562972	0.051249	NaN	0.000000	0.001592	0.001675	28.0789	0.022564	0.001959	11.5158	-153.417	-167.345	0.053497	0.561310	-0.503210	-0.504533	0.051249	11.5158	-0.506548	-4.2298e+06	-1.211629E-8	NaN
318	1.000000	0.570627	7.36818e+06	-54539.1	955.818	-29743.6	0.000000	0.000000	6.570966	0.070999	NaN	0.000000	0.001592	0.001647	28.0793	0.045399	0.001961	23.1523	-30.3487	-166.481	-0.012577	0.569333	-0.495217	-0.496510	0.070999	23.1523	-0.497517	-3.16495e+06	-2.243293E-8	NaN
318	1.000000	0.578633	7.36818e+06	-54539.1	955.819	-29743.6	0.000000	0.000000	6.578968	-0.046353	NaN	0.000000	0.001569	0.001632	28.0792	0.082779	0.002006	41.2627	65.091	-165.445	-0.062905	0.577375	-0.487210	-0.488469	-0.046353	41.2627	-0.486367	-2.21113e+06	2.096340E-8	NaN
318	1.000000	0.586638	7.36818e+06	-54539.1	955.818	-29743.6	0.000000	0.000000	6.586973	-0.033896	NaN	0.000000	0.001562	0.001659	28.0788	0.096531	0.002066	46.7124	-148.755	-168.461	0.001915	0.585373	-0.479206	-0.480471	-0.033896	46.7124	-0.478661	-1.72499e+06	1.965009E-8	NaN
318	1.000000	0.594642	7.36818e+06	-54539.1	955.818	-29743.6	0.000000	0.000000	6.594980	0.023990	NaN	0.000000	0.001571	0.001661	28.0794	0.059337	0.001919	30.9143	-150.253	-168.823	-0.012342	0.593313	-0.471202	-0.472530	0.023990	30.9143	-0.471784	-1.38172e+06	-1.736213E-8	NaN
318	1.000000	0.602671	7.36818e+06	-54539.1	955.818	-29743.6	0.000000	0.000000	6.603004	-0.111894	NaN	0.000000	0.001592	0.001704	28.0788	0.050799	0.001980	25.6617	-124.243	-165.058	-0.071669	0.601366	-0.463172	-0.464477	-0.111894	25.6617	-0.459902	-941106	1.188959E-7	NaN
318	1.000000	0.610675	7.36818e+06	-54539.1	955.819	-29743.6	0.000000	0.000000	6.611013	0.020790	NaN	0.000000	0.001602	0.001689	28.079	0.010900	0.001962	5.556034	59.4482	-162.223	0.034070	0.609333	-0.455168	-0.456510	0.020790	5.556034	-0.457975	-884205	-2.351222E-8	NaN
318	1.000000	0.618659	7.36818e+06	-54539.1	955.818	-29743.6	0.000000	0.000000	6.618995	-0.020586	NaN	0.000000	0.001587	0.001693	28.0789	0.101057	0.001862	54.2748	115.724	-168.958	0.081186	0.617367	-0.447184	-0.448476	-0.020586	54.2748	-0.446900	-617548	3.333442E-8	NaN
318	1.000000	0.626650	7.36818e+06	-54539.1	955.819	-29743.6	0.000000	0.000000	6.626988	0.025189	NaN	0.000000	0.001587	0.001719	28.0788	0.087831	0.002022	43.4317	-62.4438	-170.206	-0.016637	0.625325	-0.439193	-0.440518	0.025189	43.4317	-0.439628	-487661	-5.165172E-8	NaN
318	1.000000	0.634664	7.36818e+06	-54539.1	955.818	-29743.6	0.000000	0.000000	6.635000	-0.008929	NaN	0.000000	0.001635	0.001672	28.079	0.019956	0.001947	10.252	-56.3166	-165.221	0.004661	0.633361	-0.431180	-0.432482	-0.008929	10.252	-0.430526	-362667	2.462026E-8	NaN
318	1.000000	0.642662	7.36818e+06	-54539.1	955.819	-29743.6	0.000000	0.000000	6.642998	-0.023901	NaN	0.000000	0.001679	0.001641	28.079	0.193927	0.001968	98.529	-178.941	-166.233	-0.079010	0.641345	-0.423182	-0.424499	-0.023901	98.529	-0.423000	-283755	8.423229E-8	NaN
318	1.000000	0.650657	7.36818e+06	-54539.1	955.818	-29743.6	0.000000	0.000000	6.650993	-0.012349	NaN	0.000000	0.001713	0.001627	28.0792	0.110436	0.002133	51.7649	40.7883	-162.582	-0.068570	0.649360	-0.415187	-0.416483	-0.012349	51.7649	-0.415008	-218558	5.650357E-8	NaN
318	1.000000	0.658656	7.36818e+06	-54539.1	955.819	-29743.6	0.000000	0.000000	6.658993	-0.005159	NaN	0.000000	0.001710	0.001625	28.0788	0.041154	0.002011	20.4671	160.659	-169.113	-0.027815	0.657357	-0.407187	-0.408486	-0.005159	20.4671	-0.406998	-168151	3.068359E-8	NaN
318	1.000000	0.666688	7.36818e+06	-54539.1	955.819	-29743.6	0.000000	0.000000	6.667026	0.020424	NaN	0.000000	0.001684	0.001612	28.0788	0.132517	0.001978	66.9976	163.824	-168.581	-0.061711	0.665325	-0.399155	-0.400518	0.020424	66.9976	-0.399384	-130981	-1.559318E-7	NaN
318	1.000000	0.674675	7.36818e+06	-54539.1	955.819	-29743.6	0.000000	0.000000	6.675012	0.012125	NaN	0.000000	0.001688	0.001628	28.0788	0.094685	0.002099	45.1168	-22.6469	-166.9	0.082923	0.673364	-0.391169	-0.392479	0.012125	45.1168	-0.391370	-100638	-1.204823E-7	NaN
318	1.000000	0.682677	7.36818e+06	-54539.1	955.818	-29743.6	0.000000	0.000000	6.683014	0.008005	NaN	0.000000	0.001669	0.001611	28.0788	0.138716	0.001958	70.8437	11.9265	-168.813	-0.066634	0.681395	-0.383167	-0.384449	0.008005	70.8437	-0.383252	-77006.7	-1.039466E-7	NaN
318	1.000000	0.690697	7.36818e+06	-54539.1	955.819	-29743.6	0.000000	0.000000	6.691031	-0.068468	NaN	0.000000	0.001648	0.001636	28.0801	0.110013	0.001919	57.315	58.9905	-166.416	-0.035018	0.689360	-0.375146	-0.376484	-0.068468	57.315	-0.374250	-57186.6	1.197268E-6	NaN
318	1.000000	0.698687	7.36818e+06	-54539.1	955.818	-29743.6	0.000000	0.000000	6.699026	0.034325	NaN	0.000000	0.001690	0.001647	28.0802	0.146111	0.002022	72.2731	126.366	-164.746	-0.019719	0.697404	-0.367156	-0.368440	0.034325	72.2731	-0.367512	-45738.5	-7.504519E-7	NaN
318	1.000000	0.706722	7.36818e+06	-54539.1	955.818	-29743.7	0.000000	0.000000	6.707059	-0.011992	NaN	0.000000	0.001715	0.001610	28.08	0.026881	0.001883	14.2793	7.104197	-161.871	0.004885	0.705366	-0.359121	-0.360478	-0.011992	14.2793	-0.358491	-33886.7	3.538949E-7	NaN
318	1.000000	0.714708	7.36818e+06	-54539.1	955.818	-29743.7	0.000000	0.000000	6.715047	0.052613	NaN	0.000000	0.001689	0.001572	28.08	0.015698	0.002026	7.747077	-135.189	-167.001	0.017427	0.713414	-0.351136	-0.352430	0.052613	7.747077	-0.356229	-31426.4	-1.674166E-6	NaN
318	1.000000	0.722687	7.36818e+06	-54539.1	955.818	-29743.7	0.000000	0.000000	6.723027	0.059634	NaN	0.000000	0.001734	0.001602	28.0801	0.044035	0.002032	21.6719	-90.5477	-167.059	-0.003591	0.721401	-0.343156	-0.344442	0.059634	21.6719	-0.345220	-21754.8	-2.741196E-6	NaN
318	1.000000	0.730698	7.36818e+06	-54539.1	955.818	-29743.7	0.000000	0.000000	6.731036	0.020762	NaN	0.000000	0.001712	0.001559	28.0803	0.086447	0.001981	43.6446	-37.5098	-168.105	-0.004156	0.729443	-0.335146	-0.336400	0.020762	43.6446	-0.335502	-15700.9	-1.322357E-6	NaN
318	1.000000	0.738672	7.36818e+06	-54539.1	955.819	-29743.7	0.000000	0.000000	6.739009	0.000752	NaN	0.000000	0.001705	0.001597	28.0805	0.099960	0.001976	50.5932	-95.6798	-167.911	-0.041874	0.737394	-0.327172	-0.328449	0.000752	50.5932	-0.327183	-11862.2	-6.338171E-8	NaN
318	1.000000	0.746697	7.36818e+06	-54539.1	955.819	-29743.7	0.000000	0.000000	6.747034	-0.004503	NaN	0.000000	0.001731	0.001643	28.0806	0.114839	0.001916	59.9249	177.102	-167.569	-0.009757	0.745385	-0.319146	-0.320459	-0.004503	59.9249	-0.319090	-9020.65	4.991404E-7	NaN
318	1.000000	0.754685	7.36818e+06	-54539.1	955.819	-29743.7	0.000000	0.000000	6.755020	-0.045202	NaN	0.000000	0.001710	0.001618	28.0803	0.060364	0.002031	29.7193	43.43	-164.738	-0.073735	0.753395	-0.311159	-0.312448	-0.045202	29.7193	-0.310018	-6627.07	6.820814E-6	NaN
318	1.000000	0.762725	7.36818e+06	-54539.1	955.817	-29743.7	0.000000	0.000000	6.763062	0.007947	NaN	0.000000	0.001690	0.001620	28.0802	0.005602	0.002021	2.772082	-134.879	-168.388	-0.006732	0.761361	-0.303118	-0.304482	0.007947	2.772082	-0.305268	-5635.59	-1.410077E-6	NaN
318	1.000000	0.770714	7.36818e+06	-54539.1	955.819	-29743.7	0.000000	0.000000	6.771054	0.076539	NaN	0.000000	0.001715	0.001636	28.0804	0.086847	0.002095	41.4472	-128.211	-168.179	0.084744	0.769401	-0.295129	-0.296442	0.076539	41.4472	-0.296514	-4175.3	-1.833139E-5	NaN
318	1.000000	0.778732	7.36818e+06	-54539.1	955.818	-29743.7	0.000000	0.000000	6.779068	-0.034980	NaN	0.000000	0.001673	0.001649	28.0802	0.079947	0.001978	40.4191	172.267	-169.715	0.018165	0.777472	-0.287111	-0.288371	-0.034980	40.4191	-0.286462	-2952.79	1.184632E-5	NaN
318	1.000000	0.786739	7.36818e+06	-54539.1	955.818	-29743.7	0.000000	0.000000	6.787078	0.049145	NaN	0.000000	0.001654	0.001650	28.0808	0.090235	0.002073	43.5265	-46.8567	-163.833	0.004050	0.785366	-0.279104	-0.280477	0.049145	43.5265	-0.279951	-2356.31	-2.085654E-5	NaN
318	1.000000	0.794733	7.36818e+06	-54539.1	955.818	-29743.7	0.000000	0.000000	6.795070	0.016514	NaN	0.000000	0.001669	0.001617	28.0802	0.077231	0.001970	39.1943	-66.7534	-163.329	0.024933	0.793404	-0.271111	-0.272440	0.016514	39.1943	-0.271427	-1750.73	-9.432525E-6	NaN
318	1.000000	0.802733	7.36818e+06	-54539.1	955.818	-29743.7	0.000000	0.000000	6.803068	-0.052471	NaN	0.000000	0.001661	0.001633	28.0804	0.073201	0.002040	35.8887	39.325	-166.577	-0.014963	0.801412	-0.263110	-0.264432	-0.052471	35.8887	-0.262013	-1258.2	4.170310E-5	NaN
318	1.000000	0.810746	7.36818e+06	-54539.1	955.819	-29743.7	0.000000	0.000000	6.811082	-0.026554	NaN	0.000000	0.001680	0.001600	28.0803	0.191157	0.001995	95.8012	-154.689	-165.415	0.058155	0.809424	-0.255097	-0.256419	-0.026554	95.8012	-0.254889	-978.168	2.714669E-5	NaN
318	1.000000	0.818734	7.36818e+06	-54539.1	955.819	-29743.7	0.000000	0.000000	6.819075	0.094181	NaN	0.000000	0.001639	0.001591	28.0803	0.094664	0.001868	50.672	-130.34	-164.794	0.064427	0.817431	-0.247109	-0.248413	0.094181	50.672	-0.248503	-779.472	-0.000121	NaN
318	1.000000	0.826727	7.36818e+06	-54539.1	955.818	-29743.7	0.000000	0.000000	6.827061	-0.053659	NaN	0.000000	0.001674	0.001618	28.0797	0.016552	0.001935	8.551652	133.646	-164.64	0.034795	0.825399	-0.239117	-0.240444	-0.053659	8.551652	-0.234411	-469.886	0.000114	NaN
318	1.000000	0.834726	7.36818e+06	-54539.1	955.819	-29743.7	0.000000	0.000000	6.835065	0.045377	NaN	0.000000	0.001693	0.001619	28.0791	0.053692	0.002013	26.6734	-122.301	-166.92	0.056029	0.833423	-0.231118	-0.232420	0.045377	26.6734	-0.232394	-436.778	-0.000104	NaN
318	1.000000	0.842738	7.36818e+06	-54539.1	955.818	-29743.7	0.000000	0.000000	6.843074	-0.026927	NaN	0.000000	0.001722	0.001594	28.0797	0.055746	0.001983	28.107	-97.483	-169.349	-0.062506	0.841490	-0.223105	-0.224354	-0.026927	28.107	-0.222387	-303.222	8.880121E-5	NaN
318	1.000000	0.850751	7.36818e+06	-54539.1	955.818	-29743.7	0.000000	0.000000	6.851091	0.075037	NaN	0.000000	0.001729	0.001585	28.0793	0.051216	0.002003	25.5743	-133.125	-169.67	0.040606	0.849442	-0.215092	-0.216401	0.075037	25.5743	-0.217293	-251.383	-0.000298	NaN
318	1.000000	0.858760	7.36818e+06	-54539.1	955.818	-29743.7	0.000000	0.000000	6.859097	-0.000387	NaN	0.000000	0.001737	0.001586	28.0793	0.062087	0.001913	32.4522	-26.5007	-169.379	0.019026	0.857431	-0.207083	-0.208412	-0.000387	32.4522	-0.207074	-171.927	2.251464E-6	NaN
318	1.000000	0.866771	7.36818e+06	-54539.1	955.819	-29743.7	0.000000	0.000000	6.867106	-0.059732	NaN	0.000000	0.001727	0.001590	28.0795	0.136756	0.002001	68.3337	-3.742411	-169.972	-0.024921	0.865496	-0.199072	-0.200347	-0.059732	68.3337	-0.198417	-124.064	0.000481	NaN
318	1.000000	0.874728	7.36818e+06	-54539.1	955.817	-29743.7	0.000000	0.000000	6.875066	0.036985	NaN	0.000000	0.001720	0.001617	28.0793	0.105502	0.001984	53.184	-155.449	-166.493	0.044732	0.873488	-0.191116	-0.192355	0.036985	53.184	-0.191637	-95.7938	-0.000386	NaN
318	1.000000	0.882772	7.36818e+06	-54539.1	955.818	-29743.7	0.000000	0.000000	6.883111	0.049585	NaN	0.000000	0.001729	0.001629	28.0796	0.069329	0.002011	34.4782	-147.97	-170.046	-0.075697	0.881491	-0.183072	-0.184352	0.049585	34.4782	-0.184150	-71.7462	-0.000691	NaN
318	1.000000	0.890761	7.36818e+06	-54539.1	955.819	-29743.7	0.000000	0.000000	6.891098	0.008648	NaN	0.000000	0.001666	0.001615	28.0793	0.040468	0.002169	18.6616	-157.747	-164.477	0.056017	0.889441	-0.175082	-0.176403	0.008648	18.6616	-0.175430	-50.9755	-0.000170	NaN
318	1.000000	0.898742	7.36818e+06	-54539.1	955.819	-29743.7	0.000000	0.000000	6.899078	-0.012270	NaN	0.000000	0.001678	0.001649	28.0793	0.101095	0.001806	55.9628	61.0521	-169.807	-0.134912	0.897457	-0.167102	-0.168386	-0.012270	55.9628	-0.166937	-36.3285	0.000338	NaN
318	1.000000	0.906827	7.36818e+06	-54539.1	955.819	-29743.7	0.000000	0.000000	6.907163	-0.014358	NaN	0.000000	0.001638	0.001601	28.0793	0.091848	0.002158	42.5592	85.9419	-165.338	-0.054405	0.905477	-0.159017	-0.160367	-0.014358	42.5592	-0.158764	-26.0606	0.000551	NaN
318	1.000000	0.914783	7.36818e+06	-54539.1	955.818	-29743.7	0.000000	0.000000	6.915121	0.016218	NaN	0.000000	0.001634	0.001609	28.0793	0.085632	0.002061	41.5478	138.087	-164.735	0.073284	0.913494	-0.151060	-0.152349	0.016218	41.5478	-0.151353	-19.1706	-0.000846	NaN
318	1.000000	0.922780	7.36818e+06	-54539.1	955.818	-29743.7	0.000000	0.000000	6.923118	0.013662	NaN	0.000000	0.001645	0.001587	28.0796	0.050125	0.001952	25.675	-40.0799	-166.103	0.036561	0.921506	-0.143063	-0.144338	0.013662	25.675	-0.143462	-13.7294	-0.000995	NaN
318	1.000000	0.930776	7.36818e+06	-54539.1	955.818	-29743.7	0.000000	0.000000	6.931112	-0.021366	NaN	0.000000	0.001660	0.001595	28.0794	0.048297	0.002030	23.7869	-130.656	-169.269	0.019212	0.929464	-0.135068	-0.136379	-0.021366	23.7869	-0.134394	-9.262084	0.002307	NaN
318	1.000000	0.938822	7.36818e+06	-54539.1	955.819	-29743.7	0.000000	0.000000	6.939156	-0.076792	NaN	0.000000	0.001630	0.001629	28.0795	0.090541	0.002060	43.9427	-71.3749	-165.317	-0.034384	0.937470	-0.127021	-0.128373	-0.076792	43.9427	-0.125710	-6.281008	0.012226	NaN
318	1.000000	0.946780	7.36818e+06	-54539.1	955.819	-29743.7	0.000000	0.000000	6.947115	-0.042060	NaN	0.000000	0.001606	0.001580	28.0794	0.103160	0.001833	56.2892	-66.0601	-163.307	-0.016045	0.945465	-0.119064	-0.120378	-0.042060	56.2892	-0.118503	-4.505910	0.009334	NaN
318	1.000000	0.954773	7.36818e+06	-54539.1	955.819	-29743.7	0.000000	0.000000	6.955110	-0.015246	NaN	0.000000	0.001631	0.001640	28.079	0.133430	0.002083	64.0463	-87.4963	-167.596	0.040826	0.953421	-0.111070	-0.112422	-0.015246	64.0463	-0.110891	-3.137834	0.004859	NaN
318	1.000000	0.962810	7.36818e+06	-54539.1	955.819	-29743.7	0.000000	0.000000	6.963142	-0.106257	NaN	0.000000	0.001621	0.001629	28.0794	0.054773	0.001968	27.8285	40.3006	-162.196	-0.025525	0.961505	-0.103034	-0.104338	-0.106257	27.8285	-0.100170	-1.843061	0.057652	NaN
318	1.000000	0.970807	7.36818e+06	-54539.1	955.819	-29743.7	0.000000	0.000000	6.971143	-0.039464	NaN	0.000000	0.001659	0.001612	28.0806	0.084319	0.002019	41.7636	85.8867	-168.648	-0.029981	0.969496	-0.095036	-0.096347	-0.039464	41.7636	-0.094327	-1.361623	0.028983	NaN
318	1.000000	0.978801	7.36818e+06	-54539.1	955.819	-29743.7	0.000000	0.000000	6.979138	0.008026	NaN	0.000000	0.001621	0.001611	28.0804	0.130288	0.002127	61.2572	67.3787	-167.098	0.004458	0.977510	-0.087042	-0.088334	0.008026	61.2572	-0.087141	-0.925000	-0.008677	NaN
318	1.000000	0.986804	7.36818e+06	-54539.1	955.82	-29743.7	0.000000	0.000000	6.987141	-0.011622	NaN	0.000000	0.001602	0.001638	28.0806	0.015301	0.002053	7.454283	33.0439	-164.752	0.023624	0.985463	-0.079039	-0.080381	-0.011622	7.454283	-0.077870	-0.547066	0.021244	NaN
318	1.000000	0.994814	7.36818e+06	-54539.1	955.819	-29743.7	0.000000	0.000000	6.995151	-0.021162	NaN	0.000000	0.001636	0.001590	28.0805	0.019165	0.001964	9.760202	24.2675	-165.843	-0.022480	0.993501	-0.071029	-0.072342	-0.021162	9.760202	-0.069403	-0.328745	0.064371	NaN
318	1.000000	1.002809	7.36818e+06	-54539.1	955.819	-29743.7	0.000000	0.000000	7.003146	0.012975	NaN	0.000000	0.001618	0.001601	28.0803	0.062254	0.002043	30.474	1.818660	-165.342	0.067824	1.001478	-0.063035	-0.064365	0.012975	30.474	-0.063354	-0.224210	-0.057868	NaN
318	1.000000	1.010778	7.36818e+06	-54539.1	955.819	-29743.7	0.000000	0.000000	7.011116	0.034094	NaN	0.000000	0.001635	0.001642	28.0804	0.057754	0.002108	27.3918	42.0907	-164.588	0.047799	1.009456	-0.055065	-0.056388	0.034094	27.3918	-0.055999	-0.137810	-0.247398	NaN
318	1.000000	1.018830	7.36818e+06	-54539.1	955.819	-29743.7	0.000000	0.000000	7.019170	0.059573	NaN	0.000000	0.001608	0.001634	28.0806	0.012635	0.001902	6.643772	94.4633	-164.229	0.021249	1.017475	-0.047013	-0.048368	0.059573	6.643772	-0.053738	-0.118146	-0.504237	NaN
318	1.000000	1.026852	7.36818e+06	-54539.1	955.82	-29743.7	0.000000	0.000000	7.027187	-0.052212	NaN	0.000000	0.001591	0.001653	28.0805	0.105050	0.001841	57.0469	-117.827	-165.405	-0.065597	1.025526	-0.038991	-0.040318	-0.052212	57.0469	-0.038305	-0.040183	1.299343	NaN
318	1.000000	1.034840	7.36818e+06	-54539.1	955.819	-29743.7	0.000000	0.000000	7.035179	0.043911	NaN	0.000000	0.001591	0.001624	28.0806	0.121650	0.002019	60.2593	-121.866	-164.999	0.034002	1.033536	-0.031003	-0.032308	0.043911	60.2593	-0.031550	-0.025444	-1.725822	NaN
318	1.000000	1.042847	7.36818e+06	-54539.1	955.818	-29743.7	0.000000	0.000000	7.043186	0.029628	NaN	0.000000	0.001582	0.001640	28.0801	0.065268	0.002113	30.8846	-49.5176	-164.557	0.078545	1.041538	-0.022996	-0.024306	0.029628	30.8846	-0.023715	-0.015624	-1.896317	NaN
318	1.000000	1.050819	7.36818e+06	-54539.1	955.819	-29743.7	0.000000	0.000000	7.051156	-0.005938	NaN	0.000000	0.001606	0.001601	28.0807	0.064987	0.002117	30.6908	-29.2692	-167.645	-0.029179	1.049508	-0.015024	-0.016335	-0.005938	30.6908	-0.014879	-0.009203	0.645254	NaN
318	1.000000	1.058827	7.36818e+06	-54539.1	955.819	-29743.7	0.000000	0.000000	7.059166	0.054929	NaN	0.000000	0.001611	0.001687	28.0806	0.014460	0.002053	7.043557	75.9023	-166.642	0.079720	1.057498	-0.007017	-0.008345	0.054929	7.043557	-0.012866	-0.008025	-6.844870	NaN
318	1.000000	1.066820	7.36818e+06	-54539.1	955.82	-29743.7	0.000000	0.000000	7.067213	1.363096	NaN	0.000000	0.001611	0.001693	28.0803	1.971589	0.001994	988.674	14.17	-168.392	0.625584	1.065510	0.000976	-0.000333	1.363096	988.674	-5.768537E-5	-4.306078E-5	-31655.2	NaN
318	2.000000	1.073367	7.36818e+06	-54539.1	955.818	-29743.7	0.000000	0.000000	7.074130	10.3451	NaN	0.000000	0.001606	0.001703	28.0805	9.214914	0.001665	5536.01	11.3313	-179.304	10.1904	1.072972	0.007524	0.007129	10.3451	5536.01	0.006122	0.005181	1996.75	70269
318	2.000000	1.075382	7.36818e+06	-54539.1	955.819	-29743.7	0.000000	0.000000	7.076305	14.2425	NaN	0.000000	0.001593	0.001731	28.0804	11.4815	0.001737	6611.26	3.382193	-170.514	13.639	1.075042	0.009539	0.009199	14.2425	6611.26	0.007923	0.006964	2045.26	72383.2
318	2.000000	1.077384	7.36818e+06	-54539.1	955.819	-29743.7	0.000000	0.000000	7.078449	17.7199	NaN	0.000000	0.001588	0.001707	28.0807	13.3679	0.001746	7654.89	6.750586	-175.063	18.1426	1.077027	0.011540	0.011183	17.7199	7654.89	0.009804	0.008965	1976.64	73866.2
318	2.000000	1.079300	7.36818e+06	-54539.1	955.819	-29743.7	0.000000	0.000000	7.080487	20.6536	NaN	0.000000	0.001572	0.001717	28.0802	15.6566	0.001825	8578.07	6.602847	-176.319	20.0639	1.079021	0.013457	0.013178	20.6536	8578.07	0.011651	0.011075	1864.9	74472
318	2.000000	1.081333	7.36818e+06	-54539.1	955.82	-29743.7	0.000000	0.000000	7.082729	25.7584	NaN	0.000000	0.001548	0.001714	28.0793	17.646	0.001768	9981.85	7.840368	-179.452	24.9227	1.080998	0.015490	0.015154	25.7584	9981.85	0.013554	0.013406	1921.48	78766.7
318	2.000000	1.083282	7.36818e+06	-54539.1	955.82	-29743.7	0.000000	0.000000	7.084782	28.2551	NaN	0.000000	0.001589	0.001692	28.0794	18.9143	0.001672	11311.5	4.646835	-178.578	26.9504	1.083048	0.017439	0.017205	28.2551	11311.5	0.015566	0.016047	1760.77	81582.2
318	2.000000	1.085278	7.36818e+06	-54539.1	955.819	-29743.7	0.000000	0.000000	7.087105	36.2398	NaN	0.000000	0.001591	0.001695	28.0793	22.0501	0.001846	11947.1	8.828338	178.906	35.1958	1.084948	0.019434	0.019104	36.2398	11947.1	0.017159	0.018273	1983.2	80747
318	2.000000	1.087267	7.36818e+06	-54539.1	955.819	-29743.7	0.000000	0.000000	7.089244	39.8602	NaN	0.000000	0.001599	0.001722	28.0795	22.7668	0.001639	13890.9	2.945313	-177.547	37.3459	1.086936	0.021424	0.021092	39.8602	13890.9	0.019272	0.021411	1861.7	86734.1
318	2.000000	1.089275	7.36818e+06	-54539.1	955.82	-29743.7	0.000000	0.000000	7.091406	43.6025	NaN	0.000000	0.001589	0.001711	28.0793	25.4375	0.001912	13307.3	3.071082	-175.713	42.9125	1.088929	0.023432	0.023086	43.6025	13307.3	0.020974	0.024096	1809.51	78322.9
318	2.000000	1.091305	7.36818e+06	-54539.1	955.82	-29743.7	0.000000	0.000000	7.093755	51.3791	NaN	0.000000	0.001596	0.001705	28.0792	28.1352	0.001804	15596.9	8.234549	176.814	50.181	1.090948	0.025461	0.025105	51.3791	15596.9	0.022991	0.027461	1870.96	85990.6
318	2.000000	1.093233	7.36818e+06	-54539.1	955.818	-29743.7	0.000000	0.000000	7.095789	53.9637	NaN	0.000000	0.001594	0.001685	28.0798	28.6407	0.001700	16849.5	4.257513	-179.941	52.4542	1.092950	0.027389	0.027107	53.9637	16849.5	0.024987	0.030992	1741.19	87444.5
318	2.000000	1.095292	7.36818e+06	-54539.1	955.819	-29743.7	0.000000	0.000000	7.098034	58.4556	NaN	0.000000	0.001607	0.001697	28.0794	31.7301	0.001867	16996.4	4.311516	-179.401	57.6413	1.094965	0.029449	0.029121	58.4556	16996.4	0.026869	0.034504	1694.16	83597.7
318	2.000000	1.097289	7.36818e+06	-54539.1	955.82	-29743.7	0.000000	0.000000	7.100313	65.3163	NaN	0.000000	0.001616	0.001716	28.0799	33.4918	0.001859	18019.8	9.158141	175.101	66.9678	1.096963	0.031446	0.031120	65.3163	18019.8	0.028728	0.038148	1712.2	84292.5
318	2.000000	1.099257	7.36818e+06	-54539.1	955.818	-29743.7	0.000000	0.000000	7.102394	68.0526	NaN	0.000000	0.001563	0.001709	28.0795	34.3229	0.001746	19653.8	5.199379	178.129	66.041	1.098957	0.033414	0.033114	68.0526	19653.8	0.030817	0.042455	1602.95	87148.1
318	2.000000	1.101299	7.36818e+06	-54539.1	955.819	-29743.7	0.000000	0.000000	7.104695	74.3571	NaN	0.000000	0.001563	0.001654	28.0794	36.2112	0.001755	20635.4	4.757764	178.748	75.1235	1.100960	0.035456	0.035117	74.3571	20635.4	0.032754	0.046645	1594.12	87294.4
318	2.000000	1.103144	7.36818e+06	-54539.1	955.819	-29743.7	0.000000	0.000000	7.106942	84.1259	NaN	0.000000	0.001569	0.001658	28.0809	37.0462	0.001759	21061.6	2.881337	179.537	78.625	1.102878	0.037301	0.037034	84.1259	21061.6	0.034305	0.050141	1677.79	85934.8
318	2.000000	1.105207	7.36818e+06	-54539.1	955.82	-29743.7	0.000000	0.000000	7.109234	89.6894	NaN	0.000000	0.001575	0.001701	28.0798	39.9669	0.001859	21500.6	5.602750	176.85	86.4059	1.104866	0.039364	0.039022	89.6894	21500.6	0.036235	0.054661	1640.82	84020.2
318	2.000000	1.107228	7.36818e+06	-54539.1	955.819	-29743.7	0.000000	0.000000	7.111400	93.2291	NaN	0.000000	0.001587	0.001679	28.0799	40.9638	0.001651	24813	4.397627	176.052	90.9757	1.106970	0.041385	0.041126	93.2291	24813	0.038567	0.060377	1544.12	92260.6
318	2.000000	1.109297	7.36818e+06	-54539.1	955.819	-29743.7	0.000000	0.000000	7.113720	99.328	NaN	0.000000	0.001600	0.001662	28.0795	42.635	0.001778	23982.2	4.199465	177.893	102.126	1.108902	0.043454	0.043058	99.328	23982.2	0.040347	0.064930	1529.78	85988.6
318	2.000000	1.111325	7.36818e+06	-54539.1	955.819	-29743.7	0.000000	0.000000	7.116105	108.029	NaN	0.000000	0.001644	0.001677	28.0792	45.5886	0.001713	26612.5	7.274757	174.585	110.672	1.110950	0.045481	0.045106	108.029	26612.5	0.042437	0.070477	1532.81	91587
318	2.000000	1.113274	7.36818e+06	-54539.1	955.82	-29743.7	0.000000	0.000000	7.118379	115.925	NaN	0.000000	0.001637	0.001674	28.0801	47.0554	0.001890	24901.5	6.043522	175.709	117.72	1.112944	0.047430	0.047100	115.925	24901.5	0.043939	0.074603	1553.88	83295.2
318	2.000000	1.115226	7.36818e+06	-54539.1	955.82	-29743.7	0.000000	0.000000	7.120470	119.296	NaN	0.000000	0.001628	0.001671	28.0804	49.2319	0.001775	27732.3	3.434455	176.427	117.085	1.115044	0.049383	0.049200	119.296	27732.3	0.046156	0.080904	1474.54	89078.8
318	2.000000	1.117184	7.36818e+06	-54539.1	955.82	-29743.7	0.000000	0.000000	7.123114	135.973	NaN	0.000000	0.001640	0.001637	28.0806	50.2527	0.001831	27439.5	3.253824	177.27	133.102	1.116913	0.051341	0.051069	135.973	27439.5	0.047624	0.085211	1595.73	85881.9
318	2.000000	1.119178	7.36818e+06	-54539.1	955.82	-29743.7	0.000000	0.000000	7.125332	141.43	NaN	0.000000	0.001639	0.001674	28.0805	53.4527	0.001817	29421.8	5.720707	174.007	138.65	1.118873	0.053334	0.053029	141.43	29421.8	0.049729	0.091578	1544.38	88827.6
318	2.000000	1.121292	7.36818e+06	-54539.1	955.82	-29743.7	0.000000	0.000000	7.127822	150.555	NaN	0.000000	0.001624	0.001676	28.0805	55.0199	0.001758	31298.4	8.197396	172.301	150.994	1.120896	0.055448	0.055053	150.555	31298.4	0.051840	0.098187	1533.35	91257.4
318	2.000000	1.123275	7.36818e+06	-54539.1	955.819	-29743.7	0.000000	0.000000	7.130183	159.751	NaN	0.000000	0.001613	0.001671	28.0807	57.0102	0.001758	32423	5.064911	173.912	161.382	1.122888	0.057432	0.057045	159.751	32423	0.053736	0.104311	1531.49	91719.6
318	2.000000	1.125187	7.36818e+06	-54539.1	955.82	-29743.7	0.000000	0.000000	7.132338	165.631	NaN	0.000000	0.001613	0.001659	28.0804	59.6105	0.001867	31930.6	2.319341	176.73	163.62	1.125079	0.059344	0.059235	165.631	31930.6	0.055454	0.110013	1505.56	87954.7
318	2.000000	1.127169	7.36818e+06	-54539.1	955.82	-29743.7	0.000000	0.000000	7.135118	185.044	NaN	0.000000	0.001611	0.001615	28.0805	60.6758	0.001778	34129.3	5.797541	172.668	180.862	1.126813	0.061325	0.060969	185.044	34129.3	0.057259	0.116164	1592.96	91488.4
318	2.000000	1.129170	7.36818e+06	-54539.1	955.82	-29743.7	0.000000	0.000000	7.137331	190.208	NaN	0.000000	0.001613	0.001660	28.0804	63.7864	0.001823	34990.8	5.260009	172.812	188.415	1.128954	0.063327	0.063111	190.208	34990.8	0.059250	0.123132	1544.75	91104.9
318	2.000000	1.131286	7.36818e+06	-54539.1	955.82	-29743.7	0.000000	0.000000	7.140029	204.348	NaN	0.000000	0.001619	0.001620	28.0806	65.2797	0.001635	39936.1	7.682747	170.812	203.871	1.130771	0.065443	0.064927	204.348	39936.1	0.061605	0.131626	1552.49	100570
318	2.000000	1.133144	7.36818e+06	-54539.1	955.821	-29743.7	0.000000	0.000000	7.142491	219.031	NaN	0.000000	0.001621	0.001642	28.0808	66.3044	0.001776	37342.2	1.195641	176.869	215.389	1.132830	0.067301	0.066987	219.031	37342.2	0.062902	0.136419	1605.58	92371.1
318	2.000000	1.135194	7.36818e+06	-54539.1	955.821	-29743.7	0.000000	0.000000	7.145043	231.24	NaN	0.000000	0.001616	0.001664	28.0805	69.6722	0.001659	41998.1	3.910792	173.135	229.135	1.134908	0.069351	0.069065	231.24	41998.1	0.065221	0.145193	1592.64	100700
318	2.000000	1.137179	7.36818e+06	-54539.1	955.819	-29743.7	0.000000	0.000000	7.147688	247.278	NaN	0.000000	0.001629	0.001648	28.0805	71.2568	0.001781	40020.5	5.301300	171.961	243.317	1.136830	0.071336	0.070987	247.278	40020.5	0.066702	0.150930	1638.36	94117
318	2.000000	1.139143	7.36818e+06	-54539.1	955.819	-29743.7	0.000000	0.000000	7.150130	258.92	NaN	0.000000	0.001617	0.001624	28.0807	74.0483	0.001763	41995.2	5.651868	171.901	254.912	1.138728	0.073299	0.072885	258.92	41995.2	0.068675	0.158741	1631.09	96300.3
318	2.000000	1.141204	7.36818e+06	-54539.1	955.82	-29743.7	0.000000	0.000000	7.152777	273.155	NaN	0.000000	0.001597	0.001656	28.0807	75.3882	0.001771	42558.1	2.653950	174.439	271.33	1.140860	0.075361	0.075017	273.155	42558.1	0.070547	0.166320	1642.35	95341.9
318	2.000000	1.143226	7.36818e+06	-54539.1	955.82	-29743.7	0.000000	0.000000	7.155107	280.63	NaN	0.000000	0.001642	0.001643	28.0807	77.7125	0.001753	44340.1	3.344848	173.026	281.396	1.142944	0.077383	0.077101	280.63	44340.1	0.072636	0.174976	1603.82	96845.6
318	2.000000	1.145192	7.36818e+06	-54539.1	955.82	-29743.7	0.000000	0.000000	7.157931	301.475	NaN	0.000000	0.001608	0.001651	28.0807	80.846	0.001745	46325.3	5.796972	170.011	300.433	1.144877	0.079349	0.079034	301.475	46325.3	0.074468	0.182738	1649.77	99009.5
318	2.000000	1.147153	7.36818e+06	-54539.1	955.821	-29743.7	0.000000	0.000000	7.160435	314.704	NaN	0.000000	0.001651	0.001690	28.0809	81.6887	0.001701	48024.5	6.585099	169.655	312.352	1.146850	0.081309	0.081006	314.704	48024.5	0.076395	0.191069	1647.07	100378
318	2.000000	1.149140	7.36818e+06	-54539.1	955.82	-29743.7	0.000000	0.000000	7.163188	333.322	NaN	0.000000	0.001672	0.001692	28.0795	83.3869	0.001823	45746.1	2.496526	173.782	328.06	1.148745	0.083296	0.082902	333.322	45746.1	0.077832	0.197397	1688.59	94071.3
318	2.000000	1.151270	7.36818e+06	-54539.1	955.821	-29743.7	0.000000	0.000000	7.165786	344.699	NaN	0.000000	0.001722	0.001684	28.0795	86.2904	0.001834	47052.9	7.388266	169.898	346.043	1.150806	0.085427	0.084962	344.699	47052.9	0.079932	0.206822	1666.65	94528.1
318	2.000000	1.153221	7.36818e+06	-54539.1	955.822	-29743.7	0.000000	0.000000	7.168433	361.613	NaN	0.000000	0.001689	0.001641	28.0793	87.5911	0.001767	49559.9	5.616379	170.752	362.59	1.152734	0.087378	0.086891	361.613	49559.9	0.081906	0.215862	1675.2	97457.6
318	2.000000	1.155145	7.36818e+06	-54539.1	955.821	-29743.7	0.000000	0.000000	7.170863	373.925	NaN	0.000000	0.001689	0.001672	28.0793	89.8962	0.001786	50346.7	4.309779	172.018	370.26	1.154882	0.089302	0.089039	373.925	50346.7	0.083731	0.224387	1666.43	97105.9
318	2.000000	1.157105	7.36818e+06	-54539.1	955.82	-29743.7	0.000000	0.000000	7.173584	392.429	NaN	0.000000	0.001704	0.001641	28.0793	91.1081	0.001799	50643.8	5.053324	170.749	387.612	1.156776	0.091262	0.090932	392.429	50643.8	0.085450	0.232553	1687.48	95948.5
318	2.000000	1.159051	7.36818e+06	-54539.1	955.82	-29743.7	0.000000	0.000000	7.176092	406.071	NaN	0.000000	0.001679	0.001648	28.0794	95.1189	0.001909	49836.5	5.766881	169.544	400.361	1.158943	0.093208	0.093099	406.071	49836.5	0.087097	0.240505	1688.41	92844.9
318	2.000000	1.161143	7.36818e+06	-54539.1	955.819	-29743.7	0.000000	0.000000	7.179058	427.328	NaN	0.000000	0.001706	0.001661	28.0794	96.9824	0.001787	54268.1	8.114921	167.277	423.365	1.160856	0.095299	0.095013	427.328	54268.1	0.089394	0.251806	1697.05	98806.3
318	2.000000	1.163118	7.36818e+06	-54539.1	955.82	-29743.7	0.000000	0.000000	7.181671	442.819	NaN	0.000000	0.001682	0.001655	28.0794	97.3102	0.001783	54562.6	3.858931	171.068	438.432	1.162760	0.097275	0.096917	442.819	54562.6	0.091188	0.260803	1697.91	97613.8
318	2.000000	1.165153	7.36818e+06	-54539.1	955.82	-29743.7	0.000000	0.000000	7.184522	462.66	NaN	0.000000	0.001697	0.001650	28.0793	100.885	0.001862	54181.6	7.337222	168.294	459.267	1.164826	0.099310	0.098983	462.66	54181.6	0.092906	0.269552	1716.4	95346.3
318	2.000000	1.167183	7.36818e+06	-54539.1	955.819	-29743.7	0.000000	0.000000	7.187224	478.992	NaN	0.000000	0.001723	0.001658	28.0793	101.494	0.001804	56270.8	7.812954	166.962	478.975	1.166708	0.101340	0.100865	478.992	56270.8	0.094956	0.280173	1709.63	97127.7
318	2.000000	1.169055	7.36818e+06	-54539.1	955.82	-29743.7	0.000000	0.000000	7.189603	491.341	NaN	0.000000	0.001711	0.001684	28.0791	103.264	0.001785	57861.1	4.348804	170.77	483.984	1.168775	0.103212	0.102932	491.341	57861.1	0.096843	0.290120	1693.58	98145.7
318	2.000000	1.171105	7.36818e+06	-54539.1	955.821	-29743.7	0.000000	0.000000	7.192627	515.019	NaN	0.000000	0.001696	0.001656	28.0794	105.29	0.001785	58993.3	3.087466	171.748	510.232	1.170805	0.105261	0.104961	515.019	58993.3	0.098714	0.300138	1715.94	98381.9