File: remote_trans/data/nanoindenter/0828-1/data/Data_2025-08-06,11h17m57s/2025-07-22_16-23-58_1_75.txt
2025-07-22, 16:23:58, 1
Index	Phase	Displacement	Time	Pos X	Pos Y	Pos Z	Rot A	Rot B	Piezo Z	Force A	Force B	Gripper	Voltage A	Voltage B	Temperature	Amplitude force	Amplitude pos	Stiffness	Phase shift	Phase excitation	Force A raw	Displacement raw	HMax	HMax raw	Real Force	Real Stiffness	Contact Depth	Area	Hardness	Reduced Mod.
[#]	[#]	[um]	[s]	[um]	[um]	[um]	[m°]	[m°]	[um]	[uN]	[uN]	[V]	[V]	[V]	[°C]	[uN]	[um]	[N/m]	[°]	[°]	[uN]	[um]	[um]	[um]	[uN]	[N/m]	[um]	[um^2]	[MPa]	[MPa]
75	1.000000	0.002601	7.36578e+06	-42389.1	955.818	-29783.3	0.000000	0.000000	6.002805	0.038308	NaN	0.000000	0.001613	0.001609	28.1295	0.142263	0.001049	135.594	-84.8967	-158.109	-0.026695	0.001375	-1.149845	-1.151070	0.038308	135.594	-1.150056	-2.352757E+15	-1.628224E-17	NaN
75	1.000000	0.012694	7.36578e+06	-42389.1	955.818	-29783.3	0.000000	0.000000	6.012897	-0.012895	NaN	0.000000	0.001593	0.001627	28.1063	0.074298	0.001325	56.0931	17.4482	22.272	-0.020963	0.011213	-1.139751	-1.141232	-0.012895	56.0931	-1.139579	-1.702501E+15	7.573986E-18	NaN
75	1.000000	0.022571	7.36578e+06	-42389.1	955.818	-29783.3	0.000000	0.000000	6.022773	-0.028396	NaN	0.000000	0.001628	0.001605	28.0806	0.065328	0.001753	37.2681	-142.874	-165.589	-0.064970	0.021313	-1.129874	-1.131132	-0.028396	37.2681	-1.129303	-1.239565E+15	2.290818E-17	NaN
75	1.000000	0.032557	7.36578e+06	-42389.1	955.819	-29783.3	0.000000	0.000000	6.032763	0.046511	NaN	0.000000	0.001598	0.001655	28.0936	0.056545	0.002027	27.8969	75.2949	16.5206	0.032067	0.031186	-1.119888	-1.121259	0.046511	27.8969	-1.121138	-9.632601E+14	-4.828509E-17	NaN
75	1.000000	0.042541	7.36578e+06	-42389.1	955.818	-29783.3	0.000000	0.000000	6.042747	0.058055	NaN	0.000000	0.001648	0.001648	28.1309	0.108820	0.001832	59.3972	-35.4785	-167.239	0.079401	0.041250	-1.109904	-1.111196	0.058055	59.3972	-1.110637	-6.963660E+14	-8.336850E-17	NaN
75	1.000000	0.052610	7.36578e+06	-42389.1	955.818	-29783.3	0.000000	0.000000	6.052815	0.044867	NaN	0.000000	0.001638	0.001641	28.1079	0.089457	0.001926	46.4571	169.098	13.3442	-0.021754	0.051144	-1.099835	-1.101301	0.044867	46.4571	-1.100560	-5.100147E+14	-8.797241E-17	NaN
75	1.000000	0.062533	7.36578e+06	-42389.1	955.818	-29783.3	0.000000	0.000000	6.062735	-0.027062	NaN	0.000000	0.001600	0.001619	28.0821	0.035192	0.002008	17.5276	-169.853	-163.58	0.032766	0.061281	-1.089912	-1.091164	-0.027062	17.5276	-1.088754	-3.540680E+14	7.643076E-17	NaN
75	1.000000	0.072554	7.36578e+06	-42389.1	955.819	-29783.3	0.000000	0.000000	6.072758	0.019858	NaN	0.000000	0.001613	0.001624	28.0901	0.036285	0.001948	18.6256	-105.069	15.2714	-0.034216	0.071140	-1.079891	-1.081305	0.019858	18.6256	-1.080691	-2.759314E+14	-7.196873E-17	NaN
75	1.000000	0.082549	7.36578e+06	-42389.1	955.818	-29783.3	0.000000	0.000000	6.082753	0.012724	NaN	0.000000	0.001588	0.001599	28.1284	0.042396	0.001985	21.3582	-114.307	-165.485	-0.053415	0.081233	-1.069896	-1.071213	0.012724	21.3582	-1.070343	-2.003525E+14	-6.350720E-17	NaN
75	1.000000	0.092571	7.36578e+06	-42389.1	955.819	-29783.3	0.000000	0.000000	6.092775	0.009882	NaN	0.000000	0.001623	0.001645	28.1061	0.040024	0.001912	20.9332	132.216	16.2581	-0.052986	0.091212	-1.059874	-1.061233	0.009882	20.9332	-1.060228	-1.465172E+14	-6.744703E-17	NaN
75	1.000000	0.102578	7.36578e+06	-42389.1	955.819	-29783.3	0.000000	0.000000	6.102781	-0.001685	NaN	0.000000	0.001604	0.001633	28.0805	0.022178	0.002064	10.7464	-21.8028	-162.64	0.045078	0.101224	-1.049868	-1.051221	-0.001685	10.7464	-1.049750	-1.059389E+14	1.590211E-17	NaN
75	1.000000	0.112571	7.36578e+06	-42389.1	955.819	-29783.3	0.000000	0.000000	6.112775	-0.000323	NaN	0.000000	0.001623	0.001623	28.0908	0.099102	0.001952	50.7641	-153.088	13.2733	-0.008066	0.111243	-1.039874	-1.041202	-0.000323	50.7641	-1.039869	-7.802039E+13	4.137618E-18	NaN
75	1.000000	0.122551	7.36578e+06	-42389.1	955.819	-29783.3	0.000000	0.000000	6.122755	0.005482	NaN	0.000000	0.001622	0.001626	28.1293	0.069778	0.001824	38.2586	-87.6242	-164.421	0.078623	0.121262	-1.029894	-1.031183	0.005482	38.2586	-1.030001	-5.747750E+13	-9.538125E-17	NaN
75	1.000000	0.132611	7.36578e+06	-42389.1	955.818	-29783.3	0.000000	0.000000	6.132814	0.000117	NaN	0.000000	0.001606	0.001665	28.1063	0.080094	0.001934	41.417	48.2786	14.9877	-0.005502	0.131244	-1.019835	-1.021201	0.000117	41.417	-1.019837	-4.195228E+13	-2.779556E-18	NaN
75	1.000000	0.142572	7.36578e+06	-42389.1	955.819	-29783.3	0.000000	0.000000	6.142773	-0.048401	NaN	0.000000	0.001602	0.001673	28.0816	0.089862	0.001978	45.4301	153.471	-169.139	-0.003898	0.141258	-1.009874	-1.011187	-0.048401	45.4301	-1.009075	-3.005564E+13	1.610377E-15	NaN
75	1.000000	0.152572	7.36578e+06	-42389.1	955.818	-29783.3	0.000000	0.000000	6.152777	0.039703	NaN	0.000000	0.001614	0.001690	28.0892	0.096086	0.002091	45.9431	-12.0967	15.3239	0.008912	0.151278	-0.999873	-1.001167	0.039703	45.9431	-1.000522	-2.305635E+13	-1.721982E-15	NaN
75	1.000000	0.162599	7.36578e+06	-42389.1	955.819	-29783.3	0.000000	0.000000	6.162804	0.038081	NaN	0.000000	0.001643	0.001646	28.1281	0.082503	0.001871	44.0922	173.547	-165.425	0.071605	0.161258	-0.989846	-0.991188	0.038081	44.0922	-0.990494	-1.689525E+13	-2.253963E-15	NaN
75	1.000000	0.172606	7.36578e+06	-42389.1	955.818	-29783.3	0.000000	0.000000	6.172809	-0.005800	NaN	0.000000	0.001648	0.001686	28.1062	0.024758	0.002020	12.2535	44.3065	12.7689	0.095805	0.171286	-0.979839	-0.981159	-0.005800	12.2535	-0.979484	-1.200761E+13	4.830535E-16	NaN
75	1.000000	0.182600	7.36578e+06	-42389.1	955.818	-29783.3	0.000000	0.000000	6.182803	-0.005234	NaN	0.000000	0.001641	0.001657	28.0798	0.110411	0.001919	57.5267	-29.6608	-168.392	-0.036627	0.181276	-0.969845	-0.971169	-0.005234	57.5267	-0.969777	-8.884936E+12	5.890675E-16	NaN
75	1.000000	0.192610	7.36578e+06	-42389.1	955.818	-29783.3	0.000000	0.000000	6.192814	0.008194	NaN	0.000000	0.001655	0.001673	28.0896	0.134713	0.002081	64.7239	-44.3686	15.7538	0.043306	0.191307	-0.959835	-0.961138	0.008194	64.7239	-0.959930	-6.545288E+12	-1.251830E-15	NaN
75	1.000000	0.202606	7.36578e+06	-42389.1	955.818	-29783.3	0.000000	0.000000	6.202807	-0.076575	NaN	0.000000	0.001650	0.001650	28.1289	0.083720	0.001975	42.3921	-53.5532	-167.83	-0.084178	0.201270	-0.949839	-0.951175	-0.076575	42.3921	-0.948484	-4.587563E+12	1.669178E-14	NaN
75	1.000000	0.212638	7.36578e+06	-42389.1	955.818	-29783.3	0.000000	0.000000	6.212842	0.023723	NaN	0.000000	0.001649	0.001657	28.1079	0.047687	0.002043	23.34	100.419	15.9483	-0.031415	0.211290	-0.939807	-0.941156	0.023723	23.34	-0.940569	-3.587737E+12	-6.612211E-15	NaN
75	1.000000	0.222616	7.36578e+06	-42389.1	955.818	-29783.3	0.000000	0.000000	6.222819	0.011518	NaN	0.000000	0.001641	0.001692	28.082	0.125067	0.001952	64.0696	94.4128	-165.446	0.018864	0.221306	-0.929830	-0.931140	0.011518	64.0696	-0.929965	-2.580589E+12	-4.463292E-15	NaN
75	1.000000	0.232630	7.36578e+06	-42389.1	955.818	-29783.3	0.000000	0.000000	6.232835	0.052608	NaN	0.000000	0.001693	0.001648	28.0902	0.027327	0.002039	13.4031	-37.2334	14.6481	0.078607	0.231226	-0.919815	-0.921219	0.052608	13.4031	-0.922759	-2.062804E+12	-2.550294E-14	NaN
75	1.000000	0.242572	7.36578e+06	-42389.1	955.817	-29783.3	0.000000	0.000000	6.242777	0.055092	NaN	0.000000	0.001664	0.001695	28.1289	0.085838	0.001850	46.4031	-64.7223	-167.834	0.008071	0.241353	-0.909874	-0.911092	0.055092	46.4031	-0.910764	-1.420632E+12	-3.877992E-14	NaN
75	1.000000	0.252652	7.36578e+06	-42389.1	955.818	-29783.3	0.000000	0.000000	6.252859	0.074100	NaN	0.000000	0.001672	0.001645	28.1075	0.071145	0.002120	33.556	-10.6874	14.8826	0.035777	0.251329	-0.899793	-0.901116	0.074100	33.556	-0.901449	-1.063279E+12	-6.969012E-14	NaN
75	1.000000	0.262648	7.36578e+06	-42389.1	955.818	-29783.3	0.000000	0.000000	6.262851	0.002552	NaN	0.000000	0.001686	0.001653	28.0811	0.040730	0.002191	18.5909	-135.211	-169.004	-0.006102	0.261273	-0.889797	-0.891172	0.002552	18.5909	-0.889900	-7.422740E+11	-3.437584E-15	NaN
75	1.000000	0.272617	7.36578e+06	-42389.1	955.818	-29783.3	0.000000	0.000000	6.272822	0.026079	NaN	0.000000	0.001686	0.001683	28.091	0.050370	0.001932	26.0656	-147.912	13.4922	0.057337	0.271327	-0.879828	-0.881118	0.026079	26.0656	-0.880578	-5.552994E+11	-4.696298E-14	NaN
75	1.000000	0.282642	7.36578e+06	-42389.1	955.818	-29783.3	0.000000	0.000000	6.282846	0.030988	NaN	0.000000	0.001662	0.001649	28.1299	0.063159	0.002097	30.1215	103.925	-163.92	-0.009843	0.281355	-0.869803	-0.871090	0.030988	30.1215	-0.870575	-4.066518E+11	-7.620321E-14	NaN
75	1.000000	0.292642	7.36578e+06	-42389.1	955.818	-29783.3	0.000000	0.000000	6.292846	0.036657	NaN	0.000000	0.001639	0.001672	28.1085	0.072397	0.002023	35.7901	-6.587561	12.4325	0.015387	0.291322	-0.859804	-0.861123	0.036657	35.7901	-0.860572	-2.977572E+11	-1.231089E-13	NaN
75	1.000000	0.302654	7.36578e+06	-42389.1	955.819	-29783.3	0.000000	0.000000	6.302858	0.024336	NaN	0.000000	0.001666	0.001663	28.0821	0.079395	0.002037	38.9702	37.5257	-166.009	0.011056	0.301407	-0.849791	-0.851038	0.024336	38.9702	-0.850259	-2.158986E+11	-1.127214E-13	NaN
75	1.000000	0.312639	7.36578e+06	-42389.1	955.818	-29783.3	0.000000	0.000000	6.312842	0.004261	NaN	0.000000	0.001659	0.001641	28.0907	0.076319	0.002026	37.6668	24.7517	14.4597	-0.028689	0.311229	-0.839806	-0.841216	0.004261	37.6668	-0.839891	-1.562489E+11	-2.727062E-14	NaN
75	1.000000	0.322655	7.36578e+06	-42389.1	955.818	-29783.3	0.000000	0.000000	6.322859	0.023715	NaN	0.000000	0.001664	0.001668	28.1288	0.047908	0.002171	22.069	92.4523	-164.478	0.090817	0.321311	-0.829790	-0.831134	0.023715	22.069	-0.830596	-1.169145E+11	-2.028441E-13	NaN
75	1.000000	0.332660	7.36578e+06	-42389.1	955.818	-29783.3	0.000000	0.000000	6.332862	-0.032202	NaN	0.000000	0.001594	0.001655	28.108	0.065477	0.001922	34.0624	-46.0352	15.7713	0.002521	0.331288	-0.819785	-0.821157	-0.032202	34.0624	-0.819076	-8.159789E+10	3.946406E-13	NaN
75	1.000000	0.342633	7.36578e+06	-42389.1	955.818	-29783.3	0.000000	0.000000	6.342836	-0.024805	NaN	0.000000	0.001579	0.001642	28.0815	0.036875	0.001932	19.0897	-72.4613	-165.376	0.053514	0.341293	-0.809812	-0.811152	-0.024805	19.0897	-0.808837	-5.926483E+10	4.185520E-13	NaN
75	1.000000	0.352662	7.36578e+06	-42389.1	955.818	-29783.3	0.000000	0.000000	6.352865	0.000833	NaN	0.000000	0.001600	0.001600	28.0892	0.048958	0.002007	24.3919	-145.277	12.7683	0.032265	0.351357	-0.799783	-0.801088	0.000833	24.3919	-0.799809	-4.469623E+10	-1.863594E-14	NaN
75	1.000000	0.362687	7.36578e+06	-42389.1	955.819	-29783.3	0.000000	0.000000	6.362891	0.019223	NaN	0.000000	0.001535	0.001614	28.1288	0.050346	0.002014	24.9939	109.68	-167.044	0.076762	0.361377	-0.789758	-0.791068	0.019223	24.9939	-0.790335	-3.323788E+10	-5.783385E-13	NaN
75	1.000000	0.372706	7.36578e+06	-42389.1	955.818	-29783.3	0.000000	0.000000	6.372909	0.001555	NaN	0.000000	0.001519	0.001618	28.1077	0.036394	0.001957	18.5967	21.7482	15.9172	-0.009997	0.371358	-0.779739	-0.781088	0.001555	18.5967	-0.779802	-2.390799E+10	-6.504706E-14	NaN
75	1.000000	0.382705	7.36578e+06	-42389.1	955.819	-29783.3	0.000000	0.000000	6.382912	0.076358	NaN	0.000000	0.001552	0.001671	28.0809	0.031352	0.002029	15.4524	149.319	-166.118	0.022237	0.381421	-0.769740	-0.771024	0.076358	15.4524	-0.773446	-1.959549E+10	-3.896720E-12	NaN
75	1.000000	0.392703	7.36578e+06	-42389.1	955.818	-29783.3	0.000000	0.000000	6.392906	-0.011973	NaN	0.000000	0.001527	0.001636	28.0884	0.037574	0.002072	18.1331	35.6277	13.6677	-0.015641	0.391377	-0.759742	-0.761068	-0.011973	18.1331	-0.759247	-1.256196E+10	9.531305E-13	NaN
75	1.000000	0.402663	7.36578e+06	-42389.1	955.818	-29783.3	0.000000	0.000000	6.402867	0.016584	NaN	0.000000	0.001599	0.001647	28.1275	0.089788	0.002025	44.3425	-121.271	-165.481	0.058018	0.401381	-0.749782	-0.751064	0.016584	44.3425	-0.750062	-9.420422E+9	-1.760479E-12	NaN
75	1.000000	0.412708	7.36578e+06	-42389.1	955.819	-29783.3	0.000000	0.000000	6.412912	0.023164	NaN	0.000000	0.001588	0.001664	28.1072	0.096807	0.002070	46.7699	163.071	11.5278	0.014944	0.411316	-0.739737	-0.741130	0.023164	46.7699	-0.740109	-6.895080E+9	-3.359477E-12	NaN
75	1.000000	0.422704	7.36578e+06	-42389.1	955.818	-29783.3	0.000000	0.000000	6.422910	0.066166	NaN	0.000000	0.001576	0.001670	28.0798	0.031961	0.001877	17.0268	-175.31	-166.88	0.012186	0.421448	-0.729742	-0.730998	0.066166	17.0268	-0.732656	-5.457645E+9	-1.212345E-11	NaN
75	1.000000	0.432673	7.36578e+06	-42389.1	955.818	-29783.3	0.000000	0.000000	6.432877	0.033441	NaN	0.000000	0.001585	0.001646	28.0895	0.009471	0.001946	4.865595	-17.5077	12.018	0.114536	0.431361	-0.719773	-0.721084	0.033441	4.865595	-0.724928	-4.282165E+9	-7.809399E-12	NaN
75	1.000000	0.442713	7.36578e+06	-42389.1	955.819	-29783.3	0.000000	0.000000	6.442917	0.030649	NaN	0.000000	0.001562	0.001604	28.1281	0.044770	0.001867	23.9738	2.214718	-166.432	0.099180	0.441445	-0.709733	-0.711000	0.030649	23.9738	-0.710692	-2.738328E+9	-1.119263E-11	NaN
75	1.000000	0.452736	7.36578e+06	-42389.1	955.819	-29783.3	0.000000	0.000000	6.452942	0.074117	NaN	0.000000	0.001593	0.001607	28.1082	0.082369	0.002199	37.4544	-137.249	13.8116	0.068587	0.451350	-0.699709	-0.701095	0.074117	37.4544	-0.701193	-2.031546E+9	-3.648307E-11	NaN
75	1.000000	0.462736	7.36578e+06	-42389.1	955.818	-29783.3	0.000000	0.000000	6.462938	-0.016132	NaN	0.000000	0.001584	0.001628	28.0811	0.068793	0.002113	32.5529	147.5	-164.735	-0.066219	0.461404	-0.689709	-0.691042	-0.016132	32.5529	-0.689338	-1.399161E+9	1.152951E-11	NaN
75	1.000000	0.472733	7.36578e+06	-42389.1	955.819	-29783.3	0.000000	0.000000	6.472941	0.111038	NaN	0.000000	0.001568	0.001627	28.0874	0.058985	0.001940	30.4048	80.2571	15.3508	0.074736	0.471430	-0.679712	-0.681015	0.111038	30.4048	-0.682451	-1.126494E+9	-9.856950E-11	NaN
75	1.000000	0.482739	7.36578e+06	-42389.1	955.818	-29783.3	0.000000	0.000000	6.482942	-0.004240	NaN	0.000000	0.001616	0.001651	28.1276	0.090941	0.002084	43.6402	128.818	-169.467	-0.083438	0.481471	-0.669706	-0.670974	-0.004240	43.6402	-0.669633	-7.522706E+8	5.636363E-12	NaN
75	1.000000	0.492746	7.36578e+06	-42389.1	955.819	-29783.3	0.000000	0.000000	6.492949	-0.009714	NaN	0.000000	0.001594	0.001616	28.1089	0.020543	0.002059	9.975145	-173.827	13.1319	-0.026912	0.491389	-0.659699	-0.661057	-0.009714	9.975145	-0.658968	-5.374506E+8	1.807370E-11	NaN
75	1.000000	0.502719	7.36578e+06	-42389.1	955.818	-29783.3	0.000000	0.000000	6.502921	-0.019061	NaN	0.000000	0.001586	0.001612	28.0803	0.081008	0.002058	39.3555	-79.1684	-163.247	-0.074799	0.501403	-0.649727	-0.651042	-0.019061	39.3555	-0.649363	-3.969264E+8	4.802138E-11	NaN
75	1.000000	0.512725	7.36578e+06	-42389.1	955.818	-29783.3	0.000000	0.000000	6.512926	-0.036556	NaN	0.000000	0.001572	0.001629	28.0898	0.067113	0.002004	33.482	-105.855	15.349	-0.100321	0.511433	-0.639721	-0.641012	-0.036556	33.482	-0.638902	-2.852470E+8	1.281547E-10	NaN
75	1.000000	0.522745	7.36578e+06	-42389.1	955.819	-29783.3	0.000000	0.000000	6.522952	0.074377	NaN	0.000000	0.001592	0.001658	28.1292	0.086373	0.001873	46.1121	-112.749	-169.088	0.055432	0.521429	-0.629700	-0.631017	0.074377	46.1121	-0.630910	-2.215727E+8	-3.356797E-10	NaN
75	1.000000	0.532761	7.36578e+06	-42389.1	955.819	-29783.3	0.000000	0.000000	6.532964	0.015468	NaN	0.000000	0.001567	0.001660	28.11	0.044838	0.002009	22.3176	44.1425	11.8947	0.012937	0.531408	-0.619685	-0.621037	0.015468	22.3176	-0.620204	-1.579226E+8	-9.794427E-11	NaN
75	1.000000	0.542771	7.36578e+06	-42389.1	955.819	-29783.3	0.000000	0.000000	6.542972	-0.062478	NaN	0.000000	0.001574	0.001656	28.0826	0.080115	0.002007	39.9179	45.6982	-165.528	-0.083434	0.541444	-0.609674	-0.611001	-0.062478	39.9179	-0.608500	-1.090135E+8	5.731184E-10	NaN
75	1.000000	0.552739	7.36578e+06	-42389.1	955.818	-29783.3	0.000000	0.000000	6.552944	0.037674	NaN	0.000000	0.001582	0.001623	28.0894	0.023444	0.001954	11.998	162.783	13.1253	0.028099	0.551399	-0.599706	-0.601046	0.037674	11.998	-0.602061	-8.888783E+7	-4.238392E-10	NaN
75	1.000000	0.562765	7.36578e+06	-42389.1	955.819	-29783.3	0.000000	0.000000	6.562967	-0.026796	NaN	0.000000	0.001593	0.001632	28.1275	0.135746	0.001986	68.3593	-100.511	-163.567	0.001033	0.561450	-0.589681	-0.590996	-0.026796	68.3593	-0.589387	-5.945777E+7	4.506757E-10	NaN
75	1.000000	0.572796	7.36578e+06	-42389.1	955.819	-29783.3	0.000000	0.000000	6.572998	-0.018854	NaN	0.000000	0.001603	0.001629	28.1091	0.054867	0.002224	24.6731	105.782	13.0435	-0.025837	0.571340	-0.579650	-0.581105	-0.018854	24.6731	-0.579077	-4.285283E+7	4.399699E-10	NaN
75	1.000000	0.582774	7.36578e+06	-42389.1	955.818	-29783.3	0.000000	0.000000	6.582982	0.104801	NaN	0.000000	0.001587	0.001624	28.0809	0.066420	0.002009	33.0562	110.731	-166.461	0.072499	0.581516	-0.569671	-0.570930	0.104801	33.0562	-0.572049	-3.427198E+7	-3.057916E-9	NaN
75	1.000000	0.592774	7.36578e+06	-42389.1	955.817	-29783.3	0.000000	0.000000	6.592979	0.037414	NaN	0.000000	0.001568	0.001646	28.0895	0.044968	0.001972	22.8077	108.748	15.5107	0.017777	0.591442	-0.559671	-0.561003	0.037414	22.8077	-0.560901	-2.403496E+7	-1.556651E-9	NaN
75	1.000000	0.602756	7.36578e+06	-42389.1	955.819	-29783.3	0.000000	0.000000	6.602957	-0.049768	NaN	0.000000	0.001617	0.001620	28.1287	0.059100	0.001920	30.7852	104.317	-167.269	0.042055	0.601483	-0.549690	-0.550962	-0.049768	30.7852	-0.548477	-1.617563E+7	3.076754E-9	NaN
75	1.000000	0.612806	7.36578e+06	-42389.1	955.818	-29783.3	0.000000	0.000000	6.613009	0.006136	NaN	0.000000	0.001689	0.001625	28.1109	0.062197	0.001972	31.5369	20.2703	14.8993	-0.022942	0.611456	-0.539640	-0.540990	0.006136	31.5369	-0.539786	-1.225704E+7	-5.006029E-10	NaN
75	1.000000	0.622765	7.36578e+06	-42389.1	955.818	-29783.3	0.000000	0.000000	6.622970	0.044894	NaN	0.000000	0.001668	0.001632	28.0812	0.032082	0.001924	16.6727	-32.0199	-165.34	0.075199	0.621444	-0.529680	-0.531001	0.044894	16.6727	-0.531700	-9.46628e+06	-4.742564E-9	NaN
75	1.000000	0.632781	7.36578e+06	-42389.1	955.819	-29783.3	0.000000	0.000000	6.632988	0.075366	NaN	0.000000	0.001675	0.001603	28.0885	0.065902	0.002097	31.425	31.3856	14.6796	0.052665	0.631433	-0.519664	-0.521012	0.075366	31.425	-0.521463	-6.82243e+06	-1.104679E-8	NaN
75	1.000000	0.642807	7.36578e+06	-42389.1	955.818	-29783.3	0.000000	0.000000	6.643009	-0.020730	NaN	0.000000	0.001579	0.001617	28.1269	0.039807	0.002024	19.6674	-135.98	-165.993	-0.058336	0.641486	-0.509639	-0.510959	-0.020730	19.6674	-0.508848	-4.55375e+06	4.552328E-9	NaN
75	1.000000	0.652838	7.36578e+06	-42389.1	955.819	-29783.3	0.000000	0.000000	6.653039	-0.037116	NaN	0.000000	0.001595	0.001643	28.1086	0.114927	0.001921	59.8113	81.6721	15.0952	-0.085508	0.651409	-0.499607	-0.501036	-0.037116	59.8113	-0.499142	-3.33463e+06	1.113057E-8	NaN
75	1.000000	0.662818	7.36578e+06	-42389.1	955.818	-29783.3	0.000000	0.000000	6.663021	0.010875	NaN	0.000000	0.001559	0.001665	28.0798	0.149486	0.002111	70.8185	-60.785	-168.115	0.037396	0.661469	-0.489628	-0.490977	0.010875	70.8185	-0.489743	-2.46491e+06	-4.411797E-9	NaN
75	1.000000	0.672830	7.36578e+06	-42389.1	955.818	-29783.3	0.000000	0.000000	6.673033	-0.007697	NaN	0.000000	0.001550	0.001629	28.0876	0.105250	0.002024	51.9883	130.684	16.14	0.000196	0.671421	-0.479615	-0.481024	-0.007697	51.9883	-0.479504	-1.7725e+06	4.342319E-9	NaN
75	1.000000	0.682820	7.36578e+06	-42389.1	955.818	-29783.3	0.000000	0.000000	6.683026	0.061203	NaN	0.000000	0.001544	0.001647	28.1276	0.057026	0.002125	26.8345	-13.7504	-163.895	0.039296	0.681468	-0.469625	-0.470978	0.061203	26.8345	-0.471335	-1.36187e+06	-4.494080E-8	NaN
75	1.000000	0.692793	7.36578e+06	-42389.1	955.818	-29783.3	0.000000	0.000000	6.692995	-0.020718	NaN	0.000000	0.001536	0.001632	28.1094	0.107039	0.002005	53.3774	-169.694	15.7479	-0.073405	0.691475	-0.459653	-0.460970	-0.020718	53.3774	-0.459362	-924797	2.240306E-8	NaN
75	1.000000	0.702845	7.36578e+06	-42389.1	955.819	-29783.3	0.000000	0.000000	6.703048	-0.005334	NaN	0.000000	0.001505	0.001664	28.0811	0.035377	0.002015	17.5605	-120.539	-168.737	0.021447	0.701521	-0.449600	-0.450924	-0.005334	17.5605	-0.449372	-669117	7.971817E-9	NaN
75	1.000000	0.712843	7.36578e+06	-42389.1	955.818	-29783.3	0.000000	0.000000	6.713044	-0.033609	NaN	0.000000	0.001575	0.001649	28.0875	0.022880	0.002074	11.0303	-154.096	14.0805	0.054906	0.711442	-0.439603	-0.441003	-0.033609	11.0303	-0.437317	-452367	7.429549E-8	NaN
75	1.000000	0.722835	7.36578e+06	-42389.1	955.818	-29783.3	0.000000	0.000000	6.723039	0.009233	NaN	0.000000	0.001560	0.001623	28.1263	0.033629	0.001976	17.0155	-145.733	-166.649	0.025367	0.721504	-0.429610	-0.430941	0.009233	17.0155	-0.430017	-356697	-2.588449E-8	NaN
75	1.000000	0.732839	7.36578e+06	-42389.1	955.818	-29783.3	0.000000	0.000000	6.733040	-0.044897	NaN	0.000000	0.001594	0.001628	28.1084	0.092398	0.001996	46.282	118.06	13.8353	-0.146700	0.731499	-0.419606	-0.420947	-0.044897	46.282	-0.418879	-248035	1.810120E-7	NaN
75	1.000000	0.742858	7.36578e+06	-42389.1	955.819	-29783.3	0.000000	0.000000	6.743063	0.024600	NaN	0.000000	0.001545	0.001683	28.0801	0.048104	0.001961	24.5254	88.125	-165.247	0.046666	0.741522	-0.409587	-0.410924	0.024600	24.5254	-0.410339	-187596	-1.311349E-7	NaN
75	1.000000	0.752850	7.36578e+06	-42389.1	955.819	-29783.3	0.000000	0.000000	6.753053	0.000977	NaN	0.000000	0.001555	0.001691	28.0889	0.071555	0.002012	35.5682	148.43	15.1348	-0.021024	0.751530	-0.399596	-0.400915	0.000977	35.5682	-0.399616	-131984	-7.398643E-9	NaN
75	1.000000	0.762830	7.36578e+06	-42389.1	955.818	-29783.3	0.000000	0.000000	6.763034	0.028885	NaN	0.000000	0.001571	0.001700	28.1282	0.047879	0.002153	22.2354	-114.905	-161.649	0.056060	0.761566	-0.389615	-0.390880	0.028885	22.2354	-0.390590	-98085.1	-2.944920E-7	NaN
75	1.000000	0.772847	7.36578e+06	-42389.1	955.818	-29783.3	0.000000	0.000000	6.773051	0.020870	NaN	0.000000	0.001567	0.001673	28.1115	0.027236	0.001829	14.8919	126.997	11.5891	0.005811	0.771460	-0.379599	-0.380985	0.020870	14.8919	-0.380650	-70666	-2.953343E-7	NaN
75	1.000000	0.782840	7.36578e+06	-42389.1	955.818	-29783.3	0.000000	0.000000	6.783044	0.035150	NaN	0.000000	0.001555	0.001635	28.0826	0.076253	0.002125	35.876	176.24	-166.473	0.040773	0.781561	-0.369606	-0.370884	0.035150	35.876	-0.370340	-50237.7	-6.996711E-7	NaN
75	1.000000	0.792857	7.36578e+06	-42389.1	955.818	-29783.3	0.000000	0.000000	6.793062	0.042460	NaN	0.000000	0.001565	0.001706	28.0889	0.015875	0.001853	8.566021	-100.53	12.6023	0.016825	0.791528	-0.359588	-0.360917	0.042460	8.566021	-0.363306	-39773.9	-1.067537E-6	NaN
75	1.000000	0.802825	7.36578e+06	-42389.1	955.818	-29783.3	0.000000	0.000000	6.803026	-0.056118	NaN	0.000000	0.001568	0.001719	28.1274	0.024086	0.001982	12.1527	14.8419	-169.468	0.051193	0.801541	-0.349620	-0.350905	-0.056118	12.1527	-0.346157	-22448.2	2.499905E-6	NaN
75	1.000000	0.812887	7.36578e+06	-42389.1	955.819	-29783.3	0.000000	0.000000	6.813091	0.005588	NaN	0.000000	0.001577	0.001705	28.1101	0.078762	0.002041	38.581	21.4554	12.9841	0.032826	0.811536	-0.339558	-0.340909	0.005588	38.581	-0.339666	-18058.9	-3.094571E-7	NaN
75	1.000000	0.822885	7.36578e+06	-42389.1	955.818	-29783.3	0.000000	0.000000	6.823091	0.056654	NaN	0.000000	0.001596	0.001720	28.0813	0.027283	0.001973	13.8281	108.596	-166.142	-0.019284	0.821579	-0.329560	-0.330866	0.056654	13.8281	-0.332633	-14255.5	-3.974207E-6	NaN
75	1.000000	0.832882	7.36578e+06	-42389.1	955.818	-29783.3	0.000000	0.000000	6.833082	-0.065188	NaN	0.000000	0.001571	0.001697	28.0888	0.045614	0.001955	23.3375	162.011	13.172	0.004836	0.831551	-0.319564	-0.320894	-0.065188	23.3375	-0.317469	-8537.99	7.635079E-6	NaN
75	1.000000	0.842863	7.36578e+06	-42389.1	955.819	-29783.3	0.000000	0.000000	6.843065	-0.046552	NaN	0.000000	0.001589	0.001693	28.1284	0.082409	0.002046	40.278	72.9075	-162.896	-0.010492	0.841548	-0.309582	-0.310897	-0.046552	40.278	-0.308715	-6339.18	7.343612E-6	NaN
75	1.000000	0.852863	7.36578e+06	-42389.1	955.819	-29783.3	0.000000	0.000000	6.853069	0.064257	NaN	0.000000	0.001588	0.001704	28.1121	0.039459	0.001979	19.9361	-113.888	14.1459	0.072448	0.851516	-0.299582	-0.300929	0.064257	19.9361	-0.302000	-5039.46	-1.275072E-5	NaN
75	1.000000	0.862890	7.36578e+06	-42389.1	955.819	-29783.3	0.000000	0.000000	6.863093	-0.004760	NaN	0.000000	0.001675	0.001683	28.082	0.078729	0.002010	39.1755	-93.8336	-164.69	0.062831	0.861577	-0.289555	-0.290869	-0.004760	39.1755	-0.289464	-3275.44	1.453343E-6	NaN
75	1.000000	0.872875	7.36578e+06	-42389.1	955.818	-29783.3	0.000000	0.000000	6.873081	0.076269	NaN	0.000000	0.001622	0.001693	28.0886	0.089557	0.001896	47.2362	-39.9822	15.0518	0.004111	0.871519	-0.279570	-0.280927	0.076269	47.2362	-0.280781	-2425.22	-3.144835E-5	NaN
75	1.000000	0.882876	7.36578e+06	-42389.1	955.818	-29783.3	0.000000	0.000000	6.883080	0.026041	NaN	0.000000	0.001603	0.001700	28.1279	0.098472	0.001899	51.8509	64.5454	-166.133	-0.071918	0.881589	-0.269570	-0.270857	0.026041	51.8509	-0.269946	-1662.38	-1.566518E-5	NaN
75	1.000000	0.892911	7.36578e+06	-42389.1	955.819	-29783.3	0.000000	0.000000	6.893114	-0.006650	NaN	0.000000	0.001634	0.001748	28.1099	0.137567	0.002040	67.4283	129.173	14.9631	-0.080579	0.891542	-0.259534	-0.260903	-0.006650	67.4283	-0.259460	-1149.84	5.783104E-6	NaN
75	1.000000	0.902877	7.36578e+06	-42389.1	955.818	-29783.3	0.000000	0.000000	6.903078	-0.065761	NaN	0.000000	0.001584	0.001737	28.081	0.108091	0.002149	50.3087	-123.549	-165.149	0.040439	0.901599	-0.249568	-0.250847	-0.065761	50.3087	-0.248588	-781.823	8.411296E-5	NaN
75	1.000000	0.912886	7.36578e+06	-42389.1	955.819	-29783.3	0.000000	0.000000	6.913088	-0.032510	NaN	0.000000	0.001628	0.001703	28.088	0.036467	0.002079	17.5428	42.8714	12.4336	-0.032384	0.911507	-0.239560	-0.240938	-0.032510	17.5428	-0.238170	-538.191	6.040607E-5	NaN
75	1.000000	0.922928	7.36578e+06	-42389.1	955.818	-29783.3	0.000000	0.000000	6.923133	0.036970	NaN	0.000000	0.001610	0.001731	28.1278	0.023365	0.002010	11.6243	8.509367	-166.256	-0.028001	0.921641	-0.229517	-0.230805	0.036970	11.6243	-0.231903	-429.069	-8.616209E-5	NaN
75	1.000000	0.932905	7.36578e+06	-42389.1	955.818	-29783.3	0.000000	0.000000	6.933110	0.057028	NaN	0.000000	0.001616	0.001720	28.1114	0.057514	0.001902	30.2431	80.2836	16.1568	4.823556E-5	0.931579	-0.219541	-0.220866	0.057028	30.2431	-0.220955	-287.692	-0.000198	NaN
75	1.000000	0.942939	7.36578e+06	-42389.1	955.818	-29783.3	0.000000	0.000000	6.943140	-0.032380	NaN	0.000000	0.001622	0.001704	28.0824	0.061415	0.002062	29.7776	103.152	-163.537	-0.069940	0.941642	-0.209507	-0.210803	-0.032380	29.7776	-0.208691	-182.643	0.000177	NaN
75	1.000000	0.952941	7.36578e+06	-42389.1	955.818	-29783.3	0.000000	0.000000	6.953148	0.107922	NaN	0.000000	0.001619	0.001699	28.0867	0.049662	0.001917	25.9019	-77.877	11.8628	0.058972	0.951548	-0.199505	-0.200897	0.107922	25.9019	-0.202630	-145.488	-0.000742	NaN
75	1.000000	0.962919	7.36578e+06	-42389.1	955.818	-29783.3	0.000000	0.000000	6.963122	-0.004237	NaN	0.000000	0.001618	0.001709	28.1263	0.160375	0.001840	87.147	94.249	-162.442	0.017721	0.961643	-0.189526	-0.190802	-0.004237	87.147	-0.189489	-88.2052	4.803489E-5	NaN
75	1.000000	0.972944	7.36578e+06	-42389.1	955.818	-29783.3	0.000000	0.000000	6.973147	0.003782	NaN	0.000000	0.001619	0.001725	28.1105	0.030673	0.001879	16.3231	77.236	17.3039	-0.020281	0.971591	-0.179501	-0.180854	0.003782	16.3231	-0.179675	-60.2477	-6.277068E-5	NaN
75	1.000000	0.982960	7.36578e+06	-42389.1	955.819	-29783.3	0.000000	0.000000	6.983165	0.054687	NaN	0.000000	0.001672	0.001732	28.0807	0.051892	0.001845	28.1315	68.3231	-165.281	0.068402	0.981655	-0.169485	-0.170790	0.054687	28.1315	-0.170943	-42.6559	-0.001282	NaN
75	1.000000	0.992934	7.36578e+06	-42389.1	955.817	-29783.3	0.000000	0.000000	6.993142	0.111565	NaN	0.000000	0.001644	0.001732	28.0877	0.058866	0.002047	28.762	-66.1389	10.5124	0.059072	0.991596	-0.159511	-0.160849	0.111565	28.762	-0.162420	-30.26	-0.003687	NaN
75	1.000000	1.002919	7.36578e+06	-42389.1	955.817	-29783.3	0.000000	0.000000	7.003122	0.002463	NaN	0.000000	0.001665	0.001721	28.1265	0.089244	0.002144	41.6329	110.821	-166.938	-0.031047	1.001637	-0.149526	-0.150809	0.002463	41.6329	-0.149570	-17.7896	-0.000138	NaN
75	1.000000	1.012944	7.36578e+06	-42389.1	955.818	-29783.3	0.000000	0.000000	7.013150	0.055467	NaN	0.000000	0.001675	0.001754	28.1112	0.154218	0.001960	78.6869	62.3654	15.8878	0.064938	1.011607	-0.139501	-0.140839	0.055467	78.6869	-0.140029	-11.8446	-0.004683	NaN
75	1.000000	1.022992	7.36578e+06	-42389.1	955.817	-29783.3	0.000000	0.000000	7.023196	0.033205	NaN	0.000000	0.001665	0.001732	28.0818	0.117658	0.001982	59.3564	-25.4639	-160.19	0.049025	1.021620	-0.129454	-0.130825	0.033205	59.3564	-0.129873	-7.577877	-0.004382	NaN
75	1.000000	1.032941	7.36578e+06	-42389.1	955.818	-29783.3	0.000000	0.000000	7.033143	-0.027691	NaN	0.000000	0.001662	0.001724	28.087	0.100973	0.002039	49.5128	160.417	15.2814	0.045020	1.031590	-0.119504	-0.120856	-0.027691	49.5128	-0.119085	-4.629886	0.005981	NaN
75	1.000000	1.042982	7.36578e+06	-42389.1	955.816	-29783.3	0.000000	0.000000	7.043185	-0.009320	NaN	0.000000	0.001671	0.001713	28.1267	0.033153	0.001897	17.4808	-91.6708	-165.737	-0.003085	1.041624	-0.109463	-0.110821	-0.009320	17.4808	-0.109063	-2.871298	0.003246	NaN
75	1.000000	1.052965	7.36578e+06	-42389.1	955.818	-29783.3	0.000000	0.000000	7.053171	0.074742	NaN	0.000000	0.001623	0.001701	28.1121	0.041948	0.001989	21.0945	-136.778	11.5171	0.039823	1.051583	-0.099481	-0.100863	0.074742	21.0945	-0.102138	-2.036578	-0.036700	NaN
75	1.000000	1.062965	7.36578e+06	-42389.1	955.815	-29783.3	0.000000	0.000000	7.063169	0.037594	NaN	0.000000	0.001544	0.001714	28.082	0.091598	0.001778	51.5141	-3.701627	-167.179	-0.015679	1.061663	-0.089481	-0.090783	0.037594	51.5141	-0.090028	-1.082618	-0.034725	NaN
75	1.000000	1.072977	7.36578e+06	-42389.1	955.817	-29783.3	0.000000	0.000000	7.073184	0.081218	NaN	0.000000	0.001540	0.001717	28.0885	0.090855	0.001866	48.6966	30.4214	11.4038	0.060131	1.071623	-0.079468	-0.080822	0.081218	48.6966	-0.080719	-0.645089	-0.125903	NaN
75	1.000000	1.082968	7.36578e+06	-42389.1	955.817	-29783.3	0.000000	0.000000	7.083175	0.073424	NaN	0.000000	0.001576	0.001696	28.128	0.044055	0.002039	21.6061	103.6	-167.931	0.073299	1.081675	-0.069477	-0.070770	0.073424	21.6061	-0.072026	-0.386164	-0.190137	NaN
75	1.000000	1.092960	7.36578e+06	-42389.1	955.817	-29783.3	0.000000	0.000000	7.093163	-0.002365	NaN	0.000000	0.001572	0.001654	28.1133	0.102236	0.002021	50.5916	-147.301	16.825	-0.036778	1.091598	-0.059486	-0.060847	-0.002365	50.5916	-0.059450	-0.173663	0.013616	NaN
75	1.000000	1.102990	7.36578e+06	-42389.1	955.817	-29783.3	0.000000	0.000000	7.103193	0.001836	NaN	0.000000	0.001604	0.001679	28.0826	0.088737	0.002013	44.0722	121.207	-170.194	0.033924	1.101748	-0.049455	-0.050697	0.001836	44.0722	-0.049486	-0.088043	-0.020854	NaN
75	1.000000	1.112991	7.36578e+06	-42389.1	955.816	-29783.3	0.000000	0.000000	7.113195	0.003833	NaN	0.000000	0.001603	0.001657	28.088	0.081904	0.002029	40.3611	-42.4458	13.1898	-0.020144	1.111603	-0.039454	-0.040842	0.003833	40.3611	-0.039525	-0.043747	-0.087611	NaN
75	1.000000	1.122982	7.36578e+06	-42389.1	955.817	-29783.3	0.000000	0.000000	7.123186	0.029384	NaN	0.000000	0.001580	0.001695	28.1267	0.018181	0.002028	8.966331	162.873	-164.233	0.037319	1.121690	-0.029464	-0.030755	0.029384	8.966331	-0.031922	-0.026072	-1.127064	NaN
75	1.000000	1.133027	7.36578e+06	-42389.1	955.817	-29783.3	0.000000	0.000000	7.133232	0.050265	NaN	0.000000	0.001613	0.001701	28.1124	0.123185	0.002061	59.7757	147.974	13.7102	0.094960	1.131645	-0.019418	-0.020801	0.050265	59.7757	-0.020049	-0.012597	-3.990176	NaN
75	1.000000	1.143015	7.36578e+06	-42389.1	955.817	-29783.3	0.000000	0.000000	7.143220	0.031211	NaN	0.000000	0.001605	0.001692	28.0815	0.096003	0.001974	48.6226	109.915	-168.81	0.014139	1.141685	-0.009430	-0.010760	0.031211	48.6226	-0.009911	-0.006337	-4.925405	NaN
75	1.000000	1.152978	7.36578e+06	-42389.1	955.817	-29783.3	0.000000	0.000000	7.153187	0.155955	NaN	0.000000	0.001614	0.001752	28.0881	0.329627	0.001891	174.324	1.887409	14.2143	0.030020	1.151704	0.000532	-0.000741	0.155955	174.324	-0.000139	-0.000103	-1510.13	NaN
75	2.000000	1.162474	7.36578e+06	-42389.1	955.818	-29783.3	0.000000	0.000000	7.162992	7.642639	NaN	0.000000	0.001594	0.001732	28.1273	7.193501	0.001555	4625.66	7.310020	-171.259	7.885295	1.161663	0.010029	0.009218	7.642639	4625.66	0.008790	0.007868	971.415	47646.1
75	2.000000	1.165095	7.36578e+06	-42389.1	955.818	-29783.3	0.000000	0.000000	7.165762	11.2945	NaN	0.000000	0.001575	0.001702	28.1128	9.923142	0.001637	6060.05	8.179614	4.101522	10.472	1.164816	0.012650	0.012371	11.2945	6060.05	0.011252	0.010606	1064.91	53761.7
75	2.000000	1.167551	7.36578e+06	-42389.1	955.817	-29783.3	0.000000	0.000000	7.168371	15.0065	NaN	0.000000	0.001589	0.001735	28.0806	12.9552	0.001771	7316	10.8883	-179.975	14.5831	1.167250	0.015106	0.014805	15.0065	7316	0.013568	0.013423	1118	57693.6
75	2.000000	1.170042	7.36578e+06	-42389.1	955.817	-29783.3	0.000000	0.000000	7.171046	19.474	NaN	0.000000	0.001631	0.001721	28.0863	14.6249	0.001604	9117.67	1.250054	7.024859	17.5617	1.169703	0.017597	0.017258	19.474	9117.67	0.015995	0.016635	1170.65	64586.6
75	2.000000	1.172506	7.36578e+06	-42389.1	955.817	-29783.3	0.000000	0.000000	7.173780	26.0414	NaN	0.000000	0.001597	0.001713	28.1248	17.9443	0.001770	10136.3	3.508859	-175.288	24.5688	1.172234	0.020061	0.019788	26.0414	10136.3	0.018134	0.019695	1322.25	65990.1
75	2.000000	1.175004	7.36578e+06	-42389.1	955.818	-29783.3	0.000000	0.000000	7.176370	28.3028	NaN	0.000000	0.001659	0.001741	28.1118	19.969	0.001898	10518.8	5.109636	5.090149	26.7485	1.174726	0.022558	0.022281	28.3028	10518.8	0.020540	0.023398	1209.6	62827.2
75	2.000000	1.177482	7.36578e+06	-42389.1	955.818	-29783.3	0.000000	0.000000	7.179187	36.5384	NaN	0.000000	0.001698	0.001741	28.0813	21.9163	0.001834	11952.8	4.585566	-176.747	35.1083	1.177175	0.025037	0.024730	36.5384	11952.8	0.022744	0.027040	1351.29	66411.3
75	2.000000	1.179989	7.36578e+06	-42389.1	955.817	-29783.3	0.000000	0.000000	7.181892	41.3578	NaN	0.000000	0.001650	0.001734	28.0866	24.66	0.001781	13845.9	6.194870	0.501112	39.9438	1.179635	0.027544	0.027190	41.3578	13845.9	0.025304	0.031571	1310.01	71195.8
75	2.000000	1.182483	7.36578e+06	-42389.1	955.817	-29783.3	0.000000	0.000000	7.184650	47.7708	NaN	0.000000	0.001573	0.001704	28.1264	27.5531	0.001858	14833.2	6.253861	179.751	46.3518	1.182220	0.030038	0.029775	47.7708	14833.2	0.027623	0.035960	1328.43	71465.7
75	2.000000	1.185016	7.36578e+06	-42389.1	955.817	-29783.3	0.000000	0.000000	7.187505	55.6008	NaN	0.000000	0.001574	0.001687	28.1135	29.2657	0.001708	17138.7	7.124327	-1.740928	55.6838	1.184594	0.032571	0.032148	55.6008	17138.7	0.030138	0.041030	1355.12	77303.4
75	2.000000	1.187484	7.36578e+06	-42389.1	955.817	-29783.3	0.000000	0.000000	7.190378	65.4688	NaN	0.000000	0.001600	0.001719	28.0822	31.4371	0.001845	17037.8	3.731188	-179.228	63.7133	1.187054	0.035038	0.034609	65.4688	17037.8	0.032157	0.045332	1444.2	73111
75	2.000000	1.189971	7.36578e+06	-42389.1	955.818	-29783.3	0.000000	0.000000	7.193132	71.9728	NaN	0.000000	0.001613	0.001718	28.0858	34.4514	0.001915	17985.6	2.265256	3.001673	71.1122	1.189591	0.037526	0.037146	71.9728	17985.6	0.034525	0.050645	1421.12	73017.9
75	2.000000	1.192509	7.36578e+06	-42389.1	955.819	-29783.3	0.000000	0.000000	7.195890	77.3319	NaN	0.000000	0.001613	0.001667	28.1252	37.2444	0.001784	20882.5	6.692323	175.976	79.9381	1.192228	0.040063	0.039783	77.3319	20882.5	0.037286	0.057202	1351.9	79771.6
75	2.000000	1.195039	7.36578e+06	-42389.1	955.818	-29783.3	0.000000	0.000000	7.198875	88.3892	NaN	0.000000	0.001584	0.001718	28.1115	38.9976	0.001824	21380.8	6.380258	-3.208433	89.1533	1.194648	0.042593	0.042203	88.3892	21380.8	0.039493	0.062724	1409.17	77997.3
75	2.000000	1.197406	7.36578e+06	-42389.1	955.818	-29783.3	0.000000	0.000000	7.201783	101.568	NaN	0.000000	0.001597	0.001714	28.0828	40.8193	0.001755	23261.3	3.352827	178.162	99.3947	1.197132	0.044960	0.044686	101.568	23261.3	0.041685	0.068457	1483.69	81226.7
75	2.000000	1.199964	7.36578e+06	-42389.1	955.818	-29783.3	0.000000	0.000000	7.204639	108.8	NaN	0.000000	0.001630	0.001686	28.0877	42.9535	0.001839	23358.6	2.776802	-0.916719	107.883	1.199661	0.047519	0.047216	108.8	23358.6	0.044025	0.074845	1453.67	78008
75	2.000000	1.202421	7.36578e+06	-42389.1	955.816	-29783.3	0.000000	0.000000	7.207653	122.346	NaN	0.000000	0.001644	0.001729	28.1274	45.6931	0.001782	25637.5	5.473062	175.585	120.221	1.202157	0.049976	0.049712	122.346	25637.5	0.046397	0.081602	1499.3	81997.4
75	2.000000	1.204973	7.36578e+06	-42389.1	955.818	-29783.3	0.000000	0.000000	7.210730	135.132	NaN	0.000000	0.001622	0.001682	28.1144	47.2194	0.001783	26476.1	4.444089	-2.714480	131.896	1.204481	0.052527	0.052035	135.132	26476.1	0.048699	0.088435	1528.03	81342
75	2.000000	1.207460	7.36578e+06	-42389.1	955.817	-29783.3	0.000000	0.000000	7.213790	149.083	NaN	0.000000	0.001632	0.001735	28.0827	50.0247	0.001920	26058	5.169094	176.535	147.789	1.207074	0.055015	0.054629	149.083	26058	0.050724	0.094663	1574.88	77379
75	2.000000	1.209946	7.36578e+06	-42389.1	955.818	-29783.3	0.000000	0.000000	7.216648	158.12	NaN	0.000000	0.001642	0.001734	28.0855	52.5417	0.001879	27968.5	8.412161	-7.049299	157.092	1.209585	0.057501	0.057140	158.12	27968.5	0.053261	0.102758	1538.75	79714
75	2.000000	1.212414	7.36578e+06	-42389.1	955.816	-29783.3	0.000000	0.000000	7.219735	173.189	NaN	0.000000	0.001609	0.001710	28.126	53.9965	0.001745	30945	4.068406	176.105	169.735	1.212026	0.059969	0.059580	173.189	30945	0.055771	0.111082	1559.11	84828.3
75	2.000000	1.214972	7.36578e+06	-42389.1	955.818	-29783.3	0.000000	0.000000	7.222899	187.94	NaN	0.000000	0.001584	0.001686	28.1136	56.7971	0.001855	30614.2	6.202535	-5.897439	186.718	1.214675	0.062527	0.062230	187.94	30614.2	0.057922	0.118464	1586.48	81265.1
75	2.000000	1.217464	7.36578e+06	-42389.1	955.817	-29783.3	0.000000	0.000000	7.225887	200.016	NaN	0.000000	0.001557	0.001667	28.0827	57.669	0.001769	32608.3	3.104615	176.403	200.818	1.217194	0.065018	0.064749	200.016	32608.3	0.060418	0.127311	1571.09	83496.5
75	2.000000	1.219880	7.36578e+06	-42389.1	955.818	-29783.3	0.000000	0.000000	7.229029	217.657	NaN	0.000000	0.001593	0.001708	28.0888	61.2188	0.001655	37000.5	7.144935	-9.920778	213.034	1.219558	0.067435	0.067113	217.657	37000.5	0.063023	0.136870	1590.25	91374.9
75	2.000000	1.222449	7.36578e+06	-42389.1	955.817	-29783.3	0.000000	0.000000	7.232045	228.536	NaN	0.000000	0.001604	0.001688	28.1264	65.0962	0.001790	36369.2	4.710220	173.331	227.229	1.222212	0.070003	0.069767	228.536	36369.2	0.065291	0.145460	1571.12	87123.6
75	2.000000	1.224902	7.36578e+06	-42389.1	955.818	-29783.3	0.000000	0.000000	7.235239	246.566	NaN	0.000000	0.001610	0.001726	28.1151	66.5136	0.001784	37277.3	4.160350	-5.907778	242.687	1.224554	0.072457	0.072108	246.566	37277.3	0.067496	0.154052	1600.54	86773
75	2.000000	1.227437	7.36578e+06	-42389.1	955.816	-29783.3	0.000000	0.000000	7.238239	257.869	NaN	0.000000	0.001603	0.001679	28.0831	69.4392	0.001818	38201.5	5.354047	171.984	258.682	1.227106	0.074992	0.074661	257.869	38201.5	0.069929	0.163800	1574.29	86237.7
75	2.000000	1.229880	7.36578e+06	-42389.1	955.817	-29783.3	0.000000	0.000000	7.241571	279.534	NaN	0.000000	0.001655	0.001670	28.0865	72.4983	0.001842	39351.7	2.643546	-4.606180	274.889	1.229540	0.077434	0.077095	279.534	39351.7	0.072107	0.172763	1618.02	86499
75	2.000000	1.232439	7.36578e+06	-42389.1	955.817	-29783.3	0.000000	0.000000	7.244493	288.364	NaN	0.000000	0.001649	0.001741	28.1242	74.3777	0.001690	44020.3	3.277340	173.901	287.792	1.232128	0.079993	0.079683	288.364	44020.3	0.075080	0.185365	1555.66	93413.9
75	2.000000	1.234927	7.36578e+06	-42389.1	955.817	-29783.3	0.000000	0.000000	7.247805	308.383	NaN	0.000000	0.001588	0.001735	28.1131	77.3832	0.001814	42668.9	8.841194	-10.9251	306.396	1.234560	0.082482	0.082115	308.383	42668.9	0.077062	0.193994	1589.65	88509.6
75	2.000000	1.237437	7.36578e+06	-42389.1	955.818	-29783.3	0.000000	0.000000	7.250893	322.442	NaN	0.000000	0.001630	0.001707	28.0811	78.4556	0.001691	46383.6	6.440318	170.053	322.442	1.237054	0.084992	0.084609	322.442	46383.6	0.079778	0.206123	1564.32	93341.4
75	2.000000	1.239908	7.36578e+06	-42389.1	955.817	-29783.3	0.000000	0.000000	7.254166	341.961	NaN	0.000000	0.001580	0.001717	28.086	80.8637	0.001807	44761.5	4.213051	-7.448234	339	1.239508	0.087463	0.087063	341.961	44761.5	0.081733	0.215064	1590.04	88185
75	2.000000	1.242364	7.36578e+06	-42389.1	955.817	-29783.3	0.000000	0.000000	7.257165	355.177	NaN	0.000000	0.001605	0.001697	28.1252	82.9772	0.001886	43998.5	-1.854395	178.65	352.677	1.242161	0.089919	0.089716	355.177	43998.5	0.083864	0.225014	1578.47	84743.6
75	2.000000	1.244952	7.36578e+06	-42389.1	955.818	-29783.3	0.000000	0.000000	7.260701	378.237	NaN	0.000000	0.001598	0.001716	28.1133	86.4526	0.001986	43540.1	8.846076	-11.7038	375.813	1.244535	0.092507	0.092089	378.237	43540.1	0.085991	0.235153	1608.47	82032.7
75	2.000000	1.247421	7.36578e+06	-42389.1	955.818	-29783.3	0.000000	0.000000	7.263838	394.496	NaN	0.000000	0.001624	0.001711	28.0835	86.9319	0.001897	45837.1	3.918888	172.503	393.773	1.247192	0.094976	0.094747	394.496	45837.1	0.088521	0.247484	1594.03	84181.6
75	2.000000	1.249824	7.36578e+06	-42389.1	955.817	-29783.3	0.000000	0.000000	7.267176	417.243	NaN	0.000000	0.001589	0.001728	28.0853	90.7571	0.001910	47515.5	6.923515	-10.2197	410.52	1.249459	0.097378	0.097014	417.243	47515.5	0.090793	0.258807	1612.18	85333.6
75	2.000000	1.252407	7.36578e+06	-42389.1	955.817	-29783.3	0.000000	0.000000	7.270447	433.982	NaN	0.000000	0.001625	0.001744	28.1238	92.6245	0.001888	49070.1	7.055271	169.417	433.507	1.252121	0.099962	0.099676	433.982	49070.1	0.093329	0.271729	1597.12	86004.7
75	2.000000	1.254900	7.36578e+06	-42389.1	955.817	-29783.3	0.000000	0.000000	7.274074	461.577	NaN	0.000000	0.001622	0.001762	28.1131	93.5191	0.001839	50841.6	6.158184	-9.553423	455.952	1.254456	0.102455	0.102010	461.577	50841.6	0.095646	0.283790	1626.47	87195.4
75	2.000000	1.257349	7.36578e+06	-42389.1	955.817	-29783.3	0.000000	0.000000	7.277377	482.373	NaN	0.000000	0.001617	0.001751	28.0826	95.8184	0.001797	53327.6	2.634609	173.517	478.178	1.256983	0.104903	0.104538	482.373	53327.6	0.098119	0.296937	1624.49	89411.4
75	2.000000	1.259846	7.36578e+06	-42389.1	955.817	-29783.3	0.000000	0.000000	7.280743	503.497	NaN	0.000000	0.001622	0.001743	28.0867	99.0884	0.001757	56385.9	7.686726	-12.2186	498.31	1.259409	0.107401	0.106964	503.497	56385.9	0.100704	0.310972	1619.11	92381.1
75	2.000000	1.260867	7.36578e+06	-42389.1	955.817	-29783.3	0.000000	0.000000	7.281864	505.934	NaN	0.000000	0.001616	0.001785	28.1148	99.3636	0.001679	59180.6	7.025704	-12.0374	503.513	1.260616	0.108422	0.108171	505.934	59180.6	0.102010	0.318180	1590.09	95855.3