File: remote_trans/data/nanoindenter/0828-1/data/Data_2025-08-06,11h17m57s/2025-07-22_16-23-58_1_1124.txt
2025-07-22, 16:23:58, 1
Index	Phase	Displacement	Time	Pos X	Pos Y	Pos Z	Rot A	Rot B	Piezo Z	Force A	Force B	Gripper	Voltage A	Voltage B	Temperature	Amplitude force	Amplitude pos	Stiffness	Phase shift	Phase excitation	Force A raw	Displacement raw	HMax	HMax raw	Real Force	Real Stiffness	Contact Depth	Area	Hardness	Reduced Mod.
[#]	[#]	[um]	[s]	[um]	[um]	[um]	[m°]	[m°]	[um]	[uN]	[uN]	[V]	[V]	[V]	[°C]	[uN]	[um]	[N/m]	[°]	[°]	[uN]	[um]	[um]	[um]	[uN]	[N/m]	[um]	[um^2]	[MPa]	[MPa]
1124	1.000000	0.002168	7.37605e+06	-56339.1	1055.82	-29739.1	0.000000	0.000000	6.002813	-0.101691	NaN	0.000000	0.001673	0.001665	28.0837	0.101807	0.000888	114.663	-168.438	-163.385	-0.024222	0.000913	-1.121469	-1.122724	-0.101691	114.663	-1.120804	-9.533731E+14	1.066649E-16	NaN
1124	1.000000	0.012210	7.37605e+06	-56339.1	1055.82	-29739.1	0.000000	0.000000	6.012858	-0.019122	NaN	0.000000	0.001709	0.001652	28.0837	0.119996	0.001191	100.776	-145.779	12.5879	-0.011916	0.010816	-1.111427	-1.112821	-0.019122	100.776	-1.111285	-7.104454E+14	2.691557E-17	NaN
1124	1.000000	0.022096	7.37605e+06	-56339.1	1055.82	-29739.1	0.000000	0.000000	6.022744	-0.037514	NaN	0.000000	0.001710	0.001674	28.0834	0.095896	0.001681	57.0374	154.602	-160.632	-0.046708	0.020789	-1.101541	-1.102848	-0.037514	57.0374	-1.101048	-5.177673E+14	7.245270E-17	NaN
1124	1.000000	0.032104	7.37605e+06	-56339.1	1055.82	-29739.1	0.000000	0.000000	6.032754	0.028550	NaN	0.000000	0.001684	0.001632	28.0834	0.039582	0.001972	20.0718	-94.9329	18.3581	0.005371	0.030721	-1.091534	-1.092916	0.028550	20.0718	-1.092600	-3.987738E+14	-7.159506E-17	NaN
1124	1.000000	0.042083	7.37605e+06	-56339.1	1055.82	-29739.1	0.000000	0.000000	6.042731	-0.028465	NaN	0.000000	0.001698	0.001611	28.0825	0.026497	0.001992	13.3012	-73.7307	-165.52	0.022379	0.040772	-1.081554	-1.082866	-0.028465	13.3012	-1.079949	-2.696740E+14	1.055521E-16	NaN
1124	1.000000	0.052074	7.37605e+06	-56339.1	1055.82	-29739.1	0.000000	0.000000	6.052724	0.016482	NaN	0.000000	0.001680	0.001652	28.0823	0.115732	0.001967	58.8457	-2.024189	13.904	-0.028867	0.050777	-1.071563	-1.072860	0.016482	58.8457	-1.071773	-2.094176E+14	-7.870454E-17	NaN
1124	1.000000	0.062127	7.37605e+06	-56339.1	1055.82	-29739.1	0.000000	0.000000	6.062774	-0.071415	NaN	0.000000	0.001696	0.001670	28.0824	0.069281	0.002117	32.7321	164.515	-162.009	0.001037	0.060773	-1.061510	-1.062864	-0.071415	32.7321	-1.059873	-1.449170E+14	4.928011E-16	NaN
1124	1.000000	0.072106	7.37605e+06	-56339.1	1055.82	-29739.1	0.000000	0.000000	6.072753	-0.047941	NaN	0.000000	0.001664	0.001664	28.0827	0.027411	0.002091	13.1078	-116.065	21.3634	0.039366	0.070757	-1.051532	-1.052880	-0.047941	13.1078	-1.048788	-1.028318E+14	4.662106E-16	NaN
1124	1.000000	0.082101	7.37605e+06	-56339.1	1055.82	-29739.1	0.000000	0.000000	6.082750	-0.017494	NaN	0.000000	0.001615	0.001685	28.0826	0.057586	0.001944	29.6264	-35.7251	-164.472	-0.075703	0.080786	-1.041536	-1.042851	-0.017494	29.6264	-1.041093	-8.103344E+13	2.158873E-16	NaN
1124	1.000000	0.092121	7.37605e+06	-56339.1	1055.82	-29739.1	0.000000	0.000000	6.092770	-0.018313	NaN	0.000000	0.001596	0.001651	28.0823	0.035998	0.002018	17.8343	-93.5493	16.5461	-0.010918	0.090826	-1.031516	-1.032811	-0.018313	17.8343	-1.030746	-5.881794E+13	3.113481E-16	NaN
1124	1.000000	0.102118	7.37605e+06	-56339.1	1055.82	-29739.1	0.000000	0.000000	6.102767	-0.002395	NaN	0.000000	0.001637	0.001554	28.0822	0.148111	0.002069	71.5908	-98.3219	-165.522	0.053364	0.100830	-1.021519	-1.022807	-0.002395	71.5908	-1.021494	-4.416237E+13	5.423846E-17	NaN
1124	1.000000	0.112141	7.37605e+06	-56339.1	1055.82	-29739.1	0.000000	0.000000	6.112788	-0.064236	NaN	0.000000	0.001615	0.001592	28.0823	0.079785	0.002057	38.7936	23.0862	14.4525	-0.063853	0.110812	-1.011496	-1.012825	-0.064236	38.7936	-1.010254	-3.117441E+13	2.060552E-15	NaN
1124	1.000000	0.122132	7.37605e+06	-56339.1	1055.82	-29739.1	0.000000	0.000000	6.122783	0.043002	NaN	0.000000	0.001624	0.001619	28.0822	0.121754	0.002006	60.6871	-38.6512	-162.967	0.033037	0.120833	-1.001505	-1.002804	0.043002	60.6871	-1.002037	-2.416503E+13	-1.779516E-15	NaN
1124	1.000000	0.132120	7.37605e+06	-56339.1	1055.82	-29739.1	0.000000	0.000000	6.132765	-0.105919	NaN	0.000000	0.001624	0.001608	28.0824	0.047456	0.001913	24.8014	-38.9757	13.2537	-0.078184	0.130738	-0.991517	-0.992900	-0.105919	24.8014	-0.988314	-1.579095E+13	6.707609E-15	NaN
1124	1.000000	0.142145	7.37605e+06	-56339.1	1055.82	-29739.1	0.000000	0.000000	6.142792	-0.050200	NaN	0.000000	0.001631	0.001646	28.0823	0.027094	0.001888	14.348	36.5736	-163.622	-0.092052	0.140811	-0.981492	-0.982826	-0.050200	14.348	-0.978868	-1.178028E+13	4.261375E-15	NaN
1124	1.000000	0.152133	7.37605e+06	-56339.1	1055.82	-29739.1	0.000000	0.000000	6.152780	-0.056856	NaN	0.000000	0.001607	0.001636	28.0825	0.133925	0.002133	62.7892	-163.404	15.5064	0.037453	0.150768	-0.971504	-0.972869	-0.056856	62.7892	-0.970825	-9.178668E+12	6.194336E-15	NaN
1124	1.000000	0.162148	7.37605e+06	-56339.1	1055.82	-29739.2	0.000000	0.000000	6.162799	0.039858	NaN	0.000000	0.001600	0.001658	28.0821	0.053826	0.001855	29.0148	-21.1221	-163.086	-0.016350	0.160864	-0.961489	-0.962773	0.039858	29.0148	-0.962519	-7.093030E+12	-5.619267E-15	NaN
1124	1.000000	0.172165	7.37605e+06	-56339.1	1055.82	-29739.2	0.000000	0.000000	6.172814	0.002777	NaN	0.000000	0.001612	0.001668	28.0824	0.127150	0.001959	64.9215	32.4819	18.7789	-0.091289	0.170831	-0.951472	-0.952806	0.002777	64.9215	-0.951504	-5.038655E+12	-5.511733E-16	NaN
1124	1.000000	0.182144	7.37605e+06	-56339.1	1055.82	-29739.1	0.000000	0.000000	6.182790	-0.083175	NaN	0.000000	0.001590	0.001659	28.0836	0.075463	0.002076	36.3515	54.3382	-166.259	-0.095828	0.180861	-0.941493	-0.942776	-0.083175	36.3515	-0.939777	-3.500516E+12	2.376091E-14	NaN
1124	1.000000	0.192171	7.37605e+06	-56339.1	1055.82	-29739.1	0.000000	0.000000	6.192819	-0.048145	NaN	0.000000	0.001630	0.001625	28.0839	0.050024	0.001838	27.2098	-113.911	17.1746	0.028109	0.190799	-0.931466	-0.932838	-0.048145	27.2098	-0.930139	-2.594601E+12	1.855587E-14	NaN
1124	1.000000	0.202148	7.37605e+06	-56339.1	1055.82	-29739.2	0.000000	0.000000	6.202796	-0.039966	NaN	0.000000	0.001607	0.001652	28.0835	0.070173	0.002069	33.9247	68.8769	-166.397	-0.053298	0.200885	-0.921489	-0.922752	-0.039966	33.9247	-0.920605	-1.929214E+12	2.071645E-14	NaN
1124	1.000000	0.212171	7.37605e+06	-56339.1	1055.82	-29739.2	0.000000	0.000000	6.212820	-0.008116	NaN	0.000000	0.001698	0.001618	28.0836	0.163575	0.002059	79.4512	-179.109	16.6987	0.044262	0.210794	-0.911466	-0.912843	-0.008116	79.4512	-0.911389	-1.448532E+12	5.602916E-15	NaN
1124	1.000000	0.222166	7.37605e+06	-56339.1	1055.82	-29739.2	0.000000	0.000000	6.222812	-0.078285	NaN	0.000000	0.001661	0.001634	28.0837	0.097942	0.001919	51.035	116.061	-165.077	-0.024828	0.220893	-0.901471	-0.902745	-0.078285	51.035	-0.900321	-1.026590E+12	7.625754E-14	NaN
1124	1.000000	0.232162	7.37605e+06	-56339.1	1055.82	-29739.2	0.000000	0.000000	6.232811	-0.015256	NaN	0.000000	0.001679	0.001681	28.0836	0.072206	0.001975	36.5553	-85.6756	15.9227	-0.067318	0.230836	-0.891475	-0.892802	-0.015256	36.5553	-0.891162	-7.720040E+11	1.976177E-14	NaN
1124	1.000000	0.242161	7.37605e+06	-56339.1	1055.82	-29739.2	0.000000	0.000000	6.242808	-0.063419	NaN	0.000000	0.001653	0.001677	28.0835	0.063478	0.002101	30.2189	38.2269	-165.503	-0.012253	0.240889	-0.881476	-0.882748	-0.063419	30.2189	-0.879902	-5.437283E+11	1.166368E-13	NaN
1124	1.000000	0.252158	7.37605e+06	-56339.1	1055.82	-29739.2	0.000000	0.000000	6.252807	-0.025776	NaN	0.000000	0.001647	0.001675	28.0835	0.055194	0.002028	27.2105	-85.0864	14.6912	-0.026444	0.250769	-0.871479	-0.872868	-0.025776	27.2105	-0.870768	-4.091067E+11	6.300563E-14	NaN
1124	1.000000	0.262166	7.37605e+06	-56339.1	1055.82	-29739.2	0.000000	0.000000	6.262816	0.024943	NaN	0.000000	0.001633	0.001686	28.0837	0.044657	0.001954	22.8515	-164.527	-165.583	0.008610	0.260921	-0.861471	-0.862716	0.024943	22.8515	-0.862290	-3.141312E+11	-7.940239E-14	NaN
1124	1.000000	0.272183	7.37605e+06	-56339.1	1055.82	-29739.2	0.000000	0.000000	6.272832	-0.015872	NaN	0.000000	0.001711	0.001659	28.0838	0.064916	0.001986	32.6824	-155.407	13.4171	-0.029027	0.270804	-0.851454	-0.852833	-0.015872	32.6824	-0.851089	-2.215596E+11	7.163977E-14	NaN
1124	1.000000	0.282196	7.37605e+06	-56339.1	1055.82	-29739.2	0.000000	0.000000	6.282844	-0.030361	NaN	0.000000	0.001652	0.001629	28.0838	0.012582	0.002058	6.113124	-173.699	-163.465	-0.031444	0.280904	-0.841441	-0.842734	-0.030361	6.113124	-0.837716	-1.459983E+11	2.079545E-13	NaN
1124	1.000000	0.292224	7.37605e+06	-56339.1	1055.82	-29739.2	0.000000	0.000000	6.292874	0.008172	NaN	0.000000	0.001671	0.001658	28.0839	0.046643	0.002056	22.6867	-113.944	17.167	0.014271	0.290785	-0.831413	-0.832852	0.008172	22.6867	-0.831683	-1.209478E+11	-6.756477E-14	NaN
1124	1.000000	0.302192	7.37605e+06	-56339.1	1055.82	-29739.2	0.000000	0.000000	6.302840	-0.032516	NaN	0.000000	0.001667	0.001653	28.0839	0.030528	0.002043	14.9431	48.7354	-164.405	0.050787	0.300853	-0.821445	-0.822784	-0.032516	14.9431	-0.819813	-8.349734E+10	3.894274E-13	NaN
1124	1.000000	0.312197	7.37605e+06	-56339.1	1055.82	-29739.2	0.000000	0.000000	6.312849	0.080109	NaN	0.000000	0.001649	0.001622	28.0838	0.025605	0.002016	12.6979	118.86	16.537	0.116565	0.310850	-0.811440	-0.812787	0.080109	12.6979	-0.816172	-7.452352E+10	-1.074946E-12	NaN
1124	1.000000	0.322219	7.37605e+06	-56339.1	1055.82	-29739.2	0.000000	0.000000	6.322868	-0.006480	NaN	0.000000	0.001668	0.001635	28.0826	0.055125	0.001929	28.5763	58.6533	-164.415	-0.015406	0.320939	-0.801418	-0.802698	-0.006480	28.5763	-0.801248	-4.675206E+10	1.385973E-13	NaN
1124	1.000000	0.332210	7.37605e+06	-56339.1	1055.82	-29739.2	0.000000	0.000000	6.332856	-0.063887	NaN	0.000000	0.001687	0.001689	28.0832	0.070491	0.001972	35.7438	-4.432039	14.7418	-0.089382	0.330869	-0.791427	-0.792769	-0.063887	35.7438	-0.790087	-3.298083E+10	1.937099E-12	NaN
1124	1.000000	0.342231	7.37605e+06	-56339.1	1055.82	-29739.2	0.000000	0.000000	6.342881	0.027247	NaN	0.000000	0.001668	0.001678	28.0828	0.044896	0.001887	23.7969	121.756	-165.036	-0.022014	0.340881	-0.781407	-0.782756	0.027247	23.7969	-0.782265	-2.582330E+10	-1.055115E-12	NaN
1124	1.000000	0.352198	7.37605e+06	-56339.1	1055.82	-29739.2	0.000000	0.000000	6.352845	-0.061073	NaN	0.000000	0.001673	0.001627	28.0829	0.057827	0.001878	30.7962	-101.855	16.5027	-0.113960	0.350853	-0.771439	-0.772784	-0.061073	30.7962	-0.769951	-1.756485E+10	3.477000E-12	NaN
1124	1.000000	0.362243	7.37605e+06	-56339.1	1055.82	-29739.2	0.000000	0.000000	6.362892	-0.011116	NaN	0.000000	0.001704	0.001714	28.0828	0.051874	0.002060	25.1822	140.965	-167.044	-0.057502	0.360912	-0.761394	-0.762726	-0.011116	25.1822	-0.761063	-1.329725E+10	8.359429E-13	NaN
1124	1.000000	0.372238	7.37605e+06	-56339.1	1055.82	-29739.2	0.000000	0.000000	6.372887	-0.010046	NaN	0.000000	0.001654	0.001691	28.0832	0.071343	0.002023	35.2739	-153.353	17.0946	-0.002285	0.370858	-0.751399	-0.752779	-0.010046	35.2739	-0.751186	-9.757939E+9	1.029536E-12	NaN
1124	1.000000	0.382225	7.37605e+06	-56339.1	1055.82	-29739.2	0.000000	0.000000	6.382871	-0.071572	NaN	0.000000	0.001639	0.001662	28.0827	0.063866	0.002001	31.9248	150.076	-162.9	-0.057638	0.380928	-0.741412	-0.742709	-0.071572	31.9248	-0.739731	-6.813838E+9	1.050395E-11	NaN
1124	1.000000	0.392265	7.37605e+06	-56339.1	1055.82	-29739.2	0.000000	0.000000	6.392914	-0.011037	NaN	0.000000	0.001637	0.001681	28.0829	0.101826	0.002059	49.4566	-144.822	16.0535	0.007525	0.390897	-0.731372	-0.732740	-0.011037	49.4566	-0.731204	-5.214593E+9	2.116494E-12	NaN
1124	1.000000	0.402256	7.37605e+06	-56339.1	1055.82	-29739.2	0.000000	0.000000	6.402904	-0.035848	NaN	0.000000	0.001712	0.001630	28.0827	0.073890	0.002007	36.8204	-31.5099	-162.771	-0.038928	0.400872	-0.721381	-0.722765	-0.035848	36.8204	-0.720651	-3.744128E+9	9.574513E-12	NaN
1124	1.000000	0.412255	7.37605e+06	-56339.1	1055.82	-29739.2	0.000000	0.000000	6.412902	-0.058508	NaN	0.000000	0.001579	0.001690	28.083	0.049034	0.002023	24.2345	105.646	12.2699	-0.090435	0.410862	-0.711382	-0.712775	-0.058508	24.2345	-0.709571	-2.643585E+9	2.213192E-11	NaN
1124	1.000000	0.422235	7.37605e+06	-56339.1	1055.82	-29739.2	0.000000	0.000000	6.422884	0.009042	NaN	0.000000	0.001593	0.001701	28.0827	0.001135	0.001982	0.572699	75.2829	-164.773	0.015314	0.420897	-0.701403	-0.702740	0.009042	0.572699	-0.713244	-2.967001E+9	-3.047625E-12	NaN
1124	1.000000	0.432237	7.37605e+06	-56339.1	1055.82	-29739.2	0.000000	0.000000	6.432885	-0.031441	NaN	0.000000	0.001662	0.001701	28.0829	0.030148	0.002109	14.2962	89.1258	15.9787	-0.040393	0.430950	-0.691400	-0.692687	-0.031441	14.2962	-0.689750	-1.417446E+9	2.218119E-11	NaN
1124	1.000000	0.442221	7.37605e+06	-56339.1	1055.82	-29739.2	0.000000	0.000000	6.442867	-0.084480	NaN	0.000000	0.001656	0.001681	28.0831	0.069238	0.001970	35.1382	154.686	-167.998	-0.073173	0.440991	-0.681416	-0.682646	-0.084480	35.1382	-0.679613	-1.030182E+9	8.200447E-11	NaN
1124	1.000000	0.452244	7.37605e+06	-56339.1	1055.82	-29739.2	0.000000	0.000000	6.452891	-0.054565	NaN	0.000000	0.001675	0.001743	28.0842	0.063419	0.001991	31.8477	-146.407	14.3007	-0.009731	0.450867	-0.671393	-0.672770	-0.054565	31.8477	-0.670108	-7.636026E+8	7.145798E-11	NaN
1124	1.000000	0.462266	7.37605e+06	-56339.1	1055.82	-29739.2	0.000000	0.000000	6.462913	-0.057434	NaN	0.000000	0.001653	0.001719	28.0842	0.070887	0.001922	36.8825	14.3869	-165.319	-0.025579	0.461003	-0.661371	-0.662634	-0.057434	36.8825	-0.660203	-5.587913E+8	1.027830E-10	NaN
1124	1.000000	0.472263	7.37605e+06	-56339.1	1055.82	-29739.2	0.000000	0.000000	6.472909	-0.074003	NaN	0.000000	0.001668	0.001713	28.0842	0.031286	0.001962	15.9471	-168.365	18.0925	0.003615	0.470927	-0.651374	-0.652710	-0.074003	15.9471	-0.647894	-3.789347E+8	1.952916E-10	NaN
1124	1.000000	0.482251	7.37605e+06	-56339.1	1055.82	-29739.2	0.000000	0.000000	6.482904	0.087755	NaN	0.000000	0.001685	0.001706	28.0841	0.143720	0.001986	72.3706	133.652	-166.832	-0.088638	0.480936	-0.641386	-0.642701	0.087755	72.3706	-0.642296	-3.175282E+8	-2.763695E-10	NaN
1124	1.000000	0.492287	7.37605e+06	-56339.1	1055.82	-29739.2	0.000000	0.000000	6.492934	-0.052903	NaN	0.000000	0.001675	0.001776	28.084	0.056897	0.001995	28.5252	-155.183	18.4484	-0.089255	0.490955	-0.631350	-0.632682	-0.052903	28.5252	-0.629959	-2.150111E+8	2.460483E-10	NaN
1124	1.000000	0.502340	7.37605e+06	-56339.1	1055.82	-29739.2	0.000000	0.000000	6.502991	0.044746	NaN	0.000000	0.001652	0.001720	28.0839	0.028343	0.002120	13.3707	114.273	-163.734	-0.003625	0.500992	-0.621297	-0.622645	0.044746	13.3707	-0.623807	-1.769907E+8	-2.528163E-10	NaN
1124	1.000000	0.512285	7.37605e+06	-56339.1	1055.82	-29739.2	0.000000	0.000000	6.512934	-0.012758	NaN	0.000000	0.001594	0.001733	28.0843	0.018047	0.001907	9.464035	-78.6266	16.1963	0.023572	0.510930	-0.611352	-0.612707	-0.012758	9.464035	-0.610341	-1.155589E+8	1.103995E-10	NaN
1124	1.000000	0.522286	7.37605e+06	-56339.1	1055.82	-29739.2	0.000000	0.000000	6.522934	-0.030639	NaN	0.000000	0.001637	0.001736	28.0839	0.060445	0.002007	30.1178	73.8461	-164.147	-0.104589	0.521027	-0.601351	-0.602610	-0.030639	30.1178	-0.600588	-8.483246E+7	3.611762E-10	NaN
1124	1.000000	0.532297	7.37605e+06	-56339.1	1055.82	-29739.2	0.000000	0.000000	6.532947	-0.002348	NaN	0.000000	0.001620	0.001698	28.0841	0.051499	0.001922	26.801	99.7968	17.4056	-0.032652	0.530973	-0.591340	-0.592664	-0.002348	26.801	-0.591274	-6.312907E+7	3.718599E-11	NaN
1124	1.000000	0.542306	7.37605e+06	-56339.1	1055.82	-29739.2	0.000000	0.000000	6.542956	0.000511	NaN	0.000000	0.001619	0.001666	28.0839	0.045186	0.002055	21.9908	-169.117	-165.787	0.032546	0.540956	-0.581331	-0.582681	0.000511	21.9908	-0.581348	-4.606094E+7	-1.110064E-11	NaN
1124	1.000000	0.552310	7.37605e+06	-56339.1	1055.82	-29739.2	0.000000	0.000000	6.552955	-0.101734	NaN	0.000000	0.001601	0.001692	28.084	0.140994	0.002055	68.6075	171.314	16.6123	-0.158462	0.550942	-0.571327	-0.572695	-0.101734	68.6075	-0.570215	-3.233002E+7	3.146728E-9	NaN
1124	1.000000	0.562308	7.37605e+06	-56339.1	1055.82	-29739.2	0.000000	0.000000	6.562957	-0.014468	NaN	0.000000	0.001630	0.001695	28.0839	0.045706	0.001922	23.7847	45.3111	-165.26	0.024430	0.561024	-0.561329	-0.562613	-0.014468	23.7847	-0.560873	-2.401308E+7	6.025099E-10	NaN
1124	1.000000	0.572290	7.37605e+06	-56339.1	1055.82	-29739.2	0.000000	0.000000	6.572938	-0.043660	NaN	0.000000	0.001613	0.001721	28.0839	0.168872	0.002034	83.0212	167.421	16.4459	0.011400	0.571015	-0.551347	-0.552622	-0.043660	83.0212	-0.550952	-1.750432E+7	2.494232E-9	NaN
1124	1.000000	0.582328	7.37605e+06	-56339.1	1055.82	-29739.2	0.000000	0.000000	6.582977	-0.019211	NaN	0.000000	0.001703	0.001718	28.0839	0.058747	0.001983	29.622	-0.434012	-163.46	0.013865	0.581032	-0.541309	-0.542605	-0.019211	29.622	-0.540822	-1.266959E+7	1.516282E-9	NaN
1124	1.000000	0.592304	7.37605e+06	-56339.1	1055.82	-29739.2	0.000000	0.000000	6.592957	0.081883	NaN	0.000000	0.001691	0.001711	28.0827	0.066258	0.001957	33.8513	28.8758	15.1333	0.011983	0.590975	-0.531333	-0.532662	0.081883	33.8513	-0.533147	-9.91456e+06	-8.258846E-9	NaN
1124	1.000000	0.602332	7.37605e+06	-56339.1	1055.82	-29739.2	0.000000	0.000000	6.602974	-0.163044	NaN	0.000000	0.001706	0.001701	28.0825	0.085822	0.002094	40.9895	-144.369	-163.681	-0.119453	0.601084	-0.521305	-0.522553	-0.163044	40.9895	-0.518322	-6.16963e+06	2.642677E-8	NaN
1124	1.000000	0.612311	7.37605e+06	-56339.1	1055.82	-29739.2	0.000000	0.000000	6.612959	-0.028361	NaN	0.000000	0.001710	0.001685	28.0827	0.044464	0.001994	22.2954	112.777	13.8432	-0.016319	0.610976	-0.511326	-0.512661	-0.028361	22.2954	-0.510372	-4.78188e+06	5.930837E-9	NaN
1124	1.000000	0.622352	7.37605e+06	-56339.1	1055.82	-29739.2	0.000000	0.000000	6.623003	0.043771	NaN	0.000000	0.001682	0.001736	28.0827	0.032903	0.002207	14.9106	108.068	-162.796	0.026984	0.621057	-0.501285	-0.502580	0.043771	14.9106	-0.503486	-3.83393e+06	-1.141669E-8	NaN
1124	1.000000	0.632352	7.37605e+06	-56339.1	1055.82	-29739.2	0.000000	0.000000	6.633000	-0.034430	NaN	0.000000	0.001680	0.001699	28.0825	0.083854	0.001997	41.9802	130.827	14.9643	-0.042861	0.630953	-0.491285	-0.492684	-0.034430	41.9802	-0.490669	-2.5395e+06	1.355795E-8	NaN
1124	1.000000	0.642325	7.37605e+06	-56339.1	1055.82	-29739.2	0.000000	0.000000	6.642973	-0.037576	NaN	0.000000	0.001682	0.001679	28.0824	0.094494	0.001907	49.5406	-143.721	-160.582	-0.052008	0.641018	-0.481312	-0.482619	-0.037576	49.5406	-0.480743	-1.8447e+06	2.036991E-8	NaN
1124	1.000000	0.652332	7.37605e+06	-56339.1	1055.82	-29739.2	0.000000	0.000000	6.652979	-0.049241	NaN	0.000000	0.001691	0.001711	28.0826	0.098527	0.002064	47.7388	86.7038	16.1248	-0.038193	0.651014	-0.471305	-0.472623	-0.049241	47.7388	-0.470531	-1.32697e+06	3.710763E-8	NaN
1124	1.000000	0.662356	7.37605e+06	-56339.1	1055.82	-29739.2	0.000000	0.000000	6.663003	-0.049238	NaN	0.000000	0.001672	0.001698	28.0827	0.118049	0.002195	53.7844	-48.2465	-161.354	-0.027281	0.661051	-0.461281	-0.462586	-0.049238	53.7844	-0.460594	-962430	5.115999E-8	NaN
1124	1.000000	0.672372	7.37605e+06	-56339.1	1055.82	-29739.2	0.000000	0.000000	6.673020	-0.016716	NaN	0.000000	0.001681	0.001733	28.0824	0.031755	0.002014	15.7676	127.635	16.0563	-0.050408	0.671042	-0.451265	-0.452595	-0.016716	15.7676	-0.450470	-693365	2.410912E-8	NaN
1124	1.000000	0.682370	7.37605e+06	-56339.1	1055.82	-29739.2	0.000000	0.000000	6.683020	0.019721	NaN	0.000000	0.001672	0.001711	28.0826	0.064525	0.001951	33.0707	-96.2555	-170.417	0.001858	0.681085	-0.441267	-0.442553	0.019721	33.0707	-0.441714	-521860	-3.779075E-8	NaN
1124	1.000000	0.692384	7.37605e+06	-56339.1	1055.82	-29739.2	0.000000	0.000000	6.693032	-0.034821	NaN	0.000000	0.001686	0.001700	28.0825	0.036780	0.002046	17.9734	156.57	14.6467	-0.017740	0.691019	-0.431253	-0.432618	-0.034821	17.9734	-0.429800	-354185	9.831293E-8	NaN
1124	1.000000	0.702346	7.37605e+06	-56339.1	1055.82	-29739.2	0.000000	0.000000	6.702995	-0.008341	NaN	0.000000	0.001652	0.001711	28.083	0.039698	0.002042	19.4442	-151.992	-162.296	-0.041433	0.701051	-0.421291	-0.422586	-0.008341	19.4442	-0.420969	-265560	3.140901E-8	NaN
1124	1.000000	0.712382	7.37605e+06	-56339.1	1055.82	-29739.2	0.000000	0.000000	6.713027	-0.092730	NaN	0.000000	0.001638	0.001726	28.0826	0.035215	0.002100	16.7692	12.418	14.7627	-0.056831	0.710988	-0.411255	-0.412649	-0.092730	16.7692	-0.407108	-168756	5.494938E-7	NaN
1124	1.000000	0.722374	7.37605e+06	-56339.1	1055.82	-29739.2	0.000000	0.000000	6.723022	-0.028420	NaN	0.000000	0.001669	0.001711	28.0834	0.129265	0.001804	71.6516	-85.9453	-164.452	-0.015485	0.721090	-0.401264	-0.402547	-0.028420	71.6516	-0.400966	-137965	2.059926E-7	NaN
1124	1.000000	0.732413	7.37605e+06	-56339.1	1055.82	-29739.2	0.000000	0.000000	6.733058	-0.104697	NaN	0.000000	0.001661	0.001696	28.0842	0.080880	0.001880	43.0117	177.195	15.273	-0.113548	0.731023	-0.391224	-0.392615	-0.104697	43.0117	-0.389398	-94310.1	1.110139E-6	NaN
1124	1.000000	0.742419	7.37605e+06	-56339.1	1055.82	-29739.2	0.000000	0.000000	6.743066	-0.047097	NaN	0.000000	0.001612	0.001733	28.0844	0.042693	0.002051	20.8199	-24.5174	-164.743	-0.084587	0.741055	-0.381219	-0.382582	-0.047097	20.8199	-0.379522	-68081.5	6.917673E-7	NaN
1124	1.000000	0.752403	7.37605e+06	-56339.1	1055.82	-29739.2	0.000000	0.000000	6.753052	-0.008641	NaN	0.000000	0.001596	0.001710	28.0842	0.027456	0.002065	13.2963	-23.1585	15.1922	0.046836	0.751053	-0.371234	-0.372584	-0.008641	13.2963	-0.370746	-50918.3	1.696988E-7	NaN
1124	1.000000	0.762416	7.37605e+06	-56339.1	1055.82	-29739.2	0.000000	0.000000	6.763062	-0.068668	NaN	0.000000	0.001681	0.001667	28.0844	0.061887	0.002099	29.481	155.659	-166.853	0.006218	0.761056	-0.361221	-0.362581	-0.068668	29.481	-0.359474	-35014.4	1.961137E-6	NaN
1124	1.000000	0.772402	7.37605e+06	-56339.1	1055.82	-29739.2	0.000000	0.000000	6.773049	-0.035602	NaN	0.000000	0.001666	0.001677	28.0845	0.126986	0.001933	65.7067	-156.29	15.5735	-0.019917	0.771074	-0.351235	-0.352563	-0.035602	65.7067	-0.350829	-26244.1	1.356550E-6	NaN
1124	1.000000	0.782405	7.37605e+06	-56339.1	1055.82	-29739.2	0.000000	0.000000	6.783054	-0.005552	NaN	0.000000	0.001661	0.001661	28.0842	0.066403	0.002068	32.1101	-178.935	-164.696	-0.100471	0.781117	-0.341232	-0.342520	-0.005552	32.1101	-0.341103	-18950.6	2.929768E-7	NaN
1124	1.000000	0.792425	7.37605e+06	-56339.1	1055.82	-29739.2	0.000000	0.000000	6.793072	-0.050621	NaN	0.000000	0.001703	0.001659	28.0844	0.036436	0.001994	18.2696	152.231	10.6493	-0.073502	0.791061	-0.331213	-0.332576	-0.050621	18.2696	-0.329134	-12669.9	3.995358E-6	NaN
1124	1.000000	0.802415	7.37605e+06	-56339.1	1055.82	-29739.2	0.000000	0.000000	6.803064	-0.013390	NaN	0.000000	0.001712	0.001720	28.0842	0.041693	0.001976	21.0966	-68.6762	-161.607	0.030998	0.801083	-0.321222	-0.322554	-0.013390	21.0966	-0.320746	-9541.46	1.403318E-6	NaN
1124	1.000000	0.812426	7.37605e+06	-56339.1	1055.82	-29739.2	0.000000	0.000000	6.813074	-0.030363	NaN	0.000000	0.001688	0.001723	28.0845	0.100384	0.001894	52.9978	-52.2897	17.323	-0.005837	0.811058	-0.311211	-0.312579	-0.030363	52.9978	-0.310782	-6801.74	4.464021E-6	NaN
1124	1.000000	0.822434	7.37605e+06	-56339.1	1055.82	-29739.2	0.000000	0.000000	6.823083	-0.010337	NaN	0.000000	0.001688	0.001720	28.0842	0.033904	0.001973	17.1884	165.259	-168.304	-0.020852	0.821128	-0.301203	-0.302509	-0.010337	17.1884	-0.300752	-4828.7	2.140820E-6	NaN
1124	1.000000	0.832412	7.37605e+06	-56339.1	1055.82	-29739.2	0.000000	0.000000	6.833057	-0.093488	NaN	0.000000	0.001677	0.001671	28.0841	0.036227	0.002002	18.093	109.657	13.9663	-0.077601	0.831059	-0.291225	-0.292578	-0.093488	18.093	-0.287350	-3044.84	3.070376E-5	NaN
1124	1.000000	0.842427	7.37605e+06	-56339.1	1055.82	-29739.2	0.000000	0.000000	6.843076	0.001410	NaN	0.000000	0.001686	0.001660	28.0842	0.162116	0.002006	80.8105	-176.74	-161.596	-0.026510	0.841081	-0.281210	-0.282556	0.001410	80.8105	-0.281223	-2462.73	-5.727185E-7	NaN
1124	1.000000	0.852437	7.37605e+06	-56339.1	1055.82	-29739.2	0.000000	0.000000	6.853082	-0.083854	NaN	0.000000	0.001675	0.001662	28.0843	0.042688	0.002008	21.2639	116.086	14.0616	-0.117283	0.851077	-0.271201	-0.272560	-0.083854	21.2639	-0.268243	-1566.09	5.354381E-5	NaN
1124	1.000000	0.862403	7.37605e+06	-56339.1	1055.82	-29739.2	0.000000	0.000000	6.863054	0.032623	NaN	0.000000	0.001683	0.001660	28.0827	0.012821	0.001998	6.415349	83.7798	-163.631	0.005603	0.861103	-0.261234	-0.262534	0.032623	6.415349	-0.265048	-1399.95	-2.330308E-5	NaN
1124	1.000000	0.872435	7.37605e+06	-56339.1	1055.82	-29739.2	0.000000	0.000000	6.873085	0.010907	NaN	0.000000	0.001652	0.001682	28.0829	0.117540	0.002019	58.2165	87.6657	15.9024	0.025134	0.871091	-0.251202	-0.252546	0.010907	58.2165	-0.251342	-862.411	-1.264726E-5	NaN
1124	1.000000	0.882418	7.37605e+06	-56339.1	1055.82	-29739.2	0.000000	0.000000	6.883065	-0.044308	NaN	0.000000	0.001683	0.001676	28.0836	0.024611	0.002012	12.2301	-138.769	-168.28	-0.024438	0.881124	-0.241220	-0.242513	-0.044308	12.2301	-0.238502	-544.683	8.134569E-5	NaN
1124	1.000000	0.892440	7.37605e+06	-56339.1	1055.82	-29739.2	0.000000	0.000000	6.893089	0.008651	NaN	0.000000	0.001696	0.001705	28.083	0.144389	0.001886	76.554	-24.9766	19.5319	0.036315	0.891087	-0.231197	-0.232550	0.008651	76.554	-0.231282	-419.514	-2.062131E-5	NaN
1124	1.000000	0.902451	7.37605e+06	-56339.1	1055.82	-29739.2	0.000000	0.000000	6.903099	-0.030265	NaN	0.000000	0.001653	0.001672	28.0829	0.034074	0.001932	17.634	22.794	-163.236	-0.034706	0.901162	-0.221186	-0.222475	-0.030265	17.634	-0.219899	-276.733	0.000109	NaN
1124	1.000000	0.912469	7.37605e+06	-56339.1	1055.82	-29739.2	0.000000	0.000000	6.913121	0.056449	NaN	0.000000	0.001576	0.001642	28.0829	0.098660	0.001974	49.9917	173.06	10.3027	0.016428	0.911035	-0.211168	-0.212602	0.056449	49.9917	-0.212015	-206.73	-0.000273	NaN
1124	1.000000	0.922444	7.37605e+06	-56339.1	1055.82	-29739.2	0.000000	0.000000	6.923092	-0.027325	NaN	0.000000	0.001613	0.001677	28.0831	0.070366	0.001923	36.5837	12.5087	-167.116	-0.010341	0.921142	-0.201193	-0.202495	-0.027325	36.5837	-0.200633	-134.925	0.000203	NaN
1124	1.000000	0.932453	7.37605e+06	-56339.1	1055.82	-29739.2	0.000000	0.000000	6.933102	-0.009508	NaN	0.000000	0.001625	0.001685	28.0831	0.113698	0.002015	56.417	130.307	14.1297	-0.026509	0.931029	-0.191184	-0.192608	-0.009508	56.417	-0.191057	-93.6857	0.000101	NaN
1124	1.000000	0.942483	7.37605e+06	-56339.1	1055.82	-29739.2	0.000000	0.000000	6.943133	0.028869	NaN	0.000000	0.001595	0.001699	28.0833	0.137899	0.002007	68.726	86.3091	-161.982	0.025877	0.941150	-0.181154	-0.182487	0.028869	68.726	-0.181469	-64.6298	-0.000447	NaN
1124	1.000000	0.952504	7.37605e+06	-56339.1	1055.82	-29739.2	0.000000	0.000000	6.953152	-0.040311	NaN	0.000000	0.001587	0.001701	28.0834	0.106485	0.002008	53.038	59.4243	17.1293	-0.141816	0.951105	-0.171133	-0.172532	-0.040311	53.038	-0.170563	-42.013	0.000959	NaN
1124	1.000000	0.962461	7.37605e+06	-56339.1	1055.82	-29739.2	0.000000	0.000000	6.963113	0.053564	NaN	0.000000	0.001636	0.001685	28.083	0.034454	0.002011	17.1287	16.733	-164.08	-0.011352	0.961153	-0.161176	-0.162484	0.053564	17.1287	-0.163521	-31.644	-0.001693	NaN
1124	1.000000	0.972472	7.37605e+06	-56339.1	1055.82	-29739.2	0.000000	0.000000	6.973119	-0.062466	NaN	0.000000	0.001604	0.001690	28.083	0.075448	0.001885	40.0357	-94.4691	16.215	-0.084497	0.971141	-0.151165	-0.152496	-0.062466	40.0357	-0.149994	-18.1094	0.003449	NaN
1124	1.000000	0.982479	7.37605e+06	-56339.1	1055.82	-29739.2	0.000000	0.000000	6.983127	-0.031290	NaN	0.000000	0.001614	0.001680	28.0829	0.155558	0.001985	78.347	-156.897	-166.231	-0.011348	0.981177	-0.141158	-0.142460	-0.031290	78.347	-0.140858	-12.2763	0.002549	NaN
1124	1.000000	0.992492	7.37605e+06	-56339.1	1055.82	-29739.2	0.000000	0.000000	6.993139	-0.047247	NaN	0.000000	0.001603	0.001701	28.0834	0.099060	0.001971	50.2474	-92.234	17.774	0.014448	0.991135	-0.131145	-0.132502	-0.047247	50.2474	-0.130440	-7.772427	0.006079	NaN
1124	1.000000	1.002491	7.37605e+06	-56339.1	1055.82	-29739.2	0.000000	0.000000	7.003135	-0.118401	NaN	0.000000	0.001630	0.001709	28.0842	0.127915	0.002133	59.9763	125.375	-167.598	-0.047326	1.001187	-0.121146	-0.122451	-0.118401	59.9763	-0.119666	-4.756977	0.024890	NaN
1124	1.000000	1.012498	7.37605e+06	-56339.1	1055.82	-29739.2	0.000000	0.000000	7.013143	-0.093924	NaN	0.000000	0.001621	0.001704	28.0843	0.070786	0.001925	36.7766	61.1843	14.9035	0.022964	1.011190	-0.111139	-0.112447	-0.093924	36.7766	-0.109224	-2.893856	0.032456	NaN
1124	1.000000	1.022515	7.37605e+06	-56339.1	1055.82	-29739.2	0.000000	0.000000	7.023164	-0.022860	NaN	0.000000	0.001580	0.001715	28.084	0.048246	0.002062	23.3924	-40.648	-163.937	-0.071829	1.021114	-0.101122	-0.102523	-0.022860	23.3924	-0.100389	-1.863739	0.012265	NaN
1124	1.000000	1.032511	7.37605e+06	-56339.1	1055.82	-29739.2	0.000000	0.000000	7.033161	0.014050	NaN	0.000000	0.001608	0.001682	28.0843	0.031498	0.001915	16.4505	-67.3868	18.3917	-0.046327	1.031160	-0.091126	-0.092477	0.014050	16.4505	-0.091766	-1.188622	-0.011820	NaN
1124	1.000000	1.042507	7.37605e+06	-56339.1	1055.82	-29739.2	0.000000	0.000000	7.043155	-0.018960	NaN	0.000000	0.001638	0.001692	28.084	0.084964	0.002023	41.9904	125.706	-164.689	-0.000502	1.041212	-0.081131	-0.082425	-0.018960	41.9904	-0.080792	-0.647793	0.029268	NaN
1124	1.000000	1.052507	7.37605e+06	-56339.1	1055.82	-29739.2	0.000000	0.000000	7.053156	-0.000927	NaN	0.000000	0.001597	0.001660	28.084	0.024277	0.002003	12.1217	163.982	13.2831	-0.026663	1.051124	-0.071131	-0.072513	-0.000927	12.1217	-0.071073	-0.364363	0.002543	NaN
1124	1.000000	1.062513	7.37605e+06	-56339.1	1055.82	-29739.2	0.000000	0.000000	7.063159	-0.075321	NaN	0.000000	0.001583	0.001698	28.084	0.043575	0.002138	20.3776	51.4423	-166.697	-0.043044	1.061203	-0.061124	-0.062435	-0.075321	20.3776	-0.058352	-0.161430	0.466584	NaN
1124	1.000000	1.072510	7.37605e+06	-56339.1	1055.82	-29739.2	0.000000	0.000000	7.073156	-0.080049	NaN	0.000000	0.001589	0.001712	28.0841	0.049155	0.002031	24.1983	-130.084	13.2472	-0.184564	1.071159	-0.051127	-0.052478	-0.080049	24.1983	-0.048646	-0.083023	0.964180	NaN
1124	1.000000	1.082515	7.37605e+06	-56339.1	1055.82	-29739.2	0.000000	0.000000	7.083164	-0.004569	NaN	0.000000	0.001606	0.001737	28.0839	0.024782	0.002015	12.3016	64.644	-166.011	-0.010931	1.081227	-0.041122	-0.042410	-0.004569	12.3016	-0.040843	-0.047973	0.095244	NaN
1124	1.000000	1.092568	7.37605e+06	-56339.1	1055.82	-29739.2	0.000000	0.000000	7.093216	-0.044552	NaN	0.000000	0.001612	0.001715	28.084	0.103342	0.002088	49.5046	-117.195	13.689	-0.036828	1.091162	-0.031069	-0.032475	-0.044552	49.5046	-0.030394	-0.023603	1.887546	NaN
1124	1.000000	1.102551	7.37605e+06	-56339.1	1055.82	-29739.2	0.000000	0.000000	7.103198	-0.056129	NaN	0.000000	0.001634	0.001699	28.0841	0.085794	0.001922	44.6311	-83.5613	-165.194	0.029879	1.101240	-0.021086	-0.022397	-0.056129	44.6311	-0.020143	-0.012667	4.431217	NaN
1124	1.000000	1.112519	7.37605e+06	-56339.1	1055.82	-29739.2	0.000000	0.000000	7.113167	-0.030336	NaN	0.000000	0.001587	0.001703	28.084	0.077463	0.001914	40.4796	36.1187	12.7811	0.001626	1.111158	-0.011118	-0.012479	-0.030336	40.4796	-0.010556	-0.006705	4.524572	NaN
1124	1.000000	1.122541	7.37605e+06	-56339.1	1055.82	-29739.2	0.000000	0.000000	7.123241	1.236701	NaN	0.000000	0.001581	0.001713	28.0841	1.960160	0.002074	945.086	10.6726	-167.222	0.566164	1.121194	-0.001096	-0.002443	1.236701	945.086	-0.002078	-0.001493	-828.232	NaN
1124	2.000000	1.129585	7.37605e+06	-56339.1	1055.82	-29739.2	0.000000	0.000000	7.130710	11.5698	NaN	0.000000	0.001595	0.001688	28.0834	9.184795	0.001722	5333.68	9.150968	6.503596	11.7163	1.129143	0.005948	0.005506	11.5698	5333.68	0.004321	0.003522	3284.83	82109.3
1124	2.000000	1.132034	7.37605e+06	-56339.1	1055.82	-29739.2	0.000000	0.000000	7.133250	13.7792	NaN	0.000000	0.001550	0.001694	28.083	11.5803	0.001748	6623.1	6.505808	-172.302	12.7424	1.131663	0.008397	0.008026	13.7792	6623.1	0.006836	0.005872	2346.45	78963.8
1124	2.000000	1.134448	7.37605e+06	-56339.1	1055.82	-29739.2	0.000000	0.000000	7.135817	17.4999	NaN	0.000000	0.001602	0.001689	28.0825	14.1948	0.001738	8169.05	4.379889	6.584160	16.0578	1.134206	0.010811	0.010569	17.4999	8169.05	0.009204	0.008310	2105.83	81872.7
1124	2.000000	1.136974	7.37605e+06	-56339.1	1055.82	-29739.2	0.000000	0.000000	7.138480	20.8253	NaN	0.000000	0.001636	0.001661	28.0826	17.6172	0.001843	9561.33	7.310031	-177.562	20.0907	1.136691	0.013337	0.013054	20.8253	9561.33	0.011704	0.011137	1869.91	82776.3
1124	2.000000	1.139435	7.37605e+06	-56339.1	1055.82	-29739.2	0.000000	0.000000	7.141184	26.7463	NaN	0.000000	0.001602	0.001686	28.0825	19.1235	0.001721	11111.1	7.675223	2.906661	24.4065	1.139127	0.015797	0.015490	26.7463	11111.1	0.013992	0.013965	1915.26	85903.9
1124	2.000000	1.141939	7.37605e+06	-56339.1	1055.82	-29739.2	0.000000	0.000000	7.143910	32.1331	NaN	0.000000	0.001601	0.001700	28.0826	21.2969	0.001610	13231.3	8.324561	178.254	31.0738	1.141628	0.018302	0.017991	32.1331	13231.3	0.016480	0.017310	1856.32	91881.1
1124	2.000000	1.144421	7.37605e+06	-56339.1	1055.82	-29739.2	0.000000	0.000000	7.146627	37.8178	NaN	0.000000	0.001608	0.001692	28.0824	23.684	0.001773	13358.9	8.977874	-1.722015	35.5812	1.144123	0.020784	0.020486	37.8178	13358.9	0.018661	0.020482	1846.4	85282.4
1124	2.000000	1.146956	7.37605e+06	-56339.1	1055.82	-29739.2	0.000000	0.000000	7.149471	45.354	NaN	0.000000	0.001625	0.001700	28.0827	26.09	0.001678	15547	4.081236	-178.808	43.6647	1.146647	0.023319	0.023009	45.354	15547	0.021131	0.024351	1862.54	91025.7
1124	2.000000	1.149432	7.37605e+06	-56339.1	1055.82	-29739.2	0.000000	0.000000	7.152180	51.0273	NaN	0.000000	0.001630	0.001674	28.0829	27.5844	0.001773	15561.4	4.032351	1.683881	48.8082	1.149086	0.025795	0.025449	51.0273	15561.4	0.023335	0.028057	1818.73	84879.9
1124	2.000000	1.151879	7.37605e+06	-56339.1	1055.82	-29739.2	0.000000	0.000000	7.154854	56.5268	NaN	0.000000	0.001616	0.001662	28.0828	31.8733	0.001844	17281.3	9.039169	176.15	54.8751	1.151638	0.028242	0.028001	56.5268	17281.3	0.025789	0.032467	1741.07	87625.7
1124	2.000000	1.154417	7.37605e+06	-56339.1	1055.82	-29739.2	0.000000	0.000000	7.157680	63.5341	NaN	0.000000	0.001571	0.001698	28.0828	34.1624	0.001903	17950.5	4.662639	0.315229	61.0443	1.154084	0.030780	0.030447	63.5341	17950.5	0.028126	0.036948	1719.55	85320.7
1124	2.000000	1.156854	7.37605e+06	-56339.1	1055.82	-29739.2	0.000000	0.000000	7.160681	77.2298	NaN	0.000000	0.001616	0.001683	28.0832	35.9547	0.001797	20005.5	3.902568	178.837	74.9847	1.156585	0.033217	0.032948	77.2298	20005.5	0.030322	0.041413	1864.88	89816.3
1124	2.000000	1.159429	7.37605e+06	-56339.1	1055.82	-29739.2	0.000000	0.000000	7.163566	84.7735	NaN	0.000000	0.001584	0.001685	28.083	37.8785	0.001769	21415	6.228852	-2.702653	84.6123	1.159067	0.035792	0.035430	84.7735	21415	0.032823	0.046799	1811.43	90442.4
1124	2.000000	1.161902	7.37605e+06	-56339.1	1055.82	-29739.2	0.000000	0.000000	7.166402	93.5869	NaN	0.000000	0.001610	0.001688	28.0838	39.7994	0.001824	21818.1	2.175414	179.978	91.0965	1.161530	0.038265	0.037893	93.5869	21818.1	0.035048	0.051858	1804.67	87534.8
1124	2.000000	1.164390	7.37605e+06	-56339.1	1055.82	-29739.2	0.000000	0.000000	7.169252	102.412	NaN	0.000000	0.001611	0.001689	28.0839	43.5272	0.001874	23230.5	4.871359	-3.856669	98.9614	1.164104	0.040753	0.040467	102.412	23230.5	0.037446	0.057595	1778.12	88437.9
1124	2.000000	1.166906	7.37605e+06	-56339.1	1055.82	-29739.2	0.000000	0.000000	7.172225	113.503	NaN	0.000000	0.001575	0.001682	28.0844	46.1511	0.001925	23970.7	7.558578	174.612	113.311	1.166635	0.043269	0.042998	113.503	23970.7	0.039717	0.063300	1793.08	87046.6
1124	2.000000	1.169487	7.37605e+06	-56339.1	1055.82	-29739.2	0.000000	0.000000	7.175184	122.703	NaN	0.000000	0.001600	0.001643	28.0846	47.0764	0.001781	26428.5	4.297353	-4.521128	122.759	1.169118	0.045850	0.045481	122.703	26428.5	0.042368	0.070291	1745.65	91074.7
1124	2.000000	1.171921	7.37605e+06	-56339.1	1055.82	-29739.2	0.000000	0.000000	7.178334	140.101	NaN	0.000000	0.001571	0.001673	28.0847	49.0149	0.001923	25490.8	4.817303	176.363	139.84	1.171478	0.048284	0.047841	140.101	25490.8	0.044162	0.075226	1862.4	84912.9
1124	2.000000	1.174354	7.37605e+06	-56339.1	1055.82	-29739.2	0.000000	0.000000	7.180992	145.566	NaN	0.000000	0.001572	0.001686	28.0839	52.4574	0.001904	27556.5	3.324594	-3.201131	142.408	1.174088	0.050717	0.050450	145.566	27556.5	0.046755	0.082648	1761.26	87575.1
1124	2.000000	1.176886	7.37605e+06	-56339.1	1055.82	-29739.2	0.000000	0.000000	7.184264	163.554	NaN	0.000000	0.001603	0.001694	28.0842	54.4536	0.001777	30639.6	4.767574	173.936	162.323	1.176545	0.053249	0.052908	163.554	30639.6	0.049246	0.090096	1815.33	93261.7
1124	2.000000	1.179411	7.37605e+06	-56339.1	1055.82	-29739.2	0.000000	0.000000	7.187401	178.444	NaN	0.000000	0.001628	0.001646	28.0839	56.1	0.001746	32138.3	4.874250	-6.311865	176.003	1.178923	0.055774	0.055286	178.444	32138.3	0.051609	0.097452	1831.09	94058.9
1124	2.000000	1.181826	7.37605e+06	-56339.1	1055.82	-29739.2	0.000000	0.000000	7.190203	187.848	NaN	0.000000	0.001649	0.001649	28.0841	58.2913	0.001868	31204.1	5.907113	173.39	183.524	1.181527	0.058189	0.057890	187.848	31204.1	0.053674	0.104106	1804.39	88358.4
1124	2.000000	1.184295	7.37605e+06	-56339.1	1055.82	-29739.2	0.000000	0.000000	7.193419	205.982	NaN	0.000000	0.001654	0.001664	28.0839	61.4428	0.001742	35265	7.130936	-9.808015	200.654	1.184055	0.060658	0.060418	205.982	35265	0.056278	0.112800	1826.08	95931.9
1124	2.000000	1.186844	7.37605e+06	-56339.1	1055.82	-29739.2	0.000000	0.000000	7.196594	221.226	NaN	0.000000	0.001638	0.001687	28.0845	63.0157	0.001708	36901.3	2.980524	175.202	217.786	1.186530	0.063207	0.062893	221.226	36901.3	0.058710	0.121225	1824.92	96832
1124	2.000000	1.189360	7.37605e+06	-56339.1	1055.82	-29739.2	0.000000	0.000000	7.199810	238.241	NaN	0.000000	0.001606	0.001704	28.0841	65.6325	0.001822	36020.8	9.930380	-10.4152	234.69	1.188854	0.065723	0.065217	238.241	36020.8	0.060762	0.128556	1853.21	91787
1124	2.000000	1.191882	7.37605e+06	-56339.1	1055.82	-29739.2	0.000000	0.000000	7.202753	248.436	NaN	0.000000	0.001586	0.001711	28.0843	67.6892	0.001750	38688.4	4.805422	172.868	247.595	1.191548	0.068245	0.067911	248.436	38688.4	0.063429	0.138392	1795.17	95016.5
1124	2.000000	1.194330	7.37605e+06	-56339.1	1055.82	-29739.2	0.000000	0.000000	7.205828	263.708	NaN	0.000000	0.001589	0.001678	28.0839	71.4045	0.001878	38026.7	4.057766	-6.590438	259.265	1.194031	0.070693	0.070394	263.708	38026.7	0.065492	0.146234	1803.33	90852.8
1124	2.000000	1.196854	7.37605e+06	-56339.1	1055.82	-29739.2	0.000000	0.000000	7.209273	286.071	NaN	0.000000	0.001634	0.001736	28.0842	73.4059	0.001870	39245	4.990258	172.576	284.417	1.196518	0.073217	0.072881	286.071	39245	0.067750	0.155057	1844.94	91056.8
1124	2.000000	1.199420	7.37605e+06	-56339.1	1055.82	-29739.2	0.000000	0.000000	7.212494	301.99	NaN	0.000000	0.001603	0.001753	28.0827	74.8371	0.001874	39936	6.163543	-7.596054	300.321	1.198892	0.075783	0.075255	301.99	39936	0.070112	0.164544	1835.32	89949.2
1124	2.000000	1.201831	7.37605e+06	-56339.1	1055.82	-29739.2	0.000000	0.000000	7.215594	318.743	NaN	0.000000	0.001588	0.001720	28.0827	77.151	0.001803	42798.2	8.516663	168.344	317.318	1.201503	0.078194	0.077865	318.743	42798.2	0.072608	0.174860	1822.85	93509
1124	2.000000	1.204359	7.37605e+06	-56339.1	1055.82	-29739.2	0.000000	0.000000	7.218808	335.411	NaN	0.000000	0.001620	0.001709	28.083	79.2086	0.001792	44196.3	5.068753	-7.771610	332.967	1.203953	0.080722	0.080316	335.411	44196.3	0.075030	0.185151	1811.55	93841.8
1124	2.000000	1.206879	7.37605e+06	-56339.1	1055.82	-29739.2	0.000000	0.000000	7.221495	339.479	NaN	0.000000	0.001620	0.001690	28.0831	84.1156	0.001873	44918.4	4.510313	171.36	339.036	1.206767	0.083242	0.083130	339.479	44918.4	0.077574	0.196255	1729.78	92637.5
1124	2.000000	1.209397	7.37605e+06	-56339.1	1055.82	-29739.2	0.000000	0.000000	7.225143	366.944	NaN	0.000000	0.001567	0.001663	28.0824	85.7289	0.001805	47488.5	9.556299	-13.5914	364.616	1.208886	0.085760	0.085249	366.944	47488.5	0.079965	0.206970	1772.93	95369.1
1124	2.000000	1.211877	7.37605e+06	-56339.1	1055.82	-29739.2	0.000000	0.000000	7.228750	394.359	NaN	0.000000	0.001612	0.001656	28.0829	86.3298	0.001767	48850.7	5.415519	170.606	395.938	1.211488	0.088239	0.087851	394.359	48850.7	0.082185	0.217156	1816.02	95776.4
1124	2.000000	1.214419	7.37605e+06	-56339.1	1055.82	-29739.2	0.000000	0.000000	7.231698	404.221	NaN	0.000000	0.001605	0.001633	28.0828	90.55	0.001802	50261.7	3.909213	-8.673478	404.65	1.214126	0.090781	0.090488	404.221	50261.7	0.084750	0.229209	1763.54	95916.7
1124	2.000000	1.216939	7.37605e+06	-56339.1	1055.82	-29739.2	0.000000	0.000000	7.235255	429.434	NaN	0.000000	0.001602	0.001679	28.0826	93.4458	0.001910	48929.7	5.620314	170.223	432.919	1.216508	0.093302	0.092871	429.434	48929.7	0.086719	0.238671	1799.27	91505.2
1124	2.000000	1.219324	7.37605e+06	-56339.1	1055.82	-29739.2	0.000000	0.000000	7.238741	456.174	NaN	0.000000	0.001610	0.001668	28.0829	94.0468	0.001817	51759.9	2.798714	-7.138571	452.182	1.218963	0.095687	0.095326	456.174	51759.9	0.089077	0.250234	1822.99	94535.1
1124	2.000000	1.221733	7.37605e+06	-56339.1	1055.82	-29739.2	0.000000	0.000000	7.241999	476.806	NaN	0.000000	0.001585	0.001649	28.083	96.602	0.001842	52457.6	1.035105	174.345	470.378	1.221409	0.098096	0.097772	476.806	52457.6	0.091279	0.261264	1825	93765.3
1124	2.000000	1.224273	7.37605e+06	-56339.1	1055.82	-29739.2	0.000000	0.000000	7.245635	503.464	NaN	0.000000	0.001655	0.001662	28.0827	99.4306	0.001855	53603.9	2.029718	-6.653490	496.511	1.223869	0.100635	0.100232	503.464	53603.9	0.093591	0.273083	1843.63	93717.9
1124	2.000000	1.226758	7.37605e+06	-56339.1	1055.82	-29739.2	0.000000	0.000000	7.249017	525.272	NaN	0.000000	0.001664	0.001663	28.0827	101.34	0.001748	57979.3	2.796065	172.152	522.699	1.226502	0.103121	0.102865	525.272	57979.3	0.096326	0.287377	1827.82	98814.5