File: remote_trans/data/nanoindenter/0828-1/data/Data_2025-08-06,11h17m57s/2025-07-22_16-23-58_1_716.txt
2025-07-22, 16:23:58, 1
Index	Phase	Displacement	Time	Pos X	Pos Y	Pos Z	Rot A	Rot B	Piezo Z	Force A	Force B	Gripper	Voltage A	Voltage B	Temperature	Amplitude force	Amplitude pos	Stiffness	Phase shift	Phase excitation	Force A raw	Displacement raw	HMax	HMax raw	Real Force	Real Stiffness	Contact Depth	Area	Hardness	Reduced Mod.
[#]	[#]	[um]	[s]	[um]	[um]	[um]	[m°]	[m°]	[um]	[uN]	[uN]	[V]	[V]	[V]	[°C]	[uN]	[um]	[N/m]	[°]	[°]	[uN]	[um]	[um]	[um]	[uN]	[N/m]	[um]	[um^2]	[MPa]	[MPa]
716	1.000000	0.002425	7.37206e+06	-41289.1	1005.82	-29786.6	0.000000	0.000000	6.002808	0.035765	NaN	0.000000	0.001598	0.001759	28.0824	0.094874	0.000981	96.7263	118.456	-157.17	0.043775	0.001124	-1.179212	-1.180512	0.035765	96.7263	-1.179489	-5.834764E+15	-6.129639E-18	NaN
716	1.000000	0.012484	7.37206e+06	-41289.1	1005.82	-29786.6	0.000000	0.000000	6.012866	0.018306	NaN	0.000000	0.001620	0.001760	28.082	0.115825	0.001330	87.1148	-167.249	19.0569	0.066949	0.011046	-1.169153	-1.170590	0.018306	87.1148	-1.169310	-4.262294E+15	-4.294759E-18	NaN
716	1.000000	0.022353	7.37206e+06	-41289.1	1005.82	-29786.6	0.000000	0.000000	6.022733	-0.041862	NaN	0.000000	0.001611	0.001762	28.0818	0.034692	0.001761	19.6974	178.898	-167.436	-0.063559	0.021069	-1.159283	-1.160567	-0.041862	19.6974	-1.157689	-2.977786E+15	1.405802E-17	NaN
716	1.000000	0.032381	7.37206e+06	-41289.1	1005.82	-29786.6	0.000000	0.000000	6.032766	0.095001	NaN	0.000000	0.001606	0.001747	28.0822	0.077999	0.002029	38.436	-123.67	14.7357	0.050538	0.030978	-1.149256	-1.150659	0.095001	38.436	-1.151109	-2.430486E+15	-3.908710E-17	NaN
716	1.000000	0.042362	7.37206e+06	-41289.1	1005.82	-29786.6	0.000000	0.000000	6.042749	0.122447	NaN	0.000000	0.001619	0.001764	28.0825	0.068124	0.001996	34.1336	164.036	-165.087	0.005434	0.040992	-1.139274	-1.140644	0.122447	34.1336	-1.141965	-1.832668E+15	-6.681339E-17	NaN
716	1.000000	0.052367	7.37206e+06	-41289.1	1005.82	-29786.6	0.000000	0.000000	6.052751	0.056039	NaN	0.000000	0.001634	0.001762	28.0822	0.138768	0.001996	69.5371	108.096	16.1379	0.007351	0.051041	-1.129270	-1.130596	0.056039	69.5371	-1.129874	-1.261628E+15	-4.441802E-17	NaN
716	1.000000	0.062369	7.37206e+06	-41289.1	1005.82	-29786.6	0.000000	0.000000	6.062752	0.021668	NaN	0.000000	0.001669	0.001757	28.0822	0.035743	0.001770	20.1903	-147.645	-163	0.024348	0.060955	-1.119267	-1.120681	0.021668	20.1903	-1.120072	-9.320447E+14	-2.324740E-17	NaN
716	1.000000	0.072381	7.37206e+06	-41289.1	1005.82	-29786.6	0.000000	0.000000	6.072762	-0.008924	NaN	0.000000	0.001647	0.001786	28.0823	0.060662	0.002079	29.1747	-121.471	13.4745	0.033130	0.071014	-1.109255	-1.110623	-0.008924	29.1747	-1.109026	-6.625461E+14	1.346951E-17	NaN
716	1.000000	0.082390	7.37206e+06	-41289.1	1005.82	-29786.6	0.000000	0.000000	6.082773	0.017082	NaN	0.000000	0.001628	0.001782	28.0824	0.141283	0.001821	77.5836	100.84	-168.548	-0.015555	0.081060	-1.099246	-1.100577	0.017082	77.5836	-1.099411	-4.922233E+14	-3.470313E-17	NaN
716	1.000000	0.092393	7.37206e+06	-41289.1	1005.82	-29786.6	0.000000	0.000000	6.092774	-0.003294	NaN	0.000000	0.001597	0.001721	28.0825	0.055923	0.001987	28.1501	-143.539	12.0122	-0.036877	0.090979	-1.089244	-1.090658	-0.003294	28.1501	-1.089156	-3.584895E+14	9.189797E-18	NaN
716	1.000000	0.102390	7.37206e+06	-41289.1	1005.82	-29786.6	0.000000	0.000000	6.102773	0.044753	NaN	0.000000	0.001622	0.001740	28.0812	0.065010	0.001996	32.5761	70.3988	-165.717	0.027184	0.101071	-1.079246	-1.080565	0.044753	32.5761	-1.080277	-2.724185E+14	-1.642804E-16	NaN
716	1.000000	0.112375	7.37206e+06	-41289.1	1005.82	-29786.6	0.000000	0.000000	6.112755	-0.043762	NaN	0.000000	0.001603	0.001775	28.0812	0.096021	0.002066	46.4756	-129.857	15.0338	0.005680	0.111011	-1.069261	-1.070625	-0.043762	46.4756	-1.068555	-1.895711E+14	2.308480E-16	NaN
716	1.000000	0.122378	7.37206e+06	-41289.1	1005.82	-29786.6	0.000000	0.000000	6.122761	0.035030	NaN	0.000000	0.001619	0.001815	28.0811	0.059407	0.001971	30.1355	-22.4309	-165.245	-0.021954	0.121161	-1.059258	-1.060475	0.035030	30.1355	-1.060130	-1.460735E+14	-2.398083E-16	NaN
716	1.000000	0.132411	7.37206e+06	-41289.1	1005.82	-29786.6	0.000000	0.000000	6.132795	0.042210	NaN	0.000000	0.001594	0.001779	28.081	0.102124	0.002037	50.124	159.276	12.2555	0.037164	0.131057	-1.049225	-1.050579	0.042210	50.124	-1.049856	-1.062879E+14	-3.971251E-16	NaN
716	1.000000	0.142393	7.37206e+06	-41289.1	1005.82	-29786.6	0.000000	0.000000	6.142774	-0.006507	NaN	0.000000	0.001606	0.001755	28.0808	0.068324	0.002064	33.0951	-86.8604	-168.489	0.013647	0.141097	-1.039243	-1.040540	-0.006507	33.0951	-1.039096	-7.617465E+13	8.542551E-17	NaN
716	1.000000	0.152386	7.37206e+06	-41289.1	1005.82	-29786.6	0.000000	0.000000	6.152768	0.017416	NaN	0.000000	0.001583	0.001754	28.0813	0.047368	0.001964	24.1217	149.957	15.491	0.063392	0.151085	-1.029251	-1.030551	0.017416	24.1217	-1.029792	-5.710650E+13	-3.049702E-16	NaN
716	1.000000	0.162394	7.37206e+06	-41289.1	1005.82	-29786.6	0.000000	0.000000	6.162776	0.009839	NaN	0.000000	0.001627	0.001761	28.081	0.051773	0.001944	26.6332	-156.563	-167.161	0.010404	0.161116	-1.019242	-1.020520	0.009839	26.6332	-1.019519	-4.154146E+13	-2.368382E-16	NaN
716	1.000000	0.172435	7.37206e+06	-41289.1	1005.82	-29786.6	0.000000	0.000000	6.172817	0.021036	NaN	0.000000	0.001656	0.001758	28.0809	0.079057	0.002171	36.4083	165.834	15.7963	0.065059	0.171005	-1.009202	-1.010631	0.021036	36.4083	-1.009635	-3.058211E+13	-6.878464E-16	NaN
716	1.000000	0.182388	7.37206e+06	-41289.1	1005.82	-29786.6	0.000000	0.000000	6.182771	0.041913	NaN	0.000000	0.001658	0.001722	28.081	0.042247	0.001973	21.4158	-165.385	-166.418	0.041030	0.181139	-0.999248	-1.000497	0.041913	21.4158	-1.000716	-2.319576E+13	-1.806943E-15	NaN
716	1.000000	0.192398	7.37206e+06	-41289.1	1005.82	-29786.6	0.000000	0.000000	6.192780	0.009181	NaN	0.000000	0.001626	0.001732	28.081	0.024711	0.002002	12.344	40.7426	14.9454	0.008725	0.191052	-0.989239	-0.990584	0.009181	12.344	-0.989796	-1.653375E+13	-5.552966E-16	NaN
716	1.000000	0.202414	7.37206e+06	-41289.1	1005.82	-29786.6	0.000000	0.000000	6.202799	0.085310	NaN	0.000000	0.001647	0.001767	28.0807	0.073193	0.001982	36.9297	134.641	-164.507	0.004272	0.201115	-0.979222	-0.980521	0.085310	36.9297	-0.980955	-1.256823E+13	-6.787715E-15	NaN
716	1.000000	0.212448	7.37206e+06	-41289.1	1005.82	-29786.6	0.000000	0.000000	6.212830	0.011994	NaN	0.000000	0.001648	0.001732	28.0806	0.084155	0.001898	44.3504	117.227	13.4135	0.014169	0.211093	-0.969188	-0.970543	0.011994	44.3504	-0.969391	-8.779219E+12	-1.366161E-15	NaN
716	1.000000	0.222434	7.37206e+06	-41289.1	1005.82	-29786.6	0.000000	0.000000	6.222815	-0.012823	NaN	0.000000	0.001644	0.001718	28.0809	0.042617	0.001945	21.9154	-139.874	-163.736	-0.035813	0.221163	-0.959202	-0.960473	-0.012823	21.9154	-0.958764	-6.312483E+12	2.031443E-15	NaN
716	1.000000	0.232434	7.37206e+06	-41289.1	1005.82	-29786.6	0.000000	0.000000	6.232817	0.044948	NaN	0.000000	0.001639	0.001720	28.0806	0.093787	0.001995	47.0066	-4.538883	11.5238	-0.008225	0.231108	-0.949202	-0.950528	0.044948	47.0066	-0.949920	-4.796699E+12	-9.370567E-15	NaN
716	1.000000	0.242423	7.37206e+06	-41289.1	1005.82	-29786.6	0.000000	0.000000	6.242803	-0.026466	NaN	0.000000	0.001651	0.001734	28.0818	0.064099	0.002005	31.9657	78.5782	-165.649	-0.061875	0.241083	-0.939214	-0.940553	-0.026466	31.9657	-0.938593	-3.374035E+12	7.844129E-15	NaN
716	1.000000	0.252469	7.37206e+06	-41289.1	1005.82	-29786.6	0.000000	0.000000	6.252853	0.066442	NaN	0.000000	0.001648	0.001724	28.0817	0.100492	0.001993	50.4185	137.191	14.8021	-0.007660	0.251105	-0.929167	-0.930531	0.066442	50.4185	-0.930156	-2.595961E+12	-2.559455E-14	NaN
716	1.000000	0.262427	7.37206e+06	-41289.1	1005.82	-29786.6	0.000000	0.000000	6.262809	0.001183	NaN	0.000000	0.001632	0.001744	28.082	0.023943	0.002042	11.7242	-161.737	-169.785	-0.007519	0.261152	-0.919209	-0.920484	0.001183	11.7242	-0.919285	-1.851612E+12	-6.390998E-16	NaN
716	1.000000	0.272479	7.37206e+06	-41289.1	1005.82	-29786.6	0.000000	0.000000	6.272858	-0.052882	NaN	0.000000	0.001620	0.001701	28.0818	0.066234	0.002044	32.4108	-121.824	15.208	-0.171840	0.271129	-0.909158	-0.910507	-0.052882	32.4108	-0.907934	-1.300930E+12	4.064912E-14	NaN
716	1.000000	0.282461	7.37206e+06	-41289.1	1005.82	-29786.6	0.000000	0.000000	6.282841	-0.053232	NaN	0.000000	0.001598	0.001707	28.0818	0.060657	0.001966	30.8474	168.816	-161.964	0.027426	0.281158	-0.899175	-0.900478	-0.053232	30.8474	-0.897881	-9.515469E+11	5.594220E-14	NaN
716	1.000000	0.292484	7.37206e+06	-41289.1	1005.82	-29786.6	0.000000	0.000000	6.292866	0.016394	NaN	0.000000	0.001628	0.001698	28.0818	0.135161	0.002115	63.9082	142.585	10.9935	0.058724	0.291064	-0.889152	-0.890572	0.016394	63.9082	-0.889345	-7.295504E+11	-2.247154E-14	NaN
716	1.000000	0.302452	7.37206e+06	-41289.1	1005.82	-29786.6	0.000000	0.000000	6.302838	0.098837	NaN	0.000000	0.001607	0.001694	28.0819	0.064970	0.002014	32.2561	-176.417	-166.54	0.027923	0.301097	-0.879184	-0.880540	0.098837	32.2561	-0.881482	-5.711486E+11	-1.730496E-13	NaN
716	1.000000	0.312471	7.37206e+06	-41289.1	1005.82	-29786.6	0.000000	0.000000	6.312852	-0.032439	NaN	0.000000	0.001629	0.001710	28.0817	0.145388	0.001995	72.8794	59.6245	13.2443	0.087321	0.311127	-0.869165	-0.870509	-0.032439	72.8794	-0.868831	-3.851470E+11	8.422491E-14	NaN
716	1.000000	0.322499	7.37206e+06	-41289.1	1005.82	-29786.6	0.000000	0.000000	6.322880	0.006535	NaN	0.000000	0.001611	0.001686	28.0818	0.083130	0.001944	42.7628	87.5588	-165.713	0.067993	0.321143	-0.859138	-0.860493	0.006535	42.7628	-0.859252	-2.857589E+11	-2.286850E-14	NaN
716	1.000000	0.332487	7.37206e+06	-41289.1	1005.82	-29786.6	0.000000	0.000000	6.332870	0.028971	NaN	0.000000	0.001615	0.001699	28.082	0.091526	0.002080	43.9996	133.235	13.9059	0.038480	0.331188	-0.849149	-0.850448	0.028971	43.9996	-0.849643	-2.117904E+11	-1.367907E-13	NaN
716	1.000000	0.342479	7.37206e+06	-41289.1	1005.82	-29786.6	0.000000	0.000000	6.342864	0.093239	NaN	0.000000	0.001587	0.001715	28.0819	0.030163	0.001936	15.577	-83.456	-167.01	-0.003011	0.341140	-0.839157	-0.840496	0.093239	15.577	-0.843646	-1.756667E+11	-5.307708E-13	NaN
716	1.000000	0.352495	7.37206e+06	-41289.1	1005.82	-29786.6	0.000000	0.000000	6.352878	0.017381	NaN	0.000000	0.001597	0.001714	28.082	0.108130	0.002006	53.9011	28.887	17.1453	0.054857	0.351106	-0.829141	-0.830530	0.017381	53.9011	-0.829383	-1.125687E+11	-1.544039E-13	NaN
716	1.000000	0.362499	7.37206e+06	-41289.1	1005.82	-29786.6	0.000000	0.000000	6.362883	0.067139	NaN	0.000000	0.001653	0.001743	28.0819	0.142841	0.002150	66.4512	-151.299	-164.706	0.092955	0.361158	-0.819137	-0.820478	0.067139	66.4512	-0.819895	-8.371177E+10	-8.020237E-13	NaN
716	1.000000	0.372488	7.37206e+06	-41289.1	1005.82	-29786.6	0.000000	0.000000	6.372869	-0.016066	NaN	0.000000	0.001613	0.001694	28.081	0.046340	0.002000	23.1713	121.922	11.8345	-0.124936	0.371160	-0.809148	-0.810476	-0.016066	23.1713	-0.808628	-5.887841E+10	2.728698E-13	NaN
716	1.000000	0.382470	7.37206e+06	-41289.1	1005.82	-29786.6	0.000000	0.000000	6.382852	0.000425	NaN	0.000000	0.001590	0.001718	28.0806	0.055296	0.001969	28.0787	163.854	-168.883	-0.017990	0.381192	-0.799166	-0.800444	0.000425	28.0787	-0.799178	-4.382255E+10	-9.687630E-15	NaN
716	1.000000	0.392509	7.37206e+06	-41289.1	1005.82	-29786.6	0.000000	0.000000	6.392890	-0.009643	NaN	0.000000	0.001578	0.001725	28.0806	0.036890	0.002085	17.6957	-174.276	12.9267	0.006907	0.391193	-0.789127	-0.790443	-0.009643	17.6957	-0.788718	-3.159910E+10	3.051728E-13	NaN
716	1.000000	0.402537	7.37206e+06	-41289.1	1005.82	-29786.6	0.000000	0.000000	6.402920	0.022216	NaN	0.000000	0.001593	0.001697	28.0809	0.057325	0.001898	30.2089	-67.191	-166.065	0.033890	0.401253	-0.779099	-0.780383	0.022216	30.2089	-0.779651	-2.379484E+10	-9.336393E-13	NaN
716	1.000000	0.412541	7.37206e+06	-41289.1	1005.82	-29786.6	0.000000	0.000000	6.412923	0.013549	NaN	0.000000	0.001580	0.001714	28.0807	0.135518	0.001963	69.0251	-73.482	14.2964	0.045696	0.411171	-0.769095	-0.770465	0.013549	69.0251	-0.769243	-1.717935E+10	-7.886883E-13	NaN
716	1.000000	0.422497	7.37206e+06	-41289.1	1005.82	-29786.6	0.000000	0.000000	6.422880	0.028603	NaN	0.000000	0.001632	0.001684	28.0807	0.094370	0.002000	47.1732	-142.864	-164.389	0.053832	0.421200	-0.759139	-0.760436	0.028603	47.1732	-0.759594	-1.269917E+10	-2.252383E-12	NaN
716	1.000000	0.432506	7.37206e+06	-41289.1	1005.82	-29786.6	0.000000	0.000000	6.432887	-0.008839	NaN	0.000000	0.001620	0.001623	28.0807	0.052117	0.002011	25.9186	-58.457	13.2724	-0.100625	0.431185	-0.749130	-0.750451	-0.008839	25.9186	-0.748874	-9.076080E+9	9.738733E-13	NaN
716	1.000000	0.442543	7.37206e+06	-41289.1	1005.82	-29786.6	0.000000	0.000000	6.442927	0.051725	NaN	0.000000	0.001651	0.001713	28.081	0.155618	0.002026	76.7959	-123.482	-166.031	0.041837	0.441259	-0.739093	-0.740377	0.051725	76.7959	-0.739598	-6.785483E+9	-7.622858E-12	NaN
716	1.000000	0.452543	7.37206e+06	-41289.1	1005.82	-29786.6	0.000000	0.000000	6.452925	-0.007277	NaN	0.000000	0.001560	0.001713	28.0806	0.076890	0.002056	37.4036	-76.8925	16.5177	0.029140	0.451188	-0.729093	-0.730448	-0.007277	37.4036	-0.728947	-4.857978E+9	1.498048E-12	NaN
716	1.000000	0.462572	7.37206e+06	-41289.1	1005.82	-29786.6	0.000000	0.000000	6.462953	-0.001837	NaN	0.000000	0.001606	0.001722	28.0806	0.089628	0.002047	43.7889	-159.553	-164.279	0.073934	0.461264	-0.719064	-0.720372	-0.001837	43.7889	-0.719033	-3.558640E+9	5.161862E-13	NaN
716	1.000000	0.472554	7.37206e+06	-41289.1	1005.82	-29786.6	0.000000	0.000000	6.472933	-0.057324	NaN	0.000000	0.001620	0.001780	28.0807	0.091613	0.002000	45.8053	-111.143	16.8016	-0.003830	0.471196	-0.709082	-0.710440	-0.057324	45.8053	-0.708144	-2.527638E+9	2.267878E-11	NaN
716	1.000000	0.482544	7.37206e+06	-41289.1	1005.82	-29786.6	0.000000	0.000000	6.482923	-0.055922	NaN	0.000000	0.001600	0.001692	28.0807	0.034875	0.001971	17.6921	72.6611	-163.525	-0.079232	0.481231	-0.699092	-0.700406	-0.055922	17.6921	-0.696722	-1.765050E+9	3.168284E-11	NaN
716	1.000000	0.492545	7.37206e+06	-41289.1	1005.82	-29786.6	0.000000	0.000000	6.492928	0.019296	NaN	0.000000	0.001562	0.001716	28.0806	0.076640	0.002135	35.9007	-96.0515	12.912	-0.012322	0.491201	-0.689091	-0.690436	0.019296	35.9007	-0.689494	-1.406063E+9	-1.372341E-11	NaN
716	1.000000	0.502569	7.37206e+06	-41289.1	1005.82	-29786.6	0.000000	0.000000	6.502954	0.084427	NaN	0.000000	0.001565	0.001719	28.0808	0.025074	0.002099	11.9432	-59.5538	-163.292	0.081915	0.501253	-0.679068	-0.680384	0.084427	11.9432	-0.684369	-1.196608E+9	-7.055567E-11	NaN
716	1.000000	0.512578	7.37206e+06	-41289.1	1005.82	-29786.6	0.000000	0.000000	6.512963	0.071178	NaN	0.000000	0.001583	0.001740	28.0821	0.035491	0.002020	17.569	4.422508	16.0294	0.094233	0.511249	-0.669058	-0.670387	0.071178	17.569	-0.672096	-8.129788E+8	-8.755220E-11	NaN
716	1.000000	0.522569	7.37206e+06	-41289.1	1005.82	-29786.6	0.000000	0.000000	6.522953	0.054859	NaN	0.000000	0.001552	0.001737	28.082	0.060405	0.002166	27.8911	48.4288	-166.433	-0.052267	0.521274	-0.659067	-0.660362	0.054859	27.8911	-0.660542	-5.647971E+8	-9.713077E-11	NaN
716	1.000000	0.532544	7.37206e+06	-41289.1	1005.82	-29786.6	0.000000	0.000000	6.532929	0.092196	NaN	0.000000	0.001522	0.001723	28.0821	0.022278	0.002036	10.9407	-47.5308	13.0541	0.015345	0.531255	-0.649092	-0.650381	0.092196	10.9407	-0.655413	-4.804193E+8	-1.919075E-10	NaN
716	1.000000	0.542579	7.37206e+06	-41289.1	1005.82	-29786.6	0.000000	0.000000	6.542960	-0.026834	NaN	0.000000	0.001553	0.001755	28.0823	0.006264	0.002029	3.086851	147.512	-165.303	-0.022077	0.541271	-0.639057	-0.640365	-0.026834	3.086851	-0.632537	-2.332724E+8	1.150316E-10	NaN
716	1.000000	0.552607	7.37206e+06	-41289.1	1005.82	-29786.6	0.000000	0.000000	6.552989	0.005402	NaN	0.000000	0.001559	0.001730	28.0823	0.041025	0.001860	22.0545	-129.053	15.6356	-0.075806	0.551201	-0.629029	-0.630435	0.005402	22.0545	-0.629213	-2.099970E+8	-2.572395E-11	NaN
716	1.000000	0.562567	7.37206e+06	-41289.1	1005.82	-29786.6	0.000000	0.000000	6.562948	-0.034361	NaN	0.000000	0.001561	0.001738	28.0822	0.039791	0.002012	19.7806	7.300313	-165.603	0.054433	0.561255	-0.619069	-0.620381	-0.034361	19.7806	-0.617766	-1.461921E+8	2.350403E-10	NaN
716	1.000000	0.572549	7.37206e+06	-41289.1	1005.82	-29786.6	0.000000	0.000000	6.572931	0.013860	NaN	0.000000	0.001588	0.001681	28.082	0.147741	0.001988	74.3086	-132.8	14.1911	0.053313	0.571225	-0.609087	-0.610411	0.013860	74.3086	-0.609227	-1.115536E+8	-1.242422E-10	NaN
716	1.000000	0.582573	7.37206e+06	-41289.1	1005.82	-29786.6	0.000000	0.000000	6.582957	0.056095	NaN	0.000000	0.001614	0.001739	28.0823	0.081115	0.002010	40.3588	163.039	-164.164	0.077671	0.581262	-0.599064	-0.600374	0.056095	40.3588	-0.600106	-8.354497E+7	-6.714387E-10	NaN
716	1.000000	0.592618	7.37206e+06	-41289.1	1005.82	-29786.6	0.000000	0.000000	6.593000	-0.006789	NaN	0.000000	0.001616	0.001747	28.0822	0.028257	0.002040	13.8528	143.988	14.1521	0.030275	0.591206	-0.589018	-0.590431	-0.006789	13.8528	-0.588650	-5.808422E+7	1.168769E-10	NaN
716	1.000000	0.602589	7.37206e+06	-41289.1	1005.82	-29786.6	0.000000	0.000000	6.602971	0.012481	NaN	0.000000	0.001633	0.001748	28.0821	0.016609	0.002013	8.249466	-21.6305	-164.912	-0.002507	0.601295	-0.579048	-0.580341	0.012481	8.249466	-0.580182	-4.438543E+7	-2.811884E-10	NaN
716	1.000000	0.612596	7.37206e+06	-41289.1	1005.82	-29786.6	0.000000	0.000000	6.612977	-0.004446	NaN	0.000000	0.001619	0.001738	28.0821	0.184904	0.002118	87.3053	-155.581	18.907	0.045197	0.611205	-0.569041	-0.570431	-0.004446	87.3053	-0.569002	-3.110613E+7	1.429354E-10	NaN
716	1.000000	0.622643	7.37206e+06	-41289.1	1005.82	-29786.6	0.000000	0.000000	6.623025	0.015838	NaN	0.000000	0.001579	0.001739	28.0823	0.103712	0.001973	52.5721	154.467	-166.714	-0.003238	0.621323	-0.558994	-0.560313	0.015838	52.5721	-0.559219	-2.278139E+7	-6.952220E-10	NaN
716	1.000000	0.632612	7.37206e+06	-41289.1	1005.82	-29786.6	0.000000	0.000000	6.632997	0.077976	NaN	0.000000	0.001634	0.001699	28.0822	0.034488	0.002135	16.1556	-144.588	13.7697	0.055568	0.631229	-0.549024	-0.550407	0.077976	16.1556	-0.552644	-1.847458E+7	-4.220720E-9	NaN
716	1.000000	0.642594	7.37206e+06	-41289.1	1005.82	-29786.6	0.000000	0.000000	6.642977	0.030515	NaN	0.000000	0.001629	0.001716	28.0823	0.023917	0.001903	12.567	-120.897	-164.247	0.006244	0.641275	-0.539042	-0.540361	0.030515	12.567	-0.540864	-1.268626E+7	-2.405335E-9	NaN
716	1.000000	0.652636	7.37206e+06	-41289.1	1005.82	-29786.6	0.000000	0.000000	6.653021	0.076734	NaN	0.000000	0.001614	0.001699	28.0813	0.064972	0.001877	34.6192	-178.328	12.9215	-0.022367	0.651259	-0.529000	-0.530377	0.076734	34.6192	-0.530663	-9.15757e+06	-8.379327E-9	NaN
716	1.000000	0.662609	7.37206e+06	-41289.1	1005.82	-29786.6	0.000000	0.000000	6.662990	-0.016017	NaN	0.000000	0.001617	0.001683	28.0808	0.031164	0.001968	15.8326	-3.770760	-166.688	0.029786	0.661297	-0.519027	-0.520339	-0.016017	15.8326	-0.518268	-6.159e+06	2.600638E-9	NaN
716	1.000000	0.672633	7.37206e+06	-41289.1	1005.82	-29786.6	0.000000	0.000000	6.673014	-0.023480	NaN	0.000000	0.001623	0.001693	28.081	0.077181	0.001869	41.2887	125.239	16.788	-0.036243	0.671233	-0.509003	-0.510404	-0.023480	41.2887	-0.508576	-4.51423e+06	5.201234E-9	NaN
716	1.000000	0.682633	7.37206e+06	-41289.1	1005.82	-29786.6	0.000000	0.000000	6.683016	0.029958	NaN	0.000000	0.001606	0.001700	28.0808	0.094762	0.002025	46.8055	-73.5364	-165.146	0.048669	0.681305	-0.499003	-0.500331	0.029958	46.8055	-0.499483	-3.37136e+06	-8.886096E-9	NaN
716	1.000000	0.692617	7.37206e+06	-41289.1	1005.82	-29786.6	0.000000	0.000000	6.692999	0.003302	NaN	0.000000	0.001612	0.001712	28.0811	0.033672	0.002116	15.9116	-121.961	12.4334	0.012245	0.691302	-0.489019	-0.490334	0.003302	15.9116	-0.489174	-2.42022e+06	-1.364198E-9	NaN
716	1.000000	0.702622	7.37206e+06	-41289.1	1005.82	-29786.6	0.000000	0.000000	6.703006	0.056605	NaN	0.000000	0.001588	0.001706	28.0807	0.085426	0.001976	43.2332	-14.7251	-161.741	0.135763	0.701331	-0.479014	-0.480305	0.056605	43.2332	-0.479996	-1.80081e+06	-3.143316E-8	NaN
716	1.000000	0.712641	7.37206e+06	-41289.1	1005.82	-29786.6	0.000000	0.000000	6.713026	0.068053	NaN	0.000000	0.001628	0.001675	28.0811	0.089311	0.002158	41.3863	175.044	13.0692	0.009269	0.711252	-0.468995	-0.470385	0.068053	41.3863	-0.470228	-1.31404e+06	-5.178915E-8	NaN
716	1.000000	0.722680	7.37206e+06	-41289.1	1005.82	-29786.6	0.000000	0.000000	6.723062	0.007034	NaN	0.000000	0.001607	0.001664	28.081	0.022332	0.001987	11.2405	142.435	-166.13	0.046257	0.721326	-0.458956	-0.460310	0.007034	11.2405	-0.459425	-926709	-7.589806E-9	NaN
716	1.000000	0.732667	7.37206e+06	-41289.1	1005.82	-29786.6	0.000000	0.000000	6.733048	0.005399	NaN	0.000000	0.001623	0.001714	28.081	0.085616	0.002082	41.1307	-131.543	18.3636	-0.043077	0.731258	-0.448970	-0.450378	0.005399	41.1307	-0.449068	-662550	-8.149477E-9	NaN
716	1.000000	0.742640	7.37206e+06	-41289.1	1005.82	-29786.6	0.000000	0.000000	6.743026	0.106995	NaN	0.000000	0.001613	0.001731	28.0807	0.028324	0.002094	13.5278	176.454	-167.636	0.141273	0.741321	-0.438996	-0.440315	0.106995	13.5278	-0.444928	-579268	-1.847068E-7	NaN
716	1.000000	0.752668	7.37206e+06	-41289.1	1005.82	-29786.6	0.000000	0.000000	6.753046	-0.084365	NaN	0.000000	0.001611	0.001698	28.0808	0.021351	0.001921	11.116	86.0975	12.7943	-0.033942	0.751328	-0.428968	-0.430308	-0.084365	11.116	-0.423276	-286324	2.946496E-7	NaN
716	1.000000	0.762664	7.37206e+06	-41289.1	1005.82	-29786.6	0.000000	0.000000	6.763045	-0.003260	NaN	0.000000	0.001611	0.001707	28.0811	0.042910	0.001945	22.0614	-46.898	-167.171	-0.035311	0.761342	-0.418973	-0.420294	-0.003260	22.0614	-0.418862	-247896	1.315147E-8	NaN
716	1.000000	0.772669	7.37206e+06	-41289.1	1005.82	-29786.6	0.000000	0.000000	6.773054	0.065053	NaN	0.000000	0.001665	0.001653	28.0808	0.114535	0.001965	58.2881	88.5026	14.5431	0.090390	0.771305	-0.408967	-0.410331	0.065053	58.2881	-0.409804	-184337	-3.529010E-7	NaN
716	1.000000	0.782646	7.37206e+06	-41289.1	1005.82	-29786.6	0.000000	0.000000	6.783028	-0.001261	NaN	0.000000	0.001625	0.001723	28.0821	0.073006	0.002014	36.2541	139.35	-163.86	0.033488	0.781318	-0.398990	-0.400319	-0.001261	36.2541	-0.398964	-129187	9.758507E-9	NaN
716	1.000000	0.792675	7.37206e+06	-41289.1	1005.82	-29786.6	0.000000	0.000000	6.793057	-0.002658	NaN	0.000000	0.001632	0.001743	28.0822	0.040272	0.002075	19.4109	-14.6545	15.2773	-0.001084	0.791323	-0.388961	-0.390313	-0.002658	19.4109	-0.388858	-92646.6	2.869236E-8	NaN
716	1.000000	0.802668	7.37206e+06	-41289.1	1005.82	-29786.6	0.000000	0.000000	6.803052	0.064998	NaN	0.000000	0.001620	0.001762	28.0821	0.048241	0.001974	24.4341	75.9895	-166.374	0.090603	0.801405	-0.378968	-0.380232	0.064998	24.4341	-0.380963	-71402.2	-9.103074E-7	NaN
716	1.000000	0.812693	7.37206e+06	-41289.1	1005.82	-29786.6	0.000000	0.000000	6.813073	-0.040138	NaN	0.000000	0.001635	0.001730	28.0821	0.079447	0.001947	40.803	175.024	14.4125	-0.002020	0.811339	-0.368943	-0.370297	-0.040138	40.803	-0.368205	-46802.9	8.576062E-7	NaN
716	1.000000	0.822673	7.37206e+06	-41289.1	1005.82	-29786.6	0.000000	0.000000	6.823057	0.051166	NaN	0.000000	0.001635	0.001746	28.0822	0.064644	0.001970	32.8123	40.1759	-168.601	0.039720	0.821376	-0.358963	-0.360261	0.051166	32.8123	-0.360132	-35789.8	-1.429636E-6	NaN
716	1.000000	0.832689	7.37206e+06	-41289.1	1005.82	-29786.6	0.000000	0.000000	6.833070	-0.010088	NaN	0.000000	0.001620	0.001749	28.0823	0.047967	0.002020	23.7488	-124.345	16.8419	-0.021444	0.831387	-0.348947	-0.350249	-0.010088	23.7488	-0.348629	-24383.4	4.137198E-7	NaN
716	1.000000	0.842690	7.37206e+06	-41289.1	1005.82	-29786.6	0.000000	0.000000	6.843073	0.029140	NaN	0.000000	0.001612	0.001735	28.0821	0.114535	0.002001	57.2313	177.06	-164.341	-0.073294	0.841408	-0.338946	-0.340229	0.029140	57.2313	-0.339328	-17854.9	-1.632017E-6	NaN
716	1.000000	0.852727	7.37206e+06	-41289.1	1005.82	-29786.6	0.000000	0.000000	6.853108	-0.028177	NaN	0.000000	0.001572	0.001727	28.0821	0.099401	0.001927	51.5912	140.343	12.4076	0.015296	0.851338	-0.328909	-0.330298	-0.028177	51.5912	-0.328499	-12401.2	2.272093E-6	NaN
716	1.000000	0.862691	7.37206e+06	-41289.1	1005.82	-29786.6	0.000000	0.000000	6.863073	0.006986	NaN	0.000000	0.001593	0.001702	28.0824	0.036372	0.001959	18.5642	55.9441	-170.239	0.086217	0.861415	-0.318945	-0.320222	0.006986	18.5642	-0.319227	-9062.86	-7.707940E-7	NaN
716	1.000000	0.872713	7.37206e+06	-41289.1	1005.82	-29786.6	0.000000	0.000000	6.873092	-0.066935	NaN	0.000000	0.001578	0.001733	28.0825	0.107929	0.001958	55.1292	162.913	14.2188	0.031913	0.871416	-0.308923	-0.310221	-0.066935	55.1292	-0.308013	-6189.15	1.081489E-5	NaN
716	1.000000	0.882706	7.37206e+06	-41289.1	1005.82	-29786.6	0.000000	0.000000	6.883090	0.057406	NaN	0.000000	0.001626	0.001704	28.0821	0.087232	0.002023	43.1251	119.941	-166.589	0.080580	0.881405	-0.298930	-0.300231	0.057406	43.1251	-0.299928	-4694.29	-1.222895E-5	NaN
716	1.000000	0.892704	7.37206e+06	-41289.1	1005.82	-29786.6	0.000000	0.000000	6.893085	-0.015398	NaN	0.000000	0.001713	0.001702	28.0822	0.041638	0.001907	21.8294	-75.8566	11.2944	-0.023431	0.891419	-0.288932	-0.290217	-0.015398	21.8294	-0.288403	-3157.68	4.876252E-6	NaN
716	1.000000	0.902708	7.37206e+06	-41289.1	1005.82	-29786.6	0.000000	0.000000	6.903089	-0.019722	NaN	0.000000	0.001719	0.001682	28.0823	0.108928	0.002044	53.2925	53.8105	-164.717	-0.010367	0.901403	-0.278928	-0.280233	-0.019722	53.2925	-0.278650	-2252.17	8.756952E-6	NaN
716	1.000000	0.912727	7.37206e+06	-41289.1	1005.82	-29786.6	0.000000	0.000000	6.913109	0.006891	NaN	0.000000	0.001680	0.001652	28.0822	0.116330	0.001958	59.3994	-39.0881	15.0141	0.004738	0.911411	-0.268909	-0.270225	0.006891	59.3994	-0.268996	-1607.95	-4.285445E-6	NaN
716	1.000000	0.922716	7.37206e+06	-41289.1	1005.82	-29786.6	0.000000	0.000000	6.923098	0.016562	NaN	0.000000	0.001699	0.001681	28.0811	0.081107	0.001924	42.1578	-102.565	-167.93	-0.097795	0.921440	-0.258921	-0.260197	0.016562	42.1578	-0.259215	-1139.95	-1.452907E-5	NaN
716	1.000000	0.932714	7.37206e+06	-41289.1	1005.82	-29786.6	0.000000	0.000000	6.933096	9.911900E-5	NaN	0.000000	0.001689	0.001778	28.0813	0.056915	0.002107	27.0175	106.181	16.2658	-0.002055	0.931436	-0.248922	-0.250200	9.911900E-5	27.0175	-0.248925	-791.278	-1.252645E-7	NaN
716	1.000000	0.942747	7.37206e+06	-41289.1	1005.82	-29786.6	0.000000	0.000000	6.943131	0.074458	NaN	0.000000	0.001688	0.001772	28.0812	0.072431	0.002030	35.6768	163.062	-166.876	0.030953	0.941398	-0.238890	-0.240239	0.074458	35.6768	-0.240455	-584.329	-0.000127	NaN
716	1.000000	0.952719	7.37206e+06	-41289.1	1005.82	-29786.6	0.000000	0.000000	6.953102	0.018667	NaN	0.000000	0.001689	0.001730	28.0811	0.155849	0.001851	84.2133	-122.391	16.7291	0.029825	0.951363	-0.228917	-0.230273	0.018667	84.2133	-0.229083	-387.288	-4.819795E-5	NaN
716	1.000000	0.962737	7.37206e+06	-41289.1	1005.82	-29786.6	0.000000	0.000000	6.963118	-0.004865	NaN	0.000000	0.001658	0.001722	28.0809	0.058644	0.002062	28.4421	7.565241	-164.949	-0.007653	0.961399	-0.218899	-0.220237	-0.004865	28.4421	-0.218771	-265.474	1.832498E-5	NaN
716	1.000000	0.972728	7.37206e+06	-41289.1	1005.82	-29786.6	0.000000	0.000000	6.973111	0.042064	NaN	0.000000	0.001663	0.001702	28.0821	0.122171	0.001958	62.4009	-164.127	12.2738	0.079743	0.971448	-0.208909	-0.210188	0.042064	62.4009	-0.209414	-187.642	-0.000224	NaN
716	1.000000	0.982736	7.37206e+06	-41289.1	1005.82	-29786.6	0.000000	0.000000	6.983117	-0.002947	NaN	0.000000	0.001682	0.001722	28.081	0.042628	0.001972	21.616	-29.1484	-169.728	0.005996	0.981447	-0.198900	-0.200190	-0.002947	21.616	-0.198798	-125.871	2.341148E-5	NaN
716	1.000000	0.992740	7.37206e+06	-41289.1	1005.82	-29786.6	0.000000	0.000000	6.993120	-0.043171	NaN	0.000000	0.001680	0.001737	28.081	0.047022	0.001998	23.532	20.9304	12.9304	0.043120	0.991418	-0.188896	-0.190219	-0.043171	23.532	-0.187520	-81.7534	0.000528	NaN
716	1.000000	1.002759	7.37206e+06	-41289.1	1005.82	-29786.6	0.000000	0.000000	7.003139	-0.032145	NaN	0.000000	0.001706	0.001734	28.0813	0.022220	0.001957	11.3539	81.3608	-166.37	-0.039003	1.001486	-0.178878	-0.180150	-0.032145	11.3539	-0.176754	-53.7121	0.000598	NaN
716	1.000000	1.012742	7.37206e+06	-41289.1	1005.82	-29786.6	0.000000	0.000000	7.013123	-0.022059	NaN	0.000000	0.001672	0.001705	28.0812	0.057551	0.002157	26.6843	5.294098	15.2488	-0.092817	1.011505	-0.168894	-0.170132	-0.022059	26.6843	-0.168274	-38.3341	0.000575	NaN
716	1.000000	1.022756	7.37206e+06	-41289.1	1005.82	-29786.6	0.000000	0.000000	7.023138	0.019953	NaN	0.000000	0.001679	0.001688	28.0812	0.033185	0.002024	16.3946	36.1724	-166.124	0.021531	1.021464	-0.158880	-0.160172	0.019953	16.3946	-0.159793	-27.1835	-0.000734	NaN
716	1.000000	1.032763	7.37206e+06	-41289.1	1005.82	-29786.6	0.000000	0.000000	7.033145	0.019888	NaN	0.000000	0.001675	0.001709	28.0809	0.084532	0.001892	44.6821	137.182	13.8082	-0.012175	1.031418	-0.148874	-0.150218	0.019888	44.6821	-0.149207	-17.52	-0.001135	NaN
716	1.000000	1.042785	7.37206e+06	-41289.1	1005.82	-29786.6	0.000000	0.000000	7.043168	0.031193	NaN	0.000000	0.001672	0.001689	28.0812	0.042456	0.002141	19.8305	158.566	-168.096	-0.092004	1.041472	-0.138851	-0.140164	0.031193	19.8305	-0.140031	-11.8454	-0.002633	NaN
716	1.000000	1.052765	7.37206e+06	-41289.1	1005.82	-29786.6	0.000000	0.000000	7.053149	0.040795	NaN	0.000000	0.001669	0.001675	28.0808	0.121766	0.001999	60.9044	-79.9722	14.8986	0.023748	1.051377	-0.128871	-0.130259	0.040795	60.9044	-0.129373	-7.410074	-0.005505	NaN
716	1.000000	1.062781	7.37206e+06	-41289.1	1005.82	-29786.6	0.000000	0.000000	7.063161	-0.020211	NaN	0.000000	0.001588	0.001724	28.082	0.012017	0.001970	6.101136	-30.4252	-164.46	-0.125327	1.061495	-0.118856	-0.120141	-0.020211	6.101136	-0.116371	-4.076498	0.004958	NaN
716	1.000000	1.072769	7.37206e+06	-41289.1	1005.82	-29786.6	0.000000	0.000000	7.073152	0.039004	NaN	0.000000	0.001600	0.001726	28.0819	0.078206	0.002022	38.6799	-39.1411	13.1779	0.090871	1.071442	-0.108867	-0.110194	0.039004	38.6799	-0.109624	-2.950750	-0.013218	NaN
716	1.000000	1.082785	7.37206e+06	-41289.1	1005.82	-29786.6	0.000000	0.000000	7.083167	0.016822	NaN	0.000000	0.001581	0.001728	28.0823	0.089364	0.001959	45.619	-59.5481	-168.127	0.008782	1.081535	-0.098851	-0.100101	0.016822	45.619	-0.099128	-1.747394	-0.009627	NaN
716	1.000000	1.092805	7.37206e+06	-41289.1	1005.82	-29786.6	0.000000	0.000000	7.093186	-0.002510	NaN	0.000000	0.001618	0.001661	28.0821	0.098461	0.001998	49.2735	-86.9744	17.4337	-0.094025	1.091436	-0.088831	-0.090200	-0.002510	49.2735	-0.088793	-1.012501	0.002479	NaN
716	1.000000	1.102800	7.37206e+06	-41289.1	1005.82	-29786.6	0.000000	0.000000	7.103185	0.088070	NaN	0.000000	0.001605	0.001670	28.0842	0.110839	0.001942	57.0729	-83.703	-163.938	0.051510	1.101431	-0.078836	-0.080206	0.088070	57.0729	-0.079994	-0.618772	-0.142330	NaN
716	1.000000	1.112813	7.37206e+06	-41289.1	1005.82	-29786.6	0.000000	0.000000	7.113197	0.074749	NaN	0.000000	0.001610	0.001669	28.0856	0.017497	0.002057	8.504337	77.2758	15.1984	-1.805753E-6	1.111404	-0.068824	-0.070232	0.074749	8.504337	-0.075416	-0.473438	-0.157886	NaN
716	1.000000	1.122812	7.37206e+06	-41289.1	1005.82	-29786.6	0.000000	0.000000	7.123194	0.010021	NaN	0.000000	0.001634	0.001732	28.0835	0.075597	0.001973	38.3246	-168.176	-165.299	0.079093	1.121445	-0.058824	-0.060192	0.010021	38.3246	-0.059020	-0.168773	-0.059378	NaN
716	1.000000	1.132843	7.37206e+06	-41289.1	1005.82	-29786.6	0.000000	0.000000	7.133226	0.046167	NaN	0.000000	0.001611	0.001709	28.0821	0.016520	0.001821	9.073766	-149.454	15.3448	0.047287	1.131429	-0.048793	-0.050208	0.046167	9.073766	-0.052609	-0.109330	-0.422268	NaN
716	1.000000	1.142804	7.37206e+06	-41289.1	1005.82	-29786.6	0.000000	0.000000	7.143188	0.056245	NaN	0.000000	0.001622	0.001710	28.082	0.074062	0.001880	39.3907	48.7579	-164.215	0.093870	1.141488	-0.038832	-0.040148	0.056245	39.3907	-0.039903	-0.044917	-1.252186	NaN
716	1.000000	1.152833	7.37206e+06	-41289.1	1005.82	-29786.6	0.000000	0.000000	7.153212	-0.053779	NaN	0.000000	0.001680	0.001710	28.0822	0.027868	0.001916	14.5463	-153.683	13.5487	0.042718	1.151512	-0.028803	-0.030124	-0.053779	14.5463	-0.026031	-0.017956	2.995002	NaN
716	1.000000	1.162815	7.37206e+06	-41289.1	1005.82	-29786.6	0.000000	0.000000	7.163196	-0.006988	NaN	0.000000	0.001632	0.001717	28.0824	0.074069	0.001955	37.8931	-108.817	-162.498	-0.013027	1.161509	-0.018821	-0.020127	-0.006988	37.8931	-0.018683	-0.011625	0.601150	NaN
716	1.000000	1.172813	7.37206e+06	-41289.1	1005.82	-29786.6	0.000000	0.000000	7.173195	0.026372	NaN	0.000000	0.001648	0.001692	28.0821	0.085972	0.002055	41.8407	-61.6104	14.9028	0.016525	1.171459	-0.008823	-0.010177	0.026372	41.8407	-0.009296	-0.005984	-4.407396	NaN
716	1.000000	1.182806	7.37206e+06	-41289.1	1005.82	-29786.6	0.000000	0.000000	7.183246	1.415851	NaN	0.000000	0.001638	0.001736	28.0821	2.160706	0.001898	1138.33	6.782948	-169.033	0.564099	1.181541	0.001170	-9.509501E-5	1.415851	1138.33	0.000237	0.000178	7957.98	77971.2
716	2.000000	1.189998	7.37206e+06	-41289.1	1005.82	-29786.6	0.000000	0.000000	7.190748	8.976089	NaN	0.000000	0.001646	0.001691	28.081	8.717596	0.001752	4977	12.7332	2.889612	8.749458	1.189623	0.008362	0.007987	8.976089	4977	0.007009	0.006043	1485.44	58495.8
716	2.000000	1.192434	7.37206e+06	-41289.1	1005.82	-29786.6	0.000000	0.000000	7.193297	11.7063	NaN	0.000000	0.001680	0.001693	28.0808	11.336	0.001817	6237.24	7.847559	-173.785	11.879	1.192225	0.010798	0.010589	11.7063	6237.24	0.009390	0.008512	1375.3	61766.7
716	2.000000	1.194932	7.37206e+06	-41289.1	1005.82	-29786.6	0.000000	0.000000	7.196004	16.7881	NaN	0.000000	0.001658	0.001681	28.0809	13.13	0.001636	8024.45	3.488301	8.239169	15.3557	1.194582	0.013296	0.012946	16.7881	8024.45	0.011727	0.011165	1503.65	69384.3
716	2.000000	1.197388	7.37206e+06	-41289.1	1005.82	-29786.6	0.000000	0.000000	7.198650	21.4391	NaN	0.000000	0.001632	0.001725	28.0807	15.6821	0.001814	8646.12	4.792721	-172.963	20.2071	1.197101	0.015751	0.015465	21.4391	8646.12	0.013892	0.013836	1549.54	67157.2
716	2.000000	1.199914	7.37206e+06	-41289.1	1005.82	-29786.6	0.000000	0.000000	7.201272	23.7683	NaN	0.000000	0.001629	0.001731	28.0813	18.3664	0.001977	9290.35	6.654281	6.117262	24.0944	1.199520	0.018277	0.017884	23.7683	9290.35	0.016359	0.017140	1386.72	64833.7
716	2.000000	1.202387	7.37206e+06	-41289.1	1005.82	-29786.6	0.000000	0.000000	7.204069	31.6437	NaN	0.000000	0.001617	0.001707	28.0808	20.3107	0.001774	11447.8	5.104211	-176.702	30.5452	1.202127	0.020751	0.020491	31.6437	11447.8	0.018678	0.020507	1543.06	73037.1
716	2.000000	1.204926	7.37206e+06	-41289.1	1005.82	-29786.6	0.000000	0.000000	7.206893	38.5954	NaN	0.000000	0.001662	0.001698	28.081	22.2011	0.001696	13090.2	6.364090	1.561258	38.0167	1.204474	0.023289	0.022838	38.5954	13090.2	0.021078	0.024265	1590.59	76776.7
716	2.000000	1.207388	7.37206e+06	-41289.1	1005.82	-29786.6	0.000000	0.000000	7.209555	43.4581	NaN	0.000000	0.001659	0.001749	28.0811	25.0166	0.001748	14312	7.221260	179.476	42.4197	1.207040	0.025751	0.025404	43.4581	14312	0.023474	0.028298	1535.74	77731.5
716	2.000000	1.209886	7.37206e+06	-41289.1	1005.82	-29786.6	0.000000	0.000000	7.212350	50.6639	NaN	0.000000	0.001624	0.001730	28.0822	27.2433	0.001777	15334.8	6.650364	-0.527302	50.2441	1.209505	0.028250	0.027869	50.6639	15334.8	0.025772	0.032435	1562	77793.5
716	2.000000	1.212340	7.37206e+06	-41289.1	1005.82	-29786.6	0.000000	0.000000	7.215135	58.7032	NaN	0.000000	0.001676	0.001718	28.081	29.3038	0.001720	17035.7	1.833155	-177.233	57.2177	1.212110	0.030704	0.030473	58.7032	17035.7	0.028120	0.036937	1589.29	80985
716	2.000000	1.214900	7.37206e+06	-41289.1	1005.82	-29786.6	0.000000	0.000000	7.218028	66.8272	NaN	0.000000	0.001644	0.001704	28.0817	32.2457	0.001841	17512.1	7.900289	-1.786202	66.6064	1.214537	0.033264	0.032901	66.8272	17512.1	0.030402	0.041581	1607.14	78462.6
716	2.000000	1.217367	7.37206e+06	-41289.1	1005.82	-29786.6	0.000000	0.000000	7.220877	76.1058	NaN	0.000000	0.001655	0.001696	28.0811	33.9322	0.001705	19904.3	2.641881	-178.841	76.2001	1.217075	0.035731	0.035438	76.1058	19904.3	0.032864	0.046888	1623.13	83982.2
716	2.000000	1.219825	7.37206e+06	-41289.1	1005.82	-29786.6	0.000000	0.000000	7.223720	85.4973	NaN	0.000000	0.001636	0.001726	28.0814	36.7328	0.001749	20999.2	6.532570	-3.619593	83.3284	1.219477	0.038189	0.037841	85.4973	20999.2	0.035135	0.052061	1642.26	84085.5
716	2.000000	1.222332	7.37206e+06	-41289.1	1005.82	-29786.6	0.000000	0.000000	7.226641	95.5667	NaN	0.000000	0.001610	0.001737	28.0806	40.1744	0.001964	20457.1	6.177298	178.699	95.1597	1.222046	0.040695	0.040410	95.5667	20457.1	0.037192	0.056972	1677.42	78304.3
716	2.000000	1.224818	7.37206e+06	-41289.1	1005.82	-29786.6	0.000000	0.000000	7.229539	105.584	NaN	0.000000	0.001627	0.001713	28.083	41.0769	0.001799	22833	3.654490	-0.566251	102.801	1.224550	0.043182	0.042914	105.584	22833	0.039714	0.063290	1668.25	82921.8
716	2.000000	1.227373	7.37206e+06	-41289.1	1005.82	-29786.6	0.000000	0.000000	7.232566	117.069	NaN	0.000000	0.001599	0.001706	28.082	43.3088	0.001633	26526.6	5.024528	175.857	116.61	1.227035	0.045737	0.045398	117.069	26526.6	0.042427	0.070451	1661.71	91308.5
716	2.000000	1.229806	7.37206e+06	-41289.1	1005.82	-29786.6	0.000000	0.000000	7.235432	127.603	NaN	0.000000	0.001634	0.001723	28.0823	45.7608	0.001760	25994.3	1.804546	0.162441	124.768	1.229445	0.048170	0.047809	127.603	25994.3	0.044488	0.076141	1675.87	86068.1
716	2.000000	1.232328	7.37206e+06	-41289.1	1005.82	-29786.6	0.000000	0.000000	7.238408	138.678	NaN	0.000000	0.001634	0.001739	28.082	48.6056	0.001770	27453.3	3.776998	176.9	138.067	1.232063	0.050691	0.050427	138.678	27453.3	0.046903	0.083081	1669.2	87019.9
716	2.000000	1.234834	7.37206e+06	-41289.1	1005.82	-29786.6	0.000000	0.000000	7.241433	151.27	NaN	0.000000	0.001645	0.001709	28.0827	49.1815	0.001676	29340.2	-0.788110	1.099772	147.439	1.234515	0.053198	0.052879	151.27	29340.2	0.049331	0.090358	1674.13	89177.1
716	2.000000	1.237330	7.37206e+06	-41289.1	1005.82	-29786.6	0.000000	0.000000	7.244523	165.74	NaN	0.000000	0.001608	0.001752	28.0822	52.0801	0.001738	29973.8	6.222799	174.224	164.189	1.237009	0.055693	0.055373	165.74	29973.8	0.051546	0.097253	1704.22	87814
716	2.000000	1.239759	7.37206e+06	-41289.1	1005.82	-29786.6	0.000000	0.000000	7.247405	176.764	NaN	0.000000	0.001654	0.001739	28.0821	54.82	0.001856	29540.1	4.401557	-3.412130	170.378	1.239349	0.058123	0.057713	176.764	29540.1	0.053635	0.103980	1699.99	83697.4
716	2.000000	1.242350	7.37206e+06	-41289.1	1005.82	-29786.6	0.000000	0.000000	7.250558	190.431	NaN	0.000000	0.001652	0.001741	28.0821	57.5115	0.001887	30481.3	8.541081	173.422	190.823	1.241938	0.060714	0.060302	190.431	30481.3	0.056028	0.111953	1701	83231.8
716	2.000000	1.244791	7.37206e+06	-41289.1	1005.82	-29786.6	0.000000	0.000000	7.253619	205.523	NaN	0.000000	0.001666	0.001749	28.0822	57.8088	0.001787	32341.6	-0.201379	1.354443	201.323	1.244387	0.063155	0.062751	205.523	32341.6	0.058389	0.120094	1711.35	85265.6
716	2.000000	1.247325	7.37206e+06	-41289.1	1005.82	-29786.6	0.000000	0.000000	7.256791	221.032	NaN	0.000000	0.001631	0.001760	28.0822	59.8017	0.001725	34665.9	2.932528	176.514	219.082	1.246986	0.065689	0.065349	221.032	34665.9	0.060907	0.129081	1712.35	88154.5
716	2.000000	1.249727	7.37206e+06	-41289.1	1005.82	-29786.6	0.000000	0.000000	7.259809	236.04	NaN	0.000000	0.001659	0.001758	28.0822	62.5295	0.001829	34184.6	2.071486	-2.558460	231.219	1.249431	0.068091	0.067795	236.04	34184.6	0.062912	0.136458	1729.76	84548
716	2.000000	1.252306	7.37206e+06	-41289.1	1005.82	-29786.6	0.000000	0.000000	7.262828	246.723	NaN	0.000000	0.001623	0.001714	28.0823	64.5009	0.001701	37923.2	0.974417	177.389	245.257	1.252179	0.070670	0.070543	246.723	37923.2	0.065791	0.147388	1673.97	90250.1
716	2.000000	1.254816	7.37206e+06	-41289.1	1005.82	-29786.6	0.000000	0.000000	7.266183	267.288	NaN	0.000000	0.001623	0.001713	28.0823	66.3533	0.001594	41621.6	2.938096	-5.119141	263.408	1.254475	0.073180	0.072839	267.288	41621.6	0.068364	0.157496	1697.11	95820.3
716	2.000000	1.257337	7.37206e+06	-41289.1	1005.82	-29786.6	0.000000	0.000000	7.269314	282.137	NaN	0.000000	0.001636	0.001703	28.0821	69.2193	0.001715	40354.3	3.530744	175.395	282.849	1.256909	0.075701	0.075273	282.137	40354.3	0.070457	0.165954	1700.09	90504.4
716	2.000000	1.259754	7.37206e+06	-41289.1	1005.82	-29786.6	0.000000	0.000000	7.272146	292.25	NaN	0.000000	0.001615	0.001682	28.0808	72.7856	0.001747	41663.5	1.916842	-4.277769	286.583	1.259396	0.078118	0.077760	292.25	41663.5	0.072857	0.175904	1661.42	90759.3
716	2.000000	1.262248	7.37206e+06	-41289.1	1005.82	-29786.6	0.000000	0.000000	7.275268	307.526	NaN	0.000000	0.001641	0.001705	28.0809	75.7924	0.001702	44528.7	4.932226	172.894	303.456	1.261956	0.080612	0.080320	307.526	44528.7	0.075432	0.186884	1645.55	94108.3
716	2.000000	1.264846	7.37206e+06	-41289.1	1005.82	-29786.6	0.000000	0.000000	7.278743	328.852	NaN	0.000000	0.001657	0.001718	28.0812	77.326	0.001752	44136	4.245446	-6.206527	328.629	1.264440	0.083210	0.082803	328.852	44136	0.077622	0.196467	1673.83	90974.7
716	2.000000	1.267265	7.37206e+06	-41289.1	1005.82	-29786.6	0.000000	0.000000	7.281806	344.521	NaN	0.000000	0.001637	0.001708	28.0811	79.2483	0.001827	43383.7	5.702910	171.968	343.421	1.266967	0.085629	0.085331	344.521	43383.7	0.079673	0.205646	1675.31	87405.6
716	2.000000	1.269801	7.37206e+06	-41289.1	1005.82	-29786.6	0.000000	0.000000	7.285035	361.405	NaN	0.000000	0.001631	0.001720	28.081	82.6169	0.001905	43366.7	7.145069	-8.865263	361.583	1.269420	0.088164	0.087784	361.405	43366.7	0.081914	0.215901	1673.94	85271.2
716	2.000000	1.272232	7.37206e+06	-41289.1	1005.82	-29786.6	0.000000	0.000000	7.288376	383.529	NaN	0.000000	0.001624	0.001716	28.0814	82.9092	0.001733	47836.9	0.552282	176.911	378.842	1.271935	0.090596	0.090299	383.529	47836.9	0.084583	0.228415	1679.09	91448
716	2.000000	1.274755	7.37206e+06	-41289.1	1005.82	-29786.6	0.000000	0.000000	7.291524	398.76	NaN	0.000000	0.001632	0.001738	28.0812	84.8849	0.001755	48372.4	2.130902	-5.196596	392.834	1.274434	0.093118	0.092798	398.76	48372.4	0.086936	0.239722	1663.43	90264.5
716	2.000000	1.277196	7.37206e+06	-41289.1	1005.82	-29786.6	0.000000	0.000000	7.294821	419.557	NaN	0.000000	0.001647	0.001736	28.0811	87.845	0.001825	48139.7	2.992559	174.053	415.106	1.277007	0.095560	0.095371	419.557	48139.7	0.089024	0.249969	1678.44	87969.8
716	2.000000	1.279679	7.37206e+06	-41289.1	1005.82	-29786.6	0.000000	0.000000	7.298099	438.924	NaN	0.000000	0.001589	0.001766	28.0812	90.6795	0.001885	48100.8	1.974937	-4.322004	430.933	1.279275	0.098043	0.097638	438.924	48100.8	0.091199	0.260859	1682.61	86044.4
716	2.000000	1.282157	7.37206e+06	-41289.1	1005.82	-29786.6	0.000000	0.000000	7.301557	462.76	NaN	0.000000	0.001652	0.001746	28.0814	93.1533	0.001700	54791.5	5.309680	170.906	456.082	1.281963	0.100521	0.100327	462.76	54791.5	0.094186	0.276164	1675.67	95258.4
716	2.000000	1.284814	7.37206e+06	-41289.1	1005.82	-29786.6	0.000000	0.000000	7.305207	486.931	NaN	0.000000	0.001577	0.001750	28.0812	96.4113	0.001901	50714.9	9.372006	-11.9589	485.523	1.284336	0.103177	0.102700	486.931	50714.9	0.095976	0.285531	1705.35	86712.6
716	2.000000	1.287218	7.37206e+06	-41289.1	1005.82	-29786.6	0.000000	0.000000	7.308569	510.257	NaN	0.000000	0.001589	0.001713	28.0811	97.3069	0.001746	55733.3	2.792478	173.061	505.609	1.286952	0.105581	0.105316	510.257	55733.3	0.098715	0.300144	1700.04	92944.3