File: remote_trans/data/nanoindenter/0828-1/data/Data_2025-08-06,11h17m57s/2025-07-22_16-23-58_1_113.txt
2025-07-22, 16:23:58, 1
Index	Phase	Displacement	Time	Pos X	Pos Y	Pos Z	Rot A	Rot B	Piezo Z	Force A	Force B	Gripper	Voltage A	Voltage B	Temperature	Amplitude force	Amplitude pos	Stiffness	Phase shift	Phase excitation	Force A raw	Displacement raw	HMax	HMax raw	Real Force	Real Stiffness	Contact Depth	Area	Hardness	Reduced Mod.
[#]	[#]	[um]	[s]	[um]	[um]	[um]	[m°]	[m°]	[um]	[uN]	[uN]	[V]	[V]	[V]	[°C]	[uN]	[um]	[N/m]	[°]	[°]	[uN]	[um]	[um]	[um]	[uN]	[N/m]	[um]	[um^2]	[MPa]	[MPa]
113	1.000000	0.002225	7.36614e+06	-44289.1	955.82	-29776.9	0.000000	0.000000	6.002808	0.016930	NaN	0.000000	0.001534	0.001764	28.1028	0.013974	0.000876	15.9449	-14.4301	-167.081	-0.020812	0.000955	-0.989974	-0.991244	0.016930	15.9449	-0.990770	-1.704054E+13	-9.935029E-16	NaN
113	1.000000	0.010188	7.36614e+06	-44289.1	955.818	-29776.9	0.000000	0.000000	6.010769	-0.030200	NaN	0.000000	0.001557	0.001825	28.1032	0.070908	0.000970	73.0999	-37.1637	-163.155	-0.020025	0.008858	-0.982011	-0.983341	-0.030200	73.0999	-0.981701	-1.286247E+13	2.347909E-15	NaN
113	1.000000	0.018175	7.36614e+06	-44289.1	955.818	-29776.9	0.000000	0.000000	6.018755	-0.062900	NaN	0.000000	0.001572	0.001791	28.1029	0.050927	0.001746	29.1752	-150.515	-162.468	0.016038	0.016839	-0.974024	-0.975360	-0.062900	29.1752	-0.972407	-9.640617E+12	6.524530E-15	NaN
113	1.000000	0.026186	7.36614e+06	-44289.1	955.818	-29776.9	0.000000	0.000000	6.026769	0.015593	NaN	0.000000	0.001547	0.001823	28.102	0.068284	0.001838	37.153	147.147	-165.627	0.017189	0.024882	-0.966013	-0.967317	0.015593	37.153	-0.966328	-7.983112E+12	-1.953231E-15	NaN
113	1.000000	0.034173	7.36614e+06	-44289.1	955.818	-29776.9	0.000000	0.000000	6.034757	0.028118	NaN	0.000000	0.001489	0.001821	28.1031	0.072470	0.001994	36.3447	95.5746	-164.333	0.033036	0.032843	-0.958026	-0.959356	0.028118	36.3447	-0.958606	-6.281675E+12	-4.476217E-15	NaN
113	1.000000	0.042171	7.36614e+06	-44289.1	955.817	-29776.9	0.000000	0.000000	6.042753	-0.008382	NaN	0.000000	0.001523	0.001781	28.1029	0.054095	0.002019	26.7927	55.4348	-165.132	-0.019759	0.040880	-0.950028	-0.951319	-0.008382	26.7927	-0.949794	-4.777992E+12	1.754217E-15	NaN
113	1.000000	0.050208	7.36614e+06	-44289.1	955.819	-29776.9	0.000000	0.000000	6.050791	0.018374	NaN	0.000000	0.001540	0.001817	28.1036	0.058523	0.001971	29.6893	-169.926	-163.317	0.128666	0.048900	-0.941991	-0.943299	0.018374	29.6893	-0.942455	-3.804187E+12	-4.829932E-15	NaN
113	1.000000	0.058165	7.36614e+06	-44289.1	955.818	-29776.9	0.000000	0.000000	6.058747	-0.023107	NaN	0.000000	0.001526	0.001773	28.1036	0.056802	0.001955	29.0592	-28.5623	-164.24	0.004447	0.056826	-0.934034	-0.935373	-0.023107	29.0592	-0.933437	-2.874668E+12	8.038215E-15	NaN
113	1.000000	0.066203	7.36614e+06	-44289.1	955.818	-29776.9	0.000000	0.000000	6.066783	-0.040008	NaN	0.000000	0.001527	0.001804	28.1027	0.020879	0.001987	10.5078	-41.5728	-165.887	-0.085445	0.064856	-0.925997	-0.927343	-0.040008	10.5078	-0.923141	-2.087426E+12	1.916622E-14	NaN
113	1.000000	0.074195	7.36614e+06	-44289.1	955.818	-29776.9	0.000000	0.000000	6.074778	0.011418	NaN	0.000000	0.001540	0.001836	28.1041	0.051225	0.002008	25.5154	38.6383	-164.033	0.061465	0.072885	-0.918004	-0.919314	0.011418	25.5154	-0.918340	-1.797992E+12	-6.350539E-15	NaN
113	1.000000	0.082180	7.36614e+06	-44289.1	955.819	-29776.9	0.000000	0.000000	6.082762	-0.016619	NaN	0.000000	0.001540	0.001786	28.1039	0.020606	0.002038	10.1113	-113.393	-164.537	-0.010846	0.080830	-0.910019	-0.911369	-0.016619	10.1113	-0.908786	-1.335867E+12	1.244046E-14	NaN
113	1.000000	0.090177	7.36614e+06	-44289.1	955.819	-29776.9	0.000000	0.000000	6.090762	0.064325	NaN	0.000000	0.001522	0.001789	28.1034	0.082332	0.001914	43.0132	-31.5184	-166.148	0.101126	0.088852	-0.902022	-0.903347	0.064325	43.0132	-0.903144	-1.120850E+12	-5.738954E-14	NaN
113	1.000000	0.098177	7.36614e+06	-44289.1	955.818	-29776.9	0.000000	0.000000	6.098761	0.026509	NaN	0.000000	0.001604	0.001780	28.1034	0.106307	0.002001	53.1243	28.1395	-166.472	-0.048964	0.096836	-0.894022	-0.895363	0.026509	53.1243	-0.894396	-8.537549E+11	-3.105040E-14	NaN
113	1.000000	0.106206	7.36614e+06	-44289.1	955.818	-29776.9	0.000000	0.000000	6.106788	-0.003760	NaN	0.000000	0.001609	0.001788	28.1045	0.043695	0.001844	23.696	29.7841	-165.677	0.012780	0.104924	-0.885993	-0.887275	-0.003760	23.696	-0.885874	-6.548469E+11	5.742040E-15	NaN
113	1.000000	0.114198	7.36614e+06	-44289.1	955.818	-29776.9	0.000000	0.000000	6.114783	0.049942	NaN	0.000000	0.001540	0.001716	28.1035	0.076689	0.001885	40.6764	-67.1473	-165.386	0.088546	0.112866	-0.878001	-0.879333	0.049942	40.6764	-0.878922	-5.273823E+11	-9.469842E-14	NaN
113	1.000000	0.122172	7.36614e+06	-44289.1	955.818	-29776.9	0.000000	0.000000	6.122755	0.014427	NaN	0.000000	0.001520	0.001694	28.1021	0.058683	0.002007	29.2383	-85.2256	-160.994	-0.007452	0.120874	-0.870027	-0.871325	0.014427	29.2383	-0.870397	-4.044098E+11	-3.567347E-14	NaN
113	1.000000	0.130175	7.36614e+06	-44289.1	955.819	-29776.9	0.000000	0.000000	6.130756	-0.047214	NaN	0.000000	0.001533	0.001747	28.1029	0.050981	0.002081	24.5009	-25.0611	-165.527	-0.016107	0.128908	-0.862024	-0.863291	-0.047214	24.5009	-0.860579	-2.978195E+11	1.585319E-13	NaN
113	1.000000	0.138196	7.36614e+06	-44289.1	955.818	-29776.9	0.000000	0.000000	6.138777	-0.035122	NaN	0.000000	0.001509	0.001715	28.1027	0.023558	0.002244	10.4961	-156.893	-166.044	-0.020500	0.136859	-0.854003	-0.855340	-0.035122	10.4961	-0.851494	-2.243682E+11	1.565367E-13	NaN
113	1.000000	0.146153	7.36614e+06	-44289.1	955.819	-29776.9	0.000000	0.000000	6.146734	-0.033327	NaN	0.000000	0.001529	0.001715	28.1022	0.060615	0.002012	30.1246	-148.682	-161.264	-0.037972	0.144911	-0.846046	-0.847288	-0.033327	30.1246	-0.845216	-1.844789E+11	1.806543E-13	NaN
113	1.000000	0.154221	7.36614e+06	-44289.1	955.818	-29776.9	0.000000	0.000000	6.154804	0.017312	NaN	0.000000	0.001530	0.001692	28.1029	0.042497	0.001949	21.8075	-175.306	-165.842	-0.011463	0.152917	-0.837978	-0.839282	0.017312	21.8075	-0.838573	-1.499548E+11	-1.154482E-13	NaN
113	1.000000	0.162231	7.36614e+06	-44289.1	955.818	-29776.9	0.000000	0.000000	6.162813	-0.012568	NaN	0.000000	0.001553	0.001731	28.1035	0.144432	0.001859	77.7042	126.562	-160.81	-0.023281	0.160883	-0.829968	-0.831316	-0.012568	77.7042	-0.829846	-1.142099E+11	1.100411E-13	NaN
113	1.000000	0.170220	7.36614e+06	-44289.1	955.819	-29776.9	0.000000	0.000000	6.170802	-0.015949	NaN	0.000000	0.001535	0.001752	28.1028	0.035144	0.002063	17.0354	60.5325	-163.73	-0.013744	0.168899	-0.821979	-0.823301	-0.015949	17.0354	-0.821277	-8.740210E+10	1.824830E-13	NaN
113	1.000000	0.178204	7.36614e+06	-44289.1	955.819	-29776.9	0.000000	0.000000	6.178785	-0.019508	NaN	0.000000	0.001508	0.001717	28.1017	0.076663	0.002087	36.7281	-162.574	-164.629	-0.071582	0.176901	-0.813995	-0.815298	-0.019508	36.7281	-0.813597	-6.876488E+10	2.836868E-13	NaN
113	1.000000	0.186209	7.36614e+06	-44289.1	955.819	-29776.9	0.000000	0.000000	6.186789	-0.049771	NaN	0.000000	0.001517	0.001725	28.1019	0.019614	0.001970	9.955734	-3.653127	-163.231	-0.012877	0.184924	-0.805990	-0.807275	-0.049771	9.955734	-0.802241	-4.822534E+10	1.032059E-12	NaN
113	1.000000	0.194240	7.36614e+06	-44289.1	955.818	-29776.9	0.000000	0.000000	6.194821	-0.031539	NaN	0.000000	0.001498	0.001729	28.1019	0.026386	0.002030	12.9984	43.1903	-164.11	-0.046923	0.192897	-0.797959	-0.799302	-0.031539	12.9984	-0.796139	-3.985193E+10	7.914095E-13	NaN
113	1.000000	0.202221	7.36614e+06	-44289.1	955.818	-29776.9	0.000000	0.000000	6.202802	-0.039521	NaN	0.000000	0.001544	0.001752	28.1013	0.118887	0.001894	62.7863	-72.6929	-165.017	0.054642	0.200940	-0.789978	-0.791259	-0.039521	62.7863	-0.789506	-3.238728E+10	1.220275E-12	NaN
113	1.000000	0.210206	7.36614e+06	-44289.1	955.818	-29776.9	0.000000	0.000000	6.210789	0.019782	NaN	0.000000	0.001529	0.001733	28.1005	0.054274	0.002089	25.9796	88.3913	-166.404	0.055094	0.208914	-0.781994	-0.783285	0.019782	25.9796	-0.782565	-2.606631E+10	-7.588988E-13	NaN
113	1.000000	0.218236	7.36614e+06	-44289.1	955.819	-29776.9	0.000000	0.000000	6.218821	0.062182	NaN	0.000000	0.001518	0.001721	28.1006	0.093718	0.001923	48.7361	-19.0021	-163.438	0.013855	0.216963	-0.773963	-0.775236	0.062182	48.7361	-0.774920	-2.052080E+10	-3.030209E-12	NaN
113	1.000000	0.226224	7.36614e+06	-44289.1	955.819	-29776.9	0.000000	0.000000	6.226806	-0.016032	NaN	0.000000	0.001542	0.001741	28.1	0.093228	0.002150	43.3623	-146.538	-159.151	0.023048	0.224931	-0.765975	-0.767268	-0.016032	43.3623	-0.765698	-1.537450E+10	1.042752E-12	NaN
113	1.000000	0.234224	7.36614e+06	-44289.1	955.818	-29776.9	0.000000	0.000000	6.234807	0.030825	NaN	0.000000	0.001535	0.001759	28.101	0.033975	0.002066	16.4436	-16.9457	-163.203	-0.005099	0.232924	-0.757975	-0.759276	0.030825	16.4436	-0.759381	-1.261489E+10	-2.443569E-12	NaN
113	1.000000	0.242242	7.36614e+06	-44289.1	955.818	-29776.9	0.000000	0.000000	6.242824	-0.011909	NaN	0.000000	0.001571	0.001749	28.1017	0.067553	0.001948	34.6697	26.0396	-165.51	-0.041331	0.240935	-0.749957	-0.751264	-0.011909	34.6697	-0.749699	-9.313698E+9	1.278689E-12	NaN
113	1.000000	0.250276	7.36614e+06	-44289.1	955.818	-29776.9	0.000000	0.000000	6.250859	0.023473	NaN	0.000000	0.001554	0.001747	28.1017	0.042222	0.002028	20.8198	107.219	-163.108	0.042048	0.248926	-0.741923	-0.743273	0.023473	20.8198	-0.742769	-7.494937E+9	-3.131813E-12	NaN
113	1.000000	0.258234	7.36614e+06	-44289.1	955.818	-29776.9	0.000000	0.000000	6.258816	0.002933	NaN	0.000000	0.001558	0.001724	28.1021	0.015754	0.002181	7.223715	-61.4417	-165.518	-0.030445	0.256970	-0.733965	-0.735229	0.002933	7.223715	-0.734270	-5.741116E+9	-5.108674E-13	NaN
113	1.000000	0.266236	7.36614e+06	-44289.1	955.818	-29776.9	0.000000	0.000000	6.266815	-0.072315	NaN	0.000000	0.001536	0.001738	28.1011	0.045087	0.002073	21.7513	174.02	-162.311	-0.094733	0.264901	-0.725963	-0.727298	-0.072315	21.7513	-0.723470	-4.090635E+9	1.767812E-11	NaN
113	1.000000	0.274260	7.36614e+06	-44289.1	955.818	-29776.9	0.000000	0.000000	6.274840	-0.057997	NaN	0.000000	0.001552	0.001702	28.1016	0.049979	0.002077	24.0645	-135.116	-163.884	-0.032779	0.272958	-0.717939	-0.719241	-0.057997	24.0645	-0.716131	-3.248661E+9	1.785245E-11	NaN
113	1.000000	0.282266	7.36614e+06	-44289.1	955.819	-29776.9	0.000000	0.000000	6.282848	-0.022510	NaN	0.000000	0.001477	0.001741	28.1009	0.021000	0.001884	11.1482	15.6874	-166.537	0.051767	0.280951	-0.709933	-0.711248	-0.022510	11.1482	-0.708418	-2.549540E+9	8.828952E-12	NaN
113	1.000000	0.290258	7.36614e+06	-44289.1	955.819	-29776.9	0.000000	0.000000	6.290840	0.001675	NaN	0.000000	0.001542	0.001760	28.0999	0.068841	0.002020	34.0725	-26.9709	-164.348	0.065739	0.288923	-0.701941	-0.703276	0.001675	34.0725	-0.701978	-2.082289E+9	-8.042588E-13	NaN
113	1.000000	0.298269	7.36614e+06	-44289.1	955.818	-29776.9	0.000000	0.000000	6.298849	-0.058671	NaN	0.000000	0.001537	0.001713	28.1	0.058739	0.001969	29.8253	67.3359	-168.301	-0.023442	0.297000	-0.693930	-0.695199	-0.058671	29.8253	-0.692455	-1.543346E+9	3.801547E-11	NaN
113	1.000000	0.306288	7.36614e+06	-44289.1	955.818	-29776.9	0.000000	0.000000	6.306869	-0.021522	NaN	0.000000	0.001512	0.001726	28.1013	0.046197	0.002073	22.285	-149.019	-166.435	-0.007394	0.305015	-0.685911	-0.687184	-0.021522	22.285	-0.685187	-1.227801E+9	1.752917E-11	NaN
113	1.000000	0.314296	7.36614e+06	-44289.1	955.818	-29776.9	0.000000	0.000000	6.314879	0.010971	NaN	0.000000	0.001531	0.001739	28.101	0.071040	0.002056	34.5536	-74.2241	-161.592	-0.042986	0.312976	-0.677903	-0.679223	0.010971	34.5536	-0.678141	-9.835090E+8	-1.115471E-11	NaN
113	1.000000	0.322287	7.36614e+06	-44289.1	955.818	-29776.9	0.000000	0.000000	6.322867	-0.052944	NaN	0.000000	0.001503	0.001702	28.1029	0.122597	0.002048	59.8641	118.122	-166.532	0.070253	0.320971	-0.669912	-0.671228	-0.052944	59.8641	-0.669249	-7.432092E+8	7.123755E-11	NaN
113	1.000000	0.330259	7.36614e+06	-44289.1	955.819	-29776.9	0.000000	0.000000	6.330841	-0.020475	NaN	0.000000	0.001514	0.001691	28.1021	0.096186	0.001921	50.0579	-40.7177	-168.483	0.015493	0.328937	-0.661940	-0.663262	-0.020475	50.0579	-0.661633	-5.845647E+8	3.502680E-11	NaN
113	1.000000	0.338271	7.36614e+06	-44289.1	955.819	-29776.9	0.000000	0.000000	6.338854	0.017350	NaN	0.000000	0.001567	0.001731	28.1027	0.121013	0.002032	59.5462	164.696	-166.915	-0.016492	0.337000	-0.653928	-0.655199	0.017350	59.5462	-0.654146	-4.616037E+8	-3.758627E-11	NaN
113	1.000000	0.346267	7.36614e+06	-44289.1	955.818	-29776.9	0.000000	0.000000	6.346851	0.031990	NaN	0.000000	0.001531	0.001734	28.1025	0.037463	0.002055	18.2279	-67.0531	-164.427	0.015105	0.344993	-0.645932	-0.647206	0.031990	18.2279	-0.647248	-3.712886E+8	-8.616053E-11	NaN
113	1.000000	0.354285	7.36614e+06	-44289.1	955.818	-29776.9	0.000000	0.000000	6.354867	-0.014451	NaN	0.000000	0.001557	0.001740	28.1025	0.044008	0.002049	21.4734	0.438296	-167.531	0.023886	0.353051	-0.637914	-0.639148	-0.014451	21.4734	-0.637409	-2.721068E+8	5.310930E-11	NaN
113	1.000000	0.362291	7.36614e+06	-44289.1	955.818	-29776.9	0.000000	0.000000	6.362874	0.008823	NaN	0.000000	0.001528	0.001733	28.1005	0.077615	0.002015	38.5167	171.584	-165.547	-0.098230	0.361003	-0.629908	-0.631196	0.008823	38.5167	-0.630079	-2.158310E+8	-4.088034E-11	NaN
113	1.000000	0.370302	7.36615e+06	-44289.1	955.819	-29776.9	0.000000	0.000000	6.370884	-0.009845	NaN	0.000000	0.001535	0.001740	28.1012	0.060373	0.002003	30.1375	-50.9246	-162.062	-0.039861	0.368971	-0.621897	-0.623228	-0.009845	30.1375	-0.621652	-1.653269E+8	5.954866E-11	NaN
113	1.000000	0.378332	7.36615e+06	-44289.1	955.818	-29776.9	0.000000	0.000000	6.378911	-0.098449	NaN	0.000000	0.001537	0.001734	28.1016	0.032682	0.002223	14.7017	9.009189	-165.238	-0.024423	0.377011	-0.613867	-0.615188	-0.098449	14.7017	-0.608844	-1.102078E+8	8.933040E-10	NaN
113	1.000000	0.386293	7.36615e+06	-44289.1	955.818	-29776.9	0.000000	0.000000	6.386876	0.003954	NaN	0.000000	0.001536	0.001734	28.1007	0.108398	0.001928	56.2315	125.328	-165.562	-0.007671	0.384986	-0.605906	-0.607213	0.003954	56.2315	-0.605959	-1.005776E+8	-3.931679E-11	NaN
113	1.000000	0.394310	7.36615e+06	-44289.1	955.818	-29776.9	0.000000	0.000000	6.394894	0.036253	NaN	0.000000	0.001536	0.001791	28.1002	0.058836	0.001838	32.0046	-167.67	-160.543	0.080858	0.392952	-0.597889	-0.599247	0.036253	32.0046	-0.598738	-7.999885E+7	-4.531663E-10	NaN
113	1.000000	0.402283	7.36615e+06	-44289.1	955.818	-29776.9	0.000000	0.000000	6.402865	-0.021338	NaN	0.000000	0.001533	0.001734	28.1014	0.079583	0.002039	39.0378	-25.4946	-165.532	0.009386	0.401007	-0.589916	-0.591192	-0.021338	39.0378	-0.589506	-5.968317E+7	3.575234E-10	NaN
113	1.000000	0.410299	7.36615e+06	-44289.1	955.818	-29776.9	0.000000	0.000000	6.410879	-0.051289	NaN	0.000000	0.001560	0.001750	28.102	0.077470	0.001860	41.6555	-169.963	-161.304	-0.048495	0.408994	-0.581900	-0.583205	-0.051289	41.6555	-0.580977	-4.552067E+7	1.126713E-9	NaN
113	1.000000	0.418334	7.36615e+06	-44289.1	955.819	-29776.9	0.000000	0.000000	6.418918	0.045365	NaN	0.000000	0.001541	0.001681	28.1024	0.028309	0.002115	13.3819	171.372	-166.109	0.065330	0.416968	-0.573865	-0.575231	0.045365	13.3819	-0.576408	-3.936747E+7	-1.152349E-9	NaN
113	1.000000	0.426316	7.36615e+06	-44289.1	955.818	-29776.9	0.000000	0.000000	6.426898	-0.012945	NaN	0.000000	0.001542	0.001677	28.1021	0.090568	0.001923	47.0984	55.4044	-167.254	-0.039341	0.424977	-0.565883	-0.567222	-0.012945	47.0984	-0.565677	-2.798237E+7	4.626077E-10	NaN
113	1.000000	0.434327	7.36615e+06	-44289.1	955.818	-29776.9	0.000000	0.000000	6.434909	-0.011128	NaN	0.000000	0.001535	0.001693	28.1019	0.051254	0.001907	26.8789	-114.653	-167.614	-0.007160	0.433053	-0.557872	-0.559146	-0.011128	26.8789	-0.557561	-2.160914E+7	5.149762E-10	NaN
113	1.000000	0.442347	7.36615e+06	-44289.1	955.819	-29776.9	0.000000	0.000000	6.442929	-0.005126	NaN	0.000000	0.001506	0.001747	28.1	0.075170	0.002061	36.4736	-47.4978	-165.678	-0.015477	0.441015	-0.549852	-0.551184	-0.005126	36.4736	-0.549746	-1.684394E+7	3.042982E-10	NaN
113	1.000000	0.450310	7.36615e+06	-44289.1	955.818	-29776.9	0.000000	0.000000	6.450891	-0.020078	NaN	0.000000	0.001552	0.001737	28.0999	0.056659	0.002127	26.6342	-50.2849	-162.432	-0.002767	0.448960	-0.541889	-0.543239	-0.020078	26.6342	-0.541324	-1.287418E+7	1.559575E-9	NaN
113	1.000000	0.458341	7.36615e+06	-44289.1	955.819	-29776.9	0.000000	0.000000	6.458923	0.001393	NaN	0.000000	0.001539	0.001704	28.0991	0.018721	0.002173	8.614355	-128.674	-167.406	0.102759	0.457027	-0.533858	-0.535172	0.001393	8.614355	-0.533979	-1.018182E+7	-1.368157E-10	NaN
113	1.000000	0.466326	7.36615e+06	-44289.1	955.819	-29776.9	0.000000	0.000000	6.466910	0.034189	NaN	0.000000	0.001538	0.001704	28.0994	0.110081	0.001964	56.0619	-146.247	-166.408	-0.091031	0.465060	-0.525873	-0.527139	0.034189	56.0619	-0.526330	-7.97248e+06	-4.288433E-9	NaN
113	1.000000	0.474351	7.36615e+06	-44289.1	955.818	-29776.9	0.000000	0.000000	6.474933	-0.011158	NaN	0.000000	0.001525	0.001683	28.0998	0.037585	0.001959	19.1877	-42.9863	-167.165	-0.039382	0.473037	-0.517848	-0.519162	-0.011158	19.1877	-0.517412	-5.99229e+06	1.862091E-9	NaN
113	1.000000	0.482333	7.36615e+06	-44289.1	955.818	-29776.9	0.000000	0.000000	6.482917	0.039961	NaN	0.000000	0.001540	0.001742	28.1002	0.075356	0.002050	36.7581	118.337	-165.778	0.095286	0.481088	-0.509866	-0.511111	0.039961	36.7581	-0.510682	-4.82957e+06	-8.274188E-9	NaN
113	1.000000	0.490352	7.36615e+06	-44289.1	955.818	-29776.9	0.000000	0.000000	6.490935	0.033084	NaN	0.000000	0.001525	0.001712	28.1006	0.050127	0.001996	25.1116	7.215878	-167.604	0.103463	0.489108	-0.501847	-0.503091	0.033084	25.1116	-0.502836	-3.75464e+06	-8.811405E-9	NaN
113	1.000000	0.498376	7.36615e+06	-44289.1	955.818	-29776.9	0.000000	0.000000	6.498955	-0.071459	NaN	0.000000	0.001508	0.001715	28.1	0.033512	0.001937	17.2999	-21.3881	-163.373	-0.043489	0.497073	-0.493823	-0.495126	-0.071459	17.2999	-0.490725	-2.54406e+06	2.808851E-8	NaN
113	1.000000	0.506363	7.36615e+06	-44289.1	955.819	-29776.9	0.000000	0.000000	6.506943	-0.054260	NaN	0.000000	0.001507	0.001787	28.1003	0.019994	0.001925	10.3875	147.091	-163.118	-0.102055	0.505017	-0.485836	-0.487182	-0.054260	10.3875	-0.481918	-1.91591e+06	2.832043E-8	NaN
113	1.000000	0.514397	7.36615e+06	-44289.1	955.818	-29776.9	0.000000	0.000000	6.514979	-0.005833	NaN	0.000000	0.001530	0.001706	28.1009	0.044487	0.001992	22.3379	66.6188	-170.57	0.075463	0.513023	-0.477802	-0.479176	-0.005833	22.3379	-0.477607	-1.6673e+06	3.498582E-9	NaN
113	1.000000	0.522358	7.36615e+06	-44289.1	955.817	-29776.9	0.000000	0.000000	6.522940	-0.002249	NaN	0.000000	0.001578	0.001732	28.0996	0.099579	0.001996	49.8908	132.38	-164.364	0.041105	0.521057	-0.469841	-0.471142	-0.002249	49.8908	-0.469807	-1.29629e+06	1.734769E-9	NaN
113	1.000000	0.530334	7.36615e+06	-44289.1	955.818	-29776.9	0.000000	0.000000	6.530919	0.065501	NaN	0.000000	0.001533	0.001703	28.0982	0.083513	0.002034	41.0681	-90.2027	-165.552	-0.040030	0.529075	-0.461865	-0.463124	0.065501	41.0681	-0.463061	-1.04238e+06	-6.283804E-8	NaN
113	1.000000	0.538377	7.36615e+06	-44289.1	955.819	-29776.9	0.000000	0.000000	6.538958	-0.043672	NaN	0.000000	0.001567	0.001697	28.0983	0.097024	0.002084	46.5481	175.203	-166.318	-0.025528	0.537041	-0.453822	-0.455159	-0.043672	46.5481	-0.453118	-755514	5.780392E-8	NaN
113	1.000000	0.546339	7.36615e+06	-44289.1	955.818	-29776.9	0.000000	0.000000	6.546919	-0.046013	NaN	0.000000	0.001552	0.001697	28.0994	0.140296	0.001867	75.1648	34.3109	-163.619	-0.039005	0.545066	-0.445860	-0.447133	-0.046013	75.1648	-0.445401	-588229	7.822258E-8	NaN
113	1.000000	0.554364	7.36615e+06	-44289.1	955.819	-29776.9	0.000000	0.000000	6.554946	0.001781	NaN	0.000000	0.001576	0.001717	28.0992	0.034691	0.001941	17.8727	-27.7462	-165.969	0.012644	0.553025	-0.437835	-0.439174	0.001781	17.8727	-0.437910	-461164	-3.862328E-9	NaN
113	1.000000	0.562389	7.36615e+06	-44289.1	955.819	-29776.9	0.000000	0.000000	6.562972	0.009700	NaN	0.000000	0.001543	0.001706	28.1002	0.085292	0.001980	43.0658	25.5025	-165.232	0.006228	0.561164	-0.429810	-0.431035	0.009700	43.0658	-0.429979	-356253	-2.722895E-8	NaN
113	1.000000	0.570403	7.36615e+06	-44289.1	955.819	-29776.9	0.000000	0.000000	6.570987	0.029181	NaN	0.000000	0.001573	0.001690	28.0994	0.070779	0.001808	39.1503	42.002	-162.9	-0.018609	0.569037	-0.421796	-0.423162	0.029181	39.1503	-0.422355	-277847	-1.050251E-7	NaN
113	1.000000	0.578398	7.36615e+06	-44289.1	955.818	-29776.9	0.000000	0.000000	6.578978	-0.057829	NaN	0.000000	0.001548	0.001715	28.1014	0.072982	0.002069	35.2656	-35.0658	-167.464	-0.042826	0.577128	-0.413801	-0.415071	-0.057829	35.2656	-0.412571	-201816	2.865416E-7	NaN
113	1.000000	0.586407	7.36615e+06	-44289.1	955.818	-29776.9	0.000000	0.000000	6.586987	-0.056245	NaN	0.000000	0.001542	0.001723	28.1016	0.022806	0.002103	10.8454	123.06	-165.375	-0.050985	0.585072	-0.405792	-0.407127	-0.056245	10.8454	-0.401902	-142271	3.953357E-7	NaN
113	1.000000	0.594367	7.36615e+06	-44289.1	955.818	-29776.9	0.000000	0.000000	6.594952	0.054109	NaN	0.000000	0.001620	0.001745	28.1002	0.097900	0.001932	50.6731	-159.016	-161.957	-0.023185	0.593096	-0.397832	-0.399103	0.054109	50.6731	-0.398633	-127789	-4.234257E-7	NaN
113	1.000000	0.602413	7.36615e+06	-44289.1	955.819	-29776.9	0.000000	0.000000	6.602995	-0.015015	NaN	0.000000	0.001586	0.001718	28.0996	0.043374	0.002048	21.1757	-75.9773	-165.656	-0.040657	0.601066	-0.389786	-0.391133	-0.015015	21.1757	-0.389254	-93864.3	1.599601E-7	NaN
113	1.000000	0.610398	7.36615e+06	-44289.1	955.819	-29776.9	0.000000	0.000000	6.610982	0.029694	NaN	0.000000	0.001623	0.001720	28.1006	0.061125	0.001874	32.6193	-131.508	-166.292	0.022951	0.609100	-0.381801	-0.383100	0.029694	32.6193	-0.382483	-75078.1	-3.955099E-7	NaN
113	1.000000	0.618408	7.36615e+06	-44289.1	955.819	-29776.9	0.000000	0.000000	6.618992	0.022951	NaN	0.000000	0.001596	0.001733	28.0997	0.022392	0.002037	10.9912	-102.959	-161.887	0.078627	0.617075	-0.373791	-0.375124	0.022951	10.9912	-0.375357	-59319.7	-3.868952E-7	NaN
113	1.000000	0.626412	7.36615e+06	-44289.1	955.818	-29776.9	0.000000	0.000000	6.626995	-0.000350	NaN	0.000000	0.001628	0.001708	28.1006	0.101312	0.002008	50.4497	21.4641	-165.121	0.004385	0.625123	-0.365787	-0.367076	-0.000350	50.4497	-0.365781	-43184.4	8.099412E-9	NaN
113	1.000000	0.634448	7.36615e+06	-44289.1	955.819	-29776.9	0.000000	0.000000	6.635030	-0.005033	NaN	0.000000	0.001624	0.001745	28.0994	0.111337	0.001895	58.7619	-30.5641	-167.058	-0.028711	0.633122	-0.357751	-0.359077	-0.005033	58.7619	-0.357687	-32991.2	1.525701E-7	NaN
113	1.000000	0.642404	7.36615e+06	-44289.1	955.818	-29776.9	0.000000	0.000000	6.642985	-0.029496	NaN	0.000000	0.001647	0.001804	28.1001	0.058896	0.002116	27.8375	-105.834	-165.474	-0.055674	0.641088	-0.349795	-0.351111	-0.029496	27.8375	-0.349000	-24688.3	1.194725E-6	NaN
113	1.000000	0.650428	7.36615e+06	-44289.1	955.818	-29776.9	0.000000	0.000000	6.651011	0.017975	NaN	0.000000	0.001661	0.001716	28.1005	0.129014	0.002003	64.4141	55.3422	-162.83	0.003684	0.649159	-0.341771	-0.343040	0.017975	64.4141	-0.341980	-19516.9	-9.210023E-7	NaN
113	1.000000	0.658432	7.36615e+06	-44289.1	955.818	-29776.9	0.000000	0.000000	6.659014	-0.001029	NaN	0.000000	0.001640	0.001738	28.101	0.072016	0.002071	34.7785	176.695	-162.773	-0.042900	0.657094	-0.333767	-0.335105	-0.001029	34.7785	-0.333745	-14799.3	6.954941E-8	NaN
113	1.000000	0.666432	7.36615e+06	-44289.1	955.818	-29776.9	0.000000	0.000000	6.667011	-0.089517	NaN	0.000000	0.001642	0.001727	28.101	0.051970	0.001943	26.7414	-148.694	-165.348	-0.054105	0.665113	-0.325767	-0.327086	-0.089517	26.7414	-0.323256	-10387.9	8.617411E-6	NaN
113	1.000000	0.674448	7.36615e+06	-44289.1	955.818	-29776.9	0.000000	0.000000	6.675030	-0.018940	NaN	0.000000	0.001651	0.001744	28.1011	0.048447	0.001964	24.6638	22.7649	-163.181	-0.051486	0.673158	-0.317751	-0.319041	-0.018940	24.6638	-0.317175	-8453.21	2.240610E-6	NaN
113	1.000000	0.682446	7.36615e+06	-44289.1	955.818	-29776.9	0.000000	0.000000	6.683028	-0.008514	NaN	0.000000	0.001602	0.001749	28.0991	0.069722	0.002095	33.281	127.835	-166.086	0.005900	0.681115	-0.309753	-0.311084	-0.008514	33.281	-0.309561	-6524.61	1.304928E-6	NaN
113	1.000000	0.690441	7.36615e+06	-44289.1	955.818	-29776.9	0.000000	0.000000	6.691024	0.014927	NaN	0.000000	0.001615	0.001714	28.1	0.108133	0.002000	54.0545	144.113	-166.672	0.050006	0.689180	-0.301758	-0.303019	0.014927	54.0545	-0.301965	-5033.52	-2.965577E-6	NaN
113	1.000000	0.698453	7.36615e+06	-44289.1	955.819	-29776.9	0.000000	0.000000	6.699034	-0.011241	NaN	0.000000	0.001633	0.001719	28.099	0.135401	0.002014	67.2338	79.57	-164.1	-0.000126	0.697067	-0.293746	-0.295132	-0.011241	67.2338	-0.293621	-3779.96	2.973940E-6	NaN
113	1.000000	0.706469	7.36615e+06	-44289.1	955.82	-29776.9	0.000000	0.000000	6.707054	0.051236	NaN	0.000000	0.001622	0.001701	28.0992	0.074417	0.002045	36.3955	-118.884	-164.319	-0.036184	0.705099	-0.285730	-0.287100	0.051236	36.3955	-0.286786	-2986.03	-1.715873E-5	NaN
113	1.000000	0.714434	7.36615e+06	-44289.1	955.818	-29776.9	0.000000	0.000000	6.715016	0.006151	NaN	0.000000	0.001637	0.001758	28.0979	0.047775	0.002078	22.9871	-69.7342	-165.598	0.051326	0.713112	-0.277765	-0.279087	0.006151	22.9871	-0.277966	-2199.18	-2.796984E-6	NaN
113	1.000000	0.722471	7.36615e+06	-44289.1	955.818	-29776.9	0.000000	0.000000	6.723055	0.034380	NaN	0.000000	0.001618	0.001679	28.0993	0.099463	0.001917	51.8971	44.5611	-164.05	-0.050928	0.721123	-0.269728	-0.271076	0.034380	51.8971	-0.270225	-1678.65	-2.048047E-5	NaN
113	1.000000	0.730466	7.36615e+06	-44289.1	955.818	-29776.9	0.000000	0.000000	6.731047	-0.029378	NaN	0.000000	0.001636	0.001712	28.0992	0.065182	0.001969	33.1076	-49.6108	-162.536	0.006000	0.729138	-0.261733	-0.263062	-0.029378	33.1076	-0.261068	-1216.96	2.414060E-5	NaN
113	1.000000	0.738484	7.36615e+06	-44289.1	955.818	-29776.9	0.000000	0.000000	6.739066	-0.023774	NaN	0.000000	0.001648	0.001711	28.0987	0.033919	0.002092	16.2175	-48.1903	-165.333	0.036360	0.737138	-0.253715	-0.255061	-0.023774	16.2175	-0.252615	-902.326	2.634719E-5	NaN
113	1.000000	0.746418	7.36615e+06	-44289.1	955.818	-29776.9	0.000000	0.000000	6.747002	0.046483	NaN	0.000000	0.001644	0.001717	28.0993	0.081646	0.001947	41.9316	117.96	-166.583	0.103228	0.745147	-0.245781	-0.247052	0.046483	41.9316	-0.246613	-728.611	-6.379651E-5	NaN
113	1.000000	0.754468	7.36615e+06	-44289.1	955.818	-29776.9	0.000000	0.000000	6.755048	-0.047804	NaN	0.000000	0.001661	0.001733	28.0986	0.036797	0.001883	19.5451	24.5775	-163.017	-0.033930	0.753195	-0.237731	-0.239004	-0.047804	19.5451	-0.235897	-495.822	9.641392E-5	NaN
113	1.000000	0.762456	7.36615e+06	-44289.1	955.818	-29776.9	0.000000	0.000000	6.763039	0.018072	NaN	0.000000	0.001582	0.001743	28.098	0.063481	0.002079	30.5378	-54.4613	-165.303	-0.049682	0.761190	-0.229743	-0.231009	0.018072	30.5378	-0.230187	-403.149	-4.482724E-5	NaN
113	1.000000	0.770476	7.36615e+06	-44289.1	955.818	-29776.9	0.000000	0.000000	6.771059	0.034447	NaN	0.000000	0.001546	0.001746	28.098	0.009711	0.001981	4.902097	-96.6251	-165.44	0.033524	0.769191	-0.221723	-0.223008	0.034447	4.902097	-0.226994	-358.891	-9.598226E-5	NaN
113	1.000000	0.778458	7.36615e+06	-44289.1	955.818	-29776.9	0.000000	0.000000	6.779040	-0.010243	NaN	0.000000	0.001547	0.001707	28.0972	0.055198	0.001942	28.4235	70.0518	-163.936	-0.023338	0.777140	-0.213741	-0.215059	-0.010243	28.4235	-0.213471	-218.219	4.693853E-5	NaN
113	1.000000	0.786488	7.36615e+06	-44289.1	955.819	-29776.9	0.000000	0.000000	6.787068	-0.049942	NaN	0.000000	0.001570	0.001716	28.0972	0.028085	0.002159	13.0103	-2.206914	-163.532	-0.055782	0.785146	-0.205711	-0.207053	-0.049942	13.0103	-0.202832	-146.603	0.000341	NaN
113	1.000000	0.794504	7.36615e+06	-44289.1	955.818	-29776.9	0.000000	0.000000	6.795085	-0.037129	NaN	0.000000	0.001557	0.001726	28.098	0.106124	0.002071	51.2505	-133.777	-163.027	0.013595	0.793208	-0.197695	-0.198991	-0.037129	51.2505	-0.197152	-118.245	0.000314	NaN
113	1.000000	0.802469	7.36615e+06	-44289.1	955.818	-29776.9	0.000000	0.000000	6.803053	0.054563	NaN	0.000000	0.001561	0.001729	28.0986	0.135158	0.001997	67.6699	100.42	-163.135	-0.008189	0.801131	-0.189730	-0.191068	0.054563	67.6699	-0.190335	-91.1216	-0.000599	NaN
113	1.000000	0.810475	7.36615e+06	-44289.1	955.818	-29776.9	0.000000	0.000000	6.811057	-0.007541	NaN	0.000000	0.001599	0.001719	28.099	0.119812	0.001999	59.9492	-93.8664	-164.178	-0.010864	0.809147	-0.181724	-0.183053	-0.007541	59.9492	-0.181629	-65.0346	0.000116	NaN
113	1.000000	0.818484	7.36615e+06	-44289.1	955.819	-29776.9	0.000000	0.000000	6.819067	0.009827	NaN	0.000000	0.001553	0.001729	28.098	0.064073	0.002002	32.0105	69.4246	-166.266	0.059623	0.817231	-0.173715	-0.174968	0.009827	32.0105	-0.173945	-48.0658	-0.000204	NaN
113	1.000000	0.826499	7.36615e+06	-44289.1	955.818	-29776.9	0.000000	0.000000	6.827079	-0.035009	NaN	0.000000	0.001576	0.001741	28.0984	0.049029	0.001915	25.5973	-131.051	-168.618	-0.052310	0.825229	-0.165700	-0.166970	-0.035009	25.5973	-0.164675	-33.1582	0.001056	NaN
113	1.000000	0.834511	7.36615e+06	-44289.1	955.818	-29776.9	0.000000	0.000000	6.835094	0.020747	NaN	0.000000	0.001586	0.001748	28.0986	0.021947	0.001920	11.4339	-123.276	-166.565	0.000240	0.833203	-0.157688	-0.158997	0.020747	11.4339	-0.159049	-26.3677	-0.000787	NaN
113	1.000000	0.842490	7.36615e+06	-44289.1	955.818	-29776.9	0.000000	0.000000	6.843071	-0.018361	NaN	0.000000	0.001532	0.001751	28.0976	0.020695	0.001978	10.4651	50.0144	-165.011	-0.037958	0.841184	-0.149710	-0.151015	-0.018361	10.4651	-0.148394	-16.9294	0.001085	NaN
113	1.000000	0.850523	7.36615e+06	-44289.1	955.818	-29776.9	0.000000	0.000000	6.851103	-0.042434	NaN	0.000000	0.001573	0.001741	28.0987	0.062061	0.001932	32.1292	-152.824	-166.326	0.038441	0.849200	-0.141676	-0.142999	-0.042434	32.1292	-0.140686	-12.1852	0.003482	NaN
113	1.000000	0.858528	7.36615e+06	-44289.1	955.819	-29776.9	0.000000	0.000000	6.859110	-0.010782	NaN	0.000000	0.001568	0.001731	28.0983	0.167549	0.002061	81.2876	139.202	-162.016	-0.041296	0.857194	-0.133671	-0.135005	-0.010782	81.2876	-0.133571	-8.931939	0.001207	NaN
113	1.000000	0.866467	7.36615e+06	-44289.1	955.819	-29776.9	0.000000	0.000000	6.867048	-0.039335	NaN	0.000000	0.001574	0.001748	28.0986	0.103180	0.002001	51.5661	140.299	-163.532	0.008382	0.865242	-0.125732	-0.126957	-0.039335	51.5661	-0.125160	-6.125740	0.006421	NaN
113	1.000000	0.874527	7.36615e+06	-44289.1	955.818	-29776.9	0.000000	0.000000	6.875110	0.005465	NaN	0.000000	0.001578	0.001704	28.0987	0.018613	0.001953	9.528097	-56.9727	-163.01	-0.015616	0.873184	-0.117672	-0.119015	0.005465	9.528097	-0.118102	-4.422116	-0.001236	NaN
113	1.000000	0.882545	7.36615e+06	-44289.1	955.819	-29776.9	0.000000	0.000000	6.883128	0.007598	NaN	0.000000	0.001581	0.001723	28.0997	0.072724	0.001957	37.152	-100.643	-166.367	-0.024512	0.881200	-0.109654	-0.110999	0.007598	37.152	-0.109807	-2.977197	-0.002552	NaN
113	1.000000	0.890511	7.36615e+06	-44289.1	955.818	-29776.9	0.000000	0.000000	6.891091	-0.057205	NaN	0.000000	0.001559	0.001696	28.1001	0.129464	0.001951	66.3659	-122.882	-164.71	0.036547	0.889188	-0.101689	-0.103011	-0.057205	66.3659	-0.101042	-1.926675	0.029691	NaN
113	1.000000	0.898514	7.36615e+06	-44289.1	955.817	-29776.9	0.000000	0.000000	6.899093	-0.071757	NaN	0.000000	0.001592	0.001715	28.0993	0.038238	0.002026	18.8761	-166.346	-164.777	-0.069257	0.897216	-0.093685	-0.094983	-0.071757	18.8761	-0.090834	-1.130670	0.063464	NaN
113	1.000000	0.906536	7.36615e+06	-44289.1	955.818	-29776.9	0.000000	0.000000	6.907118	-0.004235	NaN	0.000000	0.001587	0.001748	28.099	0.087650	0.002148	40.801	-16.9009	-162.342	0.002917	0.905208	-0.085663	-0.086991	-0.004235	40.801	-0.085585	-0.848815	0.004990	NaN
113	1.000000	0.914528	7.36615e+06	-44289.1	955.818	-29776.9	0.000000	0.000000	6.915109	-0.043754	NaN	0.000000	0.001583	0.001715	28.0989	0.083019	0.002039	40.7059	-37.7181	-165.28	-0.013198	0.913210	-0.077671	-0.078989	-0.043754	40.7059	-0.076864	-0.515757	0.084835	NaN
113	1.000000	0.922515	7.36615e+06	-44289.1	955.819	-29776.9	0.000000	0.000000	6.923098	0.006570	NaN	0.000000	0.001589	0.001703	28.099	0.141099	0.002054	68.6929	-56.4895	-163.782	-0.014442	0.921268	-0.069684	-0.070931	0.006570	68.6929	-0.069756	-0.336005	-0.019552	NaN
113	1.000000	0.930525	7.36615e+06	-44289.1	955.818	-29776.9	0.000000	0.000000	6.931108	0.028652	NaN	0.000000	0.001560	0.001711	28.0984	0.077300	0.002048	37.7482	-64.5	-163.261	-0.010088	0.929247	-0.061675	-0.062953	0.028652	37.7482	-0.062244	-0.208638	-0.137331	NaN
113	1.000000	0.938563	7.36615e+06	-44289.1	955.818	-29776.9	0.000000	0.000000	6.939146	0.001609	NaN	0.000000	0.001548	0.001718	28.0983	0.110432	0.001899	58.1396	-15.8911	-165.534	0.011329	0.937223	-0.053636	-0.054976	0.001609	58.1396	-0.053656	-0.117486	-0.013699	NaN
113	1.000000	0.946547	7.36615e+06	-44289.1	955.818	-29776.9	0.000000	0.000000	6.947127	-0.039272	NaN	0.000000	0.001525	0.001720	28.0983	0.047234	0.001929	24.481	-72.7065	-161.371	-0.076830	0.945227	-0.045652	-0.046972	-0.039272	24.481	-0.044449	-0.061823	0.635235	NaN
113	1.000000	0.954513	7.36615e+06	-44289.1	955.818	-29776.9	0.000000	0.000000	6.955095	-0.017705	NaN	0.000000	0.001521	0.001728	28.0986	0.056662	0.001958	28.9442	-108.684	-165.303	-0.078415	0.953253	-0.037686	-0.038946	-0.017705	28.9442	-0.037227	-0.037296	0.474698	NaN
113	1.000000	0.962548	7.36615e+06	-44289.1	955.818	-29776.9	0.000000	0.000000	6.963129	-0.042495	NaN	0.000000	0.001526	0.001672	28.0991	0.027173	0.002044	13.2955	-120.369	-167.361	-0.052332	0.961274	-0.029651	-0.030925	-0.042495	13.2955	-0.027254	-0.019356	2.195474	NaN
113	1.000000	0.970524	7.36615e+06	-44289.1	955.818	-29776.9	0.000000	0.000000	6.971106	-0.010410	NaN	0.000000	0.001518	0.001657	28.0981	0.047488	0.002059	23.0639	-130.55	-161.515	0.026354	0.969250	-0.021675	-0.022949	-0.010410	23.0639	-0.021337	-0.013583	0.766409	NaN
113	1.000000	0.978521	7.36615e+06	-44289.1	955.817	-29776.9	0.000000	0.000000	6.979104	0.004616	NaN	0.000000	0.001518	0.001681	28.0988	0.118516	0.001930	61.3932	-23.5128	-165.805	-0.057958	0.977238	-0.013678	-0.014961	0.004616	61.3932	-0.013734	-0.008528	-0.541237	NaN
113	1.000000	0.986569	7.36615e+06	-44289.1	955.817	-29776.9	0.000000	0.000000	6.987153	0.037288	NaN	0.000000	0.001547	0.001725	28.098	0.117086	0.002071	56.5469	-36.4227	-166.842	0.058124	0.985298	-0.005630	-0.006901	0.037288	56.5469	-0.006125	-0.004113	-9.066909	NaN
113	1.000000	0.994559	7.36615e+06	-44289.1	955.818	-29776.9	0.000000	0.000000	6.995179	0.904976	NaN	0.000000	0.001534	0.001689	28.098	1.272177	0.001941	655.294	9.333679	-163.892	0.324157	0.993230	0.002360	0.001031	0.904976	655.294	0.001325	0.001016	890.771	18783.4
113	1.000000	1.002528	7.36615e+06	-44289.1	955.817	-29776.9	0.000000	0.000000	7.003368	6.269522	NaN	0.000000	0.001542	0.001702	28.0969	6.296842	0.001720	3661.19	7.113574	-166.619	5.028629	1.001253	0.010328	0.009054	6.269522	3661.19	0.009044	0.008138	770.357	37078.7
113	2.000000	1.006210	7.36615e+06	-44289.1	955.817	-29776.9	0.000000	0.000000	7.007161	8.978508	NaN	0.000000	0.001536	0.001672	28.0954	9.730779	0.001687	5768.42	6.357538	-172.08	8.475935	1.005906	0.014010	0.013707	8.978508	5768.42	0.012843	0.012516	717.378	47108.8
113	2.000000	1.008160	7.36615e+06	-44289.1	955.818	-29776.9	0.000000	0.000000	7.009245	12.2339	NaN	0.000000	0.001550	0.001671	28.0969	12.24	0.001795	6820.63	8.249969	-173.704	11.2752	1.007846	0.015961	0.015647	12.2339	6820.63	0.014616	0.014777	827.918	51263.7
113	2.000000	1.010183	7.36615e+06	-44289.1	955.818	-29776.9	0.000000	0.000000	7.011382	15.0083	NaN	0.000000	0.001549	0.001705	28.0968	14.3512	0.001761	8147.58	8.561327	-175.215	14.5114	1.009859	0.017984	0.017660	15.0083	8147.58	0.016602	0.017482	858.507	56300
113	2.000000	1.012159	7.36615e+06	-44289.1	955.818	-29776.9	0.000000	0.000000	7.013549	19.6396	NaN	0.000000	0.001533	0.001705	28.0964	15.4375	0.001742	8860.3	6.158638	-173.654	19.5829	1.011829	0.019960	0.019630	19.6396	8860.3	0.018298	0.019938	985.041	57330.1
113	2.000000	1.014159	7.36615e+06	-44289.1	955.819	-29776.9	0.000000	0.000000	7.015602	20.9297	NaN	0.000000	0.001508	0.001692	28.0978	17.8274	0.001790	9960.35	7.954823	-176.293	21.4945	1.013833	0.021960	0.021634	20.9297	9960.35	0.020384	0.023149	904.113	59810.5
113	2.000000	1.016127	7.36615e+06	-44289.1	955.818	-29776.9	0.000000	0.000000	7.017686	23.7715	NaN	0.000000	0.001493	0.001687	28.0971	19.0503	0.001700	11206.3	6.756960	-176.738	23.1683	1.015897	0.023927	0.023698	23.7715	11206.3	0.022337	0.026348	902.227	63075.8
113	2.000000	1.018100	7.36615e+06	-44289.1	955.818	-29776.9	0.000000	0.000000	7.019857	28.5881	NaN	0.000000	0.001516	0.001728	28.098	21.9857	0.001823	12061	8.461776	-179.313	27.1632	1.017807	0.025901	0.025608	28.5881	12061	0.024123	0.029440	971.073	64222.7
113	2.000000	1.020129	7.36615e+06	-44289.1	955.818	-29776.9	0.000000	0.000000	7.022002	31.3852	NaN	0.000000	0.001607	0.001687	28.0965	23.8763	0.001900	12569.6	9.768627	-179.436	31.7986	1.019785	0.027930	0.027586	31.3852	12569.6	0.026057	0.032967	952.008	63248.9
113	2.000000	1.022102	7.36615e+06	-44289.1	955.817	-29776.9	0.000000	0.000000	7.024195	36.7463	NaN	0.000000	0.001572	0.001730	28.0979	25.0101	0.001828	13682.4	4.623642	-175.448	35.3093	1.021717	0.029903	0.029518	36.7463	13682.4	0.027889	0.036482	1007.24	65447.9
113	2.000000	1.024128	7.36615e+06	-44289.1	955.818	-29776.9	0.000000	0.000000	7.026328	39.3482	NaN	0.000000	0.001538	0.001714	28.0962	27.5473	0.001920	14345.5	7.399046	-178.614	39.6149	1.023891	0.031929	0.031692	39.3482	14345.5	0.029872	0.040479	972.074	65144.1
113	2.000000	1.026052	7.36615e+06	-44289.1	955.818	-29776.9	0.000000	0.000000	7.028515	45.7513	NaN	0.000000	0.001517	0.001689	28.0952	28.2517	0.001680	16818.1	6.008630	179.674	43.3119	1.025737	0.033853	0.033538	45.7513	16818.1	0.031813	0.044585	1026.16	72770.5
113	2.000000	1.028127	7.36615e+06	-44289.1	955.817	-29776.9	0.000000	0.000000	7.030719	48.8813	NaN	0.000000	0.001510	0.001659	28.0961	30.2248	0.001728	17486.9	5.830036	-178.787	49.5086	1.027775	0.035928	0.035576	48.8813	17486.9	0.033831	0.049060	996.356	72131.1
113	2.000000	1.030105	7.36615e+06	-44289.1	955.817	-29776.9	0.000000	0.000000	7.032876	53.2437	NaN	0.000000	0.001501	0.001694	28.0961	31.9591	0.001853	17248.5	2.103097	-175.122	52.2726	1.029765	0.037906	0.037566	53.2437	17248.5	0.035591	0.053131	1002.13	68367.6
113	2.000000	1.032093	7.36615e+06	-44289.1	955.817	-29776.9	0.000000	0.000000	7.035023	57.105	NaN	0.000000	0.001496	0.001723	28.0959	34.5141	0.001918	17993	9.492183	177.046	57.1379	1.031789	0.039894	0.039590	57.105	17993	0.037514	0.057761	988.649	68400.8
113	2.000000	1.034115	7.36615e+06	-44289.1	955.817	-29776.9	0.000000	0.000000	7.037334	64.1497	NaN	0.000000	0.001518	0.001755	28.0983	36.4957	0.001762	20715.5	5.731135	178.261	64.5237	1.033728	0.041916	0.041529	64.1497	20715.5	0.039593	0.062982	1018.54	75415.6
113	2.000000	1.036044	7.36615e+06	-44289.1	955.816	-29776.9	0.000000	0.000000	7.039726	75.3865	NaN	0.000000	0.001510	0.001762	28.0984	36.884	0.001656	22272.4	5.597906	178.324	72.7915	1.035694	0.043845	0.043495	75.3865	22272.4	0.041307	0.067449	1117.67	78352.1
113	2.000000	1.038031	7.36615e+06	-44289.1	955.818	-29776.9	0.000000	0.000000	7.041784	77.1324	NaN	0.000000	0.001518	0.001748	28.0981	38.4946	0.001749	22013.3	1.480499	-177.372	74.4367	1.037764	0.045832	0.045565	77.1324	22013.3	0.043204	0.072570	1062.87	74658.5
113	2.000000	1.040099	7.36615e+06	-44289.1	955.817	-29776.9	0.000000	0.000000	7.044077	82.5957	NaN	0.000000	0.001558	0.001729	28.0979	41.5087	0.001798	23085.7	4.093029	-179.307	82.1954	1.039795	0.047900	0.047596	82.5957	23085.7	0.045217	0.078204	1056.15	75422.5
113	2.000000	1.042067	7.36615e+06	-44289.1	955.818	-29776.9	0.000000	0.000000	7.046378	90.7011	NaN	0.000000	0.001530	0.001746	28.0986	43.0072	0.001782	24136.9	5.765579	177.951	89.8806	1.041739	0.049868	0.049540	90.7011	24136.9	0.047050	0.083513	1086.07	76309.2
113	2.000000	1.044106	7.36615e+06	-44289.1	955.817	-29776.9	0.000000	0.000000	7.048568	94.3895	NaN	0.000000	0.001544	0.001745	28.0964	45.851	0.001815	25261.8	5.140865	177.55	95.1295	1.043760	0.051907	0.051561	94.3895	25261.8	0.049104	0.089665	1052.69	77077.3
113	2.000000	1.046098	7.36615e+06	-44289.1	955.818	-29776.9	0.000000	0.000000	7.050879	102.16	NaN	0.000000	0.001570	0.001749	28.0981	46.4487	0.001643	28268	4.513701	176.469	100.605	1.045823	0.053899	0.053624	102.16	28268	0.051188	0.096121	1062.82	83302.5
113	2.000000	1.048047	7.36615e+06	-44289.1	955.819	-29776.9	0.000000	0.000000	7.053233	112.003	NaN	0.000000	0.001549	0.001721	28.097	49.5261	0.001835	26996.3	5.337230	177.215	110.406	1.047685	0.055848	0.055486	112.003	26996.3	0.052736	0.101059	1108.3	77587.4
113	2.000000	1.050118	7.36615e+06	-44289.1	955.818	-29776.9	0.000000	0.000000	7.055519	117.221	NaN	0.000000	0.001563	0.001688	28.0968	50.6416	0.001764	28713.5	7.101653	174.625	117.765	1.049827	0.057919	0.057628	117.221	28713.5	0.054857	0.108015	1085.23	79821
113	2.000000	1.051999	7.36615e+06	-44289.1	955.818	-29776.9	0.000000	0.000000	7.057853	128.258	NaN	0.000000	0.001577	0.001691	28.0965	52.8529	0.001812	29165.2	8.976808	172.304	126.81	1.051733	0.059800	0.059534	128.258	29165.2	0.056501	0.113563	1129.4	79071.7
113	2.000000	1.054049	7.36615e+06	-44289.1	955.819	-29776.9	0.000000	0.000000	7.060165	134.636	NaN	0.000000	0.001579	0.001689	28.0978	54.7635	0.001857	29484	5.221224	175.798	132.823	1.053845	0.061849	0.061646	134.636	29484	0.058425	0.120220	1119.91	77691
113	2.000000	1.056082	7.36615e+06	-44289.1	955.818	-29776.9	0.000000	0.000000	7.062791	149.05	NaN	0.000000	0.001532	0.001686	28.0984	55.9384	0.001733	32271	6.385647	174.025	149.252	1.055670	0.063883	0.063471	149.05	32271	0.060419	0.127314	1170.73	82631.9
113	2.000000	1.058034	7.36615e+06	-44289.1	955.818	-29776.9	0.000000	0.000000	7.064899	152.826	NaN	0.000000	0.001545	0.001698	28.0978	57.3111	0.001790	32019.4	4.563369	175.588	149.989	1.057800	0.065835	0.065601	152.826	32019.4	0.062256	0.134021	1140.31	79909.8
113	2.000000	1.060093	7.36615e+06	-44289.1	955.818	-29776.9	0.000000	0.000000	7.067484	165.647	NaN	0.000000	0.001518	0.001700	28.098	59.0929	0.001837	32170.7	6.204853	175.261	165.838	1.059739	0.067894	0.067540	165.647	32170.7	0.064033	0.140664	1177.6	78368.6
113	2.000000	1.062073	7.36615e+06	-44289.1	955.818	-29776.9	0.000000	0.000000	7.069826	174.439	NaN	0.000000	0.001546	0.001696	28.098	60.5615	0.001752	34576.8	5.189494	175.73	175.686	1.061740	0.069874	0.069541	174.439	34576.8	0.066090	0.148549	1174.29	81964.1
113	2.000000	1.064017	7.36615e+06	-44289.1	955.818	-29776.9	0.000000	0.000000	7.072275	186.739	NaN	0.000000	0.001543	0.001678	28.0971	64.0126	0.001749	36595.1	7.970917	171.65	185.952	1.063700	0.071818	0.071501	186.739	36595.1	0.067991	0.156011	1196.96	84648.3
113	2.000000	1.066069	7.36615e+06	-44289.1	955.819	-29776.9	0.000000	0.000000	7.074847	199.376	NaN	0.000000	0.001524	0.001702	28.0974	64.2668	0.001711	37551.4	9.671234	170.435	199.192	1.065670	0.073870	0.073471	199.376	37551.4	0.069888	0.163633	1218.43	84813.3
113	2.000000	1.068089	7.36615e+06	-44289.1	955.819	-29776.9	0.000000	0.000000	7.076915	200.55	NaN	0.000000	0.001560	0.001724	28.0959	67.3351	0.001807	37262.4	2.033040	177.631	203.562	1.067738	0.075890	0.075539	200.55	37262.4	0.071853	0.171708	1167.97	82157.9
113	2.000000	1.070006	7.36615e+06	-44289.1	955.818	-29776.9	0.000000	0.000000	7.079453	215.667	NaN	0.000000	0.001571	0.001720	28.0957	69.3903	0.001809	38368.5	4.953211	174.983	212.215	1.069669	0.077807	0.077470	215.667	38368.5	0.073591	0.179003	1204.82	82854.7
113	2.000000	1.072063	7.36615e+06	-44289.1	955.817	-29776.9	0.000000	0.000000	7.081990	227.342	NaN	0.000000	0.001533	0.001689	28.094	70.7723	0.001614	43846.6	5.175155	173.271	229.5	1.071728	0.079864	0.079529	227.342	43846.6	0.075975	0.189240	1201.34	92087.8
113	2.000000	1.074006	7.36615e+06	-44289.1	955.818	-29776.9	0.000000	0.000000	7.084391	238.482	NaN	0.000000	0.001514	0.001717	28.0963	73.672	0.001775	41503.7	2.078409	176.551	235.015	1.073665	0.081807	0.081466	238.482	41503.7	0.077498	0.195918	1217.25	85668.9
113	2.000000	1.075982	7.36615e+06	-44289.1	955.819	-29776.9	0.000000	0.000000	7.086802	249.065	NaN	0.000000	0.001607	0.001661	28.0964	75.1103	0.001774	42341.6	5.439016	172.726	245.831	1.075763	0.083783	0.083564	249.065	42341.6	0.079371	0.204283	1219.22	85590.2
113	2.000000	1.078000	7.36615e+06	-44289.1	955.818	-29776.9	0.000000	0.000000	7.089614	268.381	NaN	0.000000	0.001616	0.001708	28.0962	77.2479	0.001791	43142.4	3.909978	174.852	265.713	1.077654	0.085801	0.085454	268.381	43142.4	0.081135	0.212312	1264.09	85544.2
113	2.000000	1.079990	7.36615e+06	-44289.1	955.819	-29776.9	0.000000	0.000000	7.092218	283.315	NaN	0.000000	0.001630	0.001694	28.0965	79.0115	0.001841	42910	5.014654	173.954	279.16	1.079609	0.087791	0.087410	283.315	42910	0.082839	0.220200	1286.62	83545.5
113	2.000000	1.081954	7.36615e+06	-44289.1	955.818	-29776.9	0.000000	0.000000	7.094469	290.294	NaN	0.000000	0.001639	0.001706	28.0966	80.637	0.001790	45054.8	6.879292	171.784	286.564	1.081647	0.089755	0.089448	290.294	45054.8	0.084923	0.230035	1261.96	85825.7
113	2.000000	1.084048	7.36615e+06	-44289.1	955.819	-29776.9	0.000000	0.000000	7.096940	299.464	NaN	0.000000	0.001649	0.001699	28.0957	83.2844	0.001769	47071	2.826845	175.268	299.071	1.083754	0.091849	0.091555	299.464	47071	0.087078	0.240414	1245.62	87709.6
113	2.000000	1.085995	7.36615e+06	-44289.1	955.818	-29776.9	0.000000	0.000000	7.099478	313.859	NaN	0.000000	0.001614	0.001716	28.0947	83.7442	0.001747	47925.9	4.424338	173.888	312.603	1.085672	0.093796	0.093473	313.859	47925.9	0.088884	0.249278	1259.07	87700.3
113	2.000000	1.088015	7.36615e+06	-44289.1	955.818	-29776.9	0.000000	0.000000	7.101888	323.336	NaN	0.000000	0.001624	0.001732	28.0949	87.0999	0.001823	47771.2	2.829761	174.664	322.322	1.087701	0.095816	0.095502	323.336	47771.2	0.090739	0.258539	1250.63	85837.3
113	2.000000	1.090022	7.36615e+06	-44289.1	955.819	-29776.9	0.000000	0.000000	7.104422	336.164	NaN	0.000000	0.001635	0.001714	28.0951	89.998	0.001802	49941.6	8.658955	169.024	335.159	1.089724	0.097823	0.097525	336.164	49941.6	0.092775	0.268881	1250.23	87994.6
113	2.000000	1.091967	7.36615e+06	-44289.1	955.819	-29776.9	0.000000	0.000000	7.107027	352.226	NaN	0.000000	0.001622	0.001698	28.0945	91.2278	0.001856	49164.3	6.697348	170.474	349.106	1.091561	0.099768	0.099362	352.226	49164.3	0.094395	0.277247	1270.44	85308
113	2.000000	1.094007	7.36615e+06	-44289.1	955.818	-29776.9	0.000000	0.000000	7.109629	365.89	NaN	0.000000	0.001677	0.001733	28.0961	93.3573	0.001873	49854.3	6.243630	170.767	364.657	1.093747	0.101808	0.101548	365.89	49854.3	0.096303	0.287258	1273.73	84984.5
113	2.000000	1.095928	7.36615e+06	-44289.1	955.817	-29776.9	0.000000	0.000000	7.112091	379.069	NaN	0.000000	0.001646	0.001753	28.0952	93.1764	0.001723	54076.4	7.280864	168.98	373.842	1.095686	0.103729	0.103487	379.069	54076.4	0.098471	0.298831	1268.51	90379.2
113	2.000000	1.097939	7.36615e+06	-44289.1	955.818	-29776.9	0.000000	0.000000	7.115015	401.265	NaN	0.000000	0.001637	0.001748	28.0956	94.8233	0.001730	54807.8	2.587436	174.63	397.224	1.097590	0.105740	0.105391	401.265	54807.8	0.100249	0.308480	1300.78	90157.6
113	2.000000	1.100011	7.36615e+06	-44289.1	955.817	-29776.9	0.000000	0.000000	7.117688	415.884	NaN	0.000000	0.001655	0.001752	28.0953	97.8838	0.001717	56998.3	5.970311	170.602	413.825	1.099604	0.107812	0.107405	415.884	56998.3	0.102340	0.320010	1299.6	92056.3
113	2.000000	1.101911	7.36615e+06	-44289.1	955.819	-29776.9	0.000000	0.000000	7.120362	434.736	NaN	0.000000	0.001656	0.001765	28.0955	99.7757	0.001732	57602.3	4.851750	171.368	429.937	1.101731	0.109712	0.109532	434.736	57602.3	0.104051	0.329598	1318.99	91668.6
113	2.000000	1.103070	7.36615e+06	-44289.1	955.818	-29776.9	0.000000	0.000000	7.121812	441.788	NaN	0.000000	0.001610	0.001711	28.0973	101.81	0.001747	58286.9	9.752672	166.81	443.758	1.102757	0.110871	0.110558	441.788	58286.9	0.105187	0.336033	1314.72	91865.6