File: remote_trans/data/nanoindenter/0828-1/data/Data_2025-08-06,11h17m57s/2025-07-22_16-23-58_1_454.txt
2025-07-22, 16:23:58, 1
Index	Phase	Displacement	Time	Pos X	Pos Y	Pos Z	Rot A	Rot B	Piezo Z	Force A	Force B	Gripper	Voltage A	Voltage B	Temperature	Amplitude force	Amplitude pos	Stiffness	Phase shift	Phase excitation	Force A raw	Displacement raw	HMax	HMax raw	Real Force	Real Stiffness	Contact Depth	Area	Hardness	Reduced Mod.
[#]	[#]	[um]	[s]	[um]	[um]	[um]	[m°]	[m°]	[um]	[uN]	[uN]	[V]	[V]	[V]	[°C]	[uN]	[um]	[N/m]	[°]	[°]	[uN]	[um]	[um]	[um]	[uN]	[N/m]	[um]	[um^2]	[MPa]	[MPa]
454	1.000000	0.002518	7.3695e+06	-54389.1	1005.82	-29743.7	0.000000	0.000000	6.002820	-0.053005	NaN	0.000000	0.001690	0.001751	28.0824	0.079586	0.000976	81.5189	-5.300499	-167.352	0.041297	0.001245	-1.066209	-1.067482	-0.053005	81.5189	-1.065721	-1.736600E+14	3.052214E-16	NaN
454	1.000000	0.010479	7.3695e+06	-54389.1	1005.82	-29743.7	0.000000	0.000000	6.010783	0.009259	NaN	0.000000	0.001690	0.001738	28.082	0.091997	0.000974	94.4653	125.286	-167.091	-5.709154E-5	0.009167	-1.058248	-1.059560	0.009259	94.4653	-1.058322	-1.381243E+14	-6.703420E-17	NaN
454	1.000000	0.018430	7.3695e+06	-54389.1	1005.82	-29743.7	0.000000	0.000000	6.018732	-0.045451	NaN	0.000000	0.001686	0.001745	28.0821	0.066015	0.001715	38.4969	-98.6906	-163.171	-0.094089	0.017188	-1.050297	-1.051539	-0.045451	38.4969	-1.049412	-1.048346E+14	4.335522E-16	NaN
454	1.000000	0.026486	7.3695e+06	-54389.1	1005.82	-29743.7	0.000000	0.000000	6.026793	0.072202	NaN	0.000000	0.001677	0.001756	28.0817	0.107584	0.001827	58.8841	77.999	-165.675	0.007083	0.025164	-1.042241	-1.043563	0.072202	58.8841	-1.043161	-8.639020E+13	-8.357641E-16	NaN
454	1.000000	0.034452	7.3695e+06	-54389.1	1005.82	-29743.7	0.000000	0.000000	6.034754	-0.042442	NaN	0.000000	0.001687	0.001769	28.0816	0.050474	0.002012	25.0841	-179.49	-164.089	-0.031061	0.033140	-1.034275	-1.035587	-0.042442	25.0841	-1.033006	-6.308276E+13	6.728031E-16	NaN
454	1.000000	0.042458	7.3695e+06	-54389.1	1005.82	-29743.7	0.000000	0.000000	6.042760	-0.022290	NaN	0.000000	0.001668	0.001754	28.0816	0.060333	0.002098	28.7602	166.271	-163.336	-0.058775	0.041134	-1.026270	-1.027593	-0.022290	28.7602	-1.025688	-5.029018E+13	4.432198E-16	NaN
454	1.000000	0.050431	7.3695e+06	-54389.1	1005.82	-29743.7	0.000000	0.000000	6.050733	-0.023960	NaN	0.000000	0.001660	0.001745	28.082	0.051790	0.001874	27.6336	-4.836413	-162.172	-0.071999	0.049133	-1.018297	-1.019594	-0.023960	27.6336	-1.017646	-3.919968E+13	6.112360E-16	NaN
454	1.000000	0.058450	7.3695e+06	-54389.1	1005.82	-29743.7	0.000000	0.000000	6.058755	0.046281	NaN	0.000000	0.001657	0.001760	28.0818	0.067993	0.001869	36.3838	-2.140631	-166.594	-0.059916	0.057201	-1.010277	-1.011526	0.046281	36.3838	-1.011231	-3.213335E+13	-1.440274E-15	NaN
454	1.000000	0.066474	7.3695e+06	-54389.1	1005.82	-29743.7	0.000000	0.000000	6.066779	0.045865	NaN	0.000000	0.001668	0.001754	28.0815	0.082035	0.002171	37.7805	-132.5	-165.807	0.029084	0.065122	-1.002254	-1.003606	0.045865	37.7805	-1.003164	-2.502449E+13	-1.832811E-15	NaN
454	1.000000	0.074448	7.3695e+06	-54389.1	1005.82	-29743.7	0.000000	0.000000	6.074752	0.012862	NaN	0.000000	0.001704	0.001754	28.0828	0.047357	0.001975	23.9802	66.3834	-165.957	0.103067	0.073131	-0.994280	-0.995597	0.012862	23.9802	-0.994682	-1.923817E+13	-6.685635E-16	NaN
454	1.000000	0.082457	7.3695e+06	-54389.1	1005.82	-29743.7	0.000000	0.000000	6.082759	-0.036123	NaN	0.000000	0.001651	0.001763	28.083	0.070099	0.001974	35.5192	6.554730	-166.154	-0.043657	0.081114	-0.986270	-0.987613	-0.036123	35.5192	-0.985507	-1.447445E+13	2.495636E-15	NaN
454	1.000000	0.090476	7.3695e+06	-54389.1	1005.82	-29743.7	0.000000	0.000000	6.090782	0.050457	NaN	0.000000	0.001669	0.001794	28.0832	0.011520	0.002071	5.562031	0.094573	-164.727	-0.042400	0.089189	-0.978251	-0.979539	0.050457	5.562031	-0.985055	-1.427264E+13	-3.535196E-15	NaN
454	1.000000	0.098471	7.3695e+06	-54389.1	1005.82	-29743.8	0.000000	0.000000	6.098776	0.015322	NaN	0.000000	0.001741	0.001786	28.0832	0.072922	0.001960	37.2099	-131.724	-162.321	0.012782	0.097118	-0.970256	-0.971609	0.015322	37.2099	-0.970565	-9.104837E+12	-1.682791E-15	NaN
454	1.000000	0.106480	7.3695e+06	-54389.1	1005.82	-29743.8	0.000000	0.000000	6.106781	-0.062286	NaN	0.000000	0.001732	0.001786	28.0832	0.017753	0.002089	8.497043	-158.077	-168.113	-0.027110	0.105159	-0.962247	-0.963568	-0.062286	8.497043	-0.956750	-5.929888E+12	1.050370E-14	NaN
454	1.000000	0.114471	7.3695e+06	-54389.1	1005.82	-29743.8	0.000000	0.000000	6.114771	-0.091775	NaN	0.000000	0.001717	0.001757	28.0834	0.038887	0.001937	20.0726	3.507428	-167.154	-0.028808	0.113136	-0.954256	-0.955591	-0.091775	20.0726	-0.950827	-4.933783E+12	1.860130E-14	NaN
454	1.000000	0.122471	7.3695e+06	-54389.1	1005.82	-29743.8	0.000000	0.000000	6.122776	0.033598	NaN	0.000000	0.001711	0.001752	28.0832	0.107608	0.002065	52.0981	63.0504	-164.926	0.080851	0.121171	-0.946256	-0.947556	0.033598	52.0981	-0.946740	-4.345629E+12	-7.731375E-15	NaN
454	1.000000	0.130463	7.3695e+06	-54389.1	1005.82	-29743.8	0.000000	0.000000	6.130766	-0.026198	NaN	0.000000	0.001757	0.001724	28.0834	0.119518	0.002024	59.0372	-68.5862	-167.113	0.056021	0.129148	-0.938264	-0.939579	-0.026198	59.0372	-0.937931	-3.305397E+12	7.925813E-15	NaN
454	1.000000	0.138490	7.3695e+06	-54389.1	1005.82	-29743.8	0.000000	0.000000	6.138792	-0.051703	NaN	0.000000	0.001737	0.001744	28.0833	0.093896	0.001972	47.6123	142.069	-167.989	-0.021078	0.137139	-0.930237	-0.931588	-0.051703	47.6123	-0.929423	-2.537495E+12	2.037542E-14	NaN
454	1.000000	0.146482	7.3695e+06	-54389.1	1005.82	-29743.8	0.000000	0.000000	6.146786	0.020448	NaN	0.000000	0.001743	0.001770	28.0833	0.140549	0.002079	67.6186	-126.913	-163.519	0.057443	0.145213	-0.922245	-0.923514	0.020448	67.6186	-0.922472	-2.044483E+12	-1.000175E-14	NaN
454	1.000000	0.154506	7.3695e+06	-54389.1	1005.82	-29743.8	0.000000	0.000000	6.154811	0.020124	NaN	0.000000	0.001736	0.001779	28.0833	0.108569	0.002226	48.7815	-91.4656	-167.349	0.036972	0.153156	-0.914221	-0.915572	0.020124	48.7815	-0.914530	-1.597154E+12	-1.260021E-14	NaN
454	1.000000	0.162498	7.3695e+06	-54389.1	1005.82	-29743.8	0.000000	0.000000	6.162798	-0.066417	NaN	0.000000	0.001737	0.001748	28.0831	0.039553	0.001934	20.4529	-147.68	-166.255	0.033466	0.161202	-0.906230	-0.907525	-0.066417	20.4529	-0.903794	-1.143752E+12	5.806957E-14	NaN
454	1.000000	0.170484	7.3695e+06	-54389.1	1005.82	-29743.8	0.000000	0.000000	6.170790	0.061097	NaN	0.000000	0.001739	0.001742	28.0833	0.061289	0.001910	32.0962	-83.8307	-168.179	-0.004364	0.169169	-0.898243	-0.899558	0.061097	32.0962	-0.899671	-1.006044E+12	-6.073040E-14	NaN
454	1.000000	0.178471	7.3695e+06	-54389.1	1005.82	-29743.8	0.000000	0.000000	6.178776	0.041586	NaN	0.000000	0.001754	0.001765	28.0832	0.075458	0.001889	39.9552	-21.593	-166.837	0.047962	0.177207	-0.890256	-0.891521	0.041586	39.9552	-0.891037	-7.690100E+11	-5.407688E-14	NaN
454	1.000000	0.186502	7.3695e+06	-54389.1	1005.82	-29743.8	0.000000	0.000000	6.186806	0.028948	NaN	0.000000	0.001756	0.001753	28.0831	0.071877	0.002024	35.518	-3.540394	-169.574	0.080219	0.185204	-0.882226	-0.883523	0.028948	35.518	-0.882837	-5.957595E+11	-4.858987E-14	NaN
454	1.000000	0.194513	7.3695e+06	-54389.1	1005.82	-29743.8	0.000000	0.000000	6.194817	0.008951	NaN	0.000000	0.001722	0.001723	28.0829	0.085297	0.002100	40.6135	40.9784	-166.939	0.137498	0.193171	-0.874214	-0.875556	0.008951	40.6135	-0.874379	-4.578146E+11	-1.955163E-14	NaN
454	1.000000	0.202490	7.3695e+06	-54389.1	1005.82	-29743.8	0.000000	0.000000	6.202793	0.005378	NaN	0.000000	0.001739	0.001757	28.0829	0.119716	0.002006	59.6913	32.6118	-165.909	-0.000730	0.201170	-0.866238	-0.867557	0.005378	59.6913	-0.866305	-3.560013E+11	-1.510713E-14	NaN
454	1.000000	0.210511	7.3695e+06	-54389.1	1005.82	-29743.8	0.000000	0.000000	6.210813	-0.033640	NaN	0.000000	0.001723	0.001733	28.0819	0.030788	0.001987	15.4921	145.859	-164.556	0.025373	0.209184	-0.858216	-0.859544	-0.033640	15.4921	-0.856588	-2.629849E+11	1.279163E-13	NaN
454	1.000000	0.218523	7.3695e+06	-54389.1	1005.82	-29743.8	0.000000	0.000000	6.218827	0.006856	NaN	0.000000	0.001713	0.001761	28.0817	0.121725	0.001912	63.6659	-168.06	-166.126	0.108236	0.217260	-0.850205	-0.851467	0.006856	63.6659	-0.850285	-2.160732E+11	-3.172901E-14	NaN
454	1.000000	0.226520	7.3695e+06	-54389.1	1005.82	-29743.8	0.000000	0.000000	6.226825	0.043129	NaN	0.000000	0.001631	0.001737	28.082	0.060426	0.001946	31.0554	-104.752	-163.573	0.058477	0.225159	-0.842208	-0.843568	0.043129	31.0554	-0.843249	-1.735032E+11	-2.485800E-13	NaN
454	1.000000	0.234535	7.3695e+06	-54389.1	1005.82	-29743.8	0.000000	0.000000	6.234837	-0.030553	NaN	0.000000	0.001661	0.001726	28.0818	0.103671	0.001926	53.8295	-65.1839	-165.282	0.034018	0.233161	-0.834193	-0.835567	-0.030553	53.8295	-0.833767	-1.290739E+11	2.367103E-13	NaN
454	1.000000	0.242541	7.3695e+06	-54389.1	1005.82	-29743.8	0.000000	0.000000	6.242847	0.066324	NaN	0.000000	0.001674	0.001761	28.082	0.045007	0.002078	21.6536	84.4609	-166.046	-0.032900	0.241232	-0.826187	-0.827495	0.066324	21.6536	-0.828484	-1.094542E+11	-6.059505E-13	NaN
454	1.000000	0.250535	7.3695e+06	-54389.1	1005.82	-29743.8	0.000000	0.000000	6.250841	0.065417	NaN	0.000000	0.001691	0.001758	28.0818	0.026866	0.002240	11.9919	-121.357	-169.085	-0.026376	0.249313	-0.818193	-0.819414	0.065417	11.9919	-0.822284	-9.019491E+10	-7.252815E-13	NaN
454	1.000000	0.258573	7.3695e+06	-54389.1	1005.82	-29743.8	0.000000	0.000000	6.258878	0.050533	NaN	0.000000	0.001657	0.001754	28.0817	0.058408	0.002039	28.6512	30.7592	-171.114	-0.036558	0.257230	-0.810154	-0.811497	0.050533	28.6512	-0.811477	-6.435946E+10	-7.851725E-13	NaN
454	1.000000	0.266554	7.3695e+06	-54389.1	1005.82	-29743.8	0.000000	0.000000	6.266859	0.050773	NaN	0.000000	0.001626	0.001776	28.082	0.037033	0.002074	17.8584	57.6876	-165.366	-0.001511	0.265254	-0.802174	-0.803473	0.050773	17.8584	-0.804306	-5.144048E+10	-9.870175E-13	NaN
454	1.000000	0.274526	7.3695e+06	-54389.1	1005.82	-29743.8	0.000000	0.000000	6.274828	-0.032831	NaN	0.000000	0.001656	0.001787	28.082	0.046297	0.001936	23.9166	132.541	-165.384	-0.068258	0.273218	-0.794201	-0.795509	-0.032831	23.9166	-0.793172	-3.632072E+10	9.039110E-13	NaN
454	1.000000	0.282555	7.3695e+06	-54389.1	1005.82	-29743.8	0.000000	0.000000	6.282856	-0.053435	NaN	0.000000	0.001644	0.001772	28.0822	0.032987	0.002079	15.8668	30.645	-165.896	-0.013924	0.281272	-0.786172	-0.787455	-0.053435	15.8668	-0.783647	-2.696375E+10	1.981719E-12	NaN
454	1.000000	0.290544	7.3695e+06	-54389.1	1005.82	-29743.8	0.000000	0.000000	6.290850	0.061924	NaN	0.000000	0.001681	0.001762	28.0817	0.090923	0.002208	41.1787	-164.78	-164.192	0.033440	0.289278	-0.778183	-0.779449	0.061924	41.1787	-0.779311	-2.354327E+10	-2.630227E-12	NaN
454	1.000000	0.298577	7.3695e+06	-54389.1	1005.82	-29743.8	0.000000	0.000000	6.298882	0.042983	NaN	0.000000	0.001685	0.001727	28.0819	0.167011	0.002044	81.7175	-128.589	-164.176	-0.005866	0.297211	-0.770150	-0.771517	0.042983	81.7175	-0.770545	-1.789421E+10	-2.402059E-12	NaN
454	1.000000	0.306544	7.3695e+06	-54389.1	1005.82	-29743.8	0.000000	0.000000	6.306850	0.049464	NaN	0.000000	0.001639	0.001752	28.0821	0.107661	0.001966	54.7649	-126.416	-165.78	0.055498	0.305252	-0.762183	-0.763476	0.049464	54.7649	-0.762860	-1.406733E+10	-3.516219E-12	NaN
454	1.000000	0.314567	7.3695e+06	-54389.1	1005.82	-29743.8	0.000000	0.000000	6.314874	0.063472	NaN	0.000000	0.001655	0.001755	28.0816	0.146585	0.001974	74.2433	-31.0665	-162.198	0.003382	0.313220	-0.754160	-0.755507	0.063472	74.2433	-0.754801	-1.092857E+10	-5.807936E-12	NaN
454	1.000000	0.322575	7.3695e+06	-54389.1	1005.82	-29743.8	0.000000	0.000000	6.322879	0.020792	NaN	0.000000	0.001677	0.001802	28.0824	0.018286	0.001980	9.233202	153.18	-166.792	0.071973	0.321270	-0.746152	-0.747457	0.020792	9.233202	-0.747841	-8.786855E+9	-2.366218E-12	NaN
454	1.000000	0.330567	7.3695e+06	-54389.1	1005.82	-29743.8	0.000000	0.000000	6.330872	0.041937	NaN	0.000000	0.001685	0.001748	28.0819	0.069992	0.001924	36.3746	-103.115	-165.294	0.013442	0.329245	-0.738160	-0.739482	0.041937	36.3746	-0.739025	-6.664579E+9	-6.292471E-12	NaN
454	1.000000	0.338575	7.3695e+06	-54389.1	1005.82	-29743.8	0.000000	0.000000	6.338882	0.086803	NaN	0.000000	0.001669	0.001768	28.0821	0.096312	0.002007	47.9832	-101.861	-161.472	0.104848	0.337252	-0.730152	-0.731475	0.086803	47.9832	-0.731509	-5.264708E+9	-1.648770E-11	NaN
454	1.000000	0.346613	7.3695e+06	-54389.1	1005.82	-29743.8	0.000000	0.000000	6.346917	0.011148	NaN	0.000000	0.001694	0.001755	28.0827	0.102654	0.001944	52.8075	-121.96	-165.554	-0.049933	0.345298	-0.722114	-0.723429	0.011148	52.8075	-0.722272	-3.939649E+9	-2.829618E-12	NaN
454	1.000000	0.354555	7.3695e+06	-54389.1	1005.82	-29743.8	0.000000	0.000000	6.354856	-0.068462	NaN	0.000000	0.001679	0.001761	28.083	0.030875	0.002106	14.6617	-84.0729	-165.997	0.012543	0.353277	-0.714172	-0.715450	-0.068462	14.6617	-0.710670	-2.736490E+9	2.501806E-11	NaN
454	1.000000	0.362579	7.3695e+06	-54389.1	1005.82	-29743.8	0.000000	0.000000	6.362882	-0.007011	NaN	0.000000	0.001693	0.001788	28.083	0.039445	0.001910	20.6538	-171.113	-164.579	0.055733	0.361233	-0.706148	-0.707494	-0.007011	20.6538	-0.705894	-2.355061E+9	2.977105E-12	NaN
454	1.000000	0.370589	7.3695e+06	-54389.1	1005.82	-29743.8	0.000000	0.000000	6.370890	-0.050151	NaN	0.000000	0.001696	0.001762	28.0829	0.099751	0.002040	48.8943	-134.435	-168.241	0.045834	0.369292	-0.698138	-0.699435	-0.050151	48.8943	-0.697369	-1.801348E+9	2.784068E-11	NaN
454	1.000000	0.378617	7.3695e+06	-54389.1	1005.82	-29743.8	0.000000	0.000000	6.378920	-0.018586	NaN	0.000000	0.001658	0.001755	28.0834	0.114971	0.001957	58.7521	33.5528	-166.609	-0.037197	0.377278	-0.690110	-0.691449	-0.018586	58.7521	-0.689873	-1.422913E+9	1.306180E-11	NaN
454	1.000000	0.386577	7.3695e+06	-54389.1	1005.82	-29743.8	0.000000	0.000000	6.386880	-0.015810	NaN	0.000000	0.001651	0.001758	28.0831	0.123284	0.001980	62.2732	24.8171	-164.565	0.020537	0.385305	-0.682150	-0.683422	-0.015810	62.2732	-0.681960	-1.109201E+9	1.425387E-11	NaN
454	1.000000	0.394592	7.3695e+06	-54389.1	1005.82	-29743.8	0.000000	0.000000	6.394897	0.032997	NaN	0.000000	0.001649	0.001757	28.0829	0.097899	0.001909	51.2886	85.4774	-163.147	0.043526	0.393263	-0.674135	-0.675465	0.032997	51.2886	-0.674618	-8.802001E+8	-3.748830E-11	NaN
454	1.000000	0.402603	7.3695e+06	-54389.1	1005.82	-29743.8	0.000000	0.000000	6.402905	-0.045722	NaN	0.000000	0.001660	0.001704	28.0828	0.083337	0.002042	40.8078	60.5827	-171.488	-0.061678	0.401285	-0.666124	-0.667442	-0.045722	40.8078	-0.665283	-6.558794E+8	6.971155E-11	NaN
454	1.000000	0.410597	7.3695e+06	-54389.1	1005.82	-29743.8	0.000000	0.000000	6.410903	0.056646	NaN	0.000000	0.001647	0.001727	28.083	0.011349	0.002022	5.612108	-117.474	-161.751	0.044650	0.409291	-0.658130	-0.659437	0.056646	5.612108	-0.665700	-6.645466E+8	-8.523936E-11	NaN
454	1.000000	0.418619	7.3695e+06	-54389.1	1005.82	-29743.8	0.000000	0.000000	6.418923	0.010590	NaN	0.000000	0.001654	0.001734	28.0832	0.047744	0.001974	24.1905	150.736	-167.281	0.037778	0.417283	-0.650108	-0.651444	0.010590	24.1905	-0.650437	-4.106039E+8	-2.579021E-11	NaN
454	1.000000	0.426633	7.3695e+06	-54389.1	1005.82	-29743.8	0.000000	0.000000	6.426935	-0.028486	NaN	0.000000	0.001680	0.001765	28.0829	0.072088	0.002030	35.5073	-47.1727	-162.881	0.005084	0.425341	-0.642095	-0.643386	-0.028486	35.5073	-0.641493	-3.095790E+8	9.201614E-11	NaN
454	1.000000	0.434632	7.3695e+06	-54389.1	1005.82	-29743.8	0.000000	0.000000	6.434935	-0.016424	NaN	0.000000	0.001706	0.001748	28.0829	0.039802	0.002089	19.0515	-19.8773	-163.567	-0.077423	0.433271	-0.634095	-0.635456	-0.016424	19.0515	-0.633448	-2.400877E+8	6.840742E-11	NaN
454	1.000000	0.442613	7.3695e+06	-54389.1	1005.82	-29743.8	0.000000	0.000000	6.442919	0.044880	NaN	0.000000	0.001710	0.001712	28.0826	0.071987	0.001960	36.7243	49.3802	-164.049	0.007276	0.441291	-0.626114	-0.627436	0.044880	36.7243	-0.627030	-1.959911E+8	-2.289913E-10	NaN
454	1.000000	0.450617	7.3695e+06	-54389.1	1005.82	-29743.8	0.000000	0.000000	6.450920	-0.025088	NaN	0.000000	0.001731	0.001699	28.0827	0.010189	0.001824	5.587052	29.7088	-169.368	-0.054333	0.449357	-0.618110	-0.619370	-0.025088	5.587052	-0.614742	-1.328437E+8	1.888572E-10	NaN
454	1.000000	0.458621	7.3695e+06	-54389.1	1005.82	-29743.8	0.000000	0.000000	6.458922	-0.067124	NaN	0.000000	0.001758	0.001741	28.0828	0.039866	0.002038	19.5606	175.712	-164.956	0.005422	0.457341	-0.610106	-0.611387	-0.067124	19.5606	-0.607533	-1.057212E+8	6.349110E-10	NaN
454	1.000000	0.466616	7.3695e+06	-54389.1	1005.82	-29743.8	0.000000	0.000000	6.466918	-0.048332	NaN	0.000000	0.001731	0.001753	28.0826	0.128886	0.002022	63.7474	-114.104	-165.288	0.024984	0.465318	-0.602111	-0.603409	-0.048332	63.7474	-0.601543	-8.743857E+7	5.527564E-10	NaN
454	1.000000	0.474637	7.3695e+06	-54389.1	1005.82	-29743.8	0.000000	0.000000	6.474939	-0.033480	NaN	0.000000	0.001714	0.001736	28.083	0.115058	0.001880	61.2134	-114.812	-164.513	-0.045198	0.473341	-0.594090	-0.595386	-0.033480	61.2134	-0.593680	-6.813768E+7	4.913535E-10	NaN
454	1.000000	0.482630	7.3695e+06	-54389.1	1005.82	-29743.8	0.000000	0.000000	6.482933	0.001825	NaN	0.000000	0.001691	0.001724	28.0822	0.156121	0.002047	76.254	59.3635	-167.149	-0.014253	0.481376	-0.586098	-0.587351	0.001825	76.254	-0.586116	-5.359240E+7	-3.405686E-11	NaN
454	1.000000	0.490620	7.3695e+06	-54389.1	1005.82	-29743.8	0.000000	0.000000	6.490922	-0.041274	NaN	0.000000	0.001690	0.001736	28.0817	0.082594	0.002050	40.2845	-126.445	-164.938	-0.097559	0.489315	-0.578107	-0.579413	-0.041274	40.2845	-0.577339	-4.055036E+7	1.017851E-9	NaN
454	1.000000	0.498640	7.3695e+06	-54389.1	1005.82	-29743.8	0.000000	0.000000	6.498944	0.017088	NaN	0.000000	0.001718	0.001736	28.0816	0.173761	0.001975	87.9672	108.722	-164.474	-0.019973	0.497303	-0.570088	-0.571424	0.017088	87.9672	-0.570233	-3.234866E+7	-5.282500E-10	NaN
454	1.000000	0.506660	7.3695e+06	-54389.1	1005.82	-29743.8	0.000000	0.000000	6.506964	0.005880	NaN	0.000000	0.001710	0.001751	28.0816	0.009174	0.002062	4.448481	-149.278	-166.738	0.002434	0.505284	-0.562067	-0.563443	0.005880	4.448481	-0.563058	-2.574393E+7	-2.283936E-10	NaN
454	1.000000	0.514650	7.3695e+06	-54389.1	1005.82	-29743.8	0.000000	0.000000	6.514954	0.018542	NaN	0.000000	0.001611	0.001728	28.0819	0.064706	0.002085	31.0406	-165.097	-168.374	0.049291	0.513378	-0.554077	-0.555350	0.018542	31.0406	-0.554525	-1.961634E+7	-9.452143E-10	NaN
454	1.000000	0.522639	7.3695e+06	-54389.1	1005.82	-29743.8	0.000000	0.000000	6.522943	-0.005949	NaN	0.000000	0.001618	0.001746	28.0817	0.076241	0.002140	35.6251	-65.2019	-164.585	0.025935	0.521346	-0.546088	-0.547381	-0.005949	35.6251	-0.545963	-1.492872E+7	3.984785E-10	NaN
454	1.000000	0.530634	7.3695e+06	-54389.1	1005.82	-29743.8	0.000000	0.000000	6.530937	-0.030227	NaN	0.000000	0.001591	0.001729	28.082	0.018727	0.002012	9.307056	86.2441	-165.441	-0.041924	0.529350	-0.538093	-0.539377	-0.030227	9.307056	-0.535657	-1.074262E+7	2.813746E-9	NaN
454	1.000000	0.538641	7.3695e+06	-54389.1	1005.82	-29743.8	0.000000	0.000000	6.538946	0.024722	NaN	0.000000	0.001615	0.001730	28.0819	0.051525	0.001922	26.8098	-100.848	-167.026	0.028303	0.537281	-0.530086	-0.531446	0.024722	26.8098	-0.530777	-9.19116e+06	-2.689772E-9	NaN
454	1.000000	0.546674	7.3695e+06	-54389.1	1005.82	-29743.8	0.000000	0.000000	6.546977	-0.033653	NaN	0.000000	0.001561	0.001738	28.0819	0.052262	0.001943	26.8981	-66.8761	-165.064	-0.023456	0.545308	-0.522053	-0.523420	-0.033653	26.8981	-0.521115	-6.74678e+06	4.987980E-9	NaN
454	1.000000	0.554641	7.3695e+06	-54389.1	1005.82	-29743.8	0.000000	0.000000	6.554943	-0.037624	NaN	0.000000	0.001613	0.001766	28.0818	0.147390	0.001913	77.0377	128.873	-164.785	-0.045147	0.553343	-0.514086	-0.515384	-0.037624	77.0377	-0.513720	-5.32372e+06	7.067195E-9	NaN
454	1.000000	0.562650	7.3695e+06	-54389.1	1005.82	-29743.8	0.000000	0.000000	6.562952	-0.043099	NaN	0.000000	0.001586	0.001727	28.0817	0.036803	0.001919	19.1801	-156.991	-166.141	-0.024359	0.561375	-0.506077	-0.507352	-0.043099	19.1801	-0.504392	-3.94701e+06	1.091953E-8	NaN
454	1.000000	0.570689	7.3695e+06	-54389.1	1005.82	-29743.8	0.000000	0.000000	6.570991	-0.040888	NaN	0.000000	0.001584	0.001781	28.082	0.009883	0.001925	5.134502	-148.383	-165.354	-0.000698	0.569399	-0.498038	-0.499328	-0.040888	5.134502	-0.492066	-2.65617e+06	1.539348E-8	NaN
454	1.000000	0.578668	7.3695e+06	-54389.1	1005.82	-29743.8	0.000000	0.000000	6.578971	0.003498	NaN	0.000000	0.001592	0.001785	28.0818	0.067123	0.002048	32.776	-127.96	-166.363	-0.018760	0.577411	-0.490060	-0.491316	0.003498	32.776	-0.490140	-2.49659e+06	-1.401192E-9	NaN
454	1.000000	0.586674	7.3695e+06	-54389.1	1005.82	-29743.8	0.000000	0.000000	6.586978	0.021258	NaN	0.000000	0.001635	0.001786	28.0821	0.045005	0.002007	22.4287	-4.721191	-163.232	-0.066552	0.585345	-0.482054	-0.483382	0.021258	22.4287	-0.482765	-1.96888e+06	-1.079678E-8	NaN
454	1.000000	0.594673	7.3695e+06	-54389.1	1005.82	-29743.8	0.000000	0.000000	6.594974	-0.059488	NaN	0.000000	0.001680	0.001770	28.0822	0.037984	0.001862	20.3976	-36.8465	-163.165	-0.008008	0.593324	-0.474055	-0.475403	-0.059488	20.3976	-0.471867	-1.38545e+06	4.293742E-8	NaN
454	1.000000	0.602694	7.3695e+06	-54389.1	1005.82	-29743.8	0.000000	0.000000	6.602995	-0.045294	NaN	0.000000	0.001648	0.001774	28.0819	0.068936	0.001982	34.7881	-82.1829	-165.637	-0.013427	0.601344	-0.466034	-0.467383	-0.045294	34.7881	-0.465057	-1.11186e+06	4.073690E-8	NaN
454	1.000000	0.610677	7.3695e+06	-54389.1	1005.82	-29743.8	0.000000	0.000000	6.610981	0.003910	NaN	0.000000	0.001626	0.001795	28.0821	0.111667	0.002037	54.8107	158.203	-165.122	-0.018703	0.609413	-0.458050	-0.459314	0.003910	54.8107	-0.458104	-887898	-4.403632E-9	NaN
454	1.000000	0.618711	7.3695e+06	-54389.1	1005.82	-29743.8	0.000000	0.000000	6.619010	-0.095205	NaN	0.000000	0.001621	0.001788	28.0822	0.110694	0.002032	54.4709	-73.1808	-166.751	-0.049042	0.617432	-0.450017	-0.451295	-0.095205	54.4709	-0.448706	-654810	1.453935E-7	NaN
454	1.000000	0.626680	7.3695e+06	-54389.1	1005.82	-29743.8	0.000000	0.000000	6.626983	-0.001328	NaN	0.000000	0.001617	0.001820	28.0835	0.058227	0.001944	29.9498	-48.7515	-168.634	0.020323	0.625355	-0.442047	-0.443372	-0.001328	29.9498	-0.442014	-526967	2.520827E-9	NaN
454	1.000000	0.634664	7.3695e+06	-54389.1	1005.82	-29743.8	0.000000	0.000000	6.634967	-0.015295	NaN	0.000000	0.001647	0.001774	28.0833	0.080967	0.002017	40.1353	110.93	-166.324	-0.019653	0.633358	-0.434063	-0.435369	-0.015295	40.1353	-0.433777	-403158	3.793712E-8	NaN
454	1.000000	0.642686	7.3695e+06	-54389.1	1005.82	-29743.8	0.000000	0.000000	6.642990	0.013891	NaN	0.000000	0.001656	0.001766	28.0834	0.023146	0.001965	11.7814	-71.4326	-164.049	-0.029557	0.641377	-0.426041	-0.427350	0.013891	11.7814	-0.426926	-322517	-4.306977E-8	NaN
454	1.000000	0.650743	7.3695e+06	-54389.1	1005.82	-29743.8	0.000000	0.000000	6.651048	0.031446	NaN	0.000000	0.001673	0.001761	28.0832	0.061691	0.002012	30.657	96.4252	-165.741	-0.029853	0.649427	-0.417984	-0.419300	0.031446	30.657	-0.418754	-247021	-1.272988E-7	NaN
454	1.000000	0.658680	7.3695e+06	-54389.1	1005.82	-29743.8	0.000000	0.000000	6.658984	0.022543	NaN	0.000000	0.001649	0.001754	28.0833	0.096588	0.002111	45.7475	31.298	-163.386	0.007477	0.657379	-0.410048	-0.411348	0.022543	45.7475	-0.410417	-188076	-1.198612E-7	NaN
454	1.000000	0.666707	7.3695e+06	-54389.1	1005.82	-29743.8	0.000000	0.000000	6.667009	-0.034967	NaN	0.000000	0.001639	0.001730	28.0835	0.068673	0.002024	33.9373	67.2957	-167.119	0.060778	0.665434	-0.402021	-0.403294	-0.034967	33.9373	-0.401248	-139248	2.511117E-7	NaN
454	1.000000	0.674712	7.3695e+06	-54389.1	1005.82	-29743.8	0.000000	0.000000	6.675018	0.045387	NaN	0.000000	0.001656	0.001733	28.0833	0.074394	0.001991	37.3682	155.615	-166.364	0.076676	0.673404	-0.394015	-0.395323	0.045387	37.3682	-0.394926	-113130	-4.011968E-7	NaN
454	1.000000	0.682709	7.3695e+06	-54389.1	1005.82	-29743.8	0.000000	0.000000	6.683012	-0.022718	NaN	0.000000	0.001655	0.001767	28.0835	0.073045	0.001872	39.0279	166.215	-166.93	-0.036651	0.681405	-0.386018	-0.387322	-0.022718	39.0279	-0.385581	-83160.5	2.731844E-7	NaN
454	1.000000	0.690713	7.3695e+06	-54389.1	1005.82	-29743.8	0.000000	0.000000	6.691017	0.017134	NaN	0.000000	0.001652	0.001732	28.0833	0.051206	0.001999	25.6144	86.6572	-162.65	-0.039872	0.689426	-0.378014	-0.379302	0.017134	25.6144	-0.378516	-65854.4	-2.601778E-7	NaN
454	1.000000	0.698727	7.3695e+06	-54389.1	1005.82	-29743.8	0.000000	0.000000	6.699030	0.001458	NaN	0.000000	0.001609	0.001759	28.0836	0.122026	0.002064	59.1271	-87.093	-165.831	0.024004	0.697436	-0.370001	-0.371291	0.001458	59.1271	-0.370019	-49705.2	-2.933730E-8	NaN
454	1.000000	0.706739	7.3695e+06	-54389.1	1005.82	-29743.8	0.000000	0.000000	6.707046	0.083744	NaN	0.000000	0.001645	0.001765	28.0833	0.048724	0.001982	24.5865	-135.819	-165.603	0.001595	0.705444	-0.361988	-0.363283	0.083744	24.5865	-0.364543	-41443.4	-2.020678E-6	NaN
454	1.000000	0.714734	7.3695e+06	-54389.1	1005.82	-29743.8	0.000000	0.000000	6.715036	-0.016414	NaN	0.000000	0.001631	0.001724	28.0832	0.078501	0.002031	38.6453	133.445	-165.606	0.004576	0.713458	-0.353994	-0.355269	-0.016414	38.6453	-0.353675	-28860.4	5.687538E-7	NaN
454	1.000000	0.722718	7.3695e+06	-54389.1	1005.82	-29743.8	0.000000	0.000000	6.723021	-0.029299	NaN	0.000000	0.001622	0.001734	28.0833	0.080011	0.001844	43.3953	-138.761	-163.493	-0.005875	0.721421	-0.346009	-0.347306	-0.029299	43.3953	-0.345503	-21961.6	1.334086E-6	NaN
454	1.000000	0.730744	7.3695e+06	-54389.1	1005.82	-29743.8	0.000000	0.000000	6.731047	-0.017181	NaN	0.000000	0.001635	0.001728	28.0832	0.059341	0.001944	30.5184	142.514	-165.452	-0.008290	0.729379	-0.337983	-0.339348	-0.017181	30.5184	-0.337561	-16826.2	1.021075E-6	NaN
454	1.000000	0.738728	7.3695e+06	-54389.1	1005.82	-29743.8	0.000000	0.000000	6.739029	-0.058799	NaN	0.000000	0.001657	0.001730	28.0836	0.088959	0.001923	46.2692	128.725	-168.326	0.017452	0.737423	-0.329999	-0.331304	-0.058799	46.2692	-0.329046	-12632.1	4.654739E-6	NaN
454	1.000000	0.746744	7.3695e+06	-54389.1	1005.82	-29743.8	0.000000	0.000000	6.747052	0.109182	NaN	0.000000	0.001634	0.001751	28.0833	0.057828	0.001794	32.2402	-74.017	-165.973	0.079168	0.745474	-0.321983	-0.323253	0.109182	32.2402	-0.324523	-10842.6	-1.006970E-5	NaN
454	1.000000	0.754756	7.3695e+06	-54389.1	1005.82	-29743.8	0.000000	0.000000	6.755059	-0.023703	NaN	0.000000	0.001626	0.001740	28.0833	0.048884	0.002036	24.0091	-43.1946	-168.704	-0.007108	0.753435	-0.313971	-0.315293	-0.023703	24.0091	-0.313231	-7393.04	3.206147E-6	NaN
454	1.000000	0.762759	7.3695e+06	-54389.1	1005.82	-29743.8	0.000000	0.000000	6.763058	-0.111945	NaN	0.000000	0.001678	0.001747	28.082	0.045381	0.001937	23.4244	177.652	-163.43	-0.057771	0.761388	-0.305968	-0.307339	-0.111945	23.4244	-0.302384	-5106.21	2.192332E-5	NaN
454	1.000000	0.770749	7.3695e+06	-54389.1	1005.82	-29743.8	0.000000	0.000000	6.771050	-0.049232	NaN	0.000000	0.001650	0.001737	28.082	0.097655	0.001945	50.1963	156.965	-169.051	-0.067370	0.769449	-0.297978	-0.299278	-0.049232	50.1963	-0.297243	-4281.11	1.149982E-5	NaN
454	1.000000	0.778773	7.3695e+06	-54389.1	1005.82	-29743.8	0.000000	0.000000	6.779079	0.053111	NaN	0.000000	0.001659	0.001755	28.0819	0.075508	0.001984	38.0518	-162.998	-166.706	0.073331	0.777478	-0.289954	-0.291249	0.053111	38.0518	-0.291001	-3453.8	-1.537741E-5	NaN
454	1.000000	0.786762	7.3695e+06	-54389.1	1005.82	-29743.8	0.000000	0.000000	6.787066	0.004638	NaN	0.000000	0.001636	0.001756	28.0821	0.046720	0.001922	24.3021	10.4142	-165.781	-0.063812	0.785448	-0.281965	-0.283279	0.004638	24.3021	-0.282109	-2539.55	-1.826341E-6	NaN
454	1.000000	0.794748	7.3695e+06	-54389.1	1005.82	-29743.8	0.000000	0.000000	6.795052	0.002857	NaN	0.000000	0.001652	0.001734	28.0821	0.073660	0.002026	36.3503	-148.661	-164.222	-0.046517	0.793424	-0.273979	-0.275304	0.002857	36.3503	-0.274038	-1917.9	-1.489457E-6	NaN
454	1.000000	0.802759	7.3695e+06	-54389.1	1005.82	-29743.8	0.000000	0.000000	6.803062	0.007473	NaN	0.000000	0.001652	0.001764	28.0821	0.099135	0.001963	50.4996	62.9818	-167.503	0.001459	0.801474	-0.265969	-0.267253	0.007473	50.4996	-0.266080	-1451.64	-5.148249E-6	NaN
454	1.000000	0.810772	7.3695e+06	-54389.1	1005.82	-29743.8	0.000000	0.000000	6.811072	-0.076186	NaN	0.000000	0.001671	0.001736	28.0821	0.100036	0.001921	52.0725	139.085	-167.294	-0.105993	0.809425	-0.257956	-0.259302	-0.076186	52.0725	-0.256858	-1048.82	7.264021E-5	NaN
454	1.000000	0.818787	7.3695e+06	-54389.1	1005.82	-29743.8	0.000000	0.000000	6.819088	-0.048396	NaN	0.000000	0.001629	0.001758	28.082	0.040738	0.002122	19.1967	103.942	-166.874	-0.022966	0.817486	-0.249941	-0.251241	-0.048396	19.1967	-0.248050	-766.968	6.310098E-5	NaN
454	1.000000	0.826780	7.3695e+06	-54389.1	1005.82	-29743.8	0.000000	0.000000	6.827083	-0.007829	NaN	0.000000	0.001647	0.001743	28.082	0.109248	0.001922	56.8526	10.4406	-168.603	-0.016938	0.825487	-0.241947	-0.243240	-0.007829	56.8526	-0.241844	-614.219	1.274634E-5	NaN
454	1.000000	0.834749	7.3695e+06	-54389.1	1005.82	-29743.8	0.000000	0.000000	6.835051	-0.015635	NaN	0.000000	0.001654	0.001724	28.0821	0.080322	0.001902	42.2274	-42.409	-167.723	0.032548	0.833462	-0.233979	-0.235265	-0.015635	42.2274	-0.233701	-457.968	3.413882E-5	NaN
454	1.000000	0.842765	7.3695e+06	-54389.1	1005.82	-29743.8	0.000000	0.000000	6.843069	0.010028	NaN	0.000000	0.001662	0.001757	28.0822	0.067735	0.002107	32.1513	-13.1255	-165.409	-0.025579	0.841485	-0.225962	-0.227242	0.010028	32.1513	-0.226196	-348.596	-2.876671E-5	NaN
454	1.000000	0.850792	7.3695e+06	-54389.1	1005.82	-29743.8	0.000000	0.000000	6.851094	-0.042228	NaN	0.000000	0.001616	0.001761	28.0821	0.033558	0.001830	18.3418	-103.184	-167.864	-0.080112	0.849472	-0.217935	-0.219255	-0.042228	18.3418	-0.216208	-241.511	0.000175	NaN
454	1.000000	0.858789	7.3695e+06	-54389.1	1005.82	-29743.8	0.000000	0.000000	6.859093	-0.002223	NaN	0.000000	0.001650	0.001760	28.0821	0.118467	0.001988	59.5813	140.037	-166.994	0.048229	0.857494	-0.209938	-0.211234	-0.002223	59.5813	-0.209910	-191.144	1.163077E-5	NaN
454	1.000000	0.866793	7.3695e+06	-54389.1	1005.82	-29743.8	0.000000	0.000000	6.867095	-0.034279	NaN	0.000000	0.001628	0.001773	28.0821	0.017087	0.002011	8.498277	69.5765	-163.15	-0.023055	0.865490	-0.201935	-0.203237	-0.034279	8.498277	-0.198909	-126.403	0.000271	NaN
454	1.000000	0.874756	7.3695e+06	-54389.1	1005.82	-29743.8	0.000000	0.000000	6.875060	0.005067	NaN	0.000000	0.001642	0.001745	28.0822	0.104850	0.001972	53.1787	-158.103	-169.211	-0.121376	0.873448	-0.193971	-0.195279	0.005067	53.1787	-0.194042	-105.033	-4.824558E-5	NaN
454	1.000000	0.882765	7.3695e+06	-54389.1	1005.82	-29743.8	0.000000	0.000000	6.883065	-0.069039	NaN	0.000000	0.001614	0.001755	28.0822	0.106275	0.001975	53.8073	-143.612	-164.969	-0.118085	0.881477	-0.185963	-0.187250	-0.069039	53.8073	-0.185000	-74.1544	0.000931	NaN
454	1.000000	0.890783	7.3695e+06	-54389.1	1005.82	-29743.8	0.000000	0.000000	6.891084	-0.060469	NaN	0.000000	0.001634	0.001761	28.0822	0.171659	0.002006	85.5813	68.8138	-164.039	-0.108652	0.889445	-0.177944	-0.179282	-0.060469	85.5813	-0.177414	-55.1267	0.001097	NaN
454	1.000000	0.898821	7.3695e+06	-54389.1	1005.82	-29743.8	0.000000	0.000000	6.899121	-0.071876	NaN	0.000000	0.001634	0.001727	28.0833	0.050146	0.002102	23.8602	-142.396	-163.198	-0.044310	0.897484	-0.169906	-0.171243	-0.071876	23.8602	-0.167647	-37.3808	0.001923	NaN
454	1.000000	0.906804	7.3695e+06	-54389.1	1005.82	-29743.8	0.000000	0.000000	6.907106	-0.034512	NaN	0.000000	0.001600	0.001746	28.0831	0.094621	0.001824	51.8881	-32.9237	-165.656	-0.055228	0.905496	-0.161924	-0.163231	-0.034512	51.8881	-0.161425	-29.0576	0.001188	NaN
454	1.000000	0.914824	7.3695e+06	-54389.1	1005.82	-29743.8	0.000000	0.000000	6.915128	0.007096	NaN	0.000000	0.001634	0.001778	28.0831	0.016174	0.001916	8.443603	13.6074	-171.107	-0.004411	0.913512	-0.153903	-0.155216	0.007096	8.443603	-0.154533	-21.8867	-0.000324	NaN
454	1.000000	0.922850	7.3695e+06	-54389.1	1005.82	-29743.8	0.000000	0.000000	6.923154	0.024349	NaN	0.000000	0.001642	0.001754	28.083	0.126849	0.002002	63.362	-107.225	-169.181	0.003723	0.921547	-0.145878	-0.147180	0.024349	63.362	-0.146166	-15.4063	-0.001580	NaN
454	1.000000	0.930820	7.3695e+06	-54389.1	1005.82	-29743.8	0.000000	0.000000	6.931121	-0.059780	NaN	0.000000	0.001650	0.001737	28.0832	0.099173	0.001978	50.1255	-80.7621	-167.834	-0.040390	0.929543	-0.137907	-0.139184	-0.059780	50.1255	-0.137012	-10.3892	0.005754	NaN
454	1.000000	0.938800	7.3695e+06	-54389.1	1005.82	-29743.8	0.000000	0.000000	6.939103	-0.007367	NaN	0.000000	0.001636	0.001767	28.0831	0.075854	0.001986	38.1918	142.885	-168.981	0.009442	0.937471	-0.129927	-0.131256	-0.007367	38.1918	-0.129783	-7.547201	0.000976	NaN
454	1.000000	0.946816	7.3695e+06	-54389.1	1005.82	-29743.8	0.000000	0.000000	6.947118	-0.036153	NaN	0.000000	0.001649	0.001782	28.0831	0.044825	0.002021	22.1781	-142.647	-166.989	-0.049159	0.945511	-0.121911	-0.123216	-0.036153	22.1781	-0.120689	-4.988399	0.007247	NaN
454	1.000000	0.954823	7.3695e+06	-54389.1	1005.82	-29743.8	0.000000	0.000000	6.955122	-0.111648	NaN	0.000000	0.001700	0.001767	28.0832	0.090141	0.001946	46.3135	-127.717	-166.727	-0.064540	0.953451	-0.113905	-0.115276	-0.111648	46.3135	-0.112096	-3.325560	0.033573	NaN
454	1.000000	0.962789	7.3695e+06	-54389.1	1005.82	-29743.8	0.000000	0.000000	6.963091	-0.047301	NaN	0.000000	0.001682	0.001743	28.0833	0.080351	0.001958	41.0374	-159.709	-165.224	-0.012527	0.961582	-0.105938	-0.107145	-0.047301	41.0374	-0.105073	-2.359176	0.020050	NaN
454	1.000000	0.970837	7.3695e+06	-54389.1	1005.82	-29743.8	0.000000	0.000000	6.971138	-0.061813	NaN	0.000000	0.001650	0.001755	28.0834	0.033920	0.001958	17.3229	-154.648	-164.083	-0.041787	0.969486	-0.097890	-0.099241	-0.061813	17.3229	-0.095214	-1.426532	0.043331	NaN
454	1.000000	0.978826	7.3695e+06	-54389.1	1005.82	-29743.8	0.000000	0.000000	6.979128	-0.050248	NaN	0.000000	0.001654	0.001779	28.0832	0.213885	0.002014	106.193	-171.081	-164.667	-0.042193	0.977525	-0.089901	-0.091202	-0.050248	106.193	-0.089546	-1.054751	0.047640	NaN
454	1.000000	0.986857	7.3695e+06	-54389.1	1005.82	-29743.8	0.000000	0.000000	6.987160	-0.017202	NaN	0.000000	0.001723	0.001788	28.0835	0.016694	0.001942	8.597420	-48.6632	-169.23	-0.056050	0.985532	-0.081870	-0.083196	-0.017202	8.597420	-0.080369	-0.632283	0.027206	NaN
454	1.000000	0.994860	7.3695e+06	-54389.1	1005.82	-29743.8	0.000000	0.000000	6.995161	-0.070075	NaN	0.000000	0.001691	0.001777	28.0832	0.021218	0.001955	10.8535	-150.223	-165.027	-0.129809	0.993572	-0.073867	-0.075155	-0.070075	10.8535	-0.069025	-0.321127	0.218216	NaN
454	1.000000	1.002846	7.3695e+06	-54389.1	1005.82	-29743.8	0.000000	0.000000	7.003150	0.003321	NaN	0.000000	0.001654	0.001787	28.0832	0.094090	0.001920	49.0087	33.8865	-164.607	0.015093	1.001533	-0.065881	-0.067194	0.003321	49.0087	-0.065932	-0.264446	-0.012557	NaN
454	1.000000	1.010849	7.3695e+06	-54389.1	1005.82	-29743.8	0.000000	0.000000	7.011151	-0.053978	NaN	0.000000	0.001662	0.001791	28.0831	0.040735	0.001978	20.5897	-44.8213	-163.93	0.014192	1.009559	-0.057878	-0.059168	-0.053978	20.5897	-0.055912	-0.136999	0.394000	NaN
454	1.000000	1.018838	7.3695e+06	-54389.1	1005.82	-29743.8	0.000000	0.000000	7.019139	-0.072432	NaN	0.000000	0.001662	0.001799	28.083	0.050417	0.002024	24.9144	-27.745	-164.311	-0.091849	1.017515	-0.049889	-0.051213	-0.072432	24.9144	-0.047709	-0.077748	0.931628	NaN
454	1.000000	1.026828	7.3695e+06	-54389.1	1005.82	-29743.8	0.000000	0.000000	7.027129	-0.051478	NaN	0.000000	0.001648	0.001787	28.0841	0.046911	0.001958	23.9561	-127.766	-166.98	-0.012552	1.025536	-0.041899	-0.043191	-0.051478	23.9561	-0.040288	-0.046142	1.115639	NaN
454	1.000000	1.034860	7.3695e+06	-54389.1	1005.82	-29743.8	0.000000	0.000000	7.035160	-0.087824	NaN	0.000000	0.001686	0.001759	28.0817	0.051717	0.001996	25.9146	-154.831	-163.146	-0.066099	1.033535	-0.033867	-0.035193	-0.087824	25.9146	-0.031325	-0.025074	3.502620	NaN
454	1.000000	1.042836	7.3695e+06	-54389.1	1005.82	-29743.8	0.000000	0.000000	7.043140	-0.004132	NaN	0.000000	0.001679	0.001761	28.0818	0.028439	0.001912	14.874	60.7207	-168.227	-0.053097	1.041573	-0.025891	-0.027155	-0.004132	14.874	-0.025683	-0.017580	0.235057	NaN
454	1.000000	1.050861	7.3695e+06	-54389.1	1005.82	-29743.8	0.000000	0.000000	7.051163	-0.036660	NaN	0.000000	0.001598	0.001745	28.0819	0.132007	0.002083	63.3835	-46.3436	-167.15	-0.024604	1.049554	-0.017866	-0.019174	-0.036660	63.3835	-0.017432	-0.010789	3.397942	NaN
454	1.000000	1.058874	7.3695e+06	-54389.1	1005.82	-29743.8	0.000000	0.000000	7.059176	-0.035847	NaN	0.000000	0.001676	0.001727	28.082	0.092833	0.001967	47.1929	99.8103	-163.315	-0.064970	1.057540	-0.009853	-0.011187	-0.035847	47.1929	-0.009284	-0.005976	5.997956	NaN
454	1.000000	1.066884	7.3695e+06	-54389.1	1005.82	-29743.8	0.000000	0.000000	7.067186	-0.033159	NaN	0.000000	0.001685	0.001739	28.0821	0.071289	0.002136	33.3801	44.6383	-163.671	0.017603	1.065564	-0.001844	-0.003163	-0.033159	33.3801	-0.001099	-0.000804	41.2424	NaN
454	1.000000	1.074832	7.3695e+06	-54389.1	1005.82	-29743.8	0.000000	0.000000	7.075235	2.428543	NaN	0.000000	0.001679	0.001760	28.0819	3.292368	0.001860	1770.25	8.247383	-165.74	1.291401	1.073530	0.006105	0.004803	2.428543	1770.25	0.005076	0.004203	577.863	24948.7
454	2.000000	1.082315	7.3695e+06	-54389.1	1005.82	-29743.8	0.000000	0.000000	7.082963	8.364761	NaN	0.000000	0.001663	0.001777	28.0819	8.974894	0.001618	5545.49	8.059956	-172.946	7.631990	1.081536	0.013588	0.012809	8.364761	5545.49	0.012457	0.012042	694.654	46171.1
454	2.000000	1.084461	7.3695e+06	-54389.1	1005.82	-29743.8	0.000000	0.000000	7.085250	11.8094	NaN	0.000000	0.001637	0.001780	28.0826	11.0423	0.001637	6743.4	8.334458	-176.623	11.7763	1.084164	0.015734	0.015437	11.8094	6743.4	0.014420	0.014520	813.317	51129
454	2.000000	1.086464	7.3695e+06	-54389.1	1005.82	-29743.8	0.000000	0.000000	7.087314	13.2792	NaN	0.000000	0.001634	0.001764	28.0816	13.3951	0.001725	7764.5	7.637832	-174.769	13.8048	1.086135	0.017737	0.017408	13.2792	7764.5	0.016454	0.017273	768.77	53975.9
454	2.000000	1.088427	7.3695e+06	-54389.1	1005.82	-29743.8	0.000000	0.000000	7.089464	17.8345	NaN	0.000000	0.001642	0.001763	28.0817	15.8469	0.001771	8947.25	9.072770	-177.374	16.879	1.088126	0.019700	0.019399	17.8345	8947.25	0.018205	0.019800	900.743	58094.2
454	2.000000	1.090421	7.3695e+06	-54389.1	1005.82	-29743.8	0.000000	0.000000	7.091578	20.7493	NaN	0.000000	0.001633	0.001799	28.0817	17.5863	0.001787	9841.6	5.585842	-174.445	21.4963	1.090105	0.021694	0.021377	20.7493	9841.6	0.020113	0.022720	913.279	59653.9
454	2.000000	1.092386	7.3695e+06	-54389.1	1005.82	-29743.8	0.000000	0.000000	7.093626	22.7598	NaN	0.000000	0.001633	0.001796	28.0818	19.7778	0.001687	11722.7	6.450741	-179.132	22.4882	1.092107	0.023659	0.023380	22.7598	11722.7	0.022203	0.026123	871.257	66266
454	2.000000	1.094367	7.3695e+06	-54389.1	1005.82	-29743.8	0.000000	0.000000	7.095843	28.4912	NaN	0.000000	0.001620	0.001791	28.0827	21.4482	0.001723	12451.5	6.117061	179.861	27.1033	1.094112	0.025640	0.025385	28.4912	12451.5	0.023924	0.029087	979.534	66703.6
454	2.000000	1.096410	7.3695e+06	-54389.1	1005.82	-29743.8	0.000000	0.000000	7.098061	32.7508	NaN	0.000000	0.001635	0.001779	28.082	23.7277	0.001743	13610.1	8.765907	178.673	33.2334	1.096034	0.027683	0.027307	32.7508	13610.1	0.025878	0.032632	1003.64	68835.5
454	2.000000	1.098378	7.3695e+06	-54389.1	1005.82	-29743.8	0.000000	0.000000	7.100150	35.7007	NaN	0.000000	0.001648	0.001779	28.0821	26.0041	0.001825	14245.4	4.371378	-177.375	34.6307	1.097988	0.029651	0.029260	35.7007	14245.4	0.027771	0.036250	984.839	68358.6
454	2.000000	1.100349	7.3695e+06	-54389.1	1005.82	-29743.8	0.000000	0.000000	7.102220	38.0975	NaN	0.000000	0.001670	0.001779	28.0819	27.7428	0.001813	15305.3	6.444328	178.372	36.9832	1.100099	0.031622	0.031372	38.0975	15305.3	0.029755	0.040237	946.82	69710.8
454	2.000000	1.102371	7.3695e+06	-54389.1	1005.82	-29743.8	0.000000	0.000000	7.104539	45.3259	NaN	0.000000	0.001681	0.001752	28.082	29.67	0.001821	16294.3	4.440778	-178.678	44.7961	1.102067	0.033644	0.033340	45.3259	16294.3	0.031557	0.044033	1029.36	70944.3
454	2.000000	1.104342	7.3695e+06	-54389.1	1005.82	-29743.8	0.000000	0.000000	7.106878	54.2812	NaN	0.000000	0.001653	0.001789	28.0845	31.0692	0.001674	18554.7	5.308089	178.373	52.2136	1.104026	0.035614	0.035299	54.2812	18554.7	0.033420	0.048131	1127.77	77270.6
454	2.000000	1.106301	7.3695e+06	-54389.1	1005.82	-29743.8	0.000000	0.000000	7.109041	59.2234	NaN	0.000000	0.001636	0.001759	28.0834	33.8236	0.001758	19243.2	3.077146	-179.371	56.6304	1.105992	0.037574	0.037265	59.2234	19243.2	0.035265	0.052366	1130.96	76829.3
454	2.000000	1.108378	7.3695e+06	-54389.1	1005.82	-29743.8	0.000000	0.000000	7.111336	64.5356	NaN	0.000000	0.001648	0.001767	28.0836	36.097	0.001804	20005.5	9.970312	174.486	63.4968	1.107945	0.039650	0.039217	64.5356	20005.5	0.037231	0.057068	1130.86	76511.3
454	2.000000	1.110310	7.3695e+06	-54389.1	1005.82	-29743.8	0.000000	0.000000	7.113521	70.6723	NaN	0.000000	0.001619	0.001759	28.0835	37.6219	0.001721	21864	3.460740	178.944	67.3336	1.110010	0.041583	0.041283	70.6723	21864	0.039159	0.061873	1142.22	80307
454	2.000000	1.112318	7.3695e+06	-54389.1	1005.82	-29743.8	0.000000	0.000000	7.115761	76.3347	NaN	0.000000	0.001614	0.001747	28.0835	40.5752	0.001847	21970.3	4.378960	179.572	74.7727	1.111970	0.043590	0.043243	76.3347	21970.3	0.040984	0.066597	1146.21	77782.5
454	2.000000	1.114376	7.3695e+06	-54389.1	1005.82	-29743.8	0.000000	0.000000	7.117861	77.3512	NaN	0.000000	0.001635	0.001751	28.0837	41.2283	0.001774	23241.7	5.104465	176.578	78.5977	1.114012	0.045649	0.045285	77.3512	23241.7	0.043153	0.072429	1067.95	78901.3
454	2.000000	1.116422	7.3695e+06	-54389.1	1005.82	-29743.8	0.000000	0.000000	7.120220	84.945	NaN	0.000000	0.001624	0.001757	28.0838	43.743	0.001849	23654.9	4.314235	177.822	86.7966	1.116006	0.047695	0.047279	84.945	23654.9	0.045001	0.077591	1094.78	77587
454	2.000000	1.118357	7.3695e+06	-54389.1	1005.82	-29743.8	0.000000	0.000000	7.122559	94.7791	NaN	0.000000	0.001633	0.001769	28.0835	45.7555	0.001773	25810.1	5.878646	175.366	96.4321	1.118071	0.049630	0.049344	94.7791	25810.1	0.046876	0.083001	1141.9	81850.2
454	2.000000	1.120316	7.3695e+06	-54389.1	1005.82	-29743.8	0.000000	0.000000	7.124924	104.625	NaN	0.000000	0.001631	0.001747	28.0834	47.2503	0.001734	27250.7	7.351237	173.211	103.616	1.119902	0.051589	0.051175	104.625	27250.7	0.048710	0.088466	1182.66	83706.9
454	2.000000	1.122287	7.3695e+06	-54389.1	1005.82	-29743.8	0.000000	0.000000	7.127143	110.67	NaN	0.000000	0.001617	0.001759	28.0833	49.0033	0.001773	27641.7	1.417185	179.066	106.454	1.122075	0.053560	0.053348	110.67	27641.7	0.050557	0.094143	1175.55	82308.4
454	2.000000	1.124302	7.3695e+06	-54389.1	1005.82	-29743.8	0.000000	0.000000	7.129541	119.998	NaN	0.000000	0.001617	0.001783	28.0833	50.5672	0.001779	28425.5	6.384044	174.012	116.475	1.123914	0.055574	0.055187	119.998	28425.5	0.052408	0.100002	1199.95	82125.2
454	2.000000	1.126275	7.3695e+06	-54389.1	1005.82	-29743.8	0.000000	0.000000	7.131881	128.91	NaN	0.000000	0.001633	0.001713	28.0835	52.9886	0.001817	29157.1	5.233977	174.858	126.162	1.125994	0.057548	0.057267	128.91	29157.1	0.054232	0.105941	1216.82	81843.9
454	2.000000	1.128310	7.3695e+06	-54389.1	1005.82	-29743.8	0.000000	0.000000	7.134217	136.219	NaN	0.000000	0.001552	0.001768	28.0834	55.3975	0.001641	33749.6	7.698601	170.856	134.718	1.128073	0.059583	0.059346	136.219	33749.6	0.056556	0.113748	1197.54	91425.9
454	2.000000	1.130359	7.3695e+06	-54389.1	1005.82	-29743.8	0.000000	0.000000	7.136770	148.482	NaN	0.000000	0.001553	0.001748	28.0836	55.9915	0.001795	31187.7	0.732478	178.723	148.405	1.130032	0.061631	0.061305	148.482	31187.7	0.058061	0.118946	1248.31	82619.1
454	2.000000	1.132339	7.3695e+06	-54389.1	1005.82	-29743.8	0.000000	0.000000	7.139285	161.482	NaN	0.000000	0.001528	0.001749	28.0832	60.8406	0.001652	36824.6	9.324934	168.169	162.501	1.132007	0.063612	0.063279	161.482	36824.6	0.060323	0.126969	1271.83	94419.7
454	2.000000	1.134217	7.3695e+06	-54389.1	1005.82	-29743.8	0.000000	0.000000	7.141651	173.34	NaN	0.000000	0.001585	0.001751	28.0834	60.8977	0.001699	35839.2	5.021409	173.543	169.559	1.133988	0.065490	0.065260	173.34	35839.2	0.061862	0.132570	1307.53	89930.7
454	2.000000	1.136314	7.3695e+06	-54389.1	1005.82	-29743.8	0.000000	0.000000	7.144079	181.391	NaN	0.000000	0.001563	0.001756	28.0835	64.8094	0.001845	35119.9	7.536881	172.046	180.371	1.135909	0.067587	0.067182	181.391	35119.9	0.063713	0.139459	1300.68	85921.7
454	2.000000	1.138359	7.3695e+06	-54389.1	1005.82	-29743.8	0.000000	0.000000	7.146621	193.473	NaN	0.000000	0.001559	0.001775	28.0822	65.9819	0.001806	36541.2	7.609796	172.026	194.986	1.137919	0.069632	0.069192	193.473	36541.2	0.065661	0.146887	1317.16	87109.4
454	2.000000	1.140311	7.3695e+06	-54389.1	1005.82	-29743.8	0.000000	0.000000	7.149142	207.304	NaN	0.000000	0.001579	0.001726	28.0823	67.3998	0.001765	38184.5	4.751883	173.64	207.326	1.139960	0.071584	0.071232	207.304	38184.5	0.067512	0.154115	1345.13	88866.5
454	2.000000	1.142229	7.3695e+06	-54389.1	1005.82	-29743.8	0.000000	0.000000	7.151060	207.32	NaN	0.000000	0.001565	0.001778	28.082	71.3778	0.001791	39846.9	6.435310	170.634	204.175	1.142087	0.073501	0.073360	207.32	39846.9	0.069599	0.162461	1276.12	90321.8
454	2.000000	1.144302	7.3695e+06	-54389.1	1005.82	-29743.8	0.000000	0.000000	7.153969	227.627	NaN	0.000000	0.001588	0.001734	28.0822	72.1804	0.001763	40939.4	4.729434	172.092	224.936	1.144085	0.075575	0.075357	227.627	40939.4	0.071405	0.169849	1340.17	90757.7
454	2.000000	1.146327	7.3695e+06	-54389.1	1005.82	-29743.8	0.000000	0.000000	7.156470	239.212	NaN	0.000000	0.001556	0.001782	28.0822	74.5094	0.001723	43250.1	2.986708	173.717	239.684	1.146031	0.077599	0.077304	239.212	43250.1	0.073451	0.178409	1340.8	93551.6
454	2.000000	1.148371	7.3695e+06	-54389.1	1005.82	-29743.8	0.000000	0.000000	7.159131	254.22	NaN	0.000000	0.001573	0.001752	28.0826	77.5013	0.001849	41905	2.399966	175.39	253.207	1.148043	0.079643	0.079316	254.22	41905	0.075094	0.185423	1371.03	88911.4
454	2.000000	1.150280	7.3695e+06	-54389.1	1005.82	-29743.8	0.000000	0.000000	7.161369	262.203	NaN	0.000000	0.001530	0.001774	28.0823	78.6051	0.001805	43557	2.891996	174.561	262.723	1.149991	0.081552	0.081264	262.203	43557	0.077037	0.193888	1352.34	90376.6
454	2.000000	1.152319	7.3695e+06	-54389.1	1005.82	-29743.8	0.000000	0.000000	7.164142	280.033	NaN	0.000000	0.001542	0.001777	28.0821	80.6708	0.001824	44231.3	5.369763	172.265	281.932	1.151967	0.083592	0.083240	280.033	44231.3	0.078844	0.201912	1386.9	89933.5
454	2.000000	1.154251	7.3695e+06	-54389.1	1005.82	-29743.8	0.000000	0.000000	7.166594	292.686	NaN	0.000000	0.001585	0.001762	28.0826	81.6619	0.001722	47414.1	3.604338	172.805	290.219	1.153813	0.085523	0.085086	292.686	47414.1	0.080894	0.211203	1385.8	94260.7
454	2.000000	1.156128	7.3695e+06	-54389.1	1005.82	-29743.8	0.000000	0.000000	7.168710	298.497	NaN	0.000000	0.001577	0.001778	28.0822	85.0541	0.001915	44414.5	4.809668	172.054	291.858	1.155848	0.087401	0.087120	298.497	44414.5	0.082361	0.217972	1369.43	86915.6
454	2.000000	1.158402	7.3695e+06	-54389.1	1005.82	-29743.8	0.000000	0.000000	7.171676	315.322	NaN	0.000000	0.001561	0.001778	28.0825	86.1658	0.001889	45618.1	7.907403	170.35	318.533	1.157873	0.089674	0.089146	315.322	45618.1	0.084490	0.227976	1383.14	87290.3
454	2.000000	1.160219	7.3695e+06	-54389.1	1005.82	-29743.8	0.000000	0.000000	7.174254	333.816	NaN	0.000000	0.001606	0.001785	28.0823	86.4046	0.001680	51431.7	4.268395	172.328	330.387	1.159829	0.091492	0.091101	333.816	51431.7	0.086624	0.238210	1401.35	96277.4
454	2.000000	1.162241	7.3695e+06	-54389.1	1005.82	-29743.8	0.000000	0.000000	7.176587	341.399	NaN	0.000000	0.001556	0.001796	28.0822	90.8931	0.001795	50644	5.233433	170.61	338.371	1.162066	0.093513	0.093339	341.399	50644	0.088457	0.247170	1381.23	93068.6
454	2.000000	1.164306	7.3695e+06	-54389.1	1005.82	-29743.8	0.000000	0.000000	7.179400	359.574	NaN	0.000000	0.001547	0.001752	28.0827	91.4376	0.001719	53193.7	5.056502	170.528	360.894	1.163926	0.095579	0.095198	359.574	53193.7	0.090509	0.257380	1397.06	95795.8
454	2.000000	1.166266	7.3695e+06	-54389.1	1005.82	-29743.8	0.000000	0.000000	7.181976	374.548	NaN	0.000000	0.001575	0.001752	28.0824	95.2407	0.001654	57589.7	6.458708	168.687	373.673	1.165920	0.097539	0.097192	374.548	57589.7	0.092661	0.268297	1396.02	101580
454	2.000000	1.168556	7.3695e+06	-54389.1	1005.82	-29743.8	0.000000	0.000000	7.184913	390.265	NaN	0.000000	0.001569	0.001779	28.0826	99.1562	0.001883	52665.4	13.0004	164.865	401.783	1.167756	0.099829	0.099029	390.265	52665.4	0.094271	0.276603	1410.92	91489.2
454	2.000000	1.170005	7.3695e+06	-54389.1	1005.82	-29743.8	0.000000	0.000000	7.186508	393.809	NaN	0.000000	0.001564	0.001785	28.0825	98.7212	0.001756	56213.8	1.782343	173.267	378.892	1.169713	0.101278	0.100986	393.809	56213.8	0.096024	0.285781	1378.01	96072.6
454	2.000000	1.172185	7.3695e+06	-54389.1	1005.82	-29743.8	0.000000	0.000000	7.189502	413.611	NaN	0.000000	0.001555	0.001803	28.0838	102.315	0.001758	58195.2	1.911239	173.038	406.94	1.172011	0.103458	0.103284	413.611	58195.2	0.098127	0.296980	1392.72	97565.7
454	2.000000	1.174186	7.3695e+06	-54389.1	1005.82	-29743.8	0.000000	0.000000	7.192487	437.545	NaN	0.000000	0.001538	0.001795	28.084	103.359	0.001801	57385.9	4.931884	169.946	433.636	1.173989	0.105459	0.105262	437.545	57385.9	0.099740	0.305702	1431.28	94826.3
454	2.000000	1.176215	7.3695e+06	-54389.1	1005.82	-29743.8	0.000000	0.000000	7.195358	457.984	NaN	0.000000	0.001571	0.001792	28.0837	106.112	0.001765	60134	5.991082	168.841	454.219	1.175845	0.107488	0.107118	457.984	60134	0.101776	0.316883	1445.28	97598.8
454	2.000000	1.178281	7.3695e+06	-54389.1	1005.82	-29743.8	0.000000	0.000000	7.197867	468.764	NaN	0.000000	0.001567	0.001767	28.0839	108.815	0.001748	62255.9	7.510207	167.747	468.494	1.177905	0.109554	0.109178	468.764	62255.9	0.103906	0.328782	1425.76	99197.2
454	2.000000	1.180413	7.3695e+06	-54389.1	1005.82	-29743.8	0.000000	0.000000	7.200460	479.998	NaN	0.000000	0.001590	0.001755	28.0835	111.054	0.001805	61524.3	5.496290	169.062	487.642	1.180067	0.111685	0.111339	479.998	61524.3	0.105834	0.339727	1412.89	96439.5
454	2.000000	1.180683	7.3695e+06	-54389.1	1005.82	-29743.8	0.000000	0.000000	7.200911	484.374	NaN	0.000000	0.001568	0.001767	28.0836	110.113	0.001729	63696.9	2.451404	-8.473296	477.327	1.180502	0.111956	0.111775	484.374	63696.9	0.106253	0.342126	1415.78	99494.3