File: remote_trans/data/nanoindenter/0828-1/data/Data_2025-08-06,11h17m57s/2025-07-22_16-23-58_1_228.txt
2025-07-22, 16:23:58, 1
Index	Phase	Displacement	Time	Pos X	Pos Y	Pos Z	Rot A	Rot B	Piezo Z	Force A	Force B	Gripper	Voltage A	Voltage B	Temperature	Amplitude force	Amplitude pos	Stiffness	Phase shift	Phase excitation	Force A raw	Displacement raw	HMax	HMax raw	Real Force	Real Stiffness	Contact Depth	Area	Hardness	Reduced Mod.
[#]	[#]	[um]	[s]	[um]	[um]	[um]	[m°]	[m°]	[um]	[uN]	[uN]	[V]	[V]	[V]	[°C]	[uN]	[um]	[N/m]	[°]	[°]	[uN]	[um]	[um]	[um]	[uN]	[N/m]	[um]	[um^2]	[MPa]	[MPa]
228	1.000000	0.002528	7.36728e+06	-50039.1	955.818	-29757.4	0.000000	0.000000	6.002800	0.051947	NaN	0.000000	0.001591	0.001671	28.0778	0.118206	0.000955	123.759	81.2635	-165.193	-0.000850	0.001302	-1.057613	-1.058838	0.051947	123.759	-1.057928	-1.364504E+14	-3.807023E-16	NaN
228	1.000000	0.010521	7.36728e+06	-50039.1	955.819	-29757.4	0.000000	0.000000	6.010793	0.035523	NaN	0.000000	0.001591	0.001654	28.0775	0.077610	0.001112	69.821	117.323	-164.766	-0.065955	0.009173	-1.049620	-1.050967	0.035523	69.821	-1.050001	-1.067650E+14	-3.327258E-16	NaN
228	1.000000	0.018478	7.36728e+06	-50039.1	955.818	-29757.4	0.000000	0.000000	6.018747	-0.024384	NaN	0.000000	0.001573	0.001663	28.0778	0.037212	0.001713	21.7177	-85.2538	-165.281	0.011167	0.017158	-1.041663	-1.042983	-0.024384	21.7177	-1.040821	-8.035302E+13	3.034631E-16	NaN
228	1.000000	0.026513	7.36728e+06	-50039.1	955.819	-29757.4	0.000000	0.000000	6.026784	0.021245	NaN	0.000000	0.001600	0.001662	28.0776	0.055011	0.001814	30.3189	-176.812	-167.692	-0.003064	0.025146	-1.033628	-1.034994	0.021245	30.3189	-1.034153	-6.536402E+13	-3.250194E-16	NaN
228	1.000000	0.034451	7.36728e+06	-50039.1	955.819	-29757.4	0.000000	0.000000	6.034722	0.022531	NaN	0.000000	0.001592	0.001662	28.0776	0.089797	0.001956	45.9047	-20.8168	-165.039	-0.070319	0.033164	-1.025689	-1.026977	0.022531	45.9047	-1.026057	-5.086822E+13	-4.429365E-16	NaN
228	1.000000	0.042483	7.36728e+06	-50039.1	955.818	-29757.4	0.000000	0.000000	6.042755	0.043403	NaN	0.000000	0.001574	0.001676	28.078	0.071160	0.002067	34.4344	45.4829	-164.462	0.011481	0.041162	-1.017657	-1.018978	0.043403	34.4344	-1.018603	-4.037871E+13	-1.074904E-15	NaN
228	1.000000	0.050484	7.36728e+06	-50039.1	955.818	-29757.4	0.000000	0.000000	6.050754	0.005751	NaN	0.000000	0.001566	0.001655	28.078	0.054205	0.001745	31.064	-149.117	-162.937	-0.046211	0.049144	-1.009657	-1.010997	0.005751	31.064	-1.009795	-3.073474E+13	-1.871049E-16	NaN
228	1.000000	0.058491	7.36728e+06	-50039.1	955.817	-29757.4	0.000000	0.000000	6.058758	-0.082719	NaN	0.000000	0.001589	0.001693	28.0777	0.071843	0.001862	38.579	6.049959	-162.019	-0.105065	0.057139	-1.001649	-1.003002	-0.082719	38.579	-1.000041	-2.271557E+13	3.641493E-15	NaN
228	1.000000	0.066475	7.36728e+06	-50039.1	955.819	-29757.4	0.000000	0.000000	6.066742	-0.071996	NaN	0.000000	0.001566	0.001627	28.0778	0.073217	0.002030	36.072	-20.6481	-165.017	-0.056041	0.065189	-0.993666	-0.994952	-0.071996	36.072	-0.992169	-1.779581E+13	4.045655E-15	NaN
228	1.000000	0.074483	7.36728e+06	-50039.1	955.82	-29757.4	0.000000	0.000000	6.074750	-0.079615	NaN	0.000000	0.001592	0.001640	28.0778	0.035935	0.002152	16.7012	147.503	-167.093	-0.055735	0.073238	-0.985657	-0.986903	-0.079615	16.7012	-0.982082	-1.301552E+13	6.116933E-15	NaN
228	1.000000	0.082512	7.36728e+06	-50039.1	955.819	-29757.4	0.000000	0.000000	6.082781	-0.042447	NaN	0.000000	0.001627	0.001677	28.0777	0.068521	0.001937	35.3785	-33.802	-167.126	-0.113661	0.081174	-0.977628	-0.978967	-0.042447	35.3785	-0.976729	-1.102386E+13	3.850471E-15	NaN
228	1.000000	0.090518	7.36728e+06	-50039.1	955.818	-29757.4	0.000000	0.000000	6.090788	0.003460	NaN	0.000000	0.001641	0.001675	28.0774	0.044463	0.001994	22.2986	12.8247	-165.521	0.001521	0.089216	-0.969623	-0.970925	0.003460	22.2986	-0.969739	-8.874531E+12	-3.898631E-16	NaN
228	1.000000	0.098513	7.36728e+06	-50039.1	955.819	-29757.4	0.000000	0.000000	6.098783	0.006436	NaN	0.000000	0.001661	0.001672	28.0783	0.049075	0.002023	24.2645	68.1114	-163.733	-0.020366	0.097210	-0.961628	-0.962930	0.006436	24.2645	-0.961827	-6.942176E+12	-9.270767E-16	NaN
228	1.000000	0.106525	7.36728e+06	-50039.1	955.819	-29757.4	0.000000	0.000000	6.106796	0.019075	NaN	0.000000	0.001650	0.001704	28.0788	0.074549	0.001930	38.6249	110.64	-166.409	0.026837	0.105176	-0.953615	-0.954965	0.019075	38.6249	-0.953986	-5.442256E+12	-3.504938E-15	NaN
228	1.000000	0.114516	7.36728e+06	-50039.1	955.819	-29757.4	0.000000	0.000000	6.114787	0.035783	NaN	0.000000	0.001675	0.001659	28.079	0.036645	0.001971	18.5911	-159.763	-163.322	-0.022349	0.113188	-0.945625	-0.946953	0.035783	18.5911	-0.947069	-4.390262E+12	-8.150599E-15	NaN
228	1.000000	0.122514	7.36728e+06	-50039.1	955.819	-29757.4	0.000000	0.000000	6.122785	0.010594	NaN	0.000000	0.001646	0.001670	28.0789	0.064780	0.002080	31.1511	64.8973	-164.918	-0.039806	0.121165	-0.937627	-0.938976	0.010594	31.1511	-0.937882	-3.300328E+12	-3.209856E-15	NaN
228	1.000000	0.130519	7.36728e+06	-50039.1	955.818	-29757.4	0.000000	0.000000	6.130790	0.021170	NaN	0.000000	0.001655	0.001660	28.0788	0.097587	0.002050	47.6097	72.328	-163.858	-0.104802	0.129235	-0.929621	-0.930906	0.021170	47.6097	-0.929955	-2.579821E+12	-8.206049E-15	NaN
228	1.000000	0.138520	7.36728e+06	-50039.1	955.818	-29757.4	0.000000	0.000000	6.138791	0.035016	NaN	0.000000	0.001641	0.001674	28.0787	0.138104	0.002047	67.4728	103.706	-165.707	-0.054282	0.137200	-0.921621	-0.922940	0.035016	67.4728	-0.922010	-2.015339E+12	-1.737449E-14	NaN
228	1.000000	0.146544	7.36728e+06	-50039.1	955.818	-29757.4	0.000000	0.000000	6.146814	-0.014135	NaN	0.000000	0.001666	0.001690	28.0789	0.086692	0.002058	42.1235	-123.457	-166.455	0.040421	0.145200	-0.913597	-0.914941	-0.014135	42.1235	-0.913345	-1.539365E+12	9.182675E-15	NaN
228	1.000000	0.154558	7.36728e+06	-50039.1	955.818	-29757.4	0.000000	0.000000	6.154828	0.012679	NaN	0.000000	0.001650	0.001679	28.0792	0.091594	0.001947	47.0556	49.6849	-166.02	0.096002	0.153203	-0.905583	-0.906938	0.012679	47.0556	-0.905785	-1.216821E+12	-1.042001E-14	NaN
228	1.000000	0.162519	7.36728e+06	-50039.1	955.818	-29757.4	0.000000	0.000000	6.162791	0.054822	NaN	0.000000	0.001610	0.001674	28.0791	0.100047	0.002049	48.8243	23.0235	-166.723	0.019935	0.161246	-0.897622	-0.898895	0.054822	48.8243	-0.898464	-9.689693E+11	-5.657742E-14	NaN
228	1.000000	0.170527	7.36728e+06	-50039.1	955.818	-29757.4	0.000000	0.000000	6.170799	0.043904	NaN	0.000000	0.001645	0.001674	28.079	0.041643	0.001980	21.0289	-59.8407	-167.355	0.088085	0.169207	-0.889614	-0.890934	0.043904	21.0289	-0.891179	-7.724290E+11	-5.683825E-14	NaN
228	1.000000	0.178529	7.36728e+06	-50039.1	955.819	-29757.4	0.000000	0.000000	6.178797	-0.032613	NaN	0.000000	0.001631	0.001654	28.0788	0.086906	0.001929	45.0421	84.4175	-162.243	0.026111	0.177256	-0.881612	-0.882884	-0.032613	45.0421	-0.881069	-5.638524E+11	5.783908E-14	NaN
228	1.000000	0.186536	7.36728e+06	-50039.1	955.818	-29757.4	0.000000	0.000000	6.186806	0.008538	NaN	0.000000	0.001611	0.001691	28.079	0.027660	0.002062	13.4152	-130.728	-167.416	-0.003203	0.185225	-0.873605	-0.874916	0.008538	13.4152	-0.874082	-4.535967E+11	-1.882236E-14	NaN
228	1.000000	0.194522	7.36728e+06	-50039.1	955.819	-29757.4	0.000000	0.000000	6.194791	-0.034601	NaN	0.000000	0.001605	0.001664	28.0788	0.043434	0.002044	21.2468	-104.956	-168.909	0.012202	0.193256	-0.865618	-0.866885	-0.034601	21.2468	-0.864397	-3.354510E+11	1.031476E-13	NaN
228	1.000000	0.202522	7.36728e+06	-50039.1	955.818	-29757.4	0.000000	0.000000	6.202793	0.020729	NaN	0.000000	0.001629	0.001680	28.0789	0.039915	0.002078	19.2087	-159.562	-165.735	0.060325	0.201253	-0.857619	-0.858888	0.020729	19.2087	-0.858428	-2.785104E+11	-7.442735E-14	NaN
228	1.000000	0.210492	7.36728e+06	-50039.1	955.818	-29757.4	0.000000	0.000000	6.210762	0.019557	NaN	0.000000	0.001595	0.001673	28.079	0.080870	0.002083	38.8185	64.6818	-168.4	0.008843	0.209224	-0.849649	-0.850917	0.019557	38.8185	-0.850027	-2.143408E+11	-9.124033E-14	NaN
228	1.000000	0.218552	7.36728e+06	-50039.1	955.818	-29757.4	0.000000	0.000000	6.218822	-0.016008	NaN	0.000000	0.001600	0.001653	28.0788	0.053905	0.001966	27.4174	56.2208	-166.524	0.035272	0.217232	-0.841588	-0.842909	-0.016008	27.4174	-0.841150	-1.625090E+11	9.850825E-14	NaN
228	1.000000	0.226541	7.36728e+06	-50039.1	955.818	-29757.4	0.000000	0.000000	6.226814	0.070516	NaN	0.000000	0.001609	0.001672	28.0789	0.033092	0.001909	17.3346	134.171	-167.365	0.001597	0.225258	-0.833600	-0.834883	0.070516	17.3346	-0.836651	-1.412279E+11	-4.993060E-13	NaN
228	1.000000	0.234537	7.36728e+06	-50039.1	955.818	-29757.4	0.000000	0.000000	6.234807	0.005736	NaN	0.000000	0.001543	0.001653	28.0783	0.094021	0.002050	45.8711	-108.445	-164.48	-0.028242	0.233219	-0.825604	-0.826922	0.005736	45.8711	-0.825698	-1.003388E+11	-5.716200E-14	NaN
228	1.000000	0.242545	7.36728e+06	-50039.1	955.819	-29757.4	0.000000	0.000000	6.242816	0.029829	NaN	0.000000	0.001517	0.001634	28.0778	0.110373	0.001965	56.1799	-22.5621	-165.089	-0.050156	0.241244	-0.817596	-0.818897	0.029829	56.1799	-0.817994	-7.888700E+10	-3.781169E-13	NaN
228	1.000000	0.250551	7.36728e+06	-50039.1	955.819	-29757.4	0.000000	0.000000	6.250822	0.007463	NaN	0.000000	0.001558	0.001671	28.0776	0.013623	0.002113	6.447103	106.343	-165.179	-0.066382	0.249265	-0.809589	-0.810876	0.007463	6.447103	-0.810458	-6.234171E+10	-1.197090E-13	NaN
228	1.000000	0.258592	7.36728e+06	-50039.1	955.818	-29757.4	0.000000	0.000000	6.258864	0.051362	NaN	0.000000	0.001504	0.001685	28.0777	0.022642	0.002044	11.0765	31.181	-164.955	0.040943	0.257253	-0.801549	-0.802888	0.051362	11.0765	-0.805026	-5.261166E+10	-9.762424E-13	NaN
228	1.000000	0.266568	7.36728e+06	-50039.1	955.819	-29757.4	0.000000	0.000000	6.266840	0.035079	NaN	0.000000	0.001541	0.001686	28.0777	0.046257	0.002013	22.9761	121.454	-164.461	0.021231	0.265279	-0.793572	-0.794861	0.035079	22.9761	-0.794717	-3.811941E+10	-9.202375E-13	NaN
228	1.000000	0.274575	7.36728e+06	-50039.1	955.818	-29757.4	0.000000	0.000000	6.274844	-0.035477	NaN	0.000000	0.001533	0.001648	28.0778	0.115161	0.001933	59.5916	13.0775	-164.304	-0.008956	0.273241	-0.785566	-0.786900	-0.035477	59.5916	-0.785119	-2.823486E+10	1.256488E-12	NaN
228	1.000000	0.282561	7.36728e+06	-50039.1	955.818	-29757.4	0.000000	0.000000	6.282835	0.097810	NaN	0.000000	0.001553	0.001720	28.0784	0.062494	0.001949	32.0705	110.975	-166.295	0.098891	0.281287	-0.777580	-0.778854	0.097810	32.0705	-0.779867	-2.395671E+10	-4.082766E-12	NaN
228	1.000000	0.290571	7.36728e+06	-50039.1	955.818	-29757.4	0.000000	0.000000	6.290843	0.056701	NaN	0.000000	0.001565	0.001711	28.0776	0.105999	0.001924	55.0869	-94.415	-165.623	-0.005979	0.289283	-0.769570	-0.770857	0.056701	55.0869	-0.770342	-1.778098E+10	-3.188854E-12	NaN
228	1.000000	0.298579	7.36728e+06	-50039.1	955.818	-29757.4	0.000000	0.000000	6.298847	-0.044869	NaN	0.000000	0.001544	0.001707	28.0773	0.123637	0.002070	59.7241	-91.7914	-166.569	-0.082206	0.297244	-0.761562	-0.762897	-0.044869	59.7241	-0.760998	-1.327037E+10	3.381133E-12	NaN
228	1.000000	0.306590	7.36728e+06	-50039.1	955.818	-29757.4	0.000000	0.000000	6.306858	-0.040471	NaN	0.000000	0.001531	0.001713	28.0777	0.081209	0.002010	40.3965	95.5083	-165.263	0.003837	0.305292	-0.753551	-0.754849	-0.040471	40.3965	-0.752800	-1.026430E+10	3.942913E-12	NaN
228	1.000000	0.314571	7.36728e+06	-50039.1	955.818	-29757.4	0.000000	0.000000	6.314841	-0.008600	NaN	0.000000	0.001521	0.001720	28.0778	0.059262	0.001933	30.6614	-159.661	-165.108	-0.008597	0.313325	-0.745570	-0.746816	-0.008600	30.6614	-0.745359	-8.129031E+9	1.057934E-12	NaN
228	1.000000	0.322585	7.36728e+06	-50039.1	955.819	-29757.4	0.000000	0.000000	6.322856	-0.000239	NaN	0.000000	0.001558	0.001689	28.0777	0.097318	0.001947	49.9712	27.8909	-168.493	0.050962	0.321258	-0.737555	-0.738883	-0.000239	49.9712	-0.737552	-6.363663E+9	3.755617E-14	NaN
228	1.000000	0.330614	7.36728e+06	-50039.1	955.818	-29757.4	0.000000	0.000000	6.330884	0.005536	NaN	0.000000	0.001550	0.001707	28.0778	0.037855	0.001946	19.4532	107.528	-170.032	0.044227	0.329298	-0.729527	-0.730843	0.005536	19.4532	-0.729741	-4.980497E+9	-1.111601E-12	NaN
228	1.000000	0.338597	7.36728e+06	-50039.1	955.818	-29757.4	0.000000	0.000000	6.338866	-0.035136	NaN	0.000000	0.001540	0.001710	28.0775	0.043451	0.002044	21.2531	165.157	-166.129	0.058087	0.337286	-0.721544	-0.722855	-0.035136	21.2531	-0.720304	-3.703552E+9	9.487024E-12	NaN
228	1.000000	0.346615	7.36728e+06	-50039.1	955.819	-29757.4	0.000000	0.000000	6.346885	-0.013518	NaN	0.000000	0.001529	0.001726	28.0776	0.095538	0.001886	50.6611	-90.5173	-164.284	0.050605	0.345303	-0.713526	-0.714838	-0.013518	50.6611	-0.713326	-2.974602E+9	4.544622E-12	NaN
228	1.000000	0.354585	7.36728e+06	-50039.1	955.819	-29757.4	0.000000	0.000000	6.354858	0.077375	NaN	0.000000	0.001572	0.001698	28.0775	0.061313	0.001927	31.8106	161.391	-165.662	0.128958	0.353258	-0.705556	-0.706882	0.077375	31.8106	-0.707380	-2.467705E+9	-3.135504E-11	NaN
228	1.000000	0.362604	7.36728e+06	-50039.1	955.818	-29757.4	0.000000	0.000000	6.362872	-0.047115	NaN	0.000000	0.001575	0.001701	28.0777	0.011576	0.001938	5.973320	164.198	-166.94	-0.091257	0.361326	-0.697537	-0.698815	-0.047115	5.973320	-0.691621	-1.503393E+9	3.133926E-11	NaN
228	1.000000	0.370629	7.36728e+06	-50039.1	955.819	-29757.4	0.000000	0.000000	6.370898	-0.020047	NaN	0.000000	0.001569	0.001727	28.078	0.071029	0.001936	36.6902	141.678	-166.343	-0.027418	0.369314	-0.689512	-0.690827	-0.020047	36.6902	-0.689102	-1.388808E+9	1.443477E-11	NaN
228	1.000000	0.378635	7.36728e+06	-50039.1	955.817	-29757.4	0.000000	0.000000	6.378905	-0.008638	NaN	0.000000	0.001557	0.001707	28.0785	0.022058	0.001902	11.6004	60.5073	-164.101	-0.007993	0.377328	-0.681506	-0.682813	-0.008638	11.6004	-0.680947	-1.074385E+9	8.040116E-12	NaN
228	1.000000	0.386630	7.36728e+06	-50039.1	955.818	-29757.4	0.000000	0.000000	6.386900	-0.013643	NaN	0.000000	0.001597	0.001675	28.0782	0.171343	0.002003	85.538	175.748	-166.982	-0.022512	0.385353	-0.673511	-0.674788	-0.013643	85.538	-0.673391	-8.468317E+8	1.611119E-11	NaN
228	1.000000	0.394645	7.36728e+06	-50039.1	955.818	-29757.4	0.000000	0.000000	6.394914	-0.023149	NaN	0.000000	0.001615	0.001682	28.0784	0.067186	0.001946	34.5258	-50.6739	-166.996	-0.031510	0.393343	-0.665496	-0.666798	-0.023149	34.5258	-0.664993	-6.498969E+8	3.562005E-11	NaN
228	1.000000	0.402637	7.36728e+06	-50039.1	955.819	-29757.4	0.000000	0.000000	6.402909	0.028728	NaN	0.000000	0.001631	0.001711	28.0784	0.023793	0.002001	11.8911	15.4169	-165.664	-0.055664	0.401289	-0.657503	-0.658852	0.028728	11.8911	-0.659315	-5.433646E+8	-5.287017E-11	NaN
228	1.000000	0.410651	7.36728e+06	-50039.1	955.819	-29757.4	0.000000	0.000000	6.410921	-0.003715	NaN	0.000000	0.001632	0.001668	28.0785	0.077530	0.002169	35.7529	23.5481	-163.846	0.070740	0.409331	-0.649489	-0.650810	-0.003715	35.7529	-0.649412	-3.975296E+8	9.345337E-12	NaN
228	1.000000	0.418644	7.36728e+06	-50039.1	955.818	-29757.4	0.000000	0.000000	6.418912	-0.034232	NaN	0.000000	0.001642	0.001675	28.0786	0.107351	0.002141	50.1422	155.614	-162.865	-0.069497	0.417318	-0.641497	-0.642823	-0.034232	50.1422	-0.640985	-3.046528E+8	1.123646E-10	NaN
228	1.000000	0.426596	7.36728e+06	-50039.1	955.819	-29757.4	0.000000	0.000000	6.426868	0.045382	NaN	0.000000	0.001589	0.001683	28.0785	0.056456	0.001910	29.5545	108.066	-172.205	0.043235	0.425378	-0.633545	-0.634763	0.045382	29.5545	-0.634697	-2.497513E+8	-1.817087E-10	NaN
228	1.000000	0.434633	7.36728e+06	-50039.1	955.819	-29757.4	0.000000	0.000000	6.434904	0.011563	NaN	0.000000	0.001612	0.001684	28.0784	0.027140	0.002043	13.2829	-150.419	-165.032	0.031016	0.433335	-0.625508	-0.626805	0.011563	13.2829	-0.626161	-1.906736E+8	-6.064503E-11	NaN
228	1.000000	0.442666	7.36728e+06	-50039.1	955.818	-29757.4	0.000000	0.000000	6.442934	-0.034103	NaN	0.000000	0.001616	0.001675	28.0785	0.029755	0.002086	14.2609	134.932	-167.775	-0.006708	0.441319	-0.617475	-0.618822	-0.034103	14.2609	-0.615682	-1.368555E+8	2.491885E-10	NaN
228	1.000000	0.450650	7.36728e+06	-50039.1	955.818	-29757.4	0.000000	0.000000	6.450920	-0.005001	NaN	0.000000	0.001631	0.001673	28.0782	0.058199	0.002080	27.9846	-117.308	-163.957	-0.010990	0.449328	-0.609491	-0.610813	-0.005001	27.9846	-0.609357	-1.120111E+8	4.464732E-11	NaN
228	1.000000	0.458664	7.36728e+06	-50039.1	955.819	-29757.4	0.000000	0.000000	6.458934	-0.002478	NaN	0.000000	0.001623	0.001691	28.0788	0.049917	0.001878	26.5867	146.932	-161.838	0.023270	0.457311	-0.601477	-0.602829	-0.002478	26.5867	-0.601407	-8.706258E+7	2.846729E-11	NaN
228	1.000000	0.466666	7.36728e+06	-50039.1	955.818	-29757.4	0.000000	0.000000	6.466939	0.054904	NaN	0.000000	0.001600	0.001653	28.0788	0.062396	0.002001	31.1802	153.741	-160.787	0.059839	0.465289	-0.593474	-0.594852	0.054904	31.1802	-0.594795	-7.059229E+7	-7.777609E-10	NaN
228	1.000000	0.474690	7.36728e+06	-50039.1	955.818	-29757.4	0.000000	0.000000	6.474960	0.017185	NaN	0.000000	0.001581	0.001717	28.0785	0.011579	0.002118	5.467075	29.1942	-163.907	0.019710	0.473362	-0.585451	-0.586779	0.017185	5.467075	-0.587809	-5.655245E+7	-3.038814E-10	NaN
228	1.000000	0.482658	7.36728e+06	-50039.1	955.818	-29757.4	0.000000	0.000000	6.482930	0.040389	NaN	0.000000	0.001602	0.001690	28.0783	0.057078	0.002024	28.203	32.2803	-165.181	0.089535	0.481317	-0.577482	-0.578824	0.040389	28.203	-0.578557	-4.215041E+7	-9.582176E-10	NaN
228	1.000000	0.490663	7.36728e+06	-50039.1	955.818	-29757.4	0.000000	0.000000	6.490935	0.050639	NaN	0.000000	0.001607	0.001675	28.0783	0.063118	0.001847	34.1779	-47.5959	-168.126	-0.010516	0.489364	-0.569478	-0.570777	0.050639	34.1779	-0.570589	-3.271671E+7	-1.547803E-9	NaN
228	1.000000	0.498667	7.36728e+06	-50039.1	955.818	-29757.4	0.000000	0.000000	6.498936	-0.023373	NaN	0.000000	0.001602	0.001660	28.0783	0.094527	0.002060	45.8958	34.002	-167.018	-0.011861	0.497383	-0.561474	-0.562757	-0.023373	45.8958	-0.561092	-2.418136E+7	9.665811E-10	NaN
228	1.000000	0.506680	7.36728e+06	-50039.1	955.819	-29757.4	0.000000	0.000000	6.506947	-0.071706	NaN	0.000000	0.001588	0.001662	28.0785	0.059256	0.001877	31.5742	101.537	-163.348	-0.056975	0.505356	-0.553461	-0.554785	-0.071706	31.5742	-0.551758	-1.795968E+7	3.992625E-9	NaN
228	1.000000	0.514658	7.36728e+06	-50039.1	955.818	-29757.4	0.000000	0.000000	6.514929	0.012533	NaN	0.000000	0.001554	0.001690	28.0776	0.049079	0.001896	25.8839	-33.1541	-163.612	-0.066371	0.513368	-0.545482	-0.546773	0.012533	25.8839	-0.545845	-1.487295E+7	-8.426461E-10	NaN
228	1.000000	0.522695	7.36728e+06	-50039.1	955.818	-29757.4	0.000000	0.000000	6.522961	-0.094551	NaN	0.000000	0.001551	0.001674	28.077	0.014140	0.002131	6.635337	-36.2464	-166.223	-0.108092	0.521333	-0.537446	-0.538807	-0.094551	6.635337	-0.526758	-8.08252e+06	1.169822E-8	NaN
228	1.000000	0.530679	7.36728e+06	-50039.1	955.819	-29757.4	0.000000	0.000000	6.530950	0.022472	NaN	0.000000	0.001568	0.001691	28.0771	0.044248	0.001963	22.5419	-148.064	-164.088	0.005837	0.529412	-0.529462	-0.530729	0.022472	22.5419	-0.530209	-9.02569e+06	-2.489730E-9	NaN
228	1.000000	0.538687	7.36728e+06	-50039.1	955.819	-29757.4	0.000000	0.000000	6.538956	-0.032266	NaN	0.000000	0.001541	0.001695	28.0772	0.092619	0.001931	47.9554	-45.4896	-167.608	0.003990	0.537364	-0.521454	-0.522777	-0.032266	47.9554	-0.520949	-6.71118e+06	4.807824E-9	NaN
228	1.000000	0.546699	7.36728e+06	-50039.1	955.818	-29757.4	0.000000	0.000000	6.546967	-0.047034	NaN	0.000000	0.001556	0.001685	28.0772	0.043176	0.002010	21.4799	172.928	-169.359	0.017633	0.545378	-0.513442	-0.514762	-0.047034	21.4799	-0.511799	-5.0058e+06	9.395973E-9	NaN
228	1.000000	0.554706	7.36728e+06	-50039.1	955.818	-29757.4	0.000000	0.000000	6.554975	-0.012651	NaN	0.000000	0.001533	0.001670	28.0773	0.022739	0.001907	11.9214	-125.595	-165.967	0.039349	0.553424	-0.505435	-0.506717	-0.012651	11.9214	-0.504639	-3.97843e+06	3.180007E-9	NaN
228	1.000000	0.562681	7.36728e+06	-50039.1	955.819	-29757.4	0.000000	0.000000	6.562949	-0.050668	NaN	0.000000	0.001571	0.001690	28.0771	0.045534	0.001874	24.2979	-8.612495	-166.613	-0.132384	0.561373	-0.497460	-0.498768	-0.050668	24.2979	-0.495896	-3.00432e+06	1.686499E-8	NaN
228	1.000000	0.570734	7.36728e+06	-50039.1	955.819	-29757.4	0.000000	0.000000	6.571004	0.006204	NaN	0.000000	0.001570	0.001680	28.0773	0.022492	0.002200	10.2254	-120.848	-163.803	-0.025133	0.569349	-0.489407	-0.490791	0.006204	10.2254	-0.489862	-2.47438e+06	-2.507490E-9	NaN
228	1.000000	0.578694	7.36728e+06	-50039.1	955.818	-29757.4	0.000000	0.000000	6.578965	0.039964	NaN	0.000000	0.001537	0.001701	28.0771	0.118150	0.001909	61.8973	107.624	-165.645	-0.010787	0.577400	-0.481447	-0.482741	0.039964	61.8973	-0.481931	-1.91672e+06	-2.085042E-8	NaN
228	1.000000	0.586733	7.36728e+06	-50039.1	955.818	-29757.4	0.000000	0.000000	6.587003	0.004710	NaN	0.000000	0.001577	0.001728	28.0771	0.139006	0.002186	63.6006	-162.814	-162.436	0.016620	0.585409	-0.473408	-0.474731	0.004710	63.6006	-0.473463	-1.45869e+06	-3.229144E-9	NaN
228	1.000000	0.594725	7.36728e+06	-50039.1	955.818	-29757.4	0.000000	0.000000	6.594995	0.002932	NaN	0.000000	0.001560	0.001681	28.077	0.058586	0.002097	27.9383	7.943514	-166.1	-0.015375	0.593396	-0.465416	-0.466744	0.002932	27.9383	-0.465494	-1.12769e+06	-2.599818E-9	NaN
228	1.000000	0.602722	7.36728e+06	-50039.1	955.818	-29757.4	0.000000	0.000000	6.602995	0.074230	NaN	0.000000	0.001556	0.001693	28.0773	0.138229	0.001892	73.0415	72.4811	-168.036	-0.066441	0.601454	-0.457419	-0.458687	0.074230	73.0415	-0.458181	-890129	-8.339292E-8	NaN
228	1.000000	0.610717	7.36728e+06	-50039.1	955.818	-29757.4	0.000000	0.000000	6.610986	-0.021018	NaN	0.000000	0.001578	0.001664	28.0771	0.076000	0.001935	39.2847	1.335372	-163.833	-0.018012	0.609380	-0.449424	-0.450760	-0.021018	39.2847	-0.449023	-661575	3.176920E-8	NaN
228	1.000000	0.618725	7.36728e+06	-50039.1	955.819	-29757.4	0.000000	0.000000	6.618998	0.063124	NaN	0.000000	0.001580	0.001702	28.0772	0.055396	0.001889	29.3302	-7.343556	-163.836	0.024706	0.617469	-0.441415	-0.442672	0.063124	29.3302	-0.443030	-544638	-1.159015E-7	NaN
228	1.000000	0.626741	7.36728e+06	-50039.1	955.819	-29757.4	0.000000	0.000000	6.627013	0.049398	NaN	0.000000	0.001574	0.001675	28.0775	0.084211	0.002093	40.2331	-175.586	-169.273	-0.038735	0.625429	-0.433399	-0.434712	0.049398	40.2331	-0.434320	-410345	-1.203819E-7	NaN
228	1.000000	0.634746	7.36728e+06	-50039.1	955.819	-29757.4	0.000000	0.000000	6.635018	0.040601	NaN	0.000000	0.001591	0.001689	28.0771	0.060660	0.002149	28.223	-157.753	-165.786	0.077257	0.633423	-0.425394	-0.426717	0.040601	28.223	-0.426473	-317795	-1.277583E-7	NaN
228	1.000000	0.642720	7.36728e+06	-50039.1	955.818	-29757.4	0.000000	0.000000	6.642989	-0.024011	NaN	0.000000	0.001561	0.001679	28.0775	0.049187	0.001857	26.493	-67.3291	-167.623	4.115799E-5	0.641368	-0.417421	-0.418773	-0.024011	26.493	-0.416741	-231298	1.038078E-7	NaN
228	1.000000	0.650737	7.36728e+06	-50039.1	955.819	-29757.4	0.000000	0.000000	6.651008	0.022873	NaN	0.000000	0.001565	0.001689	28.0785	0.017505	0.002002	8.743186	-69.0217	-166.935	-0.040083	0.649409	-0.409403	-0.410732	0.022873	8.743186	-0.411365	-194006	-1.179001E-7	NaN
228	1.000000	0.658754	7.36728e+06	-50039.1	955.818	-29757.4	0.000000	0.000000	6.659022	-0.034247	NaN	0.000000	0.001562	0.001682	28.0786	0.060252	0.001972	30.5495	-163.529	-166.321	0.001828	0.657450	-0.401387	-0.402691	-0.034247	30.5495	-0.400546	-136076	2.516750E-7	NaN
228	1.000000	0.666746	7.36728e+06	-50039.1	955.818	-29757.4	0.000000	0.000000	6.667015	-0.018870	NaN	0.000000	0.001581	0.001707	28.0785	0.107895	0.001891	57.0628	-95.1867	-161.394	0.056646	0.665491	-0.393395	-0.394650	-0.018870	57.0628	-0.393147	-106699	1.768559E-7	NaN
228	1.000000	0.674721	7.36728e+06	-50039.1	955.817	-29757.4	0.000000	0.000000	6.674987	-0.085840	NaN	0.000000	0.001540	0.001699	28.0784	0.043139	0.001862	23.1627	39.9355	-165.337	-0.056037	0.673366	-0.385420	-0.386775	-0.085840	23.1627	-0.382641	-75469.2	1.137422E-6	NaN
228	1.000000	0.682745	7.36728e+06	-50039.1	955.819	-29757.4	0.000000	0.000000	6.683017	0.032143	NaN	0.000000	0.001549	0.001658	28.0783	0.117491	0.002011	58.4259	-115.307	-164.734	0.063964	0.681376	-0.377396	-0.378765	0.032143	58.4259	-0.377808	-64331.4	-4.996437E-7	NaN
228	1.000000	0.690736	7.36728e+06	-50039.1	955.819	-29757.4	0.000000	0.000000	6.691010	0.092862	NaN	0.000000	0.001550	0.001624	28.0784	0.031004	0.002071	14.9687	-71.5813	-165.397	0.005828	0.689481	-0.369405	-0.370660	0.092862	14.9687	-0.374058	-56822.8	-1.634235E-6	NaN
228	1.000000	0.698747	7.36728e+06	-50039.1	955.818	-29757.4	0.000000	0.000000	6.699017	0.002364	NaN	0.000000	0.001625	0.001672	28.0786	0.046241	0.002038	22.69	-4.106492	-166.613	0.008278	0.697443	-0.361394	-0.362697	0.002364	22.69	-0.361472	-37421.7	-6.317006E-8	NaN
228	1.000000	0.706776	7.36728e+06	-50039.1	955.819	-29757.4	0.000000	0.000000	6.707050	0.085253	NaN	0.000000	0.001629	0.001696	28.0784	0.085848	0.002004	42.8355	-162.064	-163.73	0.017874	0.705453	-0.353365	-0.354688	0.085253	42.8355	-0.354857	-30021.2	-2.839745E-6	NaN
228	1.000000	0.714767	7.36728e+06	-50039.1	955.819	-29757.4	0.000000	0.000000	6.715038	0.008616	NaN	0.000000	0.001591	0.001672	28.0786	0.040722	0.001958	20.7929	130.618	-167.151	0.060537	0.713453	-0.345374	-0.346687	0.008616	20.7929	-0.345684	-22095.8	-3.899274E-7	NaN
228	1.000000	0.722758	7.36728e+06	-50039.1	955.819	-29757.4	0.000000	0.000000	6.723032	0.099012	NaN	0.000000	0.001584	0.001658	28.0785	0.046415	0.001998	23.229	124.163	-167.681	0.007572	0.721459	-0.337383	-0.338682	0.099012	23.229	-0.340580	-18621.1	-5.317195E-6	NaN
228	1.000000	0.730782	7.36728e+06	-50039.1	955.818	-29757.4	0.000000	0.000000	6.731054	0.051092	NaN	0.000000	0.001568	0.001644	28.0784	0.095044	0.001980	48.0102	-88.095	-165.186	0.001389	0.729488	-0.329359	-0.330653	0.051092	48.0102	-0.330157	-13114.5	-3.895870E-6	NaN
228	1.000000	0.738771	7.36728e+06	-50039.1	955.818	-29757.4	0.000000	0.000000	6.739042	0.019323	NaN	0.000000	0.001572	0.001720	28.0785	0.037360	0.002002	18.6577	-24.5174	-164.025	0.020211	0.737428	-0.321370	-0.322712	0.019323	18.6577	-0.322147	-10005	-1.931334E-6	NaN
228	1.000000	0.746750	7.36728e+06	-50039.1	955.819	-29757.4	0.000000	0.000000	6.747020	-0.007087	NaN	0.000000	0.001574	0.001712	28.0783	0.057451	0.002001	28.7169	27.0511	-165.335	0.013801	0.745469	-0.313391	-0.314672	-0.007087	28.7169	-0.313206	-7386.73	9.594050E-7	NaN
228	1.000000	0.754753	7.36728e+06	-50039.1	955.818	-29757.4	0.000000	0.000000	6.755024	0.026661	NaN	0.000000	0.001573	0.001660	28.0784	0.068995	0.001919	35.9548	-100.237	-165.147	0.108415	0.753458	-0.305388	-0.306683	0.026661	35.9548	-0.305944	-5767.2	-4.622853E-6	NaN
228	1.000000	0.762774	7.36728e+06	-50039.1	955.819	-29757.4	0.000000	0.000000	6.763048	0.082129	NaN	0.000000	0.001537	0.001652	28.0786	0.115570	0.001968	58.7098	120.81	-170.477	0.023889	0.761477	-0.297367	-0.298664	0.082129	58.7098	-0.298416	-4456.99	-1.842711E-5	NaN
228	1.000000	0.770786	7.36728e+06	-50039.1	955.818	-29757.4	0.000000	0.000000	6.771059	0.075092	NaN	0.000000	0.001563	0.001667	28.0784	0.087510	0.001986	44.0547	-66.2555	-165.29	0.031062	0.769513	-0.289355	-0.290628	0.075092	44.0547	-0.290633	-3410.27	-2.201947E-5	NaN
228	1.000000	0.778796	7.36728e+06	-50039.1	955.819	-29757.4	0.000000	0.000000	6.779067	0.012349	NaN	0.000000	0.001571	0.001675	28.0788	0.035858	0.002070	17.3246	-135.89	-167.533	0.048124	0.777456	-0.281345	-0.282685	0.012349	17.3246	-0.281879	-2519.42	-4.901430E-6	NaN
228	1.000000	0.786798	7.36728e+06	-50039.1	955.817	-29757.4	0.000000	0.000000	6.787067	-0.038880	NaN	0.000000	0.001598	0.001680	28.0774	0.090079	0.002003	44.965	162.425	-165.516	-0.004064	0.785484	-0.273342	-0.274657	-0.038880	44.965	-0.272694	-1829.99	2.124606E-5	NaN
228	1.000000	0.794785	7.36728e+06	-50039.1	955.819	-29757.4	0.000000	0.000000	6.795055	0.014372	NaN	0.000000	0.001571	0.001704	28.0773	0.059814	0.001900	31.4758	-136.844	-163.8	-0.040981	0.793463	-0.265356	-0.266678	0.014372	31.4758	-0.265699	-1432.34	-1.003378E-5	NaN
228	1.000000	0.802807	7.36728e+06	-50039.1	955.818	-29757.4	0.000000	0.000000	6.803077	0.003600	NaN	0.000000	0.001561	0.001707	28.0774	0.101190	0.002111	47.9359	-71.3582	-163.225	0.020351	0.801495	-0.257334	-0.258646	0.003600	47.9359	-0.257390	-1068.75	-3.368461E-6	NaN
228	1.000000	0.810786	7.36728e+06	-50039.1	955.819	-29757.4	0.000000	0.000000	6.811055	-0.036918	NaN	0.000000	0.001562	0.001646	28.077	0.054795	0.001945	28.1753	58.1227	-166.762	-0.007021	0.809487	-0.249355	-0.250654	-0.036918	28.1753	-0.248372	-775.831	4.758500E-5	NaN
228	1.000000	0.818793	7.36728e+06	-50039.1	955.818	-29757.4	0.000000	0.000000	6.819061	-0.044699	NaN	0.000000	0.001533	0.001656	28.0774	0.056355	0.001883	29.9276	43.2379	-166.414	-0.043413	0.817481	-0.241348	-0.242660	-0.044699	29.9276	-0.240228	-579.573	7.712435E-5	NaN
228	1.000000	0.826846	7.36728e+06	-50039.1	955.818	-29757.4	0.000000	0.000000	6.827115	-0.011705	NaN	0.000000	0.001539	0.001648	28.0771	0.103522	0.002079	49.7936	41.9762	-170.187	0.019263	0.825519	-0.233295	-0.234622	-0.011705	49.7936	-0.233119	-448.41	2.610269E-5	NaN
228	1.000000	0.834817	7.36728e+06	-50039.1	955.817	-29757.4	0.000000	0.000000	6.835091	0.073113	NaN	0.000000	0.001548	0.001682	28.0772	0.095704	0.001959	48.8414	16.7808	-162.225	0.100983	0.833505	-0.225323	-0.226636	0.073113	48.8414	-0.226446	-351.789	-0.000208	NaN
228	1.000000	0.842841	7.36728e+06	-50039.1	955.818	-29757.4	0.000000	0.000000	6.843113	0.048073	NaN	0.000000	0.001546	0.001666	28.0773	0.069079	0.001963	35.1903	-124.675	-165.666	0.012642	0.841485	-0.217299	-0.218655	0.048073	35.1903	-0.218324	-261.134	-0.000184	NaN
228	1.000000	0.850812	7.36728e+06	-50039.1	955.818	-29757.4	0.000000	0.000000	6.851083	0.021411	NaN	0.000000	0.001567	0.001692	28.0773	0.097722	0.002096	46.6337	51.3011	-165.14	0.017414	0.849541	-0.209329	-0.210600	0.021411	46.6337	-0.209673	-189.461	-0.000113	NaN
228	1.000000	0.858847	7.36728e+06	-50039.1	955.819	-29757.4	0.000000	0.000000	6.859119	0.034944	NaN	0.000000	0.001574	0.001672	28.0774	0.059885	0.001941	30.8471	130.425	-166.783	0.006429	0.857514	-0.201293	-0.202627	0.034944	30.8471	-0.202143	-142.843	-0.000245	NaN
228	1.000000	0.866827	7.36728e+06	-50039.1	955.817	-29757.4	0.000000	0.000000	6.867096	-0.014250	NaN	0.000000	0.001569	0.001696	28.0771	0.069173	0.002056	33.6416	115.724	-163.599	-0.002654	0.865424	-0.193314	-0.194717	-0.014250	33.6416	-0.192996	-100.914	0.000141	NaN
228	1.000000	0.874811	7.36728e+06	-50039.1	955.819	-29757.4	0.000000	0.000000	6.875079	-0.054695	NaN	0.000000	0.001570	0.001689	28.0774	0.027360	0.002159	12.6743	68.6849	-164.836	-0.078186	0.873541	-0.185330	-0.186600	-0.054695	12.6743	-0.182093	-66.2234	0.000826	NaN
228	1.000000	0.882809	7.36728e+06	-50039.1	955.818	-29757.4	0.000000	0.000000	6.883080	0.008643	NaN	0.000000	0.001602	0.001679	28.0772	0.130690	0.001949	67.0605	160.244	-165.155	0.016055	0.881529	-0.177332	-0.178612	0.008643	67.0605	-0.177428	-55.1575	-0.000157	NaN
228	1.000000	0.890808	7.36728e+06	-50039.1	955.818	-29757.4	0.000000	0.000000	6.891078	-0.012445	NaN	0.000000	0.001629	0.001700	28.0775	0.109228	0.001965	55.6007	-2.153118	-162.634	0.045663	0.889529	-0.169333	-0.170612	-0.012445	55.6007	-0.169165	-39.728	0.000313	NaN
228	1.000000	0.898877	7.36728e+06	-50039.1	955.818	-29757.4	0.000000	0.000000	6.899148	0.004959	NaN	0.000000	0.001554	0.001687	28.0774	0.055421	0.002054	26.985	69.9749	-166.042	-0.025479	0.897518	-0.161263	-0.162623	0.004959	26.985	-0.161401	-29.0297	-0.000171	NaN
228	1.000000	0.906831	7.36728e+06	-50039.1	955.819	-29757.4	0.000000	0.000000	6.907101	-0.008928	NaN	0.000000	0.001597	0.001706	28.0772	0.113775	0.002005	56.7327	117.406	-171.124	-0.051804	0.905544	-0.153309	-0.154597	-0.008928	56.7327	-0.153191	-20.6994	0.000431	NaN
228	1.000000	0.914846	7.36728e+06	-50039.1	955.818	-29757.4	0.000000	0.000000	6.915116	-0.014181	NaN	0.000000	0.001582	0.001708	28.0773	0.042371	0.002009	21.0869	140.284	-166.33	0.031799	0.913558	-0.145295	-0.146583	-0.014181	21.0869	-0.144790	-14.5307	0.000976	NaN
228	1.000000	0.922835	7.36728e+06	-50039.1	955.818	-29757.4	0.000000	0.000000	6.923106	0.004632	NaN	0.000000	0.001612	0.001680	28.0785	0.030426	0.001908	15.9499	145.555	-166.258	0.035536	0.921505	-0.137305	-0.138636	0.004632	15.9499	-0.137523	-10.6232	-0.000436	NaN
228	1.000000	0.930851	7.36728e+06	-50039.1	955.818	-29757.4	0.000000	0.000000	6.931121	0.004770	NaN	0.000000	0.001584	0.001672	28.0787	0.067052	0.002054	32.6453	177.718	-166.311	-0.038708	0.929490	-0.129290	-0.130651	0.004770	32.6453	-0.129399	-7.418745	-0.000643	NaN
228	1.000000	0.938867	7.36728e+06	-50039.1	955.818	-29757.4	0.000000	0.000000	6.939135	-0.054533	NaN	0.000000	0.001556	0.001690	28.0787	0.014435	0.001941	7.437854	-24.2827	-165.578	0.022854	0.937515	-0.121274	-0.122625	-0.054533	7.437854	-0.115775	-3.963300	0.013759	NaN
228	1.000000	0.946841	7.36728e+06	-50039.1	955.818	-29757.4	0.000000	0.000000	6.947112	0.027242	NaN	0.000000	0.001567	0.001676	28.0788	0.071665	0.001994	35.94	128.929	-169.342	0.000738	0.945536	-0.113300	-0.114605	0.027242	35.94	-0.113869	-3.620153	-0.007525	NaN
228	1.000000	0.954857	7.36728e+06	-50039.1	955.818	-29757.4	0.000000	0.000000	6.955126	-0.040951	NaN	0.000000	0.001544	0.001718	28.0787	0.040586	0.001957	20.7366	101.222	-164.709	-0.088877	0.953588	-0.105283	-0.106553	-0.040951	20.7366	-0.103802	-2.214242	0.018494	NaN
228	1.000000	0.962871	7.36728e+06	-50039.1	955.818	-29757.4	0.000000	0.000000	6.963143	0.035338	NaN	0.000000	0.001544	0.001706	28.0785	0.063481	0.001965	32.3033	15.7351	-168.904	-0.051506	0.961586	-0.097269	-0.098555	0.035338	32.3033	-0.098090	-1.656591	-0.021332	NaN
228	1.000000	0.970877	7.36728e+06	-50039.1	955.819	-29757.4	0.000000	0.000000	6.971146	-0.014278	NaN	0.000000	0.001533	0.001686	28.0786	0.080280	0.002069	38.8007	-84.2747	-167.124	0.006211	0.969562	-0.089264	-0.090579	-0.014278	38.8007	-0.088988	-1.023282	0.013953	NaN
228	1.000000	0.978907	7.36728e+06	-50039.1	955.819	-29757.4	0.000000	0.000000	6.979179	0.060603	NaN	0.000000	0.001556	0.001694	28.0784	0.020252	0.002075	9.757757	146.574	-166.659	0.102351	0.977513	-0.081234	-0.082628	0.060603	9.757757	-0.085892	-0.863401	-0.070190	NaN
228	1.000000	0.986875	7.36728e+06	-50039.1	955.819	-29757.4	0.000000	0.000000	6.987145	-0.010962	NaN	0.000000	0.001556	0.001662	28.0785	0.081686	0.001997	40.9095	-157.216	-164.427	0.012822	0.985548	-0.073265	-0.074593	-0.010962	40.9095	-0.073064	-0.411250	0.026656	NaN
228	1.000000	0.994848	7.36728e+06	-50039.1	955.819	-29757.4	0.000000	0.000000	6.995119	0.013617	NaN	0.000000	0.001556	0.001664	28.0785	0.056130	0.002048	27.4116	-144.315	-164.599	-0.009432	0.993549	-0.065293	-0.066591	0.013617	27.4116	-0.065665	-0.260010	-0.052372	NaN
228	1.000000	1.002869	7.36728e+06	-50039.1	955.819	-29757.4	0.000000	0.000000	7.003143	0.083123	NaN	0.000000	0.001539	0.001673	28.0785	0.030392	0.001962	15.4906	21.2111	-167.405	0.124224	1.001593	-0.057272	-0.058548	0.083123	15.4906	-0.061296	-0.196119	-0.423838	NaN
228	1.000000	1.010897	7.36728e+06	-50039.1	955.819	-29757.4	0.000000	0.000000	7.011169	0.050991	NaN	0.000000	0.001544	0.001651	28.0787	0.141530	0.002021	70.0224	-115.692	-163.43	0.045339	1.009542	-0.049243	-0.050599	0.050991	70.0224	-0.049790	-0.089923	-0.567053	NaN
228	1.000000	1.018886	7.36728e+06	-50039.1	955.819	-29757.4	0.000000	0.000000	7.019155	-0.026540	NaN	0.000000	0.001564	0.001618	28.0785	0.136579	0.001961	69.6624	-97.9781	-166.335	0.002592	1.017571	-0.041255	-0.042570	-0.026540	69.6624	-0.040969	-0.048398	0.548376	NaN
228	1.000000	1.026872	7.36728e+06	-50039.1	955.819	-29757.4	0.000000	0.000000	7.027142	0.003226	NaN	0.000000	0.001565	0.001671	28.0786	0.049412	0.002002	24.6809	85.2922	-166.963	0.071558	1.025580	-0.033269	-0.034560	0.003226	24.6809	-0.033367	-0.028691	-0.112439	NaN
228	1.000000	1.034887	7.36728e+06	-50039.1	955.82	-29757.4	0.000000	0.000000	7.035159	0.034810	NaN	0.000000	0.001552	0.001699	28.0786	0.039086	0.002077	18.8198	113.756	-165.117	-0.009767	1.033607	-0.025253	-0.026534	0.034810	18.8198	-0.026641	-0.018638	-1.867684	NaN
228	1.000000	1.042876	7.36728e+06	-50039.1	955.819	-29757.4	0.000000	0.000000	7.043145	-0.028619	NaN	0.000000	0.001602	0.001706	28.0784	0.042525	0.002029	20.9608	-152.019	-167.286	-0.015506	1.041592	-0.017265	-0.018549	-0.028619	20.9608	-0.016241	-0.010032	2.852766	NaN
228	1.000000	1.050893	7.36728e+06	-50039.1	955.82	-29757.4	0.000000	0.000000	7.051165	0.041250	NaN	0.000000	0.001547	0.001661	28.0786	0.081525	0.002142	38.0584	-68.7836	-168.282	-0.004164	1.049596	-0.009248	-0.010544	0.041250	38.0584	-0.010061	-0.006422	-6.423092	NaN
228	1.000000	1.058892	7.36728e+06	-50039.1	955.819	-29757.4	0.000000	0.000000	7.059161	-0.040550	NaN	0.000000	0.001598	0.001716	28.0771	0.022220	0.002019	11.0063	141.371	-165.391	-0.051131	1.057628	-0.001249	-0.002512	-0.040550	11.0063	0.001515	0.001166	-34.7764	294.485
228	1.000000	1.066873	7.36728e+06	-50039.1	955.819	-29757.4	0.000000	0.000000	7.067337	4.716747	NaN	0.000000	0.001557	0.001683	28.0772	5.532896	0.001758	3147.18	14.1274	-173.523	3.524471	1.065620	0.006732	0.005479	4.716747	3147.18	0.005608	0.004695	1004.59	41963.1
228	2.000000	1.072405	7.36728e+06	-50039.1	955.819	-29757.4	0.000000	0.000000	7.073131	11.0724	NaN	0.000000	0.001561	0.001710	28.0771	10.0936	0.001554	6495.87	7.101695	-174.436	10.3849	1.072037	0.012265	0.011897	11.0724	6495.87	0.010986	0.010298	1075.16	58482.7
228	2.000000	1.074371	7.36728e+06	-50039.1	955.819	-29757.4	0.000000	0.000000	7.075166	12.7631	NaN	0.000000	0.001555	0.001661	28.0774	13.1701	0.001816	7252.72	7.546814	-175.661	12.4185	1.074119	0.014231	0.013979	12.7631	7252.72	0.012911	0.012600	1012.98	59033.3
228	2.000000	1.076338	7.36728e+06	-50039.1	955.819	-29757.4	0.000000	0.000000	7.077338	17.7668	NaN	0.000000	0.001598	0.001692	28.0775	14.6376	0.001588	9215.91	4.434544	-175.845	16.8147	1.076007	0.016197	0.015866	17.7668	9215.91	0.014751	0.014955	1188.04	68852.8
228	2.000000	1.078321	7.36728e+06	-50039.1	955.819	-29757.4	0.000000	0.000000	7.079362	18.7438	NaN	0.000000	0.001591	0.001674	28.0771	16.8382	0.001772	9504.29	3.303845	-172.272	18.1712	1.078054	0.018180	0.017914	18.7438	9504.29	0.016701	0.017621	1063.69	65414.2
228	2.000000	1.080382	7.36728e+06	-50039.1	955.82	-29757.4	0.000000	0.000000	7.081586	22.7256	NaN	0.000000	0.001578	0.001694	28.0777	19.4042	0.001737	11168.7	6.792014	-178.478	23.0806	1.080059	0.020241	0.019918	22.7256	11168.7	0.018715	0.020563	1105.18	71159.9
228	2.000000	1.082299	7.36728e+06	-50039.1	955.82	-29757.4	0.000000	0.000000	7.083758	28.9343	NaN	0.000000	0.001555	0.001686	28.0775	21.4446	0.001566	13697.4	7.204607	178.417	26.9527	1.081949	0.022158	0.021808	28.9343	13697.4	0.020574	0.023452	1233.79	81719.2
228	2.000000	1.084298	7.36728e+06	-50039.1	955.82	-29757.4	0.000000	0.000000	7.085877	31.8382	NaN	0.000000	0.001551	0.001664	28.0773	24.2178	0.001929	12552.8	7.117953	-179.399	30.8772	1.083974	0.024157	0.023833	31.8382	12552.8	0.022255	0.026210	1214.73	70840.2
228	2.000000	1.086332	7.36728e+06	-50039.1	955.819	-29757.4	0.000000	0.000000	7.088048	35.1562	NaN	0.000000	0.001579	0.001629	28.0774	25.6615	0.001826	14053.6	4.996218	-178.019	35.2836	1.085966	0.026191	0.025825	35.1562	14053.6	0.024315	0.029782	1180.46	74402.2
228	2.000000	1.088313	7.36728e+06	-50039.1	955.819	-29757.4	0.000000	0.000000	7.090290	41.5203	NaN	0.000000	0.001555	0.001711	28.0772	27.7299	0.001955	14181.3	7.350941	179.039	41.4682	1.088014	0.028172	0.027874	41.5203	14181.3	0.025976	0.032815	1265.29	71524.2
228	2.000000	1.090344	7.36728e+06	-50039.1	955.819	-29757.4	0.000000	0.000000	7.092585	47.9255	NaN	0.000000	0.001578	0.001671	28.0783	29.185	0.001785	16346.5	5.034335	-178.776	48.0052	1.090016	0.030203	0.029875	47.9255	16346.5	0.028004	0.036708	1305.57	77950
228	2.000000	1.092287	7.36728e+06	-50039.1	955.82	-29757.4	0.000000	0.000000	7.094845	55.6383	NaN	0.000000	0.001599	0.001697	28.0774	29.4827	0.001666	17698.8	2.197300	-177.107	56.7512	1.091975	0.032146	0.031835	55.6383	17698.8	0.029789	0.040307	1380.37	80543
228	2.000000	1.094243	7.36728e+06	-50039.1	955.819	-29757.4	0.000000	0.000000	7.096905	58.1823	NaN	0.000000	0.001612	0.001644	28.0776	33.292	0.001838	18117	4.457261	179.32	55.9355	1.094054	0.034102	0.033913	58.1823	18117	0.031693	0.044326	1312.59	78619.1
228	2.000000	1.096248	7.36728e+06	-50039.1	955.82	-29757.4	0.000000	0.000000	7.099197	65.1407	NaN	0.000000	0.001588	0.001658	28.0774	34.1135	0.001655	20611.3	4.390114	178.34	62.827	1.095899	0.036107	0.035758	65.1407	20611.3	0.033737	0.048846	1333.58	85204.5
228	2.000000	1.098296	7.36728e+06	-50039.1	955.819	-29757.4	0.000000	0.000000	7.101335	67.3162	NaN	0.000000	0.001565	0.001649	28.0774	36.7289	0.001770	20755.9	2.564420	179.237	65.4235	1.097998	0.038156	0.037857	67.3162	20755.9	0.035723	0.053443	1259.58	82029
228	2.000000	1.100354	7.36728e+06	-50039.1	955.82	-29757.4	0.000000	0.000000	7.103932	80.4341	NaN	0.000000	0.001550	0.001678	28.0778	39.3983	0.001845	21355.6	9.758925	174.68	81.6835	1.099961	0.040214	0.039820	80.4341	21355.6	0.037389	0.057454	1399.96	81399.7
228	2.000000	1.102307	7.36728e+06	-50039.1	955.819	-29757.4	0.000000	0.000000	7.105938	81.7423	NaN	0.000000	0.001567	0.001680	28.0787	40.1473	0.001609	24948.5	1.963751	178.707	81.9938	1.101974	0.042166	0.041833	81.7423	24948.5	0.039709	0.063277	1291.81	90613.9
228	2.000000	1.104233	7.36728e+06	-50039.1	955.818	-29757.4	0.000000	0.000000	7.108416	95.1601	NaN	0.000000	0.001562	0.001653	28.0788	43.8782	0.001832	23952.5	6.254989	175.568	92.6094	1.103915	0.044092	0.043775	95.1601	23952.5	0.041112	0.066935	1421.68	84586.1
228	2.000000	1.106259	7.36728e+06	-50039.1	955.819	-29757.4	0.000000	0.000000	7.110789	103.604	NaN	0.000000	0.001616	0.001686	28.0789	43.9594	0.001745	25196	4.503371	177.387	103.174	1.105919	0.046118	0.045778	103.604	25196	0.043034	0.072105	1436.84	85727.6
228	2.000000	1.108223	7.36728e+06	-50039.1	955.819	-29757.4	0.000000	0.000000	7.112995	109.498	NaN	0.000000	0.001597	0.001654	28.0788	45.8555	0.001741	26341	1.934640	179.316	107.291	1.107884	0.048082	0.047744	109.498	26341	0.044964	0.077485	1413.15	86456.2
228	2.000000	1.110245	7.36728e+06	-50039.1	955.819	-29757.4	0.000000	0.000000	7.115404	118.878	NaN	0.000000	0.001593	0.001658	28.0791	47.9778	0.001850	25930.7	1.219178	-179.83	114.599	1.109854	0.050104	0.049713	118.878	25930.7	0.046666	0.082388	1442.91	82538.3
228	2.000000	1.112202	7.36728e+06	-50039.1	955.819	-29757.4	0.000000	0.000000	7.117730	127.855	NaN	0.000000	0.001584	0.001666	28.0787	49.7878	0.001695	29380.6	4.227472	175.472	124.236	1.111887	0.052061	0.051746	127.855	29380.6	0.048797	0.088732	1440.91	90114
228	2.000000	1.114325	7.36728e+06	-50039.1	955.819	-29757.4	0.000000	0.000000	7.120025	132.061	NaN	0.000000	0.001562	0.001680	28.079	52.0444	0.001795	28989.8	1.758166	178.535	133.192	1.113976	0.054184	0.053835	132.061	28989.8	0.050768	0.094801	1393.04	86022.6
228	2.000000	1.116259	7.36728e+06	-50039.1	955.819	-29757.4	0.000000	0.000000	7.122604	147.735	NaN	0.000000	0.001571	0.001687	28.0789	53.1792	0.001892	28102.9	3.889232	177.742	147.305	1.115908	0.056119	0.055768	147.735	28102.9	0.052176	0.099257	1488.41	81497.4
228	2.000000	1.118313	7.36728e+06	-50039.1	955.819	-29757.4	0.000000	0.000000	7.124912	153.899	NaN	0.000000	0.001550	0.001655	28.0788	56.1041	0.001819	30844.6	5.940285	174.654	156.764	1.117899	0.058172	0.057758	153.899	30844.6	0.054430	0.106597	1443.74	86313.7
228	2.000000	1.120203	7.36728e+06	-50039.1	955.819	-29757.4	0.000000	0.000000	7.127216	163.974	NaN	0.000000	0.001582	0.001684	28.0788	58.1754	0.001790	32502.9	5.756025	173.988	162.209	1.119946	0.060062	0.059805	163.974	32502.9	0.056279	0.112803	1453.63	88416.6
228	2.000000	1.122182	7.36728e+06	-50039.1	955.82	-29757.4	0.000000	0.000000	7.129699	176.242	NaN	0.000000	0.001587	0.001669	28.0787	59.0785	0.001853	31874.1	5.150030	174.833	172.2	1.121896	0.062041	0.061755	176.242	31874.1	0.057894	0.118365	1488.97	84644.6
228	2.000000	1.124275	7.36728e+06	-50039.1	955.819	-29757.4	0.000000	0.000000	7.132112	184.014	NaN	0.000000	0.001589	0.001691	28.0791	61.4788	0.001708	35988.9	3.971243	175.081	186.714	1.123912	0.064134	0.063771	184.014	35988.9	0.060299	0.126884	1450.26	92307.9
228	2.000000	1.126160	7.36728e+06	-50039.1	955.819	-29757.4	0.000000	0.000000	7.134522	196.778	NaN	0.000000	0.001573	0.001650	28.0789	62.7523	0.001822	34440.3	4.852789	173.683	191.14	1.125932	0.066019	0.065791	196.778	34440.3	0.061734	0.132100	1489.62	86574.5
228	2.000000	1.128152	7.36728e+06	-50039.1	955.82	-29757.4	0.000000	0.000000	7.136882	205.719	NaN	0.000000	0.001540	0.001659	28.0788	66.4808	0.001749	38020.3	6.074095	171.408	200.645	1.127872	0.068012	0.067731	205.719	38020.3	0.063954	0.140366	1465.59	92716.6
228	2.000000	1.130235	7.36728e+06	-50039.1	955.82	-29757.4	0.000000	0.000000	7.139389	216.04	NaN	0.000000	0.001567	0.001677	28.0787	67.3435	0.001711	39357	4.113166	173.778	212.865	1.129907	0.070094	0.069766	216.04	39357	0.065977	0.148111	1458.64	93433.3
228	2.000000	1.132272	7.36728e+06	-50039.1	955.821	-29757.4	0.000000	0.000000	7.142097	232.38	NaN	0.000000	0.001544	0.001628	28.0789	69.1061	0.001844	37476.3	3.194839	176.082	232.961	1.131816	0.072131	0.071676	232.38	37476.3	0.067480	0.153989	1509.06	87253.8
228	2.000000	1.134199	7.36728e+06	-50039.1	955.821	-29757.4	0.000000	0.000000	7.144206	236.807	NaN	0.000000	0.001568	0.001663	28.0791	72.1285	0.001788	40333.5	2.936639	174.07	235.721	1.134023	0.074058	0.073882	236.807	40333.5	0.069654	0.162685	1455.62	91362
228	2.000000	1.136155	7.36728e+06	-50039.1	955.82	-29757.4	0.000000	0.000000	7.146852	253.572	NaN	0.000000	0.001596	0.001664	28.0776	73.8679	0.001899	38900.9	7.388695	170.497	248.808	1.135884	0.076014	0.075743	253.572	38900.9	0.071125	0.168696	1503.13	86532.9
228	2.000000	1.138167	7.36728e+06	-50039.1	955.821	-29757.4	0.000000	0.000000	7.149643	272.507	NaN	0.000000	0.001629	0.001654	28.0776	74.9048	0.001826	41028.4	3.366053	174.24	267.156	1.137791	0.078026	0.077651	272.507	41028.4	0.073045	0.176695	1542.25	89175.6
228	2.000000	1.140257	7.36728e+06	-50039.1	955.821	-29757.4	0.000000	0.000000	7.152047	280.173	NaN	0.000000	0.001595	0.001724	28.0775	77.1901	0.001884	40972.9	2.910337	175.117	281.803	1.139882	0.080116	0.079741	280.173	40972.9	0.074987	0.184965	1514.73	87041.2
228	2.000000	1.142141	7.36728e+06	-50039.1	955.82	-29757.4	0.000000	0.000000	7.154452	292.814	NaN	0.000000	0.001651	0.001674	28.0775	78.4304	0.001807	43414	5.371968	171.418	287.772	1.141993	0.082001	0.081852	292.814	43414	0.076942	0.193469	1513.5	90177.4
228	2.000000	1.144278	7.36728e+06	-50039.1	955.821	-29757.4	0.000000	0.000000	7.157054	304.149	NaN	0.000000	0.001674	0.001652	28.0777	80.8127	0.001808	44705.2	4.396838	172.202	304.4	1.143919	0.084137	0.083778	304.149	44705.2	0.079034	0.202768	1499.99	90705.1
228	2.000000	1.146121	7.36728e+06	-50039.1	955.821	-29757.4	0.000000	0.000000	7.159440	317.346	NaN	0.000000	0.001618	0.001706	28.0776	80.9388	0.001789	45242.9	2.629740	173.935	311.841	1.146000	0.085980	0.085859	317.346	45242.9	0.080719	0.210406	1508.26	90114.6
228	2.000000	1.148166	7.36728e+06	-50039.1	955.82	-29757.4	0.000000	0.000000	7.162581	344.002	NaN	0.000000	0.001610	0.001678	28.0777	83.7246	0.001766	47416.5	3.343429	173.443	341.821	1.147760	0.088025	0.087620	344.002	47416.5	0.082584	0.219010	1570.71	92570
228	2.000000	1.150177	7.36728e+06	-50039.1	955.821	-29757.4	0.000000	0.000000	7.165165	357.906	NaN	0.000000	0.001544	0.001672	28.0775	85.4496	0.001947	43885.7	2.179134	175.744	354.227	1.149891	0.090037	0.089751	357.906	43885.7	0.083920	0.225277	1588.74	84476.9
228	2.000000	1.152069	7.36728e+06	-50039.1	955.82	-29757.4	0.000000	0.000000	7.167550	369.906	NaN	0.000000	0.001569	0.001697	28.0775	88.1518	0.001777	49609.4	7.358360	169.357	360.849	1.151693	0.091928	0.091552	369.906	49609.4	0.086336	0.236816	1562	93139.1
228	2.000000	1.154244	7.36728e+06	-50039.1	955.821	-29757.4	0.000000	0.000000	7.170062	378.096	NaN	0.000000	0.001592	0.001730	28.0775	90.2505	0.001838	49096.4	4.865428	171.576	381.799	1.153885	0.094103	0.093744	378.096	49096.4	0.088328	0.246530	1533.67	90341.5
228	2.000000	1.156140	7.36728e+06	-50039.1	955.821	-29757.4	0.000000	0.000000	7.172786	398.252	NaN	0.000000	0.001560	0.001678	28.0776	90.3032	0.001704	52994.5	4.171064	171.565	392.035	1.155826	0.095999	0.095685	398.252	52994.5	0.090363	0.256647	1551.75	95573.1
228	2.000000	1.158169	7.36728e+06	-50039.1	955.82	-29757.4	0.000000	0.000000	7.175266	409.207	NaN	0.000000	0.001569	0.001689	28.0778	93.1168	0.001772	52559.9	4.741709	170.926	407.214	1.157928	0.098028	0.097787	409.207	52559.9	0.092189	0.265885	1539.04	93128.1
228	2.000000	1.160231	7.36728e+06	-50039.1	955.82	-29757.4	0.000000	0.000000	7.178216	430.794	NaN	0.000000	0.001542	0.001667	28.0774	95.3045	0.001819	52399.7	4.553677	171.458	430.058	1.159941	0.100091	0.099800	430.794	52399.7	0.093925	0.274808	1567.62	91324.5
228	2.000000	1.162234	7.36728e+06	-50039.1	955.821	-29757.4	0.000000	0.000000	7.180861	446.433	NaN	0.000000	0.001562	0.001678	28.0778	97.4133	0.001808	53872.9	8.910238	167.341	447.556	1.161779	0.102093	0.101638	446.433	53872.9	0.095878	0.285011	1566.37	92196.1
228	2.000000	1.164110	7.36728e+06	-50039.1	955.82	-29757.4	0.000000	0.000000	7.183208	457.876	NaN	0.000000	0.001569	0.001656	28.0776	98.9482	0.001693	58442.6	1.968188	173.319	453.592	1.163941	0.103969	0.103800	457.876	58442.6	0.098093	0.296797	1542.72	98010.5
228	2.000000	1.166132	7.36728e+06	-50039.1	955.822	-29757.4	0.000000	0.000000	7.186110	479.274	NaN	0.000000	0.001561	0.001674	28.0775	99.401	0.001734	57309.3	4.739005	170.866	476.341	1.165739	0.105991	0.105598	479.274	57309.3	0.099719	0.305589	1568.36	94717.3
228	2.000000	1.168101	7.36728e+06	-50039.1	955.82	-29757.4	0.000000	0.000000	7.188792	496.612	NaN	0.000000	0.001594	0.001653	28.0779	103.468	0.001824	56712.7	6.787309	168.674	491.702	1.167826	0.107960	0.107685	496.612	56712.7	0.101392	0.314761	1577.74	92355.6
228	2.000000	1.170183	7.36728e+06	-50039.1	955.821	-29757.4	0.000000	0.000000	7.191327	507.626	NaN	0.000000	0.001612	0.001695	28.0786	105.205	0.001789	58822.4	6.647287	168.738	506.026	1.169823	0.110043	0.109682	507.626	58822.4	0.103570	0.326890	1552.89	93997.2