File: remote_trans/data/nanoindenter/0828-1/data/Data_2025-08-06,11h17m57s/2025-07-22_16-23-58_1_30.txt
2025-07-22, 16:23:58, 1
Index	Phase	Displacement	Time	Pos X	Pos Y	Pos Z	Rot A	Rot B	Piezo Z	Force A	Force B	Gripper	Voltage A	Voltage B	Temperature	Amplitude force	Amplitude pos	Stiffness	Phase shift	Phase excitation	Force A raw	Displacement raw	HMax	HMax raw	Real Force	Real Stiffness	Contact Depth	Area	Hardness	Reduced Mod.
[#]	[#]	[um]	[s]	[um]	[um]	[um]	[m°]	[m°]	[um]	[uN]	[uN]	[V]	[V]	[V]	[°C]	[uN]	[um]	[N/m]	[°]	[°]	[uN]	[um]	[um]	[um]	[uN]	[N/m]	[um]	[um^2]	[MPa]	[MPa]
30	1.000000	0.002443	7.36533e+06	-40139.1	955.819	-29791.8	0.000000	0.000000	6.002825	0.014075	NaN	0.000000	0.001694	0.001581	28.1098	0.115558	0.000903	128.036	73.9304	-168.187	-0.059005	0.001148	-1.009671	-1.010965	0.014075	128.036	-1.009753	-3.069437E+13	-4.585481E-16	NaN
30	1.000000	0.010374	7.36533e+06	-40139.1	955.819	-29791.8	0.000000	0.000000	6.010755	0.007707	NaN	0.000000	0.001636	0.001576	28.1093	0.103598	0.000905	114.529	-56.0354	-166.875	0.010958	0.009110	-1.001740	-1.003003	0.007707	114.529	-1.001790	-2.398115E+13	-3.213626E-16	NaN
30	1.000000	0.018380	7.36533e+06	-40139.1	955.819	-29791.8	0.000000	0.000000	6.018765	0.078020	NaN	0.000000	0.001680	0.001594	28.1093	0.052928	0.001789	29.5835	-63.3793	-161.738	0.045155	0.017073	-0.993733	-0.995041	0.078020	29.5835	-0.995711	-1.986190E+13	-3.928134E-15	NaN
30	1.000000	0.026393	7.36533e+06	-40139.1	955.818	-29791.8	0.000000	0.000000	6.026774	-0.019075	NaN	0.000000	0.001666	0.001581	28.109	0.117970	0.001948	60.5714	150.838	-166.599	-0.035163	0.025002	-0.985720	-0.987112	-0.019075	60.5714	-0.985484	-1.446391E+13	1.318813E-15	NaN
30	1.000000	0.034385	7.36533e+06	-40139.1	955.819	-29791.8	0.000000	0.000000	6.034767	0.005338	NaN	0.000000	0.001687	0.001598	28.1083	0.061351	0.001928	31.8173	144.997	-161.181	-0.029077	0.033119	-0.977728	-0.978994	0.005338	31.8173	-0.977854	-1.141550E+13	-4.676256E-16	NaN
30	1.000000	0.042383	7.36533e+06	-40139.1	955.819	-29791.8	0.000000	0.000000	6.042765	0.002252	NaN	0.000000	0.001689	0.001592	28.1084	0.060821	0.002058	29.5532	-52.9408	-168.485	-0.032053	0.041087	-0.969730	-0.971026	0.002252	29.5532	-0.969787	-8.887819E+12	-2.533508E-16	NaN
30	1.000000	0.050347	7.36533e+06	-40139.1	955.819	-29791.8	0.000000	0.000000	6.050729	0.033229	NaN	0.000000	0.001719	0.001591	28.1101	0.080010	0.001973	40.5468	-1.623622	-167.001	0.049140	0.049095	-0.961767	-0.963018	0.033229	40.5468	-0.962381	-7.062735E+12	-4.704900E-15	NaN
30	1.000000	0.058408	7.36533e+06	-40139.1	955.819	-29791.8	0.000000	0.000000	6.058789	-0.021200	NaN	0.000000	0.001704	0.001574	28.1098	0.015105	0.001931	7.822101	-83.6167	-163.484	-0.011428	0.057075	-0.953705	-0.955038	-0.021200	7.822101	-0.951672	-5.065010E+12	4.185670E-15	NaN
30	1.000000	0.066402	7.36533e+06	-40139.1	955.817	-29791.8	0.000000	0.000000	6.066783	-0.008387	NaN	0.000000	0.001695	0.001558	28.1098	0.122489	0.002030	60.3362	-130.836	-163.983	-0.010321	0.065110	-0.945712	-0.947003	-0.008387	60.3362	-0.945607	-4.195482E+12	1.999041E-15	NaN
30	1.000000	0.074369	7.36533e+06	-40139.1	955.818	-29791.8	0.000000	0.000000	6.074748	-0.066101	NaN	0.000000	0.001707	0.001585	28.1102	0.022441	0.002016	11.1307	36.0026	-162.371	-0.019594	0.073070	-0.937744	-0.939043	-0.066101	11.1307	-0.933290	-2.861509E+12	2.310020E-14	NaN
30	1.000000	0.082359	7.36533e+06	-40139.1	955.819	-29791.8	0.000000	0.000000	6.082741	-0.003707	NaN	0.000000	0.001699	0.001565	28.1094	0.109053	0.001955	55.7846	108.247	-164.88	0.031019	0.081105	-0.929754	-0.931009	-0.003707	55.7846	-0.929704	-2.559782E+12	1.447983E-15	NaN
30	1.000000	0.090389	7.36533e+06	-40139.1	955.818	-29791.8	0.000000	0.000000	6.090770	-0.013499	NaN	0.000000	0.001677	0.001580	28.1098	0.073607	0.001989	37.0033	-175.552	-166.238	0.003255	0.089058	-0.921724	-0.923055	-0.013499	37.0033	-0.921451	-1.980569E+12	6.815836E-15	NaN
30	1.000000	0.098403	7.36533e+06	-40139.1	955.818	-29791.8	0.000000	0.000000	6.098783	-0.044000	NaN	0.000000	0.001704	0.001591	28.1094	0.024910	0.001952	12.7642	39.2094	-164.946	0.001674	0.097138	-0.913710	-0.914975	-0.044000	12.7642	-0.911125	-1.436657E+12	3.062631E-14	NaN
30	1.000000	0.106392	7.36533e+06	-40139.1	955.818	-29791.8	0.000000	0.000000	6.106771	-0.060773	NaN	0.000000	0.001672	0.001596	28.1084	0.076691	0.001865	41.1242	76.0327	-163.464	-0.038934	0.105133	-0.905722	-0.906980	-0.060773	41.1242	-0.904613	-1.173265E+12	5.179857E-14	NaN
30	1.000000	0.114394	7.36533e+06	-40139.1	955.819	-29791.8	0.000000	0.000000	6.114774	-0.028039	NaN	0.000000	0.001695	0.001591	28.1089	0.086229	0.002136	40.3769	34.0754	-164.317	-0.047779	0.113101	-0.897720	-0.899012	-0.028039	40.3769	-0.897199	-9.315649E+11	3.009915E-14	NaN
30	1.000000	0.122413	7.36533e+06	-40139.1	955.819	-29791.8	0.000000	0.000000	6.122796	0.031604	NaN	0.000000	0.001679	0.001601	28.1103	0.144267	0.002031	71.0447	-99.7913	-164.329	0.123263	0.121108	-0.889700	-0.891005	0.031604	71.0447	-0.890034	-7.453665E+11	-4.240002E-14	NaN
30	1.000000	0.130396	7.36533e+06	-40139.1	955.818	-29791.8	0.000000	0.000000	6.130776	-0.018474	NaN	0.000000	0.001723	0.001532	28.111	0.078903	0.002031	38.858	90.5293	-160.63	0.018104	0.129102	-0.881718	-0.883011	-0.018474	38.858	-0.881361	-5.690036E+11	3.246766E-14	NaN
30	1.000000	0.138369	7.36533e+06	-40139.1	955.817	-29791.8	0.000000	0.000000	6.138753	0.047919	NaN	0.000000	0.001669	0.001582	28.1107	0.143527	0.002006	71.5374	68.0496	-164.729	0.006729	0.137031	-0.873744	-0.875082	0.047919	71.5374	-0.874246	-4.559198E+11	-1.051042E-13	NaN
30	1.000000	0.146402	7.36533e+06	-40139.1	955.82	-29791.8	0.000000	0.000000	6.146783	-0.020399	NaN	0.000000	0.001650	0.001597	28.1107	0.057995	0.001906	30.4307	-80.0629	-164.625	-0.008578	0.145095	-0.865711	-0.867018	-0.020399	30.4307	-0.865208	-3.440417E+11	5.929243E-14	NaN
30	1.000000	0.154408	7.36533e+06	-40139.1	955.819	-29791.8	0.000000	0.000000	6.154790	-0.011770	NaN	0.000000	0.001648	0.001587	28.1109	0.085428	0.001926	44.3666	88.0671	-166.062	0.008520	0.153138	-0.857705	-0.858975	-0.011770	44.3666	-0.857506	-2.706203E+11	4.349415E-14	NaN
30	1.000000	0.162428	7.36533e+06	-40139.1	955.818	-29791.8	0.000000	0.000000	6.162809	-0.018004	NaN	0.000000	0.001689	0.001630	28.1104	0.044180	0.001891	23.368	-105.624	-167.515	0.045358	0.161091	-0.849685	-0.851022	-0.018004	23.368	-0.849107	-2.082797E+11	8.644249E-14	NaN
30	1.000000	0.170416	7.36533e+06	-40139.1	955.819	-29791.8	0.000000	0.000000	6.170797	-0.014192	NaN	0.000000	0.001674	0.001597	28.1096	0.125835	0.001979	63.5859	-97.9272	-164.04	0.027279	0.169116	-0.841698	-0.842997	-0.014192	63.5859	-0.841530	-1.644453E+11	8.630249E-14	NaN
30	1.000000	0.178419	7.36533e+06	-40139.1	955.819	-29791.8	0.000000	0.000000	6.178800	-0.003638	NaN	0.000000	0.001681	0.001574	28.1099	0.114795	0.002093	54.8456	132.38	-165.479	-0.018679	0.177106	-0.833694	-0.835007	-0.003638	54.8456	-0.833644	-1.285812E+11	2.829117E-14	NaN
30	1.000000	0.186405	7.36533e+06	-40139.1	955.817	-29791.8	0.000000	0.000000	6.186789	0.043435	NaN	0.000000	0.001687	0.001605	28.1099	0.066705	0.002070	32.2246	128.362	-162.904	-0.071792	0.185119	-0.825708	-0.826994	0.043435	32.2246	-0.826719	-1.035883E+11	-4.193079E-13	NaN
30	1.000000	0.194432	7.36533e+06	-40139.1	955.819	-29791.8	0.000000	0.000000	6.194817	0.089899	NaN	0.000000	0.001663	0.001603	28.1093	0.073336	0.001913	38.3264	-10.1831	-165.308	0.045247	0.193099	-0.817682	-0.819014	0.089899	38.3264	-0.819441	-8.253332E+10	-1.089245E-12	NaN
30	1.000000	0.202402	7.36533e+06	-40139.1	955.818	-29791.8	0.000000	0.000000	6.202779	-0.110446	NaN	0.000000	0.001682	0.001583	28.1097	0.021946	0.002052	10.694	54.2692	-166.654	-0.134479	0.201111	-0.809712	-0.811002	-0.110446	10.694	-0.801966	-4.781275E+10	2.309969E-12	NaN
30	1.000000	0.210444	7.36533e+06	-40139.1	955.818	-29791.8	0.000000	0.000000	6.210824	-0.039560	NaN	0.000000	0.001644	0.001583	28.1105	0.113573	0.002001	56.7582	39.8681	-162.14	-0.060285	0.209142	-0.801669	-0.802971	-0.039560	56.7582	-0.801146	-4.660402E+10	8.488503E-13	NaN
30	1.000000	0.218444	7.36533e+06	-40139.1	955.818	-29791.8	0.000000	0.000000	6.218825	0.000188	NaN	0.000000	0.001628	0.001540	28.1104	0.051576	0.002013	25.6152	-93.3641	-163.201	0.025746	0.217146	-0.793670	-0.794968	0.000188	25.6152	-0.793675	-3.689699E+10	-5.107327E-15	NaN
30	1.000000	0.226433	7.36533e+06	-40139.1	955.82	-29791.8	0.000000	0.000000	6.226813	-0.028746	NaN	0.000000	0.001638	0.001581	28.1101	0.024008	0.002104	11.4105	100.871	-164.902	0.024943	0.225136	-0.785680	-0.786977	-0.028746	11.4105	-0.783791	-2.708584E+10	1.061289E-12	NaN
30	1.000000	0.234429	7.36533e+06	-40139.1	955.818	-29791.8	0.000000	0.000000	6.234815	0.102930	NaN	0.000000	0.001640	0.001594	28.1104	0.048322	0.002073	23.3086	160.46	-165.983	0.083010	0.233135	-0.777684	-0.778978	0.102930	23.3086	-0.780996	-2.481790E+10	-4.147409E-12	NaN
30	1.000000	0.242463	7.36533e+06	-40139.1	955.819	-29791.8	0.000000	0.000000	6.242845	0.016691	NaN	0.000000	0.001657	0.001605	28.1099	0.068582	0.001899	36.1073	-152.868	-167.111	0.051597	0.241107	-0.769650	-0.771007	0.016691	36.1073	-0.769997	-1.758988E+10	-9.489005E-13	NaN
30	1.000000	0.250447	7.36533e+06	-40139.1	955.818	-29791.8	0.000000	0.000000	6.250827	-0.030292	NaN	0.000000	0.001651	0.001588	28.1099	0.026217	0.001931	13.5795	161.564	-166.72	0.054151	0.249139	-0.761666	-0.762975	-0.030292	13.5795	-0.759993	-1.285903E+10	2.355723E-12	NaN
30	1.000000	0.258484	7.36533e+06	-40139.1	955.818	-29791.8	0.000000	0.000000	6.258864	-0.025305	NaN	0.000000	0.001639	0.001578	28.1086	0.066632	0.002007	33.1995	157.165	-166.987	0.032204	0.257128	-0.753630	-0.754985	-0.025305	33.1995	-0.753058	-1.034769E+10	2.445497E-12	NaN
30	1.000000	0.266468	7.36533e+06	-40139.1	955.818	-29791.8	0.000000	0.000000	6.266850	0.027036	NaN	0.000000	0.001665	0.001594	28.1076	0.059956	0.002075	28.899	63.127	-166.933	0.031504	0.265198	-0.745646	-0.746915	0.027036	28.899	-0.746347	-8.384827E+9	-3.224388E-12	NaN
30	1.000000	0.274481	7.36533e+06	-40139.1	955.819	-29791.8	0.000000	0.000000	6.274859	-0.072480	NaN	0.000000	0.001641	0.001588	28.1078	0.038970	0.002082	18.7201	172.432	-166.442	-0.008861	0.273164	-0.737633	-0.738949	-0.072480	18.7201	-0.734729	-5.824354E+9	1.244425E-11	NaN
30	1.000000	0.282485	7.36533e+06	-40139.1	955.818	-29791.8	0.000000	0.000000	6.282867	-0.004180	NaN	0.000000	0.001615	0.001596	28.1079	0.013413	0.001988	6.748038	-91.7617	-164.712	0.075915	0.281198	-0.729628	-0.730915	-0.004180	6.748038	-0.729164	-4.891113E+9	8.545091E-13	NaN
30	1.000000	0.290435	7.36533e+06	-40139.1	955.818	-29791.8	0.000000	0.000000	6.290818	0.037913	NaN	0.000000	0.001631	0.001597	28.1085	0.041520	0.002037	20.3839	152.855	-164.316	-0.071760	0.289193	-0.721678	-0.722920	0.037913	20.3839	-0.723073	-4.040029E+9	-9.384308E-12	NaN
30	1.000000	0.298461	7.36533e+06	-40139.1	955.819	-29791.8	0.000000	0.000000	6.298846	0.087902	NaN	0.000000	0.001640	0.001598	28.1084	0.023706	0.002174	10.903	-70.0068	-164.034	0.006609	0.297173	-0.713652	-0.714941	0.087902	10.903	-0.719699	-3.633834E+9	-2.418977E-11	NaN
30	1.000000	0.306460	7.36533e+06	-40139.1	955.819	-29791.8	0.000000	0.000000	6.306843	0.049859	NaN	0.000000	0.001663	0.001628	28.1088	0.051618	0.001912	26.9952	166.405	-161.87	0.027794	0.305142	-0.705654	-0.706971	0.049859	26.9952	-0.707039	-2.441376E+9	-2.042262E-11	NaN
30	1.000000	0.314474	7.36533e+06	-40139.1	955.819	-29791.8	0.000000	0.000000	6.314857	0.019633	NaN	0.000000	0.001583	0.001610	28.1086	0.022408	0.001910	11.7309	120.842	-161.466	-0.010958	0.313187	-0.697639	-0.698927	0.019633	11.7309	-0.698894	-1.889863E+9	-1.038860E-11	NaN
30	1.000000	0.322485	7.36533e+06	-40139.1	955.818	-29791.8	0.000000	0.000000	6.322866	-0.018566	NaN	0.000000	0.001595	0.001595	28.1092	0.143559	0.001928	74.4454	79.1741	-166.459	0.018416	0.321120	-0.689628	-0.690994	-0.018566	74.4454	-0.689441	-1.403715E+9	1.322629E-11	NaN
30	1.000000	0.330516	7.36533e+06	-40139.1	955.818	-29791.8	0.000000	0.000000	6.330898	0.005963	NaN	0.000000	0.001607	0.001592	28.108	0.035975	0.001917	18.7654	-120.797	-163.034	0.092213	0.329193	-0.681597	-0.682920	0.005963	18.7654	-0.681835	-1.104845E+9	-5.397174E-12	NaN
30	1.000000	0.338514	7.36533e+06	-40139.1	955.818	-29791.8	0.000000	0.000000	6.338896	0.028771	NaN	0.000000	0.001666	0.001588	28.1068	0.065698	0.001979	33.1955	68.918	-163.373	0.036413	0.337186	-0.673600	-0.674927	0.028771	33.1955	-0.674250	-8.700499E+8	-3.306878E-11	NaN
30	1.000000	0.346499	7.36533e+06	-40139.1	955.819	-29791.8	0.000000	0.000000	6.346882	0.038603	NaN	0.000000	0.001640	0.001653	28.1072	0.080516	0.002101	38.3218	80.913	-166.701	0.001940	0.345227	-0.665614	-0.666887	0.038603	38.3218	-0.666370	-6.787248E+8	-5.687581E-11	NaN
30	1.000000	0.354502	7.36533e+06	-40139.1	955.818	-29791.8	0.000000	0.000000	6.354885	0.011427	NaN	0.000000	0.001631	0.001601	28.1068	0.074315	0.001918	38.7391	121.211	-166.904	0.005368	0.353197	-0.657611	-0.658917	0.011427	38.7391	-0.657832	-5.185246E+8	-2.203684E-11	NaN
30	1.000000	0.362513	7.36533e+06	-40139.1	955.819	-29791.8	0.000000	0.000000	6.362894	-0.028974	NaN	0.000000	0.001646	0.001575	28.1078	0.096826	0.002031	47.6697	-179.847	-163.086	-0.016508	0.361210	-0.649600	-0.650903	-0.028974	47.6697	-0.649144	-3.941871E+8	7.350329E-11	NaN
30	1.000000	0.370492	7.36533e+06	-40139.1	955.818	-29791.8	0.000000	0.000000	6.370872	-0.055681	NaN	0.000000	0.001646	0.001619	28.1087	0.048107	0.002115	22.7449	94.828	-163.984	-0.019602	0.369152	-0.641621	-0.642961	-0.055681	22.7449	-0.639785	-2.933165E+8	1.898321E-10	NaN
30	1.000000	0.378507	7.36533e+06	-40139.1	955.819	-29791.8	0.000000	0.000000	6.378888	-0.004550	NaN	0.000000	0.001665	0.001615	28.1085	0.089292	0.001917	46.5762	131.498	-165.056	-0.046114	0.377241	-0.633607	-0.634872	-0.004550	46.5762	-0.633533	-2.407345E+8	1.889940E-11	NaN
30	1.000000	0.386554	7.36533e+06	-40139.1	955.819	-29791.8	0.000000	0.000000	6.386941	0.133466	NaN	0.000000	0.001645	0.001610	28.1083	0.072236	0.002006	36.0061	-34.0426	-163.615	0.065225	0.385230	-0.625560	-0.626883	0.133466	36.0061	-0.628340	-2.042776E+8	-6.533569E-10	NaN
30	1.000000	0.394505	7.36533e+06	-40139.1	955.819	-29791.8	0.000000	0.000000	6.394888	0.043166	NaN	0.000000	0.001616	0.001595	28.1074	0.056981	0.002094	27.2099	115.214	-161.594	0.049313	0.393181	-0.617609	-0.618932	0.043166	27.2099	-0.618798	-1.510488E+8	-2.857740E-10	NaN
30	1.000000	0.402547	7.36533e+06	-40139.1	955.819	-29791.8	0.000000	0.000000	6.402930	0.020407	NaN	0.000000	0.001631	0.001593	28.1093	0.041167	0.001916	21.4849	135.161	-164.049	-0.023504	0.401176	-0.609566	-0.610937	0.020407	21.4849	-0.610278	-1.153309E+8	-1.769422E-10	NaN
30	1.000000	0.410560	7.36533e+06	-40139.1	955.819	-29791.8	0.000000	0.000000	6.410939	-0.067822	NaN	0.000000	0.001595	0.001599	28.1081	0.052130	0.001901	27.4287	9.034857	-163.186	-0.031916	0.409210	-0.601553	-0.602904	-0.067822	27.4287	-0.599698	-8.247208E+7	8.223649E-10	NaN
30	1.000000	0.418521	7.36533e+06	-40139.1	955.818	-29791.8	0.000000	0.000000	6.418903	0.003162	NaN	0.000000	0.001623	0.001599	28.1071	0.016265	0.001977	8.225730	-93.8102	-165.968	0.134016	0.417202	-0.593592	-0.594911	0.003162	8.225730	-0.593881	-6.857328E+7	-4.610429E-11	NaN
30	1.000000	0.426550	7.36533e+06	-40139.1	955.818	-29791.8	0.000000	0.000000	6.426933	0.020201	NaN	0.000000	0.001624	0.001583	28.1076	0.139314	0.002154	64.6916	175.763	-166.848	-0.031849	0.425213	-0.585563	-0.586901	0.020201	64.6916	-0.585797	-5.305273E+7	-3.807648E-10	NaN
30	1.000000	0.434532	7.36533e+06	-40139.1	955.819	-29791.8	0.000000	0.000000	6.434914	0.020271	NaN	0.000000	0.001603	0.001606	28.1084	0.070562	0.001949	36.2052	62.0599	-165.181	0.004838	0.433215	-0.577581	-0.578899	0.020271	36.2052	-0.578001	-4.141321E+7	-4.894880E-10	NaN
30	1.000000	0.442554	7.36533e+06	-40139.1	955.818	-29791.8	0.000000	0.000000	6.442934	-0.049035	NaN	0.000000	0.001659	0.001625	28.1076	0.036467	0.001983	18.3909	164.895	-163.407	-0.105131	0.441227	-0.569559	-0.570886	-0.049035	18.3909	-0.567559	-2.970987E+7	1.650460E-9	NaN
30	1.000000	0.450521	7.36533e+06	-40139.1	955.819	-29791.8	0.000000	0.000000	6.450905	0.056545	NaN	0.000000	0.001635	0.001611	28.1086	0.041599	0.001954	21.2911	47.4896	-164.761	-0.009268	0.449199	-0.561593	-0.562914	0.056545	21.2911	-0.563584	-2.617904E+7	-2.159935E-9	NaN
30	1.000000	0.458543	7.36533e+06	-40139.1	955.818	-29791.8	0.000000	0.000000	6.458925	0.020666	NaN	0.000000	0.001628	0.001594	28.1088	0.114620	0.002139	53.5976	-125.136	-168.003	0.023177	0.457202	-0.553571	-0.554911	0.020666	53.5976	-0.553860	-1.920450E+7	-1.076077E-9	NaN
30	1.000000	0.466558	7.36533e+06	-40139.1	955.818	-29791.8	0.000000	0.000000	6.466940	0.014759	NaN	0.000000	0.001656	0.001589	28.1083	0.155035	0.001932	80.2563	155.262	-164.412	0.050835	0.465228	-0.545555	-0.546885	0.014759	80.2563	-0.545693	-1.480093E+7	-9.971541E-10	NaN
30	1.000000	0.474543	7.36533e+06	-40139.1	955.819	-29791.8	0.000000	0.000000	6.474928	0.075973	NaN	0.000000	0.001669	0.001619	28.1085	0.036149	0.002101	17.2044	3.393754	-165.076	0.087909	0.473254	-0.537570	-0.538860	0.075973	17.2044	-0.540882	-1.269379E+7	-5.985022E-9	NaN
30	1.000000	0.482521	7.36533e+06	-40139.1	955.819	-29791.8	0.000000	0.000000	6.482900	-0.058814	NaN	0.000000	0.001674	0.001606	28.1083	0.067483	0.001998	33.7754	167.724	-169.292	-0.077598	0.481241	-0.529592	-0.530873	-0.058814	33.7754	-0.528286	-8.48738e+06	6.929599E-9	NaN
30	1.000000	0.490539	7.36533e+06	-40139.1	955.819	-29791.8	0.000000	0.000000	6.490923	0.047694	NaN	0.000000	0.001657	0.001571	28.1074	0.083587	0.001825	45.7931	68.1217	-165.438	0.018760	0.489309	-0.521574	-0.522804	0.047694	45.7931	-0.522355	-7.02013e+06	-6.793891E-9	NaN
30	1.000000	0.498557	7.36533e+06	-40139.1	955.819	-29791.8	0.000000	0.000000	6.498938	-0.002080	NaN	0.000000	0.001683	0.001573	28.1066	0.049071	0.001955	25.1014	-7.094693	-164.297	-0.053481	0.497302	-0.513556	-0.514811	-0.002080	25.1014	-0.513494	-5.28533e+06	3.935641E-10	NaN
30	1.000000	0.506580	7.36533e+06	-40139.1	955.819	-29791.8	0.000000	0.000000	6.506959	-0.079659	NaN	0.000000	0.001663	0.001561	28.107	0.107317	0.001992	53.8734	-9.669293	-163.693	-0.098285	0.505223	-0.505533	-0.506890	-0.079659	53.8734	-0.504424	-3.95108e+06	2.016121E-8	NaN
30	1.000000	0.514533	7.36533e+06	-40139.1	955.82	-29791.8	0.000000	0.000000	6.514917	0.053515	NaN	0.000000	0.001658	0.001584	28.1064	0.057698	0.001941	29.7236	-175.615	-163.999	-0.009199	0.513308	-0.497580	-0.498805	0.053515	29.7236	-0.498931	-3.31206e+06	-1.615774E-8	NaN
30	1.000000	0.522574	7.36533e+06	-40139.1	955.818	-29791.8	0.000000	0.000000	6.522955	-0.003714	NaN	0.000000	0.001641	0.001614	28.106	0.105433	0.002068	50.9799	179.817	-164.207	-0.085603	0.521248	-0.489539	-0.490865	-0.003714	50.9799	-0.489485	-2.44452e+06	1.519153E-9	NaN
30	1.000000	0.530575	7.36533e+06	-40139.1	955.819	-29791.8	0.000000	0.000000	6.530955	-0.038035	NaN	0.000000	0.001636	0.001624	28.1074	0.040836	0.001997	20.4435	-96.7194	-162.321	-0.040708	0.529244	-0.481538	-0.482869	-0.038035	20.4435	-0.480143	-1.80938e+06	2.102102E-8	NaN
30	1.000000	0.538590	7.36533e+06	-40139.1	955.818	-29791.8	0.000000	0.000000	6.538970	-0.058472	NaN	0.000000	0.001651	0.001606	28.1067	0.079686	0.002083	38.2493	123.849	-160.265	-0.087448	0.537291	-0.473523	-0.474822	-0.058472	38.2493	-0.472376	-1.40841e+06	4.151662E-8	NaN
30	1.000000	0.546582	7.36533e+06	-40139.1	955.819	-29791.8	0.000000	0.000000	6.546966	0.050810	NaN	0.000000	0.001727	0.001613	28.1065	0.151117	0.002045	73.8987	-151.178	-165.024	-0.023076	0.545248	-0.465531	-0.466865	0.050810	73.8987	-0.466047	-1.14799e+06	-4.425990E-8	NaN
30	1.000000	0.554570	7.36533e+06	-40139.1	955.818	-29791.8	0.000000	0.000000	6.554952	0.025699	NaN	0.000000	0.001698	0.001635	28.1059	0.034242	0.002008	17.0488	24.7623	-161.948	0.024367	0.553235	-0.457544	-0.458878	0.025699	17.0488	-0.458674	-904450	-2.841354E-8	NaN
30	1.000000	0.562587	7.36533e+06	-40139.1	955.818	-29791.9	0.000000	0.000000	6.562970	0.027894	NaN	0.000000	0.001696	0.001648	28.1062	0.163121	0.002085	78.2459	172.59	-162.939	0.094338	0.561272	-0.449526	-0.450842	0.027894	78.2459	-0.449793	-678317	-4.112239E-8	NaN
30	1.000000	0.570587	7.36533e+06	-40139.1	955.818	-29791.9	0.000000	0.000000	6.570970	0.039042	NaN	0.000000	0.001724	0.001596	28.1048	0.006180	0.002024	3.053806	10.9009	-164.218	-0.003922	0.569334	-0.441527	-0.442779	0.039042	3.053806	-0.451115	-708021	-5.514256E-8	NaN
30	1.000000	0.578598	7.36533e+06	-40139.1	955.819	-29791.9	0.000000	0.000000	6.578979	-0.003807	NaN	0.000000	0.001751	0.001608	28.1055	0.072185	0.001944	37.1413	75.6871	-164.975	-0.006835	0.577270	-0.433515	-0.434843	-0.003807	37.1413	-0.433438	-398735	9.548355E-9	NaN
30	1.000000	0.586621	7.36533e+06	-40139.1	955.819	-29791.9	0.000000	0.000000	6.587002	-0.027831	NaN	0.000000	0.001696	0.001647	28.1044	0.021362	0.001995	10.706	84.8057	-164.742	0.045655	0.585331	-0.425492	-0.426782	-0.027831	10.706	-0.423542	-288823	9.636103E-8	NaN
30	1.000000	0.594590	7.36533e+06	-40139.1	955.818	-29791.9	0.000000	0.000000	6.594971	-0.022667	NaN	0.000000	0.001695	0.001616	28.1045	0.059180	0.002055	28.7976	122.262	-161.779	-0.081054	0.593350	-0.417523	-0.418763	-0.022667	28.7976	-0.416933	-232752	9.738633E-8	NaN
30	1.000000	0.602620	7.36533e+06	-40139.1	955.818	-29791.9	0.000000	0.000000	6.603002	0.001842	NaN	0.000000	0.001692	0.001615	28.1039	0.080417	0.002059	39.0509	156.397	-164.829	-0.020541	0.601248	-0.409493	-0.410866	0.001842	39.0509	-0.409528	-182682	-1.008259E-8	NaN
30	1.000000	0.610614	7.36533e+06	-40139.1	955.818	-29791.9	0.000000	0.000000	6.610998	0.051571	NaN	0.000000	0.001727	0.001616	28.1054	0.069775	0.002044	34.1376	-98.8701	-166.989	0.069135	0.609323	-0.401499	-0.402790	0.051571	34.1376	-0.402632	-145719	-3.539044E-7	NaN
30	1.000000	0.618628	7.36533e+06	-40139.1	955.819	-29791.9	0.000000	0.000000	6.619010	0.017665	NaN	0.000000	0.001710	0.001597	28.1063	0.095225	0.001906	49.949	129.421	-162.954	0.036861	0.617309	-0.393485	-0.394804	0.017665	49.949	-0.393751	-108839	-1.623038E-7	NaN
30	1.000000	0.626621	7.36533e+06	-40139.1	955.818	-29791.9	0.000000	0.000000	6.626999	-0.091351	NaN	0.000000	0.001732	0.001608	28.1063	0.049900	0.002065	24.1617	92.0172	-165.83	0.004891	0.625315	-0.385492	-0.386798	-0.091351	24.1617	-0.382656	-75507.8	1.209819E-6	NaN
30	1.000000	0.634608	7.36533e+06	-40139.1	955.818	-29791.9	0.000000	0.000000	6.634990	0.016928	NaN	0.000000	0.001735	0.001597	28.1053	0.110507	0.002041	54.1488	175.092	-164.047	-0.059249	0.633341	-0.377505	-0.378772	0.016928	54.1488	-0.377740	-64186.2	-2.637376E-7	NaN
30	1.000000	0.642632	7.36533e+06	-40139.1	955.819	-29791.9	0.000000	0.000000	6.643013	-0.010888	NaN	0.000000	0.001732	0.001595	28.1053	0.085109	0.001986	42.8635	-156.495	-160.829	-0.063396	0.641342	-0.369481	-0.370771	-0.010888	42.8635	-0.369291	-48519.1	2.244079E-7	NaN
30	1.000000	0.650651	7.36533e+06	-40139.1	955.818	-29791.9	0.000000	0.000000	6.651032	-0.000660	NaN	0.000000	0.001712	0.001592	28.1053	0.083319	0.002075	40.1632	-17.0736	-165.583	-0.022369	0.649300	-0.361463	-0.362814	-0.000660	40.1632	-0.361450	-37394.3	1.765735E-8	NaN
30	1.000000	0.658625	7.36533e+06	-40139.1	955.818	-29791.9	0.000000	0.000000	6.659007	0.024432	NaN	0.000000	0.001750	0.001611	28.105	0.125428	0.002110	59.4512	-114.61	-164.746	0.086065	0.657263	-0.353489	-0.354850	0.024432	59.4512	-0.353797	-28977.7	-8.431382E-7	NaN
30	1.000000	0.666625	7.36534e+06	-40139.1	955.818	-29791.9	0.000000	0.000000	6.667006	-0.023183	NaN	0.000000	0.001708	0.001615	28.1043	0.045538	0.002039	22.3292	170.064	-163.856	0.019602	0.665272	-0.345488	-0.346841	-0.023183	22.3292	-0.344709	-21386.1	1.084042E-6	NaN
30	1.000000	0.674628	7.36534e+06	-40139.1	955.819	-29791.9	0.000000	0.000000	6.675008	-0.042376	NaN	0.000000	0.001685	0.001597	28.1065	0.088565	0.001908	46.4074	90.0759	-164.695	-0.113947	0.673374	-0.337485	-0.338739	-0.042376	46.4074	-0.336800	-16401.2	2.583699E-6	NaN
30	1.000000	0.682642	7.36534e+06	-40139.1	955.818	-29791.9	0.000000	0.000000	6.683024	0.025966	NaN	0.000000	0.001708	0.001599	28.1054	0.096909	0.002122	45.6745	142.487	-162.723	0.062641	0.681316	-0.329472	-0.330797	0.025966	45.6745	-0.329898	-13000.4	-1.997346E-6	NaN
30	1.000000	0.690637	7.36534e+06	-40139.1	955.818	-29791.9	0.000000	0.000000	6.691018	-0.014606	NaN	0.000000	0.001753	0.001621	28.107	0.069668	0.001902	36.6336	-97.8392	-161.346	-0.057170	0.689296	-0.321476	-0.322817	-0.014606	36.6336	-0.321177	-9681.76	1.508602E-6	NaN
30	1.000000	0.698635	7.36534e+06	-40139.1	955.818	-29791.9	0.000000	0.000000	6.699016	-0.017168	NaN	0.000000	0.001755	0.001593	28.1071	0.039670	0.002098	18.9104	-171.221	-163.196	-0.000696	0.697280	-0.313478	-0.314833	-0.017168	18.9104	-0.312797	-7284.74	2.356758E-6	NaN
30	1.000000	0.706667	7.36534e+06	-40139.1	955.818	-29791.9	0.000000	0.000000	6.707047	-0.038490	NaN	0.000000	0.001713	0.001570	28.1064	0.047718	0.001894	25.1932	18.9119	-167.768	-0.089690	0.705316	-0.305446	-0.306797	-0.038490	25.1932	-0.304300	-5452.19	7.059501E-6	NaN
30	1.000000	0.714632	7.36534e+06	-40139.1	955.819	-29791.9	0.000000	0.000000	6.715011	-0.040935	NaN	0.000000	0.001718	0.001587	28.1064	0.097711	0.001939	50.3822	-127.496	-167.29	0.018868	0.713385	-0.297482	-0.298728	-0.040935	50.3822	-0.296872	-4226.98	9.684223E-6	NaN
30	1.000000	0.722657	7.36534e+06	-40139.1	955.818	-29791.9	0.000000	0.000000	6.723039	0.017395	NaN	0.000000	0.001637	0.001577	28.1069	0.023904	0.002083	11.4753	63.0388	-163.284	-0.016270	0.721355	-0.289456	-0.290758	0.017395	11.4753	-0.290593	-3405.53	-5.107863E-6	NaN
30	1.000000	0.730646	7.36534e+06	-40139.1	955.818	-29791.9	0.000000	0.000000	6.731028	0.003252	NaN	0.000000	0.001640	0.001596	28.1055	0.159040	0.002005	79.31	35.9836	-164.513	0.054349	0.729397	-0.281467	-0.282716	0.003252	79.31	-0.281498	-2486.29	-1.308031E-6	NaN
30	1.000000	0.738653	7.36534e+06	-40139.1	955.819	-29791.9	0.000000	0.000000	6.739036	0.011346	NaN	0.000000	0.001665	0.001610	28.1054	0.048194	0.001984	24.2912	-114.391	-167.58	-0.184467	0.737341	-0.273460	-0.274772	0.011346	24.2912	-0.273810	-1902.72	-5.963169E-6	NaN
30	1.000000	0.746634	7.36534e+06	-40139.1	955.819	-29791.9	0.000000	0.000000	6.747015	-0.012898	NaN	0.000000	0.001660	0.001588	28.1049	0.055974	0.001927	29.0545	176.679	-167.439	0.007721	0.745348	-0.265479	-0.266765	-0.012898	29.0545	-0.265146	-1404.81	9.181194E-6	NaN
30	1.000000	0.754644	7.36534e+06	-40139.1	955.818	-29791.9	0.000000	0.000000	6.755024	-0.018629	NaN	0.000000	0.001673	0.001628	28.1051	0.056163	0.002046	27.4466	-156.809	-162.743	-0.013693	0.753396	-0.257470	-0.258717	-0.018629	27.4466	-0.256961	-1052.62	1.769788E-5	NaN
30	1.000000	0.762664	7.36534e+06	-40139.1	955.819	-29791.9	0.000000	0.000000	6.763041	-0.110203	NaN	0.000000	0.001645	0.001614	28.1059	0.051754	0.001910	27.0938	-169.772	-164.117	-0.107541	0.761367	-0.249449	-0.250746	-0.110203	27.0938	-0.246399	-723.061	0.000152	NaN
30	1.000000	0.770661	7.36534e+06	-40139.1	955.818	-29791.9	0.000000	0.000000	6.771044	0.024374	NaN	0.000000	0.001670	0.001613	28.1062	0.028237	0.002128	13.2686	-1.567571	-165.551	-0.062089	0.769388	-0.241452	-0.242725	0.024374	13.2686	-0.242830	-636.337	-3.830310E-5	NaN
30	1.000000	0.778698	7.36534e+06	-40139.1	955.818	-29791.9	0.000000	0.000000	6.779082	0.066031	NaN	0.000000	0.001662	0.001652	28.106	0.057360	0.001893	30.2968	-7.324222	-161.432	-0.055139	0.777340	-0.233415	-0.234774	0.066031	30.2968	-0.235050	-480.873	-0.000137	NaN
30	1.000000	0.786692	7.36534e+06	-40139.1	955.819	-29791.9	0.000000	0.000000	6.787071	-0.056983	NaN	0.000000	0.001651	0.001638	28.1066	0.047505	0.001930	24.618	93.7077	-165.055	-0.005270	0.785386	-0.225421	-0.226727	-0.056983	24.618	-0.223685	-318.008	0.000179	NaN
30	1.000000	0.794700	7.36534e+06	-40139.1	955.818	-29791.9	0.000000	0.000000	6.795077	-0.127240	NaN	0.000000	0.001670	0.001673	28.1068	0.051704	0.002065	25.0326	94.38	-163.013	-0.119514	0.793327	-0.217413	-0.218786	-0.127240	25.0326	-0.213601	-219.274	0.000580	NaN
30	1.000000	0.802707	7.36534e+06	-40139.1	955.819	-29791.9	0.000000	0.000000	6.803089	0.004917	NaN	0.000000	0.001638	0.001634	28.1071	0.062253	0.001939	32.1077	173.819	-165.458	0.052758	0.801407	-0.209406	-0.210707	0.004917	32.1077	-0.209521	-188.391	-2.609794E-5	NaN
30	1.000000	0.810703	7.36534e+06	-40139.1	955.818	-29791.9	0.000000	0.000000	6.811085	-0.001932	NaN	0.000000	0.001656	0.001641	28.1032	0.039780	0.001995	19.9404	16.5527	-161.511	-0.047095	0.809401	-0.201410	-0.202713	-0.001932	19.9404	-0.201337	-138.564	1.394396E-5	NaN
30	1.000000	0.818719	7.36534e+06	-40139.1	955.819	-29791.9	0.000000	0.000000	6.819099	-0.031030	NaN	0.000000	0.001653	0.001627	28.1033	0.059978	0.002035	29.4699	-140.738	-162.547	0.027512	0.817393	-0.193395	-0.194720	-0.031030	29.4699	-0.192605	-99.4137	0.000312	NaN
30	1.000000	0.826708	7.36534e+06	-40139.1	955.819	-29791.9	0.000000	0.000000	6.827090	-1.767002E-5	NaN	0.000000	0.001677	0.001625	28.1038	0.046803	0.002030	23.056	-139.146	-165.932	0.018855	0.825414	-0.185405	-0.186700	-1.767002E-5	23.056	-0.185405	-75.3266	2.345787E-7	NaN
30	1.000000	0.834680	7.36534e+06	-40139.1	955.818	-29791.9	0.000000	0.000000	6.835061	0.000647	NaN	0.000000	0.001654	0.001628	28.104	0.075305	0.001995	37.7478	-116.183	-165.494	-0.006217	0.833382	-0.177433	-0.178731	0.000647	37.7478	-0.177446	-55.1965	-1.173042E-5	NaN
30	1.000000	0.842704	7.36534e+06	-40139.1	955.819	-29791.9	0.000000	0.000000	6.843084	-0.044851	NaN	0.000000	0.001687	0.001646	28.104	0.050452	0.002167	23.2864	133.116	-163.914	-0.005182	0.841392	-0.169409	-0.170722	-0.044851	23.2864	-0.167965	-37.8607	0.001185	NaN
30	1.000000	0.850702	7.36534e+06	-40139.1	955.82	-29791.9	0.000000	0.000000	6.851086	0.046775	NaN	0.000000	0.001669	0.001663	28.1042	0.041468	0.001992	20.8204	3.078467	-163.372	0.048969	0.849401	-0.161411	-0.162713	0.046775	20.8204	-0.163096	-31.1023	-0.001504	NaN
30	1.000000	0.858691	7.36534e+06	-40139.1	955.818	-29791.9	0.000000	0.000000	6.859074	0.011679	NaN	0.000000	0.001685	0.001608	28.1044	0.083567	0.001992	41.9545	-141.031	-165.981	-0.034023	0.857420	-0.153422	-0.154693	0.011679	41.9545	-0.153631	-21.0811	-0.000554	NaN
30	1.000000	0.866728	7.36534e+06	-40139.1	955.819	-29791.9	0.000000	0.000000	6.867108	-0.053400	NaN	0.000000	0.001645	0.001602	28.1046	0.070574	0.001900	37.1499	26.7534	-167.45	-0.022617	0.865385	-0.145385	-0.146728	-0.053400	37.1499	-0.144307	-14.2342	0.003752	NaN
30	1.000000	0.874744	7.36534e+06	-40139.1	955.818	-29791.9	0.000000	0.000000	6.875124	-0.046918	NaN	0.000000	0.001605	0.001624	28.1045	0.047177	0.002039	23.1328	23.5685	-167.901	-0.087724	0.873401	-0.137369	-0.138712	-0.046918	23.1328	-0.135848	-9.873235	0.004752	NaN
30	1.000000	0.882702	7.36534e+06	-40139.1	955.818	-29791.9	0.000000	0.000000	6.883084	0.009412	NaN	0.000000	0.001596	0.001661	28.1043	0.018705	0.001994	9.378582	176.648	-164.916	0.011808	0.881408	-0.129411	-0.130705	0.009412	9.378582	-0.130163	-7.676901	-0.001226	NaN
30	1.000000	0.890748	7.36534e+06	-40139.1	955.818	-29791.9	0.000000	0.000000	6.891131	0.042202	NaN	0.000000	0.001617	0.001703	28.1033	0.036960	0.001830	20.1989	26.7038	-163.928	0.023309	0.889375	-0.121365	-0.122738	0.042202	20.1989	-0.122932	-5.532388	-0.007628	NaN
30	1.000000	0.898739	7.36534e+06	-40139.1	955.818	-29791.9	0.000000	0.000000	6.899123	0.050355	NaN	0.000000	0.001636	0.001659	28.1031	0.032179	0.001963	16.3957	-4.383415	-163.33	0.118889	0.897430	-0.113374	-0.114684	0.050355	16.3957	-0.115677	-3.944979	-0.012764	NaN
30	1.000000	0.906687	7.36534e+06	-40139.1	955.818	-29791.9	0.000000	0.000000	6.907067	-0.048632	NaN	0.000000	0.001618	0.001712	28.1037	0.033608	0.002028	16.5687	41.7412	-165.42	-0.062898	0.905442	-0.105426	-0.106671	-0.048632	16.5687	-0.103224	-2.151029	0.022609	NaN
30	1.000000	0.914734	7.36534e+06	-40139.1	955.819	-29791.9	0.000000	0.000000	6.915116	0.010975	NaN	0.000000	0.001635	0.001704	28.1031	0.070056	0.002004	34.966	95.7294	-167.18	-0.000500	0.913496	-0.097379	-0.098618	0.010975	34.966	-0.097614	-1.616392	-0.006790	NaN
30	1.000000	0.922714	7.36534e+06	-40139.1	955.819	-29791.9	0.000000	0.000000	6.923097	0.029024	NaN	0.000000	0.001652	0.001715	28.1031	0.059251	0.001898	31.2139	23.9464	-165.111	-0.018128	0.921453	-0.089399	-0.090661	0.029024	31.2139	-0.090096	-1.086617	-0.026711	NaN
30	1.000000	0.930737	7.36534e+06	-40139.1	955.819	-29791.9	0.000000	0.000000	6.931118	-0.012939	NaN	0.000000	0.001644	0.001712	28.1043	0.093495	0.001978	47.2775	-91.016	-162.598	-0.021827	0.929512	-0.081376	-0.082601	-0.012939	47.2775	-0.081171	-0.661980	0.019546	NaN
30	1.000000	0.938736	7.36534e+06	-40139.1	955.818	-29791.9	0.000000	0.000000	6.939116	-0.035081	NaN	0.000000	0.001666	0.001704	28.1038	0.136836	0.002038	67.1428	120.823	-165.691	-0.005385	0.937469	-0.073377	-0.074644	-0.035081	67.1428	-0.072986	-0.409300	0.085709	NaN
30	1.000000	0.946755	7.36534e+06	-40139.1	955.819	-29791.9	0.000000	0.000000	6.947137	0.003457	NaN	0.000000	0.001659	0.001639	28.1058	0.072680	0.001922	37.8104	178.379	-165.529	0.009660	0.945424	-0.065358	-0.066690	0.003457	37.8104	-0.065426	-0.256086	-0.013501	NaN
30	1.000000	0.954762	7.36534e+06	-40139.1	955.819	-29791.9	0.000000	0.000000	6.955145	0.049479	NaN	0.000000	0.001670	0.001680	28.1051	0.084617	0.002051	41.2498	-94.7307	-164.983	0.054448	0.953481	-0.057351	-0.058632	0.049479	41.2498	-0.058251	-0.160343	-0.308581	NaN
30	1.000000	0.962742	7.36534e+06	-40139.1	955.818	-29791.9	0.000000	0.000000	6.963123	-0.004430	NaN	0.000000	0.001637	0.001660	28.1053	0.038855	0.002012	19.308	15.2202	-165.707	0.069032	0.961432	-0.049372	-0.050681	-0.004430	19.308	-0.049200	-0.086297	0.051331	NaN
30	1.000000	0.970739	7.36534e+06	-40139.1	955.818	-29791.9	0.000000	0.000000	6.971122	0.029452	NaN	0.000000	0.001631	0.001641	28.1038	0.034653	0.002169	15.978	-162.452	-165.981	0.026465	0.969479	-0.041374	-0.042635	0.029452	15.978	-0.042757	-0.054877	-0.536699	NaN
30	1.000000	0.978763	7.36534e+06	-40139.1	955.818	-29791.9	0.000000	0.000000	6.979148	0.076488	NaN	0.000000	0.001646	0.001682	28.1043	0.082968	0.002004	41.4105	-175.362	-165.228	0.015964	0.977418	-0.033350	-0.034695	0.076488	41.4105	-0.034735	-0.031456	-2.431616	NaN
30	1.000000	0.986769	7.36534e+06	-40139.1	955.818	-29791.9	0.000000	0.000000	6.987151	-0.003871	NaN	0.000000	0.001634	0.001640	28.1039	0.119376	0.001958	60.9637	-169.191	-168.519	0.046629	0.985437	-0.025344	-0.026676	-0.003871	60.9637	-0.025296	-0.017174	0.225372	NaN
30	1.000000	0.994754	7.36534e+06	-40139.1	955.82	-29791.9	0.000000	0.000000	6.995137	0.016506	NaN	0.000000	0.001645	0.001676	28.1044	0.076157	0.002104	36.1947	-90.5438	-165.247	-0.016181	0.993470	-0.017359	-0.018643	0.016506	36.1947	-0.017701	-0.010965	-1.505377	NaN
30	1.000000	1.002761	7.36534e+06	-40139.1	955.819	-29791.9	0.000000	0.000000	7.003141	-0.039277	NaN	0.000000	0.001653	0.001638	28.104	0.064119	0.001931	33.2051	-10.4684	-162.621	0.036763	1.001436	-0.009352	-0.010677	-0.039277	33.2051	-0.008465	-0.005503	7.137487	NaN
30	1.000000	1.010776	7.36534e+06	-40139.1	955.818	-29791.9	0.000000	0.000000	7.011180	0.550690	NaN	0.000000	0.001621	0.001640	28.1043	0.505737	0.001960	258.085	10.7627	-168.441	0.502137	1.009498	-0.001338	-0.002616	0.550690	258.085	-0.002938	-0.002079	-264.891	NaN
30	1.000000	1.018726	7.36534e+06	-40139.1	955.818	-29791.9	0.000000	0.000000	7.019352	5.952347	NaN	0.000000	0.001643	0.001620	28.1048	5.955609	0.001870	3184.02	12.2295	-168.927	4.668600	1.017401	0.006612	0.005287	5.952347	3184.02	0.005210	0.004326	1375.92	44228.5
30	2.000000	1.022411	7.36534e+06	-40139.1	955.818	-29791.9	0.000000	0.000000	7.023256	11.2689	NaN	0.000000	0.001672	0.001651	28.1054	10.3343	0.001806	5723.68	6.756362	-171.259	10.7437	1.022055	0.010298	0.009942	11.2689	5723.68	0.008821	0.007901	1426.31	58832.1
30	2.000000	1.024368	7.36534e+06	-40139.1	955.818	-29791.9	0.000000	0.000000	7.025418	16.2838	NaN	0.000000	0.001661	0.001639	28.1051	12.008	0.001674	7172.26	6.322008	-173.814	15.2529	1.024065	0.012254	0.011951	16.2838	7172.26	0.010552	0.009801	1661.45	66190.4
30	2.000000	1.026411	7.36534e+06	-40139.1	955.818	-29791.9	0.000000	0.000000	7.027605	19.7837	NaN	0.000000	0.001691	0.001619	28.105	15.2473	0.001798	8480.18	4.699434	-173.652	19.3064	1.026049	0.014297	0.013936	19.7837	8480.18	0.012548	0.012153	1627.92	70281.5
30	2.000000	1.028372	7.36534e+06	-40139.1	955.818	-29791.9	0.000000	0.000000	7.029786	25.1279	NaN	0.000000	0.001721	0.001629	28.1045	16.6217	0.001781	9333.85	4.997768	-174.073	24.8369	1.028060	0.016259	0.015947	25.1279	9333.85	0.014240	0.014285	1759.03	71349.7
30	2.000000	1.030357	7.36534e+06	-40139.1	955.818	-29791.9	0.000000	0.000000	7.031924	28.8619	NaN	0.000000	0.001686	0.001676	28.1031	19.5778	0.001780	10999.1	7.999600	-178.67	28.6777	1.029988	0.018243	0.017875	28.8619	10999.1	0.016275	0.017024	1695.37	77019.5
30	2.000000	1.032378	7.36534e+06	-40139.1	955.818	-29791.9	0.000000	0.000000	7.034095	32.5101	NaN	0.000000	0.001643	0.001649	28.1037	21.5986	0.001798	12010.8	8.175467	-178.676	32.5186	1.032101	0.020264	0.019988	32.5101	12010.8	0.018234	0.019843	1638.33	77899.6
30	2.000000	1.034325	7.36534e+06	-40139.1	955.818	-29791.9	0.000000	0.000000	7.036309	38.9973	NaN	0.000000	0.001640	0.001672	28.1043	23.1196	0.001831	12628.4	2.719377	-174.52	38.9366	1.034026	0.022211	0.021912	38.9973	12628.4	0.019895	0.022378	1742.65	77127.5
30	2.000000	1.036310	7.36534e+06	-40139.1	955.817	-29791.9	0.000000	0.000000	7.038575	45.8497	NaN	0.000000	0.001666	0.001681	28.1025	25.2946	0.001739	14544.2	5.237164	-178.14	44.7063	1.036013	0.024196	0.023900	45.8497	14544.2	0.021832	0.025503	1797.79	83207.8
30	2.000000	1.038325	7.36534e+06	-40139.1	955.816	-29791.9	0.000000	0.000000	7.040790	50.6962	NaN	0.000000	0.001687	0.001680	28.1035	25.7598	0.001627	15833.9	2.919845	-176.841	50.0845	1.037961	0.026211	0.025847	50.6962	15833.9	0.023810	0.028886	1755.02	85116.7
30	2.000000	1.040311	7.36534e+06	-40139.1	955.818	-29791.9	0.000000	0.000000	7.042993	55.9824	NaN	0.000000	0.001683	0.001691	28.1028	28.4074	0.001792	15853.4	2.566538	-175.812	54.8863	1.040063	0.028197	0.027950	55.9824	15853.4	0.025549	0.032022	1748.25	80941.6
30	2.000000	1.042311	7.36534e+06	-40139.1	955.818	-29791.9	0.000000	0.000000	7.045311	63.7084	NaN	0.000000	0.001668	0.001661	28.1028	30.9678	0.001886	16423.8	4.641970	-178.442	63.8497	1.042010	0.030198	0.029897	63.7084	16423.8	0.027289	0.035312	1804.17	79852.4
30	2.000000	1.044283	7.36534e+06	-40139.1	955.818	-29791.9	0.000000	0.000000	7.047448	67.7321	NaN	0.000000	0.001634	0.001699	28.103	31.9674	0.001880	17004.6	4.222045	-178.237	64.8622	1.043953	0.032170	0.031840	67.7321	17004.6	0.029183	0.039067	1733.75	78602.3
30	2.000000	1.046309	7.36534e+06	-40139.1	955.818	-29791.9	0.000000	0.000000	7.049853	76.9735	NaN	0.000000	0.001702	0.001676	28.1033	34.1856	0.001810	18885.7	2.488318	-177.516	76.0414	1.046020	0.034195	0.033907	76.9735	18885.7	0.031139	0.043137	1784.41	83077.6
30	2.000000	1.048267	7.36534e+06	-40139.1	955.818	-29791.9	0.000000	0.000000	7.052020	82.0581	NaN	0.000000	0.001746	0.001657	28.1027	35.2249	0.001785	19737.2	6.834334	178.69	81.0261	1.047936	0.036153	0.035822	82.0581	19737.2	0.033035	0.047270	1735.95	82940.3
30	2.000000	1.050257	7.36534e+06	-40139.1	955.817	-29791.9	0.000000	0.000000	7.054347	90.254	NaN	0.000000	0.001675	0.001622	28.1021	37.8388	0.001807	20941.3	5.329492	178.346	88.1029	1.049956	0.038144	0.037843	90.254	20941.3	0.034911	0.051539	1751.16	84276.4
30	2.000000	1.052279	7.36534e+06	-40139.1	955.817	-29791.9	0.000000	0.000000	7.056666	97.4773	NaN	0.000000	0.001669	0.001659	28.1026	38.9292	0.001783	21831.1	2.875004	-178.268	95.5575	1.051933	0.040166	0.039820	97.4773	21831.1	0.036817	0.056061	1738.77	84240
30	2.000000	1.054306	7.36534e+06	-40139.1	955.818	-29791.9	0.000000	0.000000	7.058942	103.536	NaN	0.000000	0.001674	0.001661	28.1031	41.1334	0.001758	23394.8	5.476183	177.549	102.646	1.053915	0.042192	0.041802	103.536	23394.8	0.038873	0.061149	1693.18	86436.8
30	2.000000	1.056297	7.36534e+06	-40139.1	955.817	-29791.9	0.000000	0.000000	7.061373	114.214	NaN	0.000000	0.001633	0.001632	28.1024	44.3416	0.001838	24123.8	6.521945	176.838	113.773	1.055915	0.044184	0.043802	114.214	24123.8	0.040633	0.065675	1739.07	86003.8
30	2.000000	1.058219	7.36534e+06	-40139.1	955.817	-29791.9	0.000000	0.000000	7.063621	122.157	NaN	0.000000	0.001674	0.001669	28.1037	45.054	0.001799	25042.1	1.279680	-179.224	120.024	1.058031	0.046106	0.045918	122.157	25042.1	0.042448	0.070507	1732.55	86164.4
30	2.000000	1.060218	7.36534e+06	-40139.1	955.817	-29791.9	0.000000	0.000000	7.065938	129.904	NaN	0.000000	0.001646	0.001661	28.1036	47.8133	0.001801	26553.9	3.126722	179.12	126.571	1.059889	0.048105	0.047776	129.904	26553.9	0.044436	0.075995	1709.39	88005.5
30	2.000000	1.062274	7.36534e+06	-40139.1	955.817	-29791.9	0.000000	0.000000	7.068469	141.451	NaN	0.000000	0.001673	0.001653	28.1034	50.1782	0.001855	27053.1	5.702395	176.192	141.644	1.062045	0.050161	0.049932	141.451	27053.1	0.046240	0.081146	1743.17	86767.4
30	2.000000	1.064378	7.36534e+06	-40139.1	955.819	-29791.9	0.000000	0.000000	7.070922	149.958	NaN	0.000000	0.001617	0.001664	28.104	51.3627	0.001855	27693.9	3.619244	179.322	154.31	1.063978	0.052265	0.051864	149.958	27693.9	0.048204	0.086942	1724.79	85810.5
30	2.000000	1.066277	7.36534e+06	-40139.1	955.818	-29791.9	0.000000	0.000000	7.073376	163.465	NaN	0.000000	0.001634	0.001647	28.1033	53.0097	0.001791	29601.4	3.187275	178.247	162.307	1.065943	0.054164	0.053830	163.465	29601.4	0.050022	0.092482	1767.54	88932
30	2.000000	1.068271	7.36534e+06	-40139.1	955.818	-29791.9	0.000000	0.000000	7.075850	175.137	NaN	0.000000	0.001638	0.001654	28.103	54.6424	0.001773	30810.7	6.465701	174.999	173.24	1.067860	0.056158	0.055747	175.137	30810.7	0.051895	0.098359	1780.59	89756.8
30	2.000000	1.070268	7.36534e+06	-40139.1	955.818	-29791.9	0.000000	0.000000	7.078084	180.912	NaN	0.000000	0.001637	0.001629	28.1027	57.2585	0.001742	32862.7	3.834083	176.535	182.454	1.069949	0.058155	0.057835	180.912	32862.7	0.054026	0.105262	1718.68	92542.3
30	2.000000	1.072238	7.36534e+06	-40139.1	955.818	-29791.9	0.000000	0.000000	7.080810	199.305	NaN	0.000000	0.001623	0.001663	28.1032	59.6778	0.001891	31555.2	4.282871	176.471	194.522	1.071878	0.060124	0.059765	199.305	31555.2	0.055387	0.109790	1815.33	87009
30	2.000000	1.074227	7.36534e+06	-40139.1	955.818	-29791.9	0.000000	0.000000	7.083059	205.627	NaN	0.000000	0.001619	0.001656	28.1028	60.9856	0.001888	32309.9	4.358373	176.514	203.634	1.073990	0.062114	0.061876	205.627	32309.9	0.057341	0.116447	1765.85	86505.7
30	2.000000	1.076153	7.36534e+06	-40139.1	955.819	-29791.9	0.000000	0.000000	7.085326	213.927	NaN	0.000000	0.001663	0.001662	28.1029	63.379	0.001800	35218.4	2.550401	177.142	208.631	1.075894	0.064040	0.063780	213.927	35218.4	0.059484	0.123966	1725.69	91388.5
30	2.000000	1.078283	7.36534e+06	-40139.1	955.819	-29791.9	0.000000	0.000000	7.088387	236.6	NaN	0.000000	0.001609	0.001688	28.1035	63.8622	0.001783	35822.4	2.612814	177.287	236.101	1.077846	0.066169	0.065733	236.6	35822.4	0.061216	0.130204	1817.15	90701.8
30	2.000000	1.080168	7.36534e+06	-40139.1	955.819	-29791.9	0.000000	0.000000	7.090698	246.97	NaN	0.000000	0.001643	0.001696	28.1034	67.0819	0.001816	36939.4	4.596777	175.143	244.294	1.079988	0.068054	0.067875	246.97	36939.4	0.063040	0.136934	1803.56	91202.5
30	2.000000	1.082250	7.36534e+06	-40139.1	955.819	-29791.9	0.000000	0.000000	7.093237	258.065	NaN	0.000000	0.001622	0.001648	28.1037	67.7635	0.001874	36158.3	1.986506	177.766	255.969	1.081991	0.070137	0.069878	258.065	36158.3	0.064784	0.143521	1798.09	87201.2
30	2.000000	1.084190	7.36534e+06	-40139.1	955.819	-29791.9	0.000000	0.000000	7.095963	277.22	NaN	0.000000	0.001650	0.001684	28.1043	68.6044	0.001697	40435	2.783638	176.303	273.128	1.083856	0.072076	0.071743	277.22	40435	0.066934	0.151841	1825.72	94806
30	2.000000	1.086231	7.36534e+06	-40139.1	955.82	-29791.9	0.000000	0.000000	7.098337	285.301	NaN	0.000000	0.001646	0.001699	28.1037	72.8704	0.001774	41066	2.521957	175.694	284.932	1.085988	0.074118	0.073874	285.301	41066	0.068907	0.159670	1786.81	93895.4
30	2.000000	1.088167	7.36534e+06	-40139.1	955.819	-29791.9	0.000000	0.000000	7.101049	304.192	NaN	0.000000	0.001622	0.001673	28.1028	74.3325	0.001738	42766.5	4.288058	174.011	300.03	1.087883	0.076053	0.075770	304.192	42766.5	0.070719	0.167024	1821.25	95606.4
30	2.000000	1.090318	7.36534e+06	-40139.1	955.82	-29791.9	0.000000	0.000000	7.103576	313.331	NaN	0.000000	0.001644	0.001649	28.1027	77.3696	0.001780	43477.4	2.864917	176.031	318.165	1.089874	0.078205	0.077761	313.331	43477.4	0.072799	0.175662	1783.71	94776
30	2.000000	1.092233	7.36534e+06	-40139.1	955.819	-29791.9	0.000000	0.000000	7.106051	326.982	NaN	0.000000	0.001656	0.001633	28.1027	80.3076	0.001753	45809.5	4.681138	173.169	322.708	1.092074	0.080119	0.079960	326.982	45809.5	0.074766	0.184014	1776.94	97567.1
30	2.000000	1.094254	7.36534e+06	-40139.1	955.82	-29791.9	0.000000	0.000000	7.108962	348.625	NaN	0.000000	0.001627	0.001649	28.1024	81.5024	0.001865	43690.2	4.144440	174.328	347.462	1.093874	0.082140	0.081761	348.625	43690.2	0.076156	0.190026	1834.62	91569.5
30	2.000000	1.096133	7.36534e+06	-40139.1	955.819	-29791.9	0.000000	0.000000	7.111337	360.704	NaN	0.000000	0.001614	0.001660	28.1027	84.2349	0.001750	48130.3	3.693089	174.105	357.049	1.095966	0.084019	0.083853	360.704	48130.3	0.078399	0.199921	1804.23	98347.4
30	2.000000	1.098217	7.36534e+06	-40139.1	955.818	-29791.9	0.000000	0.000000	7.114107	377.393	NaN	0.000000	0.001705	0.001693	28.104	83.8054	0.001734	48326.7	0.335755	176.599	375.706	1.097899	0.086104	0.085786	377.393	48326.7	0.080247	0.208250	1812.22	96753.8
30	2.000000	1.100241	7.36534e+06	-40139.1	955.819	-29791.9	0.000000	0.000000	7.116757	392.599	NaN	0.000000	0.001710	0.001672	28.104	87.5484	0.001817	48174.6	5.296760	172.49	393.664	1.099843	0.088128	0.087730	392.599	48174.6	0.082016	0.216372	1814.46	94621.7
30	2.000000	1.102225	7.36534e+06	-40139.1	955.819	-29791.9	0.000000	0.000000	7.119587	413.191	NaN	0.000000	0.001688	0.001683	28.103	89.5477	0.001906	46973.4	7.297188	170.888	412.597	1.101923	0.090112	0.089810	413.191	46973.4	0.083515	0.223369	1849.82	90805.9
30	2.000000	1.104170	7.36534e+06	-40139.1	955.819	-29791.9	0.000000	0.000000	7.121789	419.456	NaN	0.000000	0.001710	0.001657	28.1031	90.525	0.001797	50378	3.612205	174.064	417.284	1.103944	0.092057	0.091830	419.456	50378	0.085812	0.234291	1790.32	95090.3
30	2.000000	1.106278	7.36534e+06	-40139.1	955.82	-29791.9	0.000000	0.000000	7.124744	440.077	NaN	0.000000	0.001712	0.001622	28.102	92.9686	0.001829	50827.3	4.116365	173.355	440.312	1.105929	0.094164	0.093816	440.077	50827.3	0.087671	0.243306	1808.74	94144.3
30	2.000000	1.108189	7.36534e+06	-40139.1	955.819	-29791.9	0.000000	0.000000	7.127692	465.301	NaN	0.000000	0.001727	0.001649	28.1013	93.5225	0.001786	52353.8	4.622730	172.394	462.051	1.107809	0.096075	0.095696	465.301	52353.8	0.089410	0.251886	1847.27	95305.9
30	2.000000	1.110215	7.36534e+06	-40139.1	955.821	-29791.9	0.000000	0.000000	7.130203	477.088	NaN	0.000000	0.001751	0.001630	28.1005	94.8551	0.001797	52776.9	4.467871	173.584	475.49	1.109889	0.098102	0.097776	477.088	52776.9	0.091322	0.261481	1824.56	94296.8
30	2.000000	1.112259	7.36534e+06	-40139.1	955.821	-29791.9	0.000000	0.000000	7.133030	496.143	NaN	0.000000	0.001763	0.001644	28.1015	98.0392	0.001759	55721.1	6.838645	170.153	495.715	1.111819	0.100146	0.099706	496.143	55721.1	0.093468	0.272446	1821.07	97533.2
30	2.000000	1.114199	7.36534e+06	-40139.1	955.82	-29791.9	0.000000	0.000000	7.135876	518.221	NaN	0.000000	0.001704	0.001678	28.1014	99.2649	0.001802	55087.8	6.105184	170.991	517.052	1.113843	0.102085	0.101730	518.221	55087.8	0.095030	0.280560	1847.09	95020.1
30	2.000000	1.116119	7.36534e+06	-40139.1	955.818	-29791.9	0.000000	0.000000	7.138114	525.933	NaN	0.000000	0.001687	0.001676	28.1003	101.185	0.001663	60827.6	-0.975907	176.836	519.427	1.115830	0.104006	0.103717	525.933	60827.6	0.097521	0.293732	1790.52	102541
30	2.000000	1.118283	7.36534e+06	-40139.1	955.82	-29791.9	0.000000	0.000000	7.140881	540.597	NaN	0.000000	0.001712	0.001680	28.1018	102.432	0.001718	59608.2	2.394812	173.468	540.775	1.118137	0.106170	0.106023	540.597	59608.2	0.099368	0.303681	1780.15	98825.8
30	2.000000	1.119097	7.36534e+06	-40139.1	955.821	-29791.9	0.000000	0.000000	7.142459	559.2	NaN	0.000000	0.001694	0.001604	28.0954	105.603	0.001816	58163.9	8.703231	167.438	553.162	1.118795	0.106983	0.106681	559.2	58163.9	0.099773	0.305881	1828.16	96084