File: remote_trans/data/nanoindenter/0828-1/data/Data_2025-08-06,11h17m57s/2025-07-22_16-23-58_1_765.txt
2025-07-22, 16:23:58, 1
Index	Phase	Displacement	Time	Pos X	Pos Y	Pos Z	Rot A	Rot B	Piezo Z	Force A	Force B	Gripper	Voltage A	Voltage B	Temperature	Amplitude force	Amplitude pos	Stiffness	Phase shift	Phase excitation	Force A raw	Displacement raw	HMax	HMax raw	Real Force	Real Stiffness	Contact Depth	Area	Hardness	Reduced Mod.
[#]	[#]	[um]	[s]	[um]	[um]	[um]	[m°]	[m°]	[um]	[uN]	[uN]	[V]	[V]	[V]	[°C]	[uN]	[um]	[N/m]	[°]	[°]	[uN]	[um]	[um]	[um]	[uN]	[N/m]	[um]	[um^2]	[MPa]	[MPa]
765	1.000000	0.002820	7.37254e+06	-38839.1	1005.82	-29795.9	0.000000	0.000000	6.002835	0.023745	NaN	0.000000	0.001597	0.001795	28.0841	0.044836	0.000929	48.2461	134.329	-171.948	-0.021666	0.001536	-1.142671	-1.143956	0.023745	48.2461	-1.143041	-1.894566E+15	-1.253330E-17	NaN
765	1.000000	0.012835	7.37254e+06	-38839.1	1005.82	-29795.9	0.000000	0.000000	6.012850	0.033066	NaN	0.000000	0.001603	0.001761	28.0842	0.036486	0.001214	30.0541	93.9738	16.1164	-0.113328	0.011415	-1.132657	-1.134077	0.033066	30.0541	-1.133482	-1.410332E+15	-2.344552E-17	NaN
765	1.000000	0.022727	7.37254e+06	-38839.1	1005.82	-29795.9	0.000000	0.000000	6.022741	0.000172	NaN	0.000000	0.001591	0.001760	28.0838	0.015901	0.001814	8.763776	-32.5971	-163.594	0.037688	0.021478	-1.122764	-1.124014	0.000172	8.763776	-1.122779	-1.013336E+15	-1.696497E-19	NaN
765	1.000000	0.032719	7.37254e+06	-38839.1	1005.82	-29795.9	0.000000	0.000000	6.032736	0.091666	NaN	0.000000	0.001631	0.001787	28.0836	0.103595	0.002079	49.8235	174.515	15.3871	0.042586	0.031408	-1.112773	-1.114083	0.091666	49.8235	-1.114153	-7.762748E+14	-1.180851E-16	NaN
765	1.000000	0.042757	7.37254e+06	-38839.1	1005.82	-29795.9	0.000000	0.000000	6.042768	-0.067430	NaN	0.000000	0.001568	0.001812	28.0839	0.061087	0.001884	32.424	81.9488	-168.743	-0.000662	0.041416	-1.102734	-1.104075	-0.067430	32.424	-1.101175	-5.198007E+14	1.297225E-16	NaN
765	1.000000	0.052752	7.37254e+06	-38839.1	1005.82	-29795.9	0.000000	0.000000	6.052766	0.006816	NaN	0.000000	0.001617	0.001764	28.0841	0.031156	0.001815	17.168	104.763	16.2277	0.054145	0.051317	-1.092739	-1.094174	0.006816	17.168	-1.093037	-4.041957E+14	-1.686360E-17	NaN
765	1.000000	0.062741	7.37254e+06	-38839.1	1005.82	-29795.9	0.000000	0.000000	6.062754	0.008419	NaN	0.000000	0.001632	0.001763	28.0839	0.103478	0.001909	54.2057	-139.125	-168.002	-0.007592	0.061440	-1.082751	-1.084052	0.008419	54.2057	-1.082867	-2.951411E+14	-2.852374E-17	NaN
765	1.000000	0.072704	7.37254e+06	-38839.1	1005.82	-29795.9	0.000000	0.000000	6.072720	0.049069	NaN	0.000000	0.001605	0.001755	28.0836	0.125748	0.001980	63.5238	108.816	10.3828	-0.029994	0.071398	-1.072787	-1.074094	0.049069	63.5238	-1.073366	-2.199962E+14	-2.230466E-16	NaN
765	1.000000	0.082749	7.37254e+06	-38839.1	1005.82	-29795.9	0.000000	0.000000	6.082764	0.032971	NaN	0.000000	0.001578	0.001754	28.0838	0.099141	0.002126	46.6351	-128.095	-164.492	-0.007780	0.081426	-1.062742	-1.064065	0.032971	46.6351	-1.063273	-1.609895E+14	-2.048034E-16	NaN
765	1.000000	0.092765	7.37254e+06	-38839.1	1005.82	-29795.9	0.000000	0.000000	6.092782	0.081320	NaN	0.000000	0.001584	0.001798	28.0837	0.020859	0.001975	10.5591	-109.735	9.412905	0.099731	0.091409	-1.052726	-1.054082	0.081320	10.5591	-1.058502	-1.388967E+14	-5.854728E-16	NaN
765	1.000000	0.102791	7.37254e+06	-38839.1	1005.82	-29795.9	0.000000	0.000000	6.102804	-0.016799	NaN	0.000000	0.001571	0.001737	28.0823	0.107529	0.002034	52.8711	156.066	-168.949	-0.033174	0.101460	-1.042700	-1.044032	-0.016799	52.8711	-1.042462	-8.454148E+13	1.987045E-16	NaN
765	1.000000	0.112748	7.37254e+06	-38839.1	1005.82	-29795.9	0.000000	0.000000	6.112760	-0.041284	NaN	0.000000	0.001626	0.001770	28.0822	0.135084	0.001849	73.0724	-3.851382	14.9544	-0.055398	0.111412	-1.032743	-1.034079	-0.041284	73.0724	-1.032320	-6.175598E+13	6.685090E-16	NaN
765	1.000000	0.122738	7.37254e+06	-38839.1	1005.82	-29795.9	0.000000	0.000000	6.122755	0.073104	NaN	0.000000	0.001590	0.001769	28.0822	0.069419	0.002042	33.9908	-114.981	-168.648	0.041255	0.121438	-1.022753	-1.024053	0.073104	33.9908	-1.024366	-4.827234E+13	-1.514416E-15	NaN
765	1.000000	0.132759	7.37254e+06	-38839.1	1005.82	-29795.9	0.000000	0.000000	6.132771	-0.027050	NaN	0.000000	0.001574	0.001760	28.0821	0.041920	0.001951	21.4919	-19.5288	14.5158	0.035895	0.131389	-1.012733	-1.014102	-0.027050	21.4919	-1.011789	-3.269302E+13	8.273844E-16	NaN
765	1.000000	0.142736	7.37254e+06	-38839.1	1005.82	-29795.9	0.000000	0.000000	6.142751	0.024604	NaN	0.000000	0.001575	0.001787	28.0822	0.068214	0.001968	34.6703	-149.742	-166.533	0.011305	0.141480	-1.002755	-1.004012	0.024604	34.6703	-1.003287	-2.512025E+13	-9.794368E-16	NaN
765	1.000000	0.152796	7.37254e+06	-38839.1	1005.82	-29795.9	0.000000	0.000000	6.152810	0.015275	NaN	0.000000	0.001587	0.001750	28.0821	0.019085	0.002025	9.425603	-51.8629	13.6406	0.040689	0.151429	-0.992696	-0.994063	0.015275	9.425603	-0.993911	-1.878385E+13	-8.132016E-16	NaN
765	1.000000	0.162734	7.37254e+06	-38839.1	1005.82	-29795.9	0.000000	0.000000	6.162748	0.010142	NaN	0.000000	0.001609	0.001769	28.0824	0.025680	0.002017	12.7311	41.197	-165.916	-0.035054	0.161486	-0.982757	-0.984006	0.010142	12.7311	-0.983354	-1.353945E+13	-7.490843E-16	NaN
765	1.000000	0.172767	7.37254e+06	-38839.1	1005.82	-29795.9	0.000000	0.000000	6.172780	-0.011127	NaN	0.000000	0.001580	0.001758	28.0819	0.148401	0.002103	70.5571	-131.409	12.7921	-0.065336	0.171460	-0.972724	-0.974031	-0.011127	70.5571	-0.972606	-9.700273E+12	1.147130E-15	NaN
765	1.000000	0.182759	7.37254e+06	-38839.1	1005.82	-29795.9	0.000000	0.000000	6.182773	0.013550	NaN	0.000000	0.001558	0.001758	28.0822	0.079667	0.001902	41.8794	-79.9679	-164.128	-0.014122	0.181495	-0.962733	-0.963996	0.013550	41.8794	-0.962975	-7.194132E+12	-1.883432E-15	NaN
765	1.000000	0.192782	7.37254e+06	-38839.1	1005.82	-29795.9	0.000000	0.000000	6.192796	0.023055	NaN	0.000000	0.001582	0.001751	28.0823	0.116299	0.001965	59.1854	60.6563	13.5615	0.004211	0.191398	-0.952710	-0.954094	0.023055	59.1854	-0.953002	-5.278483E+12	-4.367752E-15	NaN
765	1.000000	0.202771	7.37254e+06	-38839.1	1005.82	-29795.9	0.000000	0.000000	6.202784	-0.008489	NaN	0.000000	0.001594	0.001779	28.0825	0.202685	0.002013	100.698	-161.946	-168.1	0.004671	0.201478	-0.942721	-0.944013	-0.008489	100.698	-0.942657	-3.828143E+12	2.217569E-15	NaN
765	1.000000	0.212801	7.37254e+06	-38839.1	1005.82	-29795.9	0.000000	0.000000	6.212814	-0.011590	NaN	0.000000	0.001581	0.001758	28.0821	0.010893	0.001950	5.584811	-102.903	16.5734	0.047087	0.211389	-0.932691	-0.934103	-0.011590	5.584811	-0.931134	-2.676124E+12	4.330711E-15	NaN
765	1.000000	0.222784	7.37254e+06	-38839.1	1005.82	-29795.9	0.000000	0.000000	6.222799	0.035041	NaN	0.000000	0.001601	0.001764	28.082	0.050603	0.001977	25.594	4.674144	-167.917	0.007144	0.221506	-0.922707	-0.923986	0.035041	25.594	-0.923734	-2.126287E+12	-1.647972E-14	NaN
765	1.000000	0.232820	7.37254e+06	-38839.1	1005.82	-29795.9	0.000000	0.000000	6.232833	-0.024921	NaN	0.000000	0.001589	0.001760	28.0821	0.035428	0.002024	17.5023	-136.978	14.8846	-0.048179	0.231457	-0.912671	-0.914035	-0.024921	17.5023	-0.911604	-1.458215E+12	1.709007E-14	NaN
765	1.000000	0.242834	7.37254e+06	-38839.1	1005.82	-29795.9	0.000000	0.000000	6.242850	0.055023	NaN	0.000000	0.001574	0.001771	28.0834	0.018337	0.001957	9.369234	-6.218260	-164.578	0.030211	0.241487	-0.902657	-0.904005	0.055023	9.369234	-0.907062	-1.266121E+12	-4.345780E-14	NaN
765	1.000000	0.252818	7.37254e+06	-38839.1	1005.82	-29795.9	0.000000	0.000000	6.252831	-0.009438	NaN	0.000000	0.001574	0.001739	28.0833	0.018863	0.001999	9.435575	120.142	12.6941	0.019198	0.251465	-0.892673	-0.894027	-0.009438	9.435575	-0.891923	-7.905119E+11	1.193965E-14	NaN
765	1.000000	0.262801	7.37254e+06	-38839.1	1005.82	-29795.9	0.000000	0.000000	6.262815	0.004112	NaN	0.000000	0.001616	0.001740	28.083	0.157823	0.001940	81.3679	-159.085	-164.383	-0.006175	0.261541	-0.882690	-0.883951	0.004112	81.3679	-0.882728	-5.937427E+11	-6.925874E-15	NaN
765	1.000000	0.272824	7.37254e+06	-38839.1	1005.82	-29795.9	0.000000	0.000000	6.272836	-0.047742	NaN	0.000000	0.001590	0.001762	28.0831	0.044039	0.001984	22.1945	-61.6504	12.2672	-0.060740	0.271450	-0.872667	-0.874041	-0.047742	22.1945	-0.871054	-4.127623E+11	1.156643E-13	NaN
765	1.000000	0.282849	7.37254e+06	-38839.1	1005.82	-29795.9	0.000000	0.000000	6.282864	0.043629	NaN	0.000000	0.001584	0.001780	28.0829	0.069761	0.002016	34.6051	-9.541167	-165.073	0.025020	0.281481	-0.862643	-0.864011	0.043629	34.6051	-0.863588	-3.271044E+11	-1.333786E-13	NaN
765	1.000000	0.292833	7.37254e+06	-38839.1	1005.82	-29795.9	0.000000	0.000000	6.292846	-0.021739	NaN	0.000000	0.001597	0.001787	28.0829	0.103309	0.001898	54.4354	-113.931	14.5337	-0.000828	0.291475	-0.852658	-0.854017	-0.021739	54.4354	-0.852358	-2.305010E+11	9.431213E-14	NaN
765	1.000000	0.302830	7.37254e+06	-38839.1	1005.82	-29795.9	0.000000	0.000000	6.302845	0.033161	NaN	0.000000	0.001620	0.001775	28.083	0.038215	0.002000	19.1052	57.6905	-168.882	-0.001261	0.301577	-0.842661	-0.843914	0.033161	19.1052	-0.843963	-1.774109E+11	-1.869183E-13	NaN
765	1.000000	0.312827	7.37254e+06	-38839.1	1005.82	-29795.9	0.000000	0.000000	6.312840	-0.006717	NaN	0.000000	0.001575	0.001748	28.0833	0.074613	0.002067	36.0888	10.5147	16.5246	0.003197	0.311454	-0.832665	-0.834038	-0.006717	36.0888	-0.832525	-1.241677E+11	5.409775E-14	NaN
765	1.000000	0.322847	7.37254e+06	-38839.1	1005.82	-29795.9	0.000000	0.000000	6.322861	0.001513	NaN	0.000000	0.001560	0.001766	28.0832	0.037245	0.001958	19.0224	-72.4356	-165.346	-0.021975	0.321547	-0.822644	-0.823945	0.001513	19.0224	-0.822704	-9.138553E+10	-1.656065E-14	NaN
765	1.000000	0.332851	7.37254e+06	-38839.1	1005.82	-29795.9	0.000000	0.000000	6.332864	-0.015601	NaN	0.000000	0.001528	0.001759	28.083	0.082971	0.001912	43.399	7.235086	14.6216	0.067029	0.331413	-0.812640	-0.814078	-0.015601	43.399	-0.812370	-6.618045E+10	2.357272E-13	NaN
765	1.000000	0.342887	7.37254e+06	-38839.1	1005.82	-29795.9	0.000000	0.000000	6.342902	0.051513	NaN	0.000000	0.001610	0.001750	28.0829	0.079551	0.001915	41.5436	123.703	-169.006	0.104620	0.341577	-0.802605	-0.803914	0.051513	41.5436	-0.803535	-5.021563E+10	-1.025835E-12	NaN
765	1.000000	0.352878	7.37254e+06	-38839.1	1005.82	-29795.9	0.000000	0.000000	6.352892	-0.006494	NaN	0.000000	0.001688	0.001734	28.0834	0.055310	0.001970	28.069	116.27	15.1435	0.041449	0.351537	-0.792613	-0.793954	-0.006494	28.069	-0.792440	-3.549895E+10	1.829311E-13	NaN
765	1.000000	0.362881	7.37254e+06	-38839.1	1005.82	-29795.9	0.000000	0.000000	6.362893	-0.022482	NaN	0.000000	0.001673	0.001730	28.0829	0.015683	0.001997	7.853720	-46.9728	-168.314	0.006431	0.361517	-0.782611	-0.783974	-0.022482	7.853720	-0.780464	-2.440820E+10	9.210659E-13	NaN
765	1.000000	0.372847	7.37254e+06	-38839.1	1005.82	-29795.9	0.000000	0.000000	6.372860	-0.014630	NaN	0.000000	0.001666	0.001693	28.0828	0.095356	0.002002	47.6356	97.4045	14.2888	-0.022696	0.371525	-0.772645	-0.773966	-0.014630	47.6356	-0.772414	-1.897270E+10	7.711045E-13	NaN
765	1.000000	0.382880	7.37254e+06	-38839.1	1005.82	-29795.9	0.000000	0.000000	6.382897	0.078595	NaN	0.000000	0.001669	0.001807	28.0813	0.061020	0.002077	29.3803	67.475	-167.612	-0.066447	0.381588	-0.762612	-0.763904	0.078595	29.3803	-0.764618	-1.486340E+10	-5.287852E-12	NaN
765	1.000000	0.392862	7.37254e+06	-38839.1	1005.82	-29795.9	0.000000	0.000000	6.392875	-0.006901	NaN	0.000000	0.001659	0.001745	28.0816	0.151207	0.002045	73.9365	136.561	12.2191	-0.008429	0.391584	-0.752629	-0.753908	-0.006901	73.9365	-0.752559	-1.018724E+10	6.774632E-13	NaN
765	1.000000	0.402882	7.37254e+06	-38839.1	1005.82	-29795.9	0.000000	0.000000	6.402894	-0.041325	NaN	0.000000	0.001672	0.001725	28.0813	0.056747	0.001929	29.4187	176.951	-163.595	-0.009141	0.401597	-0.742609	-0.743894	-0.041325	29.4187	-0.741556	-7.215146E+9	5.727576E-12	NaN
765	1.000000	0.412918	7.37254e+06	-38839.1	1005.82	-29795.9	0.000000	0.000000	6.412934	0.053521	NaN	0.000000	0.001697	0.001741	28.0815	0.090585	0.001919	47.2001	106.112	11.8591	0.027815	0.411481	-0.732573	-0.734010	0.053521	47.2001	-0.733424	-5.590673E+9	-9.573278E-12	NaN
765	1.000000	0.422900	7.37254e+06	-38839.1	1005.82	-29795.9	0.000000	0.000000	6.422916	0.054846	NaN	0.000000	0.001645	0.001752	28.0814	0.024653	0.002048	12.0385	138.802	-165.86	0.024101	0.421572	-0.722592	-0.723920	0.054846	12.0385	-0.726009	-4.429995E+9	-1.238068E-11	NaN
765	1.000000	0.432894	7.37254e+06	-38839.1	1005.82	-29795.9	0.000000	0.000000	6.432907	-0.016267	NaN	0.000000	0.001628	0.001748	28.0814	0.089878	0.001963	45.7895	-169.406	10.8215	-0.058092	0.431514	-0.712597	-0.713978	-0.016267	45.7895	-0.712331	-2.883040E+9	5.642206E-12	NaN
765	1.000000	0.442890	7.37254e+06	-38839.1	1005.82	-29795.9	0.000000	0.000000	6.442904	0.024271	NaN	0.000000	0.001649	0.001723	28.0814	0.081036	0.002005	40.423	47.9272	-168.116	0.006897	0.441607	-0.702602	-0.703884	0.024271	40.423	-0.703052	-2.153802E+9	-1.126888E-11	NaN
765	1.000000	0.452921	7.37254e+06	-38839.1	1005.82	-29795.9	0.000000	0.000000	6.452935	0.017478	NaN	0.000000	0.001666	0.001732	28.0817	0.070941	0.001967	36.0676	-78.5352	16.5588	-0.063134	0.451582	-0.692571	-0.693909	0.017478	36.0676	-0.692934	-1.566800E+9	-1.115502E-11	NaN
765	1.000000	0.462923	7.37254e+06	-38839.1	1005.82	-29795.9	0.000000	0.000000	6.462937	0.021933	NaN	0.000000	0.001638	0.001747	28.0818	0.042777	0.002146	19.9327	-125.929	-167.102	-0.010554	0.461597	-0.682569	-0.683895	0.021933	19.9327	-0.683394	-1.160426E+9	-1.890069E-11	NaN
765	1.000000	0.472898	7.37254e+06	-38839.1	1005.82	-29795.9	0.000000	0.000000	6.472910	-0.038594	NaN	0.000000	0.001646	0.001747	28.0817	0.028405	0.001953	14.5476	-170.027	15.7629	-0.042344	0.471525	-0.672594	-0.673967	-0.038594	14.5476	-0.670604	-7.756315E+8	4.975860E-11	NaN
765	1.000000	0.482911	7.37254e+06	-38839.1	1005.82	-29795.9	0.000000	0.000000	6.482925	0.019180	NaN	0.000000	0.001659	0.001751	28.0816	0.051653	0.002049	25.2129	83.503	-171.569	-0.021679	0.481588	-0.662580	-0.663903	0.019180	25.2129	-0.663151	-6.132306E+8	-3.127730E-11	NaN
765	1.000000	0.492895	7.37254e+06	-38839.1	1005.82	-29795.9	0.000000	0.000000	6.492905	-0.081321	NaN	0.000000	0.001656	0.001786	28.082	0.125091	0.001947	64.2576	29.0314	11.754	-0.034825	0.491543	-0.652596	-0.653949	-0.081321	64.2576	-0.651647	-4.265968E+8	1.906281E-10	NaN
765	1.000000	0.502924	7.37254e+06	-38839.1	1005.82	-29795.9	0.000000	0.000000	6.502938	0.027670	NaN	0.000000	0.001646	0.001754	28.0817	0.093111	0.002033	45.8026	65.872	-166.202	0.033076	0.501562	-0.642568	-0.643929	0.027670	45.8026	-0.643021	-3.248882E+8	-8.516881E-11	NaN
765	1.000000	0.512941	7.37254e+06	-38839.1	1005.82	-29795.9	0.000000	0.000000	6.512956	0.026561	NaN	0.000000	0.001611	0.001736	28.083	0.036595	0.001943	18.8333	36.6575	13.0421	0.063495	0.511616	-0.632550	-0.633876	0.026561	18.8333	-0.633608	-2.413038E+8	-1.100743E-10	NaN
765	1.000000	0.522955	7.37254e+06	-38839.1	1005.82	-29796	0.000000	0.000000	6.522968	-0.016554	NaN	0.000000	0.001611	0.001740	28.083	0.102954	0.002081	49.476	94.8662	-168.689	-0.004530	0.521635	-0.622536	-0.623856	-0.016554	49.476	-0.622285	-1.686719E+8	9.814497E-11	NaN
765	1.000000	0.532909	7.37254e+06	-38839.1	1005.82	-29796	0.000000	0.000000	6.532924	0.048675	NaN	0.000000	0.001594	0.001769	28.0832	0.083887	0.001895	44.277	91.6938	15.3706	0.069182	0.531557	-0.612583	-0.613934	0.048675	44.277	-0.613407	-1.273458E+8	-3.822259E-10	NaN
765	1.000000	0.542919	7.37254e+06	-38839.1	1005.82	-29796	0.000000	0.000000	6.542932	-0.029579	NaN	0.000000	0.001591	0.001803	28.083	0.058422	0.001890	30.9081	-140.344	-164.593	-0.031655	0.541629	-0.602572	-0.603862	-0.029579	30.9081	-0.601854	-8.830761E+7	3.349538E-10	NaN
765	1.000000	0.552954	7.37254e+06	-38839.1	1005.82	-29796	0.000000	0.000000	6.552968	0.006560	NaN	0.000000	0.001580	0.001768	28.083	0.060670	0.001857	32.6626	-95.1379	11.7185	0.003093	0.551577	-0.592538	-0.593915	0.006560	32.6626	-0.592688	-6.602722E+7	-9.935431E-11	NaN
765	1.000000	0.562950	7.37254e+06	-38839.1	1005.82	-29796	0.000000	0.000000	6.562966	0.070080	NaN	0.000000	0.001604	0.001769	28.083	0.035668	0.002015	17.7029	170.485	-167.782	0.110806	0.561645	-0.582542	-0.583846	0.070080	17.7029	-0.585511	-5.257265E+7	-1.333014E-9	NaN
765	1.000000	0.572963	7.37254e+06	-38839.1	1005.82	-29796	0.000000	0.000000	6.572978	0.032458	NaN	0.000000	0.001617	0.001722	28.083	0.061636	0.002059	29.9422	143.746	12.3279	0.054607	0.571602	-0.572528	-0.573889	0.032458	29.9422	-0.573341	-3.571014E+7	-9.089236E-10	NaN
765	1.000000	0.582956	7.37254e+06	-38839.1	1005.82	-29796	0.000000	0.000000	6.582971	0.020705	NaN	0.000000	0.001583	0.001708	28.083	0.082364	0.002005	41.0704	-167.487	-168.109	0.006303	0.581673	-0.562535	-0.563819	0.020705	41.0704	-0.562913	-2.562549E+7	-8.079965E-10	NaN
765	1.000000	0.592942	7.37254e+06	-38839.1	1005.82	-29796	0.000000	0.000000	6.592955	-0.003420	NaN	0.000000	0.001588	0.001699	28.0831	0.093933	0.002269	41.3919	-153.88	15.7456	-0.060053	0.591593	-0.552550	-0.553898	-0.003420	41.3919	-0.552488	-1.838260E+7	1.860296E-10	NaN
765	1.000000	0.602938	7.37254e+06	-38839.1	1005.82	-29796	0.000000	0.000000	6.602952	0.006061	NaN	0.000000	0.001597	0.001724	28.0834	0.083255	0.002012	41.3874	-146.2	-164.626	-0.058852	0.601650	-0.542553	-0.543842	0.006061	41.3874	-0.542663	-1.343640E+7	-4.511027E-10	NaN
765	1.000000	0.612981	7.37254e+06	-38839.1	1005.82	-29796	0.000000	0.000000	6.612994	-0.005432	NaN	0.000000	0.001630	0.001688	28.0832	0.022126	0.001999	11.0698	130.868	11.8514	0.030381	0.611614	-0.532511	-0.533877	-0.005432	11.0698	-0.532143	-9.60121e+06	5.657721E-10	NaN
765	1.000000	0.622960	7.37254e+06	-38839.1	1005.82	-29796	0.000000	0.000000	6.622974	0.010293	NaN	0.000000	0.001637	0.001664	28.0831	0.075692	0.002148	35.2426	-110.82	-167.422	-0.044064	0.621706	-0.522531	-0.523786	0.010293	35.2426	-0.522750	-7.10947e+06	-1.447784E-9	NaN
765	1.000000	0.632981	7.37254e+06	-38839.1	1005.82	-29796	0.000000	0.000000	6.632995	0.000533	NaN	0.000000	0.001664	0.001682	28.0829	0.090782	0.002149	42.2517	-118.131	13.0152	0.001015	0.631619	-0.512510	-0.513873	0.000533	42.2517	-0.512520	-5.1228e+06	-1.041324E-10	NaN
765	1.000000	0.642960	7.37254e+06	-38839.1	1005.82	-29796	0.000000	0.000000	6.642971	-0.061794	NaN	0.000000	0.001651	0.001756	28.0834	0.056841	0.001971	28.8424	174.406	-167.457	-0.004379	0.641659	-0.502531	-0.503832	-0.061794	28.8424	-0.500924	-3.53112e+06	1.749970E-8	NaN
765	1.000000	0.653006	7.37254e+06	-38839.1	1005.82	-29796	0.000000	0.000000	6.653019	0.001686	NaN	0.000000	0.001622	0.001708	28.0817	0.049610	0.001920	25.8374	63.027	16.3076	0.038100	0.651604	-0.492486	-0.493888	0.001686	25.8374	-0.492535	-2.69654e+06	-6.252748E-10	NaN
765	1.000000	0.662978	7.37254e+06	-38839.1	1005.82	-29796	0.000000	0.000000	6.662991	-0.016674	NaN	0.000000	0.001642	0.001757	28.0819	0.046912	0.001945	24.1216	-62.3878	-166.423	-0.008680	0.661687	-0.482513	-0.483804	-0.016674	24.1216	-0.481995	-1.92066e+06	8.681625E-9	NaN
765	1.000000	0.672997	7.37254e+06	-38839.1	1005.82	-29796	0.000000	0.000000	6.673009	-0.019738	NaN	0.000000	0.001628	0.001730	28.082	0.071052	0.001893	37.5395	-96.8468	10.2302	0.071131	0.671669	-0.472495	-0.473822	-0.019738	37.5395	-0.472100	-1.39592e+06	1.413998E-8	NaN
765	1.000000	0.683013	7.37254e+06	-38839.1	1005.82	-29796	0.000000	0.000000	6.683026	-0.021074	NaN	0.000000	0.001630	0.001721	28.0819	0.011089	0.002124	5.220476	-64.0934	-165.112	-0.019281	0.681704	-0.462478	-0.463787	-0.021074	5.220476	-0.459451	-927463	2.272188E-8	NaN
765	1.000000	0.693003	7.37254e+06	-38839.1	1005.82	-29796	0.000000	0.000000	6.693014	-0.045568	NaN	0.000000	0.001658	0.001720	28.0816	0.063962	0.001987	32.1945	-157.12	10.8504	-0.015889	0.691620	-0.452489	-0.453872	-0.045568	32.1945	-0.451427	-715220	6.371122E-8	NaN
765	1.000000	0.703020	7.37254e+06	-38839.1	1005.82	-29796	0.000000	0.000000	6.703037	0.076777	NaN	0.000000	0.001641	0.001753	28.0819	0.029786	0.001989	14.973	-30.5054	-165.451	0.107413	0.701706	-0.442471	-0.443785	0.076777	14.973	-0.446317	-605980	-1.266991E-7	NaN
765	1.000000	0.713016	7.37254e+06	-38839.1	1005.82	-29796	0.000000	0.000000	6.713029	-0.027123	NaN	0.000000	0.001643	0.001732	28.0818	0.071632	0.002038	35.1544	-145.808	13.4097	0.016136	0.711620	-0.432475	-0.433871	-0.027123	35.1544	-0.431896	-379213	7.152411E-8	NaN
765	1.000000	0.723026	7.37254e+06	-38839.1	1005.82	-29796	0.000000	0.000000	6.723041	0.029921	NaN	0.000000	0.001612	0.001770	28.0819	0.119072	0.002003	59.4457	160.077	-163.23	0.014631	0.721766	-0.422466	-0.423726	0.029921	59.4457	-0.422843	-282308	-1.059889E-7	NaN
765	1.000000	0.733005	7.37254e+06	-38839.1	1005.82	-29796	0.000000	0.000000	6.733018	-0.008338	NaN	0.000000	0.001602	0.001779	28.0817	0.061007	0.002031	30.0391	-57.6308	14.9252	-0.011180	0.731651	-0.412487	-0.413840	-0.008338	30.0391	-0.412279	-199891	4.171202E-8	NaN
765	1.000000	0.743019	7.37254e+06	-38839.1	1005.82	-29796	0.000000	0.000000	6.743033	-0.006641	NaN	0.000000	0.001600	0.001744	28.0825	0.075204	0.001929	38.9931	-16.4443	-166.142	-0.029162	0.741800	-0.402472	-0.403692	-0.006641	38.9931	-0.402344	-144350	4.600756E-8	NaN
765	1.000000	0.753018	7.37254e+06	-38839.1	1005.82	-29796	0.000000	0.000000	6.753033	0.027745	NaN	0.000000	0.001627	0.001807	28.0819	0.055933	0.002033	27.5062	63.8493	14.9936	-0.051319	0.751652	-0.392473	-0.393840	0.027745	27.5062	-0.393230	-106990	-2.593205E-7	NaN
765	1.000000	0.763007	7.37254e+06	-38839.1	1005.82	-29796	0.000000	0.000000	6.763022	0.020090	NaN	0.000000	0.001639	0.001758	28.0822	0.070973	0.001927	36.8223	53.4266	-168.167	0.000431	0.761742	-0.382484	-0.383750	0.020090	36.8223	-0.382893	-76101.3	-2.639837E-7	NaN
765	1.000000	0.772989	7.37254e+06	-38839.1	1005.82	-29796	0.000000	0.000000	6.773002	-0.016094	NaN	0.000000	0.001652	0.001789	28.082	0.068523	0.002025	33.8445	174.765	12.5593	0.044518	0.771729	-0.372502	-0.373763	-0.016094	33.8445	-0.372145	-53335.2	3.017547E-7	NaN
765	1.000000	0.783046	7.37254e+06	-38839.1	1005.82	-29796	0.000000	0.000000	6.783058	-0.023943	NaN	0.000000	0.001644	0.001706	28.0827	0.047517	0.001993	23.8382	-81.5971	-167.835	0.051057	0.781788	-0.362446	-0.363703	-0.023943	23.8382	-0.361692	-37696.5	6.351425E-7	NaN
765	1.000000	0.793062	7.37254e+06	-38839.1	1005.82	-29796	0.000000	0.000000	6.793075	-0.012204	NaN	0.000000	0.001612	0.001696	28.0831	0.124774	0.002058	60.6323	83.1902	12.9546	0.015081	0.791708	-0.352429	-0.353783	-0.012204	60.6323	-0.352278	-27545.8	4.430540E-7	NaN
765	1.000000	0.803046	7.37254e+06	-38839.1	1005.82	-29796	0.000000	0.000000	6.803061	0.025441	NaN	0.000000	0.001598	0.001711	28.0836	0.070471	0.002074	33.9772	-131.072	-166.546	0.064081	0.801703	-0.342445	-0.343788	0.025441	33.9772	-0.343007	-20200	-1.259434E-6	NaN
765	1.000000	0.813049	7.37254e+06	-38839.1	1005.82	-29796	0.000000	0.000000	6.813062	-0.016260	NaN	0.000000	0.001634	0.001732	28.0834	0.062031	0.002098	29.5661	-68.8488	12.6899	0.027064	0.811670	-0.332443	-0.333821	-0.016260	29.5661	-0.332030	-13969.2	1.163964E-6	NaN
765	1.000000	0.823044	7.37254e+06	-38839.1	1005.82	-29796	0.000000	0.000000	6.823056	-0.054164	NaN	0.000000	0.001610	0.001769	28.0836	0.112784	0.002016	55.9532	-28.9856	-165.126	-0.020702	0.821718	-0.322447	-0.323773	-0.054164	55.9532	-0.321721	-9861.9	5.492219E-6	NaN
765	1.000000	0.833073	7.37254e+06	-38839.1	1005.82	-29796	0.000000	0.000000	6.833088	0.033576	NaN	0.000000	0.001629	0.001758	28.0831	0.113117	0.001977	57.2043	112.132	12.1348	0.007923	0.831699	-0.312419	-0.313792	0.033576	57.2043	-0.312859	-7300.13	-4.599431E-6	NaN
765	1.000000	0.843094	7.37254e+06	-38839.1	1005.82	-29796	0.000000	0.000000	6.843109	0.026525	NaN	0.000000	0.001643	0.001744	28.0831	0.132038	0.002067	63.8785	131.85	-166.953	-0.002814	0.841740	-0.302397	-0.303751	0.026525	63.8785	-0.302709	-5163.25	-5.137274E-6	NaN
765	1.000000	0.853086	7.37254e+06	-38839.1	1005.82	-29796	0.000000	0.000000	6.853100	0.016042	NaN	0.000000	0.001645	0.001770	28.0832	0.086033	0.001980	43.4404	68.2467	12.5671	0.041243	0.851686	-0.292406	-0.293806	0.016042	43.4404	-0.292683	-3659.8	-4.383295E-6	NaN
765	1.000000	0.863090	7.37254e+06	-38839.1	1005.82	-29796	0.000000	0.000000	6.863101	-0.075417	NaN	0.000000	0.001620	0.001764	28.0832	0.073516	0.002005	36.6614	67.1132	-165.795	-0.107315	0.861834	-0.282401	-0.283658	-0.075417	36.6614	-0.280859	-2431.75	3.101344E-5	NaN
765	1.000000	0.873072	7.37254e+06	-38839.1	1005.82	-29796	0.000000	0.000000	6.873085	-0.024415	NaN	0.000000	0.001641	0.001754	28.083	0.044555	0.001873	23.7829	164.622	12.69	0.005571	0.871669	-0.272419	-0.273823	-0.024415	23.7829	-0.271649	-1764.41	1.383741E-5	NaN
765	1.000000	0.883070	7.37254e+06	-38839.1	1005.82	-29796	0.000000	0.000000	6.883085	0.035052	NaN	0.000000	0.001699	0.001751	28.0831	0.041372	0.002036	20.3231	-7.906514	-165.087	0.029178	0.881798	-0.262421	-0.263694	0.035052	20.3231	-0.263715	-1335.88	-2.623927E-5	NaN
765	1.000000	0.893068	7.37254e+06	-38839.1	1005.82	-29796	0.000000	0.000000	6.893082	0.008620	NaN	0.000000	0.001692	0.001769	28.0834	0.078508	0.002134	36.7875	-77.6587	11.5921	0.088976	0.891730	-0.252424	-0.253761	0.008620	36.7875	-0.252600	-901.823	-9.558526E-6	NaN
765	1.000000	0.903068	7.37254e+06	-38839.1	1005.82	-29796	0.000000	0.000000	6.903083	0.018815	NaN	0.000000	0.001677	0.001766	28.0831	0.123396	0.002095	58.9024	172.334	-165.973	0.013153	0.901840	-0.242423	-0.243651	0.018815	58.9024	-0.242663	-632.534	-2.974577E-5	NaN
765	1.000000	0.913087	7.37254e+06	-38839.1	1005.82	-29796	0.000000	0.000000	6.913100	-0.003600	NaN	0.000000	0.001706	0.001724	28.0833	0.055831	0.001990	28.062	-2.462792	12.2239	-0.062661	0.911706	-0.232405	-0.233786	-0.003600	28.062	-0.232309	-435.435	8.267108E-6	NaN
765	1.000000	0.923085	7.37254e+06	-38839.1	1005.82	-29796	0.000000	0.000000	6.923100	0.034263	NaN	0.000000	0.001665	0.001716	28.0821	0.034306	0.001990	17.243	114.173	-168.366	0.002293	0.921815	-0.222407	-0.223676	0.034263	17.243	-0.223897	-320.483	-0.000107	NaN
765	1.000000	0.933099	7.37254e+06	-38839.1	1005.82	-29796	0.000000	0.000000	6.933111	-0.028825	NaN	0.000000	0.001646	0.001752	28.0821	0.058846	0.002108	27.9138	-165.037	14.2125	-0.010260	0.931750	-0.212392	-0.213741	-0.028825	27.9138	-0.211618	-203.7	0.000142	NaN
765	1.000000	0.943118	7.37254e+06	-38839.1	1005.82	-29796	0.000000	0.000000	6.943130	-0.027808	NaN	0.000000	0.001685	0.001720	28.0819	0.024824	0.002074	11.969	-121.804	-169.733	0.015694	0.941839	-0.202374	-0.203652	-0.027808	11.969	-0.200631	-134.916	0.000206	NaN
765	1.000000	0.953091	7.37254e+06	-38839.1	1005.82	-29796	0.000000	0.000000	6.953104	-0.021983	NaN	0.000000	0.001661	0.001756	28.0821	0.038997	0.001851	21.0654	-171.15	15.9468	-0.033646	0.951772	-0.192400	-0.193719	-0.021983	21.0654	-0.191618	-95.7231	0.000230	NaN
765	1.000000	0.963130	7.37254e+06	-38839.1	1005.82	-29796	0.000000	0.000000	6.963142	-0.029791	NaN	0.000000	0.001643	0.001717	28.0821	0.108287	0.002023	53.5334	-69.855	-168.154	-0.008555	0.961835	-0.182361	-0.183656	-0.029791	53.5334	-0.181944	-65.8386	0.000452	NaN
765	1.000000	0.973150	7.37254e+06	-38839.1	1005.82	-29796	0.000000	0.000000	6.973168	0.092842	NaN	0.000000	0.001633	0.001700	28.0819	0.114510	0.002060	55.5926	171.048	15.3865	0.127994	0.971708	-0.172341	-0.173784	0.092842	55.5926	-0.173594	-47.4	-0.001959	NaN
765	1.000000	0.983120	7.37254e+06	-38839.1	1005.82	-29796	0.000000	0.000000	6.983134	0.004521	NaN	0.000000	0.001653	0.001733	28.0818	0.048180	0.001957	24.6236	-147.864	-168.53	0.079491	0.981819	-0.162372	-0.163673	0.004521	24.6236	-0.162509	-30.3698	-0.000149	NaN
765	1.000000	0.993156	7.37254e+06	-38839.1	1005.82	-29796	0.000000	0.000000	6.993170	0.012707	NaN	0.000000	0.001707	0.001758	28.082	0.024632	0.001990	12.3784	-159.848	11.6713	0.007389	0.991793	-0.152335	-0.153699	0.012707	12.3784	-0.153105	-20.625	-0.000616	NaN
765	1.000000	1.003116	7.37254e+06	-38839.1	1005.82	-29796	0.000000	0.000000	7.003129	-0.020669	NaN	0.000000	0.001668	0.001688	28.082	0.053846	0.001939	27.7678	-159	-171.182	-0.036191	1.001835	-0.142375	-0.143657	-0.020669	27.7678	-0.141817	-12.7937	0.001616	NaN
765	1.000000	1.013122	7.37254e+06	-38839.1	1005.82	-29796	0.000000	0.000000	7.013137	0.030190	NaN	0.000000	0.001712	0.001667	28.0818	0.057167	0.001996	28.6406	-20.9225	13.1114	-0.054468	1.011802	-0.132369	-0.133689	0.030190	28.6406	-0.133160	-8.770923	-0.003442	NaN
765	1.000000	1.023167	7.37254e+06	-38839.1	1005.82	-29796	0.000000	0.000000	7.023180	-0.012057	NaN	0.000000	0.001683	0.001725	28.0819	0.046458	0.001928	24.0919	39.2889	-166.596	0.067113	1.021785	-0.122325	-0.123707	-0.012057	24.0919	-0.121949	-5.287716	0.002280	NaN
765	1.000000	1.033125	7.37254e+06	-38839.1	1005.82	-29796	0.000000	0.000000	7.033138	-0.017048	NaN	0.000000	0.001744	0.001723	28.0822	0.070272	0.002033	34.5606	-67.8696	13.4381	0.033362	1.031780	-0.112366	-0.113712	-0.017048	34.5606	-0.111996	-3.309589	0.005151	NaN
765	1.000000	1.043139	7.37254e+06	-38839.1	1005.82	-29796	0.000000	0.000000	7.043152	-0.009794	NaN	0.000000	0.001687	0.001731	28.0818	0.028709	0.002112	13.5907	-126.565	-165.622	0.049800	1.041795	-0.102353	-0.103697	-0.009794	13.5907	-0.101812	-2.003340	0.004889	NaN
765	1.000000	1.053140	7.37254e+06	-38839.1	1005.82	-29796	0.000000	0.000000	7.053150	-0.096526	NaN	0.000000	0.001720	0.001733	28.0818	0.008222	0.001937	4.243526	13.3636	17.0783	0.038743	1.051776	-0.092351	-0.093715	-0.096526	4.243526	-0.075291	-0.469937	0.205403	NaN
765	1.000000	1.063137	7.37254e+06	-38839.1	1005.82	-29796	0.000000	0.000000	7.063151	-0.011011	NaN	0.000000	0.001681	0.001664	28.0829	0.072764	0.001877	38.7716	102.854	-168.759	0.037696	1.061878	-0.082354	-0.083613	-0.011011	38.7716	-0.082141	-0.699594	0.015739	NaN
765	1.000000	1.073166	7.37254e+06	-38839.1	1005.82	-29796	0.000000	0.000000	7.073178	-0.036363	NaN	0.000000	0.001727	0.001676	28.0834	0.084110	0.001936	43.4398	-36.9032	9.273642	-0.022375	1.071814	-0.072325	-0.073678	-0.036363	43.4398	-0.071697	-0.378523	0.096066	NaN
765	1.000000	1.083141	7.37254e+06	-38839.1	1005.82	-29796	0.000000	0.000000	7.083154	-0.013127	NaN	0.000000	0.001678	0.001701	28.0831	0.056390	0.002105	26.7938	-33.8903	-167.945	0.019971	1.081843	-0.062350	-0.063648	-0.013127	26.7938	-0.061983	-0.205121	0.063996	NaN
765	1.000000	1.093136	7.37254e+06	-38839.1	1005.82	-29796	0.000000	0.000000	7.093150	-0.005164	NaN	0.000000	0.001678	0.001686	28.0832	0.055916	0.002082	26.8549	132.29	14.8672	-0.023667	1.091796	-0.052355	-0.053695	-0.005164	26.8549	-0.052211	-0.106368	0.048551	NaN
765	1.000000	1.103171	7.37254e+06	-38839.1	1005.82	-29796	0.000000	0.000000	7.103183	-0.034310	NaN	0.000000	0.001729	0.001706	28.0832	0.038242	0.002012	19.0113	151.78	-167.444	0.003336	1.101866	-0.042321	-0.043625	-0.034310	19.0113	-0.040967	-0.048391	0.709021	NaN
765	1.000000	1.113187	7.37254e+06	-38839.1	1005.82	-29796	0.000000	0.000000	7.113203	0.048285	NaN	0.000000	0.001641	0.001693	28.0834	0.036975	0.001983	18.6444	38.5358	10.1546	0.026685	1.111756	-0.032304	-0.033736	0.048285	18.6444	-0.034247	-0.030435	-1.586512	NaN
765	1.000000	1.123206	7.37254e+06	-38839.1	1005.82	-29796	0.000000	0.000000	7.123219	-0.012356	NaN	0.000000	0.001648	0.001721	28.0831	0.095908	0.001941	49.4136	-16.7851	-164.173	0.101962	1.121823	-0.022286	-0.023669	-0.012356	49.4136	-0.022098	-0.014203	0.869944	NaN
765	1.000000	1.133185	7.37254e+06	-38839.1	1005.82	-29796	0.000000	0.000000	7.133208	0.223861	NaN	0.000000	0.001636	0.001711	28.0833	0.366151	0.001894	193.35	25.5205	12.4569	0.141318	1.131769	-0.012306	-0.013722	0.223861	193.35	-0.013175	-0.008203	-27.2895	NaN
765	1.000000	1.143166	7.37254e+06	-38839.1	1005.82	-29796	0.000000	0.000000	7.143207	0.659184	NaN	0.000000	0.001592	0.001721	28.0836	0.638202	0.002087	305.75	31.0423	-167.354	0.589537	1.141866	-0.002325	-0.003625	0.659184	305.75	-0.003942	-0.002741	-240.45	NaN
765	1.000000	1.153203	7.37254e+06	-38839.1	1005.82	-29796	0.000000	0.000000	7.153267	1.234392	NaN	0.000000	0.001713	0.001693	28.0832	1.328728	0.001969	674.894	26.4209	13.0787	1.101565	1.151849	0.007712	0.006357	1.234392	674.894	0.006340	0.005390	229.033	8399.06
765	1.000000	1.163178	7.37254e+06	-38839.1	1005.82	-29796	0.000000	0.000000	7.163386	4.731150	NaN	0.000000	0.001678	0.001697	28.0834	3.419192	0.001778	1922.75	20.2413	-170.165	3.975632	1.161884	0.017686	0.016393	4.731150	1922.75	0.015841	0.016423	288.077	13707.8
765	2.000000	1.170266	7.37254e+06	-38839.1	1005.82	-29796	0.000000	0.000000	7.170677	9.665729	NaN	0.000000	0.001686	0.001698	28.0831	6.565735	0.001852	3544.4	18.7445	4.065921	9.468182	1.169874	0.024775	0.024382	9.665729	3544.4	0.022730	0.027014	357.799	19702.4
765	2.000000	1.172705	7.37254e+06	-38839.1	1005.82	-29796	0.000000	0.000000	7.173215	12.0896	NaN	0.000000	0.001639	0.001653	28.0836	8.013207	0.002032	3943.39	16.0097	-172.106	11.9619	1.172473	0.027213	0.026982	12.0896	3943.39	0.024914	0.030859	391.769	20509.4
765	2.000000	1.175182	7.37254e+06	-38839.1	1005.82	-29796	0.000000	0.000000	7.175791	14.485	NaN	0.000000	0.001715	0.001686	28.0831	9.358834	0.002006	4664.3	14.4143	6.734418	13.8924	1.174856	0.029691	0.029364	14.485	4664.3	0.027362	0.035452	408.576	22632.8
765	2.000000	1.177670	7.37254e+06	-38839.1	1005.82	-29796	0.000000	0.000000	7.178415	17.8089	NaN	0.000000	0.001712	0.001700	28.0823	10.6406	0.001762	6039.56	13.5289	-175.926	17.6506	1.177400	0.032178	0.031909	17.8089	6039.56	0.029967	0.040675	437.832	27359.9
765	2.000000	1.180170	7.37254e+06	-38839.1	1005.82	-29796	0.000000	0.000000	7.181066	21.4756	NaN	0.000000	0.001697	0.001709	28.0823	12.954	0.001795	7216.99	17.2941	1.928362	20.78	1.179723	0.034679	0.034231	21.4756	7216.99	0.032447	0.045968	467.184	30753.9
765	2.000000	1.182683	7.37254e+06	-38839.1	1005.82	-29796	0.000000	0.000000	7.183561	21.0299	NaN	0.000000	0.001669	0.001728	28.0822	14.7332	0.001862	7912.16	16.5191	-178.929	21.6065	1.182401	0.037191	0.036909	21.0299	7912.16	0.035198	0.052208	402.812	31637.4
765	2.000000	1.185149	7.37254e+06	-38839.1	1005.82	-29796	0.000000	0.000000	7.186004	20.4856	NaN	0.000000	0.001676	0.001714	28.0816	16.5071	0.001985	8316.79	15.0778	1.575672	19.8775	1.184788	0.039657	0.039297	20.4856	8316.79	0.037810	0.058491	350.238	31418.5
765	2.000000	1.187603	7.37254e+06	-38839.1	1005.82	-29796	0.000000	0.000000	7.188694	26.2203	NaN	0.000000	0.001678	0.001730	28.0823	18.5673	0.001783	10411.7	13.5673	179.87	25.6211	1.187356	0.042112	0.041864	26.2203	10411.7	0.040223	0.064606	405.848	37424.5
765	2.000000	1.190161	7.37254e+06	-38839.1	1005.82	-29796	0.000000	0.000000	7.191471	31.5523	NaN	0.000000	0.001646	0.001717	28.0822	20.5596	0.001779	11555.8	9.582562	2.454505	30.5698	1.189773	0.044669	0.044281	31.5523	11555.8	0.042622	0.070979	444.53	39628.6
765	2.000000	1.192631	7.37254e+06	-38839.1	1005.82	-29796	0.000000	0.000000	7.194285	39.9233	NaN	0.000000	0.001686	0.001672	28.0852	23.4884	0.001629	14416.6	9.394772	178.612	39.4152	1.192324	0.047140	0.046833	39.9233	14416.6	0.045063	0.077766	513.379	47232.6
765	2.000000	1.195073	7.37254e+06	-38839.1	1005.82	-29796	0.000000	0.000000	7.197120	49.4802	NaN	0.000000	0.001695	0.001676	28.0835	27.0834	0.001819	14891.2	8.737924	-0.956795	47.2867	1.194765	0.049582	0.049274	49.4802	14891.2	0.047090	0.083631	591.651	47045.7
765	2.000000	1.197599	7.37254e+06	-38839.1	1005.82	-29796	0.000000	0.000000	7.200136	61.4052	NaN	0.000000	0.001712	0.001723	28.0825	30.1071	0.001877	16036.9	8.654145	177.645	59.7091	1.197348	0.052107	0.051857	61.4052	16036.9	0.049236	0.090065	681.789	48822.2
765	2.000000	1.200099	7.37254e+06	-38839.1	1005.82	-29796	0.000000	0.000000	7.203515	82.8018	NaN	0.000000	0.001727	0.001743	28.0824	31.9505	0.001786	17884.7	4.552250	1.393268	79.542	1.199720	0.054607	0.054228	82.8018	17884.7	0.051135	0.095954	862.93	52750.1
765	2.000000	1.202542	7.37254e+06	-38839.1	1005.82	-29796	0.000000	0.000000	7.206663	99.9426	NaN	0.000000	0.001702	0.001739	28.0824	34.3137	0.001651	20783.2	6.519209	176.703	97.7633	1.202255	0.057051	0.056763	99.9426	20783.2	0.053444	0.103356	966.976	59063.4
765	2.000000	1.205104	7.37254e+06	-38839.1	1005.82	-29796	0.000000	0.000000	7.209975	118.191	NaN	0.000000	0.001715	0.001750	28.082	37.3757	0.001789	20894.9	4.852524	-1.581257	116.244	1.204704	0.059613	0.059213	118.191	20894.9	0.055371	0.109733	1077.07	57629.5
765	2.000000	1.207576	7.37254e+06	-38839.1	1005.82	-29796	0.000000	0.000000	7.213254	137.846	NaN	0.000000	0.001717	0.001757	28.0824	39.5496	0.001736	22784.8	3.426808	179.023	136.306	1.207266	0.062085	0.061774	137.846	22784.8	0.057548	0.117161	1176.55	60817.3
765	2.000000	1.210114	7.37254e+06	-38839.1	1005.82	-29796	0.000000	0.000000	7.216600	157.513	NaN	0.000000	0.001726	0.001691	28.0834	41.4062	0.001691	24485.2	4.510494	-2.586234	156.033	1.209779	0.064623	0.064287	157.513	24485.2	0.059798	0.125085	1259.24	63251.9
765	2.000000	1.212615	7.37254e+06	-38839.1	1005.82	-29796	0.000000	0.000000	7.219738	173.02	NaN	0.000000	0.001736	0.001696	28.0836	44.1022	0.001835	24032.5	7.267230	175.186	172.797	1.212295	0.067123	0.066803	173.02	24032.5	0.061724	0.132062	1310.14	60420.2
765	2.000000	1.215046	7.37254e+06	-38839.1	1005.82	-29796	0.000000	0.000000	7.222595	183.397	NaN	0.000000	0.001721	0.001676	28.0834	45.7424	0.001756	26052.8	6.624526	-5.221495	179.681	1.214682	0.069554	0.069191	183.397	26052.8	0.064275	0.141581	1295.35	63259.4
765	2.000000	1.217574	7.37254e+06	-38839.1	1005.82	-29796	0.000000	0.000000	7.225924	202.862	NaN	0.000000	0.001732	0.001717	28.0837	48.7808	0.001868	26119.8	8.534532	171.885	201.256	1.217313	0.072083	0.071822	202.862	26119.8	0.066258	0.149198	1359.68	61781.8
765	2.000000	1.220071	7.37254e+06	-38839.1	1005.82	-29796	0.000000	0.000000	7.229456	228.053	NaN	0.000000	0.001752	0.001739	28.0834	50.1804	0.001846	27188.1	6.573919	-6.097487	224.169	1.219710	0.074580	0.074219	228.053	27188.1	0.068289	0.157197	1450.74	62651.2
765	2.000000	1.222501	7.37254e+06	-38839.1	1005.82	-29796	0.000000	0.000000	7.232624	246.01	NaN	0.000000	0.001683	0.001702	28.0844	51.5015	0.001833	28090.1	3.705418	177.048	242.684	1.222266	0.077009	0.076774	246.01	28090.1	0.070441	0.165886	1483.01	63011.6
765	2.000000	1.225076	7.37254e+06	-38839.1	1005.82	-29796	0.000000	0.000000	7.236229	271.08	NaN	0.000000	0.001647	0.001696	28.0832	54.1669	0.001822	29735	3.906098	-3.889165	268.291	1.224671	0.079585	0.079180	271.08	29735	0.072747	0.175443	1545.11	64859.4
765	2.000000	1.227593	7.37254e+06	-38839.1	1005.82	-29796	0.000000	0.000000	7.239789	296.473	NaN	0.000000	0.001647	0.001732	28.0833	56.8691	0.001855	30659.6	6.489275	173.107	296.357	1.227275	0.082101	0.081783	296.473	30659.6	0.074849	0.184370	1608.04	65237.2
765	2.000000	1.230130	7.37254e+06	-38839.1	1005.82	-29796	0.000000	0.000000	7.243215	318.086	NaN	0.000000	0.001663	0.001709	28.083	58.3095	0.001748	33355.4	6.354924	-7.180060	317.127	1.229731	0.084639	0.084240	318.086	33355.4	0.077487	0.195869	1623.97	68858.4
765	2.000000	1.232493	7.37254e+06	-38839.1	1005.82	-29796	0.000000	0.000000	7.246783	347.411	NaN	0.000000	0.001654	0.001708	28.0833	59.743	0.001760	33953.2	3.979017	174.952	344.123	1.232147	0.087002	0.086656	347.411	33953.2	0.079328	0.204089	1702.25	68666.2
765	2.000000	1.235112	7.37254e+06	-38839.1	1005.82	-29796	0.000000	0.000000	7.250526	374.776	NaN	0.000000	0.001670	0.001721	28.083	63.126	0.001756	35945.5	5.830639	-7.447709	374.562	1.234728	0.089621	0.089237	374.776	35945.5	0.081801	0.215380	1740.07	70764.4
765	2.000000	1.237449	7.37254e+06	-38839.1	1005.82	-29796	0.000000	0.000000	7.253533	391.067	NaN	0.000000	0.001712	0.001671	28.0834	65.5796	0.001863	35210.3	4.339958	173.879	386.801	1.237304	0.091958	0.091813	391.067	35210.3	0.083628	0.223899	1746.62	67985.5
765	2.000000	1.240015	7.37254e+06	-38839.1	1005.82	-29796	0.000000	0.000000	7.257595	427.497	NaN	0.000000	0.001684	0.001714	28.083	67.0028	0.001774	37772.5	4.240379	-6.628549	422.537	1.239745	0.094523	0.094254	427.497	37772.5	0.086035	0.235365	1816.32	71134.1
765	2.000000	1.242521	7.37254e+06	-38839.1	1005.82	-29796	0.000000	0.000000	7.261561	463.033	NaN	0.000000	0.001680	0.001689	28.0834	69.2658	0.001825	37959.7	6.296380	171.699	459.785	1.242241	0.097029	0.096750	463.033	37959.7	0.087881	0.244335	1895.08	70162.3
765	2.000000	1.245021	7.37254e+06	-38839.1	1005.82	-29796	0.000000	0.000000	7.264332	469.598	NaN	0.000000	0.001665	0.001687	28.0819	71.4084	0.001750	40796	2.379772	-5.432118	465.246	1.244832	0.099530	0.099340	469.598	40796	0.090897	0.259331	1810.81	73192.1
765	2.000000	1.247565	7.37254e+06	-38839.1	1005.82	-29796	0.000000	0.000000	7.268457	508.094	NaN	0.000000	0.001648	0.001702	28.0823	75.2325	0.001859	40464.4	3.068737	174.021	507.227	1.247290	0.102073	0.101799	508.094	40464.4	0.092656	0.268271	1893.96	71377.1
765	2.000000	1.249940	7.37254e+06	-38839.1	1005.82	-29796	0.000000	0.000000	7.271628	527.466	NaN	0.000000	0.001683	0.001662	28.0819	77.0736	0.001913	40281.3	3.136642	-5.658277	518.611	1.249718	0.104448	0.104227	527.466	40281.3	0.094627	0.278459	1894.23	69742.3
765	2.000000	1.252493	7.37254e+06	-38839.1	1005.82	-29796	0.000000	0.000000	7.275779	566.332	NaN	0.000000	0.001656	0.001725	28.0821	79.746	0.001802	44258.6	5.850669	170.402	562.536	1.252162	0.107002	0.106670	566.332	44258.6	0.097405	0.293111	1932.15	74688.7
765	2.000000	1.255022	7.37254e+06	-38839.1	1005.82	-29796	0.000000	0.000000	7.279978	606.975	NaN	0.000000	0.001656	0.001699	28.0818	80.7467	0.001794	45002.2	2.229907	-5.176979	602.925	1.254621	0.109531	0.109130	606.975	45002.2	0.099415	0.303936	1997.05	74578.8
765	2.000000	1.257492	7.37254e+06	-38839.1	1005.82	-29796	0.000000	0.000000	7.283552	633.852	NaN	0.000000	0.001641	0.001669	28.0819	83.6364	0.001785	46849.9	4.142879	172.296	629.195	1.257281	0.112001	0.111790	633.852	46849.9	0.101853	0.317311	1997.57	75986.9
765	2.000000	1.259964	7.37254e+06	-38839.1	1005.82	-29796	0.000000	0.000000	7.287706	674.791	NaN	0.000000	0.001648	0.001686	28.0817	85.0337	0.001732	49108.9	1.906439	-5.672439	665.904	1.259656	0.114472	0.114165	674.791	49108.9	0.104167	0.330251	2043.26	78074.9
765	2.000000	1.262476	7.37254e+06	-38839.1	1005.82	-29796	0.000000	0.000000	7.291694	710.703	NaN	0.000000	0.001681	0.001656	28.0819	88.3024	0.001868	47276.3	4.708437	171.724	704.693	1.262185	0.116984	0.116694	710.703	47276.3	0.105710	0.339015	2096.38	74183.4
765	2.000000	1.264890	7.37254e+06	-38839.1	1005.82	-29796	0.000000	0.000000	7.295366	741.303	NaN	0.000000	0.001643	0.001694	28.0817	90.0065	0.001878	47926.2	2.884810	-6.900642	730.961	1.264618	0.119399	0.119127	741.303	47926.2	0.107798	0.351053	2111.66	73902.7
765	2.000000	1.267459	7.37254e+06	-38839.1	1005.82	-29796	0.000000	0.000000	7.298765	761.509	NaN	0.000000	0.001635	0.001703	28.0818	92.4436	0.001881	49146.9	5.252231	170.828	757.303	1.267213	0.121968	0.121722	761.509	49146.9	0.110347	0.366010	2080.57	74220.3
765	2.000000	1.267991	7.37254e+06	-38839.1	1005.82	-29796	0.000000	0.000000	7.299696	771.23	NaN	0.000000	0.001646	0.001673	28.0822	92.6793	0.001833	50570.8	6.185568	-10.7028	763.631	1.267570	0.122500	0.122079	771.23	50570.8	0.111062	0.370259	2082.95	75931.2