File: remote_trans/data/nanoindenter/0828-1/data/Data_2025-08-06,11h17m57s/2025-07-22_16-23-58_1_349.txt
2025-07-22, 16:23:58, 1
Index	Phase	Displacement	Time	Pos X	Pos Y	Pos Z	Rot A	Rot B	Piezo Z	Force A	Force B	Gripper	Voltage A	Voltage B	Temperature	Amplitude force	Amplitude pos	Stiffness	Phase shift	Phase excitation	Force A raw	Displacement raw	HMax	HMax raw	Real Force	Real Stiffness	Contact Depth	Area	Hardness	Reduced Mod.
[#]	[#]	[um]	[s]	[um]	[um]	[um]	[m°]	[m°]	[um]	[uN]	[uN]	[V]	[V]	[V]	[°C]	[uN]	[um]	[N/m]	[°]	[°]	[uN]	[um]	[um]	[um]	[uN]	[N/m]	[um]	[um^2]	[MPa]	[MPa]
349	1.000000	0.003073	7.36847e+06	-56089.1	955.818	-29740	0.000000	0.000000	6.002807	-0.023624	NaN	0.000000	0.001544	0.001673	28.0797	0.089759	0.000974	92.1551	128.641	-164.393	-0.038271	0.001835	-1.194401	-1.195639	-0.023624	92.1551	-1.194209	-9.187435E+15	2.571384E-18	NaN
349	1.000000	0.013127	7.36847e+06	-56089.1	955.818	-29740	0.000000	0.000000	6.012863	0.013488	NaN	0.000000	0.001561	0.001739	28.0795	0.111824	0.001099	101.777	73.967	16.4237	-0.032457	0.011693	-1.184347	-1.185781	0.013488	101.777	-1.184446	-6.798851E+15	-1.983839E-18	NaN
349	1.000000	0.023009	7.36847e+06	-56089.1	955.818	-29740	0.000000	0.000000	6.022743	-0.017031	NaN	0.000000	0.001585	0.001742	28.0799	0.066351	0.001627	40.791	97.8386	-165.758	0.026768	0.021685	-1.174466	-1.175789	-0.017031	40.791	-1.174153	-4.949122E+15	3.441270E-18	NaN
349	1.000000	0.033014	7.36847e+06	-56089.1	955.817	-29740	0.000000	0.000000	6.032750	0.026940	NaN	0.000000	0.001564	0.001801	28.0798	0.052150	0.001924	27.1093	-33.5854	15.6678	0.083922	0.031682	-1.164461	-1.165792	0.026940	27.1093	-1.165206	-3.755274E+15	-7.174001E-18	NaN
349	1.000000	0.043017	7.36847e+06	-56089.1	955.819	-29740	0.000000	0.000000	6.042754	0.045544	NaN	0.000000	0.001562	0.001762	28.0802	0.119624	0.001942	61.6111	-145.37	-166.071	0.040435	0.041696	-1.154457	-1.155778	0.045544	61.6111	-1.155012	-2.741619E+15	-1.661192E-17	NaN
349	1.000000	0.053031	7.36847e+06	-56089.1	955.818	-29740	0.000000	0.000000	6.052767	0.039492	NaN	0.000000	0.001528	0.001726	28.0798	0.051622	0.002046	25.2308	-21.3396	14.6865	-0.023812	0.051664	-1.144444	-1.145810	0.039492	25.2308	-1.145618	-2.051471E+15	-1.925038E-17	NaN
349	1.000000	0.063040	7.36847e+06	-56089.1	955.817	-29740	0.000000	0.000000	6.062774	-0.027299	NaN	0.000000	0.001511	0.001766	28.0804	0.036708	0.002058	17.8404	-53.2615	-163.026	-0.010439	0.061705	-1.134434	-1.135769	-0.027299	17.8404	-1.133286	-1.401844E+15	1.947335E-17	NaN
349	1.000000	0.073042	7.36847e+06	-56089.1	955.818	-29740	0.000000	0.000000	6.072776	-0.023436	NaN	0.000000	0.001521	0.001719	28.0797	0.019120	0.001941	9.851667	95.1445	13.8463	-0.007505	0.071710	-1.124433	-1.125764	-0.023436	9.851667	-1.122648	-1.009260E+15	2.322137E-17	NaN
349	1.000000	0.083041	7.36847e+06	-56089.1	955.819	-29740	0.000000	0.000000	6.082777	0.020288	NaN	0.000000	0.001524	0.001757	28.0798	0.007503	0.002052	3.655877	-156.492	-161.143	0.071901	0.081764	-1.114433	-1.115711	0.020288	3.655877	-1.118595	-8.904802E+14	-2.278359E-17	NaN
349	1.000000	0.093017	7.36847e+06	-56089.1	955.818	-29740	0.000000	0.000000	6.092756	0.119599	NaN	0.000000	0.001528	0.001760	28.0798	0.014895	0.002050	7.267494	114.91	13.39	0.120406	0.091704	-1.104458	-1.105771	0.119599	7.267494	-1.116800	-8.424446E+14	-1.419662E-16	NaN
349	1.000000	0.103063	7.36847e+06	-56089.1	955.819	-29740	0.000000	0.000000	6.102800	0.042157	NaN	0.000000	0.001534	0.001800	28.0799	0.098383	0.001888	52.1009	-159.53	-167.282	0.002023	0.101694	-1.094411	-1.095780	0.042157	52.1009	-1.095018	-4.297208E+14	-9.810299E-17	NaN
349	1.000000	0.112990	7.36847e+06	-56089.1	955.817	-29740	0.000000	0.000000	6.112724	-0.012918	NaN	0.000000	0.001553	0.001745	28.0796	0.060253	0.001899	31.736	-177.537	15.0701	-0.007769	0.111637	-1.084484	-1.085837	-0.012918	31.736	-1.084179	-3.073573E+14	4.202910E-17	NaN
349	1.000000	0.123061	7.36847e+06	-56089.1	955.818	-29740	0.000000	0.000000	6.122797	0.014908	NaN	0.000000	0.001561	0.001754	28.0804	0.044789	0.001901	23.5563	-142.263	-164.302	0.044001	0.121688	-1.074413	-1.075787	0.014908	23.5563	-1.074888	-2.305950E+14	-6.465022E-17	NaN
349	1.000000	0.133052	7.36847e+06	-56089.1	955.819	-29740	0.000000	0.000000	6.132791	0.081460	NaN	0.000000	0.001536	0.001737	28.0809	0.077142	0.002107	36.6061	104.934	15.8103	0.072877	0.131708	-1.064422	-1.065766	0.081460	36.6061	-1.066091	-1.756578E+14	-4.637414E-16	NaN
349	1.000000	0.143065	7.36847e+06	-56089.1	955.818	-29740	0.000000	0.000000	6.142799	-0.011180	NaN	0.000000	0.001507	0.001763	28.0809	0.030062	0.001906	15.7742	-51.964	-163.809	0.006086	0.141767	-1.054409	-1.055707	-0.011180	15.7742	-1.053878	-1.203754E+14	9.287861E-17	NaN
349	1.000000	0.153089	7.36847e+06	-56089.1	955.818	-29740	0.000000	0.000000	6.152826	0.047591	NaN	0.000000	0.001561	0.001774	28.0809	0.038750	0.002000	19.3788	39.5252	13.4306	0.060897	0.151670	-1.044385	-1.045805	0.047591	19.3788	-1.046227	-9.499399E+13	-5.009847E-16	NaN
349	1.000000	0.163072	7.36847e+06	-56089.1	955.818	-29740	0.000000	0.000000	6.162809	0.055395	NaN	0.000000	0.001572	0.001761	28.0809	0.077427	0.002156	35.9177	-159.368	-166.357	-0.012144	0.161798	-1.034403	-1.035676	0.055395	35.9177	-1.035559	-6.827373E+13	-8.113679E-16	NaN
349	1.000000	0.173077	7.36847e+06	-56089.1	955.819	-29740	0.000000	0.000000	6.172813	0.039326	NaN	0.000000	0.001562	0.001777	28.081	0.023201	0.002004	11.5764	-35.7009	15.5522	0.000680	0.171680	-1.024398	-1.025794	0.039326	11.5764	-1.026946	-5.228705E+13	-7.521159E-16	NaN
349	1.000000	0.183073	7.36847e+06	-56089.1	955.817	-29740	0.000000	0.000000	6.182808	0.003492	NaN	0.000000	0.001557	0.001778	28.0809	0.015725	0.002098	7.493616	-67.9502	-164.664	-0.018620	0.181740	-1.014401	-1.015735	0.003492	7.493616	-1.014751	-3.583571E+13	-9.743545E-17	NaN
349	1.000000	0.193086	7.36847e+06	-56089.1	955.819	-29740	0.000000	0.000000	6.192821	0.003078	NaN	0.000000	0.001588	0.001774	28.0809	0.103545	0.002047	50.5815	92.8145	15.4948	-0.005997	0.191688	-1.004388	-1.005786	0.003078	50.5815	-1.004434	-2.602927E+13	-1.182698E-16	NaN
349	1.000000	0.203075	7.36847e+06	-56089.1	955.819	-29740	0.000000	0.000000	6.202809	-0.014846	NaN	0.000000	0.001586	0.001749	28.0808	0.051586	0.002046	25.212	137.277	-165.817	-0.011069	0.201787	-0.994399	-0.995687	-0.014846	25.212	-0.993958	-1.881086E+13	7.892395E-16	NaN
349	1.000000	0.213080	7.36847e+06	-56089.1	955.819	-29740	0.000000	0.000000	6.212814	-0.029872	NaN	0.000000	0.001600	0.001744	28.0806	0.030877	0.001969	15.6842	71.7497	17.7636	-0.018575	0.211736	-0.984394	-0.985739	-0.029872	15.6842	-0.982966	-1.337712E+13	2.233070E-15	NaN
349	1.000000	0.223084	7.36847e+06	-56089.1	955.818	-29740	0.000000	0.000000	6.222821	0.065410	NaN	0.000000	0.001617	0.001786	28.0806	0.042639	0.001854	23.004	-47.3732	-165.032	0.071120	0.221774	-0.974390	-0.975701	0.065410	23.004	-0.976523	-1.095377E+13	-5.971444E-15	NaN
349	1.000000	0.233099	7.36847e+06	-56089.1	955.818	-29740	0.000000	0.000000	6.232834	0.005731	NaN	0.000000	0.001639	0.001742	28.0806	0.041738	0.002077	20.0916	12.1573	15.5881	0.020010	0.231696	-0.964376	-0.965778	0.005731	20.0916	-0.964589	-7.563764E+12	-7.576681E-16	NaN
349	1.000000	0.243090	7.36847e+06	-56089.1	955.818	-29740	0.000000	0.000000	6.242826	0.009625	NaN	0.000000	0.001550	0.001760	28.081	0.018997	0.001992	9.538474	50.31	-163.486	-0.028210	0.241791	-0.954384	-0.955683	0.009625	9.538474	-0.955141	-5.640945E+12	-1.706193E-15	NaN
349	1.000000	0.253110	7.36847e+06	-56089.1	955.819	-29740	0.000000	0.000000	6.252846	0.028262	NaN	0.000000	0.001551	0.001775	28.081	0.008325	0.001904	4.372296	-91.2577	14.7742	0.022945	0.251779	-0.944364	-0.945695	0.028262	4.372296	-0.949212	-4.692491E+12	-6.022713E-15	NaN
349	1.000000	0.263102	7.36847e+06	-56089.1	955.818	-29740	0.000000	0.000000	6.262840	0.091009	NaN	0.000000	0.001497	0.001789	28.0796	0.044637	0.002051	21.766	114.332	-161.393	0.071199	0.261806	-0.934373	-0.935668	0.091009	21.766	-0.937508	-3.262281E+12	-2.789737E-14	NaN
349	1.000000	0.273116	7.36847e+06	-56089.1	955.817	-29740	0.000000	0.000000	6.272850	-0.010963	NaN	0.000000	0.001521	0.001791	28.0796	0.061771	0.001852	33.3457	29.5903	15.8559	0.071961	0.271752	-0.924358	-0.925722	-0.010963	33.3457	-0.924112	-2.151374E+12	5.095771E-15	NaN
349	1.000000	0.283150	7.36847e+06	-56089.1	955.819	-29740	0.000000	0.000000	6.282884	-0.011841	NaN	0.000000	0.001504	0.001793	28.0795	0.066672	0.002009	33.1801	74.0018	-161.275	0.032473	0.281808	-0.914324	-0.915667	-0.011841	33.1801	-0.914056	-1.573799E+12	7.523811E-15	NaN
349	1.000000	0.293120	7.36847e+06	-56089.1	955.819	-29740	0.000000	0.000000	6.292855	0.016936	NaN	0.000000	0.001527	0.001846	28.0798	0.050051	0.001994	25.0949	-5.474002	14.2022	-0.033774	0.291730	-0.904354	-0.905744	0.016936	25.0949	-0.904861	-1.182328E+12	-1.432453E-14	NaN
349	1.000000	0.303107	7.36847e+06	-56089.1	955.819	-29740	0.000000	0.000000	6.302842	0.001837	NaN	0.000000	0.001542	0.001800	28.0794	0.046955	0.002102	22.3362	-137.08	-162.652	-0.034488	0.301787	-0.894367	-0.895687	0.001837	22.3362	-0.894429	-8.546355E+11	-2.149461E-15	NaN
349	1.000000	0.313143	7.36847e+06	-56089.1	955.818	-29740	0.000000	0.000000	6.312878	0.015938	NaN	0.000000	0.001593	0.001799	28.0797	0.038254	0.002040	18.7483	51.9805	12.2046	-0.073566	0.311792	-0.884332	-0.885682	0.015938	18.7483	-0.884969	-6.366519E+11	-2.503434E-14	NaN
349	1.000000	0.323123	7.36847e+06	-56089.1	955.819	-29740	0.000000	0.000000	6.322858	-0.006843	NaN	0.000000	0.001598	0.001801	28.0795	0.069385	0.002200	31.5386	-114.126	-165.856	0.050091	0.321825	-0.874351	-0.875649	-0.006843	31.5386	-0.874188	-4.550952E+11	1.503702E-14	NaN
349	1.000000	0.333121	7.36847e+06	-56089.1	955.819	-29740	0.000000	0.000000	6.332853	-0.074789	NaN	0.000000	0.001646	0.001771	28.0796	0.050681	0.002052	24.7003	-127.452	15.2484	-0.107373	0.331774	-0.864353	-0.865700	-0.074789	24.7003	-0.862082	-3.121053E+11	2.396285E-13	NaN
349	1.000000	0.343115	7.36848e+06	-56089.1	955.818	-29740	0.000000	0.000000	6.342850	0.012273	NaN	0.000000	0.001575	0.001777	28.0793	0.037494	0.001937	19.3539	-168.109	-166.406	-0.044397	0.341825	-0.854359	-0.855649	0.012273	19.3539	-0.854835	-2.490014E+11	-4.928872E-14	NaN
349	1.000000	0.353120	7.36848e+06	-56089.1	955.818	-29740	0.000000	0.000000	6.352856	0.020929	NaN	0.000000	0.001595	0.001791	28.0795	0.087436	0.001948	44.8759	44.7507	12.4367	-0.023857	0.351783	-0.844354	-0.845691	0.020929	44.8759	-0.844704	-1.815570E+11	-1.152744E-13	NaN
349	1.000000	0.363139	7.36848e+06	-56089.1	955.82	-29740	0.000000	0.000000	6.362874	0.005225	NaN	0.000000	0.001584	0.001781	28.0794	0.025801	0.002018	12.7879	121.391	-162.556	-0.062447	0.361906	-0.834336	-0.835569	0.005225	12.7879	-0.834642	-1.326468E+11	-3.938791E-14	NaN
349	1.000000	0.373141	7.36848e+06	-56089.1	955.818	-29740	0.000000	0.000000	6.372877	0.015589	NaN	0.000000	0.001579	0.001780	28.0793	0.075241	0.002020	37.2479	-78.9576	12.5232	0.041627	0.371781	-0.824333	-0.825693	0.015589	37.2479	-0.824647	-9.710013E+10	-1.605496E-13	NaN
349	1.000000	0.383136	7.36848e+06	-56089.1	955.819	-29740	0.000000	0.000000	6.382871	-0.005495	NaN	0.000000	0.001585	0.001758	28.0792	0.104102	0.001978	52.6406	131.372	-164.416	-0.109893	0.381854	-0.814338	-0.815620	-0.005495	52.6406	-0.814260	-7.020314E+10	7.827376E-14	NaN
349	1.000000	0.393146	7.36848e+06	-56089.1	955.819	-29740	0.000000	0.000000	6.392881	0.013847	NaN	0.000000	0.001550	0.001740	28.0795	0.131185	0.001992	65.8434	178.141	13.8635	0.022943	0.391861	-0.804329	-0.805614	0.013847	65.8434	-0.804486	-5.173130E+10	-2.676719E-13	NaN
349	1.000000	0.403161	7.36848e+06	-56089.1	955.818	-29740	0.000000	0.000000	6.402896	0.001214	NaN	0.000000	0.001562	0.001712	28.0808	0.008326	0.002093	3.977224	86.6942	-164.92	-0.012025	0.401849	-0.794313	-0.795625	0.001214	3.977224	-0.794542	-3.791095E+10	-3.201965E-14	NaN
349	1.000000	0.413211	7.36848e+06	-56089.1	955.819	-29740	0.000000	0.000000	6.412946	0.005088	NaN	0.000000	0.001584	0.001719	28.0811	0.056337	0.002009	28.0435	-39.4153	13.3095	0.067591	0.411804	-0.784264	-0.785670	0.005088	28.0435	-0.784400	-2.760660E+10	-1.843126E-13	NaN
349	1.000000	0.423175	7.36848e+06	-56089.1	955.818	-29740	0.000000	0.000000	6.422909	-0.020984	NaN	0.000000	0.001575	0.001738	28.0807	0.116040	0.002136	54.3339	-135.428	-164.258	0.000966	0.421889	-0.774299	-0.775585	-0.020984	54.3339	-0.774010	-1.994424E+10	1.052123E-12	NaN
349	1.000000	0.433140	7.36848e+06	-56089.1	955.819	-29740	0.000000	0.000000	6.432876	0.020755	NaN	0.000000	0.001539	0.001771	28.0809	0.084264	0.002093	40.2684	-109.851	13.4788	-0.005000	0.431809	-0.764334	-0.765666	0.020755	40.2684	-0.764720	-1.491118E+10	-1.391892E-12	NaN
349	1.000000	0.443161	7.36848e+06	-56089.1	955.819	-29740	0.000000	0.000000	6.442894	-0.035347	NaN	0.000000	0.001499	0.001751	28.0808	0.069169	0.002033	34.028	-155.499	-165.667	0.059015	0.441872	-0.754314	-0.755602	-0.035347	34.028	-0.753535	-1.050337E+10	3.365340E-12	NaN
349	1.000000	0.453205	7.36848e+06	-56089.1	955.818	-29740	0.000000	0.000000	6.452940	0.004474	NaN	0.000000	0.001515	0.001770	28.0809	0.134610	0.002045	65.8272	-132.597	13.2502	0.032603	0.451841	-0.744270	-0.745633	0.004474	65.8272	-0.744321	-7.868582E+9	-5.686050E-13	NaN
349	1.000000	0.463186	7.36848e+06	-56089.1	955.819	-29740	0.000000	0.000000	6.462921	0.005049	NaN	0.000000	0.001551	0.001754	28.0808	0.067197	0.002041	32.9292	96.9696	-164.582	-0.051545	0.461913	-0.734288	-0.735561	0.005049	32.9292	-0.734403	-5.765205E+9	-8.757286E-13	NaN
349	1.000000	0.473187	7.36848e+06	-56089.1	955.818	-29740	0.000000	0.000000	6.472919	-0.069770	NaN	0.000000	0.001575	0.001801	28.0812	0.069107	0.001924	35.9186	128.703	21.3405	0.039702	0.471820	-0.724287	-0.725654	-0.069770	35.9186	-0.722830	-4.009277E+9	1.740206E-11	NaN
349	1.000000	0.483191	7.36848e+06	-56089.1	955.818	-29740	0.000000	0.000000	6.482926	0.014168	NaN	0.000000	0.001551	0.001778	28.0807	0.043925	0.001814	24.2185	38.4064	-165.603	0.046847	0.481818	-0.714284	-0.715657	0.014168	24.2185	-0.714722	-3.108027E+9	-4.558386E-12	NaN
349	1.000000	0.493209	7.36848e+06	-56089.1	955.819	-29740	0.000000	0.000000	6.492945	0.035930	NaN	0.000000	0.001530	0.001786	28.0808	0.085213	0.001998	42.6556	146.283	14.7751	0.100213	0.491827	-0.704266	-0.705648	0.035930	42.6556	-0.704897	-2.282442E+9	-1.574193E-11	NaN
349	1.000000	0.503211	7.36848e+06	-56089.1	955.818	-29740	0.000000	0.000000	6.502946	-0.007716	NaN	0.000000	0.001514	0.001727	28.0808	0.065232	0.001868	34.9247	-77.4509	-170.004	-0.038008	0.501910	-0.694263	-0.695565	-0.007716	34.9247	-0.694097	-1.625185E+9	4.748046E-12	NaN
349	1.000000	0.513198	7.36848e+06	-56089.1	955.819	-29740	0.000000	0.000000	6.512933	0.018590	NaN	0.000000	0.001526	0.001728	28.081	0.077957	0.002015	38.6937	-119.724	13.3182	-0.033553	0.511879	-0.684276	-0.685595	0.018590	38.6937	-0.684637	-1.206726E+9	-1.540504E-11	NaN
349	1.000000	0.523230	7.36848e+06	-56089.1	955.82	-29740	0.000000	0.000000	6.522966	0.028037	NaN	0.000000	0.001551	0.001763	28.0808	0.038063	0.002050	18.5646	-117.66	-167.599	-0.038304	0.521916	-0.674244	-0.675558	0.028037	18.5646	-0.675377	-9.015097E+8	-3.110024E-11	NaN
349	1.000000	0.533200	7.36848e+06	-56089.1	955.818	-29740	0.000000	0.000000	6.532935	0.008807	NaN	0.000000	0.001536	0.001797	28.0798	0.052397	0.002032	25.7815	4.760005	16.1086	-0.015143	0.531826	-0.664274	-0.665648	0.008807	25.7815	-0.664530	-6.404916E+8	-1.375047E-11	NaN
349	1.000000	0.543241	7.36848e+06	-56089.1	955.818	-29740	0.000000	0.000000	6.542976	0.012891	NaN	0.000000	0.001514	0.001797	28.0799	0.024277	0.002109	11.5092	17.5399	-165.505	0.001142	0.541890	-0.654234	-0.655584	0.012891	11.5092	-0.655074	-4.753127E+8	-2.712204E-11	NaN
349	1.000000	0.553188	7.36848e+06	-56089.1	955.819	-29740	0.000000	0.000000	6.552921	-0.057908	NaN	0.000000	0.001549	0.001802	28.0798	0.039462	0.002127	18.5507	128.221	13.6231	-0.011736	0.551814	-0.644286	-0.645660	-0.057908	18.5507	-0.641945	-3.140309E+8	1.844031E-10	NaN
349	1.000000	0.563242	7.36848e+06	-56089.1	955.817	-29740	0.000000	0.000000	6.562978	0.032480	NaN	0.000000	0.001496	0.001768	28.0797	0.108045	0.001900	56.8576	7.546688	-163.599	-0.019828	0.561832	-0.634232	-0.635642	0.032480	56.8576	-0.634661	-2.494668E+8	-1.301995E-10	NaN
349	1.000000	0.573221	7.36848e+06	-56089.1	955.819	-29740	0.000000	0.000000	6.572955	-0.023198	NaN	0.000000	0.001537	0.001782	28.0795	0.047599	0.001895	25.1172	134.08	15.3653	0.018762	0.571838	-0.624253	-0.625636	-0.023198	25.1172	-0.623560	-1.756155E+8	1.320957E-10	NaN
349	1.000000	0.583256	7.36848e+06	-56089.1	955.817	-29740	0.000000	0.000000	6.582990	-0.032721	NaN	0.000000	0.001542	0.001794	28.08	0.044681	0.001829	24.4278	-151.848	-165.908	-0.056439	0.581918	-0.614218	-0.615556	-0.032721	24.4278	-0.613213	-1.265665E+8	2.585280E-10	NaN
349	1.000000	0.593254	7.36848e+06	-56089.1	955.818	-29740	0.000000	0.000000	6.592988	-0.012362	NaN	0.000000	0.001526	0.001749	28.0794	0.195635	0.001909	102.507	-133.023	13.6712	0.025250	0.591886	-0.604221	-0.605589	-0.012362	102.507	-0.604130	-9.491407E+7	1.302447E-10	NaN
349	1.000000	0.603228	7.36848e+06	-56089.1	955.819	-29740	0.000000	0.000000	6.602961	-0.046764	NaN	0.000000	0.001514	0.001760	28.0798	0.080247	0.002087	38.4456	-139.9	-167.953	-0.064272	0.601933	-0.594246	-0.595542	-0.046764	38.4456	-0.593334	-6.739417E+7	6.938913E-10	NaN
349	1.000000	0.613248	7.36848e+06	-56089.1	955.818	-29740	0.000000	0.000000	6.612984	0.033499	NaN	0.000000	0.001491	0.001772	28.0797	0.112588	0.002063	54.5844	-68.8786	13.9187	0.052511	0.611825	-0.584227	-0.585649	0.033499	54.5844	-0.584687	-5.121520E+7	-6.540817E-10	NaN
349	1.000000	0.623278	7.36848e+06	-56089.1	955.818	-29740	0.000000	0.000000	6.623011	-0.041383	NaN	0.000000	0.001518	0.001804	28.0797	0.040416	0.001974	20.4756	21.6564	-167.116	0.018994	0.621948	-0.574197	-0.575527	-0.041383	20.4756	-0.572681	-3.496772E+7	1.183469E-9	NaN
349	1.000000	0.633257	7.36848e+06	-56089.1	955.818	-29740	0.000000	0.000000	6.632992	-0.001995	NaN	0.000000	0.001535	0.001804	28.0794	0.113117	0.001945	58.1539	83.6013	14.9172	0.004302	0.631875	-0.564217	-0.565599	-0.001995	58.1539	-0.564191	-2.668969E+7	7.473858E-11	NaN
349	1.000000	0.643285	7.36848e+06	-56089.1	955.817	-29740	0.000000	0.000000	6.643018	-0.028545	NaN	0.000000	0.001516	0.001796	28.0794	0.097762	0.002033	48.0922	39.0035	-165.661	-0.002742	0.641959	-0.554190	-0.555515	-0.028545	48.0922	-0.553745	-1.913419E+7	1.491830E-9	NaN
349	1.000000	0.653276	7.36848e+06	-56089.1	955.819	-29740	0.000000	0.000000	6.653012	0.042279	NaN	0.000000	0.001535	0.001786	28.0797	0.095569	0.002108	45.3437	-124.239	13.7848	-0.051573	0.651861	-0.544198	-0.545613	0.042279	45.3437	-0.544898	-1.442984E+7	-2.929991E-9	NaN
349	1.000000	0.663306	7.36848e+06	-56089.1	955.818	-29740	0.000000	0.000000	6.663039	-0.049279	NaN	0.000000	0.001545	0.001802	28.0795	0.121177	0.002041	59.3691	164.631	-165.817	-0.050473	0.661955	-0.534168	-0.535519	-0.049279	59.3691	-0.533545	-1.004158E+7	4.907512E-9	NaN
349	1.000000	0.673264	7.36848e+06	-56089.1	955.819	-29740	0.000000	0.000000	6.673001	0.047085	NaN	0.000000	0.001546	0.001783	28.0806	0.109418	0.002020	54.1616	-161.225	14.031	-0.045526	0.671935	-0.524210	-0.525539	0.047085	54.1616	-0.524862	-7.60666e+06	-6.189951E-9	NaN
349	1.000000	0.683287	7.36848e+06	-56089.1	955.818	-29740	0.000000	0.000000	6.683021	-0.021800	NaN	0.000000	0.001570	0.001770	28.0807	0.048587	0.001871	25.973	155.251	-168.823	-0.029951	0.681990	-0.514188	-0.515485	-0.021800	25.973	-0.513558	-5.29617e+06	4.116113E-9	NaN
349	1.000000	0.693278	7.36848e+06	-56089.1	955.819	-29740	0.000000	0.000000	6.693012	-0.008431	NaN	0.000000	0.001557	0.001776	28.0808	0.050785	0.002095	24.237	-150.416	16.931	0.028386	0.691918	-0.504197	-0.505556	-0.008431	24.237	-0.503936	-3.88963e+06	2.167650E-9	NaN
349	1.000000	0.703312	7.36848e+06	-56089.1	955.818	-29740	0.000000	0.000000	6.703048	0.032709	NaN	0.000000	0.001516	0.001810	28.0808	0.053612	0.002036	26.3365	-67.6925	-167.165	0.027429	0.702009	-0.494162	-0.495465	0.032709	26.3365	-0.495094	-2.9278e+06	-1.117198E-8	NaN
349	1.000000	0.713292	7.36848e+06	-56089.1	955.818	-29740	0.000000	0.000000	6.713027	0.006090	NaN	0.000000	0.001544	0.001750	28.0808	0.103986	0.002150	48.3651	-39.3374	12.8338	0.011715	0.711904	-0.484182	-0.485570	0.006090	48.3651	-0.484277	-2.06717e+06	-2.946152E-9	NaN
349	1.000000	0.723295	7.36848e+06	-56089.1	955.819	-29740	0.000000	0.000000	6.723028	-0.045947	NaN	0.000000	0.001515	0.001750	28.0809	0.128817	0.001979	65.0949	78.3169	-165.983	0.026721	0.721996	-0.474179	-0.475478	-0.045947	65.0949	-0.473650	-1.46749e+06	3.130968E-8	NaN
349	1.000000	0.733319	7.36848e+06	-56089.1	955.819	-29740	0.000000	0.000000	6.733053	-0.020614	NaN	0.000000	0.001579	0.001797	28.0808	0.035852	0.002003	17.9011	-171.951	15.46	-0.010718	0.731963	-0.464155	-0.465511	-0.020614	17.9011	-0.463292	-1.05017e+06	1.962952E-8	NaN
349	1.000000	0.743274	7.36848e+06	-56089.1	955.819	-29740	0.000000	0.000000	6.743009	0.024391	NaN	0.000000	0.001616	0.001777	28.0808	0.066400	0.001988	33.407	-162.647	-165.537	0.056731	0.742073	-0.454201	-0.455401	0.024391	33.407	-0.454748	-796486	-3.062290E-8	NaN
349	1.000000	0.753326	7.36848e+06	-56089.1	955.819	-29740	0.000000	0.000000	6.753061	0.008671	NaN	0.000000	0.001515	0.001768	28.0808	0.084046	0.001991	42.2031	145.105	16.2021	-0.023992	0.751914	-0.444148	-0.445560	0.008671	42.2031	-0.444302	-567614	-1.527622E-8	NaN
349	1.000000	0.763301	7.36848e+06	-56089.1	955.82	-29740	0.000000	0.000000	6.763033	-0.067889	NaN	0.000000	0.001534	0.001770	28.081	0.081933	0.001970	41.5927	44.1403	-164.397	-0.077878	0.761988	-0.434174	-0.435487	-0.067889	41.5927	-0.432949	-392439	1.729917E-7	NaN
349	1.000000	0.773331	7.36848e+06	-56089.1	955.817	-29740	0.000000	0.000000	6.773064	-0.049210	NaN	0.000000	0.001552	0.001761	28.0806	0.117631	0.001955	60.1657	-94.5916	14.8414	0.022666	0.771947	-0.424143	-0.425528	-0.049210	60.1657	-0.423530	-288704	1.704523E-7	NaN
349	1.000000	0.783317	7.36848e+06	-56089.1	955.818	-29740	0.000000	0.000000	6.783052	0.024327	NaN	0.000000	0.001516	0.001750	28.081	0.081344	0.002015	40.3772	39.3005	-166.561	0.015501	0.782025	-0.414158	-0.415449	0.024327	40.3772	-0.414610	-215731	-1.127649E-7	NaN
349	1.000000	0.793314	7.36848e+06	-56089.1	955.818	-29740	0.000000	0.000000	6.793049	0.017511	NaN	0.000000	0.001552	0.001742	28.081	0.109279	0.001964	55.6389	-13.5145	13.8951	-0.020619	0.792006	-0.404161	-0.405468	0.017511	55.6389	-0.404397	-154404	-1.134121E-7	NaN
349	1.000000	0.803344	7.36848e+06	-56089.1	955.819	-29740	0.000000	0.000000	6.803079	0.012704	NaN	0.000000	0.001566	0.001747	28.081	0.072063	0.002042	35.2941	-119.07	-164.588	0.015559	0.802004	-0.394130	-0.395470	0.012704	35.2941	-0.394400	-111190	-1.142592E-7	NaN
349	1.000000	0.813360	7.36848e+06	-56089.1	955.818	-29740	0.000000	0.000000	6.813097	0.065717	NaN	0.000000	0.001548	0.001739	28.0798	0.023042	0.002059	11.1913	-159.642	14.5297	0.124748	0.811914	-0.384115	-0.385561	0.065717	11.1913	-0.388519	-91616.2	-7.173103E-7	NaN
349	1.000000	0.823353	7.36848e+06	-56089.1	955.818	-29740	0.000000	0.000000	6.823087	-0.013702	NaN	0.000000	0.001548	0.001739	28.0797	0.058204	0.002020	28.8068	160.352	-163.131	-0.057135	0.822038	-0.374121	-0.375437	-0.013702	28.8068	-0.373764	-56273.6	2.434812E-7	NaN
349	1.000000	0.833319	7.36848e+06	-56089.1	955.818	-29740	0.000000	0.000000	6.833054	0.010500	NaN	0.000000	0.001550	0.001686	28.0802	0.059408	0.001994	29.7866	-88.1179	19.216	0.125146	0.831945	-0.364155	-0.365530	0.010500	29.7866	-0.364420	-41274.4	-2.543879E-7	NaN
349	1.000000	0.843351	7.36848e+06	-56089.1	955.818	-29740	0.000000	0.000000	6.843085	-0.021674	NaN	0.000000	0.001597	0.001679	28.0798	0.048240	0.002057	23.4475	147.301	-168.124	-0.074223	0.842058	-0.354124	-0.355416	-0.021674	23.4475	-0.353430	-28625.6	7.571675E-7	NaN
349	1.000000	0.853321	7.36848e+06	-56089.1	955.818	-29740	0.000000	0.000000	6.853057	0.026783	NaN	0.000000	0.001539	0.001760	28.0797	0.034263	0.002039	16.8059	42.1417	14.5214	0.035724	0.851990	-0.344153	-0.345484	0.026783	16.8059	-0.345348	-21848.6	-1.225844E-6	NaN
349	1.000000	0.863377	7.36848e+06	-56089.1	955.818	-29740	0.000000	0.000000	6.863115	0.072258	NaN	0.000000	0.001527	0.001775	28.0802	0.059271	0.001947	30.4422	31.6924	-165.183	0.091319	0.862113	-0.334097	-0.335361	0.072258	30.4422	-0.335877	-15900.2	-4.544507E-6	NaN
349	1.000000	0.873345	7.36848e+06	-56089.1	955.819	-29740	0.000000	0.000000	6.873079	-0.022706	NaN	0.000000	0.001541	0.001743	28.08	0.055894	0.002039	27.4107	-34.6147	13.4019	0.001937	0.872009	-0.324129	-0.325466	-0.022706	27.4107	-0.323508	-10476.6	2.167271E-6	NaN
349	1.000000	0.883356	7.36848e+06	-56089.1	955.819	-29740	0.000000	0.000000	6.883091	0.017710	NaN	0.000000	0.001542	0.001744	28.0798	0.087540	0.001951	44.878	-56.3351	-166.898	-0.003079	0.882050	-0.314119	-0.315424	0.017710	44.878	-0.314415	-7696.74	-2.301009E-6	NaN
349	1.000000	0.893359	7.36848e+06	-56089.1	955.818	-29740	0.000000	0.000000	6.893094	0.002318	NaN	0.000000	0.001557	0.001789	28.0799	0.095572	0.001936	49.3611	171.459	12.4861	0.059458	0.891998	-0.304116	-0.305477	0.002318	49.3611	-0.304151	-5424.35	-4.273018E-7	NaN
349	1.000000	0.903362	7.36848e+06	-56089.1	955.818	-29740	0.000000	0.000000	6.903097	0.010448	NaN	0.000000	0.001537	0.001767	28.0799	0.040985	0.002105	19.472	-154.475	-167.435	-0.038663	0.902108	-0.294113	-0.295366	0.010448	19.472	-0.294515	-3898.05	-2.680353E-6	NaN
349	1.000000	0.913379	7.36848e+06	-56089.1	955.819	-29740	0.000000	0.000000	6.913113	-0.013907	NaN	0.000000	0.001535	0.001750	28.0799	0.146658	0.002074	70.7229	-48.599	16.1624	-0.052986	0.911983	-0.284095	-0.285492	-0.013907	70.7229	-0.283948	-2706.71	5.137897E-6	NaN
349	1.000000	0.923366	7.36848e+06	-56089.1	955.817	-29740	0.000000	0.000000	6.923102	0.017371	NaN	0.000000	0.001525	0.001752	28.0799	0.037123	0.002059	18.0302	71.6011	-163.272	-0.000576	0.922081	-0.274108	-0.275393	0.017371	18.0302	-0.274831	-1971.69	-8.809952E-6	NaN
349	1.000000	0.933374	7.36848e+06	-56089.1	955.818	-29740	0.000000	0.000000	6.933106	-0.049392	NaN	0.000000	0.001535	0.001746	28.0798	0.026718	0.002044	13.0745	-178.951	11.5005	0.029673	0.932063	-0.264101	-0.265411	-0.049392	13.0745	-0.261267	-1225.56	4.030187E-5	NaN
349	1.000000	0.943404	7.36848e+06	-56089.1	955.818	-29740	0.000000	0.000000	6.943140	0.018790	NaN	0.000000	0.001522	0.001760	28.0814	0.089247	0.001976	45.1662	-150.41	-163.525	0.038356	0.942055	-0.254070	-0.255419	0.018790	45.1662	-0.254382	-960.736	-1.955840E-5	NaN
349	1.000000	0.953384	7.36848e+06	-56089.1	955.819	-29740	0.000000	0.000000	6.953116	-0.055325	NaN	0.000000	0.001571	0.001727	28.0811	0.064315	0.002018	31.8736	128.679	16.5859	-0.062263	0.952063	-0.244090	-0.245411	-0.055325	31.8736	-0.242789	-635.401	8.707061E-5	NaN
349	1.000000	0.963395	7.36848e+06	-56089.1	955.818	-29740	0.000000	0.000000	6.963131	0.048408	NaN	0.000000	0.001587	0.001719	28.0812	0.077393	0.002073	37.3272	-142.691	-167.289	0.065009	0.962093	-0.234080	-0.235382	0.048408	37.3272	-0.235052	-480.916	-0.000101	NaN
349	1.000000	0.973436	7.36848e+06	-56089.1	955.82	-29740	0.000000	0.000000	6.973170	-0.007614	NaN	0.000000	0.001582	0.001767	28.0812	0.106261	0.002029	52.38	145.239	16.9189	0.053178	0.972008	-0.224039	-0.225466	-0.007614	52.38	-0.223930	-320.866	2.373107E-5	NaN
349	1.000000	0.983394	7.36848e+06	-56089.1	955.819	-29740	0.000000	0.000000	6.983129	0.005944	NaN	0.000000	0.001608	0.001794	28.0812	0.115528	0.001971	58.6093	-58.1233	-163.729	-0.031429	0.982070	-0.214080	-0.215405	0.005944	58.6093	-0.214156	-223.838	-2.655397E-5	NaN
349	1.000000	0.993413	7.36848e+06	-56089.1	955.818	-29740	0.000000	0.000000	6.993145	-0.075847	NaN	0.000000	0.001546	0.001759	28.0812	0.098574	0.001931	51.0361	84.604	13.5746	-0.090175	0.992066	-0.204061	-0.205408	-0.075847	51.0361	-0.202947	-147.238	0.000515	NaN
349	1.000000	1.003382	7.36848e+06	-56089.1	955.818	-29740	0.000000	0.000000	7.003118	0.032857	NaN	0.000000	0.001586	0.001751	28.0811	0.104669	0.002038	51.3469	-125.481	-163.813	0.105968	1.002094	-0.194093	-0.195380	0.032857	51.3469	-0.194573	-107.182	-0.000307	NaN
349	1.000000	1.013420	7.36848e+06	-56089.1	955.819	-29740	0.000000	0.000000	7.013157	0.052107	NaN	0.000000	0.001544	0.001766	28.0811	0.025408	0.002094	12.1346	91.6352	15.4604	-0.014711	1.012049	-0.184054	-0.185425	0.052107	12.1346	-0.187275	-80.9835	-0.000643	NaN
349	1.000000	1.023420	7.36848e+06	-56089.1	955.818	-29740	0.000000	0.000000	7.023153	-0.040150	NaN	0.000000	0.001530	0.001743	28.0809	0.062731	0.001979	31.7	-77.6323	-163.714	-0.004405	1.022109	-0.174055	-0.175365	-0.040150	31.7	-0.173105	-46.4892	0.000864	NaN
349	1.000000	1.033433	7.36848e+06	-56089.1	955.818	-29740	0.000000	0.000000	7.033168	-0.000504	NaN	0.000000	0.001525	0.001754	28.0809	0.017420	0.002049	8.500627	-120.743	18.552	-0.030382	1.032032	-0.164042	-0.165443	-0.000504	8.500627	-0.163997	-32.2607	1.561404E-5	NaN
349	1.000000	1.043428	7.36848e+06	-56089.1	955.818	-29740	0.000000	0.000000	7.043164	0.019726	NaN	0.000000	0.001554	0.001734	28.0812	0.025112	0.002064	12.1692	-61.0942	-166.637	-0.007822	1.042114	-0.154046	-0.155361	0.019726	12.1692	-0.155262	-22.5576	-0.000874	NaN
349	1.000000	1.053404	7.36848e+06	-56089.1	955.817	-29740	0.000000	0.000000	7.053139	0.006765	NaN	0.000000	0.001541	0.001741	28.0811	0.002169	0.001941	1.117457	-153.007	11.8065	-0.012265	1.052021	-0.144071	-0.145453	0.006765	1.117457	-0.148611	-17.0851	-0.000396	NaN
349	1.000000	1.063429	7.36848e+06	-56089.1	955.818	-29740	0.000000	0.000000	7.063165	0.024180	NaN	0.000000	0.001528	0.001731	28.0812	0.054807	0.001869	29.3177	-120.494	-166.279	0.091065	1.062128	-0.134045	-0.135347	0.024180	29.3177	-0.134664	-9.372645	-0.002580	NaN
349	1.000000	1.073425	7.36848e+06	-56089.1	955.819	-29740	0.000000	0.000000	7.073158	-0.036738	NaN	0.000000	0.001552	0.001754	28.081	0.025622	0.002035	12.5906	-119.317	11.0939	0.047336	1.072117	-0.124049	-0.125357	-0.036738	12.5906	-0.121861	-5.266242	0.006976	NaN
349	1.000000	1.083459	7.36848e+06	-56089.1	955.818	-29740	0.000000	0.000000	7.083196	0.042204	NaN	0.000000	0.001570	0.001747	28.0802	0.031219	0.002026	15.406	-48.1555	-161.994	0.024081	1.082150	-0.114015	-0.115324	0.042204	15.406	-0.116069	-4.018842	-0.010501	NaN
349	1.000000	1.093447	7.36848e+06	-56089.1	955.817	-29740	0.000000	0.000000	7.093180	-0.026224	NaN	0.000000	0.001549	0.001774	28.0798	0.020363	0.002046	9.955198	-159.232	13.9496	0.008727	1.092077	-0.104028	-0.105398	-0.026224	9.955198	-0.102052	-2.027755	0.012932	NaN
349	1.000000	1.103482	7.36848e+06	-56089.1	955.818	-29740	0.000000	0.000000	7.103217	0.006955	NaN	0.000000	0.001553	0.001738	28.0799	0.043371	0.002104	20.6137	154.018	-165.523	-0.023100	1.102128	-0.093992	-0.095346	0.006955	20.6137	-0.094246	-1.355771	-0.005130	NaN
349	1.000000	1.113449	7.36848e+06	-56089.1	955.819	-29740	0.000000	0.000000	7.113183	-0.014594	NaN	0.000000	0.001589	0.001740	28.08	0.068717	0.002073	33.1537	-0.647352	14.6529	-0.009681	1.112052	-0.084025	-0.085422	-0.014594	33.1537	-0.083695	-0.763783	0.019108	NaN
349	1.000000	1.123454	7.36848e+06	-56089.1	955.818	-29740	0.000000	0.000000	7.123188	-0.018024	NaN	0.000000	0.001566	0.001715	28.0802	0.050660	0.001904	26.6133	152.368	-167.103	0.062640	1.122093	-0.074021	-0.075381	-0.018024	26.6133	-0.073513	-0.422521	0.042657	NaN
349	1.000000	1.133437	7.36848e+06	-56089.1	955.819	-29740	0.000000	0.000000	7.133172	-0.009649	NaN	0.000000	0.001562	0.001717	28.0799	0.072596	0.001915	37.9119	-23.4097	14.1497	-0.058056	1.132103	-0.064037	-0.065371	-0.009649	37.9119	-0.063846	-0.231444	0.041690	NaN
349	1.000000	1.143454	7.36848e+06	-56089.1	955.818	-29740	0.000000	0.000000	7.143185	-0.081463	NaN	0.000000	0.001562	0.001749	28.0801	0.049370	0.001955	25.2588	-145.91	-167.672	-0.067374	1.142175	-0.054020	-0.055299	-0.081463	25.2588	-0.051602	-0.101981	0.798807	NaN
349	1.000000	1.153464	7.36848e+06	-56089.1	955.819	-29740	0.000000	0.000000	7.153230	0.765536	NaN	0.000000	0.001580	0.001756	28.08	0.782803	0.001962	398.991	28.1587	14.1073	0.657066	1.152121	-0.044010	-0.045353	0.765536	398.991	-0.045449	-0.066334	-11.5406	NaN
349	1.000000	1.163498	7.36848e+06	-56089.1	955.819	-29740	0.000000	0.000000	7.163276	1.032242	NaN	0.000000	0.001535	0.001732	28.0805	1.010751	0.002029	498.124	24.1653	-168.012	1.062957	1.162171	-0.033976	-0.035303	1.032242	498.124	-0.035530	-0.033199	-31.0923	NaN
349	1.000000	1.173480	7.36848e+06	-56089.1	955.819	-29740	0.000000	0.000000	7.173272	1.383183	NaN	0.000000	0.001571	0.001753	28.08	1.338205	0.001920	696.876	24.3181	9.180886	1.304479	1.172107	-0.023994	-0.025368	1.383183	696.876	-0.025483	-0.017369	-79.6346	NaN
349	1.000000	1.183495	7.36848e+06	-56089.1	955.819	-29740	0.000000	0.000000	7.183325	2.303140	NaN	0.000000	0.001539	0.001698	28.0808	1.812872	0.001980	915.76	19.5958	-167.377	2.172115	1.182155	-0.013979	-0.015319	2.303140	915.76	-0.015866	-0.009800	-235.008	NaN
349	1.000000	1.193486	7.36848e+06	-56089.1	955.819	-29740	0.000000	0.000000	7.193339	2.871368	NaN	0.000000	0.001551	0.001705	28.0799	2.839107	0.002109	1346.02	19.507	13.3776	2.691026	1.192155	-0.003989	-0.005319	2.871368	1346.02	-0.005589	-0.003783	-758.939	NaN
349	1.000000	1.203508	7.36848e+06	-56089.1	955.818	-29740	0.000000	0.000000	7.203425	4.433078	NaN	0.000000	0.001571	0.001733	28.0808	3.465254	0.001872	1850.65	15.7513	-166.62	4.325481	1.202171	0.006034	0.004697	4.433078	1850.65	0.004237	0.003448	1285.67	28794.5
349	1.000000	1.213444	7.36848e+06	-56089.1	955.818	-29740	0.000000	0.000000	7.213499	7.787767	NaN	0.000000	0.001533	0.001760	28.0801	7.151404	0.001916	3733.44	21.152	6.962322	6.750056	1.212125	0.015970	0.014651	7.787767	3733.44	0.014405	0.014501	537.059	28326.1
349	2.000000	1.217032	7.36848e+06	-56089.1	955.818	-29740	0.000000	0.000000	7.217118	8.515638	NaN	0.000000	0.001537	0.001756	28.0818	9.742294	0.001754	5553.98	10.1596	-172.556	8.258262	1.216694	0.019558	0.019220	8.515638	5553.98	0.018408	0.020102	423.612	35789.3
349	2.000000	1.219523	7.36848e+06	-56089.1	955.819	-29740	0.000000	0.000000	7.219789	12.926	NaN	0.000000	0.001551	0.001745	28.0813	12.9321	0.001870	6917.17	10.3879	5.538669	12.6888	1.219215	0.022048	0.021741	12.926	6917.17	0.020647	0.023569	548.435	41165.4
349	2.000000	1.221959	7.36848e+06	-56089.1	955.819	-29740	0.000000	0.000000	7.222581	21.5724	NaN	0.000000	0.001559	0.001772	28.0816	16.2488	0.001709	9506.84	8.332478	-177.577	20.9842	1.221692	0.024485	0.024218	21.5724	9506.84	0.022783	0.027105	795.866	52757.1
349	2.000000	1.224483	7.36848e+06	-56089.1	955.818	-29740	0.000000	0.000000	7.225580	33.0959	NaN	0.000000	0.001603	0.001748	28.0813	18.2268	0.001634	11154.2	4.646839	4.809858	31.1698	1.224115	0.027009	0.026641	33.0959	11154.2	0.024784	0.030623	1080.74	58235.3
349	2.000000	1.226944	7.36848e+06	-56089.1	955.819	-29740	0.000000	0.000000	7.228510	44.5009	NaN	0.000000	0.001537	0.001758	28.0819	20.7998	0.001649	12613.1	6.392574	-179.122	43.6919	1.226649	0.029470	0.029175	44.5009	12613.1	0.026824	0.034417	1293	62116.6
349	2.000000	1.229472	7.36848e+06	-56089.1	955.818	-29740	0.000000	0.000000	7.231549	56.921	NaN	0.000000	0.001572	0.001757	28.0813	22.9815	0.001719	13366	6.278736	0.564373	55.2183	1.229027	0.031998	0.031553	56.921	13366	0.028804	0.038301	1486.14	62397.8
349	2.000000	1.231935	7.36848e+06	-56089.1	955.818	-29740	0.000000	0.000000	7.234557	70.1892	NaN	0.000000	0.001523	0.001755	28.0823	25.7399	0.001836	14020.2	5.914125	-179.136	69.5051	1.231672	0.034461	0.034197	70.1892	14020.2	0.030706	0.042219	1662.49	62340.8
349	2.000000	1.234452	7.36848e+06	-56089.1	955.819	-29740	0.000000	0.000000	7.237483	80.1131	NaN	0.000000	0.001519	0.001732	28.0812	27.5227	0.001947	14133.4	7.943794	0.949570	78.8165	1.234095	0.036978	0.036621	80.1131	14133.4	0.032726	0.046584	1719.75	59827.5
349	2.000000	1.236924	7.36848e+06	-56089.1	955.819	-29740	0.000000	0.000000	7.240436	91.809	NaN	0.000000	0.001568	0.001754	28.0825	28.138	0.001752	16061.1	-2.654627	-171.584	89.7716	1.236569	0.039450	0.039095	91.809	16061.1	0.035163	0.052125	1761.31	64272
349	2.000000	1.239385	7.36848e+06	-56089.1	955.818	-29740	0.000000	0.000000	7.243297	101.555	NaN	0.000000	0.001552	0.001730	28.0815	31.5975	0.001877	16831.3	7.092181	-0.993004	98.2056	1.239024	0.041910	0.041550	101.555	16831.3	0.037385	0.057445	1767.87	64160.3
349	2.000000	1.241922	7.36848e+06	-56089.1	955.818	-29740	0.000000	0.000000	7.246327	113.501	NaN	0.000000	0.001587	0.001716	28.0821	33.9279	0.001950	17395.2	4.792431	-178.813	113.441	1.241567	0.044448	0.044092	113.501	17395.2	0.039554	0.062882	1804.99	63378.1
349	2.000000	1.244408	7.36848e+06	-56089.1	955.82	-29740	0.000000	0.000000	7.249282	124.926	NaN	0.000000	0.001583	0.001703	28.0811	35.274	0.001881	18750.1	5.233556	-1.041431	122.902	1.244179	0.046933	0.046704	124.926	18750.1	0.041936	0.069128	1807.17	65155.4
349	2.000000	1.246866	7.36848e+06	-56089.1	955.819	-29740	0.000000	0.000000	7.252275	137.921	NaN	0.000000	0.001542	0.001744	28.0817	36.6153	0.001830	20010.5	4.605828	179.598	135.455	1.246566	0.049392	0.049092	137.921	20010.5	0.044222	0.075395	1829.32	66582.6
349	2.000000	1.249397	7.36848e+06	-56089.1	955.819	-29740	0.000000	0.000000	7.255222	148.045	NaN	0.000000	0.001545	0.001708	28.08	38.6806	0.001901	20350.5	4.283005	0.858679	146.309	1.248992	0.051922	0.051518	148.045	20350.5	0.046466	0.081804	1809.74	65006.9
349	2.000000	1.251950	7.36848e+06	-56089.1	955.818	-29740	0.000000	0.000000	7.257827	149.305	NaN	0.000000	0.001535	0.001744	28.0803	41.1504	0.001847	22274.4	4.048604	178.953	151.837	1.251676	0.054476	0.054201	149.305	22274.4	0.049449	0.090716	1645.84	67567.5
349	2.000000	1.254442	7.36848e+06	-56089.1	955.819	-29740	0.000000	0.000000	7.261029	166.56	NaN	0.000000	0.001555	0.001746	28.0798	42.84	0.001825	23474.1	4.678303	-1.490178	166.177	1.254081	0.056968	0.056607	166.56	23474.1	0.051646	0.097570	1707.08	68660.1
349	2.000000	1.256931	7.36848e+06	-56089.1	955.818	-29740	0.000000	0.000000	7.263907	176.013	NaN	0.000000	0.001547	0.001723	28.08	45.0477	0.001769	25470.2	6.295455	176.302	177.354	1.256518	0.059456	0.059043	176.013	25470.2	0.054273	0.106078	1659.28	71448.6
349	2.000000	1.259379	7.36848e+06	-56089.1	955.819	-29740	0.000000	0.000000	7.266900	189.261	NaN	0.000000	0.001547	0.001747	28.0799	48.8308	0.001888	25868.6	4.193176	-3.187339	185.239	1.258945	0.061904	0.061470	189.261	25868.6	0.056417	0.113275	1670.81	70223
349	2.000000	1.261840	7.36848e+06	-56089.1	955.819	-29740	0.000000	0.000000	7.269741	198.498	NaN	0.000000	0.001558	0.001745	28.0801	51.0709	0.001894	26959.6	5.591609	175.441	194.805	1.261569	0.064366	0.064095	198.498	26959.6	0.058844	0.121694	1631.12	70607.5
349	2.000000	1.264289	7.36848e+06	-56089.1	955.819	-29740	0.000000	0.000000	7.272668	210.125	NaN	0.000000	0.001570	0.001733	28.0797	52.2208	0.001838	28412.9	6.126161	-5.276177	203.089	1.263958	0.066815	0.066483	210.125	28412.9	0.061268	0.130395	1611.45	71888.3
349	2.000000	1.266845	7.36848e+06	-56089.1	955.819	-29740	0.000000	0.000000	7.275974	228.33	NaN	0.000000	0.001555	0.001702	28.08	52.9081	0.001773	29835.1	5.875762	175.378	226.244	1.266529	0.069371	0.069055	228.33	29835.1	0.063631	0.139150	1640.9	73073.4
349	2.000000	1.269429	7.36848e+06	-56089.1	955.819	-29740	0.000000	0.000000	7.278937	237.56	NaN	0.000000	0.001576	0.001722	28.0798	55.7136	0.001793	31076.9	3.908897	-3.080283	237.341	1.268992	0.071954	0.071518	237.56	31076.9	0.066221	0.149057	1593.75	73542
349	2.000000	1.271831	7.36848e+06	-56089.1	955.819	-29740	0.000000	0.000000	7.281877	250.635	NaN	0.000000	0.001574	0.001739	28.0799	58.4979	0.001778	32897.5	3.921556	175.095	247.806	1.271616	0.074357	0.074141	250.635	32897.5	0.068643	0.158611	1580.19	75469.2
349	2.000000	1.274362	7.36848e+06	-56089.1	955.818	-29740	0.000000	0.000000	7.285191	269.662	NaN	0.000000	0.001593	0.001697	28.0798	60.407	0.001678	35995.8	6.967300	-7.399910	266.554	1.273997	0.076888	0.076522	269.662	35995.8	0.071269	0.169290	1592.9	79929.9
349	2.000000	1.276918	7.36848e+06	-56089.1	955.819	-29740	0.000000	0.000000	7.288245	281.784	NaN	0.000000	0.001600	0.001722	28.0802	62.8501	0.001833	34293.9	6.113815	173.466	283.421	1.276617	0.079444	0.079143	281.784	34293.9	0.073281	0.177690	1585.82	74329
349	2.000000	1.279391	7.36848e+06	-56089.1	955.819	-29740	0.000000	0.000000	7.291265	295.086	NaN	0.000000	0.001596	0.001674	28.08	65.748	0.001881	34954.4	4.306102	-4.378980	294.171	1.278939	0.081916	0.081465	295.086	34954.4	0.075585	0.187545	1573.41	73743.1
349	2.000000	1.282031	7.36848e+06	-56089.1	955.819	-29740	0.000000	0.000000	7.294183	301.821	NaN	0.000000	0.001590	0.001681	28.0799	67.8255	0.001785	37996	2.667207	176.462	310.555	1.281638	0.084557	0.084164	301.821	37996	0.078599	0.200817	1502.96	77465.9
349	2.000000	1.284314	7.36848e+06	-56089.1	955.819	-29740	0.000000	0.000000	7.297416	324.916	NaN	0.000000	0.001606	0.001709	28.0811	68.5287	0.001749	39188.6	6.519455	-8.187906	320.611	1.284059	0.086840	0.086585	324.916	39188.6	0.080621	0.209957	1547.54	78139
349	2.000000	1.286817	7.36848e+06	-56089.1	955.818	-29740	0.000000	0.000000	7.300382	336.161	NaN	0.000000	0.001620	0.001717	28.0813	71.052	0.001814	39162.4	3.686164	174.342	332.825	1.286589	0.089343	0.089115	336.161	39162.4	0.082905	0.220509	1524.48	76195.4
349	2.000000	1.289344	7.36848e+06	-56089.1	955.819	-29740	0.000000	0.000000	7.303408	348.308	NaN	0.000000	0.001585	0.001707	28.0812	73.7893	0.001785	41343.3	5.976925	-8.161467	343.806	1.288880	0.091870	0.091406	348.308	41343.3	0.085551	0.233038	1494.64	78246.3
349	2.000000	1.291867	7.36848e+06	-56089.1	955.818	-29740	0.000000	0.000000	7.306411	359.99	NaN	0.000000	0.001592	0.001741	28.0812	75.8738	0.001723	44046.3	7.237740	170.574	360.457	1.291539	0.094392	0.094064	359.99	44046.3	0.088263	0.246211	1462.12	81101.5
349	2.000000	1.294372	7.36848e+06	-56089.1	955.819	-29740	0.000000	0.000000	7.309668	378.246	NaN	0.000000	0.001561	0.001722	28.0813	78.7806	0.001858	42408.3	7.693220	-8.770356	376.32	1.293986	0.096897	0.096511	378.246	42408.3	0.090208	0.255871	1478.27	76597.3
349	2.000000	1.296923	7.36848e+06	-56089.1	955.817	-29740	0.000000	0.000000	7.312509	385.281	NaN	0.000000	0.001573	0.001737	28.0814	80.8093	0.001772	45607.7	6.034446	171.613	390.435	1.296516	0.099449	0.099041	385.281	45607.7	0.093113	0.270619	1423.71	80099.9
349	2.000000	1.299338	7.36848e+06	-56089.1	955.819	-29740	0.000000	0.000000	7.315454	398.182	NaN	0.000000	0.001550	0.001764	28.0811	82.0657	0.001778	46160.7	1.338650	-4.350787	396.158	1.299103	0.101863	0.101629	398.182	46160.7	0.095394	0.282466	1409.66	79352.8
349	2.000000	1.301852	7.36848e+06	-56089.1	955.819	-29740	0.000000	0.000000	7.318485	410.731	NaN	0.000000	0.001525	0.001726	28.0812	85.2847	0.001858	45910.1	1.918538	175.641	411.055	1.301600	0.104378	0.104126	410.731	45910.1	0.097668	0.294518	1394.59	77290.4
349	2.000000	1.304402	7.36848e+06	-56089.1	955.819	-29740	0.000000	0.000000	7.321924	432.37	NaN	0.000000	0.001563	0.001709	28.0812	86.7765	0.001676	51780.7	5.855537	-9.310893	430.167	1.303924	0.106928	0.106450	432.37	51780.7	0.100665	0.310759	1391.34	84865.1
349	2.000000	1.306818	7.36848e+06	-56089.1	955.818	-29740	0.000000	0.000000	7.324619	439.146	NaN	0.000000	0.001544	0.001737	28.0812	88.3965	0.001698	52049.6	2.378339	174.054	437.069	1.306513	0.109344	0.109039	439.146	52049.6	0.103016	0.323784	1356.29	83572.5
349	2.000000	1.309350	7.36848e+06	-56089.1	955.818	-29740	0.000000	0.000000	7.327787	454.599	NaN	0.000000	0.001557	0.001755	28.0811	92.6825	0.001914	48430.9	7.042916	-9.455837	452.277	1.308895	0.111875	0.111420	454.599	48430.9	0.104835	0.334036	1360.93	76559.4
349	2.000000	1.311743	7.36848e+06	-56089.1	955.819	-29740	0.000000	0.000000	7.330920	472.576	NaN	0.000000	0.001578	0.001779	28.0812	93.7148	0.001746	53666.2	5.212326	170.513	467.353	1.311556	0.114269	0.114081	472.576	53666.2	0.107665	0.350277	1349.15	82845.4
349	2.000000	1.313355	7.36848e+06	-56089.1	955.819	-29740	0.000000	0.000000	7.332887	481.206	NaN	0.000000	0.001568	0.001729	28.0811	95.0442	0.001815	52379.8	5.574592	-9.436311	479.098	1.313125	0.115881	0.115651	481.206	52379.8	0.108991	0.358014	1344.1	79981