File: remote_trans/data/nanoindenter/0828-1/data/Data_2025-08-06,11h17m57s/2025-07-22_16-23-58_1_563.txt
2025-07-22, 16:23:58, 1
Index	Phase	Displacement	Time	Pos X	Pos Y	Pos Z	Rot A	Rot B	Piezo Z	Force A	Force B	Gripper	Voltage A	Voltage B	Temperature	Amplitude force	Amplitude pos	Stiffness	Phase shift	Phase excitation	Force A raw	Displacement raw	HMax	HMax raw	Real Force	Real Stiffness	Contact Depth	Area	Hardness	Reduced Mod.
[#]	[#]	[um]	[s]	[um]	[um]	[um]	[m°]	[m°]	[um]	[uN]	[uN]	[V]	[V]	[V]	[°C]	[uN]	[um]	[N/m]	[°]	[°]	[uN]	[um]	[um]	[um]	[uN]	[N/m]	[um]	[um^2]	[MPa]	[MPa]
563	1.000000	0.002846	7.37056e+06	-48939.1	1005.82	-29760.6	0.000000	0.000000	6.002747	-0.032016	NaN	0.000000	0.001501	0.001744	28.0841	0.043607	0.000993	43.9206	-22.7285	-171.182	0.020477	0.001666	-1.076793	-1.077973	-0.032016	43.9206	-1.076246	-2.404887E+14	1.331286E-16	NaN
563	1.000000	0.010848	7.37056e+06	-48939.1	1005.82	-29760.6	0.000000	0.000000	6.010751	0.006369	NaN	0.000000	0.001525	0.001703	28.0838	0.026887	0.000987	27.2414	-126.964	-168.406	-0.051287	0.009489	-1.068790	-1.070150	0.006369	27.2414	-1.068966	-1.919969E+14	-3.317047E-17	NaN
563	1.000000	0.018851	7.37056e+06	-48939.1	1005.82	-29760.6	0.000000	0.000000	6.018754	0.028954	NaN	0.000000	0.001522	0.001739	28.0838	0.138618	0.001675	82.7816	-108.231	-161.767	-0.024180	0.017498	-1.060788	-1.062141	0.028954	82.7816	-1.061050	-1.502921E+14	-1.926517E-16	NaN
563	1.000000	0.026844	7.37056e+06	-48939.1	1005.82	-29760.6	0.000000	0.000000	6.026747	0.025658	NaN	0.000000	0.001550	0.001702	28.0837	0.070068	0.001785	39.2455	38.9231	-162.088	-0.009248	0.025511	-1.052795	-1.054128	0.025658	39.2455	-1.053285	-1.181891E+14	-2.170888E-16	NaN
563	1.000000	0.034833	7.37056e+06	-48939.1	1005.82	-29760.6	0.000000	0.000000	6.034739	0.097420	NaN	0.000000	0.001526	0.001728	28.0836	0.071138	0.001855	38.3559	166.71	-165.739	-0.044167	0.033559	-1.044806	-1.046080	0.097420	38.3559	-1.046711	-9.642565E+13	-1.010316E-15	NaN
563	1.000000	0.042849	7.37056e+06	-48939.1	1005.82	-29760.6	0.000000	0.000000	6.042756	0.113098	NaN	0.000000	0.001525	0.001754	28.0838	0.156024	0.002013	77.5231	-178.677	-166.257	0.051382	0.041549	-1.036790	-1.038090	0.113098	77.5231	-1.037884	-7.336884E+13	-1.541502E-15	NaN
563	1.000000	0.050829	7.37056e+06	-48939.1	1005.82	-29760.6	0.000000	0.000000	6.050731	-0.011369	NaN	0.000000	0.001522	0.001732	28.0842	0.061731	0.002131	28.9729	-87.709	-159.532	-0.012977	0.049482	-1.028810	-1.030157	-0.011369	28.9729	-1.028515	-5.489208E+13	2.071117E-16	NaN
563	1.000000	0.058838	7.37056e+06	-48939.1	1005.82	-29760.6	0.000000	0.000000	6.058741	0.011690	NaN	0.000000	0.001502	0.001719	28.0839	0.088695	0.002049	43.2962	-81.4905	-162.717	0.061544	0.057555	-1.020801	-1.022083	0.011690	43.2962	-1.021003	-4.349630E+13	-2.687495E-16	NaN
563	1.000000	0.066870	7.37056e+06	-48939.1	1005.82	-29760.6	0.000000	0.000000	6.066771	-0.024813	NaN	0.000000	0.001544	0.001710	28.0837	0.052563	0.002035	25.8278	-79.4804	-162.253	0.003242	0.065574	-1.012768	-1.014065	-0.024813	25.8278	-1.012048	-3.295674E+13	7.529082E-16	NaN
563	1.000000	0.074852	7.37056e+06	-48939.1	1005.82	-29760.6	0.000000	0.000000	6.074754	-0.000267	NaN	0.000000	0.001534	0.001695	28.0824	0.097696	0.002041	47.8713	-0.178673	-167.224	-0.006190	0.073519	-1.004787	-1.006120	-0.000267	47.8713	-1.004783	-2.631198E+13	1.016461E-17	NaN
563	1.000000	0.082848	7.37056e+06	-48939.1	1005.82	-29760.6	0.000000	0.000000	6.082752	0.035564	NaN	0.000000	0.001536	0.001690	28.0828	0.026967	0.001999	13.4872	88.5695	-163.739	0.078138	0.081553	-0.996790	-0.998086	0.035564	13.4872	-0.998768	-2.183648E+13	-1.628646E-15	NaN
563	1.000000	0.090855	7.37056e+06	-48939.1	1005.82	-29760.6	0.000000	0.000000	6.090758	0.045240	NaN	0.000000	0.001523	0.001697	28.0828	0.016705	0.001972	8.470175	-141.386	-164.127	0.062238	0.089542	-0.988784	-0.990097	0.045240	8.470175	-0.992790	-1.814211E+13	-2.493627E-15	NaN
563	1.000000	0.098852	7.37056e+06	-48939.1	1005.82	-29760.6	0.000000	0.000000	6.098754	0.014793	NaN	0.000000	0.001522	0.001714	28.0829	0.119216	0.001967	60.6203	136.768	-164.59	-0.008882	0.097533	-0.980787	-0.982106	0.014793	60.6203	-0.980970	-1.257419E+13	-1.176424E-15	NaN
563	1.000000	0.106848	7.37056e+06	-48939.1	1005.82	-29760.6	0.000000	0.000000	6.106752	0.037151	NaN	0.000000	0.001539	0.001707	28.0827	0.041646	0.002104	19.795	-141.989	-165.601	0.138449	0.105590	-0.972791	-0.974049	0.037151	19.795	-0.974198	-1.019148E+13	-3.645281E-15	NaN
563	1.000000	0.114883	7.37056e+06	-48939.1	1005.82	-29760.6	0.000000	0.000000	6.114786	0.003660	NaN	0.000000	0.001530	0.001709	28.0824	0.071647	0.001981	36.1703	-29.958	-162.05	0.035336	0.113562	-0.964756	-0.966077	0.003660	36.1703	-0.964831	-7.620783E+12	-4.802750E-16	NaN
563	1.000000	0.122853	7.37056e+06	-48939.1	1005.82	-29760.6	0.000000	0.000000	6.122753	-0.049549	NaN	0.000000	0.001533	0.001720	28.0824	0.004233	0.001992	2.125506	23.4344	-161.666	0.023233	0.121589	-0.956786	-0.958050	-0.049549	2.125506	-0.939302	-3.449242E+12	1.436521E-14	NaN
563	1.000000	0.130861	7.37056e+06	-48939.1	1005.82	-29760.6	0.000000	0.000000	6.130763	0.005073	NaN	0.000000	0.001550	0.001717	28.0825	0.048589	0.002049	23.7084	-132.033	-167.845	0.065605	0.129569	-0.948778	-0.950070	0.005073	23.7084	-0.948938	-4.652711E+12	-1.090375E-15	NaN
563	1.000000	0.138870	7.37056e+06	-48939.1	1005.82	-29760.6	0.000000	0.000000	6.138772	-0.000460	NaN	0.000000	0.001554	0.001712	28.0829	0.042160	0.001966	21.4495	105.077	-165.392	0.011775	0.137566	-0.940768	-0.942073	-0.000460	21.4495	-0.940752	-3.608176E+12	1.275829E-16	NaN
563	1.000000	0.146864	7.37056e+06	-48939.1	1005.82	-29760.6	0.000000	0.000000	6.146764	-0.037844	NaN	0.000000	0.001563	0.001750	28.0825	0.081446	0.001887	43.1522	-107.236	-166.421	0.018147	0.145565	-0.932775	-0.934074	-0.037844	43.1522	-0.932117	-2.759121E+12	1.371599E-14	NaN
563	1.000000	0.154903	7.37056e+06	-48939.1	1005.82	-29760.6	0.000000	0.000000	6.154805	-0.010306	NaN	0.000000	0.001568	0.001712	28.0823	0.019445	0.002074	9.373756	-150.807	-163.002	0.049308	0.153572	-0.924735	-0.926067	-0.010306	9.373756	-0.923911	-2.137992E+12	4.820321E-15	NaN
563	1.000000	0.162879	7.37056e+06	-48939.1	1005.82	-29760.6	0.000000	0.000000	6.162780	-0.017078	NaN	0.000000	0.001555	0.001709	28.0823	0.068181	0.002063	33.05	13.5616	-169.985	0.060043	0.161558	-0.916760	-0.918080	-0.017078	33.05	-0.916373	-1.691318E+12	1.009728E-14	NaN
563	1.000000	0.170874	7.37056e+06	-48939.1	1005.82	-29760.6	0.000000	0.000000	6.170777	0.014010	NaN	0.000000	0.001551	0.001716	28.0824	0.021477	0.001889	11.3697	-160.337	-160.893	-0.039373	0.169563	-0.908765	-0.910076	0.014010	11.3697	-0.909689	-1.373910E+12	-1.019715E-14	NaN
563	1.000000	0.178903	7.37056e+06	-48939.1	1005.82	-29760.6	0.000000	0.000000	6.178804	-0.005420	NaN	0.000000	0.001482	0.001718	28.0826	0.071865	0.002121	33.8855	-102.246	-161.677	-0.029305	0.177583	-0.900736	-0.902056	-0.005420	33.8855	-0.900616	-1.036084E+12	5.231479E-15	NaN
563	1.000000	0.186882	7.37056e+06	-48939.1	1005.82	-29760.6	0.000000	0.000000	6.186783	-0.032383	NaN	0.000000	0.001503	0.001717	28.0824	0.112579	0.001977	56.94	166.581	-162.835	0.036473	0.185597	-0.892757	-0.894042	-0.032383	56.94	-0.892330	-8.005893E+11	4.044946E-14	NaN
563	1.000000	0.194928	7.37056e+06	-48939.1	1005.82	-29760.6	0.000000	0.000000	6.194831	0.025654	NaN	0.000000	0.001520	0.001716	28.0822	0.085233	0.002110	40.402	179.944	-164.62	0.017604	0.193615	-0.884711	-0.886024	0.025654	40.402	-0.885187	-6.409823E+11	-4.002337E-14	NaN
563	1.000000	0.202901	7.37056e+06	-48939.1	1005.82	-29760.6	0.000000	0.000000	6.202804	0.024731	NaN	0.000000	0.001558	0.001685	28.0824	0.018944	0.001889	10.0286	-4.303243	-169.202	0.051594	0.201629	-0.876738	-0.878010	0.024731	10.0286	-0.878587	-5.219202E+11	-4.738438E-14	NaN
563	1.000000	0.210916	7.37056e+06	-48939.1	1005.82	-29760.6	0.000000	0.000000	6.210821	0.070164	NaN	0.000000	0.001501	0.001684	28.0835	0.073288	0.001924	38.0836	102.163	-165.791	0.057681	0.209570	-0.868723	-0.870069	0.070164	38.0836	-0.870104	-4.007337E+11	-1.750887E-13	NaN
563	1.000000	0.218897	7.37056e+06	-48939.1	1005.82	-29760.6	0.000000	0.000000	6.218799	0.020653	NaN	0.000000	0.001512	0.001713	28.0835	0.074968	0.002007	37.3453	28.1012	-167.701	0.024244	0.217642	-0.860742	-0.861997	0.020653	37.3453	-0.861157	-3.032366E+11	-6.810790E-14	NaN
563	1.000000	0.226896	7.37056e+06	-48939.1	1005.82	-29760.6	0.000000	0.000000	6.226801	0.073555	NaN	0.000000	0.001459	0.001704	28.0838	0.036529	0.001947	18.7627	118.877	-166.326	0.084738	0.225596	-0.852743	-0.854043	0.073555	18.7627	-0.855683	-2.556703E+11	-2.876959E-13	NaN
563	1.000000	0.234914	7.37056e+06	-48939.1	1005.82	-29760.6	0.000000	0.000000	6.234817	0.031485	NaN	0.000000	0.001492	0.001712	28.0841	0.032438	0.001975	16.4234	153.31	-164.939	-0.010736	0.233677	-0.844725	-0.845961	0.031485	16.4234	-0.846163	-1.900094E+11	-1.657013E-13	NaN
563	1.000000	0.242927	7.37056e+06	-48939.1	1005.82	-29760.6	0.000000	0.000000	6.242829	0.008446	NaN	0.000000	0.001477	0.001709	28.0837	0.061477	0.001932	31.8232	-100.074	-162.554	-0.024719	0.241621	-0.836712	-0.838018	0.008446	31.8232	-0.836911	-1.423777E+11	-5.932423E-14	NaN
563	1.000000	0.250920	7.37056e+06	-48939.1	1005.82	-29760.6	0.000000	0.000000	6.250821	-0.012840	NaN	0.000000	0.001512	0.001704	28.0835	0.075876	0.002138	35.4935	-53.5925	-166.277	0.099631	0.249621	-0.828719	-0.830017	-0.012840	35.4935	-0.828448	-1.093316E+11	1.174410E-13	NaN
563	1.000000	0.258938	7.37056e+06	-48939.1	1005.82	-29760.6	0.000000	0.000000	6.258841	0.015939	NaN	0.000000	0.001502	0.001695	28.0836	0.048671	0.001992	24.4363	57.3089	-163.842	0.055266	0.257587	-0.820701	-0.822052	0.015939	24.4363	-0.821190	-8.716676E+10	-1.828565E-13	NaN
563	1.000000	0.266952	7.37056e+06	-48939.1	1005.82	-29760.6	0.000000	0.000000	6.266855	0.031806	NaN	0.000000	0.001510	0.001720	28.0837	0.050659	0.002151	23.5528	-121.595	-159.36	0.048552	0.265594	-0.812687	-0.814045	0.031806	23.5528	-0.813700	-6.898664E+10	-4.610438E-13	NaN
563	1.000000	0.274937	7.37056e+06	-48939.1	1005.82	-29760.6	0.000000	0.000000	6.274837	-0.038073	NaN	0.000000	0.001478	0.001727	28.0837	0.022806	0.002095	10.8866	-145.541	-166.602	-0.018357	0.273613	-0.804702	-0.806026	-0.038073	10.8866	-0.802079	-4.798281E+10	7.934717E-13	NaN
563	1.000000	0.282937	7.37056e+06	-48939.1	1005.82	-29760.6	0.000000	0.000000	6.282837	-0.041318	NaN	0.000000	0.001492	0.001720	28.0837	0.124918	0.002005	62.3087	119.697	-164.049	-0.074503	0.281677	-0.796702	-0.797962	-0.041318	62.3087	-0.796205	-3.993341E+10	1.034682E-12	NaN
563	1.000000	0.290957	7.37056e+06	-48939.1	1005.82	-29760.6	0.000000	0.000000	6.290861	0.036720	NaN	0.000000	0.001469	0.001724	28.0838	0.115136	0.001965	58.5803	179.677	-166.02	0.073134	0.289611	-0.788681	-0.790028	0.036720	58.5803	-0.789152	-3.203022E+10	-1.146410E-12	NaN
563	1.000000	0.298963	7.37056e+06	-48939.1	1005.82	-29760.6	0.000000	0.000000	6.298866	0.020907	NaN	0.000000	0.001496	0.001740	28.0834	0.068084	0.001920	35.4678	9.649296	-168.25	0.028031	0.297655	-0.780676	-0.781984	0.020907	35.4678	-0.781118	-2.491291E+10	-8.392186E-13	NaN
563	1.000000	0.306987	7.37056e+06	-48939.1	1005.82	-29760.6	0.000000	0.000000	6.306892	0.077122	NaN	0.000000	0.001496	0.001708	28.0836	0.043340	0.001997	21.7008	-74.0697	-163.883	0.057164	0.305641	-0.772652	-0.773998	0.077122	21.7008	-0.775317	-2.077728E+10	-3.711845E-12	NaN
563	1.000000	0.314948	7.37056e+06	-48939.1	1005.82	-29760.6	0.000000	0.000000	6.314851	0.035445	NaN	0.000000	0.001458	0.001742	28.0837	0.163591	0.002038	80.27	-35.7332	-163.732	0.074675	0.313640	-0.764691	-0.765999	0.035445	80.27	-0.765022	-1.505271E+10	-2.354755E-12	NaN
563	1.000000	0.322952	7.37056e+06	-48939.1	1005.82	-29760.6	0.000000	0.000000	6.322857	0.069776	NaN	0.000000	0.001523	0.001695	28.0837	0.046067	0.002017	22.8402	110.394	-165.188	0.111502	0.321657	-0.756687	-0.757982	0.069776	22.8402	-0.758978	-1.245667E+10	-5.601498E-12	NaN
563	1.000000	0.330954	7.37056e+06	-48939.1	1005.82	-29760.6	0.000000	0.000000	6.330859	0.050965	NaN	0.000000	0.001485	0.001750	28.0839	0.037227	0.002011	18.5096	44.0779	-164.07	0.032478	0.329670	-0.748684	-0.749968	0.050965	18.5096	-0.750749	-9.625464E+9	-5.294837E-12	NaN
563	1.000000	0.338984	7.37056e+06	-48939.1	1005.82	-29760.6	0.000000	0.000000	6.338886	-0.008357	NaN	0.000000	0.001484	0.001790	28.0838	0.047927	0.001863	25.7269	130.933	-167.368	-0.038560	0.337610	-0.740655	-0.742028	-0.008357	25.7269	-0.740411	-6.960753E+9	1.200539E-12	NaN
563	1.000000	0.346957	7.37056e+06	-48939.1	1005.82	-29760.6	0.000000	0.000000	6.346859	-0.013168	NaN	0.000000	0.001499	0.001749	28.0825	0.042135	0.002160	19.5105	139.106	-164.103	-0.041359	0.345663	-0.732681	-0.733976	-0.013168	19.5105	-0.732175	-5.375927E+9	2.449502E-12	NaN
563	1.000000	0.354957	7.37056e+06	-48939.1	1005.82	-29760.6	0.000000	0.000000	6.354860	0.023609	NaN	0.000000	0.001492	0.001765	28.0822	0.012740	0.002047	6.224176	-130.236	-163.599	0.093423	0.353676	-0.724681	-0.725963	0.023609	6.224176	-0.727526	-4.646130E+9	-5.081465E-12	NaN
563	1.000000	0.362971	7.37056e+06	-48939.1	1005.82	-29760.6	0.000000	0.000000	6.362874	0.026836	NaN	0.000000	0.001474	0.001759	28.0823	0.011522	0.002004	5.750284	63.375	-165.993	0.005351	0.361641	-0.716668	-0.717998	0.026836	5.750284	-0.720168	-3.687794E+9	-7.277029E-12	NaN
563	1.000000	0.371008	7.37056e+06	-48939.1	1005.82	-29760.6	0.000000	0.000000	6.370910	-0.005047	NaN	0.000000	0.001468	0.001751	28.0825	0.091649	0.001879	48.7774	92.5321	-163.407	0.047345	0.369648	-0.708631	-0.709990	-0.005047	48.7774	-0.708553	-2.560382E+9	1.971164E-12	NaN
563	1.000000	0.378979	7.37056e+06	-48939.1	1005.82	-29760.6	0.000000	0.000000	6.378882	0.017221	NaN	0.000000	0.001495	0.001721	28.0826	0.037149	0.002051	18.1109	-2.253974	-163.159	-0.030573	0.377676	-0.700659	-0.701963	0.017221	18.1109	-0.701373	-2.043029E+9	-8.429373E-12	NaN
563	1.000000	0.386972	7.37056e+06	-48939.1	1005.82	-29760.6	0.000000	0.000000	6.386874	-0.019499	NaN	0.000000	0.001475	0.001725	28.0826	0.079868	0.001919	41.6184	177.235	-166.197	-0.012893	0.385696	-0.692666	-0.693943	-0.019499	41.6184	-0.692315	-1.536573E+9	1.269017E-11	NaN
563	1.000000	0.394987	7.37056e+06	-48939.1	1005.82	-29760.6	0.000000	0.000000	6.394886	-0.060539	NaN	0.000000	0.001474	0.001724	28.0823	0.062129	0.002033	30.5622	-143.123	-162.23	-0.066518	0.393639	-0.684652	-0.686000	-0.060539	30.5622	-0.683166	-1.152143E+9	5.254467E-11	NaN
563	1.000000	0.402978	7.37056e+06	-48939.1	1005.82	-29760.6	0.000000	0.000000	6.402881	0.025231	NaN	0.000000	0.001470	0.001758	28.0824	0.022167	0.001966	11.2748	83.7537	-167.64	-0.012139	0.401675	-0.676661	-0.677963	0.025231	11.2748	-0.678339	-9.896692E+8	-2.549425E-11	NaN
563	1.000000	0.410987	7.37056e+06	-48939.1	1005.82	-29760.7	0.000000	0.000000	6.410888	-0.020289	NaN	0.000000	0.001518	0.001734	28.0822	0.049769	0.002002	24.8642	-173.752	-164.691	0.046254	0.409690	-0.668652	-0.669949	-0.020289	24.8642	-0.668040	-7.154192E+8	2.835919E-11	NaN
563	1.000000	0.419004	7.37056e+06	-48939.1	1005.82	-29760.7	0.000000	0.000000	6.418906	0.010162	NaN	0.000000	0.001471	0.001744	28.0823	0.051899	0.002090	24.8356	40.1209	-167.954	0.017464	0.417701	-0.660635	-0.661937	0.010162	24.8356	-0.660942	-5.719695E+8	-1.776704E-11	NaN
563	1.000000	0.426991	7.37056e+06	-48939.1	1005.82	-29760.7	0.000000	0.000000	6.426896	0.066342	NaN	0.000000	0.001522	0.001691	28.0823	0.193452	0.002072	93.3647	-168.474	-164.875	0.135494	0.425727	-0.652648	-0.653912	0.066342	93.3647	-0.653181	-4.477477E+8	-1.481687E-10	NaN
563	1.000000	0.435023	7.37056e+06	-48939.1	1005.82	-29760.7	0.000000	0.000000	6.434927	0.044544	NaN	0.000000	0.001548	0.001724	28.0825	0.041571	0.001940	21.4336	-148.853	-162.712	-0.029270	0.433707	-0.644616	-0.645932	0.044544	21.4336	-0.646174	-3.589076E+8	-1.241099E-10	NaN
563	1.000000	0.442993	7.37056e+06	-48939.1	1005.82	-29760.7	0.000000	0.000000	6.442895	-0.002329	NaN	0.000000	0.001539	0.001730	28.0824	0.093680	0.001999	46.8625	-130.712	-162.72	-0.027532	0.441739	-0.636646	-0.637900	-0.002329	46.8625	-0.636609	-2.653109E+8	8.777164E-12	NaN
563	1.000000	0.451033	7.37056e+06	-48939.1	1005.82	-29760.7	0.000000	0.000000	6.450935	0.004163	NaN	0.000000	0.001501	0.001727	28.0822	0.137244	0.002129	64.4498	130.746	-164.795	0.014355	0.449686	-0.628606	-0.629953	0.004163	64.4498	-0.628654	-2.063190E+8	-2.017917E-11	NaN
563	1.000000	0.459034	7.37056e+06	-48939.1	1005.82	-29760.7	0.000000	0.000000	6.458937	0.039152	NaN	0.000000	0.001517	0.001714	28.0821	0.087620	0.002082	42.0764	-125.86	-165.147	0.022605	0.457731	-0.620605	-0.621908	0.039152	42.0764	-0.621303	-1.635104E+8	-2.394495E-10	NaN
563	1.000000	0.467030	7.37056e+06	-48939.1	1005.82	-29760.7	0.000000	0.000000	6.466935	0.056928	NaN	0.000000	0.001559	0.001704	28.0821	0.102597	0.001843	55.6792	51.9687	-166.286	0.079700	0.465723	-0.612609	-0.613915	0.056928	55.6792	-0.613375	-1.272174E+8	-4.474888E-10	NaN
563	1.000000	0.475047	7.37056e+06	-48939.1	1005.82	-29760.7	0.000000	0.000000	6.474950	0.018854	NaN	0.000000	0.001540	0.001727	28.0821	0.114278	0.001914	59.6991	13.0808	-165.315	0.053242	0.473728	-0.604592	-0.605911	0.018854	59.6991	-0.604829	-9.703858E+7	-1.942913E-10	NaN
563	1.000000	0.483068	7.37056e+06	-48939.1	1005.82	-29760.7	0.000000	0.000000	6.482971	0.030438	NaN	0.000000	0.001528	0.001698	28.0836	0.070849	0.002012	35.2054	39.8892	-167.997	0.065157	0.481745	-0.596571	-0.597894	0.030438	35.2054	-0.597219	-7.623581E+7	-3.992623E-10	NaN
563	1.000000	0.491041	7.37056e+06	-48939.1	1005.82	-29760.7	0.000000	0.000000	6.490943	0.001070	NaN	0.000000	0.001539	0.001741	28.0835	0.146337	0.002060	71.0259	140.242	-163.973	0.063902	0.489688	-0.588598	-0.589951	0.001070	71.0259	-0.588610	-5.800915E+7	-1.844052E-11	NaN
563	1.000000	0.499043	7.37056e+06	-48939.1	1005.82	-29760.7	0.000000	0.000000	6.498944	-0.015609	NaN	0.000000	0.001515	0.001771	28.0834	0.014440	0.001953	7.393589	0.107517	-163.691	-0.029290	0.497746	-0.580596	-0.581893	-0.015609	7.393589	-0.579013	-4.276613E+7	3.649743E-10	NaN
563	1.000000	0.507065	7.37056e+06	-48939.1	1005.82	-29760.7	0.000000	0.000000	6.506966	-0.034990	NaN	0.000000	0.001530	0.001720	28.0834	0.070929	0.002047	34.6514	-174.927	-165.513	0.022598	0.505718	-0.572574	-0.573921	-0.034990	34.6514	-0.571817	-3.401968E+7	1.028513E-9	NaN
563	1.000000	0.515041	7.37056e+06	-48939.1	1005.82	-29760.7	0.000000	0.000000	6.514946	0.057906	NaN	0.000000	0.001537	0.001698	28.0835	0.087515	0.001950	44.8681	-74.7784	-166.095	0.020633	0.513774	-0.564598	-0.565865	0.057906	44.8681	-0.565566	-2.788340E+7	-2.076725E-9	NaN
563	1.000000	0.523043	7.37056e+06	-48939.1	1005.82	-29760.7	0.000000	0.000000	6.522947	0.057340	NaN	0.000000	0.001551	0.001720	28.0833	0.139182	0.001920	72.4796	-159.895	-168.203	0.063528	0.521760	-0.556596	-0.557879	0.057340	72.4796	-0.557189	-2.135445E+7	-2.685159E-9	NaN
563	1.000000	0.531055	7.37056e+06	-48939.1	1005.82	-29760.7	0.000000	0.000000	6.530957	0.014327	NaN	0.000000	0.001594	0.001697	28.0836	0.086344	0.002104	41.0376	-70.1955	-160.815	-0.027999	0.529772	-0.548584	-0.549867	0.014327	41.0376	-0.548846	-1.636708E+7	-8.753257E-10	NaN
563	1.000000	0.539068	7.37056e+06	-48939.1	1005.82	-29760.7	0.000000	0.000000	6.538974	0.086336	NaN	0.000000	0.001617	0.001717	28.0835	0.083543	0.001993	41.9104	-116.707	-165.223	0.068154	0.537701	-0.540571	-0.541938	0.086336	41.9104	-0.542116	-1.320381E+7	-6.538684E-9	NaN
563	1.000000	0.547037	7.37056e+06	-48939.1	1005.82	-29760.7	0.000000	0.000000	6.546941	0.050926	NaN	0.000000	0.001626	0.001724	28.0833	0.047158	0.002046	23.0542	-21.555	-164.772	0.089747	0.545711	-0.532602	-0.533928	0.050926	23.0542	-0.534258	-1.027297E+7	-4.957262E-9	NaN
563	1.000000	0.555088	7.37056e+06	-48939.1	1005.82	-29760.7	0.000000	0.000000	6.554990	1.872386E-5	NaN	0.000000	0.001597	0.001754	28.0835	0.050565	0.002119	23.8571	91.2848	-163.786	-0.012136	0.553724	-0.524551	-0.525915	1.872386E-5	23.8571	-0.524551	-7.53137e+06	-2.486117E-12	NaN
563	1.000000	0.563053	7.37056e+06	-48939.1	1005.82	-29760.7	0.000000	0.000000	6.562954	-0.009699	NaN	0.000000	0.001603	0.001734	28.0834	0.061210	0.002007	30.4947	141.543	-165.172	0.061718	0.561718	-0.516586	-0.517921	-0.009699	30.4947	-0.516348	-5.79147e+06	1.674641E-9	NaN
563	1.000000	0.571092	7.37056e+06	-48939.1	1005.82	-29760.7	0.000000	0.000000	6.570997	0.069479	NaN	0.000000	0.001575	0.001745	28.0834	0.057793	0.001949	29.6483	-80.2746	-165.441	0.060259	0.569737	-0.508546	-0.509902	0.069479	29.6483	-0.510304	-4.77145e+06	-1.456148E-8	NaN
563	1.000000	0.579052	7.37056e+06	-48939.1	1005.82	-29760.7	0.000000	0.000000	6.578953	-0.004302	NaN	0.000000	0.001611	0.001708	28.0835	0.070716	0.002032	34.7984	-97.6979	-163.743	0.100206	0.577745	-0.500587	-0.501894	-0.004302	34.7984	-0.500495	-3.48271e+06	1.235115E-9	NaN
563	1.000000	0.587088	7.37056e+06	-48939.1	1005.82	-29760.7	0.000000	0.000000	6.586994	0.086671	NaN	0.000000	0.001634	0.001713	28.0833	0.029215	0.001976	14.7884	158.551	-160.806	0.074870	0.585764	-0.492551	-0.493874	0.086671	14.7884	-0.496946	-3.10743e+06	-2.789137E-8	NaN
563	1.000000	0.595055	7.37056e+06	-48939.1	1005.82	-29760.7	0.000000	0.000000	6.594956	-0.031647	NaN	0.000000	0.001643	0.001704	28.0838	0.077195	0.001943	39.7306	-81.2702	-165.156	0.011279	0.593790	-0.484584	-0.485849	-0.031647	39.7306	-0.483986	-2.04792e+06	1.545326E-8	NaN
563	1.000000	0.603054	7.37056e+06	-48939.1	1005.82	-29760.7	0.000000	0.000000	6.602956	-0.004901	NaN	0.000000	0.001642	0.001694	28.0833	0.068874	0.002096	32.8582	-49.2408	-165.671	0.027573	0.601773	-0.476585	-0.477866	-0.004901	32.8582	-0.476473	-1.60744e+06	3.048892E-9	NaN
563	1.000000	0.611088	7.37056e+06	-48939.1	1005.82	-29760.7	0.000000	0.000000	6.610989	-0.030867	NaN	0.000000	0.001624	0.001730	28.0832	0.115110	0.002052	56.0865	136.276	-164.266	-0.106033	0.609774	-0.468551	-0.469864	-0.030867	56.0865	-0.468138	-1.22825e+06	2.513045E-8	NaN
563	1.000000	0.619090	7.37056e+06	-48939.1	1005.82	-29760.7	0.000000	0.000000	6.618991	-0.012527	NaN	0.000000	0.001593	0.001721	28.0819	0.059785	0.002056	29.0765	-157.612	-163.85	-0.019500	0.617779	-0.460549	-0.461859	-0.012527	29.0765	-0.460226	-951037	1.317155E-8	NaN
563	1.000000	0.627115	7.37056e+06	-48939.1	1005.82	-29760.7	0.000000	0.000000	6.627020	0.079022	NaN	0.000000	0.001586	0.001719	28.0821	0.024177	0.001975	12.2401	141.704	-166.489	0.041002	0.625784	-0.452524	-0.453854	0.079022	12.2401	-0.457366	-866947	-9.115003E-8	NaN
563	1.000000	0.635090	7.37056e+06	-48939.1	1005.82	-29760.7	0.000000	0.000000	6.634992	0.011593	NaN	0.000000	0.001510	0.001710	28.0821	0.102804	0.001999	51.418	-163.33	-165.299	-0.121689	0.633771	-0.444549	-0.445868	0.011593	51.418	-0.444718	-575330	-2.014987E-8	NaN
563	1.000000	0.643080	7.37056e+06	-48939.1	1005.82	-29760.7	0.000000	0.000000	6.642983	0.035511	NaN	0.000000	0.001572	0.001734	28.0821	0.082369	0.002038	40.4192	141.279	-162.419	0.114747	0.641758	-0.436559	-0.437880	0.035511	40.4192	-0.437218	-450905	-7.875496E-8	NaN
563	1.000000	0.651119	7.37056e+06	-48939.1	1005.82	-29760.7	0.000000	0.000000	6.651022	0.024485	NaN	0.000000	0.001538	0.001715	28.0821	0.078695	0.002042	38.5415	150.841	-162.347	0.052695	0.649832	-0.428519	-0.429807	0.024485	38.5415	-0.428996	-345029	-7.096424E-8	NaN
563	1.000000	0.659095	7.37056e+06	-48939.1	1005.82	-29760.7	0.000000	0.000000	6.658998	0.038518	NaN	0.000000	0.001539	0.001713	28.0821	0.052385	0.001964	26.6657	148.824	-166.451	0.065949	0.657784	-0.420544	-0.421854	0.038518	26.6657	-0.421628	-271327	-1.419626E-7	NaN
563	1.000000	0.667101	7.37056e+06	-48939.1	1005.82	-29760.7	0.000000	0.000000	6.667004	0.007651	NaN	0.000000	0.001531	0.001788	28.0821	0.071809	0.002038	35.238	-9.218096	-168.919	-0.055286	0.665849	-0.412538	-0.413790	0.007651	35.238	-0.412700	-202670	-3.775337E-8	NaN
563	1.000000	0.675103	7.37056e+06	-48939.1	1005.82	-29760.7	0.000000	0.000000	6.675005	0.013567	NaN	0.000000	0.001553	0.001756	28.0819	0.127449	0.002010	63.4002	121.657	-166.996	0.057913	0.673810	-0.404536	-0.405829	0.013567	63.4002	-0.404697	-155930	-8.700890E-8	NaN
563	1.000000	0.683105	7.37056e+06	-48939.1	1005.82	-29760.7	0.000000	0.000000	6.683008	0.029065	NaN	0.000000	0.001558	0.001740	28.082	0.096170	0.002126	45.2304	70.0026	-165.631	0.051392	0.681832	-0.396534	-0.397807	0.029065	45.2304	-0.397016	-121177	-2.398551E-7	NaN
563	1.000000	0.691110	7.37056e+06	-48939.1	1005.82	-29760.7	0.000000	0.000000	6.691016	0.101374	NaN	0.000000	0.001568	0.001740	28.0819	0.034971	0.002121	16.4843	109.664	-160.972	0.077668	0.689784	-0.388529	-0.389855	0.101374	16.4843	-0.393141	-106680	-9.502640E-7	NaN
563	1.000000	0.699109	7.37056e+06	-48939.1	1005.82	-29760.7	0.000000	0.000000	6.699008	-0.070362	NaN	0.000000	0.001559	0.001720	28.0821	0.106359	0.001960	54.2764	61.1257	-163.421	0.039778	0.697784	-0.380530	-0.381855	-0.070362	54.2764	-0.379558	-68161.5	1.032277E-6	NaN
563	1.000000	0.707110	7.37056e+06	-48939.1	1005.82	-29760.7	0.000000	0.000000	6.707014	0.051441	NaN	0.000000	0.001554	0.001736	28.0821	0.033171	0.001949	17.0218	102.163	-166.883	0.023124	0.705816	-0.372529	-0.373822	0.051441	17.0218	-0.374796	-58228	-8.834442E-7	NaN
563	1.000000	0.715134	7.37056e+06	-48939.1	1005.82	-29760.7	0.000000	0.000000	6.715039	0.069625	NaN	0.000000	0.001540	0.001729	28.0818	0.079797	0.002009	39.7128	78.7926	-164.508	0.060178	0.713766	-0.364505	-0.365873	0.069625	39.7128	-0.365819	-43238.9	-1.610233E-6	NaN
563	1.000000	0.723163	7.37056e+06	-48939.1	1005.82	-29760.7	0.000000	0.000000	6.723065	0.007594	NaN	0.000000	0.001550	0.001721	28.0821	0.073790	0.001954	37.7556	-155.081	-164.485	0.009690	0.721855	-0.356476	-0.357784	0.007594	37.7556	-0.356627	-31845.6	-2.384558E-7	NaN
563	1.000000	0.731160	7.37056e+06	-48939.1	1005.82	-29760.7	0.000000	0.000000	6.731063	0.038314	NaN	0.000000	0.001525	0.001731	28.0819	0.142824	0.001976	72.2721	8.654072	-163.78	0.024167	0.729801	-0.348479	-0.349838	0.038314	72.2721	-0.348877	-24586.6	-1.558339E-6	NaN
563	1.000000	0.739133	7.37056e+06	-48939.1	1005.82	-29760.7	0.000000	0.000000	6.739037	0.038863	NaN	0.000000	0.001559	0.001712	28.0818	0.024024	0.002119	11.3352	126.487	-167.279	0.088671	0.737832	-0.340506	-0.341807	0.038863	11.3352	-0.343077	-20247.8	-1.919385E-6	NaN
563	1.000000	0.747118	7.37056e+06	-48939.1	1005.82	-29760.7	0.000000	0.000000	6.747023	0.059676	NaN	0.000000	0.001560	0.001714	28.0822	0.082634	0.001859	44.4578	149.772	-167.498	0.061924	0.745825	-0.332521	-0.333814	0.059676	44.4578	-0.333528	-14691.5	-4.061940E-6	NaN
563	1.000000	0.755162	7.37056e+06	-48939.1	1005.82	-29760.7	0.000000	0.000000	6.755065	0.011670	NaN	0.000000	0.001524	0.001696	28.0832	0.050112	0.001957	25.6047	-18.1082	-164.435	0.031705	0.753751	-0.324477	-0.325888	0.011670	25.6047	-0.324819	-10951.5	-1.065608E-6	NaN
563	1.000000	0.763158	7.37056e+06	-48939.1	1005.82	-29760.7	0.000000	0.000000	6.763063	0.050365	NaN	0.000000	0.001519	0.001684	28.0834	0.005463	0.002010	2.718770	-41.0937	-163.997	0.112508	0.761835	-0.316480	-0.317803	0.050365	2.718770	-0.330374	-13210.8	-3.812422E-6	NaN
563	1.000000	0.771149	7.37056e+06	-48939.1	1005.82	-29760.7	0.000000	0.000000	6.771056	0.103462	NaN	0.000000	0.001534	0.001733	28.0832	0.047923	0.002023	23.6921	44.4759	-165.38	0.069057	0.769870	-0.308489	-0.309768	0.103462	23.6921	-0.311765	-7033.29	-1.471027E-5	NaN
563	1.000000	0.779144	7.37056e+06	-48939.1	1005.82	-29760.7	0.000000	0.000000	6.779045	-0.008186	NaN	0.000000	0.001516	0.001756	28.0832	0.088269	0.002036	43.3559	-76.3312	-164.694	0.047507	0.777832	-0.300495	-0.301807	-0.008186	43.3559	-0.300354	-4763.2	1.718551E-6	NaN
563	1.000000	0.787147	7.37056e+06	-48939.1	1005.82	-29760.7	0.000000	0.000000	6.787050	0.009441	NaN	0.000000	0.001524	0.001774	28.0835	0.018263	0.001891	9.656467	-7.884970	-166.871	0.011412	0.785877	-0.292491	-0.293762	0.009441	9.656467	-0.293225	-3728.74	-2.532002E-6	NaN
563	1.000000	0.795153	7.37056e+06	-48939.1	1005.82	-29760.7	0.000000	0.000000	6.795056	0.013731	NaN	0.000000	0.001511	0.001739	28.0832	0.051530	0.001967	26.2034	-141.869	-168.097	-0.000755	0.793892	-0.284486	-0.285747	0.013731	26.2034	-0.284879	-2795.38	-4.912205E-6	NaN
563	1.000000	0.803149	7.37056e+06	-48939.1	1005.82	-29760.7	0.000000	0.000000	6.803052	0.041261	NaN	0.000000	0.001488	0.001694	28.0837	0.056847	0.001816	31.3106	-114.327	-162.843	0.070241	0.801809	-0.276490	-0.277830	0.041261	31.3106	-0.277479	-2162.2	-1.908310E-5	NaN
563	1.000000	0.811158	7.37056e+06	-48939.1	1005.82	-29760.7	0.000000	0.000000	6.811061	0.010835	NaN	0.000000	0.001551	0.001721	28.0834	0.054556	0.002020	27.0056	-163.661	-166.791	0.052614	0.809853	-0.268480	-0.269785	0.010835	27.0056	-0.268781	-1595.92	-6.788910E-6	NaN
563	1.000000	0.819151	7.37056e+06	-48939.1	1005.82	-29760.7	0.000000	0.000000	6.819055	0.053767	NaN	0.000000	0.001531	0.001727	28.0832	0.080956	0.001952	41.4826	156.296	-167.461	-3.938028E-5	0.817886	-0.260488	-0.261753	0.053767	41.4826	-0.261460	-1233.91	-4.357455E-5	NaN
563	1.000000	0.827168	7.37056e+06	-48939.1	1005.82	-29760.7	0.000000	0.000000	6.827070	0.013569	NaN	0.000000	0.001507	0.001699	28.0832	0.045573	0.002020	22.5628	-107.945	-164.896	0.016935	0.825925	-0.252471	-0.253714	0.013569	22.5628	-0.252922	-912.218	-1.487496E-5	NaN
563	1.000000	0.835192	7.37056e+06	-48939.1	1005.82	-29760.7	0.000000	0.000000	6.835095	0.030329	NaN	0.000000	0.001545	0.001731	28.0834	0.050463	0.002068	24.3995	98.9108	-164.22	-0.032384	0.833869	-0.244447	-0.245769	0.030329	24.3995	-0.245379	-697.184	-4.350156E-5	NaN
563	1.000000	0.843161	7.37056e+06	-48939.1	1005.82	-29760.7	0.000000	0.000000	6.843065	0.045679	NaN	0.000000	0.001556	0.001733	28.0837	0.026990	0.001834	14.7142	-119.346	-163.953	0.064586	0.841825	-0.236478	-0.237814	0.045679	14.7142	-0.238806	-550.669	-8.295097E-5	NaN
563	1.000000	0.851166	7.37056e+06	-48939.1	1005.82	-29760.7	0.000000	0.000000	6.851071	0.067553	NaN	0.000000	0.001553	0.001720	28.0832	0.055468	0.001926	28.7988	92.5901	-163.18	0.004732	0.849899	-0.228473	-0.229740	0.067553	28.7988	-0.230232	-403.812	-0.000167	NaN
563	1.000000	0.859164	7.37056e+06	-48939.1	1005.82	-29760.7	0.000000	0.000000	6.859062	-0.099902	NaN	0.000000	0.001552	0.001709	28.0842	0.039295	0.001891	20.7793	-165.635	-164.329	-0.150677	0.857869	-0.220475	-0.221770	-0.099902	20.7793	-0.216869	-247.48	0.000404	NaN
563	1.000000	0.867192	7.37056e+06	-48939.1	1005.82	-29760.7	0.000000	0.000000	6.867097	0.083316	NaN	0.000000	0.001569	0.001704	28.0834	0.012880	0.001923	6.697398	-76.98	-167.343	0.079212	0.865840	-0.212447	-0.213798	0.083316	6.697398	-0.221777	-296.516	-0.000281	NaN
563	1.000000	0.875195	7.37056e+06	-48939.1	1005.82	-29760.7	0.000000	0.000000	6.875098	0.028519	NaN	0.000000	0.001572	0.001702	28.0833	0.106074	0.002000	53.0405	172.526	-163.624	-0.008269	0.873902	-0.204444	-0.205737	0.028519	53.0405	-0.204847	-158.149	-0.000180	NaN
563	1.000000	0.883183	7.37056e+06	-48939.1	1005.82	-29760.7	0.000000	0.000000	6.883086	0.007233	NaN	0.000000	0.001563	0.001700	28.0834	0.085582	0.001972	43.4046	13.7359	-162.63	-0.105882	0.881848	-0.196455	-0.197791	0.007233	43.4046	-0.196580	-115.704	-6.250935E-5	NaN
563	1.000000	0.891191	7.37056e+06	-48939.1	1005.82	-29760.7	0.000000	0.000000	6.891092	-0.024585	NaN	0.000000	0.001529	0.001714	28.0819	0.039471	0.001993	19.8079	-167.238	-164.353	0.011033	0.889940	-0.188448	-0.189699	-0.024585	19.8079	-0.187517	-81.7437	0.000301	NaN
563	1.000000	0.899212	7.37056e+06	-48939.1	1005.82	-29760.7	0.000000	0.000000	6.899113	-0.004049	NaN	0.000000	0.001570	0.001762	28.082	0.060539	0.001883	32.1558	-98.3618	-162.086	0.008459	0.897917	-0.180427	-0.181722	-0.004049	32.1558	-0.180333	-61.8198	6.550026E-5	NaN
563	1.000000	0.907217	7.37056e+06	-48939.1	1005.82	-29760.7	0.000000	0.000000	6.907120	0.027613	NaN	0.000000	0.001534	0.001727	28.0821	0.102902	0.001989	51.7454	-15.5322	-160.865	0.027592	0.905886	-0.172422	-0.173752	0.027613	51.7454	-0.172822	-45.97	-0.000601	NaN
563	1.000000	0.915231	7.37056e+06	-48939.1	1005.82	-29760.7	0.000000	0.000000	6.915135	0.036984	NaN	0.000000	0.001564	0.001740	28.0822	0.125127	0.002009	62.2819	-111.12	-165.508	0.000620	0.913851	-0.164407	-0.165787	0.036984	62.2819	-0.164853	-33.3979	-0.001107	NaN
563	1.000000	0.923192	7.37056e+06	-48939.1	1005.82	-29760.7	0.000000	0.000000	6.923092	-0.036789	NaN	0.000000	0.001522	0.001764	28.0822	0.030519	0.001936	15.7617	-50.2794	-166.208	0.095760	0.921955	-0.156447	-0.157683	-0.036789	15.7617	-0.154697	-22.0353	0.001670	NaN
563	1.000000	0.931195	7.37056e+06	-48939.1	1005.82	-29760.7	0.000000	0.000000	6.931095	-0.029785	NaN	0.000000	0.001518	0.001708	28.082	0.062166	0.002077	29.9282	-1.887943	-165.893	-0.030204	0.929878	-0.148444	-0.149761	-0.029785	29.9282	-0.147698	-16.4392	0.001812	NaN
563	1.000000	0.939213	7.37056e+06	-48939.1	1005.82	-29760.7	0.000000	0.000000	6.939115	0.001782	NaN	0.000000	0.001512	0.001729	28.0821	0.049631	0.001973	25.1521	-19.2582	-163.265	0.004633	0.937932	-0.140426	-0.141707	0.001782	25.1521	-0.140479	-12.0769	-0.000148	NaN
563	1.000000	0.947217	7.37056e+06	-48939.1	1005.82	-29760.7	0.000000	0.000000	6.947122	0.066354	NaN	0.000000	0.001546	0.001741	28.0823	0.067678	0.001855	36.4875	105.659	-163.204	-0.064959	0.945923	-0.132422	-0.133716	0.066354	36.4875	-0.133786	-9.016916	-0.007359	NaN
563	1.000000	0.955207	7.37056e+06	-48939.1	1005.82	-29760.7	0.000000	0.000000	6.955113	0.083757	NaN	0.000000	0.001530	0.001777	28.0821	0.071890	0.002096	34.3016	152.954	-165.205	-0.004566	0.953897	-0.124431	-0.125742	0.083757	34.3016	-0.126263	-6.440536	-0.013005	NaN
563	1.000000	0.963206	7.37056e+06	-48939.1	1005.82	-29760.7	0.000000	0.000000	6.963107	-0.030616	NaN	0.000000	0.001515	0.001751	28.0818	0.064906	0.002070	31.3566	-8.612911	-167.926	-0.066736	0.961933	-0.116433	-0.117706	-0.030616	31.3566	-0.115700	-3.949292	0.007752	NaN
563	1.000000	0.971220	7.37056e+06	-48939.1	1005.82	-29760.7	0.000000	0.000000	6.971123	0.000905	NaN	0.000000	0.001539	0.001726	28.0819	0.091742	0.001931	47.4995	-102.954	-163.86	-0.011381	0.969971	-0.108418	-0.109668	0.000905	47.4995	-0.108433	-2.784219	-0.000325	NaN
563	1.000000	0.979204	7.37056e+06	-48939.1	1005.82	-29760.7	0.000000	0.000000	6.979109	0.058967	NaN	0.000000	0.001557	0.001747	28.0821	0.112720	0.001906	59.1543	13.8962	-160.429	-0.033340	0.977945	-0.100435	-0.101693	0.058967	59.1543	-0.101182	-1.940440	-0.030388	NaN
563	1.000000	0.987222	7.37056e+06	-48939.1	1005.82	-29760.7	0.000000	0.000000	6.987126	0.039223	NaN	0.000000	0.001541	0.001755	28.0821	0.085838	0.001917	44.7775	-144.884	-165.515	0.041496	0.985924	-0.092416	-0.093715	0.039223	44.7775	-0.093073	-1.274305	-0.030780	NaN
563	1.000000	0.995257	7.37056e+06	-48939.1	1005.82	-29760.7	0.000000	0.000000	6.995157	-0.036103	NaN	0.000000	0.001537	0.001759	28.0821	0.051868	0.001985	26.1279	147.893	-163.107	-0.046014	0.993902	-0.084382	-0.085736	-0.036103	26.1279	-0.083346	-0.748919	0.048207	NaN
563	1.000000	1.003205	7.37056e+06	-48939.1	1005.82	-29760.7	0.000000	0.000000	7.003109	0.048512	NaN	0.000000	0.001635	0.001730	28.082	0.025605	0.001980	12.9322	125.035	-159.276	0.040201	1.001927	-0.076434	-0.077712	0.048512	12.9322	-0.079247	-0.592677	-0.081852	NaN
563	1.000000	1.011253	7.37056e+06	-48939.1	1005.82	-29760.7	0.000000	0.000000	7.011156	0.022146	NaN	0.000000	0.001628	0.001735	28.0821	0.097298	0.002100	46.3424	-11.6016	-164.74	0.010559	1.009961	-0.068386	-0.069678	0.022146	46.3424	-0.068744	-0.315576	-0.070177	NaN
563	1.000000	1.019279	7.37056e+06	-48939.1	1005.82	-29760.7	0.000000	0.000000	7.019183	0.042602	NaN	0.000000	0.001563	0.001739	28.0822	0.083979	0.001939	43.3154	117.794	-168.169	0.013110	1.017966	-0.060360	-0.061673	0.042602	43.3154	-0.061098	-0.193584	-0.220068	NaN
563	1.000000	1.027268	7.37056e+06	-48939.1	1005.82	-29760.7	0.000000	0.000000	7.027171	0.032117	NaN	0.000000	0.001564	0.001760	28.0835	0.126137	0.002131	59.1802	30.373	-165.087	-0.011544	1.025948	-0.052371	-0.053691	0.032117	59.1802	-0.052778	-0.110609	-0.290367	NaN
563	1.000000	1.035290	7.37056e+06	-48939.1	1005.82	-29760.7	0.000000	0.000000	7.035189	-0.066385	NaN	0.000000	0.001545	0.001747	28.0833	0.107856	0.002135	50.5242	-80.5579	-166.724	-0.059433	1.033943	-0.044349	-0.045696	-0.066385	50.5242	-0.043364	-0.057272	1.159118	NaN
563	1.000000	1.043272	7.37056e+06	-48939.1	1005.82	-29760.7	0.000000	0.000000	7.043176	0.048129	NaN	0.000000	0.001588	0.001706	28.0834	0.147015	0.001871	78.5605	107.664	-160.475	-0.000256	1.041911	-0.036367	-0.037728	0.048129	78.5605	-0.036827	-0.036281	-1.326573	NaN
563	1.000000	1.051253	7.37056e+06	-48939.1	1005.82	-29760.7	0.000000	0.000000	7.051160	0.106814	NaN	0.000000	0.001582	0.001741	28.0835	0.076612	0.001921	39.8797	14.6593	-165.48	0.180969	1.049941	-0.028386	-0.029697	0.106814	39.8797	-0.030394	-0.023604	-4.525199	NaN
563	1.000000	1.059259	7.37056e+06	-48939.1	1005.82	-29760.7	0.000000	0.000000	7.059160	-0.026014	NaN	0.000000	0.001588	0.001775	28.0834	0.034624	0.002063	16.7876	-140.387	-167.768	0.073891	1.057992	-0.020380	-0.021647	-0.026014	16.7876	-0.019217	-0.011997	2.168430	NaN
563	1.000000	1.067232	7.37056e+06	-48939.1	1005.82	-29760.7	0.000000	0.000000	7.067135	0.029024	NaN	0.000000	0.001598	0.001809	28.0835	0.074208	0.001975	37.567	45.4964	-164.034	0.043103	1.065992	-0.012407	-0.013647	0.029024	37.567	-0.012986	-0.008094	-3.585685	NaN
563	1.000000	1.075245	7.37056e+06	-48939.1	1005.82	-29760.7	0.000000	0.000000	7.075147	0.002749	NaN	0.000000	0.001597	0.001815	28.0835	0.078323	0.001977	39.6154	-149.257	-163.478	-0.003867	1.073964	-0.004394	-0.005675	0.002749	39.6154	-0.004446	-0.003066	-0.896606	NaN
563	1.000000	1.083241	7.37056e+06	-48939.1	1005.82	-29760.7	0.000000	0.000000	7.083320	4.301624	NaN	0.000000	0.001586	0.001746	28.0832	5.114177	0.001799	2842.78	7.847629	-168.78	2.707636	1.081904	0.003602	0.002265	4.301624	2842.78	0.002467	0.001936	2221.8	59027.2
563	2.000000	1.087876	7.37056e+06	-48939.1	1005.82	-29760.7	0.000000	0.000000	7.088204	10.3641	NaN	0.000000	0.001593	0.001721	28.0834	9.786125	0.001715	5705.96	8.756007	-173.842	9.598104	1.087522	0.008237	0.007883	10.3641	5705.96	0.006875	0.005910	1753.52	67809.8
563	2.000000	1.089846	7.37056e+06	-48939.1	1005.82	-29760.7	0.000000	0.000000	7.090256	12.3415	NaN	0.000000	0.001558	0.001764	28.0833	12.1185	0.001717	7058.65	9.969848	-174.67	12.5266	1.089506	0.010207	0.009867	12.3415	7058.65	0.008896	0.007980	1546.51	72191.5
563	2.000000	1.091858	7.37056e+06	-48939.1	1005.82	-29760.7	0.000000	0.000000	7.092425	16.1755	NaN	0.000000	0.001604	0.001755	28.0833	14.0784	0.001752	8034.84	9.880523	-174.844	16.2196	1.091440	0.012219	0.011801	16.1755	8034.84	0.010709	0.009980	1620.77	73482.3
563	2.000000	1.093825	7.37056e+06	-48939.1	1005.82	-29760.7	0.000000	0.000000	7.094546	19.9224	NaN	0.000000	0.001574	0.001758	28.0835	16.2753	0.001820	8944.6	9.520333	-177.254	19.9385	1.093487	0.014186	0.013848	19.9224	8944.6	0.012516	0.012114	1644.6	74249.4
563	2.000000	1.095771	7.37056e+06	-48939.1	1005.82	-29760.7	0.000000	0.000000	7.096666	24.1353	NaN	0.000000	0.001582	0.001763	28.0834	18.4954	0.001810	10216.3	4.930227	-173.765	22.213	1.095476	0.016132	0.015837	24.1353	10216.3	0.014360	0.014442	1671.2	77670.2
563	2.000000	1.097802	7.37056e+06	-48939.1	1005.82	-29760.7	0.000000	0.000000	7.098869	28.3376	NaN	0.000000	0.001602	0.001733	28.0837	20.3666	0.001609	12655.2	8.033374	-178.933	28.4386	1.097488	0.018163	0.017849	28.3376	12655.2	0.016484	0.017315	1636.57	87867.7
563	2.000000	1.099798	7.37056e+06	-48939.1	1005.82	-29760.7	0.000000	0.000000	7.101075	33.45	NaN	0.000000	0.001575	0.001778	28.0832	22.5454	0.001778	12678.8	5.295117	-175.635	32.5743	1.099429	0.020159	0.019790	33.45	12678.8	0.018180	0.019763	1692.54	82399.3
563	2.000000	1.101804	7.37056e+06	-48939.1	1005.82	-29760.7	0.000000	0.000000	7.103313	39.0822	NaN	0.000000	0.001610	0.001776	28.0833	25.1222	0.001763	14246.9	7.671082	-178.922	37.5467	1.101427	0.022165	0.021788	39.0822	14246.9	0.020108	0.022711	1720.81	86371.3
563	2.000000	1.103707	7.37056e+06	-48939.1	1005.82	-29760.7	0.000000	0.000000	7.105362	42.6234	NaN	0.000000	0.001585	0.001777	28.0832	26.2741	0.001792	14661.3	4.624971	-176.868	40.175	1.103548	0.024068	0.023909	42.6234	14661.3	0.021888	0.025596	1665.25	83726.4
563	2.000000	1.105739	7.37056e+06	-48939.1	1005.82	-29760.7	0.000000	0.000000	7.107693	49.9055	NaN	0.000000	0.001602	0.001768	28.0822	29.0168	0.001804	16082.8	7.133276	-179.682	47.7586	1.105444	0.026100	0.025805	49.9055	16082.8	0.023773	0.028820	1731.6	86553.6
563	2.000000	1.107719	7.37056e+06	-48939.1	1005.82	-29760.7	0.000000	0.000000	7.109926	56.0396	NaN	0.000000	0.001600	0.001714	28.0822	29.9487	0.001708	17536.9	6.091791	-179.634	54.7495	1.107467	0.028080	0.027828	56.0396	17536.9	0.025684	0.032271	1736.51	89190
563	2.000000	1.109786	7.37056e+06	-48939.1	1005.82	-29760.7	0.000000	0.000000	7.112218	61.5337	NaN	0.000000	0.001588	0.001730	28.0819	32.9068	0.001818	18098	2.817822	-177.015	61.6847	1.109410	0.030147	0.029771	61.5337	18098	0.027597	0.035911	1713.51	87255.2
563	2.000000	1.111855	7.37056e+06	-48939.1	1005.82	-29760.7	0.000000	0.000000	7.114531	67.473	NaN	0.000000	0.001610	0.001720	28.083	35.6752	0.001842	19369.8	8.462016	177.856	68.7879	1.111511	0.032216	0.031872	67.473	19369.8	0.029603	0.039925	1689.98	88567.5
563	2.000000	1.113776	7.37056e+06	-48939.1	1005.82	-29760.7	0.000000	0.000000	7.116853	77.2119	NaN	0.000000	0.001619	0.001749	28.0821	37.4759	0.001758	21320	9.685120	173.63	76.889	1.113349	0.034137	0.033710	77.2119	21320	0.031421	0.043741	1765.21	93135.6
563	2.000000	1.115696	7.37056e+06	-48939.1	1005.82	-29760.7	0.000000	0.000000	7.119095	85.0602	NaN	0.000000	0.001584	0.001715	28.0819	39.742	0.001743	22803.6	4.071422	-179.843	82.5577	1.115420	0.036057	0.035782	85.0602	22803.6	0.033259	0.047771	1780.6	95323
563	2.000000	1.117736	7.37056e+06	-48939.1	1005.82	-29760.7	0.000000	0.000000	7.121489	93.6699	NaN	0.000000	0.001610	0.001750	28.0821	41.0528	0.001751	23448.7	6.544307	176.467	92.0774	1.117400	0.038097	0.037761	93.6699	23448.7	0.035101	0.051981	1802.01	93966.1
563	2.000000	1.119741	7.37056e+06	-48939.1	1005.82	-29760.7	0.000000	0.000000	7.123694	98.5262	NaN	0.000000	0.001581	0.001733	28.0821	43.8224	0.001888	23216.6	4.751714	179.351	97.8469	1.119442	0.040102	0.039803	98.5262	23216.6	0.036919	0.056308	1749.76	89389.1
563	2.000000	1.121657	7.37056e+06	-48939.1	1005.82	-29760.7	0.000000	0.000000	7.126080	109.947	NaN	0.000000	0.001566	0.001726	28.0834	45.6162	0.001724	26464.5	4.892861	178.026	105.281	1.121363	0.042018	0.041724	109.947	26464.5	0.038902	0.061222	1795.88	97719.7
563	2.000000	1.123708	7.37056e+06	-48939.1	1005.82	-29760.7	0.000000	0.000000	7.128448	117.665	NaN	0.000000	0.001583	0.001766	28.0823	48.166	0.001823	26423.3	5.225906	176.791	115.834	1.123493	0.044069	0.043855	117.665	26423.3	0.040729	0.065927	1784.78	94021.6
563	2.000000	1.125717	7.37056e+06	-48939.1	1005.82	-29760.7	0.000000	0.000000	7.131048	132.013	NaN	0.000000	0.001583	0.001746	28.0822	50.3791	0.001855	27153.8	6.778638	175.656	129.722	1.125393	0.046079	0.045755	132.013	27153.8	0.042432	0.070466	1873.44	93457.9
563	2.000000	1.127725	7.37056e+06	-48939.1	1005.82	-29760.7	0.000000	0.000000	7.133472	142.158	NaN	0.000000	0.001575	0.001743	28.0821	50.5404	0.001682	30051.5	3.974721	177.467	141.255	1.127399	0.048086	0.047760	142.158	30051.5	0.044538	0.076281	1863.61	99410.2
563	2.000000	1.129687	7.37056e+06	-48939.1	1005.82	-29760.7	0.000000	0.000000	7.135779	150.548	NaN	0.000000	0.001547	0.001754	28.0821	53.6552	0.001768	30355.8	5.470129	175.29	147.079	1.129408	0.050048	0.049769	150.548	30355.8	0.046328	0.081402	1849.43	97206.7
563	2.000000	1.131740	7.37056e+06	-48939.1	1005.82	-29760.7	0.000000	0.000000	7.138372	163.683	NaN	0.000000	0.001545	0.001758	28.0824	54.7637	0.001697	32262.6	2.984541	178.62	161.434	1.131370	0.052101	0.051731	163.683	32262.6	0.048296	0.087219	1876.68	99808
563	2.000000	1.133640	7.37056e+06	-48939.1	1005.82	-29760.7	0.000000	0.000000	7.140662	173.15	NaN	0.000000	0.001500	0.001768	28.0821	56.5404	0.001637	34547.5	3.516789	176.273	167.454	1.133342	0.054001	0.053703	173.15	34547.5	0.050242	0.093164	1858.55	103411
563	2.000000	1.135726	7.37056e+06	-48939.1	1005.82	-29760.7	0.000000	0.000000	7.143175	183.538	NaN	0.000000	0.001518	0.001737	28.082	60.597	0.001865	32494.1	6.487824	174.86	184.269	1.135393	0.056087	0.055754	183.538	32494.1	0.051851	0.098221	1868.62	94727.4
563	2.000000	1.137678	7.37056e+06	-48939.1	1005.82	-29760.7	0.000000	0.000000	7.145763	199.013	NaN	0.000000	0.001535	0.001732	28.0817	60.6281	0.001741	34817.6	3.523740	176.738	195.803	1.137264	0.058039	0.057626	199.013	34817.6	0.053752	0.104362	1906.94	98469.1
563	2.000000	1.139733	7.37056e+06	-48939.1	1005.82	-29760.7	0.000000	0.000000	7.148171	207.591	NaN	0.000000	0.001594	0.001746	28.0831	64.273	0.001721	37356.5	9.291797	171.117	207.369	1.139294	0.060094	0.059655	207.591	37356.5	0.055927	0.111608	1860	102162
563	2.000000	1.141801	7.37056e+06	-48939.1	1005.82	-29760.7	0.000000	0.000000	7.150476	213.376	NaN	0.000000	0.001580	0.001737	28.0833	67.2299	0.001810	37147.2	8.338865	171.163	215.779	1.141448	0.062162	0.061809	213.376	37147.2	0.057854	0.118225	1804.83	98706.5
563	2.000000	1.143736	7.37056e+06	-48939.1	1005.82	-29760.7	0.000000	0.000000	7.153523	240.424	NaN	0.000000	0.001610	0.001747	28.0832	67.7807	0.001831	37025	6.260392	174.054	241.206	1.143352	0.064097	0.063713	240.424	37025	0.059226	0.123049	1953.89	96433.8
563	2.000000	1.145724	7.37056e+06	-48939.1	1005.82	-29760.7	0.000000	0.000000	7.156017	252.717	NaN	0.000000	0.001552	0.001755	28.0833	68.5449	0.001808	37913.8	0.753057	179.685	254.422	1.145471	0.066085	0.065832	252.717	37913.8	0.061086	0.129731	1948	96171.9
563	2.000000	1.147701	7.37056e+06	-48939.1	1005.82	-29760.7	0.000000	0.000000	7.158661	268.932	NaN	0.000000	0.001528	0.001745	28.0829	70.7173	0.001743	40581.4	5.227498	174.649	268.453	1.147430	0.068062	0.067791	268.932	40581.4	0.063092	0.137129	1961.16	100123
563	2.000000	1.149711	7.37056e+06	-48939.1	1005.82	-29760.7	0.000000	0.000000	7.161159	280.813	NaN	0.000000	0.001529	0.001752	28.083	73.8201	0.001854	39808.9	4.687666	174.789	279.998	1.149300	0.070072	0.069661	280.813	39808.9	0.064782	0.143510	1956.74	96009
563	2.000000	1.151752	7.37056e+06	-48939.1	1005.82	-29760.7	0.000000	0.000000	7.163773	294.747	NaN	0.000000	0.001535	0.001756	28.0829	76.3612	0.001845	41384.7	6.548173	172.765	296.158	1.151453	0.072113	0.071814	294.747	41384.7	0.066771	0.151202	1949.36	97237.8
563	2.000000	1.153714	7.37056e+06	-48939.1	1005.82	-29760.7	0.000000	0.000000	7.166051	302.423	NaN	0.000000	0.001548	0.001747	28.0827	77.3203	0.001779	43458.5	5.694879	173.282	302.133	1.153303	0.074075	0.073664	302.423	43458.5	0.068856	0.159465	1896.49	99429.5
563	2.000000	1.155626	7.37056e+06	-48939.1	1005.82	-29760.7	0.000000	0.000000	7.168645	319.017	NaN	0.000000	0.001548	0.001730	28.0834	80.2437	0.001797	44652.7	1.507816	176.827	315.686	1.155413	0.075987	0.075774	319.017	44652.7	0.070629	0.166655	1914.23	99933.6
563	2.000000	1.157674	7.37056e+06	-48939.1	1005.82	-29760.7	0.000000	0.000000	7.171459	337.657	NaN	0.000000	0.001551	0.001751	28.0829	80.6071	0.001793	44959.5	2.401246	176.148	335.737	1.157372	0.078035	0.077734	337.657	44959.5	0.072402	0.173998	1940.58	98474.2
563	2.000000	1.159670	7.37056e+06	-48939.1	1005.82	-29760.7	0.000000	0.000000	7.173871	347.761	NaN	0.000000	0.001533	0.001754	28.0832	84.7004	0.001877	45129.7	5.516695	173.422	346.339	1.159310	0.080032	0.079671	347.761	45129.7	0.074252	0.181814	1912.73	96698.9
563	2.000000	1.161780	7.37056e+06	-48939.1	1005.82	-29760.7	0.000000	0.000000	7.176718	365.686	NaN	0.000000	0.001552	0.001750	28.0831	86.0122	0.001919	44826.9	6.140845	173.274	369.077	1.161323	0.082141	0.081684	365.686	44826.9	0.076023	0.189448	1930.27	94095
563	2.000000	1.163638	7.37056e+06	-48939.1	1005.82	-29760.7	0.000000	0.000000	7.178835	371.969	NaN	0.000000	0.001535	0.001752	28.0829	87.5921	0.001799	48699.6	6.018929	171.598	366.853	1.163459	0.084000	0.083820	371.969	48699.6	0.078271	0.199351	1865.9	99652.7
563	2.000000	1.165592	7.37056e+06	-48939.1	1005.82	-29760.7	0.000000	0.000000	7.181664	393.287	NaN	0.000000	0.001539	0.001719	28.0833	89.1286	0.001723	51739.7	6.040212	171.538	386.859	1.165282	0.085953	0.085643	393.287	51739.7	0.080252	0.208273	1888.33	103581
563	2.000000	1.167659	7.37056e+06	-48939.1	1005.82	-29760.7	0.000000	0.000000	7.184371	408.832	NaN	0.000000	0.001547	0.001746	28.083	90.9159	0.001840	49417.4	7.513381	169.594	405.021	1.167357	0.088020	0.087718	408.832	49417.4	0.081815	0.215442	1897.64	97271.9
563	2.000000	1.169609	7.37056e+06	-48939.1	1005.82	-29760.7	0.000000	0.000000	7.186897	422.853	NaN	0.000000	0.001558	0.001718	28.0837	92.1316	0.001739	52983.1	3.541948	173.612	416.819	1.169308	0.089970	0.089669	422.853	52983.1	0.083984	0.225581	1874.5	101920
563	2.000000	1.171713	7.37056e+06	-48939.1	1005.82	-29760.7	0.000000	0.000000	7.189343	431.148	NaN	0.000000	0.001535	0.001763	28.0831	95.3623	0.001659	57466	4.687700	172.153	432.059	1.171365	0.092074	0.091726	431.148	57466	0.086447	0.237354	1816.48	107767
563	2.000000	1.173592	7.37056e+06	-48939.1	1005.82	-29760.7	0.000000	0.000000	7.192131	453.265	NaN	0.000000	0.001494	0.001714	28.0817	97.2188	0.001770	54925.5	7.705174	169.505	449.86	1.173282	0.093953	0.093643	453.265	54925.5	0.087764	0.243761	1859.47	101640
563	2.000000	1.175679	7.37056e+06	-48939.1	1005.82	-29760.7	0.000000	0.000000	7.194939	470.812	NaN	0.000000	0.001503	0.001708	28.084	100.67	0.001857	54224.7	9.260193	168.544	469.49	1.175289	0.096040	0.095651	470.812	54224.7	0.089528	0.252474	1864.8	98596.6
563	2.000000	1.177717	7.37056e+06	-48939.1	1005.82	-29760.7	0.000000	0.000000	7.197640	486.917	NaN	0.000000	0.001505	0.001753	28.0858	101.172	0.001744	58024.5	9.834550	167.698	488.853	1.177217	0.098078	0.097579	486.917	58024.5	0.091784	0.263825	1845.61	103211
563	2.000000	1.179682	7.37056e+06	-48939.1	1005.82	-29760.7	0.000000	0.000000	7.200494	508.538	NaN	0.000000	0.001497	0.001743	28.0831	102.691	0.001669	61513.4	6.661206	170.629	508.802	1.179252	0.100043	0.099614	508.538	61513.4	0.093843	0.274384	1853.38	107291
563	2.000000	1.181669	7.37056e+06	-48939.1	1005.82	-29760.7	0.000000	0.000000	7.202996	521.077	NaN	0.000000	0.001563	0.001741	28.0819	105.898	0.001814	58365.2	7.149044	169.741	517.235	1.181332	0.102030	0.101693	521.077	58365.2	0.095334	0.282152	1846.8	100389
563	2.000000	1.183673	7.37056e+06	-48939.1	1005.82	-29760.7	0.000000	0.000000	7.205625	536.263	NaN	0.000000	0.001587	0.001766	28.0817	107.147	0.001776	60318.4	5.280060	171.038	534.084	1.183328	0.104034	0.103689	536.263	60318.4	0.097366	0.292905	1830.84	101826
563	2.000000	1.185225	7.37056e+06	-48939.1	1005.82	-29760.7	0.000000	0.000000	7.207844	552.503	NaN	0.000000	0.001589	0.001730	28.082	110.747	0.001871	59196.8	6.625662	-9.808261	552.699	1.184823	0.105586	0.105184	552.503	59196.8	0.098586	0.299449	1845.07	98834.9