File: remote_trans/data/nanoindenter/0828-1/data/Data_2025-08-06,11h17m57s/2025-07-22_16-23-58_1_307.txt
2025-07-22, 16:23:58, 1
Index	Phase	Displacement	Time	Pos X	Pos Y	Pos Z	Rot A	Rot B	Piezo Z	Force A	Force B	Gripper	Voltage A	Voltage B	Temperature	Amplitude force	Amplitude pos	Stiffness	Phase shift	Phase excitation	Force A raw	Displacement raw	HMax	HMax raw	Real Force	Real Stiffness	Contact Depth	Area	Hardness	Reduced Mod.
[#]	[#]	[um]	[s]	[um]	[um]	[um]	[m°]	[m°]	[um]	[uN]	[uN]	[V]	[V]	[V]	[°C]	[uN]	[um]	[N/m]	[°]	[°]	[uN]	[um]	[um]	[um]	[uN]	[N/m]	[um]	[um^2]	[MPa]	[MPa]
307	1.000000	0.002642	7.36807e+06	-53989.1	955.819	-29745	0.000000	0.000000	6.002777	-0.030642	NaN	0.000000	0.001601	0.001601	28.0788	0.057054	0.001009	56.5693	95.7916	-168.625	-0.030389	0.001416	-1.001600	-1.002827	-0.030642	56.5693	-1.001194	-2.354203E+13	1.301580E-15	NaN
307	1.000000	0.010620	7.36807e+06	-53989.1	955.818	-29745	0.000000	0.000000	6.010755	-0.027212	NaN	0.000000	0.001633	0.001603	28.0786	0.143716	0.001087	132.16	28.0532	-165.378	-0.012815	0.009351	-0.993623	-0.994891	-0.027212	132.16	-0.993468	-1.852764E+13	1.468729E-15	NaN
307	1.000000	0.018643	7.36807e+06	-53989.1	955.819	-29745	0.000000	0.000000	6.018781	0.052996	NaN	0.000000	0.001623	0.001612	28.0788	0.107926	0.001638	65.887	117.579	-167.586	0.025335	0.017258	-0.985600	-0.986984	0.052996	65.887	-0.986203	-1.479001E+13	-3.583248E-15	NaN
307	1.000000	0.026661	7.36807e+06	-53989.1	955.819	-29745	0.000000	0.000000	6.026800	0.067001	NaN	0.000000	0.001625	0.001630	28.0786	0.059803	0.001885	31.725	133.491	-161.935	0.043873	0.025270	-0.977582	-0.978973	0.067001	31.725	-0.979166	-1.188965E+13	-5.635194E-15	NaN
307	1.000000	0.034598	7.36807e+06	-53989.1	955.818	-29745	0.000000	0.000000	6.034735	0.019098	NaN	0.000000	0.001617	0.001632	28.0787	0.012484	0.001886	6.620703	-24.2377	-166.59	-0.097805	0.033357	-0.969644	-0.970886	0.019098	6.620703	-0.971807	-9.462839E+12	-2.018224E-15	NaN
307	1.000000	0.042649	7.36807e+06	-53989.1	955.819	-29745	0.000000	0.000000	6.042785	0.004383	NaN	0.000000	0.001636	0.001635	28.0792	0.123702	0.002125	58.2186	-28.0033	-165.921	0.010514	0.041304	-0.961594	-0.962939	0.004383	58.2186	-0.961650	-6.904241E+12	-6.347708E-16	NaN
307	1.000000	0.050605	7.36807e+06	-53989.1	955.818	-29745	0.000000	0.000000	6.050740	-0.025869	NaN	0.000000	0.001590	0.001630	28.0788	0.090266	0.001999	45.1465	-140.086	-166.602	-0.014662	0.049319	-0.953637	-0.954923	-0.025869	45.1465	-0.953207	-5.312293E+12	4.869739E-15	NaN
307	1.000000	0.058608	7.36807e+06	-53989.1	955.818	-29745	0.000000	0.000000	6.058742	-0.046290	NaN	0.000000	0.001609	0.001641	28.0785	0.044379	0.002013	22.0461	-169.419	-166.372	-0.043380	0.057311	-0.945634	-0.946931	-0.046290	22.0461	-0.944060	-3.998568E+12	1.157677E-14	NaN
307	1.000000	0.066629	7.36807e+06	-53989.1	955.819	-29745	0.000000	0.000000	6.066765	0.008535	NaN	0.000000	0.001623	0.001645	28.0787	0.026885	0.001859	14.4633	-136.654	-164.772	-0.067057	0.065337	-0.937614	-0.938905	0.008535	14.4633	-0.938056	-3.318260E+12	-2.572000E-15	NaN
307	1.000000	0.074652	7.36807e+06	-53989.1	955.818	-29745	0.000000	0.000000	6.074790	0.051144	NaN	0.000000	0.001596	0.001636	28.0785	0.088793	0.001898	46.7738	-62.9677	-163.097	-0.021678	0.073327	-0.929591	-0.930915	0.051144	46.7738	-0.930411	-2.616612E+12	-1.954586E-14	NaN
307	1.000000	0.082657	7.36807e+06	-53989.1	955.819	-29745	0.000000	0.000000	6.082792	-0.014776	NaN	0.000000	0.001668	0.001649	28.0787	0.143886	0.002034	70.7428	138.724	-166.701	0.029990	0.081330	-0.921586	-0.922912	-0.014776	70.7428	-0.921429	-1.979239E+12	7.465282E-15	NaN
307	1.000000	0.090623	7.36807e+06	-53989.1	955.819	-29745	0.000000	0.000000	6.090760	0.013287	NaN	0.000000	0.001647	0.001634	28.0785	0.048461	0.001999	24.242	67.2852	-164.672	0.004495	0.089316	-0.913619	-0.914926	0.013287	24.242	-0.914030	-1.572508E+12	-8.449358E-15	NaN
307	1.000000	0.098627	7.36807e+06	-53989.1	955.818	-29745	0.000000	0.000000	6.098763	0.011998	NaN	0.000000	0.001614	0.001639	28.0795	0.079073	0.001989	39.7583	56.0032	-161.753	-0.087797	0.097349	-0.905616	-0.906893	0.011998	39.7583	-0.905842	-1.218980E+12	-9.842558E-15	NaN
307	1.000000	0.106640	7.36807e+06	-53989.1	955.819	-29745	0.000000	0.000000	6.106777	0.009940	NaN	0.000000	0.001617	0.001627	28.0795	0.043950	0.002065	21.2872	-34.1702	-163.547	0.006531	0.105328	-0.897603	-0.898915	0.009940	21.2872	-0.897953	-9.536781E+11	-1.042291E-14	NaN
307	1.000000	0.114629	7.36807e+06	-53989.1	955.818	-29745	0.000000	0.000000	6.114766	0.026511	NaN	0.000000	0.001636	0.001644	28.0798	0.124130	0.002023	61.3713	-13.171	-165.071	0.026177	0.113372	-0.889613	-0.890870	0.026511	61.3713	-0.889937	-7.431377E+11	-3.567451E-14	NaN
307	1.000000	0.122653	7.36807e+06	-53989.1	955.819	-29745	0.000000	0.000000	6.122791	0.042277	NaN	0.000000	0.001642	0.001637	28.0799	0.084974	0.001904	44.6208	-173.172	-163.534	-0.028118	0.121262	-0.881589	-0.882980	0.042277	44.6208	-0.882300	-5.858819E+11	-7.216040E-14	NaN
307	1.000000	0.130630	7.36807e+06	-53989.1	955.819	-29745	0.000000	0.000000	6.130767	0.032074	NaN	0.000000	0.001625	0.001631	28.0799	0.082816	0.001985	41.7294	-59.8455	-164.188	0.014723	0.129369	-0.873613	-0.874874	0.032074	41.7294	-0.874189	-4.551082E+11	-7.047507E-14	NaN
307	1.000000	0.138680	7.36807e+06	-53989.1	955.819	-29745	0.000000	0.000000	6.138816	-0.010293	NaN	0.000000	0.001660	0.001635	28.0798	0.027277	0.002081	13.1081	85.4402	-167.497	0.040082	0.137371	-0.865562	-0.866871	-0.010293	13.1081	-0.864973	-3.415290E+11	3.013840E-14	NaN
307	1.000000	0.146625	7.36807e+06	-53989.1	955.819	-29745	0.000000	0.000000	6.146760	-0.016330	NaN	0.000000	0.001640	0.001645	28.0797	0.111658	0.001916	58.2698	-35.0296	-164.303	0.029793	0.145325	-0.857618	-0.858917	-0.016330	58.2698	-0.857407	-2.697907E+11	6.052770E-14	NaN
307	1.000000	0.154677	7.36807e+06	-53989.1	955.817	-29745	0.000000	0.000000	6.154812	-0.027878	NaN	0.000000	0.001639	0.001632	28.0798	0.069550	0.001931	36.0214	135.425	-165.048	-0.018153	0.153341	-0.849566	-0.850902	-0.027878	36.0214	-0.848985	-2.074901E+11	1.343586E-13	NaN
307	1.000000	0.162668	7.36807e+06	-53989.1	955.819	-29745	0.000000	0.000000	6.162802	-0.038203	NaN	0.000000	0.001629	0.001651	28.0797	0.059896	0.002053	29.1788	140.599	-163.376	-0.026876	0.161335	-0.841575	-0.842908	-0.038203	29.1788	-0.840593	-1.597074E+11	2.392068E-13	NaN
307	1.000000	0.170645	7.36807e+06	-53989.1	955.819	-29745	0.000000	0.000000	6.170783	0.032369	NaN	0.000000	0.001602	0.001627	28.0797	0.116878	0.001918	60.9233	88.3302	-168	-0.085964	0.169318	-0.833597	-0.834925	0.032369	60.9233	-0.833996	-1.299991E+11	-2.489974E-13	NaN
307	1.000000	0.178670	7.36807e+06	-53989.1	955.819	-29745	0.000000	0.000000	6.178807	0.016676	NaN	0.000000	0.001613	0.001606	28.0798	0.049988	0.002038	24.5281	103.666	-168.792	0.029214	0.177348	-0.825572	-0.826894	0.016676	24.5281	-0.826082	-1.015495E+11	-1.642126E-13	NaN
307	1.000000	0.186685	7.36807e+06	-53989.1	955.819	-29745	0.000000	0.000000	6.186821	0.006346	NaN	0.000000	0.001632	0.001673	28.0797	0.057113	0.001936	29.5076	176.846	-168.438	0.038627	0.185315	-0.817558	-0.818927	0.006346	29.5076	-0.817719	-7.821295E+10	-8.113472E-14	NaN
307	1.000000	0.194687	7.36807e+06	-53989.1	955.819	-29745	0.000000	0.000000	6.194824	0.022718	NaN	0.000000	0.001619	0.001640	28.0797	0.137722	0.001978	69.6177	175.833	-165.842	0.037503	0.193272	-0.809555	-0.810971	0.022718	69.6177	-0.809800	-6.107414E+10	-3.719688E-13	NaN
307	1.000000	0.202681	7.36807e+06	-53989.1	955.818	-29745	0.000000	0.000000	6.202816	-0.028402	NaN	0.000000	0.001600	0.001633	28.0797	0.197793	0.002060	95.9945	-9.498062	-165.04	-0.063355	0.201374	-0.801561	-0.802868	-0.028402	95.9945	-0.801339	-4.688571E+10	6.057676E-13	NaN
307	1.000000	0.210681	7.36807e+06	-53989.1	955.819	-29745	0.000000	0.000000	6.210818	0.027032	NaN	0.000000	0.001625	0.001653	28.0797	0.049797	0.002068	24.074	-116.9	-160.823	0.050879	0.209349	-0.793562	-0.794893	0.027032	24.074	-0.794404	-3.774749E+10	-7.161161E-13	NaN
307	1.000000	0.218664	7.36807e+06	-53989.1	955.818	-29745	0.000000	0.000000	6.218800	-0.000389	NaN	0.000000	0.001612	0.001632	28.0797	0.051916	0.001961	26.4793	80.9608	-165.828	0.026132	0.217397	-0.785578	-0.786846	-0.000389	26.4793	-0.785567	-2.863350E+10	1.359959E-14	NaN
307	1.000000	0.226671	7.36807e+06	-53989.1	955.818	-29745	0.000000	0.000000	6.226806	-0.038302	NaN	0.000000	0.001652	0.001616	28.0799	0.066181	0.002043	32.3948	-161.2	-165.976	-0.040997	0.225377	-0.777571	-0.778865	-0.038302	32.3948	-0.776684	-2.168557E+10	1.766236E-12	NaN
307	1.000000	0.234659	7.36807e+06	-53989.1	955.819	-29745	0.000000	0.000000	6.234793	-0.050245	NaN	0.000000	0.001648	0.001624	28.0789	0.071759	0.001986	36.1363	-156.524	-165.167	0.050462	0.233355	-0.769584	-0.770887	-0.050245	36.1363	-0.768541	-1.680607E+10	2.989679E-12	NaN
307	1.000000	0.242700	7.36807e+06	-53989.1	955.818	-29745	0.000000	0.000000	6.242836	0.011843	NaN	0.000000	0.001661	0.001625	28.0783	0.046240	0.002034	22.7362	-129.027	-162.59	0.026190	0.241365	-0.761543	-0.762877	0.011843	22.7362	-0.761933	-1.366478E+10	-8.666631E-13	NaN
307	1.000000	0.250699	7.36807e+06	-53989.1	955.819	-29745	0.000000	0.000000	6.250836	0.031486	NaN	0.000000	0.001644	0.001638	28.0784	0.095562	0.002080	45.9323	-135.639	-166.597	-0.034688	0.249391	-0.753544	-0.754851	0.031486	45.9323	-0.754058	-1.067701E+10	-2.948984E-12	NaN
307	1.000000	0.258709	7.36807e+06	-53989.1	955.819	-29745	0.000000	0.000000	6.258847	0.031029	NaN	0.000000	0.001625	0.001649	28.0783	0.038855	0.001987	19.5559	45.2776	-164.365	0.087529	0.257361	-0.745533	-0.746881	0.031029	19.5559	-0.746723	-8.484139E+9	-3.657327E-12	NaN
307	1.000000	0.266710	7.36807e+06	-53989.1	955.818	-29745	0.000000	0.000000	6.266845	-0.033907	NaN	0.000000	0.001675	0.001601	28.0785	0.106789	0.002072	51.544	75.7413	-167.341	-0.012509	0.265416	-0.737533	-0.738826	-0.033907	51.544	-0.737039	-6.262157E+9	5.414623E-12	NaN
307	1.000000	0.274705	7.36807e+06	-53989.1	955.818	-29745	0.000000	0.000000	6.274840	-0.017677	NaN	0.000000	0.001684	0.001683	28.0788	0.067987	0.002074	32.7765	158.174	-165.554	-0.037929	0.273376	-0.729538	-0.730866	-0.017677	32.7765	-0.729133	-4.886477E+9	3.617578E-12	NaN
307	1.000000	0.282694	7.36807e+06	-53989.1	955.817	-29745	0.000000	0.000000	6.282829	-0.033667	NaN	0.000000	0.001681	0.001667	28.0784	0.116124	0.001976	58.7809	-24.9482	-165.52	0.011085	0.281352	-0.721549	-0.722890	-0.033667	58.7809	-0.721119	-3.799564E+9	8.860866E-12	NaN
307	1.000000	0.290698	7.36807e+06	-53989.1	955.819	-29745	0.000000	0.000000	6.290835	0.011753	NaN	0.000000	0.001666	0.001671	28.0783	0.059514	0.002039	29.1851	105.745	-163.175	-0.052570	0.289418	-0.713544	-0.714824	0.011753	29.1851	-0.713846	-3.023674E+9	-3.887030E-12	NaN
307	1.000000	0.298744	7.36807e+06	-53989.1	955.818	-29745	0.000000	0.000000	6.298880	0.008723	NaN	0.000000	0.001675	0.001654	28.0783	0.049215	0.001958	25.14	-154.297	-162.408	0.026904	0.297404	-0.705499	-0.706838	0.008723	25.14	-0.705759	-2.345116E+9	-3.719461E-12	NaN
307	1.000000	0.306699	7.36807e+06	-53989.1	955.818	-29745	0.000000	0.000000	6.306834	-0.024514	NaN	0.000000	0.001676	0.001653	28.0785	0.161014	0.001911	84.2699	-95.6869	-163.624	-0.036578	0.305431	-0.697543	-0.698811	-0.024514	84.2699	-0.697325	-1.798860E+9	1.362763E-11	NaN
307	1.000000	0.314758	7.36807e+06	-53989.1	955.818	-29745	0.000000	0.000000	6.314894	-0.005756	NaN	0.000000	0.001671	0.001637	28.0784	0.093929	0.002041	46.0309	-174.831	-165.338	-0.035952	0.313376	-0.689484	-0.690866	-0.005756	46.0309	-0.689390	-1.401472E+9	4.107145E-12	NaN
307	1.000000	0.322707	7.36807e+06	-53989.1	955.819	-29745	0.000000	0.000000	6.322843	-0.022111	NaN	0.000000	0.001659	0.001658	28.0784	0.047921	0.002009	23.8497	91.686	-163.584	0.011815	0.321441	-0.681535	-0.682801	-0.022111	23.8497	-0.680840	-1.070755E+9	2.065012E-11	NaN
307	1.000000	0.330720	7.36807e+06	-53989.1	955.818	-29745	0.000000	0.000000	6.330856	-0.002315	NaN	0.000000	0.001658	0.001646	28.0785	0.099282	0.001988	49.9286	157.688	-168.063	0.037590	0.329438	-0.673522	-0.674805	-0.002315	49.9286	-0.673487	-8.494031E+8	2.726027E-12	NaN
307	1.000000	0.338736	7.36807e+06	-53989.1	955.817	-29745	0.000000	0.000000	6.338876	0.081441	NaN	0.000000	0.001642	0.001641	28.0784	0.042922	0.002038	21.0615	167.094	-165.366	0.041712	0.337435	-0.665506	-0.666808	0.081441	21.0615	-0.668406	-7.237343E+8	-1.125294E-10	NaN
307	1.000000	0.346742	7.36807e+06	-53989.1	955.818	-29745	0.000000	0.000000	6.346875	-0.085242	NaN	0.000000	0.001642	0.001669	28.0783	0.106326	0.001984	53.5915	-94.4251	-163.664	-0.065176	0.345385	-0.657500	-0.658857	-0.085242	53.5915	-0.656307	-4.941694E+8	1.724962E-10	NaN
307	1.000000	0.354742	7.36807e+06	-53989.1	955.819	-29745	0.000000	0.000000	6.354879	0.015993	NaN	0.000000	0.001656	0.001674	28.0783	0.094245	0.001952	48.2831	-172.308	-165.491	-0.033279	0.353462	-0.649501	-0.650780	0.015993	48.2831	-0.649749	-4.017887E+8	-3.980542E-11	NaN
307	1.000000	0.362738	7.36807e+06	-53989.1	955.819	-29745	0.000000	0.000000	6.362873	-0.031181	NaN	0.000000	0.001666	0.001640	28.0786	0.022193	0.001999	11.0999	154.423	-164.459	-0.147608	0.361392	-0.641504	-0.642850	-0.031181	11.0999	-0.639398	-2.897507E+8	1.076145E-10	NaN
307	1.000000	0.370754	7.36807e+06	-53989.1	955.817	-29745	0.000000	0.000000	6.370891	0.018853	NaN	0.000000	0.001668	0.001669	28.0793	0.111450	0.001966	56.6783	-150.992	-164.422	-0.052148	0.369388	-0.633489	-0.634855	0.018853	56.6783	-0.633738	-2.422969E+8	-7.780906E-11	NaN
307	1.000000	0.378730	7.36807e+06	-53989.1	955.819	-29745	0.000000	0.000000	6.378864	-0.048136	NaN	0.000000	0.001664	0.001654	28.0798	0.121856	0.001907	63.8905	-115.117	-163.583	0.015693	0.377442	-0.625512	-0.626801	-0.048136	63.8905	-0.624947	-1.834928E+8	2.623294E-10	NaN
307	1.000000	0.386755	7.36807e+06	-53989.1	955.818	-29745	0.000000	0.000000	6.386895	0.074832	NaN	0.000000	0.001620	0.001702	28.0795	0.054538	0.001994	27.3467	148.847	-167.301	0.067756	0.385438	-0.617487	-0.618805	0.074832	27.3467	-0.619539	-1.546331E+8	-4.839347E-10	NaN
307	1.000000	0.394770	7.36807e+06	-53989.1	955.819	-29745	0.000000	0.000000	6.394906	-0.014754	NaN	0.000000	0.001613	0.001687	28.0798	0.035540	0.002065	17.2079	-44.74	-163.349	-0.028159	0.393422	-0.609472	-0.610820	-0.014754	17.2079	-0.608829	-1.101552E+8	1.339338E-10	NaN
307	1.000000	0.402735	7.36807e+06	-53989.1	955.819	-29745	0.000000	0.000000	6.402869	-0.057636	NaN	0.000000	0.001651	0.001700	28.0795	0.137301	0.001926	71.2761	110.953	-166.084	-0.084132	0.401421	-0.601507	-0.602822	-0.057636	71.2761	-0.600900	-8.567641E+7	6.727193E-10	NaN
307	1.000000	0.410788	7.36807e+06	-53989.1	955.818	-29745	0.000000	0.000000	6.410921	-0.059345	NaN	0.000000	0.001668	0.001664	28.0797	0.086691	0.001975	43.893	96.4392	-164.347	-0.081580	0.409451	-0.593455	-0.594792	-0.059345	43.893	-0.592441	-6.551063E+7	9.058871E-10	NaN
307	1.000000	0.418756	7.36807e+06	-53989.1	955.818	-29745	0.000000	0.000000	6.418892	-0.017333	NaN	0.000000	0.001664	0.001665	28.0797	0.035147	0.002061	17.0546	-121.13	-168.182	0.024212	0.417456	-0.585486	-0.586786	-0.017333	17.0546	-0.584724	-5.127474E+7	3.380389E-10	NaN
307	1.000000	0.426790	7.36807e+06	-53989.1	955.818	-29745	0.000000	0.000000	6.426926	0.000388	NaN	0.000000	0.001636	0.001702	28.0795	0.095882	0.002022	47.4138	97.4845	-161.158	0.014943	0.425474	-0.577453	-0.578768	0.000388	47.4138	-0.577459	-4.070508E+7	-9.541124E-12	NaN
307	1.000000	0.434763	7.36807e+06	-53989.1	955.819	-29745	0.000000	0.000000	6.434901	0.028748	NaN	0.000000	0.001620	0.001692	28.0796	0.057829	0.002040	28.3507	159.944	-166.459	0.053378	0.433504	-0.569479	-0.570738	0.028748	28.3507	-0.570240	-3.235501E+7	-8.885224E-10	NaN
307	1.000000	0.442782	7.36807e+06	-53989.1	955.819	-29745	0.000000	0.000000	6.442920	0.043824	NaN	0.000000	0.001624	0.001673	28.0795	0.013971	0.002064	6.767756	92.3383	-164.304	0.019044	0.441482	-0.561460	-0.562760	0.043824	6.767756	-0.566317	-2.855791E+7	-1.534552E-9	NaN
307	1.000000	0.450820	7.36807e+06	-53989.1	955.819	-29745	0.000000	0.000000	6.450955	-0.017908	NaN	0.000000	0.001614	0.001688	28.0795	0.111579	0.002040	54.6859	71.1262	-165.402	-0.049866	0.449499	-0.553422	-0.554744	-0.017908	54.6859	-0.553177	-1.879097E+7	9.529936E-10	NaN
307	1.000000	0.458808	7.36807e+06	-53989.1	955.819	-29745	0.000000	0.000000	6.458944	-0.009415	NaN	0.000000	0.001575	0.001679	28.0795	0.055030	0.001993	27.6171	-21.6818	-164.073	0.072237	0.457467	-0.545434	-0.546776	-0.009415	27.6171	-0.545179	-1.455983E+7	6.466206E-10	NaN
307	1.000000	0.466803	7.36807e+06	-53989.1	955.818	-29745	0.000000	0.000000	6.466937	-0.048343	NaN	0.000000	0.001591	0.001626	28.0794	0.141170	0.001956	72.1719	165.702	-163.791	0.008411	0.465468	-0.537440	-0.538774	-0.048343	72.1719	-0.536937	-1.119105E+7	4.319764E-9	NaN
307	1.000000	0.474789	7.36807e+06	-53989.1	955.818	-29745	0.000000	0.000000	6.474926	0.004803	NaN	0.000000	0.001599	0.001663	28.0796	0.042456	0.002164	19.6191	-76.1258	-165.007	0.067321	0.473451	-0.529453	-0.530791	0.004803	19.6191	-0.529637	-8.862e+06	-5.419318E-10	NaN
307	1.000000	0.482803	7.36807e+06	-53989.1	955.818	-29745	0.000000	0.000000	6.482939	-0.026323	NaN	0.000000	0.001594	0.001687	28.0796	0.059999	0.001789	33.5369	-85.3427	-163.705	0.040390	0.481474	-0.521439	-0.522768	-0.026323	33.5369	-0.520850	-6.68997e+06	3.934678E-9	NaN
307	1.000000	0.490796	7.36807e+06	-53989.1	955.819	-29745	0.000000	0.000000	6.490932	-0.009705	NaN	0.000000	0.001637	0.001708	28.0796	0.113432	0.001984	57.1808	176.358	-166.483	-0.175449	0.489552	-0.513446	-0.514691	-0.009705	57.1808	-0.513319	-5.25574e+06	1.846541E-9	NaN
307	1.000000	0.498817	7.36807e+06	-53989.1	955.818	-29745	0.000000	0.000000	6.498952	-0.029355	NaN	0.000000	0.001637	0.001693	28.0797	0.016970	0.001940	8.747336	-50.4881	-164.149	0.006850	0.497512	-0.505426	-0.506730	-0.029355	8.747336	-0.502909	-3.76345e+06	7.799932E-9	NaN
307	1.000000	0.506807	7.36807e+06	-53989.1	955.819	-29745	0.000000	0.000000	6.506943	-0.010853	NaN	0.000000	0.001647	0.001665	28.0792	0.138942	0.001982	70.1171	157.729	-164.96	-0.062176	0.505495	-0.497435	-0.498747	-0.010853	70.1171	-0.497319	-3.14494e+06	3.450940E-9	NaN
307	1.000000	0.514798	7.36807e+06	-53989.1	955.819	-29745	0.000000	0.000000	6.514932	-0.053775	NaN	0.000000	0.001595	0.001678	28.0784	0.047277	0.002000	23.639	-10.1171	-164.561	-0.037025	0.513537	-0.489444	-0.490705	-0.053775	23.639	-0.487738	-2.31087e+06	2.327034E-8	NaN
307	1.000000	0.522820	7.36807e+06	-53989.1	955.818	-29745	0.000000	0.000000	6.522953	-0.073055	NaN	0.000000	0.001611	0.001708	28.0785	0.095259	0.002029	46.9404	78.7707	-167.447	-0.105010	0.521567	-0.481423	-0.482676	-0.073055	46.9404	-0.480256	-1.81595e+06	4.022966E-8	NaN
307	1.000000	0.530806	7.36807e+06	-53989.1	955.818	-29745	0.000000	0.000000	6.530941	-0.048498	NaN	0.000000	0.001612	0.001668	28.0784	0.121753	0.002055	59.2468	100.514	-163.742	-0.047385	0.529517	-0.473436	-0.474725	-0.048498	59.2468	-0.472822	-1.42882e+06	3.394263E-8	NaN
307	1.000000	0.538838	7.36807e+06	-53989.1	955.817	-29745	0.000000	0.000000	6.538974	-0.001845	NaN	0.000000	0.001621	0.001694	28.0784	0.055396	0.002086	26.5614	-99.6944	-162.368	0.038541	0.537523	-0.465404	-0.466720	-0.001845	26.5614	-0.465352	-1.12251e+06	1.643856E-9	NaN
307	1.000000	0.546822	7.36807e+06	-53989.1	955.817	-29745	0.000000	0.000000	6.546956	-0.045703	NaN	0.000000	0.001623	0.001724	28.0785	0.059460	0.001984	29.9671	-52.766	-166.33	-0.098672	0.545542	-0.457421	-0.458700	-0.045703	29.9671	-0.456277	-836902	5.461020E-8	NaN
307	1.000000	0.554827	7.36807e+06	-53989.1	955.818	-29745	0.000000	0.000000	6.554963	-0.001666	NaN	0.000000	0.001641	0.001667	28.0789	0.006750	0.002066	3.267702	-101.467	-167.611	0.001607	0.553495	-0.449415	-0.450747	-0.001666	3.267702	-0.449033	-661788	2.517754E-9	NaN
307	1.000000	0.562833	7.36807e+06	-53989.1	955.817	-29745	0.000000	0.000000	6.562968	-0.039149	NaN	0.000000	0.001627	0.001647	28.0784	0.024194	0.001926	12.5642	-143.159	-165.436	-0.039725	0.561540	-0.441409	-0.442703	-0.039149	12.5642	-0.439072	-478928	8.174221E-8	NaN
307	1.000000	0.570812	7.36807e+06	-53989.1	955.819	-29745	0.000000	0.000000	6.570951	0.063600	NaN	0.000000	0.001570	0.001706	28.0784	0.114486	0.001867	61.3105	3.285449	-164.823	0.037600	0.569478	-0.433430	-0.434764	0.063600	61.3105	-0.434208	-408848	-1.555593E-7	NaN
307	1.000000	0.578839	7.36807e+06	-53989.1	955.818	-29745	0.000000	0.000000	6.578974	-0.040984	NaN	0.000000	0.001608	0.001664	28.0784	0.063144	0.002065	30.5756	-73.9326	-166.635	-0.143128	0.577536	-0.425403	-0.426706	-0.040984	30.5756	-0.424398	-296998	1.379937E-7	NaN
307	1.000000	0.586832	7.36807e+06	-53989.1	955.818	-29745	0.000000	0.000000	6.586969	0.004244	NaN	0.000000	0.001616	0.001661	28.0785	0.059893	0.001973	30.36	-98.7714	-168.858	-0.008540	0.585565	-0.417410	-0.418677	0.004244	30.36	-0.417515	-237224	-1.788840E-8	NaN
307	1.000000	0.594830	7.36807e+06	-53989.1	955.819	-29745	0.000000	0.000000	6.594968	0.045283	NaN	0.000000	0.001655	0.001666	28.0786	0.036787	0.001911	19.2481	104.359	-164.202	0.014225	0.593536	-0.409412	-0.410706	0.045283	19.2481	-0.411177	-192811	-2.348588E-7	NaN
307	1.000000	0.602855	7.36807e+06	-53989.1	955.818	-29745	0.000000	0.000000	6.602990	-0.045536	NaN	0.000000	0.001628	0.001693	28.0784	0.054497	0.001988	27.4094	-127.511	-164.586	-0.020294	0.601575	-0.401387	-0.402667	-0.045536	27.4094	-0.400141	-134279	3.391164E-7	NaN
307	1.000000	0.610853	7.36807e+06	-53989.1	955.819	-29745	0.000000	0.000000	6.610991	0.030017	NaN	0.000000	0.001647	0.001649	28.0784	0.029814	0.001974	15.1037	-2.294444	-166.47	0.038551	0.609511	-0.393389	-0.394731	0.030017	15.1037	-0.394880	-112957	-2.657407E-7	NaN
307	1.000000	0.618855	7.36807e+06	-53989.1	955.819	-29745	0.000000	0.000000	6.618991	-0.010050	NaN	0.000000	0.001652	0.001665	28.0785	0.050724	0.002007	25.2698	69.29	-162.236	0.007500	0.617509	-0.385387	-0.386733	-0.010050	25.2698	-0.385089	-81820.4	1.228282E-7	NaN
307	1.000000	0.626812	7.36807e+06	-53989.1	955.817	-29745	0.000000	0.000000	6.626950	0.048905	NaN	0.000000	0.001600	0.001672	28.0785	0.062058	0.002085	29.7699	60.8042	-168.627	-0.020939	0.625557	-0.377430	-0.378686	0.048905	29.7699	-0.378662	-66173.9	-7.390427E-7	NaN
307	1.000000	0.634880	7.36807e+06	-53989.1	955.818	-29745	0.000000	0.000000	6.635013	-0.060743	NaN	0.000000	0.001596	0.001675	28.0785	0.116764	0.001933	60.4051	-155.437	-165.915	-0.028606	0.633557	-0.369363	-0.370685	-0.060743	60.4051	-0.368609	-47433.3	1.280606E-6	NaN
307	1.000000	0.642892	7.36807e+06	-53989.1	955.819	-29745	0.000000	0.000000	6.643027	-0.026906	NaN	0.000000	0.001582	0.001694	28.0785	0.056449	0.002049	27.5523	-129.664	-163.905	-0.068583	0.641546	-0.361351	-0.362697	-0.026906	27.5523	-0.360618	-36373.3	7.397192E-7	NaN
307	1.000000	0.650853	7.36807e+06	-53989.1	955.818	-29745	0.000000	0.000000	6.650990	0.017687	NaN	0.000000	0.001575	0.001667	28.0799	0.153594	0.002050	74.9205	153.019	-165.046	-0.023924	0.649564	-0.353389	-0.354679	0.017687	74.9205	-0.353566	-28755.5	-6.150696E-7	NaN
307	1.000000	0.658882	7.36807e+06	-53989.1	955.818	-29745	0.000000	0.000000	6.659016	-0.052296	NaN	0.000000	0.001608	0.001683	28.0799	0.023990	0.002147	11.1715	-62.9094	-162.922	-0.045944	0.657576	-0.345360	-0.346667	-0.052296	11.1715	-0.341850	-19431.3	2.691295E-6	NaN
307	1.000000	0.666896	7.36807e+06	-53989.1	955.819	-29745	0.000000	0.000000	6.667032	-0.007686	NaN	0.000000	0.001593	0.001667	28.0797	0.079957	0.001998	40.0242	116.398	-164.041	-0.092880	0.665588	-0.337347	-0.338654	-0.007686	40.0242	-0.337203	-16624.6	4.622963E-7	NaN
307	1.000000	0.674880	7.36807e+06	-53989.1	955.819	-29745	0.000000	0.000000	6.675016	-0.006715	NaN	0.000000	0.001589	0.001700	28.0798	0.019772	0.001803	10.9662	2.780761	-167.433	-0.011769	0.673522	-0.329362	-0.330720	-0.006715	10.9662	-0.328903	-12571.4	5.341083E-7	NaN
307	1.000000	0.682884	7.36807e+06	-53989.1	955.818	-29745	0.000000	0.000000	6.683018	-0.049856	NaN	0.000000	0.001554	0.001639	28.0798	0.127339	0.002041	62.3959	-69.7487	-165.401	-0.106204	0.681601	-0.321359	-0.322641	-0.049856	62.3959	-0.320759	-9545.81	5.222819E-6	NaN
307	1.000000	0.690910	7.36807e+06	-53989.1	955.818	-29745	0.000000	0.000000	6.691046	-0.005679	NaN	0.000000	0.001558	0.001658	28.0799	0.053324	0.002232	23.8919	91.3179	-164.447	-0.004636	0.689581	-0.313332	-0.314661	-0.005679	23.8919	-0.313154	-7373.77	7.701602E-7	NaN
307	1.000000	0.698888	7.36807e+06	-53989.1	955.818	-29745	0.000000	0.000000	6.699024	-0.005872	NaN	0.000000	0.001595	0.001648	28.0798	0.022446	0.002007	11.1862	39.6677	-162.934	-0.001324	0.697575	-0.305354	-0.306668	-0.005872	11.1862	-0.304960	-5576.55	1.053032E-6	NaN
307	1.000000	0.706908	7.36807e+06	-53989.1	955.818	-29745	0.000000	0.000000	6.707046	0.043229	NaN	0.000000	0.001563	0.001689	28.0798	0.118730	0.002086	56.9159	163.478	-164.069	-0.049724	0.705605	-0.297334	-0.298638	0.043229	56.9159	-0.297904	-4379.38	-9.871043E-6	NaN
307	1.000000	0.714913	7.36807e+06	-53989.1	955.819	-29745	0.000000	0.000000	6.715049	-0.017283	NaN	0.000000	0.001576	0.001714	28.0797	0.022678	0.002028	11.1814	42.0941	-164.858	-0.026594	0.713631	-0.289329	-0.290611	-0.017283	11.1814	-0.288170	-3132.3	5.517819E-6	NaN
307	1.000000	0.722894	7.36807e+06	-53989.1	955.817	-29745	0.000000	0.000000	6.723032	0.024041	NaN	0.000000	0.001570	0.001679	28.0798	0.016329	0.001911	8.542756	-153.597	-163.277	0.075627	0.721603	-0.281348	-0.282639	0.024041	8.542756	-0.283459	-2661.25	-9.033588E-6	NaN
307	1.000000	0.730904	7.36807e+06	-53989.1	955.817	-29745	0.000000	0.000000	6.731041	0.014118	NaN	0.000000	0.001558	0.001661	28.0795	0.061830	0.001915	32.2915	-101.488	-165.482	-0.059662	0.729634	-0.273339	-0.274608	0.014118	32.2915	-0.273667	-1893.21	-7.457260E-6	NaN
307	1.000000	0.738898	7.36807e+06	-53989.1	955.818	-29745	0.000000	0.000000	6.739033	-0.029612	NaN	0.000000	0.001566	0.001664	28.0796	0.106016	0.001943	54.5518	-125.128	-165.509	-0.004526	0.737571	-0.265345	-0.266672	-0.029612	54.5518	-0.264937	-1394.55	2.123418E-5	NaN
307	1.000000	0.746895	7.36807e+06	-53989.1	955.818	-29745	0.000000	0.000000	6.747029	-0.067352	NaN	0.000000	0.001575	0.001685	28.0798	0.047350	0.001909	24.7983	-74.485	-164.596	-0.000498	0.745586	-0.257347	-0.258656	-0.067352	24.7983	-0.255310	-992.87	6.783548E-5	NaN
307	1.000000	0.754935	7.36807e+06	-53989.1	955.818	-29745	0.000000	0.000000	6.755072	0.039688	NaN	0.000000	0.001580	0.001664	28.0799	0.107323	0.001857	57.7822	150.691	-163.014	0.039198	0.753621	-0.249308	-0.250621	0.039688	57.7822	-0.249823	-817.013	-4.857644E-5	NaN
307	1.000000	0.762910	7.36807e+06	-53989.1	955.818	-29745	0.000000	0.000000	6.763046	-0.003741	NaN	0.000000	0.001570	0.001680	28.0798	0.091071	0.002114	43.0839	-52.0738	-164.49	-0.067133	0.761587	-0.241332	-0.242656	-0.003741	43.0839	-0.241267	-601.633	6.218212E-6	NaN
307	1.000000	0.770902	7.36807e+06	-53989.1	955.817	-29745	0.000000	0.000000	6.771038	-0.023062	NaN	0.000000	0.001635	0.001667	28.0797	0.027037	0.002092	12.921	116.816	-167.641	0.050427	0.769581	-0.233340	-0.234661	-0.023062	12.921	-0.232001	-430.611	5.355543E-5	NaN
307	1.000000	0.778910	7.36807e+06	-53989.1	955.818	-29745	0.000000	0.000000	6.779046	0.001348	NaN	0.000000	0.001597	0.001651	28.0797	0.128104	0.002050	62.479	-61.3164	-161.765	-0.006516	0.777566	-0.225332	-0.226676	0.001348	62.479	-0.225349	-337.965	-3.989761E-6	NaN
307	1.000000	0.786896	7.36807e+06	-53989.1	955.818	-29745	0.000000	0.000000	6.787031	-0.037733	NaN	0.000000	0.001590	0.001689	28.0786	0.110769	0.002136	51.8685	-137.896	-165.799	-0.102346	0.785636	-0.217347	-0.218606	-0.037733	51.8685	-0.216801	-246.859	0.000153	NaN
307	1.000000	0.794939	7.36807e+06	-53989.1	955.818	-29745	0.000000	0.000000	6.795074	-0.038287	NaN	0.000000	0.001624	0.001689	28.0786	0.043570	0.001897	22.9689	-53.2114	-166.73	-0.150187	0.793613	-0.209303	-0.210629	-0.038287	22.9689	-0.208053	-178.339	0.000215	NaN
307	1.000000	0.802907	7.36807e+06	-53989.1	955.82	-29745	0.000000	0.000000	6.803042	-0.033653	NaN	0.000000	0.001645	0.001609	28.0787	0.041747	0.001902	21.9517	158.172	-165.832	-0.131786	0.801633	-0.201335	-0.202610	-0.033653	21.9517	-0.200185	-132.661	0.000254	NaN
307	1.000000	0.810961	7.36807e+06	-53989.1	955.818	-29745	0.000000	0.000000	6.811097	0.008345	NaN	0.000000	0.001674	0.001679	28.0783	0.168297	0.002087	80.6239	9.122217	-168.204	-0.033578	0.809615	-0.193282	-0.194628	0.008345	80.6239	-0.193359	-102.327	-8.154960E-5	NaN
307	1.000000	0.818945	7.36807e+06	-53989.1	955.818	-29745	0.000000	0.000000	6.819080	-0.033552	NaN	0.000000	0.001655	0.001648	28.0785	0.069505	0.002033	34.1918	-140.815	-170.181	-0.046678	0.817609	-0.185297	-0.186634	-0.033552	34.1918	-0.184561	-72.9009	0.000460	NaN
307	1.000000	0.826966	7.36807e+06	-53989.1	955.818	-29745	0.000000	0.000000	6.827098	-0.097078	NaN	0.000000	0.001656	0.001668	28.0784	0.054556	0.002064	26.4345	-157.713	-164.169	-0.088917	0.825642	-0.177277	-0.178601	-0.097078	26.4345	-0.174522	-49.1776	0.001974	NaN
307	1.000000	0.834909	7.36807e+06	-53989.1	955.818	-29745	0.000000	0.000000	6.835047	0.052494	NaN	0.000000	0.001681	0.001687	28.0783	0.054688	0.002101	26.0355	-157.868	-164.92	0.026743	0.833668	-0.169334	-0.170575	0.052494	26.0355	-0.170846	-42.4905	-0.001235	NaN
307	1.000000	0.842953	7.36807e+06	-53989.1	955.818	-29745	0.000000	0.000000	6.843089	-0.009278	NaN	0.000000	0.001699	0.001641	28.0788	0.061514	0.001950	31.5406	-112.924	-165.67	-0.000272	0.841620	-0.161289	-0.162622	-0.009278	31.5406	-0.161069	-28.6387	0.000324	NaN
307	1.000000	0.850951	7.36807e+06	-53989.1	955.818	-29745	0.000000	0.000000	6.851087	0.000531	NaN	0.000000	0.001718	0.001652	28.0787	0.085819	0.001879	45.6837	173.865	-166.147	-0.068700	0.849674	-0.153292	-0.154568	0.000531	45.6837	-0.153301	-20.7936	-2.552246E-5	NaN
307	1.000000	0.858936	7.36807e+06	-53989.1	955.817	-29745	0.000000	0.000000	6.859071	-0.045647	NaN	0.000000	0.001703	0.001660	28.0788	0.054508	0.002065	26.3902	98.0934	-165.401	-0.094644	0.857616	-0.145306	-0.146627	-0.045647	26.3902	-0.144009	-14.0541	0.003248	NaN
307	1.000000	0.866956	7.36807e+06	-53989.1	955.819	-29745	0.000000	0.000000	6.867090	-0.061865	NaN	0.000000	0.001712	0.001684	28.0786	0.072734	0.001912	38.0459	-40.235	-164.557	-0.063999	0.865639	-0.137286	-0.138604	-0.061865	38.0459	-0.136067	-9.968245	0.006206	NaN
307	1.000000	0.874954	7.36807e+06	-53989.1	955.819	-29745	0.000000	0.000000	6.875089	-0.020781	NaN	0.000000	0.001643	0.001661	28.0786	0.087425	0.001907	45.8425	108.932	-167.412	-0.030061	0.873657	-0.129288	-0.130586	-0.020781	45.8425	-0.128948	-7.270197	0.002858	NaN
307	1.000000	0.882956	7.36807e+06	-53989.1	955.818	-29745	0.000000	0.000000	6.883093	0.010407	NaN	0.000000	0.001641	0.001652	28.0783	0.095247	0.002091	45.543	101.366	-166.191	-0.047293	0.881679	-0.121287	-0.122564	0.010407	45.543	-0.121458	-5.169175	-0.002013	NaN
307	1.000000	0.890959	7.36807e+06	-53989.1	955.818	-29745	0.000000	0.000000	6.891099	0.076637	NaN	0.000000	0.001651	0.001657	28.0785	0.055123	0.002056	26.8093	43.58	-163.855	0.057406	0.889647	-0.113283	-0.114596	0.076637	26.8093	-0.115427	-3.898560	-0.019658	NaN
307	1.000000	0.898956	7.36807e+06	-53989.1	955.818	-29745	0.000000	0.000000	6.899091	-0.039329	NaN	0.000000	0.001615	0.001704	28.0789	0.092835	0.001994	46.557	27.7791	-161.687	0.014833	0.897732	-0.105286	-0.106510	-0.039329	46.557	-0.104653	-2.310276	0.017024	NaN
307	1.000000	0.906998	7.36807e+06	-53989.1	955.818	-29745	0.000000	0.000000	6.907132	-0.064934	NaN	0.000000	0.001711	0.001702	28.0786	0.128929	0.001984	64.9905	-74.7455	-163.656	-0.072862	0.905664	-0.097244	-0.098578	-0.064934	64.9905	-0.096495	-1.525242	0.042573	NaN
307	1.000000	0.915013	7.36807e+06	-53989.1	955.818	-29745	0.000000	0.000000	6.915146	-0.072043	NaN	0.000000	0.001711	0.001663	28.0787	0.099026	0.001952	50.7364	160.218	-163.52	-0.067084	0.913641	-0.089230	-0.090601	-0.072043	50.7364	-0.088165	-0.978404	0.073634	NaN
307	1.000000	0.923001	7.36807e+06	-53989.1	955.819	-29745	0.000000	0.000000	6.923137	-0.006602	NaN	0.000000	0.001647	0.001680	28.0797	0.061630	0.001926	32.0061	66.1306	-164.892	0.031788	0.921719	-0.081241	-0.082524	-0.006602	32.0061	-0.081087	-0.658812	0.010021	NaN
307	1.000000	0.930990	7.36807e+06	-53989.1	955.819	-29745	0.000000	0.000000	6.931126	-0.013385	NaN	0.000000	0.001653	0.001658	28.0797	0.121048	0.002050	59.043	-164.908	-163.969	0.027469	0.929708	-0.073252	-0.074535	-0.013385	59.043	-0.073082	-0.411694	0.032511	NaN
307	1.000000	0.938987	7.36807e+06	-53989.1	955.818	-29745	0.000000	0.000000	6.939124	0.007383	NaN	0.000000	0.001646	0.001660	28.0798	0.070155	0.001905	36.8305	-11.0407	-164.572	-0.033817	0.937629	-0.065255	-0.066613	0.007383	36.8305	-0.065406	-0.255751	-0.028869	NaN
307	1.000000	0.946994	7.36807e+06	-53989.1	955.819	-29745	0.000000	0.000000	6.947131	0.016372	NaN	0.000000	0.001635	0.001654	28.0799	0.068707	0.001908	36.0019	153.186	-164.164	0.005053	0.945729	-0.057248	-0.058514	0.016372	36.0019	-0.057589	-0.153395	-0.106730	NaN
307	1.000000	0.955003	7.36807e+06	-53989.1	955.818	-29745	0.000000	0.000000	6.955138	-0.037415	NaN	0.000000	0.001620	0.001664	28.0798	0.100981	0.001982	50.9616	91.0575	-165.66	0.019945	0.953699	-0.049239	-0.050543	-0.037415	50.9616	-0.048689	-0.083270	0.449314	NaN
307	1.000000	0.963009	7.36807e+06	-53989.1	955.819	-29745	0.000000	0.000000	6.963145	0.008820	NaN	0.000000	0.001650	0.001670	28.0797	0.120987	0.002064	58.6109	50.2624	-166.649	0.021423	0.961713	-0.041234	-0.042529	0.008820	58.6109	-0.041347	-0.049698	-0.177475	NaN
307	1.000000	0.970987	7.36807e+06	-53989.1	955.818	-29745	0.000000	0.000000	6.971120	-0.062916	NaN	0.000000	0.001709	0.001603	28.08	0.018605	0.002083	8.931868	82.7366	-163.715	-0.055629	0.969714	-0.033256	-0.034529	-0.062916	8.931868	-0.027973	-0.020241	3.108397	NaN
307	1.000000	0.979010	7.36807e+06	-53989.1	955.818	-29745	0.000000	0.000000	6.979143	-0.077404	NaN	0.000000	0.001667	0.001625	28.0797	0.031204	0.002096	14.889	95.041	-167.564	-0.033755	0.977719	-0.025232	-0.026523	-0.077404	14.889	-0.021333	-0.013580	5.699866	NaN
307	1.000000	0.986993	7.36807e+06	-53989.1	955.818	-29745	0.000000	0.000000	6.987128	-0.032261	NaN	0.000000	0.001689	0.001634	28.08	0.061130	0.001912	31.971	151.762	-168.088	-0.018845	0.985712	-0.017249	-0.018531	-0.032261	31.971	-0.016492	-0.010189	3.166238	NaN
307	1.000000	0.994997	7.36807e+06	-53989.1	955.818	-29745	0.000000	0.000000	6.995132	-0.044609	NaN	0.000000	0.001670	0.001631	28.0798	0.041032	0.001867	21.9733	40.2708	-167.642	0.004097	0.993698	-0.009245	-0.010544	-0.044609	21.9733	-0.007722	-0.005069	8.800906	NaN
307	1.000000	1.003017	7.36807e+06	-53989.1	955.819	-29745	0.000000	0.000000	7.003152	-0.023702	NaN	0.000000	0.001691	0.001643	28.0807	0.101104	0.002073	48.7781	104.682	-166.409	-0.011709	1.001723	-0.001226	-0.002520	-0.023702	48.7781	-0.000861	-0.000633	37.4409	NaN
307	1.000000	1.011020	7.36807e+06	-53989.1	955.819	-29745	0.000000	0.000000	7.011157	0.029018	NaN	0.000000	0.001708	0.001627	28.0802	0.040734	0.002031	20.0526	-13.2591	-165.598	0.041054	1.009702	0.006777	0.005460	0.029018	20.0526	0.005692	0.004774	6.078515	265.161
307	1.000000	1.019011	7.36807e+06	-53989.1	955.817	-29745	0.000000	0.000000	7.019147	-0.010771	NaN	0.000000	0.001650	0.001650	28.0798	0.057431	0.001815	31.6481	-153.182	-165.712	-0.002823	1.017718	0.014768	0.013475	-0.010771	31.6481	0.015024	0.015317	-0.703226	233.634
307	1.000000	1.027053	7.36807e+06	-53989.1	955.818	-29745	0.000000	0.000000	7.027197	0.183480	NaN	0.000000	0.001668	0.001641	28.0796	0.142020	0.001965	72.275	6.168275	-165.399	0.134731	1.025737	0.022811	0.021495	0.183480	72.275	0.020907	0.023987	7.649045	426.355
307	1.000000	1.035002	7.36807e+06	-53989.1	955.818	-29745	0.000000	0.000000	7.035151	0.313707	NaN	0.000000	0.001642	0.001679	28.0794	0.271212	0.002047	132.469	19.3895	-165.165	0.314749	1.033665	0.030759	0.029422	0.313707	132.469	0.028983	0.038663	8.113937	615.521
307	1.000000	1.043028	7.36807e+06	-53989.1	955.818	-29745	0.000000	0.000000	7.043186	0.529894	NaN	0.000000	0.001610	0.001659	28.0796	0.501101	0.002095	239.146	21.8325	-164.599	0.454416	1.041758	0.038785	0.037515	0.529894	239.146	0.037124	0.056806	9.328116	916.723
307	1.000000	1.051053	7.36807e+06	-53989.1	955.818	-29745	0.000000	0.000000	7.051217	0.677188	NaN	0.000000	0.001647	0.001623	28.0798	0.581697	0.001908	304.925	30.307	-166.83	0.670419	1.049685	0.046810	0.045442	0.677188	304.925	0.045145	0.077999	8.682049	997.523
307	1.000000	1.059018	7.36807e+06	-53989.1	955.819	-29745	0.000000	0.000000	7.059186	0.771948	NaN	0.000000	0.001671	0.001602	28.0783	0.838003	0.001988	421.547	36.4248	-168.845	0.728518	1.057726	0.054776	0.053483	0.771948	421.547	0.053402	0.103219	7.478763	1198.78
307	1.000000	1.067035	7.36807e+06	-53989.1	955.818	-29745	0.000000	0.000000	7.067218	1.123726	NaN	0.000000	0.001642	0.001628	28.0785	1.088624	0.002126	512.051	28.0078	-165.808	0.960033	1.065702	0.062793	0.061459	1.123726	512.051	0.061147	0.129953	8.647164	1297.76
307	1.000000	1.075031	7.36807e+06	-53989.1	955.817	-29745	0.000000	0.000000	7.075235	1.647520	NaN	0.000000	0.001626	0.001614	28.0782	1.672157	0.001881	889.187	27.1243	-168.676	1.590843	1.073689	0.070789	0.069446	1.647520	889.187	0.069399	0.161653	10.1917	2020.57
307	1.000000	1.083050	7.36807e+06	-53989.1	955.817	-29745	0.000000	0.000000	7.083284	2.392400	NaN	0.000000	0.001624	0.001656	28.0784	2.527713	0.002090	1209.65	29.3907	-167.349	2.350672	1.081731	0.078807	0.077489	2.392400	1209.65	0.077324	0.195151	12.2592	2501.78
307	1.000000	1.091055	7.36807e+06	-53989.1	955.818	-29745	0.000000	0.000000	7.091374	4.440061	NaN	0.000000	0.001610	0.001635	28.0783	3.915079	0.001958	1999.25	23.0506	-171.657	3.973099	1.089692	0.086813	0.085449	4.440061	1999.25	0.085147	0.231105	19.2123	3799.59
307	2.000000	1.098542	7.36807e+06	-53989.1	955.819	-29745	0.000000	0.000000	7.099005	7.944782	NaN	0.000000	0.001636	0.001676	28.0781	5.608415	0.001877	2987.28	18.7263	-172.447	8.033294	1.097661	0.094299	0.093419	7.944782	2987.28	0.092304	0.266475	29.8144	5287.15
307	2.000000	1.100720	7.36807e+06	-53989.1	955.818	-29745	0.000000	0.000000	7.101164	7.466790	NaN	0.000000	0.001631	0.001689	28.0785	5.802512	0.001826	3177.33	10.7548	-168.7	7.330588	1.100426	0.096478	0.096184	7.466790	3177.33	0.094715	0.278916	26.7707	5496.65
307	2.000000	1.102671	7.36807e+06	-53989.1	955.818	-29745	0.000000	0.000000	7.103156	8.474563	NaN	0.000000	0.001619	0.001682	28.0781	6.382831	0.001792	3561.31	9.228683	-168.237	8.701909	1.102354	0.098429	0.098111	8.474563	3561.31	0.096644	0.289064	29.3173	6051.82
307	2.000000	1.104661	7.36807e+06	-53989.1	955.818	-29745	0.000000	0.000000	7.105161	8.850517	NaN	0.000000	0.001624	0.001713	28.0781	6.867069	0.001953	3516.77	14.085	-171.959	8.781980	1.104299	0.100418	0.100056	8.850517	3516.77	0.098531	0.299152	29.5854	5874.5
307	2.000000	1.106663	7.36807e+06	-53989.1	955.817	-29745	0.000000	0.000000	7.107162	8.812222	NaN	0.000000	0.001622	0.001656	28.0783	7.246514	0.001993	3636.28	15.7649	-172.183	9.317405	1.106353	0.102421	0.102110	8.812222	3636.28	0.100603	0.310418	28.3883	5962.9
307	2.000000	1.108616	7.36807e+06	-53989.1	955.818	-29745	0.000000	0.000000	7.109060	7.488841	NaN	0.000000	0.001619	0.001673	28.0782	7.290975	0.001862	3914.91	14.9419	-174.412	7.536374	1.108324	0.104373	0.104082	7.488841	3914.91	0.102938	0.323350	23.1602	6290.11
307	2.000000	1.110608	7.36807e+06	-53989.1	955.818	-29745	0.000000	0.000000	7.111067	7.847764	NaN	0.000000	0.001624	0.001644	28.0786	7.522212	0.001886	3988.82	13.1019	-171.475	7.590421	1.110309	0.106366	0.106066	7.847764	3988.82	0.104890	0.334346	23.472	6302.59
307	2.000000	1.112633	7.36807e+06	-53989.1	955.818	-29745	0.000000	0.000000	7.113133	8.862877	NaN	0.000000	0.001634	0.001654	28.0785	8.307782	0.001971	4215.61	12.9371	-171.249	8.837054	1.112277	0.108390	0.108034	8.862877	4215.61	0.106813	0.345352	25.6633	6553.95
307	2.000000	1.114635	7.36807e+06	-53989.1	955.818	-29745	0.000000	0.000000	7.115178	9.887854	NaN	0.000000	0.001618	0.001674	28.0791	8.574926	0.002087	4108.58	9.935817	-167.807	10.0304	1.114238	0.110393	0.109996	9.887854	4108.58	0.108588	0.355654	27.8019	6294.35
307	2.000000	1.116594	7.36807e+06	-53989.1	955.817	-29745	0.000000	0.000000	7.117170	10.6943	NaN	0.000000	0.001643	0.001661	28.0785	9.066552	0.001928	4702.82	11.2198	-171.223	10.722	1.116334	0.112351	0.112091	10.6943	4702.82	0.110646	0.367783	29.0777	7084.93
307	2.000000	1.118598	7.36807e+06	-53989.1	955.818	-29745	0.000000	0.000000	7.119233	12.1336	NaN	0.000000	0.001671	0.001648	28.0784	9.806237	0.001863	5263.19	10.9898	-171.783	12.1622	1.118255	0.114355	0.114013	12.1336	5263.19	0.112626	0.379636	31.9611	7804.38
307	2.000000	1.120612	7.36807e+06	-53989.1	955.817	-29745	0.000000	0.000000	7.121283	13.0018	NaN	0.000000	0.001608	0.001637	28.0785	10.356	0.001989	5206.83	10.7367	-170.126	13.0646	1.120315	0.116369	0.116073	13.0018	5206.83	0.114497	0.390992	33.2532	7607.86
307	2.000000	1.122597	7.36807e+06	-53989.1	955.819	-29745	0.000000	0.000000	7.123303	13.8306	NaN	0.000000	0.001626	0.001644	28.0797	10.9877	0.001981	5547.33	12.7598	-173.413	14.1041	1.122230	0.118355	0.117987	13.8306	5547.33	0.116485	0.403240	34.2986	7981.33
307	2.000000	1.124587	7.36807e+06	-53989.1	955.818	-29745	0.000000	0.000000	7.125338	14.9447	NaN	0.000000	0.001637	0.001632	28.0801	11.641	0.001964	5926.66	12.4488	-173.749	14.8427	1.124338	0.120344	0.120095	14.9447	5926.66	0.118453	0.415538	35.9647	8399.97
307	2.000000	1.126555	7.36807e+06	-53989.1	955.818	-29745	0.000000	0.000000	7.127392	17.0395	NaN	0.000000	0.001641	0.001614	28.0795	12.2538	0.001960	6251.26	8.497184	-170.624	16.6219	1.126222	0.122312	0.121979	17.0395	6251.26	0.120268	0.427037	39.9017	8739.93
307	2.000000	1.128578	7.36807e+06	-53989.1	955.819	-29745	0.000000	0.000000	7.129472	18.4064	NaN	0.000000	0.001656	0.001626	28.0797	12.9492	0.001940	6676.01	11.1433	-175.05	18.1029	1.128264	0.124336	0.124022	18.4064	6676.01	0.122268	0.439880	41.8442	9196.51
307	2.000000	1.130597	7.36807e+06	-53989.1	955.817	-29745	0.000000	0.000000	7.131577	20.5006	NaN	0.000000	0.001689	0.001623	28.0797	13.8175	0.001843	7497.35	13.1459	-178.057	20.0946	1.130264	0.126355	0.126022	20.5006	7497.35	0.124304	0.453141	45.2412	10175.7
307	2.000000	1.132588	7.36807e+06	-53989.1	955.818	-29745	0.000000	0.000000	7.133615	21.6543	NaN	0.000000	0.001690	0.001602	28.0797	14.6254	0.001877	7792.81	11.9589	-177.933	21.945	1.132271	0.128346	0.128029	21.6543	7792.81	0.126262	0.466071	46.4615	10429
307	2.000000	1.134601	7.36807e+06	-53989.1	955.818	-29745	0.000000	0.000000	7.135760	24.8715	NaN	0.000000	0.001675	0.001612	28.0797	15.9157	0.001873	8497.16	10.4131	-175.83	25.1529	1.134266	0.130358	0.130024	24.8715	8497.16	0.128163	0.478794	51.9462	11219.5
307	2.000000	1.136573	7.36807e+06	-53989.1	955.818	-29745	0.000000	0.000000	7.137935	29.8064	NaN	0.000000	0.001653	0.001646	28.0795	18.1823	0.001640	11088.4	7.928650	-178.045	29.4824	1.136259	0.132330	0.132017	29.8064	11088.4	0.130314	0.493391	60.4113	14422.7
307	2.000000	1.138554	7.36807e+06	-53989.1	955.819	-29745	0.000000	0.000000	7.140147	35.4091	NaN	0.000000	0.001653	0.001631	28.0798	21.6725	0.001747	12403.6	9.459906	-179.611	34.5352	1.138248	0.134311	0.134005	35.4091	12403.6	0.132170	0.506155	69.9571	15928.6
307	2.000000	1.140612	7.36807e+06	-53989.1	955.819	-29745	0.000000	0.000000	7.142477	42.033	NaN	0.000000	0.001645	0.001604	28.0795	24.8554	0.001779	13974.6	10.5879	177.683	41.7279	1.140226	0.136369	0.135983	42.033	13974.6	0.134113	0.519684	80.8818	17711
307	2.000000	1.142547	7.36807e+06	-53989.1	955.819	-29745	0.000000	0.000000	7.144622	47.1241	NaN	0.000000	0.001650	0.001624	28.0796	27.1834	0.001758	15460.4	10.9032	175.794	46.4454	1.142224	0.138305	0.137982	47.1241	15460.4	0.136019	0.533120	88.393	19345.6
307	2.000000	1.144528	7.36807e+06	-53989.1	955.818	-29745	0.000000	0.000000	7.146966	55.9617	NaN	0.000000	0.001676	0.001632	28.0801	29.7457	0.001825	16296.9	6.063058	-179.768	54.1342	1.144209	0.140285	0.139967	55.9617	16296.9	0.137710	0.545184	102.647	20165.4
307	2.000000	1.146576	7.36807e+06	-53989.1	955.819	-29745	0.000000	0.000000	7.149330	63.6257	NaN	0.000000	0.001661	0.001619	28.0795	30.6188	0.001617	18931.9	6.373263	177.999	64.1822	1.146277	0.142334	0.142035	63.6257	18931.9	0.139813	0.560375	113.541	23106.2
307	2.000000	1.148537	7.36807e+06	-53989.1	955.819	-29745	0.000000	0.000000	7.151475	68.1262	NaN	0.000000	0.001644	0.001614	28.0796	33.5808	0.001833	18322.9	7.728322	176.939	67.505	1.148244	0.144294	0.144001	68.1262	18322.9	0.141506	0.572745	118.947	22120.1
307	2.000000	1.150567	7.36807e+06	-53989.1	955.818	-29745	0.000000	0.000000	7.153746	73.9946	NaN	0.000000	0.001654	0.001619	28.0795	35.7379	0.001745	20478.1	9.230391	175.635	74.579	1.150219	0.146324	0.145977	73.9946	20478.1	0.143614	0.588340	125.768	24392
307	2.000000	1.152520	7.36807e+06	-53989.1	955.819	-29745	0.000000	0.000000	7.156053	82.5667	NaN	0.000000	0.001648	0.001587	28.0797	36.8346	0.001801	20455.6	7.048402	177.016	80.6633	1.152175	0.148278	0.147933	82.5667	20455.6	0.145250	0.600585	137.477	24115.6
307	2.000000	1.154524	7.36807e+06	-53989.1	955.818	-29745	0.000000	0.000000	7.158288	88.1889	NaN	0.000000	0.001675	0.001629	28.0798	39.8815	0.001845	21610.3	7.059704	175.867	87.0258	1.154267	0.150282	0.150024	88.1889	21610.3	0.147221	0.615500	143.28	25166.4
307	2.000000	1.156484	7.36807e+06	-53989.1	955.819	-29745	0.000000	0.000000	7.160519	94.7852	NaN	0.000000	0.001709	0.001641	28.0781	39.6623	0.001791	22140.7	2.271395	-179.032	92.7802	1.156196	0.152241	0.151954	94.7852	22140.7	0.149030	0.629347	150.609	25498.8
307	2.000000	1.158598	7.36807e+06	-53989.1	955.818	-29745	0.000000	0.000000	7.162730	97.147	NaN	0.000000	0.001713	0.001611	28.0782	42.2956	0.001887	22409.9	4.553365	178.926	100.23	1.158297	0.154356	0.154054	97.147	22409.9	0.151104	0.645409	150.52	25485.6
307	2.000000	1.160557	7.36807e+06	-53989.1	955.819	-29745	0.000000	0.000000	7.165198	109.519	NaN	0.000000	0.001631	0.001624	28.0782	43.4668	0.001856	23423.3	3.923460	179.796	109.108	1.160129	0.156314	0.155887	109.519	23423.3	0.152808	0.658752	166.253	26366.9
307	2.000000	1.162491	7.36807e+06	-53989.1	955.818	-29745	0.000000	0.000000	7.167380	115.565	NaN	0.000000	0.001611	0.001620	28.0782	44.633	0.001783	25033.7	4.055230	178.162	113.446	1.162113	0.158248	0.157870	115.565	25033.7	0.154786	0.674418	171.354	27850.5
307	2.000000	1.164546	7.36807e+06	-53989.1	955.818	-29745	0.000000	0.000000	7.169735	122.842	NaN	0.000000	0.001631	0.001614	28.0785	47.381	0.001926	24597.9	4.627811	177.871	121.832	1.164236	0.160304	0.159994	122.842	24597.9	0.156558	0.688610	178.391	27082.3
307	2.000000	1.166468	7.36807e+06	-53989.1	955.818	-29745	0.000000	0.000000	7.171941	129.728	NaN	0.000000	0.001675	0.001587	28.0784	47.648	0.001676	28426.8	3.207126	176.806	126.34	1.166248	0.162226	0.162006	129.728	28426.8	0.158803	0.706796	183.544	30892.6
307	2.000000	1.168495	7.36807e+06	-53989.1	955.818	-29745	0.000000	0.000000	7.174314	138.142	NaN	0.000000	0.001614	0.001621	28.0782	49.4646	0.001771	27929.1	1.212391	179.471	136.819	1.168189	0.164253	0.163947	138.142	27929.1	0.160543	0.721056	191.582	30050.1
307	2.000000	1.170582	7.36807e+06	-53989.1	955.819	-29745	0.000000	0.000000	7.176708	145.622	NaN	0.000000	0.001608	0.001619	28.0781	52.054	0.001719	30279.2	7.766695	172.445	146.66	1.170172	0.166340	0.165930	145.622	30279.2	0.162733	0.739205	196.998	32176.2
307	2.000000	1.172503	7.36807e+06	-53989.1	955.818	-29745	0.000000	0.000000	7.179088	156.762	NaN	0.000000	0.001592	0.001635	28.0782	52.481	0.001771	29628.6	1.668230	179.413	155.242	1.172152	0.168261	0.167910	156.762	29628.6	0.164293	0.752270	208.385	31210.3
307	2.000000	1.174507	7.36807e+06	-53989.1	955.818	-29745	0.000000	0.000000	7.181261	160.901	NaN	0.000000	0.001623	0.001610	28.0783	55.3982	0.001877	29509.8	5.591069	174.804	160.756	1.174209	0.170264	0.169966	160.901	29509.8	0.166175	0.768190	209.455	30761.3
307	2.000000	1.176495	7.36807e+06	-53989.1	955.819	-29745	0.000000	0.000000	7.183770	173.55	NaN	0.000000	0.001639	0.001648	28.0783	56.2967	0.001896	29695.5	6.007184	174.888	171.692	1.176166	0.172253	0.171923	173.55	29695.5	0.167869	0.782665	221.742	30667.3
307	2.000000	1.178506	7.36807e+06	-53989.1	955.819	-29745	0.000000	0.000000	7.186141	182.3	NaN	0.000000	0.001607	0.001603	28.0782	59.4778	0.001808	32890	5.667777	173.595	181.525	1.178180	0.174264	0.173938	182.3	32890	0.170106	0.801985	227.311	33554.8
307	2.000000	1.180571	7.36807e+06	-53989.1	955.819	-29745	0.000000	0.000000	7.188468	188.66	NaN	0.000000	0.001651	0.001622	28.0781	61.3375	0.001927	31824.9	6.056051	174.176	189.105	1.180255	0.176329	0.176013	188.66	31824.9	0.171883	0.817497	230.778	32158.6
307	2.000000	1.182536	7.36807e+06	-53989.1	955.818	-29745	0.000000	0.000000	7.190906	200.164	NaN	0.000000	0.001641	0.001611	28.0781	62.9092	0.001734	36283.4	9.252957	169.484	201.983	1.182139	0.178294	0.177897	200.164	36283.4	0.174156	0.837566	238.983	36221.9
307	2.000000	1.184651	7.36807e+06	-53989.1	955.819	-29745	0.000000	0.000000	7.193172	203.836	NaN	0.000000	0.001632	0.001627	28.0781	65.2098	0.001799	36238.8	3.612783	175.08	210.353	1.184208	0.180409	0.179965	203.836	36238.8	0.176190	0.855736	238.199	35791.3
307	2.000000	1.186424	7.36807e+06	-53989.1	955.819	-29745	0.000000	0.000000	7.195525	217.943	NaN	0.000000	0.001632	0.001605	28.0782	65.7791	0.001848	35593	6.175725	172.344	214.335	1.186134	0.182182	0.181891	217.943	35593	0.177589	0.868344	250.986	34897.3
307	2.000000	1.188468	7.36807e+06	-53989.1	955.819	-29745	0.000000	0.000000	7.198043	229.471	NaN	0.000000	0.001665	0.001625	28.0784	66.8377	0.001753	38137.8	1.825821	176.319	228.648	1.188298	0.184226	0.184055	229.471	38137.8	0.179713	0.887669	258.51	36983.1
307	2.000000	1.190545	7.36807e+06	-53989.1	955.819	-29745	0.000000	0.000000	7.200436	237.153	NaN	0.000000	0.001632	0.001632	28.0795	69.7764	0.001780	39206.9	5.425355	172.376	237.787	1.190217	0.186302	0.185975	237.153	39206.9	0.181766	0.906554	261.598	37621.8
307	2.000000	1.192501	7.36807e+06	-53989.1	955.818	-29745	0.000000	0.000000	7.202738	245.563	NaN	0.000000	0.001647	0.001639	28.0792	71.2242	0.001912	37258.3	4.689455	173.506	245.491	1.192238	0.188258	0.187996	245.563	37258.3	0.183315	0.920944	266.643	35471.5
307	2.000000	1.194479	7.36807e+06	-53989.1	955.818	-29745	0.000000	0.000000	7.205323	260.313	NaN	0.000000	0.001644	0.001638	28.0795	71.9521	0.001739	41368.1	1.951498	175.834	260.398	1.194203	0.190236	0.189960	260.313	41368.1	0.185517	0.941591	276.461	38950.1
307	2.000000	1.196489	7.36807e+06	-53989.1	955.818	-29745	0.000000	0.000000	7.207647	267.966	NaN	0.000000	0.001652	0.001605	28.0794	74.0535	0.001810	40920	3.993507	174.177	267.077	1.196135	0.192247	0.191893	267.966	40920	0.187335	0.958818	279.475	38180.4
307	2.000000	1.196995	7.36807e+06	-53989.1	955.818	-29745	0.000000	0.000000	7.208273	270.875	NaN	0.000000	0.001658	0.001631	28.0796	75.015	0.001913	39211.5	5.226175	-6.560920	267.494	1.196648	0.192752	0.192406	270.875	39211.5	0.187571	0.961067	281.849	36543.4