File: remote_trans/data/nanoindenter/0828-1/data/Data_2025-08-06,11h17m57s/2025-07-22_16-23-58_1_1170.txt
2025-07-22, 16:23:58, 1
Index	Phase	Displacement	Time	Pos X	Pos Y	Pos Z	Rot A	Rot B	Piezo Z	Force A	Force B	Gripper	Voltage A	Voltage B	Temperature	Amplitude force	Amplitude pos	Stiffness	Phase shift	Phase excitation	Force A raw	Displacement raw	HMax	HMax raw	Real Force	Real Stiffness	Contact Depth	Area	Hardness	Reduced Mod.
[#]	[#]	[um]	[s]	[um]	[um]	[um]	[m°]	[m°]	[um]	[uN]	[uN]	[V]	[V]	[V]	[°C]	[uN]	[um]	[N/m]	[°]	[°]	[uN]	[um]	[um]	[um]	[uN]	[N/m]	[um]	[um^2]	[MPa]	[MPa]
1170	1.000000	0.002837	7.37649e+06	-57089.1	1105.82	-29737.3	0.000000	0.000000	6.002783	-0.023488	NaN	0.000000	0.001555	0.001689	28.0844	0.087409	0.001017	85.9074	22.0278	-166.406	-0.022496	0.001592	-1.027225	-1.028471	-0.023488	85.9074	-1.027020	-5.240766E+13	4.481806E-16	NaN
1170	1.000000	0.010823	7.37649e+06	-57089.1	1105.82	-29737.3	0.000000	0.000000	6.010771	0.037667	NaN	0.000000	0.001564	0.001690	28.0841	0.030083	0.001104	27.2577	-33.8268	-167.988	0.128653	0.009521	-1.019239	-1.020541	0.037667	27.2577	-1.020276	-4.252650E+13	-8.857319E-16	NaN
1170	1.000000	0.018860	7.37649e+06	-57089.1	1105.82	-29737.3	0.000000	0.000000	6.018807	0.000550	NaN	0.000000	0.001573	0.001701	28.0845	0.112528	0.001661	67.7555	119.274	-167.208	0.061896	0.017475	-1.011202	-1.012587	0.000550	67.7555	-1.011208	-3.211017E+13	-1.712034E-17	NaN
1170	1.000000	0.026852	7.37649e+06	-57089.1	1105.82	-29737.3	0.000000	0.000000	6.026798	-0.008709	NaN	0.000000	0.001553	0.001725	28.083	0.063032	0.001949	32.3401	-158.555	-165.885	0.078832	0.025551	-1.003210	-1.004511	-0.008709	32.3401	-1.003008	-2.490402E+13	3.496972E-16	NaN
1170	1.000000	0.034832	7.37649e+06	-57089.1	1105.82	-29737.3	0.000000	0.000000	6.034780	0.022517	NaN	0.000000	0.001547	0.001709	28.0831	0.021607	0.001968	10.9765	1.824205	-164.48	0.064018	0.033489	-0.995230	-0.996573	0.022517	10.9765	-0.996768	-2.052374E+13	-1.097108E-15	NaN
1170	1.000000	0.042792	7.37649e+06	-57089.1	1105.82	-29737.3	0.000000	0.000000	6.042739	0.005705	NaN	0.000000	0.001568	0.001737	28.0832	0.054943	0.001971	27.8723	-103.99	-163.17	-0.015088	0.041480	-0.987270	-0.988582	0.005705	27.8723	-0.987424	-1.536087E+13	-3.713912E-16	NaN
1170	1.000000	0.050794	7.37649e+06	-57089.1	1105.82	-29737.3	0.000000	0.000000	6.050741	0.019443	NaN	0.000000	0.001586	0.001700	28.083	0.172384	0.001882	91.6162	-136.635	-164.377	0.051947	0.049480	-0.979269	-0.980582	0.019443	91.6162	-0.979428	-1.198675E+13	-1.622049E-15	NaN
1170	1.000000	0.058836	7.37649e+06	-57089.1	1105.82	-29737.3	0.000000	0.000000	6.058782	-0.015658	NaN	0.000000	0.001586	0.001717	28.0831	0.072492	0.002008	36.1059	-31.2475	-166.103	0.033615	0.057511	-0.971226	-0.972551	-0.015658	36.1059	-0.970901	-9.200405E+12	1.701862E-15	NaN
1170	1.000000	0.066831	7.37649e+06	-57089.1	1105.82	-29737.3	0.000000	0.000000	6.066781	0.067290	NaN	0.000000	0.001566	0.001728	28.0828	0.086704	0.001874	46.2637	167.824	-163.973	0.104977	0.065467	-0.963231	-0.964596	0.067290	46.2637	-0.964322	-7.501193E+12	-8.970561E-15	NaN
1170	1.000000	0.074805	7.37649e+06	-57089.1	1105.82	-29737.3	0.000000	0.000000	6.074756	0.089809	NaN	0.000000	0.001558	0.001739	28.083	0.046924	0.002019	23.2391	110.492	-167.199	-0.015753	0.073536	-0.955257	-0.956526	0.089809	23.2391	-0.958156	-6.194430E+12	-1.449828E-14	NaN
1170	1.000000	0.082801	7.37649e+06	-57089.1	1105.82	-29737.3	0.000000	0.000000	6.082749	0.047185	NaN	0.000000	0.001587	0.001712	28.0832	0.126599	0.001985	63.7833	-43.2764	-167.908	0.072690	0.081550	-0.947261	-0.948512	0.047185	63.7833	-0.947816	-4.493398E+12	-1.050104E-14	NaN
1170	1.000000	0.090818	7.37649e+06	-57089.1	1105.82	-29737.3	0.000000	0.000000	6.090765	0.031196	NaN	0.000000	0.001595	0.001701	28.0832	0.080076	0.001996	40.123	-44.8333	-168.548	0.073864	0.089511	-0.939245	-0.940551	0.031196	40.123	-0.939828	-3.506022E+12	-8.897863E-15	NaN
1170	1.000000	0.098808	7.37649e+06	-57089.1	1105.82	-29737.3	0.000000	0.000000	6.098756	0.034315	NaN	0.000000	0.001560	0.001714	28.0832	0.113263	0.002023	55.9798	143.84	-168.678	-0.011778	0.097467	-0.931254	-0.932595	0.034315	55.9798	-0.931714	-2.724737E+12	-1.259394E-14	NaN
1170	1.000000	0.106839	7.37649e+06	-57089.1	1105.82	-29737.3	0.000000	0.000000	6.106787	0.036649	NaN	0.000000	0.001584	0.001724	28.0831	0.064979	0.001951	33.2975	-19.6427	-169.071	0.058806	0.105528	-0.923223	-0.924535	0.036649	33.2975	-0.924049	-2.147175E+12	-1.706828E-14	NaN
1170	1.000000	0.114814	7.37649e+06	-57089.1	1105.82	-29737.3	0.000000	0.000000	6.114761	0.000895	NaN	0.000000	0.001570	0.001718	28.0832	0.089870	0.002078	43.2534	-145.08	-169.931	-0.034813	0.113533	-0.915248	-0.916529	0.000895	43.2534	-0.915264	-1.634000E+12	-5.479660E-16	NaN
1170	1.000000	0.122845	7.37649e+06	-57089.1	1105.82	-29737.3	0.000000	0.000000	6.122792	0.025417	NaN	0.000000	0.001529	0.001697	28.0832	0.076569	0.001927	39.7331	-126.876	-166.455	0.042057	0.121527	-0.907217	-0.908535	0.025417	39.7331	-0.907697	-1.291393E+12	-1.968157E-14	NaN
1170	1.000000	0.130859	7.37649e+06	-57089.1	1105.82	-29737.4	0.000000	0.000000	6.130808	0.054368	NaN	0.000000	0.001551	0.001715	28.0829	0.078477	0.001957	40.1029	-32.2851	-167.169	0.085862	0.129474	-0.899203	-0.900588	0.054368	40.1029	-0.900220	-1.023372E+12	-5.312666E-14	NaN
1170	1.000000	0.138826	7.37649e+06	-57089.1	1105.82	-29737.4	0.000000	0.000000	6.138775	0.039528	NaN	0.000000	0.001550	0.001712	28.0832	0.034774	0.001747	19.9017	-11.9602	-167.201	-0.019182	0.137559	-0.891236	-0.892503	0.039528	19.9017	-0.892726	-8.105059E+11	-4.876949E-14	NaN
1170	1.000000	0.146840	7.37649e+06	-57089.1	1105.82	-29737.4	0.000000	0.000000	6.146788	0.045775	NaN	0.000000	0.001558	0.001712	28.0831	0.068520	0.002027	33.809	139.165	-166.995	0.066064	0.145484	-0.883223	-0.884578	0.045775	33.809	-0.884238	-6.223244E+11	-7.355541E-14	NaN
1170	1.000000	0.154863	7.37649e+06	-57089.1	1105.82	-29737.4	0.000000	0.000000	6.154813	0.067139	NaN	0.000000	0.001544	0.001703	28.0837	0.031801	0.002185	14.5544	112.8	-164.89	0.127719	0.153512	-0.875199	-0.876550	0.067139	14.5544	-0.878659	-5.230818E+11	-1.283536E-13	NaN
1170	1.000000	0.162800	7.37649e+06	-57089.1	1105.82	-29737.4	0.000000	0.000000	6.162749	0.059602	NaN	0.000000	0.001556	0.001726	28.0845	0.075569	0.001959	38.567	56.9946	-165.948	0.088958	0.161567	-0.867262	-0.868495	0.059602	38.567	-0.868422	-3.802657E+11	-1.567385E-13	NaN
1170	1.000000	0.170843	7.37649e+06	-57089.1	1105.82	-29737.4	0.000000	0.000000	6.170789	-0.008539	NaN	0.000000	0.001522	0.001709	28.0846	0.070173	0.002049	34.2404	-11.5883	-162.922	-0.010340	0.169496	-0.859219	-0.860566	-0.008539	34.2404	-0.859032	-2.838071E+11	3.008711E-14	NaN
1170	1.000000	0.178890	7.37649e+06	-57089.1	1105.82	-29737.4	0.000000	0.000000	6.178837	0.010787	NaN	0.000000	0.001553	0.001720	28.0845	0.078963	0.001997	39.5503	-20.4061	-164.686	0.062249	0.177575	-0.851172	-0.852487	0.010787	39.5503	-0.851377	-2.235534E+11	-4.825195E-14	NaN
1170	1.000000	0.186866	7.37649e+06	-57089.1	1105.82	-29737.4	0.000000	0.000000	6.186816	0.072222	NaN	0.000000	0.001530	0.001692	28.0843	0.037985	0.002057	18.4703	-149.042	-167.173	-0.004763	0.185541	-0.843196	-0.844521	0.072222	18.4703	-0.846129	-1.898056E+11	-3.805041E-13	NaN
1170	1.000000	0.194840	7.37649e+06	-57089.1	1105.82	-29737.4	0.000000	0.000000	6.194787	0.004799	NaN	0.000000	0.001552	0.001700	28.0843	0.035009	0.002069	16.921	137.876	-169.453	-0.000981	0.193540	-0.835222	-0.836522	0.004799	16.921	-0.835434	-1.359673E+11	-3.529682E-14	NaN
1170	1.000000	0.202844	7.37649e+06	-57089.1	1105.82	-29737.4	0.000000	0.000000	6.202792	0.033933	NaN	0.000000	0.001574	0.001705	28.0844	0.085349	0.002026	42.1355	-47.9125	-169.055	0.076861	0.201547	-0.827218	-0.828515	0.033933	42.1355	-0.827822	-1.072177E+11	-3.164850E-13	NaN
1170	1.000000	0.210852	7.37649e+06	-57089.1	1105.82	-29737.4	0.000000	0.000000	6.210801	0.045745	NaN	0.000000	0.001597	0.001743	28.0845	0.056252	0.001975	28.4778	-120.422	-168.174	0.089797	0.209590	-0.819210	-0.820472	0.045745	28.4778	-0.820415	-8.508204E+10	-5.376549E-13	NaN
1170	1.000000	0.218844	7.37649e+06	-57089.1	1105.82	-29737.4	0.000000	0.000000	6.218794	0.074952	NaN	0.000000	0.001588	0.001704	28.0843	0.038953	0.001918	20.3082	-157.125	-169.133	-0.015255	0.217526	-0.811218	-0.812537	0.074952	20.3082	-0.813986	-6.960539E+10	-1.076816E-12	NaN
1170	1.000000	0.226877	7.37649e+06	-57089.1	1105.82	-29737.4	0.000000	0.000000	6.226829	0.127973	NaN	0.000000	0.001567	0.001705	28.0843	0.019943	0.002038	9.787903	120.926	-165.312	0.097066	0.225533	-0.803186	-0.804530	0.127973	9.787903	-0.812992	-6.747721E+10	-1.896541E-12	NaN
1170	1.000000	0.234893	7.37649e+06	-57089.1	1105.82	-29737.4	0.000000	0.000000	6.234840	0.007547	NaN	0.000000	0.001617	0.001703	28.084	0.098290	0.001991	49.3653	20.5517	-166.097	0.012707	0.233548	-0.795169	-0.796514	0.007547	49.3653	-0.795284	-3.880055E+10	-1.945114E-13	NaN
1170	1.000000	0.242874	7.37649e+06	-57089.1	1105.82	-29737.4	0.000000	0.000000	6.242821	0.020756	NaN	0.000000	0.001614	0.001709	28.0843	0.016335	0.002074	7.875547	73.8889	-168.693	-0.025069	0.241599	-0.787188	-0.788463	0.020756	7.875547	-0.789165	-3.204378E+10	-6.477376E-13	NaN
1170	1.000000	0.250896	7.37649e+06	-57089.1	1105.82	-29737.4	0.000000	0.000000	6.250843	0.014460	NaN	0.000000	0.001574	0.001661	28.0841	0.031815	0.002016	15.7799	34.0803	-166.668	0.049762	0.249623	-0.779167	-0.780439	0.014460	15.7799	-0.779854	-2.394666E+10	-6.038324E-13	NaN
1170	1.000000	0.258879	7.37649e+06	-57089.1	1105.82	-29737.4	0.000000	0.000000	6.258824	-0.032170	NaN	0.000000	0.001552	0.001686	28.0842	0.048988	0.002024	24.2084	9.497525	-163.608	0.057819	0.257612	-0.771183	-0.772450	-0.032170	24.2084	-0.770187	-1.769479E+10	1.818047E-12	NaN
1170	1.000000	0.266888	7.37649e+06	-57089.1	1105.82	-29737.4	0.000000	0.000000	6.266836	0.032364	NaN	0.000000	0.001558	0.001697	28.0842	0.156729	0.002000	78.3722	17.7299	-166.433	0.039228	0.265584	-0.763174	-0.764479	0.032364	78.3722	-0.763484	-1.434458E+10	-2.256154E-12	NaN
1170	1.000000	0.274908	7.37649e+06	-57089.1	1105.82	-29737.4	0.000000	0.000000	6.274858	0.073323	NaN	0.000000	0.001545	0.001711	28.0843	0.115330	0.001950	59.1463	15.8317	-164.249	0.073542	0.273602	-0.755154	-0.756460	0.073323	59.1463	-0.756084	-1.137688E+10	-6.444891E-12	NaN
1170	1.000000	0.282905	7.37649e+06	-57089.1	1105.82	-29737.4	0.000000	0.000000	6.282854	0.058249	NaN	0.000000	0.001544	0.001719	28.0846	0.059674	0.001974	30.2323	-117.571	-166.253	0.088207	0.281554	-0.747158	-0.748508	0.058249	30.2323	-0.748603	-8.999051E+9	-6.472806E-12	NaN
1170	1.000000	0.290901	7.37649e+06	-57089.1	1105.82	-29737.4	0.000000	0.000000	6.290851	0.081203	NaN	0.000000	0.001582	0.001701	28.0843	0.114283	0.002051	55.7097	41.5619	-169.842	0.144812	0.289597	-0.739161	-0.740465	0.081203	55.7097	-0.740254	-6.926590E+9	-1.172338E-11	NaN
1170	1.000000	0.298888	7.37649e+06	-57089.1	1105.82	-29737.4	0.000000	0.000000	6.298839	0.090847	NaN	0.000000	0.001568	0.001714	28.0829	0.070773	0.002067	34.232	-131.022	-170.404	0.050019	0.297596	-0.731174	-0.732466	0.090847	34.232	-0.733164	-5.545370E+9	-1.638258E-11	NaN
1170	1.000000	0.306884	7.37649e+06	-57089.1	1105.82	-29737.4	0.000000	0.000000	6.306834	0.069516	NaN	0.000000	0.001577	0.001731	28.0829	0.082454	0.002045	40.3198	152.058	-167.311	0.051274	0.305557	-0.723178	-0.724505	0.069516	40.3198	-0.724471	-4.221248E+9	-1.646808E-11	NaN
1170	1.000000	0.314902	7.37649e+06	-57089.1	1105.82	-29737.4	0.000000	0.000000	6.314851	0.044381	NaN	0.000000	0.001597	0.001703	28.0832	0.104068	0.001973	52.7537	64.9179	-168.465	0.114448	0.313620	-0.715160	-0.716443	0.044381	52.7537	-0.715791	-3.214110E+9	-1.380825E-11	NaN
1170	1.000000	0.322950	7.37649e+06	-57089.1	1105.82	-29737.4	0.000000	0.000000	6.322897	-0.004404	NaN	0.000000	0.001641	0.001706	28.0832	0.023238	0.002112	11.0033	-122.997	-166.936	-0.051210	0.321565	-0.707112	-0.708497	-0.004404	11.0033	-0.706812	-2.424025E+9	1.816905E-12	NaN
1170	1.000000	0.330900	7.37649e+06	-57089.1	1105.82	-29737.4	0.000000	0.000000	6.330853	0.157451	NaN	0.000000	0.001606	0.001707	28.0829	0.069391	0.001929	35.9738	-59.8504	-166.113	0.034535	0.329644	-0.699162	-0.700419	0.157451	35.9738	-0.702445	-2.113083E+9	-7.451232E-11	NaN
1170	1.000000	0.338919	7.37649e+06	-57089.1	1105.82	-29737.4	0.000000	0.000000	6.338868	0.055326	NaN	0.000000	0.001622	0.001741	28.0829	0.010278	0.002128	4.831039	-2.514286	-169.395	0.095995	0.337627	-0.691143	-0.692435	0.055326	4.831039	-0.699732	-1.940317E+9	-2.851381E-11	NaN
1170	1.000000	0.346908	7.37649e+06	-57089.1	1105.82	-29737.4	0.000000	0.000000	6.346853	-0.029952	NaN	0.000000	0.001603	0.001713	28.0828	0.100269	0.001970	50.9052	-173.161	-166.709	-0.018864	0.345602	-0.683154	-0.684460	-0.029952	50.9052	-0.682713	-1.135811E+9	2.637091E-11	NaN
1170	1.000000	0.354938	7.37649e+06	-57089.1	1105.82	-29737.4	0.000000	0.000000	6.354885	0.011064	NaN	0.000000	0.001595	0.001721	28.0827	0.096357	0.001910	50.4453	-47.3098	-166.59	0.043515	0.353666	-0.675124	-0.676397	0.011064	50.4453	-0.675288	-8.989933E+8	-1.230666E-11	NaN
1170	1.000000	0.362916	7.37649e+06	-57089.1	1105.82	-29737.4	0.000000	0.000000	6.362865	0.056575	NaN	0.000000	0.001649	0.001740	28.0828	0.087972	0.001900	46.311	122.684	-168.632	0.133498	0.361622	-0.667146	-0.668440	0.056575	46.311	-0.668062	-7.159186E+8	-7.902389E-11	NaN
1170	1.000000	0.370935	7.37649e+06	-57089.1	1105.82	-29737.4	0.000000	0.000000	6.370883	0.031795	NaN	0.000000	0.001589	0.001701	28.0831	0.071121	0.001855	38.3321	-156.522	-166.363	0.074947	0.369596	-0.659127	-0.660467	0.031795	38.3321	-0.659749	-5.508519E+8	-5.771955E-11	NaN
1170	1.000000	0.378953	7.3765e+06	-57089.1	1105.82	-29737.4	0.000000	0.000000	6.378901	0.045137	NaN	0.000000	0.001616	0.001724	28.0831	0.060382	0.002040	29.596	3.949145	-166.473	-0.002359	0.377641	-0.651110	-0.652421	0.045137	29.596	-0.652253	-4.348371E+8	-1.038015E-10	NaN
1170	1.000000	0.386924	7.3765e+06	-57089.1	1105.82	-29737.4	0.000000	0.000000	6.386875	0.096762	NaN	0.000000	0.001601	0.001737	28.083	0.039576	0.002026	19.5301	-139.91	-167.092	0.061678	0.385615	-0.643138	-0.644447	0.096762	19.5301	-0.646854	-3.666921E+8	-2.638786E-10	NaN
1170	1.000000	0.394966	7.3765e+06	-57089.1	1105.82	-29737.4	0.000000	0.000000	6.394915	0.069091	NaN	0.000000	0.001595	0.001712	28.0832	0.034306	0.001842	18.6266	37.308	-166.518	0.013551	0.393642	-0.635097	-0.636421	0.069091	18.6266	-0.637879	-2.761720E+8	-2.501750E-10	NaN
1170	1.000000	0.402942	7.3765e+06	-57089.1	1105.82	-29737.4	0.000000	0.000000	6.402889	0.010212	NaN	0.000000	0.001598	0.001731	28.083	0.042426	0.002099	20.2079	64.6153	-164.006	0.033110	0.401653	-0.627120	-0.628409	0.010212	20.2079	-0.627499	-1.989197E+8	-5.133958E-11	NaN
1170	1.000000	0.410950	7.3765e+06	-57089.1	1105.82	-29737.4	0.000000	0.000000	6.410900	0.076673	NaN	0.000000	0.001599	0.001748	28.0831	0.030870	0.002119	14.5691	-81.5862	-168.017	0.056632	0.409640	-0.619112	-0.620422	0.076673	14.5691	-0.623059	-1.728543E+8	-4.435706E-10	NaN
1170	1.000000	0.418929	7.3765e+06	-57089.1	1105.82	-29737.4	0.000000	0.000000	6.418880	0.096329	NaN	0.000000	0.001579	0.001718	28.0829	0.048728	0.001973	24.6983	175.696	-164.251	0.018895	0.417713	-0.611133	-0.612349	0.096329	24.6983	-0.614058	-1.299979E+8	-7.410046E-10	NaN
1170	1.000000	0.426951	7.3765e+06	-57089.1	1105.82	-29737.4	0.000000	0.000000	6.426900	0.059800	NaN	0.000000	0.001559	0.001737	28.0831	0.047115	0.002032	23.1898	6.642666	-168.247	0.016676	0.425669	-0.603112	-0.604393	0.059800	23.1898	-0.605046	-9.770913E+7	-6.120250E-10	NaN
1170	1.000000	0.434952	7.3765e+06	-57089.1	1105.82	-29737.4	0.000000	0.000000	6.434899	0.013202	NaN	0.000000	0.001562	0.001739	28.0844	0.059814	0.001982	30.1826	-123.514	-167.408	0.033333	0.433701	-0.595110	-0.596362	0.013202	30.1826	-0.595438	-7.204784E+7	-1.832337E-10	NaN
1170	1.000000	0.442943	7.3765e+06	-57089.1	1105.82	-29737.4	0.000000	0.000000	6.442892	0.061686	NaN	0.000000	0.001569	0.001732	28.0843	0.042513	0.001910	22.253	-139.433	-168.235	0.020889	0.441738	-0.587119	-0.588325	0.061686	22.253	-0.589198	-5.910342E+7	-1.043688E-9	NaN
1170	1.000000	0.450964	7.3765e+06	-57089.1	1105.82	-29737.4	0.000000	0.000000	6.450913	0.069683	NaN	0.000000	0.001605	0.001728	28.0842	0.081437	0.002063	39.4698	146.232	-165.439	0.050665	0.449674	-0.579099	-0.580388	0.069683	39.4698	-0.580423	-4.472593E+7	-1.558011E-9	NaN
1170	1.000000	0.458948	7.3765e+06	-57089.1	1105.82	-29737.4	0.000000	0.000000	6.458897	0.061426	NaN	0.000000	0.001590	0.001740	28.0841	0.077091	0.002001	38.5215	-133.812	-167.268	-0.010881	0.457675	-0.571114	-0.572388	0.061426	38.5215	-0.572310	-3.455793E+7	-1.777465E-9	NaN
1170	1.000000	0.467008	7.3765e+06	-57089.1	1105.82	-29737.4	0.000000	0.000000	6.466957	0.054162	NaN	0.000000	0.001608	0.001723	28.0841	0.031606	0.001945	16.2507	-174.727	-165.679	0.048296	0.465642	-0.563054	-0.564420	0.054162	16.2507	-0.565554	-2.787290E+7	-1.943175E-9	NaN
1170	1.000000	0.474953	7.3765e+06	-57089.1	1105.82	-29737.4	0.000000	0.000000	6.474904	0.095231	NaN	0.000000	0.001611	0.001738	28.084	0.091454	0.001930	47.3794	169.618	-163.526	0.095355	0.473672	-0.555109	-0.556390	0.095231	47.3794	-0.556617	-2.096828E+7	-4.541652E-9	NaN
1170	1.000000	0.482971	7.3765e+06	-57089.1	1105.82	-29737.4	0.000000	0.000000	6.482919	0.022010	NaN	0.000000	0.001583	0.001725	28.084	0.023946	0.002018	11.8635	-112.959	-168.93	-0.009558	0.481642	-0.547091	-0.548420	0.022010	11.8635	-0.548482	-1.617833E+7	-1.360453E-9	NaN
1170	1.000000	0.491018	7.3765e+06	-57089.1	1105.82	-29737.4	0.000000	0.000000	6.490967	0.043647	NaN	0.000000	0.001607	0.001679	28.0842	0.038165	0.002029	18.8088	71.6516	-170.039	0.021893	0.489677	-0.539044	-0.540385	0.043647	18.8088	-0.540784	-1.265423E+7	-3.449232E-9	NaN
1170	1.000000	0.498999	7.3765e+06	-57089.1	1105.82	-29737.4	0.000000	0.000000	6.498947	0.026907	NaN	0.000000	0.001603	0.001696	28.084	0.062723	0.002064	30.3937	131.018	-168.773	0.017303	0.497676	-0.531063	-0.532387	0.026907	30.3937	-0.531727	-9.47446e+06	-2.839914E-9	NaN
1170	1.000000	0.506995	7.3765e+06	-57089.1	1105.82	-29737.4	0.000000	0.000000	6.506942	0.012956	NaN	0.000000	0.001577	0.001711	28.0842	0.075786	0.001924	39.3936	-150.092	-166.017	0.044833	0.505688	-0.523067	-0.524374	0.012956	39.3936	-0.523314	-7.23889e+06	-1.789808E-9	NaN
1170	1.000000	0.514971	7.3765e+06	-57089.1	1105.82	-29737.4	0.000000	0.000000	6.514916	-0.033371	NaN	0.000000	0.001551	0.001725	28.084	0.068343	0.001968	34.7284	-61.7847	-167.38	-0.032513	0.513661	-0.515091	-0.516401	-0.033371	34.7284	-0.514371	-5.4359e+06	6.138938E-9	NaN
1170	1.000000	0.522997	7.3765e+06	-57089.1	1105.82	-29737.4	0.000000	0.000000	6.522945	0.023218	NaN	0.000000	0.001593	0.001736	28.0839	0.044071	0.002006	21.9717	-97.8093	-164.861	-0.029801	0.521706	-0.507065	-0.508356	0.023218	21.9717	-0.507857	-4.41131e+06	-5.263211E-9	NaN
1170	1.000000	0.531008	7.3765e+06	-57089.1	1105.82	-29737.4	0.000000	0.000000	6.530957	0.053579	NaN	0.000000	0.001559	0.001717	28.0842	0.033851	0.002043	16.5725	-101.095	-166.421	0.052386	0.529651	-0.499055	-0.500411	0.053579	16.5725	-0.501479	-3.59462e+06	-1.490532E-8	NaN
1170	1.000000	0.539010	7.3765e+06	-57089.1	1105.82	-29737.4	0.000000	0.000000	6.538955	-0.043891	NaN	0.000000	0.001544	0.001700	28.0841	0.093806	0.002031	46.1845	20.6784	-166.113	0.007049	0.537703	-0.491052	-0.492359	-0.043891	46.1845	-0.490339	-2.51267e+06	1.746805E-8	NaN
1170	1.000000	0.546994	7.3765e+06	-57089.1	1105.82	-29737.4	0.000000	0.000000	6.546943	0.056871	NaN	0.000000	0.001573	0.001722	28.0851	0.058275	0.002101	27.7311	-7.146575	-164.228	0.016737	0.545644	-0.483069	-0.484418	0.056871	27.7311	-0.484607	-2.08924e+06	-2.722094E-8	NaN
1170	1.000000	0.555010	7.3765e+06	-57089.1	1105.82	-29737.4	0.000000	0.000000	6.554957	-0.002684	NaN	0.000000	0.001558	0.001754	28.0841	0.013474	0.001941	6.940773	-102.606	-168.671	-0.006572	0.553741	-0.475052	-0.476321	-0.002684	6.940773	-0.474762	-1.52113e+06	1.764670E-9	NaN
1170	1.000000	0.563019	7.3765e+06	-57089.1	1105.82	-29737.4	0.000000	0.000000	6.562966	0.011255	NaN	0.000000	0.001531	0.001719	28.0841	0.049311	0.002035	24.2302	-155.234	-165.643	0.011801	0.561758	-0.467043	-0.468304	0.011255	24.2302	-0.467391	-1.19898e+06	-9.387114E-9	NaN
1170	1.000000	0.571019	7.3765e+06	-57089.1	1105.82	-29737.4	0.000000	0.000000	6.570967	0.038140	NaN	0.000000	0.001587	0.001700	28.0832	0.023912	0.001922	12.4442	57.9221	-165.432	-0.015098	0.569705	-0.459043	-0.460357	0.038140	12.4442	-0.461342	-985987	-3.868229E-8	NaN
1170	1.000000	0.579066	7.3765e+06	-57089.1	1105.82	-29737.4	0.000000	0.000000	6.579016	0.076505	NaN	0.000000	0.001573	0.001711	28.0828	0.065824	0.002099	31.3624	-170.169	-164.051	0.156324	0.577685	-0.450997	-0.452377	0.076505	31.3624	-0.452826	-748392	-1.022262E-7	NaN
1170	1.000000	0.587025	7.3765e+06	-57089.1	1105.82	-29737.4	0.000000	0.000000	6.586975	0.069681	NaN	0.000000	0.001572	0.001710	28.083	0.113777	0.001975	57.6019	173.837	-166.256	0.013459	0.585703	-0.443037	-0.444359	0.069681	57.6019	-0.443944	-561053	-1.241967E-7	NaN
1170	1.000000	0.595028	7.3765e+06	-57089.1	1105.82	-29737.4	0.000000	0.000000	6.594976	0.032250	NaN	0.000000	0.001571	0.001712	28.0828	0.029250	0.002107	13.8849	152.085	-168.206	0.096924	0.593728	-0.435035	-0.436334	0.032250	13.8849	-0.436777	-444481	-7.255614E-8	NaN
1170	1.000000	0.603061	7.3765e+06	-57089.1	1105.82	-29737.4	0.000000	0.000000	6.603010	0.046847	NaN	0.000000	0.001549	0.001758	28.0831	0.152564	0.002000	76.2736	129.126	-164.541	0.130496	0.601700	-0.427001	-0.428362	0.046847	76.2736	-0.427462	-328202	-1.427398E-7	NaN
1170	1.000000	0.611050	7.3765e+06	-57089.1	1105.82	-29737.4	0.000000	0.000000	6.611002	0.107517	NaN	0.000000	0.001619	0.001720	28.083	0.042859	0.001989	21.5517	-129.312	-167.355	0.029956	0.609768	-0.419012	-0.420294	0.107517	21.5517	-0.422753	-281482	-3.819679E-7	NaN
1170	1.000000	0.619057	7.3765e+06	-57089.1	1105.82	-29737.4	0.000000	0.000000	6.619008	0.091500	NaN	0.000000	0.001591	0.001719	28.0828	0.143695	0.001879	76.4934	112.767	-167.671	0.064320	0.617690	-0.411005	-0.412372	0.091500	76.4934	-0.411902	-197442	-4.634260E-7	NaN
1170	1.000000	0.627081	7.3765e+06	-57089.1	1105.82	-29737.4	0.000000	0.000000	6.627029	0.039322	NaN	0.000000	0.001607	0.001693	28.083	0.109412	0.001946	56.2102	175.532	-165.278	-0.035588	0.625715	-0.402982	-0.404347	0.039322	56.2102	-0.403506	-149959	-2.622206E-7	NaN
1170	1.000000	0.635046	7.3765e+06	-57089.1	1105.82	-29737.4	0.000000	0.000000	6.634998	0.124774	NaN	0.000000	0.001588	0.001687	28.0829	0.066004	0.002133	30.9435	-24.388	-166.388	0.109093	0.633716	-0.395016	-0.396346	0.124774	30.9435	-0.398040	-125325	-9.956054E-7	NaN
1170	1.000000	0.643052	7.3765e+06	-57089.1	1105.82	-29737.4	0.000000	0.000000	6.643001	0.057078	NaN	0.000000	0.001599	0.001685	28.0831	0.021989	0.001945	11.3054	82.9225	-167.01	0.013410	0.641723	-0.387010	-0.388339	0.057078	11.3054	-0.390797	-98755.1	-5.779757E-7	NaN
1170	1.000000	0.651056	7.3765e+06	-57089.1	1105.82	-29737.4	0.000000	0.000000	6.651005	0.041129	NaN	0.000000	0.001583	0.001732	28.083	0.058789	0.002020	29.0965	-166.778	-167.6	-0.014624	0.649681	-0.379006	-0.380382	0.041129	29.0965	-0.380066	-69316.7	-5.933460E-7	NaN
1170	1.000000	0.659078	7.3765e+06	-57089.1	1105.82	-29737.4	0.000000	0.000000	6.659027	0.053468	NaN	0.000000	0.001581	0.001728	28.0832	0.147970	0.001916	77.2244	141.733	-167.877	0.010095	0.657754	-0.370985	-0.372308	0.053468	77.2244	-0.371504	-52213.1	-1.024033E-6	NaN
1170	1.000000	0.667079	7.3765e+06	-57089.1	1105.82	-29737.4	0.000000	0.000000	6.667027	0.042079	NaN	0.000000	0.001618	0.001743	28.083	0.112712	0.001932	58.3483	44.7277	-166.675	-0.023691	0.665733	-0.362983	-0.364329	0.042079	58.3483	-0.363524	-40063.9	-1.050293E-6	NaN
1170	1.000000	0.675078	7.3765e+06	-57089.1	1105.82	-29737.4	0.000000	0.000000	6.675027	0.075235	NaN	0.000000	0.001578	0.001717	28.083	0.055986	0.002052	27.2868	-15.5571	-165.732	-0.022352	0.673733	-0.354985	-0.356329	0.075235	27.2868	-0.357053	-32300.9	-2.329187E-6	NaN
1170	1.000000	0.683057	7.3765e+06	-57089.1	1105.82	-29737.4	0.000000	0.000000	6.683002	-0.040960	NaN	0.000000	0.001572	0.001721	28.083	0.148984	0.002035	73.2018	-145.406	-170.163	0.071907	0.681798	-0.347006	-0.348264	-0.040960	73.2018	-0.346586	-22772.7	1.798659E-6	NaN
1170	1.000000	0.691071	7.3765e+06	-57089.1	1105.82	-29737.4	0.000000	0.000000	6.691017	-0.016296	NaN	0.000000	0.001565	0.001753	28.0827	0.144356	0.002019	71.5117	121.712	-170.416	0.023633	0.689769	-0.338992	-0.340293	-0.016296	71.5117	-0.338821	-17553.3	9.283678E-7	NaN
1170	1.000000	0.699088	7.3765e+06	-57089.1	1105.82	-29737.4	0.000000	0.000000	6.699035	-0.005426	NaN	0.000000	0.001569	0.001733	28.0833	0.110054	0.001875	58.6983	167.028	-165.388	0.034495	0.697743	-0.330974	-0.332319	-0.005426	58.6983	-0.330904	-13449.1	4.034542E-7	NaN
1170	1.000000	0.707090	7.3765e+06	-57089.1	1105.82	-29737.4	0.000000	0.000000	6.707038	0.019328	NaN	0.000000	0.001582	0.001749	28.0839	0.043332	0.001940	22.335	-132.026	-167.428	-0.013765	0.705756	-0.322972	-0.324306	0.019328	22.335	-0.323621	-10516.8	-1.837797E-6	NaN
1170	1.000000	0.715066	7.3765e+06	-57089.1	1105.82	-29737.4	0.000000	0.000000	6.715016	0.093357	NaN	0.000000	0.001567	0.001754	28.0842	0.062996	0.002003	31.4559	96.1133	-166.021	0.074352	0.713761	-0.314996	-0.316301	0.093357	31.4559	-0.317222	-8466.92	-1.102611E-5	NaN
1170	1.000000	0.723066	7.3765e+06	-57089.1	1105.82	-29737.4	0.000000	0.000000	6.723013	0.019243	NaN	0.000000	0.001561	0.001749	28.0842	0.043123	0.002062	20.912	157.024	-163.624	0.018173	0.721760	-0.306996	-0.308302	0.019243	20.912	-0.307686	-6120.62	-3.143879E-6	NaN
1170	1.000000	0.731066	7.3765e+06	-57089.1	1105.82	-29737.4	0.000000	0.000000	6.731014	0.034058	NaN	0.000000	0.001558	0.001735	28.0841	0.085539	0.002031	42.1105	96.7047	-165.706	0.005118	0.729774	-0.298996	-0.300288	0.034058	42.1105	-0.299602	-4642.12	-7.336798E-6	NaN
1170	1.000000	0.739083	7.3765e+06	-57089.1	1105.82	-29737.4	0.000000	0.000000	6.739032	0.069920	NaN	0.000000	0.001565	0.001742	28.0843	0.103173	0.001966	52.4747	-35.0951	-167.33	0.063850	0.737779	-0.290979	-0.292284	0.069920	52.4747	-0.291979	-3572.12	-1.957376E-5	NaN
1170	1.000000	0.747096	7.3765e+06	-57089.1	1105.82	-29737.4	0.000000	0.000000	6.747043	0.016181	NaN	0.000000	0.001538	0.001766	28.084	0.063361	0.001901	33.3229	160.073	-165.952	0.070061	0.745838	-0.282967	-0.284224	0.016181	33.3229	-0.283331	-2649.48	-6.107066E-6	NaN
1170	1.000000	0.755085	7.3765e+06	-57089.1	1105.82	-29737.4	0.000000	0.000000	6.755034	0.040470	NaN	0.000000	0.001545	0.001747	28.084	0.102408	0.001924	53.2398	93.964	-170.136	-0.000336	0.753822	-0.274977	-0.276240	0.040470	53.2398	-0.275547	-2021.55	-2.001927E-5	NaN
1170	1.000000	0.763092	7.3765e+06	-57089.1	1105.82	-29737.4	0.000000	0.000000	6.763040	0.055152	NaN	0.000000	0.001580	0.001720	28.0842	0.105594	0.002091	50.4991	19.6707	-167.503	0.058585	0.761820	-0.266971	-0.268242	0.055152	50.4991	-0.267790	-1541.41	-3.578052E-5	NaN
1170	1.000000	0.771096	7.3765e+06	-57089.1	1105.82	-29737.4	0.000000	0.000000	6.771042	-0.003449	NaN	0.000000	0.001571	0.001725	28.0841	0.007080	0.001929	3.670167	-11.4795	-169.137	-0.001080	0.769798	-0.258966	-0.260264	-0.003449	3.670167	-0.258262	-1102.18	3.129154E-6	NaN
1170	1.000000	0.779091	7.3765e+06	-57089.1	1105.82	-29737.4	0.000000	0.000000	6.779040	0.056162	NaN	0.000000	0.001632	0.001716	28.0846	0.033758	0.002085	16.1942	34.6439	-167.727	-0.024958	0.777792	-0.250971	-0.252270	0.056162	16.1942	-0.253572	-933.512	-6.016188E-5	NaN
1170	1.000000	0.787081	7.3765e+06	-57089.1	1105.82	-29737.4	0.000000	0.000000	6.787030	0.045400	NaN	0.000000	0.001653	0.001723	28.084	0.105642	0.001859	56.8138	-24.762	-166.955	0.057696	0.785836	-0.242981	-0.244226	0.045400	56.8138	-0.243580	-653.693	-6.945168E-5	NaN
1170	1.000000	0.795134	7.3765e+06	-57089.1	1105.82	-29737.4	0.000000	0.000000	6.795083	0.055077	NaN	0.000000	0.001660	0.001692	28.0843	0.010850	0.001931	5.618697	-175.264	-167.034	0.053013	0.793860	-0.234928	-0.236203	0.055077	5.618697	-0.242280	-623.907	-8.827801E-5	NaN
1170	1.000000	0.803087	7.3765e+06	-57089.1	1105.82	-29737.4	0.000000	0.000000	6.803032	-0.042336	NaN	0.000000	0.001671	0.001707	28.0841	0.107515	0.002040	52.7045	20.3704	-168.42	-0.026495	0.801815	-0.226975	-0.228247	-0.042336	52.7045	-0.226373	-350.849	0.000121	NaN
1170	1.000000	0.811105	7.3765e+06	-57089.1	1105.82	-29737.4	0.000000	0.000000	6.811053	0.035726	NaN	0.000000	0.001676	0.001717	28.0842	0.116381	0.001905	61.0977	-171.534	-167.197	-0.014155	0.809774	-0.218957	-0.220288	0.035726	61.0977	-0.219396	-271.655	-0.000132	NaN
1170	1.000000	0.819133	7.3765e+06	-57089.1	1105.82	-29737.4	0.000000	0.000000	6.819083	0.079658	NaN	0.000000	0.001715	0.001727	28.0844	0.100014	0.002031	49.2433	44.5471	-165.34	0.068078	0.817791	-0.210929	-0.212272	0.079658	49.2433	-0.212142	-207.71	-0.000384	NaN
1170	1.000000	0.827105	7.3765e+06	-57089.1	1105.82	-29737.4	0.000000	0.000000	6.827054	0.056082	NaN	0.000000	0.001678	0.001747	28.0843	0.149287	0.002105	70.9187	-45.0345	-166.171	0.022167	0.825804	-0.202958	-0.204259	0.056082	70.9187	-0.203551	-150.623	-0.000372	NaN
1170	1.000000	0.835121	7.3765e+06	-57089.1	1105.82	-29737.4	0.000000	0.000000	6.835071	0.088979	NaN	0.000000	0.001666	0.001705	28.0848	0.095654	0.002024	47.2544	-109.479	-165.051	0.139982	0.833830	-0.194942	-0.196233	0.088979	47.2544	-0.196354	-114.711	-0.000776	NaN
1170	1.000000	0.843114	7.3765e+06	-57089.1	1105.82	-29737.4	0.000000	0.000000	6.843063	0.063282	NaN	0.000000	0.001715	0.001716	28.0832	0.027849	0.001936	14.3844	119.43	-168.915	0.010782	0.841793	-0.186949	-0.188269	0.063282	14.3844	-0.190248	-90.8181	-0.000697	NaN
1170	1.000000	0.851108	7.3765e+06	-57089.1	1105.82	-29737.4	0.000000	0.000000	6.851056	0.040934	NaN	0.000000	0.001672	0.001751	28.083	0.022929	0.001999	11.4702	-72.0135	-165.788	0.048952	0.849829	-0.178954	-0.180233	0.040934	11.4702	-0.181631	-65.0384	-0.000629	NaN
1170	1.000000	0.859158	7.3765e+06	-57089.1	1105.82	-29737.4	0.000000	0.000000	6.859109	0.112046	NaN	0.000000	0.001641	0.001733	28.0831	0.069285	0.002027	34.1735	-138.781	-170.651	0.128551	0.857828	-0.170905	-0.172235	0.112046	34.1735	-0.173364	-46.9693	-0.002386	NaN
1170	1.000000	0.867112	7.3765e+06	-57089.1	1105.82	-29737.4	0.000000	0.000000	6.867062	0.072260	NaN	0.000000	0.001652	0.001729	28.0831	0.053279	0.001980	26.9126	15.6943	-168.86	0.123216	0.865841	-0.162950	-0.164221	0.072260	26.9126	-0.164964	-33.5483	-0.002154	NaN
1170	1.000000	0.875139	7.3765e+06	-57089.1	1105.82	-29737.4	0.000000	0.000000	6.875089	0.074785	NaN	0.000000	0.001649	0.001733	28.0832	0.098016	0.001927	50.8612	-34.6713	-166.284	0.043699	0.873795	-0.154923	-0.156267	0.074785	50.8612	-0.156026	-23.282	-0.003212	NaN
1170	1.000000	0.883171	7.3765e+06	-57089.1	1105.82	-29737.4	0.000000	0.000000	6.883118	0.009241	NaN	0.000000	0.001668	0.001741	28.0832	0.057299	0.002079	27.5601	-5.040487	-167.435	0.031187	0.881789	-0.146892	-0.148273	0.009241	27.5601	-0.147143	-16.058	-0.000575	NaN
1170	1.000000	0.891146	7.3765e+06	-57089.1	1105.82	-29737.4	0.000000	0.000000	6.891094	0.033794	NaN	0.000000	0.001654	0.001734	28.0833	0.094340	0.001926	48.9784	101.586	-167.948	0.005837	0.889883	-0.138916	-0.140179	0.033794	48.9784	-0.139434	-11.5431	-0.002928	NaN
1170	1.000000	0.899168	7.3765e+06	-57089.1	1105.82	-29737.4	0.000000	0.000000	6.899117	0.037579	NaN	0.000000	0.001631	0.001757	28.083	0.098334	0.001918	51.2757	-87.9038	-168.081	0.039989	0.897842	-0.130894	-0.132220	0.037579	51.2757	-0.131444	-8.127941	-0.004623	NaN
1170	1.000000	0.907149	7.3765e+06	-57089.1	1105.82	-29737.4	0.000000	0.000000	6.907098	0.064065	NaN	0.000000	0.001678	0.001795	28.0832	0.087420	0.002079	42.0412	108.449	-166.404	0.071034	0.905813	-0.122914	-0.124250	0.064065	42.0412	-0.124056	-5.824908	-0.010998	NaN
1170	1.000000	0.915156	7.3765e+06	-57089.1	1105.82	-29737.4	0.000000	0.000000	6.915106	0.083721	NaN	0.000000	0.001692	0.001738	28.0831	0.022511	0.001997	11.2749	-53.9472	-163.583	0.014031	0.913908	-0.114907	-0.116154	0.083721	11.2749	-0.120476	-4.939384	-0.016950	NaN
1170	1.000000	0.923146	7.3765e+06	-57089.1	1105.82	-29737.4	0.000000	0.000000	6.923095	0.063138	NaN	0.000000	0.001663	0.001716	28.0832	0.073299	0.001900	38.5756	-20.6852	-163.972	0.049489	0.921847	-0.106916	-0.108215	0.063138	38.5756	-0.108144	-2.745094	-0.023000	NaN
1170	1.000000	0.931178	7.3765e+06	-57089.1	1105.82	-29737.4	0.000000	0.000000	6.931127	0.054965	NaN	0.000000	0.001672	0.001706	28.0834	0.049617	0.002024	24.5155	63.1257	-165.578	0.042768	0.929845	-0.098884	-0.100218	0.054965	24.5155	-0.100566	-1.880578	-0.029228	NaN
1170	1.000000	0.939164	7.3765e+06	-57089.1	1105.82	-29737.4	0.000000	0.000000	6.939111	0.009490	NaN	0.000000	0.001703	0.001720	28.083	0.131618	0.001930	68.1812	-144.959	-169.201	-0.002288	0.937861	-0.090898	-0.092202	0.009490	68.1812	-0.091002	-1.140943	-0.008318	NaN
1170	1.000000	0.947154	7.3765e+06	-57089.1	1105.82	-29737.4	0.000000	0.000000	6.947101	0.008476	NaN	0.000000	0.001668	0.001760	28.0831	0.046879	0.001967	23.8279	132.599	-168.294	0.025996	0.945850	-0.082908	-0.084212	0.008476	23.8279	-0.083175	-0.741749	-0.011426	NaN
1170	1.000000	0.955175	7.3765e+06	-57089.1	1105.82	-29737.4	0.000000	0.000000	6.955124	0.039941	NaN	0.000000	0.001670	0.001731	28.083	0.050477	0.002234	22.5993	159.816	-165.387	0.022673	0.953839	-0.074887	-0.076223	0.039941	22.5993	-0.076213	-0.496316	-0.080474	NaN
1170	1.000000	0.963173	7.3765e+06	-57089.1	1105.82	-29737.4	0.000000	0.000000	6.963120	0.014997	NaN	0.000000	0.001717	0.001718	28.0831	0.061221	0.001886	32.4639	61.1308	-168.075	0.056879	0.961875	-0.066889	-0.068187	0.014997	32.4639	-0.067236	-0.287157	-0.052224	NaN
1170	1.000000	0.971172	7.3765e+06	-57089.1	1105.82	-29737.4	0.000000	0.000000	6.971120	0.039408	NaN	0.000000	0.001645	0.001712	28.0834	0.141602	0.001916	73.9116	2.427945	-166.597	0.047478	0.969883	-0.058890	-0.060179	0.039408	73.9116	-0.059290	-0.171828	-0.229344	NaN
1170	1.000000	0.979206	7.3765e+06	-57089.1	1105.82	-29737.4	0.000000	0.000000	6.979155	0.053151	NaN	0.000000	0.001689	0.001720	28.0839	0.033074	0.001879	17.5984	88.8238	-164.927	0.000939	0.977872	-0.050857	-0.052190	0.053151	17.5984	-0.053122	-0.113253	-0.469311	NaN
1170	1.000000	0.987193	7.3765e+06	-57089.1	1105.82	-29737.4	0.000000	0.000000	6.987141	0.036602	NaN	0.000000	0.001660	0.001702	28.0844	0.057018	0.002119	26.9047	-138.399	-166.843	0.023150	0.985900	-0.042869	-0.044163	0.036602	26.9047	-0.043890	-0.059435	-0.615829	NaN
1170	1.000000	0.995200	7.3765e+06	-57089.1	1105.82	-29737.4	0.000000	0.000000	6.995147	0.017645	NaN	0.000000	0.001643	0.001712	28.0843	0.034504	0.002056	16.7836	-60.1276	-168.31	0.101226	0.993925	-0.034862	-0.036137	0.017645	16.7836	-0.035651	-0.033474	-0.527121	NaN
1170	1.000000	1.003189	7.3765e+06	-57089.1	1105.82	-29737.4	0.000000	0.000000	7.003137	0.032591	NaN	0.000000	0.001632	0.001717	28.0843	0.049400	0.001943	25.42	-57.5731	-165.356	0.057914	1.001929	-0.026873	-0.028133	0.032591	25.42	-0.027835	-0.020067	-1.624096	NaN
1170	1.000000	1.011209	7.3765e+06	-57089.1	1105.82	-29737.4	0.000000	0.000000	7.011158	0.043569	NaN	0.000000	0.001660	0.001725	28.0844	0.057084	0.002019	28.2726	-141.82	-163.939	-0.009583	1.009839	-0.018853	-0.020223	0.043569	28.2726	-0.020009	-0.012567	-3.466813	NaN
1170	1.000000	1.019177	7.3765e+06	-57089.1	1105.82	-29737.4	0.000000	0.000000	7.019125	0.025552	NaN	0.000000	0.001670	0.001737	28.0842	0.017499	0.001996	8.769402	-140.212	-165.867	0.029640	1.017862	-0.010885	-0.012200	0.025552	8.769402	-0.013071	-0.008143	-3.137823	NaN
1170	1.000000	1.027167	7.3765e+06	-57089.1	1105.82	-29737.4	0.000000	0.000000	7.027117	0.088545	NaN	0.000000	0.001646	0.001727	28.0848	0.318533	0.001957	162.737	21.6504	-165.731	-0.131767	1.025866	-0.002896	-0.004197	0.088545	162.737	-0.003304	-0.002323	-38.1203	NaN
1170	1.000000	1.035128	7.3765e+06	-57089.1	1105.82	-29737.4	0.000000	0.000000	7.035364	7.025065	NaN	0.000000	0.001652	0.001766	28.0844	7.845921	0.001835	4276.06	13.1412	-174.324	6.063935	1.033850	0.005066	0.003788	7.025065	4276.06	0.003834	0.003094	2270.89	70240.8
1170	2.000000	1.037920	7.3765e+06	-57089.1	1105.82	-29737.4	0.000000	0.000000	7.038335	11.3957	NaN	0.000000	0.001644	0.001711	28.0843	10.3777	0.001800	5765.14	10.0276	-174.114	12.301	1.037560	0.007858	0.007498	11.3957	5765.14	0.006375	0.005424	2101.1	71521.2
1170	2.000000	1.039891	7.3765e+06	-57089.1	1105.82	-29737.4	0.000000	0.000000	7.040423	14.2161	NaN	0.000000	0.001606	0.001744	28.0844	12.3832	0.001528	8102.98	9.197523	-178.409	14.635	1.039561	0.009829	0.009499	14.2161	8102.98	0.008513	0.007575	1876.6	85057.8
1170	2.000000	1.041841	7.3765e+06	-57089.1	1105.82	-29737.4	0.000000	0.000000	7.042408	15.0677	NaN	0.000000	0.001612	0.001688	28.0843	14.4527	0.001603	9018.41	6.229408	-177.814	13.646	1.041566	0.011779	0.011504	15.0677	9018.41	0.010526	0.009772	1541.99	83352.8
1170	2.000000	1.043920	7.3765e+06	-57089.1	1105.82	-29737.4	0.000000	0.000000	7.044646	18.9615	NaN	0.000000	0.001615	0.001737	28.0847	17.0745	0.001716	9950.01	9.076285	-176.396	20.9057	1.043508	0.013857	0.013445	18.9615	9950.01	0.012428	0.012007	1579.23	82962.7
1170	2.000000	1.045866	7.3765e+06	-57089.1	1105.82	-29737.4	0.000000	0.000000	7.046664	20.695	NaN	0.000000	0.001631	0.001725	28.0844	19.3882	0.001796	10796	6.854563	-178.771	21.1421	1.045506	0.015804	0.015444	20.695	10796	0.014366	0.014449	1432.27	82057.1
1170	2.000000	1.047831	7.3765e+06	-57089.1	1105.82	-29737.4	0.000000	0.000000	7.048770	24.1261	NaN	0.000000	0.001590	0.001709	28.0849	21.227	0.001719	12345	3.678008	-176.734	23.019	1.047542	0.017769	0.017480	24.1261	12345	0.016303	0.017063	1413.98	86346.1
1170	2.000000	1.049774	7.3765e+06	-57089.1	1105.82	-29737.4	0.000000	0.000000	7.050960	30.1066	NaN	0.000000	0.001584	0.001682	28.0844	23.2216	0.001794	12946.3	9.256502	177.999	28.7597	1.049446	0.019712	0.019384	30.1066	12946.3	0.017968	0.019449	1547.96	84813.9
1170	2.000000	1.051737	7.3765e+06	-57089.1	1105.82	-29737.4	0.000000	0.000000	7.052973	31.3364	NaN	0.000000	0.001597	0.001730	28.0844	25.5876	0.001848	13844.9	4.643456	-178.933	28.9773	1.051490	0.021675	0.021428	31.3364	13844.9	0.019977	0.022506	1392.34	84316.1
1170	2.000000	1.053805	7.3765e+06	-57089.1	1105.82	-29737.4	0.000000	0.000000	7.055275	37.0398	NaN	0.000000	0.001625	0.001700	28.0847	27.0551	0.001802	15016.4	5.032900	-178.477	35.4691	1.053407	0.023742	0.023344	37.0398	15016.4	0.021892	0.025604	1446.66	85740.6
1170	2.000000	1.055827	7.3765e+06	-57089.1	1105.82	-29737.4	0.000000	0.000000	7.057430	40.2495	NaN	0.000000	0.001628	0.001703	28.0838	28.6574	0.001662	17247.7	3.951699	179.735	39.3924	1.055520	0.025765	0.025457	40.2495	17247.7	0.024015	0.029248	1376.17	92142.6
1170	2.000000	1.057818	7.3765e+06	-57089.1	1105.82	-29737.4	0.000000	0.000000	7.059524	42.7773	NaN	0.000000	0.001621	0.001690	28.0835	31.2214	0.001843	16940.4	6.293805	179.137	43.1806	1.057466	0.027756	0.027404	42.7773	16940.4	0.025862	0.032602	1312.11	85718.7
1170	2.000000	1.059804	7.3765e+06	-57089.1	1105.82	-29737.4	0.000000	0.000000	7.061661	46.4457	NaN	0.000000	0.001608	0.001694	28.0832	32.3529	0.001822	17753.5	6.025396	178.575	46.2197	1.059541	0.029741	0.029479	46.4457	17753.5	0.027779	0.036267	1280.68	85173.3
1170	2.000000	1.061770	7.3765e+06	-57089.1	1105.82	-29737.4	0.000000	0.000000	7.063858	52.0451	NaN	0.000000	0.001619	0.001736	28.0833	35.4647	0.001766	20078.8	5.133891	178.26	51.8359	1.061498	0.031708	0.031436	52.0451	20078.8	0.029764	0.040255	1292.88	91432.5
1170	2.000000	1.063792	7.3765e+06	-57089.1	1105.82	-29737.4	0.000000	0.000000	7.066196	59.7214	NaN	0.000000	0.001647	0.001715	28.0847	36.9822	0.001716	21556.7	1.914547	-179.254	57.8658	1.063473	0.033730	0.033411	59.7214	21556.7	0.031652	0.044237	1350.04	93640.3
1170	2.000000	1.065763	7.3765e+06	-57089.1	1105.82	-29737.4	0.000000	0.000000	7.068220	61.0375	NaN	0.000000	0.001645	0.001748	28.0834	39.811	0.001770	22491.9	5.596536	176.132	59.3156	1.065497	0.035700	0.035434	61.0375	22491.9	0.033665	0.048683	1253.77	93134.6
1170	2.000000	1.067778	7.3765e+06	-57089.1	1105.82	-29737.4	0.000000	0.000000	7.070638	70.8041	NaN	0.000000	0.001635	0.001700	28.0836	41.8048	0.001730	24159.9	7.168092	174.175	69.2801	1.067420	0.037716	0.037357	70.8041	24159.9	0.035518	0.052959	1336.97	95918
1170	2.000000	1.069792	7.3765e+06	-57089.1	1105.82	-29737.4	0.000000	0.000000	7.073012	79.5741	NaN	0.000000	0.001630	0.001713	28.0832	42.0737	0.001723	24419.7	4.874893	177.393	80.6267	1.069357	0.039729	0.039295	79.5741	24419.7	0.037285	0.057201	1391.12	93284.5
1170	2.000000	1.071770	7.3765e+06	-57089.1	1105.82	-29737.4	0.000000	0.000000	7.075093	82.0457	NaN	0.000000	0.001626	0.001730	28.0833	46.1704	0.001833	25183.4	9.001490	172.059	80.5908	1.071419	0.041708	0.041357	82.0457	25183.4	0.039265	0.062142	1320.29	92298.6
1170	2.000000	1.073707	7.3765e+06	-57089.1	1105.82	-29737.4	0.000000	0.000000	7.077461	92.5391	NaN	0.000000	0.001584	0.001739	28.0845	47.7189	0.001832	26042.4	7.140812	174.065	88.5081	1.073488	0.043645	0.043426	92.5391	26042.4	0.040979	0.066584	1389.81	92208
1170	2.000000	1.075817	7.3765e+06	-57089.1	1105.82	-29737.4	0.000000	0.000000	7.079679	95.1669	NaN	0.000000	0.001601	0.001760	28.0832	49.5762	0.001808	27427.7	5.545436	174.794	97.3355	1.075445	0.045754	0.045383	95.1669	27427.7	0.043152	0.072428	1313.95	93112.8
1170	2.000000	1.077795	7.3765e+06	-57089.1	1105.82	-29737.4	0.000000	0.000000	7.082143	106.971	NaN	0.000000	0.001596	0.001733	28.0834	52.2871	0.001858	28135.1	7.244431	173.779	107.294	1.077438	0.047733	0.047376	106.971	28135.1	0.044881	0.077250	1384.74	92485.4
1170	2.000000	1.079800	7.3765e+06	-57089.1	1105.82	-29737.4	0.000000	0.000000	7.084389	112.831	NaN	0.000000	0.001644	0.001764	28.0834	52.7708	0.001755	30077.1	7.493892	171.965	113.164	1.079439	0.049738	0.049377	112.831	30077.1	0.046925	0.083145	1357.05	95299.8
1170	2.000000	1.081755	7.3765e+06	-57089.1	1105.82	-29737.4	0.000000	0.000000	7.086743	122.512	NaN	0.000000	0.001656	0.001771	28.0834	55.7	0.001868	29825.2	6.349868	172.909	120.633	1.081489	0.051693	0.051427	122.512	29825.2	0.048612	0.088173	1389.46	91767.7
1170	2.000000	1.083804	7.3765e+06	-57089.1	1105.82	-29737.4	0.000000	0.000000	7.089109	130.245	NaN	0.000000	0.001678	0.001734	28.0835	57.2149	0.001878	30468.2	5.445627	174.266	132.619	1.083484	0.053741	0.053422	130.245	30468.2	0.050535	0.094075	1384.48	90757.6
1170	2.000000	1.085695	7.3765e+06	-57089.1	1105.82	-29737.4	0.000000	0.000000	7.091595	144.71	NaN	0.000000	0.001684	0.001716	28.0831	57.3582	0.001680	34150.5	2.604397	176.304	142.246	1.085362	0.055633	0.055300	144.71	34150.5	0.052455	0.100151	1444.92	98592.3
1170	2.000000	1.087751	7.3765e+06	-57089.1	1105.82	-29737.4	0.000000	0.000000	7.093890	150.492	NaN	0.000000	0.001656	0.001707	28.0833	61.4346	0.001822	33715.9	8.179264	170.566	150.229	1.087408	0.057689	0.057346	150.492	33715.9	0.054341	0.106302	1415.7	94479.3
1170	2.000000	1.089690	7.3765e+06	-57089.1	1105.82	-29737.4	0.000000	0.000000	7.096313	162.268	NaN	0.000000	0.001682	0.001718	28.0836	61.1616	0.001751	34920	6.260150	173.19	159.383	1.089357	0.059628	0.059295	162.268	34920	0.056143	0.112342	1444.41	95186.6
1170	2.000000	1.091715	7.3765e+06	-57089.1	1105.82	-29737.4	0.000000	0.000000	7.098598	168.591	NaN	0.000000	0.001681	0.001742	28.0847	64.2898	0.001789	35937	5.578056	172.883	166.507	1.091381	0.061653	0.061319	168.591	35937	0.058134	0.119203	1414.32	95098.2
1170	2.000000	1.093741	7.3765e+06	-57089.1	1105.82	-29737.4	0.000000	0.000000	7.101078	179.644	NaN	0.000000	0.001648	0.001739	28.0846	66.1042	0.001703	38817.1	6.230948	172.227	177.188	1.093347	0.063678	0.063284	179.644	38817.1	0.060207	0.126553	1419.52	99692
1170	2.000000	1.095656	7.3765e+06	-57089.1	1105.82	-29737.4	0.000000	0.000000	7.103289	186.822	NaN	0.000000	0.001649	0.001740	28.0844	67.1951	0.001705	39408.7	2.752947	174.233	182.513	1.095390	0.065593	0.065328	186.822	39408.7	0.062038	0.133217	1402.39	98647.3
1170	2.000000	1.097759	7.3765e+06	-57089.1	1105.82	-29737.4	0.000000	0.000000	7.105505	189.576	NaN	0.000000	0.001633	0.001726	28.0845	71.8352	0.001724	41670.8	5.939565	170.447	189.912	1.097584	0.067696	0.067521	189.576	41670.8	0.064284	0.141618	1338.64	101168
1170	2.000000	1.099659	7.3765e+06	-57089.1	1105.82	-29737.4	0.000000	0.000000	7.108234	209.709	NaN	0.000000	0.001668	0.001712	28.0845	72.3231	0.001703	42476.3	4.498842	171.939	203.597	1.099367	0.069597	0.069304	209.709	42476.3	0.065894	0.147789	1418.97	100948
1170	2.000000	1.101705	7.3765e+06	-57089.1	1105.82	-29737.4	0.000000	0.000000	7.110596	217.391	NaN	0.000000	0.001647	0.001730	28.0847	75.2094	0.001868	40253.6	4.813097	173.232	215.2	1.101345	0.071643	0.071283	217.391	40253.6	0.067592	0.154432	1407.69	93585.7
1170	2.000000	1.103666	7.3765e+06	-57089.1	1105.82	-29737.4	0.000000	0.000000	7.113018	228.615	NaN	0.000000	0.001618	0.001756	28.0845	76.9355	0.001839	41837	3.707278	173.533	222.819	1.103456	0.073604	0.073394	228.615	41837	0.069505	0.162081	1410.5	94943.9
1170	2.000000	1.105826	7.3765e+06	-57089.1	1105.82	-29737.4	0.000000	0.000000	7.115791	243.52	NaN	0.000000	0.001665	0.001732	28.0843	79.0263	0.001801	43881.1	8.020995	169.89	246.955	1.105264	0.075763	0.075202	243.52	43881.1	0.071601	0.170662	1426.91	97047.1
1170	2.000000	1.107660	7.3765e+06	-57089.1	1105.82	-29737.4	0.000000	0.000000	7.118363	261.425	NaN	0.000000	0.001646	0.001816	28.0843	79.3662	0.001706	46535.3	1.755408	174.436	256.506	1.107345	0.077598	0.077282	261.425	46535.3	0.073384	0.178128	1467.63	100737
1170	2.000000	1.109722	7.3765e+06	-57089.1	1105.82	-29737.4	0.000000	0.000000	7.120661	267.181	NaN	0.000000	0.001649	0.001765	28.0844	81.7408	0.001725	47374.2	7.731866	169.043	265.896	1.109355	0.079659	0.079292	267.181	47374.2	0.075429	0.186873	1429.75	100125
1170	2.000000	1.111724	7.3765e+06	-57089.1	1105.82	-29737.4	0.000000	0.000000	7.123161	279.26	NaN	0.000000	0.001648	0.001757	28.0842	84.7981	0.001811	46818.9	5.003111	171.223	279.189	1.111400	0.081662	0.081338	279.26	46818.9	0.077188	0.194553	1435.39	96978.5
1170	2.000000	1.113724	7.3765e+06	-57089.1	1105.82	-29737.4	0.000000	0.000000	7.125578	289.414	NaN	0.000000	0.001645	0.001707	28.0842	86.8144	0.001806	48068.5	6.200092	169.901	285.706	1.113375	0.083662	0.083313	289.414	48068.5	0.079146	0.203271	1423.78	97408.3
1170	2.000000	1.115787	7.3765e+06	-57089.1	1105.82	-29737.4	0.000000	0.000000	7.128334	306.247	NaN	0.000000	0.001673	0.001749	28.0846	88.7012	0.001926	46054.5	6.643292	170.533	308.712	1.115324	0.085725	0.085262	306.247	46054.5	0.080737	0.210488	1454.94	91713
1170	2.000000	1.117782	7.3765e+06	-57089.1	1105.82	-29737.4	0.000000	0.000000	7.130727	315.93	NaN	0.000000	0.001646	0.001765	28.0854	90.0276	0.001821	49439.2	4.238537	171.666	317.655	1.117452	0.087720	0.087390	315.93	49439.2	0.082927	0.220614	1432.05	96167.4
1170	2.000000	1.119602	7.3765e+06	-57089.1	1105.82	-29737.4	0.000000	0.000000	7.133317	334.654	NaN	0.000000	0.001654	0.001748	28.0844	90.8833	0.001815	50076	5.600558	170.533	329.839	1.119280	0.089540	0.089218	334.654	50076	0.084528	0.228153	1466.8	95783.3
1170	2.000000	1.121720	7.3765e+06	-57089.1	1105.82	-29737.4	0.000000	0.000000	7.135642	339.684	NaN	0.000000	0.001660	0.001722	28.0842	93.679	0.001719	54492.5	4.016714	170.95	341.088	1.121410	0.091658	0.091347	339.684	54492.5	0.086983	0.239950	1415.65	101636
1170	2.000000	1.123701	7.3765e+06	-57089.1	1105.82	-29737.4	0.000000	0.000000	7.138142	352.272	NaN	0.000000	0.001713	0.001750	28.0841	95.8771	0.001761	54453.5	3.644587	171.563	349.442	1.123407	0.093639	0.093345	352.272	54453.5	0.088787	0.248799	1415.89	99741.3
1170	2.000000	1.125766	7.3765e+06	-57089.1	1105.82	-29737.4	0.000000	0.000000	7.141081	373.541	NaN	0.000000	0.001732	0.001713	28.0832	97.2273	0.001747	55669.7	2.745339	172.69	374.503	1.125299	0.095704	0.095237	373.541	55669.7	0.090671	0.258196	1446.73	100096
1170	2.000000	1.127566	7.3765e+06	-57089.1	1105.82	-29737.4	0.000000	0.000000	7.143450	387.372	NaN	0.000000	0.001734	0.001733	28.0832	100.687	0.001817	55419	5.894968	169.195	379.697	1.127380	0.097504	0.097318	387.372	55419	0.092261	0.266255	1454.89	98125.8
1170	2.000000	1.129597	7.3765e+06	-57089.1	1105.82	-29737.4	0.000000	0.000000	7.146354	408.563	NaN	0.000000	0.001671	0.001771	28.0832	100.796	0.001832	55032.2	5.947948	169.213	403.479	1.129346	0.099535	0.099283	408.563	55032.2	0.093967	0.275027	1485.54	95874.4
1170	2.000000	1.131676	7.3765e+06	-57089.1	1105.82	-29737.4	0.000000	0.000000	7.148935	420.782	NaN	0.000000	0.001708	0.001714	28.0831	102.806	0.001771	58056.6	5.608247	169.399	418.42	1.131313	0.101613	0.101250	420.782	58056.6	0.096177	0.286593	1468.22	99081.4
1170	2.000000	1.133641	7.3765e+06	-57089.1	1105.82	-29737.4	0.000000	0.000000	7.150737	416.804	NaN	0.000000	0.001690	0.001686	28.0831	103.788	0.001682	61704.3	-0.331889	174.332	411.124	1.133437	0.103579	0.103375	416.804	61704.3	0.098513	0.299055	1393.74	103089
1170	2.000000	1.134687	7.3765e+06	-57089.1	1105.82	-29737.4	0.000000	0.000000	7.152461	433.287	NaN	0.000000	0.001689	0.001739	28.083	105.359	0.001689	62362	3.594421	170.995	435.403	1.134310	0.104625	0.104248	433.287	62362	0.099414	0.303928	1425.62	103349