File: remote_trans/data/nanoindenter/0828-1/data/Data_2025-08-06,11h17m57s/2025-07-22_16-23-58_1_203.txt
2025-07-22, 16:23:58, 1
Index	Phase	Displacement	Time	Pos X	Pos Y	Pos Z	Rot A	Rot B	Piezo Z	Force A	Force B	Gripper	Voltage A	Voltage B	Temperature	Amplitude force	Amplitude pos	Stiffness	Phase shift	Phase excitation	Force A raw	Displacement raw	HMax	HMax raw	Real Force	Real Stiffness	Contact Depth	Area	Hardness	Reduced Mod.
[#]	[#]	[um]	[s]	[um]	[um]	[um]	[m°]	[m°]	[um]	[uN]	[uN]	[V]	[V]	[V]	[°C]	[uN]	[um]	[N/m]	[°]	[°]	[uN]	[um]	[um]	[um]	[uN]	[N/m]	[um]	[um^2]	[MPa]	[MPa]
203	1.000000	0.002598	7.36703e+06	-48789.1	955.818	-29761.5	0.000000	0.000000	6.002790	0.005211	NaN	0.000000	0.001642	0.001724	28.0769	0.061055	0.000968	63.0651	-39.8573	-167.558	-0.016909	0.001332	-1.185055	-1.186320	0.005211	63.0651	-1.185117	-6.940874E+15	-7.507675E-19	NaN
203	1.000000	0.012662	7.36703e+06	-48789.1	955.819	-29761.5	0.000000	0.000000	6.012854	-0.018632	NaN	0.000000	0.001608	0.001658	28.0765	0.021870	0.001334	16.3938	145.832	22.6495	0.022892	0.011204	-1.174990	-1.176448	-0.018632	16.3938	-1.174138	-4.946837E+15	3.766402E-18	NaN
203	1.000000	0.022573	7.36703e+06	-48789.1	955.819	-29761.5	0.000000	0.000000	6.022764	-0.015689	NaN	0.000000	0.001648	0.001651	28.0766	0.121385	0.001690	71.8263	177.797	-164.725	0.034780	0.021271	-1.165079	-1.166381	-0.015689	71.8263	-1.164916	-3.721768E+15	4.215534E-18	NaN
203	1.000000	0.032552	7.36703e+06	-48789.1	955.818	-29761.5	0.000000	0.000000	6.032744	0.003394	NaN	0.000000	0.001612	0.001685	28.0765	0.153100	0.001831	83.6004	74.1263	12.0707	0.043479	0.031216	-1.155101	-1.156436	0.003394	83.6004	-1.155131	-2.751739E+15	-1.233471E-18	NaN
203	1.000000	0.042529	7.36703e+06	-48789.1	955.819	-29761.5	0.000000	0.000000	6.042724	0.071723	NaN	0.000000	0.001580	0.001711	28.0766	0.143944	0.002035	70.7234	-129.605	-168.502	0.163963	0.041270	-1.145124	-1.146383	0.071723	70.7234	-1.145884	-2.068416E+15	-3.467524E-17	NaN
203	1.000000	0.052564	7.36703e+06	-48789.1	955.818	-29761.5	0.000000	0.000000	6.052755	-0.036855	NaN	0.000000	0.001603	0.001692	28.0767	0.116765	0.002076	56.2408	-14.9715	13.2539	-0.054701	0.051162	-1.135088	-1.136491	-0.036855	56.2408	-1.134597	-1.459735E+15	2.524779E-17	NaN
203	1.000000	0.062538	7.36703e+06	-48789.1	955.818	-29761.5	0.000000	0.000000	6.062731	0.027681	NaN	0.000000	0.001636	0.001686	28.0779	0.077333	0.002002	38.6295	-152.891	-166.753	-0.031934	0.061254	-1.125114	-1.126398	0.027681	38.6295	-1.125651	-1.107362E+15	-2.499727E-17	NaN
203	1.000000	0.072539	7.36703e+06	-48789.1	955.818	-29761.5	0.000000	0.000000	6.072729	-0.056402	NaN	0.000000	0.001609	0.001680	28.0781	0.057351	0.001942	29.5257	-157.961	12.7226	0.003779	0.071239	-1.115113	-1.116413	-0.056402	29.5257	-1.113680	-7.650221E+14	7.372536E-17	NaN
203	1.000000	0.082553	7.36703e+06	-48789.1	955.818	-29761.5	0.000000	0.000000	6.082747	0.041213	NaN	0.000000	0.001586	0.001703	28.0781	0.104563	0.002023	51.6978	21.2345	-168.236	-0.013194	0.081253	-1.105099	-1.106399	0.041213	51.6978	-1.105697	-5.977685E+14	-6.894426E-17	NaN
203	1.000000	0.092539	7.36703e+06	-48789.1	955.819	-29761.5	0.000000	0.000000	6.092731	-0.006911	NaN	0.000000	0.001641	0.001629	28.0778	0.062975	0.002013	31.2901	-11.085	11.9708	0.048179	0.091271	-1.095113	-1.096381	-0.006911	31.2901	-1.094947	-4.287807E+14	1.611745E-17	NaN
203	1.000000	0.102612	7.36703e+06	-48789.1	955.818	-29761.5	0.000000	0.000000	6.102806	0.051842	NaN	0.000000	0.001622	0.001689	28.078	0.077205	0.002079	37.1277	-28.6138	-166.298	0.022842	0.101293	-1.085041	-1.086360	0.051842	37.1277	-1.086088	-3.260453E+14	-1.590020E-16	NaN
203	1.000000	0.112590	7.36703e+06	-48789.1	955.819	-29761.5	0.000000	0.000000	6.112780	-0.036289	NaN	0.000000	0.001637	0.001657	28.0781	0.050331	0.002103	23.9354	-38.447	17.5695	-0.002977	0.111212	-1.075063	-1.076441	-0.036289	23.9354	-1.073925	-2.238330E+14	1.621237E-16	NaN
203	1.000000	0.122531	7.36703e+06	-48789.1	955.819	-29761.5	0.000000	0.000000	6.122724	0.010745	NaN	0.000000	0.001645	0.001657	28.0781	0.099386	0.001875	53.0036	38.6491	-166.7	-0.002946	0.121258	-1.065121	-1.066394	0.010745	53.0036	-1.065273	-1.712696E+14	-6.273803E-17	NaN
203	1.000000	0.132586	7.36703e+06	-48789.1	955.817	-29761.5	0.000000	0.000000	6.132780	0.062242	NaN	0.000000	0.001601	0.001652	28.078	0.038381	0.001926	19.9276	-161.689	15.4691	0.082222	0.131260	-1.055067	-1.056392	0.062242	19.9276	-1.057409	-1.342771E+14	-4.635347E-16	NaN
203	1.000000	0.142622	7.36703e+06	-48789.1	955.818	-29761.5	0.000000	0.000000	6.142814	0.002885	NaN	0.000000	0.001605	0.001672	28.0781	0.035806	0.002051	17.4541	142.342	-167.311	0.031574	0.141268	-1.045030	-1.046384	0.002885	17.4541	-1.045154	-9.189066E+13	-3.139191E-17	NaN
203	1.000000	0.152615	7.36703e+06	-48789.1	955.818	-29761.5	0.000000	0.000000	6.152808	0.017078	NaN	0.000000	0.001623	0.001690	28.0782	0.111216	0.002036	54.6281	-28.9208	15.0195	0.045512	0.151248	-1.035037	-1.036405	0.017078	54.6281	-1.035271	-6.766737E+13	-2.523803E-16	NaN
203	1.000000	0.162616	7.36703e+06	-48789.1	955.819	-29761.5	0.000000	0.000000	6.162812	0.079015	NaN	0.000000	0.001644	0.001695	28.078	0.073816	0.001920	38.4516	28.7932	-166.603	0.022419	0.161280	-1.025036	-1.026372	0.079015	38.4516	-1.026577	-5.169361E+13	-1.528524E-15	NaN
203	1.000000	0.172631	7.36703e+06	-48789.1	955.818	-29761.5	0.000000	0.000000	6.172825	0.060672	NaN	0.000000	0.001596	0.001676	28.0782	0.045881	0.001916	23.9408	156.539	14.3361	0.060579	0.171271	-1.015021	-1.016381	0.060672	23.9408	-1.016922	-3.832975E+13	-1.582890E-15	NaN
203	1.000000	0.182604	7.36703e+06	-48789.1	955.818	-29761.5	0.000000	0.000000	6.182799	0.074816	NaN	0.000000	0.001572	0.001650	28.0782	0.073711	0.002030	36.3024	-70.91	-167.728	0.018875	0.181301	-1.005048	-1.006351	0.074816	36.3024	-1.006594	-2.783138E+13	-2.688181E-15	NaN
203	1.000000	0.192607	7.36703e+06	-48789.1	955.818	-29761.5	0.000000	0.000000	6.192799	0.002460	NaN	0.000000	0.001606	0.001686	28.0769	0.015935	0.002014	7.911438	2.774705	17.2502	0.010608	0.191250	-0.995045	-0.996402	0.002460	7.911438	-0.995278	-1.959729E+13	-1.255243E-16	NaN
203	1.000000	0.202632	7.36703e+06	-48789.1	955.818	-29761.5	0.000000	0.000000	6.202828	0.087056	NaN	0.000000	0.001663	0.001682	28.0768	0.037152	0.001950	19.0508	-88.0608	-166.953	0.126522	0.201328	-0.985020	-0.986324	0.087056	19.0508	-0.988448	-1.585637E+13	-5.490268E-15	NaN
203	1.000000	0.212586	7.36703e+06	-48789.1	955.819	-29761.4	0.000000	0.000000	6.212778	0.003116	NaN	0.000000	0.001665	0.001653	28.0767	0.028003	0.001962	14.2749	-139.463	12.6966	0.019191	0.211228	-0.975066	-0.976425	0.003116	14.2749	-0.975230	-1.052307E+13	-2.961310E-16	NaN
203	1.000000	0.222608	7.36703e+06	-48789.1	955.819	-29761.5	0.000000	0.000000	6.222796	-0.094387	NaN	0.000000	0.001669	0.001636	28.0767	0.016917	0.001961	8.627329	156.96	-166.103	-0.040116	0.221341	-0.965045	-0.966311	-0.094387	8.627329	-0.956839	-5.946422E+12	1.587283E-14	NaN
203	1.000000	0.232606	7.36703e+06	-48789.1	955.818	-29761.4	0.000000	0.000000	6.232799	0.000957	NaN	0.000000	0.001648	0.001668	28.0767	0.152031	0.002025	75.0686	162.523	13.5655	0.003751	0.231289	-0.955046	-0.956364	0.000957	75.0686	-0.955055	-5.626013E+12	-1.701168E-16	NaN
203	1.000000	0.242626	7.36703e+06	-48789.1	955.818	-29761.4	0.000000	0.000000	6.242820	0.041498	NaN	0.000000	0.001676	0.001693	28.0765	0.039022	0.001899	20.5493	-58.4101	-168.936	0.021480	0.241394	-0.945026	-0.946258	0.041498	20.5493	-0.946541	-4.318879E+12	-9.608403E-15	NaN
203	1.000000	0.252642	7.36703e+06	-48789.1	955.818	-29761.4	0.000000	0.000000	6.252834	0.004373	NaN	0.000000	0.001652	0.001688	28.0765	0.010781	0.001927	5.596237	-179.892	14.2857	0.000412	0.251288	-0.935010	-0.936364	0.004373	5.596237	-0.935596	-3.074110E+12	-1.422403E-15	NaN
203	1.000000	0.262659	7.36703e+06	-48789.1	955.818	-29761.4	0.000000	0.000000	6.262851	0.008940	NaN	0.000000	0.001631	0.001668	28.0768	0.101914	0.001964	51.9013	-99.7865	-164.199	-0.035023	0.261336	-0.924993	-0.926316	0.008940	51.9013	-0.925123	-2.220048E+12	-4.027086E-15	NaN
203	1.000000	0.272647	7.36703e+06	-48789.1	955.819	-29761.4	0.000000	0.000000	6.272841	0.046599	NaN	0.000000	0.001636	0.001719	28.0765	0.073724	0.002129	34.6337	80.11	15.2761	0.025491	0.271282	-0.915005	-0.916370	0.046599	34.6337	-0.916014	-1.672593E+12	-2.786035E-14	NaN
203	1.000000	0.282679	7.36703e+06	-48789.1	955.818	-29761.4	0.000000	0.000000	6.282872	0.035929	NaN	0.000000	0.001633	0.001694	28.0767	0.097531	0.002088	46.7116	16.612	-165.58	0.017647	0.281364	-0.904973	-0.906288	0.035929	46.7116	-0.905550	-1.207964E+12	-2.974377E-14	NaN
203	1.000000	0.292652	7.36703e+06	-48789.1	955.819	-29761.4	0.000000	0.000000	6.292844	0.003667	NaN	0.000000	0.001690	0.001707	28.0767	0.063725	0.002024	31.4829	-142.471	17.3728	0.027430	0.291368	-0.895000	-0.896285	0.003667	31.4829	-0.895087	-8.723262E+11	-4.203965E-15	NaN
203	1.000000	0.302638	7.36703e+06	-48789.1	955.818	-29761.4	0.000000	0.000000	6.302833	0.053462	NaN	0.000000	0.001666	0.001686	28.0768	0.080673	0.002022	39.8895	150.057	-163.13	0.114133	0.301390	-0.885014	-0.886262	0.053462	39.8895	-0.886019	-6.578021E+11	-8.127350E-14	NaN
203	1.000000	0.312656	7.36703e+06	-48789.1	955.818	-29761.4	0.000000	0.000000	6.312850	0.054276	NaN	0.000000	0.001649	0.001661	28.0767	0.033615	0.002001	16.7981	-5.914070	13.7822	0.123331	0.311375	-0.874996	-0.876277	0.054276	16.7981	-0.877419	-5.032770E+11	-1.078445E-13	NaN
203	1.000000	0.322629	7.36703e+06	-48789.1	955.818	-29761.4	0.000000	0.000000	6.322822	0.037002	NaN	0.000000	0.001577	0.001645	28.0767	0.059280	0.001916	30.9426	-30.2059	-165.055	0.017471	0.321366	-0.865024	-0.866286	0.037002	30.9426	-0.865920	-3.517590E+11	-1.051915E-13	NaN
203	1.000000	0.332667	7.36703e+06	-48789.1	955.818	-29761.4	0.000000	0.000000	6.332860	0.020763	NaN	0.000000	0.001569	0.001681	28.0779	0.090559	0.001931	46.8862	20.9429	8.439231	0.069971	0.331316	-0.854985	-0.856336	0.020763	46.8862	-0.855317	-2.527742E+11	-8.214132E-14	NaN
203	1.000000	0.342708	7.36703e+06	-48789.1	955.818	-29761.4	0.000000	0.000000	6.342901	0.023179	NaN	0.000000	0.001574	0.001691	28.0779	0.036577	0.001952	18.7419	6.487310	-169.919	0.026235	0.341365	-0.844944	-0.846287	0.023179	18.7419	-0.845872	-1.882919E+11	-1.230998E-13	NaN
203	1.000000	0.352673	7.36703e+06	-48789.1	955.818	-29761.4	0.000000	0.000000	6.352866	0.018735	NaN	0.000000	0.001556	0.001697	28.0776	0.075553	0.002063	36.6246	174.989	15.8478	0.034512	0.351301	-0.834979	-0.836351	0.018735	36.6246	-0.835363	-1.356632E+11	-1.381001E-13	NaN
203	1.000000	0.362687	7.36703e+06	-48789.1	955.818	-29761.4	0.000000	0.000000	6.362879	0.005922	NaN	0.000000	0.001588	0.001714	28.0776	0.108644	0.001951	55.679	-114.293	-165.326	0.020648	0.361438	-0.824965	-0.826214	0.005922	55.679	-0.825045	-9.831412E+10	-6.023448E-14	NaN
203	1.000000	0.372708	7.36703e+06	-48789.1	955.819	-29761.4	0.000000	0.000000	6.372905	0.122487	NaN	0.000000	0.001597	0.001706	28.0778	0.052102	0.001994	26.1317	-155.804	13.947	0.043278	0.371324	-0.814945	-0.816328	0.122487	26.1317	-0.818460	-8.004394E+10	-1.530246E-12	NaN
203	1.000000	0.382700	7.36703e+06	-48789.1	955.818	-29761.4	0.000000	0.000000	6.382892	0.002539	NaN	0.000000	0.001575	0.001694	28.0777	0.094657	0.001993	47.4831	14.5051	-166.778	0.075661	0.381404	-0.804952	-0.806248	0.002539	47.4831	-0.804992	-5.255584E+10	-4.830711E-14	NaN
203	1.000000	0.392707	7.36703e+06	-48789.1	955.819	-29761.4	0.000000	0.000000	6.392900	0.014229	NaN	0.000000	0.001576	0.001684	28.0777	0.047622	0.002011	23.679	55.5854	12.8915	-0.008100	0.391366	-0.794945	-0.796286	0.014229	23.679	-0.795395	-3.893605E+10	-3.654423E-13	NaN
203	1.000000	0.402694	7.36703e+06	-48789.1	955.818	-29761.4	0.000000	0.000000	6.402889	0.058841	NaN	0.000000	0.001599	0.001689	28.0776	0.070192	0.001893	37.0874	66.7016	-169.182	0.100994	0.401398	-0.784958	-0.786255	0.058841	37.0874	-0.786148	-2.915832E+10	-2.017983E-12	NaN
203	1.000000	0.412713	7.36703e+06	-48789.1	955.818	-29761.4	0.000000	0.000000	6.412906	0.025819	NaN	0.000000	0.001556	0.001666	28.0778	0.039689	0.002005	19.7919	136.192	12.7732	0.051775	0.411293	-0.774939	-0.776360	0.025819	19.7919	-0.775917	-2.117122E+10	-1.219531E-12	NaN
203	1.000000	0.422681	7.36703e+06	-48789.1	955.819	-29761.4	0.000000	0.000000	6.422876	0.066932	NaN	0.000000	0.001553	0.001697	28.0777	0.129038	0.002085	61.8944	117.461	-165.618	0.101030	0.421432	-0.764971	-0.766220	0.066932	61.8944	-0.765783	-1.541545E+10	-4.341880E-12	NaN
203	1.000000	0.432707	7.36703e+06	-48789.1	955.819	-29761.4	0.000000	0.000000	6.432898	-0.022291	NaN	0.000000	0.001573	0.001711	28.0777	0.025959	0.002107	12.3215	-92.9732	13.6564	-0.022966	0.431337	-0.754945	-0.756315	-0.022291	12.3215	-0.753589	-1.052114E+10	2.118675E-12	NaN
203	1.000000	0.442692	7.36703e+06	-48789.1	955.819	-29761.4	0.000000	0.000000	6.442883	-0.014889	NaN	0.000000	0.001573	0.001708	28.0776	0.085494	0.001893	45.1645	141.846	-166.32	0.006779	0.441413	-0.744961	-0.746240	-0.014889	45.1645	-0.744713	-7.966094E+9	1.868998E-12	NaN
203	1.000000	0.452724	7.36703e+06	-48789.1	955.818	-29761.4	0.000000	0.000000	6.452917	0.017922	NaN	0.000000	0.001638	0.001687	28.0782	0.067522	0.002021	33.4047	108.709	13.7406	0.070747	0.451333	-0.734928	-0.736319	0.017922	33.4047	-0.735330	-5.935314E+9	-3.019589E-12	NaN
203	1.000000	0.462747	7.36703e+06	-48789.1	955.818	-29761.4	0.000000	0.000000	6.462938	-0.027032	NaN	0.000000	0.001626	0.001718	28.0775	0.055252	0.001969	28.0659	-47.1511	-166.984	-0.117316	0.461423	-0.724905	-0.726229	-0.027032	28.0659	-0.724182	-4.183164E+9	6.462062E-12	NaN
203	1.000000	0.472753	7.36703e+06	-48789.1	955.819	-29761.4	0.000000	0.000000	6.472947	0.046073	NaN	0.000000	0.001609	0.001703	28.0767	0.050587	0.002008	25.1873	90.6726	13.1445	-0.010556	0.471358	-0.714899	-0.716294	0.046073	25.1873	-0.716271	-3.262973E+9	-1.411981E-11	NaN
203	1.000000	0.482730	7.36703e+06	-48789.1	955.819	-29761.4	0.000000	0.000000	6.482925	0.081573	NaN	0.000000	0.001573	0.001721	28.0767	0.037632	0.001972	19.0857	131.63	-169.83	0.055763	0.481491	-0.704922	-0.706161	0.081573	19.0857	-0.708128	-2.526363E+9	-3.228877E-11	NaN
203	1.000000	0.492716	7.36703e+06	-48789.1	955.818	-29761.4	0.000000	0.000000	6.492909	0.035936	NaN	0.000000	0.001585	0.001721	28.077	0.136870	0.001923	71.1853	54.4118	16.1058	0.123373	0.491376	-0.694937	-0.696276	0.035936	71.1853	-0.695315	-1.688670E+9	-2.128044E-11	NaN
203	1.000000	0.502764	7.36703e+06	-48789.1	955.819	-29761.4	0.000000	0.000000	6.502960	0.095096	NaN	0.000000	0.001611	0.001700	28.0765	0.065000	0.001969	33.0043	-110.918	-167.635	0.102929	0.501383	-0.684888	-0.686269	0.095096	33.0043	-0.687049	-1.301940E+9	-7.304188E-11	NaN
203	1.000000	0.512734	7.36703e+06	-48789.1	955.818	-29761.4	0.000000	0.000000	6.512926	0.011274	NaN	0.000000	0.001609	0.001710	28.0764	0.111997	0.002044	54.7937	120.105	13.3242	-0.007867	0.511388	-0.674918	-0.676264	0.011274	54.7937	-0.675073	-8.929043E+8	-1.262655E-11	NaN
203	1.000000	0.522757	7.36703e+06	-48789.1	955.818	-29761.4	0.000000	0.000000	6.522951	0.031477	NaN	0.000000	0.001644	0.001700	28.0766	0.087913	0.002032	43.2606	121.434	-167.83	0.011953	0.521451	-0.664895	-0.666202	0.031477	43.2606	-0.665441	-6.591364E+8	-4.775538E-11	NaN
203	1.000000	0.532765	7.36703e+06	-48789.1	955.819	-29761.4	0.000000	0.000000	6.532960	0.078872	NaN	0.000000	0.001619	0.001714	28.0765	0.049747	0.001972	25.2289	-118.061	10.7427	0.031218	0.531394	-0.654887	-0.656259	0.078872	25.2289	-0.657232	-5.088015E+8	-1.550147E-10	NaN
203	1.000000	0.542763	7.36703e+06	-48789.1	955.819	-29761.4	0.000000	0.000000	6.542956	0.015098	NaN	0.000000	0.001586	0.001713	28.0766	0.065291	0.001955	33.395	80.5563	-166.153	0.062218	0.541475	-0.644889	-0.646177	0.015098	33.395	-0.645228	-3.483434E+8	-4.334188E-11	NaN
203	1.000000	0.552784	7.36703e+06	-48789.1	955.818	-29761.4	0.000000	0.000000	6.552977	0.019154	NaN	0.000000	0.001600	0.001707	28.0764	0.051960	0.001962	26.4859	-31.1566	13.5647	-0.023977	0.551377	-0.634868	-0.636275	0.019154	26.4859	-0.635411	-2.554507E+8	-7.498282E-11	NaN
203	1.000000	0.562759	7.36703e+06	-48789.1	955.819	-29761.4	0.000000	0.000000	6.562953	0.036019	NaN	0.000000	0.001583	0.001789	28.0768	0.094847	0.002148	44.1463	148.803	-169.893	0.007416	0.561487	-0.624893	-0.626165	0.036019	44.1463	-0.625505	-1.867600E+8	-1.928615E-10	NaN
203	1.000000	0.572798	7.36703e+06	-48789.1	955.819	-29761.4	0.000000	0.000000	6.572993	0.074972	NaN	0.000000	0.001570	0.001798	28.0764	0.057420	0.002051	27.9901	166.072	14.5309	0.029755	0.571383	-0.614854	-0.616269	0.074972	27.9901	-0.616863	-1.420717E+8	-5.277071E-10	NaN
203	1.000000	0.582777	7.36703e+06	-48789.1	955.818	-29761.4	0.000000	0.000000	6.582971	0.053066	NaN	0.000000	0.001577	0.001789	28.0765	0.086746	0.002003	43.3054	-59.6841	-165.338	0.061484	0.581502	-0.604876	-0.606150	0.053066	43.3054	-0.605795	-1.000559E+8	-5.303673E-10	NaN
203	1.000000	0.592799	7.36703e+06	-48789.1	955.817	-29761.4	0.000000	0.000000	6.592991	-0.002372	NaN	0.000000	0.001600	0.001821	28.0763	0.040877	0.001954	20.9188	-5.531096	15.355	0.080967	0.591375	-0.594853	-0.596278	-0.002372	20.9188	-0.594768	-7.053150E+7	3.362789E-11	NaN
203	1.000000	0.602800	7.36703e+06	-48789.1	955.819	-29761.4	0.000000	0.000000	6.602992	-0.009911	NaN	0.000000	0.001598	0.001819	28.0779	0.030417	0.001859	16.3601	-125.195	-165.346	0.042133	0.601477	-0.584852	-0.586175	-0.009911	16.3601	-0.584397	-5.074621E+7	1.952965E-10	NaN
203	1.000000	0.612819	7.36703e+06	-48789.1	955.818	-29761.4	0.000000	0.000000	6.613011	0.005507	NaN	0.000000	0.001569	0.001789	28.0778	0.107982	0.002010	53.7137	-179.58	13.5321	-0.017904	0.611440	-0.574834	-0.576212	0.005507	53.7137	-0.574911	-3.753735E+7	-1.466979E-10	NaN
203	1.000000	0.622786	7.36703e+06	-48789.1	955.818	-29761.4	0.000000	0.000000	6.622977	-0.016662	NaN	0.000000	0.001581	0.001780	28.0779	0.083843	0.001944	43.1382	105.974	-168.306	-0.061233	0.621545	-0.564866	-0.566107	-0.016662	43.1382	-0.564577	-2.701930E+7	6.166869E-10	NaN
203	1.000000	0.632807	7.36703e+06	-48789.1	955.818	-29761.4	0.000000	0.000000	6.633001	0.037496	NaN	0.000000	0.001583	0.001768	28.0777	0.062026	0.001980	31.3292	168.306	12.7711	0.058373	0.631450	-0.554845	-0.556202	0.037496	31.3292	-0.555743	-2.039248E+7	-1.838740E-9	NaN
203	1.000000	0.642789	7.36703e+06	-48789.1	955.819	-29761.4	0.000000	0.000000	6.642982	0.033135	NaN	0.000000	0.001570	0.001771	28.0782	0.024343	0.002013	12.0911	152.491	-166.337	0.007768	0.641466	-0.544863	-0.546186	0.033135	12.0911	-0.546919	-1.539104E+7	-2.152871E-9	NaN
203	1.000000	0.652816	7.36703e+06	-48789.1	955.818	-29761.4	0.000000	0.000000	6.653006	-0.044780	NaN	0.000000	0.001605	0.001796	28.0778	0.055401	0.002131	26.0025	-42.4829	11.4251	-0.072315	0.651432	-0.534836	-0.536221	-0.044780	26.0025	-0.533544	-1.004124E+7	4.459565E-9	NaN
203	1.000000	0.662801	7.36703e+06	-48789.1	955.818	-29761.4	0.000000	0.000000	6.662992	-0.020285	NaN	0.000000	0.001611	0.001752	28.0778	0.154588	0.001871	82.6301	-46.2307	-168.675	-0.042033	0.661498	-0.524851	-0.526154	-0.020285	82.6301	-0.524667	-7.55938e+06	2.683458E-9	NaN
203	1.000000	0.672837	7.36703e+06	-48789.1	955.818	-29761.4	0.000000	0.000000	6.673031	0.042973	NaN	0.000000	0.001599	0.001774	28.0779	0.048517	0.001987	24.4223	-77.9025	15.0515	0.000835	0.671502	-0.514815	-0.516150	0.042973	24.4223	-0.516135	-5.75211e+06	-7.470843E-9	NaN
203	1.000000	0.682822	7.36703e+06	-48789.1	955.819	-29761.4	0.000000	0.000000	6.683015	0.018862	NaN	0.000000	0.001600	0.001781	28.0779	0.062531	0.002101	29.7683	84.2551	-168.034	0.012340	0.681509	-0.504830	-0.506143	0.018862	29.7683	-0.505306	-4.06448e+06	-4.640662E-9	NaN
203	1.000000	0.692839	7.36703e+06	-48789.1	955.818	-29761.4	0.000000	0.000000	6.693031	-0.005376	NaN	0.000000	0.001633	0.001805	28.0779	0.073622	0.002049	35.9313	35.3152	14.7899	0.018919	0.691455	-0.494813	-0.496197	-0.005376	35.9313	-0.494701	-2.89106e+06	1.859462E-9	NaN
203	1.000000	0.702830	7.36703e+06	-48789.1	955.817	-29761.4	0.000000	0.000000	6.703020	-0.051995	NaN	0.000000	0.001615	0.001786	28.0778	0.012699	0.002008	6.325687	10.4175	-166.256	0.061742	0.701566	-0.484822	-0.486086	-0.051995	6.325687	-0.478658	-1.72478e+06	3.014615E-8	NaN
203	1.000000	0.712859	7.36703e+06	-48789.1	955.819	-29761.4	0.000000	0.000000	6.713053	0.044963	NaN	0.000000	0.001592	0.001762	28.0779	0.101448	0.001934	52.4495	-91.0914	15.8954	0.122906	0.711469	-0.474794	-0.476184	0.044963	52.4495	-0.475436	-1.55459e+06	-2.892307E-8	NaN
203	1.000000	0.722811	7.36703e+06	-48789.1	955.818	-29761.4	0.000000	0.000000	6.723006	0.077885	NaN	0.000000	0.001572	0.001778	28.0779	0.048971	0.001961	24.9693	-73.6292	-168.631	0.019234	0.721512	-0.464842	-0.466140	0.077885	24.9693	-0.467181	-1.19086e+06	-6.540270E-8	NaN
203	1.000000	0.732845	7.36703e+06	-48789.1	955.818	-29761.4	0.000000	0.000000	6.733035	-0.032256	NaN	0.000000	0.001575	0.001763	28.0779	0.081077	0.002082	38.9356	-128.387	16.3889	-0.031288	0.731471	-0.454807	-0.456181	-0.032256	38.9356	-0.454186	-782110	4.124214E-8	NaN
203	1.000000	0.742815	7.36703e+06	-48789.1	955.819	-29761.4	0.000000	0.000000	6.743008	0.025634	NaN	0.000000	0.001604	0.001786	28.0765	0.122677	0.002026	60.5576	118.89	-166.076	0.008895	0.741511	-0.444837	-0.446141	0.025634	60.5576	-0.445154	-583537	-4.392930E-8	NaN
203	1.000000	0.752850	7.36703e+06	-48789.1	955.82	-29761.4	0.000000	0.000000	6.753042	-0.016598	NaN	0.000000	0.001592	0.001829	28.0766	0.066640	0.002034	32.7626	-4.583434	11.2787	-0.034259	0.751467	-0.434802	-0.436186	-0.016598	32.7626	-0.434422	-411705	4.031531E-8	NaN
203	1.000000	0.762875	7.36703e+06	-48789.1	955.818	-29761.4	0.000000	0.000000	6.763069	0.053300	NaN	0.000000	0.001588	0.001780	28.0767	0.093396	0.001941	48.1071	-74.9665	-164.676	0.057851	0.761552	-0.424777	-0.426100	0.053300	48.1071	-0.425608	-308955	-1.725162E-7	NaN
203	1.000000	0.772883	7.36703e+06	-48789.1	955.818	-29761.4	0.000000	0.000000	6.773077	0.030940	NaN	0.000000	0.001598	0.001761	28.0764	0.069481	0.002017	34.4464	69.1165	11.0071	0.055566	0.771520	-0.414769	-0.416133	0.030940	34.4464	-0.415443	-221687	-1.395670E-7	NaN
203	1.000000	0.782870	7.36703e+06	-48789.1	955.818	-29761.4	0.000000	0.000000	6.783062	0.018323	NaN	0.000000	0.001599	0.001796	28.0766	0.018447	0.001933	9.544482	-9.090560	-167.997	0.043772	0.781577	-0.404783	-0.406075	0.018323	9.544482	-0.406222	-163928	-1.117722E-7	NaN
203	1.000000	0.792888	7.36703e+06	-48789.1	955.818	-29761.4	0.000000	0.000000	6.793078	-0.049846	NaN	0.000000	0.001548	0.001764	28.0767	0.054498	0.002016	27.0361	117.896	13.317	0.075943	0.791506	-0.394765	-0.396146	-0.049846	27.0361	-0.393382	-107527	4.635659E-7	NaN
203	1.000000	0.802874	7.36703e+06	-48789.1	955.818	-29761.4	0.000000	0.000000	6.803069	0.074261	NaN	0.000000	0.001624	0.001755	28.0768	0.022522	0.001914	11.7663	97.157	-162.568	0.030338	0.801543	-0.384778	-0.386109	0.074261	11.7663	-0.389512	-94664	-7.844741E-7	NaN
203	1.000000	0.812894	7.36703e+06	-48789.1	955.818	-29761.4	0.000000	0.000000	6.813086	0.006728	NaN	0.000000	0.001578	0.001785	28.0766	0.120932	0.001989	60.7965	-145.965	12.8784	0.000675	0.811527	-0.374758	-0.376125	0.006728	60.7965	-0.374841	-58316.5	-1.153722E-7	NaN
203	1.000000	0.822885	7.36703e+06	-48789.1	955.818	-29761.4	0.000000	0.000000	6.823078	0.028808	NaN	0.000000	0.001635	0.001760	28.0769	0.073811	0.001945	37.9413	-7.826997	-168.317	0.061736	0.821526	-0.364768	-0.366126	0.028808	37.9413	-0.365337	-42551.6	-6.770116E-7	NaN
203	1.000000	0.832911	7.36703e+06	-48789.1	955.818	-29761.4	0.000000	0.000000	6.833103	0.007526	NaN	0.000000	0.001623	0.001756	28.0767	0.142563	0.002122	67.1676	161.548	15.2081	-0.087390	0.831555	-0.354742	-0.356097	0.007526	67.1676	-0.354826	-29989.7	-2.509597E-7	NaN
203	1.000000	0.842877	7.36703e+06	-48789.1	955.819	-29761.4	0.000000	0.000000	6.843072	0.072778	NaN	0.000000	0.001617	0.001774	28.0765	0.047186	0.002011	23.4675	70.3791	-169.034	0.020182	0.841539	-0.344775	-0.346113	0.072778	23.4675	-0.347101	-23168.9	-3.141204E-6	NaN
203	1.000000	0.852906	7.36703e+06	-48789.1	955.818	-29761.4	0.000000	0.000000	6.853097	-0.018992	NaN	0.000000	0.001602	0.001747	28.0765	0.040959	0.001945	21.0549	5.651932	16.2776	-0.012110	0.851519	-0.334746	-0.336133	-0.018992	21.0549	-0.334070	-14962	1.269378E-6	NaN
203	1.000000	0.862885	7.36703e+06	-48789.1	955.819	-29761.4	0.000000	0.000000	6.863079	0.041845	NaN	0.000000	0.001604	0.001754	28.0764	0.163107	0.002075	78.6017	-37.3831	-167.366	0.116838	0.861552	-0.324767	-0.326100	0.041845	78.6017	-0.325167	-11081.1	-3.776242E-6	NaN
203	1.000000	0.872923	7.36703e+06	-48789.1	955.819	-29761.4	0.000000	0.000000	6.873114	-0.020254	NaN	0.000000	0.001684	0.001747	28.0772	0.088687	0.001999	44.3635	19.653	14.7448	0.037196	0.871512	-0.314730	-0.316140	-0.020254	44.3635	-0.314387	-7689.6	2.633934E-6	NaN
203	1.000000	0.882887	7.36703e+06	-48789.1	955.819	-29761.4	0.000000	0.000000	6.883080	0.027646	NaN	0.000000	0.001679	0.001759	28.0777	0.035238	0.002083	16.9136	29.0737	-162.376	0.046367	0.881552	-0.304766	-0.306100	0.027646	16.9136	-0.305992	-5776.53	-4.785900E-6	NaN
203	1.000000	0.892925	7.36703e+06	-48789.1	955.819	-29761.4	0.000000	0.000000	6.893118	0.018270	NaN	0.000000	0.001657	0.001766	28.0778	0.019216	0.002078	9.246243	-33.1865	13.4821	0.066098	0.891587	-0.294727	-0.296065	0.018270	9.246243	-0.296209	-4131.82	-4.421729E-6	NaN
203	1.000000	0.902881	7.36703e+06	-48789.1	955.818	-29761.4	0.000000	0.000000	6.903077	0.094342	NaN	0.000000	0.001744	0.001749	28.0779	0.047810	0.001993	23.9851	-104.551	-167.382	0.048082	0.901613	-0.284771	-0.286039	0.094342	23.9851	-0.287721	-3084.17	-3.058898E-5	NaN
203	1.000000	0.912940	7.36703e+06	-48789.1	955.819	-29761.4	0.000000	0.000000	6.913132	-0.011594	NaN	0.000000	0.001701	0.001726	28.0779	0.009648	0.001929	5.002083	-76.7214	9.875558	0.037777	0.911582	-0.274712	-0.276070	-0.011594	5.002083	-0.272973	-1847.95	6.273732E-6	NaN
203	1.000000	0.922917	7.36703e+06	-48789.1	955.819	-29761.4	0.000000	0.000000	6.923108	-0.003361	NaN	0.000000	0.001682	0.001778	28.0778	0.100326	0.002039	49.1967	165.579	-164.171	-0.048566	0.921635	-0.264736	-0.266017	-0.003361	49.1967	-0.264684	-1382.2	2.431820E-6	NaN
203	1.000000	0.932930	7.36703e+06	-48789.1	955.817	-29761.4	0.000000	0.000000	6.933124	0.063525	NaN	0.000000	0.001695	0.001796	28.0777	0.083505	0.002045	40.8363	179.238	14.2001	0.098116	0.931533	-0.254722	-0.256119	0.063525	40.8363	-0.255889	-1013.44	-6.268269E-5	NaN
203	1.000000	0.942932	7.36703e+06	-48789.1	955.818	-29761.4	0.000000	0.000000	6.943124	0.009252	NaN	0.000000	0.001689	0.001743	28.078	0.174028	0.002000	87.0037	-129.49	-165.369	-0.027207	0.941650	-0.244720	-0.246002	0.009252	87.0037	-0.244800	-682.879	-1.354785E-5	NaN
203	1.000000	0.952927	7.36703e+06	-48789.1	955.819	-29761.4	0.000000	0.000000	6.953119	0.011873	NaN	0.000000	0.001723	0.001697	28.0778	0.035579	0.002211	16.0918	6.294110	14.5454	-0.011149	0.951533	-0.234725	-0.236120	0.011873	16.0918	-0.235279	-484.869	-2.448713E-5	NaN
203	1.000000	0.962958	7.36703e+06	-48789.1	955.818	-29761.4	0.000000	0.000000	6.963150	0.003007	NaN	0.000000	0.001728	0.001735	28.078	0.109558	0.002021	54.1988	152.102	-167.065	0.023837	0.961641	-0.224694	-0.226011	0.003007	54.1988	-0.224736	-330.473	-9.100014E-6	NaN
203	1.000000	0.972930	7.36703e+06	-48789.1	955.817	-29761.4	0.000000	0.000000	6.973122	-0.010508	NaN	0.000000	0.001714	0.001734	28.0778	0.038404	0.001978	19.414	154.6	13.5483	0.008187	0.971566	-0.214722	-0.216086	-0.010508	19.414	-0.214316	-225.167	4.666903E-5	NaN
203	1.000000	0.982940	7.36703e+06	-48789.1	955.818	-29761.4	0.000000	0.000000	6.983131	-0.033675	NaN	0.000000	0.001730	0.001748	28.078	0.053022	0.002034	26.0646	123.307	-167.113	0.015958	0.981664	-0.204712	-0.205989	-0.033675	26.0646	-0.203743	-151.72	0.000222	NaN
203	1.000000	0.992954	7.36703e+06	-48789.1	955.817	-29761.4	0.000000	0.000000	6.993145	-0.018194	NaN	0.000000	0.001726	0.001731	28.0777	0.040849	0.002112	19.3454	35.7567	11.9997	-0.068387	0.991560	-0.194698	-0.196092	-0.018194	19.3454	-0.193993	-104.835	0.000174	NaN
203	1.000000	1.002959	7.36703e+06	-48789.1	955.816	-29761.4	0.000000	0.000000	7.003150	-0.019551	NaN	0.000000	0.001717	0.001743	28.0777	0.044573	0.001886	23.6305	75.3528	-165.543	-0.024825	1.001622	-0.184693	-0.186030	-0.019551	23.6305	-0.184073	-71.5304	0.000273	NaN
203	1.000000	1.012952	7.36703e+06	-48789.1	955.817	-29761.4	0.000000	0.000000	7.013145	0.044674	NaN	0.000000	0.001733	0.001729	28.0765	0.021662	0.001936	11.1917	3.006454	11.6033	0.053685	1.011604	-0.174701	-0.176049	0.044674	11.1917	-0.177694	-55.7383	-0.000801	NaN
203	1.000000	1.022951	7.36703e+06	-48789.1	955.816	-29761.4	0.000000	0.000000	7.023144	0.029611	NaN	0.000000	0.001679	0.001748	28.0767	0.054432	0.002012	27.0533	133.78	-166.196	0.044266	1.021665	-0.164702	-0.165987	0.029611	27.0533	-0.165523	-34.3145	-0.000863	NaN
203	1.000000	1.032959	7.36703e+06	-48789.1	955.818	-29761.4	0.000000	0.000000	7.033149	-0.030572	NaN	0.000000	0.001698	0.001734	28.0765	0.112840	0.002108	53.5312	-162.635	11.3825	0.022517	1.031575	-0.154694	-0.156078	-0.030572	53.5312	-0.154265	-21.6445	0.001412	NaN
203	1.000000	1.042959	7.36703e+06	-48789.1	955.818	-29761.4	0.000000	0.000000	7.043151	0.013801	NaN	0.000000	0.001704	0.001763	28.0767	0.101880	0.001920	53.0637	-26.6011	-165.673	0.062800	1.041664	-0.144693	-0.145989	0.013801	53.0637	-0.144889	-14.5917	-0.000946	NaN
203	1.000000	1.052977	7.36703e+06	-48789.1	955.817	-29761.4	0.000000	0.000000	7.053172	0.091456	NaN	0.000000	0.001716	0.001722	28.0765	0.081100	0.002016	40.224	-141.466	11.2995	0.020068	1.051609	-0.134676	-0.136043	0.091456	40.224	-0.136381	-10.1063	-0.009049	NaN
203	1.000000	1.062974	7.36703e+06	-48789.1	955.816	-29761.4	0.000000	0.000000	7.063166	0.007826	NaN	0.000000	0.001710	0.001731	28.0769	0.087345	0.001902	45.9193	7.002856	-165.849	0.132148	1.061711	-0.124678	-0.125941	0.007826	45.9193	-0.124806	-6.027780	-0.001298	NaN
203	1.000000	1.072999	7.36703e+06	-48789.1	955.817	-29761.4	0.000000	0.000000	7.073191	0.002484	NaN	0.000000	0.001646	0.001726	28.0766	0.057381	0.002015	28.4759	30.4224	10.371	-0.029396	1.071611	-0.114653	-0.116041	0.002484	28.4759	-0.114719	-3.769675	-0.000659	NaN
203	1.000000	1.082984	7.36703e+06	-48789.1	955.818	-29761.4	0.000000	0.000000	7.083175	-0.026848	NaN	0.000000	0.001640	0.001733	28.0766	0.114394	0.002082	54.9389	-85.5748	-166.534	-0.069833	1.081697	-0.104668	-0.105955	-0.026848	54.9389	-0.104302	-2.270202	0.011826	NaN
203	1.000000	1.092995	7.36703e+06	-48789.1	955.817	-29761.4	0.000000	0.000000	7.093189	0.028765	NaN	0.000000	0.001676	0.001735	28.0766	0.123981	0.001944	63.7825	10.0943	14.9855	0.008874	1.091667	-0.094657	-0.095986	0.028765	63.7825	-0.094995	-1.410277	-0.020396	NaN
203	1.000000	1.103006	7.36703e+06	-48789.1	955.817	-29761.4	0.000000	0.000000	7.103198	0.000975	NaN	0.000000	0.001688	0.001724	28.0768	0.043181	0.001950	22.1481	151.857	-167.271	0.051432	1.101682	-0.084646	-0.085970	0.000975	22.1481	-0.084679	-0.807074	-0.001208	NaN
203	1.000000	1.113009	7.36703e+06	-48789.1	955.817	-29761.4	0.000000	0.000000	7.113200	-0.024128	NaN	0.000000	0.001696	0.001691	28.0767	0.135783	0.001924	70.5862	116.023	14.4288	0.037063	1.111642	-0.074643	-0.076010	-0.024128	70.5862	-0.074387	-0.445277	0.054187	NaN
203	1.000000	1.123016	7.36703e+06	-48789.1	955.817	-29761.4	0.000000	0.000000	7.123209	0.019363	NaN	0.000000	0.001668	0.001702	28.0765	0.085650	0.002089	41.0043	-105.027	-165.177	0.118445	1.121726	-0.064637	-0.065926	0.019363	41.0043	-0.064991	-0.249069	-0.077744	NaN
203	1.000000	1.133010	7.36703e+06	-48789.1	955.817	-29761.4	0.000000	0.000000	7.133202	0.005485	NaN	0.000000	0.001672	0.001658	28.077	0.044192	0.002016	21.9239	-84.9212	12.7977	0.003613	1.131652	-0.054643	-0.056000	0.005485	21.9239	-0.054830	-0.127298	-0.043091	NaN
203	1.000000	1.142978	7.36703e+06	-48789.1	955.817	-29761.4	0.000000	0.000000	7.143172	0.029188	NaN	0.000000	0.001688	0.001674	28.0766	0.120438	0.001971	61.0951	56.5911	-162.86	0.047000	1.141730	-0.044674	-0.045923	0.029188	61.0951	-0.045032	-0.064413	-0.453142	NaN
203	1.000000	1.153023	7.36703e+06	-48789.1	955.817	-29761.4	0.000000	0.000000	7.153216	0.006084	NaN	0.000000	0.001742	0.001717	28.0781	0.147469	0.001831	80.5489	-13.5769	11.1809	-0.015506	1.151698	-0.034629	-0.035954	0.006084	80.5489	-0.034685	-0.031350	-0.194081	NaN
203	1.000000	1.163000	7.36703e+06	-48789.1	955.817	-29761.4	0.000000	0.000000	7.163190	-0.043209	NaN	0.000000	0.001702	0.001732	28.0779	0.071035	0.001989	35.7223	97.7992	-169.171	0.018708	1.161702	-0.024653	-0.025950	-0.043209	35.7223	-0.023745	-0.015652	2.760619	NaN
203	1.000000	1.173028	7.36703e+06	-48789.1	955.817	-29761.4	0.000000	0.000000	7.173220	0.007402	NaN	0.000000	0.001699	0.001701	28.0782	0.144852	0.002005	72.2465	87.7376	13.39	0.013191	1.171683	-0.014624	-0.015969	0.007402	72.2465	-0.014701	-0.009097	-0.813687	NaN
203	1.000000	1.183036	7.36703e+06	-48789.1	955.818	-29761.4	0.000000	0.000000	7.183239	0.253051	NaN	0.000000	0.001686	0.001722	28.0776	0.502609	0.001903	264.071	28.0512	-169.206	0.187605	1.181688	-0.004616	-0.005964	0.253051	264.071	-0.005335	-0.003626	-69.7887	NaN
203	1.000000	1.193011	7.36703e+06	-48789.1	955.817	-29761.4	0.000000	0.000000	7.193298	2.306723	NaN	0.000000	0.001665	0.001765	28.0779	2.931553	0.001874	1564.02	21.1825	12.2966	1.659257	1.191702	0.005359	0.004050	2.306723	1564.02	0.004252	0.003461	666.437	24288.3
203	2.000000	1.199620	7.36703e+06	-48789.1	955.817	-29761.4	0.000000	0.000000	7.200237	10.3368	NaN	0.000000	0.001694	0.001738	28.0779	9.981845	0.001520	6565.79	8.781803	-176.995	9.467935	1.199346	0.011968	0.011694	10.3368	6565.79	0.010787	0.010069	1026.58	59781
203	2.000000	1.202138	7.36703e+06	-48789.1	955.817	-29761.4	0.000000	0.000000	7.203003	16.3698	NaN	0.000000	0.001708	0.001742	28.0781	12.6706	0.001572	8057.9	7.222809	4.280798	15.406	1.201777	0.014486	0.014125	16.3698	8057.9	0.012963	0.012664	1292.67	65421.1
203	2.000000	1.204576	7.36703e+06	-48789.1	955.817	-29761.4	0.000000	0.000000	7.205729	23.3668	NaN	0.000000	0.001692	0.001737	28.0777	15.1954	0.001604	9475.31	5.548529	-175.806	22.5066	1.204227	0.016924	0.016574	23.3668	9475.31	0.015074	0.015385	1518.85	69794.9
203	2.000000	1.207047	7.36703e+06	-48789.1	955.819	-29761.4	0.000000	0.000000	7.208334	26.6367	NaN	0.000000	0.001654	0.001772	28.0778	18.7101	0.001881	9947.74	8.504520	0.534078	25.9269	1.206731	0.019395	0.019079	26.6367	9947.74	0.017387	0.018601	1432	66639.1
203	2.000000	1.209523	7.36703e+06	-48789.1	955.818	-29761.4	0.000000	0.000000	7.211096	33.5787	NaN	0.000000	0.001681	0.001732	28.0779	20.9622	0.001798	11660.5	5.719794	-178.683	32.6215	1.209314	0.021871	0.021662	33.5787	11660.5	0.019711	0.022091	1520.02	71677.6
203	2.000000	1.212028	7.36703e+06	-48789.1	955.818	-29761.4	0.000000	0.000000	7.213895	40.7237	NaN	0.000000	0.001663	0.001741	28.078	22.152	0.001790	12374.7	2.157141	5.827942	38.0814	1.211703	0.024376	0.024051	40.7237	12374.7	0.021908	0.025630	1588.93	70621.3
203	2.000000	1.214523	7.36703e+06	-48789.1	955.818	-29761.4	0.000000	0.000000	7.216713	48.5792	NaN	0.000000	0.001678	0.001721	28.0779	24.6072	0.001903	12929.8	5.896400	-177.553	47.7385	1.214212	0.026871	0.026560	48.5792	12929.8	0.024053	0.029316	1657.1	68994.3
203	2.000000	1.217041	7.36703e+06	-48789.1	955.819	-29761.4	0.000000	0.000000	7.219375	52.1119	NaN	0.000000	0.001698	0.001815	28.078	26.4161	0.001787	14780	4.534611	1.912382	51.7652	1.216681	0.029388	0.029029	52.1119	14780	0.026744	0.034265	1520.85	72949.4
203	2.000000	1.219525	7.36703e+06	-48789.1	955.819	-29761.4	0.000000	0.000000	7.222286	62.4768	NaN	0.000000	0.001715	0.001738	28.0774	29.4158	0.001849	15908.8	4.674670	-179.439	62.2966	1.219226	0.031873	0.031574	62.4768	15908.8	0.028927	0.038550	1620.68	74028.7
203	2.000000	1.222067	7.36703e+06	-48789.1	955.818	-29761.4	0.000000	0.000000	7.225230	72.253	NaN	0.000000	0.001695	0.001761	28.0767	31.5041	0.001678	18774.9	6.158833	-2.281643	71.5695	1.221693	0.034415	0.034041	72.253	18774.9	0.031529	0.043972	1643.16	81801.7
203	2.000000	1.224553	7.36703e+06	-48789.1	955.818	-29761.4	0.000000	0.000000	7.228032	79.9451	NaN	0.000000	0.001654	0.001704	28.0768	33.3908	0.001827	18279	4.691607	179.901	81.4227	1.224225	0.036901	0.036572	79.9451	18279	0.033620	0.048582	1645.56	75768
203	2.000000	1.226984	7.36703e+06	-48789.1	955.818	-29761.4	0.000000	0.000000	7.230858	89.5515	NaN	0.000000	0.001680	0.001690	28.0771	36.3644	0.001798	20220.4	6.676413	-3.877827	87.4673	1.226696	0.039332	0.039044	89.5515	20220.4	0.036011	0.054125	1654.53	79407.8
203	2.000000	1.229495	7.36703e+06	-48789.1	955.817	-29761.4	0.000000	0.000000	7.233724	98.1903	NaN	0.000000	0.001680	0.001688	28.0771	39.835	0.001885	21137.6	6.956738	175.198	96.703	1.229168	0.041842	0.041516	98.1903	21137.6	0.038358	0.059855	1640.47	78936.9
203	2.000000	1.231944	7.36703e+06	-48789.1	955.819	-29761.4	0.000000	0.000000	7.236656	109.923	NaN	0.000000	0.001660	0.001723	28.0768	40.559	0.001772	22894.3	4.796892	-2.723282	105.558	1.231580	0.044292	0.043928	109.923	22894.3	0.040691	0.065826	1669.91	81526.9
203	2.000000	1.234510	7.36703e+06	-48789.1	955.818	-29761.4	0.000000	0.000000	7.239588	118.846	NaN	0.000000	0.001654	0.001735	28.0767	42.4567	0.001880	22577.6	5.085270	177.506	116.853	1.234081	0.046858	0.046429	118.846	22577.6	0.042910	0.071764	1656.07	77001.4
203	2.000000	1.236970	7.36703e+06	-48789.1	955.818	-29761.4	0.000000	0.000000	7.242396	127.287	NaN	0.000000	0.001674	0.001702	28.0769	44.7708	0.001887	23731.1	3.042970	-0.857486	123.475	1.236585	0.049318	0.048933	127.287	23731.1	0.045295	0.078428	1622.97	77420.3
203	2.000000	1.239474	7.36703e+06	-48789.1	955.818	-29761.4	0.000000	0.000000	7.245444	140.527	NaN	0.000000	0.001637	0.001724	28.0769	47.7481	0.001886	25318.1	7.101066	174.057	138.727	1.239244	0.051822	0.051592	140.527	25318.1	0.047659	0.085315	1647.16	79194
203	2.000000	1.241972	7.36703e+06	-48789.1	955.817	-29761.4	0.000000	0.000000	7.248308	149.427	NaN	0.000000	0.001605	0.001717	28.0768	48.5809	0.001725	28159.7	4.338281	-4.235714	146.071	1.241704	0.054320	0.054052	149.427	28159.7	0.050340	0.093468	1598.69	84153.1
203	2.000000	1.244483	7.36703e+06	-48789.1	955.819	-29761.4	0.000000	0.000000	7.251182	158.261	NaN	0.000000	0.001622	0.001714	28.0768	51.0617	0.001752	29139.9	6.891655	172.89	157.254	1.244146	0.056831	0.056493	158.261	29139.9	0.052757	0.101126	1564.98	83720
203	2.000000	1.247054	7.36703e+06	-48789.1	955.819	-29761.4	0.000000	0.000000	7.254043	165.3	NaN	0.000000	0.001635	0.001751	28.077	53.5195	0.001833	29193.6	7.414384	-7.390320	167.388	1.246730	0.059402	0.059078	165.3	29193.6	0.055155	0.109011	1516.36	80783.9
203	2.000000	1.249489	7.36703e+06	-48789.1	955.819	-29761.4	0.000000	0.000000	7.257069	179.688	NaN	0.000000	0.001666	0.001719	28.0767	55.8063	0.001922	29029.1	5.824579	174.602	180.703	1.249133	0.061836	0.061480	179.688	29029.1	0.057194	0.115938	1549.86	77892
203	2.000000	1.252071	7.36703e+06	-48789.1	955.818	-29761.4	0.000000	0.000000	7.260043	189.219	NaN	0.000000	0.001637	0.001768	28.0771	57.1091	0.001881	30362.5	6.015678	-5.558061	191.097	1.251622	0.064419	0.063970	189.219	30362.5	0.059745	0.124894	1515.04	78494.6
203	2.000000	1.254394	7.36703e+06	-48789.1	955.819	-29761.4	0.000000	0.000000	7.262795	199.66	NaN	0.000000	0.001661	0.001715	28.078	58.388	0.001785	32703.8	5.107770	173.789	195.709	1.254148	0.066741	0.066496	199.66	32703.8	0.062163	0.133677	1493.6	81722.6
203	2.000000	1.256969	7.36703e+06	-48789.1	955.818	-29761.4	0.000000	0.000000	7.265795	209.992	NaN	0.000000	0.001670	0.001729	28.0786	60.5347	0.001730	35000.3	2.988298	-4.778767	206.994	1.256618	0.069317	0.068966	209.992	35000.3	0.064817	0.143645	1461.88	84372.3
203	2.000000	1.259545	7.36703e+06	-48789.1	955.819	-29761.4	0.000000	0.000000	7.268563	214.68	NaN	0.000000	0.001656	0.001676	28.0781	63.8007	0.001815	35153.4	1.884820	176.742	219.06	1.259178	0.071892	0.071526	214.68	35153.4	0.067312	0.153326	1400.15	82022.6
203	2.000000	1.261933	7.36704e+06	-48789.1	955.819	-29761.4	0.000000	0.000000	7.271655	231.787	NaN	0.000000	0.001657	0.001680	28.0782	65.2643	0.001839	35485.5	5.299671	-5.819949	229.028	1.261569	0.074281	0.073916	231.787	35485.5	0.069382	0.161583	1434.48	80654.1
203	2.000000	1.264474	7.36704e+06	-48789.1	955.818	-29761.4	0.000000	0.000000	7.274639	242.55	NaN	0.000000	0.001662	0.001720	28.0781	67.2306	0.001729	38894.6	3.749300	174.233	242.685	1.264130	0.076822	0.076478	242.55	38894.6	0.072145	0.172921	1402.67	85455.2
203	2.000000	1.266874	7.36704e+06	-48789.1	955.818	-29761.4	0.000000	0.000000	7.277474	253.116	NaN	0.000000	0.001632	0.001731	28.0786	70.9902	0.001843	38514.5	3.966013	-6.314416	247.355	1.266595	0.079222	0.078943	253.116	38514.5	0.074293	0.181989	1390.83	82485
203	2.000000	1.269389	7.36704e+06	-48789.1	955.82	-29761.4	0.000000	0.000000	7.280623	268.56	NaN	0.000000	0.001655	0.001713	28.0781	72.3477	0.001736	41666.5	1.188871	175.913	263.213	1.269095	0.081736	0.081443	268.56	41666.5	0.076902	0.193294	1389.39	86586.7
203	2.000000	1.271885	7.36704e+06	-48789.1	955.819	-29761.4	0.000000	0.000000	7.283694	282.559	NaN	0.000000	0.001717	0.001739	28.0781	74.904	0.001790	41840.9	7.757722	-10.7788	276.199	1.271535	0.084232	0.083883	282.559	41840.9	0.079167	0.203366	1389.41	84768.4
203	2.000000	1.274414	7.36704e+06	-48789.1	955.818	-29761.4	0.000000	0.000000	7.286870	298.271	NaN	0.000000	0.001672	0.001736	28.0777	76.4051	0.001833	41679.6	6.885505	170.624	295.816	1.274082	0.086762	0.086430	298.271	41679.6	0.081395	0.213504	1397.03	82412.6
203	2.000000	1.276915	7.36704e+06	-48789.1	955.819	-29761.4	0.000000	0.000000	7.289948	312.294	NaN	0.000000	0.001699	0.001694	28.0782	77.7851	0.001812	42929.4	4.222556	-7.728858	308.775	1.276695	0.089263	0.089043	312.294	42929.4	0.083807	0.224745	1389.55	82733.9
203	2.000000	1.279348	7.36704e+06	-48789.1	955.819	-29761.4	0.000000	0.000000	7.293144	330.857	NaN	0.000000	0.001679	0.001699	28.078	80.8737	0.001914	42262.5	4.499493	172.586	326.172	1.279055	0.091696	0.091403	330.857	42262.5	0.085824	0.234350	1411.8	79761.9
203	2.000000	1.281897	7.36704e+06	-48789.1	955.819	-29761.4	0.000000	0.000000	7.296682	354.901	NaN	0.000000	0.001720	0.001717	28.0781	82.4329	0.001792	45992.2	7.453502	-10.698	351.136	1.281510	0.094245	0.093858	354.901	45992.2	0.088458	0.247172	1435.85	84519.7
203	2.000000	1.284469	7.36704e+06	-48789.1	955.819	-29761.4	0.000000	0.000000	7.299729	366.477	NaN	0.000000	0.001725	0.001726	28.0778	84.286	0.001866	45175.1	4.668794	172.14	367.627	1.284140	0.096817	0.096488	366.477	45175.1	0.090733	0.258506	1417.68	81177.8
203	2.000000	1.287012	7.36704e+06	-48789.1	955.819	-29761.4	0.000000	0.000000	7.302765	378.454	NaN	0.000000	0.001703	0.001733	28.0782	87.7055	0.001808	48518.1	5.613135	-9.363671	380.53	1.286597	0.099360	0.098945	378.454	48518.1	0.093510	0.272662	1388	84891.7
203	2.000000	1.289416	7.36704e+06	-48789.1	955.819	-29761.4	0.000000	0.000000	7.305878	395.696	NaN	0.000000	0.001709	0.001711	28.0769	88.1649	0.001737	50767	-0.922417	176.915	394.071	1.289198	0.101764	0.101545	395.696	50767	0.095918	0.285225	1387.31	86848.2
203	2.000000	1.291870	7.36704e+06	-48789.1	955.819	-29761.4	0.000000	0.000000	7.308982	411.525	NaN	0.000000	0.001683	0.001715	28.0767	90.9293	0.001718	52932.3	4.299345	-8.894513	403.853	1.291537	0.104218	0.103884	411.525	52932.3	0.098387	0.298375	1379.22	88534.5
203	2.000000	1.294442	7.36704e+06	-48789.1	955.819	-29761.4	0.000000	0.000000	7.312624	437.535	NaN	0.000000	0.001648	0.001729	28.0769	94.0151	0.001734	54219.4	6.904396	169.283	436.553	1.293924	0.106790	0.106272	437.535	54219.4	0.100738	0.311156	1406.16	88805.3
203	2.000000	1.296875	7.36704e+06	-48789.1	955.819	-29761.4	0.000000	0.000000	7.315728	453.85	NaN	0.000000	0.001674	0.001711	28.0769	96.7846	0.001774	54569.3	6.284314	-10.4942	449.606	1.296554	0.109223	0.108902	453.85	54569.3	0.102985	0.323611	1402.45	87641.4