File: remote_trans/data/nanoindenter/0828-1/data/Data_2025-08-06,11h17m57s/2025-07-22_16-23-58_1_729.txt
2025-07-22, 16:23:58, 1
Index	Phase	Displacement	Time	Pos X	Pos Y	Pos Z	Rot A	Rot B	Piezo Z	Force A	Force B	Gripper	Voltage A	Voltage B	Temperature	Amplitude force	Amplitude pos	Stiffness	Phase shift	Phase excitation	Force A raw	Displacement raw	HMax	HMax raw	Real Force	Real Stiffness	Contact Depth	Area	Hardness	Reduced Mod.
[#]	[#]	[um]	[s]	[um]	[um]	[um]	[m°]	[m°]	[um]	[uN]	[uN]	[V]	[V]	[V]	[°C]	[uN]	[um]	[N/m]	[°]	[°]	[uN]	[um]	[um]	[um]	[uN]	[N/m]	[um]	[um^2]	[MPa]	[MPa]
729	1.000000	0.002320	7.37219e+06	-40639.1	1005.82	-29789.2	0.000000	0.000000	6.002780	4.374691E-5	NaN	0.000000	0.001661	0.001725	28.0834	0.033475	0.000963	34.7773	144.837	-173.025	-0.025024	0.001112	-1.115614	-1.116822	4.374691E-5	34.7773	-1.115615	-8.121563E+14	-5.386514E-20	NaN
729	1.000000	0.012418	7.37219e+06	-40639.1	1005.82	-29789.2	0.000000	0.000000	6.012877	-0.004958	NaN	0.000000	0.001682	0.001736	28.083	0.064831	0.001273	50.9275	18.6888	19.1122	0.031255	0.010902	-1.105517	-1.107033	-0.004958	50.9275	-1.105444	-5.931114E+14	8.359682E-18	NaN
729	1.000000	0.022298	7.37219e+06	-40639.1	1005.82	-29789.2	0.000000	0.000000	6.022760	0.043941	NaN	0.000000	0.001685	0.001710	28.0817	0.063577	0.001735	36.654	-68.6598	-165.18	0.052836	0.020973	-1.095636	-1.096961	0.043941	36.654	-1.096535	-4.503538E+14	-9.756947E-17	NaN
729	1.000000	0.032309	7.37219e+06	-40639.1	1005.82	-29789.2	0.000000	0.000000	6.032768	-0.019791	NaN	0.000000	0.001687	0.001694	28.0818	0.138003	0.001933	71.4046	42.6289	16.6212	-0.038760	0.030906	-1.085625	-1.087028	-0.019791	71.4046	-1.085417	-3.193531E+14	6.197224E-17	NaN
729	1.000000	0.042315	7.37219e+06	-40639.1	1005.82	-29789.2	0.000000	0.000000	6.042773	-0.052781	NaN	0.000000	0.001785	0.001739	28.0819	0.043924	0.001999	21.9733	177.814	-165.477	0.011436	0.040996	-1.075619	-1.076938	-0.052781	21.9733	-1.073817	-2.230865E+14	2.365960E-16	NaN
729	1.000000	0.052310	7.37219e+06	-40639.1	1005.82	-29789.2	0.000000	0.000000	6.052771	0.030472	NaN	0.000000	0.001701	0.001731	28.0817	0.083592	0.001852	45.1347	-41.5154	17.4054	-0.039257	0.050930	-1.065624	-1.067004	0.030472	45.1347	-1.066130	-1.758714E+14	-1.732632E-16	NaN
729	1.000000	0.062305	7.37219e+06	-40639.1	1005.82	-29789.2	0.000000	0.000000	6.062767	0.055822	NaN	0.000000	0.001702	0.001743	28.0819	0.063532	0.001916	33.1565	-178.876	-165.289	0.115914	0.060987	-1.055629	-1.056947	0.055822	33.1565	-1.056892	-1.321451E+14	-4.224300E-16	NaN
729	1.000000	0.072301	7.37219e+06	-40639.1	1005.82	-29789.2	0.000000	0.000000	6.072759	-0.035164	NaN	0.000000	0.001698	0.001742	28.0818	0.033970	0.002060	16.487	-121.612	13.1201	-0.038251	0.070935	-1.045633	-1.047000	-0.035164	16.487	-1.044033	-8.875653E+13	3.961812E-16	NaN
729	1.000000	0.082311	7.37219e+06	-40639.1	1005.82	-29789.2	0.000000	0.000000	6.082772	0.040268	NaN	0.000000	0.001681	0.001757	28.0821	0.016394	0.002000	8.195617	88.9254	-164.916	0.034042	0.080983	-1.035623	-1.036951	0.040268	8.195617	-1.039308	-7.667759E+13	-5.251612E-16	NaN
729	1.000000	0.092301	7.37219e+06	-40639.1	1005.82	-29789.2	0.000000	0.000000	6.092760	-0.009375	NaN	0.000000	0.001711	0.001807	28.082	0.094480	0.002000	47.238	-131.472	14.8663	-0.001141	0.090960	-1.025633	-1.026974	-0.009375	47.238	-1.025484	-4.997331E+13	1.875936E-16	NaN
729	1.000000	0.102315	7.37219e+06	-40639.1	1005.82	-29789.2	0.000000	0.000000	6.102776	0.040609	NaN	0.000000	0.001715	0.001779	28.0825	0.146589	0.002058	71.2405	-148.624	-167.213	0.078514	0.101048	-1.015619	-1.016886	0.040609	71.2405	-1.016047	-3.730424E+13	-1.088581E-15	NaN
729	1.000000	0.112340	7.37219e+06	-40639.1	1005.82	-29789.2	0.000000	0.000000	6.112801	0.027995	NaN	0.000000	0.001678	0.001759	28.0825	0.062786	0.002078	30.2209	-15.3794	15.4161	-0.020434	0.110958	-1.005594	-1.006976	0.027995	30.2209	-1.006288	-2.756923E+13	-1.015441E-15	NaN
729	1.000000	0.122328	7.37219e+06	-40639.1	1005.82	-29789.2	0.000000	0.000000	6.122787	-0.012421	NaN	0.000000	0.001693	0.001770	28.0824	0.099987	0.001959	51.0313	-34.1632	-163.068	-0.044818	0.121016	-0.995606	-0.996918	-0.012421	51.0313	-0.995424	-1.968574E+13	6.309444E-16	NaN
729	1.000000	0.132298	7.37219e+06	-40639.1	1005.82	-29789.2	0.000000	0.000000	6.132758	0.003019	NaN	0.000000	0.001688	0.001768	28.0823	0.069752	0.002037	34.2472	-170.066	14.8637	0.043186	0.130911	-0.985636	-0.987023	0.003019	34.2472	-0.985703	-1.456229E+13	-2.073216E-16	NaN
729	1.000000	0.142331	7.37219e+06	-40639.1	1005.82	-29789.2	0.000000	0.000000	6.142791	0.010472	NaN	0.000000	0.001681	0.001747	28.0824	0.030858	0.002102	14.6833	100.51	-162.254	0.076977	0.140960	-0.975603	-0.976974	0.010472	14.6833	-0.976138	-1.082382E+13	-9.674764E-16	NaN
729	1.000000	0.152332	7.37219e+06	-40639.1	1005.82	-29789.2	0.000000	0.000000	6.152792	0.003023	NaN	0.000000	0.001706	0.001783	28.0825	0.076022	0.002000	38.0066	-49.0457	14.2786	0.010498	0.150940	-0.965602	-0.966994	0.003023	38.0066	-0.965661	-7.819635E+12	-3.865292E-16	NaN
729	1.000000	0.162338	7.37219e+06	-40639.1	1005.82	-29789.2	0.000000	0.000000	6.162798	0.013917	NaN	0.000000	0.001699	0.001715	28.0837	0.087974	0.002012	43.7344	-73.0854	-166.156	0.040756	0.161005	-0.955596	-0.956929	0.013917	43.7344	-0.955835	-5.763820E+12	-2.414471E-15	NaN
729	1.000000	0.172339	7.37219e+06	-40639.1	1005.82	-29789.2	0.000000	0.000000	6.172801	0.051826	NaN	0.000000	0.001685	0.001768	28.0836	0.088913	0.001920	46.3132	-38.7091	17.2975	0.076078	0.170921	-0.945595	-0.947014	0.051826	46.3132	-0.946434	-4.304593E+12	-1.203959E-14	NaN
729	1.000000	0.182350	7.37219e+06	-40639.1	1005.82	-29789.2	0.000000	0.000000	6.182812	0.046327	NaN	0.000000	0.001720	0.001732	28.0837	0.080656	0.002073	38.9127	-132.625	-165.113	-0.008186	0.181041	-0.935584	-0.936893	0.046327	38.9127	-0.936477	-3.159400E+12	-1.466338E-14	NaN
729	1.000000	0.192350	7.37219e+06	-40639.1	1005.82	-29789.2	0.000000	0.000000	6.192808	-0.025916	NaN	0.000000	0.001731	0.001720	28.0837	0.024376	0.001963	12.4158	-166.636	11.7582	0.018354	0.190980	-0.925585	-0.926954	-0.025916	12.4158	-0.924019	-2.145185E+12	1.208112E-14	NaN
729	1.000000	0.202353	7.37219e+06	-40639.1	1005.82	-29789.2	0.000000	0.000000	6.202811	-0.033282	NaN	0.000000	0.001721	0.001755	28.0833	0.044920	0.001931	23.2593	-44.1654	-163.316	-0.038410	0.201035	-0.915582	-0.916899	-0.033282	23.2593	-0.914508	-1.596074E+12	2.085253E-14	NaN
729	1.000000	0.212371	7.37219e+06	-40639.1	1005.82	-29789.2	0.000000	0.000000	6.212829	-0.034889	NaN	0.000000	0.001760	0.001794	28.0837	0.041742	0.002031	20.5564	-2.318484	15.1442	0.003997	0.211007	-0.905563	-0.906927	-0.034889	20.5564	-0.904290	-1.161537E+12	3.003717E-14	NaN
729	1.000000	0.222354	7.37219e+06	-40639.1	1005.82	-29789.2	0.000000	0.000000	6.222814	0.017658	NaN	0.000000	0.001778	0.001830	28.0839	0.056220	0.002144	26.217	-95.5233	-165.246	-0.036885	0.221066	-0.895580	-0.896868	0.017658	26.217	-0.896085	-8.998421E+11	-1.962391E-14	NaN
729	1.000000	0.232350	7.37219e+06	-40639.1	1005.82	-29789.2	0.000000	0.000000	6.232811	0.031586	NaN	0.000000	0.001751	0.001791	28.0836	0.063583	0.002052	30.9922	35.0156	15.3689	0.053080	0.230965	-0.885584	-0.886969	0.031586	30.9922	-0.886348	-6.645825E+11	-4.752707E-14	NaN
729	1.000000	0.242369	7.37219e+06	-40639.1	1005.82	-29789.2	0.000000	0.000000	6.242829	0.007950	NaN	0.000000	0.001733	0.001781	28.0834	0.037893	0.001981	19.1237	-72.7393	-163.806	-0.038841	0.241057	-0.875565	-0.876877	0.007950	19.1237	-0.875877	-4.796752E+11	-1.657315E-14	NaN
729	1.000000	0.252378	7.37219e+06	-40639.1	1005.82	-29789.2	0.000000	0.000000	6.252839	0.021193	NaN	0.000000	0.001739	0.001789	28.0836	0.098675	0.002076	47.5349	-47.9957	17.5355	-0.022575	0.251010	-0.865556	-0.866924	0.021193	47.5349	-0.865890	-3.514276E+11	-6.030480E-14	NaN
729	1.000000	0.262348	7.37219e+06	-40639.1	1005.82	-29789.2	0.000000	0.000000	6.262809	0.025265	NaN	0.000000	0.001689	0.001784	28.0835	0.020221	0.002054	9.845018	-34.2581	-165.281	-0.040922	0.261067	-0.855586	-0.856867	0.025265	9.845018	-0.857510	-2.706587E+11	-9.334478E-14	NaN
729	1.000000	0.272371	7.37219e+06	-40639.1	1005.82	-29789.2	0.000000	0.000000	6.272832	0.025994	NaN	0.000000	0.001712	0.001786	28.0832	0.044582	0.002130	20.9279	-24.2631	15.8009	-0.000825	0.270999	-0.845563	-0.846936	0.025994	20.9279	-0.846495	-1.919854E+11	-1.353959E-13	NaN
729	1.000000	0.282397	7.37219e+06	-40639.1	1005.82	-29789.2	0.000000	0.000000	6.282855	-0.035021	NaN	0.000000	0.001715	0.001747	28.0836	0.044601	0.002037	21.8981	-124.934	-161.815	-0.034449	0.281108	-0.835537	-0.836826	-0.035021	21.8981	-0.834338	-1.313939E+11	2.665344E-13	NaN
729	1.000000	0.292398	7.37219e+06	-40639.1	1005.82	-29789.2	0.000000	0.000000	6.292858	0.003298	NaN	0.000000	0.001705	0.001725	28.083	0.070911	0.001989	35.6505	83.3216	17.6371	-0.032604	0.291017	-0.825536	-0.826917	0.003298	35.6505	-0.825605	-1.000493E+11	-3.296675E-14	NaN
729	1.000000	0.302391	7.37219e+06	-40639.1	1005.82	-29789.2	0.000000	0.000000	6.302855	0.098237	NaN	0.000000	0.001678	0.001750	28.0827	0.125404	0.002000	62.7141	-105.667	-165.876	0.064137	0.301127	-0.815543	-0.816807	0.098237	62.7141	-0.816718	-7.580485E+10	-1.295919E-12	NaN
729	1.000000	0.312425	7.37219e+06	-40639.1	1005.82	-29789.2	0.000000	0.000000	6.312886	0.025119	NaN	0.000000	0.001672	0.001723	28.0824	0.102051	0.002161	47.2243	-129.336	15.9096	0.025750	0.310986	-0.805509	-0.806948	0.025119	47.2243	-0.805908	-5.408099E+10	-4.644687E-13	NaN
729	1.000000	0.322368	7.37219e+06	-40639.1	1005.82	-29789.2	0.000000	0.000000	6.322829	0.035224	NaN	0.000000	0.001633	0.001735	28.0824	0.041543	0.001952	21.2784	178.046	-163.795	-0.011633	0.321082	-0.795566	-0.796852	0.035224	21.2784	-0.796808	-4.069362E+10	-8.655930E-13	NaN
729	1.000000	0.332402	7.37219e+06	-40639.1	1005.82	-29789.2	0.000000	0.000000	6.332863	0.030708	NaN	0.000000	0.001699	0.001776	28.0825	0.036595	0.001945	18.8143	59.9325	17.226	-0.012514	0.331086	-0.785532	-0.786848	0.030708	18.8143	-0.786756	-2.971796E+10	-1.033328E-12	NaN
729	1.000000	0.342405	7.37219e+06	-40639.1	1005.82	-29789.2	0.000000	0.000000	6.342863	-0.051564	NaN	0.000000	0.001672	0.001774	28.0824	0.016284	0.002012	8.095557	149.184	-165.928	-0.084083	0.341082	-0.775529	-0.776853	-0.051564	8.095557	-0.770752	-1.801073E+10	2.862935E-12	NaN
729	1.000000	0.352414	7.37219e+06	-40639.1	1005.82	-29789.2	0.000000	0.000000	6.352871	-0.059270	NaN	0.000000	0.001631	0.001777	28.0823	0.033537	0.002035	16.4782	110.093	16.9134	-0.061013	0.351035	-0.765520	-0.766899	-0.059270	16.4782	-0.762822	-1.405063E+10	4.218296E-12	NaN
729	1.000000	0.362396	7.37219e+06	-40639.1	1005.82	-29789.2	0.000000	0.000000	6.362855	-0.001765	NaN	0.000000	0.001678	0.001730	28.0827	0.053465	0.001946	27.4723	36.2036	-162.896	0.036447	0.361141	-0.755538	-0.756793	-0.001765	27.4723	-0.755490	-1.116715E+10	1.580937E-13	NaN
729	1.000000	0.372409	7.37219e+06	-40639.1	1005.82	-29789.2	0.000000	0.000000	6.372869	-0.004517	NaN	0.000000	0.001689	0.001722	28.0827	0.020415	0.002025	10.0833	80.1601	14.2102	-0.051235	0.371091	-0.745525	-0.746843	-0.004517	10.0833	-0.745189	-8.085809E+9	5.585856E-13	NaN
729	1.000000	0.382443	7.37219e+06	-40639.1	1005.82	-29789.2	0.000000	0.000000	6.382902	-0.016239	NaN	0.000000	0.001684	0.001727	28.0825	0.044314	0.001920	23.0837	98.5431	-163.891	0.019558	0.381132	-0.735492	-0.736803	-0.016239	23.0837	-0.734964	-5.867476E+9	2.767690E-12	NaN
729	1.000000	0.392452	7.37219e+06	-40639.1	1005.82	-29789.2	0.000000	0.000000	6.392911	-0.024982	NaN	0.000000	0.001718	0.001734	28.0826	0.029040	0.002036	14.2615	45.9783	11.175	0.001515	0.391002	-0.725482	-0.726932	-0.024982	14.2615	-0.724168	-4.181336E+9	5.974692E-12	NaN
729	1.000000	0.402462	7.37219e+06	-40639.1	1005.82	-29789.2	0.000000	0.000000	6.402921	-0.007200	NaN	0.000000	0.001688	0.001726	28.0823	0.062231	0.002103	29.5904	85.9159	-166.228	0.110064	0.401115	-0.715472	-0.716819	-0.007200	29.5904	-0.715290	-3.163934E+9	2.275602E-12	NaN
729	1.000000	0.412447	7.37219e+06	-40639.1	1005.82	-29789.2	0.000000	0.000000	6.412909	0.054726	NaN	0.000000	0.001683	0.001767	28.0823	0.005778	0.002077	2.782019	34.6556	14.1377	0.040348	0.411055	-0.705487	-0.706880	0.054726	2.782019	-0.720241	-3.696231E+9	-1.480598E-11	NaN
729	1.000000	0.422456	7.37219e+06	-40639.1	1005.82	-29789.2	0.000000	0.000000	6.422915	-0.014021	NaN	0.000000	0.001691	0.001774	28.0823	0.092839	0.001937	47.9401	-38.9363	-168.246	-0.014430	0.421127	-0.695478	-0.696807	-0.014021	47.9401	-0.695259	-1.685686E+9	8.317968E-12	NaN
729	1.000000	0.432481	7.37219e+06	-40639.1	1005.82	-29789.2	0.000000	0.000000	6.432942	0.034851	NaN	0.000000	0.001673	0.001772	28.0837	0.075259	0.002006	37.5205	-20.1834	13.8796	0.033345	0.431080	-0.685453	-0.686854	0.034851	37.5205	-0.686149	-1.265575E+9	-2.753760E-11	NaN
729	1.000000	0.442442	7.37219e+06	-40639.1	1005.82	-29789.2	0.000000	0.000000	6.442902	0.026433	NaN	0.000000	0.001693	0.001753	28.0838	0.033892	0.001971	17.1981	140.075	-164.32	-0.026094	0.441101	-0.675493	-0.676833	0.026433	17.1981	-0.676645	-9.382512E+8	-2.817222E-11	NaN
729	1.000000	0.452485	7.37219e+06	-40639.1	1005.82	-29789.2	0.000000	0.000000	6.452943	-0.051392	NaN	0.000000	0.001663	0.001748	28.0835	0.076368	0.002032	37.585	161.888	19.5667	0.018050	0.451082	-0.665449	-0.666853	-0.051392	37.585	-0.664423	-6.383319E+8	8.051019E-11	NaN
729	1.000000	0.462448	7.37219e+06	-40639.1	1005.82	-29789.2	0.000000	0.000000	6.462908	-0.014960	NaN	0.000000	0.001684	0.001793	28.0836	0.137609	0.002041	67.4263	84.8177	-163.26	0.010508	0.461156	-0.655486	-0.656778	-0.014960	67.4263	-0.655319	-4.790070E+8	3.123042E-11	NaN
729	1.000000	0.472474	7.37219e+06	-40639.1	1005.82	-29789.2	0.000000	0.000000	6.472932	-0.030153	NaN	0.000000	0.001693	0.001750	28.0833	0.094922	0.001918	49.4963	143.066	17.6949	-0.021352	0.471050	-0.645460	-0.646884	-0.030153	49.4963	-0.645003	-3.458787E+8	8.717697E-11	NaN
729	1.000000	0.482469	7.37219e+06	-40639.1	1005.82	-29789.2	0.000000	0.000000	6.482930	0.034434	NaN	0.000000	0.001659	0.001740	28.0837	0.079175	0.002026	39.0849	-112.849	-164.871	0.029423	0.481143	-0.635465	-0.636792	0.034434	39.0849	-0.636126	-2.612910E+8	-1.317844E-10	NaN
729	1.000000	0.492477	7.37219e+06	-40639.1	1005.82	-29789.2	0.000000	0.000000	6.492938	0.040184	NaN	0.000000	0.001676	0.001727	28.0832	0.051682	0.002099	24.6242	17.63	16.8763	0.007962	0.491143	-0.625457	-0.626791	0.040184	24.6242	-0.626681	-1.938400E+8	-2.073025E-10	NaN
729	1.000000	0.502461	7.37219e+06	-40639.1	1005.82	-29789.2	0.000000	0.000000	6.502917	-0.086029	NaN	0.000000	0.001698	0.001755	28.0834	0.127110	0.001948	65.2385	141.883	-161.095	-0.077914	0.501194	-0.615473	-0.616740	-0.086029	65.2385	-0.614484	-1.317646E+8	6.528981E-10	NaN
729	1.000000	0.512515	7.37219e+06	-40639.1	1005.82	-29789.2	0.000000	0.000000	6.512975	0.001994	NaN	0.000000	0.001703	0.001767	28.0836	0.007775	0.002067	3.761853	143.743	14.4748	0.010671	0.511127	-0.605419	-0.606807	0.001994	3.761853	-0.605817	-1.001254E+8	-1.991068E-11	NaN
729	1.000000	0.522497	7.37219e+06	-40639.1	1005.82	-29789.2	0.000000	0.000000	6.522955	-0.053998	NaN	0.000000	0.001667	0.001749	28.0837	0.039495	0.001859	21.241	-163.015	-165.009	-0.089053	0.521154	-0.595437	-0.596781	-0.053998	21.241	-0.593530	-6.781494E+7	7.962517E-10	NaN
729	1.000000	0.532511	7.37219e+06	-40639.1	1005.82	-29789.2	0.000000	0.000000	6.532970	-0.016676	NaN	0.000000	0.001723	0.001706	28.0833	0.051577	0.001942	26.5584	94.1096	15.3537	-0.070508	0.531155	-0.585423	-0.586779	-0.016676	26.5584	-0.584952	-5.164845E+7	3.228829E-10	NaN
729	1.000000	0.542497	7.37219e+06	-40639.1	1005.82	-29789.2	0.000000	0.000000	6.542958	0.011508	NaN	0.000000	0.001657	0.001704	28.0835	0.052944	0.001903	27.8184	-136.706	-167.754	0.061125	0.541212	-0.575437	-0.576722	0.011508	27.8184	-0.575747	-3.854902E+7	-2.985196E-10	NaN
729	1.000000	0.552521	7.37219e+06	-40639.1	1005.82	-29789.2	0.000000	0.000000	6.552981	0.018786	NaN	0.000000	0.001639	0.001673	28.0838	0.062759	0.002002	31.3488	-115.375	15.7647	0.001501	0.551186	-0.565413	-0.566748	0.018786	31.3488	-0.565863	-2.814850E+7	-6.673974E-10	NaN
729	1.000000	0.562514	7.37219e+06	-40639.1	1005.82	-29789.2	0.000000	0.000000	6.562975	0.027023	NaN	0.000000	0.001662	0.001685	28.0838	0.091938	0.001894	48.5298	-165.494	-160.446	0.033167	0.561219	-0.555420	-0.556715	0.027023	48.5298	-0.555837	-2.045405E+7	-1.321178E-9	NaN
729	1.000000	0.572511	7.37219e+06	-40639.1	1005.82	-29789.2	0.000000	0.000000	6.572969	-0.044017	NaN	0.000000	0.001663	0.001699	28.0823	0.093698	0.002088	44.8722	-122.009	19.3377	-0.070670	0.571135	-0.545423	-0.546799	-0.044017	44.8722	-0.544687	-1.433323E+7	3.071001E-9	NaN
729	1.000000	0.582517	7.37219e+06	-40639.1	1005.82	-29789.2	0.000000	0.000000	6.582975	-0.027802	NaN	0.000000	0.001625	0.001677	28.0824	0.006027	0.002065	2.919080	102.551	-163.543	0.010026	0.581207	-0.535417	-0.536728	-0.027802	2.919080	-0.528274	-8.48411e+06	3.276911E-9	NaN
729	1.000000	0.592546	7.37219e+06	-40639.1	1005.82	-29789.2	0.000000	0.000000	6.593006	0.019822	NaN	0.000000	0.001666	0.001682	28.0825	0.032202	0.001913	16.8301	154.507	15.4593	0.006997	0.591151	-0.525388	-0.526783	0.019822	16.8301	-0.526271	-7.95756e+06	-2.490926E-9	NaN
729	1.000000	0.602513	7.37219e+06	-40639.1	1005.82	-29789.2	0.000000	0.000000	6.602972	-0.015172	NaN	0.000000	0.001678	0.001693	28.0823	0.042429	0.002086	20.3391	-101.431	-165.351	-0.028702	0.601192	-0.515421	-0.516742	-0.015172	20.3391	-0.514862	-5.52213e+06	2.747550E-9	NaN
729	1.000000	0.612507	7.37219e+06	-40639.1	1005.82	-29789.2	0.000000	0.000000	6.612967	0.023134	NaN	0.000000	0.001689	0.001740	28.0823	0.062448	0.001990	31.3817	144.041	13.0369	0.008901	0.611199	-0.505427	-0.506736	0.023134	31.3817	-0.505980	-4.15345e+06	-5.569852E-9	NaN
729	1.000000	0.622504	7.37219e+06	-40639.1	1005.82	-29789.2	0.000000	0.000000	6.622964	0.002148	NaN	0.000000	0.001676	0.001692	28.0824	0.064862	0.002107	30.7852	112.327	-164.795	-0.086444	0.621264	-0.495430	-0.496671	0.002148	30.7852	-0.495482	-2.96459e+06	-7.244445E-10	NaN
729	1.000000	0.632533	7.37219e+06	-40639.1	1005.82	-29789.2	0.000000	0.000000	6.632993	-0.002543	NaN	0.000000	0.001677	0.001696	28.0826	0.063959	0.002109	30.3264	-91.4907	17.2894	0.007211	0.631167	-0.485401	-0.486767	-0.002543	30.3264	-0.485338	-2.13905e+06	1.188886E-9	NaN
729	1.000000	0.642544	7.37219e+06	-40639.1	1005.82	-29789.2	0.000000	0.000000	6.643004	0.004254	NaN	0.000000	0.001658	0.001707	28.0822	0.025917	0.002005	12.9294	171.22	-165.726	0.030847	0.641268	-0.475390	-0.476666	0.004254	12.9294	-0.475637	-1.56465e+06	-2.718698E-9	NaN
729	1.000000	0.652554	7.37219e+06	-40639.1	1005.82	-29789.2	0.000000	0.000000	6.653015	0.028638	NaN	0.000000	0.001758	0.001645	28.0825	0.052026	0.001897	27.4264	95.3937	18.3837	0.115218	0.651172	-0.465380	-0.466762	0.028638	27.4264	-0.466164	-1.15234e+06	-2.485244E-8	NaN
729	1.000000	0.662558	7.37219e+06	-40639.1	1005.82	-29789.2	0.000000	0.000000	6.663018	-0.002672	NaN	0.000000	0.001770	0.001697	28.0825	0.094553	0.001899	49.7965	65.043	-166.84	0.043627	0.661272	-0.455376	-0.456663	-0.002672	49.7965	-0.455336	-811781	3.291942E-9	NaN
729	1.000000	0.672537	7.37219e+06	-40639.1	1005.82	-29789.2	0.000000	0.000000	6.672998	0.028391	NaN	0.000000	0.001693	0.001719	28.0829	0.053341	0.001961	27.1964	128.874	17.4488	0.048801	0.671180	-0.445397	-0.446754	0.028391	27.1964	-0.446180	-603294	-4.706060E-8	NaN
729	1.000000	0.682549	7.37219e+06	-40639.1	1005.82	-29789.2	0.000000	0.000000	6.683009	0.014515	NaN	0.000000	0.001643	0.001709	28.0826	0.054912	0.001959	28.0352	7.767297	-163.261	0.045716	0.681195	-0.435386	-0.436740	0.014515	28.0352	-0.435774	-430218	-3.373903E-8	NaN
729	1.000000	0.692561	7.37219e+06	-40639.1	1005.82	-29789.2	0.000000	0.000000	6.693018	-0.056486	NaN	0.000000	0.001657	0.001672	28.0826	0.038662	0.002010	19.239	-116.547	16.1784	0.069907	0.691193	-0.425373	-0.426741	-0.056486	19.239	-0.423171	-285349	1.979556E-7	NaN
729	1.000000	0.702587	7.37219e+06	-40639.1	1005.82	-29789.2	0.000000	0.000000	6.703044	-0.064792	NaN	0.000000	0.001694	0.001732	28.0834	0.052281	0.001950	26.8156	-129.947	-164.936	0.013126	0.701291	-0.415347	-0.416643	-0.064792	26.8156	-0.413535	-208277	3.110856E-7	NaN
729	1.000000	0.712578	7.37219e+06	-40639.1	1005.82	-29789.2	0.000000	0.000000	6.713037	-0.022770	NaN	0.000000	0.001657	0.001681	28.0838	0.106064	0.001940	54.6694	-142.807	14.5177	0.000953	0.711208	-0.405356	-0.406726	-0.022770	54.6694	-0.405044	-157715	1.443773E-7	NaN
729	1.000000	0.722572	7.37219e+06	-40639.1	1005.82	-29789.2	0.000000	0.000000	6.723032	0.003960	NaN	0.000000	0.001679	0.001690	28.0835	0.067842	0.002058	32.9579	-29.6589	-166.366	-0.041612	0.721267	-0.395362	-0.396667	0.003960	32.9579	-0.395453	-115106	-3.439924E-8	NaN
729	1.000000	0.732576	7.37219e+06	-40639.1	1005.82	-29789.2	0.000000	0.000000	6.733035	-0.016058	NaN	0.000000	0.001601	0.001685	28.0835	0.072753	0.002102	34.614	121.739	16.3061	-0.027360	0.731190	-0.385358	-0.386744	-0.016058	34.614	-0.385011	-81608.9	1.967653E-7	NaN
729	1.000000	0.742605	7.37219e+06	-40639.1	1005.82	-29789.2	0.000000	0.000000	6.743062	-0.063285	NaN	0.000000	0.001648	0.001698	28.0836	0.110487	0.001919	57.5869	-63.9463	-166.56	-0.033470	0.741193	-0.375329	-0.376741	-0.063285	57.5869	-0.374505	-57669.7	1.097372E-6	NaN
729	1.000000	0.752593	7.37219e+06	-40639.1	1005.82	-29789.2	0.000000	0.000000	6.753051	-0.032878	NaN	0.000000	0.001655	0.001711	28.0835	0.005540	0.002077	2.667864	-98.2618	13.2093	0.044120	0.751173	-0.365341	-0.366761	-0.032878	2.667864	-0.356099	-31290	1.050750E-6	NaN
729	1.000000	0.762584	7.37219e+06	-40639.1	1005.82	-29789.2	0.000000	0.000000	6.763044	0.007675	NaN	0.000000	0.001660	0.001715	28.0836	0.049641	0.001924	25.7951	13.0582	-164.548	-0.029547	0.761316	-0.355350	-0.356618	0.007675	25.7951	-0.355574	-30747	-2.496174E-7	NaN
729	1.000000	0.772592	7.37219e+06	-40639.1	1005.82	-29789.2	0.000000	0.000000	6.773053	0.024585	NaN	0.000000	0.001663	0.001697	28.0833	0.038096	0.002008	18.9696	12.9157	15.8702	0.017242	0.771272	-0.345342	-0.346663	0.024585	18.9696	-0.346314	-22566.3	-1.089453E-6	NaN
729	1.000000	0.782594	7.37219e+06	-40639.1	1005.82	-29789.2	0.000000	0.000000	6.783056	0.053919	NaN	0.000000	0.001652	0.001730	28.0836	0.092766	0.002114	43.8905	-112.424	-165.159	0.020614	0.781269	-0.335340	-0.336665	0.053919	43.8905	-0.336261	-16106.9	-3.347583E-6	NaN
729	1.000000	0.792611	7.37219e+06	-40639.1	1005.82	-29789.2	0.000000	0.000000	6.793072	0.038124	NaN	0.000000	0.001660	0.001688	28.0834	0.048925	0.001935	25.2854	113.019	18.8506	0.045347	0.791245	-0.325323	-0.326689	0.038124	25.2854	-0.326454	-11573.8	-3.293994E-6	NaN
729	1.000000	0.802625	7.37219e+06	-40639.1	1005.82	-29789.2	0.000000	0.000000	6.803083	-0.040565	NaN	0.000000	0.001657	0.001690	28.0834	0.120380	0.001946	61.8645	101.362	-162.315	0.024703	0.801262	-0.315309	-0.316672	-0.040565	61.8645	-0.314817	-7802.75	5.198751E-6	NaN
729	1.000000	0.812632	7.37219e+06	-40639.1	1005.82	-29789.2	0.000000	0.000000	6.813090	-0.037042	NaN	0.000000	0.001629	0.001676	28.0835	0.019049	0.002059	9.251956	169.101	13.9556	-0.027539	0.811234	-0.305303	-0.306700	-0.037042	9.251956	-0.302300	-5091.52	7.275201E-6	NaN
729	1.000000	0.822608	7.37219e+06	-40639.1	1005.82	-29789.2	0.000000	0.000000	6.823066	-0.031272	NaN	0.000000	0.001596	0.001688	28.0835	0.015411	0.002313	6.664254	49.5863	-167.471	-0.018660	0.821278	-0.295326	-0.296657	-0.031272	6.664254	-0.291807	-3551.08	8.806252E-6	NaN
729	1.000000	0.832641	7.37219e+06	-40639.1	1005.82	-29789.2	0.000000	0.000000	6.833098	-0.064611	NaN	0.000000	0.001676	0.001692	28.0834	0.099185	0.001875	52.8945	-15.1081	17.1461	-0.099936	0.831239	-0.285293	-0.286695	-0.064611	52.8945	-0.284377	-2747.29	2.351804E-5	NaN
729	1.000000	0.842625	7.37219e+06	-40639.1	1005.82	-29789.2	0.000000	0.000000	6.843084	-0.016337	NaN	0.000000	0.001667	0.001671	28.0821	0.039990	0.001988	20.1197	-171.701	-169.935	0.029602	0.841309	-0.275309	-0.276625	-0.016337	20.1197	-0.274700	-1962.7	8.323535E-6	NaN
729	1.000000	0.852629	7.37219e+06	-40639.1	1005.82	-29789.2	0.000000	0.000000	6.853089	0.020058	NaN	0.000000	0.001672	0.001678	28.0824	0.093804	0.001917	48.9281	68.649	17.2964	-0.006132	0.851218	-0.265306	-0.266717	0.020058	48.9281	-0.265613	-1428.05	-1.404595E-5	NaN
729	1.000000	0.862609	7.37219e+06	-40639.1	1005.82	-29789.2	0.000000	0.000000	6.863067	-0.051379	NaN	0.000000	0.001645	0.001663	28.0821	0.034944	0.001811	19.2936	152.307	-162.601	-0.123950	0.861268	-0.255325	-0.256666	-0.051379	19.2936	-0.253328	-925.445	5.551776E-5	NaN
729	1.000000	0.872664	7.37219e+06	-40639.1	1005.82	-29789.2	0.000000	0.000000	6.873122	-0.040400	NaN	0.000000	0.001638	0.001669	28.0821	0.013659	0.001816	7.521956	74.2475	10.6702	-0.028243	0.871287	-0.245271	-0.246647	-0.040400	7.521956	-0.241242	-601.1	6.720952E-5	NaN
729	1.000000	0.882643	7.37219e+06	-40639.1	1005.82	-29789.2	0.000000	0.000000	6.883103	0.020522	NaN	0.000000	0.001669	0.001667	28.0823	0.104943	0.001990	52.726	25.4722	-165.156	-0.058431	0.881352	-0.235291	-0.236582	0.020522	52.726	-0.235583	-490.236	-4.186142E-5	NaN
729	1.000000	0.892632	7.37219e+06	-40639.1	1005.82	-29789.2	0.000000	0.000000	6.893092	0.003350	NaN	0.000000	0.001674	0.001700	28.0821	0.138618	0.002052	67.5421	-30.2795	17.4085	-0.003878	0.891317	-0.225302	-0.226617	0.003350	67.5421	-0.225339	-337.85	-9.914720E-6	NaN
729	1.000000	0.902645	7.37219e+06	-40639.1	1005.82	-29789.2	0.000000	0.000000	6.903107	0.063441	NaN	0.000000	0.001680	0.001677	28.082	0.062737	0.002079	30.1747	65.0361	-164.84	0.042099	0.901294	-0.215289	-0.216640	0.063441	30.1747	-0.216866	-247.455	-0.000256	NaN
729	1.000000	0.912624	7.37219e+06	-40639.1	1005.82	-29789.2	0.000000	0.000000	6.913081	-0.058945	NaN	0.000000	0.001729	0.001691	28.0821	0.069094	0.002000	34.5434	-88.4479	17.9924	-0.049362	0.911291	-0.205310	-0.206643	-0.058945	34.5434	-0.204031	-153.368	0.000384	NaN
729	1.000000	0.922628	7.37219e+06	-40639.1	1005.82	-29789.2	0.000000	0.000000	6.923084	-0.087042	NaN	0.000000	0.001718	0.001693	28.0836	0.036949	0.002031	18.1928	-150.133	-166.309	-0.080480	0.921359	-0.195307	-0.196576	-0.087042	18.1928	-0.191718	-96.0923	0.000906	NaN
729	1.000000	0.932657	7.37219e+06	-40639.1	1005.82	-29789.2	0.000000	0.000000	6.933117	0.007394	NaN	0.000000	0.001684	0.001686	28.0824	0.092923	0.001958	47.4647	-1.804957	16.0365	-0.048199	0.931299	-0.185277	-0.186636	0.007394	47.4647	-0.185394	-75.2964	-9.819505E-5	NaN
729	1.000000	0.942661	7.37219e+06	-40639.1	1005.82	-29789.2	0.000000	0.000000	6.943118	-0.045789	NaN	0.000000	0.001689	0.001684	28.0826	0.066516	0.002089	31.8365	169.983	-166.008	-0.032501	0.941370	-0.175273	-0.176564	-0.045789	31.8365	-0.174195	-48.5436	0.000943	NaN
729	1.000000	0.952671	7.37219e+06	-40639.1	1005.82	-29789.2	0.000000	0.000000	6.953128	-0.050057	NaN	0.000000	0.001696	0.001656	28.0822	0.039240	0.001958	20.0427	37.5103	16.7026	-0.012844	0.951288	-0.165263	-0.166646	-0.050057	20.0427	-0.163390	-31.4764	0.001590	NaN
729	1.000000	0.962674	7.37219e+06	-40639.1	1005.82	-29789.2	0.000000	0.000000	6.963131	-0.070603	NaN	0.000000	0.001693	0.001696	28.0828	0.021673	0.002005	10.8092	-23.7636	-160.986	-0.061943	0.961303	-0.155260	-0.156631	-0.070603	10.8092	-0.150361	-18.3903	0.003839	NaN
729	1.000000	0.972647	7.37219e+06	-40639.1	1005.82	-29789.2	0.000000	0.000000	6.973105	-0.046299	NaN	0.000000	0.001702	0.001654	28.0821	0.098995	0.001981	49.9829	-73.8042	15.0972	-0.094024	0.971297	-0.145287	-0.146637	-0.046299	49.9829	-0.144592	-14.4085	0.003213	NaN
729	1.000000	0.982670	7.37219e+06	-40639.1	1005.82	-29789.2	0.000000	0.000000	6.983129	-0.003444	NaN	0.000000	0.001698	0.001664	28.0833	0.031985	0.002086	15.3295	-10.5866	-165.6	0.045852	0.981435	-0.135264	-0.136499	-0.003444	15.3295	-0.135096	-9.552519	0.000360	NaN
729	1.000000	0.992672	7.37219e+06	-40639.1	1005.82	-29789.2	0.000000	0.000000	6.993133	0.018458	NaN	0.000000	0.001714	0.001696	28.0834	0.101720	0.001979	51.4054	31.5505	15.8437	-0.054185	0.991308	-0.125262	-0.126626	0.018458	51.4054	-0.125531	-6.230120	-0.002963	NaN
729	1.000000	1.002696	7.37219e+06	-40639.1	1005.82	-29789.2	0.000000	0.000000	7.003159	0.098371	NaN	0.000000	0.001682	0.001685	28.0836	0.121128	0.001957	61.8995	-27.0426	-160.99	0.002387	1.001355	-0.115238	-0.116579	0.098371	61.8995	-0.116430	-4.087887	-0.024064	NaN
729	1.000000	1.012686	7.37219e+06	-40639.1	1005.82	-29789.2	0.000000	0.000000	7.013146	0.011207	NaN	0.000000	0.001615	0.001741	28.0833	0.127719	0.002017	63.3096	-51.1175	18.161	-0.018179	1.011395	-0.105248	-0.106539	0.011207	63.3096	-0.105381	-2.395512	-0.004678	NaN
729	1.000000	1.022697	7.37219e+06	-40639.1	1005.82	-29789.2	0.000000	0.000000	7.023155	-0.035859	NaN	0.000000	0.001619	0.001724	28.0832	0.020080	0.002051	9.792578	-32.4762	-166.874	-0.045294	1.021366	-0.095237	-0.096568	-0.035859	9.792578	-0.092491	-1.235474	0.029024	NaN
729	1.000000	1.032670	7.37219e+06	-40639.1	1005.82	-29789.2	0.000000	0.000000	7.033129	-0.013699	NaN	0.000000	0.001608	0.001722	28.0836	0.073874	0.001986	37.1952	-89.9904	14.0142	-0.035774	1.031320	-0.085265	-0.086614	-0.013699	37.1952	-0.084988	-0.821101	0.016684	NaN
729	1.000000	1.042707	7.37219e+06	-40639.1	1005.82	-29789.2	0.000000	0.000000	7.043169	0.045711	NaN	0.000000	0.001629	0.001703	28.0834	0.025973	0.002023	12.838	-6.200461	-167.062	0.059200	1.041401	-0.075227	-0.076533	0.045711	12.838	-0.077897	-0.547938	-0.083424	NaN
729	1.000000	1.052703	7.37219e+06	-40639.1	1005.82	-29789.2	0.000000	0.000000	7.053163	0.006628	NaN	0.000000	0.001618	0.001700	28.0834	0.036217	0.002047	17.6965	151.998	17.276	0.061778	1.051359	-0.065231	-0.066576	0.006628	17.6965	-0.065512	-0.257486	-0.025742	NaN
729	1.000000	1.062715	7.37219e+06	-40639.1	1005.82	-29789.2	0.000000	0.000000	7.063174	-0.030009	NaN	0.000000	0.001591	0.001694	28.0835	0.178571	0.002108	84.7216	-96.4946	-167.251	0.059115	1.061439	-0.055219	-0.056495	-0.030009	84.7216	-0.054953	-0.128369	0.233774	NaN
729	1.000000	1.072688	7.37219e+06	-40639.1	1005.82	-29789.2	0.000000	0.000000	7.073147	-0.014223	NaN	0.000000	0.001568	0.001722	28.0834	0.055586	0.001946	28.56	78.2219	16.7157	-0.050764	1.071334	-0.045246	-0.046600	-0.014223	28.56	-0.044872	-0.063693	0.223304	NaN
729	1.000000	1.082723	7.37219e+06	-40639.1	1005.82	-29789.2	0.000000	0.000000	7.083181	-0.024915	NaN	0.000000	0.001604	0.001696	28.0834	0.084482	0.001996	42.3329	130.283	-168.382	-0.039881	1.081394	-0.035212	-0.036540	-0.024915	42.3329	-0.034770	-0.031530	0.790204	NaN
729	1.000000	1.092712	7.37219e+06	-40639.1	1005.82	-29789.2	0.000000	0.000000	7.093175	0.076654	NaN	0.000000	0.001602	0.001687	28.0832	0.048519	0.001910	25.4049	82.4647	17.4993	0.111200	1.091361	-0.025222	-0.026573	0.076654	25.4049	-0.027485	-0.019635	-3.903948	NaN
729	1.000000	1.102716	7.37219e+06	-40639.1	1005.82	-29789.2	0.000000	0.000000	7.103173	-0.068307	NaN	0.000000	0.001597	0.001715	28.0834	0.090025	0.002014	44.7038	-121.236	-164.26	-0.000114	1.101457	-0.015218	-0.016477	-0.068307	44.7038	-0.014072	-0.008726	7.828258	NaN
729	1.000000	1.112729	7.37219e+06	-40639.1	1005.82	-29789.2	0.000000	0.000000	7.113188	-0.002557	NaN	0.000000	0.001570	0.001713	28.0824	0.037186	0.001916	19.4109	98.8257	13.9459	0.026691	1.111350	-0.005205	-0.006585	-0.002557	19.4109	-0.005107	-0.003484	0.734076	NaN
729	1.000000	1.122689	7.37219e+06	-40639.1	1005.82	-29789.2	0.000000	0.000000	7.123302	3.750455	NaN	0.000000	0.001569	0.001659	28.082	4.695213	0.001900	2470.92	10.9011	-166.149	2.222902	1.121373	0.004754	0.003439	3.750455	2470.92	0.003616	0.002905	1291.04	41885.3
729	2.000000	1.128816	7.37219e+06	-40639.1	1005.82	-29789.2	0.000000	0.000000	7.129777	12.2208	NaN	0.000000	0.001540	0.001752	28.0822	10.4883	0.001580	6638.11	5.704578	9.142243	11.1472	1.128409	0.010881	0.010475	12.2208	6638.11	0.009501	0.008632	1415.79	65278.1
729	2.000000	1.131248	7.37219e+06	-40639.1	1005.82	-29789.2	0.000000	0.000000	7.132329	15.121	NaN	0.000000	0.001546	0.001706	28.0823	13.084	0.001679	7792.96	5.284406	-172.384	14.3793	1.130896	0.013314	0.012962	15.121	7792.96	0.011859	0.011321	1335.65	66916.2
729	2.000000	1.133703	7.37219e+06	-40639.1	1005.82	-29789.2	0.000000	0.000000	7.135021	20.8897	NaN	0.000000	0.001552	0.001689	28.0822	15.8709	0.001740	9119.14	6.286784	5.810412	19.7963	1.133395	0.015769	0.015461	20.8897	9119.14	0.014051	0.014041	1487.81	70312.8
729	2.000000	1.136240	7.37219e+06	-40639.1	1005.82	-29789.2	0.000000	0.000000	7.137673	23.6834	NaN	0.000000	0.001596	0.001664	28.0825	18.9663	0.001802	10527.8	8.624135	-176.836	23.5762	1.135903	0.018306	0.017969	23.6834	10527.8	0.016619	0.017505	1352.97	72699.7
729	2.000000	1.138697	7.37219e+06	-40639.1	1005.82	-29789.2	0.000000	0.000000	7.140399	30.2261	NaN	0.000000	0.001590	0.001689	28.0822	20.8344	0.001784	11676.2	6.915636	2.959651	29.0834	1.138443	0.020763	0.020509	30.2261	11676.2	0.018821	0.020724	1458.52	74104
729	2.000000	1.141189	7.37219e+06	-40639.1	1005.82	-29789.2	0.000000	0.000000	7.143141	36.3273	NaN	0.000000	0.001564	0.001688	28.082	23.4357	0.001636	14327.9	4.687206	-177.734	35.8777	1.140941	0.023254	0.023007	36.3273	14327.9	0.021353	0.024713	1469.97	83270.7
729	2.000000	1.143690	7.37219e+06	-40639.1	1005.82	-29789.2	0.000000	0.000000	7.145923	43.1593	NaN	0.000000	0.001610	0.001693	28.0822	26.049	0.001691	15406.1	2.413093	4.094553	42.4257	1.143418	0.025756	0.025483	43.1593	15406.1	0.023655	0.028613	1508.36	83211.1
729	2.000000	1.146159	7.37219e+06	-40639.1	1005.82	-29789.2	0.000000	0.000000	7.148785	52.7031	NaN	0.000000	0.001583	0.001682	28.0821	30.2221	0.001883	16052.8	6.712607	179.369	52.475	1.145897	0.028225	0.027963	52.7031	16052.8	0.025763	0.032418	1625.76	81457.9
729	2.000000	1.148679	7.37219e+06	-40639.1	1005.82	-29789.2	0.000000	0.000000	7.151586	59.5481	NaN	0.000000	0.001568	0.001660	28.0824	31.5248	0.001643	19185	5.732287	-0.549715	57.641	1.148321	0.030745	0.030386	59.5481	19185	0.028417	0.037526	1586.83	90482.8
729	2.000000	1.151131	7.37219e+06	-40639.1	1005.82	-29789.2	0.000000	0.000000	7.154528	71.4818	NaN	0.000000	0.001574	0.001643	28.0822	33.7869	0.001640	20598.7	1.921523	-177.502	70.1854	1.150816	0.033197	0.032881	71.4818	20598.7	0.030594	0.041984	1702.59	91848.2
729	2.000000	1.153691	7.37219e+06	-40639.1	1005.82	-29789.2	0.000000	0.000000	7.157435	79.9165	NaN	0.000000	0.001588	0.001679	28.0824	37.5307	0.001796	20902	7.401928	-2.800169	81.0837	1.153278	0.035757	0.035344	79.9165	20902	0.032889	0.046945	1702.35	88138.5
729	2.000000	1.156162	7.37219e+06	-40639.1	1005.82	-29789.2	0.000000	0.000000	7.160221	87.5824	NaN	0.000000	0.001556	0.001687	28.0821	40.3065	0.001778	22675.1	6.375652	177.176	87.3646	1.155920	0.038228	0.037986	87.5824	22675.1	0.035331	0.052519	1667.64	90399.1
729	2.000000	1.158707	7.37219e+06	-40639.1	1005.82	-29789.2	0.000000	0.000000	7.163262	99.6356	NaN	0.000000	0.001568	0.001678	28.0838	41.6828	0.001806	23078.8	4.269334	0.234007	99.0467	1.158192	0.040773	0.040258	99.6356	23078.8	0.037535	0.057814	1723.39	87694.2
729	2.000000	1.161150	7.37219e+06	-40639.1	1005.82	-29789.2	0.000000	0.000000	7.166079	108.749	NaN	0.000000	0.001604	0.001653	28.0832	44.5462	0.001792	24864.3	5.685441	177.613	107.778	1.160817	0.043216	0.042883	108.749	24864.3	0.039936	0.063863	1702.86	89893.3
729	2.000000	1.163619	7.37219e+06	-40639.1	1005.82	-29789.2	0.000000	0.000000	7.169275	126.45	NaN	0.000000	0.001599	0.001682	28.0835	46.9439	0.001769	26533	5.946988	-2.759588	125.111	1.163193	0.045685	0.045258	126.45	26533	0.042110	0.069596	1816.92	91889.9
729	2.000000	1.166144	7.37219e+06	-40639.1	1005.82	-29789.2	0.000000	0.000000	7.171939	129.833	NaN	0.000000	0.001608	0.001676	28.0836	48.8861	0.001769	27628.2	0.615180	-179.088	127.786	1.165888	0.048210	0.047954	129.833	27628.2	0.044686	0.076697	1692.8	91145.6
729	2.000000	1.168702	7.37219e+06	-40639.1	1005.82	-29789.2	0.000000	0.000000	7.174979	141.558	NaN	0.000000	0.001580	0.001734	28.0837	51.7517	0.001794	28841.6	3.371712	-0.877452	142.031	1.168247	0.050768	0.050313	141.558	28841.6	0.047087	0.083621	1692.85	91124.2
729	2.000000	1.171117	7.37219e+06	-40639.1	1005.82	-29789.2	0.000000	0.000000	7.178085	158.363	NaN	0.000000	0.001599	0.001704	28.0832	53.5947	0.001797	29826.7	4.540382	176.626	157.871	1.170714	0.053183	0.052780	158.363	29826.7	0.049201	0.089960	1760.37	90856
729	2.000000	1.173580	7.37219e+06	-40639.1	1005.82	-29789.2	0.000000	0.000000	7.181189	173.967	NaN	0.000000	0.001606	0.001688	28.0837	56.5744	0.001883	30041.6	4.520077	-2.742855	170.029	1.173151	0.055646	0.055217	173.967	30041.6	0.051303	0.096482	1803.1	88363.5
729	2.000000	1.176133	7.37219e+06	-40639.1	1005.82	-29789.2	0.000000	0.000000	7.184052	181.522	NaN	0.000000	0.001585	0.001683	28.0837	59.1952	0.001772	33400.5	-0.488970	-179.067	180.83	1.175849	0.058199	0.057915	181.522	33400.5	0.054123	0.105581	1719.27	93914.8
729	2.000000	1.178631	7.37219e+06	-40639.1	1005.82	-29789.2	0.000000	0.000000	7.187311	200.021	NaN	0.000000	0.001601	0.001685	28.0839	61.1972	0.001750	34979	6.796470	-5.956662	199.165	1.178195	0.060697	0.060261	200.021	34979	0.056408	0.113244	1766.28	94967.1
729	2.000000	1.181064	7.37219e+06	-40639.1	1005.82	-29789.2	0.000000	0.000000	7.190374	215.35	NaN	0.000000	0.001598	0.001719	28.0836	63.0265	0.001875	33611.6	4.173124	176.502	213.735	1.180794	0.063130	0.062859	215.35	33611.6	0.058325	0.119870	1796.54	88696.7
729	2.000000	1.183509	7.37219e+06	-40639.1	1005.82	-29789.2	0.000000	0.000000	7.193438	230.413	NaN	0.000000	0.001553	0.001708	28.0841	65.2773	0.001717	38023.1	4.011167	-4.885191	224.716	1.183272	0.065575	0.065337	230.413	38023.1	0.061030	0.129529	1778.86	96524.6
729	2.000000	1.186075	7.37219e+06	-40639.1	1005.82	-29789.2	0.000000	0.000000	7.196384	239.66	NaN	0.000000	0.001611	0.001721	28.0838	68.6926	0.001774	38728.2	4.053328	174.566	235.191	1.185822	0.068141	0.067888	239.66	38728.2	0.063500	0.138655	1728.46	95023.7
729	2.000000	1.188660	7.37219e+06	-40639.1	1005.82	-29789.2	0.000000	0.000000	7.199548	253.748	NaN	0.000000	0.001602	0.001682	28.0836	70.5105	0.001763	39985.3	3.613849	-4.927795	253.556	1.188370	0.070726	0.070436	253.748	39985.3	0.065966	0.148068	1713.73	94938.7
729	2.000000	1.191106	7.37219e+06	-40639.1	1005.82	-29789.2	0.000000	0.000000	7.202741	271.95	NaN	0.000000	0.001587	0.001692	28.0834	72.6363	0.001760	41269.3	5.657082	172.841	271.619	1.190749	0.073172	0.072815	271.95	41269.3	0.068229	0.156960	1732.61	95171.4
729	2.000000	1.193641	7.37219e+06	-40639.1	1005.82	-29789.2	0.000000	0.000000	7.206188	294.146	NaN	0.000000	0.001571	0.001710	28.0824	74.849	0.001855	40342.9	5.540746	-6.332195	293.595	1.193243	0.075706	0.075308	294.146	40342.9	0.070238	0.165058	1782.08	90724.2
729	2.000000	1.196116	7.37219e+06	-40639.1	1005.82	-29789.2	0.000000	0.000000	7.209261	308.671	NaN	0.000000	0.001599	0.001688	28.0822	77.7778	0.001863	41744.6	4.713004	174.323	306.685	1.195697	0.078182	0.077763	308.671	41744.6	0.072636	0.174976	1764.08	91176.8
729	2.000000	1.198579	7.37219e+06	-40639.1	1005.82	-29789.2	0.000000	0.000000	7.212534	328.374	NaN	0.000000	0.001595	0.001715	28.0824	78.9412	0.001749	45128.9	5.386630	-7.198881	324.495	1.198264	0.080645	0.080330	328.374	45128.9	0.075188	0.185830	1767.07	95646.8
729	2.000000	1.201079	7.37219e+06	-40639.1	1005.82	-29789.2	0.000000	0.000000	7.215776	346.442	NaN	0.000000	0.001592	0.001702	28.0822	80.9383	0.001828	44274.6	3.453726	174.91	344.68	1.200824	0.083145	0.082890	346.442	44274.6	0.077276	0.194939	1777.18	91617.7
729	2.000000	1.203635	7.37219e+06	-40639.1	1005.82	-29789.2	0.000000	0.000000	7.218830	358.574	NaN	0.000000	0.001615	0.001678	28.0823	83.8891	0.001795	46744.5	3.866933	-6.221959	355.67	1.203301	0.085700	0.085367	358.574	46744.5	0.079947	0.206889	1733.17	93893.2
729	2.000000	1.206036	7.37219e+06	-40639.1	1005.82	-29789.2	0.000000	0.000000	7.221923	375.406	NaN	0.000000	0.001631	0.001692	28.0822	86.2259	0.001862	46314.2	4.126357	173.701	371.543	1.205872	0.088102	0.087938	375.406	46314.2	0.082023	0.216403	1734.75	90961.2
729	2.000000	1.208594	7.37219e+06	-40639.1	1005.82	-29789.2	0.000000	0.000000	7.225449	398.965	NaN	0.000000	0.001598	0.001715	28.0824	87.607	0.001715	51085.7	6.264197	-8.698989	395.265	1.208208	0.090660	0.090273	398.965	51085.7	0.084802	0.229460	1738.72	97435.9
729	2.000000	1.211034	7.37219e+06	-40639.1	1005.82	-29789.2	0.000000	0.000000	7.228772	420.426	NaN	0.000000	0.001586	0.001696	28.0823	89.5198	0.001865	48012.1	3.011047	175.054	416.18	1.210753	0.093100	0.092819	420.426	48012.1	0.086533	0.237767	1768.22	89959.8
729	2.000000	1.213485	7.37219e+06	-40639.1	1005.82	-29789.2	0.000000	0.000000	7.231841	435.467	NaN	0.000000	0.001588	0.001703	28.0825	90.4953	0.001665	54361.1	2.569467	-6.084308	427.572	1.213217	0.095551	0.095283	435.467	54361.1	0.089543	0.252548	1724.29	98830.1
729	2.000000	1.216010	7.37219e+06	-40639.1	1005.82	-29789.2	0.000000	0.000000	7.235159	454.783	NaN	0.000000	0.001613	0.001713	28.0822	95.1747	0.001861	51142	4.743718	172.711	450.357	1.215824	0.098076	0.097890	454.783	51142	0.091407	0.261908	1736.42	91301.3
729	2.000000	1.218593	7.37219e+06	-40639.1	1005.82	-29789.2	0.000000	0.000000	7.238621	476.163	NaN	0.000000	0.001603	0.001719	28.0826	97.2021	0.001849	52558	7.064802	-9.744233	472.911	1.218259	0.100659	0.100325	476.163	52558	0.093864	0.274491	1734.71	91653.2
729	2.000000	1.221034	7.37219e+06	-40639.1	1005.82	-29789.2	0.000000	0.000000	7.241825	494.744	NaN	0.000000	0.001604	0.001695	28.0824	98.6677	0.001760	56055.6	7.203970	169.373	491.081	1.220629	0.103099	0.102695	494.744	56055.6	0.096480	0.288192	1716.71	95400.6
729	2.000000	1.223519	7.37219e+06	-40639.1	1005.82	-29789.2	0.000000	0.000000	7.244914	509.417	NaN	0.000000	0.001539	0.001691	28.0826	100.816	0.001754	57462.1	5.312793	-9.181122	504.36	1.223239	0.105585	0.105304	509.417	57462.1	0.098936	0.301339	1690.51	95637.1
729	2.000000	1.226018	7.37219e+06	-40639.1	1005.82	-29789.2	0.000000	0.000000	7.248643	539.364	NaN	0.000000	0.001588	0.001709	28.0837	104.15	0.001780	58513	4.107582	172.372	535.801	1.225729	0.108084	0.107795	539.364	58513	0.101171	0.313538	1720.25	95472.9