File: remote_trans/data/nanoindenter/0828-1/data/Data_2025-08-06,11h17m57s/2025-07-22_16-23-58_1_12.txt
2025-07-22, 16:23:58, 1
Index	Phase	Displacement	Time	Pos X	Pos Y	Pos Z	Rot A	Rot B	Piezo Z	Force A	Force B	Gripper	Voltage A	Voltage B	Temperature	Amplitude force	Amplitude pos	Stiffness	Phase shift	Phase excitation	Force A raw	Displacement raw	HMax	HMax raw	Real Force	Real Stiffness	Contact Depth	Area	Hardness	Reduced Mod.
[#]	[#]	[um]	[s]	[um]	[um]	[um]	[m°]	[m°]	[um]	[uN]	[uN]	[V]	[V]	[V]	[°C]	[uN]	[um]	[N/m]	[°]	[°]	[uN]	[um]	[um]	[um]	[uN]	[N/m]	[um]	[um^2]	[MPa]	[MPa]
12	1.000000	0.002013	7.36516e+06	-39239.1	955.819	-29795.3	0.000000	0.000000	6.002796	0.004693	NaN	0.000000	0.001569	0.001619	28.1105	0.033638	0.000879	38.2873	-40.8508	-166.622	-0.005845	0.000755	-1.078928	-1.080185	0.004693	38.2873	-1.079020	-2.620356E+14	-1.791126E-17	NaN
12	1.000000	0.010011	7.36516e+06	-39239.1	955.82	-29795.3	0.000000	0.000000	6.010794	-0.006466	NaN	0.000000	0.001539	0.001613	28.1109	0.107235	0.001045	102.648	-151.646	-160.871	-0.001571	0.008697	-1.070930	-1.072244	-0.006466	102.648	-1.070882	-2.037247E+14	3.174020E-17	NaN
12	1.000000	0.017979	7.36516e+06	-39239.1	955.818	-29795.3	0.000000	0.000000	6.018764	0.048397	NaN	0.000000	0.001517	0.001612	28.1108	0.054367	0.001768	30.7518	104.192	-163.726	-0.038274	0.016689	-1.062962	-1.064252	0.048397	30.7518	-1.064142	-1.653802E+14	-2.926416E-16	NaN
12	1.000000	0.026003	7.36516e+06	-39239.1	955.818	-29795.3	0.000000	0.000000	6.026786	0.008941	NaN	0.000000	0.001536	0.001624	28.1097	0.046616	0.001854	25.1477	-50.4576	-170.689	0.037740	0.024700	-1.054938	-1.056241	0.008941	25.1477	-1.055205	-1.254233E+14	-7.128622E-17	NaN
12	1.000000	0.033990	7.36516e+06	-39239.1	955.818	-29795.3	0.000000	0.000000	6.034775	0.038368	NaN	0.000000	0.001522	0.001618	28.1106	0.107769	0.001883	57.2293	-7.931010	-167.094	0.089162	0.032679	-1.046951	-1.048262	0.038368	57.2293	-1.047454	-9.866995E+13	-3.888498E-16	NaN
12	1.000000	0.041988	7.36516e+06	-39239.1	955.819	-29795.3	0.000000	0.000000	6.042773	0.057147	NaN	0.000000	0.001529	0.001650	28.1107	0.051865	0.002028	25.5684	-38.8074	-166.391	0.069102	0.040658	-1.038953	-1.040283	0.057147	25.5684	-1.040630	-7.987915E+13	-7.154236E-16	NaN
12	1.000000	0.050001	7.36516e+06	-39239.1	955.818	-29795.3	0.000000	0.000000	6.050786	0.052248	NaN	0.000000	0.001548	0.001635	28.1102	0.105801	0.001909	55.4308	-87.1344	-164.685	0.061514	0.048690	-1.030940	-1.032251	0.052248	55.4308	-1.031647	-6.048329E+13	-8.638387E-16	NaN
12	1.000000	0.057944	7.36516e+06	-39239.1	955.819	-29795.3	0.000000	0.000000	6.058726	-0.035835	NaN	0.000000	0.001496	0.001641	28.1111	0.100614	0.001953	51.517	-155.889	-166.136	-0.017357	0.056715	-1.022997	-1.024226	-0.035835	51.517	-1.022475	-4.552507E+13	7.871447E-16	NaN
12	1.000000	0.065952	7.36516e+06	-39239.1	955.818	-29795.3	0.000000	0.000000	6.066738	0.054779	NaN	0.000000	0.001531	0.001641	28.1107	0.150914	0.002065	73.0698	162.439	-163.833	0.074386	0.064685	-1.014988	-1.016256	0.054779	73.0698	-1.015551	-3.673528E+13	-1.491180E-15	NaN
12	1.000000	0.073991	7.36516e+06	-39239.1	955.819	-29795.3	0.000000	0.000000	6.074774	0.003427	NaN	0.000000	0.001543	0.001609	28.1102	0.032925	0.001990	16.5417	-35.3932	-166.397	0.057651	0.072645	-1.006950	-1.008296	0.003427	16.5417	-1.007106	-2.827651E+13	-1.212056E-16	NaN
12	1.000000	0.081978	7.36516e+06	-39239.1	955.818	-29795.3	0.000000	0.000000	6.082761	0.004097	NaN	0.000000	0.001516	0.001613	28.1102	0.078232	0.002102	37.2231	-8.754156	-162.358	-0.003434	0.080641	-0.998963	-1.000300	0.004097	37.2231	-0.999045	-2.202498E+13	-1.860102E-16	NaN
12	1.000000	0.089993	7.36516e+06	-39239.1	955.819	-29795.3	0.000000	0.000000	6.090778	0.055412	NaN	0.000000	0.001559	0.001625	28.1111	0.039026	0.002027	19.257	126.545	-166.835	0.069375	0.088694	-0.990948	-0.992247	0.055412	19.257	-0.993106	-1.832067E+13	-3.024565E-15	NaN
12	1.000000	0.097982	7.36516e+06	-39239.1	955.819	-29795.3	0.000000	0.000000	6.098765	0.003498	NaN	0.000000	0.001573	0.001632	28.1117	0.099864	0.002060	48.478	-121.412	-164.788	-0.060705	0.096681	-0.982959	-0.984259	0.003498	48.478	-0.983013	-1.339677E+13	-2.610729E-16	NaN
12	1.000000	0.105963	7.36516e+06	-39239.1	955.818	-29795.3	0.000000	0.000000	6.106745	-0.029749	NaN	0.000000	0.001555	0.001635	28.1118	0.118985	0.001993	59.7119	-93.6638	-164.942	-0.051833	0.104647	-0.974978	-0.976294	-0.029749	59.7119	-0.974604	-1.032062E+13	2.882480E-15	NaN
12	1.000000	0.113989	7.36516e+06	-39239.1	955.818	-29795.3	0.000000	0.000000	6.114772	-0.012510	NaN	0.000000	0.001576	0.001631	28.1113	0.038331	0.001985	19.311	-0.040462	-164.576	0.012202	0.112661	-0.966952	-0.968280	-0.012510	19.311	-0.966466	-8.017319E+12	1.560416E-15	NaN
12	1.000000	0.121989	7.36516e+06	-39239.1	955.818	-29795.3	0.000000	0.000000	6.122773	0.026115	NaN	0.000000	0.001554	0.001644	28.1117	0.032686	0.002045	15.982	13.6612	-166.238	-0.020964	0.120692	-0.958952	-0.960249	0.026115	15.982	-0.960178	-6.595794E+12	-3.959380E-15	NaN
12	1.000000	0.129989	7.36516e+06	-39239.1	955.818	-29795.3	0.000000	0.000000	6.130774	0.055545	NaN	0.000000	0.001532	0.001594	28.1109	0.080231	0.002017	39.7681	-125.932	-165.465	0.007997	0.128679	-0.950952	-0.952262	0.055545	39.7681	-0.952000	-5.116797E+12	-1.085545E-14	NaN
12	1.000000	0.137993	7.36516e+06	-39239.1	955.818	-29795.3	0.000000	0.000000	6.138777	0.030479	NaN	0.000000	0.001559	0.001599	28.1102	0.089639	0.002051	43.713	35.5232	-164.957	-0.018510	0.136700	-0.942948	-0.944241	0.030479	43.713	-0.943471	-3.926104E+12	-7.763170E-15	NaN
12	1.000000	0.146023	7.36516e+06	-39239.1	955.818	-29795.3	0.000000	0.000000	6.146809	0.072521	NaN	0.000000	0.001526	0.001609	28.1096	0.052417	0.001910	27.4473	179.456	-165.214	0.061016	0.144652	-0.934918	-0.936289	0.072521	27.4473	-0.936900	-3.201157E+12	-2.265470E-14	NaN
12	1.000000	0.154021	7.36516e+06	-39239.1	955.819	-29795.3	0.000000	0.000000	6.154804	-0.000437	NaN	0.000000	0.001514	0.001609	28.1096	0.018346	0.001918	9.564230	129.297	-162.513	0.009129	0.152712	-0.926920	-0.928229	-0.000437	9.564230	-0.926885	-2.345077E+12	1.862854E-16	NaN
12	1.000000	0.162016	7.36516e+06	-39239.1	955.819	-29795.3	0.000000	0.000000	6.162800	0.022930	NaN	0.000000	0.001541	0.001608	28.1101	0.072509	0.002043	35.494	-8.810391	-163.73	0.092867	0.160720	-0.918925	-0.920221	0.022930	35.494	-0.919409	-1.858781E+12	-1.233622E-14	NaN
12	1.000000	0.170011	7.36516e+06	-39239.1	955.818	-29795.3	0.000000	0.000000	6.170795	0.039616	NaN	0.000000	0.001536	0.001668	28.1108	0.029394	0.001853	15.8611	146.403	-168.643	0.026504	0.168708	-0.910930	-0.912233	0.039616	15.8611	-0.912803	-1.513655E+12	-2.617237E-14	NaN
12	1.000000	0.178001	7.36516e+06	-39239.1	955.818	-29795.3	0.000000	0.000000	6.178783	-0.031754	NaN	0.000000	0.001507	0.001614	28.111	0.066216	0.002010	32.9389	-66.5541	-162.309	0.013673	0.176743	-0.902940	-0.904198	-0.031754	32.9389	-0.902217	-1.088979E+12	2.915978E-14	NaN
12	1.000000	0.186033	7.36516e+06	-39239.1	955.818	-29795.3	0.000000	0.000000	6.186819	0.069065	NaN	0.000000	0.001555	0.001655	28.1098	0.021032	0.001958	10.7405	-142.124	-165.075	0.091415	0.184771	-0.894908	-0.896170	0.069065	10.7405	-0.899730	-1.007914E+12	-6.852255E-14	NaN
12	1.000000	0.194041	7.36516e+06	-39239.1	955.817	-29795.3	0.000000	0.000000	6.194825	0.013803	NaN	0.000000	0.001527	0.001632	28.11	0.052626	0.002113	24.9053	101.953	-163.595	0.022760	0.192733	-0.886900	-0.888208	0.013803	24.9053	-0.887315	-6.848903E+11	-2.015319E-14	NaN
12	1.000000	0.202031	7.36516e+06	-39239.1	955.819	-29795.3	0.000000	0.000000	6.202815	0.011731	NaN	0.000000	0.001521	0.001648	28.1095	0.011936	0.002137	5.586590	-31.6569	-164.794	0.059836	0.200707	-0.878910	-0.880234	0.011731	5.586590	-0.880485	-5.536879E+11	-2.118741E-14	NaN
12	1.000000	0.210047	7.36516e+06	-39239.1	955.819	-29795.3	0.000000	0.000000	6.210827	-0.069213	NaN	0.000000	0.001520	0.001629	28.1085	0.070452	0.002149	32.7821	-121.344	-163.474	-0.040153	0.208746	-0.870894	-0.872195	-0.069213	32.7821	-0.869310	-3.909446E+11	1.770416E-13	NaN
12	1.000000	0.218056	7.36516e+06	-39239.1	955.818	-29795.3	0.000000	0.000000	6.218839	0.016772	NaN	0.000000	0.001523	0.001643	28.1087	0.086793	0.002109	41.1581	88.388	-167.386	-0.026075	0.216729	-0.862885	-0.864212	0.016772	41.1581	-0.863191	-3.230789E+11	-5.191308E-14	NaN
12	1.000000	0.226059	7.36516e+06	-39239.1	955.819	-29795.3	0.000000	0.000000	6.226845	0.072703	NaN	0.000000	0.001554	0.001637	28.1087	0.058210	0.002056	28.3182	-12.6558	-165.502	0.086499	0.224740	-0.854882	-0.856201	0.072703	28.3182	-0.856808	-2.647951E+11	-2.745629E-13	NaN
12	1.000000	0.234044	7.36516e+06	-39239.1	955.819	-29795.3	0.000000	0.000000	6.234827	0.000369	NaN	0.000000	0.001547	0.001611	28.1087	0.095518	0.001974	48.3869	-165.782	-165.412	0.024177	0.232727	-0.846897	-0.848213	0.000369	48.3869	-0.846903	-1.944427E+11	-1.898021E-15	NaN
12	1.000000	0.242046	7.36516e+06	-39239.1	955.819	-29795.3	0.000000	0.000000	6.242829	-0.004960	NaN	0.000000	0.001549	0.001669	28.1087	0.039884	0.002006	19.8782	161.703	-164.429	-0.067122	0.240778	-0.838895	-0.840163	-0.004960	19.8782	-0.838708	-1.505870E+11	3.293538E-14	NaN
12	1.000000	0.250049	7.36516e+06	-39239.1	955.818	-29795.3	0.000000	0.000000	6.250833	0.021784	NaN	0.000000	0.001531	0.001659	28.1097	0.159293	0.001995	79.8277	-32.0807	-163.984	-0.006901	0.248758	-0.830892	-0.832183	0.021784	79.8277	-0.831097	-1.187544E+11	-1.834367E-13	NaN
12	1.000000	0.258074	7.36516e+06	-39239.1	955.818	-29795.3	0.000000	0.000000	6.258857	0.006197	NaN	0.000000	0.001531	0.001630	28.1096	0.103384	0.001972	52.4134	-115.363	-164.976	0.062453	0.256775	-0.822867	-0.824166	0.006197	52.4134	-0.822956	-9.210700E+10	-6.727737E-14	NaN
12	1.000000	0.266057	7.36516e+06	-39239.1	955.819	-29795.3	0.000000	0.000000	6.266839	-0.026381	NaN	0.000000	0.001564	0.001623	28.109	0.096599	0.001937	49.8655	127.476	-167.21	-0.001381	0.264773	-0.814884	-0.816168	-0.026381	49.8655	-0.814487	-7.070320E+10	3.731263E-13	NaN
12	1.000000	0.274048	7.36516e+06	-39239.1	955.818	-29795.3	0.000000	0.000000	6.274831	-0.016482	NaN	0.000000	0.001526	0.001635	28.1091	0.125569	0.002020	62.1611	-77.3311	-166.957	-0.066619	0.272688	-0.806893	-0.808253	-0.016482	62.1611	-0.806694	-5.542546E+10	2.973783E-13	NaN
12	1.000000	0.282074	7.36516e+06	-39239.1	955.818	-29795.3	0.000000	0.000000	6.282860	0.063018	NaN	0.000000	0.001570	0.001643	28.1088	0.033127	0.002044	16.2098	179.818	-164.87	0.002523	0.280770	-0.798867	-0.800171	0.063018	16.2098	-0.801783	-4.753989E+10	-1.325579E-12	NaN
12	1.000000	0.290057	7.36516e+06	-39239.1	955.818	-29795.3	0.000000	0.000000	6.290838	-0.041691	NaN	0.000000	0.001545	0.001609	28.1075	0.086866	0.001959	44.3429	23.8621	-166.794	-0.011155	0.288771	-0.790884	-0.792170	-0.041691	44.3429	-0.790179	-3.307593E+10	1.260471E-12	NaN
12	1.000000	0.298082	7.36516e+06	-39239.1	955.819	-29795.3	0.000000	0.000000	6.298863	-0.035112	NaN	0.000000	0.001550	0.001611	28.1078	0.020549	0.002057	9.987989	-44.3983	-165.458	-0.013977	0.296778	-0.782859	-0.784162	-0.035112	9.987989	-0.780223	-2.422469E+10	1.449443E-12	NaN
12	1.000000	0.306079	7.36516e+06	-39239.1	955.819	-29795.3	0.000000	0.000000	6.306863	0.024679	NaN	0.000000	0.001565	0.001658	28.1089	0.072851	0.002059	35.3744	-139.08	-166.742	-0.028594	0.304771	-0.774862	-0.776170	0.024679	35.3744	-0.775385	-2.082162E+10	-1.185241E-12	NaN
12	1.000000	0.314062	7.36516e+06	-39239.1	955.818	-29795.3	0.000000	0.000000	6.314844	-0.021626	NaN	0.000000	0.001557	0.001673	28.1081	0.044038	0.001920	22.9394	-150.95	-167.635	0.030726	0.312795	-0.766879	-0.768145	-0.021626	22.9394	-0.766172	-1.560442E+10	1.385886E-12	NaN
12	1.000000	0.322080	7.36516e+06	-39239.1	955.818	-29795.3	0.000000	0.000000	6.322864	0.021051	NaN	0.000000	0.001556	0.001637	28.1095	0.086067	0.001980	43.4791	1.821955	-163.984	-0.017195	0.320786	-0.758861	-0.760155	0.021051	43.4791	-0.759224	-1.255281E+10	-1.676989E-12	NaN
12	1.000000	0.330090	7.36516e+06	-39239.1	955.818	-29795.3	0.000000	0.000000	6.330873	0.010250	NaN	0.000000	0.001511	0.001589	28.1101	0.072562	0.002069	35.0635	-118.7	-167.157	0.051099	0.328770	-0.750851	-0.752171	0.010250	35.0635	-0.751070	-9.722733E+9	-1.054260E-12	NaN
12	1.000000	0.338087	7.36516e+06	-39239.1	955.817	-29795.3	0.000000	0.000000	6.338869	-0.033814	NaN	0.000000	0.001552	0.001597	28.1109	0.033623	0.001944	17.2966	110.752	-167.805	-0.000198	0.336731	-0.742854	-0.744210	-0.033814	17.2966	-0.741387	-7.177176E+9	4.711377E-12	NaN
12	1.000000	0.346106	7.36516e+06	-39239.1	955.818	-29795.3	0.000000	0.000000	6.346889	-0.005087	NaN	0.000000	0.001572	0.001661	28.11	0.065615	0.002110	31.1034	33.0889	-164.922	-0.005106	0.344767	-0.734835	-0.736174	-0.005087	31.1034	-0.734712	-5.821341E+9	8.738770E-13	NaN
12	1.000000	0.354093	7.36516e+06	-39239.1	955.819	-29795.3	0.000000	0.000000	6.354878	0.055363	NaN	0.000000	0.001591	0.001636	28.1105	0.073963	0.002020	36.6213	134.789	-166.748	0.042855	0.352795	-0.726848	-0.728146	0.055363	36.6213	-0.727982	-4.713027E+9	-1.174676E-11	NaN
12	1.000000	0.362099	7.36516e+06	-39239.1	955.818	-29795.3	0.000000	0.000000	6.362881	-0.038261	NaN	0.000000	0.001579	0.001685	28.1104	0.119063	0.001982	60.057	-162.814	-163.675	-0.037133	0.360832	-0.718842	-0.720109	-0.038261	60.057	-0.718364	-3.484667E+9	1.097981E-11	NaN
12	1.000000	0.370123	7.36516e+06	-39239.1	955.819	-29795.3	0.000000	0.000000	6.370908	0.053113	NaN	0.000000	0.001533	0.001643	28.1102	0.019493	0.001967	9.909832	-152.311	-164.108	0.058739	0.368785	-0.710818	-0.712156	0.053113	9.909832	-0.714838	-3.119320E+9	-1.702720E-11	NaN
12	1.000000	0.378107	7.36516e+06	-39239.1	955.819	-29795.3	0.000000	0.000000	6.378887	-0.080598	NaN	0.000000	0.001520	0.001625	28.11	0.169067	0.002003	84.4221	-128.312	-163.734	-0.046306	0.376810	-0.702834	-0.704131	-0.080598	84.4221	-0.702118	-2.091476E+9	3.853643E-11	NaN
12	1.000000	0.386131	7.36516e+06	-39239.1	955.818	-29795.3	0.000000	0.000000	6.386914	0.001023	NaN	0.000000	0.001535	0.001635	28.1098	0.066081	0.001942	34.0201	-153.995	-166.361	0.065069	0.384813	-0.694810	-0.696128	0.001023	34.0201	-0.694833	-1.663216E+9	-6.150372E-13	NaN
12	1.000000	0.394082	7.36516e+06	-39239.1	955.819	-29795.3	0.000000	0.000000	6.394866	0.002177	NaN	0.000000	0.001534	0.001633	28.1097	0.038561	0.002009	19.1908	129.425	-168.375	-0.055474	0.392785	-0.686858	-0.688156	0.002177	19.1908	-0.686944	-1.297605E+9	-1.677839E-12	NaN
12	1.000000	0.402117	7.36516e+06	-39239.1	955.819	-29795.3	0.000000	0.000000	6.402900	-0.004056	NaN	0.000000	0.001522	0.001636	28.1096	0.035935	0.001945	18.4782	-27.3135	-165.269	-0.012864	0.400837	-0.678824	-0.680104	-0.004056	18.4782	-0.678659	-9.996878E+8	4.057113E-12	NaN
12	1.000000	0.410124	7.36516e+06	-39239.1	955.818	-29795.3	0.000000	0.000000	6.410909	0.049010	NaN	0.000000	0.001528	0.001590	28.1096	0.078259	0.002050	38.1662	-171.121	-165.371	0.065495	0.408829	-0.670817	-0.672112	0.049010	38.1662	-0.671780	-8.049270E+8	-6.088723E-11	NaN
12	1.000000	0.418140	7.36516e+06	-39239.1	955.818	-29795.3	0.000000	0.000000	6.418924	0.019332	NaN	0.000000	0.001535	0.001677	28.1098	0.211228	0.002123	99.4995	62.5424	-168.422	0.048915	0.416811	-0.662801	-0.664130	0.019332	99.4995	-0.662947	-6.092945E+8	-3.172853E-11	NaN
12	1.000000	0.426114	7.36516e+06	-39239.1	955.818	-29795.3	0.000000	0.000000	6.426895	-0.028224	NaN	0.000000	0.001528	0.001654	28.1108	0.074431	0.002002	37.1829	-59.9849	-162.255	0.021182	0.424889	-0.654827	-0.656052	-0.028224	37.1829	-0.654258	-4.632335E+8	6.092816E-11	NaN
12	1.000000	0.434128	7.36516e+06	-39239.1	955.818	-29795.3	0.000000	0.000000	6.434912	0.020840	NaN	0.000000	0.001527	0.001661	28.1105	0.052089	0.001982	26.2748	131.874	-165.683	-0.010363	0.432847	-0.646813	-0.648094	0.020840	26.2748	-0.647408	-3.731589E+8	-5.584728E-11	NaN
12	1.000000	0.442117	7.36516e+06	-39239.1	955.818	-29795.3	0.000000	0.000000	6.442900	-0.001300	NaN	0.000000	0.001532	0.001642	28.1101	0.009019	0.001946	4.634150	78.5247	-162.026	0.012839	0.440851	-0.638824	-0.640090	-0.001300	4.634150	-0.638613	-2.826569E+8	4.599750E-12	NaN
12	1.000000	0.450125	7.36516e+06	-39239.1	955.819	-29795.3	0.000000	0.000000	6.450909	0.012453	NaN	0.000000	0.001559	0.001622	28.1093	0.051013	0.001991	25.6162	-79.2819	-165.934	0.052905	0.448871	-0.630816	-0.632070	0.012453	25.6162	-0.631181	-2.234782E+8	-5.572276E-11	NaN
12	1.000000	0.458152	7.36516e+06	-39239.1	955.818	-29795.3	0.000000	0.000000	6.458935	0.003854	NaN	0.000000	0.001525	0.001644	28.1079	0.056718	0.001878	30.1935	163.522	-165.55	0.010575	0.456858	-0.622789	-0.624082	0.003854	30.1935	-0.622884	-1.718997E+8	-2.242079E-11	NaN
12	1.000000	0.466154	7.36516e+06	-39239.1	955.818	-29795.3	0.000000	0.000000	6.466939	0.031319	NaN	0.000000	0.001556	0.001668	28.1082	0.110122	0.001995	55.2055	44.7458	-164.637	0.036541	0.464896	-0.614786	-0.616044	0.031319	55.2055	-0.615212	-1.348356E+8	-2.322761E-10	NaN
12	1.000000	0.474130	7.36516e+06	-39239.1	955.819	-29795.3	0.000000	0.000000	6.474912	-0.030979	NaN	0.000000	0.001595	0.001658	28.1077	0.051570	0.001905	27.0694	135.811	-162.641	-0.018483	0.472890	-0.606811	-0.608050	-0.030979	27.0694	-0.605953	-1.005588E+8	3.080725E-10	NaN
12	1.000000	0.482161	7.36516e+06	-39239.1	955.818	-29795.3	0.000000	0.000000	6.482942	-0.050543	NaN	0.000000	0.001584	0.001642	28.1083	0.085977	0.002041	42.134	87.5131	-165.468	-0.098007	0.480844	-0.598780	-0.600097	-0.050543	42.134	-0.597880	-7.785022E+7	6.492390E-10	NaN
12	1.000000	0.490148	7.36516e+06	-39239.1	955.819	-29795.3	0.000000	0.000000	6.490932	0.029066	NaN	0.000000	0.001591	0.001663	28.1082	0.100562	0.001962	51.261	103.22	-167.481	-0.005651	0.488908	-0.590793	-0.592033	0.029066	51.261	-0.591218	-6.301711E+7	-4.612423E-10	NaN
12	1.000000	0.498130	7.36516e+06	-39239.1	955.818	-29795.3	0.000000	0.000000	6.498913	0.012026	NaN	0.000000	0.001595	0.001670	28.1086	0.046277	0.001990	23.2529	141.116	-161.535	0.036385	0.496808	-0.582811	-0.584133	0.012026	23.2529	-0.583199	-4.885075E+7	-2.461742E-10	NaN
12	1.000000	0.506184	7.36516e+06	-39239.1	955.818	-29795.3	0.000000	0.000000	6.506967	0.010040	NaN	0.000000	0.001572	0.001671	28.1089	0.091834	0.001914	47.9831	0.219518	-166.191	0.054515	0.504828	-0.574757	-0.576113	0.010040	47.9831	-0.574914	-3.754144E+7	-2.674494E-10	NaN
12	1.000000	0.514163	7.36516e+06	-39239.1	955.818	-29795.3	0.000000	0.000000	6.514947	0.008202	NaN	0.000000	0.001564	0.001634	28.1084	0.053973	0.001967	27.4413	135.515	-165.087	0.093389	0.512859	-0.566778	-0.568082	0.008202	27.4413	-0.567002	-2.918750E+7	-2.810043E-10	NaN
12	1.000000	0.522178	7.36516e+06	-39239.1	955.818	-29795.3	0.000000	0.000000	6.522962	0.038898	NaN	0.000000	0.001545	0.001682	28.1085	0.139282	0.001783	78.1295	-5.910308	-161.634	-0.007308	0.520852	-0.558763	-0.560089	0.038898	78.1295	-0.559137	-2.272137E+7	-1.711968E-9	NaN
12	1.000000	0.530193	7.36516e+06	-39239.1	955.817	-29795.3	0.000000	0.000000	6.530977	0.037944	NaN	0.000000	0.001584	0.001686	28.1071	0.039906	0.002032	19.6407	105.123	-165.776	0.007639	0.528870	-0.550748	-0.552071	0.037944	19.6407	-0.552197	-1.821310E+7	-2.083330E-9	NaN
12	1.000000	0.538206	7.36516e+06	-39239.1	955.819	-29795.3	0.000000	0.000000	6.538992	0.081676	NaN	0.000000	0.001574	0.001677	28.1066	0.041872	0.002002	20.9201	167.031	-159.68	0.092514	0.536861	-0.542735	-0.544080	0.081676	20.9201	-0.545663	-1.478683E+7	-5.523553E-9	NaN
12	1.000000	0.546163	7.36516e+06	-39239.1	955.818	-29795.3	0.000000	0.000000	6.546947	0.026011	NaN	0.000000	0.001562	0.001654	28.1074	0.166746	0.002039	81.7873	38.0097	-167.551	0.005240	0.544838	-0.534778	-0.536102	0.026011	81.7873	-0.535017	-1.052505E+7	-2.471371E-9	NaN
12	1.000000	0.554206	7.36516e+06	-39239.1	955.819	-29795.3	0.000000	0.000000	6.554987	-0.041167	NaN	0.000000	0.001563	0.001671	28.1073	0.074671	0.002119	35.2364	160.969	-163.56	0.037120	0.552879	-0.526735	-0.528062	-0.041167	35.2364	-0.525859	-7.85319e+06	5.242022E-9	NaN
12	1.000000	0.562194	7.36516e+06	-39239.1	955.818	-29795.3	0.000000	0.000000	6.562976	-0.031931	NaN	0.000000	0.001533	0.001698	28.1065	0.073312	0.001985	36.9393	-34.5209	-166.058	-0.068403	0.560911	-0.518747	-0.520029	-0.031931	36.9393	-0.518099	-6.12565e+06	5.212697E-9	NaN
12	1.000000	0.570210	7.36516e+06	-39239.1	955.818	-29795.3	0.000000	0.000000	6.570994	0.010777	NaN	0.000000	0.001558	0.001637	28.1082	0.126786	0.002022	62.7082	25.4308	-163.187	0.018274	0.568877	-0.510731	-0.512064	0.010777	62.7082	-0.510860	-4.85725e+06	-2.218781E-9	NaN
12	1.000000	0.578224	7.36516e+06	-39239.1	955.818	-29795.3	0.000000	0.000000	6.579009	0.036809	NaN	0.000000	0.001551	0.001653	28.1082	0.170143	0.002037	83.5171	30.7127	-165.671	0.125672	0.576919	-0.502717	-0.504022	0.036809	83.5171	-0.503047	-3.78027e+06	-9.737066E-9	NaN
12	1.000000	0.586171	7.36516e+06	-39239.1	955.819	-29795.3	0.000000	0.000000	6.586956	0.035217	NaN	0.000000	0.001569	0.001644	28.1084	0.131236	0.002052	63.9608	-140.435	-164.816	0.024791	0.584901	-0.494769	-0.496040	0.035217	63.9608	-0.495182	-2.93617e+06	-1.199412E-8	NaN
12	1.000000	0.594205	7.36516e+06	-39239.1	955.818	-29795.3	0.000000	0.000000	6.594985	-0.063075	NaN	0.000000	0.001576	0.001663	28.1094	0.109282	0.002025	53.9652	64.6317	-165.404	0.042565	0.592943	-0.486736	-0.487998	-0.063075	53.9652	-0.485860	-2.17528e+06	2.899638E-8	NaN
12	1.000000	0.602196	7.36516e+06	-39239.1	955.818	-29795.3	0.000000	0.000000	6.602981	0.054478	NaN	0.000000	0.001558	0.001670	28.1084	0.075286	0.002002	37.6059	162.659	-165.056	0.100833	0.600932	-0.478745	-0.480009	0.054478	37.6059	-0.479831	-1.7913e+06	-3.041268E-8	NaN
12	1.000000	0.610219	7.36516e+06	-39239.1	955.818	-29795.3	0.000000	0.000000	6.611003	0.022929	NaN	0.000000	0.001574	0.001598	28.108	0.051503	0.001966	26.1994	-151.89	-167.731	-0.008953	0.608939	-0.470722	-0.472002	0.022929	26.1994	-0.471378	-1.36376e+06	-1.681305E-8	NaN
12	1.000000	0.618240	7.36516e+06	-39239.1	955.819	-29795.3	0.000000	0.000000	6.619025	0.042877	NaN	0.000000	0.001553	0.001660	28.1086	0.121031	0.001869	64.7524	-2.574824	-162.819	0.050528	0.616875	-0.462701	-0.464066	0.042877	64.7524	-0.463198	-1.04698e+06	-4.095283E-8	NaN
12	1.000000	0.626236	7.36516e+06	-39239.1	955.818	-29795.3	0.000000	0.000000	6.627019	-0.000864	NaN	0.000000	0.001539	0.001647	28.1079	0.055180	0.001964	28.0981	-143.996	-165.359	0.001684	0.624918	-0.454705	-0.456023	-0.000864	28.0981	-0.454682	-794762	1.086724E-9	NaN
12	1.000000	0.634214	7.36516e+06	-39239.1	955.818	-29795.3	0.000000	0.000000	6.634997	-0.022418	NaN	0.000000	0.001562	0.001645	28.1082	0.159182	0.002072	76.8286	137.974	-167.234	-0.042916	0.632897	-0.446727	-0.448043	-0.022418	76.8286	-0.446508	-609739	3.676615E-8	NaN
12	1.000000	0.642248	7.36516e+06	-39239.1	955.819	-29795.3	0.000000	0.000000	6.643033	0.032757	NaN	0.000000	0.001589	0.001629	28.1075	0.136340	0.001970	69.1993	-9.763681	-166.708	0.038142	0.640955	-0.438692	-0.439986	0.032757	69.1993	-0.439047	-478540	-6.845185E-8	NaN
12	1.000000	0.650204	7.36516e+06	-39239.1	955.819	-29795.3	0.000000	0.000000	6.650987	0.004032	NaN	0.000000	0.001594	0.001625	28.1086	0.121421	0.002045	59.3851	126.665	-163.093	0.015947	0.648941	-0.430737	-0.432000	0.004032	59.3851	-0.430788	-365766	-1.102388E-8	NaN
12	1.000000	0.658236	7.36516e+06	-39239.1	955.818	-29795.3	0.000000	0.000000	6.659020	0.019618	NaN	0.000000	0.001604	0.001622	28.109	0.050655	0.002186	23.1697	-83.2431	-163.978	0.055547	0.656843	-0.422705	-0.424098	0.019618	23.1697	-0.423340	-286920	-6.837612E-8	NaN
12	1.000000	0.666209	7.36516e+06	-39239.1	955.819	-29795.3	0.000000	0.000000	6.666991	-0.026821	NaN	0.000000	0.001552	0.001654	28.1087	0.067154	0.002053	32.7047	71.4028	-162.395	-0.002223	0.664895	-0.414732	-0.416046	-0.026821	32.7047	-0.414117	-212281	1.263476E-7	NaN
12	1.000000	0.674234	7.36516e+06	-39239.1	955.819	-29795.3	0.000000	0.000000	6.675019	0.038459	NaN	0.000000	0.001569	0.001636	28.1085	0.046280	0.001969	23.4984	20.5062	-164.307	-0.013554	0.672948	-0.406707	-0.407992	0.038459	23.4984	-0.407934	-173387	-2.218128E-7	NaN
12	1.000000	0.682264	7.36516e+06	-39239.1	955.819	-29795.3	0.000000	0.000000	6.683046	-0.017754	NaN	0.000000	0.001634	0.001634	28.1078	0.130915	0.002017	64.9026	54.1205	-164.73	-0.023437	0.680918	-0.398677	-0.400023	-0.017754	64.9026	-0.398472	-127115	1.396661E-7	NaN
12	1.000000	0.690239	7.36516e+06	-39239.1	955.817	-29795.3	0.000000	0.000000	6.691020	-0.057957	NaN	0.000000	0.001672	0.001676	28.1075	0.070836	0.001846	38.365	-94.7976	-163.795	-0.038357	0.688935	-0.390702	-0.392006	-0.057957	38.365	-0.389569	-94840.8	6.110997E-7	NaN
12	1.000000	0.698225	7.36516e+06	-39239.1	955.819	-29795.3	0.000000	0.000000	6.699009	0.021609	NaN	0.000000	0.001633	0.001673	28.1068	0.133144	0.002034	65.4733	-156.199	-165.263	0.011115	0.696917	-0.382716	-0.384024	0.021609	65.4733	-0.382963	-76277.3	-2.832892E-7	NaN
12	1.000000	0.706238	7.36516e+06	-39239.1	955.818	-29795.3	0.000000	0.000000	6.707021	0.008147	NaN	0.000000	0.001650	0.001639	28.1087	0.047677	0.002021	23.5947	-33.9245	-166.733	0.057106	0.704917	-0.374703	-0.376024	0.008147	23.5947	-0.374962	-58550.4	-1.391474E-7	NaN
12	1.000000	0.714253	7.36516e+06	-39239.1	955.818	-29795.3	0.000000	0.000000	6.715036	-0.001350	NaN	0.000000	0.001654	0.001627	28.1106	0.022157	0.001998	11.0894	10.6812	-163.744	-0.006072	0.712940	-0.366688	-0.368001	-0.001350	11.0894	-0.366596	-44369.1	3.043158E-8	NaN
12	1.000000	0.722284	7.36516e+06	-39239.1	955.818	-29795.3	0.000000	0.000000	6.723069	0.056709	NaN	0.000000	0.001649	0.001622	28.1069	0.041108	0.002047	20.0823	35.1885	-163.972	0.011045	0.720958	-0.358657	-0.359983	0.056709	20.0823	-0.360775	-36563.1	-1.550991E-6	NaN
12	1.000000	0.730282	7.36516e+06	-39239.1	955.818	-29795.3	0.000000	0.000000	6.731064	-0.035717	NaN	0.000000	0.001610	0.001638	28.1077	0.077366	0.001973	39.2085	168.336	-167.713	-0.065136	0.728970	-0.350659	-0.351971	-0.035717	39.2085	-0.349976	-25506.5	1.400309E-6	NaN
12	1.000000	0.738256	7.36516e+06	-39239.1	955.818	-29795.3	0.000000	0.000000	6.739038	-0.021966	NaN	0.000000	0.001590	0.001616	28.107	0.094326	0.001918	49.1791	-150.684	-166.213	0.015922	0.736948	-0.342685	-0.343992	-0.021966	49.1791	-0.342350	-19760	1.111630E-6	NaN
12	1.000000	0.746269	7.36516e+06	-39239.1	955.818	-29795.3	0.000000	0.000000	6.747051	-0.022097	NaN	0.000000	0.001580	0.001639	28.1076	0.062462	0.002126	29.3748	-148.922	-164.073	0.040940	0.745016	-0.334672	-0.335925	-0.022097	29.3748	-0.334108	-14981.5	1.474924E-6	NaN
12	1.000000	0.754290	7.36516e+06	-39239.1	955.817	-29795.3	0.000000	0.000000	6.755072	-0.014924	NaN	0.000000	0.001561	0.001630	28.1074	0.029629	0.002066	14.3397	76.8492	-165.332	0.056039	0.752977	-0.326651	-0.327964	-0.014924	14.3397	-0.325871	-11348	1.315128E-6	NaN
12	1.000000	0.762289	7.36516e+06	-39239.1	955.818	-29795.3	0.000000	0.000000	6.763074	0.041073	NaN	0.000000	0.001586	0.001652	28.1071	0.057489	0.001936	29.6977	10.5318	-167.509	0.051802	0.760970	-0.318652	-0.319971	0.041073	29.6977	-0.319689	-9205.91	-4.461585E-6	NaN
12	1.000000	0.770301	7.36516e+06	-39239.1	955.818	-29795.3	0.000000	0.000000	6.771082	-0.045742	NaN	0.000000	0.001577	0.001630	28.1067	0.034165	0.002033	16.8053	-171.792	-163.275	0.032446	0.769004	-0.310640	-0.311937	-0.045742	16.8053	-0.308599	-6314.08	7.244520E-6	NaN
12	1.000000	0.778316	7.36516e+06	-39239.1	955.817	-29795.3	0.000000	0.000000	6.779099	0.002465	NaN	0.000000	0.001589	0.001618	28.1062	0.063179	0.001957	32.2899	-73.7947	-163.885	0.037631	0.776950	-0.302625	-0.303991	0.002465	32.2899	-0.302682	-5158.57	-4.778623E-7	NaN
12	1.000000	0.786316	7.36516e+06	-39239.1	955.819	-29795.3	0.000000	0.000000	6.787094	-0.123335	NaN	0.000000	0.001554	0.001634	28.1058	0.083135	0.002007	41.4234	163.035	-163.176	-0.094178	0.785005	-0.294625	-0.295936	-0.123335	41.4234	-0.292392	-3623.31	3.403922E-5	NaN
12	1.000000	0.794298	7.36516e+06	-39239.1	955.817	-29795.3	0.000000	0.000000	6.795082	0.043357	NaN	0.000000	0.001549	0.001636	28.1065	0.047710	0.002004	23.8082	125.116	-164.398	0.078437	0.792968	-0.286643	-0.287973	0.043357	23.8082	-0.288009	-3114.98	-1.391897E-5	NaN
12	1.000000	0.802314	7.36516e+06	-39239.1	955.818	-29795.3	0.000000	0.000000	6.803099	0.043928	NaN	0.000000	0.001549	0.001631	28.1059	0.131203	0.002108	62.2431	-104.148	-163.844	0.035693	0.801042	-0.278627	-0.279899	0.043928	62.2431	-0.279156	-2292.12	-1.916477E-5	NaN
12	1.000000	0.810293	7.36516e+06	-39239.1	955.819	-29795.3	0.000000	0.000000	6.811078	0.055187	NaN	0.000000	0.001564	0.001701	28.1074	0.042009	0.002101	19.995	8.259872	-167.766	0.083801	0.809003	-0.270648	-0.271938	0.055187	19.995	-0.272718	-1831.55	-3.013114E-5	NaN
12	1.000000	0.818291	7.36516e+06	-39239.1	955.818	-29795.3	0.000000	0.000000	6.819074	-0.008394	NaN	0.000000	0.001564	0.001641	28.1063	0.036356	0.001865	19.4884	179.421	-164.765	0.055408	0.816994	-0.262650	-0.263947	-0.008394	19.4884	-0.262327	-1272.17	6.598202E-6	NaN
12	1.000000	0.826312	7.36516e+06	-39239.1	955.819	-29795.3	0.000000	0.000000	6.827095	-0.006211	NaN	0.000000	0.001550	0.001637	28.1062	0.054272	0.001931	28.1055	-124.551	-164.209	0.059449	0.825007	-0.254629	-0.255934	-0.006211	28.1055	-0.254463	-963.492	6.445944E-6	NaN
12	1.000000	0.834294	7.36516e+06	-39239.1	955.818	-29795.3	0.000000	0.000000	6.835076	-0.017416	NaN	0.000000	0.001574	0.001612	28.1063	0.013295	0.001953	6.806438	104.935	-167.412	-0.107760	0.832957	-0.246647	-0.247984	-0.017416	6.806438	-0.244728	-681.121	2.556953E-5	NaN
12	1.000000	0.842335	7.36516e+06	-39239.1	955.818	-29795.3	0.000000	0.000000	6.843117	-0.015125	NaN	0.000000	0.001580	0.001667	28.1068	0.106264	0.001944	54.6635	-52.3369	-166.74	0.013913	0.840973	-0.238606	-0.239968	-0.015125	54.6635	-0.238398	-542.644	2.787294E-5	NaN
12	1.000000	0.850305	7.36516e+06	-39239.1	955.819	-29795.3	0.000000	0.000000	6.851091	0.058862	NaN	0.000000	0.001543	0.001637	28.1061	0.061664	0.002107	29.2691	-17.9145	-161.887	-0.043362	0.849019	-0.230635	-0.231922	0.058862	29.2691	-0.232144	-432.839	-0.000136	NaN
12	1.000000	0.858301	7.36516e+06	-39239.1	955.818	-29795.3	0.000000	0.000000	6.859088	0.100961	NaN	0.000000	0.001537	0.001619	28.1054	0.056815	0.002000	28.4059	-83.7384	-163.992	0.050975	0.857015	-0.222640	-0.223926	0.100961	28.4059	-0.225306	-337.433	-0.000299	NaN
12	1.000000	0.866311	7.36516e+06	-39239.1	955.818	-29795.3	0.000000	0.000000	6.867093	-0.029896	NaN	0.000000	0.001519	0.001631	28.1074	0.056535	0.002128	26.5694	49.8804	-163.703	-0.025025	0.864980	-0.214630	-0.215961	-0.029896	26.5694	-0.213786	-220.783	0.000135	NaN
12	1.000000	0.874306	7.36516e+06	-39239.1	955.818	-29795.3	0.000000	0.000000	6.875089	-0.010327	NaN	0.000000	0.001558	0.001655	28.1064	0.050856	0.001918	26.5105	-39.785	-165.829	-0.033458	0.873000	-0.206635	-0.207941	-0.010327	26.5105	-0.206343	-167.278	6.173662E-5	NaN
12	1.000000	0.882315	7.36516e+06	-39239.1	955.819	-29795.3	0.000000	0.000000	6.883098	0.003868	NaN	0.000000	0.001552	0.001668	28.1063	0.048099	0.002206	21.8023	-84.6283	-164.788	0.001114	0.881072	-0.198626	-0.199869	0.003868	21.8023	-0.198759	-125.685	-3.077887E-5	NaN
12	1.000000	0.890347	7.36516e+06	-39239.1	955.818	-29795.3	0.000000	0.000000	6.891131	0.029524	NaN	0.000000	0.001570	0.001669	28.1078	0.054381	0.001977	27.5061	-92.9378	-166.487	0.038096	0.888978	-0.190594	-0.191962	0.029524	27.5061	-0.191399	-94.9241	-0.000311	NaN
12	1.000000	0.898324	7.36516e+06	-39239.1	955.818	-29795.3	0.000000	0.000000	6.899108	0.013066	NaN	0.000000	0.001547	0.001636	28.1071	0.023712	0.001991	11.9077	-162.972	-161.93	-0.001771	0.897016	-0.182617	-0.183925	0.013066	11.9077	-0.183440	-69.7906	-0.000187	NaN
12	1.000000	0.906315	7.36516e+06	-39239.1	955.817	-29795.3	0.000000	0.000000	6.907101	0.074351	NaN	0.000000	0.001535	0.001641	28.1075	0.161208	0.002113	76.3092	-86.2262	-166.658	0.070037	0.904998	-0.174626	-0.175943	0.074351	76.3092	-0.175357	-50.8293	-0.001463	NaN
12	1.000000	0.914341	7.36516e+06	-39239.1	955.818	-29795.3	0.000000	0.000000	6.915126	0.047936	NaN	0.000000	0.001549	0.001635	28.1085	0.038118	0.002124	17.942	-101.711	-167.744	0.015737	0.913022	-0.166600	-0.167919	0.047936	17.942	-0.168604	-38.845	-0.001234	NaN
12	1.000000	0.922330	7.36516e+06	-39239.1	955.819	-29795.3	0.000000	0.000000	6.923112	-0.035444	NaN	0.000000	0.001564	0.001690	28.1078	0.046369	0.001809	25.6303	-111.392	-166.046	-0.002609	0.921027	-0.158611	-0.159914	-0.035444	25.6303	-0.157573	-24.8164	0.001428	NaN
12	1.000000	0.930353	7.36516e+06	-39239.1	955.818	-29795.3	0.000000	0.000000	6.931140	0.104434	NaN	0.000000	0.001562	0.001645	28.107	0.070425	0.001925	36.5934	-132.842	-162.055	0.029909	0.929029	-0.150588	-0.151912	0.104434	36.5934	-0.152729	-20.3042	-0.005143	NaN
12	1.000000	0.938327	7.36516e+06	-39239.1	955.818	-29795.3	0.000000	0.000000	6.939110	-0.002981	NaN	0.000000	0.001575	0.001640	28.1058	0.108336	0.002040	53.0969	-179.34	-163.41	-0.038767	0.937096	-0.142614	-0.143845	-0.002981	53.0969	-0.142572	-13.2156	0.000226	NaN
12	1.000000	0.946346	7.36516e+06	-39239.1	955.818	-29795.3	0.000000	0.000000	6.947131	0.032857	NaN	0.000000	0.001565	0.001657	28.1061	0.039458	0.002035	19.3871	-44.7962	-165.744	0.016512	0.945034	-0.134595	-0.135907	0.032857	19.3871	-0.135866	-9.880781	-0.003325	NaN
12	1.000000	0.954343	7.36516e+06	-39239.1	955.818	-29795.3	0.000000	0.000000	6.955125	-0.030160	NaN	0.000000	0.001582	0.001682	28.1062	0.069961	0.002030	34.4573	123.299	-166.228	-0.010537	0.953040	-0.126598	-0.127901	-0.030160	34.4573	-0.125942	-6.347358	0.004752	NaN
12	1.000000	0.962350	7.36516e+06	-39239.1	955.818	-29795.3	0.000000	0.000000	6.963135	0.040579	NaN	0.000000	0.001551	0.001672	28.106	0.098368	0.002025	48.5678	12.2763	-166.223	0.011219	0.961044	-0.118591	-0.119897	0.040579	48.5678	-0.119217	-4.658653	-0.008710	NaN
12	1.000000	0.970367	7.36516e+06	-39239.1	955.819	-29795.3	0.000000	0.000000	6.971150	-0.022629	NaN	0.000000	0.001563	0.001685	28.1078	0.171185	0.001965	87.111	108.986	-165.296	-0.008254	0.969062	-0.110574	-0.111879	-0.022629	87.111	-0.110379	-3.060913	0.007393	NaN
12	1.000000	0.978363	7.36516e+06	-39239.1	955.819	-29795.3	0.000000	0.000000	6.979146	0.003986	NaN	0.000000	0.001571	0.001657	28.1083	0.014080	0.002023	6.958758	-88.9963	-166.585	-0.003292	0.977029	-0.102578	-0.103912	0.003986	6.958758	-0.103007	-2.127722	-0.001873	NaN
12	1.000000	0.986356	7.36516e+06	-39239.1	955.818	-29795.3	0.000000	0.000000	6.987139	-0.001033	NaN	0.000000	0.001581	0.001656	28.1076	0.063482	0.001982	32.0333	123.142	-164.655	-0.007202	0.985088	-0.094585	-0.095853	-0.001033	32.0333	-0.094561	-1.378457	0.000749	NaN
12	1.000000	0.994356	7.36516e+06	-39239.1	955.818	-29795.3	0.000000	0.000000	6.995140	0.016885	NaN	0.000000	0.001568	0.001687	28.1073	0.074689	0.002029	36.8189	92.392	-165.969	-0.047720	0.993085	-0.086585	-0.087856	0.016885	36.8189	-0.086929	-0.914274	-0.018468	NaN
12	1.000000	1.002353	7.36516e+06	-39239.1	955.819	-29795.3	0.000000	0.000000	7.003138	0.043645	NaN	0.000000	0.001583	0.001668	28.1065	0.025405	0.002087	12.1734	29.4276	-165.532	0.055637	1.001083	-0.078588	-0.079858	0.043645	12.1734	-0.081277	-0.666012	-0.065532	NaN
12	1.000000	1.010363	7.36516e+06	-39239.1	955.818	-29795.3	0.000000	0.000000	7.011146	0.013964	NaN	0.000000	0.001587	0.001660	28.1052	0.077079	0.001968	39.1653	-47.5866	-166.017	0.050652	1.009081	-0.070578	-0.071860	0.013964	39.1653	-0.070846	-0.359314	-0.038862	NaN
12	1.000000	1.018399	7.36516e+06	-39239.1	955.818	-29795.3	0.000000	0.000000	7.019182	0.001983	NaN	0.000000	0.001588	0.001668	28.1048	0.135610	0.001887	71.8744	131.052	-164.526	-0.018309	1.017089	-0.062542	-0.063852	0.001983	71.8744	-0.062562	-0.213006	-0.009308	NaN
12	1.000000	1.026364	7.36516e+06	-39239.1	955.818	-29795.3	0.000000	0.000000	7.027150	0.068608	NaN	0.000000	0.001578	0.001634	28.1048	0.081688	0.001925	42.444	11.5553	-165.6	0.047340	1.025079	-0.054577	-0.055862	0.068608	42.444	-0.055789	-0.135867	-0.504968	NaN
12	1.000000	1.034358	7.36516e+06	-39239.1	955.818	-29795.3	0.000000	0.000000	7.035143	0.038890	NaN	0.000000	0.001576	0.001683	28.1052	0.077366	0.001891	40.9095	-177.059	-164.934	0.073150	1.033032	-0.046583	-0.047909	0.038890	40.9095	-0.047296	-0.075528	-0.514904	NaN
12	1.000000	1.042398	7.36516e+06	-39239.1	955.819	-29795.3	0.000000	0.000000	7.043181	-0.005166	NaN	0.000000	0.001579	0.001670	28.1051	0.108036	0.002018	53.528	138.13	-163.733	0.052668	1.041005	-0.038543	-0.039936	-0.005166	53.528	-0.038471	-0.040649	0.127086	NaN
12	1.000000	1.050342	7.36516e+06	-39239.1	955.817	-29795.3	0.000000	0.000000	7.051125	0.002726	NaN	0.000000	0.001547	0.001661	28.1067	0.096836	0.002098	46.1524	154.396	-166.262	-0.013666	1.049109	-0.030599	-0.031832	0.002726	46.1524	-0.030643	-0.023986	-0.113629	NaN
12	1.000000	1.058414	7.36516e+06	-39239.1	955.817	-29795.3	0.000000	0.000000	7.059195	-0.035380	NaN	0.000000	0.001541	0.001649	28.1058	0.054998	0.002123	25.9066	-5.595433	-165.361	0.009296	1.057061	-0.022527	-0.023880	-0.035380	25.9066	-0.021503	-0.013716	2.579542	NaN
12	1.000000	1.066381	7.36516e+06	-39239.1	955.819	-29795.3	0.000000	0.000000	7.067164	-0.014639	NaN	0.000000	0.001549	0.001642	28.1053	0.091387	0.001991	45.8998	-176.335	-164.535	0.004811	1.065164	-0.014560	-0.015777	-0.014639	45.8998	-0.014320	-0.008872	1.650047	NaN
12	1.000000	1.074396	7.36516e+06	-39239.1	955.818	-29795.3	0.000000	0.000000	7.075179	-0.011625	NaN	0.000000	0.001555	0.001662	28.1052	0.046019	0.001949	23.6081	-0.627900	-167.767	0.044205	1.073107	-0.006545	-0.007834	-0.011625	23.6081	-0.006176	-0.004143	2.805721	NaN
12	1.000000	1.082410	7.36516e+06	-39239.1	955.818	-29795.3	0.000000	0.000000	7.083221	0.670080	NaN	0.000000	0.001591	0.001650	28.106	1.030618	0.002076	496.494	10.0205	-163.467	0.068937	1.081035	0.001469	9.397587E-5	0.670080	496.494	0.000457	0.000345	1944.36	24435
12	2.000000	1.089861	7.36516e+06	-39239.1	955.818	-29795.3	0.000000	0.000000	7.090981	8.192246	NaN	0.000000	0.001556	0.001683	28.1048	8.468292	0.001763	4803.46	12.8915	-175.123	7.351964	1.088998	0.008920	0.008058	8.192246	4803.46	0.007641	0.006676	1227.16	53712.6
12	2.000000	1.092022	7.36516e+06	-39239.1	955.819	-29795.3	0.000000	0.000000	7.093192	9.416605	NaN	0.000000	0.001558	0.001657	28.1037	10.192	0.001600	6368.35	3.211240	-169.849	9.227920	1.091750	0.011082	0.010809	9.416605	6368.35	0.009973	0.009151	1029.02	60822.7
12	2.000000	1.094083	7.36516e+06	-39239.1	955.819	-29795.2	0.000000	0.000000	7.095365	12.1283	NaN	0.000000	0.001545	0.001683	28.1048	13.0794	0.001777	7358.44	7.170607	-174.017	11.9966	1.093709	0.013142	0.012768	12.1283	7358.44	0.011906	0.011378	1065.94	63026.9
12	2.000000	1.095994	7.36516e+06	-39239.1	955.818	-29795.3	0.000000	0.000000	7.097345	13.8219	NaN	0.000000	0.001528	0.001673	28.1052	14.5782	0.001764	8263.53	8.969049	-177.5	13.5724	1.095706	0.015053	0.014765	13.8219	8263.53	0.013798	0.013716	1007.7	64464.7
12	2.000000	1.097960	7.36516e+06	-39239.1	955.819	-29795.3	0.000000	0.000000	7.099400	15.9744	NaN	0.000000	0.001573	0.001670	28.1048	16.5513	0.001832	9035.32	5.665676	-174.707	14.8288	1.097610	0.017019	0.016669	15.9744	9035.32	0.015693	0.016221	984.806	64815.7
12	2.000000	1.099948	7.36516e+06	-39239.1	955.819	-29795.3	0.000000	0.000000	7.101719	24.035	NaN	0.000000	0.001585	0.001669	28.1055	18.3127	0.001779	10294.4	1.192928	-171.724	21.8574	1.099713	0.019007	0.018772	24.035	10294.4	0.017256	0.018412	1305.39	69314.2
12	2.000000	1.101959	7.36516e+06	-39239.1	955.818	-29795.3	0.000000	0.000000	7.103704	23.4052	NaN	0.000000	0.001599	0.001688	28.1063	20.7675	0.001807	11491.5	3.877127	-175.481	21.8218	1.101647	0.021019	0.020706	23.4052	11491.5	0.019491	0.021749	1076.16	71192.4
12	2.000000	1.103974	7.36516e+06	-39239.1	955.819	-29795.3	0.000000	0.000000	7.105852	26.6536	NaN	0.000000	0.001561	0.001603	28.1064	22.7416	0.001851	12283	5.179345	-175.464	26.2066	1.103687	0.023033	0.022746	26.6536	12283	0.021405	0.024799	1074.8	71262.7
12	2.000000	1.106002	7.36516e+06	-39239.1	955.819	-29795.3	0.000000	0.000000	7.108095	31.8748	NaN	0.000000	0.001560	0.001606	28.1077	24.95	0.001933	12908.2	6.765920	-178.402	32.4899	1.105605	0.025061	0.024665	31.8748	12908.2	0.023209	0.027838	1145.02	70684.1
12	2.000000	1.107942	7.36516e+06	-39239.1	955.819	-29795.3	0.000000	0.000000	7.110269	37.5804	NaN	0.000000	0.001601	0.001606	28.107	26.516	0.001835	14451.7	6.185268	-179.177	37.3681	1.107650	0.027001	0.026709	37.5804	14451.7	0.025050	0.031107	1208.09	74861.8
12	2.000000	1.109907	7.36516e+06	-39239.1	955.819	-29795.3	0.000000	0.000000	7.112446	42.7283	NaN	0.000000	0.001605	0.001578	28.1057	28.0338	0.001884	14881.2	6.385404	-179.218	42.0016	1.109673	0.028966	0.028732	42.7283	14881.2	0.026813	0.034396	1242.25	73309.2
12	2.000000	1.111890	7.36516e+06	-39239.1	955.82	-29795.3	0.000000	0.000000	7.114768	50.9882	NaN	0.000000	0.001555	0.001624	28.106	29.0412	0.001727	16811.1	3.391859	-177.436	48.7109	1.111594	0.030949	0.030653	50.9882	16811.1	0.028674	0.038040	1340.37	78749.6
12	2.000000	1.113933	7.36516e+06	-39239.1	955.819	-29795.3	0.000000	0.000000	7.117076	57.4286	NaN	0.000000	0.001604	0.001607	28.1056	32.025	0.001846	17348.3	6.866203	179.995	56.4008	1.113599	0.032993	0.032659	57.4286	17348.3	0.030510	0.041807	1373.66	77518.4
12	2.000000	1.115869	7.36516e+06	-39239.1	955.82	-29795.3	0.000000	0.000000	7.119158	60.9936	NaN	0.000000	0.001582	0.001619	28.1056	33.443	0.001830	18279.2	6.368515	178.549	58.0329	1.115629	0.034928	0.034688	60.9936	18279.2	0.032425	0.045921	1328.23	77933.6
12	2.000000	1.117898	7.36516e+06	-39239.1	955.818	-29795.3	0.000000	0.000000	7.121424	66.7621	NaN	0.000000	0.001558	0.001597	28.1054	35.2683	0.001820	19379.3	3.711392	-179.722	64.4067	1.117627	0.036957	0.036686	66.7621	19379.3	0.034373	0.050296	1327.37	78948.2
12	2.000000	1.119945	7.36516e+06	-39239.1	955.819	-29795.3	0.000000	0.000000	7.123816	75.1469	NaN	0.000000	0.001555	0.001635	28.1054	36.8736	0.001834	20105	7.600053	177.013	75.6219	1.119627	0.039004	0.038686	75.1469	20105	0.036200	0.054578	1376.87	78626.4
12	2.000000	1.121901	7.36516e+06	-39239.1	955.819	-29795.3	0.000000	0.000000	7.126156	84.509	NaN	0.000000	0.001545	0.001624	28.1066	38.676	0.001808	21391.9	5.424089	178.187	83.6539	1.121586	0.040960	0.040645	84.509	21391.9	0.037997	0.058954	1433.47	80494.6
12	2.000000	1.123930	7.36516e+06	-39239.1	955.819	-29795.3	0.000000	0.000000	7.128585	94.2311	NaN	0.000000	0.001570	0.001589	28.1063	41.2844	0.001908	21635.1	5.921063	178.634	94.2208	1.123606	0.042989	0.042665	94.2311	21635.1	0.039722	0.063312	1488.36	78557.7
12	2.000000	1.125916	7.36516e+06	-39239.1	955.82	-29795.3	0.000000	0.000000	7.130781	99.3501	NaN	0.000000	0.001548	0.001593	28.1062	42.5699	0.001770	24045.5	5.051084	177.398	99.5428	1.125618	0.044975	0.044677	99.3501	24045.5	0.041876	0.068966	1440.56	83654.4
12	2.000000	1.127923	7.36516e+06	-39239.1	955.82	-29795.3	0.000000	0.000000	7.133138	107.85	NaN	0.000000	0.001527	0.001583	28.1058	45.1633	0.001744	25897.4	7.432485	174.625	107.21	1.127618	0.046982	0.046678	107.85	25897.4	0.043859	0.074381	1449.96	86755.5
12	2.000000	1.129901	7.36516e+06	-39239.1	955.819	-29795.3	0.000000	0.000000	7.135549	118.4	NaN	0.000000	0.001559	0.001606	28.1053	45.0537	0.001644	27400.5	1.242718	-179.505	118.404	1.129600	0.048960	0.048659	118.4	27400.5	0.045719	0.079641	1486.67	88708
12	2.000000	1.131858	7.36516e+06	-39239.1	955.819	-29795.3	0.000000	0.000000	7.137758	124.511	NaN	0.000000	0.001557	0.001567	28.1044	49.4344	0.001794	27553.1	7.873780	173.603	122.857	1.131653	0.050918	0.050712	124.511	27553.1	0.047528	0.084927	1466.1	86381.7
12	2.000000	1.133870	7.36517e+06	-39239.1	955.82	-29795.3	0.000000	0.000000	7.140252	136.246	NaN	0.000000	0.001548	0.001574	28.1045	50.3757	0.001757	28675.4	2.394577	178.595	133.252	1.133530	0.052930	0.052589	136.246	28675.4	0.049366	0.090464	1506.08	87105.5
12	2.000000	1.135846	7.36517e+06	-39239.1	955.819	-29795.3	0.000000	0.000000	7.142759	149.168	NaN	0.000000	0.001559	0.001612	28.1046	51.7881	0.001706	30358.5	1.784923	178.738	146.512	1.135624	0.054905	0.054683	149.168	30358.5	0.051220	0.096221	1550.26	89416.5
12	2.000000	1.137918	7.36517e+06	-39239.1	955.82	-29795.3	0.000000	0.000000	7.145253	159.421	NaN	0.000000	0.001544	0.001600	28.1036	54.999	0.001768	31107.8	3.692588	176.823	161.539	1.137545	0.056978	0.056604	159.421	31107.8	0.053134	0.102346	1557.67	88840
12	2.000000	1.139917	7.36517e+06	-39239.1	955.819	-29795.3	0.000000	0.000000	7.147672	169.662	NaN	0.000000	0.001559	0.001588	28.1047	56.4444	0.001785	31627.6	10.1762	171.051	172.684	1.139546	0.058976	0.058605	169.662	31627.6	0.054953	0.108334	1566.1	87792.4
12	2.000000	1.141800	7.36517e+06	-39239.1	955.819	-29795.3	0.000000	0.000000	7.149967	179.676	NaN	0.000000	0.001553	0.001583	28.1047	59.1906	0.001877	31536.1	3.056826	177.922	175.194	1.141499	0.060859	0.060558	179.676	31536.1	0.056586	0.113853	1578.15	85390.4
12	2.000000	1.143943	7.36517e+06	-39239.1	955.82	-29795.3	0.000000	0.000000	7.152418	187.197	NaN	0.000000	0.001553	0.001600	28.1044	61.351	0.001811	33876.7	6.938150	174.031	190.508	1.143540	0.063002	0.062600	187.197	33876.7	0.058857	0.121742	1537.65	88706.1
12	2.000000	1.145829	7.36517e+06	-39239.1	955.819	-29795.3	0.000000	0.000000	7.154925	202.316	NaN	0.000000	0.001536	0.001598	28.1041	61.1686	0.001715	35662.9	3.199685	176.651	199.773	1.145481	0.064888	0.064540	202.316	35662.9	0.060633	0.128088	1579.52	91040.7
12	2.000000	1.147851	7.36517e+06	-39239.1	955.82	-29795.3	0.000000	0.000000	7.157297	210.82	NaN	0.000000	0.001533	0.001607	28.1041	65.3086	0.001885	34649.1	4.960105	174.684	207.649	1.147643	0.066910	0.066702	210.82	34649.1	0.062347	0.134357	1569.1	86364.5
12	2.000000	1.149817	7.36517e+06	-39239.1	955.82	-29795.3	0.000000	0.000000	7.159827	224.531	NaN	0.000000	0.001617	0.001586	28.1033	65.773	0.001819	36164	7.395712	171.332	220.052	1.149414	0.068876	0.068474	224.531	36164	0.064220	0.141373	1588.21	87875.2
12	2.000000	1.151793	7.36517e+06	-39239.1	955.819	-29795.3	0.000000	0.000000	7.162134	232.611	NaN	0.000000	0.001646	0.001581	28.1025	67.4051	0.001761	38285	3.126501	175.601	228.715	1.151626	0.070852	0.070685	232.611	38285	0.066295	0.149344	1557.55	90512.5
12	2.000000	1.153912	7.36517e+06	-39239.1	955.819	-29795.3	0.000000	0.000000	7.165054	252.101	NaN	0.000000	0.001640	0.001576	28.1032	70.2526	0.001863	37717.4	5.761041	173.947	250.801	1.153521	0.072971	0.072580	252.101	37717.4	0.067958	0.155880	1617.27	87280.9
12	2.000000	1.155906	7.36517e+06	-39239.1	955.819	-29795.3	0.000000	0.000000	7.167334	259.063	NaN	0.000000	0.001652	0.001602	28.1034	70.8218	0.001750	40478.7	0.373977	178.005	258.601	1.155604	0.074965	0.074663	259.063	40478.7	0.070165	0.164759	1572.38	91112.1
12	2.000000	1.157837	7.36517e+06	-39239.1	955.819	-29795.3	0.000000	0.000000	7.169949	275.678	NaN	0.000000	0.001649	0.001603	28.1028	72.85	0.001740	41878.8	5.857947	172.62	273.235	1.157460	0.076896	0.076519	275.678	41878.8	0.071959	0.172149	1601.39	92218
12	2.000000	1.159839	7.36517e+06	-39239.1	955.819	-29795.3	0.000000	0.000000	7.172589	291.209	NaN	0.000000	0.001637	0.001588	28.1034	74.5345	0.001820	40945.4	6.407383	172.088	288.452	1.159527	0.078898	0.078586	291.209	40945.4	0.073564	0.178888	1627.88	88447.9
12	2.000000	1.161816	7.36517e+06	-39239.1	955.819	-29795.3	0.000000	0.000000	7.174892	299.137	NaN	0.000000	0.001638	0.001582	28.1036	76.6048	0.001776	43129.7	6.176655	172.344	296.509	1.161559	0.080875	0.080618	299.137	43129.7	0.075674	0.187930	1591.75	90897.5
12	2.000000	1.163836	7.36517e+06	-39239.1	955.82	-29795.3	0.000000	0.000000	7.177718	318.748	NaN	0.000000	0.001631	0.001601	28.1039	77.603	0.001767	43921.7	2.477176	175.731	314.955	1.163457	0.082895	0.082517	318.748	43921.7	0.077453	0.195718	1628.61	90706.2
12	2.000000	1.165805	7.36517e+06	-39239.1	955.82	-29795.3	0.000000	0.000000	7.179966	325.557	NaN	0.000000	0.001636	0.001566	28.1031	78.8945	0.001803	43769.2	3.737496	174.391	323.814	1.165653	0.084864	0.084713	325.557	43769.2	0.079285	0.203897	1596.68	88559.9
12	2.000000	1.167823	7.36517e+06	-39239.1	955.819	-29795.3	0.000000	0.000000	7.182501	338.135	NaN	0.000000	0.001561	0.001592	28.1048	83.5525	0.001883	44378.7	5.491618	172.359	336.021	1.167567	0.086883	0.086626	338.135	44378.7	0.081168	0.212461	1591.51	87964.5
12	2.000000	1.169763	7.36517e+06	-39239.1	955.82	-29795.3	0.000000	0.000000	7.185020	352.217	NaN	0.000000	0.001545	0.001592	28.1047	83.2479	0.001807	46072.5	3.287381	174.22	346.995	1.169582	0.088822	0.088641	352.217	46072.5	0.083089	0.221369	1591.08	89465.6
12	2.000000	1.171927	7.36517e+06	-39239.1	955.819	-29795.3	0.000000	0.000000	7.187752	366.062	NaN	0.000000	0.001605	0.001616	28.103	86.0118	0.001756	48975	5.445680	171.719	369.478	1.171579	0.090986	0.090638	366.062	48975	0.085380	0.232218	1576.37	92853.9
12	2.000000	1.173826	7.36517e+06	-39239.1	955.82	-29795.3	0.000000	0.000000	7.190294	381.683	NaN	0.000000	0.001615	0.001616	28.1038	86.9357	0.001844	47149.5	2.382411	175.593	377.47	1.173546	0.092886	0.092606	381.683	47149.5	0.086814	0.239132	1596.12	88091
12	2.000000	1.175803	7.36517e+06	-39239.1	955.82	-29795.3	0.000000	0.000000	7.193078	401.331	NaN	0.000000	0.001648	0.001611	28.1032	89.276	0.001873	47668.9	7.115765	170.672	398.795	1.175510	0.094862	0.094570	401.331	47668.9	0.088547	0.247614	1620.79	87522.6
12	2.000000	1.177762	7.36517e+06	-39239.1	955.819	-29795.3	0.000000	0.000000	7.195474	411.958	NaN	0.000000	0.001639	0.001592	28.1038	90.5578	0.001846	49043.5	3.783227	173.684	406.732	1.177479	0.096821	0.096538	411.958	49043.5	0.090521	0.257441	1600.2	88311.2
12	2.000000	1.179884	7.36517e+06	-39239.1	955.82	-29795.3	0.000000	0.000000	7.198107	424.399	NaN	0.000000	0.001593	0.001582	28.1034	91.5268	0.001831	49986.6	4.477595	172.54	425.17	1.179489	0.098943	0.098548	424.399	49986.6	0.092575	0.267858	1584.42	88241.9
12	2.000000	1.181837	7.36517e+06	-39239.1	955.82	-29795.3	0.000000	0.000000	7.200981	446.799	NaN	0.000000	0.001610	0.001625	28.1049	93.858	0.001866	50295.5	5.168357	172.151	446.215	1.181455	0.100896	0.100514	446.799	50295.5	0.094234	0.276410	1616.44	87402.9
12	2.000000	1.183921	7.36517e+06	-39239.1	955.82	-29795.3	0.000000	0.000000	7.203517	457.815	NaN	0.000000	0.001593	0.001605	28.1058	95.7026	0.001828	52347.6	6.888333	170.252	458.725	1.183452	0.102980	0.102512	457.815	52347.6	0.096421	0.287882	1590.29	89138
12	2.000000	1.185858	7.36517e+06	-39239.1	955.82	-29795.3	0.000000	0.000000	7.206060	472.553	NaN	0.000000	0.001565	0.001621	28.1046	96.5273	0.001824	52916.6	4.301391	173.293	472.577	1.185386	0.104917	0.104445	472.553	52916.6	0.098219	0.297475	1588.55	88642.1
12	2.000000	1.187805	7.36517e+06	-39239.1	955.82	-29795.3	0.000000	0.000000	7.208266	478.857	NaN	0.000000	0.001539	0.001612	28.1046	98.9765	0.001809	54724.4	5.095329	171.019	476.278	1.187674	0.106864	0.106734	478.857	54724.4	0.100302	0.308768	1550.86	89978.4
12	2.000000	1.188219	7.36517e+06	-39239.1	955.82	-29795.3	0.000000	0.000000	7.209144	490.171	NaN	0.000000	0.001538	0.001598	28.1326	98.5124	0.001796	54847.4	4.999702	-8.676037	480.873	1.187870	0.107278	0.106929	490.171	54847.4	0.100575	0.310265	1579.85	89962.8