File: remote_trans/data/nanoindenter/0828-1/data/Data_2025-08-06,11h17m57s/2025-07-22_16-23-58_1_582.txt
2025-07-22, 16:23:58, 1
Index	Phase	Displacement	Time	Pos X	Pos Y	Pos Z	Rot A	Rot B	Piezo Z	Force A	Force B	Gripper	Voltage A	Voltage B	Temperature	Amplitude force	Amplitude pos	Stiffness	Phase shift	Phase excitation	Force A raw	Displacement raw	HMax	HMax raw	Real Force	Real Stiffness	Contact Depth	Area	Hardness	Reduced Mod.
[#]	[#]	[um]	[s]	[um]	[um]	[um]	[m°]	[m°]	[um]	[uN]	[uN]	[V]	[V]	[V]	[°C]	[uN]	[um]	[N/m]	[°]	[°]	[uN]	[um]	[um]	[um]	[uN]	[N/m]	[um]	[um^2]	[MPa]	[MPa]
582	1.000000	0.002032	7.37074e+06	-47989.1	1005.82	-29764	0.000000	0.000000	6.002814	-0.013317	NaN	0.000000	0.001623	0.001761	28.0792	0.002139	0.001096	1.951831	178.576	-164.087	0.030648	0.000700	-1.093218	-1.094550	-0.013317	1.951831	-1.088101	-3.469893E+14	3.837845E-17	NaN
582	1.000000	0.012033	7.37074e+06	-47989.1	1005.82	-29764	0.000000	0.000000	6.012817	0.010394	NaN	0.000000	0.001607	0.001746	28.0793	0.172804	0.001292	133.795	69.07	17.4426	0.019463	0.010644	-1.083217	-1.084606	0.010394	133.795	-1.083275	-2.988881E+14	-3.477403E-17	NaN
582	1.000000	0.021967	7.37074e+06	-47989.1	1005.82	-29764	0.000000	0.000000	6.022751	0.032586	NaN	0.000000	0.001564	0.001761	28.0792	0.005568	0.001707	3.261965	-127.423	-163.594	0.025366	0.020653	-1.073283	-1.074597	0.032586	3.261965	-1.080775	-2.766517E+14	-1.177879E-16	NaN
582	1.000000	0.031975	7.37074e+06	-47989.1	1005.82	-29764	0.000000	0.000000	6.032759	0.018073	NaN	0.000000	0.001569	0.001756	28.0789	0.042272	0.002010	21.0286	-173.658	16.7728	0.006609	0.030612	-1.063275	-1.064638	0.018073	21.0286	-1.063919	-1.642438E+14	-1.100381E-16	NaN
582	1.000000	0.041951	7.37074e+06	-47989.1	1005.82	-29764	0.000000	0.000000	6.042734	-0.014713	NaN	0.000000	0.001562	0.001728	28.079	0.044699	0.001935	23.1005	-52.8258	-166.407	0.014230	0.040697	-1.053299	-1.054553	-0.014713	23.1005	-1.052821	-1.165019E+14	1.262887E-16	NaN
582	1.000000	0.051974	7.37074e+06	-47989.1	1005.82	-29764	0.000000	0.000000	6.052759	0.032238	NaN	0.000000	0.001573	0.001727	28.0812	0.069085	0.001974	35.002	-24.9181	16.2922	0.005646	0.050598	-1.043276	-1.044652	0.032238	35.002	-1.043967	-8.857306E+13	-3.639678E-16	NaN
582	1.000000	0.061966	7.37074e+06	-47989.1	1005.82	-29764	0.000000	0.000000	6.062751	0.036815	NaN	0.000000	0.001587	0.001730	28.08	0.066369	0.001900	34.9227	-73.0321	-163.412	0.055164	0.060659	-1.033284	-1.034591	0.036815	34.9227	-1.034074	-6.520488E+13	-5.646080E-16	NaN
582	1.000000	0.071975	7.37074e+06	-47989.1	1005.82	-29764	0.000000	0.000000	6.072757	-0.016898	NaN	0.000000	0.001550	0.001735	28.0802	0.100758	0.002046	49.2411	-64.3816	16.3935	0.033866	0.070600	-1.023275	-1.024650	-0.016898	49.2411	-1.023018	-4.629726E+13	3.649958E-16	NaN
582	1.000000	0.081965	7.37074e+06	-47989.1	1005.82	-29764	0.000000	0.000000	6.082749	0.027144	NaN	0.000000	0.001600	0.001744	28.0801	0.082235	0.002013	40.8454	-155.102	-163.685	0.068217	0.080670	-1.013285	-1.014580	0.027144	40.8454	-1.013783	-3.477772E+13	-7.804921E-16	NaN
582	1.000000	0.091979	7.37074e+06	-47989.1	1005.82	-29764	0.000000	0.000000	6.092764	0.048418	NaN	0.000000	0.001576	0.001712	28.08	0.073773	0.002036	36.2342	62.0723	10.3831	0.009268	0.090552	-1.003272	-1.004698	0.048418	36.2342	-1.004274	-2.590025E+13	-1.869413E-15	NaN
582	1.000000	0.101994	7.37074e+06	-47989.1	1005.82	-29764	0.000000	0.000000	6.102776	-0.013252	NaN	0.000000	0.001577	0.001737	28.0799	0.009390	0.002071	4.534775	73.1977	-162.108	-0.029952	0.100628	-0.993256	-0.994622	-0.013252	4.534775	-0.991065	-1.719687E+13	7.706085E-16	NaN
582	1.000000	0.111973	7.37074e+06	-47989.1	1005.82	-29764	0.000000	0.000000	6.112757	0.035451	NaN	0.000000	0.001580	0.001772	28.0802	0.006805	0.002041	3.333478	-10.8787	16.1051	0.104726	0.110601	-0.983277	-0.984649	0.035451	3.333478	-0.991254	-1.729796E+13	-2.049430E-15	NaN
582	1.000000	0.122013	7.37074e+06	-47989.1	1005.82	-29764	0.000000	0.000000	6.122796	0.005606	NaN	0.000000	0.001614	0.001741	28.0798	0.075905	0.002008	37.8017	-104.398	-166.029	-0.014432	0.120705	-0.973237	-0.974545	0.005606	37.8017	-0.973348	-9.926279E+12	-5.647565E-16	NaN
582	1.000000	0.131991	7.37074e+06	-47989.1	1005.82	-29764	0.000000	0.000000	6.132772	-0.064318	NaN	0.000000	0.001576	0.001741	28.0801	0.059481	0.001908	31.1728	-132.67	15.9875	-0.062982	0.130617	-0.963259	-0.964633	-0.064318	31.1728	-0.961711	-6.917344E+12	9.298090E-15	NaN
582	1.000000	0.142009	7.37074e+06	-47989.1	1005.82	-29764	0.000000	0.000000	6.142792	0.004069	NaN	0.000000	0.001586	0.001751	28.08	0.029697	0.002051	14.4776	-126.136	-166.477	0.071730	0.140697	-0.953241	-0.954554	0.004069	14.4776	-0.953452	-5.352743E+12	-7.600880E-16	NaN
582	1.000000	0.152016	7.37074e+06	-47989.1	1005.82	-29764	0.000000	0.000000	6.152801	0.040685	NaN	0.000000	0.001572	0.001750	28.0804	0.090561	0.002052	44.1346	15.0384	18.1131	0.070441	0.150630	-0.943234	-0.944620	0.040685	44.1346	-0.943925	-3.981930E+12	-1.021744E-14	NaN
582	1.000000	0.162005	7.37074e+06	-47989.1	1005.82	-29764	0.000000	0.000000	6.162788	-0.019471	NaN	0.000000	0.001589	0.001736	28.0801	0.076979	0.001853	41.5532	178.772	-169.883	-0.046887	0.160696	-0.933245	-0.934554	-0.019471	41.5532	-0.932893	-2.826467E+12	6.888888E-15	NaN
582	1.000000	0.172026	7.37074e+06	-47989.1	1005.82	-29764	0.000000	0.000000	6.172809	-0.012206	NaN	0.000000	0.001605	0.001731	28.0802	0.041345	0.001983	20.8539	2.922573	14.4308	0.000849	0.170618	-0.923224	-0.924632	-0.012206	20.8539	-0.922785	-2.064467E+12	5.912354E-15	NaN
582	1.000000	0.181996	7.37074e+06	-47989.1	1005.82	-29764	0.000000	0.000000	6.182780	0.013143	NaN	0.000000	0.001645	0.001727	28.0789	0.014074	0.002010	7.001623	0.236435	-165.489	0.064008	0.180697	-0.913254	-0.914553	0.013143	7.001623	-0.914662	-1.603700E+12	-8.195450E-15	NaN
582	1.000000	0.192025	7.37074e+06	-47989.1	1005.82	-29764	0.000000	0.000000	6.192809	0.025842	NaN	0.000000	0.001623	0.001735	28.079	0.060432	0.002011	30.0507	-128.398	13.1914	0.071146	0.190719	-0.903225	-0.904531	0.025842	30.0507	-0.903870	-1.146464E+12	-2.254091E-14	NaN
582	1.000000	0.202015	7.37074e+06	-47989.1	1005.82	-29764	0.000000	0.000000	6.202798	-0.021976	NaN	0.000000	0.001558	0.001729	28.0789	0.075571	0.001995	37.8799	-179.8	-161.906	-0.025182	0.200701	-0.893235	-0.894549	-0.021976	37.8799	-0.892800	-8.123780E+11	2.705145E-14	NaN
582	1.000000	0.212020	7.37074e+06	-47989.1	1005.82	-29764	0.000000	0.000000	6.212805	0.047854	NaN	0.000000	0.001592	0.001752	28.079	0.045251	0.002026	22.3343	9.182022	13.4149	-0.022004	0.210658	-0.883230	-0.884593	0.047854	22.3343	-0.884837	-6.340362E+11	-7.547503E-14	NaN
582	1.000000	0.222021	7.37074e+06	-47989.1	1005.82	-29764	0.000000	0.000000	6.222803	-0.022481	NaN	0.000000	0.001577	0.001717	28.0796	0.018554	0.002061	9.002528	-150.755	-163.387	-0.026490	0.220738	-0.873229	-0.874512	-0.022481	9.002528	-0.871356	-4.166669E+11	5.395320E-14	NaN
582	1.000000	0.232045	7.37074e+06	-47989.1	1005.82	-29764	0.000000	0.000000	6.232831	0.065214	NaN	0.000000	0.001583	0.001722	28.0786	0.092261	0.002140	43.1179	33.0952	16.4961	0.066493	0.230674	-0.863205	-0.864577	0.065214	43.1179	-0.864340	-3.348525E+11	-1.947540E-13	NaN
582	1.000000	0.242062	7.37074e+06	-47989.1	1005.82	-29764	0.000000	0.000000	6.242848	0.064467	NaN	0.000000	0.001569	0.001744	28.0787	0.056525	0.002005	28.1918	75.3282	-164.169	0.011351	0.240761	-0.853188	-0.854489	0.064467	28.1918	-0.854903	-2.495297E+11	-2.583554E-13	NaN
582	1.000000	0.252043	7.37074e+06	-47989.1	1005.82	-29764	0.000000	0.000000	6.252830	0.094158	NaN	0.000000	0.001587	0.001733	28.0787	0.024348	0.001840	13.2309	-127.323	16.5052	0.017157	0.250679	-0.843207	-0.844571	0.094158	13.2309	-0.848545	-2.046588E+11	-4.600710E-13	NaN
582	1.000000	0.262057	7.37074e+06	-47989.1	1005.82	-29764	0.000000	0.000000	6.262839	-0.026221	NaN	0.000000	0.001551	0.001712	28.0788	0.119993	0.002002	59.9234	168.995	-161.792	-0.022854	0.260714	-0.833193	-0.834536	-0.026221	59.9234	-0.832864	-1.254893E+11	2.089474E-13	NaN
582	1.000000	0.272037	7.37074e+06	-47989.1	1005.82	-29764	0.000000	0.000000	6.272818	-0.068472	NaN	0.000000	0.001542	0.001696	28.0786	0.044795	0.001973	22.7077	19.0224	13.4246	-0.010077	0.270696	-0.823213	-0.824554	-0.068472	22.7077	-0.820951	-8.651831E+10	7.914135E-13	NaN
582	1.000000	0.282060	7.37074e+06	-47989.1	1005.82	-29764	0.000000	0.000000	6.282847	0.093972	NaN	0.000000	0.001554	0.001708	28.0787	0.060980	0.001942	31.398	-175.493	-165.234	0.078529	0.280734	-0.813190	-0.814516	0.093972	31.398	-0.815435	-7.282799E+10	-1.290334E-12	NaN
582	1.000000	0.292063	7.37074e+06	-47989.1	1005.82	-29764	0.000000	0.000000	6.292845	-0.019469	NaN	0.000000	0.001513	0.001722	28.0788	0.008753	0.002006	4.363177	148.545	16.4221	-0.021621	0.290649	-0.803187	-0.804601	-0.019469	4.363177	-0.799841	-4.474018E+10	4.351646E-13	NaN
582	1.000000	0.302056	7.37074e+06	-47989.1	1005.82	-29764	0.000000	0.000000	6.302839	-0.021752	NaN	0.000000	0.001524	0.001745	28.0788	0.067325	0.002029	33.1897	-144.614	-165.264	-0.014444	0.300723	-0.793194	-0.794527	-0.021752	33.1897	-0.792702	-3.579141E+10	6.077389E-13	NaN
582	1.000000	0.312086	7.37074e+06	-47989.1	1005.82	-29764	0.000000	0.000000	6.312871	0.045306	NaN	0.000000	0.001544	0.001746	28.0786	0.097191	0.002016	48.2045	-172.045	16.649	0.101562	0.310640	-0.783164	-0.784610	0.045306	48.2045	-0.783869	-2.715190E+10	-1.668608E-12	NaN
582	1.000000	0.322084	7.37074e+06	-47989.1	1005.82	-29764	0.000000	0.000000	6.322869	0.053553	NaN	0.000000	0.001535	0.001751	28.0802	0.020532	0.001979	10.3764	177.875	-163.549	0.058380	0.320764	-0.773166	-0.774486	0.053553	10.3764	-0.777037	-2.192642E+10	-2.442410E-12	NaN
582	1.000000	0.332060	7.37074e+06	-47989.1	1005.82	-29764	0.000000	0.000000	6.332843	0.009419	NaN	0.000000	0.001569	0.001717	28.0803	0.048796	0.001994	24.4743	74.2212	14.0813	0.066038	0.330772	-0.763190	-0.764478	0.009419	24.4743	-0.763479	-1.434260E+10	-6.566816E-13	NaN
582	1.000000	0.342086	7.37074e+06	-47989.1	1005.82	-29764	0.000000	0.000000	6.342868	-0.032891	NaN	0.000000	0.001669	0.001751	28.0801	0.052054	0.001943	26.7854	158.493	-166.084	-0.012916	0.340769	-0.753164	-0.754481	-0.032891	26.7854	-0.752243	-1.008681E+10	3.260776E-12	NaN
582	1.000000	0.352102	7.37074e+06	-47989.1	1005.82	-29764	0.000000	0.000000	6.352885	0.019538	NaN	0.000000	0.001645	0.001757	28.0799	0.049342	0.001934	25.5134	8.809793	20.1362	0.037957	0.350737	-0.743148	-0.744513	0.019538	25.5134	-0.743723	-7.722491E+9	-2.529998E-12	NaN
582	1.000000	0.362078	7.37074e+06	-47989.1	1005.82	-29764	0.000000	0.000000	6.362858	-0.058611	NaN	0.000000	0.001673	0.001716	28.0802	0.070877	0.002030	34.9108	99.7064	-164.343	-0.072347	0.360778	-0.733172	-0.734472	-0.058611	34.9108	-0.731913	-5.331911E+9	1.099243E-11	NaN
582	1.000000	0.372106	7.37074e+06	-47989.1	1005.82	-29764	0.000000	0.000000	6.372889	0.013649	NaN	0.000000	0.001669	0.001744	28.08	0.084167	0.001879	44.7955	-146.869	12.1759	0.005859	0.370769	-0.723144	-0.724481	0.013649	44.7955	-0.723373	-4.078173E+9	-3.346854E-12	NaN
582	1.000000	0.382121	7.37074e+06	-47989.1	1005.82	-29764	0.000000	0.000000	6.382905	0.005348	NaN	0.000000	0.001657	0.001732	28.0799	0.062146	0.001943	31.9846	-107.913	-168.757	-0.026302	0.380739	-0.713129	-0.714511	0.005348	31.9846	-0.713254	-2.967918E+9	-1.801857E-12	NaN
582	1.000000	0.392137	7.37074e+06	-47989.1	1005.82	-29764	0.000000	0.000000	6.392921	0.004923	NaN	0.000000	0.001639	0.001769	28.0799	0.112015	0.001956	57.267	-176.467	15.7728	0.018716	0.390743	-0.703113	-0.704507	0.004923	57.267	-0.703177	-2.162300E+9	-2.276785E-12	NaN
582	1.000000	0.402108	7.37074e+06	-47989.1	1005.82	-29764	0.000000	0.000000	6.402889	-0.051287	NaN	0.000000	0.001639	0.001770	28.0804	0.108012	0.001961	55.0842	81.6165	-164.827	-0.068532	0.400856	-0.693142	-0.694394	-0.051287	55.0842	-0.692443	-1.542795E+9	3.324277E-11	NaN
582	1.000000	0.412133	7.37074e+06	-47989.1	1005.82	-29764	0.000000	0.000000	6.412916	-0.003581	NaN	0.000000	0.001614	0.001751	28.0799	0.032378	0.001963	16.4955	84.8466	14.5186	-0.119571	0.410805	-0.683117	-0.684445	-0.003581	16.4955	-0.682954	-1.144474E+9	3.129371E-12	NaN
582	1.000000	0.422110	7.37074e+06	-47989.1	1005.82	-29764	0.000000	0.000000	6.422892	-0.010996	NaN	0.000000	0.001625	0.001736	28.0837	0.008241	0.002091	3.941596	92.4439	-164.253	-0.022651	0.420782	-0.673140	-0.674468	-0.010996	3.941596	-0.671048	-7.865667E+8	1.398009E-11	NaN
582	1.000000	0.432152	7.37074e+06	-47989.1	1005.82	-29764	0.000000	0.000000	6.432935	0.011189	NaN	0.000000	0.001630	0.001761	28.0808	0.034939	0.001957	17.8538	-101.527	16.4154	-0.041440	0.430725	-0.663098	-0.664525	0.011189	17.8538	-0.663568	-6.213532E+8	-1.800734E-11	NaN
582	1.000000	0.442152	7.37074e+06	-47989.1	1005.82	-29764	0.000000	0.000000	6.442937	0.038470	NaN	0.000000	0.001636	0.001749	28.0811	0.103512	0.001931	53.6169	-83.8191	-163.92	0.018158	0.440822	-0.653098	-0.654428	0.038470	53.6169	-0.653636	-4.542319E+8	-8.469204E-11	NaN
582	1.000000	0.452159	7.37074e+06	-47989.1	1005.82	-29764	0.000000	0.000000	6.452942	0.010486	NaN	0.000000	0.001610	0.001725	28.08	0.157155	0.002018	77.8829	175.016	11.3799	0.020658	0.450694	-0.643091	-0.644556	0.010486	77.8829	-0.643192	-3.266486E+8	-3.210099E-11	NaN
582	1.000000	0.462167	7.37074e+06	-47989.1	1005.82	-29764	0.000000	0.000000	6.462952	0.035416	NaN	0.000000	0.001607	0.001730	28.0789	0.118547	0.002207	53.7179	-93.0786	-163.731	0.106816	0.460765	-0.633083	-0.634485	0.035416	53.7179	-0.633578	-2.410712E+8	-1.469123E-10	NaN
582	1.000000	0.472126	7.37074e+06	-47989.1	1005.82	-29764	0.000000	0.000000	6.472908	-0.020239	NaN	0.000000	0.001609	0.001716	28.0789	0.058468	0.002063	28.3458	156.941	14.3259	0.050102	0.470759	-0.623124	-0.624491	-0.020239	28.3458	-0.622589	-1.702990E+8	1.188449E-10	NaN
582	1.000000	0.482133	7.37074e+06	-47989.1	1005.82	-29764	0.000000	0.000000	6.482915	-0.021248	NaN	0.000000	0.001616	0.001705	28.0792	0.153441	0.002052	74.7839	132.515	-168.615	-0.055284	0.480808	-0.613118	-0.614442	-0.021248	74.7839	-0.612904	-1.253342E+8	1.695317E-10	NaN
582	1.000000	0.492160	7.37074e+06	-47989.1	1005.82	-29764	0.000000	0.000000	6.492945	0.039815	NaN	0.000000	0.001634	0.001724	28.0789	0.028241	0.002022	13.9696	139.26	14.5558	-0.005721	0.490805	-0.603090	-0.604445	0.039815	13.9696	-0.605228	-9.827370E+7	-4.051472E-10	NaN
582	1.000000	0.502141	7.37074e+06	-47989.1	1005.82	-29764	0.000000	0.000000	6.502925	0.018907	NaN	0.000000	0.001564	0.001694	28.0788	0.111841	0.002080	53.7592	0.816651	-164.942	0.053970	0.500832	-0.593109	-0.594418	0.018907	53.7592	-0.593373	-6.747731E+7	-2.801945E-10	NaN
582	1.000000	0.512175	7.37074e+06	-47989.1	1005.82	-29764	0.000000	0.000000	6.512961	0.075926	NaN	0.000000	0.001558	0.001689	28.079	0.072978	0.002006	36.3815	75.4647	15.1073	0.033001	0.510821	-0.583075	-0.584429	0.075926	36.3815	-0.584640	-5.113927E+7	-1.484689E-9	NaN
582	1.000000	0.522182	7.37074e+06	-47989.1	1005.82	-29764	0.000000	0.000000	6.522965	-0.006018	NaN	0.000000	0.001557	0.001736	28.0788	0.095061	0.001939	49.0201	-12.4519	-163.611	0.005008	0.520795	-0.573068	-0.574455	-0.006018	49.0201	-0.572976	-3.529709E+7	1.705047E-10	NaN
582	1.000000	0.532171	7.37074e+06	-47989.1	1005.82	-29764	0.000000	0.000000	6.532956	0.032646	NaN	0.000000	0.001553	0.001687	28.0789	0.112593	0.002042	55.1306	-67.6082	18.7022	-0.049520	0.530818	-0.563079	-0.564432	0.032646	55.1306	-0.563523	-2.612763E+7	-1.249484E-9	NaN
582	1.000000	0.542157	7.37074e+06	-47989.1	1005.82	-29764	0.000000	0.000000	6.542942	0.046909	NaN	0.000000	0.001556	0.001739	28.0785	0.048138	0.002124	22.6681	118.532	-167.554	0.004526	0.540824	-0.553093	-0.554426	0.046909	22.6681	-0.554645	-1.969124E+7	-2.382238E-9	NaN
582	1.000000	0.552154	7.37074e+06	-47989.1	1005.82	-29764	0.000000	0.000000	6.552939	0.052285	NaN	0.000000	0.001587	0.001705	28.0792	0.126262	0.001984	63.6488	179.011	14.8103	-0.002489	0.550866	-0.543096	-0.544384	0.052285	63.6488	-0.543712	-1.389402E+7	-3.763112E-9	NaN
582	1.000000	0.562179	7.37074e+06	-47989.1	1005.82	-29764	0.000000	0.000000	6.562964	0.064957	NaN	0.000000	0.001601	0.001714	28.0787	0.138097	0.001971	70.0583	-113.385	-165.304	0.010623	0.560853	-0.533072	-0.534397	0.064957	70.0583	-0.533767	-1.011291E+7	-6.423185E-9	NaN
582	1.000000	0.572172	7.37074e+06	-47989.1	1005.82	-29764	0.000000	0.000000	6.572956	0.011108	NaN	0.000000	0.001573	0.001689	28.0788	0.054050	0.001976	27.3565	-97.7727	17.4436	-0.022483	0.570842	-0.523078	-0.524408	0.011108	27.3565	-0.523382	-7.2548e+06	-1.531147E-9	NaN
582	1.000000	0.582199	7.37074e+06	-47989.1	1005.82	-29764	0.000000	0.000000	6.582981	-0.033258	NaN	0.000000	0.001549	0.001698	28.0787	0.099238	0.002032	48.8443	-125.6	-165.543	-0.014602	0.580914	-0.513051	-0.514336	-0.033258	48.8443	-0.512540	-5.12613e+06	6.488002E-9	NaN
582	1.000000	0.592238	7.37074e+06	-47989.1	1005.82	-29764	0.000000	0.000000	6.593022	0.024783	NaN	0.000000	0.001550	0.001706	28.0799	0.092062	0.001970	46.726	134.3	13.5867	0.104763	0.590830	-0.503012	-0.504420	0.024783	46.726	-0.503410	-3.82451e+06	-6.479944E-9	NaN
582	1.000000	0.602205	7.37074e+06	-47989.1	1005.82	-29764	0.000000	0.000000	6.602988	0.014793	NaN	0.000000	0.001565	0.001690	28.0798	0.085368	0.002055	41.5317	-28.409	-163.539	0.016225	0.600908	-0.493045	-0.494342	0.014793	41.5317	-0.493312	-2.76484e+06	-5.350393E-9	NaN
582	1.000000	0.612200	7.37074e+06	-47989.1	1005.82	-29764	0.000000	0.000000	6.612984	0.009695	NaN	0.000000	0.001580	0.001669	28.0799	0.034979	0.002055	17.0184	-164.029	13.7248	0.019098	0.610867	-0.483050	-0.484383	0.009695	17.0184	-0.483477	-2.01459e+06	-4.812174E-9	NaN
582	1.000000	0.622203	7.37074e+06	-47989.1	1005.82	-29764	0.000000	0.000000	6.622985	-0.023893	NaN	0.000000	0.001565	0.001700	28.0807	0.097755	0.002060	47.4591	63.1192	-163.234	-6.989582E-7	0.620933	-0.473047	-0.474317	-0.023893	47.4591	-0.472669	-1.4218e+06	1.680491E-8	NaN
582	1.000000	0.632185	7.37074e+06	-47989.1	1005.82	-29764	0.000000	0.000000	6.632970	0.047746	NaN	0.000000	0.001571	0.001786	28.08	0.092501	0.001967	47.0269	-136.647	12.4321	-0.010906	0.630862	-0.463065	-0.464388	0.047746	47.0269	-0.463826	-1.06848e+06	-4.468582E-8	NaN
582	1.000000	0.642239	7.37074e+06	-47989.1	1005.82	-29764	0.000000	0.000000	6.643019	-0.071706	NaN	0.000000	0.001549	0.001714	28.0799	0.043708	0.002221	19.6787	125.137	-164.415	-0.003625	0.640873	-0.453011	-0.454377	-0.071706	19.6787	-0.450279	-689072	1.040621E-7	NaN
582	1.000000	0.652207	7.37074e+06	-47989.1	1005.82	-29764	0.000000	0.000000	6.652989	-0.028330	NaN	0.000000	0.001572	0.001733	28.0801	0.053299	0.002195	24.2816	150.462	19.9205	-0.040968	0.650875	-0.443043	-0.444375	-0.028330	24.2816	-0.442168	-529613	5.349286E-8	NaN
582	1.000000	0.662234	7.37074e+06	-47989.1	1005.82	-29764	0.000000	0.000000	6.663018	0.014706	NaN	0.000000	0.001627	0.001721	28.08	0.116570	0.002047	56.951	103.441	-166.37	-0.031714	0.660928	-0.433016	-0.434322	0.014706	56.951	-0.433210	-395780	-3.715588E-8	NaN
582	1.000000	0.672213	7.37074e+06	-47989.1	1005.82	-29764	0.000000	0.000000	6.672995	-0.036609	NaN	0.000000	0.001600	0.001725	28.0798	0.074191	0.001955	37.9476	20.584	13.359	0.004401	0.670864	-0.423037	-0.424387	-0.036609	37.9476	-0.422313	-277469	1.319381E-7	NaN
582	1.000000	0.682219	7.37074e+06	-47989.1	1005.82	-29764	0.000000	0.000000	6.683001	-0.019410	NaN	0.000000	0.001582	0.001753	28.0796	0.079664	0.001970	40.4392	157.32	-164.163	0.005514	0.680893	-0.413031	-0.414357	-0.019410	40.4392	-0.412671	-202477	9.586431E-8	NaN
582	1.000000	0.692244	7.37074e+06	-47989.1	1005.82	-29764	0.000000	0.000000	6.693026	-0.024720	NaN	0.000000	0.001595	0.001745	28.08	0.057667	0.002021	28.5274	43.9589	17.0247	-0.067894	0.690899	-0.403006	-0.404351	-0.024720	28.5274	-0.402356	-144406	1.711819E-7	NaN
582	1.000000	0.702236	7.37074e+06	-47989.1	1005.82	-29764	0.000000	0.000000	6.703018	-0.042629	NaN	0.000000	0.001580	0.001725	28.0799	0.053654	0.002104	25.4979	38.6373	-164.105	-0.007459	0.700945	-0.393014	-0.394305	-0.042629	25.4979	-0.391760	-101937	4.181850E-7	NaN
582	1.000000	0.712230	7.37074e+06	-47989.1	1005.82	-29764.1	0.000000	0.000000	6.713016	0.065363	NaN	0.000000	0.001596	0.001737	28.08	0.092799	0.001900	48.839	-42.9126	15.2943	-0.002112	0.710838	-0.383020	-0.384412	0.065363	48.839	-0.384024	-78994.8	-8.274317E-7	NaN
582	1.000000	0.722251	7.37074e+06	-47989.1	1005.82	-29764.1	0.000000	0.000000	6.723035	0.039798	NaN	0.000000	0.001597	0.001739	28.0798	0.118886	0.002191	54.2495	-79.4453	-162.708	0.029561	0.720924	-0.372999	-0.374327	0.039798	54.2495	-0.373550	-55874.8	-7.122651E-7	NaN
582	1.000000	0.732238	7.37074e+06	-47989.1	1005.82	-29764.1	0.000000	0.000000	6.733020	-0.038939	NaN	0.000000	0.001565	0.001705	28.0789	0.042827	0.002030	21.1012	-79.0774	16.8759	0.006922	0.730910	-0.363012	-0.364340	-0.038939	21.1012	-0.361628	-37615.5	1.035198E-6	NaN
582	1.000000	0.742247	7.37074e+06	-47989.1	1005.82	-29764.1	0.000000	0.000000	6.743029	-0.032032	NaN	0.000000	0.001616	0.001719	28.0786	0.146383	0.001948	75.1352	0.802066	-162.091	-0.039209	0.740949	-0.353003	-0.354301	-0.032032	75.1352	-0.352683	-27920.7	1.147247E-6	NaN
582	1.000000	0.752256	7.37074e+06	-47989.1	1005.82	-29764.1	0.000000	0.000000	6.753040	0.030515	NaN	0.000000	0.001587	0.001683	28.0786	0.110616	0.002046	54.0526	-173.468	16.1565	0.069782	0.750961	-0.342995	-0.344289	0.030515	54.0526	-0.343418	-20480.4	-1.489969E-6	NaN
582	1.000000	0.762244	7.37074e+06	-47989.1	1005.82	-29764.1	0.000000	0.000000	6.763028	0.007098	NaN	0.000000	0.001567	0.001713	28.0789	0.110935	0.001919	57.8216	-147.91	-166.685	0.029400	0.760931	-0.333006	-0.334319	0.007098	57.8216	-0.333098	-14480.6	-4.901712E-7	NaN
582	1.000000	0.772274	7.37074e+06	-47989.1	1005.82	-29764.1	0.000000	0.000000	6.773059	0.054347	NaN	0.000000	0.001593	0.001740	28.0787	0.072675	0.001929	37.6706	-55.9844	15.8297	0.027834	0.770866	-0.322976	-0.324384	0.054347	37.6706	-0.324058	-10673.5	-5.091753E-6	NaN
582	1.000000	0.782266	7.37074e+06	-47989.1	1005.82	-29764.1	0.000000	0.000000	6.783049	0.001121	NaN	0.000000	0.001583	0.001685	28.0789	0.049368	0.001987	24.84	105.663	-165.175	-0.028536	0.780914	-0.312984	-0.314336	0.001121	24.84	-0.313018	-7339.78	-1.527715E-7	NaN
582	1.000000	0.792283	7.37074e+06	-47989.1	1005.82	-29764.1	0.000000	0.000000	6.793067	0.023052	NaN	0.000000	0.001582	0.001713	28.0787	0.022012	0.001975	11.1442	16.5347	12.3787	0.065780	0.790888	-0.302967	-0.304362	0.023052	11.1442	-0.304519	-5493.03	-4.196528E-6	NaN
582	1.000000	0.802303	7.37074e+06	-47989.1	1005.82	-29764.1	0.000000	0.000000	6.803087	0.012814	NaN	0.000000	0.001611	0.001724	28.0788	0.042719	0.002088	20.4597	-74.7029	-164.723	-0.023326	0.801040	-0.292947	-0.294210	0.012814	20.4597	-0.293416	-3753.43	-3.413903E-6	NaN
582	1.000000	0.812309	7.37074e+06	-47989.1	1005.82	-29764.1	0.000000	0.000000	6.813092	-0.015824	NaN	0.000000	0.001605	0.001716	28.0785	0.196132	0.001969	99.6177	131.287	13.7934	-0.064015	0.810928	-0.282941	-0.284323	-0.015824	99.6177	-0.282822	-2603.11	6.079019E-6	NaN
582	1.000000	0.822303	7.37074e+06	-47989.1	1005.82	-29764.1	0.000000	0.000000	6.823085	-0.014589	NaN	0.000000	0.001628	0.001694	28.0788	0.068892	0.001989	34.6356	71.0602	-167.48	-0.021331	0.820965	-0.272947	-0.274285	-0.014589	34.6356	-0.272631	-1826.01	7.989531E-6	NaN
582	1.000000	0.832301	7.37074e+06	-47989.1	1005.82	-29764.1	0.000000	0.000000	6.833084	-0.014627	NaN	0.000000	0.001585	0.001687	28.0786	0.024646	0.002012	12.25	-142.27	15.5854	-0.026082	0.830895	-0.262949	-0.264355	-0.014627	12.25	-0.262053	-1259.97	1.160917E-5	NaN
582	1.000000	0.842304	7.37074e+06	-47989.1	1005.82	-29764.1	0.000000	0.000000	6.843085	-0.053203	NaN	0.000000	0.001623	0.001664	28.0789	0.089058	0.001981	44.9621	-166.267	-165.682	-0.056068	0.840992	-0.252946	-0.254258	-0.053203	44.9621	-0.252059	-884.664	6.013865E-5	NaN
582	1.000000	0.852316	7.37074e+06	-47989.1	1005.82	-29764.1	0.000000	0.000000	6.853099	-0.005234	NaN	0.000000	0.001611	0.001722	28.0785	0.045714	0.001994	22.9262	-123.2	15.8571	0.020018	0.850943	-0.242934	-0.244307	-0.005234	22.9262	-0.242763	-634.818	8.245420E-6	NaN
582	1.000000	0.862298	7.37074e+06	-47989.1	1005.82	-29764.1	0.000000	0.000000	6.863081	0.007413	NaN	0.000000	0.001615	0.001747	28.08	0.069179	0.001972	35.0726	-77.972	-164.174	0.027574	0.861025	-0.232952	-0.234225	0.007413	35.0726	-0.233110	-448.278	-1.653685E-5	NaN
582	1.000000	0.872281	7.37074e+06	-47989.1	1005.82	-29764.1	0.000000	0.000000	6.873062	-0.033452	NaN	0.000000	0.001611	0.001713	28.0802	0.064652	0.001982	32.6194	-168.882	13.9072	0.028224	0.870912	-0.222970	-0.224338	-0.033452	32.6194	-0.222200	-301.157	0.000111	NaN
582	1.000000	0.882312	7.37074e+06	-47989.1	1005.82	-29764.1	0.000000	0.000000	6.883094	-0.013665	NaN	0.000000	0.001626	0.001720	28.0798	0.079062	0.001989	39.7484	166.546	-165.302	0.082586	0.881052	-0.212938	-0.214198	-0.013665	39.7484	-0.212681	-211.908	6.448383E-5	NaN
582	1.000000	0.892284	7.37074e+06	-47989.1	1005.82	-29764.1	0.000000	0.000000	6.893067	0.000157	NaN	0.000000	0.001554	0.001735	28.0799	0.202718	0.001922	105.477	-16.2487	13.2965	-0.034347	0.890954	-0.202966	-0.204297	0.000157	105.477	-0.202967	-147.351	-1.065101E-6	NaN
582	1.000000	0.902327	7.37074e+06	-47989.1	1005.82	-29764.1	0.000000	0.000000	6.903111	0.011815	NaN	0.000000	0.001615	0.001733	28.0799	0.084290	0.001914	44.0444	27.6066	-161.438	0.034942	0.901019	-0.192923	-0.194231	0.011815	44.0444	-0.193124	-101.408	-0.000117	NaN
582	1.000000	0.912328	7.37074e+06	-47989.1	1005.82	-29764.1	0.000000	0.000000	6.913112	0.026125	NaN	0.000000	0.001610	0.001698	28.08	0.048169	0.001997	24.1205	86.528	16.989	0.027519	0.910974	-0.182922	-0.184276	0.026125	24.1205	-0.183735	-70.5964	-0.000370	NaN
582	1.000000	0.922343	7.37074e+06	-47989.1	1005.82	-29764.1	0.000000	0.000000	6.923125	-0.039383	NaN	0.000000	0.001550	0.001713	28.0799	0.179026	0.001895	94.4524	113.506	-164.579	-0.007729	0.921005	-0.172907	-0.174245	-0.039383	94.4524	-0.172594	-45.555	0.000865	NaN
582	1.000000	0.932370	7.37074e+06	-47989.1	1005.82	-29764.1	0.000000	0.000000	6.933151	-0.043936	NaN	0.000000	0.001577	0.001690	28.0798	0.021054	0.001966	10.7092	-9.408824	12.5945	0.022496	0.931012	-0.162880	-0.164238	-0.043936	10.7092	-0.159803	-27.1949	0.001616	NaN
582	1.000000	0.942327	7.37074e+06	-47989.1	1005.82	-29764.1	0.000000	0.000000	6.943108	-0.040274	NaN	0.000000	0.001620	0.001665	28.0801	0.095908	0.002057	46.6246	103.866	-165.778	-0.034532	0.940990	-0.152923	-0.154260	-0.040274	46.6246	-0.152275	-19.9238	0.002021	NaN
582	1.000000	0.952345	7.37074e+06	-47989.1	1005.82	-29764.1	0.000000	0.000000	6.953129	0.020010	NaN	0.000000	0.001617	0.001706	28.0799	0.025065	0.002060	12.1697	91.716	15.4417	-0.083703	0.950981	-0.142905	-0.144269	0.020010	12.1697	-0.144138	-14.132	-0.001416	NaN
582	1.000000	0.962337	7.37074e+06	-47989.1	1005.82	-29764.1	0.000000	0.000000	6.963118	-0.051814	NaN	0.000000	0.001618	0.001703	28.08	0.095172	0.002002	47.5461	-62.0824	-165.966	-0.004545	0.961004	-0.132913	-0.134246	-0.051814	47.5461	-0.132096	-8.367088	0.006193	NaN
582	1.000000	0.972375	7.37075e+06	-47989.1	1005.82	-29764.1	0.000000	0.000000	6.973158	-0.014998	NaN	0.000000	0.001632	0.001695	28.0797	0.029479	0.001984	14.8558	40.1427	15.0509	-0.014262	0.970970	-0.122875	-0.124280	-0.014998	14.8558	-0.122118	-5.328958	0.002814	NaN
582	1.000000	0.982350	7.37075e+06	-47989.1	1005.82	-29764.1	0.000000	0.000000	6.983134	0.013369	NaN	0.000000	0.001636	0.001702	28.0805	0.133930	0.001905	70.307	-150.633	-167.633	0.015919	0.981053	-0.112900	-0.114197	0.013369	70.307	-0.113042	-3.479942	-0.003842	NaN
582	1.000000	0.992372	7.37075e+06	-47989.1	1005.82	-29764.1	0.000000	0.000000	6.993156	0.004968	NaN	0.000000	0.001628	0.001725	28.0797	0.121281	0.001929	62.8571	177.086	10.971	0.072526	0.991003	-0.102878	-0.104247	0.004968	62.8571	-0.102937	-2.120208	-0.002343	NaN
582	1.000000	1.002374	7.37075e+06	-47989.1	1005.82	-29764.1	0.000000	0.000000	7.003157	0.010141	NaN	0.000000	0.001582	0.001692	28.0785	0.100344	0.002040	49.195	-143.372	-164.757	-0.075327	1.001069	-0.092876	-0.094181	0.010141	49.195	-0.093031	-1.271430	-0.007976	NaN
582	1.000000	1.012331	7.37075e+06	-47989.1	1005.82	-29764.1	0.000000	0.000000	7.013116	0.045073	NaN	0.000000	0.001584	0.001678	28.0784	0.051127	0.002008	25.4624	165.254	16.8406	-0.017087	1.011041	-0.082919	-0.084209	0.045073	25.4624	-0.084247	-0.787782	-0.057215	NaN
582	1.000000	1.022369	7.37075e+06	-47989.1	1005.82	-29764.1	0.000000	0.000000	7.023153	0.013078	NaN	0.000000	0.001599	0.001701	28.0791	0.101953	0.001826	55.8274	70.4973	-167.344	-0.021187	1.021093	-0.072881	-0.074157	0.013078	55.8274	-0.073057	-0.411062	-0.031816	NaN
582	1.000000	1.032386	7.37075e+06	-47989.1	1005.82	-29764.1	0.000000	0.000000	7.033169	-0.002221	NaN	0.000000	0.001598	0.001711	28.0785	0.012340	0.002040	6.049550	75.7633	10.9654	0.042261	1.030938	-0.062864	-0.064312	-0.002221	6.049550	-0.062589	-0.213369	0.010408	NaN
582	1.000000	1.042371	7.37075e+06	-47989.1	1005.82	-29764.1	0.000000	0.000000	7.043153	-0.032934	NaN	0.000000	0.001569	0.001685	28.0784	0.085521	0.001947	43.9354	173.909	-163.605	0.039120	1.041100	-0.052879	-0.054150	-0.032934	43.9354	-0.052317	-0.107146	0.307376	NaN
582	1.000000	1.052403	7.37075e+06	-47989.1	1005.82	-29764.1	0.000000	0.000000	7.053185	-0.037029	NaN	0.000000	0.001540	0.001691	28.0784	0.015631	0.001996	7.831439	-13.9756	17.6803	0.014777	1.051031	-0.042847	-0.044219	-0.037029	7.831439	-0.039301	-0.043067	0.859792	NaN
582	1.000000	1.062396	7.37075e+06	-47989.1	1005.82	-29764.1	0.000000	0.000000	7.063175	-0.099005	NaN	0.000000	0.001570	0.001692	28.0785	0.076124	0.002106	36.145	-145.581	-162.488	-0.065626	1.061148	-0.032854	-0.034102	-0.099005	36.145	-0.030800	-0.024231	4.085956	NaN
582	1.000000	1.072411	7.37075e+06	-47989.1	1005.82	-29764.1	0.000000	0.000000	7.073197	0.071928	NaN	0.000000	0.001556	0.001731	28.0784	0.045222	0.001947	23.2261	158.721	13.8018	0.008084	1.071007	-0.022839	-0.024243	0.071928	23.2261	-0.025162	-0.017036	-4.222158	NaN
582	1.000000	1.082422	7.37075e+06	-47989.1	1005.82	-29764.1	0.000000	0.000000	7.083204	-0.017536	NaN	0.000000	0.001555	0.001737	28.0785	0.094429	0.002059	45.872	-119.886	-163.381	0.028315	1.081062	-0.012828	-0.014188	-0.017536	45.872	-0.012541	-0.007838	2.237155	NaN
582	1.000000	1.092411	7.37075e+06	-47989.1	1005.82	-29764.1	0.000000	0.000000	7.093197	0.080939	NaN	0.000000	0.001585	0.001704	28.0789	0.270435	0.002091	129.353	-0.090469	15.4656	-0.045171	1.091002	-0.002839	-0.004248	0.080939	129.353	-0.003309	-0.002326	-34.7953	NaN
582	2.000000	1.101052	7.37075e+06	-47989.1	1005.82	-29764.1	0.000000	0.000000	7.102189	8.608698	NaN	0.000000	0.001579	0.001726	28.0785	8.169346	0.001663	4913.6	9.136713	-172.768	8.395061	1.100631	0.005802	0.005381	8.608698	4913.6	0.004488	0.003671	2344.91	74091.3
582	2.000000	1.103528	7.37075e+06	-47989.1	1005.82	-29764.1	0.000000	0.000000	7.104840	12.8679	NaN	0.000000	0.001579	0.001721	28.0786	11.3368	0.001725	6571.61	2.834341	11.1922	11.8155	1.103150	0.008278	0.007900	12.8679	6571.61	0.006810	0.005846	2201.06	78524.9
582	2.000000	1.105993	7.37075e+06	-47989.1	1005.82	-29764.1	0.000000	0.000000	7.107407	15.344	NaN	0.000000	0.001593	0.001713	28.0784	14.3414	0.001714	8369.54	6.967754	-175.329	14.531	1.105698	0.010743	0.010448	15.344	8369.54	0.009368	0.008488	1807.79	83000.3
582	2.000000	1.108470	7.37075e+06	-47989.1	1005.82	-29764.1	0.000000	0.000000	7.110193	22.8609	NaN	0.000000	0.001563	0.001696	28.0786	16.3893	0.001661	9869.01	4.920758	5.957243	21.5093	1.108116	0.013220	0.012866	22.8609	9869.01	0.011483	0.010876	2101.9	86458.2
582	2.000000	1.110961	7.37075e+06	-47989.1	1005.82	-29764.1	0.000000	0.000000	7.112840	26.6538	NaN	0.000000	0.001528	0.001721	28.0796	18.6835	0.001564	11949.2	-1.116045	-170.742	24.9877	1.110612	0.015711	0.015362	26.6538	11949.2	0.014038	0.014024	1900.61	92189.1
582	2.000000	1.113480	7.37075e+06	-47989.1	1005.82	-29764.1	0.000000	0.000000	7.115537	30.9872	NaN	0.000000	0.001553	0.001727	28.0798	22.9616	0.001807	12709.4	10.8578	-1.650687	32.7101	1.113143	0.018230	0.017893	30.9872	12709.4	0.016401	0.017199	1801.64	88540.7
582	2.000000	1.115969	7.37075e+06	-47989.1	1005.82	-29764.1	0.000000	0.000000	7.118339	38.5948	NaN	0.000000	0.001528	0.001705	28.0797	25.2221	0.001775	14210	8.393354	178.629	38.2217	1.115612	0.020719	0.020362	38.5948	14210	0.018682	0.020514	1881.41	90645.2
582	2.000000	1.118497	7.37075e+06	-47989.1	1005.82	-29764.1	0.000000	0.000000	7.121320	49.5994	NaN	0.000000	0.001547	0.001693	28.0798	26.9135	0.001742	15452.6	7.447570	1.650130	49.5081	1.118066	0.023247	0.022816	49.5994	15452.6	0.020840	0.023879	2077.09	91361.7
582	2.000000	1.120991	7.37075e+06	-47989.1	1005.82	-29764.1	0.000000	0.000000	7.124020	54.6264	NaN	0.000000	0.001565	0.001702	28.0798	29.4972	0.001892	15588.9	9.249140	179.988	56.3513	1.120559	0.025741	0.025309	54.6264	15588.9	0.023113	0.027672	1974.06	85618.5
582	2.000000	1.123359	7.37075e+06	-47989.1	1005.82	-29764.1	0.000000	0.000000	7.126745	63.3009	NaN	0.000000	0.001560	0.001700	28.0799	32.5634	0.001868	17434.7	3.917714	0.860702	59.4323	1.123077	0.028109	0.027827	63.3009	17434.7	0.025386	0.031722	1995.49	89434.8
582	2.000000	1.125949	7.37075e+06	-47989.1	1005.82	-29764.1	0.000000	0.000000	7.129648	70.9237	NaN	0.000000	0.001521	0.001710	28.08	34.8204	0.001885	18472.8	1.223580	-176.189	69.6171	1.125676	0.030699	0.030426	70.9237	18472.8	0.027819	0.036345	1951.4	88528.5
582	2.000000	1.128388	7.37075e+06	-47989.1	1005.82	-29764.1	0.000000	0.000000	7.132537	81.855	NaN	0.000000	0.001554	0.001715	28.0801	36.0442	0.001775	20311.5	0.927429	4.227402	79.3874	1.128131	0.033138	0.032881	81.855	20311.5	0.030116	0.040984	1997.23	91665.4
582	2.000000	1.130896	7.37075e+06	-47989.1	1005.82	-29764.1	0.000000	0.000000	7.135536	93.8097	NaN	0.000000	0.001585	0.001732	28.0804	38.7379	0.001765	21944.6	3.193413	-179.375	91.1028	1.130520	0.035646	0.035270	93.8097	21944.6	0.032440	0.045952	2041.45	93529
582	2.000000	1.133349	7.37075e+06	-47989.1	1005.82	-29764.1	0.000000	0.000000	7.138464	105.363	NaN	0.000000	0.001645	0.001736	28.0805	41.3379	0.001763	23443.2	5.535113	-1.485277	100.135	1.133090	0.038099	0.037840	105.363	23443.2	0.034728	0.051114	2061.33	94737.2
582	2.000000	1.135828	7.37075e+06	-47989.1	1005.82	-29764.1	0.000000	0.000000	7.141359	115.482	NaN	0.000000	0.001566	0.001691	28.0801	44.5171	0.001846	24121.8	5.794902	176.593	111.169	1.135617	0.040578	0.040367	115.482	24121.8	0.036987	0.056474	2044.88	92738.3
582	2.000000	1.138416	7.37075e+06	-47989.1	1005.82	-29764.1	0.000000	0.000000	7.144687	133.475	NaN	0.000000	0.001572	0.001715	28.08	46.3152	0.001800	25726.8	3.968263	-0.363948	130.669	1.138016	0.043166	0.042766	133.475	25726.8	0.039275	0.062168	2147	94270.7
582	2.000000	1.140860	7.37075e+06	-47989.1	1005.82	-29764.1	0.000000	0.000000	7.147462	141.542	NaN	0.000000	0.001571	0.001726	28.08	49.238	0.001762	27945.2	5.156872	177.401	139.847	1.140548	0.045610	0.045298	141.542	27945.2	0.041811	0.068792	2057.54	97344.4
582	2.000000	1.143383	7.37075e+06	-47989.1	1005.82	-29764.1	0.000000	0.000000	7.150578	155.939	NaN	0.000000	0.001565	0.001726	28.0796	51.7507	0.001789	28924.6	3.760967	-2.381009	153.207	1.143063	0.048133	0.047813	155.939	28924.6	0.044090	0.075025	2078.5	96480.4
582	2.000000	1.145874	7.37075e+06	-47989.1	1005.82	-29764.1	0.000000	0.000000	7.153554	167.742	NaN	0.000000	0.001627	0.001747	28.0787	54.8433	0.001776	30878.9	2.277349	178.52	164.977	1.145651	0.050624	0.050401	167.742	30878.9	0.046550	0.082049	2044.42	98491.4
582	2.000000	1.148403	7.37075e+06	-47989.1	1005.82	-29764.1	0.000000	0.000000	7.156872	186.962	NaN	0.000000	0.001615	0.001714	28.0787	56.2642	0.001725	32610.4	7.810833	-6.747550	184.602	1.147998	0.053153	0.052747	186.962	32610.4	0.048853	0.088900	2103.07	99926.3
582	2.000000	1.150917	7.37075e+06	-47989.1	1005.82	-29764.1	0.000000	0.000000	7.159870	198.717	NaN	0.000000	0.001664	0.001688	28.0786	59.1208	0.001794	32960.3	3.362322	177.11	199.932	1.150515	0.055667	0.055265	198.717	32960.3	0.051145	0.095986	2070.27	97198.5
582	2.000000	1.153397	7.37075e+06	-47989.1	1005.82	-29764.1	0.000000	0.000000	7.162970	213.793	NaN	0.000000	0.001603	0.001690	28.0788	63.001	0.001823	34561.9	4.467020	-3.515856	212.247	1.153043	0.058147	0.057793	213.793	34561.9	0.053508	0.103564	2064.36	98122.2
582	2.000000	1.155854	7.37075e+06	-47989.1	1005.82	-29764.1	0.000000	0.000000	7.166183	232.18	NaN	0.000000	0.001577	0.001728	28.0784	65.5136	0.001848	35454.8	4.950002	174.732	228.556	1.155562	0.060604	0.060312	232.18	35454.8	0.055692	0.110815	2095.2	97307.9
582	2.000000	1.158349	7.37075e+06	-47989.1	1005.82	-29764.1	0.000000	0.000000	7.169237	245.776	NaN	0.000000	0.001567	0.001730	28.0786	67.0379	0.001747	38378.4	3.123518	-4.050713	241.951	1.158119	0.063098	0.062869	245.776	38378.4	0.058295	0.119767	2052.11	101319
582	2.000000	1.160825	7.37075e+06	-47989.1	1005.82	-29764.1	0.000000	0.000000	7.172475	264.302	NaN	0.000000	0.001535	0.001711	28.0785	69.4994	0.001765	39383.8	7.706247	171.751	261.127	1.160533	0.065575	0.065283	264.302	39383.8	0.060542	0.127759	2068.76	100669
582	2.000000	1.163378	7.37075e+06	-47989.1	1005.82	-29764.1	0.000000	0.000000	7.175696	280.562	NaN	0.000000	0.001571	0.001700	28.0786	73.1503	0.001962	37284.2	6.311785	-6.260826	279.211	1.162985	0.068128	0.067735	280.562	37284.2	0.062484	0.134866	2080.3	92756.8
582	2.000000	1.165829	7.37075e+06	-47989.1	1005.82	-29764.1	0.000000	0.000000	7.178943	299.9	NaN	0.000000	0.001540	0.001706	28.0785	74.1636	0.001758	42192.7	2.992594	175.428	295.365	1.165455	0.070579	0.070205	299.9	42192.7	0.065248	0.145298	2064.03	101130
582	2.000000	1.168258	7.37075e+06	-47989.1	1005.82	-29764.1	0.000000	0.000000	7.182175	319.455	NaN	0.000000	0.001517	0.001700	28.0787	76.1002	0.001810	42055.7	3.843487	-4.540922	310.121	1.167860	0.073008	0.072610	319.455	42055.7	0.067311	0.153320	2083.59	98129.3
582	2.000000	1.170809	7.37075e+06	-47989.1	1005.82	-29764.1	0.000000	0.000000	7.185393	335.656	NaN	0.000000	0.001515	0.001699	28.0784	79.2468	0.001929	41073.8	7.040221	171.44	332.48	1.170559	0.075559	0.075309	335.656	41073.8	0.069430	0.161778	2074.79	93299.1
582	2.000000	1.173347	7.37075e+06	-47989.1	1005.82	-29764.1	0.000000	0.000000	7.188802	356.856	NaN	0.000000	0.001538	0.001723	28.0786	81.2334	0.001667	48716.8	0.735984	-3.356712	354.249	1.173039	0.078097	0.077789	356.856	48716.8	0.072603	0.174838	2041.07	106447
582	2.000000	1.175926	7.37075e+06	-47989.1	1005.82	-29764.1	0.000000	0.000000	7.192162	375.846	NaN	0.000000	0.001561	0.001701	28.0783	84.9976	0.001742	48801.4	2.976923	174.235	378.733	1.175584	0.080676	0.080334	375.846	48801.4	0.074900	0.184590	2036.11	103777
582	2.000000	1.178460	7.37075e+06	-47989.1	1005.82	-29764.1	0.000000	0.000000	7.195388	392.663	NaN	0.000000	0.001572	0.001720	28.0797	87.5955	0.001868	46889	4.970118	-6.867222	394.935	1.177976	0.083210	0.082726	392.663	46889	0.076930	0.193413	2030.18	97409.4
582	2.000000	1.180880	7.37075e+06	-47989.1	1005.82	-29764.1	0.000000	0.000000	7.198737	415.288	NaN	0.000000	0.001540	0.001697	28.0801	89.0948	0.001746	51033.3	3.093850	173.915	416.858	1.180609	0.085630	0.085359	415.288	51033.3	0.079526	0.204985	2025.94	102983
582	2.000000	1.183364	7.37075e+06	-47989.1	1005.82	-29764.1	0.000000	0.000000	7.202366	443.151	NaN	0.000000	0.001544	0.001701	28.0797	92.2746	0.001678	54991.8	5.552958	-8.547132	442.864	1.182850	0.088114	0.087600	443.151	54991.8	0.082070	0.216622	2045.74	107949
582	2.000000	1.185827	7.37075e+06	-47989.1	1005.82	-29764.1	0.000000	0.000000	7.205502	459.497	NaN	0.000000	0.001542	0.001713	28.0797	94.7404	0.001783	53142.7	-1.655037	178.477	457.389	1.185717	0.090577	0.090467	459.497	53142.7	0.084092	0.226089	2032.37	102112
582	2.000000	1.188442	7.37075e+06	-47989.1	1005.82	-29764.1	0.000000	0.000000	7.209179	485.32	NaN	0.000000	0.001536	0.001770	28.0796	97.5548	0.001745	55890.8	4.154523	-7.437472	487.748	1.188073	0.093192	0.092823	485.32	55890.8	0.086680	0.238479	2035.06	104565
582	2.000000	1.190935	7.37075e+06	-47989.1	1005.82	-29764.1	0.000000	0.000000	7.212614	508.233	NaN	0.000000	0.001563	0.001766	28.0798	99.5463	0.001769	56280.3	5.334808	170.906	512.787	1.190495	0.095685	0.095245	508.233	56280.3	0.088912	0.249416	2037.69	102960
582	2.000000	1.193355	7.37075e+06	-47989.1	1005.82	-29764.1	0.000000	0.000000	7.216275	538.432	NaN	0.000000	0.001553	0.001717	28.0799	102.391	0.001830	55936.5	3.758069	-7.771073	535.716	1.192994	0.098105	0.097744	538.432	55936.5	0.090885	0.259274	2076.69	100367
582	2.000000	1.195776	7.37075e+06	-47989.1	1005.82	-29764.1	0.000000	0.000000	7.219562	559.505	NaN	0.000000	0.001580	0.001715	28.0798	104.328	0.001714	60853.7	3.771446	171.711	556.139	1.195621	0.100526	0.100371	559.505	60853.7	0.093630	0.273282	2047.35	106354
582	2.000000	1.198329	7.37075e+06	-47989.1	1005.82	-29764.1	0.000000	0.000000	7.223468	592.402	NaN	0.000000	0.001594	0.001727	28.0797	105.415	0.001698	62067.7	2.779161	-6.863258	588.807	1.197991	0.103078	0.102741	592.402	62067.7	0.095920	0.285235	2076.89	106179
582	2.000000	1.198829	7.37075e+06	-47989.1	1005.82	-29764.1	0.000000	0.000000	7.224207	598.211	NaN	0.000000	0.001596	0.001716	28.0797	106.912	0.001687	63358	2.984314	172.752	595.224	1.198523	0.103579	0.103273	598.211	63358	0.096498	0.288289	2075.04	107811