File: remote_trans/data/nanoindenter/0828-1/data/Data_2025-08-06,11h17m57s/2025-07-22_16-23-58_1_561.txt
2025-07-22, 16:23:58, 1
Index	Phase	Displacement	Time	Pos X	Pos Y	Pos Z	Rot A	Rot B	Piezo Z	Force A	Force B	Gripper	Voltage A	Voltage B	Temperature	Amplitude force	Amplitude pos	Stiffness	Phase shift	Phase excitation	Force A raw	Displacement raw	HMax	HMax raw	Real Force	Real Stiffness	Contact Depth	Area	Hardness	Reduced Mod.
[#]	[#]	[um]	[s]	[um]	[um]	[um]	[m°]	[m°]	[um]	[uN]	[uN]	[V]	[V]	[V]	[°C]	[uN]	[um]	[N/m]	[°]	[°]	[uN]	[um]	[um]	[um]	[uN]	[N/m]	[um]	[um^2]	[MPa]	[MPa]
561	1.000000	0.002538	7.37053e+06	-49039.1	1005.82	-29760.3	0.000000	0.000000	6.002809	0.004466	NaN	0.000000	0.001550	0.001677	28.0817	0.101696	0.001049	96.9528	147.164	-164.111	0.056252	0.001309	-1.150864	-1.152094	0.004466	96.9528	-1.150899	-2.414735E+15	-1.849471E-18	NaN
561	1.000000	0.012570	7.37053e+06	-49039.1	1005.82	-29760.3	0.000000	0.000000	6.012839	-0.018032	NaN	0.000000	0.001585	0.001690	28.0814	0.020043	0.001109	18.0658	75.8747	13.3796	-0.007027	0.011100	-1.140833	-1.142303	-0.018032	18.0658	-1.140084	-1.729298E+15	1.042754E-17	NaN
561	1.000000	0.022463	7.37054e+06	-49039.1	1005.82	-29760.3	0.000000	0.000000	6.022735	0.049557	NaN	0.000000	0.001593	0.001747	28.0816	0.055864	0.001658	33.6978	-121.253	-165.696	0.071708	0.021150	-1.130940	-1.132253	0.049557	33.6978	-1.132043	-1.349021E+15	-3.673585E-17	NaN
561	1.000000	0.032503	7.37054e+06	-49039.1	1005.82	-29760.3	0.000000	0.000000	6.032774	0.015746	NaN	0.000000	0.001550	0.001726	28.0815	0.097511	0.001968	49.5492	-148.905	12.7808	-0.028174	0.031155	-1.120900	-1.122248	0.015746	49.5492	-1.121138	-9.632540E+14	-1.634643E-17	NaN
561	1.000000	0.042496	7.37054e+06	-49039.1	1005.82	-29760.3	0.000000	0.000000	6.042769	0.059618	NaN	0.000000	0.001587	0.001750	28.0815	0.074833	0.001820	41.1128	-118.762	-163.384	0.030186	0.041162	-1.110907	-1.112241	0.059618	41.1128	-1.111994	-7.261887E+14	-8.209767E-17	NaN
561	1.000000	0.052502	7.37054e+06	-49039.1	1005.82	-29760.3	0.000000	0.000000	6.052771	-0.004468	NaN	0.000000	0.001595	0.001721	28.0821	0.044101	0.002068	21.3241	-145.8	12.2157	-0.104552	0.051149	-1.100901	-1.102254	-0.004468	21.3241	-1.100744	-5.129259E+14	8.711299E-18	NaN
561	1.000000	0.062458	7.37054e+06	-49039.1	1005.82	-29760.3	0.000000	0.000000	6.062726	-0.039336	NaN	0.000000	0.001541	0.001709	28.0815	0.157411	0.002086	75.4761	-13.6673	-165.927	0.047489	0.061162	-1.090945	-1.092241	-0.039336	75.4761	-1.090554	-3.743285E+14	1.050849E-16	NaN
561	1.000000	0.072455	7.37054e+06	-49039.1	1005.82	-29760.3	0.000000	0.000000	6.072726	0.011959	NaN	0.000000	0.001590	0.001718	28.083	0.094938	0.002048	46.3462	-88.8802	13.3213	-0.020288	0.071124	-1.080948	-1.082278	0.011959	46.3462	-1.081141	-2.797987E+14	-4.274104E-17	NaN
561	1.000000	0.082489	7.37054e+06	-49039.1	1005.82	-29760.3	0.000000	0.000000	6.082761	0.030956	NaN	0.000000	0.001537	0.001689	28.0818	0.097498	0.001982	49.1856	-75.191	-164.982	0.070550	0.081234	-1.070913	-1.072169	0.030956	49.1856	-1.071385	-2.069186E+14	-1.496049E-16	NaN
561	1.000000	0.092489	7.37054e+06	-49039.1	1005.82	-29760.3	0.000000	0.000000	6.092758	-0.037599	NaN	0.000000	0.001516	0.001696	28.0817	0.079959	0.002014	39.699	-53.9019	15.1582	0.004363	0.091152	-1.060914	-1.062251	-0.037599	39.699	-1.060203	-1.464041E+14	2.568194E-16	NaN
561	1.000000	0.102521	7.37054e+06	-49039.1	1005.82	-29760.3	0.000000	0.000000	6.102790	-0.039533	NaN	0.000000	0.001554	0.001788	28.0817	0.094601	0.002046	46.2432	-155.14	-165.06	0.029541	0.101185	-1.050882	-1.052218	-0.039533	46.2432	-1.050240	-1.075586E+14	3.675505E-16	NaN
561	1.000000	0.112492	7.37054e+06	-49039.1	1005.82	-29760.3	0.000000	0.000000	6.112762	-0.017363	NaN	0.000000	0.001517	0.001773	28.0818	0.117098	0.001956	59.8607	-19.3442	11.9624	0.022894	0.111098	-1.040911	-1.042304	-0.017363	59.8607	-1.040693	-8.003604E+13	2.169383E-16	NaN
561	1.000000	0.122499	7.37054e+06	-49039.1	1005.82	-29760.3	0.000000	0.000000	6.122766	-0.065738	NaN	0.000000	0.001527	0.001815	28.082	0.106590	0.001949	54.6904	1.727502	-170.27	0.067613	0.121207	-1.030904	-1.032196	-0.065738	54.6904	-1.030002	-5.747916E+13	1.143683E-15	NaN
561	1.000000	0.132500	7.37054e+06	-49039.1	1005.82	-29760.3	0.000000	0.000000	6.132772	0.055817	NaN	0.000000	0.001529	0.001748	28.082	0.071872	0.002044	35.1659	-100.883	12.6506	0.108737	0.131128	-1.020903	-1.022275	0.055817	35.1659	-1.022093	-4.499026E+13	-1.240645E-15	NaN
561	1.000000	0.142517	7.37054e+06	-49039.1	1005.82	-29760.3	0.000000	0.000000	6.142787	-0.002665	NaN	0.000000	0.001534	0.001764	28.0831	0.059518	0.002149	27.6978	-171.295	-162.481	0.048796	0.141259	-1.010886	-1.012143	-0.002665	27.6978	-1.010814	-3.171995E+13	8.401984E-17	NaN
561	1.000000	0.152481	7.37054e+06	-49039.1	1005.82	-29760.3	0.000000	0.000000	6.152753	0.045402	NaN	0.000000	0.001544	0.001727	28.0831	0.038924	0.001970	19.7559	18.8265	13.6938	0.037074	0.151184	-1.000922	-1.002219	0.045402	19.7559	-1.002646	-2.462569E+13	-1.843689E-15	NaN
561	1.000000	0.162513	7.37054e+06	-49039.1	1005.82	-29760.3	0.000000	0.000000	6.162785	0.053443	NaN	0.000000	0.001583	0.001763	28.0832	0.106941	0.002116	50.545	60.649	-166.853	0.068790	0.161177	-0.990890	-0.992226	0.053443	50.545	-0.991683	-1.752993E+13	-3.048691E-15	NaN
561	1.000000	0.172514	7.37054e+06	-49039.1	1005.82	-29760.3	0.000000	0.000000	6.172787	0.058930	NaN	0.000000	0.001582	0.001741	28.0831	0.098045	0.001926	50.8936	119.489	11.9468	0.018822	0.171140	-0.980888	-0.982263	0.058930	50.8936	-0.981757	-1.288480E+13	-4.573591E-15	NaN
561	1.000000	0.182541	7.37054e+06	-49039.1	1005.82	-29760.3	0.000000	0.000000	6.182812	0.014067	NaN	0.000000	0.001553	0.001757	28.0829	0.058945	0.001971	29.9062	116.815	-165.767	0.005632	0.181244	-0.970862	-0.972158	0.014067	29.9062	-0.971214	-9.290317E+12	-1.514190E-15	NaN
561	1.000000	0.192549	7.37054e+06	-49039.1	1005.82	-29760.3	0.000000	0.000000	6.192820	0.027361	NaN	0.000000	0.001552	0.001723	28.0828	0.118725	0.001854	64.0536	-108.366	10.826	-0.027760	0.191182	-0.960854	-0.962220	0.027361	64.0536	-0.961174	-6.802938E+12	-4.022011E-15	NaN
561	1.000000	0.202531	7.37054e+06	-49039.1	1005.82	-29760.3	0.000000	0.000000	6.202805	0.085375	NaN	0.000000	0.001571	0.001738	28.0832	0.056214	0.002049	27.4338	36.0856	-166.757	0.073486	0.201231	-0.950872	-0.952172	0.085375	27.4338	-0.953206	-5.311987E+12	-1.607215E-14	NaN
561	1.000000	0.212539	7.37054e+06	-49039.1	1005.82	-29760.3	0.000000	0.000000	6.212812	0.063307	NaN	0.000000	0.001579	0.001742	28.0829	0.122999	0.002006	61.3107	-114.313	12.7669	0.066480	0.211153	-0.940863	-0.942250	0.063307	61.3107	-0.941638	-3.708781E+12	-1.706938E-14	NaN
561	1.000000	0.222550	7.37054e+06	-49039.1	1005.82	-29760.3	0.000000	0.000000	6.222820	-0.003690	NaN	0.000000	0.001565	0.001722	28.0827	0.046592	0.002065	22.5681	-111.464	-165.343	-0.052520	0.221217	-0.930852	-0.932186	-0.003690	22.5681	-0.930730	-2.642675E+12	1.396364E-15	NaN
561	1.000000	0.232545	7.37054e+06	-49039.1	1005.82	-29760.3	0.000000	0.000000	6.232818	0.070603	NaN	0.000000	0.001562	0.001704	28.0832	0.075889	0.002057	36.8885	-110.621	13.692	0.016588	0.231163	-0.920858	-0.922240	0.070603	36.8885	-0.922293	-2.033155E+12	-3.472589E-14	NaN
561	1.000000	0.242522	7.37054e+06	-49039.1	1005.82	-29760.3	0.000000	0.000000	6.242791	-0.024845	NaN	0.000000	0.001514	0.001706	28.083	0.038630	0.001930	20.0138	55.5803	-164.334	0.018707	0.241322	-0.910881	-0.912081	-0.024845	20.0138	-0.909950	-1.385125E+12	1.793670E-14	NaN
561	1.000000	0.252564	7.37054e+06	-49039.1	1005.82	-29760.3	0.000000	0.000000	6.252834	-0.005051	NaN	0.000000	0.001540	0.001740	28.083	0.029321	0.002001	14.6535	83.5545	15.5096	-0.036207	0.251193	-0.900839	-0.902210	-0.005051	14.6535	-0.900580	-1.034913E+12	4.880914E-15	NaN
561	1.000000	0.262543	7.37054e+06	-49039.1	1005.82	-29760.3	0.000000	0.000000	6.262814	0.008534	NaN	0.000000	0.001560	0.001721	28.0828	0.088255	0.001999	44.152	67.3718	-164.95	-0.029845	0.261277	-0.890859	-0.892125	0.008534	44.152	-0.891004	-7.682274E+11	-1.110874E-14	NaN
561	1.000000	0.272575	7.37054e+06	-49039.1	1005.82	-29760.3	0.000000	0.000000	6.272844	-0.018922	NaN	0.000000	0.001526	0.001699	28.0822	0.021804	0.001976	11.037	42.2026	12.4703	-0.013130	0.271179	-0.880828	-0.882223	-0.018922	11.037	-0.879542	-5.376732E+11	3.519282E-14	NaN
561	1.000000	0.282542	7.37054e+06	-49039.1	1005.82	-29760.3	0.000000	0.000000	6.282813	0.041353	NaN	0.000000	0.001570	0.001711	28.0818	0.065011	0.001994	32.6042	151.877	-167.232	0.073990	0.281251	-0.870861	-0.872151	0.041353	32.6042	-0.871812	-4.226335E+11	-9.784657E-14	NaN
561	1.000000	0.292564	7.37054e+06	-49039.1	1005.82	-29760.3	0.000000	0.000000	6.292835	0.016055	NaN	0.000000	0.001549	0.001683	28.0819	0.068724	0.002011	34.1698	-144.032	11.4419	-0.042272	0.291245	-0.860839	-0.862157	0.016055	34.1698	-0.861191	-3.035579E+11	-5.288997E-14	NaN
561	1.000000	0.302578	7.37054e+06	-49039.1	1005.82	-29760.3	0.000000	0.000000	6.302848	-0.003839	NaN	0.000000	0.001504	0.001749	28.0821	0.116144	0.002027	57.3047	-30.3359	-166.996	0.049344	0.301253	-0.850825	-0.852150	-0.003839	57.3047	-0.850774	-2.193929E+11	1.749973E-14	NaN
561	1.000000	0.312575	7.37054e+06	-49039.1	1005.82	-29760.3	0.000000	0.000000	6.312846	0.025188	NaN	0.000000	0.001584	0.001716	28.0815	0.041472	0.002033	20.3964	-156.866	13.521	0.007999	0.311262	-0.840827	-0.842141	0.025188	20.3964	-0.841754	-1.655958E+11	-1.521044E-13	NaN
561	1.000000	0.322595	7.37054e+06	-49039.1	1005.82	-29760.3	0.000000	0.000000	6.322868	0.060619	NaN	0.000000	0.001611	0.001706	28.0818	0.072363	0.002003	36.1359	-113.382	-166.866	0.082155	0.321304	-0.830807	-0.832099	0.060619	36.1359	-0.832065	-1.223990E+11	-4.952562E-13	NaN
561	1.000000	0.332578	7.37054e+06	-49039.1	1005.82	-29760.3	0.000000	0.000000	6.332847	-0.048935	NaN	0.000000	0.001596	0.001687	28.0816	0.042148	0.002070	20.365	164.402	10.3188	-0.028119	0.331272	-0.820824	-0.822131	-0.048935	20.365	-0.819022	-8.146097E+10	6.007119E-13	NaN
561	1.000000	0.342586	7.37054e+06	-49039.1	1005.82	-29760.3	0.000000	0.000000	6.342860	0.084316	NaN	0.000000	0.001564	0.001701	28.0821	0.114527	0.002077	55.1314	-179.064	-167.103	0.052496	0.341346	-0.810816	-0.812056	0.084316	55.1314	-0.811963	-6.534410E+10	-1.290338E-12	NaN
561	1.000000	0.352589	7.37054e+06	-49039.1	1005.82	-29760.3	0.000000	0.000000	6.352859	-0.011462	NaN	0.000000	0.001585	0.001682	28.0815	0.049274	0.002121	23.2362	-177.228	15.7714	0.004611	0.351262	-0.800814	-0.802141	-0.011462	23.2362	-0.800444	-4.559149E+10	2.514137E-13	NaN
561	1.000000	0.362612	7.37054e+06	-49039.1	1005.82	-29760.3	0.000000	0.000000	6.362884	0.057388	NaN	0.000000	0.001621	0.001687	28.0818	0.117073	0.001846	63.4121	62.057	-163.7	0.115050	0.361262	-0.790791	-0.792140	0.057388	63.4121	-0.791470	-3.443846E+10	-1.666396E-12	NaN
561	1.000000	0.372628	7.37054e+06	-49039.1	1005.82	-29760.3	0.000000	0.000000	6.372898	0.017016	NaN	0.000000	0.001531	0.001701	28.0816	0.053296	0.002056	25.9285	151.057	15.157	0.051980	0.371201	-0.780775	-0.782202	0.017016	25.9285	-0.781267	-2.502947E+10	-6.798275E-13	NaN
561	1.000000	0.382636	7.37054e+06	-49039.1	1005.82	-29760.3	0.000000	0.000000	6.382905	-0.003677	NaN	0.000000	0.001557	0.001715	28.0817	0.041208	0.001877	21.9582	23.7181	-165.439	0.030019	0.381238	-0.770767	-0.772165	-0.003677	21.9582	-0.770642	-1.794853E+10	2.048412E-13	NaN
561	1.000000	0.392616	7.37054e+06	-49039.1	1005.82	-29760.3	0.000000	0.000000	6.392885	-0.025101	NaN	0.000000	0.001538	0.001712	28.0816	0.054521	0.001890	28.8427	-44.7929	13.4345	-0.048836	0.391257	-0.760787	-0.762146	-0.025101	28.8427	-0.760134	-1.291589E+10	1.943430E-12	NaN
561	1.000000	0.402645	7.37054e+06	-49039.1	1005.82	-29760.3	0.000000	0.000000	6.402914	-0.033398	NaN	0.000000	0.001552	0.001714	28.0817	0.120916	0.002018	59.9206	23.2297	-167.259	-0.007797	0.401333	-0.750757	-0.752070	-0.033398	59.9206	-0.750339	-9.502536E+9	3.514614E-12	NaN
561	1.000000	0.412631	7.37054e+06	-49039.1	1005.82	-29760.3	0.000000	0.000000	6.412900	-0.035064	NaN	0.000000	0.001548	0.001674	28.0834	0.103713	0.002009	51.6175	75.5021	13.0618	0.019610	0.411310	-0.740772	-0.742093	-0.035064	51.6175	-0.740262	-6.928314E+9	5.060979E-12	NaN
561	1.000000	0.422611	7.37054e+06	-49039.1	1005.82	-29760.3	0.000000	0.000000	6.422881	0.003405	NaN	0.000000	0.001572	0.001780	28.0831	0.100137	0.001976	50.6714	112.235	-165.809	0.018627	0.421359	-0.730792	-0.732043	0.003405	50.6714	-0.730842	-5.155715E+9	-6.605211E-13	NaN
561	1.000000	0.432600	7.37054e+06	-49039.1	1005.82	-29760.3	0.000000	0.000000	6.432871	0.030027	NaN	0.000000	0.001603	0.001737	28.083	0.091418	0.001993	45.8685	-156.482	14.4142	-0.011090	0.431252	-0.720803	-0.722151	0.030027	45.8685	-0.721294	-3.820460E+9	-7.859503E-12	NaN
561	1.000000	0.442679	7.37054e+06	-49039.1	1005.82	-29760.3	0.000000	0.000000	6.442948	-0.015645	NaN	0.000000	0.001600	0.001748	28.083	0.066010	0.002034	32.4458	138.608	-162.906	0.054683	0.441313	-0.710724	-0.712089	-0.015645	32.4458	-0.710362	-2.710123E+9	5.772904E-12	NaN
561	1.000000	0.452641	7.37054e+06	-49039.1	1005.82	-29760.3	0.000000	0.000000	6.452911	-0.004281	NaN	0.000000	0.001610	0.001733	28.0831	0.056453	0.001996	28.2864	-151.428	14.9533	-0.106289	0.451286	-0.700761	-0.702117	-0.004281	28.2864	-0.700648	-1.997006E+9	2.143631E-12	NaN
561	1.000000	0.462648	7.37054e+06	-49039.1	1005.82	-29760.3	0.000000	0.000000	6.462918	-0.018510	NaN	0.000000	0.001593	0.001753	28.0829	0.093124	0.002035	45.7684	-159.04	-168.316	0.007181	0.461356	-0.690754	-0.692046	-0.018510	45.7684	-0.690451	-1.449044E+9	1.277426E-11	NaN
561	1.000000	0.472670	7.37054e+06	-49039.1	1005.82	-29760.3	0.000000	0.000000	6.472940	0.014326	NaN	0.000000	0.001622	0.001789	28.0828	0.038395	0.002053	18.6974	-53.2411	15.4917	-0.030767	0.471281	-0.680733	-0.682122	0.014326	18.6974	-0.681308	-1.086649E+9	-1.318388E-11	NaN
561	1.000000	0.482640	7.37054e+06	-49039.1	1005.82	-29760.3	0.000000	0.000000	6.482910	0.012887	NaN	0.000000	0.001590	0.001754	28.083	0.027539	0.001934	14.2408	15.6037	-166.95	-0.005153	0.481349	-0.670763	-0.672054	0.012887	14.2408	-0.671442	-7.963820E+8	-1.618210E-11	NaN
561	1.000000	0.492687	7.37054e+06	-49039.1	1005.82	-29760.3	0.000000	0.000000	6.492957	0.010470	NaN	0.000000	0.001536	0.001729	28.0829	0.100135	0.002001	50.0534	159.658	10.1852	0.088581	0.491280	-0.660716	-0.662123	0.010470	50.0534	-0.660873	-5.707254E+8	-1.834529E-11	NaN
561	1.000000	0.502659	7.37054e+06	-49039.1	1005.82	-29760.3	0.000000	0.000000	6.502932	0.054744	NaN	0.000000	0.001567	0.001759	28.0829	0.143274	0.001986	72.1277	-160.322	-163.756	0.031167	0.501348	-0.650743	-0.652055	0.054744	72.1277	-0.651313	-4.221156E+8	-1.296890E-10	NaN
561	1.000000	0.512698	7.37054e+06	-49039.1	1005.82	-29760.3	0.000000	0.000000	6.512967	-0.024196	NaN	0.000000	0.001596	0.001750	28.0831	0.134461	0.002012	66.8234	59.2803	14.7479	0.011268	0.511324	-0.640705	-0.642078	-0.024196	66.8234	-0.640433	-2.993887E+8	8.081726E-11	NaN
561	1.000000	0.522672	7.37054e+06	-49039.1	1005.82	-29760.3	0.000000	0.000000	6.522942	-0.005598	NaN	0.000000	0.001596	0.001744	28.0831	0.086838	0.002018	43.0217	-77.7558	-166.656	0.010205	0.521347	-0.630731	-0.632055	-0.005598	43.0217	-0.630633	-2.196439E+8	2.548868E-11	NaN
561	1.000000	0.532678	7.37054e+06	-49039.1	1005.82	-29760.3	0.000000	0.000000	6.532949	0.035999	NaN	0.000000	0.001585	0.001710	28.0831	0.020195	0.002046	9.869406	-88.7228	14.9087	0.003463	0.531330	-0.620725	-0.622072	0.035999	9.869406	-0.623461	-1.750637E+8	-2.056329E-10	NaN
561	1.000000	0.542696	7.37054e+06	-49039.1	1005.82	-29760.3	0.000000	0.000000	6.542967	0.031406	NaN	0.000000	0.001588	0.001728	28.0827	0.077385	0.002082	37.1636	154.439	-167.206	-0.065018	0.541419	-0.610707	-0.611984	0.031406	37.1636	-0.611341	-1.192785E+8	-2.633023E-10	NaN
561	1.000000	0.552694	7.37054e+06	-49039.1	1005.82	-29760.3	0.000000	0.000000	6.552963	-0.015648	NaN	0.000000	0.001607	0.001722	28.0821	0.021614	0.001962	11.0181	-99.0862	14.4768	-0.034773	0.551378	-0.600709	-0.602024	-0.015648	11.0181	-0.599644	-8.232890E+7	1.900659E-10	NaN
561	1.000000	0.562704	7.37054e+06	-49039.1	1005.82	-29760.3	0.000000	0.000000	6.562976	0.067569	NaN	0.000000	0.001565	0.001742	28.0817	0.030636	0.002017	15.188	-70.7235	-163.231	-0.023340	0.561369	-0.590699	-0.592034	0.067569	15.188	-0.594036	-6.891184E+7	-9.805096E-10	NaN
561	1.000000	0.572678	7.37054e+06	-49039.1	1005.82	-29760.3	0.000000	0.000000	6.572948	0.011398	NaN	0.000000	0.001629	0.001732	28.0819	0.051793	0.001941	26.6792	-20.6506	13.8802	0.005883	0.571325	-0.580725	-0.582077	0.011398	26.6792	-0.581045	-4.561950E+7	-2.498434E-10	NaN
561	1.000000	0.582692	7.37054e+06	-49039.1	1005.82	-29760.3	0.000000	0.000000	6.582964	0.057521	NaN	0.000000	0.001626	0.001722	28.0816	0.075350	0.002018	37.3468	15.1959	-167.229	-0.039029	0.581400	-0.570711	-0.572002	0.057521	37.3468	-0.571866	-3.407318E+7	-1.688165E-9	NaN
561	1.000000	0.592696	7.37054e+06	-49039.1	1005.82	-29760.3	0.000000	0.000000	6.592965	-0.024838	NaN	0.000000	0.001580	0.001673	28.0821	0.098356	0.002076	47.3871	-133.701	11.3814	-0.047460	0.591308	-0.560706	-0.562095	-0.024838	47.3871	-0.560313	-2.358903E+7	1.052928E-9	NaN
561	1.000000	0.602712	7.37054e+06	-49039.1	1005.82	-29760.3	0.000000	0.000000	6.602983	0.036934	NaN	0.000000	0.001556	0.001689	28.0815	0.118161	0.001983	59.5824	-70.038	-170.288	0.018846	0.601357	-0.550691	-0.552046	0.036934	59.5824	-0.551156	-1.761841E+7	-2.096330E-9	NaN
561	1.000000	0.612713	7.37054e+06	-49039.1	1005.82	-29760.3	0.000000	0.000000	6.612982	-0.033240	NaN	0.000000	0.001596	0.001674	28.0818	0.051985	0.002009	25.8789	-102.802	12.75	-0.014382	0.611334	-0.540690	-0.542069	-0.033240	25.8789	-0.539726	-1.223385E+7	2.717086E-9	NaN
561	1.000000	0.622720	7.37054e+06	-49039.1	1005.82	-29760.3	0.000000	0.000000	6.622990	0.007500	NaN	0.000000	0.001566	0.001727	28.0815	0.048841	0.001948	25.0778	147.121	-163.077	0.026542	0.621486	-0.530683	-0.531917	0.007500	25.0778	-0.530907	-9.22939e+06	-8.126647E-10	NaN
561	1.000000	0.632727	7.37054e+06	-49039.1	1005.82	-29760.3	0.000000	0.000000	6.632997	-0.002423	NaN	0.000000	0.001664	0.001722	28.0817	0.040924	0.002077	19.6997	110.636	12.83	0.032662	0.631350	-0.520676	-0.522053	-0.002423	19.6997	-0.520584	-6.63305e+06	3.653037E-10	NaN
561	1.000000	0.642699	7.37054e+06	-49039.1	1005.82	-29760.3	0.000000	0.000000	6.642969	0.009316	NaN	0.000000	0.001646	0.001727	28.0814	0.021720	0.002035	10.6747	19.1735	-165.525	0.012092	0.641482	-0.510704	-0.511921	0.009316	10.6747	-0.511358	-4.93554e+06	-1.887538E-9	NaN
561	1.000000	0.652748	7.37054e+06	-49039.1	1005.82	-29760.3	0.000000	0.000000	6.653020	0.042007	NaN	0.000000	0.001635	0.001717	28.0815	0.009361	0.001937	4.832617	3.049747	14.6093	0.017890	0.651371	-0.500654	-0.502031	0.042007	4.832617	-0.507174	-4.31557e+06	-9.733831E-9	NaN
561	1.000000	0.662723	7.37054e+06	-49039.1	1005.82	-29760.3	0.000000	0.000000	6.662995	0.055729	NaN	0.000000	0.001617	0.001744	28.0816	0.073858	0.001910	38.6763	142.16	-166.472	0.102538	0.661418	-0.490680	-0.491984	0.055729	38.6763	-0.491760	-2.6302e+06	-2.118822E-8	NaN
561	1.000000	0.672748	7.37054e+06	-49039.1	1005.82	-29760.3	0.000000	0.000000	6.673019	0.025476	NaN	0.000000	0.001635	0.001719	28.0817	0.039346	0.001973	19.9402	15.584	15.8548	0.005762	0.671379	-0.480655	-0.482024	0.025476	19.9402	-0.481613	-1.89716e+06	-1.342855E-8	NaN
561	1.000000	0.682737	7.37054e+06	-49039.1	1005.82	-29760.3	0.000000	0.000000	6.683006	-0.029450	NaN	0.000000	0.001657	0.001713	28.0826	0.081870	0.002043	40.0717	67.4336	-167.498	-0.069765	0.681470	-0.470666	-0.471933	-0.029450	40.0717	-0.470115	-1.30923e+06	2.249410E-8	NaN
561	1.000000	0.692738	7.37054e+06	-49039.1	1005.82	-29760.3	0.000000	0.000000	6.693006	-0.050696	NaN	0.000000	0.001642	0.001700	28.0828	0.057752	0.001911	30.2161	113.103	13.8779	0.062820	0.691383	-0.460665	-0.462020	-0.050696	30.2161	-0.459407	-926147	5.473853E-8	NaN
561	1.000000	0.702771	7.37054e+06	-49039.1	1005.82	-29760.3	0.000000	0.000000	6.703041	0.003105	NaN	0.000000	0.001619	0.001740	28.0828	0.087248	0.001980	44.0685	-167.554	-169.6	0.054131	0.701448	-0.450632	-0.451955	0.003105	44.0685	-0.450685	-698205	-4.446865E-9	NaN
561	1.000000	0.712757	7.37054e+06	-49039.1	1005.82	-29760.3	0.000000	0.000000	6.713028	0.044386	NaN	0.000000	0.001662	0.001752	28.0828	0.108232	0.001958	55.2899	158.795	9.685874	0.025421	0.711427	-0.440646	-0.441976	0.044386	55.2899	-0.441248	-514018	-8.635023E-8	NaN
561	1.000000	0.722771	7.37054e+06	-49039.1	1005.82	-29760.3	0.000000	0.000000	6.723041	-0.001732	NaN	0.000000	0.001654	0.001683	28.0827	0.068737	0.002116	32.4834	-170.321	-164.64	0.030692	0.721452	-0.430631	-0.431951	-0.001732	32.4834	-0.430591	-363437	4.765731E-9	NaN
561	1.000000	0.732742	7.37054e+06	-49039.1	1005.82	-29760.3	0.000000	0.000000	6.733016	0.114212	NaN	0.000000	0.001634	0.001775	28.0829	0.010542	0.002010	5.243982	-22.6857	13.9675	0.059860	0.731409	-0.420661	-0.421993	0.114212	5.243982	-0.436996	-447662	-2.551303E-7	NaN
561	1.000000	0.742779	7.37054e+06	-49039.1	1005.82	-29760.3	0.000000	0.000000	6.743050	0.026211	NaN	0.000000	0.001647	0.001764	28.0825	0.039143	0.002038	19.2109	153.678	-165.442	0.002225	0.741483	-0.410624	-0.411919	0.026211	19.2109	-0.411647	-195801	-1.338627E-7	NaN
561	1.000000	0.752790	7.37054e+06	-49039.1	1005.82	-29760.3	0.000000	0.000000	6.753061	0.013993	NaN	0.000000	0.001659	0.001760	28.0826	0.056327	0.002026	27.7957	-89.952	11.323	0.024495	0.751396	-0.400613	-0.402007	0.013993	27.7957	-0.400990	-138075	-1.013457E-7	NaN
561	1.000000	0.762767	7.37054e+06	-49039.1	1005.82	-29760.3	0.000000	0.000000	6.763038	0.032707	NaN	0.000000	0.001644	0.001767	28.0825	0.126371	0.002027	62.3528	105.8	-165.007	-0.028803	0.761466	-0.390636	-0.391936	0.032707	62.3528	-0.391030	-99515.8	-3.286647E-7	NaN
561	1.000000	0.772778	7.37054e+06	-49039.1	1005.82	-29760.3	0.000000	0.000000	6.773051	0.070773	NaN	0.000000	0.001634	0.001736	28.0828	0.057375	0.001912	30.0156	-59.8705	14.0443	0.055389	0.771384	-0.380625	-0.382019	0.070773	30.0156	-0.382393	-74854.4	-9.454731E-7	NaN
561	1.000000	0.782780	7.37054e+06	-49039.1	1005.82	-29760.3	0.000000	0.000000	6.783049	-0.024275	NaN	0.000000	0.001631	0.001782	28.0825	0.063181	0.002117	29.8512	-159.384	-169.274	0.014455	0.781453	-0.370622	-0.371950	-0.024275	29.8512	-0.370012	-49694.4	4.884899E-7	NaN
561	1.000000	0.792761	7.37054e+06	-49039.1	1005.82	-29760.3	0.000000	0.000000	6.793033	0.054673	NaN	0.000000	0.001643	0.001769	28.0826	0.050046	0.001998	25.042	15.6295	13.674	0.068359	0.791424	-0.360642	-0.361979	0.054673	25.042	-0.362279	-38439.7	-1.422311E-6	NaN
561	1.000000	0.802784	7.37054e+06	-49039.1	1005.82	-29760.3	0.000000	0.000000	6.803056	0.035842	NaN	0.000000	0.001598	0.001776	28.0827	0.048108	0.001924	25.0089	-109.204	-167.227	-0.014494	0.801510	-0.350618	-0.351892	0.035842	25.0089	-0.351693	-27012.8	-1.326866E-6	NaN
561	1.000000	0.812817	7.37054e+06	-49039.1	1005.82	-29760.3	0.000000	0.000000	6.813088	0.017240	NaN	0.000000	0.001572	0.001722	28.0827	0.126203	0.001912	65.9888	-144.36	13.517	-0.004777	0.811427	-0.340586	-0.341976	0.017240	65.9888	-0.340782	-18747.7	-9.195844E-7	NaN
561	1.000000	0.822787	7.37054e+06	-49039.1	1005.82	-29760.3	0.000000	0.000000	6.823058	0.034334	NaN	0.000000	0.001578	0.001773	28.0816	0.053175	0.001935	27.4816	-57.5638	-165.704	0.043524	0.821530	-0.330616	-0.331872	0.034334	27.4816	-0.331553	-13746.2	-2.497728E-6	NaN
561	1.000000	0.832769	7.37054e+06	-49039.1	1005.82	-29760.3	0.000000	0.000000	6.833040	0.026073	NaN	0.000000	0.001565	0.001756	28.0813	0.055831	0.002022	27.6097	100.986	13.9777	-0.012775	0.831455	-0.320634	-0.321948	0.026073	27.6097	-0.321342	-9736.02	-2.677970E-6	NaN
561	1.000000	0.842801	7.37054e+06	-49039.1	1005.82	-29760.3	0.000000	0.000000	6.843067	-0.078306	NaN	0.000000	0.001580	0.001751	28.0818	0.023091	0.002029	11.3793	-14.3241	-165.219	-0.097769	0.841499	-0.310602	-0.311904	-0.078306	11.3793	-0.305441	-5668.93	1.381316E-5	NaN
561	1.000000	0.852825	7.37054e+06	-49039.1	1005.82	-29760.3	0.000000	0.000000	6.853093	-0.049002	NaN	0.000000	0.001573	0.001743	28.0813	0.103040	0.002024	50.8979	-2.447663	13.4326	0.054607	0.851455	-0.300577	-0.301948	-0.049002	50.8979	-0.299855	-4682.55	1.046478E-5	NaN
561	1.000000	0.862833	7.37054e+06	-49039.1	1005.82	-29760.3	0.000000	0.000000	6.863103	-0.008871	NaN	0.000000	0.001583	0.001782	28.0816	0.089394	0.002123	42.1088	77.8738	-168.464	-0.052716	0.861536	-0.290570	-0.291867	-0.008871	42.1088	-0.290412	-3384.29	2.621251E-6	NaN
561	1.000000	0.872851	7.37054e+06	-49039.1	1005.82	-29760.3	0.000000	0.000000	6.873121	-0.010655	NaN	0.000000	0.001611	0.001742	28.0824	0.096119	0.001926	49.9067	-165.9	12.8777	-0.033106	0.871448	-0.280551	-0.281954	-0.010655	49.9067	-0.280391	-2392.6	4.453388E-6	NaN
561	1.000000	0.882802	7.37054e+06	-49039.1	1005.82	-29760.3	0.000000	0.000000	6.883072	-0.013365	NaN	0.000000	0.001591	0.001730	28.0819	0.086246	0.001954	44.1456	-6.351347	-164.73	-0.090986	0.881507	-0.270600	-0.271896	-0.013365	44.1456	-0.270373	-1687.41	7.920703E-6	NaN
561	1.000000	0.892826	7.37054e+06	-49039.1	1005.82	-29760.3	0.000000	0.000000	6.893097	0.018086	NaN	0.000000	0.001567	0.001748	28.0815	0.060947	0.001988	30.6638	153.402	15.1855	0.022425	0.891455	-0.260577	-0.261948	0.018086	30.6638	-0.261019	-1214.88	-1.488721E-5	NaN
561	1.000000	0.902836	7.37054e+06	-49039.1	1005.82	-29760.3	0.000000	0.000000	6.903108	0.044513	NaN	0.000000	0.001621	0.001772	28.0815	0.061966	0.002159	28.7015	124.633	-166.197	-0.008608	0.901504	-0.250567	-0.251899	0.044513	28.7015	-0.251730	-874.388	-5.090799E-5	NaN
561	1.000000	0.912841	7.37054e+06	-49039.1	1005.82	-29760.3	0.000000	0.000000	6.913110	-0.018192	NaN	0.000000	0.001582	0.001789	28.0818	0.084070	0.001934	43.4665	139.825	14.9497	0.011444	0.911472	-0.240562	-0.241930	-0.018192	43.4665	-0.240248	-579.993	3.136537E-5	NaN
561	1.000000	0.922845	7.37054e+06	-49039.1	1005.82	-29760.3	0.000000	0.000000	6.923115	0.002951	NaN	0.000000	0.001550	0.001753	28.0816	0.114061	0.002058	55.4219	-101.048	-166.296	0.025927	0.921497	-0.230558	-0.231906	0.002951	55.4219	-0.230598	-409.215	-7.210677E-6	NaN
561	1.000000	0.932826	7.37054e+06	-49039.1	1005.82	-29760.3	0.000000	0.000000	6.933097	0.026058	NaN	0.000000	0.001549	0.001762	28.0817	0.033724	0.001998	16.8782	154.116	13.5854	0.042228	0.931452	-0.220576	-0.221951	0.026058	16.8782	-0.221734	-296.048	-8.801909E-5	NaN
561	1.000000	0.942840	7.37054e+06	-49039.1	1005.82	-29760.3	0.000000	0.000000	6.943112	0.038768	NaN	0.000000	0.001556	0.001761	28.082	0.060104	0.002184	27.5218	-30.0675	-164.75	0.000282	0.941536	-0.210562	-0.211867	0.038768	27.5218	-0.211619	-203.707	-0.000190	NaN
561	1.000000	0.952851	7.37054e+06	-49039.1	1005.82	-29760.3	0.000000	0.000000	6.953122	0.018697	NaN	0.000000	0.001569	0.001758	28.0821	0.082577	0.002023	40.8122	-125.656	15.4843	0.039440	0.951476	-0.200552	-0.201927	0.018697	40.8122	-0.200895	-136.27	-0.000137	NaN
561	1.000000	0.962868	7.37054e+06	-49039.1	1005.82	-29760.3	0.000000	0.000000	6.963139	0.029971	NaN	0.000000	0.001553	0.001791	28.0831	0.020143	0.001977	10.1881	-125.369	-166.416	-0.007106	0.961512	-0.190535	-0.191890	0.029971	10.1881	-0.192741	-99.9349	-0.000300	NaN
561	1.000000	0.972881	7.37054e+06	-49039.1	1005.82	-29760.3	0.000000	0.000000	6.973150	-0.031742	NaN	0.000000	0.001603	0.001761	28.0829	0.092379	0.001936	47.7209	-103.469	14.8897	-0.050559	0.971530	-0.180521	-0.181872	-0.031742	47.7209	-0.180022	-61.0729	0.000520	NaN
561	1.000000	0.982857	7.37054e+06	-49039.1	1005.82	-29760.3	0.000000	0.000000	6.983124	-0.061483	NaN	0.000000	0.001593	0.001671	28.0833	0.099193	0.001980	50.0931	145.827	-163.542	-0.080481	0.981516	-0.170546	-0.171887	-0.061483	50.0931	-0.169625	-40.4672	0.001519	NaN
561	1.000000	0.992868	7.37054e+06	-49039.1	1005.82	-29760.3	0.000000	0.000000	6.993141	0.057434	NaN	0.000000	0.001561	0.001772	28.0829	0.009097	0.001924	4.728485	42.8473	14.6279	0.110479	0.991436	-0.160534	-0.161967	0.057434	4.728485	-0.169644	-40.4978	-0.001418	NaN
561	1.000000	1.002846	7.37054e+06	-49039.1	1005.82	-29760.3	0.000000	0.000000	7.003113	-0.074055	NaN	0.000000	0.001561	0.001743	28.0831	0.049211	0.001994	24.6845	153.953	-163.506	-0.064483	1.001558	-0.150557	-0.151844	-0.074055	24.6845	-0.148307	-16.8674	0.004390	NaN
561	1.000000	1.012918	7.37054e+06	-49039.1	1005.82	-29760.3	0.000000	0.000000	7.013188	-0.009908	NaN	0.000000	0.001584	0.001787	28.0829	0.060317	0.002041	29.5589	-18.0705	13.151	0.015710	1.011504	-0.140484	-0.141898	-0.009908	29.5589	-0.140233	-11.9492	0.000829	NaN
561	1.000000	1.022886	7.37054e+06	-49039.1	1005.82	-29760.3	0.000000	0.000000	7.023158	0.056169	NaN	0.000000	0.001590	0.001719	28.0833	0.070075	0.002005	34.9554	31.9382	-168.178	0.087019	1.021537	-0.130517	-0.131866	0.056169	34.9554	-0.131722	-8.229327	-0.006825	NaN
561	1.000000	1.032885	7.37054e+06	-49039.1	1005.82	-29760.3	0.000000	0.000000	7.033153	-0.033053	NaN	0.000000	0.001576	0.001747	28.0828	0.020193	0.001943	10.394	-128.472	13.7138	-0.006670	1.031514	-0.120518	-0.121889	-0.033053	10.394	-0.118133	-4.428532	0.007464	NaN
561	1.000000	1.042866	7.37054e+06	-49039.1	1005.82	-29760.3	0.000000	0.000000	7.043134	-0.046396	NaN	0.000000	0.001580	0.001734	28.0831	0.026154	0.002111	12.3891	136.059	-164.635	0.044890	1.041555	-0.110537	-0.111848	-0.046396	12.3891	-0.107728	-2.689772	0.017249	NaN
561	1.000000	1.052883	7.37054e+06	-49039.1	1005.82	-29760.3	0.000000	0.000000	7.053153	-0.014132	NaN	0.000000	0.001645	0.001731	28.0829	0.036447	0.001970	18.4994	-64.7853	14.9725	0.005631	1.051512	-0.100519	-0.101891	-0.014132	18.4994	-0.099946	-1.822154	0.007756	NaN
561	1.000000	1.062913	7.37054e+06	-49039.1	1005.82	-29760.3	0.000000	0.000000	7.063184	0.007896	NaN	0.000000	0.001638	0.001693	28.0832	0.030673	0.002042	15.0232	10.4463	-163.834	-0.075171	1.061595	-0.090489	-0.091808	0.007896	15.0232	-0.090883	-1.133683	-0.006965	NaN
561	1.000000	1.072911	7.37054e+06	-49039.1	1005.82	-29760.3	0.000000	0.000000	7.073180	-0.031294	NaN	0.000000	0.001644	0.001699	28.0833	0.116720	0.001924	60.6709	128.111	12.9777	-0.122910	1.071577	-0.080491	-0.081826	-0.031294	60.6709	-0.080105	-0.622730	0.050252	NaN
561	1.000000	1.082909	7.37054e+06	-49039.1	1005.82	-29760.3	0.000000	0.000000	7.083180	0.011324	NaN	0.000000	0.001638	0.001704	28.0831	0.059657	0.001992	29.9541	-161.607	-166.814	-0.035708	1.081609	-0.070494	-0.071793	0.011324	29.9541	-0.070777	-0.357812	-0.031649	NaN
561	1.000000	1.092909	7.37054e+06	-49039.1	1005.82	-29760.3	0.000000	0.000000	7.093176	-0.069796	NaN	0.000000	0.001646	0.001705	28.0818	0.112198	0.002048	54.7919	83.5245	11.4149	-0.069438	1.091601	-0.060494	-0.061802	-0.069796	54.7919	-0.059538	-0.174676	0.399573	NaN
561	1.000000	1.102899	7.37054e+06	-49039.1	1005.82	-29760.3	0.000000	0.000000	7.103167	-0.050239	NaN	0.000000	0.001634	0.001706	28.0817	0.141322	0.001955	72.2872	-151.573	-167.546	-0.028428	1.101583	-0.050504	-0.051819	-0.050239	72.2872	-0.049983	-0.091141	0.551217	NaN
561	1.000000	1.112921	7.37054e+06	-49039.1	1005.82	-29760.3	0.000000	0.000000	7.113191	0.000473	NaN	0.000000	0.001638	0.001678	28.082	0.021018	0.002094	10.0355	35.5267	13.3981	0.013170	1.111558	-0.040482	-0.041845	0.000473	10.0355	-0.040517	-0.046888	-0.010080	NaN
561	1.000000	1.122906	7.37054e+06	-49039.1	1005.82	-29760.3	0.000000	0.000000	7.123177	0.026834	NaN	0.000000	0.001626	0.001709	28.0818	0.091839	0.001998	45.9675	37.4041	-167.013	0.030685	1.121618	-0.030497	-0.031784	0.026834	45.9675	-0.030935	-0.024444	-1.097767	NaN
561	1.000000	1.132913	7.37054e+06	-49039.1	1005.82	-29760.3	0.000000	0.000000	7.133184	0.023470	NaN	0.000000	0.001587	0.001653	28.082	0.062133	0.001986	31.2899	-132.642	11.9396	0.081803	1.131559	-0.020490	-0.021843	0.023470	31.2899	-0.021053	-0.013359	-1.756909	NaN
561	1.000000	1.142918	7.37054e+06	-49039.1	1005.82	-29760.3	0.000000	0.000000	7.143189	0.040003	NaN	0.000000	0.001590	0.001672	28.0818	0.031563	0.001918	16.456	-0.513987	-166.656	0.044266	1.141614	-0.010485	-0.011788	0.040003	16.456	-0.012308	-0.007705	-5.191873	NaN
561	1.000000	1.152919	7.37054e+06	-49039.1	1005.82	-29760.3	0.000000	0.000000	7.153255	1.592224	NaN	0.000000	0.001578	0.001661	28.082	2.273254	0.001912	1188.89	7.314122	14.4117	0.635937	1.151550	-0.000484	-0.001852	1.592224	1188.89	-0.001488	-0.001081	-1472.79	NaN
561	2.000000	1.160531	7.37054e+06	-49039.1	1005.82	-29760.3	0.000000	0.000000	7.161133	8.087422	NaN	0.000000	0.001564	0.001689	28.082	9.241064	0.001816	5089.59	8.649471	-173.965	7.466334	1.160196	0.007128	0.006793	8.087422	5089.59	0.005936	0.005004	1616.13	65733.9
561	2.000000	1.163028	7.37054e+06	-49039.1	1005.82	-29760.3	0.000000	0.000000	7.163851	13.444	NaN	0.000000	0.001579	0.001683	28.0826	11.3429	0.001544	7346.15	0.860237	9.525937	12.4461	1.162647	0.009625	0.009245	13.444	7346.15	0.008252	0.007303	1840.81	78536.9
561	2.000000	1.165470	7.37054e+06	-49039.1	1005.82	-29760.3	0.000000	0.000000	7.166349	14.8119	NaN	0.000000	0.001598	0.001657	28.0818	14.206	0.001739	8168.75	10.5395	-178.892	14.2651	1.165120	0.012068	0.011717	14.8119	8168.75	0.010708	0.009979	1484.38	74713
561	2.000000	1.167964	7.37054e+06	-49039.1	1005.82	-29760.3	0.000000	0.000000	7.169057	20.0281	NaN	0.000000	0.001572	0.001664	28.0825	16.8108	0.001719	9778.68	6.292577	3.078957	19.3174	1.167636	0.014561	0.014234	20.0281	9778.68	0.013025	0.012741	1571.97	79150.7
561	2.000000	1.170496	7.37054e+06	-49039.1	1005.82	-29760.3	0.000000	0.000000	7.171725	23.3207	NaN	0.000000	0.001550	0.001673	28.0819	19.5596	0.001798	10880.5	5.724042	-177.093	23.7035	1.170148	0.017093	0.016745	23.3207	10880.5	0.015486	0.015938	1463.18	78740.7
561	2.000000	1.172946	7.37054e+06	-49039.1	1005.82	-29760.3	0.000000	0.000000	7.174524	31.7951	NaN	0.000000	0.001517	0.001647	28.0824	22.6162	0.001854	12200.9	9.512885	-1.643867	30.2254	1.172565	0.019544	0.019163	31.7951	12200.9	0.017589	0.018895	1682.76	81095.3
561	2.000000	1.175451	7.37054e+06	-49039.1	1005.82	-29760.3	0.000000	0.000000	7.177243	37.0261	NaN	0.000000	0.001560	0.001643	28.0821	24.3782	0.001789	13626.2	8.810953	178.454	36.4588	1.175122	0.022048	0.021720	37.0261	13626.2	0.020010	0.022558	1641.37	82889.2
561	2.000000	1.177930	7.37054e+06	-49039.1	1005.82	-29760.3	0.000000	0.000000	7.180018	44.2055	NaN	0.000000	0.001539	0.001678	28.0836	27.6096	0.001662	16608.6	5.849771	-1.568093	42.8799	1.177612	0.024528	0.024210	44.2055	16608.6	0.022531	0.026677	1657.06	92904.4
561	2.000000	1.180385	7.37054e+06	-49039.1	1005.82	-29760.3	0.000000	0.000000	7.182727	50.3865	NaN	0.000000	0.001547	0.001696	28.0833	30.2777	0.001816	16675	5.439777	179.926	48.4232	1.180070	0.026983	0.026667	50.3865	16675	0.024716	0.030502	1651.93	87232.4
561	2.000000	1.182951	7.37054e+06	-49039.1	1005.82	-29760.3	0.000000	0.000000	7.185548	56.573	NaN	0.000000	0.001569	0.001703	28.0834	33.2721	0.001827	18210.3	9.134077	-3.194442	54.9446	1.182578	0.029549	0.029176	56.573	18210.3	0.027219	0.035176	1608.28	88708.5
561	2.000000	1.185407	7.37054e+06	-49039.1	1005.82	-29760.3	0.000000	0.000000	7.188418	66.6481	NaN	0.000000	0.001550	0.001677	28.0834	35.7636	0.001869	19133.3	8.944399	175.39	66.9239	1.185045	0.032005	0.031642	66.6481	19133.3	0.029392	0.039493	1687.59	87963.3
561	2.000000	1.187937	7.37054e+06	-49039.1	1005.82	-29760.3	0.000000	0.000000	7.191240	73.7723	NaN	0.000000	0.001542	0.001668	28.084	37.1637	0.001604	23168.2	2.678273	-0.965905	73.4546	1.187591	0.034534	0.034189	73.7723	23168.2	0.032146	0.045309	1628.2	99443
561	2.000000	1.190402	7.37054e+06	-49039.1	1005.82	-29760.3	0.000000	0.000000	7.193983	80.5332	NaN	0.000000	0.001556	0.001665	28.0835	41.0265	0.001769	23186.8	3.111407	179.251	80.1446	1.190104	0.036999	0.036701	80.5332	23186.8	0.034394	0.050345	1599.62	94413.6
561	2.000000	1.192935	7.37054e+06	-49039.1	1005.82	-29760.3	0.000000	0.000000	7.196964	91.4103	NaN	0.000000	0.001595	0.001662	28.0837	43.4998	0.001816	23949	5.565059	-3.591152	91.6895	1.192630	0.039532	0.039227	91.4103	23949	0.036670	0.055705	1640.96	92706.9
561	2.000000	1.195436	7.37054e+06	-49039.1	1005.82	-29760.3	0.000000	0.000000	7.199881	101.539	NaN	0.000000	0.001599	0.001665	28.0834	45.1415	0.001721	26225.4	7.320061	173.547	103.49	1.195158	0.042033	0.041755	101.539	26225.4	0.039129	0.061798	1643.1	96384.9
561	2.000000	1.197867	7.37054e+06	-49039.1	1005.82	-29760.3	0.000000	0.000000	7.202889	115.552	NaN	0.000000	0.001585	0.001651	28.0845	48.1365	0.001778	27071.1	3.343013	-2.904234	112.839	1.197512	0.044465	0.044110	115.552	27071.1	0.041263	0.067334	1716.11	95315.2
561	2.000000	1.200355	7.37054e+06	-49039.1	1005.82	-29760.3	0.000000	0.000000	7.205795	125.734	NaN	0.000000	0.001587	0.001699	28.0832	50.1227	0.001677	29882	3.325266	176.026	123.587	1.200013	0.046952	0.046610	125.734	29882	0.043796	0.074207	1694.37	100221
561	2.000000	1.202913	7.37054e+06	-49039.1	1005.82	-29760.3	0.000000	0.000000	7.208988	141.188	NaN	0.000000	0.001606	0.001674	28.084	53.1623	0.001892	28102.6	5.568808	-4.649558	139.859	1.202495	0.049510	0.049092	141.188	28102.6	0.045742	0.079708	1771.33	90943
561	2.000000	1.205303	7.37054e+06	-49039.1	1005.82	-29760.3	0.000000	0.000000	7.211791	151.226	NaN	0.000000	0.001627	0.001680	28.0833	55.2581	0.001864	29650.6	3.783904	176.207	147.413	1.205000	0.051900	0.051597	151.226	29650.6	0.048075	0.086556	1747.15	92078.8
561	2.000000	1.207816	7.37054e+06	-49039.1	1005.82	-29760.3	0.000000	0.000000	7.214869	164.975	NaN	0.000000	0.001618	0.001677	28.0837	57.0546	0.001878	30382	3.010778	-3.445744	159.956	1.207461	0.054413	0.054059	164.975	30382	0.050341	0.093469	1765.03	90793.9
561	2.000000	1.210329	7.37054e+06	-49039.1	1005.82	-29760.3	0.000000	0.000000	7.217899	177.521	NaN	0.000000	0.001609	0.001705	28.0825	59.145	0.001759	33614.7	4.621860	173.666	174.733	1.210065	0.056927	0.056662	177.521	33614.7	0.052966	0.101801	1743.8	96255.9
561	2.000000	1.212786	7.37054e+06	-49039.1	1005.82	-29760.3	0.000000	0.000000	7.220874	190.155	NaN	0.000000	0.001643	0.001684	28.0821	60.2926	0.001767	34119.8	4.483707	-4.881269	183.893	1.212486	0.059383	0.059084	190.155	34119.8	0.055203	0.109171	1741.8	94346.5
561	2.000000	1.215352	7.37054e+06	-49039.1	1005.82	-29760.3	0.000000	0.000000	7.224059	205.177	NaN	0.000000	0.001593	0.001680	28.0817	61.6208	0.001631	37781.9	2.717715	175.975	204.377	1.215054	0.061950	0.061651	205.177	37781.9	0.057877	0.118305	1734.31	100359
561	2.000000	1.217793	7.37054e+06	-49039.1	1005.82	-29760.3	0.000000	0.000000	7.227123	220.332	NaN	0.000000	0.001614	0.001668	28.082	64.2127	0.001781	36057.6	-0.168725	-1.242372	214.653	1.217462	0.064391	0.064059	220.332	36057.6	0.059808	0.125120	1760.97	93133.7
561	2.000000	1.220468	7.37054e+06	-49039.1	1005.82	-29760.3	0.000000	0.000000	7.230324	233.136	NaN	0.000000	0.001584	0.001664	28.0816	68.2614	0.001796	37998.6	7.961577	171.115	236.537	1.219999	0.067065	0.066596	233.136	37998.6	0.062463	0.134790	1729.62	94561.1
561	2.000000	1.222801	7.37054e+06	-49039.1	1005.82	-29760.3	0.000000	0.000000	7.233318	249.192	NaN	0.000000	0.001608	0.001683	28.0818	68.6036	0.001789	38337.1	2.665914	-4.039903	243.281	1.222512	0.069399	0.069110	249.192	38337.1	0.064524	0.142528	1748.37	92777.6
561	2.000000	1.225373	7.37054e+06	-49039.1	1005.82	-29760.3	0.000000	0.000000	7.236332	259.954	NaN	0.000000	0.001543	0.001676	28.0817	71.036	0.001802	39431.3	3.536764	174.293	260.8	1.225116	0.071970	0.071713	259.954	39431.3	0.067026	0.152201	1707.97	92343.3
561	2.000000	1.227877	7.37054e+06	-49039.1	1005.82	-29760.3	0.000000	0.000000	7.239631	279.32	NaN	0.000000	0.001543	0.001658	28.0818	74.4033	0.001806	41191.2	4.378412	-6.633741	277.282	1.227536	0.074474	0.074133	279.32	41191.2	0.069388	0.161607	1728.39	93615.3
561	2.000000	1.230332	7.37054e+06	-49039.1	1005.82	-29760.3	0.000000	0.000000	7.242541	290.363	NaN	0.000000	0.001507	0.001654	28.0819	77.0535	0.001844	41796.2	3.664382	174.044	288.469	1.229977	0.076929	0.076574	290.363	41796.2	0.071719	0.171150	1696.54	92304.2
561	2.000000	1.232829	7.37054e+06	-49039.1	1005.82	-29760.3	0.000000	0.000000	7.246038	314.687	NaN	0.000000	0.001512	0.001681	28.0818	78.3731	0.001787	43866.3	2.063434	-4.557731	309.537	1.232353	0.079426	0.078950	314.687	43866.3	0.074046	0.180935	1739.22	94219.8
561	2.000000	1.235400	7.37054e+06	-49039.1	1005.82	-29760.3	0.000000	0.000000	7.249112	326.918	NaN	0.000000	0.001500	0.001692	28.0819	81.0249	0.001751	46283.6	4.287801	172.421	327.112	1.235028	0.081997	0.081625	326.918	46283.6	0.076699	0.192403	1699.13	96404
561	2.000000	1.237842	7.37054e+06	-49039.1	1005.82	-29760.3	0.000000	0.000000	7.251984	337.376	NaN	0.000000	0.001513	0.001667	28.0818	84.5884	0.001772	47749.4	5.526144	-9.598365	334.95	1.237624	0.084439	0.084221	337.376	47749.4	0.079140	0.203242	1659.97	96768.5
561	2.000000	1.240329	7.37054e+06	-49039.1	1005.82	-29760.3	0.000000	0.000000	7.255419	360.425	NaN	0.000000	0.001513	0.001680	28.0817	87.2651	0.001859	46941.5	3.306769	173.052	358.941	1.240063	0.086926	0.086661	360.425	46941.5	0.081167	0.212459	1696.45	93044.9
561	2.000000	1.242911	7.37054e+06	-49039.1	1005.82	-29760.3	0.000000	0.000000	7.258836	380.737	NaN	0.000000	0.001472	0.001682	28.0817	88.6387	0.001762	50298.7	7.611727	-10.4537	380.143	1.242435	0.089508	0.089032	380.737	50298.7	0.083831	0.224856	1693.25	96912
561	2.000000	1.245462	7.37054e+06	-49039.1	1005.82	-29760.3	0.000000	0.000000	7.262009	395.85	NaN	0.000000	0.001488	0.001678	28.0831	92.2037	0.001727	53387.2	8.464795	167.307	401.594	1.245021	0.092060	0.091618	395.85	53387.2	0.086499	0.237602	1666.02	100066
561	2.000000	1.247935	7.37054e+06	-49039.1	1005.82	-29760.3	0.000000	0.000000	7.265316	416.151	NaN	0.000000	0.001494	0.001683	28.0829	94.5953	0.001869	50619.4	6.426440	-10.6832	419.265	1.247576	0.094532	0.094174	416.151	50619.4	0.088366	0.246721	1686.72	93108
561	2.000000	1.250284	7.37054e+06	-49039.1	1005.82	-29760.3	0.000000	0.000000	7.268599	438.878	NaN	0.000000	0.001535	0.001681	28.0831	95.8719	0.001849	51842.5	4.920501	171.23	435.626	1.250002	0.096881	0.096600	438.878	51842.5	0.090532	0.257496	1704.41	93341.3
561	2.000000	1.252809	7.37054e+06	-49039.1	1005.82	-29760.3	0.000000	0.000000	7.271705	452.999	NaN	0.000000	0.001538	0.001732	28.0831	97.1596	0.001743	55737.3	6.205780	-10.8775	448.691	1.252547	0.099406	0.099145	452.999	55737.3	0.093311	0.271635	1667.68	97707.1
561	2.000000	1.255253	7.37054e+06	-49039.1	1005.82	-29760.3	0.000000	0.000000	7.275368	482.656	NaN	0.000000	0.001506	0.001717	28.0831	99.2596	0.001788	55504.8	5.600359	170.271	479.31	1.254946	0.101850	0.101543	482.656	55504.8	0.095328	0.282123	1710.8	95473.8
561	2.000000	1.257839	7.37054e+06	-49039.1	1005.82	-29760.3	0.000000	0.000000	7.278534	496.748	NaN	0.000000	0.001501	0.001686	28.083	101.582	0.001780	57068	2.445465	-6.854777	495.152	1.257461	0.104436	0.104058	496.748	57068	0.097908	0.295801	1679.33	95866.3
561	2.000000	1.258248	7.37054e+06	-49039.1	1005.82	-29760.3	0.000000	0.000000	7.279143	501.605	NaN	0.000000	0.001498	0.001684	28.0831	101.555	0.001696	59890.9	3.461901	171.624	497.984	1.258036	0.104845	0.104633	501.605	59890.9	0.098564	0.299329	1675.76	100014