File: remote_trans/data/nanoindenter/0828-1/data/Data_2025-08-06,11h17m57s/2025-07-22_16-23-58_1_1080.txt
2025-07-22, 16:23:58, 1
Index	Phase	Displacement	Time	Pos X	Pos Y	Pos Z	Rot A	Rot B	Piezo Z	Force A	Force B	Gripper	Voltage A	Voltage B	Temperature	Amplitude force	Amplitude pos	Stiffness	Phase shift	Phase excitation	Force A raw	Displacement raw	HMax	HMax raw	Real Force	Real Stiffness	Contact Depth	Area	Hardness	Reduced Mod.
[#]	[#]	[um]	[s]	[um]	[um]	[um]	[m°]	[m°]	[um]	[uN]	[uN]	[V]	[V]	[V]	[°C]	[uN]	[um]	[N/m]	[°]	[°]	[uN]	[um]	[um]	[um]	[uN]	[N/m]	[um]	[um^2]	[MPa]	[MPa]
1080	1.000000	0.002477	7.37561e+06	-54139.1	1055.82	-29744.3	0.000000	0.000000	6.002791	-0.016724	NaN	0.000000	0.001609	0.001639	28.0827	0.070154	0.001059	66.2396	-109.134	-169.796	0.001931	0.001191	-0.986197	-0.987484	-0.016724	66.2396	-0.986008	-1.470098E+13	1.137605E-15	NaN
1080	1.000000	0.010478	7.37561e+06	-54139.1	1055.82	-29744.3	0.000000	0.000000	6.010790	-0.057552	NaN	0.000000	0.001580	0.001656	28.0828	0.075417	0.000961	78.475	-141.538	-160.511	-0.044131	0.009154	-0.978197	-0.979521	-0.057552	78.475	-0.977647	-1.134250E+13	5.074013E-15	NaN
1080	1.000000	0.018442	7.37561e+06	-54139.1	1055.82	-29744.3	0.000000	0.000000	6.018756	-0.022881	NaN	0.000000	0.001585	0.001630	28.0827	0.114711	0.001751	65.5189	134.155	-167.241	-0.074941	0.017116	-0.970233	-0.971559	-0.022881	65.5189	-0.969971	-8.938549E+12	2.559797E-15	NaN
1080	1.000000	0.026471	7.37561e+06	-54139.1	1055.82	-29744.3	0.000000	0.000000	6.026784	-0.046443	NaN	0.000000	0.001585	0.001683	28.0828	0.054334	0.001786	30.426	49.4428	-168.061	-0.003163	0.025112	-0.962203	-0.963563	-0.046443	30.426	-0.961059	-6.778603E+12	6.851389E-15	NaN
1080	1.000000	0.034440	7.37561e+06	-54139.1	1055.82	-29744.3	0.000000	0.000000	6.034753	-0.047937	NaN	0.000000	0.001609	0.001664	28.083	0.076397	0.001892	40.3763	125.937	-163.404	-0.105273	0.033078	-0.954234	-0.955596	-0.047937	40.3763	-0.953344	-5.334873E+12	8.985611E-15	NaN
1080	1.000000	0.042423	7.37561e+06	-54139.1	1055.82	-29744.3	0.000000	0.000000	6.042737	-0.022469	NaN	0.000000	0.001606	0.001632	28.0833	0.002147	0.001850	1.161028	143.229	-167.006	-0.039562	0.041116	-0.946252	-0.947559	-0.022469	1.161028	-0.931737	-2.726737E+12	8.240168E-15	NaN
1080	1.000000	0.050430	7.37561e+06	-54139.1	1055.82	-29744.3	0.000000	0.000000	6.050741	-0.088822	NaN	0.000000	0.001551	0.001645	28.0827	0.052501	0.002052	25.5802	6.621408	-166.297	0.039382	0.049142	-0.938245	-0.939532	-0.088822	25.5802	-0.935641	-3.078382E+12	2.885347E-14	NaN
1080	1.000000	0.058474	7.37561e+06	-54139.1	1055.82	-29744.3	0.000000	0.000000	6.058787	-0.056025	NaN	0.000000	0.001584	0.001597	28.0828	0.047201	0.002008	23.5034	-97.3696	-163.804	-0.054082	0.057210	-0.930201	-0.931465	-0.056025	23.5034	-0.928413	-2.459091E+12	2.278291E-14	NaN
1080	1.000000	0.066460	7.37561e+06	-54139.1	1055.82	-29744.3	0.000000	0.000000	6.066773	-0.036261	NaN	0.000000	0.001612	0.001652	28.0841	0.106871	0.001976	54.0777	26.4524	-168.914	-0.031939	0.065123	-0.922215	-0.923551	-0.036261	54.0777	-0.921712	-1.996709E+12	1.816051E-14	NaN
1080	1.000000	0.074438	7.37561e+06	-54139.1	1055.82	-29744.3	0.000000	0.000000	6.074753	-0.007367	NaN	0.000000	0.001585	0.001602	28.0841	0.110978	0.001978	56.0963	-133.642	-164.096	-0.067561	0.073110	-0.914237	-0.915565	-0.007367	56.0963	-0.914138	-1.577798E+12	4.669365E-15	NaN
1080	1.000000	0.082435	7.37561e+06	-54139.1	1055.82	-29744.3	0.000000	0.000000	6.082748	-0.048273	NaN	0.000000	0.001618	0.001656	28.0843	0.018201	0.001956	9.303455	53.3769	-165.075	-0.056847	0.081132	-0.906239	-0.907543	-0.048273	9.303455	-0.902348	-1.093423E+12	4.414893E-14	NaN
1080	1.000000	0.090461	7.37561e+06	-54139.1	1055.82	-29744.3	0.000000	0.000000	6.090774	-0.039735	NaN	0.000000	0.001614	0.001662	28.0841	0.051707	0.001803	28.674	82.3944	-163.539	-0.042736	0.089155	-0.898213	-0.899520	-0.039735	28.674	-0.897174	-9.308485E+11	4.268653E-14	NaN
1080	1.000000	0.098460	7.37561e+06	-54139.1	1055.82	-29744.3	0.000000	0.000000	6.098769	-0.130634	NaN	0.000000	0.001637	0.001661	28.0845	0.075381	0.002108	35.758	144.988	-166.184	-0.050494	0.097175	-0.890215	-0.891500	-0.130634	35.758	-0.887475	-6.882990E+11	1.897930E-13	NaN
1080	1.000000	0.106410	7.37561e+06	-54139.1	1055.82	-29744.3	0.000000	0.000000	6.106721	-0.069623	NaN	0.000000	0.001572	0.001673	28.0844	0.061957	0.001936	32.0072	-12.5998	-164.009	-0.022617	0.105155	-0.882265	-0.883520	-0.069623	32.0072	-0.880634	-5.562616E+11	1.251618E-13	NaN
1080	1.000000	0.114458	7.37561e+06	-54139.1	1055.82	-29744.3	0.000000	0.000000	6.114771	-0.028362	NaN	0.000000	0.001624	0.001631	28.0844	0.083876	0.001948	43.0527	-134.877	-162.796	-0.071810	0.113193	-0.874217	-0.875482	-0.028362	43.0527	-0.873723	-4.485482E+11	6.323129E-14	NaN
1080	1.000000	0.122454	7.37561e+06	-54139.1	1055.82	-29744.3	0.000000	0.000000	6.122767	-0.033035	NaN	0.000000	0.001596	0.001708	28.0844	0.068107	0.001960	34.7563	118.817	-162.366	-0.109562	0.121165	-0.866221	-0.867510	-0.033035	34.7563	-0.865508	-3.472649E+11	9.512966E-14	NaN
1080	1.000000	0.130479	7.37561e+06	-54139.1	1055.82	-29744.3	0.000000	0.000000	6.130791	-0.057671	NaN	0.000000	0.001599	0.001690	28.0845	0.080323	0.001982	40.5345	-140.803	-161.945	-0.098042	0.129156	-0.858196	-0.859519	-0.057671	40.5345	-0.857129	-2.674609E+11	2.156241E-13	NaN
1080	1.000000	0.138474	7.37562e+06	-54139.1	1055.82	-29744.3	0.000000	0.000000	6.138788	-0.019076	NaN	0.000000	0.001604	0.001723	28.085	0.063734	0.001897	33.5899	21.9549	-166.533	0.043605	0.137204	-0.850200	-0.851471	-0.019076	33.5899	-0.849774	-2.126587E+11	8.970077E-14	NaN
1080	1.000000	0.146455	7.37562e+06	-54139.1	1055.82	-29744.3	0.000000	0.000000	6.146763	-0.151054	NaN	0.000000	0.001604	0.001646	28.0845	0.149133	0.001956	76.2408	28.521	-164.611	-0.109308	0.145170	-0.842220	-0.843505	-0.151054	76.2408	-0.840734	-1.604126E+11	9.416577E-13	NaN
1080	1.000000	0.154452	7.37562e+06	-54139.1	1055.82	-29744.3	0.000000	0.000000	6.154767	0.008460	NaN	0.000000	0.001585	0.001631	28.0845	0.038740	0.001919	20.1895	-103.882	-163.825	-0.057951	0.153135	-0.834222	-0.835540	0.008460	20.1895	-0.834537	-1.322108E+11	-6.398653E-14	NaN
1080	1.000000	0.162486	7.37562e+06	-54139.1	1055.82	-29744.3	0.000000	0.000000	6.162797	-0.086008	NaN	0.000000	0.001546	0.001636	28.0847	0.057375	0.002027	28.3075	149.911	-164.858	-0.061308	0.161179	-0.826188	-0.827496	-0.086008	28.3075	-0.823910	-9.489092E+10	9.063884E-13	NaN
1080	1.000000	0.170477	7.37562e+06	-54139.1	1055.82	-29744.3	0.000000	0.000000	6.170789	-0.065273	NaN	0.000000	0.001561	0.001678	28.0843	0.054105	0.002010	26.918	150.453	-165.851	-0.034194	0.169182	-0.818198	-0.819493	-0.065273	26.918	-0.816379	-7.500827E+10	8.702043E-13	NaN
1080	1.000000	0.178496	7.37562e+06	-54139.1	1055.82	-29744.3	0.000000	0.000000	6.178809	-0.057723	NaN	0.000000	0.001574	0.001642	28.0848	0.077773	0.001975	39.369	143.56	-166.696	-0.043546	0.177167	-0.810178	-0.811508	-0.057723	39.369	-0.809079	-5.971338E+10	9.666747E-13	NaN
1080	1.000000	0.186486	7.37562e+06	-54139.1	1055.82	-29744.3	0.000000	0.000000	6.186799	-0.030969	NaN	0.000000	0.001591	0.001648	28.0843	0.020252	0.002049	9.884651	137.596	-165.205	-0.103611	0.185191	-0.802189	-0.803484	-0.030969	9.884651	-0.799839	-4.473875E+10	6.922145E-13	NaN
1080	1.000000	0.194489	7.37562e+06	-54139.1	1055.82	-29744.3	0.000000	0.000000	6.194800	-0.094966	NaN	0.000000	0.001602	0.001655	28.0843	0.035823	0.002074	17.2745	-36.942	-164.591	-0.069903	0.193179	-0.794186	-0.795496	-0.094966	17.2745	-0.790062	-3.295577E+10	2.881609E-12	NaN
1080	1.000000	0.202522	7.37562e+06	-54139.1	1055.82	-29744.3	0.000000	0.000000	6.202835	-0.023513	NaN	0.000000	0.001556	0.001661	28.0829	0.123362	0.001961	62.9204	-168.826	-165.869	0.021820	0.201223	-0.786153	-0.787451	-0.023513	62.9204	-0.785873	-2.890851E+10	8.133482E-13	NaN
1080	1.000000	0.210481	7.37562e+06	-54139.1	1055.82	-29744.3	0.000000	0.000000	6.210791	-0.115485	NaN	0.000000	0.001579	0.001685	28.0831	0.079717	0.001951	40.8624	70.0852	-164.02	-0.176882	0.209166	-0.778194	-0.779509	-0.115485	40.8624	-0.776074	-2.127551E+10	5.428084E-12	NaN
1080	1.000000	0.218504	7.37562e+06	-54139.1	1055.82	-29744.3	0.000000	0.000000	6.218818	-0.035208	NaN	0.000000	0.001578	0.001637	28.0831	0.039264	0.002123	18.491	43.6656	-164.952	-0.094306	0.217216	-0.770170	-0.771459	-0.035208	18.491	-0.768742	-1.691235E+10	2.081784E-12	NaN
1080	1.000000	0.226504	7.37562e+06	-54139.1	1055.82	-29744.3	0.000000	0.000000	6.226815	-0.074487	NaN	0.000000	0.001579	0.001638	28.0833	0.126404	0.002028	62.34	-139.056	-166.525	-0.081251	0.225164	-0.762171	-0.763511	-0.074487	62.34	-0.761275	-1.338582E+10	5.564618E-12	NaN
1080	1.000000	0.234507	7.37562e+06	-54139.1	1055.82	-29744.3	0.000000	0.000000	6.234819	-0.059658	NaN	0.000000	0.001603	0.001676	28.0835	0.075075	0.001840	40.8094	127.816	-163.764	-0.016582	0.233199	-0.754168	-0.755476	-0.059658	40.8094	-0.753071	-1.035201E+10	5.762907E-12	NaN
1080	1.000000	0.242533	7.37562e+06	-54139.1	1055.82	-29744.3	0.000000	0.000000	6.242843	-0.119199	NaN	0.000000	0.001585	0.001662	28.0834	0.122397	0.002000	61.1841	-145.542	-166.575	-0.035750	0.241178	-0.746142	-0.747497	-0.119199	61.1841	-0.744681	-7.957913E+9	1.497873E-11	NaN
1080	1.000000	0.250530	7.37562e+06	-54139.1	1055.82	-29744.3	0.000000	0.000000	6.250844	-0.013663	NaN	0.000000	0.001563	0.001691	28.0828	0.086963	0.002001	43.4574	-150.635	-164.691	-0.031494	0.249209	-0.738145	-0.739465	-0.013663	43.4574	-0.737909	-6.435363E+9	2.123044E-12	NaN
1080	1.000000	0.258477	7.37562e+06	-54139.1	1055.82	-29744.3	0.000000	0.000000	6.258791	-0.021693	NaN	0.000000	0.001568	0.001659	28.0832	0.087177	0.001989	43.8335	-178.496	-165.784	-0.098007	0.257261	-0.730197	-0.731414	-0.021693	43.8335	-0.729826	-4.993889E+9	4.343992E-12	NaN
1080	1.000000	0.266506	7.37562e+06	-54139.1	1055.82	-29744.3	0.000000	0.000000	6.266819	-0.043008	NaN	0.000000	0.001562	0.001618	28.0831	0.025492	0.001925	13.2457	-125.617	-162.81	-0.024082	0.265227	-0.722169	-0.723447	-0.043008	13.2457	-0.719734	-3.637801E+9	1.182241E-11	NaN
1080	1.000000	0.274544	7.37562e+06	-54139.1	1055.82	-29744.3	0.000000	0.000000	6.274856	-0.062568	NaN	0.000000	0.001551	0.001603	28.0834	0.038907	0.001897	20.5086	-74.0225	-163.382	-0.041782	0.273233	-0.714131	-0.715442	-0.062568	20.5086	-0.711843	-2.839191E+9	2.203712E-11	NaN
1080	1.000000	0.282520	7.37562e+06	-54139.1	1055.82	-29744.3	0.000000	0.000000	6.282833	-0.037339	NaN	0.000000	0.001577	0.001600	28.0832	0.065457	0.001992	32.853	61.4767	-165.162	-0.012812	0.281194	-0.706155	-0.707481	-0.037339	32.853	-0.705303	-2.311720E+9	1.615197E-11	NaN
1080	1.000000	0.290540	7.37562e+06	-54139.1	1055.82	-29744.3	0.000000	0.000000	6.290853	-0.043554	NaN	0.000000	0.001563	0.001618	28.0831	0.052611	0.002013	26.1344	-70.9809	-165.23	-0.090956	0.289261	-0.698135	-0.699414	-0.043554	26.1344	-0.696885	-1.774119E+9	2.454940E-11	NaN
1080	1.000000	0.298514	7.37562e+06	-54139.1	1055.82	-29744.3	0.000000	0.000000	6.298827	-0.052071	NaN	0.000000	0.001552	0.001660	28.0833	0.043778	0.002089	20.9545	-6.371056	-166.841	-0.095476	0.297203	-0.690160	-0.691471	-0.052071	20.9545	-0.688297	-1.354061E+9	3.845525E-11	NaN
1080	1.000000	0.306528	7.37562e+06	-54139.1	1055.82	-29744.3	0.000000	0.000000	6.306839	-0.094484	NaN	0.000000	0.001556	0.001674	28.0832	0.054819	0.002072	26.4579	161.292	-169.02	-0.068665	0.305230	-0.682147	-0.683445	-0.094484	26.4579	-0.679469	-1.025505E+9	9.213389E-11	NaN
1080	1.000000	0.314509	7.37562e+06	-54139.1	1055.82	-29744.3	0.000000	0.000000	6.314823	-0.025640	NaN	0.000000	0.001529	0.001694	28.0834	0.048269	0.002114	22.828	-7.020345	-164.285	-0.048555	0.313182	-0.674166	-0.675493	-0.025640	22.828	-0.673323	-8.450293E+8	3.034196E-11	NaN
1080	1.000000	0.322525	7.37562e+06	-54139.1	1055.82	-29744.3	0.000000	0.000000	6.322839	-0.025222	NaN	0.000000	0.001540	0.001681	28.0833	0.092034	0.001893	48.6215	172.722	-167.462	-0.133087	0.321290	-0.666150	-0.667384	-0.025222	48.6215	-0.665761	-6.658203E+8	3.788111E-11	NaN
1080	1.000000	0.330559	7.37562e+06	-54139.1	1055.82	-29744.3	0.000000	0.000000	6.330872	-0.035429	NaN	0.000000	0.001583	0.001718	28.083	0.129251	0.001985	65.1226	-111.309	-160.756	-0.037173	0.329236	-0.658116	-0.659439	-0.035429	65.1226	-0.657708	-5.164985E+8	6.859450E-11	NaN
1080	1.000000	0.338536	7.37562e+06	-54139.1	1055.82	-29744.3	0.000000	0.000000	6.338847	-0.084189	NaN	0.000000	0.001599	0.001676	28.0842	0.129911	0.002169	59.8914	89.5963	-164.863	-0.055690	0.337230	-0.650139	-0.651445	-0.084189	59.8914	-0.649085	-3.934478E+8	2.139775E-10	NaN
1080	1.000000	0.346517	7.37562e+06	-54139.1	1055.82	-29744.3	0.000000	0.000000	6.346830	-0.040754	NaN	0.000000	0.001587	0.001700	28.0844	0.087554	0.001932	45.3253	-38.4548	-165.112	0.025690	0.345245	-0.642158	-0.643429	-0.040754	45.3253	-0.641483	-3.094850E+8	1.316847E-10	NaN
1080	1.000000	0.354568	7.37562e+06	-54139.1	1055.82	-29744.3	0.000000	0.000000	6.354882	-0.016773	NaN	0.000000	0.001599	0.001702	28.0844	0.086790	0.001784	48.6603	91.7516	-167.359	-0.032231	0.353224	-0.634106	-0.635450	-0.016773	48.6603	-0.633848	-2.431404E+8	6.898641E-11	NaN
1080	1.000000	0.362562	7.37562e+06	-54139.1	1055.82	-29744.3	0.000000	0.000000	6.362875	-0.032595	NaN	0.000000	0.001593	0.001665	28.0845	0.135961	0.002216	61.3431	-151.017	-167.85	0.023267	0.361247	-0.626113	-0.627427	-0.032595	61.3431	-0.625714	-1.879998E+8	1.733805E-10	NaN
1080	1.000000	0.370552	7.37562e+06	-54139.1	1055.82	-29744.3	0.000000	0.000000	6.370865	-0.053967	NaN	0.000000	0.001575	0.001670	28.0846	0.108976	0.002069	52.6666	37.3544	-167.77	-0.136723	0.369253	-0.618123	-0.619421	-0.053967	52.6666	-0.617354	-1.442982E+8	3.739931E-10	NaN
1080	1.000000	0.378579	7.37562e+06	-54139.1	1055.82	-29744.3	0.000000	0.000000	6.378892	-0.055681	NaN	0.000000	0.001592	0.001682	28.0844	0.050441	0.002022	24.941	-149.53	-164.183	0.047918	0.377266	-0.610095	-0.611409	-0.055681	24.941	-0.608421	-1.087396E+8	5.120566E-10	NaN
1080	1.000000	0.386542	7.37562e+06	-54139.1	1055.82	-29744.3	0.000000	0.000000	6.386853	-0.104979	NaN	0.000000	0.001552	0.001684	28.0847	0.072172	0.002031	35.5408	-101.767	-164.192	-0.081803	0.385289	-0.602133	-0.603386	-0.104979	35.5408	-0.599917	-8.304639E+7	1.264099E-9	NaN
1080	1.000000	0.394551	7.37562e+06	-54139.1	1055.82	-29744.3	0.000000	0.000000	6.394861	-0.113365	NaN	0.000000	0.001542	0.001701	28.0842	0.066015	0.001970	33.5045	-165.532	-163.564	-0.136144	0.393298	-0.594124	-0.595377	-0.113365	33.5045	-0.591586	-6.375730E+7	1.778074E-9	NaN
1080	1.000000	0.402624	7.37562e+06	-54139.1	1055.82	-29744.3	0.000000	0.000000	6.402938	-0.033501	NaN	0.000000	0.001511	0.001688	28.0846	0.041993	0.001926	21.8026	179.349	-168.81	-0.036405	0.401275	-0.586050	-0.587400	-0.033501	21.8026	-0.584898	-5.155938E+7	6.497608E-10	NaN
1080	1.000000	0.410596	7.37562e+06	-54139.1	1055.82	-29744.3	0.000000	0.000000	6.410908	-0.044289	NaN	0.000000	0.001536	0.001708	28.0846	0.072130	0.001850	38.9902	-167.787	-164.313	-0.159428	0.409241	-0.578079	-0.579433	-0.044289	38.9902	-0.577227	-4.040664E+7	1.096085E-9	NaN
1080	1.000000	0.418593	7.37562e+06	-54139.1	1055.82	-29744.3	0.000000	0.000000	6.418907	-0.031249	NaN	0.000000	0.001565	0.001684	28.0845	0.018624	0.002059	9.047076	129.356	-166.058	0.000561	0.417319	-0.570081	-0.571355	-0.031249	9.047076	-0.567491	-2.964540E+7	1.054089E-9	NaN
1080	1.000000	0.426593	7.37562e+06	-54139.1	1055.82	-29744.3	0.000000	0.000000	6.426907	-0.005613	NaN	0.000000	0.001516	0.001692	28.0847	0.124293	0.001995	62.2884	-150.134	-166.203	-0.108495	0.425234	-0.562082	-0.563441	-0.005613	62.2884	-0.562014	-2.490228E+7	2.254130E-10	NaN
1080	1.000000	0.434583	7.37562e+06	-54139.1	1055.82	-29744.3	0.000000	0.000000	6.434897	-0.030035	NaN	0.000000	0.001491	0.001716	28.0845	0.009294	0.002060	4.511738	18.9198	-169.847	-0.015798	0.433336	-0.554091	-0.555339	-0.030035	4.511738	-0.549099	-1.649947E+7	1.820343E-9	NaN
1080	1.000000	0.442575	7.37562e+06	-54139.1	1055.82	-29744.3	0.000000	0.000000	6.442889	-0.023690	NaN	0.000000	0.001513	0.001710	28.0846	0.038865	0.002071	18.7679	11.9478	-166.722	0.052094	0.441336	-0.546100	-0.547338	-0.023690	18.7679	-0.545153	-1.454799E+7	1.628416E-9	NaN
1080	1.000000	0.450624	7.37562e+06	-54139.1	1055.82	-29744.3	0.000000	0.000000	6.450937	-0.031393	NaN	0.000000	0.001518	0.001709	28.0845	0.213270	0.002139	99.7262	106.73	-165.906	0.027729	0.449256	-0.538051	-0.539419	-0.031393	99.7262	-0.537815	-1.150925E+7	2.727637E-9	NaN
1080	1.000000	0.458594	7.37562e+06	-54139.1	1055.82	-29744.3	0.000000	0.000000	6.458908	-0.007595	NaN	0.000000	0.001535	0.001690	28.0844	0.118525	0.001952	60.7092	5.806748	-163.503	-0.012769	0.457299	-0.530081	-0.531376	-0.007595	60.7092	-0.529987	-8.96181e+06	8.474615E-10	NaN
1080	1.000000	0.466619	7.37562e+06	-54139.1	1055.82	-29744.3	0.000000	0.000000	6.466930	-0.078702	NaN	0.000000	0.001562	0.001692	28.0844	0.083744	0.001995	41.9776	131.105	-164.36	-0.013714	0.465304	-0.522056	-0.523371	-0.078702	41.9776	-0.520650	-6.64717e+06	1.183995E-8	NaN
1080	1.000000	0.474593	7.37562e+06	-54139.1	1055.82	-29744.3	0.000000	0.000000	6.474903	-0.110860	NaN	0.000000	0.001548	0.001701	28.083	0.085565	0.001958	43.7111	-8.176747	-163.708	-0.105050	0.473293	-0.514082	-0.515382	-0.110860	43.7111	-0.512180	-5.06722e+06	2.187795E-8	NaN
1080	1.000000	0.482582	7.37562e+06	-54139.1	1055.82	-29744.3	0.000000	0.000000	6.482897	0.004447	NaN	0.000000	0.001521	0.001671	28.0832	0.093948	0.002044	45.9664	-81.4076	-165.349	0.005959	0.481328	-0.506093	-0.507347	0.004447	45.9664	-0.506165	-4.17819e+06	-1.064394E-9	NaN
1080	1.000000	0.490611	7.37562e+06	-54139.1	1055.82	-29744.3	0.000000	0.000000	6.490927	0.021013	NaN	0.000000	0.001527	0.001679	28.0833	0.104950	0.002063	50.8788	-119.3	-167.902	0.020844	0.489331	-0.498063	-0.499344	0.021013	50.8788	-0.498373	-3.25327e+06	-6.459137E-9	NaN
1080	1.000000	0.498622	7.37562e+06	-54139.1	1055.82	-29744.3	0.000000	0.000000	6.498936	-0.021309	NaN	0.000000	0.001577	0.001675	28.0832	0.014169	0.001939	7.307464	-86.2396	-165.452	0.022049	0.497312	-0.490053	-0.491363	-0.021309	7.307464	-0.487865	-2.32038e+06	9.183509E-9	NaN
1080	1.000000	0.506626	7.37562e+06	-54139.1	1055.82	-29744.3	0.000000	0.000000	6.506939	-0.034653	NaN	0.000000	0.001578	0.001741	28.0834	0.068313	0.002079	32.8631	46.4077	-163.775	-0.047076	0.505322	-0.482049	-0.483353	-0.034653	32.8631	-0.481258	-1.87557e+06	1.847611E-8	NaN
1080	1.000000	0.514627	7.37562e+06	-54139.1	1055.82	-29744.3	0.000000	0.000000	6.514937	-0.097028	NaN	0.000000	0.001577	0.001727	28.0831	0.076158	0.002006	37.9582	42.7711	-164.205	-0.068437	0.513323	-0.474048	-0.475352	-0.097028	37.9582	-0.472131	-1.39729e+06	6.944010E-8	NaN
1080	1.000000	0.522615	7.37562e+06	-54139.1	1055.82	-29744.3	0.000000	0.000000	6.522930	0.009370	NaN	0.000000	0.001543	0.001709	28.0834	0.091205	0.002047	44.5627	-57.8521	-166.016	0.037623	0.521301	-0.466060	-0.467373	0.009370	44.5627	-0.466217	-1.15434e+06	-8.117088E-9	NaN
1080	1.000000	0.530642	7.37562e+06	-54139.1	1055.82	-29744.3	0.000000	0.000000	6.530956	-0.032311	NaN	0.000000	0.001567	0.001702	28.0835	0.072065	0.001990	36.218	73.3108	-168.343	-0.132724	0.529321	-0.458032	-0.459353	-0.032311	36.218	-0.457363	-866869	3.727365E-8	NaN
1080	1.000000	0.538625	7.37562e+06	-54139.1	1055.82	-29744.3	0.000000	0.000000	6.538939	-0.036275	NaN	0.000000	0.001571	0.001665	28.0834	0.018044	0.002075	8.696378	-12.0011	-164.72	-0.055520	0.537371	-0.450049	-0.451304	-0.036275	8.696378	-0.446921	-617969	5.870022E-8	NaN
1080	1.000000	0.546654	7.37562e+06	-54139.1	1055.82	-29744.3	0.000000	0.000000	6.546968	-0.000484	NaN	0.000000	0.001570	0.001673	28.0835	0.093121	0.002113	44.0755	124.04	-165.261	-0.054240	0.545312	-0.442021	-0.443363	-0.000484	44.0755	-0.442013	-526948	9.175911E-10	NaN
1080	1.000000	0.554658	7.37562e+06	-54139.1	1055.82	-29744.3	0.000000	0.000000	6.554970	-0.074187	NaN	0.000000	0.001545	0.001690	28.0833	0.033619	0.002054	16.3649	82.8175	-168.236	-0.112204	0.553391	-0.434016	-0.435283	-0.074187	16.3649	-0.430616	-363731	2.039613E-7	NaN
1080	1.000000	0.562664	7.37562e+06	-54139.1	1055.82	-29744.3	0.000000	0.000000	6.562979	-0.006824	NaN	0.000000	0.001549	0.001685	28.0836	0.106217	0.002069	51.3418	-114.679	-165.426	-0.002206	0.561319	-0.426011	-0.427356	-0.006824	51.3418	-0.425911	-312022	2.186906E-8	NaN
1080	1.000000	0.570650	7.37562e+06	-54139.1	1055.82	-29744.3	0.000000	0.000000	6.570963	-0.032559	NaN	0.000000	0.001523	0.001685	28.0835	0.044255	0.002083	21.2506	175.133	-164.013	0.002022	0.569351	-0.418025	-0.419324	-0.032559	21.2506	-0.416876	-232320	1.401473E-7	NaN
1080	1.000000	0.578677	7.37562e+06	-54139.1	1055.82	-29744.3	0.000000	0.000000	6.578990	-0.036800	NaN	0.000000	0.001550	0.001653	28.0833	0.071728	0.002149	33.3809	-168.094	-169.358	-0.041046	0.577288	-0.409998	-0.411387	-0.036800	33.3809	-0.409171	-180555	2.038181E-7	NaN
1080	1.000000	0.586640	7.37562e+06	-54139.1	1055.82	-29744.3	0.000000	0.000000	6.586953	-0.028721	NaN	0.000000	0.001552	0.001690	28.0834	0.048231	0.002063	23.3839	140.425	-164.72	-0.071298	0.585364	-0.402035	-0.403311	-0.028721	23.3839	-0.401114	-138637	2.071643E-7	NaN
1080	1.000000	0.594659	7.37562e+06	-54139.1	1055.82	-29744.3	0.000000	0.000000	6.594969	-0.110164	NaN	0.000000	0.001539	0.001676	28.0834	0.015258	0.001966	7.760071	104.295	-168.706	-0.079163	0.593362	-0.394016	-0.395313	-0.110164	7.760071	-0.383369	-77306	1.425039E-6	NaN
1080	1.000000	0.602681	7.37562e+06	-54139.1	1055.82	-29744.3	0.000000	0.000000	6.602995	0.001358	NaN	0.000000	0.001525	0.001680	28.0837	0.019987	0.001908	10.4735	-162.796	-166.342	-0.012520	0.601349	-0.385994	-0.387326	0.001358	10.4735	-0.386091	-84570.9	-1.606193E-8	NaN
1080	1.000000	0.610635	7.37562e+06	-54139.1	1055.82	-29744.3	0.000000	0.000000	6.610949	-0.004948	NaN	0.000000	0.001562	0.001678	28.0846	0.031653	0.001913	16.5492	94.1328	-163.129	-0.049643	0.609376	-0.378040	-0.379299	-0.004948	16.5492	-0.377816	-64347.4	7.689648E-8	NaN
1080	1.000000	0.618704	7.37562e+06	-54139.1	1055.82	-29744.3	0.000000	0.000000	6.619017	-0.032956	NaN	0.000000	0.001561	0.001680	28.0848	0.012959	0.002098	6.175159	62.7094	-161.916	-0.069828	0.617376	-0.369971	-0.371299	-0.032956	6.175159	-0.365968	-43452.8	7.584434E-7	NaN
1080	1.000000	0.626623	7.37562e+06	-54139.1	1055.82	-29744.3	0.000000	0.000000	6.626938	0.016058	NaN	0.000000	0.001553	0.001693	28.0845	0.062812	0.002087	30.1017	16.7022	-164.406	0.070444	0.625381	-0.362052	-0.363294	0.016058	30.1017	-0.362452	-38660.8	-4.153482E-7	NaN
1080	1.000000	0.634658	7.37562e+06	-54139.1	1055.82	-29744.3	0.000000	0.000000	6.634971	-0.051784	NaN	0.000000	0.001558	0.001695	28.0846	0.094965	0.001979	47.9963	-160.474	-167.582	-0.159089	0.633383	-0.354017	-0.355292	-0.051784	47.9963	-0.353208	-28413.5	1.822527E-6	NaN
1080	1.000000	0.642680	7.37562e+06	-54139.1	1055.82	-29744.3	0.000000	0.000000	6.642992	-0.063170	NaN	0.000000	0.001556	0.001693	28.0846	0.107521	0.001984	54.203	-26.7792	-167.907	-0.081708	0.641360	-0.345995	-0.347315	-0.063170	54.203	-0.345121	-21682.8	2.913385E-6	NaN
1080	1.000000	0.650682	7.37562e+06	-54139.1	1055.82	-29744.3	0.000000	0.000000	6.650994	-0.068406	NaN	0.000000	0.001613	0.001675	28.0845	0.052274	0.001947	26.8494	-132.427	-167.024	-0.008848	0.649422	-0.337993	-0.339252	-0.068406	26.8494	-0.336082	-16010	4.272697E-6	NaN
1080	1.000000	0.658700	7.37562e+06	-54139.1	1055.82	-29744.3	0.000000	0.000000	6.659013	-0.057756	NaN	0.000000	0.001587	0.001667	28.0846	0.072695	0.002028	35.8448	102.334	-168.595	-0.046493	0.657453	-0.329974	-0.331222	-0.057756	35.8448	-0.328766	-12513.3	4.615546E-6	NaN
1080	1.000000	0.666688	7.37562e+06	-54139.1	1055.82	-29744.3	0.000000	0.000000	6.667002	-0.019143	NaN	0.000000	0.001576	0.001660	28.0843	0.079874	0.001827	43.7183	-38.1555	-166.693	0.001995	0.665404	-0.321987	-0.323270	-0.019143	43.7183	-0.321658	-9840.93	1.945249E-6	NaN
1080	1.000000	0.674696	7.37562e+06	-54139.1	1055.82	-29744.3	0.000000	0.000000	6.675008	-0.079038	NaN	0.000000	0.001550	0.001706	28.0845	0.044786	0.001983	22.5863	-35.643	-164.909	-0.135599	0.673370	-0.313979	-0.315305	-0.079038	22.5863	-0.311354	-6935.65	1.139586E-5	NaN
1080	1.000000	0.682682	7.37562e+06	-54139.1	1055.82	-29744.3	0.000000	0.000000	6.682995	-0.023635	NaN	0.000000	0.001581	0.001683	28.0842	0.035025	0.002038	17.1821	127.922	-166.463	-0.011836	0.681410	-0.305993	-0.307264	-0.023635	17.1821	-0.304961	-5576.76	4.238212E-6	NaN
1080	1.000000	0.690701	7.37562e+06	-54139.1	1055.82	-29744.3	0.000000	0.000000	6.691019	0.083471	NaN	0.000000	0.001616	0.001671	28.0844	0.026552	0.001988	13.3584	158.94	-163.05	0.018474	0.689413	-0.297974	-0.299262	0.083471	13.3584	-0.302661	-5154.77	-1.619294E-5	NaN
1080	1.000000	0.698719	7.37562e+06	-54139.1	1055.82	-29744.3	0.000000	0.000000	6.699032	-0.026442	NaN	0.000000	0.001643	0.001640	28.0846	0.045452	0.002084	21.8064	-115.666	-165.188	-0.071552	0.697407	-0.289956	-0.291267	-0.026442	21.8064	-0.289046	-3228.58	8.190034E-6	NaN
1080	1.000000	0.706724	7.37562e+06	-54139.1	1055.82	-29744.3	0.000000	0.000000	6.707036	-0.079877	NaN	0.000000	0.001630	0.001665	28.0845	0.100422	0.001907	52.6717	-116.132	-163.15	-0.020962	0.705362	-0.281951	-0.283313	-0.079877	52.6717	-0.280813	-2427.92	3.289931E-5	NaN
1080	1.000000	0.714688	7.37562e+06	-54139.1	1055.82	-29744.3	0.000000	0.000000	6.715000	-0.064876	NaN	0.000000	0.001636	0.001649	28.0846	0.088703	0.001904	46.5985	10.2663	-162.871	-0.113813	0.713398	-0.273987	-0.275276	-0.064876	46.5985	-0.272943	-1845.97	3.514484E-5	NaN
1080	1.000000	0.722695	7.37562e+06	-54139.1	1055.82	-29744.3	0.000000	0.000000	6.723005	-0.097570	NaN	0.000000	0.001657	0.001623	28.0844	0.022446	0.001976	11.3618	-87.4042	-168.65	-0.091577	0.721426	-0.265980	-0.267249	-0.097570	11.3618	-0.259539	-1153.08	8.461680E-5	NaN
1080	1.000000	0.730713	7.37562e+06	-54139.1	1055.82	-29744.3	0.000000	0.000000	6.731027	-0.021195	NaN	0.000000	0.001635	0.001626	28.0845	0.160658	0.002131	75.3784	-106.786	-165.298	-0.009961	0.729420	-0.257962	-0.259255	-0.021195	75.3784	-0.257751	-1082.45	1.958080E-5	NaN
1080	1.000000	0.738722	7.37562e+06	-54139.1	1055.82	-29744.3	0.000000	0.000000	6.739036	0.000448	NaN	0.000000	0.001611	0.001625	28.0846	0.043242	0.001953	22.14	174.186	-167.996	0.040093	0.737470	-0.249953	-0.251205	0.000448	22.14	-0.249968	-821.248	-5.450272E-7	NaN
1080	1.000000	0.746721	7.37562e+06	-54139.1	1055.82	-29744.3	0.000000	0.000000	6.747035	-0.009318	NaN	0.000000	0.001663	0.001670	28.083	0.061416	0.001988	30.8871	128.094	-167.053	0.000459	0.745387	-0.241954	-0.243288	-0.009318	30.8871	-0.241728	-611.671	1.523435E-5	NaN
1080	1.000000	0.754721	7.37562e+06	-54139.1	1055.82	-29744.3	0.000000	0.000000	6.755036	0.020818	NaN	0.000000	0.001593	0.001621	28.0832	0.038068	0.002038	18.6831	-10.5894	-166.299	0.024957	0.753425	-0.233954	-0.235250	0.020818	18.6831	-0.234790	-476.376	-4.370010E-5	NaN
1080	1.000000	0.762731	7.37562e+06	-54139.1	1055.82	-29744.3	0.000000	0.000000	6.763048	0.063419	NaN	0.000000	0.001591	0.001658	28.0831	0.082098	0.001930	42.5447	18.4185	-167.8	-0.073505	0.761372	-0.225944	-0.227303	0.063419	42.5447	-0.227062	-359.782	-0.000176	NaN
1080	1.000000	0.770732	7.37562e+06	-54139.1	1055.82	-29744.3	0.000000	0.000000	6.771047	0.015427	NaN	0.000000	0.001648	0.001695	28.0832	0.067115	0.002092	32.0753	-170.542	-164.837	0.031197	0.769433	-0.217943	-0.219242	0.015427	32.0753	-0.218304	-260.937	-5.912308E-5	NaN
1080	1.000000	0.778758	7.37562e+06	-54139.1	1055.82	-29744.3	0.000000	0.000000	6.779072	-0.012578	NaN	0.000000	0.001622	0.001663	28.0832	0.174904	0.002054	85.1668	174.969	-168.571	0.022123	0.777441	-0.209917	-0.211234	-0.012578	85.1668	-0.209806	-190.404	6.605976E-5	NaN
1080	1.000000	0.786733	7.37562e+06	-54139.1	1055.82	-29744.3	0.000000	0.000000	6.787045	-0.051577	NaN	0.000000	0.001655	0.001636	28.0829	0.112324	0.001913	58.7133	166.8	-165.795	0.011169	0.785426	-0.201942	-0.203248	-0.051577	58.7133	-0.201283	-138.282	0.000373	NaN
1080	1.000000	0.794733	7.37562e+06	-54139.1	1055.82	-29744.3	0.000000	0.000000	6.795048	-0.001094	NaN	0.000000	0.001637	0.001675	28.0835	0.051465	0.002042	25.2044	-108.051	-167.904	-0.028474	0.793481	-0.193942	-0.195193	-0.001094	25.2044	-0.193909	-104.499	1.047163E-5	NaN
1080	1.000000	0.802766	7.37562e+06	-54139.1	1055.82	-29744.3	0.000000	0.000000	6.803080	-0.004326	NaN	0.000000	0.001629	0.001692	28.083	0.094827	0.001930	49.1371	119.646	-163.656	0.015978	0.801430	-0.185909	-0.187245	-0.004326	49.1371	-0.185843	-76.6184	5.646574E-5	NaN
1080	1.000000	0.810744	7.37562e+06	-54139.1	1055.82	-29744.3	0.000000	0.000000	6.811059	-0.005169	NaN	0.000000	0.001674	0.001629	28.0832	0.088486	0.001953	45.2994	-50.5247	-167.402	-0.057181	0.809437	-0.177931	-0.179238	-0.005169	45.2994	-0.177845	-56.0696	9.218765E-5	NaN
1080	1.000000	0.818774	7.37562e+06	-54139.1	1055.82	-29744.3	0.000000	0.000000	6.819088	-0.016795	NaN	0.000000	0.001672	0.001670	28.0833	0.030756	0.001951	15.7645	57.4682	-165.258	-0.045234	0.817383	-0.169901	-0.171291	-0.016795	15.7645	-0.169102	-39.6284	0.000424	NaN
1080	1.000000	0.826746	7.37562e+06	-54139.1	1055.82	-29744.3	0.000000	0.000000	6.827057	-0.092893	NaN	0.000000	0.001663	0.001641	28.0829	0.140049	0.002011	69.6365	-145.731	-163.926	-0.011335	0.825417	-0.161929	-0.163258	-0.092893	69.6365	-0.160929	-28.4752	0.003262	NaN
1080	1.000000	0.834799	7.37562e+06	-54139.1	1055.82	-29744.3	0.000000	0.000000	6.835113	0.005529	NaN	0.000000	0.001628	0.001701	28.0834	0.032422	0.001967	16.4849	173.247	-166.177	-0.048084	0.833437	-0.153876	-0.155238	0.005529	16.4849	-0.154128	-21.5212	-0.000257	NaN
1080	1.000000	0.842785	7.37562e+06	-54139.1	1055.82	-29744.3	0.000000	0.000000	6.843098	-0.053945	NaN	0.000000	0.001656	0.001683	28.083	0.090845	0.002141	42.4298	154.011	-166.5	-0.046722	0.841495	-0.145890	-0.147180	-0.053945	42.4298	-0.144936	-14.6212	0.003689	NaN
1080	1.000000	0.850765	7.37562e+06	-54139.1	1055.82	-29744.3	0.000000	0.000000	6.851077	-0.059135	NaN	0.000000	0.001608	0.001690	28.0832	0.081850	0.002213	36.9785	37.1033	-167.478	-0.060121	0.849420	-0.137910	-0.139255	-0.059135	36.9785	-0.136710	-10.253	0.005768	NaN
1080	1.000000	0.858783	7.37562e+06	-54139.1	1055.82	-29744.3	0.000000	0.000000	6.859100	0.063923	NaN	0.000000	0.001615	0.001658	28.083	0.032970	0.002001	16.4737	-54.3626	-168.379	0.000368	0.857461	-0.129892	-0.131214	0.063923	16.4737	-0.132802	-8.633217	-0.007404	NaN
1080	1.000000	0.866792	7.37562e+06	-54139.1	1055.82	-29744.3	0.000000	0.000000	6.867106	-0.001107	NaN	0.000000	0.001562	0.001660	28.083	0.038249	0.001958	19.5366	107.035	-167.734	-0.021840	0.865489	-0.121883	-0.123186	-0.001107	19.5366	-0.121841	-5.261279	0.000210	NaN
1080	1.000000	0.874804	7.37562e+06	-54139.1	1055.82	-29744.3	0.000000	0.000000	6.875120	0.023882	NaN	0.000000	0.001588	0.001675	28.0833	0.024098	0.002060	11.6977	-43.1411	-167.313	0.009806	0.873483	-0.113871	-0.115191	0.023882	11.6977	-0.115402	-3.893876	-0.006133	NaN
1080	1.000000	0.882761	7.37562e+06	-54139.1	1055.82	-29744.3	0.000000	0.000000	6.883073	-0.072442	NaN	0.000000	0.001576	0.001696	28.0844	0.089368	0.002010	44.4711	44.5206	-165.894	-0.036207	0.881489	-0.105913	-0.107186	-0.072442	44.4711	-0.104692	-2.314764	0.031296	NaN
1080	1.000000	0.890750	7.37562e+06	-54139.1	1055.82	-29744.3	0.000000	0.000000	6.891065	-0.005262	NaN	0.000000	0.001576	0.001700	28.0847	0.045797	0.001976	23.1822	-81.7355	-167.572	0.026937	0.889412	-0.097925	-0.099263	-0.005262	23.1822	-0.097754	-1.628145	0.003232	NaN
1080	1.000000	0.898782	7.37562e+06	-54139.1	1055.82	-29744.3	0.000000	0.000000	6.899092	-0.104556	NaN	0.000000	0.001567	0.001671	28.0842	0.099860	0.002014	49.5883	-88.7137	-161.572	-0.065932	0.897469	-0.089893	-0.091205	-0.104556	49.5883	-0.088312	-0.986284	0.106010	NaN
1080	1.000000	0.906804	7.37562e+06	-54139.1	1055.82	-29744.3	0.000000	0.000000	6.907116	-0.057633	NaN	0.000000	0.001566	0.001623	28.0844	0.026864	0.002067	12.9941	125.799	-167.909	-0.061082	0.905458	-0.081871	-0.083216	-0.057633	12.9941	-0.078544	-0.568990	0.101290	NaN
1080	1.000000	0.914762	7.37562e+06	-54139.1	1055.82	-29744.3	0.000000	0.000000	6.915076	-0.010048	NaN	0.000000	0.001573	0.001622	28.0845	0.054430	0.001983	27.4528	-157.096	-169.945	-0.036260	0.913455	-0.073913	-0.075220	-0.010048	27.4528	-0.073638	-0.425723	0.023602	NaN
1080	1.000000	0.922804	7.37562e+06	-54139.1	1055.82	-29744.3	0.000000	0.000000	6.923120	0.024532	NaN	0.000000	0.001539	0.001639	28.0844	0.070501	0.002088	33.7729	23.0133	-164.475	0.007456	0.921499	-0.065871	-0.067176	0.024532	33.7729	-0.066416	-0.272679	-0.089966	NaN
1080	1.000000	0.930788	7.37562e+06	-54139.1	1055.82	-29744.3	0.000000	0.000000	6.931118	0.361061	NaN	0.000000	0.001566	0.001682	28.0846	0.276551	0.002033	136.006	7.344320	-168.009	0.322093	0.929493	-0.057887	-0.059181	0.361061	136.006	-0.059878	-0.178644	-2.021116	NaN
1080	1.000000	0.938799	7.37562e+06	-54139.1	1055.82	-29744.3	0.000000	0.000000	6.939156	1.024959	NaN	0.000000	0.001532	0.001713	28.0844	0.694165	0.001962	353.814	16.7167	-167.888	0.912006	0.937460	-0.049875	-0.051215	1.024959	353.814	-0.052048	-0.105179	-9.744878	NaN
1080	1.000000	0.946819	7.37562e+06	-54139.1	1055.82	-29744.3	0.000000	0.000000	6.947203	1.684380	NaN	0.000000	0.001579	0.001698	28.0844	0.932103	0.002078	448.648	25.6277	-164.889	1.598812	0.945491	-0.041856	-0.043183	1.684380	448.648	-0.044672	-0.062799	-26.8218	NaN
1080	1.000000	0.954789	7.37562e+06	-54139.1	1055.82	-29744.3	0.000000	0.000000	6.955197	2.265226	NaN	0.000000	0.001547	0.001696	28.0855	1.270840	0.001981	641.621	23.9477	-166.315	2.240437	0.953496	-0.033885	-0.035179	2.265226	641.621	-0.036533	-0.035557	-63.7069	NaN
1080	1.000000	0.962798	7.37562e+06	-54139.1	1055.82	-29744.3	0.000000	0.000000	6.963224	2.714450	NaN	0.000000	0.001550	0.001695	28.0848	1.708411	0.001965	869.245	24.6736	-166.09	2.628720	0.961530	-0.025877	-0.027145	2.714450	869.245	-0.028219	-0.020555	-132.057	NaN
1080	1.000000	0.970796	7.37562e+06	-54139.1	1055.82	-29744.3	0.000000	0.000000	6.971254	3.486940	NaN	0.000000	0.001579	0.001677	28.0855	2.188295	0.001883	1162.23	22.434	-168.943	3.331706	0.969528	-0.017879	-0.019147	3.486940	1162.23	-0.020129	-0.012656	-275.516	NaN
1080	1.000000	0.978810	7.37562e+06	-54139.1	1055.82	-29744.3	0.000000	0.000000	6.979304	4.347438	NaN	0.000000	0.001565	0.001663	28.0847	3.008548	0.001944	1547.83	23.8941	-169.089	4.209401	0.977501	-0.009864	-0.011174	4.347438	1547.83	-0.011971	-0.007512	-578.734	NaN
1080	1.000000	0.986827	7.37562e+06	-54139.1	1055.82	-29744.3	0.000000	0.000000	6.987383	5.861785	NaN	0.000000	0.001602	0.001627	28.0846	4.042654	0.002071	1952	27.7168	-170.914	5.549723	0.985497	-0.001848	-0.003178	5.861785	1952	-0.004100	-0.002844	-2061.31	NaN
1080	1.000000	0.994689	7.37562e+06	-54139.1	1055.82	-29744.3	0.000000	0.000000	6.995335	8.045845	NaN	0.000000	0.001547	0.001649	28.0846	5.967980	0.001892	3153.91	25.5737	-173.993	7.594706	0.993490	0.006015	0.004815	8.045845	3153.91	0.004101	0.003328	2417.61	49949.4
1080	2.000000	0.997375	7.37562e+06	-54139.1	1055.82	-29744.3	0.000000	0.000000	6.997983	7.149720	NaN	0.000000	0.001564	0.001659	28.0846	6.752712	0.001832	3685.47	19.4963	-172.084	7.190400	0.997113	0.008700	0.008438	7.149720	3685.47	0.007245	0.006277	1139.03	42500
1080	2.000000	0.999341	7.37562e+06	-54139.1	1055.82	-29744.3	0.000000	0.000000	6.999989	8.107079	NaN	0.000000	0.001548	0.001670	28.085	7.476846	0.001844	4053.6	20.8578	-173.907	7.941266	0.999060	0.010666	0.010385	8.107079	4053.6	0.009166	0.008269	980.403	40727.2
1080	2.000000	1.001309	7.37562e+06	-54139.1	1055.82	-29744.3	0.000000	0.000000	7.002005	9.280153	NaN	0.000000	0.001602	0.001670	28.0837	8.305234	0.001976	4202.48	18.705	-171.221	9.170489	1.001020	0.012634	0.012345	9.280153	4202.48	0.010978	0.010288	901.997	37853.3
1080	2.000000	1.003308	7.37562e+06	-54139.1	1055.82	-29744.3	0.000000	0.000000	7.004044	10.2428	NaN	0.000000	0.001593	0.001683	28.0833	9.032445	0.002016	4481.42	17.5853	-170.465	9.974227	1.003008	0.014633	0.014333	10.2428	4481.42	0.012919	0.012610	812.292	36461.5
1080	2.000000	1.005308	7.37562e+06	-54139.1	1055.82	-29744.3	0.000000	0.000000	7.006108	11.8133	NaN	0.000000	0.001573	0.001671	28.0832	10.0063	0.001887	5302.38	18.0093	-174.189	11.6746	1.004997	0.016633	0.016322	11.8133	5302.38	0.014962	0.015235	775.422	39248.9
1080	2.000000	1.007303	7.37562e+06	-54139.1	1055.82	-29744.3	0.000000	0.000000	7.008178	13.6083	NaN	0.000000	0.001588	0.001648	28.083	11.1576	0.001826	6110.93	16.658	-176.103	13.3805	1.006976	0.018629	0.018302	13.6083	6110.93	0.016958	0.017986	756.593	41630.3
1080	2.000000	1.009283	7.37562e+06	-54139.1	1055.82	-29744.3	0.000000	0.000000	7.010220	15.1274	NaN	0.000000	0.001574	0.001644	28.0833	11.995	0.001828	6562.84	17.6845	-177.585	15.0684	1.008970	0.020608	0.020295	15.1274	6562.84	0.018880	0.020812	726.846	41562.7
1080	2.000000	1.011286	7.37562e+06	-54139.1	1055.82	-29744.3	0.000000	0.000000	7.012314	17.3431	NaN	0.000000	0.001594	0.001698	28.0831	13.3385	0.001916	6961.86	18.8102	-179.396	17.3014	1.010971	0.022611	0.022297	17.3431	6961.86	0.020742	0.023722	731.089	41297.1
1080	2.000000	1.013333	7.37562e+06	-54139.1	1055.82	-29744.3	0.000000	0.000000	7.014469	19.9748	NaN	0.000000	0.001601	0.001689	28.0837	13.9014	0.001843	7543.52	15.427	-176.723	19.8768	1.012966	0.024658	0.024291	19.9748	7543.52	0.022672	0.026916	742.11	42008.8
1080	2.000000	1.015271	7.37562e+06	-54139.1	1055.82	-29744.3	0.000000	0.000000	7.016526	22.8753	NaN	0.000000	0.001548	0.001665	28.0829	14.8384	0.001839	8069.42	13.5792	-175.747	22.3008	1.014908	0.026596	0.026234	22.8753	8069.42	0.024470	0.030058	761.04	42524.2
1080	2.000000	1.017266	7.37562e+06	-54139.1	1055.82	-29744.3	0.000000	0.000000	7.018623	25.3449	NaN	0.000000	0.001538	0.001655	28.0831	16.1326	0.001856	8693.02	15.2402	-178.691	24.7712	1.016997	0.028591	0.028323	25.3449	8693.02	0.026405	0.033621	753.846	43315.1
1080	2.000000	1.019255	7.37562e+06	-54139.1	1055.82	-29744.3	0.000000	0.000000	7.020737	28.3869	NaN	0.000000	0.001565	0.001649	28.083	16.776	0.001917	8750.82	15.8644	-179.044	27.3565	1.018923	0.030580	0.030248	28.3869	8750.82	0.028147	0.036990	767.412	41569.7
1080	2.000000	1.021255	7.37562e+06	-54139.1	1055.82	-29744.3	0.000000	0.000000	7.022867	31.5389	NaN	0.000000	0.001583	0.001662	28.083	17.6435	0.001873	9417.98	12.3558	-176.437	32.0133	1.020967	0.032580	0.032293	31.5389	9417.98	0.030068	0.040885	771.399	42554.7
1080	2.000000	1.023270	7.37562e+06	-54139.1	1055.82	-29744.3	0.000000	0.000000	7.025073	36.1727	NaN	0.000000	0.001579	0.001673	28.0835	19.1031	0.001918	9961.03	14.2126	-178.779	35.4045	1.022990	0.034596	0.034315	36.1727	9961.03	0.031872	0.044713	808.991	43038.7
1080	2.000000	1.025295	7.37562e+06	-54139.1	1055.82	-29744.3	0.000000	0.000000	7.027205	38.7652	NaN	0.000000	0.001576	0.001652	28.0831	20.1888	0.001895	10653.8	18.6744	175.398	39.3067	1.024970	0.036621	0.036295	38.7652	10653.8	0.033892	0.049197	787.964	43884.3
1080	2.000000	1.027265	7.37562e+06	-54139.1	1055.82	-29744.3	0.000000	0.000000	7.029371	43.5598	NaN	0.000000	0.001652	0.001652	28.0832	20.286	0.001789	11339.9	12.1689	-179.319	42.9945	1.026865	0.038590	0.038191	43.5598	11339.9	0.035709	0.053410	815.577	44830.5
1080	2.000000	1.029226	7.37562e+06	-54139.1	1055.82	-29744.3	0.000000	0.000000	7.031497	47.5676	NaN	0.000000	0.001640	0.001649	28.0831	21.2021	0.001883	11262.1	13.5566	179.746	46.5416	1.028903	0.040551	0.040229	47.5676	11262.1	0.037383	0.057440	828.126	42932.3
1080	2.000000	1.031261	7.37562e+06	-54139.1	1055.82	-29744.3	0.000000	0.000000	7.033645	50.3183	NaN	0.000000	0.001671	0.001695	28.0832	22.1994	0.001903	11667.3	10.0048	-176.733	50.748	1.031004	0.042586	0.042329	50.3183	11667.3	0.039352	0.062363	806.858	42685.4
1080	2.000000	1.033231	7.37562e+06	-54139.1	1055.82	-29744.3	0.000000	0.000000	7.035873	56.5798	NaN	0.000000	0.001712	0.001698	28.0836	23.9972	0.001944	12344.6	15.4101	176.981	55.95	1.032997	0.044557	0.044322	56.5798	12344.6	0.041119	0.066953	845.071	43588
1080	2.000000	1.035258	7.37562e+06	-54139.1	1055.82	-29744.3	0.000000	0.000000	7.038095	61.3257	NaN	0.000000	0.001633	0.001701	28.0838	25.1587	0.001970	12768.6	13.5706	178.867	60.9466	1.034917	0.046583	0.046242	61.3257	12768.6	0.042981	0.071959	852.233	43488.5
1080	2.000000	1.037230	7.37562e+06	-54139.1	1055.82	-29744.3	0.000000	0.000000	7.040180	64.0594	NaN	0.000000	0.001628	0.001718	28.0847	26.1889	0.001953	13408	14.4852	177.148	63.8264	1.036997	0.048555	0.048322	64.0594	13408	0.044972	0.077507	826.494	44001.3
1080	2.000000	1.039222	7.37562e+06	-54139.1	1055.82	-29744.3	0.000000	0.000000	7.042405	69.7343	NaN	0.000000	0.001659	0.001679	28.0844	26.2108	0.001881	13931.7	10.2423	-178.673	69.6016	1.038972	0.050547	0.050297	69.7343	13931.7	0.046793	0.082758	842.63	44245.7
1080	2.000000	1.041257	7.37562e+06	-54139.1	1055.82	-29744.3	0.000000	0.000000	7.044682	75.609	NaN	0.000000	0.001624	0.001704	28.0843	27.8406	0.001872	14871.2	12.154	178.13	75.3726	1.040869	0.052583	0.052194	75.609	14871.2	0.048769	0.088647	852.92	45633.9
1080	2.000000	1.043254	7.37562e+06	-54139.1	1055.82	-29744.3	0.000000	0.000000	7.046940	81.9541	NaN	0.000000	0.001631	0.001735	28.0854	28.8487	0.001848	15612.7	10.7267	179.396	81.4282	1.042845	0.054579	0.054171	81.9541	15612.7	0.050642	0.094408	868.082	46424.5
1080	2.000000	1.045205	7.37562e+06	-54139.1	1055.82	-29744.3	0.000000	0.000000	7.049127	87.6888	NaN	0.000000	0.001613	0.001722	28.0845	30.345	0.001901	15964.2	12.6325	177.145	85.9448	1.044872	0.056530	0.056197	87.6888	15964.2	0.052411	0.100009	876.807	46121.2
1080	2.000000	1.047234	7.37562e+06	-54139.1	1055.82	-29744.3	0.000000	0.000000	7.051340	92.1522	NaN	0.000000	0.001622	0.001699	28.0846	31.3385	0.001994	15716.9	13.8524	176.014	91.9672	1.046913	0.058560	0.058238	92.1522	15716.9	0.054162	0.105711	871.735	44165.2
1080	2.000000	1.049178	7.37562e+06	-54139.1	1055.82	-29744.3	0.000000	0.000000	7.053552	98.6921	NaN	0.000000	0.001654	0.001701	28.0844	31.9499	0.001840	17360.6	11.6778	176.717	97.2717	1.048932	0.060503	0.060258	98.6921	17360.6	0.056240	0.112671	875.93	47253.1
1080	2.000000	1.051211	7.37562e+06	-54139.1	1055.82	-29744.3	0.000000	0.000000	7.055875	105.739	NaN	0.000000	0.001693	0.001682	28.0845	34.0029	0.001664	20436	15.0588	171.085	105.014	1.050879	0.062536	0.062204	105.739	20436	0.058655	0.121030	873.658	53668.7
1080	2.000000	1.053230	7.37562e+06	-54139.1	1055.82	-29744.3	0.000000	0.000000	7.058195	113.07	NaN	0.000000	0.001652	0.001687	28.0846	36.0073	0.001790	20119.7	12.5765	174.06	112.257	1.052941	0.064555	0.064266	113.07	20119.7	0.060340	0.127030	890.102	51575.3
1080	2.000000	1.055207	7.37562e+06	-54139.1	1055.82	-29744.3	0.000000	0.000000	7.060430	119.32	NaN	0.000000	0.001602	0.001699	28.0844	37.6447	0.001890	19922.4	12.1085	175.204	118.296	1.054907	0.066532	0.066232	119.32	19922.4	0.062040	0.133226	895.625	49867.8
1080	2.000000	1.057204	7.37562e+06	-54139.1	1055.82	-29744.3	0.000000	0.000000	7.062664	125.072	NaN	0.000000	0.001637	0.001675	28.0848	39.3478	0.001828	21529.1	12.8312	172.954	124.368	1.056875	0.068529	0.068201	125.072	21529.1	0.064172	0.141194	885.821	52347
1080	2.000000	1.059214	7.37562e+06	-54139.1	1055.82	-29744.3	0.000000	0.000000	7.065026	133.637	NaN	0.000000	0.001559	0.001708	28.0843	40.1449	0.001842	21792.9	9.692426	176.373	132.517	1.058841	0.070540	0.070166	133.637	21792.9	0.065941	0.147968	903.144	51761.2
1080	2.000000	1.061202	7.37562e+06	-54139.1	1055.82	-29744.3	0.000000	0.000000	7.067232	138.942	NaN	0.000000	0.001641	0.001696	28.0843	42.3073	0.001916	22078.3	9.640656	176.094	138.861	1.060869	0.072527	0.072194	138.942	22078.3	0.067807	0.155282	894.768	51189
1080	2.000000	1.063182	7.37562e+06	-54139.1	1055.82	-29744.3	0.000000	0.000000	7.069637	149.275	NaN	0.000000	0.001656	0.001659	28.0845	44.164	0.001772	24918.4	11.2522	172.849	147.764	1.062862	0.074508	0.074187	149.275	24918.4	0.070015	0.164148	909.393	56192.1
1080	2.000000	1.065189	7.37562e+06	-54139.1	1055.82	-29744.3	0.000000	0.000000	7.071895	155.383	NaN	0.000000	0.001639	0.001757	28.0844	44.8798	0.001703	26358.5	9.487196	173.308	154.059	1.064934	0.076514	0.076259	155.383	26358.5	0.072093	0.172706	899.691	57948.1
1080	2.000000	1.067242	7.37562e+06	-54139.1	1055.82	-29744.3	0.000000	0.000000	7.074303	164.01	NaN	0.000000	0.001638	0.001717	28.0845	47.8829	0.001821	26291.2	8.791184	174.553	165.445	1.066895	0.078567	0.078220	164.01	26291.2	0.073888	0.180264	909.833	56575.7
1080	2.000000	1.069181	7.37562e+06	-54139.1	1055.82	-29744.3	0.000000	0.000000	7.076625	173.327	NaN	0.000000	0.001630	0.001772	28.0839	48.3963	0.001691	28623.9	7.722763	174.288	172.166	1.068888	0.080506	0.080213	173.327	28623.9	0.075964	0.189193	916.137	60124.3
1080	2.000000	1.071229	7.37562e+06	-54139.1	1055.82	-29744.3	0.000000	0.000000	7.079101	183.728	NaN	0.000000	0.001630	0.001756	28.0835	51.4647	0.001684	30557.2	6.593804	175.033	184.223	1.070822	0.082554	0.082147	183.728	30557.2	0.078045	0.198343	926.317	62687.2
1080	2.000000	1.073161	7.37562e+06	-54139.1	1055.82	-29744.3	0.000000	0.000000	7.081352	191.469	NaN	0.000000	0.001671	0.001743	28.0833	53.8734	0.001765	30522.8	8.971029	172.455	188.036	1.072882	0.084487	0.084207	191.469	30522.8	0.079782	0.206140	928.833	61421
1080	2.000000	1.075199	7.37562e+06	-54139.1	1055.82	-29744.3	0.000000	0.000000	7.083645	197.672	NaN	0.000000	0.001660	0.001740	28.0836	55.492	0.001725	32176.7	6.125538	175.162	197.141	1.074895	0.086525	0.086220	197.672	32176.7	0.081917	0.215915	915.511	63266.4
1080	2.000000	1.077200	7.37562e+06	-54139.1	1055.82	-29744.3	0.000000	0.000000	7.086049	207.476	NaN	0.000000	0.001593	0.001681	28.0833	58.156	0.001793	32435.9	8.782842	171.727	207.743	1.076903	0.088525	0.088228	207.476	32435.9	0.083728	0.224370	924.703	62562.8
1080	2.000000	1.079251	7.37562e+06	-54139.1	1055.82	-29744.3	0.000000	0.000000	7.088507	217.375	NaN	0.000000	0.001569	0.001676	28.0831	58.8859	0.001816	32421.8	7.605458	172.822	219.003	1.078928	0.090576	0.090253	217.375	32421.8	0.085548	0.233021	932.857	61363.9
1080	2.000000	1.081217	7.37562e+06	-54139.1	1055.82	-29744.3	0.000000	0.000000	7.090942	228.779	NaN	0.000000	0.001568	0.001698	28.0832	62.0756	0.001764	35181.6	7.045775	172.685	228.94	1.080746	0.092542	0.092071	228.779	35181.6	0.087665	0.243277	940.405	65168.6
1080	2.000000	1.083128	7.37562e+06	-54139.1	1055.82	-29744.3	0.000000	0.000000	7.093281	239.183	NaN	0.000000	0.001558	0.001704	28.0831	64.4909	0.001801	35813.1	7.025940	173.281	235.452	1.082839	0.094453	0.094164	239.183	35813.1	0.089444	0.252058	948.922	65172.6
1080	2.000000	1.085110	7.37562e+06	-54139.1	1055.82	-29744.3	0.000000	0.000000	7.095518	245.402	NaN	0.000000	0.001572	0.001729	28.0831	66.0632	0.001874	35254.8	8.047002	171.814	241.549	1.084807	0.096435	0.096132	245.402	35254.8	0.091214	0.260935	940.473	63055.9
1080	2.000000	1.087121	7.37562e+06	-54139.1	1055.82	-29744.3	0.000000	0.000000	7.097854	253.279	NaN	0.000000	0.001588	0.001732	28.0832	67.7311	0.001752	38658.5	4.744583	174.266	251.064	1.086917	0.098446	0.098242	253.279	38658.5	0.093533	0.272780	928.51	67625.7
1080	2.000000	1.089156	7.37562e+06	-54139.1	1055.82	-29744.3	0.000000	0.000000	7.100351	264.5	NaN	0.000000	0.001577	0.001728	28.083	67.941	0.001737	39104.5	3.062157	175.643	262.869	1.088806	0.100482	0.100131	264.5	39104.5	0.095409	0.282544	936.135	67213.6
1080	2.000000	1.091134	7.37562e+06	-54139.1	1055.82	-29744.3	0.000000	0.000000	7.102792	275.773	NaN	0.000000	0.001597	0.001715	28.0829	72.451	0.001901	38104.9	7.288372	171.592	275.075	1.090882	0.102459	0.102207	275.773	38104.9	0.097031	0.291119	947.286	64523.7
1080	2.000000	1.093132	7.37562e+06	-54139.1	1055.82	-29744.3	0.000000	0.000000	7.105330	288.891	NaN	0.000000	0.001573	0.001700	28.0829	73.9753	0.001838	40250.6	10.0506	168.401	285.36	1.092727	0.104458	0.104052	288.891	40250.6	0.099075	0.302089	956.31	66908
1080	2.000000	1.094147	7.37562e+06	-54139.1	1055.82	-29744.3	0.000000	0.000000	7.106274	287.154	NaN	0.000000	0.001525	0.001710	28.083	73.2567	0.001686	43461.8	4.809093	172.961	286.577	1.093932	0.105473	0.105257	287.154	43461.8	0.100517	0.309949	926.457	71324.1