File: remote_trans/data/nanoindenter/0828-1/data/Data_2025-08-06,11h17m57s/2025-07-22_16-23-58_1_709.txt
2025-07-22, 16:23:58, 1
Index	Phase	Displacement	Time	Pos X	Pos Y	Pos Z	Rot A	Rot B	Piezo Z	Force A	Force B	Gripper	Voltage A	Voltage B	Temperature	Amplitude force	Amplitude pos	Stiffness	Phase shift	Phase excitation	Force A raw	Displacement raw	HMax	HMax raw	Real Force	Real Stiffness	Contact Depth	Area	Hardness	Reduced Mod.
[#]	[#]	[um]	[s]	[um]	[um]	[um]	[m°]	[m°]	[um]	[uN]	[uN]	[V]	[V]	[V]	[°C]	[uN]	[um]	[N/m]	[°]	[°]	[uN]	[um]	[um]	[um]	[uN]	[N/m]	[um]	[um^2]	[MPa]	[MPa]
709	1.000000	0.002670	7.37199e+06	-41639.1	1005.82	-29785.6	0.000000	0.000000	6.002826	-0.040367	NaN	0.000000	0.001653	0.001749	28.0843	0.016843	0.000932	18.0763	103.95	-171.058	-0.031676	0.001424	-1.045753	-1.046998	-0.040367	18.0763	-1.044078	-8.888022E+13	4.541728E-16	NaN
709	1.000000	0.010632	7.37199e+06	-41639.1	1005.82	-29785.6	0.000000	0.000000	6.010790	-0.009863	NaN	0.000000	0.001624	0.001755	28.0842	0.131656	0.000887	148.359	34.0392	-168.521	-0.045803	0.009267	-1.037791	-1.039156	-0.009863	148.359	-1.037741	-7.304462E+13	1.350336E-16	NaN
709	1.000000	0.018623	7.37199e+06	-41639.1	1005.82	-29785.6	0.000000	0.000000	6.018783	0.042608	NaN	0.000000	0.001617	0.001774	28.0839	0.051021	0.001803	28.2997	-58.7387	-168.858	0.069268	0.017333	-1.029800	-1.031090	0.042608	28.2997	-1.030929	-5.915367E+13	-7.202878E-16	NaN
709	1.000000	0.026610	7.37199e+06	-41639.1	1005.82	-29785.6	0.000000	0.000000	6.026769	0.015326	NaN	0.000000	0.001594	0.001761	28.0841	0.144077	0.001848	77.9477	-147.089	-163.222	-0.078745	0.025238	-1.021813	-1.023185	0.015326	77.9477	-1.021961	-4.480558E+13	-3.420517E-16	NaN
709	1.000000	0.034571	7.37199e+06	-41639.1	1005.82	-29785.6	0.000000	0.000000	6.034728	-0.038726	NaN	0.000000	0.001607	0.001761	28.0837	0.032888	0.002035	16.164	168.05	-166.456	-0.015546	0.033275	-1.013852	-1.015148	-0.038726	16.164	-1.012055	-3.296367E+13	1.174822E-15	NaN
709	1.000000	0.042634	7.37199e+06	-41639.1	1005.82	-29785.6	0.000000	0.000000	6.042793	0.009095	NaN	0.000000	0.001589	0.001797	28.0838	0.115423	0.001808	63.8231	59.0532	-166.359	0.033927	0.041275	-1.005788	-1.007148	0.009095	63.8231	-1.005895	-2.723529E+13	-3.339473E-16	NaN
709	1.000000	0.050559	7.37199e+06	-41639.1	1005.82	-29785.6	0.000000	0.000000	6.050718	0.026944	NaN	0.000000	0.001585	0.001815	28.0836	0.077657	0.001875	41.4077	139.174	-165.058	-0.023555	0.049291	-0.997864	-0.999132	0.026944	41.4077	-0.998352	-2.155684E+13	-1.249906E-15	NaN
709	1.000000	0.058596	7.37199e+06	-41639.1	1005.82	-29785.6	0.000000	0.000000	6.058754	-0.024444	NaN	0.000000	0.001635	0.001799	28.0836	0.019691	0.002086	9.439192	-13.5284	-169.547	0.004261	0.057392	-0.989826	-0.991031	-0.024444	9.439192	-0.987884	-1.558171E+13	1.568754E-15	NaN
709	1.000000	0.066580	7.37199e+06	-41639.1	1005.82	-29785.6	0.000000	0.000000	6.066739	0.004395	NaN	0.000000	0.001622	0.001842	28.0836	0.069173	0.001941	35.6386	-51.4883	-168.897	0.055660	0.065310	-0.981843	-0.983113	0.004395	35.6386	-0.981936	-1.295645E+13	-3.391886E-16	NaN
709	1.000000	0.074606	7.37199e+06	-41639.1	1005.82	-29785.6	0.000000	0.000000	6.074764	-0.009592	NaN	0.000000	0.001655	0.001802	28.0838	0.019796	0.002136	9.265625	13.5541	-166.727	-0.011393	0.073307	-0.973817	-0.975116	-0.009592	9.265625	-0.973040	-9.831844E+12	9.756360E-16	NaN
709	1.000000	0.082605	7.37199e+06	-41639.1	1005.82	-29785.6	0.000000	0.000000	6.082762	-0.041292	NaN	0.000000	0.001591	0.001812	28.084	0.135718	0.001881	72.1664	-60.4797	-165.492	0.079964	0.081292	-0.965818	-0.967131	-0.041292	72.1664	-0.965388	-7.753684E+12	5.325462E-15	NaN
709	1.000000	0.090636	7.37199e+06	-41639.1	1005.82	-29785.6	0.000000	0.000000	6.090795	-0.003645	NaN	0.000000	0.001622	0.001816	28.0839	0.009214	0.001864	4.942501	-29.2429	-166.514	-0.082772	0.089338	-0.957787	-0.959085	-0.003645	4.942501	-0.957234	-6.019644E+12	6.055366E-16	NaN
709	1.000000	0.098604	7.37199e+06	-41639.1	1005.82	-29785.6	0.000000	0.000000	6.098761	-0.019098	NaN	0.000000	0.001625	0.001759	28.0837	0.035679	0.001996	17.8782	-4.965577	-164.772	-0.003840	0.097289	-0.949819	-0.951133	-0.019098	17.8782	-0.949018	-4.664278E+12	4.094519E-15	NaN
709	1.000000	0.106659	7.37199e+06	-41639.1	1005.82	-29785.6	0.000000	0.000000	6.106817	0.000518	NaN	0.000000	0.001578	0.001775	28.0841	0.143377	0.002078	68.9918	-7.677141	-167.718	-0.027424	0.105295	-0.941764	-0.943128	0.000518	68.9918	-0.941770	-3.724011E+12	-1.391181E-16	NaN
709	1.000000	0.114626	7.37199e+06	-41639.1	1005.82	-29785.6	0.000000	0.000000	6.114784	-0.009602	NaN	0.000000	0.001607	0.001769	28.0839	0.067729	0.001952	34.6889	33.2675	-163.071	0.004759	0.113319	-0.933797	-0.935104	-0.009602	34.6889	-0.933589	-2.888243E+12	3.324541E-15	NaN
709	1.000000	0.122612	7.37199e+06	-41639.1	1005.82	-29785.6	0.000000	0.000000	6.122772	0.014107	NaN	0.000000	0.001621	0.001757	28.0838	0.065130	0.002103	30.9634	136.073	-169.641	0.040331	0.121213	-0.925810	-0.927210	0.014107	30.9634	-0.926152	-2.292245E+12	-6.154247E-15	NaN
709	1.000000	0.130615	7.37199e+06	-41639.1	1005.82	-29785.6	0.000000	0.000000	6.130774	0.012382	NaN	0.000000	0.001621	0.001751	28.0836	0.048832	0.002017	24.2071	-108.763	-166.508	-0.020582	0.129297	-0.917808	-0.919126	0.012382	24.2071	-0.918191	-1.789724E+12	-6.918471E-15	NaN
709	1.000000	0.138638	7.37199e+06	-41639.1	1005.82	-29785.6	0.000000	0.000000	6.138796	-0.024566	NaN	0.000000	0.001591	0.001736	28.0827	0.059795	0.001994	29.9816	-7.551074	-166.486	-0.036787	0.137304	-0.909785	-0.911119	-0.024566	29.9816	-0.909170	-1.351933E+12	1.817105E-14	NaN
709	1.000000	0.146599	7.37199e+06	-41639.1	1005.82	-29785.6	0.000000	0.000000	6.146761	0.066816	NaN	0.000000	0.001610	0.001759	28.0825	0.062479	0.002035	30.7043	-56.3559	-164.645	0.080436	0.145294	-0.901823	-0.903129	0.066816	30.7043	-0.903456	-1.131764E+12	-5.903670E-14	NaN
709	1.000000	0.154630	7.37199e+06	-41639.1	1005.82	-29785.6	0.000000	0.000000	6.154788	-0.014123	NaN	0.000000	0.001608	0.001780	28.0822	0.086567	0.001968	43.9853	-87.2228	-164.434	0.005223	0.153298	-0.893793	-0.895125	-0.014123	43.9853	-0.893552	-8.316331E+11	1.698277E-14	NaN
709	1.000000	0.162616	7.37199e+06	-41639.1	1005.82	-29785.6	0.000000	0.000000	6.162777	0.055639	NaN	0.000000	0.001599	0.001747	28.0821	0.043589	0.001869	23.3273	-84.5406	-168.335	-0.026932	0.161271	-0.885806	-0.887152	0.055639	23.3273	-0.887595	-6.908867E+11	-8.053238E-14	NaN
709	1.000000	0.170619	7.37199e+06	-41639.1	1005.82	-29785.6	0.000000	0.000000	6.170775	-0.068653	NaN	0.000000	0.001590	0.001784	28.0824	0.036716	0.001994	18.4124	131.67	-163.148	-0.117815	0.169378	-0.877804	-0.879044	-0.068653	18.4124	-0.875008	-4.668595E+11	1.470527E-13	NaN
709	1.000000	0.178644	7.37199e+06	-41639.1	1005.82	-29785.6	0.000000	0.000000	6.178802	-0.015515	NaN	0.000000	0.001618	0.001752	28.0822	0.029059	0.002031	14.3091	8.943317	-162.95	0.016212	0.177371	-0.869779	-0.871052	-0.015515	14.3091	-0.868966	-3.867720E+11	4.011302E-14	NaN
709	1.000000	0.186640	7.37199e+06	-41639.1	1005.82	-29785.6	0.000000	0.000000	6.186800	0.031639	NaN	0.000000	0.001589	0.001754	28.0821	0.142923	0.002056	69.5277	-43.9683	-165.907	0.018507	0.185370	-0.861782	-0.863052	0.031639	69.5277	-0.862124	-3.125097E+11	-1.012412E-13	NaN
709	1.000000	0.194662	7.37199e+06	-41639.1	1005.82	-29785.6	0.000000	0.000000	6.194823	0.065041	NaN	0.000000	0.001595	0.001755	28.0826	0.010640	0.002228	4.776572	97.406	-167.474	0.079819	0.193307	-0.853761	-0.855116	0.065041	4.776572	-0.863973	-3.310504E+11	-1.964677E-13	NaN
709	1.000000	0.202623	7.37199e+06	-41639.1	1005.82	-29785.6	0.000000	0.000000	6.202784	0.052825	NaN	0.000000	0.001573	0.001731	28.0822	0.065122	0.002012	32.3703	-128.127	-163.789	-0.014899	0.201356	-0.845800	-0.847067	0.052825	32.3703	-0.847024	-1.951776E+11	-2.706515E-13	NaN
709	1.000000	0.210679	7.37199e+06	-41639.1	1005.82	-29785.6	0.000000	0.000000	6.210835	-0.062191	NaN	0.000000	0.001610	0.001711	28.0838	0.023861	0.002022	11.7992	-129.824	-165.451	-0.011817	0.209376	-0.837743	-0.839047	-0.062191	11.7992	-0.833790	-1.291677E+11	4.814713E-13	NaN
709	1.000000	0.218659	7.37199e+06	-41639.1	1005.82	-29785.6	0.000000	0.000000	6.218821	0.075767	NaN	0.000000	0.001626	0.001751	28.0824	0.077539	0.002109	36.7673	76.3076	-168.384	0.043414	0.217344	-0.829763	-0.831079	0.075767	36.7673	-0.831309	-1.195432E+11	-6.338070E-13	NaN
709	1.000000	0.226629	7.37199e+06	-41639.1	1005.82	-29785.6	0.000000	0.000000	6.226786	-0.028899	NaN	0.000000	0.001620	0.001737	28.0824	0.056323	0.001946	28.9453	49.2001	-167.704	-0.029537	0.225344	-0.821794	-0.823079	-0.028899	28.9453	-0.821045	-8.677239E+10	3.330440E-13	NaN
709	1.000000	0.234688	7.37199e+06	-41639.1	1005.82	-29785.6	0.000000	0.000000	6.234846	-0.017775	NaN	0.000000	0.001608	0.001713	28.0827	0.034611	0.001893	18.2862	-23.5194	-168.69	-0.071883	0.233314	-0.813734	-0.815109	-0.017775	18.2862	-0.813005	-6.750607E+10	2.633060E-13	NaN
709	1.000000	0.242681	7.37199e+06	-41639.1	1005.82	-29785.6	0.000000	0.000000	6.242841	0.049329	NaN	0.000000	0.001583	0.001688	28.0825	0.049500	0.001985	24.9411	-38.451	-164.425	0.008910	0.241327	-0.805742	-0.807096	0.049329	24.9411	-0.807226	-5.635417E+10	-8.753377E-13	NaN
709	1.000000	0.250706	7.37199e+06	-41639.1	1005.82	-29785.6	0.000000	0.000000	6.250863	-0.015600	NaN	0.000000	0.001585	0.001740	28.0829	0.094194	0.001928	48.8518	172.6	-166.212	-0.054116	0.249387	-0.797717	-0.799036	-0.015600	48.8518	-0.797478	-4.155495E+10	3.753979E-13	NaN
709	1.000000	0.258696	7.37199e+06	-41639.1	1005.82	-29785.6	0.000000	0.000000	6.258855	-0.003398	NaN	0.000000	0.001606	0.001674	28.0824	0.057561	0.002106	27.3343	-60.2399	-168.446	0.063361	0.257389	-0.789727	-0.791033	-0.003398	27.3343	-0.789633	-3.251642E+10	1.045145E-13	NaN
709	1.000000	0.266678	7.37199e+06	-41639.1	1005.82	-29785.6	0.000000	0.000000	6.266836	-0.015811	NaN	0.000000	0.001560	0.001686	28.0827	0.066662	0.002038	32.7083	-179.993	-163.944	-0.009731	0.265364	-0.781745	-0.783059	-0.015811	32.7083	-0.781383	-2.511989E+10	6.294067E-13	NaN
709	1.000000	0.274682	7.37199e+06	-41639.1	1005.82	-29785.6	0.000000	0.000000	6.274841	-0.004492	NaN	0.000000	0.001597	0.001671	28.084	0.142685	0.002071	68.8871	-27.3408	-165.209	0.040689	0.273351	-0.773740	-0.775071	-0.004492	68.8871	-0.773691	-1.974653E+10	2.274904E-13	NaN
709	1.000000	0.282680	7.37199e+06	-41639.1	1005.82	-29785.6	0.000000	0.000000	6.282840	0.022857	NaN	0.000000	0.001589	0.001694	28.0836	0.103342	0.001960	52.7391	48.3596	-168.465	0.065805	0.281386	-0.765742	-0.767037	0.022857	52.7391	-0.766067	-1.555358E+10	-1.469579E-12	NaN
709	1.000000	0.290696	7.37199e+06	-41639.1	1005.82	-29785.6	0.000000	0.000000	6.290855	0.010123	NaN	0.000000	0.001598	0.001674	28.0839	0.096560	0.001899	50.8382	48.4574	-165.964	-0.000896	0.289404	-0.757727	-0.759019	0.010123	50.8382	-0.757876	-1.203393E+10	-8.411752E-13	NaN
709	1.000000	0.298695	7.37199e+06	-41639.1	1005.82	-29785.6	0.000000	0.000000	6.298853	-0.019479	NaN	0.000000	0.001609	0.001650	28.0837	0.101325	0.001807	56.0719	-93.621	-164.726	-0.025129	0.297368	-0.749728	-0.751055	-0.019479	56.0719	-0.749467	-9.246300E+9	2.106679E-12	NaN
709	1.000000	0.306673	7.37199e+06	-41639.1	1005.82	-29785.6	0.000000	0.000000	6.306831	-0.006558	NaN	0.000000	0.001615	0.001621	28.0841	0.075715	0.001967	38.4941	-143.833	-166.973	-0.024943	0.305387	-0.741750	-0.743035	-0.006558	38.4941	-0.741622	-7.230176E+9	9.070524E-13	NaN
709	1.000000	0.314696	7.37199e+06	-41639.1	1005.82	-29785.6	0.000000	0.000000	6.314853	-0.047152	NaN	0.000000	0.001600	0.001628	28.0838	0.047666	0.002013	23.6825	154.275	-164.914	-0.035975	0.313342	-0.733726	-0.735081	-0.047152	23.6825	-0.732233	-5.385684E+9	8.755146E-12	NaN
709	1.000000	0.322717	7.37199e+06	-41639.1	1005.82	-29785.6	0.000000	0.000000	6.322876	-0.001581	NaN	0.000000	0.001558	0.001663	28.0836	0.049952	0.001949	25.6245	-64.954	-164.09	-0.013936	0.321444	-0.725705	-0.726979	-0.001581	25.6245	-0.725659	-4.381643E+9	3.607927E-13	NaN
709	1.000000	0.330715	7.37199e+06	-41639.1	1005.82	-29785.6	0.000000	0.000000	6.330874	0.004881	NaN	0.000000	0.001587	0.001677	28.0836	0.078300	0.002059	38.0298	74.069	-167.961	-0.033620	0.329420	-0.717708	-0.719003	0.004881	38.0298	-0.717804	-3.423942E+9	-1.425525E-12	NaN
709	1.000000	0.338726	7.37199e+06	-41639.1	1005.82	-29785.6	0.000000	0.000000	6.338888	0.084807	NaN	0.000000	0.001563	0.001674	28.0837	0.062210	0.001969	31.5896	-148.451	-167.931	0.086230	0.337404	-0.709697	-0.711019	0.084807	31.5896	-0.711710	-2.827392E+9	-2.999493E-11	NaN
709	1.000000	0.346715	7.37199e+06	-41639.1	1005.82	-29785.6	0.000000	0.000000	6.346873	-0.003326	NaN	0.000000	0.001633	0.001653	28.0837	0.106520	0.001897	56.1516	71.2215	-164.16	-0.012942	0.345387	-0.701708	-0.703036	-0.003326	56.1516	-0.701664	-2.061821E+9	1.613256E-12	NaN
709	1.000000	0.354729	7.37199e+06	-41639.1	1005.82	-29785.6	0.000000	0.000000	6.354887	-0.019493	NaN	0.000000	0.001648	0.001684	28.0837	0.076460	0.002114	36.1718	-179.216	-166.108	0.009079	0.353401	-0.693693	-0.695022	-0.019493	36.1718	-0.693289	-1.584395E+9	1.230297E-11	NaN
709	1.000000	0.362745	7.37199e+06	-41639.1	1005.82	-29785.6	0.000000	0.000000	6.362904	0.018006	NaN	0.000000	0.001648	0.001690	28.0837	0.076542	0.001853	41.2989	-133.54	-165.29	-0.049080	0.361392	-0.685678	-0.687030	0.018006	41.2989	-0.686005	-1.259825E+9	-1.429256E-11	NaN
709	1.000000	0.370752	7.37199e+06	-41639.1	1005.82	-29785.6	0.000000	0.000000	6.370914	0.072269	NaN	0.000000	0.001649	0.001677	28.0836	0.066929	0.001953	34.271	-28.4879	-165.835	0.057205	0.369427	-0.677671	-0.678995	0.072269	34.271	-0.679252	-1.018546E+9	-7.095320E-11	NaN
709	1.000000	0.378720	7.37199e+06	-41639.1	1005.82	-29785.6	0.000000	0.000000	6.378876	-0.064687	NaN	0.000000	0.001666	0.001645	28.0837	0.034397	0.001909	18.0226	-132.888	-166.916	-0.057472	0.377443	-0.669702	-0.670980	-0.064687	18.0226	-0.667011	-6.925787E+8	9.340066E-11	NaN
709	1.000000	0.386759	7.37199e+06	-41639.1	1005.82	-29785.6	0.000000	0.000000	6.386917	-0.019251	NaN	0.000000	0.001619	0.001650	28.0836	0.058030	0.002012	28.8422	117.798	-165.192	0.031166	0.385404	-0.661664	-0.663018	-0.019251	28.8422	-0.661163	-5.759674E+8	3.342427E-11	NaN
709	1.000000	0.394752	7.37199e+06	-41639.1	1005.82	-29785.6	0.000000	0.000000	6.394912	0.029268	NaN	0.000000	0.001567	0.001639	28.0838	0.098201	0.002060	47.6774	20.8147	-166.073	0.028498	0.393418	-0.653671	-0.655004	0.029268	47.6774	-0.654131	-4.613815E+8	-6.343599E-11	NaN
709	1.000000	0.402750	7.37199e+06	-41639.1	1005.82	-29785.6	0.000000	0.000000	6.402908	-0.008064	NaN	0.000000	0.001593	0.001652	28.0839	0.111674	0.002095	53.3095	-37.5019	-168.783	-0.024296	0.401458	-0.645673	-0.646965	-0.008064	53.3095	-0.645560	-3.520073E+8	2.290855E-11	NaN
709	1.000000	0.410746	7.37199e+06	-41639.1	1005.82	-29785.6	0.000000	0.000000	6.410906	0.025245	NaN	0.000000	0.001597	0.001651	28.0822	0.078244	0.001959	39.9467	128.004	-167.932	0.053202	0.409408	-0.637676	-0.639014	0.025245	39.9467	-0.638150	-2.785546E+8	-9.062740E-11	NaN
709	1.000000	0.418742	7.37199e+06	-41639.1	1005.82	-29785.6	0.000000	0.000000	6.418901	0.028026	NaN	0.000000	0.001569	0.001670	28.0825	0.059035	0.002054	28.7352	57.7528	-165.06	0.042361	0.417408	-0.629681	-0.631014	0.028026	28.7352	-0.630413	-2.181170E+8	-1.284915E-10	NaN
709	1.000000	0.426766	7.37199e+06	-41639.1	1005.82	-29785.6	0.000000	0.000000	6.426926	0.042367	NaN	0.000000	0.001560	0.001725	28.0823	0.040929	0.001989	20.5818	-112.347	-161.782	-0.015035	0.425425	-0.621657	-0.622998	0.042367	20.5818	-0.623201	-1.736280E+8	-2.440125E-10	NaN
709	1.000000	0.434747	7.37199e+06	-41639.1	1005.82	-29785.6	0.000000	0.000000	6.434903	-0.059428	NaN	0.000000	0.001594	0.001747	28.0822	0.025216	0.001933	13.0459	16.6152	-163.418	-0.072584	0.433445	-0.613676	-0.614978	-0.059428	13.0459	-0.610260	-1.152620E+8	5.155869E-10	NaN
709	1.000000	0.442745	7.37199e+06	-41639.1	1005.82	-29785.6	0.000000	0.000000	6.442904	-0.001689	NaN	0.000000	0.001609	0.001751	28.0827	0.111431	0.001949	57.186	14.871	-165.631	-0.007835	0.441450	-0.605678	-0.606972	-0.001689	57.186	-0.605655	-9.961557E+7	1.695338E-11	NaN
709	1.000000	0.450738	7.37199e+06	-41639.1	1005.82	-29785.6	0.000000	0.000000	6.450893	-0.070836	NaN	0.000000	0.001630	0.001723	28.0825	0.076411	0.001997	38.2678	38.7236	-164.063	-0.094370	0.449474	-0.597685	-0.598949	-0.070836	38.2678	-0.596297	-7.403735E+7	9.567651E-10	NaN
709	1.000000	0.458742	7.37199e+06	-41639.1	1005.82	-29785.6	0.000000	0.000000	6.458903	0.061439	NaN	0.000000	0.001676	0.001762	28.0828	0.026572	0.002119	12.541	34.9164	-165.487	0.051721	0.457443	-0.589681	-0.590979	0.061439	12.541	-0.593355	-6.743904E+7	-9.110305E-10	NaN
709	1.000000	0.466758	7.37199e+06	-41639.1	1005.82	-29785.6	0.000000	0.000000	6.466918	0.018442	NaN	0.000000	0.001662	0.001732	28.0824	0.053354	0.001938	27.5319	58.1947	-168.131	0.023772	0.465468	-0.581664	-0.582955	0.018442	27.5319	-0.582167	-4.727466E+7	-3.900952E-10	NaN
709	1.000000	0.474786	7.37199e+06	-41639.1	1005.82	-29785.6	0.000000	0.000000	6.474945	-0.000988	NaN	0.000000	0.001693	0.001733	28.0825	0.033633	0.001985	16.9475	-102.098	-164.954	0.080606	0.473493	-0.573637	-0.574929	-0.000988	16.9475	-0.573593	-3.599698E+7	2.745307E-11	NaN
709	1.000000	0.482744	7.37199e+06	-41639.1	1005.82	-29785.6	0.000000	0.000000	6.482903	0.009756	NaN	0.000000	0.001642	0.001710	28.0826	0.013430	0.001908	7.037694	86.5364	-169.481	0.038228	0.481540	-0.565679	-0.566883	0.009756	7.037694	-0.566719	-2.892577E+7	-3.372599E-10	NaN
709	1.000000	0.490773	7.37199e+06	-41639.1	1005.82	-29785.6	0.000000	0.000000	6.490929	-0.060480	NaN	0.000000	0.001677	0.001746	28.0825	0.095047	0.001872	50.7777	40.6562	-164.251	-0.022786	0.489472	-0.557650	-0.558951	-0.060480	50.7777	-0.556756	-2.106194E+7	2.871513E-9	NaN
709	1.000000	0.498774	7.37199e+06	-41639.1	1005.82	-29785.6	0.000000	0.000000	6.498933	0.001540	NaN	0.000000	0.001596	0.001675	28.0834	0.083277	0.002002	41.5915	-138.233	-164.738	-0.065255	0.497432	-0.549649	-0.550991	0.001540	41.5915	-0.549677	-1.680653E+7	-9.161279E-11	NaN
709	1.000000	0.506762	7.37199e+06	-41639.1	1005.82	-29785.6	0.000000	0.000000	6.506920	0.006143	NaN	0.000000	0.001608	0.001704	28.0828	0.021260	0.002036	10.4417	-138.274	-167.059	0.033077	0.505463	-0.541661	-0.542960	0.006143	10.4417	-0.542102	-1.319811E+7	-4.654303E-10	NaN
709	1.000000	0.514799	7.37199e+06	-41639.1	1005.82	-29785.6	0.000000	0.000000	6.514954	-0.082054	NaN	0.000000	0.001607	0.001710	28.0828	0.196412	0.001923	102.123	-119.024	-165.122	0.063339	0.513494	-0.533624	-0.534929	-0.082054	102.123	-0.533021	-9.87466e+06	8.309592E-9	NaN
709	1.000000	0.522775	7.37199e+06	-41639.1	1005.82	-29785.6	0.000000	0.000000	6.522931	-0.060825	NaN	0.000000	0.001631	0.001698	28.0828	0.126714	0.002047	61.9057	-106.845	-165.886	-0.011268	0.521440	-0.525648	-0.526983	-0.060825	61.9057	-0.524911	-7.61857e+06	7.983753E-9	NaN
709	1.000000	0.530812	7.37199e+06	-41639.1	1005.82	-29785.6	0.000000	0.000000	6.530967	-0.084646	NaN	0.000000	0.001588	0.001719	28.0828	0.096486	0.001925	50.1354	154.39	-170.744	-0.065641	0.529503	-0.517611	-0.518919	-0.084646	50.1354	-0.516344	-5.79084e+06	1.461719E-8	NaN
709	1.000000	0.538810	7.37199e+06	-41639.1	1005.82	-29785.6	0.000000	0.000000	6.538968	-0.016534	NaN	0.000000	0.001566	0.001722	28.0829	0.065977	0.002019	32.6841	-146.508	-167.725	-0.088712	0.537498	-0.509613	-0.510925	-0.016534	32.6841	-0.509233	-4.61037e+06	3.586312E-9	NaN
709	1.000000	0.546810	7.37199e+06	-41639.1	1005.82	-29785.6	0.000000	0.000000	6.546964	-0.119133	NaN	0.000000	0.001594	0.001739	28.0839	0.103814	0.002148	48.3259	-124.617	-164.749	-0.082377	0.545491	-0.501612	-0.502931	-0.119133	48.3259	-0.499764	-3.40189e+06	3.501973E-8	NaN
709	1.000000	0.554815	7.37199e+06	-41639.1	1005.82	-29785.6	0.000000	0.000000	6.554975	0.041908	NaN	0.000000	0.001594	0.001722	28.0842	0.079224	0.001958	40.4645	-95.102	-166.015	0.054644	0.553442	-0.493608	-0.494981	0.041908	40.4645	-0.494385	-2.86186e+06	-1.464375E-8	NaN
709	1.000000	0.562820	7.37199e+06	-41639.1	1005.82	-29785.6	0.000000	0.000000	6.562976	-0.064346	NaN	0.000000	0.001554	0.001753	28.084	0.022735	0.001917	11.8583	76.5771	-171.043	-0.055607	0.561530	-0.485603	-0.486893	-0.064346	11.8583	-0.481533	-1.89231e+06	3.400406E-8	NaN
709	1.000000	0.570791	7.37199e+06	-41639.1	1005.82	-29785.6	0.000000	0.000000	6.570950	0.008107	NaN	0.000000	0.001560	0.001757	28.0839	0.051937	0.002024	25.6571	-41.5143	-169.432	0.035858	0.569545	-0.477632	-0.478878	0.008107	25.6571	-0.477869	-1.68146e+06	-4.821528E-9	NaN
709	1.000000	0.578780	7.37199e+06	-41639.1	1005.82	-29785.6	0.000000	0.000000	6.578941	0.047668	NaN	0.000000	0.001645	0.001717	28.0838	0.039332	0.002032	19.3591	-155.683	-167.625	-0.015075	0.577505	-0.469643	-0.470917	0.047668	19.3591	-0.471489	-1.36865e+06	-3.482851E-8	NaN
709	1.000000	0.586805	7.37199e+06	-41639.1	1005.82	-29785.6	0.000000	0.000000	6.586961	-0.055419	NaN	0.000000	0.001640	0.001728	28.0839	0.066902	0.002035	32.8675	81.0755	-167.642	-0.079670	0.585550	-0.461618	-0.462873	-0.055419	32.8675	-0.460353	-954958	5.803260E-8	NaN
709	1.000000	0.594836	7.37199e+06	-41639.1	1005.82	-29785.6	0.000000	0.000000	6.594994	-0.012082	NaN	0.000000	0.001621	0.001731	28.0844	0.057558	0.001967	29.2616	-30.1336	-166.36	0.041013	0.593551	-0.453587	-0.454872	-0.012082	29.2616	-0.453277	-759419	1.590980E-8	NaN
709	1.000000	0.602830	7.37199e+06	-41639.1	1005.82	-29785.6	0.000000	0.000000	6.602988	0.000196	NaN	0.000000	0.001610	0.001735	28.0839	0.083276	0.002046	40.694	0.952996	-164.168	-0.016092	0.601524	-0.445593	-0.446899	0.000196	40.694	-0.445597	-591979	-3.310865E-10	NaN
709	1.000000	0.610817	7.37199e+06	-41639.1	1005.82	-29785.6	0.000000	0.000000	6.610974	-0.019960	NaN	0.000000	0.001606	0.001702	28.084	0.058265	0.002051	28.4042	90.8578	-165.712	-0.079480	0.609532	-0.437606	-0.438891	-0.019960	28.4042	-0.437079	-448877	4.446748E-8	NaN
709	1.000000	0.618837	7.37199e+06	-41639.1	1005.82	-29785.6	0.000000	0.000000	6.618994	-0.055628	NaN	0.000000	0.001643	0.001701	28.084	0.069910	0.002015	34.6932	-26.7124	-165.374	0.035232	0.617573	-0.429586	-0.430850	-0.055628	34.6932	-0.428383	-338206	1.644799E-7	NaN
709	1.000000	0.626801	7.37199e+06	-41639.1	1005.82	-29785.6	0.000000	0.000000	6.626959	-0.019397	NaN	0.000000	0.001677	0.001697	28.084	0.065460	0.002031	32.2283	128.927	-166.818	-0.017421	0.625497	-0.421621	-0.422926	-0.019397	32.2283	-0.421170	-267304	7.256681E-8	NaN
709	1.000000	0.634863	7.37199e+06	-41639.1	1005.82	-29785.6	0.000000	0.000000	6.635020	-0.038523	NaN	0.000000	0.001635	0.001708	28.0839	0.025188	0.001968	12.7958	27.0612	-166.37	-0.102842	0.633552	-0.413560	-0.414871	-0.038523	12.7958	-0.411302	-193602	1.989823E-7	NaN
709	1.000000	0.642853	7.37199e+06	-41639.1	1005.82	-29785.6	0.000000	0.000000	6.643012	0.007639	NaN	0.000000	0.001624	0.001733	28.0841	0.092201	0.001922	47.9816	-97.0935	-166.103	0.019689	0.641525	-0.405570	-0.406898	0.007639	47.9816	-0.405690	-161089	-4.742026E-8	NaN
709	1.000000	0.650839	7.37199e+06	-41639.1	1005.82	-29785.6	0.000000	0.000000	6.650998	0.020752	NaN	0.000000	0.001678	0.001733	28.0841	0.049710	0.001917	25.9259	-1.977451	-164.211	0.049888	0.649587	-0.397584	-0.398836	0.020752	25.9259	-0.398184	-125919	-1.648069E-7	NaN
709	1.000000	0.658835	7.37199e+06	-41639.1	1005.82	-29785.6	0.000000	0.000000	6.658992	-0.018675	NaN	0.000000	0.001601	0.001731	28.0839	0.104493	0.002099	49.7934	79.3455	-164.468	-0.001055	0.657500	-0.389588	-0.390923	-0.018675	49.7934	-0.389307	-94026.7	1.986107E-7	NaN
709	1.000000	0.666845	7.37199e+06	-41639.1	1005.82	-29785.6	0.000000	0.000000	6.667005	0.043820	NaN	0.000000	0.001599	0.001753	28.0842	0.041205	0.002030	20.3017	-55.6268	-169.65	0.134167	0.665540	-0.381578	-0.382883	0.043820	20.3017	-0.383197	-76868.1	-5.700643E-7	NaN
709	1.000000	0.674857	7.37199e+06	-41639.1	1005.82	-29785.6	0.000000	0.000000	6.675016	0.017703	NaN	0.000000	0.001583	0.001720	28.0839	0.023003	0.002025	11.3613	-138.154	-169.565	0.042990	0.673540	-0.373566	-0.374882	0.017703	11.3613	-0.374735	-58110.8	-3.046370E-7	NaN
709	1.000000	0.682848	7.37199e+06	-41639.1	1005.82	-29785.6	0.000000	0.000000	6.683006	-0.006198	NaN	0.000000	0.001564	0.001733	28.0827	0.137216	0.001832	74.9045	74.4528	-165.101	-0.038451	0.681510	-0.365575	-0.366913	-0.006198	74.9045	-0.365513	-42800.6	1.448097E-7	NaN
709	1.000000	0.690847	7.37199e+06	-41639.1	1005.82	-29785.6	0.000000	0.000000	6.691005	-0.008092	NaN	0.000000	0.001568	0.001725	28.0829	0.069708	0.001993	34.982	169.301	-164.965	-0.005780	0.689507	-0.357576	-0.358916	-0.008092	34.982	-0.357402	-32679.3	2.476214E-7	NaN
709	1.000000	0.698855	7.37199e+06	-41639.1	1005.82	-29785.6	0.000000	0.000000	6.699013	-0.026857	NaN	0.000000	0.001600	0.001728	28.0826	0.056048	0.002086	26.8732	-92.6172	-164.569	0.018997	0.697529	-0.349568	-0.350894	-0.026857	26.8732	-0.348818	-24538.3	1.094512E-6	NaN
709	1.000000	0.706850	7.37199e+06	-41639.1	1005.82	-29785.6	0.000000	0.000000	6.707008	-0.021528	NaN	0.000000	0.001609	0.001709	28.0829	0.138023	0.001893	72.901	-173.134	-168.058	-0.017710	0.705541	-0.341573	-0.342882	-0.021528	72.901	-0.341351	-19109.3	1.126564E-6	NaN
709	1.000000	0.714890	7.37199e+06	-41639.1	1005.82	-29785.6	0.000000	0.000000	6.715049	0.009204	NaN	0.000000	0.001519	0.001712	28.0825	0.038919	0.001850	21.0355	130.924	-164.625	0.017234	0.713570	-0.333533	-0.334853	0.009204	21.0355	-0.333861	-14857.6	-6.194592E-7	NaN
709	1.000000	0.722878	7.37199e+06	-41639.1	1005.82	-29785.6	0.000000	0.000000	6.723035	-0.042934	NaN	0.000000	0.001582	0.001745	28.0826	0.038872	0.002039	19.0673	-48.2939	-165.358	-0.068443	0.721614	-0.325545	-0.326809	-0.042934	19.0673	-0.323856	-10600.8	4.050069E-6	NaN
709	1.000000	0.730877	7.37199e+06	-41639.1	1005.82	-29785.6	0.000000	0.000000	6.731036	0.028000	NaN	0.000000	0.001543	0.001745	28.0826	0.071419	0.001977	36.1255	70.1118	-165.374	-0.004839	0.729583	-0.317546	-0.318840	0.028000	36.1255	-0.318128	-8731.04	-3.206910E-6	NaN
709	1.000000	0.738889	7.37199e+06	-41639.1	1005.82	-29785.6	0.000000	0.000000	6.739046	-0.037530	NaN	0.000000	0.001575	0.001730	28.0825	0.007949	0.002042	3.893279	13.2255	-164.528	0.025139	0.737576	-0.309534	-0.310847	-0.037530	3.893279	-0.302304	-5092.24	7.369988E-6	NaN
709	1.000000	0.746880	7.37199e+06	-41639.1	1005.82	-29785.6	0.000000	0.000000	6.747037	-0.026924	NaN	0.000000	0.001536	0.001731	28.0829	0.086303	0.002050	42.1018	95.6783	-162.972	0.011906	0.745617	-0.301543	-0.302806	-0.026924	42.1018	-0.301064	-4880.51	5.516597E-6	NaN
709	1.000000	0.754897	7.37199e+06	-41639.1	1005.82	-29785.6	0.000000	0.000000	6.755056	0.017959	NaN	0.000000	0.001569	0.001719	28.0825	0.131386	0.002019	65.0671	142.86	-164.482	0.010253	0.753595	-0.293526	-0.294828	0.017959	65.0671	-0.293733	-3794.58	-4.732806E-6	NaN
709	1.000000	0.762891	7.37199e+06	-41639.1	1005.82	-29785.6	0.000000	0.000000	6.763048	-0.040680	NaN	0.000000	0.001593	0.001735	28.0826	0.019694	0.001924	10.2371	94.7005	-163.988	0.036560	0.761515	-0.285532	-0.286908	-0.040680	10.2371	-0.282551	-2578.84	1.577441E-5	NaN
709	1.000000	0.770900	7.37199e+06	-41639.1	1005.82	-29785.6	0.000000	0.000000	6.771057	-0.027917	NaN	0.000000	0.001616	0.001744	28.0826	0.042928	0.002037	21.0749	132.898	-165.529	0.043306	0.769585	-0.277523	-0.278838	-0.027917	21.0749	-0.276529	-2091.93	1.334522E-5	NaN
709	1.000000	0.778921	7.37199e+06	-41639.1	1005.82	-29785.6	0.000000	0.000000	6.779080	0.024290	NaN	0.000000	0.001584	0.001759	28.0825	0.120560	0.002034	59.2637	-83.1139	-162.649	0.040257	0.777591	-0.269502	-0.270832	0.024290	59.2637	-0.269809	-1654.42	-1.468215E-5	NaN
709	1.000000	0.786891	7.37199e+06	-41639.1	1005.82	-29785.6	0.000000	0.000000	6.787051	0.030005	NaN	0.000000	0.001562	0.001743	28.0828	0.050910	0.002057	24.7507	96.0942	-165.457	0.008343	0.785653	-0.261531	-0.262769	0.030005	24.7507	-0.262441	-1277.28	-2.349146E-5	NaN
709	1.000000	0.794898	7.37199e+06	-41639.1	1005.82	-29785.6	0.000000	0.000000	6.795056	-0.025266	NaN	0.000000	0.001613	0.001734	28.0827	0.038560	0.002029	19.0084	72.5314	-162.473	-0.015150	0.793587	-0.253525	-0.254836	-0.025266	19.0084	-0.252528	-899.522	2.808858E-5	NaN
709	1.000000	0.802916	7.37199e+06	-41639.1	1005.82	-29785.6	0.000000	0.000000	6.803074	-0.003058	NaN	0.000000	0.001610	0.001700	28.0827	0.117902	0.001894	62.2543	67.198	-166.105	0.031878	0.801571	-0.245507	-0.246852	-0.003058	62.2543	-0.245470	-699.457	4.372192E-6	NaN
709	1.000000	0.810900	7.37199e+06	-41639.1	1005.82	-29785.6	0.000000	0.000000	6.811057	-0.044416	NaN	0.000000	0.001613	0.001748	28.0827	0.089855	0.001919	46.8213	-15.3932	-165.891	-0.040963	0.809611	-0.237523	-0.238812	-0.044416	46.8213	-0.236811	-512.463	8.667080E-5	NaN
709	1.000000	0.818904	7.37199e+06	-41639.1	1005.82	-29785.6	0.000000	0.000000	6.819062	-0.005490	NaN	0.000000	0.001610	0.001736	28.0839	0.041739	0.002020	20.6645	87.8561	-165.863	-0.007091	0.817604	-0.229519	-0.230819	-0.005490	20.6645	-0.229319	-390.632	1.405423E-5	NaN
709	1.000000	0.826924	7.37199e+06	-41639.1	1005.82	-29785.6	0.000000	0.000000	6.827081	-0.054617	NaN	0.000000	0.001599	0.001741	28.0838	0.056478	0.002008	28.1285	-81.7923	-165.184	-0.015267	0.825597	-0.221499	-0.222826	-0.054617	28.1285	-0.220042	-278.196	0.000196	NaN
709	1.000000	0.834909	7.37199e+06	-41639.1	1005.82	-29785.6	0.000000	0.000000	6.835066	-0.032585	NaN	0.000000	0.001592	0.001762	28.0839	0.108735	0.001990	54.6317	-151.134	-169.946	-0.062270	0.833609	-0.213514	-0.214814	-0.032585	54.6317	-0.213067	-214.971	0.000152	NaN
709	1.000000	0.842912	7.37199e+06	-41639.1	1005.82	-29785.6	0.000000	0.000000	6.843069	-0.051600	NaN	0.000000	0.001540	0.001735	28.0841	0.062238	0.002116	29.4117	76.8083	-166.037	-0.031728	0.841613	-0.205511	-0.206810	-0.051600	29.4117	-0.204195	-154.318	0.000334	NaN
709	1.000000	0.850898	7.37199e+06	-41639.1	1005.82	-29785.6	0.000000	0.000000	6.851058	0.018876	NaN	0.000000	0.001556	0.001717	28.0841	0.020579	0.001967	10.4619	-48.1219	-162.286	0.003973	0.849558	-0.197524	-0.198865	0.018876	10.4619	-0.198878	-126.252	-0.000150	NaN
709	1.000000	0.858934	7.37199e+06	-41639.1	1005.82	-29785.6	0.000000	0.000000	6.859096	0.079402	NaN	0.000000	0.001561	0.001718	28.0841	0.097080	0.002048	47.4024	-102.247	-166.795	0.138274	0.857615	-0.189489	-0.190808	0.079402	47.4024	-0.190745	-92.5706	-0.000858	NaN
709	1.000000	0.866924	7.37199e+06	-41639.1	1005.82	-29785.6	0.000000	0.000000	6.867085	0.046316	NaN	0.000000	0.001583	0.001697	28.0838	0.125368	0.001999	62.7189	89.2673	-165.92	-0.041891	0.865617	-0.181499	-0.182806	0.046316	62.7189	-0.182052	-66.1177	-0.000701	NaN
709	1.000000	0.874948	7.37199e+06	-41639.1	1005.82	-29785.6	0.000000	0.000000	6.875105	-0.028889	NaN	0.000000	0.001555	0.001722	28.0841	0.043235	0.001988	21.7499	-134.309	-165.238	-0.038832	0.873637	-0.173475	-0.174786	-0.028889	21.7499	-0.172479	-45.347	0.000637	NaN
709	1.000000	0.882955	7.37199e+06	-41639.1	1005.82	-29785.6	0.000000	0.000000	6.883115	0.036413	NaN	0.000000	0.001590	0.001713	28.0841	0.072376	0.001857	38.9721	58.1594	-165.652	-0.013313	0.881659	-0.165468	-0.166764	0.036413	38.9721	-0.166168	-35.2204	-0.001034	NaN
709	1.000000	0.890925	7.37199e+06	-41639.1	1005.82	-29785.6	0.000000	0.000000	6.891082	-0.043759	NaN	0.000000	0.001610	0.001720	28.0841	0.069647	0.001969	35.3644	146.05	-166.063	-0.063799	0.889637	-0.157497	-0.158786	-0.043759	35.3644	-0.156569	-23.8103	0.001838	NaN
709	1.000000	0.898951	7.37199e+06	-41639.1	1005.82	-29785.6	0.000000	0.000000	6.899107	-0.072199	NaN	0.000000	0.001595	0.001717	28.0841	0.028343	0.002003	14.1499	99.5353	-163.348	-0.015256	0.897616	-0.149472	-0.150807	-0.072199	14.1499	-0.145645	-15.0692	0.004791	NaN
709	1.000000	0.906948	7.37199e+06	-41639.1	1005.82	-29785.6	0.000000	0.000000	6.907105	-0.039402	NaN	0.000000	0.001540	0.001725	28.0841	0.033958	0.002027	16.7548	11.6918	-166.18	-0.034513	0.905672	-0.141474	-0.142750	-0.039402	16.7548	-0.139711	-11.6823	0.003373	NaN
709	1.000000	0.914945	7.37199e+06	-41639.1	1005.82	-29785.6	0.000000	0.000000	6.915103	-0.001549	NaN	0.000000	0.001615	0.001683	28.0843	0.058174	0.002070	28.1022	93.3184	-164.71	-0.010045	0.913588	-0.133478	-0.134835	-0.001549	28.1022	-0.133437	-8.878986	0.000175	NaN
709	1.000000	0.922939	7.37199e+06	-41639.1	1005.82	-29785.6	0.000000	0.000000	6.923100	0.058196	NaN	0.000000	0.001617	0.001730	28.0841	0.062418	0.001966	31.7538	-2.560172	-167.701	0.043895	0.921631	-0.125484	-0.126792	0.058196	31.7538	-0.126858	-6.616610	-0.008795	NaN
709	1.000000	0.930978	7.37199e+06	-41639.1	1005.82	-29785.6	0.000000	0.000000	6.931138	0.018967	NaN	0.000000	0.001631	0.001704	28.084	0.083639	0.002057	40.6654	-16.952	-165.938	0.102123	0.929693	-0.117444	-0.118730	0.018967	40.6654	-0.117794	-4.358740	-0.004351	NaN
709	1.000000	0.938962	7.37199e+06	-41639.1	1005.82	-29785.6	0.000000	0.000000	6.939122	0.047759	NaN	0.000000	0.001620	0.001710	28.0841	0.026934	0.002151	12.524	-83.7517	-164.757	0.000729	0.937648	-0.109461	-0.110775	0.047759	12.524	-0.112321	-3.361624	-0.014207	NaN
709	1.000000	0.946967	7.37199e+06	-41639.1	1005.82	-29785.6	0.000000	0.000000	6.947130	0.108646	NaN	0.000000	0.001641	0.001675	28.084	0.126160	0.001872	67.4026	29.4537	-165.136	0.108319	0.945603	-0.101456	-0.102820	0.108646	67.4026	-0.102665	-2.091358	-0.051950	NaN
709	1.000000	0.954993	7.37199e+06	-41639.1	1005.82	-29785.6	0.000000	0.000000	6.955155	0.071385	NaN	0.000000	0.001631	0.001726	28.0831	0.051232	0.002117	24.2009	-38.125	-166.427	0.116065	0.953673	-0.093430	-0.094749	0.071385	24.2009	-0.095642	-1.458852	-0.048932	NaN
709	1.000000	0.962953	7.37199e+06	-41639.1	1005.82	-29785.6	0.000000	0.000000	6.963116	0.112470	NaN	0.000000	0.001612	0.001765	28.0828	0.150702	0.001991	75.6933	22.7635	-167.592	0.118682	0.961676	-0.085470	-0.086747	0.112470	75.6933	-0.086584	-0.897072	-0.125375	NaN
709	1.000000	0.970970	7.37199e+06	-41639.1	1005.82	-29785.6	0.000000	0.000000	6.971137	0.207170	NaN	0.000000	0.001568	0.001760	28.0829	0.099779	0.001890	52.7975	30.9157	-165.412	0.086133	0.969666	-0.077453	-0.078757	0.207170	52.7975	-0.080396	-0.633252	-0.327152	NaN
709	1.000000	0.978971	7.37199e+06	-41639.1	1005.82	-29785.6	0.000000	0.000000	6.979136	0.148028	NaN	0.000000	0.001618	0.001787	28.0829	0.271843	0.002047	132.78	9.912309	-166.766	0.149633	0.977658	-0.069451	-0.070764	0.148028	132.78	-0.070288	-0.347206	-0.426341	NaN
709	1.000000	0.986968	7.37199e+06	-41639.1	1005.82	-29785.6	0.000000	0.000000	6.987145	0.460040	NaN	0.000000	0.001591	0.001767	28.0827	0.292636	0.001977	148.001	16.1258	-164.898	0.481741	0.985658	-0.061455	-0.062765	0.460040	148.001	-0.063786	-0.230550	-1.995399	NaN
709	1.000000	0.994970	7.37199e+06	-41639.1	1005.82	-29785.6	0.000000	0.000000	6.995158	0.725161	NaN	0.000000	0.001601	0.001738	28.0831	0.438649	0.002051	213.879	19.7102	-168.279	0.774571	0.993620	-0.053453	-0.054803	0.725161	213.879	-0.055996	-0.137780	-5.263171	NaN
709	1.000000	1.002969	7.37199e+06	-41639.1	1005.82	-29785.6	0.000000	0.000000	7.003162	0.849465	NaN	0.000000	0.001550	0.001751	28.0832	0.357699	0.002132	167.812	22.0449	-164.279	0.815900	1.001614	-0.045454	-0.046809	0.849465	167.812	-0.049250	-0.086604	-9.808592	NaN
709	1.000000	1.010994	7.37199e+06	-41639.1	1005.82	-29785.6	0.000000	0.000000	7.011202	1.202672	NaN	0.000000	0.001578	0.001740	28.0827	0.510312	0.001920	265.738	13.8643	-165.169	1.235121	1.009664	-0.037428	-0.038759	1.202672	265.738	-0.040823	-0.047904	-25.1059	NaN
709	1.000000	1.019000	7.37199e+06	-41639.1	1005.82	-29785.6	0.000000	0.000000	7.019216	1.381732	NaN	0.000000	0.001531	0.001726	28.0832	0.614193	0.001943	316.169	19.3244	-163.985	1.384767	1.017664	-0.029422	-0.030759	1.381732	316.169	-0.032700	-0.027446	-50.3434	NaN
709	1.000000	1.026976	7.37199e+06	-41639.1	1005.82	-29785.6	0.000000	0.000000	7.027209	1.807632	NaN	0.000000	0.001561	0.001746	28.0825	0.613737	0.002107	291.327	20.9671	-164.428	1.785856	1.025718	-0.021447	-0.022705	1.807632	291.327	-0.026100	-0.018033	-100.242	NaN
709	1.000000	1.035010	7.37199e+06	-41639.1	1005.82	-29785.6	0.000000	0.000000	7.035250	1.969744	NaN	0.000000	0.001566	0.001741	28.0827	0.693158	0.002011	344.612	20.1544	-162.833	1.948798	1.033639	-0.013412	-0.014784	1.969744	344.612	-0.017699	-0.010964	-179.662	NaN
709	1.000000	1.043014	7.37199e+06	-41639.1	1005.82	-29785.6	0.000000	0.000000	7.043264	2.210465	NaN	0.000000	0.001575	0.001738	28.0826	0.808015	0.002203	366.785	19.9088	-165.401	2.156832	1.041683	-0.005409	-0.006740	2.210465	366.785	-0.009929	-0.006347	-348.295	NaN
709	1.000000	1.050975	7.37199e+06	-41639.1	1005.82	-29785.6	0.000000	0.000000	7.051267	3.239557	NaN	0.000000	0.001550	0.001709	28.0827	2.170385	0.002175	997.676	19.1343	-168.903	2.702352	1.049650	0.002553	0.001228	3.239557	997.676	0.000117	8.783602E-5	36881.9	97258.3
709	2.000000	1.056630	7.37199e+06	-41639.1	1005.82	-29785.6	0.000000	0.000000	7.057224	10.6	NaN	0.000000	0.001561	0.001711	28.0831	7.526080	0.001663	4525.93	7.668126	-171.26	9.906520	1.056295	0.008207	0.007872	10.6	4525.93	0.006451	0.005497	1928.44	55773.8
709	2.000000	1.058668	7.37199e+06	-41639.1	1005.82	-29785.6	0.000000	0.000000	7.059394	13.7956	NaN	0.000000	0.001588	0.001758	28.0827	9.754161	0.001822	5352.31	7.134026	-169.773	12.8243	1.058352	0.010245	0.009930	13.7956	5352.31	0.008312	0.007365	1873.04	56979.4
709	2.000000	1.060617	7.37199e+06	-41639.1	1005.82	-29785.6	0.000000	0.000000	7.061512	17.9156	NaN	0.000000	0.001586	0.001729	28.0825	11.946	0.001765	6767.45	5.620499	-171.615	17.1298	1.060291	0.012194	0.011868	17.9156	6767.45	0.010209	0.009415	1902.96	63723.1
709	2.000000	1.062613	7.37199e+06	-41639.1	1005.82	-29785.6	0.000000	0.000000	7.063616	20.5652	NaN	0.000000	0.001573	0.001769	28.0825	14.3314	0.001843	7775.7	7.754788	-174.002	20.8979	1.062332	0.014190	0.013909	20.5652	7775.7	0.012206	0.011738	1752.01	65571.4
709	2.000000	1.064576	7.37199e+06	-41639.1	1005.82	-29785.6	0.000000	0.000000	7.065789	25.6461	NaN	0.000000	0.001557	0.001725	28.0838	15.6344	0.001706	9166.77	3.713184	-171.792	25.2683	1.064278	0.016154	0.015855	25.6461	9166.77	0.014055	0.014046	1825.83	70665.9
709	2.000000	1.066572	7.37199e+06	-41639.1	1005.82	-29785.6	0.000000	0.000000	7.067898	28.409	NaN	0.000000	0.001618	0.001721	28.0846	17.4366	0.001754	9941.2	6.251715	-174.874	27.4941	1.066192	0.018149	0.017769	28.409	9941.2	0.016006	0.016650	1706.2	70388.1
709	2.000000	1.068557	7.37199e+06	-41639.1	1005.82	-29785.6	0.000000	0.000000	7.069984	30.8666	NaN	0.000000	0.001627	0.001704	28.0839	19.0985	0.001848	10336.3	7.304495	-176.378	29.3602	1.068272	0.020135	0.019849	30.8666	10336.3	0.017895	0.019342	1595.86	67903.4
709	2.000000	1.070573	7.37199e+06	-41639.1	1005.82	-29785.6	0.000000	0.000000	7.072110	33.5361	NaN	0.000000	0.001560	0.001740	28.0838	19.701	0.001882	10468.9	4.975481	-173.022	33.305	1.070281	0.022150	0.021858	33.5361	10468.9	0.019748	0.022147	1514.24	64271.4
709	2.000000	1.072572	7.37199e+06	-41639.1	1005.82	-29785.6	0.000000	0.000000	7.074201	35.7884	NaN	0.000000	0.001619	0.001740	28.0838	21.4403	0.001775	12081.8	4.642006	-175.829	35.6599	1.072312	0.024149	0.023889	35.7884	12081.8	0.021927	0.025661	1394.64	68907.2
709	2.000000	1.074629	7.37199e+06	-41639.1	1005.82	-29785.6	0.000000	0.000000	7.076447	40.3807	NaN	0.000000	0.001630	0.001717	28.0838	23.2591	0.001858	12520	10.1727	-179.701	43.4537	1.074332	0.026206	0.025909	40.3807	12520	0.023787	0.028846	1399.86	67349
709	2.000000	1.076523	7.37199e+06	-41639.1	1005.82	-29785.6	0.000000	0.000000	7.078519	44.7131	NaN	0.000000	0.001626	0.001704	28.0842	24.7463	0.001791	13819	2.399226	-173.88	44.4978	1.076203	0.028100	0.027780	44.7131	13819	0.025673	0.032251	1386.39	70303.1
709	2.000000	1.078519	7.37199e+06	-41639.1	1005.82	-29785.6	0.000000	0.000000	7.080632	47.5487	NaN	0.000000	0.001642	0.001710	28.0842	27.0119	0.001904	14188.4	6.888772	-177.76	45.9211	1.078233	0.030096	0.029811	47.5487	14188.4	0.027583	0.035882	1325.13	68432.9
709	2.000000	1.080571	7.37199e+06	-41639.1	1005.82	-29785.6	0.000000	0.000000	7.082808	50.5633	NaN	0.000000	0.001618	0.001742	28.0838	28.1438	0.001841	15285.8	4.008577	-175.769	50.7883	1.080265	0.032148	0.031842	50.5633	15285.8	0.029668	0.040058	1262.26	69778.1
709	2.000000	1.082540	7.37199e+06	-41639.1	1005.82	-29785.6	0.000000	0.000000	7.084961	55.0493	NaN	0.000000	0.001594	0.001738	28.0841	29.5466	0.001843	16033.6	5.190722	-178.011	54.4101	1.082205	0.034117	0.033782	55.0493	16033.6	0.031542	0.044000	1251.11	69835.4
709	2.000000	1.084533	7.37199e+06	-41639.1	1005.82	-29785.6	0.000000	0.000000	7.087135	59.444	NaN	0.000000	0.001646	0.001712	28.084	30.9734	0.001776	17444.2	5.140830	-178.984	59.4865	1.084166	0.036111	0.035743	59.444	17444.2	0.033555	0.048435	1227.3	72417.9
709	2.000000	1.086510	7.37199e+06	-41639.1	1005.82	-29785.6	0.000000	0.000000	7.089245	62.6944	NaN	0.000000	0.001590	0.001720	28.0841	33.1311	0.001892	17510.8	1.601992	-175.336	60.6187	1.086253	0.038087	0.037830	62.6944	17510.8	0.035402	0.052685	1189.98	69700.3
709	2.000000	1.088540	7.37199e+06	-41639.1	1005.82	-29785.6	0.000000	0.000000	7.091609	70.8052	NaN	0.000000	0.001633	0.001747	28.0842	34.9098	0.001839	18980.9	7.307025	178.916	70.9498	1.088157	0.040117	0.039734	70.8052	18980.9	0.037320	0.057285	1236.01	72455
709	2.000000	1.090546	7.37199e+06	-41639.1	1005.82	-29785.6	0.000000	0.000000	7.093727	73.5592	NaN	0.000000	0.001616	0.001741	28.0845	35.9003	0.001757	20432.4	3.123720	-179.008	72.6475	1.090268	0.042123	0.041845	73.5592	20432.4	0.039423	0.062545	1176.1	74644.2
709	2.000000	1.092516	7.37199e+06	-41639.1	1005.82	-29785.6	0.000000	0.000000	7.095842	77.0767	NaN	0.000000	0.001648	0.001744	28.0843	38.4464	0.001926	19959.7	3.132617	-178.373	76.4764	1.092258	0.044093	0.043836	77.0767	19959.7	0.041197	0.067158	1147.69	70368.4
709	2.000000	1.094562	7.37199e+06	-41639.1	1005.82	-29785.6	0.000000	0.000000	7.098155	83.5504	NaN	0.000000	0.001626	0.001762	28.0841	39.715	0.001819	21828.4	9.566348	174.622	84.7261	1.094198	0.046139	0.045775	83.5504	21828.4	0.043269	0.072748	1148.48	73940.8
709	2.000000	1.096432	7.37199e+06	-41639.1	1005.82	-29785.6	0.000000	0.000000	7.100403	92.7509	NaN	0.000000	0.001609	0.001729	28.0845	40.8743	0.001682	24306.8	1.178541	-179.116	88.0017	1.096248	0.048009	0.047825	92.7509	24306.8	0.045148	0.078007	1189.01	79512.5
709	2.000000	1.098541	7.37199e+06	-41639.1	1005.82	-29785.6	0.000000	0.000000	7.102875	101.595	NaN	0.000000	0.001592	0.001732	28.0829	43.7846	0.001838	23816.8	5.880828	177.842	99.9997	1.098205	0.050118	0.049782	101.595	23816.8	0.046919	0.083129	1222.14	75471
709	2.000000	1.100450	7.37199e+06	-41639.1	1005.82	-29785.6	0.000000	0.000000	7.105124	109.879	NaN	0.000000	0.001589	0.001763	28.083	45.2342	0.001814	24929.3	3.996225	178.132	106.905	1.100228	0.052027	0.051805	109.879	24929.3	0.048722	0.088503	1241.54	76560.7
709	2.000000	1.102516	7.37199e+06	-41639.1	1005.82	-29785.6	0.000000	0.000000	7.107165	109.273	NaN	0.000000	0.001592	0.001758	28.0832	47.3292	0.001770	26743.3	2.992115	178.563	108.625	1.102353	0.054093	0.053930	109.273	26743.3	0.051029	0.095619	1142.8	79016.1
709	2.000000	1.104473	7.37199e+06	-41639.1	1005.82	-29785.6	0.000000	0.000000	7.109747	124.466	NaN	0.000000	0.001591	0.001758	28.0829	49.689	0.001853	26809.8	8.617762	174.238	122.767	1.104104	0.056050	0.055681	124.466	26809.8	0.052568	0.100516	1238.27	77259
709	2.000000	1.106445	7.37199e+06	-41639.1	1005.82	-29785.6	0.000000	0.000000	7.112102	133.775	NaN	0.000000	0.001579	0.001769	28.0829	51.0112	0.001881	27125.3	3.645022	178.352	131.457	1.106241	0.058023	0.057818	133.775	27125.3	0.054324	0.106245	1259.12	76031.6
709	2.000000	1.108533	7.37199e+06	-41639.1	1005.82	-29785.6	0.000000	0.000000	7.114570	143.038	NaN	0.000000	0.001602	0.001778	28.0827	52.6935	0.001922	27412.9	4.890743	176.971	143.049	1.108220	0.060110	0.059797	143.038	27412.9	0.056196	0.112523	1271.18	74663.4
709	2.000000	1.110538	7.37199e+06	-41639.1	1005.82	-29785.6	0.000000	0.000000	7.116908	151.141	NaN	0.000000	0.001652	0.001773	28.083	54.2901	0.001698	31979.4	4.461341	175.956	151.262	1.110217	0.062115	0.061794	151.141	31979.4	0.058571	0.120733	1251.87	84087.6
709	2.000000	1.112526	7.37199e+06	-41639.1	1005.82	-29785.6	0.000000	0.000000	7.119187	158.23	NaN	0.000000	0.001622	0.001724	28.0831	57.7057	0.001905	30291.2	5.911349	174.762	158.268	1.112188	0.064103	0.063765	158.23	30291.2	0.060185	0.126473	1251.1	77820.1
709	2.000000	1.114515	7.37199e+06	-41639.1	1005.82	-29785.6	0.000000	0.000000	7.121879	175.338	NaN	0.000000	0.001606	0.001727	28.0827	57.987	0.001774	32689	5.818059	175.2	176.225	1.114163	0.066092	0.065740	175.338	32689	0.062069	0.133332	1315.05	81791.5
709	2.000000	1.116537	7.37199e+06	-41639.1	1005.82	-29785.6	0.000000	0.000000	7.123849	174.045	NaN	0.000000	0.001636	0.001725	28.0831	61.1173	0.001781	34308.5	6.334667	173.813	177.404	1.116233	0.068114	0.067810	174.045	34308.5	0.064310	0.141714	1228.14	83266.2
709	2.000000	1.118458	7.37199e+06	-41639.1	1005.82	-29785.6	0.000000	0.000000	7.126542	192.849	NaN	0.000000	0.001621	0.001721	28.0827	63.4868	0.001848	34349.1	7.988389	172.498	190.084	1.118120	0.070035	0.069697	192.849	34349.1	0.065824	0.147518	1307.3	81708.4
709	2.000000	1.120369	7.37199e+06	-41639.1	1005.82	-29785.6	0.000000	0.000000	7.128256	188.044	NaN	0.000000	0.001605	0.001736	28.083	63.2288	0.001837	34423.3	-0.295894	-179.722	181.244	1.120159	0.071946	0.071736	188.044	34423.3	0.067849	0.155449	1209.68	79768.5
709	2.000000	1.122492	7.37199e+06	-41639.1	1005.82	-29785.6	0.000000	0.000000	7.130988	202.869	NaN	0.000000	0.001611	0.001705	28.0829	66.6433	0.001870	35638.1	8.927801	171.617	202.106	1.122119	0.074069	0.073696	202.869	35638.1	0.069800	0.163275	1242.5	80580
709	2.000000	1.124468	7.37199e+06	-41639.1	1005.82	-29785.6	0.000000	0.000000	7.133473	215.232	NaN	0.000000	0.001613	0.001747	28.0828	67.208	0.001791	37525	7.974064	172.264	214.31	1.124003	0.076046	0.075580	215.232	37525	0.071744	0.171254	1256.8	82846.4
709	2.000000	1.126461	7.372e+06	-41639.1	1005.82	-29785.6	0.000000	0.000000	7.135777	222.823	NaN	0.000000	0.001609	0.001730	28.083	68.7348	0.001716	40047.8	3.777194	174.988	221.54	1.126207	0.078038	0.077784	222.823	40047.8	0.073865	0.180164	1236.78	86202
709	2.000000	1.128485	7.372e+06	-41639.1	1005.82	-29785.6	0.000000	0.000000	7.138535	240.685	NaN	0.000000	0.001639	0.001696	28.0827	71.6045	0.001737	41228.2	6.807260	172.196	238.018	1.128141	0.080062	0.079718	240.685	41228.2	0.075683	0.187973	1280.42	86880.1
709	2.000000	1.130526	7.372e+06	-41639.1	1005.82	-29785.6	0.000000	0.000000	7.140722	244.23	NaN	0.000000	0.001601	0.001724	28.0827	73.185	0.001869	39148.5	2.752583	176.726	246.172	1.130296	0.082104	0.081874	244.23	39148.5	0.077425	0.195595	1248.65	80874.2
709	2.000000	1.132424	7.372e+06	-41639.1	1005.82	-29785.6	0.000000	0.000000	7.143262	259.851	NaN	0.000000	0.001601	0.001714	28.0836	76.4076	0.001987	38452.3	7.375244	171.971	257.445	1.132090	0.084001	0.083668	259.851	38452.3	0.078933	0.202311	1284.41	78106.2
709	2.000000	1.134461	7.372e+06	-41639.1	1005.82	-29785.6	0.000000	0.000000	7.145806	272.181	NaN	0.000000	0.001510	0.001712	28.0839	77.0278	0.001834	42001.1	7.745217	170.956	269.659	1.134082	0.086038	0.085659	272.181	42001.1	0.081178	0.212507	1280.81	83242.8
709	2.000000	1.136470	7.372e+06	-41639.1	1005.82	-29785.6	0.000000	0.000000	7.148227	282.209	NaN	0.000000	0.001576	0.001723	28.0839	79.2254	0.001936	40929.4	3.935575	175.231	283.283	1.136161	0.088047	0.087738	282.209	40929.4	0.082876	0.220372	1280.6	79658.3
709	2.000000	1.138446	7.372e+06	-41639.1	1005.82	-29785.6	0.000000	0.000000	7.150761	295.786	NaN	0.000000	0.001625	0.001693	28.0839	80.5796	0.001844	43690.7	6.592242	171.924	294.262	1.138150	0.090023	0.089727	295.786	43690.7	0.084946	0.230143	1285.22	83207.6
709	2.000000	1.140491	7.372e+06	-41639.1	1005.82	-29785.6	0.000000	0.000000	7.153518	313.123	NaN	0.000000	0.001615	0.001747	28.0844	81.3437	0.001885	43142.6	7.675769	171.388	314.58	1.140136	0.092068	0.091713	313.123	43142.6	0.086625	0.238214	1314.46	80759.9
709	2.000000	1.142366	7.372e+06	-41639.1	1005.82	-29785.6	0.000000	0.000000	7.155806	323.166	NaN	0.000000	0.001619	0.001718	28.0838	82.5522	0.001754	47067.6	2.898656	175.156	318.492	1.142145	0.093943	0.093722	323.166	47067.6	0.088793	0.248829	1298.75	86207.5
709	2.000000	1.144422	7.372e+06	-41639.1	1005.82	-29785.6	0.000000	0.000000	7.158475	338.089	NaN	0.000000	0.001639	0.001765	28.084	83.5138	0.001750	47720	6.243608	171.547	337.31	1.144051	0.095999	0.095628	338.089	47720	0.090685	0.258268	1309.06	85790.4
709	2.000000	1.146357	7.372e+06	-41639.1	1005.82	-29785.6	0.000000	0.000000	7.160729	345.846	NaN	0.000000	0.001626	0.001696	28.0838	85.8873	0.001799	47752.1	4.182972	173.676	339.824	1.146082	0.097934	0.097659	345.846	47752.1	0.092502	0.267484	1292.96	84356.2
709	2.000000	1.148471	7.372e+06	-41639.1	1005.82	-29785.6	0.000000	0.000000	7.163662	365.768	NaN	0.000000	0.001646	0.001734	28.084	88.9057	0.001724	51557.8	6.760957	171.047	365.256	1.148130	0.100048	0.099707	365.768	51557.8	0.094727	0.278979	1311.1	89183
709	2.000000	1.150452	7.372e+06	-41639.1	1005.82	-29785.6	0.000000	0.000000	7.166066	376.067	NaN	0.000000	0.001655	0.001734	28.0839	90.6855	0.001758	51579.9	3.824444	173.375	376.602	1.150184	0.102029	0.101761	376.067	51579.9	0.096561	0.288622	1302.97	87718.1
709	2.000000	1.152457	7.372e+06	-41639.1	1005.82	-29785.6	0.000000	0.000000	7.168976	398.089	NaN	0.000000	0.001693	0.001689	28.0839	93.3835	0.001674	55799.3	7.255187	169.703	398.31	1.152079	0.104034	0.103656	398.089	55799.3	0.098684	0.299975	1327.07	93080.7
709	2.000000	1.154528	7.372e+06	-41639.1	1005.82	-29785.6	0.000000	0.000000	7.170936	395.37	NaN	0.000000	0.001657	0.001723	28.0843	93.4261	0.001741	53664.3	1.203635	175.636	397.275	1.154393	0.106105	0.105970	395.37	53664.3	0.100580	0.310290	1274.2	88018.7