File: remote_trans/data/nanoindenter/0828-1/data/Data_2025-08-06,11h17m57s/2025-07-22_16-23-58_1_1152.txt
2025-07-22, 16:23:58, 1
Index	Phase	Displacement	Time	Pos X	Pos Y	Pos Z	Rot A	Rot B	Piezo Z	Force A	Force B	Gripper	Voltage A	Voltage B	Temperature	Amplitude force	Amplitude pos	Stiffness	Phase shift	Phase excitation	Force A raw	Displacement raw	HMax	HMax raw	Real Force	Real Stiffness	Contact Depth	Area	Hardness	Reduced Mod.
[#]	[#]	[um]	[s]	[um]	[um]	[um]	[m°]	[m°]	[um]	[uN]	[uN]	[V]	[V]	[V]	[°C]	[uN]	[um]	[N/m]	[°]	[°]	[uN]	[um]	[um]	[um]	[uN]	[N/m]	[um]	[um^2]	[MPa]	[MPa]
1152	1.000000	0.002534	7.37632e+06	-57739.1	1055.82	-29736.5	0.000000	0.000000	6.002804	0.010822	NaN	0.000000	0.001572	0.001714	28.0808	0.060725	0.000916	66.2915	91.146	-166.946	-0.074367	0.001266	-1.012340	-1.013607	0.010822	66.2915	-1.012462	-3.338251E+13	-3.241723E-16	NaN
1152	1.000000	0.010495	7.37632e+06	-57739.1	1055.82	-29736.5	0.000000	0.000000	6.010761	-0.091699	NaN	0.000000	0.001518	0.001681	28.0808	0.063752	0.000893	71.3953	111.036	-163.455	-0.094386	0.009215	-1.004379	-1.005658	-0.091699	71.3953	-1.003416	-2.522037E+13	3.635897E-15	NaN
1152	1.000000	0.018477	7.37632e+06	-57739.1	1055.82	-29736.5	0.000000	0.000000	6.018744	-0.065769	NaN	0.000000	0.001547	0.001684	28.0808	0.083881	0.001708	49.1024	11.0048	-165.26	-0.021074	0.017168	-0.996397	-0.997705	-0.065769	49.1024	-0.995392	-1.966639E+13	3.344226E-15	NaN
1152	1.000000	0.026521	7.37632e+06	-57739.1	1055.82	-29736.5	0.000000	0.000000	6.026787	-0.098795	NaN	0.000000	0.001577	0.001698	28.0809	0.021989	0.001874	11.7359	-63.9118	-161.767	-0.068505	0.025123	-0.988352	-0.989751	-0.098795	11.7359	-0.982038	-1.299780E+13	7.600869E-15	NaN
1152	1.000000	0.034492	7.37632e+06	-57739.1	1055.82	-29736.5	0.000000	0.000000	6.034760	-0.067105	NaN	0.000000	0.001562	0.001685	28.0807	0.112052	0.001824	61.4475	-84.4236	-162.599	-0.134545	0.033164	-0.980381	-0.981709	-0.067105	61.4475	-0.979562	-1.203671E+13	5.575059E-15	NaN
1152	1.000000	0.042492	7.37632e+06	-57739.1	1055.82	-29736.5	0.000000	0.000000	6.042760	-0.055416	NaN	0.000000	0.001607	0.001681	28.0809	0.159218	0.001841	86.4677	43.3235	-163.515	-0.025929	0.041194	-0.972381	-0.973679	-0.055416	86.4677	-0.971900	-9.490121E+12	5.839339E-15	NaN
1152	1.000000	0.050482	7.37632e+06	-57739.1	1055.82	-29736.5	0.000000	0.000000	6.050749	-0.083053	NaN	0.000000	0.001599	0.001696	28.0809	0.067081	0.001957	34.2839	-92.9423	-165.682	-0.037114	0.049196	-0.964391	-0.965678	-0.083053	34.2839	-0.962574	-7.105171E+12	1.168911E-14	NaN
1152	1.000000	0.058492	7.37632e+06	-57739.1	1055.82	-29736.5	0.000000	0.000000	6.058758	-0.088842	NaN	0.000000	0.001598	0.001706	28.0812	0.163598	0.001983	82.5134	-149.129	-163.991	-0.030950	0.057188	-0.956382	-0.957685	-0.088842	82.5134	-0.955574	-5.717394E+12	1.553895E-14	NaN
1152	1.000000	0.066494	7.37632e+06	-57739.1	1055.82	-29736.5	0.000000	0.000000	6.066760	-0.081003	NaN	0.000000	0.001589	0.001680	28.0817	0.026799	0.002005	13.3682	-149.04	-162.819	-0.018421	0.065161	-0.948380	-0.949713	-0.081003	13.3682	-0.943835	-3.970797E+12	2.039959E-14	NaN
1152	1.000000	0.074479	7.37632e+06	-57739.1	1055.82	-29736.5	0.000000	0.000000	6.074747	-0.055669	NaN	0.000000	0.001568	0.001706	28.0823	0.026947	0.002018	13.353	-143.368	-164.668	-0.008024	0.073162	-0.940394	-0.941711	-0.055669	13.353	-0.937267	-3.237923E+12	1.719277E-14	NaN
1152	1.000000	0.082485	7.37632e+06	-57739.1	1055.82	-29736.5	0.000000	0.000000	6.082753	-0.040985	NaN	0.000000	0.001585	0.001688	28.0821	0.045741	0.001990	22.9858	60.5286	-162.42	-0.032536	0.081207	-0.932389	-0.933666	-0.040985	22.9858	-0.931051	-2.669238E+12	1.535442E-14	NaN
1152	1.000000	0.090505	7.37632e+06	-57739.1	1055.82	-29736.5	0.000000	0.000000	6.090770	-0.108649	NaN	0.000000	0.001579	0.001686	28.0822	0.078247	0.001936	40.41	35.5211	-163.605	-0.064588	0.089184	-0.924369	-0.925690	-0.108649	40.41	-0.922352	-2.036869E+12	5.334114E-14	NaN
1152	1.000000	0.098510	7.37632e+06	-57739.1	1055.82	-29736.5	0.000000	0.000000	6.098778	-0.063299	NaN	0.000000	0.001544	0.001732	28.0819	0.091939	0.002014	45.6434	47.178	-162.741	-0.050337	0.097146	-0.916363	-0.917727	-0.063299	45.6434	-0.915323	-1.637004E+12	3.866757E-14	NaN
1152	1.000000	0.106493	7.37632e+06	-57739.1	1055.82	-29736.5	0.000000	0.000000	6.106760	-0.070202	NaN	0.000000	0.001562	0.001664	28.0817	0.062673	0.001877	33.3883	131.303	-162.623	-0.129024	0.105172	-0.908381	-0.909701	-0.070202	33.3883	-0.906804	-1.255992E+12	5.589355E-14	NaN
1152	1.000000	0.114501	7.37632e+06	-57739.1	1055.82	-29736.5	0.000000	0.000000	6.114765	-0.132163	NaN	0.000000	0.001573	0.001687	28.0819	0.066383	0.001880	35.3052	126.332	-163.7	-0.132319	0.113197	-0.900373	-0.901676	-0.132163	35.3052	-0.897565	-9.422420E+11	1.402641E-13	NaN
1152	1.000000	0.122505	7.37632e+06	-57739.1	1055.82	-29736.5	0.000000	0.000000	6.122770	-0.135879	NaN	0.000000	0.001543	0.001680	28.0817	0.018535	0.002221	8.343945	112.053	-164.482	-0.041253	0.121247	-0.892368	-0.893626	-0.135879	8.343945	-0.880155	-5.480257E+11	2.479423E-13	NaN
1152	1.000000	0.130524	7.37632e+06	-57739.1	1055.82	-29736.5	0.000000	0.000000	6.130793	-0.035980	NaN	0.000000	0.001551	0.001698	28.0816	0.128423	0.001977	64.9665	-166.075	-167.108	0.011660	0.129196	-0.884349	-0.885677	-0.035980	64.9665	-0.883934	-6.164534E+11	5.836570E-14	NaN
1152	1.000000	0.138533	7.37632e+06	-57739.1	1055.82	-29736.5	0.000000	0.000000	6.138799	-0.092969	NaN	0.000000	0.001569	0.001664	28.0819	0.113990	0.001973	57.7833	39.4781	-163.494	-0.049359	0.137231	-0.876340	-0.877643	-0.092969	57.7833	-0.875134	-4.686956E+11	1.983566E-13	NaN
1152	1.000000	0.146499	7.37633e+06	-57739.1	1055.82	-29736.5	0.000000	0.000000	6.146766	-0.071778	NaN	0.000000	0.001630	0.001720	28.0819	0.064078	0.002021	31.709	48.9192	-163.369	-0.080663	0.145203	-0.868374	-0.869671	-0.071778	31.709	-0.866677	-3.601455E+11	1.993030E-13	NaN
1152	1.000000	0.154516	7.37633e+06	-57739.1	1055.82	-29736.5	0.000000	0.000000	6.154781	-0.121589	NaN	0.000000	0.001589	0.001704	28.083	0.029167	0.002056	14.1864	100.156	-163.553	-0.102923	0.153178	-0.860358	-0.861695	-0.121589	14.1864	-0.853930	-2.420727E+11	5.022849E-13	NaN
1152	1.000000	0.162487	7.37633e+06	-57739.1	1055.82	-29736.5	0.000000	0.000000	6.162754	-0.069297	NaN	0.000000	0.001606	0.001689	28.0819	0.143007	0.001859	76.9382	-146.673	-168.623	-0.053343	0.161190	-0.852387	-0.853683	-0.069297	76.9382	-0.851711	-2.258959E+11	3.067644E-13	NaN
1152	1.000000	0.170522	7.37633e+06	-57739.1	1055.82	-29736.5	0.000000	0.000000	6.170794	0.031580	NaN	0.000000	0.001610	0.001669	28.0819	0.053178	0.002059	25.8326	8.312933	-165.931	-0.071446	0.169213	-0.844351	-0.845660	0.031580	25.8326	-0.845268	-1.847777E+11	-1.709097E-13	NaN
1152	1.000000	0.178521	7.37633e+06	-57739.1	1055.82	-29736.5	0.000000	0.000000	6.178785	-0.125557	NaN	0.000000	0.001668	0.001720	28.0819	0.093248	0.002179	42.7939	-137.66	-164.512	-0.094184	0.177208	-0.836353	-0.837666	-0.125557	42.7939	-0.834152	-1.306349E+11	9.611274E-13	NaN
1152	1.000000	0.186531	7.37633e+06	-57739.1	1055.82	-29736.5	0.000000	0.000000	6.186798	-0.069962	NaN	0.000000	0.001598	0.001697	28.082	0.021308	0.002026	10.517	-53.9619	-164.378	-0.101821	0.185206	-0.828343	-0.829668	-0.069962	10.517	-0.823353	-9.325689E+10	7.502081E-13	NaN
1152	1.000000	0.194522	7.37633e+06	-57739.1	1055.82	-29736.5	0.000000	0.000000	6.194788	-0.106534	NaN	0.000000	0.001543	0.001679	28.0823	0.063871	0.002054	31.0953	1.240462	-162.944	-0.011927	0.193190	-0.820351	-0.821684	-0.106534	31.0953	-0.817782	-7.836564E+10	1.359445E-12	NaN
1152	1.000000	0.202528	7.37633e+06	-57739.1	1055.82	-29736.5	0.000000	0.000000	6.202795	-0.055614	NaN	0.000000	0.001551	0.001673	28.0816	0.086750	0.001932	44.8947	-140.772	-166.768	-0.076254	0.201259	-0.812346	-0.813615	-0.055614	44.8947	-0.811417	-6.423796E+10	8.657422E-13	NaN
1152	1.000000	0.210551	7.37633e+06	-57739.1	1055.82	-29736.5	0.000000	0.000000	6.210817	-0.088111	NaN	0.000000	0.001553	0.001678	28.0813	0.088792	0.001924	46.1544	-142.254	-164.35	-0.000648	0.209221	-0.804322	-0.805653	-0.088111	46.1544	-0.802891	-4.921516E+10	1.790315E-12	NaN
1152	1.000000	0.218525	7.37633e+06	-57739.1	1055.82	-29736.5	0.000000	0.000000	6.218792	-0.090718	NaN	0.000000	0.001513	0.001692	28.081	0.071067	0.002045	34.7496	137.19	-168.531	-0.071576	0.217272	-0.796348	-0.797601	-0.090718	34.7496	-0.794390	-3.773113E+10	2.404339E-12	NaN
1152	1.000000	0.226567	7.37633e+06	-57739.1	1055.82	-29736.5	0.000000	0.000000	6.226835	-0.030100	NaN	0.000000	0.001542	0.001689	28.081	0.081302	0.001964	41.3924	28.7644	-164.804	-0.164913	0.225237	-0.788307	-0.789636	-0.030100	41.3924	-0.787761	-3.066751E+10	9.814940E-13	NaN
1152	1.000000	0.234582	7.37633e+06	-57739.1	1055.82	-29736.5	0.000000	0.000000	6.234847	-0.113418	NaN	0.000000	0.001528	0.001678	28.0813	0.084734	0.001911	44.3375	105.621	-162.521	-0.170970	0.233260	-0.780292	-0.781614	-0.113418	44.3375	-0.778373	-2.286245E+10	4.960883E-12	NaN
1152	1.000000	0.242543	7.37633e+06	-57739.1	1055.82	-29736.5	0.000000	0.000000	6.242809	-0.110467	NaN	0.000000	0.001541	0.001685	28.0808	0.063053	0.001984	31.7795	-97.6528	-160.76	-0.116783	0.241256	-0.772330	-0.773617	-0.110467	31.7795	-0.769723	-1.743967E+10	6.334261E-12	NaN
1152	1.000000	0.250582	7.37633e+06	-57739.1	1055.82	-29736.5	0.000000	0.000000	6.250845	-0.163977	NaN	0.000000	0.001584	0.001661	28.0811	0.039241	0.001984	19.7775	-24.4271	-164.741	-0.192625	0.249303	-0.764292	-0.765570	-0.163977	19.7775	-0.758073	-1.210850E+10	1.354232E-11	NaN
1152	1.000000	0.258555	7.37633e+06	-57739.1	1055.82	-29736.5	0.000000	0.000000	6.258823	-0.049924	NaN	0.000000	0.001579	0.001684	28.0809	0.079488	0.001977	40.2069	-52.7005	-168.096	-0.038213	0.257264	-0.756318	-0.757609	-0.049924	40.2069	-0.755387	-1.113111E+10	4.485084E-12	NaN
1152	1.000000	0.266580	7.37633e+06	-57739.1	1055.82	-29736.5	0.000000	0.000000	6.266845	-0.111521	NaN	0.000000	0.001533	0.001687	28.0807	0.097537	0.002033	47.9715	134.628	-163.722	-0.044406	0.265228	-0.748294	-0.749645	-0.111521	47.9715	-0.746550	-8.438328E+9	1.321605E-11	NaN
1152	1.000000	0.274560	7.37633e+06	-57739.1	1055.82	-29736.5	0.000000	0.000000	6.274828	-0.049420	NaN	0.000000	0.001606	0.001639	28.0807	0.091538	0.002020	45.3192	-30.3674	-163.238	-0.018079	0.273237	-0.740313	-0.741636	-0.049420	45.3192	-0.739495	-6.763699E+9	7.306692E-12	NaN
1152	1.000000	0.282571	7.37633e+06	-57739.1	1055.82	-29736.5	0.000000	0.000000	6.282837	-0.114469	NaN	0.000000	0.001572	0.001714	28.0807	0.065509	0.002041	32.0933	-145.803	-166.049	-0.152300	0.281279	-0.732302	-0.733594	-0.114469	32.0933	-0.729627	-4.962759E+9	2.306565E-11	NaN
1152	1.000000	0.290583	7.37633e+06	-57739.1	1055.82	-29736.5	0.000000	0.000000	6.290851	-0.052833	NaN	0.000000	0.001571	0.001676	28.0809	0.040855	0.002018	20.2465	144.587	-163.143	-0.177575	0.289328	-0.724290	-0.725546	-0.052833	20.2465	-0.722333	-3.947231E+9	1.338477E-11	NaN
1152	1.000000	0.298590	7.37633e+06	-57739.1	1055.82	-29736.5	0.000000	0.000000	6.298855	-0.134793	NaN	0.000000	0.001577	0.001682	28.0809	0.078093	0.002019	38.6815	-174.898	-162.565	-0.130238	0.297267	-0.716283	-0.717606	-0.134793	38.6815	-0.713670	-3.006921E+9	4.482762E-11	NaN
1152	1.000000	0.306577	7.37633e+06	-57739.1	1055.82	-29736.5	0.000000	0.000000	6.306847	-0.008429	NaN	0.000000	0.001547	0.001660	28.0812	0.153339	0.002030	75.5273	-63.8217	-164.374	-0.017181	0.305217	-0.708297	-0.709656	-0.008429	75.5273	-0.708213	-2.533129E+9	3.327543E-12	NaN
1152	1.000000	0.314594	7.37633e+06	-57739.1	1055.82	-29736.5	0.000000	0.000000	6.314859	-0.135729	NaN	0.000000	0.001533	0.001671	28.0807	0.067602	0.001848	36.5735	36.7407	-163.069	-0.106706	0.313233	-0.700279	-0.701641	-0.135729	36.5735	-0.697496	-1.808555E+9	7.504808E-11	NaN
1152	1.000000	0.322593	7.37633e+06	-57739.1	1055.82	-29736.5	0.000000	0.000000	6.322860	-0.069387	NaN	0.000000	0.001515	0.001656	28.0808	0.034283	0.001896	18.0826	-7.645279	-167.074	-0.085736	0.321291	-0.692280	-0.693582	-0.069387	18.0826	-0.689402	-1.401999E+9	4.949129E-11	NaN
1152	1.000000	0.330598	7.37633e+06	-57739.1	1055.82	-29736.5	0.000000	0.000000	6.330863	-0.130751	NaN	0.000000	0.001555	0.001677	28.0808	0.048950	0.001946	25.1485	138.95	-164.927	-0.075615	0.329247	-0.684275	-0.685626	-0.130751	25.1485	-0.680376	-1.055220E+9	1.239089E-10	NaN
1152	1.000000	0.338612	7.37633e+06	-57739.1	1055.82	-29736.5	0.000000	0.000000	6.338878	-0.112944	NaN	0.000000	0.001536	0.001706	28.081	0.109707	0.002125	51.6302	-81.8632	-162.121	-0.111609	0.337296	-0.676261	-0.677577	-0.112944	51.6302	-0.674620	-8.802668E+8	1.283069E-10	NaN
1152	1.000000	0.346570	7.37633e+06	-57739.1	1055.82	-29736.5	0.000000	0.000000	6.346836	-0.101765	NaN	0.000000	0.001534	0.001710	28.0822	0.050831	0.002013	25.2535	93.9403	-166.125	-0.101639	0.345292	-0.668304	-0.669581	-0.101765	25.2535	-0.665281	-6.558362E+8	1.551679E-10	NaN
1152	1.000000	0.354599	7.37633e+06	-57739.1	1055.82	-29736.5	0.000000	0.000000	6.354867	-0.047720	NaN	0.000000	0.001553	0.001707	28.082	0.096826	0.001892	51.1899	81.8917	-167.266	-0.016548	0.353294	-0.660274	-0.661579	-0.047720	51.1899	-0.659575	-5.478350E+8	8.710736E-11	NaN
1152	1.000000	0.362598	7.37633e+06	-57739.1	1055.82	-29736.5	0.000000	0.000000	6.362865	-0.082008	NaN	0.000000	0.001536	0.001715	28.082	0.037273	0.001951	19.1053	-15.334	-166.061	-0.050729	0.361375	-0.652275	-0.653498	-0.082008	19.1053	-0.649056	-3.930888E+8	2.086237E-10	NaN
1152	1.000000	0.370613	7.37633e+06	-57739.1	1055.82	-29736.5	0.000000	0.000000	6.370878	-0.120941	NaN	0.000000	0.001556	0.001655	28.082	0.081640	0.002098	38.9217	-60.4463	-167.884	-0.141904	0.369316	-0.644261	-0.645558	-0.120941	38.9217	-0.641930	-3.138868E+8	3.853023E-10	NaN
1152	1.000000	0.378612	7.37633e+06	-57739.1	1055.82	-29736.5	0.000000	0.000000	6.378876	-0.158435	NaN	0.000000	0.001540	0.001621	28.0822	0.096387	0.001918	50.2518	144.093	-170.124	-0.078209	0.377302	-0.636261	-0.637572	-0.158435	50.2518	-0.633897	-2.435145E+8	6.506168E-10	NaN
1152	1.000000	0.386617	7.37633e+06	-57739.1	1055.82	-29736.5	0.000000	0.000000	6.386885	-0.033684	NaN	0.000000	0.001572	0.001667	28.0821	0.023215	0.001966	11.8051	139.027	-168.279	-0.031977	0.385362	-0.628257	-0.629511	-0.033684	11.8051	-0.626117	-1.904086E+8	1.769013E-10	NaN
1152	1.000000	0.394614	7.37633e+06	-57739.1	1055.82	-29736.5	0.000000	0.000000	6.394881	-0.057138	NaN	0.000000	0.001561	0.001671	28.0818	0.090683	0.002122	42.7378	141.559	-164.168	-0.075634	0.393284	-0.620260	-0.621590	-0.057138	42.7378	-0.619257	-1.532565E+8	3.728237E-10	NaN
1152	1.000000	0.402660	7.37633e+06	-57739.1	1055.82	-29736.5	0.000000	0.000000	6.402928	-0.058306	NaN	0.000000	0.001568	0.001643	28.0821	0.082939	0.001960	42.3092	-97.201	-165.466	-0.081413	0.401307	-0.612213	-0.613567	-0.058306	42.3092	-0.611180	-1.186703E+8	4.913269E-10	NaN
1152	1.000000	0.410631	7.37633e+06	-57739.1	1055.82	-29736.5	0.000000	0.000000	6.410896	-0.110663	NaN	0.000000	0.001550	0.001648	28.0821	0.017946	0.002050	8.756158	-49.4602	-163.992	-0.124399	0.409316	-0.604243	-0.605557	-0.110663	8.756158	-0.594764	-7.052271E+7	1.569178E-9	NaN
1152	1.000000	0.418625	7.37633e+06	-57739.1	1055.82	-29736.5	0.000000	0.000000	6.418894	-0.026475	NaN	0.000000	0.001514	0.001686	28.082	0.158353	0.001887	83.9141	34.2559	-161.447	-0.013624	0.417349	-0.596248	-0.597525	-0.026475	83.9141	-0.596011	-7.336959E+7	3.608501E-10	NaN
1152	1.000000	0.426640	7.37633e+06	-57739.1	1055.82	-29736.5	0.000000	0.000000	6.426907	-0.065840	NaN	0.000000	0.001543	0.001689	28.082	0.086658	0.002087	41.5192	165.845	-163.827	-0.022232	0.425343	-0.588234	-0.589530	-0.065840	41.5192	-0.587044	-5.519655E+7	1.192832E-9	NaN
1152	1.000000	0.434650	7.37633e+06	-57739.1	1055.82	-29736.5	0.000000	0.000000	6.434917	-0.082550	NaN	0.000000	0.001544	0.001678	28.0816	0.057781	0.001961	29.4708	-164.987	-166.26	-0.109185	0.433309	-0.580223	-0.581564	-0.082550	29.4708	-0.578122	-4.157279E+7	1.985663E-9	NaN
1152	1.000000	0.442637	7.37633e+06	-57739.1	1055.82	-29736.5	0.000000	0.000000	6.442906	-0.025238	NaN	0.000000	0.001538	0.001670	28.0827	0.081889	0.002031	40.3115	24.5511	-164.113	0.004440	0.441321	-0.572236	-0.573553	-0.025238	40.3115	-0.571767	-3.396577E+7	7.430373E-10	NaN
1152	1.000000	0.450671	7.37633e+06	-57739.1	1055.82	-29736.5	0.000000	0.000000	6.450938	-0.073988	NaN	0.000000	0.001519	0.001655	28.082	0.085110	0.002074	41.0339	156.18	-165.901	-0.082089	0.449355	-0.564202	-0.565518	-0.073988	41.0339	-0.562850	-2.557367E+7	2.893133E-9	NaN
1152	1.000000	0.458645	7.37633e+06	-57739.1	1055.82	-29736.5	0.000000	0.000000	6.458912	-0.069498	NaN	0.000000	0.001557	0.001728	28.0821	0.101279	0.002153	47.0432	-164.471	-163.213	-0.111490	0.457339	-0.556229	-0.557535	-0.069498	47.0432	-0.555121	-1.999219E+7	3.476271E-9	NaN
1152	1.000000	0.466636	7.37633e+06	-57739.1	1055.82	-29736.5	0.000000	0.000000	6.466902	-0.091038	NaN	0.000000	0.001544	0.001706	28.0821	0.127213	0.002013	63.1892	154.644	-166.748	-0.015505	0.465357	-0.548238	-0.549516	-0.091038	63.1892	-0.547157	-1.550868E+7	5.870123E-9	NaN
1152	1.000000	0.474646	7.37633e+06	-57739.1	1055.82	-29736.5	0.000000	0.000000	6.474911	-0.133552	NaN	0.000000	0.001505	0.001750	28.082	0.009659	0.001867	5.174675	118.461	-166.793	-0.156024	0.473374	-0.540227	-0.541499	-0.133552	5.174675	-0.520870	-6.69421e+06	1.995042E-8	NaN
1152	1.000000	0.482641	7.37633e+06	-57739.1	1055.82	-29736.5	0.000000	0.000000	6.482908	-0.071291	NaN	0.000000	0.001554	0.001691	28.0812	0.020023	0.002046	9.786680	-70.6156	-164.977	-0.005446	0.481375	-0.532232	-0.533498	-0.071291	9.786680	-0.526769	-8.08527e+06	8.817427E-9	NaN
1152	1.000000	0.490670	7.37633e+06	-57739.1	1055.82	-29736.5	0.000000	0.000000	6.490939	-0.030906	NaN	0.000000	0.001523	0.001703	28.0809	0.102112	0.002008	50.8482	144.606	-164.392	-0.051390	0.489391	-0.524204	-0.525482	-0.030906	50.8482	-0.523748	-7.34017e+06	4.210558E-9	NaN
1152	1.000000	0.498647	7.37633e+06	-57739.1	1055.82	-29736.5	0.000000	0.000000	6.498915	-0.048375	NaN	0.000000	0.001524	0.001698	28.0814	0.114871	0.002115	54.3058	-81.1414	-162.923	-0.051929	0.497336	-0.516227	-0.517538	-0.048375	54.3058	-0.515559	-5.64686e+06	8.566723E-9	NaN
1152	1.000000	0.506637	7.37633e+06	-57739.1	1055.82	-29736.5	0.000000	0.000000	6.506905	-0.058688	NaN	0.000000	0.001540	0.001708	28.0809	0.063315	0.002089	30.3132	-4.183845	-164.867	-0.167305	0.505430	-0.508236	-0.509444	-0.058688	30.3132	-0.506784	-4.26196e+06	1.377014E-8	NaN
1152	1.000000	0.514675	7.37633e+06	-57739.1	1055.82	-29736.5	0.000000	0.000000	6.514941	-0.088354	NaN	0.000000	0.001536	0.001679	28.0808	0.087631	0.001979	44.2769	-44.3892	-165.509	-0.090532	0.513344	-0.500199	-0.501529	-0.088354	44.2769	-0.498702	-3.28784e+06	2.687283E-8	NaN
1152	1.000000	0.522712	7.37633e+06	-57739.1	1055.82	-29736.5	0.000000	0.000000	6.522978	-0.105104	NaN	0.000000	0.001533	0.001694	28.0814	0.088022	0.001978	44.4956	114.554	-165.801	-0.066260	0.521371	-0.492161	-0.493502	-0.105104	44.4956	-0.490390	-2.51673e+06	4.176231E-8	NaN
1152	1.000000	0.530687	7.37633e+06	-57739.1	1055.82	-29736.5	0.000000	0.000000	6.530951	-0.130678	NaN	0.000000	0.001559	0.001693	28.081	0.064095	0.001943	32.9832	-109.013	-166.238	-0.102166	0.529346	-0.484187	-0.485527	-0.130678	32.9832	-0.481215	-1.87299e+06	6.976945E-8	NaN
1152	1.000000	0.538672	7.37633e+06	-57739.1	1055.82	-29736.5	0.000000	0.000000	6.538938	-0.104384	NaN	0.000000	0.001521	0.001667	28.0813	0.051488	0.001979	26.0222	112.853	-165.799	-0.062940	0.537380	-0.476202	-0.477493	-0.104384	26.0222	-0.473193	-1.44603e+06	7.218682E-8	NaN
1152	1.000000	0.546676	7.37633e+06	-57739.1	1055.82	-29736.5	0.000000	0.000000	6.546944	-0.046327	NaN	0.000000	0.001538	0.001692	28.0807	0.117917	0.001892	62.3378	-10.6306	-163.053	-0.128413	0.545374	-0.468198	-0.469499	-0.046327	62.3378	-0.467640	-1.20867e+06	3.832863E-8	NaN
1152	1.000000	0.554700	7.37633e+06	-57739.1	1055.82	-29736.5	0.000000	0.000000	6.554966	-0.092996	NaN	0.000000	0.001547	0.001713	28.081	0.096212	0.001979	48.6277	-126.935	-163.341	-0.075313	0.553361	-0.460174	-0.461513	-0.092996	48.6277	-0.458739	-906360	1.026038E-7	NaN
1152	1.000000	0.562699	7.37633e+06	-57739.1	1055.82	-29736.5	0.000000	0.000000	6.562966	-0.073435	NaN	0.000000	0.001552	0.001688	28.0808	0.036871	0.001999	18.4437	-1.118966	-165.408	-0.132049	0.561393	-0.452175	-0.453481	-0.073435	18.4437	-0.449188	-665138	1.104057E-7	NaN
1152	1.000000	0.570739	7.37633e+06	-57739.1	1055.82	-29736.5	0.000000	0.000000	6.571006	-0.066519	NaN	0.000000	0.001547	0.001676	28.0808	0.066790	0.001993	33.5097	-17.8157	-161.903	-0.060921	0.569427	-0.444134	-0.445447	-0.066519	33.5097	-0.442646	-537888	1.236680E-7	NaN
1152	1.000000	0.578693	7.37633e+06	-57739.1	1055.82	-29736.5	0.000000	0.000000	6.578958	-0.130468	NaN	0.000000	0.001586	0.001704	28.081	0.087170	0.001967	44.3267	-94.4044	-165.836	-0.112644	0.577422	-0.436180	-0.437452	-0.130468	44.3267	-0.433973	-405732	3.215610E-7	NaN
1152	1.000000	0.586734	7.37633e+06	-57739.1	1055.82	-29736.5	0.000000	0.000000	6.586999	-0.118102	NaN	0.000000	0.001543	0.001738	28.081	0.046043	0.001996	23.0702	-25.1605	-167.873	-0.089964	0.585364	-0.428140	-0.429510	-0.118102	23.0702	-0.424300	-296053	3.989236E-7	NaN
1152	1.000000	0.594695	7.37633e+06	-57739.1	1055.82	-29736.5	0.000000	0.000000	6.594964	-0.034528	NaN	0.000000	0.001571	0.001763	28.0812	0.042840	0.001953	21.9375	-116.384	-165.01	0.019125	0.593432	-0.420178	-0.421441	-0.034528	21.9375	-0.418998	-249001	1.386668E-7	NaN
1152	1.000000	0.602709	7.37633e+06	-57739.1	1055.82	-29736.5	0.000000	0.000000	6.602975	-0.101515	NaN	0.000000	0.001505	0.001765	28.0808	0.060696	0.002106	28.8144	-84.2375	-166.171	-0.149158	0.601411	-0.412164	-0.413462	-0.101515	28.8144	-0.409522	-182641	5.558173E-7	NaN
1152	1.000000	0.610703	7.37633e+06	-57739.1	1055.82	-29736.5	0.000000	0.000000	6.610968	-0.119246	NaN	0.000000	0.001524	0.001755	28.0808	0.099574	0.002051	48.5451	61.7741	-162.104	-0.132324	0.609413	-0.404170	-0.405460	-0.119246	48.5451	-0.402328	-144273	8.265352E-7	NaN
1152	1.000000	0.618724	7.37633e+06	-57739.1	1055.82	-29736.5	0.000000	0.000000	6.618991	-0.081167	NaN	0.000000	0.001523	0.001731	28.0821	0.083670	0.002019	41.4436	-162.936	-167.741	-0.116988	0.617427	-0.396150	-0.397447	-0.081167	41.4436	-0.394681	-112221	7.232817E-7	NaN
1152	1.000000	0.626700	7.37633e+06	-57739.1	1055.82	-29736.5	0.000000	0.000000	6.626965	-0.124472	NaN	0.000000	0.001532	0.001747	28.0821	0.130769	0.001949	67.1077	-67.8042	-165.528	-0.132371	0.625411	-0.388174	-0.389462	-0.124472	67.1077	-0.386783	-86520.7	1.438639E-6	NaN
1152	1.000000	0.634726	7.37633e+06	-57739.1	1055.82	-29736.5	0.000000	0.000000	6.634995	-0.037198	NaN	0.000000	0.001546	0.001731	28.0823	0.113796	0.001941	58.6279	167.727	-162.082	-0.006968	0.633352	-0.380147	-0.381521	-0.037198	58.6279	-0.379671	-68418.4	5.436866E-7	NaN
1152	1.000000	0.642745	7.37633e+06	-57739.1	1055.82	-29736.5	0.000000	0.000000	6.643013	-0.041891	NaN	0.000000	0.001520	0.001748	28.0819	0.035438	0.001985	17.8509	-160.535	-162.158	-0.081815	0.641411	-0.372129	-0.373462	-0.041891	17.8509	-0.370369	-50284.8	8.330652E-7	NaN
1152	1.000000	0.650754	7.37633e+06	-57739.1	1055.82	-29736.5	0.000000	0.000000	6.651020	-0.098325	NaN	0.000000	0.001546	0.001721	28.0821	0.092839	0.002133	43.5279	-79.0269	-163.761	-0.099611	0.649355	-0.364119	-0.365519	-0.098325	43.5279	-0.362425	-38626.2	2.545551E-6	NaN
1152	1.000000	0.658737	7.37633e+06	-57739.1	1055.82	-29736.5	0.000000	0.000000	6.659004	-0.074119	NaN	0.000000	0.001508	0.001737	28.082	0.053703	0.001904	28.2061	118.245	-167.591	-0.128718	0.657427	-0.356137	-0.357446	-0.074119	28.2061	-0.354166	-29336.7	2.526499E-6	NaN
1152	1.000000	0.666724	7.37633e+06	-57739.1	1055.82	-29736.5	0.000000	0.000000	6.666991	-0.070262	NaN	0.000000	0.001549	0.001741	28.082	0.031556	0.002110	14.9583	175.586	-163.557	-0.082229	0.665440	-0.348150	-0.349433	-0.070262	14.9583	-0.344627	-21326.9	3.294520E-6	NaN
1152	1.000000	0.674738	7.37633e+06	-57739.1	1055.82	-29736.5	0.000000	0.000000	6.675004	-0.091818	NaN	0.000000	0.001572	0.001777	28.0822	0.065083	0.001984	32.7984	-128.527	-167.712	-0.043918	0.673420	-0.340135	-0.341454	-0.091818	32.7984	-0.338036	-17096.5	5.370583E-6	NaN
1152	1.000000	0.682736	7.37633e+06	-57739.1	1055.82	-29736.5	0.000000	0.000000	6.683003	-0.064004	NaN	0.000000	0.001558	0.001774	28.0819	0.068633	0.002060	33.3094	-29.0762	-166.877	-0.094019	0.681463	-0.332137	-0.333410	-0.064004	33.3094	-0.330696	-13355.1	4.792509E-6	NaN
1152	1.000000	0.690741	7.37633e+06	-57739.1	1055.82	-29736.5	0.000000	0.000000	6.691006	-0.131125	NaN	0.000000	0.001530	0.001807	28.0821	0.074208	0.002020	36.735	-101.656	-163.954	-0.009830	0.689442	-0.324132	-0.325431	-0.131125	36.735	-0.321455	-9773.44	1.341651E-5	NaN
1152	1.000000	0.698752	7.37633e+06	-57739.1	1055.82	-29736.5	0.000000	0.000000	6.699019	-0.068603	NaN	0.000000	0.001553	0.001765	28.0819	0.053356	0.001981	26.927	83.5676	-162.6	-0.048362	0.697392	-0.316122	-0.317482	-0.068603	26.927	-0.314211	-7643.65	8.975150E-6	NaN
1152	1.000000	0.706761	7.37633e+06	-57739.1	1055.82	-29736.5	0.000000	0.000000	6.707027	-0.098123	NaN	0.000000	0.001503	0.001787	28.0819	0.052927	0.002029	26.0871	165.237	-170.088	-0.054904	0.705457	-0.308112	-0.309417	-0.098123	26.0871	-0.305291	-5639.99	1.739765E-5	NaN
1152	1.000000	0.714750	7.37633e+06	-57739.1	1055.82	-29736.5	0.000000	0.000000	6.715016	-0.084653	NaN	0.000000	0.001537	0.001803	28.0821	0.025408	0.002109	12.0488	-123.109	-164.452	-0.195982	0.713427	-0.300124	-0.301446	-0.084653	12.0488	-0.294854	-3943.77	2.146491E-5	NaN
1152	1.000000	0.722739	7.37633e+06	-57739.1	1055.82	-29736.5	0.000000	0.000000	6.723004	-0.121700	NaN	0.000000	0.001555	0.001752	28.082	0.083578	0.001938	43.1298	99.832	-167.213	-0.058534	0.721460	-0.292134	-0.293414	-0.121700	43.1298	-0.290018	-3338.68	3.645155E-5	NaN
1152	1.000000	0.730735	7.37633e+06	-57739.1	1055.82	-29736.5	0.000000	0.000000	6.731002	-0.092951	NaN	0.000000	0.001560	0.001684	28.0825	0.028809	0.001942	14.8359	1.754321	-163.75	-0.112131	0.729399	-0.284138	-0.285475	-0.092951	14.8359	-0.279439	-2314.75	4.015602E-5	NaN
1152	1.000000	0.738762	7.37633e+06	-57739.1	1055.82	-29736.5	0.000000	0.000000	6.739031	-0.038088	NaN	0.000000	0.001541	0.001721	28.082	0.074326	0.001942	38.2732	91.0264	-168.95	-0.086060	0.737460	-0.276111	-0.277414	-0.038088	38.2732	-0.275365	-2008.74	1.896107E-5	NaN
1152	1.000000	0.746776	7.37633e+06	-57739.1	1055.82	-29736.5	0.000000	0.000000	6.747044	-0.040165	NaN	0.000000	0.001528	0.001769	28.082	0.056791	0.002000	28.389	-149.379	-166.397	-0.060930	0.745480	-0.268098	-0.269393	-0.040165	28.389	-0.267037	-1501.22	2.675495E-5	NaN
1152	1.000000	0.754787	7.37633e+06	-57739.1	1055.82	-29736.5	0.000000	0.000000	6.755052	-0.105507	NaN	0.000000	0.001569	0.001830	28.0806	0.085907	0.002089	41.1325	132.769	-167.735	-0.033002	0.753467	-0.260087	-0.261406	-0.105507	41.1325	-0.258163	-1098.35	9.606015E-5	NaN
1152	1.000000	0.762761	7.37633e+06	-57739.1	1055.82	-29736.5	0.000000	0.000000	6.763027	-0.093758	NaN	0.000000	0.001555	0.001821	28.0808	0.159749	0.002076	76.9519	-12.3731	-165.915	-0.085460	0.761499	-0.252112	-0.253374	-0.093758	76.9519	-0.251199	-858.013	0.000109	NaN
1152	1.000000	0.770770	7.37633e+06	-57739.1	1055.82	-29736.5	0.000000	0.000000	6.771038	-0.052790	NaN	0.000000	0.001579	0.001802	28.0812	0.038164	0.002071	18.4277	-133.49	-167.024	-0.082513	0.769524	-0.244103	-0.245350	-0.052790	18.4277	-0.241955	-616.671	8.560568E-5	NaN
1152	1.000000	0.778768	7.37633e+06	-57739.1	1055.82	-29736.5	0.000000	0.000000	6.779035	-0.069755	NaN	0.000000	0.001537	0.001783	28.0808	0.088266	0.002003	44.0685	152.13	-163.97	-0.049686	0.777475	-0.236105	-0.237398	-0.069755	44.0685	-0.234918	-478.586	0.000146	NaN
1152	1.000000	0.786783	7.37633e+06	-57739.1	1055.82	-29736.5	0.000000	0.000000	6.787050	-0.064125	NaN	0.000000	0.001535	0.001804	28.0811	0.093666	0.001928	48.5851	50.9618	-168.083	-0.057610	0.785475	-0.228091	-0.229399	-0.064125	48.5851	-0.227101	-360.298	0.000178	NaN
1152	1.000000	0.794798	7.37633e+06	-57739.1	1055.82	-29736.5	0.000000	0.000000	6.795068	-0.021387	NaN	0.000000	0.001493	0.001830	28.0812	0.080657	0.001875	43.0235	-10.4961	-163.795	0.035352	0.793454	-0.220075	-0.221420	-0.021387	43.0235	-0.219702	-274.737	7.784426E-5	NaN
1152	1.000000	0.802807	7.37633e+06	-57739.1	1055.82	-29736.5	0.000000	0.000000	6.803073	-0.085982	NaN	0.000000	0.001576	0.001850	28.0812	0.105418	0.002065	51.0578	120.462	-165.318	-0.071744	0.801483	-0.212067	-0.213391	-0.085982	51.0578	-0.210804	-197.619	0.000435	NaN
1152	1.000000	0.810792	7.37633e+06	-57739.1	1055.82	-29736.5	0.000000	0.000000	6.811057	-0.105417	NaN	0.000000	0.001559	0.001819	28.0812	0.121175	0.001967	61.6055	107.824	-167.536	-0.089883	0.809499	-0.204082	-0.205374	-0.105417	61.6055	-0.202798	-146.417	0.000720	NaN
1152	1.000000	0.818793	7.37633e+06	-57739.1	1055.82	-29736.5	0.000000	0.000000	6.819061	-0.049653	NaN	0.000000	0.001552	0.001827	28.0809	0.118809	0.001980	60.0117	-63.2228	-162.952	-0.043897	0.817507	-0.196080	-0.197367	-0.049653	60.0117	-0.195460	-110.87	0.000448	NaN
1152	1.000000	0.826836	7.37633e+06	-57739.1	1055.82	-29736.5	0.000000	0.000000	6.827104	-0.052079	NaN	0.000000	0.001567	0.001842	28.081	0.005659	0.001942	2.913368	-127.747	-163.994	-0.206842	0.825483	-0.188038	-0.189390	-0.052079	2.913368	-0.174631	-49.3892	0.001054	NaN
1152	1.000000	0.834831	7.37633e+06	-57739.1	1055.82	-29736.5	0.000000	0.000000	6.835097	-0.109258	NaN	0.000000	0.001564	0.001841	28.081	0.120451	0.001964	61.3246	132.337	-166.315	-0.118564	0.833559	-0.180042	-0.181315	-0.109258	61.3246	-0.178706	-57.9988	0.001884	NaN
1152	1.000000	0.842798	7.37633e+06	-57739.1	1055.82	-29736.5	0.000000	0.000000	6.843065	-0.071215	NaN	0.000000	0.001540	0.001821	28.0811	0.094664	0.002058	46.0018	58.4168	-165.012	-0.050622	0.841504	-0.172075	-0.173369	-0.071215	46.0018	-0.170914	-42.6062	0.001671	NaN
1152	1.000000	0.850796	7.37633e+06	-57739.1	1055.82	-29736.5	0.000000	0.000000	6.851062	-0.097829	NaN	0.000000	0.001562	0.001800	28.0808	0.083414	0.001933	43.1443	-103.364	-167.292	-0.120193	0.849538	-0.164077	-0.165335	-0.097829	43.1443	-0.162376	-30.2059	0.003239	NaN
1152	1.000000	0.858822	7.37633e+06	-57739.1	1055.82	-29736.5	0.000000	0.000000	6.859092	-0.005914	NaN	0.000000	0.001562	0.001821	28.081	0.076572	0.002108	36.3204	55.3985	-164.154	-0.024710	0.857512	-0.156051	-0.157362	-0.005914	36.3204	-0.155929	-23.1888	0.000255	NaN
1152	1.000000	0.866801	7.37633e+06	-57739.1	1055.82	-29736.5	0.000000	0.000000	6.867070	-0.044659	NaN	0.000000	0.001570	0.001871	28.0814	0.071295	0.001946	36.6363	169.296	-166.571	-0.022591	0.865482	-0.148072	-0.149391	-0.044659	36.6363	-0.147158	-16.0679	0.002779	NaN
1152	1.000000	0.874803	7.37633e+06	-57739.1	1055.82	-29736.5	0.000000	0.000000	6.875070	-0.094045	NaN	0.000000	0.001532	0.001815	28.081	0.129517	0.001945	66.6016	-167.289	-163.415	-0.068771	0.873445	-0.140070	-0.141428	-0.094045	66.6016	-0.139011	-11.3334	0.008298	NaN
1152	1.000000	0.882834	7.37633e+06	-57739.1	1055.82	-29736.5	0.000000	0.000000	6.883098	-0.153373	NaN	0.000000	0.001512	0.001840	28.0811	0.100973	0.001942	51.9892	-166.978	-166.492	-0.147723	0.881531	-0.132040	-0.133343	-0.153373	51.9892	-0.129827	-7.562225	0.020281	NaN
1152	1.000000	0.890815	7.37633e+06	-57739.1	1055.82	-29736.5	0.000000	0.000000	6.891082	-0.078858	NaN	0.000000	0.001535	0.001802	28.0822	0.062984	0.001935	32.5515	20.3086	-167.568	-0.094320	0.889571	-0.124058	-0.125302	-0.078858	32.5515	-0.122241	-5.359327	0.014714	NaN
1152	1.000000	0.898822	7.37633e+06	-57739.1	1055.82	-29736.5	0.000000	0.000000	6.899089	-0.093546	NaN	0.000000	0.001545	0.001775	28.0822	0.119670	0.001821	65.7028	-8.082487	-162.723	-0.039380	0.897486	-0.116051	-0.117387	-0.093546	65.7028	-0.114983	-3.817315	0.024506	NaN
1152	1.000000	0.906840	7.37633e+06	-57739.1	1055.82	-29736.5	0.000000	0.000000	6.907106	-0.080748	NaN	0.000000	0.001561	0.001796	28.0824	0.080122	0.001931	41.4894	-71.8355	-165.999	-0.117922	0.905530	-0.108034	-0.109343	-0.080748	41.4894	-0.106574	-2.541240	0.031775	NaN
1152	1.000000	0.914841	7.37633e+06	-57739.1	1055.82	-29736.5	0.000000	0.000000	6.915107	-0.098524	NaN	0.000000	0.001551	0.001794	28.0824	0.022038	0.002049	10.7549	-100.494	-167.516	-0.042517	0.913509	-0.100033	-0.101364	-0.098524	10.7549	-0.093162	-1.280305	0.076954	NaN
1152	1.000000	0.922847	7.37633e+06	-57739.1	1055.82	-29736.5	0.000000	0.000000	6.923113	-0.083721	NaN	0.000000	0.001532	0.001830	28.0824	0.030931	0.002036	15.1914	-93.0575	-166.192	-0.027760	0.921525	-0.092027	-0.093349	-0.083721	15.1914	-0.087893	-0.963984	0.086848	NaN
1152	1.000000	0.930847	7.37633e+06	-57739.1	1055.82	-29736.5	0.000000	0.000000	6.931113	-0.097633	NaN	0.000000	0.001554	0.001776	28.0822	0.086239	0.001991	43.3109	-98.9743	-168.392	-0.018332	0.929513	-0.084027	-0.085360	-0.097633	43.3109	-0.082336	-0.707368	0.138022	NaN
1152	1.000000	0.938863	7.37633e+06	-57739.1	1055.82	-29736.5	0.000000	0.000000	6.939128	-0.103364	NaN	0.000000	0.001529	0.001777	28.0821	0.057720	0.002060	28.0207	-37.6166	-168.431	-0.128701	0.937570	-0.076011	-0.077303	-0.103364	28.0207	-0.073244	-0.415735	0.248630	NaN
1152	1.000000	0.946845	7.37633e+06	-57739.1	1055.82	-29736.5	0.000000	0.000000	6.947110	-0.128469	NaN	0.000000	0.001571	0.001775	28.0821	0.082547	0.002017	40.9228	43.9115	-167.973	-0.108104	0.945605	-0.068028	-0.069268	-0.128469	40.9228	-0.065674	-0.260147	0.493834	NaN
1152	1.000000	0.954821	7.37633e+06	-57739.1	1055.82	-29736.5	0.000000	0.000000	6.955089	-0.053433	NaN	0.000000	0.001549	0.001762	28.0817	0.100955	0.002023	49.8963	29.6151	-171.389	-0.070285	0.953522	-0.060052	-0.061351	-0.053433	49.8963	-0.059249	-0.171354	0.311826	NaN
1152	1.000000	0.962895	7.37633e+06	-57739.1	1055.82	-29736.5	0.000000	0.000000	6.963161	-0.079885	NaN	0.000000	0.001554	0.001757	28.0821	0.107329	0.002035	52.7435	163.757	-166.342	-0.049705	0.961550	-0.051979	-0.053323	-0.079885	52.7435	-0.050843	-0.096757	0.825629	NaN
1152	1.000000	0.970860	7.37633e+06	-57739.1	1055.82	-29736.5	0.000000	0.000000	6.971125	-0.137663	NaN	0.000000	0.001550	0.001732	28.082	0.087005	0.002037	42.7081	-53.8369	-166.019	-0.128873	0.969582	-0.044013	-0.045292	-0.137663	42.7081	-0.041595	-0.050573	2.722040	NaN
1152	1.000000	0.978888	7.37633e+06	-57739.1	1055.82	-29736.5	0.000000	0.000000	6.979149	-0.226907	NaN	0.000000	0.001575	0.001742	28.0821	0.135113	0.001987	67.9833	141.276	-165.788	-0.232929	0.977595	-0.035985	-0.037278	-0.226907	67.9833	-0.033482	-0.028912	7.848159	NaN
1152	1.000000	0.986887	7.37633e+06	-57739.1	1055.82	-29736.5	0.000000	0.000000	6.987149	-0.204457	NaN	0.000000	0.001552	0.001747	28.0818	0.063006	0.001932	32.6045	-83.0822	-167.014	-0.218948	0.985608	-0.027986	-0.029265	-0.204457	32.6045	-0.023283	-0.015229	13.4256	NaN
1152	1.000000	0.994876	7.37633e+06	-57739.1	1055.82	-29736.5	0.000000	0.000000	6.995139	-0.164623	NaN	0.000000	0.001574	0.001706	28.0819	0.146021	0.001897	76.9878	143.261	-167.079	-0.231449	0.993575	-0.019997	-0.021298	-0.164623	76.9878	-0.018394	-0.011427	14.4062	NaN
1152	1.000000	1.002872	7.37633e+06	-57739.1	1055.82	-29736.5	0.000000	0.000000	7.003135	-0.188085	NaN	0.000000	0.001564	0.001730	28.0819	0.050390	0.001997	25.2292	-95.0958	-164.735	-0.190296	1.001545	-0.012001	-0.013328	-0.188085	25.2292	-0.006410	-0.004286	43.8882	NaN
1152	1.000000	1.010867	7.37633e+06	-57739.1	1055.82	-29736.5	0.000000	0.000000	7.011134	-0.077737	NaN	0.000000	0.001559	0.001754	28.0819	0.068348	0.002091	32.6817	-16.1684	-170.016	-0.207525	1.009557	-0.004007	-0.005316	-0.077737	32.6817	-0.002223	-0.001593	48.7951	NaN
1152	1.000000	1.018870	7.37633e+06	-57739.1	1055.82	-29736.5	0.000000	0.000000	7.019364	5.439731	NaN	0.000000	0.001557	0.001787	28.082	6.106467	0.001825	3346.88	10.7261	-169.355	4.426079	1.017575	0.003997	0.002702	5.439731	3346.88	0.002778	0.002194	2479.72	65286.8
1152	2.000000	1.023417	7.37633e+06	-57739.1	1055.82	-29736.5	0.000000	0.000000	7.024062	9.109399	NaN	0.000000	0.001571	0.001768	28.0807	10.0921	0.001719	5872.03	9.750098	-174.825	9.243783	1.023196	0.008543	0.008322	9.109399	5872.03	0.007380	0.006412	1420.6	66996.4
1152	2.000000	1.025380	7.37633e+06	-57739.1	1055.82	-29736.5	0.000000	0.000000	7.026157	12.3142	NaN	0.000000	0.001559	0.001782	28.0807	11.9315	0.001687	7072.95	10.671	-176.597	12.2721	1.025132	0.010507	0.010259	12.3142	7072.95	0.009201	0.008307	1482.41	70901.3
1152	2.000000	1.027370	7.37633e+06	-57739.1	1055.82	-29736.5	0.000000	0.000000	7.028370	17.7508	NaN	0.000000	0.001545	0.001788	28.0813	14.7989	0.001769	8365.84	6.190354	-176.46	16.5429	1.027109	0.012497	0.012235	17.7508	8365.84	0.010905	0.010205	1739.42	75661.8
1152	2.000000	1.029385	7.37633e+06	-57739.1	1055.82	-29736.5	0.000000	0.000000	7.030390	17.8797	NaN	0.000000	0.001529	0.001808	28.0807	15.7763	0.001739	9071.25	6.096679	-175.272	18.9905	1.029022	0.014511	0.014148	17.8797	9071.25	0.013033	0.012751	1402.22	73395.4
1152	2.000000	1.031318	7.37633e+06	-57739.1	1055.82	-29736.5	0.000000	0.000000	7.032635	25.4438	NaN	0.000000	0.001472	0.001770	28.0807	18.6671	0.001833	10186.5	3.653771	-174.861	23.7155	1.031002	0.016445	0.016129	25.4438	10186.5	0.014571	0.014718	1728.75	76713.4
1152	2.000000	1.033398	7.37633e+06	-57739.1	1055.82	-29736.5	0.000000	0.000000	7.034713	25.41	NaN	0.000000	0.001514	0.001755	28.0808	20.1746	0.001765	11427.8	7.160772	-179.223	24.8605	1.033111	0.018524	0.018238	25.41	11427.8	0.016857	0.017842	1424.18	78166.1
1152	2.000000	1.035334	7.37633e+06	-57739.1	1055.82	-29736.5	0.000000	0.000000	7.037006	34.061	NaN	0.000000	0.001520	0.001756	28.0809	21.7143	0.001825	11898.4	6.329528	-178.697	33.3716	1.035003	0.020461	0.020129	34.061	11898.4	0.018314	0.019962	1706.33	76942.2
1152	2.000000	1.037310	7.37633e+06	-57739.1	1055.82	-29736.5	0.000000	0.000000	7.039110	37.1721	NaN	0.000000	0.001529	0.001795	28.0811	24.1967	0.001859	13017.2	7.152675	179.878	36.6345	1.037066	0.022437	0.022193	37.1721	13017.2	0.020295	0.023008	1615.58	78405.6
1152	2.000000	1.039269	7.37633e+06	-57739.1	1055.82	-29736.5	0.000000	0.000000	7.041301	42.8212	NaN	0.000000	0.001514	0.001700	28.0809	24.5072	0.001696	14446.5	2.572122	-177.368	40.1209	1.039036	0.024396	0.024162	42.8212	14446.5	0.022173	0.026072	1642.42	81742.6
1152	2.000000	1.041306	7.37633e+06	-57739.1	1055.82	-29736.5	0.000000	0.000000	7.043549	47.9698	NaN	0.000000	0.001544	0.001733	28.0807	26.8201	0.001650	16256	1.501263	-176.545	46.9094	1.040968	0.026432	0.026095	47.9698	16256	0.024219	0.029610	1620.05	86311.2
1152	2.000000	1.043380	7.37633e+06	-57739.1	1055.82	-29736.5	0.000000	0.000000	7.045909	54.878	NaN	0.000000	0.001522	0.001753	28.0808	30.1603	0.001855	16259.4	5.594255	-179.736	55.617	1.043036	0.028507	0.028163	54.878	16259.4	0.025976	0.032815	1672.36	82005.5
1152	2.000000	1.045303	7.37633e+06	-57739.1	1055.82	-29736.5	0.000000	0.000000	7.048049	60.1729	NaN	0.000000	0.001541	0.001810	28.0807	32.7055	0.001885	17354.4	7.127000	177.497	59.6593	1.045039	0.030430	0.030165	60.1729	17354.4	0.027829	0.036364	1654.72	83146.7
1152	2.000000	1.047266	7.37633e+06	-57739.1	1055.82	-29736.5	0.000000	0.000000	7.050426	70.2452	NaN	0.000000	0.001536	0.001763	28.0824	33.7183	0.001900	17749	5.311846	179.432	68.4662	1.046958	0.032392	0.032085	70.2452	17749	0.029424	0.039558	1775.74	81532.2
1152	2.000000	1.049294	7.37633e+06	-57739.1	1055.82	-29736.5	0.000000	0.000000	7.052690	75.9725	NaN	0.000000	0.001539	0.001752	28.0809	34.8476	0.001757	19836.2	4.754431	177.952	73.785	1.049050	0.034421	0.034177	75.9725	19836.2	0.031548	0.044014	1726.1	86384.6
1152	2.000000	1.051360	7.37633e+06	-57739.1	1055.82	-29736.5	0.000000	0.000000	7.055087	84.0241	NaN	0.000000	0.001551	0.001783	28.0808	37.4882	0.001737	21585.7	7.680385	175.025	85.5536	1.050920	0.036486	0.036046	84.0241	21585.7	0.033567	0.048461	1733.83	89586.1
1152	2.000000	1.053374	7.37633e+06	-57739.1	1055.82	-29736.5	0.000000	0.000000	7.057485	93.353	NaN	0.000000	0.001570	0.001766	28.0809	39.5306	0.001824	21677.4	5.596142	176.759	92.7618	1.052913	0.038501	0.038039	93.353	21677.4	0.035271	0.052379	1782.27	86537
1152	2.000000	1.055308	7.37633e+06	-57739.1	1055.82	-29736.5	0.000000	0.000000	7.059833	103.402	NaN	0.000000	0.001501	0.001722	28.0808	41.1862	0.001779	23153.5	7.756611	174.159	103.94	1.055059	0.040435	0.040186	103.402	23153.5	0.037085	0.056713	1823.26	88827.7
1152	2.000000	1.057276	7.37633e+06	-57739.1	1055.82	-29736.5	0.000000	0.000000	7.062042	109.266	NaN	0.000000	0.001506	0.001779	28.0832	44.023	0.001798	24480.8	6.072629	174.399	107.811	1.057058	0.042403	0.042184	109.266	24480.8	0.039055	0.061609	1773.52	90110.6
1152	2.000000	1.059245	7.37633e+06	-57739.1	1055.82	-29736.5	0.000000	0.000000	7.064593	123.398	NaN	0.000000	0.001512	0.001744	28.0823	45.0156	0.001751	25707.1	8.283856	172.65	119.819	1.058929	0.044372	0.044056	123.398	25707.1	0.040772	0.066039	1868.57	91396.1
1152	2.000000	1.061232	7.37633e+06	-57739.1	1055.82	-29736.5	0.000000	0.000000	7.066985	133.255	NaN	0.000000	0.001526	0.001756	28.0819	46.8923	0.001662	28221.9	4.442820	175.735	130.115	1.060897	0.046358	0.046024	133.255	28221.9	0.042817	0.071511	1863.42	96421.3
1152	2.000000	1.063307	7.37633e+06	-57739.1	1055.82	-29736.5	0.000000	0.000000	7.069282	138.654	NaN	0.000000	0.001567	0.001765	28.0823	49.1817	0.001715	28685.5	5.663650	174.664	136.252	1.062875	0.048433	0.048002	138.654	28685.5	0.044808	0.077043	1799.7	94420.9
1152	2.000000	1.065254	7.37633e+06	-57739.1	1055.82	-29736.5	0.000000	0.000000	7.071820	153.036	NaN	0.000000	0.001551	0.001757	28.082	51.3856	0.001689	30414.7	6.045617	173.462	149.25	1.064818	0.050380	0.049945	153.036	30414.7	0.046606	0.082213	1861.45	96913.9
1152	2.000000	1.067209	7.37633e+06	-57739.1	1055.82	-29736.5	0.000000	0.000000	7.074175	162.723	NaN	0.000000	0.001521	0.001757	28.0823	54.1011	0.001786	30286	3.872879	175.282	160.057	1.066991	0.052336	0.052118	162.723	30286	0.048306	0.087250	1865.01	93676.7
1152	2.000000	1.069280	7.37633e+06	-57739.1	1055.82	-29736.5	0.000000	0.000000	7.076919	179.104	NaN	0.000000	0.001549	0.001765	28.0823	55.4055	0.001754	31584	4.610304	174.35	178.868	1.068924	0.054406	0.054051	179.104	31584	0.050153	0.092887	1928.19	94680.9
1152	2.000000	1.071331	7.37633e+06	-57739.1	1055.82	-29736.5	0.000000	0.000000	7.079241	185.672	NaN	0.000000	0.001486	0.001776	28.082	59.2129	0.001933	30635.5	5.795096	174.019	188.466	1.070992	0.056458	0.056119	185.672	30635.5	0.051912	0.098416	1886.61	89220.8
1152	2.000000	1.073310	7.37633e+06	-57739.1	1055.82	-29736.5	0.000000	0.000000	7.081840	200.764	NaN	0.000000	0.001495	0.001777	28.0823	60.3357	0.001777	33954.1	4.714244	173.519	200.834	1.072960	0.058436	0.058087	200.764	33954.1	0.054002	0.105183	1908.72	95652
1152	2.000000	1.075255	7.37633e+06	-57739.1	1055.82	-29736.5	0.000000	0.000000	7.084454	217.015	NaN	0.000000	0.001518	0.001729	28.0822	61.4093	0.001716	35796.6	7.703698	170.243	215.421	1.075051	0.060382	0.060178	217.015	35796.6	0.055835	0.111298	1949.85	98032.8
1152	2.000000	1.077269	7.37633e+06	-57739.1	1055.82	-29736.5	0.000000	0.000000	7.087082	231.933	NaN	0.000000	0.001516	0.001777	28.0823	64.9099	0.001946	33361.9	5.465091	173.39	230.943	1.076935	0.062396	0.062062	231.933	33361.9	0.057182	0.115896	2001.21	89534.3
1152	2.000000	1.079271	7.37633e+06	-57739.1	1055.82	-29736.5	0.000000	0.000000	7.089906	251.917	NaN	0.000000	0.001537	0.001746	28.0823	65.481	0.001896	34528.6	6.377604	172.28	251.694	1.078902	0.064398	0.064029	251.917	34528.6	0.058926	0.121985	2065.16	90323.3
1152	2.000000	1.081196	7.37633e+06	-57739.1	1055.82	-29736.5	0.000000	0.000000	7.092689	272.75	NaN	0.000000	0.001522	0.001785	28.0822	66.853	0.001785	37461.9	0.601811	177.391	267.844	1.080818	0.066323	0.065945	272.75	37461.9	0.060862	0.128919	2115.68	95324.7
1152	2.000000	1.083277	7.37633e+06	-57739.1	1055.82	-29736.5	0.000000	0.000000	7.095053	279.644	NaN	0.000000	0.001514	0.001797	28.0828	70.0989	0.001801	38925.6	6.690593	171.026	277.911	1.082943	0.068404	0.068070	279.644	38925.6	0.063016	0.136845	2043.51	96138
1152	2.000000	1.085230	7.37633e+06	-57739.1	1055.82	-29736.5	0.000000	0.000000	7.097865	300.51	NaN	0.000000	0.001533	0.001816	28.0822	71.2866	0.001778	40099.7	4.617313	172.774	298.175	1.084850	0.070357	0.069977	300.51	40099.7	0.064737	0.143339	2096.5	96768.2
1152	2.000000	1.087306	7.37633e+06	-57739.1	1055.82	-29736.5	0.000000	0.000000	7.099576	291.646	NaN	0.000000	0.001560	0.001765	28.0824	74.7345	0.001859	40191.1	3.044898	174.009	290.991	1.087167	0.072432	0.072294	291.646	40191.1	0.066990	0.152059	1917.98	94166.6
1152	2.000000	1.089183	7.37633e+06	-57739.1	1055.82	-29736.5	0.000000	0.000000	7.102775	323.786	NaN	0.000000	0.001578	0.001766	28.0822	74.8196	0.001818	41163.9	2.024328	174.826	318.384	1.088884	0.074309	0.074010	323.786	41163.9	0.068410	0.157680	2053.44	94711.3
1152	2.000000	1.091169	7.37633e+06	-57739.1	1055.82	-29736.5	0.000000	0.000000	7.105534	342.55	NaN	0.000000	0.001565	0.001755	28.0808	79.4476	0.001942	40899.7	7.013057	170.146	338.162	1.090879	0.076296	0.076006	342.55	40899.7	0.070014	0.164145	2086.87	92231.3
1152	2.000000	1.093210	7.37633e+06	-57739.1	1055.82	-29736.5	0.000000	0.000000	7.108512	365.321	NaN	0.000000	0.001550	0.001741	28.0813	80.1791	0.001884	42552.8	7.051088	169.975	362.123	1.092915	0.078337	0.078042	365.321	42552.8	0.071898	0.171894	2125.27	93771.4
1152	2.000000	1.095264	7.37633e+06	-57739.1	1055.82	-29736.5	0.000000	0.000000	7.111005	375.998	NaN	0.000000	0.001545	0.001738	28.0808	80.5561	0.001824	44163.9	5.366177	171.103	375.137	1.094905	0.080391	0.080032	375.998	44163.9	0.074006	0.180763	2080.05	94904.2
1152	2.000000	1.097257	7.37633e+06	-57739.1	1055.82	-29736.5	0.000000	0.000000	7.113609	390.859	NaN	0.000000	0.001553	0.001737	28.0821	83.4029	0.001766	47240.3	6.774666	168.648	390.134	1.096984	0.082384	0.082111	390.859	47240.3	0.076178	0.190126	2055.79	98984.1
1152	2.000000	1.099244	7.37633e+06	-57739.1	1055.82	-29736.5	0.000000	0.000000	7.116611	415.51	NaN	0.000000	0.001533	0.001734	28.0809	83.7722	0.001859	45051.9	3.574989	172.736	416.671	1.098917	0.084371	0.084044	415.51	45051.9	0.077453	0.195722	2122.95	93039.1
1152	2.000000	1.101247	7.37633e+06	-57739.1	1055.82	-29736.5	0.000000	0.000000	7.119209	429.982	NaN	0.000000	0.001564	0.001727	28.0807	85.9675	0.001736	49534	1.595958	174.767	428.502	1.100884	0.086374	0.086010	429.982	49534	0.079863	0.206509	2082.15	99588.1
1152	2.000000	1.103141	7.37633e+06	-57739.1	1055.82	-29736.5	0.000000	0.000000	7.122087	453.894	NaN	0.000000	0.001560	0.001720	28.0809	88.7201	0.001878	47233	2.829620	173.827	446.965	1.102872	0.088268	0.087999	453.894	47233	0.081060	0.211967	2141.34	93731.2
1152	2.000000	1.105095	7.37633e+06	-57739.1	1055.82	-29736.5	0.000000	0.000000	7.124648	468.637	NaN	0.000000	0.001575	0.001752	28.0807	90.0345	0.001768	50922.9	5.160403	170.081	460.032	1.104795	0.090222	0.089921	468.637	50922.9	0.083320	0.222451	2106.7	98643.6
1152	2.000000	1.107209	7.37633e+06	-57739.1	1055.82	-29736.5	0.000000	0.000000	7.127368	483.396	NaN	0.000000	0.001555	0.001753	28.081	93.3943	0.001803	51802	2.122520	173.119	480.904	1.106955	0.092335	0.092082	483.396	51802	0.085337	0.232010	2083.52	98257.7
1152	2.000000	1.109265	7.37633e+06	-57739.1	1055.82	-29736.5	0.000000	0.000000	7.130513	509.847	NaN	0.000000	0.001571	0.001757	28.081	94.3118	0.001744	54089.5	5.897871	168.852	510.406	1.108801	0.094392	0.093928	509.847	54089.5	0.087322	0.241605	2110.25	100539
1152	2.000000	1.111325	7.37633e+06	-57739.1	1055.82	-29736.5	0.000000	0.000000	7.133033	521.009	NaN	0.000000	0.001580	0.001767	28.0808	97.1769	0.001841	52795.4	4.296825	170.893	524.931	1.110991	0.096452	0.096117	521.009	52795.4	0.089051	0.250103	2083.18	96451.7
1152	2.000000	1.113297	7.37633e+06	-57739.1	1055.82	-29736.5	0.000000	0.000000	7.136114	547.979	NaN	0.000000	0.001535	0.001788	28.081	98.394	0.001791	54937.3	5.293348	170.108	548.208	1.112827	0.098424	0.097954	547.979	54937.3	0.090943	0.259565	2111.14	98518.3
1152	2.000000	1.115233	7.37633e+06	-57739.1	1055.82	-29736.5	0.000000	0.000000	7.138858	567.61	NaN	0.000000	0.001546	0.001792	28.0808	99.8804	0.001812	55130.9	7.912774	167.409	566.566	1.114741	0.100360	0.099867	567.61	55130.9	0.092638	0.268181	2116.52	97264.4
1152	2.000000	1.117205	7.37633e+06	-57739.1	1055.82	-29736.5	0.000000	0.000000	7.141770	590.442	NaN	0.000000	0.001576	0.001766	28.081	102.227	0.001886	54205.7	4.721080	171	588.636	1.116766	0.102332	0.101893	590.442	54205.7	0.094163	0.276041	2138.96	94260.8
1152	2.000000	1.119119	7.37633e+06	-57739.1	1055.82	-29736.5	0.000000	0.000000	7.144569	611.972	NaN	0.000000	0.001608	0.001711	28.0808	103.293	0.001923	53705.2	6.242522	169.135	605.05	1.118780	0.104246	0.103907	611.972	53705.2	0.095700	0.284074	2154.27	92060.6
1152	2.000000	1.120641	7.37633e+06	-57739.1	1055.82	-29736.5	0.000000	0.000000	7.146452	620.751	NaN	0.000000	0.001625	0.001738	28.081	104.156	0.001864	55878.8	1.927093	-7.437034	614.815	1.120373	0.105768	0.105500	620.751	55878.8	0.097436	0.293278	2116.59	94271.4