File: remote_trans/data/nanoindenter/0828-1/data/Data_2025-08-06,11h17m57s/2025-07-22_16-23-58_1_47.txt
2025-07-22, 16:23:58, 1
Index	Phase	Displacement	Time	Pos X	Pos Y	Pos Z	Rot A	Rot B	Piezo Z	Force A	Force B	Gripper	Voltage A	Voltage B	Temperature	Amplitude force	Amplitude pos	Stiffness	Phase shift	Phase excitation	Force A raw	Displacement raw	HMax	HMax raw	Real Force	Real Stiffness	Contact Depth	Area	Hardness	Reduced Mod.
[#]	[#]	[um]	[s]	[um]	[um]	[um]	[m°]	[m°]	[um]	[uN]	[uN]	[V]	[V]	[V]	[°C]	[uN]	[um]	[N/m]	[°]	[°]	[uN]	[um]	[um]	[um]	[uN]	[N/m]	[um]	[um^2]	[MPa]	[MPa]
47	1.000000	0.002462	7.3655e+06	-40989.1	955.819	-29788.4	0.000000	0.000000	6.002798	-0.026993	NaN	0.000000	0.001638	0.001589	28.1285	0.022495	0.001019	22.0816	-92.0657	-163.738	-0.070304	0.001178	-1.115389	-1.116673	-0.026993	22.0816	-1.114472	-7.839672E+14	3.443177E-17	NaN
47	1.000000	0.012543	7.3655e+06	-40989.1	955.818	-29788.4	0.000000	0.000000	6.012877	-0.087060	NaN	0.000000	0.001602	0.001636	28.089	0.064322	0.001294	49.7082	148.138	20.6593	-0.035581	0.011121	-1.105308	-1.106730	-0.087060	49.7082	-1.103994	-5.671311E+14	1.535093E-16	NaN
47	1.000000	0.022456	7.3655e+06	-40989.1	955.818	-29788.4	0.000000	0.000000	6.022794	0.021061	NaN	0.000000	0.001628	0.001634	28.0815	0.056991	0.001805	31.5811	154.208	-167.806	-0.062437	0.021080	-1.095395	-1.096771	0.021061	31.5811	-1.095895	-4.415312E+14	-4.770103E-17	NaN
47	1.000000	0.032413	7.3655e+06	-40989.1	955.818	-29788.4	0.000000	0.000000	6.032751	0.027547	NaN	0.000000	0.001625	0.001651	28.1078	0.045036	0.001971	22.8538	-119.456	13.7491	0.014121	0.031134	-1.085438	-1.086717	0.027547	22.8538	-1.086342	-3.286206E+14	-8.382641E-17	NaN
47	1.000000	0.042406	7.3655e+06	-40989.1	955.818	-29788.4	0.000000	0.000000	6.042743	0.022795	NaN	0.000000	0.001617	0.001622	28.127	0.096881	0.001871	51.781	112.332	-165.568	-0.039937	0.041094	-1.075446	-1.076757	0.022795	51.781	-1.075776	-2.370170E+14	-9.617457E-17	NaN
47	1.000000	0.052435	7.3655e+06	-40989.1	955.817	-29788.4	0.000000	0.000000	6.052775	0.074518	NaN	0.000000	0.001634	0.001628	28.0876	0.060084	0.001922	31.2642	-46.7108	15.4727	0.014038	0.051062	-1.065416	-1.066789	0.074518	31.2642	-1.067204	-1.818122E+14	-4.098604E-16	NaN
47	1.000000	0.062416	7.3655e+06	-40989.1	955.819	-29788.4	0.000000	0.000000	6.062752	-0.030709	NaN	0.000000	0.001634	0.001602	28.0795	0.079092	0.001913	41.3466	-14.4075	-167.184	-0.063568	0.061130	-1.055435	-1.056721	-0.030709	41.3466	-1.054878	-1.241591E+14	2.473357E-16	NaN
47	1.000000	0.072409	7.3655e+06	-40989.1	955.818	-29788.4	0.000000	0.000000	6.072744	-0.047728	NaN	0.000000	0.001580	0.001577	28.1076	0.102363	0.002047	50.0131	-115.227	13.9338	0.016855	0.071070	-1.045442	-1.046781	-0.047728	50.0131	-1.044727	-9.068198E+13	5.263264E-16	NaN
47	1.000000	0.082441	7.3655e+06	-40989.1	955.818	-29788.4	0.000000	0.000000	6.082775	-0.050680	NaN	0.000000	0.001603	0.001600	28.1294	0.053055	0.001943	27.3108	-105.84	-167.237	-0.067026	0.081091	-1.035411	-1.036760	-0.050680	27.3108	-1.034019	-6.509284E+13	7.785769E-16	NaN
47	1.000000	0.092421	7.3655e+06	-40989.1	955.819	-29788.4	0.000000	0.000000	6.092757	-0.021437	NaN	0.000000	0.001581	0.001630	28.0901	0.066075	0.001957	33.7626	81.6091	13.6742	-0.057307	0.091060	-1.025430	-1.026791	-0.021437	33.7626	-1.024954	-4.915864E+13	4.360714E-16	NaN
47	1.000000	0.102419	7.3655e+06	-40989.1	955.819	-29788.4	0.000000	0.000000	6.102756	0.010741	NaN	0.000000	0.001544	0.001596	28.0815	0.131491	0.002015	65.2664	98.4502	-166.98	0.071761	0.101051	-1.015433	-1.016800	0.010741	65.2664	-1.015556	-3.674133E+13	-2.923344E-16	NaN
47	1.000000	0.112473	7.3655e+06	-40989.1	955.818	-29788.4	0.000000	0.000000	6.112809	-0.019456	NaN	0.000000	0.001577	0.001581	28.1082	0.104244	0.001965	53.0395	-115.509	11.5296	-0.016662	0.111005	-1.005378	-1.006846	-0.019456	53.0395	-1.005103	-2.657475E+13	7.321378E-16	NaN
47	1.000000	0.122422	7.3655e+06	-40989.1	955.818	-29788.4	0.000000	0.000000	6.122761	0.037452	NaN	0.000000	0.001594	0.001581	28.1286	0.023287	0.001958	11.8932	174.435	-166.32	-0.009084	0.121123	-0.995429	-0.996728	0.037452	11.8932	-0.997790	-2.118459E+13	-1.767872E-15	NaN
47	1.000000	0.132449	7.3655e+06	-40989.1	955.818	-29788.4	0.000000	0.000000	6.132785	-0.012839	NaN	0.000000	0.001586	0.001587	28.0888	0.134663	0.001952	68.9722	-78.5375	11.6968	0.067023	0.131108	-0.985403	-0.986743	-0.012839	68.9722	-0.985263	-1.436509E+13	8.937853E-16	NaN
47	1.000000	0.142435	7.3655e+06	-40989.1	955.818	-29788.4	0.000000	0.000000	6.142772	0.003314	NaN	0.000000	0.001613	0.001598	28.0796	0.045919	0.002081	22.065	-28.3288	-164.292	0.120016	0.141124	-0.975416	-0.976727	0.003314	22.065	-0.975529	-1.062104E+13	-3.120634E-16	NaN
47	1.000000	0.152470	7.3655e+06	-40989.1	955.819	-29788.4	0.000000	0.000000	6.152809	0.047379	NaN	0.000000	0.001576	0.001601	28.1084	0.057978	0.002191	26.4584	50.9439	14.0593	0.037542	0.151064	-0.965381	-0.966787	0.047379	26.4584	-0.966724	-8.081771E+12	-5.862506E-15	NaN
47	1.000000	0.162467	7.3655e+06	-40989.1	955.819	-29788.4	0.000000	0.000000	6.162804	-0.008655	NaN	0.000000	0.001607	0.001619	28.1296	0.058651	0.001930	30.3887	168.598	-163.488	-0.010837	0.161123	-0.955384	-0.956729	-0.008655	30.3887	-0.955170	-5.646147E+12	1.532846E-15	NaN
47	1.000000	0.172464	7.3655e+06	-40989.1	955.818	-29788.4	0.000000	0.000000	6.172801	-0.004732	NaN	0.000000	0.001597	0.001606	28.0909	0.044370	0.001982	22.3824	98.8529	14.5092	0.005883	0.171030	-0.945387	-0.946821	-0.004732	22.3824	-0.945229	-4.146436E+12	1.141341E-15	NaN
47	1.000000	0.182472	7.3655e+06	-40989.1	955.818	-29788.4	0.000000	0.000000	6.182809	-0.003741	NaN	0.000000	0.001591	0.001603	28.0816	0.063493	0.001765	35.9832	-179.492	-167.345	-0.048279	0.181145	-0.935379	-0.936706	-0.003741	35.9832	-0.935301	-3.046066E+12	1.228095E-15	NaN
47	1.000000	0.192479	7.3655e+06	-40989.1	955.818	-29788.4	0.000000	0.000000	6.192813	-0.085513	NaN	0.000000	0.001597	0.001598	28.1075	0.134184	0.002054	65.3404	-141.087	10.2136	0.033398	0.191128	-0.925372	-0.926723	-0.085513	65.3404	-0.924391	-2.170104E+12	3.940526E-14	NaN
47	1.000000	0.202468	7.3655e+06	-40989.1	955.819	-29788.4	0.000000	0.000000	6.202803	-0.029856	NaN	0.000000	0.001578	0.001573	28.1288	0.036976	0.002060	17.9485	86.5816	-166.57	0.023995	0.201133	-0.915384	-0.916719	-0.029856	17.9485	-0.914136	-1.577694E+12	1.892361E-14	NaN
47	1.000000	0.212469	7.3655e+06	-40989.1	955.818	-29788.4	0.000000	0.000000	6.212806	-0.022161	NaN	0.000000	0.001608	0.001586	28.0893	0.008567	0.002061	4.157212	-88.3009	9.056219	-0.095661	0.211104	-0.905382	-0.906747	-0.022161	4.157212	-0.901384	-1.061116E+12	2.088424E-14	NaN
47	1.000000	0.222509	7.3655e+06	-40989.1	955.817	-29788.4	0.000000	0.000000	6.222845	-0.025702	NaN	0.000000	0.001569	0.001636	28.0805	0.094913	0.002096	45.2776	116.058	-166.094	0.009285	0.221214	-0.895342	-0.896638	-0.025702	45.2776	-0.894916	-8.676955E+11	2.962063E-14	NaN
47	1.000000	0.232502	7.3655e+06	-40989.1	955.819	-29788.4	0.000000	0.000000	6.232838	-0.031089	NaN	0.000000	0.001605	0.001610	28.107	0.078127	0.002136	36.5691	-140.266	12.4246	-0.048904	0.231141	-0.885349	-0.886710	-0.031089	36.5691	-0.884712	-6.315689E+11	4.922451E-14	NaN
47	1.000000	0.242490	7.3655e+06	-40989.1	955.818	-29788.4	0.000000	0.000000	6.242826	-0.026404	NaN	0.000000	0.001622	0.001640	28.129	0.033588	0.002060	16.3012	-92.1755	-162.906	-0.063611	0.241170	-0.875361	-0.876681	-0.026404	16.3012	-0.874146	-4.545015E+11	5.809391E-14	NaN
47	1.000000	0.252533	7.3655e+06	-40989.1	955.818	-29788.4	0.000000	0.000000	6.252869	-0.013733	NaN	0.000000	0.001599	0.001601	28.0896	0.056146	0.002028	27.6824	120.853	17.6558	0.062554	0.251170	-0.865318	-0.866681	-0.013733	27.6824	-0.864946	-3.412412E+11	4.024354E-14	NaN
47	1.000000	0.262512	7.3655e+06	-40989.1	955.818	-29788.4	0.000000	0.000000	6.262847	-0.047492	NaN	0.000000	0.001593	0.001600	28.0808	0.128209	0.001901	67.4597	151.259	-163.798	0.038034	0.261200	-0.855339	-0.856651	-0.047492	67.4597	-0.854811	-2.488135E+11	1.908738E-13	NaN
47	1.000000	0.272516	7.3655e+06	-40989.1	955.818	-29788.4	0.000000	0.000000	6.272852	-0.025705	NaN	0.000000	0.001582	0.001599	28.1057	0.026785	0.001882	14.2332	-99.3734	13.0289	0.035901	0.271194	-0.845335	-0.846657	-0.025705	14.2332	-0.843981	-1.775071E+11	1.448108E-13	NaN
47	1.000000	0.282511	7.3655e+06	-40989.1	955.819	-29788.4	0.000000	0.000000	6.282847	-0.039181	NaN	0.000000	0.001605	0.001644	28.1276	0.057125	0.002068	27.6285	127.705	-168.34	-0.084607	0.281229	-0.835340	-0.836622	-0.039181	27.6285	-0.834276	-1.311416E+11	2.987660E-13	NaN
47	1.000000	0.292537	7.3655e+06	-40989.1	955.818	-29788.4	0.000000	0.000000	6.292874	-0.000911	NaN	0.000000	0.001585	0.001591	28.0878	0.048969	0.001956	25.0363	-48.742	16.2071	-0.064843	0.291185	-0.825314	-0.826666	-0.000911	25.0363	-0.825287	-9.905837E+10	9.198359E-15	NaN
47	1.000000	0.302516	7.3655e+06	-40989.1	955.817	-29788.4	0.000000	0.000000	6.302854	0.022052	NaN	0.000000	0.001602	0.001569	28.0812	0.031131	0.001998	15.5825	19.8342	-169.112	-0.037946	0.301228	-0.815335	-0.816623	0.022052	15.5825	-0.816397	-7.504898E+10	-2.938345E-13	NaN
47	1.000000	0.312526	7.3655e+06	-40989.1	955.818	-29788.4	0.000000	0.000000	6.312865	0.029536	NaN	0.000000	0.001599	0.001606	28.1068	0.040341	0.001942	20.7716	-153.309	12.2616	0.017846	0.311187	-0.805325	-0.806664	0.029536	20.7716	-0.806391	-5.490405E+10	-5.379572E-13	NaN
47	1.000000	0.322520	7.3655e+06	-40989.1	955.818	-29788.4	0.000000	0.000000	6.322857	0.006385	NaN	0.000000	0.001594	0.001593	28.1289	0.083755	0.002112	39.6619	-111.639	-165.282	-0.015013	0.321197	-0.795331	-0.796654	0.006385	39.6619	-0.795452	-3.900475E+10	-1.636897E-13	NaN
47	1.000000	0.332537	7.3655e+06	-40989.1	955.818	-29788.4	0.000000	0.000000	6.332870	-0.096560	NaN	0.000000	0.001618	0.001583	28.0891	0.043390	0.002187	19.8371	-167.443	15.0446	-0.045019	0.331236	-0.785314	-0.786615	-0.096560	19.8371	-0.781663	-2.534153E+10	3.810336E-12	NaN
47	1.000000	0.342545	7.3655e+06	-40989.1	955.818	-29788.4	0.000000	0.000000	6.342882	-0.006282	NaN	0.000000	0.001607	0.001603	28.0814	0.054478	0.001986	27.4341	-37.6962	-166.213	-0.051175	0.341220	-0.775306	-0.776631	-0.006282	27.4341	-0.775134	-2.065868E+10	3.040866E-13	NaN
47	1.000000	0.352550	7.3655e+06	-40989.1	955.818	-29788.4	0.000000	0.000000	6.352888	0.017441	NaN	0.000000	0.001631	0.001619	28.1068	0.067313	0.002085	32.2782	-72.2881	16.2915	-0.024999	0.351203	-0.765301	-0.766648	0.017441	32.2782	-0.765706	-1.537856E+10	-1.134104E-12	NaN
47	1.000000	0.362539	7.3655e+06	-40989.1	955.818	-29788.4	0.000000	0.000000	6.362874	-0.058059	NaN	0.000000	0.001577	0.001611	28.1291	0.065580	0.001964	33.3888	-32.4142	-165.249	-0.090783	0.361177	-0.755312	-0.756675	-0.058059	33.3888	-0.754008	-1.066026E+10	5.446312E-12	NaN
47	1.000000	0.372548	7.3655e+06	-40989.1	955.818	-29788.4	0.000000	0.000000	6.372889	0.078635	NaN	0.000000	0.001591	0.001612	28.0902	0.112516	0.001994	56.4411	78.7039	14.3207	0.081150	0.371204	-0.745303	-0.746647	0.078635	56.4411	-0.746348	-8.384877E+9	-9.378191E-12	NaN
47	1.000000	0.382553	7.3655e+06	-40989.1	955.817	-29788.4	0.000000	0.000000	6.382888	-0.040696	NaN	0.000000	0.001575	0.001624	28.08	0.043975	0.002029	21.6744	-43.5399	-168.911	0.057638	0.381245	-0.735298	-0.736606	-0.040696	21.6744	-0.733890	-5.673057E+9	7.173498E-12	NaN
47	1.000000	0.392567	7.3655e+06	-40989.1	955.819	-29788.4	0.000000	0.000000	6.392902	-0.040052	NaN	0.000000	0.001629	0.001604	28.108	0.049170	0.002029	24.2392	38.2586	15.066	-0.065848	0.391245	-0.725285	-0.726606	-0.040052	24.2392	-0.724045	-4.165198E+9	9.615772E-12	NaN
47	1.000000	0.402546	7.3655e+06	-40989.1	955.818	-29788.4	0.000000	0.000000	6.402881	-0.036551	NaN	0.000000	0.001612	0.001644	28.1307	0.027510	0.001979	13.9033	-1.918203	-167.917	-0.053589	0.401222	-0.715305	-0.716629	-0.036551	13.9033	-0.713334	-2.975337E+9	1.228482E-11	NaN
47	1.000000	0.412532	7.3655e+06	-40989.1	955.818	-29788.4	0.000000	0.000000	6.412867	-0.063506	NaN	0.000000	0.001620	0.001621	28.0913	0.085125	0.002145	39.6869	-51.4153	14.7812	-0.030145	0.411225	-0.705319	-0.706626	-0.063506	39.6869	-0.704119	-2.227264E+9	2.851306E-11	NaN
47	1.000000	0.422571	7.3655e+06	-40989.1	955.818	-29788.4	0.000000	0.000000	6.422908	0.006456	NaN	0.000000	0.001561	0.001634	28.0813	0.045499	0.002133	21.3291	49.3404	-167.099	0.032725	0.421280	-0.695280	-0.696571	0.006456	21.3291	-0.695507	-1.698894E+9	-3.800097E-12	NaN
47	1.000000	0.432593	7.3655e+06	-40989.1	955.819	-29788.4	0.000000	0.000000	6.432929	-0.024487	NaN	0.000000	0.001544	0.001619	28.1066	0.074526	0.001740	42.8236	-112.185	8.893586	-0.006292	0.431188	-0.685258	-0.686663	-0.024487	42.8236	-0.684829	-1.214047E+9	2.016980E-11	NaN
47	1.000000	0.442588	7.3655e+06	-40989.1	955.818	-29788.4	0.000000	0.000000	6.442928	0.082130	NaN	0.000000	0.001660	0.001645	28.1292	0.105919	0.002040	51.9135	-153.319	-166.096	0.055261	0.441264	-0.675264	-0.676587	0.082130	51.9135	-0.676450	-9.324998E+8	-8.807455E-11	NaN
47	1.000000	0.452581	7.3655e+06	-40989.1	955.818	-29788.4	0.000000	0.000000	6.452919	0.013951	NaN	0.000000	0.001676	0.001628	28.0898	0.058023	0.002052	28.2737	60.1433	11.2159	0.019396	0.451216	-0.665270	-0.666635	0.013951	28.2737	-0.665640	-6.632976E+8	-2.103288E-11	NaN
47	1.000000	0.462570	7.3655e+06	-40989.1	955.817	-29788.4	0.000000	0.000000	6.462909	0.031114	NaN	0.000000	0.001674	0.001618	28.0811	0.025249	0.001923	13.1295	-89.6198	-167.913	-0.006039	0.461284	-0.655281	-0.656568	0.031114	13.1295	-0.657058	-5.060198E+8	-6.148869E-11	NaN
47	1.000000	0.472596	7.3655e+06	-40989.1	955.818	-29788.4	0.000000	0.000000	6.472931	-0.053828	NaN	0.000000	0.001675	0.001617	28.1072	0.059680	0.001815	32.8882	96.6234	9.732145	-0.040255	0.471254	-0.645255	-0.646597	-0.053828	32.8882	-0.644027	-3.353796E+8	1.604991E-10	NaN
47	1.000000	0.482602	7.3655e+06	-40989.1	955.818	-29788.4	0.000000	0.000000	6.482939	0.001070	NaN	0.000000	0.001644	0.001604	28.1306	0.090726	0.001968	46.0897	-148.331	-168.811	-0.018342	0.481320	-0.635249	-0.636531	0.001070	46.0897	-0.635266	-2.542882E+8	-4.207274E-12	NaN
47	1.000000	0.492605	7.3655e+06	-40989.1	955.818	-29788.4	0.000000	0.000000	6.492944	0.044853	NaN	0.000000	0.001705	0.001608	28.0911	0.093717	0.002070	45.272	-147.729	10.5691	0.055612	0.491242	-0.625246	-0.626609	0.044853	45.272	-0.625989	-1.896425E+8	-2.365110E-10	NaN
47	1.000000	0.502626	7.3655e+06	-40989.1	955.819	-29788.4	0.000000	0.000000	6.502962	-0.006485	NaN	0.000000	0.001663	0.001650	28.0816	0.039766	0.002156	18.4474	-95.1719	-162.092	-0.023055	0.501282	-0.615226	-0.616569	-0.006485	18.4474	-0.614962	-1.337722E+8	4.848090E-11	NaN
47	1.000000	0.512591	7.3655e+06	-40989.1	955.819	-29788.4	0.000000	0.000000	6.512928	-0.001274	NaN	0.000000	0.001673	0.001650	28.105	0.046648	0.002146	21.7346	154.307	11.4441	0.038403	0.511273	-0.605260	-0.606578	-0.001274	21.7346	-0.605216	-9.823882E+7	1.296888E-11	NaN
47	1.000000	0.522634	7.3655e+06	-40989.1	955.818	-29788.4	0.000000	0.000000	6.522970	-0.020975	NaN	0.000000	0.001680	0.001603	28.1284	0.105149	0.001969	53.4069	44.682	-164.346	-0.127647	0.521302	-0.595217	-0.596549	-0.020975	53.4069	-0.594922	-7.087788E+7	2.959245E-10	NaN
47	1.000000	0.532627	7.3655e+06	-40989.1	955.818	-29788.4	0.000000	0.000000	6.532965	0.018303	NaN	0.000000	0.001685	0.001602	28.0897	0.031143	0.002002	15.5561	-67.319	14.2297	0.009735	0.531235	-0.585224	-0.586616	0.018303	15.5561	-0.586107	-5.357701E+7	-3.416296E-10	NaN
47	1.000000	0.542613	7.3655e+06	-40989.1	955.819	-29788.4	0.000000	0.000000	6.542949	-0.015066	NaN	0.000000	0.001660	0.001613	28.08	0.096370	0.001925	50.052	159.224	-167.151	0.071428	0.541355	-0.575238	-0.576497	-0.015066	50.052	-0.575013	-3.765938E+7	4.000627E-10	NaN
47	1.000000	0.552621	7.3655e+06	-40989.1	955.818	-29788.4	0.000000	0.000000	6.552958	-0.004978	NaN	0.000000	0.001715	0.001627	28.1064	0.040012	0.001973	20.2795	-164.466	12.1117	-0.008650	0.551296	-0.565230	-0.566555	-0.004978	20.2795	-0.565046	-2.742613E+7	1.815066E-10	NaN
47	1.000000	0.562635	7.3655e+06	-40989.1	955.817	-29788.4	0.000000	0.000000	6.562970	-0.038966	NaN	0.000000	0.001678	0.001604	28.1298	0.035048	0.001978	17.7206	112.967	-167.816	0.013092	0.561295	-0.555216	-0.556556	-0.038966	17.7206	-0.553567	-1.902634E+7	2.047989E-9	NaN
47	1.000000	0.572657	7.3655e+06	-40989.1	955.817	-29788.4	0.000000	0.000000	6.572994	-0.010520	NaN	0.000000	0.001716	0.001590	28.0918	0.039374	0.002012	19.5741	103.858	12.7533	-0.066404	0.571234	-0.545194	-0.546617	-0.010520	19.5741	-0.544791	-1.438073E+7	7.315016E-10	NaN
47	1.000000	0.582637	7.3655e+06	-40989.1	955.819	-29788.4	0.000000	0.000000	6.582975	0.028140	NaN	0.000000	0.001694	0.001601	28.0813	0.082725	0.002110	39.2086	-58.42	-164.528	0.058110	0.581314	-0.535214	-0.536537	0.028140	39.2086	-0.535752	-1.077525E+7	-2.611545E-9	NaN
47	1.000000	0.592648	7.3655e+06	-40989.1	955.818	-29788.4	0.000000	0.000000	6.592983	-0.040808	NaN	0.000000	0.001628	0.001569	28.1051	0.059643	0.001998	29.8449	-155.302	16.7405	-0.009143	0.591290	-0.525203	-0.526561	-0.040808	29.8449	-0.524178	-7.44195e+06	5.483525E-9	NaN
47	1.000000	0.602656	7.3655e+06	-40989.1	955.818	-29788.4	0.000000	0.000000	6.602994	0.014750	NaN	0.000000	0.001667	0.001595	28.1288	0.131970	0.001953	67.5642	-17.5666	-164.991	0.008699	0.601324	-0.515195	-0.516527	0.014750	67.5642	-0.515358	-5.61075e+06	-2.628831E-9	NaN
47	1.000000	0.612661	7.3655e+06	-40989.1	955.818	-29788.4	0.000000	0.000000	6.612996	-0.055821	NaN	0.000000	0.001629	0.001598	28.0898	0.116527	0.002062	56.5001	-64.7816	14.0244	-0.065998	0.611299	-0.505190	-0.506552	-0.055821	56.5001	-0.504449	-3.95421e+06	1.411680E-8	NaN
47	1.000000	0.622666	7.3655e+06	-40989.1	955.818	-29788.4	0.000000	0.000000	6.623002	-0.020540	NaN	0.000000	0.001570	0.001642	28.0799	0.064105	0.002011	31.8758	-172.276	-164.89	-0.075444	0.621366	-0.495185	-0.496485	-0.020540	31.8758	-0.494702	-2.89117e+06	7.104526E-9	NaN
47	1.000000	0.632671	7.3655e+06	-40989.1	955.819	-29788.4	0.000000	0.000000	6.633010	0.030384	NaN	0.000000	0.001596	0.001664	28.1072	0.093419	0.002021	46.22	-50.3381	16.97	0.039960	0.631330	-0.485180	-0.486521	0.030384	46.22	-0.485673	-2.16222e+06	-1.405221E-8	NaN
47	1.000000	0.642677	7.3655e+06	-40989.1	955.818	-29788.4	0.000000	0.000000	6.643013	-0.015438	NaN	0.000000	0.001607	0.001633	28.1308	0.056626	0.001997	28.3626	-2.830952	-166.77	-0.053942	0.641364	-0.475174	-0.476488	-0.015438	28.3626	-0.474766	-1.52131e+06	1.014785E-8	NaN
47	1.000000	0.652655	7.3655e+06	-40989.1	955.82	-29788.4	0.000000	0.000000	6.652994	0.036570	NaN	0.000000	0.001596	0.001614	28.0914	0.108682	0.001901	57.1747	44.7295	14.6155	-0.022351	0.651304	-0.465196	-0.466547	0.036570	57.1747	-0.465676	-1.13431e+06	-3.224030E-8	NaN
47	1.000000	0.662681	7.3655e+06	-40989.1	955.818	-29788.4	0.000000	0.000000	6.663020	0.046639	NaN	0.000000	0.001611	0.001622	28.0814	0.088233	0.001970	44.7842	113.713	-164.907	0.035800	0.661341	-0.455170	-0.456510	0.046639	44.7842	-0.455951	-828129	-5.631884E-8	NaN
47	1.000000	0.672678	7.3655e+06	-40989.1	955.819	-29788.4	0.000000	0.000000	6.673015	0.017118	NaN	0.000000	0.001571	0.001679	28.1055	0.057950	0.001985	29.1875	51.4733	16.23	-0.053899	0.671312	-0.445173	-0.446539	0.017118	29.1875	-0.445613	-592296	-2.890193E-8	NaN
47	1.000000	0.682681	7.3655e+06	-40989.1	955.817	-29788.4	0.000000	0.000000	6.683016	-0.047537	NaN	0.000000	0.001628	0.001689	28.1297	0.087707	0.002039	43.009	-49.6587	-163.067	-0.063682	0.681404	-0.435170	-0.436447	-0.047537	43.009	-0.434341	-410624	1.157679E-7	NaN
47	1.000000	0.692667	7.3655e+06	-40989.1	955.819	-29788.4	0.000000	0.000000	6.693000	-0.099350	NaN	0.000000	0.001611	0.001685	28.0908	0.031132	0.001990	15.6474	91.0234	13.9772	-0.058360	0.691342	-0.425184	-0.426509	-0.099350	15.6474	-0.420422	-260854	3.808651E-7	NaN
47	1.000000	0.702701	7.3655e+06	-40989.1	955.818	-29788.4	0.000000	0.000000	6.703041	0.058937	NaN	0.000000	0.001633	0.001660	28.08	0.058780	0.002008	29.2762	146.347	-167.697	0.050190	0.701378	-0.415150	-0.416473	0.058937	29.2762	-0.416660	-230687	-2.554847E-7	NaN
47	1.000000	0.712689	7.3655e+06	-40989.1	955.818	-29788.4	0.000000	0.000000	6.713026	0.001557	NaN	0.000000	0.001599	0.001672	28.1056	0.073997	0.001988	37.2264	-55.1742	14.4956	-0.003311	0.711396	-0.405162	-0.406455	0.001557	37.2264	-0.405194	-158491	-9.826725E-9	NaN
47	1.000000	0.722697	7.3655e+06	-40989.1	955.818	-29788.4	0.000000	0.000000	6.723032	-0.031131	NaN	0.000000	0.001608	0.001677	28.131	0.014705	0.002030	7.242332	123.785	-168.216	-0.010068	0.721410	-0.395155	-0.396441	-0.031131	7.242332	-0.391931	-102512	3.036817E-7	NaN
47	1.000000	0.732715	7.3655e+06	-40989.1	955.819	-29788.4	0.000000	0.000000	6.733047	-0.134434	NaN	0.000000	0.001622	0.001688	28.0921	0.055731	0.001997	27.9026	-65.8782	16.7756	-0.067746	0.731351	-0.385136	-0.386500	-0.134434	27.9026	-0.381523	-72733.6	1.848313E-6	NaN
47	1.000000	0.742700	7.3655e+06	-40989.1	955.819	-29788.4	0.000000	0.000000	6.743037	-0.017790	NaN	0.000000	0.001636	0.001665	28.082	0.041080	0.002029	20.2476	-155.506	-169.022	-0.041578	0.741409	-0.375151	-0.376442	-0.017790	20.2476	-0.374492	-57645.5	3.086050E-7	NaN
47	1.000000	0.752737	7.3655e+06	-40989.1	955.818	-29788.4	0.000000	0.000000	6.753073	-0.039264	NaN	0.000000	0.001613	0.001662	28.105	0.055455	0.002115	26.2164	-177.827	14.0582	-0.001922	0.751335	-0.365114	-0.366516	-0.039264	26.2164	-0.363991	-40689.9	9.649447E-7	NaN
47	1.000000	0.762714	7.36551e+06	-40989.1	955.818	-29788.4	0.000000	0.000000	6.763049	-0.048491	NaN	0.000000	0.001589	0.001696	28.1288	0.059076	0.001936	30.5098	11.3786	-164.952	-0.021910	0.761441	-0.355137	-0.356410	-0.048491	30.5098	-0.353945	-29121.4	1.665123E-6	NaN
47	1.000000	0.772744	7.36551e+06	-40989.1	955.817	-29788.4	0.000000	0.000000	6.773082	0.019900	NaN	0.000000	0.001653	0.001677	28.0906	0.066729	0.001926	34.6399	106.461	14.3853	-0.000560	0.771346	-0.345107	-0.346505	0.019900	34.6399	-0.345538	-21987.5	-9.050741E-7	NaN
47	1.000000	0.782747	7.36551e+06	-40989.1	955.819	-29788.4	0.000000	0.000000	6.783083	-0.007244	NaN	0.000000	0.001706	0.001664	28.079	0.122744	0.001982	61.9311	-50.3276	-166.442	0.062829	0.781397	-0.335105	-0.336454	-0.007244	61.9311	-0.335017	-15446.6	4.689901E-7	NaN
47	1.000000	0.792724	7.36551e+06	-40989.1	955.819	-29788.4	0.000000	0.000000	6.793060	-0.031423	NaN	0.000000	0.001628	0.001641	28.1045	0.050116	0.001976	25.361	-130.607	15.665	-0.091260	0.791379	-0.325127	-0.326472	-0.031423	25.361	-0.324198	-10724	2.930151E-6	NaN
47	1.000000	0.802747	7.36551e+06	-40989.1	955.818	-29788.4	0.000000	0.000000	6.803082	-0.050078	NaN	0.000000	0.001648	0.001629	28.1301	0.061255	0.002053	29.8366	148.911	-164.509	-0.057012	0.801472	-0.315104	-0.316379	-0.050078	29.8366	-0.313846	-7549.25	6.633459E-6	NaN
47	1.000000	0.812715	7.36551e+06	-40989.1	955.818	-29788.4	0.000000	0.000000	6.813049	-0.087076	NaN	0.000000	0.001588	0.001648	28.0912	0.041799	0.002148	19.4605	-152.531	16.2045	-0.067582	0.811384	-0.305136	-0.306467	-0.087076	19.4605	-0.301780	-5001.72	1.740920E-5	NaN
47	1.000000	0.822750	7.36551e+06	-40989.1	955.817	-29788.4	0.000000	0.000000	6.823088	0.006902	NaN	0.000000	0.001609	0.001676	28.0807	0.127995	0.001883	67.9882	-38.3896	-168.402	0.025781	0.821407	-0.295101	-0.296444	0.006902	67.9882	-0.295177	-3987.77	-1.730705E-6	NaN
47	1.000000	0.832737	7.36551e+06	-40989.1	955.817	-29788.4	0.000000	0.000000	6.833072	-0.031759	NaN	0.000000	0.001613	0.001681	28.1033	0.096118	0.001958	49.0805	151.083	14.6926	-0.027234	0.831410	-0.285114	-0.286442	-0.031759	49.0805	-0.284629	-2771.34	1.145973E-5	NaN
47	1.000000	0.842767	7.36551e+06	-40989.1	955.817	-29788.4	0.000000	0.000000	6.843101	-0.073325	NaN	0.000000	0.001625	0.001723	28.1298	0.106548	0.002012	52.9586	-135.675	-163.725	0.059436	0.841429	-0.275084	-0.276422	-0.073325	52.9586	-0.274045	-1918.4	3.822221E-5	NaN
47	1.000000	0.852731	7.36551e+06	-40989.1	955.818	-29788.4	0.000000	0.000000	6.853067	-0.019997	NaN	0.000000	0.001587	0.001694	28.0905	0.059727	0.002039	29.2954	34.8684	11.9848	-0.020377	0.851383	-0.265121	-0.266468	-0.019997	29.2954	-0.264609	-1378.53	1.450607E-5	NaN
47	1.000000	0.862750	7.36551e+06	-40989.1	955.818	-29788.4	0.000000	0.000000	6.863086	-0.022693	NaN	0.000000	0.001654	0.001703	28.0802	0.090832	0.002103	43.1969	-103.304	-168.007	-0.108724	0.861453	-0.255101	-0.256399	-0.022693	43.1969	-0.254707	-971.868	2.334975E-5	NaN
47	1.000000	0.872798	7.36551e+06	-40989.1	955.818	-29788.4	0.000000	0.000000	6.873134	-0.023592	NaN	0.000000	0.001639	0.001640	28.1035	0.080449	0.002029	39.6469	-64.592	13.1649	-0.066504	0.871380	-0.245053	-0.246471	-0.023592	39.6469	-0.244607	-678.167	3.478853E-5	NaN
47	1.000000	0.882741	7.36551e+06	-40989.1	955.818	-29788.4	0.000000	0.000000	6.883079	0.008692	NaN	0.000000	0.001632	0.001640	28.1303	0.101756	0.001985	51.2733	161.021	-167.1	0.079575	0.881460	-0.235110	-0.236391	0.008692	51.2733	-0.235237	-484.138	-1.795407E-5	NaN
47	1.000000	0.892763	7.36551e+06	-40989.1	955.819	-29788.4	0.000000	0.000000	6.893098	-0.042873	NaN	0.000000	0.001604	0.001657	28.0922	0.019010	0.002203	8.629665	-28.3677	14.0072	-0.001066	0.891419	-0.225089	-0.226432	-0.042873	8.629665	-0.221363	-292.033	0.000147	NaN
47	1.000000	0.902793	7.36551e+06	-40989.1	955.818	-29788.4	0.000000	0.000000	6.903128	-0.047840	NaN	0.000000	0.001606	0.001654	28.0819	0.021943	0.002004	10.9482	-83.6514	-164.224	-0.023965	0.901476	-0.215058	-0.216375	-0.047840	10.9482	-0.211781	-204.941	0.000233	NaN
47	1.000000	0.912797	7.36551e+06	-40989.1	955.818	-29788.4	0.000000	0.000000	6.913133	-0.020641	NaN	0.000000	0.001682	0.001661	28.1041	0.041353	0.002012	20.5574	136.692	13.5647	0.028065	0.911387	-0.205054	-0.206464	-0.020641	20.5574	-0.204301	-154.938	0.000133	NaN
47	1.000000	0.922801	7.36551e+06	-40989.1	955.818	-29788.4	0.000000	0.000000	6.923137	-0.042585	NaN	0.000000	0.001645	0.001655	28.1307	0.086919	0.001969	44.1476	-94.4884	-162.397	-0.082115	0.921473	-0.195050	-0.196378	-0.042585	44.1476	-0.194326	-106.179	0.000401	NaN
47	1.000000	0.932770	7.36551e+06	-40989.1	955.819	-29788.4	0.000000	0.000000	6.933105	-0.047660	NaN	0.000000	0.001660	0.001708	28.0928	0.120643	0.001908	63.231	-65.0603	14.1603	0.019770	0.931430	-0.185081	-0.186421	-0.047660	63.231	-0.184516	-72.7728	0.000655	NaN
47	1.000000	0.942763	7.36551e+06	-40989.1	955.818	-29788.4	0.000000	0.000000	6.943096	-0.100463	NaN	0.000000	0.001672	0.001688	28.0813	0.159495	0.001884	84.6716	-165.449	-165.642	-0.075508	0.941459	-0.175088	-0.176392	-0.100463	84.6716	-0.174198	-48.55	0.002069	NaN
47	1.000000	0.952816	7.36551e+06	-40989.1	955.817	-29788.4	0.000000	0.000000	6.953152	-0.021590	NaN	0.000000	0.001689	0.001670	28.1054	0.063944	0.001923	33.2549	-112.733	18.1078	0.034790	0.951397	-0.165035	-0.166454	-0.021590	33.2549	-0.164549	-32.9893	0.000654	NaN
47	1.000000	0.962828	7.36551e+06	-40989.1	955.818	-29788.4	0.000000	0.000000	6.963165	0.002673	NaN	0.000000	0.001656	0.001652	28.1321	0.090503	0.001919	47.1567	156.384	-164.462	0.013600	0.961500	-0.155023	-0.156351	0.002673	47.1567	-0.155066	-22.375	-0.000119	NaN
47	1.000000	0.972842	7.36551e+06	-40989.1	955.819	-29788.4	0.000000	0.000000	6.973179	0.014959	NaN	0.000000	0.001571	0.001632	28.0938	0.085276	0.002009	42.446	-104.061	14.6108	0.036899	0.971489	-0.145009	-0.146362	0.014959	42.446	-0.145274	-14.8331	-0.001009	NaN
47	1.000000	0.982807	7.36551e+06	-40989.1	955.818	-29788.4	0.000000	0.000000	6.983144	-0.000768	NaN	0.000000	0.001611	0.001688	28.0824	0.064166	0.002017	31.82	-28.1056	-165.872	0.028247	0.981454	-0.135044	-0.136397	-0.000768	31.82	-0.135026	-9.523237	8.059783E-5	NaN
47	1.000000	0.992805	7.36551e+06	-40989.1	955.818	-29788.4	0.000000	0.000000	6.993139	-0.055997	NaN	0.000000	0.001639	0.001654	28.1047	0.113953	0.001991	57.2267	-83.9861	14.2664	-0.066928	0.991419	-0.125046	-0.126432	-0.055997	57.2267	-0.124312	-5.893468	0.009502	NaN
47	1.000000	1.002851	7.36551e+06	-40989.1	955.819	-29788.4	0.000000	0.000000	7.003186	-0.045528	NaN	0.000000	0.001588	0.001654	28.1304	0.038417	0.002056	18.6826	4.968627	-163.983	-0.032813	1.001538	-0.115001	-0.116314	-0.045528	18.6826	-0.113173	-3.501776	0.013001	NaN
47	1.000000	1.012838	7.36551e+06	-40989.1	955.82	-29788.4	0.000000	0.000000	7.013174	-0.042085	NaN	0.000000	0.001617	0.001671	28.0931	0.073259	0.002028	36.1226	-52.4206	13.1553	-0.047362	1.011511	-0.105013	-0.106340	-0.042085	36.1226	-0.104139	-2.251834	0.018689	NaN
47	1.000000	1.022793	7.36551e+06	-40989.1	955.818	-29788.4	0.000000	0.000000	7.023130	0.004767	NaN	0.000000	0.001639	0.001672	28.0806	0.152021	0.001927	78.898	127.441	-164.756	-0.010060	1.021514	-0.095059	-0.096337	0.004767	78.898	-0.095104	-1.418340	-0.003361	NaN
47	1.000000	1.032817	7.36551e+06	-40989.1	955.817	-29788.4	0.000000	0.000000	7.033151	-0.070245	NaN	0.000000	0.001610	0.001670	28.1039	0.065815	0.001916	34.3481	21.1292	12.6013	-0.032463	1.031473	-0.085034	-0.086378	-0.070245	34.3481	-0.083500	-0.755439	0.092985	NaN
47	1.000000	1.042837	7.36551e+06	-40989.1	955.817	-29788.4	0.000000	0.000000	7.043175	0.015255	NaN	0.000000	0.001590	0.001704	28.1306	0.060203	0.002039	29.5319	83.5659	-170.887	0.040095	1.041522	-0.075014	-0.076330	0.015255	29.5319	-0.075401	-0.473028	-0.032249	NaN
47	1.000000	1.052839	7.36551e+06	-40989.1	955.818	-29788.4	0.000000	0.000000	7.053171	-0.120081	NaN	0.000000	0.001594	0.001673	28.0932	0.063754	0.001961	32.506	-176.16	15.6257	-0.062083	1.051476	-0.065012	-0.066375	-0.120081	32.506	-0.062242	-0.208612	0.575618	NaN
47	1.000000	1.062845	7.36551e+06	-40989.1	955.817	-29788.4	0.000000	0.000000	7.063179	-0.057398	NaN	0.000000	0.001582	0.001644	28.0805	0.115267	0.001932	59.6677	166.346	-165.328	-0.022904	1.061524	-0.055006	-0.056327	-0.057398	59.6677	-0.054285	-0.122650	0.467986	NaN
47	1.000000	1.072863	7.36551e+06	-40989.1	955.816	-29788.4	0.000000	0.000000	7.073200	0.006214	NaN	0.000000	0.001599	0.001650	28.1019	0.069395	0.001985	34.9678	-152.016	15.5011	-0.034003	1.071518	-0.044988	-0.046333	0.006214	34.9678	-0.045122	-0.064820	-0.095872	NaN
47	1.000000	1.082872	7.36551e+06	-40989.1	955.818	-29788.4	0.000000	0.000000	7.083210	0.013981	NaN	0.000000	0.001627	0.001667	28.1294	0.075501	0.001922	39.2813	27.4524	-166.418	0.049579	1.081509	-0.034979	-0.036342	0.013981	39.2813	-0.035246	-0.032564	-0.429351	NaN
47	1.000000	1.092854	7.36551e+06	-40989.1	955.817	-29788.4	0.000000	0.000000	7.093191	0.006957	NaN	0.000000	0.001608	0.001656	28.0916	0.091061	0.001938	46.9799	-165.035	16.4876	0.056592	1.091488	-0.024997	-0.026363	0.006957	46.9799	-0.025108	-0.016980	-0.409705	NaN
47	1.000000	1.102828	7.36551e+06	-40989.1	955.817	-29788.4	0.000000	0.000000	7.103166	0.033942	NaN	0.000000	0.001631	0.001700	28.0793	0.174809	0.001926	90.7646	-8.968670	-165	-0.078405	1.101571	-0.015023	-0.016281	0.033942	90.7646	-0.015304	-0.009458	-3.588673	NaN
47	1.000000	1.112848	7.36551e+06	-40989.1	955.817	-29788.4	0.000000	0.000000	7.113292	2.610476	NaN	0.000000	0.001636	0.001692	28.1029	1.351488	0.002112	639.859	10.8793	12.0647	2.257721	1.111467	-0.005004	-0.006385	2.610476	639.859	-0.008063	-0.005269	-495.458	NaN
47	1.000000	1.122893	7.36551e+06	-40989.1	955.817	-29788.4	0.000000	0.000000	7.123302	1.742649	NaN	0.000000	0.001645	0.001642	28.1309	1.306654	0.001911	683.792	21.4443	-165.433	2.429005	1.121564	0.005042	0.003713	1.742649	683.792	0.003131	0.002490	699.831	12519.5
47	1.000000	1.132865	7.36551e+06	-40989.1	955.817	-29788.4	0.000000	0.000000	7.133381	4.371961	NaN	0.000000	0.001674	0.001630	28.0935	3.197947	0.002046	1563.4	14.1145	12.4879	3.585722	1.131509	0.015014	0.013658	4.371961	1563.4	0.012916	0.012606	346.81	12721.9
47	2.000000	1.142367	7.36551e+06	-40989.1	955.817	-29788.4	0.000000	0.000000	7.143061	8.702333	NaN	0.000000	0.001639	0.001658	28.0805	4.768877	0.001839	2592.77	8.606481	-168.039	8.390413	1.141513	0.024516	0.023661	8.702333	2592.77	0.021998	0.025780	337.56	14753.5
47	2.000000	1.145039	7.36551e+06	-40989.1	955.818	-29788.4	0.000000	0.000000	7.145752	9.144960	NaN	0.000000	0.001642	0.001658	28.1015	5.641611	0.001840	3066.29	6.706992	11.9042	8.986923	1.144686	0.027188	0.026835	9.144960	3066.29	0.024951	0.030927	295.699	15930.2
47	2.000000	1.147538	7.36551e+06	-40989.1	955.817	-29788.4	0.000000	0.000000	7.148259	9.352435	NaN	0.000000	0.001634	0.001657	28.1298	6.580982	0.002031	3240.21	11.437	-171.049	9.896371	1.147207	0.029687	0.029356	9.352435	3240.21	0.027522	0.035764	261.504	15653.9
47	2.000000	1.150001	7.36551e+06	-40989.1	955.818	-29788.4	0.000000	0.000000	7.150785	10.8722	NaN	0.000000	0.001619	0.001658	28.0935	7.086292	0.001854	3822.44	4.891633	11.2488	10.5493	1.149646	0.032150	0.031795	10.8722	3822.44	0.030017	0.040779	266.611	17294
47	2.000000	1.152499	7.36551e+06	-40989.1	955.819	-29788.4	0.000000	0.000000	7.153328	11.9644	NaN	0.000000	0.001623	0.001609	28.0823	7.876575	0.001777	4431.66	5.611369	-168.153	11.6267	1.152167	0.034648	0.034316	11.9644	4431.66	0.032623	0.046356	258.098	18805.6
47	2.000000	1.154987	7.36551e+06	-40989.1	955.817	-29788.4	0.000000	0.000000	7.155830	12.3199	NaN	0.000000	0.001672	0.001665	28.1036	9.311528	0.001948	4781.06	6.651911	9.600782	12.0971	1.154718	0.037136	0.036867	12.3199	4781.06	0.035203	0.052220	235.922	19115.2
47	2.000000	1.157461	7.36551e+06	-40989.1	955.818	-29788.4	0.000000	0.000000	7.158450	15.8518	NaN	0.000000	0.001648	0.001623	28.1327	11.3842	0.001896	6005.53	2.543716	-169.057	15.2637	1.157214	0.039610	0.039363	15.8518	6005.53	0.037630	0.058048	273.081	22773.6
47	2.000000	1.160009	7.36551e+06	-40989.1	955.818	-29788.4	0.000000	0.000000	7.161166	19.9476	NaN	0.000000	0.001663	0.001673	28.0942	13.4684	0.001900	7086.8	5.534611	8.126406	19.0934	1.159614	0.042158	0.041763	19.9476	7086.8	0.040047	0.064150	310.954	25563.9
47	2.000000	1.162446	7.36551e+06	-40989.1	955.818	-29788.4	0.000000	0.000000	7.163708	22.4994	NaN	0.000000	0.001617	0.001661	28.083	14.8767	0.001839	8087.82	3.862582	-170.981	21.4802	1.162173	0.044595	0.044322	22.4994	8087.82	0.042508	0.070672	318.365	27796
47	2.000000	1.164937	7.36551e+06	-40989.1	955.818	-29788.4	0.000000	0.000000	7.166445	28.4845	NaN	0.000000	0.001623	0.001625	28.1021	17.2999	0.001792	9654.83	6.515578	4.424187	27.7807	1.164645	0.047086	0.046794	28.4845	9654.83	0.044873	0.077228	368.837	31741.7
47	2.000000	1.167440	7.36551e+06	-40989.1	955.817	-29788.4	0.000000	0.000000	7.169019	30.2363	NaN	0.000000	0.001636	0.001655	28.1308	19.342	0.001857	10414	4.247607	-173.356	29.9732	1.167152	0.049589	0.049300	30.2363	10414	0.047411	0.084579	357.491	32715.8
47	2.000000	1.169968	7.36551e+06	-40989.1	955.817	-29788.4	0.000000	0.000000	7.171801	36.4105	NaN	0.000000	0.001680	0.001622	28.0931	21.1993	0.001806	11735.7	5.550499	2.856280	34.7699	1.169615	0.052117	0.051763	36.4105	11735.7	0.049790	0.091765	396.781	35395.2
47	2.000000	1.172406	7.36551e+06	-40989.1	955.817	-29788.4	0.000000	0.000000	7.174375	39.725	NaN	0.000000	0.001654	0.001678	28.0807	23.9783	0.001858	12902.6	7.748376	179.989	38.1753	1.172142	0.054554	0.054291	39.725	12902.6	0.052245	0.099479	399.33	37375.3
47	2.000000	1.174926	7.36551e+06	-40989.1	955.818	-29788.4	0.000000	0.000000	7.177198	47.0821	NaN	0.000000	0.001671	0.001695	28.1034	25.8651	0.001937	13355.2	6.950269	1.117513	44.7251	1.174554	0.057075	0.056703	47.0821	13355.2	0.054431	0.106600	441.673	37372.1
47	2.000000	1.177390	7.36551e+06	-40989.1	955.819	-29788.4	0.000000	0.000000	7.179906	53.0211	NaN	0.000000	0.001643	0.001671	28.1321	28.2129	0.001675	16846.3	6.045619	179.498	51.7137	1.177041	0.059539	0.059189	53.0211	16846.3	0.057179	0.115886	457.526	45212.8
47	2.000000	1.179959	7.36551e+06	-40989.1	955.819	-29788.4	0.000000	0.000000	7.182800	60.9249	NaN	0.000000	0.001683	0.001679	28.0957	30.0524	0.001599	18793.6	1.903595	2.716166	60.1771	1.179582	0.062108	0.061731	60.9249	18793.6	0.059677	0.124652	488.76	48633.4
47	2.000000	1.182362	7.36551e+06	-40989.1	955.818	-29788.4	0.000000	0.000000	7.185551	69.4034	NaN	0.000000	0.001690	0.001640	28.0823	32.3258	0.001716	18839.2	3.500266	-178.672	66.9476	1.182103	0.064511	0.064252	69.4034	18839.2	0.061748	0.132150	525.186	47348.1
47	2.000000	1.184874	7.36551e+06	-40989.1	955.818	-29788.4	0.000000	0.000000	7.188405	77.7142	NaN	0.000000	0.001665	0.001656	28.1016	35.6664	0.001821	19581.1	2.744498	1.080487	74.4413	1.184589	0.067023	0.066738	77.7142	19581.1	0.064046	0.140715	552.281	47691.4
47	2.000000	1.187433	7.36551e+06	-40989.1	955.818	-29788.4	0.000000	0.000000	7.191197	83.3943	NaN	0.000000	0.001653	0.001680	28.1297	38.8853	0.001884	20642.4	4.035996	179.737	82.1401	1.187144	0.069581	0.069292	83.3943	20642.4	0.066551	0.150343	554.693	48639.8
47	2.000000	1.189897	7.36551e+06	-40989.1	955.817	-29788.4	0.000000	0.000000	7.194080	93.5914	NaN	0.000000	0.001671	0.001657	28.0934	40.4159	0.001807	22369.3	6.202483	-2.959071	91.4688	1.189603	0.072045	0.071751	93.5914	22369.3	0.068908	0.159672	586.148	51145.9
47	2.000000	1.192519	7.36551e+06	-40989.1	955.819	-29788.4	0.000000	0.000000	7.196947	99.5641	NaN	0.000000	0.001626	0.001671	28.0792	42.8196	0.001865	22963.5	10.2572	173.348	104.595	1.192141	0.074667	0.074290	99.5641	22963.5	0.071416	0.169894	586.036	50900.5
47	2.000000	1.194901	7.36551e+06	-40989.1	955.817	-29788.4	0.000000	0.000000	7.199914	113.792	NaN	0.000000	0.001654	0.001671	28.1025	44.2725	0.001794	24676.5	8.002917	-5.683541	111.748	1.194561	0.077050	0.076710	113.792	24676.5	0.073591	0.179002	635.699	53287.8
47	2.000000	1.197427	7.36551e+06	-40989.1	955.818	-29788.4	0.000000	0.000000	7.202558	116.648	NaN	0.000000	0.001651	0.001665	28.1306	47.1671	0.001890	24961.7	6.379135	175.561	117.909	1.197175	0.079576	0.079324	116.648	24961.7	0.076071	0.189657	615.049	52367.6
47	2.000000	1.199905	7.36551e+06	-40989.1	955.819	-29788.4	0.000000	0.000000	7.205324	123.646	NaN	0.000000	0.001626	0.001652	28.0939	48.4103	0.001838	26339	3.140989	-1.907071	121.666	1.199723	0.082054	0.081872	123.646	26339	0.078533	0.200523	616.616	53739.2
47	2.000000	1.202367	7.36551e+06	-40989.1	955.819	-29788.4	0.000000	0.000000	7.208532	141.809	NaN	0.000000	0.001652	0.001646	28.0797	49.9949	0.001784	28023.3	5.196106	176.661	139.966	1.201998	0.084516	0.084147	141.809	28023.3	0.080720	0.210411	673.964	55815.9
47	2.000000	1.204877	7.36551e+06	-40989.1	955.819	-29788.4	0.000000	0.000000	7.211415	150.887	NaN	0.000000	0.001650	0.001677	28.1003	52.9	0.001880	28143.2	6.124718	-3.714148	149.051	1.204508	0.087026	0.086657	150.887	28143.2	0.083005	0.220976	682.82	54698.4
47	2.000000	1.207399	7.36551e+06	-40989.1	955.818	-29788.4	0.000000	0.000000	7.213870	149.267	NaN	0.000000	0.001632	0.001660	28.13	55.7496	0.001898	29376.2	3.942913	177.285	149.147	1.207156	0.089548	0.089305	149.267	29376.2	0.085737	0.233930	638.083	55491.4
47	2.000000	1.209913	7.36551e+06	-40989.1	955.818	-29788.4	0.000000	0.000000	7.217051	165.489	NaN	0.000000	0.001627	0.001651	28.0939	56.308	0.001829	30793.8	1.780898	-0.827480	162.856	1.209563	0.092062	0.091711	165.489	30793.8	0.088031	0.245072	675.267	56831.5
47	2.000000	1.212325	7.36551e+06	-40989.1	955.819	-29788.4	0.000000	0.000000	7.220041	179.538	NaN	0.000000	0.001597	0.001638	28.0794	58.0006	0.001849	31372.5	2.385945	178.305	175.359	1.212037	0.094474	0.094186	179.538	31372.5	0.090182	0.255740	702.033	56679.1
47	2.000000	1.214829	7.36551e+06	-40989.1	955.819	-29788.4	0.000000	0.000000	7.223149	194.261	NaN	0.000000	0.001604	0.001607	28.102	60.4582	0.001818	33248	5.735584	-4.837001	189.939	1.214457	0.096978	0.096606	194.261	33248	0.092596	0.267963	724.955	58681.5
47	2.000000	1.217320	7.36551e+06	-40989.1	955.818	-29788.4	0.000000	0.000000	7.226245	208.957	NaN	0.000000	0.001612	0.001664	28.1314	63.6241	0.001742	36516.4	4.515510	174.596	204.708	1.217056	0.099469	0.099205	208.957	36516.4	0.095178	0.281333	742.737	62900
47	2.000000	1.219928	7.36551e+06	-40989.1	955.818	-29788.4	0.000000	0.000000	7.229756	230.942	NaN	0.000000	0.001595	0.001643	28.0962	65.1688	0.001684	38708.2	4.104933	-4.889060	230.434	1.219433	0.102076	0.101582	230.942	38708.2	0.097602	0.294163	785.083	65205.2
47	2.000000	1.222377	7.36551e+06	-40989.1	955.816	-29788.4	0.000000	0.000000	7.232790	245.183	NaN	0.000000	0.001637	0.001642	28.0814	67.1842	0.001661	40437	2.111878	176.675	245.177	1.222061	0.104526	0.104210	245.183	40437	0.099978	0.307001	798.639	66678
47	2.000000	1.224812	7.36551e+06	-40989.1	955.817	-29788.4	0.000000	0.000000	7.235795	259.063	NaN	0.000000	0.001643	0.001626	28.1017	70.7626	0.001845	38355.4	4.609853	-5.065080	254.746	1.224397	0.106961	0.106546	259.063	38355.4	0.101895	0.317541	815.841	62187.1
47	2.000000	1.227426	7.36551e+06	-40989.1	955.817	-29788.4	0.000000	0.000000	7.238262	255.471	NaN	0.000000	0.001647	0.001667	28.1311	73.9053	0.001824	40520.3	5.603509	173.001	256.013	1.227130	0.109575	0.109279	255.471	40520.3	0.104846	0.334097	764.662	64048.6
47	2.000000	1.229879	7.36551e+06	-40989.1	955.818	-29788.4	0.000000	0.000000	7.241742	280.454	NaN	0.000000	0.001637	0.001647	28.0951	74.1058	0.001815	40834.2	2.919169	-3.379283	277.023	1.229493	0.112028	0.111642	280.454	40834.2	0.106877	0.345719	811.22	63450.6
47	2.000000	1.232324	7.36551e+06	-40989.1	955.818	-29788.4	0.000000	0.000000	7.244839	296.338	NaN	0.000000	0.001620	0.001665	28.0796	76.1227	0.001701	44749	5.508143	172.938	292.813	1.231959	0.114473	0.114108	296.338	44749	0.109506	0.361044	820.781	68042
47	2.000000	1.234846	7.36551e+06	-40989.1	955.817	-29788.4	0.000000	0.000000	7.247826	307.641	NaN	0.000000	0.001626	0.001621	28.1017	80.1041	0.001803	44430.2	4.509086	-6.184548	304.658	1.234586	0.116995	0.116734	307.641	44430.2	0.111802	0.374681	821.076	66316.3
47	2.000000	1.237388	7.36551e+06	-40989.1	955.816	-29788.4	0.000000	0.000000	7.251308	330.511	NaN	0.000000	0.001641	0.001667	28.1323	81.976	0.001793	45711.2	2.263316	176.506	329.652	1.236995	0.119537	0.119144	330.511	45711.2	0.114114	0.388657	850.392	66990.3
47	2.000000	1.239799	7.36551e+06	-40989.1	955.816	-29788.4	0.000000	0.000000	7.254144	340.872	NaN	0.000000	0.001630	0.001647	28.0969	83.7821	0.001856	45129.8	5.389111	-6.948325	334.459	1.239545	0.121948	0.121694	340.872	45129.8	0.116283	0.401985	847.972	65032.7
47	2.000000	1.240774	7.36551e+06	-40989.1	955.817	-29788.4	0.000000	0.000000	7.255425	348.297	NaN	0.000000	0.001658	0.001661	28.1032	85.4028	0.001739	49105.7	3.365759	-6.239517	343.026	1.240565	0.122923	0.122714	348.297	49105.7	0.117604	0.410209	849.072	70049.2