File: remote_trans/data/nanoindenter/0828-1/data/Data_2025-08-06,11h17m57s/2025-07-22_16-23-58_1_1123.txt
2025-07-22, 16:23:58, 1
Index	Phase	Displacement	Time	Pos X	Pos Y	Pos Z	Rot A	Rot B	Piezo Z	Force A	Force B	Gripper	Voltage A	Voltage B	Temperature	Amplitude force	Amplitude pos	Stiffness	Phase shift	Phase excitation	Force A raw	Displacement raw	HMax	HMax raw	Real Force	Real Stiffness	Contact Depth	Area	Hardness	Reduced Mod.
[#]	[#]	[um]	[s]	[um]	[um]	[um]	[m°]	[m°]	[um]	[uN]	[uN]	[V]	[V]	[V]	[°C]	[uN]	[um]	[N/m]	[°]	[°]	[uN]	[um]	[um]	[um]	[uN]	[N/m]	[um]	[um^2]	[MPa]	[MPa]
1123	1.000000	0.002526	7.37603e+06	-56289.1	1055.82	-29739.1	0.000000	0.000000	6.002806	-0.028960	NaN	0.000000	0.001591	0.001682	28.0833	0.075950	0.000946	80.3228	155.576	-166.87	-0.103260	0.001227	-1.214246	-1.215545	-0.028960	80.3228	-1.213975	-1.689886E+16	1.713706E-18	NaN
1123	1.000000	0.012574	7.37603e+06	-56289.1	1055.82	-29739.1	0.000000	0.000000	6.012851	-0.091037	NaN	0.000000	0.001573	0.001688	28.0832	0.114137	0.001296	88.0381	-82.8206	10.7271	-0.062733	0.011155	-1.204198	-1.205616	-0.091037	88.0381	-1.203422	-1.220592E+16	7.458395E-18	NaN
1123	1.000000	0.022496	7.37603e+06	-56289.1	1055.82	-29739.1	0.000000	0.000000	6.022776	-0.032972	NaN	0.000000	0.001584	0.001697	28.0832	0.019177	0.001725	11.1149	94.7381	-165.529	-0.025966	0.021143	-1.194276	-1.195629	-0.032972	11.1149	-1.192051	-8.595912E+15	3.835734E-18	NaN
1123	1.000000	0.032468	7.37603e+06	-56289.1	1055.82	-29739.1	0.000000	0.000000	6.032748	-0.042189	NaN	0.000000	0.001559	0.001678	28.0831	0.041543	0.001924	21.5932	83.9021	12.1707	-0.133155	0.031168	-1.184303	-1.185604	-0.042189	21.5932	-1.182838	-6.469740E+15	6.520981E-18	NaN
1123	1.000000	0.042457	7.37604e+06	-56289.1	1055.82	-29739.1	0.000000	0.000000	6.042735	-0.063139	NaN	0.000000	0.001593	0.001700	28.0834	0.048363	0.001954	24.7532	-70.113	-167.506	-0.074237	0.041142	-1.174315	-1.175629	-0.063139	24.7532	-1.172402	-4.688861E+15	1.346571E-17	NaN
1123	1.000000	0.052453	7.37604e+06	-56289.1	1055.82	-29739.2	0.000000	0.000000	6.052730	-0.116854	NaN	0.000000	0.001599	0.001721	28.0833	0.122747	0.001998	61.4212	-75.5826	14.4246	-0.118327	0.051066	-1.164318	-1.165705	-0.116854	61.4212	-1.162891	-3.496377E+15	3.342145E-17	NaN
1123	1.000000	0.062465	7.37604e+06	-56289.1	1055.82	-29739.2	0.000000	0.000000	6.062744	-0.055822	NaN	0.000000	0.001575	0.001725	28.0828	0.076172	0.002060	36.9737	154.26	-167.348	-0.046635	0.061178	-1.154307	-1.155593	-0.055822	36.9737	-1.153174	-2.590444E+15	2.154937E-17	NaN
1123	1.000000	0.072476	7.37604e+06	-56289.1	1055.82	-29739.2	0.000000	0.000000	6.072756	-0.044309	NaN	0.000000	0.001574	0.001715	28.0843	0.064895	0.001970	32.9338	-129.07	15.3986	-0.024438	0.071094	-1.144295	-1.145677	-0.044309	32.9338	-1.143286	-1.908967E+15	2.321073E-17	NaN
1123	1.000000	0.082477	7.37604e+06	-56289.1	1055.82	-29739.2	0.000000	0.000000	6.082757	-0.038224	NaN	0.000000	0.001524	0.001676	28.0841	0.167044	0.002098	79.6164	156.099	-164.729	-0.103788	0.081179	-1.134294	-1.135593	-0.038224	79.6164	-1.133934	-1.430178E+15	2.672679E-17	NaN
1123	1.000000	0.092460	7.37604e+06	-56289.1	1055.82	-29739.2	0.000000	0.000000	6.092740	-0.033915	NaN	0.000000	0.001557	0.001663	28.0842	0.087216	0.002019	43.2064	166.21	14.3322	-0.016950	0.091122	-1.124311	-1.125649	-0.033915	43.2064	-1.123723	-1.043311E+15	3.250731E-17	NaN
1123	1.000000	0.102463	7.37604e+06	-56289.1	1055.82	-29739.2	0.000000	0.000000	6.102741	-0.077389	NaN	0.000000	0.001542	0.001667	28.0841	0.091887	0.002002	45.8975	-156.037	-163.286	-0.111563	0.101198	-1.114309	-1.115573	-0.077389	45.8975	-1.113044	-7.501334E+14	1.031665E-16	NaN
1123	1.000000	0.112495	7.37604e+06	-56289.1	1055.82	-29739.2	0.000000	0.000000	6.112775	-0.031971	NaN	0.000000	0.001607	0.001641	28.0845	0.093476	0.001958	47.7455	-125.096	12.2403	-0.066078	0.111192	-1.104276	-1.105580	-0.031971	47.7455	-1.103774	-5.632784E+14	5.675898E-17	NaN
1123	1.000000	0.122495	7.37604e+06	-56289.1	1055.82	-29739.2	0.000000	0.000000	6.122774	-0.064795	NaN	0.000000	0.001546	0.001664	28.0841	0.072663	0.001912	37.9957	118.905	-164.988	-0.160824	0.121183	-1.094276	-1.095588	-0.064795	37.9957	-1.092997	-4.036931E+14	1.605065E-16	NaN
1123	1.000000	0.132516	7.37604e+06	-56289.1	1055.82	-29739.2	0.000000	0.000000	6.132793	-0.096349	NaN	0.000000	0.001586	0.001669	28.0844	0.081444	0.001820	44.7583	101.813	13.6394	-0.143218	0.131113	-1.084255	-1.085658	-0.096349	44.7583	-1.082641	-2.930807E+14	3.287467E-16	NaN
1123	1.000000	0.142520	7.37604e+06	-56289.1	1055.82	-29739.2	0.000000	0.000000	6.142799	-0.042671	NaN	0.000000	0.001600	0.001675	28.0841	0.107314	0.001934	55.4885	-118.053	-166.706	-0.126973	0.141199	-1.074252	-1.075572	-0.042671	55.4885	-1.073675	-2.221049E+14	1.921229E-16	NaN
1123	1.000000	0.152513	7.37604e+06	-56289.1	1055.82	-29739.2	0.000000	0.000000	6.152787	-0.163659	NaN	0.000000	0.001564	0.001691	28.0845	0.020915	0.002071	10.0973	89.3835	15.8609	-0.164258	0.151136	-1.064259	-1.065635	-0.163659	10.0973	-1.052103	-1.139404E+14	1.436354E-15	NaN
1123	1.000000	0.162461	7.37604e+06	-56289.1	1055.82	-29739.2	0.000000	0.000000	6.162736	-0.138068	NaN	0.000000	0.001573	0.001638	28.0843	0.084826	0.001918	44.2334	6.635733	-168.292	-0.147372	0.161219	-1.054310	-1.055552	-0.138068	44.2334	-1.051969	-1.134714E+14	1.216762E-15	NaN
1123	1.000000	0.172544	7.37604e+06	-56289.1	1055.82	-29739.2	0.000000	0.000000	6.172822	-0.075000	NaN	0.000000	0.001561	0.001643	28.0844	0.136716	0.002019	67.7022	-94.8157	14.5103	-0.052093	0.171168	-1.044227	-1.045603	-0.075000	67.7022	-1.043396	-8.702231E+13	8.618441E-16	NaN
1123	1.000000	0.182525	7.37604e+06	-56289.1	1055.82	-29739.2	0.000000	0.000000	6.182804	-0.048685	NaN	0.000000	0.001573	0.001670	28.0841	0.026518	0.001990	13.3257	-47.5071	-165.428	-0.009424	0.181183	-1.034246	-1.035588	-0.048685	13.3257	-1.031506	-6.021928E+13	8.084547E-16	NaN
1123	1.000000	0.192518	7.37604e+06	-56289.1	1055.82	-29739.2	0.000000	0.000000	6.192798	-0.020160	NaN	0.000000	0.001596	0.001676	28.0843	0.054669	0.001971	27.734	108.151	17.2769	-0.033291	0.191155	-1.024253	-1.025617	-0.020160	27.734	-1.023708	-4.729819E+13	4.262277E-16	NaN
1123	1.000000	0.202510	7.37604e+06	-56289.1	1055.82	-29739.2	0.000000	0.000000	6.202791	-0.009084	NaN	0.000000	0.001603	0.001624	28.0837	0.083944	0.002031	41.3323	-160.694	-165.498	-0.090618	0.201231	-1.014261	-1.015541	-0.009084	41.3323	-1.014096	-3.511622E+13	2.586928E-16	NaN
1123	1.000000	0.212524	7.37604e+06	-56289.1	1055.82	-29739.2	0.000000	0.000000	6.212803	-0.065416	NaN	0.000000	0.001587	0.001639	28.083	0.121386	0.001992	60.9289	66.4859	15.2639	-0.055192	0.211200	-1.004247	-1.005571	-0.065416	60.9289	-1.003442	-2.524071E+13	2.591704E-15	NaN
1123	1.000000	0.222530	7.37604e+06	-56289.1	1055.82	-29739.2	0.000000	0.000000	6.222804	-0.168406	NaN	0.000000	0.001607	0.001663	28.0829	0.023246	0.002070	11.2283	-6.250320	-166.91	-0.079208	0.221250	-0.994242	-0.995521	-0.168406	11.2283	-0.982993	-1.338846E+13	1.257844E-14	NaN
1123	1.000000	0.232512	7.37604e+06	-56289.1	1055.82	-29739.2	0.000000	0.000000	6.232793	0.000862	NaN	0.000000	0.001543	0.001666	28.0826	0.075264	0.001901	39.5979	-148.001	14.3444	0.004389	0.231192	-0.984259	-0.985579	0.000862	39.5979	-0.984276	-1.393189E+13	-6.189302E-17	NaN
1123	1.000000	0.242558	7.37604e+06	-56289.1	1055.82	-29739.2	0.000000	0.000000	6.242839	-0.008693	NaN	0.000000	0.001601	0.001662	28.0826	0.085838	0.002066	41.5426	-163.351	-167.395	-0.030041	0.241287	-0.974214	-0.975484	-0.008693	41.5426	-0.974057	-1.014683E+13	8.567053E-16	NaN
1123	1.000000	0.252593	7.37604e+06	-56289.1	1055.82	-29739.2	0.000000	0.000000	6.252872	-0.060940	NaN	0.000000	0.001580	0.001680	28.083	0.015782	0.002017	7.824826	-175.209	10.7359	-0.093026	0.251156	-0.964178	-0.965615	-0.060940	7.824826	-0.958337	-6.229435E+12	9.782517E-15	NaN
1123	1.000000	0.262554	7.37604e+06	-56289.1	1055.82	-29739.2	0.000000	0.000000	6.262834	-0.033247	NaN	0.000000	0.001556	0.001659	28.0829	0.159289	0.002144	74.3111	-172.841	-166.615	-0.037948	0.261299	-0.954217	-0.955473	-0.033247	74.3111	-0.953882	-5.424696E+12	6.128796E-15	NaN
1123	1.000000	0.272567	7.37604e+06	-56289.1	1055.82	-29739.2	0.000000	0.000000	6.272847	-0.026559	NaN	0.000000	0.001602	0.001673	28.0829	0.021271	0.002040	10.4279	-32.7523	14.032	-0.072034	0.271235	-0.944204	-0.945537	-0.026559	10.4279	-0.942294	-3.785144E+12	7.016554E-15	NaN
1123	1.000000	0.282581	7.37604e+06	-56289.1	1055.82	-29739.2	0.000000	0.000000	6.282858	-0.089440	NaN	0.000000	0.001572	0.001652	28.0829	0.043602	0.002082	20.9465	-126.251	-164.314	0.051415	0.281260	-0.934191	-0.935512	-0.089440	20.9465	-0.930988	-2.663999E+12	3.357360E-14	NaN
1123	1.000000	0.292566	7.37604e+06	-56289.1	1055.82	-29739.2	0.000000	0.000000	6.292843	-0.091733	NaN	0.000000	0.001572	0.001667	28.0832	0.017051	0.001994	8.549061	107.966	14.558	-0.048934	0.291225	-0.924205	-0.925546	-0.091733	8.549061	-0.916158	-1.680052E+12	5.460148E-14	NaN
1123	1.000000	0.302559	7.37604e+06	-56289.1	1055.82	-29739.2	0.000000	0.000000	6.302838	-0.062634	NaN	0.000000	0.001569	0.001656	28.0831	0.078093	0.002134	36.587	34.7062	-165.155	0.021830	0.301289	-0.914212	-0.915483	-0.062634	36.587	-0.912928	-1.519538E+12	4.121893E-14	NaN
1123	1.000000	0.312573	7.37604e+06	-56289.1	1055.82	-29739.2	0.000000	0.000000	6.312852	-0.046708	NaN	0.000000	0.001587	0.001647	28.0831	0.087662	0.001941	45.1689	-79.8077	13.8448	-0.008140	0.311224	-0.904199	-0.905547	-0.046708	45.1689	-0.903423	-1.130618E+12	4.131211E-14	NaN
1123	1.000000	0.322607	7.37604e+06	-56289.1	1055.82	-29739.2	0.000000	0.000000	6.322888	-0.011222	NaN	0.000000	0.001586	0.001670	28.083	0.135395	0.001975	68.5531	95.5109	-164.953	-0.021976	0.321346	-0.894164	-0.895425	-0.011222	68.5531	-0.894041	-8.443827E+11	1.328973E-14	NaN
1123	1.000000	0.332577	7.37604e+06	-56289.1	1055.82	-29739.2	0.000000	0.000000	6.332855	-0.094028	NaN	0.000000	0.001603	0.001637	28.0833	0.087194	0.002067	42.1893	65.2079	12.7437	-0.080737	0.331179	-0.884194	-0.885592	-0.094028	42.1893	-0.882522	-5.899553E+11	1.593819E-13	NaN
1123	1.000000	0.342603	7.37604e+06	-56289.1	1055.82	-29739.2	0.000000	0.000000	6.342882	-0.059324	NaN	0.000000	0.001554	0.001641	28.0844	0.101708	0.001905	53.384	82.5725	-163.704	-0.008556	0.341295	-0.874168	-0.875476	-0.059324	53.384	-0.873335	-4.431574E+11	1.338664E-13	NaN
1123	1.000000	0.352600	7.37604e+06	-56289.1	1055.82	-29739.2	0.000000	0.000000	6.352877	-0.095162	NaN	0.000000	0.001592	0.001684	28.0843	0.036411	0.002140	17.0125	-48.1577	13.7415	-0.081924	0.351206	-0.864172	-0.865566	-0.095162	17.0125	-0.859976	-2.922807E+11	3.255845E-13	NaN
1123	1.000000	0.362618	7.37604e+06	-56289.1	1055.82	-29739.2	0.000000	0.000000	6.362892	-0.165708	NaN	0.000000	0.001648	0.001706	28.0847	0.026611	0.001950	13.6474	-67.4303	-164.803	-0.095990	0.361291	-0.854153	-0.855480	-0.165708	13.6474	-0.845047	-1.835088E+11	9.029966E-13	NaN
1123	1.000000	0.372610	7.37604e+06	-56289.1	1055.82	-29739.2	0.000000	0.000000	6.372888	-0.073071	NaN	0.000000	0.001607	0.001646	28.0848	0.072234	0.001993	36.2467	31.6399	9.914524	-0.023282	0.371214	-0.844161	-0.845558	-0.073071	36.2467	-0.842649	-1.702863E+11	4.291087E-13	NaN
1123	1.000000	0.382619	7.37604e+06	-56289.1	1055.82	-29739.2	0.000000	0.000000	6.382899	-0.028721	NaN	0.000000	0.001600	0.001686	28.0846	0.084400	0.001918	43.9994	115.699	-165.392	-0.008784	0.381312	-0.834153	-0.835459	-0.028721	43.9994	-0.833663	-1.286554E+11	2.232359E-13	NaN
1123	1.000000	0.392614	7.37604e+06	-56289.1	1055.82	-29739.2	0.000000	0.000000	6.392892	-0.061145	NaN	0.000000	0.001611	0.001691	28.0846	0.121307	0.001949	62.2276	10.072	14.7875	-0.068516	0.391240	-0.824158	-0.825531	-0.061145	62.2276	-0.823421	-9.345309E+10	6.542815E-13	NaN
1123	1.000000	0.402612	7.37604e+06	-56289.1	1055.82	-29739.2	0.000000	0.000000	6.402891	-0.051873	NaN	0.000000	0.001622	0.001682	28.0847	0.072218	0.002023	35.7016	91.0454	-168.101	-0.118234	0.401262	-0.814159	-0.815509	-0.051873	35.7016	-0.813070	-6.764197E+10	7.668760E-13	NaN
1123	1.000000	0.412607	7.37604e+06	-56289.1	1055.82	-29739.2	0.000000	0.000000	6.412885	-0.089984	NaN	0.000000	0.001577	0.001693	28.0844	0.035281	0.001998	17.6599	-160.572	12.326	-0.130737	0.411207	-0.804164	-0.805565	-0.089984	17.6599	-0.800343	-4.544793E+10	1.979930E-12	NaN
1123	1.000000	0.422625	7.37604e+06	-56289.1	1055.82	-29739.2	0.000000	0.000000	6.422904	-0.052952	NaN	0.000000	0.001605	0.001664	28.0844	0.073419	0.001956	37.5418	19.3136	-167.25	-0.087799	0.421281	-0.794146	-0.795491	-0.052952	37.5418	-0.793088	-3.622631E+10	1.461706E-12	NaN
1123	1.000000	0.432624	7.37604e+06	-56289.1	1055.82	-29739.2	0.000000	0.000000	6.432901	-0.092026	NaN	0.000000	0.001605	0.001638	28.0846	0.059283	0.001940	30.555	-121.439	14.5447	-0.094642	0.431278	-0.784147	-0.785493	-0.092026	30.555	-0.781888	-2.552063E+10	3.605951E-12	NaN
1123	1.000000	0.442621	7.37604e+06	-56289.1	1055.82	-29739.2	0.000000	0.000000	6.442898	-0.110075	NaN	0.000000	0.001544	0.001681	28.0846	0.025237	0.001953	12.9206	-6.831730	-165.958	-0.137475	0.441329	-0.774150	-0.775442	-0.110075	12.9206	-0.767761	-1.640048E+10	6.711676E-12	NaN
1123	1.000000	0.452624	7.37604e+06	-56289.1	1055.82	-29739.2	0.000000	0.000000	6.452904	-0.047169	NaN	0.000000	0.001521	0.001662	28.0844	0.026886	0.001959	13.7239	-76.5773	16.1746	-0.068313	0.451306	-0.764147	-0.765465	-0.047169	13.7239	-0.761569	-1.350978E+10	3.491438E-12	NaN
1123	1.000000	0.462653	7.37604e+06	-56289.1	1055.82	-29739.2	0.000000	0.000000	6.462932	-0.066288	NaN	0.000000	0.001521	0.001670	28.0843	0.021470	0.001957	10.9709	-105.572	-166.25	-0.075674	0.461340	-0.754118	-0.755431	-0.066288	10.9709	-0.749587	-9.280941E+9	7.142368E-12	NaN
1123	1.000000	0.472647	7.37604e+06	-56289.1	1055.82	-29739.2	0.000000	0.000000	6.472924	-0.088784	NaN	0.000000	0.001508	0.001678	28.0845	0.055726	0.001971	28.2754	52.8011	13.3585	-0.023999	0.471279	-0.744124	-0.745492	-0.088784	28.2754	-0.741769	-7.263655E+9	1.222303E-11	NaN
1123	1.000000	0.482640	7.37604e+06	-56289.1	1055.82	-29739.2	0.000000	0.000000	6.482920	-0.036754	NaN	0.000000	0.001537	0.001688	28.0831	0.044254	0.001773	24.9579	-51.3756	-169.905	0.021597	0.481304	-0.734131	-0.735467	-0.036754	24.9579	-0.733027	-5.521457E+9	6.656626E-12	NaN
1123	1.000000	0.492663	7.37604e+06	-56289.1	1055.82	-29739.2	0.000000	0.000000	6.492939	-0.115709	NaN	0.000000	0.001590	0.001684	28.0833	0.038300	0.001905	20.0998	-172.387	14.0509	-0.048030	0.491302	-0.724108	-0.725470	-0.115709	20.0998	-0.719791	-3.644344E+9	3.175031E-11	NaN
1123	1.000000	0.502656	7.37604e+06	-56289.1	1055.82	-29739.2	0.000000	0.000000	6.502935	-0.053914	NaN	0.000000	0.001565	0.001659	28.0835	0.122391	0.001968	62.1843	81.1762	-164.379	-0.002023	0.501305	-0.714115	-0.715466	-0.053914	62.1843	-0.713465	-2.987625E+9	1.804563E-11	NaN
1123	1.000000	0.512671	7.37604e+06	-56289.1	1055.82	-29739.2	0.000000	0.000000	6.512948	-0.098722	NaN	0.000000	0.001597	0.001642	28.0838	0.104250	0.002019	51.6335	97.6141	13.4637	-0.070690	0.511300	-0.704101	-0.705472	-0.098722	51.6335	-0.702667	-2.127868E+9	4.639480E-11	NaN
1123	1.000000	0.522671	7.37604e+06	-56289.1	1055.82	-29739.2	0.000000	0.000000	6.522946	-0.137386	NaN	0.000000	0.001611	0.001646	28.0832	0.099738	0.002010	49.6297	155.131	-166.165	-0.077577	0.521378	-0.694100	-0.695393	-0.137386	49.6297	-0.692024	-1.522578E+9	9.023223E-11	NaN
1123	1.000000	0.532673	7.37604e+06	-56289.1	1055.82	-29739.2	0.000000	0.000000	6.532951	-0.072840	NaN	0.000000	0.001570	0.001678	28.0832	0.089728	0.002019	44.4394	-142.8	11.1411	-0.068203	0.531272	-0.684098	-0.685499	-0.072840	44.4394	-0.682869	-1.141403E+9	6.381584E-11	NaN
1123	1.000000	0.542696	7.37604e+06	-56289.1	1055.82	-29739.2	0.000000	0.000000	6.542978	0.000543	NaN	0.000000	0.001567	0.001629	28.084	0.079709	0.001999	39.8739	5.298315	-168.367	-0.054333	0.541335	-0.674075	-0.675437	0.000543	39.8739	-0.674085	-8.655526E+8	-6.270126E-13	NaN
1123	1.000000	0.552670	7.37604e+06	-56289.1	1055.82	-29739.2	0.000000	0.000000	6.552949	-0.043709	NaN	0.000000	0.001571	0.001675	28.0835	0.070025	0.002057	34.0405	174.599	13.9952	0.019317	0.551318	-0.664101	-0.665453	-0.043709	34.0405	-0.663138	-6.129869E+8	7.130515E-11	NaN
1123	1.000000	0.562702	7.37604e+06	-56289.1	1055.82	-29739.2	0.000000	0.000000	6.562978	-0.125531	NaN	0.000000	0.001619	0.001655	28.0835	0.041004	0.001933	21.2165	-150.074	-166.904	-0.087037	0.561351	-0.654069	-0.655420	-0.125531	21.2165	-0.649631	-4.002981E+8	3.135943E-10	NaN
1123	1.000000	0.572674	7.37604e+06	-56289.1	1055.82	-29739.2	0.000000	0.000000	6.572952	-0.066216	NaN	0.000000	0.001594	0.001659	28.0835	0.120281	0.001983	60.6692	178.578	15.3706	-0.063720	0.571360	-0.644097	-0.645411	-0.066216	60.6692	-0.643279	-3.275432E+8	2.021585E-10	NaN
1123	1.000000	0.582681	7.37604e+06	-56289.1	1055.82	-29739.2	0.000000	0.000000	6.582961	-0.037568	NaN	0.000000	0.001615	0.001633	28.0836	0.046727	0.001992	23.4631	11.0875	-165.753	-0.101738	0.581369	-0.634090	-0.635402	-0.037568	23.4631	-0.632889	-2.358818E+8	1.592676E-10	NaN
1123	1.000000	0.592691	7.37604e+06	-56289.1	1055.82	-29739.2	0.000000	0.000000	6.592970	-0.055328	NaN	0.000000	0.001590	0.001629	28.0835	0.061194	0.001965	31.1411	-89.2709	12.8129	-0.085681	0.591274	-0.624080	-0.625498	-0.055328	31.1411	-0.622747	-1.711559E+8	3.232590E-10	NaN
1123	1.000000	0.602681	7.37604e+06	-56289.1	1055.82	-29739.2	0.000000	0.000000	6.602960	-0.053770	NaN	0.000000	0.001577	0.001626	28.0832	0.090090	0.002060	43.7261	-163.022	-166.927	-0.049367	0.601366	-0.614091	-0.615405	-0.053770	43.7261	-0.613168	-1.263858E+8	4.254425E-10	NaN
1123	1.000000	0.612699	7.37604e+06	-56289.1	1055.82	-29739.2	0.000000	0.000000	6.612977	-0.086261	NaN	0.000000	0.001591	0.001641	28.0836	0.026568	0.002065	12.8629	174.097	15.4449	-0.101500	0.611377	-0.604072	-0.605394	-0.086261	12.8629	-0.599043	-8.077454E+7	1.067927E-9	NaN
1123	1.000000	0.622727	7.37604e+06	-56289.1	1055.82	-29739.2	0.000000	0.000000	6.623006	-0.070928	NaN	0.000000	0.001586	0.001628	28.0846	0.095921	0.002051	46.7598	133.167	-168.876	-0.119422	0.621421	-0.594044	-0.595350	-0.070928	46.7598	-0.592906	-6.648525E+7	1.066824E-9	NaN
1123	1.000000	0.632733	7.37604e+06	-56289.1	1055.82	-29739.2	0.000000	0.000000	6.633012	-0.054078	NaN	0.000000	0.001587	0.001631	28.0842	0.075129	0.001947	38.5903	-58.6964	13.5787	-0.007018	0.631308	-0.584038	-0.585463	-0.054078	38.5903	-0.582987	-4.852221E+7	1.114506E-9	NaN
1123	1.000000	0.642735	7.37604e+06	-56289.1	1055.82	-29739.2	0.000000	0.000000	6.643015	-0.019055	NaN	0.000000	0.001592	0.001642	28.0844	0.071166	0.002025	35.1473	109.706	-166.663	-0.076365	0.641426	-0.574036	-0.575346	-0.019055	35.1473	-0.573630	-3.603926E+7	5.287318E-10	NaN
1123	1.000000	0.652726	7.37604e+06	-56289.1	1055.82	-29739.2	0.000000	0.000000	6.653003	-0.103736	NaN	0.000000	0.001610	0.001658	28.0847	0.145119	0.001958	74.1173	77.1846	15.991	-0.134450	0.651430	-0.564045	-0.565341	-0.103736	74.1173	-0.562995	-2.569254E+7	4.037600E-9	NaN
1123	1.000000	0.662724	7.37604e+06	-56289.1	1055.82	-29739.2	0.000000	0.000000	6.662999	-0.144464	NaN	0.000000	0.001608	0.001678	28.0847	0.089678	0.002092	42.8628	-179.327	-165.895	-0.117082	0.661452	-0.554047	-0.555319	-0.144464	42.8628	-0.551520	-1.782383E+7	8.105094E-9	NaN
1123	1.000000	0.672746	7.37604e+06	-56289.1	1055.82	-29739.2	0.000000	0.000000	6.673026	-0.037800	NaN	0.000000	0.001591	0.001631	28.0847	0.008944	0.002062	4.338328	-160.85	11.0854	0.008946	0.671407	-0.544025	-0.545364	-0.037800	4.338328	-0.537490	-1.139051E+7	3.318577E-9	NaN
1123	1.000000	0.682727	7.37604e+06	-56289.1	1055.82	-29739.2	0.000000	0.000000	6.683005	-0.082741	NaN	0.000000	0.001533	0.001657	28.0845	0.103249	0.002018	51.1755	23.9812	-166.346	-0.025234	0.681460	-0.534044	-0.535311	-0.082741	51.1755	-0.532831	-9.81489e+06	8.430171E-9	NaN
1123	1.000000	0.692752	7.37604e+06	-56289.1	1055.82	-29739.2	0.000000	0.000000	6.693031	-0.050633	NaN	0.000000	0.001636	0.001661	28.0846	0.052992	0.001972	26.8729	-6.947500	13.5944	-0.041351	0.691394	-0.524019	-0.525377	-0.050633	26.8729	-0.522606	-7.07672e+06	7.154877E-9	NaN
1123	1.000000	0.702739	7.37604e+06	-56289.1	1055.82	-29739.2	0.000000	0.000000	6.703018	-0.043522	NaN	0.000000	0.001630	0.001681	28.0845	0.129614	0.001949	66.4862	-75.5535	-168.009	-0.104885	0.701446	-0.514033	-0.515326	-0.043522	66.4862	-0.513542	-5.29338e+06	8.222000E-9	NaN
1123	1.000000	0.712758	7.37604e+06	-56289.1	1055.82	-29739.2	0.000000	0.000000	6.713036	-0.093787	NaN	0.000000	0.001646	0.001671	28.0844	0.073717	0.002050	35.9617	-166.301	12.5213	-0.056112	0.711381	-0.504013	-0.505390	-0.093787	35.9617	-0.502057	-3.66191e+06	2.561158E-8	NaN
1123	1.000000	0.722757	7.37604e+06	-56289.1	1055.82	-29739.2	0.000000	0.000000	6.723038	0.000774	NaN	0.000000	0.001620	0.001636	28.0843	0.068981	0.002006	34.3932	160.498	-167.235	-0.102148	0.721449	-0.494015	-0.495322	0.000774	34.3932	-0.494032	-2.82952e+06	-2.736538E-10	NaN
1123	1.000000	0.732783	7.37604e+06	-56289.1	1055.82	-29739.2	0.000000	0.000000	6.733062	-0.039670	NaN	0.000000	0.001619	0.001634	28.0844	0.075801	0.001937	39.1254	80.9023	13.7899	0.007677	0.731418	-0.483988	-0.485353	-0.039670	39.1254	-0.483228	-1.99849e+06	1.984979E-8	NaN
1123	1.000000	0.742759	7.37604e+06	-56289.1	1055.82	-29739.2	0.000000	0.000000	6.743040	-0.017535	NaN	0.000000	0.001626	0.001681	28.0845	0.100115	0.001939	51.6417	76.6351	-166.125	-0.033444	0.741470	-0.474012	-0.475301	-0.017535	51.6417	-0.473757	-1.4726e+06	1.190775E-8	NaN
1123	1.000000	0.752743	7.37604e+06	-56289.1	1055.82	-29739.2	0.000000	0.000000	6.753021	-0.075228	NaN	0.000000	0.001642	0.001666	28.0831	0.022239	0.002075	10.7153	-55.2122	11.3632	-0.045241	0.751397	-0.464029	-0.465374	-0.075228	10.7153	-0.458763	-907054	8.293643E-8	NaN
1123	1.000000	0.762764	7.37604e+06	-56289.1	1055.82	-29739.2	0.000000	0.000000	6.763044	-0.034536	NaN	0.000000	0.001626	0.001640	28.0832	0.052765	0.001913	27.585	-30.2308	-164.882	0.046601	0.761488	-0.454007	-0.455283	-0.034536	27.585	-0.453068	-754279	4.578726E-8	NaN
1123	1.000000	0.772793	7.37604e+06	-56289.1	1055.82	-29739.2	0.000000	0.000000	6.773071	-0.093351	NaN	0.000000	0.001619	0.001646	28.0829	0.101368	0.002032	49.8776	150.99	15.9097	-0.007360	0.771380	-0.443978	-0.445391	-0.093351	49.8776	-0.442574	-536645	1.739521E-7	NaN
1123	1.000000	0.782734	7.37604e+06	-56289.1	1055.82	-29739.2	0.000000	0.000000	6.783012	-0.084541	NaN	0.000000	0.001660	0.001676	28.0832	0.063323	0.002010	31.5035	71.1482	-163.429	0.009400	0.781515	-0.434037	-0.435256	-0.084541	31.5035	-0.432024	-380797	2.220102E-7	NaN
1123	1.000000	0.792771	7.37604e+06	-56289.1	1055.82	-29739.2	0.000000	0.000000	6.793048	-0.092833	NaN	0.000000	0.001594	0.001719	28.0831	0.036907	0.001967	18.7672	-14.6722	11.1337	-0.021930	0.791450	-0.424001	-0.425321	-0.092833	18.7672	-0.420291	-259739	3.574108E-7	NaN
1123	1.000000	0.802753	7.37604e+06	-56289.1	1055.82	-29739.2	0.000000	0.000000	6.803029	-0.121725	NaN	0.000000	0.001666	0.001677	28.0831	0.012171	0.001975	6.161612	-85.6548	-167.106	-0.191515	0.801494	-0.414018	-0.415277	-0.121725	6.161612	-0.399201	-130198	9.349229E-7	NaN
1123	1.000000	0.812792	7.37604e+06	-56289.1	1055.82	-29739.2	0.000000	0.000000	6.813071	-0.048165	NaN	0.000000	0.001630	0.001658	28.0829	0.062256	0.002018	30.8564	-161.411	11.9085	-0.088949	0.811423	-0.403980	-0.405348	-0.048165	30.8564	-0.402809	-146567	3.286235E-7	NaN
1123	1.000000	0.822809	7.37604e+06	-56289.1	1055.82	-29739.2	0.000000	0.000000	6.823088	-0.038367	NaN	0.000000	0.001616	0.001697	28.0831	0.066835	0.001966	33.9897	110.987	-166.44	-0.081622	0.821485	-0.393962	-0.395287	-0.038367	33.9897	-0.393116	-106590	3.599471E-7	NaN
1123	1.000000	0.832815	7.37604e+06	-56289.1	1055.82	-29739.2	0.000000	0.000000	6.833095	-0.047284	NaN	0.000000	0.001636	0.001675	28.0832	0.064231	0.002009	31.9702	-178.494	11.9097	-0.003575	0.831378	-0.383956	-0.385393	-0.047284	31.9702	-0.382846	-75983.7	6.222865E-7	NaN
1123	1.000000	0.842773	7.37604e+06	-56289.1	1055.82	-29739.2	0.000000	0.000000	6.843051	-0.092938	NaN	0.000000	0.001657	0.001709	28.0829	0.127669	0.002002	63.7708	98.6295	-168.503	-0.059851	0.841565	-0.373998	-0.375206	-0.092938	63.7708	-0.372905	-54694.1	1.699240E-6	NaN
1123	1.000000	0.852791	7.37604e+06	-56289.1	1055.82	-29739.2	0.000000	0.000000	6.853070	-0.040065	NaN	0.000000	0.001660	0.001683	28.0829	0.085389	0.002000	42.6908	147.51	14.9803	-0.032463	0.851420	-0.363981	-0.365351	-0.040065	42.6908	-0.363277	-39735.8	1.008284E-6	NaN
1123	1.000000	0.862825	7.37604e+06	-56289.1	1055.82	-29739.2	0.000000	0.000000	6.863104	-0.049408	NaN	0.000000	0.001652	0.001651	28.083	0.092374	0.002070	44.6213	31.3142	-166.282	-0.068259	0.861525	-0.353946	-0.355247	-0.049408	44.6213	-0.353116	-28326.4	1.744227E-6	NaN
1123	1.000000	0.872843	7.37604e+06	-56289.1	1055.82	-29739.2	0.000000	0.000000	6.873122	-0.046123	NaN	0.000000	0.001654	0.001707	28.0831	0.099486	0.001953	50.9494	53.928	13.8277	-0.041624	0.871445	-0.343928	-0.345326	-0.046123	50.9494	-0.343249	-20365	2.264841E-6	NaN
1123	1.000000	0.882816	7.37604e+06	-56289.1	1055.82	-29739.2	0.000000	0.000000	6.883093	-0.104493	NaN	0.000000	0.001680	0.001654	28.083	0.057431	0.002028	28.3194	49.5752	-165.343	-0.098052	0.881499	-0.333955	-0.335273	-0.104493	28.3194	-0.331188	-13578	7.695705E-6	NaN
1123	1.000000	0.892829	7.37604e+06	-56289.1	1055.82	-29739.2	0.000000	0.000000	6.893108	-0.066813	NaN	0.000000	0.001713	0.001702	28.0841	0.085144	0.001908	44.6209	19.3996	11.738	-0.027296	0.891472	-0.323942	-0.325300	-0.066813	44.6209	-0.322819	-10235.3	6.527753E-6	NaN
1123	1.000000	0.902813	7.37604e+06	-56289.1	1055.82	-29739.2	0.000000	0.000000	6.903092	-0.060020	NaN	0.000000	0.001705	0.001658	28.0845	0.069444	0.001920	36.1655	-172.439	-165.098	-0.011952	0.901476	-0.313958	-0.315295	-0.060020	36.1655	-0.312714	-7264.11	8.262495E-6	NaN
1123	1.000000	0.912804	7.37604e+06	-56289.1	1055.82	-29739.2	0.000000	0.000000	6.913083	-0.043660	NaN	0.000000	0.001708	0.001687	28.084	0.047302	0.002001	23.6398	26.6019	17.5182	-0.000485	0.911417	-0.303967	-0.305354	-0.043660	23.6398	-0.302582	-5140.96	8.492668E-6	NaN
1123	1.000000	0.922840	7.37604e+06	-56289.1	1055.82	-29739.2	0.000000	0.000000	6.923117	-0.109652	NaN	0.000000	0.001658	0.001666	28.0845	0.085541	0.002054	41.6437	151.428	-165.744	-0.083327	0.921480	-0.293931	-0.295291	-0.109652	41.6437	-0.291956	-3569.36	3.072049E-5	NaN
1123	1.000000	0.932864	7.37604e+06	-56289.1	1055.82	-29739.2	0.000000	0.000000	6.933142	-0.077194	NaN	0.000000	0.001613	0.001628	28.0843	0.084224	0.002117	39.781	-35.5127	14.7716	-0.015064	0.931500	-0.283907	-0.285272	-0.077194	39.781	-0.282452	-2569.94	3.003728E-5	NaN
1123	1.000000	0.942858	7.37604e+06	-56289.1	1055.82	-29739.2	0.000000	0.000000	6.943137	-0.065662	NaN	0.000000	0.001598	0.001672	28.0847	0.045736	0.001973	23.1824	146.723	-166.309	-0.132245	0.941561	-0.273913	-0.275210	-0.065662	23.1824	-0.271789	-1773.04	3.703385E-5	NaN
1123	1.000000	0.952840	7.37604e+06	-56289.1	1055.82	-29739.2	0.000000	0.000000	6.953122	0.013300	NaN	0.000000	0.001573	0.001701	28.0841	0.056670	0.002054	27.5881	131.487	15.6032	-0.012333	0.951459	-0.263931	-0.265312	0.013300	27.5881	-0.264293	-1363.3	-9.755738E-6	NaN
1123	1.000000	0.962874	7.37604e+06	-56289.1	1055.82	-29739.2	0.000000	0.000000	6.963151	-0.089529	NaN	0.000000	0.001614	0.001666	28.0844	0.142156	0.002005	70.8958	-20.6921	-165.312	-0.038381	0.961539	-0.253897	-0.255232	-0.089529	70.8958	-0.252950	-913.124	9.804731E-5	NaN
1123	1.000000	0.972850	7.37604e+06	-56289.1	1055.82	-29739.2	0.000000	0.000000	6.973128	-0.069230	NaN	0.000000	0.001618	0.001669	28.0843	0.142658	0.001907	74.8185	-178.871	16.0904	-0.077389	0.971470	-0.243922	-0.245301	-0.069230	74.8185	-0.243228	-645.481	0.000107	NaN
1123	1.000000	0.982861	7.37604e+06	-56289.1	1055.82	-29739.2	0.000000	0.000000	6.983139	-0.083635	NaN	0.000000	0.001612	0.001655	28.0844	0.118988	0.001888	63.0134	-137.856	-164.564	-0.087974	0.981577	-0.233910	-0.235194	-0.083635	63.0134	-0.232915	-445.114	0.000188	NaN
1123	1.000000	0.992858	7.37604e+06	-56289.1	1055.82	-29739.2	0.000000	0.000000	6.993138	-0.038361	NaN	0.000000	0.001654	0.001668	28.0844	0.034933	0.001878	18.5977	121.309	13.1875	-0.061305	0.991547	-0.223913	-0.225224	-0.038361	18.5977	-0.222366	-302.992	0.000127	NaN
1123	1.000000	1.002859	7.37604e+06	-56289.1	1055.82	-29739.2	0.000000	0.000000	7.003139	-0.023313	NaN	0.000000	0.001619	0.001639	28.0844	0.108005	0.002053	52.6205	105.282	-170.431	-0.095596	1.001619	-0.213912	-0.215152	-0.023313	52.6205	-0.213580	-219.106	0.000106	NaN
1123	1.000000	1.012854	7.37604e+06	-56289.1	1055.82	-29739.2	0.000000	0.000000	7.013129	-0.167700	NaN	0.000000	0.001605	0.001707	28.0847	0.099090	0.002022	48.9992	-144.092	10.2391	-0.139119	1.011482	-0.203917	-0.205289	-0.167700	48.9992	-0.201350	-138.631	0.001210	NaN
1123	1.000000	1.022882	7.37604e+06	-56289.1	1055.82	-29739.2	0.000000	0.000000	7.023162	-0.033195	NaN	0.000000	0.001587	0.001693	28.0834	0.035896	0.001957	18.3386	35.1875	-164.392	-0.089251	1.021577	-0.193889	-0.195194	-0.033195	18.3386	-0.192532	-99.1352	0.000335	NaN
1123	1.000000	1.032867	7.37604e+06	-56289.1	1055.82	-29739.2	0.000000	0.000000	7.033145	-0.082213	NaN	0.000000	0.001610	0.001665	28.0829	0.095491	0.002009	47.5418	-126.419	13.6113	-0.094222	1.031511	-0.183904	-0.185260	-0.082213	47.5418	-0.182607	-67.5627	0.001217	NaN
1123	1.000000	1.042897	7.37604e+06	-56289.1	1055.82	-29739.2	0.000000	0.000000	7.043179	0.026718	NaN	0.000000	0.001601	0.001660	28.0832	0.096681	0.002130	45.3969	-173.454	-166.209	0.023417	1.041571	-0.173874	-0.175200	0.026718	45.3969	-0.174316	-48.7768	-0.000548	NaN
1123	1.000000	1.052903	7.37604e+06	-56289.1	1055.82	-29739.2	0.000000	0.000000	7.053184	-0.009024	NaN	0.000000	0.001579	0.001707	28.0834	0.036791	0.002039	18.0397	19.2181	9.427502	-0.009492	1.051461	-0.163868	-0.165310	-0.009024	18.0397	-0.163493	-31.6081	0.000286	NaN
1123	1.000000	1.062903	7.37604e+06	-56289.1	1055.82	-29739.2	0.000000	0.000000	7.063181	-0.090676	NaN	0.000000	0.001580	0.001663	28.0831	0.066748	0.002065	32.32	-96.2841	-167.092	-0.067620	1.061634	-0.153868	-0.155137	-0.090676	32.32	-0.151764	-19.5028	0.004649	NaN
1123	1.000000	1.072891	7.37604e+06	-56289.1	1055.82	-29739.2	0.000000	0.000000	7.073170	-0.040738	NaN	0.000000	0.001603	0.001649	28.0831	0.079266	0.001994	39.7554	94.5789	17.0232	-0.045319	1.071524	-0.143880	-0.145247	-0.040738	39.7554	-0.143112	-13.525	0.003012	NaN
1123	1.000000	1.082887	7.37604e+06	-56289.1	1055.82	-29739.2	0.000000	0.000000	7.083168	-0.011655	NaN	0.000000	0.001608	0.001679	28.0831	0.068150	0.002055	33.1613	-53.4768	-164.25	-0.118112	1.081631	-0.133884	-0.135140	-0.011655	33.1613	-0.133621	-8.951525	0.001302	NaN
1123	1.000000	1.092872	7.37604e+06	-56289.1	1055.82	-29739.2	0.000000	0.000000	7.093149	-0.113980	NaN	0.000000	0.001600	0.001700	28.0833	0.021445	0.001985	10.804	-70.5687	15.5024	-0.070300	1.091575	-0.123899	-0.125196	-0.113980	10.804	-0.115987	-4.003147	0.028473	NaN
1123	1.000000	1.102924	7.37604e+06	-56289.1	1055.82	-29739.2	0.000000	0.000000	7.103202	-0.081843	NaN	0.000000	0.001601	0.001678	28.0831	0.147759	0.001985	74.4488	-104.993	-166.626	-0.075001	1.101568	-0.113847	-0.115203	-0.081843	74.4488	-0.113023	-3.476715	0.023540	NaN
1123	1.000000	1.112911	7.37604e+06	-56289.1	1055.82	-29739.2	0.000000	0.000000	7.113189	-0.062030	NaN	0.000000	0.001595	0.001679	28.0831	0.082910	0.002095	39.5755	159.764	13.9835	-0.040349	1.111570	-0.103860	-0.105201	-0.062030	39.5755	-0.102685	-2.093486	0.029630	NaN
1123	1.000000	1.122906	7.37604e+06	-56289.1	1055.82	-29739.2	0.000000	0.000000	7.123188	0.004912	NaN	0.000000	0.001576	0.001687	28.0833	0.042648	0.001964	21.712	-118.929	-164.844	-0.132520	1.121586	-0.093865	-0.095185	0.004912	21.712	-0.094035	-1.340789	-0.003663	NaN
1123	1.000000	1.132896	7.37604e+06	-56289.1	1055.82	-29739.2	0.000000	0.000000	7.133173	-0.087316	NaN	0.000000	0.001614	0.001670	28.0832	0.194930	0.001945	100.199	-115.03	16.917	-0.053714	1.131547	-0.083876	-0.085224	-0.087316	100.199	-0.083222	-0.743705	0.117406	NaN
1123	1.000000	1.142920	7.37604e+06	-56289.1	1055.82	-29739.2	0.000000	0.000000	7.143198	-0.065304	NaN	0.000000	0.001555	0.001666	28.0832	0.064714	0.002059	31.4304	4.114851	-168.188	-0.098817	1.141608	-0.073852	-0.075164	-0.065304	31.4304	-0.072293	-0.392494	0.166382	NaN
1123	1.000000	1.152899	7.37604e+06	-56289.1	1055.82	-29739.2	0.000000	0.000000	7.153177	-0.064487	NaN	0.000000	0.001548	0.001686	28.0833	0.127740	0.001939	65.8791	48.4796	13.3808	-0.077894	1.151552	-0.063872	-0.065219	-0.064487	65.8791	-0.063138	-0.221107	0.291654	NaN
1123	1.000000	1.162922	7.37604e+06	-56289.1	1055.82	-29739.2	0.000000	0.000000	7.163202	-0.016100	NaN	0.000000	0.001577	0.001688	28.0845	0.055856	0.002142	26.0773	-166.99	-166.332	-0.017084	1.161637	-0.053850	-0.055135	-0.016100	26.0773	-0.053387	-0.115333	0.139594	NaN
1123	1.000000	1.172935	7.37604e+06	-56289.1	1055.82	-29739.2	0.000000	0.000000	7.173214	-0.061543	NaN	0.000000	0.001587	0.001695	28.0844	0.051647	0.002012	25.6724	56.3902	11.194	-0.061906	1.171552	-0.043836	-0.045219	-0.061543	25.6724	-0.042038	-0.052173	1.179599	NaN
1123	1.000000	1.182952	7.37604e+06	-56289.1	1055.82	-29739.2	0.000000	0.000000	7.183231	-0.053223	NaN	0.000000	0.001627	0.001658	28.0843	0.054756	0.002027	27.0154	22.698	-165.823	-0.062435	1.181635	-0.033819	-0.035137	-0.053223	27.0154	-0.032341	-0.026802	1.985769	NaN
1123	1.000000	1.192908	7.37604e+06	-56289.1	1055.82	-29739.2	0.000000	0.000000	7.193184	-0.127855	NaN	0.000000	0.001628	0.001685	28.0847	0.073509	0.001912	38.4428	54.6039	12.0708	-0.081015	1.191523	-0.023863	-0.025249	-0.127855	38.4428	-0.021369	-0.013608	9.395313	NaN
1123	1.000000	1.202986	7.37604e+06	-56289.1	1055.82	-29739.2	0.000000	0.000000	7.203270	0.060101	NaN	0.000000	0.001618	0.001671	28.0844	0.163385	0.001986	82.2673	44.5614	-162.473	0.095385	1.201604	-0.013785	-0.015167	0.060101	82.2673	-0.014333	-0.008879	-6.768935	NaN
1123	1.000000	1.212979	7.37604e+06	-56289.1	1055.82	-29739.2	0.000000	0.000000	7.213262	0.050234	NaN	0.000000	0.001650	0.001673	28.0845	0.233850	0.002027	115.377	37.877	14.062	0.105922	1.211588	-0.003792	-0.005183	0.050234	115.377	-0.004119	-0.002856	-17.5921	NaN
1123	1.000000	1.222936	7.37604e+06	-56289.1	1055.82	-29739.2	0.000000	0.000000	7.223318	2.450526	NaN	0.000000	0.001670	0.001671	28.0843	3.434392	0.002070	1658.95	10.2789	-169.442	1.129549	1.221646	0.006164	0.004874	2.450526	1658.95	0.005056	0.004185	585.55	23429.3
1123	2.000000	1.229006	7.37604e+06	-56289.1	1055.82	-29739.2	0.000000	0.000000	7.229638	8.527764	NaN	0.000000	0.001634	0.001657	28.0856	9.014580	0.001500	6008.74	7.394725	6.099896	7.881258	1.228593	0.012235	0.011822	8.527764	6008.74	0.011170	0.010511	811.283	53545.7
1123	2.000000	1.231483	7.37604e+06	-56289.1	1055.82	-29739.2	0.000000	0.000000	7.232251	11.8283	NaN	0.000000	0.001624	0.001701	28.0842	12.2658	0.001820	6738.23	8.866053	-175.648	12.048	1.231179	0.014712	0.014408	11.8283	6738.23	0.013396	0.013205	895.729	53573.1
1123	2.000000	1.233993	7.37604e+06	-56289.1	1055.82	-29739.2	0.000000	0.000000	7.234945	16.31	NaN	0.000000	0.001613	0.001670	28.0843	14.763	0.001632	9044.41	7.676639	2.410126	15.9027	1.233609	0.017222	0.016838	16.31	9044.41	0.015869	0.016462	990.774	64404.2
1123	2.000000	1.236474	7.37604e+06	-56289.1	1055.82	-29739.2	0.000000	0.000000	7.237625	21.1624	NaN	0.000000	0.001580	0.001674	28.0842	16.8825	0.001779	9491.8	7.061764	-175.806	21.0046	1.236124	0.019702	0.019353	21.1624	9491.8	0.018030	0.019541	1082.97	62036.7
1123	2.000000	1.238940	7.37604e+06	-56289.1	1055.82	-29739.2	0.000000	0.000000	7.240238	24.7025	NaN	0.000000	0.001555	0.001670	28.0847	19.6585	0.001732	11348	8.035032	1.073003	24.3096	1.238558	0.022169	0.021787	24.7025	11348	0.020536	0.023392	1056.02	67788.9
1123	2.000000	1.241436	7.37604e+06	-56289.1	1055.82	-29739.2	0.000000	0.000000	7.242885	28.3836	NaN	0.000000	0.001560	0.001704	28.0842	22.1703	0.001705	13002.7	2.952830	-175.747	27.9001	1.241181	0.024665	0.024410	28.3836	13002.7	0.023028	0.027525	1031.2	71605.1
1123	2.000000	1.243920	7.37604e+06	-56289.1	1055.82	-29739.2	0.000000	0.000000	7.245757	37.8244	NaN	0.000000	0.001594	0.001666	28.0841	24.596	0.001788	13753.4	9.707368	-1.272253	36.5565	1.243519	0.027148	0.026748	37.8244	13753.4	0.025086	0.031172	1213.41	71170.5
1123	2.000000	1.246391	7.37604e+06	-56289.1	1055.82	-29739.2	0.000000	0.000000	7.248391	41.7905	NaN	0.000000	0.001590	0.001659	28.083	27.3086	0.001725	15833	12.1718	173.455	40.8709	1.246092	0.029620	0.029321	41.7905	15833	0.027640	0.035994	1161.03	76246.2
1123	2.000000	1.248841	7.37604e+06	-56289.1	1055.82	-29739.2	0.000000	0.000000	7.251245	51.603	NaN	0.000000	0.001573	0.001687	28.0831	30.1427	0.001786	16875.8	6.936381	-1.657392	49.0003	1.248485	0.032070	0.031714	51.603	16875.8	0.029776	0.040281	1281.06	76822.1
1123	2.000000	1.251378	7.37604e+06	-56289.1	1055.82	-29739.2	0.000000	0.000000	7.254028	57.5714	NaN	0.000000	0.001587	0.001690	28.083	32.9306	0.001924	17114.3	5.193097	179.842	55.7926	1.251114	0.034607	0.034343	57.5714	17114.3	0.032084	0.045174	1274.43	73567.6
1123	2.000000	1.253895	7.37604e+06	-56289.1	1055.82	-29739.2	0.000000	0.000000	7.257070	70.3425	NaN	0.000000	0.001610	0.001681	28.0835	34.5367	0.001695	20371	6.235341	-2.573689	69.7417	1.253465	0.037124	0.036694	70.3425	20371	0.034534	0.050666	1388.35	82685.1
1123	2.000000	1.256367	7.37604e+06	-56289.1	1055.82	-29739.2	0.000000	0.000000	7.259860	78.0825	NaN	0.000000	0.001624	0.001740	28.0833	36.4024	0.001767	20598.7	4.385379	179.527	76.983	1.255996	0.039595	0.039225	78.0825	20598.7	0.036752	0.055905	1396.69	79595.3
1123	2.000000	1.258857	7.37604e+06	-56289.1	1055.82	-29739.2	0.000000	0.000000	7.262642	85.176	NaN	0.000000	0.001597	0.001696	28.0829	39.4079	0.001796	21942.8	4.374545	-1.973349	81.2335	1.258491	0.042086	0.041720	85.176	21942.8	0.039174	0.061912	1375.75	80570.8
1123	2.000000	1.261424	7.37604e+06	-56289.1	1055.82	-29739.2	0.000000	0.000000	7.265494	92.0933	NaN	0.000000	0.001614	0.001639	28.0832	42.125	0.001878	22426.2	2.650220	-179.812	93.0021	1.261092	0.044652	0.044321	92.0933	22426.2	0.041573	0.068155	1351.22	78483.6
1123	2.000000	1.263929	7.37604e+06	-56289.1	1055.82	-29739.2	0.000000	0.000000	7.268575	106.096	NaN	0.000000	0.001627	0.001663	28.0832	44.9876	0.001795	25060.6	7.002540	-4.699566	106.057	1.263543	0.047158	0.046772	106.096	25060.6	0.043982	0.074725	1419.82	83759.1
1123	2.000000	1.266344	7.37604e+06	-56289.1	1055.82	-29739.2	0.000000	0.000000	7.271640	121.897	NaN	0.000000	0.001597	0.001667	28.0832	46.5702	0.001823	25539.6	5.163556	176.752	119.836	1.266025	0.049572	0.049254	121.897	25539.6	0.045993	0.080431	1515.54	82276.4
1123	2.000000	1.268768	7.37604e+06	-56289.1	1055.82	-29739.2	0.000000	0.000000	7.274384	129.67	NaN	0.000000	0.001568	0.001672	28.083	49.0287	0.001808	27122.4	3.236196	-2.424481	123.953	1.268564	0.051997	0.051793	129.67	27122.4	0.048411	0.087565	1480.85	83740.7
1123	2.000000	1.271347	7.37604e+06	-56289.1	1055.82	-29739.2	0.000000	0.000000	7.277450	141.512	NaN	0.000000	0.001583	0.001709	28.0831	51.3971	0.001757	29256.5	1.275714	179.278	138.92	1.271024	0.054575	0.054253	141.512	29256.5	0.050948	0.095365	1483.89	86556.7
1123	2.000000	1.273863	7.37604e+06	-56289.1	1055.82	-29739.2	0.000000	0.000000	7.280532	155.277	NaN	0.000000	0.001605	0.001677	28.0831	53.2677	0.001696	31411.7	6.879079	-6.540021	153.635	1.273505	0.057092	0.056734	155.277	31411.7	0.053384	0.103159	1505.22	89353.2
1123	2.000000	1.276303	7.37604e+06	-56289.1	1055.82	-29739.2	0.000000	0.000000	7.283603	170.609	NaN	0.000000	0.001615	0.001712	28.083	55.4505	0.001810	30643.7	3.340092	177.242	168.472	1.275996	0.059531	0.059224	170.609	30643.7	0.055356	0.109683	1555.47	84536.5
1123	2.000000	1.278859	7.37604e+06	-56289.1	1055.82	-29739.2	0.000000	0.000000	7.286773	185.524	NaN	0.000000	0.001601	0.001692	28.0838	58.3076	0.001743	33447.7	7.658890	-7.970160	183.815	1.278431	0.062088	0.061660	185.524	33447.7	0.057928	0.118484	1565.81	88779
1123	2.000000	1.281265	7.37604e+06	-56289.1	1055.82	-29739.2	0.000000	0.000000	7.289698	198.133	NaN	0.000000	0.001599	0.001644	28.0842	60.7206	0.001807	33609.5	1.869336	177.744	192.072	1.281005	0.064494	0.064234	198.133	33609.5	0.060073	0.126070	1571.61	86482.8
1123	2.000000	1.283857	7.37604e+06	-56289.1	1055.82	-29739.2	0.000000	0.000000	7.292530	203.991	NaN	0.000000	0.001604	0.001690	28.0841	64.1809	0.001795	35749.9	9.389230	-10.6735	201.63	1.283514	0.067086	0.066743	203.991	35749.9	0.062806	0.136062	1499.25	88548
1123	2.000000	1.286430	7.37604e+06	-56289.1	1055.82	-29739.2	0.000000	0.000000	7.295867	222.545	NaN	0.000000	0.001579	0.001710	28.0842	65.7244	0.001884	34882.4	3.944526	175.907	227.755	1.286032	0.069659	0.069261	222.545	34882.4	0.064874	0.143864	1546.91	84024
1123	2.000000	1.288907	7.37604e+06	-56289.1	1055.82	-29739.2	0.000000	0.000000	7.299145	242.022	NaN	0.000000	0.001606	0.001750	28.0841	68.664	0.001791	38344	5.740482	-6.405920	244.931	1.288409	0.072135	0.071638	242.022	38344	0.067401	0.153678	1574.86	89364.3
1123	2.000000	1.291289	7.37604e+06	-56289.1	1055.82	-29739.2	0.000000	0.000000	7.302061	255.021	NaN	0.000000	0.001611	0.001708	28.084	70.4677	0.001783	39515.1	0.030174	178.129	250.696	1.291118	0.074517	0.074347	255.021	39515.1	0.069677	0.162776	1566.7	89483
1123	2.000000	1.293954	7.37604e+06	-56289.1	1055.82	-29739.2	0.000000	0.000000	7.305254	267.819	NaN	0.000000	0.001586	0.001695	28.0841	71.966	0.001803	39914.2	1.315780	-3.049503	271.342	1.293779	0.077183	0.077008	267.819	39914.2	0.072151	0.172947	1548.56	87688.8
1123	2.000000	1.296306	7.37604e+06	-56289.1	1055.82	-29739.2	0.000000	0.000000	7.308496	289.472	NaN	0.000000	0.001631	0.001684	28.0842	74.4959	0.001838	40535.8	3.453097	174.809	290.224	1.296052	0.079535	0.079281	289.472	40535.8	0.074179	0.181501	1594.88	86930.5
1123	2.000000	1.298867	7.37604e+06	-56289.1	1055.82	-29739.2	0.000000	0.000000	7.311990	312.136	NaN	0.000000	0.001635	0.001715	28.0843	77.2886	0.001831	42204.5	5.186581	-6.771967	312.002	1.298379	0.082096	0.081608	312.136	42204.5	0.076549	0.191743	1627.89	88058.7
1123	2.000000	1.301316	7.37604e+06	-56289.1	1055.82	-29739.2	0.000000	0.000000	7.315071	327.505	NaN	0.000000	0.001577	0.001719	28.0839	79.7974	0.001864	42813.5	5.247999	172.679	327.225	1.300997	0.084545	0.084225	327.505	42813.5	0.078808	0.201751	1623.32	87085.7
1123	2.000000	1.303883	7.37604e+06	-56289.1	1055.82	-29739.2	0.000000	0.000000	7.318247	342.297	NaN	0.000000	0.001607	0.001669	28.0843	82.3956	0.001817	45339.5	10.4609	-12.824	344.206	1.303457	0.087112	0.086685	342.297	45339.5	0.081450	0.213758	1601.33	89596
1123	2.000000	1.306358	7.37604e+06	-56289.1	1055.82	-29739.2	0.000000	0.000000	7.321237	354.822	NaN	0.000000	0.001623	0.001719	28.0841	82.969	0.001710	48518.5	4.485011	172.65	355.914	1.305994	0.089587	0.089222	354.822	48518.5	0.084102	0.226137	1569.06	93216.8
1123	2.000000	1.308793	7.37604e+06	-56289.1	1055.82	-29739.2	0.000000	0.000000	7.324685	379.445	NaN	0.000000	0.001528	0.001701	28.0841	85.7827	0.001752	48968.6	2.440821	-5.791226	376.251	1.308517	0.092022	0.091746	379.445	48968.6	0.086210	0.236209	1606.39	92054
1123	2.000000	1.311372	7.37604e+06	-56289.1	1055.82	-29739.2	0.000000	0.000000	7.327456	384.112	NaN	0.000000	0.001585	0.001680	28.0842	89.2197	0.001736	51389.9	3.228078	172.707	385.324	1.311229	0.094601	0.094458	384.112	51389.9	0.088995	0.249829	1537.5	93935.3
1123	2.000000	1.313778	7.37604e+06	-56289.1	1055.82	-29739.2	0.000000	0.000000	7.331367	420.698	NaN	0.000000	0.001592	0.001689	28.0828	90.9919	0.001764	51580.4	6.435027	-9.321570	415.559	1.313308	0.097006	0.096536	420.698	51580.4	0.090889	0.259294	1622.47	92546.9
1123	2.000000	1.316202	7.37604e+06	-56289.1	1055.82	-29739.2	0.000000	0.000000	7.334884	447.277	NaN	0.000000	0.001574	0.001699	28.0828	93.2532	0.001698	54918.5	7.059681	168.991	442.093	1.315975	0.099430	0.099204	447.277	54918.5	0.093322	0.271695	1646.25	96261.2
1123	2.000000	1.318853	7.37604e+06	-56289.1	1055.82	-29739.2	0.000000	0.000000	7.337923	456.703	NaN	0.000000	0.001557	0.001664	28.0829	96.7193	0.001818	53199.1	5.634535	-8.984368	456.98	1.318447	0.102082	0.101676	456.703	53199.1	0.095643	0.283776	1609.38	91240.9
1123	2.000000	1.321266	7.37604e+06	-56289.1	1055.82	-29739.2	0.000000	0.000000	7.341121	475.783	NaN	0.000000	0.001590	0.001636	28.083	99.3237	0.001860	53406.2	6.350273	169.697	474.383	1.321103	0.104495	0.104332	475.783	53406.2	0.097813	0.295295	1611.21	89791.8
1123	2.000000	1.323809	7.37604e+06	-56289.1	1055.82	-29739.2	0.000000	0.000000	7.344836	504.255	NaN	0.000000	0.001614	0.001638	28.0829	101.56	0.001887	53811.9	7.129648	-10.8041	500.419	1.323389	0.107038	0.106618	504.255	53811.9	0.100010	0.307172	1641.6	88707.6
1123	2.000000	1.326161	7.37604e+06	-56289.1	1055.82	-29739.2	0.000000	0.000000	7.348165	528.011	NaN	0.000000	0.001632	0.001658	28.0829	102.941	0.001738	59243	4.016874	171.403	520.667	1.325941	0.109389	0.109169	528.011	59243	0.102705	0.322046	1639.55	95378.6