File: remote_trans/data/nanoindenter/0828-1/data/Data_2025-08-06,11h17m57s/2025-07-22_16-23-58_1_526.txt
2025-07-22, 16:23:58, 1
Index	Phase	Displacement	Time	Pos X	Pos Y	Pos Z	Rot A	Rot B	Piezo Z	Force A	Force B	Gripper	Voltage A	Voltage B	Temperature	Amplitude force	Amplitude pos	Stiffness	Phase shift	Phase excitation	Force A raw	Displacement raw	HMax	HMax raw	Real Force	Real Stiffness	Contact Depth	Area	Hardness	Reduced Mod.
[#]	[#]	[um]	[s]	[um]	[um]	[um]	[m°]	[m°]	[um]	[uN]	[uN]	[V]	[V]	[V]	[°C]	[uN]	[um]	[N/m]	[°]	[°]	[uN]	[um]	[um]	[um]	[uN]	[N/m]	[um]	[um^2]	[MPa]	[MPa]
526	1.000000	0.002011	7.37019e+06	-50789.1	1005.82	-29754.7	0.000000	0.000000	6.002810	0.112441	NaN	0.000000	0.001597	0.001770	28.0802	0.015174	0.000878	17.2736	142.649	-162.527	0.071116	0.000727	-0.948564	-0.949848	0.112441	17.2736	-0.953446	-5.351857E+12	-2.100972E-14	NaN
526	1.000000	0.009960	7.37019e+06	-50789.1	1005.82	-29754.7	0.000000	0.000000	6.010755	0.026285	NaN	0.000000	0.001582	0.001783	28.0797	0.041489	0.000918	45.2087	1.789159	-167.516	0.115907	0.008626	-0.940615	-0.941949	0.026285	45.2087	-0.941052	-3.641864E+12	-7.217356E-15	NaN
526	1.000000	0.017995	7.37019e+06	-50789.1	1005.82	-29754.7	0.000000	0.000000	6.018790	0.001368	NaN	0.000000	0.001619	0.001744	28.08	0.033494	0.001720	19.4749	-99.2456	-168.549	0.038797	0.016634	-0.932580	-0.933941	0.001368	19.4749	-0.932633	-2.803681E+12	-4.878131E-16	NaN
526	1.000000	0.026010	7.37019e+06	-50789.1	1005.82	-29754.7	0.000000	0.000000	6.026806	0.047482	NaN	0.000000	0.001621	0.001704	28.0798	0.008216	0.001847	4.447756	169.788	-164.715	0.053893	0.024631	-0.924565	-0.925944	0.047482	4.447756	-0.932572	-2.798371E+12	-1.696781E-14	NaN
526	1.000000	0.033969	7.37019e+06	-50789.1	1005.82	-29754.7	0.000000	0.000000	6.034761	-0.056582	NaN	0.000000	0.001608	0.001724	28.0799	0.027312	0.001950	14.0041	150.777	-165.578	0.015748	0.032651	-0.916607	-0.917924	-0.056582	14.0041	-0.913576	-1.550477E+12	3.649310E-14	NaN
526	1.000000	0.041946	7.37019e+06	-50789.1	1005.82	-29754.7	0.000000	0.000000	6.042739	-0.036356	NaN	0.000000	0.001591	0.001710	28.0802	0.100877	0.002076	48.6033	-134.964	-164.859	-0.074449	0.040657	-0.908629	-0.909918	-0.036356	48.6033	-0.908068	-1.306383E+12	2.782947E-14	NaN
526	1.000000	0.049951	7.37019e+06	-50789.1	1005.82	-29754.7	0.000000	0.000000	6.050745	0.002173	NaN	0.000000	0.001576	0.001702	28.0785	0.029550	0.002003	14.7551	103.807	-163.717	0.010543	0.048664	-0.900624	-0.901911	0.002173	14.7551	-0.900735	-1.039911E+12	-2.089735E-15	NaN
526	1.000000	0.057947	7.37019e+06	-50789.1	1005.82	-29754.7	0.000000	0.000000	6.058742	0.006184	NaN	0.000000	0.001592	0.001721	28.0788	0.082655	0.001996	41.401	-118.024	-165.234	0.090434	0.056692	-0.892628	-0.893884	0.006184	41.401	-0.892740	-8.108806E+11	-7.626106E-15	NaN
526	1.000000	0.065972	7.3702e+06	-50789.1	1005.82	-29754.7	0.000000	0.000000	6.066767	0.004242	NaN	0.000000	0.001562	0.001707	28.0784	0.063700	0.001900	33.5212	130.085	-164.074	0.046389	0.064630	-0.884603	-0.885946	0.004242	33.5212	-0.884698	-6.313025E+11	-6.719231E-15	NaN
526	1.000000	0.073988	7.3702e+06	-50789.1	1005.82	-29754.7	0.000000	0.000000	6.074781	-0.039174	NaN	0.000000	0.001567	0.001708	28.0785	0.071598	0.001998	35.8345	-175.355	-166.514	-0.028921	0.072637	-0.876587	-0.877939	-0.039174	35.8345	-0.875767	-4.780402E+11	8.194670E-14	NaN
526	1.000000	0.081969	7.3702e+06	-50789.1	1005.82	-29754.7	0.000000	0.000000	6.082764	0.018916	NaN	0.000000	0.001617	0.001710	28.0786	0.065816	0.002076	31.7052	-83.1391	-160.472	0.041079	0.080641	-0.868607	-0.869934	0.018916	31.7052	-0.869054	-3.878352E+11	-4.877443E-14	NaN
526	1.000000	0.089962	7.3702e+06	-50789.1	1005.82	-29754.7	0.000000	0.000000	6.090755	-0.025461	NaN	0.000000	0.001570	0.001717	28.0784	0.024534	0.002104	11.6596	-72.7799	-167.621	-0.047437	0.088640	-0.860613	-0.861936	-0.025461	11.6596	-0.858975	-2.833034E+11	8.987069E-14	NaN
526	1.000000	0.097981	7.3702e+06	-50789.1	1005.82	-29754.7	0.000000	0.000000	6.098775	0.000929	NaN	0.000000	0.001563	0.001735	28.0785	0.061020	0.002059	29.6395	-159.284	-166.677	-0.013866	0.096669	-0.852595	-0.853907	0.000929	29.6395	-0.852618	-2.323751E+11	-3.996611E-15	NaN
526	1.000000	0.105948	7.3702e+06	-50789.1	1005.82	-29754.7	0.000000	0.000000	6.106746	0.076519	NaN	0.000000	0.001566	0.001707	28.0785	0.091752	0.002091	43.8717	-55.0584	-169.626	-0.020217	0.104654	-0.844627	-0.845921	0.076519	43.8717	-0.845935	-1.886647E+11	-4.055844E-13	NaN
526	1.000000	0.113989	7.3702e+06	-50789.1	1005.82	-29754.7	0.000000	0.000000	6.114784	0.015861	NaN	0.000000	0.001591	0.001723	28.0787	0.070797	0.002063	34.3155	115.852	-165.804	-0.024448	0.112719	-0.836587	-0.837856	0.015861	34.3155	-0.836933	-1.424763E+11	-1.113206E-13	NaN
526	1.000000	0.121975	7.3702e+06	-50789.1	1005.82	-29754.7	0.000000	0.000000	6.122770	0.029588	NaN	0.000000	0.001609	0.001702	28.0788	0.039455	0.001991	19.8205	-116.825	-169.278	-0.046330	0.120732	-0.828601	-0.829844	0.029588	19.8205	-0.829720	-1.137606E+11	-2.600918E-13	NaN
526	1.000000	0.129961	7.3702e+06	-50789.1	1005.82	-29754.7	0.000000	0.000000	6.130754	-0.014538	NaN	0.000000	0.001584	0.001673	28.0785	0.042225	0.002026	20.8434	-174.964	-162.168	0.032497	0.128656	-0.820615	-0.821920	-0.014538	20.8434	-0.820092	-8.422753E+10	1.726011E-13	NaN
526	1.000000	0.137986	7.3702e+06	-50789.1	1005.82	-29754.7	0.000000	0.000000	6.138780	-0.019805	NaN	0.000000	0.001601	0.001720	28.0787	0.026021	0.002046	12.7183	90.5593	-166.769	0.026133	0.136658	-0.812589	-0.813917	-0.019805	12.7183	-0.811421	-6.424695E+10	3.082615E-13	NaN
526	1.000000	0.146002	7.3702e+06	-50789.1	1005.82	-29754.7	0.000000	0.000000	6.146797	0.019315	NaN	0.000000	0.001572	0.001745	28.0785	0.104391	0.001981	52.6963	35.1336	-165.931	0.086863	0.144672	-0.804574	-0.805904	0.019315	52.6963	-0.804848	-5.232014E+10	-3.691676E-13	NaN
526	1.000000	0.153973	7.3702e+06	-50789.1	1005.82	-29754.7	0.000000	0.000000	6.154766	-0.021423	NaN	0.000000	0.001607	0.001727	28.0788	0.095776	0.002037	47.0239	33.6054	-164.532	0.017185	0.152632	-0.796603	-0.797943	-0.021423	47.0239	-0.796261	-4.000390E+10	5.355187E-13	NaN
526	1.000000	0.162005	7.3702e+06	-50789.1	1005.82	-29754.7	0.000000	0.000000	6.162800	0.007051	NaN	0.000000	0.001644	0.001735	28.0787	0.055030	0.001926	28.576	93.7276	-161.065	-0.002365	0.160674	-0.788570	-0.789901	0.007051	28.576	-0.788755	-3.163569E+10	-2.228753E-13	NaN
526	1.000000	0.170007	7.3702e+06	-50789.1	1005.82	-29754.7	0.000000	0.000000	6.170801	-0.012710	NaN	0.000000	0.001658	0.001718	28.0786	0.063076	0.001979	31.8794	-116.895	-166.231	-0.016015	0.168672	-0.780568	-0.781904	-0.012710	31.8794	-0.780269	-2.426012E+10	5.239217E-13	NaN
526	1.000000	0.177981	7.3702e+06	-50789.1	1005.82	-29754.7	0.000000	0.000000	6.178774	-0.045455	NaN	0.000000	0.001621	0.001741	28.0787	0.020049	0.002067	9.700183	98.8445	-165.45	-0.094926	0.176718	-0.772594	-0.773857	-0.045455	9.700183	-0.769080	-1.709195E+10	2.659435E-12	NaN
526	1.000000	0.186052	7.3702e+06	-50789.1	1005.82	-29754.7	0.000000	0.000000	6.186846	-0.008591	NaN	0.000000	0.001596	0.001733	28.0795	0.081401	0.002199	37.0155	-145.528	-164.118	0.034897	0.184732	-0.764524	-0.765843	-0.008591	37.0155	-0.764350	-1.473899E+10	5.828421E-13	NaN
526	1.000000	0.194002	7.3702e+06	-50789.1	1005.82	-29754.7	0.000000	0.000000	6.194796	-0.014409	NaN	0.000000	0.001588	0.001727	28.0801	0.016645	0.002069	8.046076	140.778	-164.603	-0.082616	0.192663	-0.756573	-0.757912	-0.014409	8.046076	-0.755230	-1.107655E+10	1.300870E-12	NaN
526	1.000000	0.202029	7.3702e+06	-50789.1	1005.82	-29754.7	0.000000	0.000000	6.202821	-0.037847	NaN	0.000000	0.001630	0.001747	28.08	0.091057	0.001865	48.8354	69.8295	-166.026	-0.062878	0.200719	-0.748547	-0.749857	-0.037847	48.8354	-0.747965	-8.821104E+9	4.290478E-12	NaN
526	1.000000	0.210024	7.3702e+06	-50789.1	1005.82	-29754.7	0.000000	0.000000	6.210821	0.061149	NaN	0.000000	0.001648	0.001753	28.0799	0.068709	0.001985	34.6075	-49.6393	-163.754	0.122110	0.208765	-0.740551	-0.741810	0.061149	34.6075	-0.741876	-7.287999E+9	-8.390320E-12	NaN
526	1.000000	0.218014	7.3702e+06	-50789.1	1005.82	-29754.7	0.000000	0.000000	6.218806	-0.042981	NaN	0.000000	0.001645	0.001747	28.0798	0.027435	0.002014	13.6196	-47.2159	-165.959	-0.084635	0.216737	-0.732562	-0.733838	-0.042981	13.6196	-0.730195	-5.052009E+9	8.507621E-12	NaN
526	1.000000	0.226026	7.3702e+06	-50789.1	1005.82	-29754.7	0.000000	0.000000	6.226816	-0.085593	NaN	0.000000	0.001621	0.001742	28.0798	0.050277	0.001926	26.1012	-41.8872	-164.585	0.029209	0.224707	-0.724550	-0.725869	-0.085593	26.1012	-0.722090	-3.917224E+9	2.185030E-11	NaN
526	1.000000	0.234023	7.3702e+06	-50789.1	1005.82	-29754.7	0.000000	0.000000	6.234818	0.012029	NaN	0.000000	0.001631	0.001720	28.0796	0.067092	0.001953	34.358	-159.998	-164.14	0.049869	0.232721	-0.716552	-0.717855	0.012029	34.358	-0.716815	-3.319152E+9	-3.623990E-12	NaN
526	1.000000	0.242022	7.3702e+06	-50789.1	1005.82	-29754.7	0.000000	0.000000	6.242816	0.000434	NaN	0.000000	0.001602	0.001746	28.0799	0.082875	0.001958	42.3335	-127.43	-161.957	-0.014296	0.240674	-0.708554	-0.709901	0.000434	42.3335	-0.708562	-2.561041E+9	-1.696419E-13	NaN
526	1.000000	0.250023	7.3702e+06	-50789.1	1005.82	-29754.7	0.000000	0.000000	6.250818	0.012084	NaN	0.000000	0.001613	0.001708	28.0798	0.045583	0.001951	23.3638	117.425	-164.232	0.026959	0.248734	-0.700552	-0.701841	0.012084	23.3638	-0.700940	-2.015436E+9	-5.995806E-12	NaN
526	1.000000	0.258059	7.3702e+06	-50789.1	1005.82	-29754.7	0.000000	0.000000	6.258851	-0.047482	NaN	0.000000	0.001586	0.001696	28.0795	0.112459	0.001845	60.9414	-16.4111	-166.406	-0.038616	0.256759	-0.692517	-0.693816	-0.047482	60.9414	-0.691932	-1.518182E+9	3.127585E-11	NaN
526	1.000000	0.266031	7.3702e+06	-50789.1	1005.82	-29754.7	0.000000	0.000000	6.266828	0.065233	NaN	0.000000	0.001591	0.001707	28.0797	0.110527	0.002076	53.2335	129.71	-165.007	0.027571	0.264740	-0.684545	-0.685836	0.065233	53.2335	-0.685464	-1.238554E+9	-5.266908E-11	NaN
526	1.000000	0.274025	7.3702e+06	-50789.1	1005.82	-29754.7	0.000000	0.000000	6.274817	-0.063242	NaN	0.000000	0.001595	0.001698	28.0798	0.068260	0.002007	34.015	98.3206	-168.34	-0.066550	0.272761	-0.676550	-0.677814	-0.063242	34.015	-0.675156	-8.952495E+8	7.064162E-11	NaN
526	1.000000	0.282053	7.3702e+06	-50789.1	1005.82	-29754.7	0.000000	0.000000	6.282849	0.045043	NaN	0.000000	0.001603	0.001691	28.0797	0.163460	0.002012	81.2355	-127.771	-166.988	0.097665	0.280695	-0.668523	-0.669880	0.045043	81.2355	-0.668939	-7.359723E+8	-6.120255E-11	NaN
526	1.000000	0.290044	7.3702e+06	-50789.1	1005.82	-29754.7	0.000000	0.000000	6.290837	-0.021160	NaN	0.000000	0.001587	0.001685	28.0797	0.072982	0.001970	37.0452	-140.66	-169.073	0.015264	0.288706	-0.660531	-0.661869	-0.021160	37.0452	-0.660103	-5.570291E+8	3.798802E-11	NaN
526	1.000000	0.298056	7.3702e+06	-50789.1	1005.82	-29754.7	0.000000	0.000000	6.298848	-0.040915	NaN	0.000000	0.001556	0.001712	28.0796	0.059076	0.001993	29.6409	64.0437	-167.734	0.041561	0.296734	-0.652520	-0.653841	-0.040915	29.6409	-0.651484	-4.244098E+8	9.640492E-11	NaN
526	1.000000	0.306071	7.3702e+06	-50789.1	1005.82	-29754.7	0.000000	0.000000	6.306866	0.018868	NaN	0.000000	0.001643	0.001747	28.0799	0.055537	0.002058	26.9805	-114.938	-166.578	0.033912	0.304775	-0.644504	-0.645800	0.018868	26.9805	-0.645029	-3.461545E+8	-5.450730E-11	NaN
526	1.000000	0.314053	7.3702e+06	-50789.1	1005.82	-29754.7	0.000000	0.000000	6.314846	-0.019140	NaN	0.000000	0.001580	0.001767	28.0799	0.062444	0.001991	31.3559	132.784	-161.343	-0.038744	0.312793	-0.636522	-0.637782	-0.019140	31.3559	-0.636065	-2.607859E+8	7.339200E-11	NaN
526	1.000000	0.322055	7.3702e+06	-50789.1	1005.82	-29754.7	0.000000	0.000000	6.322849	-0.019222	NaN	0.000000	0.001612	0.001745	28.0786	0.085478	0.002066	41.379	48.8613	-162.606	-0.031036	0.320751	-0.628520	-0.629825	-0.019222	41.379	-0.628172	-2.031962E+8	9.459618E-11	NaN
526	1.000000	0.330084	7.3702e+06	-50789.1	1005.82	-29754.7	0.000000	0.000000	6.330879	0.023133	NaN	0.000000	0.001606	0.001719	28.0784	0.094781	0.001980	47.8642	-176.218	-166.613	0.087543	0.328792	-0.620491	-0.621784	0.023133	47.8642	-0.620854	-1.612019E+8	-1.435028E-10	NaN
526	1.000000	0.338080	7.3702e+06	-50789.1	1005.82	-29754.7	0.000000	0.000000	6.338872	-0.049926	NaN	0.000000	0.001603	0.001735	28.0783	0.086460	0.001983	43.5927	21.8809	-164.017	-0.037894	0.336802	-0.612495	-0.613773	-0.049926	43.5927	-0.611636	-1.204001E+8	4.146713E-10	NaN
526	1.000000	0.346113	7.3702e+06	-50789.1	1005.82	-29754.7	0.000000	0.000000	6.346908	0.034889	NaN	0.000000	0.001607	0.001732	28.0786	0.008955	0.001971	4.542920	-95.2704	-167.938	-0.026847	0.344765	-0.604463	-0.605810	0.034889	4.542920	-0.610223	-1.151271E+8	-3.030449E-10	NaN
526	1.000000	0.354062	7.3702e+06	-50789.1	1005.82	-29754.7	0.000000	0.000000	6.354855	-0.044602	NaN	0.000000	0.001607	0.001736	28.0785	0.115091	0.001932	59.5631	-53.0186	-166.761	-0.047231	0.352773	-0.596513	-0.597803	-0.044602	59.5631	-0.595951	-7.323004E+7	6.090726E-10	NaN
526	1.000000	0.362105	7.3702e+06	-50789.1	1005.82	-29754.7	0.000000	0.000000	6.362900	0.016081	NaN	0.000000	0.001635	0.001746	28.0786	0.080060	0.002020	39.639	71.8983	-163.925	-0.001237	0.360802	-0.588470	-0.589773	0.016081	39.639	-0.588774	-5.831307E+7	-2.757740E-10	NaN
526	1.000000	0.370079	7.3702e+06	-50789.1	1005.82	-29754.7	0.000000	0.000000	6.370873	-0.008677	NaN	0.000000	0.001599	0.001714	28.0785	0.015631	0.002092	7.473181	-54.9936	-162.886	-0.036548	0.368846	-0.580496	-0.581729	-0.008677	7.473181	-0.579625	-4.360706E+7	1.989804E-10	NaN
526	1.000000	0.378100	7.3702e+06	-50789.1	1005.82	-29754.7	0.000000	0.000000	6.378893	-0.036434	NaN	0.000000	0.001616	0.001731	28.0785	0.064074	0.001980	32.3587	5.901303	-162.824	0.036072	0.376804	-0.572475	-0.573771	-0.036434	32.3587	-0.571631	-3.381906E+7	1.077319E-9	NaN
526	1.000000	0.386079	7.3702e+06	-50789.1	1005.82	-29754.7	0.000000	0.000000	6.386874	0.018494	NaN	0.000000	0.001596	0.001717	28.0785	0.078165	0.001923	40.6463	-20.1469	-165.943	-0.059925	0.384794	-0.564497	-0.565781	0.018494	40.6463	-0.564838	-2.724494E+7	-6.788231E-10	NaN
526	1.000000	0.394077	7.3702e+06	-50789.1	1005.82	-29754.7	0.000000	0.000000	6.394873	0.026139	NaN	0.000000	0.001589	0.001741	28.0785	0.071002	0.002083	34.0834	-113.26	-166.656	0.000375	0.392787	-0.556498	-0.557788	0.026139	34.0834	-0.557073	-2.127565E+7	-1.228566E-9	NaN
526	1.000000	0.402103	7.3702e+06	-50789.1	1005.82	-29754.7	0.000000	0.000000	6.402894	-0.074487	NaN	0.000000	0.001544	0.001724	28.0785	0.079340	0.001965	40.3812	-177.145	-163.467	-0.008331	0.400806	-0.548472	-0.549769	-0.074487	40.3812	-0.547089	-1.547488E+7	4.813404E-9	NaN
526	1.000000	0.410131	7.3702e+06	-50789.1	1005.82	-29754.7	0.000000	0.000000	6.410928	0.061186	NaN	0.000000	0.001538	0.001781	28.0786	0.053783	0.001916	28.0685	117.245	-166.558	-0.003891	0.408878	-0.540444	-0.541697	0.061186	28.0685	-0.542079	-1.318829E+7	-4.639393E-9	NaN
526	1.000000	0.418106	7.3702e+06	-50789.1	1005.82	-29754.7	0.000000	0.000000	6.418898	-0.051637	NaN	0.000000	0.001557	0.001730	28.0783	0.074333	0.002054	36.1882	-179.828	-164.297	-0.056253	0.416785	-0.532469	-0.533791	-0.051637	36.1882	-0.531399	-9.37564e+06	5.507526E-9	NaN
526	1.000000	0.426092	7.3702e+06	-50789.1	1005.82	-29754.7	0.000000	0.000000	6.426888	0.036547	NaN	0.000000	0.001588	0.001739	28.0786	0.065071	0.001958	33.2345	-171.846	-164.324	0.030774	0.424802	-0.524483	-0.525773	0.036547	33.2345	-0.525308	-7.71591e+06	-4.736549E-9	NaN
526	1.000000	0.434129	7.3702e+06	-50789.1	1005.82	-29754.7	0.000000	0.000000	6.434923	0.006224	NaN	0.000000	0.001561	0.001734	28.0784	0.064468	0.002012	32.044	12.2172	-162.089	-0.022169	0.432782	-0.516446	-0.517794	0.006224	32.044	-0.516592	-5.837e+06	-1.066322E-9	NaN
526	1.000000	0.442118	7.3702e+06	-50789.1	1005.82	-29754.7	0.000000	0.000000	6.442914	0.046253	NaN	0.000000	0.001563	0.001718	28.0784	0.088843	0.001999	44.4477	92.3065	-166.585	-0.033846	0.440785	-0.508457	-0.509790	0.046253	44.4477	-0.509238	-4.61101e+06	-1.003090E-8	NaN
526	1.000000	0.450110	7.3702e+06	-50789.1	1005.82	-29754.7	0.000000	0.000000	6.450903	-0.023445	NaN	0.000000	0.001572	0.001693	28.0785	0.153364	0.001953	78.5227	34.3764	-166.064	-0.010492	0.448786	-0.500465	-0.501789	-0.023445	78.5227	-0.500242	-3.45452e+06	6.786703E-9	NaN
526	1.000000	0.458137	7.3702e+06	-50789.1	1005.82	-29754.7	0.000000	0.000000	6.458929	-0.042494	NaN	0.000000	0.001528	0.001702	28.0796	0.045752	0.001895	24.1499	170.727	-164.908	-0.054002	0.456804	-0.492439	-0.493772	-0.042494	24.1499	-0.491119	-2.57649e+06	1.649304E-8	NaN
526	1.000000	0.466142	7.3702e+06	-50789.1	1005.82	-29754.7	0.000000	0.000000	6.466935	-0.021557	NaN	0.000000	0.001537	0.001710	28.0799	0.046397	0.002006	23.1298	34.723	-165.836	-0.045966	0.464795	-0.484433	-0.485780	-0.021557	23.1298	-0.483734	-2.03135e+06	1.061226E-8	NaN
526	1.000000	0.474138	7.3702e+06	-50789.1	1005.82	-29754.7	0.000000	0.000000	6.474931	-0.034191	NaN	0.000000	0.001475	0.001698	28.0797	0.097231	0.002076	46.8331	57.329	-165.022	-0.048566	0.472840	-0.476437	-0.477736	-0.034191	46.8331	-0.475889	-1.57747e+06	2.167461E-8	NaN
526	1.000000	0.482161	7.3702e+06	-50789.1	1005.82	-29754.7	0.000000	0.000000	6.482953	-0.041581	NaN	0.000000	0.001494	0.001719	28.0795	0.062162	0.001839	33.8021	-21.3099	-164.577	-0.104173	0.480838	-0.468415	-0.469738	-0.041581	33.8021	-0.467492	-1.20288e+06	3.456758E-8	NaN
526	1.000000	0.490144	7.3702e+06	-50789.1	1005.82	-29754.7	0.000000	0.000000	6.490938	-0.017065	NaN	0.000000	0.001543	0.001705	28.0797	0.103239	0.001919	53.7874	92.6242	-167.151	-0.016254	0.488812	-0.460431	-0.461764	-0.017065	53.7874	-0.460193	-950025	1.796235E-8	NaN
526	1.000000	0.498146	7.3702e+06	-50789.1	1005.82	-29754.7	0.000000	0.000000	6.498940	-0.006834	NaN	0.000000	0.001494	0.001704	28.0799	0.160614	0.002006	80.0728	-50.0676	-165.033	-0.063624	0.496860	-0.452430	-0.453716	-0.006834	80.0728	-0.452366	-737304	9.268550E-9	NaN
526	1.000000	0.506112	7.3702e+06	-50789.1	1005.82	-29754.7	0.000000	0.000000	6.506907	0.025996	NaN	0.000000	0.001579	0.001677	28.0798	0.114859	0.001885	60.9262	-86.9176	-164.027	0.025393	0.504821	-0.444463	-0.445755	0.025996	60.9262	-0.444783	-576550	-4.508866E-8	NaN
526	1.000000	0.514149	7.3702e+06	-50789.1	1005.82	-29754.7	0.000000	0.000000	6.514940	-0.073132	NaN	0.000000	0.001525	0.001781	28.0797	0.036401	0.002081	17.4893	94.1025	-165.502	0.025079	0.512870	-0.436427	-0.437705	-0.073132	17.4893	-0.433291	-396823	1.842946E-7	NaN
526	1.000000	0.522157	7.3702e+06	-50789.1	1005.82	-29754.7	0.000000	0.000000	6.522951	-0.004913	NaN	0.000000	0.001558	0.001775	28.0797	0.046928	0.001880	24.959	-14.1889	-164.028	-0.036282	0.520812	-0.428418	-0.429764	-0.004913	24.959	-0.428270	-336967	1.458113E-8	NaN
526	1.000000	0.530139	7.3702e+06	-50789.1	1005.82	-29754.7	0.000000	0.000000	6.530934	0.012737	NaN	0.000000	0.001537	0.001775	28.0798	0.065733	0.001930	34.0553	45.9336	-162.264	-0.046336	0.528801	-0.420436	-0.421774	0.012737	34.0553	-0.420717	-263380	-4.835936E-8	NaN
526	1.000000	0.538153	7.3702e+06	-50789.1	1005.82	-29754.7	0.000000	0.000000	6.538947	-0.010628	NaN	0.000000	0.001529	0.001768	28.0798	0.112715	0.001920	58.6978	0.238484	-166.11	-0.116071	0.536843	-0.412422	-0.413732	-0.010628	58.6978	-0.412287	-199943	5.315271E-8	NaN
526	1.000000	0.546192	7.3702e+06	-50789.1	1005.82	-29754.7	0.000000	0.000000	6.546984	-0.037251	NaN	0.000000	0.001521	0.001753	28.0796	0.110508	0.001941	56.9406	126.998	-167.272	-0.006286	0.544858	-0.404384	-0.405717	-0.037251	56.9406	-0.403893	-151874	2.452759E-7	NaN
526	1.000000	0.554150	7.3702e+06	-50789.1	1005.82	-29754.7	0.000000	0.000000	6.554945	0.009651	NaN	0.000000	0.001487	0.001752	28.0797	0.016227	0.002037	7.964827	17.4941	-165.704	0.053416	0.552862	-0.396425	-0.397713	0.009651	7.964827	-0.397334	-122450	-7.881324E-8	NaN
526	1.000000	0.562168	7.3702e+06	-50789.1	1005.82	-29754.7	0.000000	0.000000	6.562962	-0.020410	NaN	0.000000	0.001494	0.001711	28.0798	0.074085	0.001939	38.2179	-129.44	-163.947	-0.014026	0.560827	-0.388407	-0.389749	-0.020410	38.2179	-0.388006	-90082.6	2.265724E-7	NaN
526	1.000000	0.570170	7.3702e+06	-50789.1	1005.82	-29754.7	0.000000	0.000000	6.570964	0.002190	NaN	0.000000	0.001531	0.001742	28.0799	0.185677	0.001990	93.2823	164.823	-166.33	-0.002888	0.568866	-0.380406	-0.381710	0.002190	93.2823	-0.380423	-70139.9	-3.122846E-8	NaN
526	1.000000	0.578179	7.3702e+06	-50789.1	1005.82	-29754.7	0.000000	0.000000	6.578973	-0.005372	NaN	0.000000	0.001585	0.001727	28.0798	0.082708	0.001938	42.6837	-140.905	-164.719	-0.075764	0.576843	-0.372396	-0.373732	-0.005372	42.6837	-0.372302	-53612.2	1.001968E-7	NaN
526	1.000000	0.586192	7.3702e+06	-50789.1	1005.82	-29754.7	0.000000	0.000000	6.586984	-0.050167	NaN	0.000000	0.001542	0.001724	28.0797	0.089912	0.002090	43.0245	-157.62	-163.218	-0.055090	0.584920	-0.364383	-0.365655	-0.050167	43.0245	-0.363509	-40043.8	1.252806E-6	NaN
526	1.000000	0.594168	7.3702e+06	-50789.1	1005.82	-29754.7	0.000000	0.000000	6.594959	-0.058853	NaN	0.000000	0.001587	0.001752	28.0793	0.083930	0.002049	40.9672	26.2175	-166.046	-0.150510	0.592843	-0.356408	-0.357732	-0.058853	40.9672	-0.355330	-30498.7	1.929676E-6	NaN
526	1.000000	0.602166	7.3702e+06	-50789.1	1005.82	-29754.7	0.000000	0.000000	6.602960	-0.010043	NaN	0.000000	0.001575	0.001745	28.0788	0.115737	0.001923	60.1735	-137.301	-165.38	-0.024282	0.600840	-0.348409	-0.349735	-0.010043	60.1735	-0.348284	-24103.9	4.166464E-7	NaN
526	1.000000	0.610190	7.3702e+06	-50789.1	1005.82	-29754.7	0.000000	0.000000	6.610983	-0.021413	NaN	0.000000	0.001593	0.001766	28.0788	0.098240	0.001916	51.2847	-63.5273	-163.398	-0.003166	0.608846	-0.340386	-0.341729	-0.021413	51.2847	-0.340072	-18306.7	1.169703E-6	NaN
526	1.000000	0.618177	7.3702e+06	-50789.1	1005.82	-29754.7	0.000000	0.000000	6.618971	-0.016214	NaN	0.000000	0.001576	0.001765	28.0786	0.031015	0.001937	16.0125	163.421	-167.668	-0.069448	0.616868	-0.332398	-0.333708	-0.016214	16.0125	-0.331639	-13786	1.176154E-6	NaN
526	1.000000	0.626172	7.3702e+06	-50789.1	1005.82	-29754.7	0.000000	0.000000	6.626968	0.022984	NaN	0.000000	0.001586	0.001760	28.0789	0.107901	0.002055	52.4965	162.191	-166.934	-0.019283	0.624893	-0.324403	-0.325683	0.022984	52.4965	-0.324731	-10919.3	-2.104877E-6	NaN
526	1.000000	0.634195	7.3702e+06	-50789.1	1005.82	-29754.7	0.000000	0.000000	6.634996	0.163975	NaN	0.000000	0.001628	0.001741	28.0789	0.109210	0.002067	52.84	50.2746	-162.452	0.033797	0.632906	-0.316381	-0.317669	0.163975	52.84	-0.318708	-8904.68	-1.841448E-5	NaN
526	1.000000	0.642195	7.3702e+06	-50789.1	1005.82	-29754.7	0.000000	0.000000	6.642990	0.008094	NaN	0.000000	0.001573	0.001778	28.0787	0.084652	0.002070	40.8975	-100.023	-166.176	0.011974	0.640857	-0.308380	-0.309719	0.008094	40.8975	-0.308529	-6299.03	-1.284967E-6	NaN
526	1.000000	0.650206	7.3702e+06	-50789.1	1005.82	-29754.7	0.000000	0.000000	6.650998	-0.033910	NaN	0.000000	0.001558	0.001742	28.0786	0.022754	0.001989	11.4421	10.582	-165.19	-0.031466	0.648858	-0.300370	-0.301718	-0.033910	11.4421	-0.298147	-4416.09	7.678680E-6	NaN
526	1.000000	0.658225	7.3702e+06	-50789.1	1005.82	-29754.7	0.000000	0.000000	6.659022	0.064763	NaN	0.000000	0.001535	0.001788	28.0789	0.100318	0.001929	52.0128	-70.3878	-163.463	0.039033	0.656868	-0.292350	-0.293708	0.064763	52.0128	-0.293284	-3736.39	-1.733295E-5	NaN
526	1.000000	0.666233	7.3702e+06	-50789.1	1005.82	-29754.7	0.000000	0.000000	6.667025	-0.056473	NaN	0.000000	0.001548	0.001780	28.0785	0.072994	0.002008	36.3494	49.0102	-165.133	-0.070868	0.664904	-0.284342	-0.285672	-0.056473	36.3494	-0.283177	-2635.37	2.142894E-5	NaN
526	1.000000	0.674204	7.3702e+06	-50789.1	1005.82	-29754.7	0.000000	0.000000	6.674998	-0.016878	NaN	0.000000	0.001567	0.001752	28.0787	0.080994	0.001885	42.966	136.759	-167.891	0.008493	0.672852	-0.276371	-0.277723	-0.016878	42.966	-0.276077	-2059.2	8.196620E-6	NaN
526	1.000000	0.682207	7.3702e+06	-50789.1	1005.82	-29754.7	0.000000	0.000000	6.683001	-0.001297	NaN	0.000000	0.001553	0.001785	28.0786	0.007652	0.002087	3.666519	117.943	-165.218	0.046922	0.680931	-0.268368	-0.269645	-0.001297	3.666519	-0.268103	-1558.44	8.319362E-7	NaN
526	1.000000	0.690238	7.3702e+06	-50789.1	1005.82	-29754.7	0.000000	0.000000	6.691033	0.029499	NaN	0.000000	0.001552	0.001763	28.0787	0.063126	0.002052	30.7671	118.802	-164.543	0.022595	0.688899	-0.260337	-0.261676	0.029499	30.7671	-0.261057	-1216.48	-2.424976E-5	NaN
526	1.000000	0.698234	7.3702e+06	-50789.1	1005.82	-29754.7	0.000000	0.000000	6.699029	0.030166	NaN	0.000000	0.001559	0.001773	28.0786	0.079704	0.002101	37.9409	172.157	-165.928	0.055922	0.696914	-0.252341	-0.253661	0.030166	37.9409	-0.252938	-912.723	-3.305076E-5	NaN
526	1.000000	0.706218	7.3702e+06	-50789.1	1005.82	-29754.7	0.000000	0.000000	6.707009	-0.071089	NaN	0.000000	0.001575	0.001773	28.0785	0.087463	0.001986	44.0419	82.2847	-164.151	-0.053657	0.704902	-0.244358	-0.245674	-0.071089	44.0419	-0.243147	-643.62	0.000110	NaN
526	1.000000	0.714230	7.3702e+06	-50789.1	1005.82	-29754.7	0.000000	0.000000	6.715024	-0.022930	NaN	0.000000	0.001571	0.001771	28.0787	0.070788	0.001986	35.6511	63.299	-166.077	0.021272	0.712903	-0.236345	-0.237672	-0.022930	35.6511	-0.235863	-495.21	4.630363E-5	NaN
526	1.000000	0.722233	7.3702e+06	-50789.1	1005.82	-29754.7	0.000000	0.000000	6.723025	-0.039626	NaN	0.000000	0.001582	0.001750	28.0786	0.015781	0.002173	7.260718	-131.673	-166.964	0.028838	0.720947	-0.228343	-0.229629	-0.039626	7.260718	-0.224249	-324.644	0.000122	NaN
526	1.000000	0.730259	7.3702e+06	-50789.1	1005.82	-29754.7	0.000000	0.000000	6.731049	-0.114402	NaN	0.000000	0.001592	0.001774	28.0793	0.043047	0.002001	21.5107	-124.007	-165.939	-0.100376	0.728926	-0.220316	-0.221649	-0.114402	21.5107	-0.216327	-242.573	0.000472	NaN
526	1.000000	0.738239	7.3702e+06	-50789.1	1005.82	-29754.7	0.000000	0.000000	6.739032	-0.038266	NaN	0.000000	0.001610	0.001777	28.0798	0.003966	0.001980	2.003169	-125.65	-163.571	0.019786	0.736970	-0.212336	-0.213605	-0.038266	2.003169	-0.198009	-122.161	0.000313	NaN
526	1.000000	0.746250	7.3702e+06	-50789.1	1005.82	-29754.7	0.000000	0.000000	6.747044	-0.004326	NaN	0.000000	0.001620	0.001724	28.0801	0.106985	0.001843	58.0376	29.406	-168.9	0.020136	0.744907	-0.204325	-0.205668	-0.004326	58.0376	-0.204269	-154.75	2.795477E-5	NaN
526	1.000000	0.754248	7.3702e+06	-50789.1	1005.82	-29754.7	0.000000	0.000000	6.755039	-0.085329	NaN	0.000000	0.001631	0.001767	28.08	0.055364	0.001958	28.2737	21.6735	-166.316	-0.053146	0.752897	-0.196327	-0.197678	-0.085329	28.2737	-0.194064	-105.119	0.000812	NaN
526	1.000000	0.762253	7.3702e+06	-50789.1	1005.82	-29754.7	0.000000	0.000000	6.763048	0.034780	NaN	0.000000	0.001647	0.001768	28.0798	0.090321	0.001910	47.2932	138.897	-165.43	0.029900	0.760934	-0.188323	-0.189641	0.034780	47.2932	-0.188874	-86.1399	-0.000404	NaN
526	1.000000	0.770237	7.3702e+06	-50789.1	1005.82	-29754.7	0.000000	0.000000	6.771030	-0.039744	NaN	0.000000	0.001599	0.001746	28.0799	0.084682	0.001860	45.5322	-27.776	-166.927	-0.028693	0.768942	-0.180338	-0.181634	-0.039744	45.5322	-0.179684	-60.2675	0.000659	NaN
526	1.000000	0.778261	7.3702e+06	-50789.1	1005.82	-29754.7	0.000000	0.000000	6.779054	-0.023395	NaN	0.000000	0.001574	0.001751	28.08	0.027622	0.001923	14.3625	140.028	-168.46	-0.026880	0.776939	-0.172315	-0.173636	-0.023395	14.3625	-0.171093	-42.9116	0.000545	NaN
526	1.000000	0.786261	7.3702e+06	-50789.1	1005.82	-29754.7	0.000000	0.000000	6.787054	-0.054224	NaN	0.000000	0.001611	0.001768	28.08	0.102444	0.002076	49.358	91.4808	-164.808	-0.034576	0.784942	-0.164314	-0.165633	-0.054224	49.358	-0.163490	-31.604	0.001716	NaN
526	1.000000	0.794300	7.3702e+06	-50789.1	1005.82	-29754.7	0.000000	0.000000	6.795094	-0.010299	NaN	0.000000	0.001589	0.001753	28.0799	0.083333	0.001932	43.1274	120.779	-166.153	-0.050299	0.792938	-0.156275	-0.157637	-0.010299	43.1274	-0.156096	-23.3497	0.000441	NaN
526	1.000000	0.802276	7.3702e+06	-50789.1	1005.82	-29754.7	0.000000	0.000000	6.803073	0.088233	NaN	0.000000	0.001544	0.001774	28.08	0.071077	0.001979	35.9178	178.285	-167.515	0.038648	0.800944	-0.148300	-0.149631	0.088233	35.9178	-0.150142	-18.2221	-0.004842	NaN
526	1.000000	0.810278	7.3702e+06	-50789.1	1005.82	-29754.7	0.000000	0.000000	6.811076	0.073152	NaN	0.000000	0.001563	0.001745	28.0799	0.045829	0.001914	23.9486	142.262	-161.617	0.060268	0.808938	-0.140297	-0.141638	0.073152	23.9486	-0.142588	-13.2246	-0.005531	NaN
526	1.000000	0.818270	7.3702e+06	-50789.1	1005.82	-29754.7	0.000000	0.000000	6.819064	-0.021771	NaN	0.000000	0.001603	0.001772	28.0801	0.055981	0.002039	27.4529	-119.791	-165.259	-0.088064	0.816953	-0.132305	-0.133622	-0.021771	27.4529	-0.131710	-8.224966	0.002647	NaN
526	1.000000	0.826310	7.3702e+06	-50789.1	1005.82	-29754.7	0.000000	0.000000	6.827102	-0.048730	NaN	0.000000	0.001597	0.001760	28.0799	0.029368	0.001853	15.846	-165.031	-164.672	-0.029497	0.824922	-0.124266	-0.125654	-0.048730	15.846	-0.121959	-5.290178	0.009211	NaN
526	1.000000	0.834294	7.3702e+06	-50789.1	1005.82	-29754.7	0.000000	0.000000	6.835088	-0.011228	NaN	0.000000	0.001573	0.001736	28.0798	0.122124	0.001921	63.5801	74.1599	-164.575	-0.069535	0.832938	-0.116282	-0.117638	-0.011228	63.5801	-0.116149	-4.033995	0.002783	NaN
526	1.000000	0.842304	7.3702e+06	-50789.1	1005.82	-29754.7	0.000000	0.000000	6.843099	0.007633	NaN	0.000000	0.001628	0.001826	28.0803	0.123593	0.002011	61.4593	-69.7836	-167.213	0.013707	0.840935	-0.108271	-0.109640	0.007633	61.4593	-0.108364	-2.774888	-0.002751	NaN
526	1.000000	0.850292	7.3702e+06	-50789.1	1005.82	-29754.7	0.000000	0.000000	6.851088	0.033141	NaN	0.000000	0.001597	0.001775	28.0801	0.057426	0.001981	28.9907	-148.63	-171.642	-0.012303	0.848916	-0.100283	-0.101660	0.033141	28.9907	-0.101140	-1.936325	-0.017115	NaN
526	1.000000	0.858304	7.3702e+06	-50789.1	1005.82	-29754.7	0.000000	0.000000	6.859099	0.022134	NaN	0.000000	0.001580	0.001755	28.0802	0.045390	0.001947	23.3157	-171.531	-164.96	0.073038	0.856967	-0.092271	-0.093608	0.022134	23.3157	-0.092983	-1.268216	-0.017453	NaN
526	1.000000	0.866285	7.3702e+06	-50789.1	1005.82	-29754.7	0.000000	0.000000	6.867082	0.064749	NaN	0.000000	0.001577	0.001720	28.0795	0.035469	0.002026	17.5095	-171.869	-165.66	-0.046861	0.864974	-0.084291	-0.085602	0.064749	17.5095	-0.087064	-0.921105	-0.070295	NaN
526	1.000000	0.874272	7.3702e+06	-50789.1	1005.82	-29754.7	0.000000	0.000000	6.875065	-0.037997	NaN	0.000000	0.001624	0.001750	28.0787	0.110964	0.001972	56.2812	-170.216	-165.16	-0.043527	0.873019	-0.076303	-0.077556	-0.037997	56.2812	-0.075797	-0.484262	0.078464	NaN
526	1.000000	0.882295	7.3702e+06	-50789.1	1005.82	-29754.7	0.000000	0.000000	6.883089	0.008421	NaN	0.000000	0.001605	0.001751	28.0789	0.059451	0.001959	30.3495	29.1471	-165.358	-0.025192	0.881013	-0.068281	-0.069562	0.008421	30.3495	-0.068489	-0.310592	-0.027112	NaN
526	1.000000	0.890322	7.3702e+06	-50789.1	1005.82	-29754.7	0.000000	0.000000	6.891116	-0.007286	NaN	0.000000	0.001580	0.001768	28.0788	0.053810	0.002041	26.371	117.151	-166.248	-0.043340	0.888991	-0.060254	-0.061584	-0.007286	26.371	-0.060046	-0.180646	0.040331	NaN
526	1.000000	0.898341	7.3702e+06	-50789.1	1005.82	-29754.7	0.000000	0.000000	6.899133	-0.039740	NaN	0.000000	0.001571	0.001760	28.0787	0.138176	0.002076	66.5722	6.058395	-169.356	0.022450	0.897067	-0.052235	-0.053508	-0.039740	66.5722	-0.051787	-0.103298	0.384711	NaN
526	1.000000	0.906305	7.3702e+06	-50789.1	1005.82	-29754.7	0.000000	0.000000	6.907101	0.033100	NaN	0.000000	0.001593	0.001772	28.0786	0.056020	0.001955	28.6537	123.473	-166.662	0.067079	0.905003	-0.044270	-0.045572	0.033100	28.6537	-0.045136	-0.064888	-0.510108	NaN
526	1.000000	0.914286	7.3702e+06	-50789.1	1005.82	-29754.7	0.000000	0.000000	6.915080	0.009645	NaN	0.000000	0.001579	0.001795	28.0787	0.078343	0.001941	40.3605	-47.5811	-167.909	0.010943	0.913024	-0.036290	-0.037552	0.009645	40.3605	-0.036469	-0.035400	-0.272455	NaN
526	1.000000	0.922319	7.3702e+06	-50789.1	1005.82	-29754.7	0.000000	0.000000	6.923113	-0.002004	NaN	0.000000	0.001584	0.001773	28.0787	0.091672	0.002049	44.7408	-121.749	-166.563	0.042637	0.920992	-0.028256	-0.029584	-0.002004	44.7408	-0.028223	-0.020560	0.097466	NaN
526	1.000000	0.930332	7.3702e+06	-50789.1	1005.82	-29754.7	0.000000	0.000000	6.931125	-0.045215	NaN	0.000000	0.001527	0.001776	28.0789	0.117899	0.002023	58.289	97.3555	-165.893	0.023204	0.929020	-0.020243	-0.021555	-0.045215	58.289	-0.019661	-0.012314	3.671865	NaN
526	1.000000	0.938337	7.3702e+06	-50789.1	1005.82	-29754.7	0.000000	0.000000	6.939128	-0.078434	NaN	0.000000	0.001531	0.001758	28.0789	0.057747	0.001900	30.3933	-156.574	-168.34	-0.013214	0.937015	-0.012239	-0.013560	-0.078434	30.3933	-0.010303	-0.006561	11.9551	NaN
526	1.000000	0.946351	7.3702e+06	-50789.1	1005.82	-29754.7	0.000000	0.000000	6.947151	0.158529	NaN	0.000000	0.001539	0.001777	28.0789	0.264439	0.001920	137.757	13.4513	-166.19	-0.027174	0.945012	-0.004225	-0.005564	0.158529	137.757	-0.005088	-0.003472	-45.6625	NaN
526	1.000000	0.954224	7.3702e+06	-50789.1	1005.82	-29754.7	0.000000	0.000000	6.955311	7.113919	NaN	0.000000	0.001562	0.001745	28.0789	6.785537	0.001810	3749.64	10.8623	-171.253	5.718361	0.952969	0.003649	0.002393	7.113919	3749.64	0.002226	0.001738	4093.01	82173
526	2.000000	0.956962	7.3702e+06	-50789.1	1005.82	-29754.7	0.000000	0.000000	6.958115	8.730796	NaN	0.000000	0.001644	0.001730	28.0788	9.314235	0.001905	4889.18	5.589892	-171.396	8.375425	0.956692	0.006387	0.006116	8.730796	4889.18	0.005047	0.004177	2090.43	69119.5
526	2.000000	0.958965	7.3702e+06	-50789.1	1005.82	-29754.7	0.000000	0.000000	6.960186	10.3691	NaN	0.000000	0.001638	0.001736	28.0788	11.1626	0.001757	6351.85	8.337562	-177.149	9.966022	0.958664	0.008390	0.008088	10.3691	6351.85	0.007165	0.006198	1673.04	73714.9
526	2.000000	0.960916	7.3702e+06	-50789.1	1005.82	-29754.7	0.000000	0.000000	6.962274	13.7073	NaN	0.000000	0.001603	0.001756	28.0786	13.4946	0.001931	6988.4	5.511229	-171.116	13.5016	0.960662	0.010340	0.010086	13.7073	6988.4	0.008869	0.007952	1723.83	71601.5
526	2.000000	0.962918	7.3702e+06	-50789.1	1005.82	-29754.7	0.000000	0.000000	6.964453	18.0135	NaN	0.000000	0.001659	0.001778	28.0792	15.567	0.001662	9364.62	3.544608	-174.963	17.4603	0.962629	0.012343	0.012053	18.0135	9364.62	0.010900	0.010199	1766.2	84719.7
526	2.000000	0.964913	7.3702e+06	-50789.1	1005.82	-29754.7	0.000000	0.000000	6.966584	21.3039	NaN	0.000000	0.001621	0.001779	28.0788	17.1825	0.001692	10155.4	6.574815	-177.423	21.8936	0.964576	0.014338	0.014001	21.3039	10155.4	0.012765	0.012419	1715.42	83258.4
526	2.000000	0.966891	7.3702e+06	-50789.1	1005.82	-29754.7	0.000000	0.000000	6.968692	24.5006	NaN	0.000000	0.001619	0.001723	28.0788	20.1708	0.001966	10259.3	5.878487	-177.04	22.7217	0.966602	0.016315	0.016026	24.5006	10259.3	0.014524	0.014656	1671.71	77425.4
526	2.000000	0.968868	7.3702e+06	-50789.1	1005.82	-29754.7	0.000000	0.000000	6.970879	29.5767	NaN	0.000000	0.001615	0.001706	28.0799	20.965	0.001813	11564.8	4.155711	-175.878	28.8854	0.968640	0.018293	0.018065	29.5767	11564.8	0.016375	0.017163	1723.3	80652.1
526	2.000000	0.970846	7.3702e+06	-50789.1	1005.82	-29754.7	0.000000	0.000000	6.972971	32.3836	NaN	0.000000	0.001600	0.001732	28.0799	23.4101	0.001776	13179.3	3.878539	-178.509	31.075	0.970567	0.020270	0.019991	32.3836	13179.3	0.018427	0.020131	1608.65	84866.1
526	2.000000	0.972859	7.3702e+06	-50789.1	1005.82	-29754.7	0.000000	0.000000	6.975185	37.253	NaN	0.000000	0.001642	0.001692	28.08	25.3591	0.001851	13700.3	3.632910	-176.119	36.081	0.972579	0.022283	0.022004	37.253	13700.3	0.020244	0.022927	1624.85	82666.1
526	2.000000	0.974878	7.3702e+06	-50789.1	1005.82	-29754.7	0.000000	0.000000	6.977480	43.9734	NaN	0.000000	0.001632	0.001740	28.08	27.0479	0.001810	14940.6	4.938348	-179.289	43.6243	0.974552	0.024302	0.023977	43.9734	14940.6	0.022095	0.025942	1695.08	84750.4
526	2.000000	0.976889	7.3702e+06	-50789.1	1005.82	-29754.7	0.000000	0.000000	6.979744	50.125	NaN	0.000000	0.001621	0.001759	28.0799	28.7945	0.001705	16892.8	3.704370	-179.452	50.0993	0.976513	0.026314	0.025938	50.125	16892.8	0.024088	0.029378	1706.24	90046.5
526	2.000000	0.978803	7.3702e+06	-50789.1	1005.82	-29754.7	0.000000	0.000000	6.981971	57.7245	NaN	0.000000	0.001624	0.001702	28.0799	29.8166	0.001712	17419.5	3.270713	-179.557	54.0708	0.978446	0.028227	0.027871	57.7245	17419.5	0.025742	0.032379	1782.76	88445.5
526	2.000000	0.980837	7.3702e+06	-50789.1	1005.82	-29754.7	0.000000	0.000000	6.984065	59.1908	NaN	0.000000	0.001638	0.001753	28.0796	33.4131	0.001893	17651.3	8.393912	176.062	57.9232	0.980554	0.030261	0.029978	59.1908	17651.3	0.027746	0.036202	1635.01	84758.6
526	2.000000	0.982953	7.3702e+06	-50789.1	1005.82	-29754.7	0.000000	0.000000	6.986321	62.6018	NaN	0.000000	0.001640	0.001738	28.0798	34.3981	0.001719	20011.5	3.927629	178.71	64.5628	0.982551	0.032377	0.031976	62.6018	20011.5	0.030031	0.040808	1534.05	90506.2
526	2.000000	0.984856	7.3702e+06	-50789.1	1005.82	-29754.7	0.000000	0.000000	6.988693	73.9964	NaN	0.000000	0.001627	0.001712	28.0798	35.7693	0.001756	20370.4	6.436578	176.391	72.6661	0.984513	0.034280	0.033938	73.9964	20370.4	0.031556	0.044030	1680.58	88694.8
526	2.000000	0.986858	7.3702e+06	-50789.1	1005.82	-29754.7	0.000000	0.000000	6.990780	76.0479	NaN	0.000000	0.001638	0.001761	28.0798	38.1706	0.001773	21528.4	2.712294	178.85	74.3306	0.986589	0.036283	0.036014	76.0479	21528.4	0.033634	0.048613	1564.37	89209.5
526	2.000000	0.988808	7.3702e+06	-50789.1	1005.82	-29754.7	0.000000	0.000000	6.993310	90.1707	NaN	0.000000	0.001641	0.001765	28.0803	39.238	0.001737	22586.3	4.182907	178.27	87.2909	0.988457	0.038233	0.037881	90.1707	22586.3	0.035238	0.052302	1724.03	90231.3
526	2.000000	0.990752	7.3702e+06	-50789.1	1005.82	-29754.7	0.000000	0.000000	6.995481	95.6863	NaN	0.000000	0.001663	0.001716	28.0798	41.0988	0.001813	22673.3	1.045270	-179.47	91.3791	0.990489	0.040177	0.039914	95.6863	22673.3	0.037012	0.056533	1692.56	87123.6
526	2.000000	0.992857	7.3702e+06	-50789.1	1005.82	-29754.7	0.000000	0.000000	6.997872	102.627	NaN	0.000000	0.001677	0.001743	28.08	43.2964	0.001721	25159.9	7.448992	174.193	101.7	0.992486	0.042282	0.041911	102.627	25159.9	0.039222	0.062034	1654.35	92292.4
526	2.000000	0.994826	7.3702e+06	-50789.1	1005.82	-29754.7	0.000000	0.000000	7.000263	112.903	NaN	0.000000	0.001572	0.001741	28.0797	44.4854	0.001703	26121.1	1.967926	178.186	110.823	0.994491	0.044251	0.043916	112.903	26121.1	0.041009	0.066663	1693.64	92432.2
526	2.000000	0.996865	7.3702e+06	-50789.1	1005.82	-29754.7	0.000000	0.000000	7.002641	121.13	NaN	0.000000	0.001594	0.001744	28.0798	48.4195	0.001823	26554	5.529396	175.416	121.743	0.996550	0.046290	0.045975	121.13	26554	0.042868	0.071651	1690.55	90633.9
526	2.000000	0.998905	7.3702e+06	-50789.1	1005.82	-29754.7	0.000000	0.000000	7.004746	122.723	NaN	0.000000	0.001562	0.001746	28.08	49.5254	0.001727	28685.2	6.790874	172.782	126.927	0.998546	0.048330	0.047971	122.723	28685.2	0.045121	0.077932	1574.75	93880.1
526	2.000000	1.000876	7.3702e+06	-50789.1	1005.82	-29754.7	0.000000	0.000000	7.007148	133.224	NaN	0.000000	0.001590	0.001736	28.0797	51.693	0.001814	28492.3	3.555639	177.006	135.424	1.000543	0.050300	0.049968	133.224	28492.3	0.046793	0.082760	1609.77	90488.1
526	2.000000	1.002852	7.3702e+06	-50789.1	1005.82	-29754.7	0.000000	0.000000	7.009508	142.538	NaN	0.000000	0.001587	0.001757	28.079	53.2731	0.001817	29318	6.771193	173.397	142.59	1.002588	0.052277	0.052013	142.538	29318	0.048630	0.088227	1615.58	90179.4
526	2.000000	1.004814	7.3702e+06	-50789.1	1005.82	-29754.7	0.000000	0.000000	7.011771	149.883	NaN	0.000000	0.001560	0.001746	28.0785	54.2105	0.001653	32787.6	1.230018	177.658	148.115	1.004523	0.054238	0.053947	149.883	32787.6	0.050810	0.094933	1578.83	97224.4
526	2.000000	1.006800	7.3702e+06	-50789.1	1005.82	-29754.7	0.000000	0.000000	7.013998	155.722	NaN	0.000000	0.001580	0.001745	28.0785	57.1513	0.001738	32874.4	2.657104	175.526	153.12	1.006538	0.056224	0.055963	155.722	32874.4	0.052672	0.100850	1544.1	94578.8
526	2.000000	1.008802	7.3702e+06	-50789.1	1005.82	-29754.7	0.000000	0.000000	7.016584	169.934	NaN	0.000000	0.001586	0.001753	28.0785	58.0431	0.001747	33215.7	4.175586	175.5	168.341	1.008481	0.058226	0.057906	169.934	33215.7	0.054389	0.106462	1596.2	93007.9
526	2.000000	1.010726	7.3702e+06	-50789.1	1005.82	-29754.7	0.000000	0.000000	7.018876	178.877	NaN	0.000000	0.001576	0.001735	28.0785	60.3349	0.001767	34153.5	2.472755	176.046	175.171	1.010462	0.060150	0.059887	178.877	34153.5	0.056222	0.112611	1588.45	92986.1
526	2.000000	1.012772	7.3702e+06	-50789.1	1005.82	-29754.7	0.000000	0.000000	7.021234	186.472	NaN	0.000000	0.001559	0.001714	28.0793	63.3593	0.001988	31877.3	4.925010	174.799	181.88	1.012425	0.062197	0.061850	186.472	31877.3	0.057809	0.118070	1579.34	84758.8
526	2.000000	1.014784	7.3702e+06	-50789.1	1005.82	-29754.7	0.000000	0.000000	7.023734	198.333	NaN	0.000000	0.001570	0.001730	28.0786	64.5135	0.001847	34921	4.431024	173.436	197.256	1.014445	0.064208	0.063869	198.333	34921	0.059949	0.125624	1578.78	90016.8
526	2.000000	1.016802	7.3702e+06	-50789.1	1005.82	-29754.7	0.000000	0.000000	7.026074	206.159	NaN	0.000000	0.001585	0.001729	28.0785	66.7148	0.001871	35654.5	4.495508	173.565	204.68	1.016540	0.066227	0.065965	206.159	35654.5	0.061890	0.132674	1553.87	89432.4
526	2.000000	1.018854	7.3702e+06	-50789.1	1005.82	-29754.7	0.000000	0.000000	7.028567	216.887	NaN	0.000000	0.001552	0.001743	28.0787	67.5269	0.001843	36633	4.198008	173.535	217.851	1.018414	0.068278	0.067839	216.887	36633	0.063838	0.139928	1549.99	89473.1
526	2.000000	1.020795	7.3702e+06	-50789.1	1005.82	-29754.7	0.000000	0.000000	7.031068	230.497	NaN	0.000000	0.001549	0.001750	28.0786	69.1723	0.001856	37267.4	6.489324	172.127	228.304	1.020454	0.070220	0.069878	230.497	37267.4	0.065581	0.146579	1572.51	88933.8
526	2.000000	1.022851	7.3702e+06	-50789.1	1005.82	-29754.7	0.000000	0.000000	7.033598	242.028	NaN	0.000000	0.001574	0.001745	28.0788	71.0432	0.001907	37247.2	5.520803	172.175	243.624	1.022484	0.072276	0.071908	242.028	37247.2	0.067402	0.153682	1574.86	86807.1
526	2.000000	1.024742	7.3702e+06	-50789.1	1005.82	-29754.7	0.000000	0.000000	7.035888	251.746	NaN	0.000000	0.001578	0.001723	28.0787	71.7139	0.001754	40883.1	3.405912	173.923	248.303	1.024407	0.074166	0.073832	251.746	40883.1	0.069548	0.162254	1551.55	92729.7
526	2.000000	1.026781	7.3702e+06	-50789.1	1005.82	-29754.7	0.000000	0.000000	7.038522	266.179	NaN	0.000000	0.001586	0.001737	28.079	73.5771	0.001804	40792.5	1.021730	175.928	263.972	1.026393	0.076206	0.075818	266.179	40792.5	0.071312	0.169466	1570.69	90534
526	2.000000	1.028771	7.3702e+06	-50789.1	1005.82	-29754.7	0.000000	0.000000	7.041159	281.954	NaN	0.000000	0.001616	0.001779	28.0786	75.5489	0.001836	41150.2	8.040678	169.125	280.564	1.028491	0.078195	0.077916	281.954	41150.2	0.073056	0.176742	1595.28	89428.3
526	2.000000	1.030844	7.3702e+06	-50789.1	1005.82	-29754.7	0.000000	0.000000	7.043534	289.263	NaN	0.000000	0.001620	0.001735	28.0786	77.0888	0.001834	42030	2.326279	174.675	292.116	1.030478	0.080269	0.079903	289.263	42030	0.075107	0.185482	1559.52	89162.5
526	2.000000	1.032871	7.3702e+06	-50789.1	1005.82	-29754.7	0.000000	0.000000	7.046222	305.345	NaN	0.000000	0.001623	0.001738	28.0786	80.1587	0.001725	46466.3	9.769963	166.952	308.633	1.032437	0.082296	0.081861	305.345	46466.3	0.077367	0.195342	1563.13	96053.7
526	2.000000	1.034768	7.3702e+06	-50789.1	1005.82	-29754.7	0.000000	0.000000	7.048716	319.881	NaN	0.000000	0.001626	0.001704	28.0786	80.3234	0.001745	46027.5	7.171004	169.251	320.197	1.034427	0.084193	0.083851	319.881	46027.5	0.078980	0.202525	1579.47	93444.1
526	2.000000	1.036746	7.3702e+06	-50789.1	1005.82	-29754.7	0.000000	0.000000	7.050941	325.872	NaN	0.000000	0.001585	0.001745	28.0804	83.0349	0.001747	47521.7	4.742379	170.828	323.164	1.036417	0.086171	0.085842	325.872	47521.7	0.081028	0.211819	1538.45	94337.3
526	2.000000	1.038773	7.3702e+06	-50789.1	1005.82	-29754.7	0.000000	0.000000	7.053400	336.37	NaN	0.000000	0.001597	0.001738	28.0799	83.3139	0.001812	45971.3	3.167462	172.647	334.904	1.038629	0.088198	0.088054	336.37	45971.3	0.082710	0.219599	1531.75	89628.1
526	2.000000	1.040804	7.3702e+06	-50789.1	1005.82	-29754.7	0.000000	0.000000	7.056148	353.801	NaN	0.000000	0.001591	0.001733	28.0799	86.2182	0.001774	48601.6	10.3255	165.719	355.624	1.040372	0.090229	0.089796	353.801	48601.6	0.084769	0.229302	1542.95	92729.9
526	2.000000	1.042762	7.3702e+06	-50789.1	1005.82	-29754.7	0.000000	0.000000	7.058742	369.273	NaN	0.000000	0.001606	0.001741	28.08	86.8059	0.001649	52638.9	4.125832	171.952	365.555	1.042374	0.092187	0.091798	369.273	52638.9	0.086926	0.239673	1540.74	98236
526	2.000000	1.044727	7.3702e+06	-50789.1	1005.82	-29754.7	0.000000	0.000000	7.061327	384.342	NaN	0.000000	0.001570	0.001706	28.08	89.4786	0.001743	51322.6	2.467670	173.404	381.846	1.044365	0.094152	0.093790	384.342	51322.6	0.088535	0.247555	1552.55	94242.2
526	2.000000	1.046693	7.3702e+06	-50789.1	1005.82	-29754.7	0.000000	0.000000	7.063983	401.153	NaN	0.000000	0.001565	0.001733	28.0803	91.8383	0.001714	53572.3	3.590146	171.778	397.788	1.046540	0.096117	0.095965	401.153	53572.3	0.090501	0.257342	1558.83	96484.7
526	2.000000	1.048781	7.3702e+06	-50789.1	1005.82	-29754.7	0.000000	0.000000	7.066462	410.641	NaN	0.000000	0.001580	0.001718	28.0801	93.3909	0.001787	52266	6.176752	169.537	409.351	1.048357	0.098206	0.097782	410.641	52266	0.092313	0.266518	1540.76	92497.4
526	2.000000	1.050725	7.3702e+06	-50789.1	1005.82	-29754.7	0.000000	0.000000	7.069067	426.71	NaN	0.000000	0.001583	0.001718	28.0803	96.1618	0.001871	51387.3	3.653988	172.042	423.557	1.050382	0.100149	0.099807	426.71	51387.3	0.093922	0.274791	1552.85	89562.7
526	2.000000	1.053014	7.3702e+06	-50789.1	1005.82	-29754.7	0.000000	0.000000	7.071432	428.574	NaN	0.000000	0.001580	0.001737	28.08	98.6853	0.001680	58728.2	7.449941	167.238	442.378	1.052579	0.102439	0.102004	428.574	58728.2	0.096965	0.290769	1473.93	99505.1
526	2.000000	1.053614	7.3702e+06	-50789.1	1005.82	-29754.7	0.000000	0.000000	7.072696	444.707	NaN	0.000000	0.001562	0.001707	28.0803	97.8727	0.001666	58743.5	4.121477	170.08	434.395	1.053263	0.103039	0.102688	444.707	58743.5	0.097361	0.292877	1518.41	99172.2