File: remote_trans/data/nanoindenter/0828-1/data/Data_2025-08-06,11h17m57s/2025-07-22_16-23-58_1_772.txt
2025-07-22, 16:23:58, 1
Index	Phase	Displacement	Time	Pos X	Pos Y	Pos Z	Rot A	Rot B	Piezo Z	Force A	Force B	Gripper	Voltage A	Voltage B	Temperature	Amplitude force	Amplitude pos	Stiffness	Phase shift	Phase excitation	Force A raw	Displacement raw	HMax	HMax raw	Real Force	Real Stiffness	Contact Depth	Area	Hardness	Reduced Mod.
[#]	[#]	[um]	[s]	[um]	[um]	[um]	[m°]	[m°]	[um]	[uN]	[uN]	[V]	[V]	[V]	[°C]	[uN]	[um]	[N/m]	[°]	[°]	[uN]	[um]	[um]	[um]	[uN]	[N/m]	[um]	[um^2]	[MPa]	[MPa]
772	1.000000	0.002359	7.37261e+06	-38739.1	1055.82	-29796.3	0.000000	0.000000	6.002840	-0.038900	NaN	0.000000	0.001631	0.001765	28.0839	0.076887	0.000807	95.262	-104.824	-163.44	-0.004586	0.001046	-1.139388	-1.140701	-0.038900	95.262	-1.139082	-1.676578E+15	2.320180E-17	NaN
772	1.000000	0.012376	7.37261e+06	-38739.1	1055.82	-29796.3	0.000000	0.000000	6.012856	-0.069930	NaN	0.000000	0.001657	0.001771	28.0827	0.076350	0.001238	61.6548	-147.631	20.2341	-0.128763	0.010879	-1.129371	-1.130868	-0.069930	61.6548	-1.128520	-1.209958E+15	5.779512E-17	NaN
772	1.000000	0.022281	7.37261e+06	-38739.1	1055.82	-29796.3	0.000000	0.000000	6.022760	-0.076413	NaN	0.000000	0.001616	0.001737	28.0826	0.121326	0.001786	67.9345	129.008	-165.535	-0.068097	0.020973	-1.119466	-1.120774	-0.076413	67.9345	-1.118623	-8.912371E+14	8.573785E-17	NaN
772	1.000000	0.032289	7.37261e+06	-38739.1	1055.82	-29796.3	0.000000	0.000000	6.032769	-0.061265	NaN	0.000000	0.001661	0.001697	28.0827	0.021658	0.001890	11.4585	-33.2847	13.7685	-0.083164	0.030921	-1.109458	-1.110826	-0.061265	11.4585	-1.105448	-5.931864E+14	1.032808E-16	NaN
772	1.000000	0.042277	7.37261e+06	-38739.1	1055.82	-29796.3	0.000000	0.000000	6.042756	-0.075500	NaN	0.000000	0.001646	0.001710	28.0825	0.178659	0.001825	97.8702	158.098	-166.406	-0.023501	0.040945	-1.099470	-1.100803	-0.075500	97.8702	-1.098892	-4.843819E+14	1.558695E-16	NaN
772	1.000000	0.052285	7.37261e+06	-38739.1	1055.82	-29796.3	0.000000	0.000000	6.052768	0.009019	NaN	0.000000	0.001613	0.001731	28.0828	0.089255	0.001905	46.8519	145.141	16.2073	-0.002442	0.050895	-1.089462	-1.090852	0.009019	46.8519	-1.089606	-3.635168E+14	-2.480975E-17	NaN
772	1.000000	0.062276	7.37261e+06	-38739.1	1055.82	-29796.3	0.000000	0.000000	6.062757	-0.009168	NaN	0.000000	0.001640	0.001744	28.083	0.033171	0.002098	15.8095	41.2275	-164.263	-0.106136	0.060981	-1.079471	-1.080767	-0.009168	15.8095	-1.079036	-2.621657E+14	3.497069E-17	NaN
772	1.000000	0.072283	7.37261e+06	-38739.1	1055.82	-29796.3	0.000000	0.000000	6.072763	-0.048401	NaN	0.000000	0.001646	0.001689	28.0827	0.170919	0.002103	81.2642	177.081	13.931	0.008232	0.070846	-1.069464	-1.070901	-0.048401	81.2642	-1.069017	-1.923014E+14	2.516945E-16	NaN
772	1.000000	0.082298	7.37261e+06	-38739.1	1055.82	-29796.3	0.000000	0.000000	6.082776	-0.106562	NaN	0.000000	0.001687	0.001708	28.0827	0.010433	0.001965	5.308943	178.429	-162.98	-0.063112	0.080978	-1.059449	-1.060769	-0.106562	5.308943	-1.044395	-8.975528E+13	1.187250E-15	NaN
772	1.000000	0.092304	7.37261e+06	-38739.1	1055.82	-29796.3	0.000000	0.000000	6.092785	-0.042113	NaN	0.000000	0.001692	0.001717	28.0827	0.124684	0.001971	63.2442	-14.3442	15.3527	-0.065101	0.090917	-1.049443	-1.050831	-0.042113	63.2442	-1.048943	-1.033264E+14	4.075709E-16	NaN
772	1.000000	0.102290	7.37261e+06	-38739.1	1055.82	-29796.3	0.000000	0.000000	6.102769	-0.060040	NaN	0.000000	0.001731	0.001744	28.0826	0.072105	0.002021	35.6837	-123.838	-163.55	-0.059417	0.101007	-1.039457	-1.040740	-0.060040	35.6837	-1.038195	-7.407998E+13	8.104737E-16	NaN
772	1.000000	0.112309	7.37261e+06	-38739.1	1055.82	-29796.3	0.000000	0.000000	6.112789	-0.051008	NaN	0.000000	0.001761	0.001739	28.0827	0.060579	0.002177	27.8282	-140.788	16.8827	-0.106617	0.110998	-1.029438	-1.030749	-0.051008	27.8282	-1.028063	-5.412857E+13	9.423417E-16	NaN
772	1.000000	0.122297	7.37261e+06	-38739.1	1055.82	-29796.3	0.000000	0.000000	6.122780	0.009472	NaN	0.000000	0.001748	0.001705	28.0826	0.073050	0.001958	37.3075	96.5506	-163.825	-0.027424	0.121029	-1.019450	-1.020718	0.009472	37.3075	-1.019640	-4.169778E+13	-2.271521E-16	NaN
772	1.000000	0.132328	7.37261e+06	-38739.1	1055.82	-29796.3	0.000000	0.000000	6.132808	-0.058964	NaN	0.000000	0.001733	0.001727	28.0829	0.019692	0.001978	9.954189	-173.969	15.7836	0.004787	0.130937	-1.009419	-1.010810	-0.058964	9.954189	-1.004976	-2.647051E+13	2.227525E-15	NaN
772	1.000000	0.142314	7.37261e+06	-38739.1	1055.82	-29796.3	0.000000	0.000000	6.142794	-0.057784	NaN	0.000000	0.001698	0.001741	28.0827	0.058507	0.002095	27.9326	-75.4903	-167.487	-0.085303	0.140977	-0.999433	-1.000770	-0.057784	27.9326	-0.997881	-2.124430E+13	2.719986E-15	NaN
772	1.000000	0.152312	7.37261e+06	-38739.1	1055.82	-29796.3	0.000000	0.000000	6.152789	-0.115774	NaN	0.000000	0.001765	0.001706	28.0842	0.100359	0.002059	48.742	-105.902	11.9962	-0.154830	0.150999	-0.989435	-0.990749	-0.115774	48.742	-0.987654	-1.547088E+13	7.483378E-15	NaN
772	1.000000	0.162306	7.37261e+06	-38739.1	1055.82	-29796.3	0.000000	0.000000	6.162783	-0.106896	NaN	0.000000	0.001731	0.001727	28.0841	0.046998	0.001930	24.3464	-111.383	-165.599	-0.086530	0.160979	-0.979441	-0.980768	-0.106896	24.3464	-0.976148	-1.082719E+13	9.872911E-15	NaN
772	1.000000	0.172321	7.37261e+06	-38739.1	1055.82	-29796.3	0.000000	0.000000	6.172800	-0.074688	NaN	0.000000	0.001755	0.001732	28.084	0.145875	0.002082	70.0695	-82.3222	12.996	-0.096751	0.170938	-0.969426	-0.970809	-0.074688	70.0695	-0.968627	-8.573418E+12	8.711592E-15	NaN
772	1.000000	0.182336	7.37261e+06	-38739.1	1055.82	-29796.3	0.000000	0.000000	6.182816	-0.035689	NaN	0.000000	0.001714	0.001782	28.0841	0.016757	0.001941	8.633133	-71.3003	-162.324	-0.023648	0.180971	-0.959411	-0.960776	-0.035689	8.633133	-0.956311	-5.849634E+12	6.101109E-15	NaN
772	1.000000	0.192321	7.37261e+06	-38739.1	1055.82	-29796.3	0.000000	0.000000	6.192801	-0.045437	NaN	0.000000	0.001739	0.001773	28.0841	0.083900	0.001955	42.9231	78.5014	13.5865	-0.033354	0.190985	-0.949426	-0.950762	-0.045437	42.9231	-0.948632	-4.608761E+12	9.858817E-15	NaN
772	1.000000	0.202302	7.37261e+06	-38739.1	1055.82	-29796.3	0.000000	0.000000	6.202779	-0.129812	NaN	0.000000	0.001702	0.001776	28.084	0.091944	0.001942	47.3444	-176.805	-164.891	-0.106604	0.201050	-0.939445	-0.940697	-0.129812	47.3444	-0.937389	-3.250171E+12	3.994019E-14	NaN
772	1.000000	0.212327	7.37261e+06	-38739.1	1055.82	-29796.3	0.000000	0.000000	6.212809	-0.003087	NaN	0.000000	0.001726	0.001756	28.0839	0.051069	0.002050	24.9112	105.301	14.2443	0.026857	0.210983	-0.929420	-0.930765	-0.003087	24.9112	-0.929327	-2.529977E+12	1.220127E-15	NaN
772	1.000000	0.222336	7.37261e+06	-38739.1	1055.82	-29796.3	0.000000	0.000000	6.222817	-0.028814	NaN	0.000000	0.001753	0.001715	28.0839	0.043492	0.001955	22.246	-105.169	-166.143	-0.058192	0.221037	-0.919411	-0.920710	-0.028814	22.246	-0.918439	-1.803576E+12	1.597631E-14	NaN
772	1.000000	0.232317	7.37261e+06	-38739.1	1055.82	-29796.3	0.000000	0.000000	6.232799	-0.011173	NaN	0.000000	0.001777	0.001741	28.0848	0.110446	0.001949	56.6736	47.3418	13.6418	-0.124057	0.230964	-0.909430	-0.910783	-0.011173	56.6736	-0.909282	-1.356645E+12	8.235556E-15	NaN
772	1.000000	0.242324	7.37261e+06	-38739.1	1055.82	-29796.3	0.000000	0.000000	6.242801	-0.120812	NaN	0.000000	0.001737	0.001767	28.0838	0.068267	0.001834	37.2233	-62.3812	-164.258	-0.075747	0.241075	-0.899423	-0.900672	-0.120812	37.2233	-0.896989	-9.255075E+11	1.305361E-13	NaN
772	1.000000	0.252348	7.37261e+06	-38739.1	1055.82	-29796.3	0.000000	0.000000	6.252829	-0.020601	NaN	0.000000	0.001731	0.001735	28.084	0.059785	0.002076	28.8008	173.427	15.8529	-0.020759	0.250972	-0.889399	-0.890775	-0.020601	28.8008	-0.888863	-7.186917E+11	2.866426E-14	NaN
772	1.000000	0.262374	7.37261e+06	-38739.1	1055.82	-29796.3	0.000000	0.000000	6.262853	-0.086024	NaN	0.000000	0.001726	0.001736	28.0839	0.023717	0.001959	12.1072	-70.9614	-161.579	-0.028230	0.261014	-0.879373	-0.880733	-0.086024	12.1072	-0.874044	-4.530563E+11	1.898759E-13	NaN
772	1.000000	0.272363	7.37261e+06	-38739.1	1055.82	-29796.3	0.000000	0.000000	6.272842	-0.083433	NaN	0.000000	0.001693	0.001743	28.0843	0.044240	0.002015	21.9523	-66.77	13.1789	-0.052752	0.271008	-0.869384	-0.870739	-0.083433	21.9523	-0.866533	-3.585426E+11	2.327018E-13	NaN
772	1.000000	0.282355	7.37261e+06	-38739.1	1055.82	-29796.3	0.000000	0.000000	6.282836	-0.039783	NaN	0.000000	0.001713	0.001694	28.0834	0.047064	0.001980	23.7741	17.0869	-163.707	-0.082059	0.281086	-0.859392	-0.860661	-0.039783	23.7741	-0.858137	-2.759939E+11	1.441430E-13	NaN
772	1.000000	0.292385	7.37261e+06	-38739.1	1055.82	-29796.3	0.000000	0.000000	6.292868	0.020814	NaN	0.000000	0.001718	0.001706	28.0828	0.139284	0.002020	68.9444	81.6391	14.604	-0.004649	0.290983	-0.849362	-0.850764	0.020814	68.9444	-0.849589	-2.114316E+11	-9.844534E-14	NaN
772	1.000000	0.302372	7.37261e+06	-38739.1	1055.82	-29796.3	0.000000	0.000000	6.302852	-0.033330	NaN	0.000000	0.001699	0.001690	28.0825	0.061159	0.001841	33.2242	-145.534	-164.936	-0.055971	0.301056	-0.839375	-0.840691	-0.033330	33.2242	-0.838623	-1.501891E+11	2.219173E-13	NaN
772	1.000000	0.312375	7.37261e+06	-38739.1	1055.82	-29796.3	0.000000	0.000000	6.312856	-0.028723	NaN	0.000000	0.001714	0.001706	28.0829	0.122995	0.002011	61.1528	115.166	11.7513	-0.045153	0.310969	-0.829372	-0.830779	-0.028723	61.1528	-0.829020	-1.113012E+11	2.580666E-13	NaN
772	1.000000	0.322366	7.37261e+06	-38739.1	1055.82	-29796.3	0.000000	0.000000	6.322845	-0.055473	NaN	0.000000	0.001693	0.001707	28.0824	0.035718	0.001968	18.1495	-56.8111	-161.137	-0.098422	0.321058	-0.819381	-0.820689	-0.055473	18.1495	-0.817089	-7.668943E+10	7.233441E-13	NaN
772	1.000000	0.332404	7.37261e+06	-38739.1	1055.82	-29796.3	0.000000	0.000000	6.332883	-0.068363	NaN	0.000000	0.001704	0.001729	28.0826	0.102642	0.001980	51.8305	91.9753	14.4603	-0.052147	0.331039	-0.809343	-0.810708	-0.068363	51.8305	-0.808354	-5.837679E+10	1.171064E-12	NaN
772	1.000000	0.342391	7.37261e+06	-38739.1	1055.82	-29796.3	0.000000	0.000000	6.342869	-0.098384	NaN	0.000000	0.001703	0.001691	28.0831	0.055243	0.002032	27.1853	-125.545	-163.035	-0.121271	0.341040	-0.799356	-0.800707	-0.098384	27.1853	-0.796642	-4.048345E+10	2.430230E-12	NaN
772	1.000000	0.352392	7.37261e+06	-38739.1	1055.82	-29796.3	0.000000	0.000000	6.352869	-0.129754	NaN	0.000000	0.001704	0.001719	28.0829	0.079991	0.001921	41.6409	170.94	15.1122	-0.067721	0.351030	-0.789355	-0.790717	-0.129754	41.6409	-0.787018	-2.996239E+10	4.330553E-12	NaN
772	1.000000	0.362400	7.37261e+06	-38739.1	1055.82	-29796.3	0.000000	0.000000	6.362877	-0.137648	NaN	0.000000	0.001742	0.001703	28.0827	0.017924	0.002056	8.717928	14.7602	-165.066	-0.114758	0.361092	-0.779347	-0.780655	-0.137648	8.717928	-0.767505	-1.626974E+10	8.460356E-12	NaN
772	1.000000	0.372376	7.37261e+06	-38739.1	1055.82	-29796.3	0.000000	0.000000	6.372857	-0.026997	NaN	0.000000	0.001715	0.001742	28.083	0.006179	0.002055	3.006563	-136.877	13.2805	-0.083775	0.371077	-0.769371	-0.770670	-0.026997	3.006563	-0.762636	-1.396901E+10	1.932643E-12	NaN
772	1.000000	0.382390	7.37261e+06	-38739.1	1055.82	-29796.3	0.000000	0.000000	6.382870	-0.048725	NaN	0.000000	0.001739	0.001709	28.0831	0.084318	0.002042	41.2827	-85.6537	-164.617	0.040275	0.381121	-0.759357	-0.760626	-0.048725	41.2827	-0.758472	-1.226052E+10	3.974135E-12	NaN
772	1.000000	0.392425	7.37261e+06	-38739.1	1055.82	-29796.3	0.000000	0.000000	6.392903	-0.089996	NaN	0.000000	0.001698	0.001741	28.0828	0.142839	0.002026	70.4927	161.886	17.0661	-0.058450	0.391089	-0.749322	-0.750658	-0.089996	70.4927	-0.748365	-8.932234E+9	1.007536E-11	NaN
772	1.000000	0.402403	7.37261e+06	-38739.1	1055.82	-29796.3	0.000000	0.000000	6.402884	-0.024399	NaN	0.000000	0.001676	0.001744	28.0827	0.085977	0.001855	46.3471	-7.059848	-165.353	-0.032988	0.401078	-0.739344	-0.740669	-0.024399	46.3471	-0.738949	-6.648854E+9	3.669617E-12	NaN
772	1.000000	0.412434	7.37261e+06	-38739.1	1055.82	-29796.3	0.000000	0.000000	6.412913	-0.056159	NaN	0.000000	0.001688	0.001721	28.0826	0.052551	0.001882	27.9299	107.168	13.124	0.024427	0.411107	-0.729314	-0.730640	-0.056159	27.9299	-0.727806	-4.687024E+9	1.198188E-11	NaN
772	1.000000	0.422418	7.37261e+06	-38739.1	1055.82	-29796.3	0.000000	0.000000	6.422898	-0.050016	NaN	0.000000	0.001684	0.001747	28.0842	0.130970	0.001975	66.3156	86.2852	-166.378	-0.063939	0.421144	-0.719329	-0.720603	-0.050016	66.3156	-0.718763	-3.528645E+9	1.417429E-11	NaN
772	1.000000	0.432433	7.37261e+06	-38739.1	1055.82	-29796.3	0.000000	0.000000	6.432918	0.067658	NaN	0.000000	0.001727	0.001744	28.084	0.093669	0.001917	48.854	-110.702	16.1705	-0.012158	0.431045	-0.709314	-0.710702	0.067658	48.854	-0.710352	-2.709308E+9	-2.497234E-11	NaN
772	1.000000	0.442444	7.37261e+06	-38739.1	1055.82	-29796.3	0.000000	0.000000	6.442922	-0.101113	NaN	0.000000	0.001682	0.001700	28.0841	0.108836	0.001958	55.5888	-68.712	-166.728	-0.112045	0.441169	-0.699303	-0.700578	-0.101113	55.5888	-0.697939	-1.833910E+9	5.513546E-11	NaN
772	1.000000	0.452431	7.37261e+06	-38739.1	1055.82	-29796.3	0.000000	0.000000	6.452910	-0.082286	NaN	0.000000	0.001705	0.001760	28.0845	0.034940	0.001983	17.6179	147.67	12.7861	-0.105370	0.451037	-0.689316	-0.690710	-0.082286	17.6179	-0.685813	-1.252246E+9	6.571062E-11	NaN
772	1.000000	0.462453	7.37261e+06	-38739.1	1055.82	-29796.3	0.000000	0.000000	6.462935	-0.008347	NaN	0.000000	0.001681	0.001777	28.0842	0.060631	0.001973	30.7288	179.371	-163.614	-0.085827	0.461152	-0.679294	-0.680595	-0.008347	30.7288	-0.679090	-1.013355E+9	8.237249E-12	NaN
772	1.000000	0.472459	7.37261e+06	-38739.1	1055.82	-29796.3	0.000000	0.000000	6.472940	-0.032933	NaN	0.000000	0.001763	0.001748	28.0841	0.072749	0.001987	36.6138	-159.516	18.0739	0.060910	0.471096	-0.669288	-0.670651	-0.032933	36.6138	-0.668614	-7.284733E+8	4.520803E-11	NaN
772	1.000000	0.482436	7.37261e+06	-38739.1	1055.82	-29796.3	0.000000	0.000000	6.482918	-0.010825	NaN	0.000000	0.001722	0.001725	28.084	0.086015	0.001999	43.0341	-89.5145	-164	-0.017841	0.481173	-0.659311	-0.660574	-0.010825	43.0341	-0.659122	-5.400602E+8	2.004479E-11	NaN
772	1.000000	0.492439	7.37261e+06	-38739.1	1055.82	-29796.3	0.000000	0.000000	6.492920	-0.045033	NaN	0.000000	0.001732	0.001736	28.0844	0.014464	0.001965	7.359000	30.265	16.0397	0.001547	0.491080	-0.649308	-0.650667	-0.045033	7.359000	-0.644718	-3.427776E+8	1.313770E-10	NaN
772	1.000000	0.502481	7.37261e+06	-38739.1	1055.82	-29796.3	0.000000	0.000000	6.502957	-0.132600	NaN	0.000000	0.001712	0.001726	28.0841	0.049755	0.001917	25.949	5.988586	-164.719	-0.110746	0.501104	-0.639267	-0.640643	-0.132600	25.949	-0.635434	-2.556412E+8	5.186969E-10	NaN
772	1.000000	0.512462	7.37261e+06	-38739.1	1055.82	-29796.3	0.000000	0.000000	6.512944	-0.002433	NaN	0.000000	0.001713	0.001698	28.0844	0.042259	0.001989	21.2503	95.4314	14.8983	-0.073426	0.511108	-0.629285	-0.630639	-0.002433	21.2503	-0.629199	-2.099056E+8	1.159119E-11	NaN
772	1.000000	0.522465	7.37261e+06	-38739.1	1055.82	-29796.3	0.000000	0.000000	6.522945	-0.051624	NaN	0.000000	0.001724	0.001720	28.0842	0.064938	0.002012	32.2708	35.5197	-163.071	-0.058508	0.521172	-0.619282	-0.620575	-0.051624	32.2708	-0.618082	-1.476636E+8	3.496057E-10	NaN
772	1.000000	0.532474	7.37261e+06	-38739.1	1055.82	-29796.3	0.000000	0.000000	6.532954	-0.043125	NaN	0.000000	0.001737	0.001709	28.0844	0.090653	0.001959	46.2703	114.548	15.2751	0.048392	0.531095	-0.609273	-0.610652	-0.043125	46.2703	-0.608574	-1.092688E+8	3.946727E-10	NaN
772	1.000000	0.542463	7.37261e+06	-38739.1	1055.82	-29796.3	0.000000	0.000000	6.542941	-0.088643	NaN	0.000000	0.001747	0.001719	28.0844	0.108326	0.002040	53.108	-157.699	-161.857	-0.152301	0.541179	-0.599284	-0.600568	-0.088643	53.108	-0.598032	-7.822689E+7	1.133157E-9	NaN
772	1.000000	0.552463	7.37261e+06	-38739.1	1055.82	-29796.3	0.000000	0.000000	6.552938	-0.161866	NaN	0.000000	0.001739	0.001718	28.0845	0.089146	0.002005	44.4513	126.178	16.6003	-0.146538	0.551140	-0.589284	-0.590607	-0.161866	44.4513	-0.586553	-5.434231E+7	2.978642E-9	NaN
772	1.000000	0.562462	7.37261e+06	-38739.1	1055.82	-29796.3	0.000000	0.000000	6.562939	-0.124932	NaN	0.000000	0.001729	0.001714	28.0831	0.071127	0.002011	35.3746	111.786	-166.831	-0.088126	0.561173	-0.579285	-0.580574	-0.124932	35.3746	-0.576636	-3.965469E+7	3.150491E-9	NaN
772	1.000000	0.572485	7.37261e+06	-38739.1	1055.82	-29796.3	0.000000	0.000000	6.572963	-0.091159	NaN	0.000000	0.001727	0.001691	28.0832	0.134892	0.002046	65.9452	-4.894711	17.5303	-0.103630	0.571145	-0.569262	-0.570602	-0.091159	65.9452	-0.568225	-3.034664E+7	3.003940E-9	NaN
772	1.000000	0.582511	7.37261e+06	-38739.1	1055.82	-29796.3	0.000000	0.000000	6.582990	-0.061732	NaN	0.000000	0.001732	0.001685	28.0831	0.025366	0.001851	13.7067	66.7708	-161.92	-0.012083	0.581178	-0.559237	-0.560570	-0.061732	13.7067	-0.555859	-2.046804E+7	3.016010E-9	NaN
772	1.000000	0.592500	7.37261e+06	-38739.1	1055.82	-29796.3	0.000000	0.000000	6.592980	-0.045976	NaN	0.000000	0.001757	0.001707	28.0831	0.048074	0.002147	22.3961	-46.7555	14.564	-0.076330	0.591101	-0.549247	-0.550646	-0.045976	22.3961	-0.547708	-1.578349E+7	2.912912E-9	NaN
772	1.000000	0.602505	7.37261e+06	-38739.1	1055.82	-29796.3	0.000000	0.000000	6.602985	-0.048439	NaN	0.000000	0.001746	0.001737	28.083	0.086257	0.001844	46.7785	171.153	-163.797	-0.021226	0.601183	-0.539242	-0.540564	-0.048439	46.7785	-0.538466	-1.175099E+7	4.122130E-9	NaN
772	1.000000	0.612493	7.37261e+06	-38739.1	1055.82	-29796.3	0.000000	0.000000	6.612971	-0.101950	NaN	0.000000	0.001759	0.001740	28.083	0.050145	0.002012	24.9257	167.119	15.2678	-0.019892	0.611205	-0.529254	-0.530543	-0.101950	24.9257	-0.526186	-7.93589e+06	1.284665E-8	NaN
772	1.000000	0.622517	7.37261e+06	-38739.1	1055.82	-29796.3	0.000000	0.000000	6.622998	-0.009465	NaN	0.000000	0.001755	0.001722	28.0825	0.054944	0.002073	26.5105	153.12	-163.186	-0.037134	0.621226	-0.519231	-0.520521	-0.009465	26.5105	-0.518963	-6.29755e+06	1.502996E-9	NaN
772	1.000000	0.632529	7.37261e+06	-38739.1	1055.82	-29796.3	0.000000	0.000000	6.633007	-0.085731	NaN	0.000000	0.001764	0.001746	28.0829	0.035108	0.001983	17.7034	-124.844	11.9425	-0.107012	0.631163	-0.509219	-0.510584	-0.085731	17.7034	-0.505587	-4.1013e+06	2.090332E-8	NaN
772	1.000000	0.642542	7.37261e+06	-38739.1	1055.82	-29796.3	0.000000	0.000000	6.643021	-0.067882	NaN	0.000000	0.001759	0.001711	28.0826	0.111448	0.002053	54.2746	120.45	-164.952	-0.104753	0.641203	-0.499205	-0.500544	-0.067882	54.2746	-0.498267	-3.24219e+06	2.093716E-8	NaN
772	1.000000	0.652515	7.37261e+06	-38739.1	1055.82	-29796.3	0.000000	0.000000	6.652996	-0.027650	NaN	0.000000	0.001731	0.001708	28.0831	0.039876	0.001917	20.8004	13.1655	14.3649	-0.081987	0.651141	-0.489232	-0.490607	-0.027650	20.8004	-0.488235	-2.34813e+06	1.177511E-8	NaN
772	1.000000	0.662541	7.37261e+06	-38739.1	1055.82	-29796.3	0.000000	0.000000	6.663023	-0.006391	NaN	0.000000	0.001738	0.001714	28.0827	0.085545	0.001987	43.043	-123.833	-162.331	0.013052	0.661235	-0.479206	-0.480512	-0.006391	43.043	-0.479095	-1.74927e+06	3.653812E-9	NaN
772	1.000000	0.672571	7.37261e+06	-38739.1	1055.82	-29796.3	0.000000	0.000000	6.673050	-0.065738	NaN	0.000000	0.001735	0.001702	28.0829	0.068103	0.002097	32.4722	-31.3421	15.6619	-0.012773	0.671145	-0.469176	-0.470602	-0.065738	32.4722	-0.467658	-1.20934e+06	5.435870E-8	NaN
772	1.000000	0.682534	7.37261e+06	-38739.1	1055.82	-29796.3	0.000000	0.000000	6.683016	-0.000888	NaN	0.000000	0.001780	0.001684	28.0827	0.181207	0.001952	92.8236	-24.3476	-162.16	-0.072106	0.681246	-0.459213	-0.460501	-0.000888	92.8236	-0.459206	-920148	9.647278E-10	NaN
772	1.000000	0.692529	7.37261e+06	-38739.1	1055.82	-29796.3	0.000000	0.000000	6.693009	-0.055475	NaN	0.000000	0.001675	0.001715	28.0836	0.030717	0.001948	15.7699	-158.971	14.8449	-0.042675	0.691151	-0.449218	-0.450596	-0.055475	15.7699	-0.446580	-611166	9.076909E-8	NaN
772	1.000000	0.702533	7.37261e+06	-38739.1	1055.82	-29796.3	0.000000	0.000000	6.703014	-0.023970	NaN	0.000000	0.001705	0.001710	28.0839	0.060002	0.002057	29.1713	-103.833	-166.309	-0.033451	0.701173	-0.439214	-0.440575	-0.023970	29.1713	-0.438598	-471595	5.082757E-8	NaN
772	1.000000	0.712553	7.37261e+06	-38739.1	1055.82	-29796.3	0.000000	0.000000	6.713033	-0.038325	NaN	0.000000	0.001684	0.001743	28.084	0.091293	0.001943	46.9925	-153.268	12.7919	-0.084627	0.711206	-0.429194	-0.430541	-0.038325	46.9925	-0.428583	-340414	1.125849E-7	NaN
772	1.000000	0.722569	7.37261e+06	-38739.1	1055.82	-29796.3	0.000000	0.000000	6.723049	-0.033028	NaN	0.000000	0.001714	0.001719	28.084	0.054457	0.002140	25.4514	150.035	-166.16	-0.103233	0.721246	-0.419178	-0.420501	-0.033028	25.4514	-0.418205	-242636	1.361205E-7	NaN
772	1.000000	0.732542	7.37261e+06	-38739.1	1055.82	-29796.3	0.000000	0.000000	6.733023	-0.022425	NaN	0.000000	0.001671	0.001722	28.0838	0.086448	0.002109	40.9983	151.269	13.4488	-0.029689	0.731171	-0.409205	-0.410576	-0.022425	40.9983	-0.408795	-178346	1.257374E-7	NaN
772	1.000000	0.742552	7.37261e+06	-38739.1	1055.82	-29796.3	0.000000	0.000000	6.743029	-0.128300	NaN	0.000000	0.001659	0.001726	28.0843	0.046889	0.001977	23.7175	-43.3851	-166.23	-0.141044	0.741268	-0.399195	-0.400479	-0.128300	23.7175	-0.395138	-113920	1.126234E-6	NaN
772	1.000000	0.752568	7.37261e+06	-38739.1	1055.82	-29796.3	0.000000	0.000000	6.753048	-0.035671	NaN	0.000000	0.001682	0.001712	28.0839	0.070516	0.002068	34.0999	105.61	16.2934	-0.044195	0.751220	-0.389179	-0.390527	-0.035671	34.0999	-0.388395	-91243.3	3.909439E-7	NaN
772	1.000000	0.762560	7.37261e+06	-38739.1	1055.82	-29796.3	0.000000	0.000000	6.763038	-0.096954	NaN	0.000000	0.001682	0.001702	28.0838	0.043636	0.002046	21.3249	-46.1892	-162.452	-0.038636	0.761315	-0.379187	-0.380432	-0.096954	21.3249	-0.375777	-60151.4	1.611835E-6	NaN
772	1.000000	0.772557	7.37261e+06	-38739.1	1055.82	-29796.3	0.000000	0.000000	6.773037	-0.044453	NaN	0.000000	0.001681	0.001734	28.0841	0.057564	0.002196	26.2143	-49.6694	13.5783	-0.027411	0.771201	-0.369190	-0.370546	-0.044453	26.2143	-0.367918	-46359.3	9.588859E-7	NaN
772	1.000000	0.782569	7.37261e+06	-38739.1	1055.82	-29796.3	0.000000	0.000000	6.783047	-0.089280	NaN	0.000000	0.001672	0.001756	28.0841	0.069996	0.002075	33.7313	147.555	-164.164	-0.039968	0.781289	-0.359178	-0.360458	-0.089280	33.7313	-0.357193	-32452.6	2.751079E-6	NaN
772	1.000000	0.792595	7.37261e+06	-38739.1	1055.82	-29796.3	0.000000	0.000000	6.793070	-0.177070	NaN	0.000000	0.001689	0.001762	28.0844	0.028325	0.001929	14.6868	-15.681	14.2915	-0.053207	0.791220	-0.349152	-0.350527	-0.177070	14.6868	-0.340110	-18329.6	9.660311E-6	NaN
772	1.000000	0.802569	7.37261e+06	-38739.1	1055.82	-29796.3	0.000000	0.000000	6.803051	-0.004131	NaN	0.000000	0.001684	0.001741	28.0843	0.076398	0.002091	36.5376	-6.690349	-163.343	-0.005106	0.801253	-0.339178	-0.340494	-0.004131	36.5376	-0.339094	-17714.9	2.331947E-7	NaN
772	1.000000	0.812604	7.37261e+06	-38739.1	1055.82	-29796.3	0.000000	0.000000	6.813085	-0.015129	NaN	0.000000	0.001685	0.001738	28.0843	0.098925	0.001959	50.487	-48.03	9.083129	-0.026120	0.811254	-0.329143	-0.330494	-0.015129	50.487	-0.328918	-12577.9	1.202822E-6	NaN
772	1.000000	0.822619	7.37261e+06	-38739.1	1055.82	-29796.3	0.000000	0.000000	6.823094	-0.168730	NaN	0.000000	0.001686	0.001718	28.084	0.049635	0.002062	24.0706	-105.546	-165.248	-0.120248	0.821254	-0.319128	-0.320493	-0.168730	24.0706	-0.313871	-7555.81	2.233123E-5	NaN
772	1.000000	0.832587	7.37261e+06	-38739.1	1055.82	-29796.3	0.000000	0.000000	6.833065	-0.095744	NaN	0.000000	0.001710	0.001702	28.0828	0.071579	0.001959	36.5402	28.8321	14.8569	-0.090036	0.831221	-0.309160	-0.310526	-0.095744	36.5402	-0.307195	-6018.86	1.590727E-5	NaN
772	1.000000	0.842592	7.37261e+06	-38739.1	1055.82	-29796.3	0.000000	0.000000	6.843074	-0.001157	NaN	0.000000	0.001640	0.001663	28.0828	0.022879	0.002006	11.4072	-39.7595	-168.347	-0.035993	0.841292	-0.299156	-0.300455	-0.001157	11.4072	-0.299079	-4559.62	2.537413E-7	NaN
772	1.000000	0.852605	7.37261e+06	-38739.1	1055.82	-29796.3	0.000000	0.000000	6.853084	-0.058626	NaN	0.000000	0.001651	0.001764	28.083	0.010989	0.001964	5.595810	62.505	14.9218	-0.117002	0.851250	-0.289143	-0.290497	-0.058626	5.595810	-0.281285	-2468.02	2.375418E-5	NaN
772	1.000000	0.862624	7.37261e+06	-38739.1	1055.82	-29796.3	0.000000	0.000000	6.863104	-0.043006	NaN	0.000000	0.001654	0.001737	28.0829	0.107248	0.002036	52.6768	-49.8297	-164.011	-0.036247	0.861346	-0.279124	-0.280401	-0.043006	52.6768	-0.278511	-2241.3	1.918788E-5	NaN
772	1.000000	0.872608	7.37261e+06	-38739.1	1055.82	-29796.3	0.000000	0.000000	6.873086	-0.095587	NaN	0.000000	0.001679	0.001724	28.0829	0.121561	0.001959	62.047	24.504	15.6146	-0.156145	0.871285	-0.269139	-0.270462	-0.095587	62.047	-0.267983	-1551.91	6.159320E-5	NaN
772	1.000000	0.882630	7.37261e+06	-38739.1	1055.82	-29796.3	0.000000	0.000000	6.883109	-0.052744	NaN	0.000000	0.001656	0.001718	28.083	0.042883	0.001973	21.7402	-36.6576	-161.904	-0.019527	0.881343	-0.259118	-0.260404	-0.052744	21.7402	-0.257298	-1065.26	4.951331E-5	NaN
772	1.000000	0.892642	7.37261e+06	-38739.1	1055.82	-29796.3	0.000000	0.000000	6.893120	-0.089581	NaN	0.000000	0.001693	0.001738	28.0827	0.096162	0.002130	45.1505	49.2453	19.8832	-0.055161	0.891276	-0.249105	-0.250471	-0.089581	45.1505	-0.247617	-755.222	0.000119	NaN
772	1.000000	0.902622	7.37261e+06	-38739.1	1055.82	-29796.3	0.000000	0.000000	6.903100	-0.094670	NaN	0.000000	0.001677	0.001732	28.0828	0.037529	0.002093	17.933	-141.055	-163.009	-0.050998	0.901324	-0.239125	-0.240423	-0.094670	17.933	-0.235166	-482.896	0.000196	NaN
772	1.000000	0.912598	7.37261e+06	-38739.1	1055.82	-29796.3	0.000000	0.000000	6.913079	-0.033193	NaN	0.000000	0.001696	0.001690	28.0826	0.115945	0.002120	54.6941	70.1786	17.562	0.018820	0.911354	-0.229149	-0.230393	-0.033193	54.6941	-0.228694	-381.836	8.693111E-5	NaN
772	1.000000	0.922634	7.37261e+06	-38739.1	1055.82	-29796.3	0.000000	0.000000	6.923114	-0.049282	NaN	0.000000	0.001654	0.001736	28.0831	0.082482	0.001934	42.6499	-49.8908	-164.401	-0.034354	0.921319	-0.219113	-0.220428	-0.049282	42.6499	-0.218246	-260.387	0.000189	NaN
772	1.000000	0.932657	7.37261e+06	-38739.1	1055.82	-29796.3	0.000000	0.000000	6.933139	-0.004219	NaN	0.000000	0.001660	0.001742	28.0829	0.114499	0.001966	58.2478	-50.0495	14.4699	-0.099685	0.931287	-0.209090	-0.210460	-0.004219	58.2478	-0.209036	-185.008	2.280532E-5	NaN
772	1.000000	0.942617	7.37261e+06	-38739.1	1055.82	-29796.3	0.000000	0.000000	6.943097	-0.056125	NaN	0.000000	0.001662	0.001734	28.083	0.059251	0.002080	28.4905	-170.026	-166.306	-0.076039	0.941297	-0.199130	-0.200450	-0.056125	28.4905	-0.197652	-120.516	0.000466	NaN
772	1.000000	0.952641	7.37261e+06	-38739.1	1055.82	-29796.3	0.000000	0.000000	6.953119	-0.096240	NaN	0.000000	0.001658	0.001735	28.0828	0.050306	0.002191	22.9593	-46.1835	12.6755	-0.071869	0.951287	-0.189107	-0.190460	-0.096240	22.9593	-0.185963	-76.9743	0.001250	NaN
772	1.000000	0.962641	7.37261e+06	-38739.1	1055.82	-29796.3	0.000000	0.000000	6.963121	-0.060176	NaN	0.000000	0.001655	0.001751	28.0831	0.082608	0.002003	41.2336	-136.433	-163.431	0.080471	0.961336	-0.179106	-0.180411	-0.060176	41.2336	-0.178011	-56.4373	0.001066	NaN
772	1.000000	0.972660	7.37261e+06	-38739.1	1055.82	-29796.3	0.000000	0.000000	6.973140	-0.048963	NaN	0.000000	0.001661	0.001713	28.0843	0.073443	0.001914	38.3682	37.1563	11.4257	-0.036365	0.971284	-0.169087	-0.170464	-0.048963	38.3682	-0.168130	-38.1133	0.001285	NaN
772	1.000000	0.982673	7.37261e+06	-38739.1	1055.82	-29796.3	0.000000	0.000000	6.983154	-0.037352	NaN	0.000000	0.001683	0.001717	28.084	0.083417	0.001834	45.484	115.819	-163.062	-0.053421	0.981312	-0.159074	-0.160435	-0.037352	45.484	-0.158458	-25.7355	0.001451	NaN
772	1.000000	0.992663	7.37261e+06	-38739.1	1055.82	-29796.3	0.000000	0.000000	6.993145	-0.002538	NaN	0.000000	0.001673	0.001760	28.0844	0.081966	0.002041	40.1655	140.597	16.626	-0.092203	0.991278	-0.149084	-0.150469	-0.002538	40.1655	-0.149037	-17.3945	0.000146	NaN
772	1.000000	1.002659	7.37261e+06	-38739.1	1055.82	-29796.3	0.000000	0.000000	7.003141	0.001039	NaN	0.000000	0.001666	0.001792	28.0841	0.108533	0.002101	51.6666	166.493	-167.133	0.041587	1.001311	-0.139088	-0.140436	0.001039	51.6666	-0.139103	-11.3789	-9.128718E-5	NaN
772	1.000000	1.012671	7.37261e+06	-38739.1	1055.82	-29796.3	0.000000	0.000000	7.013149	-0.087796	NaN	0.000000	0.001684	0.001702	28.0842	0.107865	0.001997	54.0093	178.591	12.8703	-0.116561	1.011294	-0.129076	-0.130453	-0.087796	54.0093	-0.127857	-6.921833	0.012684	NaN
772	1.000000	1.022692	7.37261e+06	-38739.1	1055.82	-29796.3	0.000000	0.000000	7.023172	-0.043366	NaN	0.000000	0.001675	0.001725	28.0841	0.041571	0.001861	22.3429	-118.554	-164.499	-0.080073	1.021349	-0.119055	-0.120398	-0.043366	22.3429	-0.117600	-4.319107	0.010040	NaN
772	1.000000	1.032668	7.37261e+06	-38739.1	1055.82	-29796.3	0.000000	0.000000	7.033147	-0.077167	NaN	0.000000	0.001668	0.001748	28.0842	0.105047	0.001885	55.7221	-131.912	12.5132	-0.087117	1.031276	-0.109079	-0.110471	-0.077167	55.7221	-0.108040	-2.731206	0.028254	NaN
772	1.000000	1.042687	7.37261e+06	-38739.1	1055.82	-29796.3	0.000000	0.000000	7.043169	0.018925	NaN	0.000000	0.001662	0.001747	28.084	0.013081	0.002123	6.161131	26.8567	-163.253	0.024662	1.041372	-0.099061	-0.100375	0.018925	6.161131	-0.101364	-1.958420	-0.009663	NaN
772	1.000000	1.052689	7.37261e+06	-38739.1	1055.82	-29796.3	0.000000	0.000000	7.053169	-0.047004	NaN	0.000000	0.001680	0.001724	28.0841	0.016425	0.002084	7.882635	129.204	17.6222	-0.000646	1.051306	-0.089058	-0.090442	-0.047004	7.882635	-0.084586	-0.802876	0.058544	NaN
772	1.000000	1.062681	7.37261e+06	-38739.1	1055.82	-29796.3	0.000000	0.000000	7.063156	-0.161362	NaN	0.000000	0.001657	0.001734	28.084	0.113207	0.002025	55.8933	148.914	-161.705	-0.187744	1.061425	-0.079067	-0.080323	-0.161362	55.8933	-0.076901	-0.516879	0.312186	NaN
772	1.000000	1.072668	7.37261e+06	-38739.1	1055.82	-29796.3	0.000000	0.000000	7.073151	0.019750	NaN	0.000000	0.001664	0.001710	28.0837	0.049028	0.002055	23.8604	32.2674	14.2767	-0.012211	1.071299	-0.069079	-0.070448	0.019750	23.8604	-0.069700	-0.334839	-0.058982	NaN
772	1.000000	1.082688	7.37261e+06	-38739.1	1055.82	-29796.3	0.000000	0.000000	7.083170	-0.002925	NaN	0.000000	0.001707	0.001773	28.084	0.051060	0.001984	25.7335	129.841	-162.948	-0.031675	1.081343	-0.059059	-0.060404	-0.002925	25.7335	-0.058974	-0.168257	0.017384	NaN
772	1.000000	1.092718	7.37261e+06	-38739.1	1055.82	-29796.3	0.000000	0.000000	7.093198	-0.044759	NaN	0.000000	0.001704	0.001766	28.084	0.087334	0.001910	45.719	166.15	11.1365	-0.033452	1.091335	-0.049030	-0.050412	-0.044759	45.719	-0.048295	-0.081009	0.552516	NaN
772	1.000000	1.102700	7.37261e+06	-38739.1	1055.82	-29796.3	0.000000	0.000000	7.103180	-0.051965	NaN	0.000000	0.001694	0.001802	28.0832	0.054699	0.001921	28.4699	-6.125187	-164.7	-0.038550	1.101395	-0.039047	-0.040353	-0.051965	28.4699	-0.037678	-0.038476	1.350607	NaN
772	1.000000	1.112688	7.37261e+06	-38739.1	1055.82	-29796.3	0.000000	0.000000	7.113166	-0.078205	NaN	0.000000	0.001658	0.001825	28.0828	0.106233	0.001935	54.8947	85.9637	13.2491	-0.064960	1.111313	-0.029060	-0.030434	-0.078205	54.8947	-0.027991	-0.020264	3.859292	NaN
772	1.000000	1.122715	7.37261e+06	-38739.1	1055.82	-29796.3	0.000000	0.000000	7.123196	-0.036181	NaN	0.000000	0.001687	0.001795	28.0826	0.142221	0.001939	73.355	18.4765	-164.809	-0.031572	1.121398	-0.019032	-0.020350	-0.036181	73.355	-0.018662	-0.011610	3.116326	NaN
772	1.000000	1.132731	7.37261e+06	-38739.1	1055.82	-29796.3	0.000000	0.000000	7.133210	-0.067188	NaN	0.000000	0.001682	0.001792	28.083	0.247010	0.001970	125.392	31.4958	17.2704	-0.008335	1.131375	-0.009017	-0.010372	-0.067188	125.392	-0.008615	-0.005590	12.0193	NaN
772	1.000000	1.142679	7.37261e+06	-38739.1	1055.82	-29796.3	0.000000	0.000000	7.143352	4.648385	NaN	0.000000	0.001693	0.001794	28.0826	5.358054	0.001755	3053.23	9.259187	-167.445	2.769837	1.141365	0.000932	-0.000382	4.648385	3053.23	-0.000210	-0.000156	-29762.8	NaN
772	2.000000	1.147699	7.37261e+06	-38739.1	1055.82	-29796.3	0.000000	0.000000	7.148641	11.1937	NaN	0.000000	0.001696	0.001798	28.0833	10.6941	0.001585	6749.07	3.701867	7.470495	10.1118	1.147422	0.005952	0.005675	11.1937	6749.07	0.004708	0.003869	2893.41	99137
772	2.000000	1.150170	7.37261e+06	-38739.1	1055.82	-29796.3	0.000000	0.000000	7.151292	15.5783	NaN	0.000000	0.001713	0.001823	28.0827	13.8701	0.001815	7642.52	3.715628	-170.821	15.0144	1.149893	0.008423	0.008145	15.5783	7642.52	0.006894	0.005929	2627.28	90678.2
772	2.000000	1.152686	7.37261e+06	-38739.1	1055.82	-29796.3	0.000000	0.000000	7.154002	20.2804	NaN	0.000000	0.001695	0.001802	28.0834	16.3626	0.001791	9136.45	7.087115	5.155827	19.4368	1.152308	0.010939	0.010561	20.2804	9136.45	0.009275	0.008386	2418.27	91151.7
772	2.000000	1.155104	7.37261e+06	-38739.1	1055.82	-29796.3	0.000000	0.000000	7.156696	27.0102	NaN	0.000000	0.001677	0.001784	28.0827	18.4458	0.001737	10619.8	-0.052287	-169.412	26.0559	1.154799	0.013357	0.013052	27.0102	10619.8	0.011449	0.010837	2492.44	93204.3
772	2.000000	1.157607	7.37261e+06	-38739.1	1055.82	-29796.3	0.000000	0.000000	7.159543	35.38	NaN	0.000000	0.001692	0.001769	28.0837	21.4482	0.001648	13015.3	1.498377	6.693207	32.9137	1.157230	0.015860	0.015483	35.38	13015.3	0.013821	0.013745	2573.98	101427
772	2.000000	1.160144	7.37261e+06	-38739.1	1055.82	-29796.3	0.000000	0.000000	7.162126	36.5277	NaN	0.000000	0.001694	0.001761	28.0829	24.9924	0.001907	13106.6	6.735045	-177.797	35.9583	1.159854	0.018396	0.018107	36.5277	13106.6	0.016306	0.017067	2140.29	91662
772	2.000000	1.162604	7.37261e+06	-38739.1	1055.82	-29796.3	0.000000	0.000000	7.164952	45.4331	NaN	0.000000	0.001669	0.001782	28.0833	26.8671	0.001806	14876.5	6.468266	2.184821	43.1391	1.162252	0.020856	0.020505	45.4331	14876.5	0.018566	0.020339	2233.83	95304.1
772	2.000000	1.165116	7.37261e+06	-38739.1	1055.82	-29796.3	0.000000	0.000000	7.167786	53.2462	NaN	0.000000	0.001678	0.001788	28.0826	28.8883	0.001756	16451.3	5.516798	-179.155	54.4307	1.164837	0.023369	0.023089	53.2462	16451.3	0.020942	0.024044	2214.53	96932.4
772	2.000000	1.167542	7.37261e+06	-38739.1	1055.82	-29796.3	0.000000	0.000000	7.170438	58.7275	NaN	0.000000	0.001671	0.001770	28.0828	31.8499	0.001892	16829.7	6.827541	-0.833155	56.0689	1.167319	0.025795	0.025572	58.7275	16829.7	0.023178	0.027784	2113.69	92246.5
772	2.000000	1.170100	7.37261e+06	-38739.1	1055.82	-29796.3	0.000000	0.000000	7.173311	66.4156	NaN	0.000000	0.001733	0.001761	28.0839	33.5265	0.001739	19278.3	4.000974	-179.276	65.1294	1.169822	0.028353	0.028075	66.4156	19278.3	0.025769	0.032430	2047.96	97806.6
772	2.000000	1.172633	7.37261e+06	-38739.1	1055.82	-29796.3	0.000000	0.000000	7.176196	74.9765	NaN	0.000000	0.001660	0.001786	28.084	35.4671	0.001849	19177.4	2.526065	3.603388	73.9497	1.172205	0.030886	0.030458	74.9765	19177.4	0.027954	0.036609	2048.03	91573.1
772	2.000000	1.175143	7.37261e+06	-38739.1	1055.82	-29796.3	0.000000	0.000000	7.178956	81.0504	NaN	0.000000	0.001621	0.001790	28.0838	37.946	0.001820	20853.6	6.392463	177.754	83.1563	1.174737	0.033396	0.032990	81.0504	20853.6	0.030481	0.041747	1941.46	93248.3
772	2.000000	1.177600	7.37261e+06	-38739.1	1055.82	-29796.3	0.000000	0.000000	7.181922	93.4507	NaN	0.000000	0.001677	0.001783	28.0845	41.0514	0.001786	22989	4.693716	-0.904919	92.3351	1.177236	0.035852	0.035489	93.4507	22989	0.032804	0.046755	1998.72	97135.4
772	2.000000	1.180092	7.37261e+06	-38739.1	1055.82	-29796.3	0.000000	0.000000	7.184641	98.9601	NaN	0.000000	0.001671	0.001757	28.0842	43.3439	0.001761	24619.7	5.033973	177.92	98.1636	1.179785	0.038345	0.038038	98.9601	24619.7	0.035331	0.052518	1884.29	98152.3
772	2.000000	1.182596	7.37261e+06	-38739.1	1055.82	-29796.3	0.000000	0.000000	7.187493	107.447	NaN	0.000000	0.001685	0.001760	28.084	45.2122	0.001841	24564	6.028906	-3.014257	104.514	1.182231	0.040849	0.040484	107.447	24564	0.037568	0.057895	1855.88	93271.8
772	2.000000	1.185041	7.37261e+06	-38739.1	1055.82	-29796.3	0.000000	0.000000	7.190548	122.301	NaN	0.000000	0.001660	0.001751	28.084	46.8507	0.001780	26326.9	5.514785	176.697	118.722	1.184753	0.043294	0.043006	122.301	26326.9	0.039809	0.063537	1924.89	95424.5
772	2.000000	1.187535	7.37261e+06	-38739.1	1055.82	-29796.3	0.000000	0.000000	7.193503	133.521	NaN	0.000000	0.001674	0.001782	28.0843	49.1487	0.001763	27875.4	3.299047	-1.826615	129.871	1.187272	0.045788	0.045525	133.521	27875.4	0.042195	0.069825	1912.23	96380.7
772	2.000000	1.190113	7.37261e+06	-38739.1	1055.82	-29796.3	0.000000	0.000000	7.196259	137.844	NaN	0.000000	0.001641	0.001755	28.0841	52.0012	0.001777	29270.5	4.623616	176.469	139.286	1.189879	0.048366	0.048132	137.844	29270.5	0.044834	0.077117	1787.47	96300.8
772	2.000000	1.192610	7.37261e+06	-38739.1	1055.82	-29796.3	0.000000	0.000000	7.199554	157.251	NaN	0.000000	0.001676	0.001749	28.0843	54.1778	0.001790	30274.1	5.890922	-4.625041	156.668	1.192117	0.050863	0.050369	157.251	30274.1	0.046967	0.083271	1888.43	95851.4
772	2.000000	1.195040	7.37261e+06	-38739.1	1055.82	-29796.3	0.000000	0.000000	7.202468	169.054	NaN	0.000000	0.001721	0.001746	28.0841	55.9369	0.001874	29846.2	7.096857	174.13	167.418	1.194698	0.053293	0.052951	169.054	29846.2	0.049044	0.089483	1889.24	91157.7
772	2.000000	1.197487	7.37261e+06	-38739.1	1055.82	-29796.3	0.000000	0.000000	7.205216	176.361	NaN	0.000000	0.001657	0.001795	28.0843	57.3019	0.001744	32864.3	0.427539	0.003221	171.854	1.197146	0.055740	0.055398	176.361	32864.3	0.051715	0.097789	1803.49	96018.3
772	2.000000	1.200060	7.37261e+06	-38739.1	1055.82	-29796.3	0.000000	0.000000	7.208442	192.252	NaN	0.000000	0.001696	0.001788	28.084	61.4267	0.001810	33938.1	7.716946	173.203	193.02	1.199663	0.058313	0.057916	192.252	33938.1	0.054064	0.105388	1824.24	95513.8
772	2.000000	1.202500	7.37261e+06	-38739.1	1055.82	-29796.3	0.000000	0.000000	7.211392	204.663	NaN	0.000000	0.001679	0.001803	28.0843	62.0927	0.001833	33883.7	1.854934	-1.293654	198.785	1.202179	0.060753	0.060432	204.663	33883.7	0.056223	0.112614	1817.38	92250.4
772	2.000000	1.205036	7.37261e+06	-38739.1	1055.82	-29796.3	0.000000	0.000000	7.214400	216.154	NaN	0.000000	0.001713	0.001819	28.0828	64.489	0.001783	36167.9	3.858746	176.149	213.176	1.204723	0.063289	0.062976	216.154	36167.9	0.058806	0.121563	1778.12	94775.4
772	2.000000	1.207621	7.37261e+06	-38739.1	1055.82	-29796.3	0.000000	0.000000	7.217631	231.879	NaN	0.000000	0.001738	0.001782	28.0827	66.8011	0.001799	37122.7	3.021980	-3.978006	230.865	1.207203	0.065874	0.065456	231.879	37122.7	0.061189	0.130107	1782.23	94029.3
772	2.000000	1.210080	7.37261e+06	-38739.1	1055.82	-29796.3	0.000000	0.000000	7.220282	236.556	NaN	0.000000	0.001704	0.001785	28.0826	69.6668	0.001769	39384.8	3.706082	174.884	236.172	1.209878	0.068333	0.068131	236.556	39384.8	0.063828	0.139891	1691	96207.1
772	2.000000	1.212494	7.37261e+06	-38739.1	1055.82	-29796.3	0.000000	0.000000	7.223657	259.929	NaN	0.000000	0.001712	0.001796	28.0826	70.8535	0.001596	44404.4	3.817741	-5.575129	253.918	1.212142	0.070746	0.070395	259.929	44404.4	0.066356	0.149582	1737.71	104896
772	2.000000	1.214960	7.37261e+06	-38739.1	1055.82	-29796.3	0.000000	0.000000	7.226948	279.998	NaN	0.000000	0.001734	0.001750	28.083	73.2103	0.001845	39675.6	2.908238	176.253	275.729	1.214666	0.073213	0.072919	279.998	39675.6	0.067920	0.155730	1797.97	91856.7
772	2.000000	1.217543	7.37261e+06	-38739.1	1055.82	-29796.3	0.000000	0.000000	7.229882	288.565	NaN	0.000000	0.001673	0.001728	28.0827	77.3452	0.001861	41559.8	5.692007	-7.076060	286.857	1.217195	0.075796	0.075448	288.565	41559.8	0.070588	0.166488	1733.25	93058.4
772	2.000000	1.219990	7.37261e+06	-38739.1	1055.82	-29796.3	0.000000	0.000000	7.233368	313.826	NaN	0.000000	0.001729	0.001762	28.0827	79.352	0.001844	43022.8	4.864122	173.701	311.057	1.219622	0.078243	0.077875	313.826	43022.8	0.072772	0.175547	1787.7	93815.5
772	2.000000	1.222530	7.37261e+06	-38739.1	1055.82	-29796.3	0.000000	0.000000	7.236450	327.023	NaN	0.000000	0.001691	0.001814	28.0828	80.8302	0.001799	44924.6	6.141592	-7.504669	322.231	1.222145	0.080783	0.080398	327.023	44924.6	0.075323	0.186414	1754.28	95064.4
772	2.000000	1.225057	7.37261e+06	-38739.1	1055.82	-29796.3	0.000000	0.000000	7.239555	341.079	NaN	0.000000	0.001706	0.001813	28.083	82.4352	0.001820	45291.5	6.910668	172.346	341.279	1.224675	0.083310	0.082927	341.079	45291.5	0.077662	0.196644	1734.5	93314.6
772	2.000000	1.227612	7.37261e+06	-38739.1	1055.82	-29796.3	0.000000	0.000000	7.242430	348.88	NaN	0.000000	0.001716	0.001794	28.0827	86.2163	0.001867	46181.2	6.588923	-8.736945	351.319	1.227291	0.085865	0.085544	348.88	46181.2	0.080199	0.208034	1677.03	92506.3
772	2.000000	1.230055	7.37261e+06	-38739.1	1055.82	-29796.3	0.000000	0.000000	7.245787	371.12	NaN	0.000000	0.001731	0.001760	28.0825	86.9694	0.001799	48333.4	1.259946	176.294	372.634	1.229646	0.088307	0.087899	371.12	48333.4	0.082549	0.218847	1695.8	94395.3
772	2.000000	1.232673	7.37261e+06	-38739.1	1055.82	-29796.3	0.000000	0.000000	7.249285	392.526	NaN	0.000000	0.001745	0.001773	28.0829	90.5936	0.001782	50842.9	10.764	-13.4315	396.069	1.232127	0.090926	0.090380	392.526	50842.9	0.085136	0.231050	1698.88	96638.6
772	2.000000	1.235033	7.37261e+06	-38739.1	1055.82	-29796.3	0.000000	0.000000	7.252669	417.46	NaN	0.000000	0.001707	0.001768	28.0831	91.5038	0.001902	48104.8	6.589321	171.591	419.373	1.234579	0.093285	0.092832	417.46	48104.8	0.086777	0.238951	1747.06	89909.9
772	2.000000	1.237492	7.37261e+06	-38739.1	1055.82	-29796.3	0.000000	0.000000	7.255836	434.681	NaN	0.000000	0.001745	0.001777	28.0841	93.7424	0.001817	51586.2	5.735864	-8.983244	431.06	1.237189	0.095745	0.095442	434.681	51586.2	0.089425	0.251963	1725.17	93894
772	2.000000	1.240090	7.37261e+06	-38739.1	1055.82	-29796.3	0.000000	0.000000	7.258982	447.996	NaN	0.000000	0.001709	0.001747	28.0842	96.6328	0.001880	51392.8	3.849993	173.27	450.491	1.239737	0.098343	0.097990	447.996	51392.8	0.091806	0.263932	1697.39	91396.5
772	2.000000	1.242457	7.37261e+06	-38739.1	1055.82	-29796.3	0.000000	0.000000	7.262307	471.325	NaN	0.000000	0.001741	0.001774	28.0842	97.57	0.001868	52220.7	2.207655	-4.778206	464.78	1.242236	0.100710	0.100489	471.325	52220.7	0.093941	0.274892	1714.58	90998.6
772	2.000000	1.244478	7.37261e+06	-38739.1	1055.82	-29796.3	0.000000	0.000000	7.264871	484.557	NaN	0.000000	0.001729	0.001775	28.0841	100.773	0.001811	55639.5	5.593441	-9.518668	480.392	1.244146	0.102731	0.102399	484.557	55639.5	0.096199	0.286707	1690.08	94937.5