File: remote_trans/data/nanoindenter/0828-1/data/Data_2025-08-06,11h17m57s/2025-07-22_16-23-58_1_18.txt
2025-07-22, 16:23:58, 1
Index	Phase	Displacement	Time	Pos X	Pos Y	Pos Z	Rot A	Rot B	Piezo Z	Force A	Force B	Gripper	Voltage A	Voltage B	Temperature	Amplitude force	Amplitude pos	Stiffness	Phase shift	Phase excitation	Force A raw	Displacement raw	HMax	HMax raw	Real Force	Real Stiffness	Contact Depth	Area	Hardness	Reduced Mod.
[#]	[#]	[um]	[s]	[um]	[um]	[um]	[m°]	[m°]	[um]	[uN]	[uN]	[V]	[V]	[V]	[°C]	[uN]	[um]	[N/m]	[°]	[°]	[uN]	[um]	[um]	[um]	[uN]	[N/m]	[um]	[um^2]	[MPa]	[MPa]
18	1.000000	0.002570	7.36522e+06	-39539.1	955.818	-29794.1	0.000000	0.000000	6.002795	-0.025430	NaN	0.000000	0.001640	0.001677	28.0832	0.061505	0.000831	73.9923	36.8225	-177.755	0.005778	0.001341	-1.055787	-1.057016	-0.025430	73.9923	-1.055529	-1.266863E+14	2.007357E-16	NaN
18	1.000000	0.010591	7.36522e+06	-39539.1	955.819	-29794.1	0.000000	0.000000	6.010818	0.035783	NaN	0.000000	0.001611	0.001705	28.082	0.028108	0.001109	25.3476	67.5086	-160.144	0.044702	0.009223	-1.047766	-1.049134	0.035783	25.3476	-1.048825	-1.029479E+14	-3.475866E-16	NaN
18	1.000000	0.018574	7.36522e+06	-39539.1	955.819	-29794.1	0.000000	0.000000	6.018799	-0.017749	NaN	0.000000	0.001538	0.001669	28.0812	0.053185	0.001762	30.1856	-50.6726	-165.936	0.082348	0.017213	-1.039783	-1.041144	-0.017749	30.1856	-1.039342	-7.675689E+13	2.312427E-16	NaN
18	1.000000	0.026566	7.36522e+06	-39539.1	955.818	-29794.1	0.000000	0.000000	6.026792	0.025674	NaN	0.000000	0.001570	0.001721	28.0813	0.064417	0.001820	35.3969	-158.804	-166.915	0.020121	0.025230	-1.031791	-1.033126	0.025674	35.3969	-1.032335	-6.178586E+13	-4.155296E-16	NaN
18	1.000000	0.034526	7.36522e+06	-39539.1	955.818	-29794.1	0.000000	0.000000	6.034752	0.017117	NaN	0.000000	0.001569	0.001727	28.0818	0.042927	0.001938	22.1476	60.6272	-163.489	-0.037372	0.033236	-1.023831	-1.025121	0.017117	22.1476	-1.024411	-4.833840E+13	-3.541078E-16	NaN
18	1.000000	0.042539	7.36522e+06	-39539.1	955.819	-29794.1	0.000000	0.000000	6.042768	0.086106	NaN	0.000000	0.001566	0.001710	28.0821	0.129582	0.002060	62.8944	-73.0683	-166.818	0.073661	0.041228	-1.015818	-1.017129	0.086106	62.8944	-1.016845	-3.823820E+13	-2.251819E-15	NaN
18	1.000000	0.050540	7.36522e+06	-39539.1	955.818	-29794.1	0.000000	0.000000	6.050768	0.072363	NaN	0.000000	0.001545	0.001726	28.0839	0.087217	0.002042	42.7161	-141.539	-166.356	0.097980	0.049204	-1.007817	-1.009153	0.072363	42.7161	-1.009088	-3.006777E+13	-2.406659E-15	NaN
18	1.000000	0.058565	7.36522e+06	-39539.1	955.819	-29794.1	0.000000	0.000000	6.058791	0.019412	NaN	0.000000	0.001558	0.001743	28.0831	0.083510	0.002024	41.2638	-163.173	-164.009	0.108734	0.057269	-0.999792	-1.001088	0.019412	41.2638	-1.000145	-2.278868E+13	-8.518140E-16	NaN
18	1.000000	0.066549	7.36522e+06	-39539.1	955.819	-29794.1	0.000000	0.000000	6.066780	0.139368	NaN	0.000000	0.001584	0.001725	28.0847	0.060462	0.001959	30.8603	-11.7381	-164.894	0.111929	0.065238	-0.991808	-0.993119	0.139368	30.8603	-0.995195	-1.954678E+13	-7.129972E-15	NaN
18	1.000000	0.074558	7.36522e+06	-39539.1	955.818	-29794.1	0.000000	0.000000	6.074784	0.003826	NaN	0.000000	0.001553	0.001742	28.0833	0.061514	0.002011	30.5895	-127.331	-165.41	0.074676	0.073222	-0.983799	-0.985135	0.003826	30.5895	-0.983893	-1.376735E+13	-2.779085E-16	NaN
18	1.000000	0.082545	7.36522e+06	-39539.1	955.819	-29794.1	0.000000	0.000000	6.082772	0.022367	NaN	0.000000	0.001550	0.001779	28.0835	0.092319	0.001829	50.4759	169.662	-167.124	0.031855	0.081205	-0.975812	-0.977152	0.022367	50.4759	-0.976144	-1.082576E+13	-2.066049E-15	NaN
18	1.000000	0.090535	7.36522e+06	-39539.1	955.818	-29794.1	0.000000	0.000000	6.090762	0.027931	NaN	0.000000	0.001549	0.001753	28.0822	0.013475	0.001970	6.841537	11.6485	-169.392	-0.038289	0.089197	-0.967822	-0.969160	0.027931	6.841537	-0.970884	-9.195409E+12	-3.037453E-15	NaN
18	1.000000	0.098543	7.36522e+06	-39539.1	955.819	-29794.1	0.000000	0.000000	6.098768	-0.027007	NaN	0.000000	0.001555	0.001734	28.0821	0.121451	0.002017	60.2051	62.1581	-165.68	0.001318	0.097278	-0.959814	-0.961079	-0.027007	60.2051	-0.959477	-6.453904E+12	4.184570E-15	NaN
18	1.000000	0.106549	7.36522e+06	-39539.1	955.819	-29794.1	0.000000	0.000000	6.106775	0.009920	NaN	0.000000	0.001520	0.001724	28.0821	0.036796	0.002038	18.0555	-139.065	-171.682	-0.017396	0.105177	-0.951808	-0.953180	0.009920	18.0555	-0.952220	-5.151922E+12	-1.925556E-15	NaN
18	1.000000	0.114569	7.36522e+06	-39539.1	955.818	-29794.1	0.000000	0.000000	6.114800	0.121537	NaN	0.000000	0.001537	0.001712	28.0834	0.075354	0.002053	36.712	87.0006	-165.296	0.095308	0.113251	-0.943788	-0.945106	0.121537	36.712	-0.946270	-4.282779E+12	-2.837814E-14	NaN
18	1.000000	0.122561	7.36522e+06	-39539.1	955.818	-29794.1	0.000000	0.000000	6.122788	0.044485	NaN	0.000000	0.001553	0.001742	28.0828	0.048271	0.001918	25.1722	-142.501	-167.215	0.031773	0.121202	-0.935796	-0.937155	0.044485	25.1722	-0.937122	-3.223326E+12	-1.380095E-14	NaN
18	1.000000	0.130565	7.36522e+06	-39539.1	955.82	-29794.1	0.000000	0.000000	6.130787	-0.070693	NaN	0.000000	0.001523	0.001725	28.083	0.071591	0.001943	36.8467	-69.616	-167.161	-0.062826	0.129251	-0.927792	-0.929105	-0.070693	36.8467	-0.926353	-2.306618E+12	3.064776E-14	NaN
18	1.000000	0.138551	7.36522e+06	-39539.1	955.818	-29794.1	0.000000	0.000000	6.138776	-0.023803	NaN	0.000000	0.001561	0.001699	28.0831	0.096513	0.002068	46.6673	-117.825	-164.145	-0.011388	0.137298	-0.919806	-0.921059	-0.023803	46.6673	-0.919423	-1.859590E+12	1.280004E-14	NaN
18	1.000000	0.146577	7.36522e+06	-39539.1	955.818	-29794.1	0.000000	0.000000	6.146803	0.010046	NaN	0.000000	0.001578	0.001684	28.0833	0.117105	0.001873	62.5187	-113.988	-166.182	0.064554	0.145234	-0.911780	-0.913123	0.010046	62.5187	-0.911900	-1.471732E+12	-6.825662E-15	NaN
18	1.000000	0.154582	7.36522e+06	-39539.1	955.819	-29794.1	0.000000	0.000000	6.154810	0.063151	NaN	0.000000	0.001585	0.001718	28.0838	0.042776	0.001946	21.9793	-87.3788	-165.982	0.076864	0.153231	-0.903775	-0.905126	0.063151	21.9793	-0.905930	-1.222321E+12	-5.166443E-14	NaN
18	1.000000	0.162588	7.36522e+06	-39539.1	955.819	-29794.1	0.000000	0.000000	6.162818	0.116979	NaN	0.000000	0.001554	0.001707	28.0818	0.034501	0.001977	17.4491	34.856	-166.012	0.060508	0.161278	-0.895769	-0.897079	0.116979	17.4491	-0.900797	-1.041935E+12	-1.122710E-13	NaN
18	1.000000	0.170583	7.36522e+06	-39539.1	955.818	-29794.1	0.000000	0.000000	6.170805	-0.074868	NaN	0.000000	0.001574	0.001696	28.08	0.041975	0.002189	19.1793	-126.781	-167.251	-0.100626	0.169265	-0.887774	-0.889092	-0.074868	19.1793	-0.884846	-6.342218E+11	1.180465E-13	NaN
18	1.000000	0.178585	7.36522e+06	-39539.1	955.818	-29794.1	0.000000	0.000000	6.178810	0.000232	NaN	0.000000	0.001542	0.001729	28.081	0.104164	0.002105	49.4906	91.2703	-166.268	0.036410	0.177324	-0.879772	-0.881033	0.000232	49.4906	-0.879776	-5.415968E+11	-4.284684E-16	NaN
18	1.000000	0.186585	7.36522e+06	-39539.1	955.818	-29794.1	0.000000	0.000000	6.186811	0.011581	NaN	0.000000	0.001570	0.001741	28.08	0.036656	0.001864	19.669	-53.6392	-162.768	0.031049	0.185260	-0.871772	-0.873097	0.011581	19.669	-0.872214	-4.279481E+11	-2.706170E-14	NaN
18	1.000000	0.194593	7.36522e+06	-39539.1	955.819	-29794.1	0.000000	0.000000	6.194819	0.006731	NaN	0.000000	0.001542	0.001720	28.0813	0.007791	0.001945	4.006018	10.1264	-167.092	0.033505	0.193271	-0.863764	-0.865086	0.006731	4.006018	-0.865024	-3.420694E+11	-1.967779E-14	NaN
18	1.000000	0.202610	7.36522e+06	-39539.1	955.818	-29794.1	0.000000	0.000000	6.202836	0.021053	NaN	0.000000	0.001542	0.001741	28.08	0.127080	0.001917	66.2808	-35.163	-164.922	0.064005	0.201285	-0.855747	-0.857072	0.021053	66.2808	-0.855986	-2.580955E+11	-8.157054E-14	NaN
18	1.000000	0.210603	7.36522e+06	-39539.1	955.819	-29794.1	0.000000	0.000000	6.210833	0.094057	NaN	0.000000	0.001544	0.001721	28.0821	0.119810	0.001892	63.3191	77.2968	-164.032	0.066709	0.209263	-0.847754	-0.849094	0.094057	63.3191	-0.848868	-2.067307E+11	-4.549718E-13	NaN
18	1.000000	0.218616	7.36522e+06	-39539.1	955.819	-29794.1	0.000000	0.000000	6.218845	0.070302	NaN	0.000000	0.001557	0.001762	28.0812	0.080806	0.002067	39.0856	-154.544	-168.382	0.122270	0.217283	-0.839741	-0.841074	0.070302	39.0856	-0.841090	-1.622008E+11	-4.334233E-13	NaN
18	1.000000	0.226612	7.36522e+06	-39539.1	955.818	-29794.1	0.000000	0.000000	6.226839	0.033746	NaN	0.000000	0.001546	0.001737	28.0811	0.099861	0.002024	49.3268	-58.8779	-167.053	-0.097611	0.225281	-0.831745	-0.833076	0.033746	49.3268	-0.832258	-1.231359E+11	-2.740527E-13	NaN
18	1.000000	0.234598	7.36522e+06	-39539.1	955.819	-29794.1	0.000000	0.000000	6.234824	0.019475	NaN	0.000000	0.001590	0.001763	28.0813	0.114680	0.002048	56.008	-16.6331	-166.774	-0.047947	0.233298	-0.823759	-0.825059	0.019475	56.008	-0.824020	-9.521783E+10	-2.045301E-13	NaN
18	1.000000	0.242632	7.36522e+06	-39539.1	955.818	-29794.1	0.000000	0.000000	6.242860	0.066235	NaN	0.000000	0.001521	0.001761	28.081	0.096609	0.002068	46.7237	-97.3392	-165.031	0.091174	0.241294	-0.815725	-0.817063	0.066235	46.7237	-0.816789	-7.597278E+10	-8.718293E-13	NaN
18	1.000000	0.250609	7.36522e+06	-39539.1	955.818	-29794.1	0.000000	0.000000	6.250834	-0.003482	NaN	0.000000	0.001567	0.001748	28.0813	0.126491	0.002153	58.7469	138.444	-166.878	-0.009063	0.249287	-0.807748	-0.809070	-0.003482	58.7469	-0.807704	-5.720275E+10	6.087717E-14	NaN
18	1.000000	0.258648	7.36522e+06	-39539.1	955.818	-29794.1	0.000000	0.000000	6.258874	-0.000975	NaN	0.000000	0.001524	0.001767	28.0807	0.050697	0.001932	26.2349	-54.3766	-165.615	-0.038756	0.257332	-0.799709	-0.801025	-0.000975	26.2349	-0.799681	-4.451720E+10	2.190702E-14	NaN
18	1.000000	0.266627	7.36522e+06	-39539.1	955.819	-29794.1	0.000000	0.000000	6.266854	0.047811	NaN	0.000000	0.001524	0.001773	28.0792	0.031720	0.002043	15.5296	-40.4018	-165.768	0.128355	0.265316	-0.791730	-0.793041	0.047811	15.5296	-0.794039	-3.731970E+10	-1.281107E-12	NaN
18	1.000000	0.274622	7.36522e+06	-39539.1	955.818	-29794.1	0.000000	0.000000	6.274849	0.035292	NaN	0.000000	0.001535	0.001755	28.0802	0.016657	0.002020	8.245143	-163.375	-167.187	-0.020409	0.273323	-0.783735	-0.785034	0.035292	8.245143	-0.786945	-2.989432E+10	-1.180563E-12	NaN
18	1.000000	0.282635	7.36522e+06	-39539.1	955.819	-29794.1	0.000000	0.000000	6.282860	-0.001064	NaN	0.000000	0.001561	0.001775	28.0802	0.065471	0.002150	30.4564	94.8586	-163.949	-0.050715	0.281296	-0.775722	-0.777061	-0.001064	30.4564	-0.775696	-2.102494E+10	5.059271E-14	NaN
18	1.000000	0.290654	7.36522e+06	-39539.1	955.818	-29794.1	0.000000	0.000000	6.290880	0.009355	NaN	0.000000	0.001574	0.001761	28.081	0.083636	0.002029	41.2119	-140.786	-162.534	-0.007195	0.289291	-0.767703	-0.769066	0.009355	41.2119	-0.767873	-1.645818E+10	-5.683836E-13	NaN
18	1.000000	0.298651	7.36522e+06	-39539.1	955.819	-29794.1	0.000000	0.000000	6.298879	0.056752	NaN	0.000000	0.001564	0.001722	28.0829	0.054849	0.001933	28.3762	76.4876	-165.838	0.063853	0.297335	-0.759706	-0.761022	0.056752	28.3762	-0.761206	-1.335699E+10	-4.248862E-12	NaN
18	1.000000	0.306647	7.36522e+06	-39539.1	955.819	-29794.1	0.000000	0.000000	6.306875	0.063724	NaN	0.000000	0.001562	0.001707	28.0815	0.122619	0.002101	58.3755	-33.3442	-169.739	0.036574	0.305325	-0.751710	-0.753031	0.063724	58.3755	-0.752529	-1.017753E+10	-6.261280E-12	NaN
18	1.000000	0.314666	7.36522e+06	-39539.1	955.819	-29794.1	0.000000	0.000000	6.314892	0.023605	NaN	0.000000	0.001535	0.001757	28.0825	0.063411	0.001972	32.1516	-13.192	-162.034	0.060312	0.313311	-0.743691	-0.745046	0.023605	32.1516	-0.744242	-7.849183E+9	-3.007290E-12	NaN
18	1.000000	0.322646	7.36522e+06	-39539.1	955.818	-29794.1	0.000000	0.000000	6.322872	-0.003374	NaN	0.000000	0.001544	0.001754	28.0834	0.027110	0.002117	12.8076	102.978	-168.948	-0.026687	0.321341	-0.735710	-0.737015	-0.003374	12.8076	-0.735513	-5.969402E+9	5.651658E-13	NaN
18	1.000000	0.330660	7.36522e+06	-39539.1	955.818	-29794.1	0.000000	0.000000	6.330886	0.027844	NaN	0.000000	0.001529	0.001762	28.0808	0.131907	0.002039	64.7016	87.46	-165.73	-0.007623	0.329371	-0.727697	-0.728986	0.027844	64.7016	-0.728020	-4.718664E+9	-5.900759E-12	NaN
18	1.000000	0.338614	7.36522e+06	-39539.1	955.818	-29794.1	0.000000	0.000000	6.338841	0.042628	NaN	0.000000	0.001542	0.001765	28.0815	0.028281	0.001966	14.386	-33.5316	-166.215	0.052875	0.337369	-0.719743	-0.720988	0.042628	14.386	-0.721965	-3.901862E+9	-1.092511E-11	NaN
18	1.000000	0.346661	7.36522e+06	-39539.1	955.819	-29794.1	0.000000	0.000000	6.346884	-0.066172	NaN	0.000000	0.001564	0.001768	28.0816	0.076229	0.002011	37.9126	-148.787	-170.249	-0.000303	0.345354	-0.711696	-0.713003	-0.066172	37.9126	-0.710387	-2.712213E+9	2.439796E-11	NaN
18	1.000000	0.354642	7.36522e+06	-39539.1	955.819	-29794.1	0.000000	0.000000	6.354866	-0.018202	NaN	0.000000	0.001530	0.001783	28.0829	0.053623	0.001931	27.772	-14.0079	-166.997	0.043613	0.353299	-0.703715	-0.705058	-0.018202	27.772	-0.703224	-2.165468E+9	8.405642E-12	NaN
18	1.000000	0.362650	7.36522e+06	-39539.1	955.818	-29794.1	0.000000	0.000000	6.362878	0.065081	NaN	0.000000	0.001530	0.001778	28.0814	0.052155	0.001989	26.2231	-140.399	-166.072	0.097664	0.361341	-0.695707	-0.697016	0.065081	26.2231	-0.697568	-1.812673E+9	-3.590338E-11	NaN
18	1.000000	0.370658	7.36522e+06	-39539.1	955.818	-29794.1	0.000000	0.000000	6.370884	0.017161	NaN	0.000000	0.001529	0.001788	28.0817	0.049423	0.001931	25.5904	71.9712	-167.045	-0.001195	0.369356	-0.687699	-0.689001	0.017161	25.5904	-0.688202	-1.350044E+9	-1.271137E-11	NaN
18	1.000000	0.378666	7.36522e+06	-39539.1	955.818	-29794.1	0.000000	0.000000	6.378891	0.004880	NaN	0.000000	0.001503	0.001800	28.0823	0.149500	0.001982	75.4432	159.261	-165.507	0.009370	0.377400	-0.679691	-0.680957	0.004880	75.4432	-0.679740	-1.034299E+9	-4.717825E-12	NaN
18	1.000000	0.386673	7.36522e+06	-39539.1	955.818	-29794.1	0.000000	0.000000	6.386900	0.034613	NaN	0.000000	0.001518	0.001761	28.0813	0.033241	0.001967	16.8962	52.1791	-166.116	-0.002516	0.385308	-0.671684	-0.673049	0.034613	16.8962	-0.673220	-8.422885E+8	-4.109391E-11	NaN
18	1.000000	0.394689	7.36522e+06	-39539.1	955.819	-29794.1	0.000000	0.000000	6.394917	0.039519	NaN	0.000000	0.001523	0.001766	28.0821	0.049874	0.002000	24.9362	73.9301	-165.236	0.058648	0.393371	-0.663667	-0.664986	0.039519	24.9362	-0.664856	-6.471014E+8	-6.107048E-11	NaN
18	1.000000	0.402653	7.36522e+06	-39539.1	955.819	-29794.1	0.000000	0.000000	6.402880	0.031727	NaN	0.000000	0.001514	0.001740	28.0839	0.029510	0.002067	14.275	-79.5211	-166.326	0.057689	0.401365	-0.655704	-0.656992	0.031727	14.275	-0.657371	-5.110335E+8	-6.208393E-11	NaN
18	1.000000	0.410658	7.36522e+06	-39539.1	955.818	-29794.1	0.000000	0.000000	6.410886	0.054614	NaN	0.000000	0.001524	0.001748	28.0824	0.051533	0.002051	25.1254	-165.903	-167.787	0.151441	0.409353	-0.647699	-0.649004	0.054614	25.1254	-0.649329	-3.964989E+8	-1.377403E-10	NaN
18	1.000000	0.418702	7.36522e+06	-39539.1	955.818	-29794.1	0.000000	0.000000	6.418932	0.103421	NaN	0.000000	0.001534	0.001745	28.0806	0.021167	0.002035	10.3996	-125.834	-167.95	0.098881	0.417394	-0.639655	-0.640963	0.103421	10.3996	-0.647113	-3.697094E+8	-2.797352E-10	NaN
18	1.000000	0.426686	7.36522e+06	-39539.1	955.819	-29794.1	0.000000	0.000000	6.426913	0.045540	NaN	0.000000	0.001514	0.001736	28.0819	0.043395	0.002036	21.318	-148.051	-165.918	0.045071	0.425393	-0.631671	-0.632964	0.045540	21.318	-0.633273	-2.387631E+8	-1.907326E-10	NaN
18	1.000000	0.434677	7.36522e+06	-39539.1	955.818	-29794.1	0.000000	0.000000	6.434905	0.044538	NaN	0.000000	0.001535	0.001710	28.0808	0.178907	0.002026	88.2983	-147.986	-168.188	0.031706	0.433374	-0.623680	-0.624983	0.044538	88.2983	-0.624058	-1.784019E+8	-2.496520E-10	NaN
18	1.000000	0.442666	7.36522e+06	-39539.1	955.819	-29794.1	0.000000	0.000000	6.442894	0.055849	NaN	0.000000	0.001503	0.001733	28.0816	0.155284	0.002107	73.686	-18.6837	-166.385	0.049288	0.441406	-0.615691	-0.616951	0.055849	73.686	-0.616259	-1.393821E+8	-4.006874E-10	NaN
18	1.000000	0.450714	7.36522e+06	-39539.1	955.817	-29794.1	0.000000	0.000000	6.450940	0.000711	NaN	0.000000	0.001532	0.001745	28.0814	0.076796	0.001999	38.4194	32.4866	-163.927	0.038440	0.449402	-0.607643	-0.608955	0.000711	38.4194	-0.607657	-1.061374E+8	-6.698363E-12	NaN
18	1.000000	0.458724	7.36522e+06	-39539.1	955.818	-29794.1	0.000000	0.000000	6.458950	0.014666	NaN	0.000000	0.001557	0.001734	28.0806	0.075499	0.002041	36.9958	-167.894	-165.85	0.081188	0.457454	-0.599633	-0.600903	0.014666	36.9958	-0.599930	-8.308040E+7	-1.765315E-10	NaN
18	1.000000	0.466690	7.36522e+06	-39539.1	955.819	-29794.1	0.000000	0.000000	6.466918	0.073974	NaN	0.000000	0.001518	0.001700	28.0829	0.060080	0.001932	31.0957	-2.748966	-166.917	0.112727	0.465400	-0.591667	-0.592957	0.073974	31.0957	-0.593451	-6.764547E+7	-1.093556E-9	NaN
18	1.000000	0.474705	7.36522e+06	-39539.1	955.819	-29794.1	0.000000	0.000000	6.474933	0.059222	NaN	0.000000	0.001532	0.001722	28.0816	0.057254	0.001987	28.8145	28.433	-165.389	0.123835	0.473349	-0.583652	-0.585008	0.059222	28.8145	-0.585194	-5.204561E+7	-1.137885E-9	NaN
18	1.000000	0.482716	7.36522e+06	-39539.1	955.818	-29794.1	0.000000	0.000000	6.482944	0.059711	NaN	0.000000	0.001548	0.001697	28.0816	0.043097	0.001988	21.6778	154.505	-164.466	-0.019603	0.481351	-0.575641	-0.577005	0.059711	21.6778	-0.577707	-4.102704E+7	-1.455418E-9	NaN
18	1.000000	0.490737	7.36522e+06	-39539.1	955.818	-29794.1	0.000000	0.000000	6.490962	-0.002422	NaN	0.000000	0.001551	0.001742	28.0811	0.110909	0.002061	53.8083	26.8773	-165.621	0.060884	0.489404	-0.567620	-0.568953	-0.002422	53.8083	-0.567586	-2.973543E+7	8.143614E-11	NaN
18	1.000000	0.498709	7.36522e+06	-39539.1	955.819	-29794.1	0.000000	0.000000	6.498936	0.034053	NaN	0.000000	0.001549	0.001729	28.0805	0.000703	0.001954	0.359801	-140.071	-165.22	0.073943	0.497398	-0.559648	-0.560959	0.034053	0.359801	-0.630630	-2.196205E+8	-1.550519E-10	NaN
18	1.000000	0.506730	7.36522e+06	-39539.1	955.818	-29794.1	0.000000	0.000000	6.506958	0.053648	NaN	0.000000	0.001555	0.001652	28.081	0.078848	0.002001	39.4027	153.414	-163.411	0.083951	0.505383	-0.551627	-0.552974	0.053648	39.4027	-0.552648	-1.847662E+7	-2.903540E-9	NaN
18	1.000000	0.514733	7.36522e+06	-39539.1	955.818	-29794.1	0.000000	0.000000	6.514960	0.026342	NaN	0.000000	0.001537	0.001686	28.0806	0.041610	0.001997	20.8363	3.038375	-163.117	0.024295	0.513391	-0.543623	-0.544966	0.026342	20.8363	-0.544572	-1.428045E+7	-1.844595E-9	NaN
18	1.000000	0.522692	7.36522e+06	-39539.1	955.819	-29794.1	0.000000	0.000000	6.522922	0.112216	NaN	0.000000	0.001523	0.001644	28.0811	0.074455	0.001966	37.8695	21.9746	-163.127	0.178597	0.521382	-0.535665	-0.536975	0.112216	37.8695	-0.537887	-1.153593E+7	-9.727519E-9	NaN
18	1.000000	0.530731	7.36522e+06	-39539.1	955.818	-29794.1	0.000000	0.000000	6.530959	0.044095	NaN	0.000000	0.001541	0.001653	28.081	0.024034	0.002015	11.9293	100.187	-166.963	0.096493	0.529466	-0.527626	-0.528891	0.044095	11.9293	-0.530398	-9.08031e+06	-4.856077E-9	NaN
18	1.000000	0.538738	7.36522e+06	-39539.1	955.819	-29794.1	0.000000	0.000000	6.538966	0.060611	NaN	0.000000	0.001555	0.001667	28.0822	0.083435	0.001849	45.1274	14.2848	-162.865	0.011513	0.537380	-0.519619	-0.520977	0.060611	45.1274	-0.520626	-6.64211e+06	-9.125219E-9	NaN
18	1.000000	0.546746	7.36522e+06	-39539.1	955.818	-29794.1	0.000000	0.000000	6.546976	0.100437	NaN	0.000000	0.001528	0.001640	28.0825	0.065421	0.002039	32.0839	45.8178	-163.985	0.085857	0.545443	-0.511611	-0.512914	0.100437	32.0839	-0.513958	-5.36456e+06	-1.872230E-8	NaN
18	1.000000	0.554722	7.36522e+06	-39539.1	955.818	-29794.1	0.000000	0.000000	6.554949	0.024356	NaN	0.000000	0.001539	0.001669	28.0818	0.105868	0.002007	52.7504	146.502	-167.695	0.028431	0.553490	-0.503635	-0.504867	0.024356	52.7504	-0.503981	-3.8953e+06	-6.252739E-9	NaN
18	1.000000	0.562761	7.36522e+06	-39539.1	955.818	-29794.1	0.000000	0.000000	6.562987	0.024797	NaN	0.000000	0.001537	0.001660	28.0824	0.113921	0.002067	55.1039	-165.72	-166.71	0.048505	0.561485	-0.495596	-0.496872	0.024797	55.1039	-0.495933	-3.00792e+06	-8.243812E-9	NaN
18	1.000000	0.570789	7.36522e+06	-39539.1	955.818	-29794.1	0.000000	0.000000	6.571017	0.073417	NaN	0.000000	0.001539	0.001666	28.0812	0.043502	0.001941	22.4089	-73.6663	-165.693	0.064601	0.569435	-0.487568	-0.488922	0.073417	22.4089	-0.490025	-2.48741e+06	-2.951554E-8	NaN
18	1.000000	0.578770	7.36522e+06	-39539.1	955.818	-29794.1	0.000000	0.000000	6.578995	-0.008279	NaN	0.000000	0.001504	0.001671	28.082	0.069037	0.002075	33.2741	-31.164	-167.506	0.081103	0.577451	-0.479587	-0.480906	-0.008279	33.2741	-0.479400	-1.76656e+06	4.686500E-9	NaN
18	1.000000	0.586763	7.36522e+06	-39539.1	955.818	-29794.1	0.000000	0.000000	6.586989	0.024719	NaN	0.000000	0.001555	0.001686	28.0816	0.107676	0.002160	49.8394	138.606	-169.056	0.050650	0.585446	-0.471594	-0.472911	0.024719	49.8394	-0.471966	-1.38988e+06	-1.778490E-8	NaN
18	1.000000	0.594783	7.36522e+06	-39539.1	955.818	-29794.1	0.000000	0.000000	6.595008	0.000775	NaN	0.000000	0.001538	0.001670	28.0816	0.059630	0.001986	30.0236	71.3736	-166.592	0.035381	0.593445	-0.463574	-0.464912	0.000775	30.0236	-0.463593	-1.06047e+06	-7.305834E-10	NaN
18	1.000000	0.602772	7.36522e+06	-39539.1	955.818	-29794.1	0.000000	0.000000	6.602998	-0.002737	NaN	0.000000	0.001553	0.001658	28.0825	0.106752	0.001989	53.6627	-40.0067	-165.183	0.027157	0.601468	-0.455585	-0.456889	-0.002737	53.6627	-0.455546	-817340	3.349086E-9	NaN
18	1.000000	0.610754	7.36522e+06	-39539.1	955.818	-29794.1	0.000000	0.000000	6.610981	0.037088	NaN	0.000000	0.001561	0.001646	28.0829	0.052003	0.002104	24.7156	20.477	-166.352	0.046909	0.609450	-0.447603	-0.448907	0.037088	24.7156	-0.448728	-655290	-5.659840E-8	NaN
18	1.000000	0.618779	7.36522e+06	-39539.1	955.818	-29794.1	0.000000	0.000000	6.619008	0.075215	NaN	0.000000	0.001550	0.001649	28.0836	0.116775	0.001964	59.4603	46.4069	-165.472	0.054870	0.617425	-0.439578	-0.440932	0.075215	59.4603	-0.440527	-502105	-1.497990E-7	NaN
18	1.000000	0.626780	7.36522e+06	-39539.1	955.821	-29794.1	0.000000	0.000000	6.627007	0.019120	NaN	0.000000	0.001533	0.001663	28.0832	0.020585	0.002017	10.2033	-161.781	-163.379	0.004108	0.625450	-0.431577	-0.432907	0.019120	10.2033	-0.432982	-392855	-4.866919E-8	NaN
18	1.000000	0.634744	7.36522e+06	-39539.1	955.818	-29794.1	0.000000	0.000000	6.634970	0.011691	NaN	0.000000	0.001574	0.001676	28.0829	0.111641	0.001986	56.2102	18.727	-166.553	0.017310	0.633472	-0.423613	-0.424885	0.011691	56.2102	-0.423769	-290965	-4.018025E-8	NaN
18	1.000000	0.642796	7.36522e+06	-39539.1	955.819	-29794.1	0.000000	0.000000	6.643025	0.078017	NaN	0.000000	0.001591	0.001677	28.0831	0.063911	0.001944	32.8828	-179.041	-169.922	0.059866	0.641445	-0.415561	-0.416912	0.078017	32.8828	-0.417340	-235875	-3.307556E-7	NaN
18	1.000000	0.650787	7.36522e+06	-39539.1	955.818	-29794.1	0.000000	0.000000	6.651014	0.051786	NaN	0.000000	0.001542	0.001649	28.0812	0.054468	0.001981	27.4885	119.993	-165.112	-4.814940E-5	0.649499	-0.407570	-0.408858	0.051786	27.4885	-0.408983	-179447	-2.885847E-7	NaN
18	1.000000	0.658788	7.36522e+06	-39539.1	955.819	-29794.1	0.000000	0.000000	6.659017	0.102555	NaN	0.000000	0.001560	0.001647	28.0825	0.040725	0.002045	19.9116	-113.759	-166.627	0.150301	0.657484	-0.399569	-0.400873	0.102555	19.9116	-0.403432	-149595	-6.855488E-7	NaN
18	1.000000	0.666778	7.36522e+06	-39539.1	955.818	-29794.1	0.000000	0.000000	6.667005	0.048992	NaN	0.000000	0.001568	0.001666	28.0813	0.113246	0.001965	57.6364	-48.6168	-166.594	-0.002023	0.665466	-0.391579	-0.392891	0.048992	57.6364	-0.392216	-103481	-4.734368E-7	NaN
18	1.000000	0.674812	7.36522e+06	-39539.1	955.819	-29794.2	0.000000	0.000000	6.675038	0.004130	NaN	0.000000	0.001522	0.001677	28.0815	0.052746	0.001791	29.45	-119.339	-164.351	0.083937	0.673511	-0.383545	-0.384846	0.004130	29.45	-0.383650	-78025.3	-5.292918E-8	NaN
18	1.000000	0.682785	7.36522e+06	-39539.1	955.818	-29794.1	0.000000	0.000000	6.683011	0.011273	NaN	0.000000	0.001566	0.001679	28.0827	0.090177	0.001987	45.3811	75.0245	-166.784	0.077455	0.681449	-0.375572	-0.376908	0.011273	45.3811	-0.375758	-60112.8	-1.875341E-7	NaN
18	1.000000	0.690800	7.36522e+06	-39539.1	955.818	-29794.2	0.000000	0.000000	6.691027	0.031997	NaN	0.000000	0.001538	0.001655	28.0839	0.135696	0.002034	66.7095	153.453	-164.915	0.058012	0.689491	-0.367556	-0.368866	0.031997	66.7095	-0.367916	-46356.1	-6.902397E-7	NaN
18	1.000000	0.698809	7.36522e+06	-39539.1	955.819	-29794.2	0.000000	0.000000	6.699034	-0.008053	NaN	0.000000	0.001527	0.001646	28.0849	0.051065	0.002062	24.7706	-124.48	-165.198	0.064160	0.697491	-0.359548	-0.360866	-0.008053	24.7706	-0.359304	-34816.1	2.313082E-7	NaN
18	1.000000	0.706826	7.36522e+06	-39539.1	955.818	-29794.2	0.000000	0.000000	6.707053	0.051067	NaN	0.000000	0.001556	0.001636	28.0832	0.127251	0.002231	57.0471	40.3264	-166.311	0.020974	0.705521	-0.351531	-0.352836	0.051067	57.0471	-0.352203	-27476.1	-1.858617E-6	NaN
18	1.000000	0.714789	7.36522e+06	-39539.1	955.819	-29794.2	0.000000	0.000000	6.715016	0.045730	NaN	0.000000	0.001545	0.001653	28.0828	0.080652	0.002000	40.3213	-76.2769	-167.277	-0.001428	0.713504	-0.343568	-0.344853	0.045730	40.3213	-0.344419	-21178.9	-2.159213E-6	NaN
18	1.000000	0.722792	7.36522e+06	-39539.1	955.818	-29794.2	0.000000	0.000000	6.723020	0.065217	NaN	0.000000	0.001557	0.001662	28.0825	0.082658	0.002110	39.1705	37.5535	-167.203	-0.034342	0.721535	-0.335565	-0.336822	0.065217	39.1705	-0.336813	-16408.6	-3.974543E-6	NaN
18	1.000000	0.730827	7.36522e+06	-39539.1	955.818	-29794.2	0.000000	0.000000	6.731054	0.017744	NaN	0.000000	0.001533	0.001640	28.0821	0.045303	0.002114	21.4284	158.78	-165.528	0.080902	0.729457	-0.327529	-0.328900	0.017744	21.4284	-0.328151	-12256.1	-1.447803E-6	NaN
18	1.000000	0.738783	7.36522e+06	-39539.1	955.818	-29794.2	0.000000	0.000000	6.739006	-0.058016	NaN	0.000000	0.001525	0.001665	28.082	0.100159	0.001969	50.8647	117.646	-166.124	0.001674	0.737530	-0.319574	-0.320827	-0.058016	50.8647	-0.318719	-8907.89	6.512821E-6	NaN
18	1.000000	0.746811	7.36522e+06	-39539.1	955.819	-29794.2	0.000000	0.000000	6.747038	0.041528	NaN	0.000000	0.001542	0.001668	28.0815	0.039995	0.001986	20.1409	99.1034	-168.374	-0.016246	0.745503	-0.311546	-0.312854	0.041528	20.1409	-0.313093	-7358.44	-5.643533E-6	NaN
18	1.000000	0.754840	7.36522e+06	-39539.1	955.818	-29794.2	0.000000	0.000000	6.755065	0.000466	NaN	0.000000	0.001517	0.001699	28.0799	0.043839	0.002050	21.3833	-95.5573	-164.324	0.098744	0.753523	-0.303517	-0.304834	0.000466	21.3833	-0.303534	-5311.07	-8.778792E-8	NaN
18	1.000000	0.762831	7.36522e+06	-39539.1	955.819	-29794.2	0.000000	0.000000	6.763056	-0.003989	NaN	0.000000	0.001541	0.001673	28.0813	0.068798	0.001971	34.9002	-24.3603	-165.22	0.013818	0.761492	-0.295526	-0.296865	-0.003989	34.9002	-0.295441	-4024.09	9.912321E-7	NaN
18	1.000000	0.770828	7.36522e+06	-39539.1	955.819	-29794.2	0.000000	0.000000	6.771054	0.001726	NaN	0.000000	0.001526	0.001677	28.0817	0.144949	0.002132	67.9764	163.476	-167.89	-0.024328	0.769502	-0.287529	-0.288855	0.001726	67.9764	-0.287548	-3065.73	-5.629114E-7	NaN
18	1.000000	0.778842	7.36522e+06	-39539.1	955.818	-29794.2	0.000000	0.000000	6.779069	0.031381	NaN	0.000000	0.001573	0.001683	28.0825	0.042827	0.002068	20.714	-135.853	-162.518	0.063502	0.777523	-0.279515	-0.280834	0.031381	20.714	-0.280651	-2414.29	-1.299800E-5	NaN
18	1.000000	0.786804	7.36522e+06	-39539.1	955.818	-29794.2	0.000000	0.000000	6.787031	0.038638	NaN	0.000000	0.001547	0.001663	28.0828	0.049064	0.001988	24.6765	-134.57	-166.144	0.022452	0.785551	-0.271553	-0.272805	0.038638	24.6765	-0.272727	-1832.11	-2.108916E-5	NaN
18	1.000000	0.794826	7.36522e+06	-39539.1	955.818	-29794.2	0.000000	0.000000	6.795053	0.032710	NaN	0.000000	0.001559	0.001656	28.082	0.088358	0.002001	44.1513	-10.1451	-168.752	-0.014264	0.793559	-0.263531	-0.264798	0.032710	44.1513	-0.264087	-1353.46	-2.416743E-5	NaN
18	1.000000	0.802828	7.36522e+06	-39539.1	955.819	-29794.2	0.000000	0.000000	6.803057	0.083554	NaN	0.000000	0.001531	0.001701	28.0833	0.029960	0.001977	15.1541	-0.661773	-165.982	0.113324	0.801509	-0.255529	-0.256848	0.083554	15.1541	-0.259664	-1158.15	-7.214402E-5	NaN
18	1.000000	0.810863	7.36522e+06	-39539.1	955.818	-29794.2	0.000000	0.000000	6.811088	-0.017266	NaN	0.000000	0.001564	0.001651	28.0802	0.032756	0.001954	16.7611	-61.1311	-165.518	-0.000319	0.809550	-0.247494	-0.248807	-0.017266	16.7611	-0.246721	-731.438	2.360581E-5	NaN
18	1.000000	0.818886	7.36522e+06	-39539.1	955.818	-29794.2	0.000000	0.000000	6.819115	0.095798	NaN	0.000000	0.001537	0.001677	28.0807	0.036501	0.002003	18.2273	-178.517	-168.6	0.062632	0.817571	-0.239471	-0.240786	0.095798	18.2273	-0.243413	-649.788	-0.000147	NaN
18	1.000000	0.826878	7.36522e+06	-39539.1	955.82	-29794.2	0.000000	0.000000	6.827104	0.010698	NaN	0.000000	0.001559	0.001628	28.0818	0.115874	0.001967	58.9134	-165.519	-164.646	-0.003181	0.825544	-0.231479	-0.232813	0.010698	58.9134	-0.231615	-424.617	-2.519534E-5	NaN
18	1.000000	0.834858	7.36522e+06	-39539.1	955.819	-29794.2	0.000000	0.000000	6.835086	0.042156	NaN	0.000000	0.001537	0.001664	28.0808	0.107181	0.002004	53.4913	154.282	-168.597	0.032930	0.833545	-0.223499	-0.224812	0.042156	53.4913	-0.224090	-322.751	-0.000131	NaN
18	1.000000	0.842885	7.36522e+06	-39539.1	955.819	-29794.2	0.000000	0.000000	6.843114	0.080868	NaN	0.000000	0.001531	0.001629	28.0794	0.090713	0.002054	44.1677	44.3837	-167.021	0.091470	0.841552	-0.215471	-0.216805	0.080868	44.1677	-0.216845	-247.257	-0.000327	NaN
18	1.000000	0.850870	7.36522e+06	-39539.1	955.819	-29794.2	0.000000	0.000000	6.851094	-0.047259	NaN	0.000000	0.001586	0.001608	28.0832	0.051581	0.001750	29.4738	87.1012	-165.75	-0.034696	0.849523	-0.207487	-0.208834	-0.047259	29.4738	-0.206284	-166.91	0.000283	NaN
18	1.000000	0.858852	7.36522e+06	-39539.1	955.818	-29794.2	0.000000	0.000000	6.859077	-0.012238	NaN	0.000000	0.001598	0.001648	28.0832	0.059706	0.002072	28.8217	-166.511	-168.023	-0.049503	0.857561	-0.199505	-0.200796	-0.012238	28.8217	-0.199186	-127.737	9.580346E-5	NaN
18	1.000000	0.866872	7.36522e+06	-39539.1	955.819	-29794.2	0.000000	0.000000	6.867101	0.085662	NaN	0.000000	0.001568	0.001652	28.0836	0.130056	0.001969	66.0556	-40.9378	-166.922	0.112745	0.865548	-0.191485	-0.192809	0.085662	66.0556	-0.192458	-98.8556	-0.000867	NaN
18	1.000000	0.874866	7.36522e+06	-39539.1	955.818	-29794.2	0.000000	0.000000	6.875092	0.006435	NaN	0.000000	0.001584	0.001623	28.0834	0.087034	0.001908	45.6141	-67.0157	-166.969	-0.011922	0.873562	-0.183491	-0.184795	0.006435	45.6141	-0.183596	-70.2177	-9.164129E-5	NaN
18	1.000000	0.882889	7.36522e+06	-39539.1	955.818	-29794.2	0.000000	0.000000	6.883117	0.059940	NaN	0.000000	0.001541	0.001671	28.0837	0.064996	0.002109	30.8121	-157.507	-169.641	0.045877	0.881525	-0.175468	-0.176832	0.059940	30.8121	-0.176927	-54.0787	-0.001108	NaN
18	1.000000	0.890888	7.36522e+06	-39539.1	955.818	-29794.2	0.000000	0.000000	6.891115	0.031560	NaN	0.000000	0.001528	0.001638	28.0838	0.112987	0.001959	57.6692	-133.435	-167.483	0.084423	0.889560	-0.167469	-0.168797	0.031560	57.6692	-0.167879	-37.7314	-0.000836	NaN
18	1.000000	0.898873	7.36522e+06	-39539.1	955.819	-29794.2	0.000000	0.000000	6.899098	-0.022063	NaN	0.000000	0.001576	0.001657	28.0829	0.092092	0.001988	46.3261	45.7682	-163.684	0.016639	0.897532	-0.159484	-0.160825	-0.022063	46.3261	-0.159126	-26.4512	0.000834	NaN
18	1.000000	0.906899	7.36522e+06	-39539.1	955.818	-29794.2	0.000000	0.000000	6.907131	0.147748	NaN	0.000000	0.001538	0.001646	28.0829	0.095340	0.002016	47.2907	-46.0633	-170.399	0.147049	0.905598	-0.151458	-0.152759	0.147748	47.2907	-0.153801	-21.2308	-0.006959	NaN
18	1.000000	0.914884	7.36522e+06	-39539.1	955.818	-29794.2	0.000000	0.000000	6.915111	0.022953	NaN	0.000000	0.001564	0.001679	28.0829	0.086991	0.001948	44.6531	-36.011	-164.485	-0.024230	0.913640	-0.143473	-0.144717	0.022953	44.6531	-0.143858	-13.9639	-0.001644	NaN
18	1.000000	0.922867	7.36522e+06	-39539.1	955.818	-29794.2	0.000000	0.000000	6.923097	0.098576	NaN	0.000000	0.001579	0.001674	28.0827	0.082925	0.001962	42.2578	-13.342	-167.184	0.093996	0.921598	-0.135490	-0.136759	0.098576	42.2578	-0.137239	-10.4925	-0.009395	NaN
18	1.000000	0.930918	7.36522e+06	-39539.1	955.818	-29794.2	0.000000	0.000000	6.931145	0.037319	NaN	0.000000	0.001587	0.001693	28.0819	0.025271	0.001999	12.644	-36.7238	-166.213	-0.000923	0.929619	-0.127439	-0.128738	0.037319	12.644	-0.129652	-7.503384	-0.004974	NaN
18	1.000000	0.938915	7.36522e+06	-39539.1	955.819	-29794.2	0.000000	0.000000	6.939142	0.025996	NaN	0.000000	0.001537	0.001669	28.0833	0.028544	0.001958	14.5804	-100.002	-171.213	0.021682	0.937558	-0.119442	-0.120799	0.025996	14.5804	-0.120779	-5.009330	-0.005189	NaN
18	1.000000	0.946923	7.36522e+06	-39539.1	955.819	-29794.2	0.000000	0.000000	6.947149	0.021622	NaN	0.000000	0.001576	0.001648	28.0838	0.060119	0.001981	30.3535	-29.0225	-166.888	-0.003508	0.945615	-0.111434	-0.112742	0.021622	30.3535	-0.111968	-3.305149	-0.006542	NaN
18	1.000000	0.954918	7.36522e+06	-39539.1	955.818	-29794.2	0.000000	0.000000	6.955146	0.066926	NaN	0.000000	0.001575	0.001667	28.0835	0.025781	0.002120	12.1623	-29.316	-167.447	0.049712	0.953582	-0.103439	-0.104775	0.066926	12.1623	-0.107566	-2.668471	-0.025080	NaN
18	1.000000	0.962927	7.36522e+06	-39539.1	955.82	-29794.2	0.000000	0.000000	6.963152	-0.008790	NaN	0.000000	0.001603	0.001648	28.0837	0.137823	0.002000	68.8967	-52.6261	-167.858	0.046622	0.961610	-0.095430	-0.096747	-0.008790	68.8967	-0.095335	-1.435600	0.006123	NaN
18	1.000000	0.970913	7.36522e+06	-39539.1	955.819	-29794.2	0.000000	0.000000	6.971143	0.106970	NaN	0.000000	0.001559	0.001683	28.0842	0.096943	0.001949	49.7316	-118.819	-166.525	0.050004	0.969616	-0.087444	-0.088741	0.106970	49.7316	-0.089057	-1.027154	-0.104142	NaN
18	1.000000	0.978895	7.36522e+06	-39539.1	955.819	-29794.2	0.000000	0.000000	6.979122	0.038532	NaN	0.000000	0.001612	0.001647	28.0823	0.122824	0.001955	62.8291	120.631	-169.155	0.037577	0.977638	-0.079462	-0.080719	0.038532	62.8291	-0.079922	-0.616211	-0.062531	NaN
18	1.000000	0.986935	7.36522e+06	-39539.1	955.819	-29794.2	0.000000	0.000000	6.987160	-0.025533	NaN	0.000000	0.001594	0.001640	28.0806	0.078756	0.001934	40.7249	82.0243	-166.706	0.040381	0.985609	-0.071422	-0.072748	-0.025533	40.7249	-0.070951	-0.361656	0.070600	NaN
18	1.000000	0.994909	7.36522e+06	-39539.1	955.82	-29794.2	0.000000	0.000000	6.995138	0.076636	NaN	0.000000	0.001563	0.001656	28.0811	0.079714	0.002021	39.439	64.4307	-163.903	0.058112	0.993666	-0.063447	-0.064691	0.076636	39.439	-0.064905	-0.247706	-0.309384	NaN
18	1.000000	1.002943	7.36522e+06	-39539.1	955.82	-29794.2	0.000000	0.000000	7.003171	0.049850	NaN	0.000000	0.001572	0.001651	28.081	0.086371	0.001983	43.5645	-100.377	-164.154	0.001554	1.001619	-0.055414	-0.056738	0.049850	43.5645	-0.056272	-0.140380	-0.355111	NaN
18	1.000000	1.010953	7.36522e+06	-39539.1	955.82	-29794.2	0.000000	0.000000	7.011178	-0.004659	NaN	0.000000	0.001585	0.001661	28.0814	0.059318	0.001935	30.6489	93.9115	-167.79	0.073923	1.009646	-0.047404	-0.048711	-0.004659	30.6489	-0.047290	-0.075497	0.061715	NaN
18	1.000000	1.018943	7.36522e+06	-39539.1	955.819	-29794.2	0.000000	0.000000	7.019172	0.076267	NaN	0.000000	0.001599	0.001649	28.0824	0.169723	0.001957	86.7197	-111.516	-166.717	0.167484	1.017630	-0.039414	-0.040727	0.076267	86.7197	-0.040073	-0.045455	-1.677853	NaN
18	1.000000	1.026928	7.36522e+06	-39539.1	955.819	-29794.2	0.000000	0.000000	7.027156	0.044058	NaN	0.000000	0.001570	0.001631	28.0833	0.028915	0.001994	14.5027	136.663	-168.043	0.105315	1.025651	-0.031429	-0.032706	0.044058	14.5027	-0.033707	-0.029351	-1.501063	NaN
18	1.000000	1.034924	7.36522e+06	-39539.1	955.82	-29794.2	0.000000	0.000000	7.035151	0.024291	NaN	0.000000	0.001534	0.001671	28.0821	0.049706	0.002011	24.7132	-71.4793	-168.829	0.031724	1.033667	-0.023432	-0.024689	0.024291	24.7132	-0.024170	-0.016052	-1.513274	NaN
18	1.000000	1.042938	7.36522e+06	-39539.1	955.819	-29794.2	0.000000	0.000000	7.043165	0.045839	NaN	0.000000	0.001558	0.001652	28.0826	0.026877	0.002005	13.405	18.2378	-166.963	0.081197	1.041622	-0.015419	-0.016735	0.045839	13.405	-0.017984	-0.011152	-4.110500	NaN
18	1.000000	1.050939	7.36522e+06	-39539.1	955.819	-29794.2	0.000000	0.000000	7.051165	0.010807	NaN	0.000000	0.001578	0.001665	28.0812	0.056365	0.001984	28.4139	132.267	-168.515	-0.046363	1.049624	-0.007418	-0.008733	0.010807	28.4139	-0.007704	-0.005058	-2.136786	NaN
18	1.000000	1.058938	7.36522e+06	-39539.1	955.819	-29794.2	0.000000	0.000000	7.059165	0.031837	NaN	0.000000	0.001580	0.001634	28.0808	0.260468	0.002220	117.352	14.809	-166.036	-0.064207	1.057674	0.000581	-0.000683	0.031837	117.352	0.000378	0.000284	111.906	6356.58
18	1.000000	1.066915	7.36522e+06	-39539.1	955.819	-29794.2	0.000000	0.000000	7.067438	7.231420	NaN	0.000000	0.001609	0.001654	28.0811	7.214736	0.001771	4073.37	15.7258	-176.322	5.920210	1.065610	0.008558	0.007253	7.231420	4073.37	0.007227	0.006259	1155.35	47040.5
18	2.000000	1.070476	7.36522e+06	-39539.1	955.819	-29794.2	0.000000	0.000000	7.071202	12.1798	NaN	0.000000	0.001620	0.001629	28.0812	10.3107	0.001543	6683.11	7.771360	-175.384	11.4588	1.070180	0.012119	0.011823	12.1798	6683.11	0.010752	0.010030	1214.39	60969.3
18	2.000000	1.072468	7.36522e+06	-39539.1	955.818	-29794.2	0.000000	0.000000	7.073349	15.9656	NaN	0.000000	0.001584	0.001614	28.0817	13.4374	0.001676	8015.37	7.309993	-176.598	15.2575	1.072150	0.014111	0.013793	15.9656	8015.37	0.012617	0.012238	1304.64	66198.8
18	2.000000	1.074451	7.36522e+06	-39539.1	955.818	-29794.2	0.000000	0.000000	7.075482	19.5993	NaN	0.000000	0.001567	0.001641	28.0823	15.2127	0.001607	9465.33	7.055431	-178.274	18.7082	1.074146	0.016094	0.015789	19.5993	9465.33	0.014541	0.014679	1335.22	71378.1
18	2.000000	1.076363	7.36522e+06	-39539.1	955.818	-29794.2	0.000000	0.000000	7.077619	25.0843	NaN	0.000000	0.001608	0.001580	28.0827	17.7498	0.001791	9912.75	3.423724	-173.976	22.7078	1.076085	0.018006	0.017729	25.0843	9912.75	0.016108	0.016792	1493.85	69890.9
18	2.000000	1.078433	7.36522e+06	-39539.1	955.819	-29794.2	0.000000	0.000000	7.079804	27.8775	NaN	0.000000	0.001606	0.001614	28.0823	20.0535	0.001763	11374.5	4.490161	-176.181	26.9823	1.078082	0.020076	0.019725	27.8775	11374.5	0.018238	0.019849	1404.48	73762.8
18	2.000000	1.080401	7.36522e+06	-39539.1	955.819	-29794.2	0.000000	0.000000	7.082010	33.6855	NaN	0.000000	0.001574	0.001626	28.0825	21.9924	0.001764	12466.4	6.326416	-179.709	31.5131	1.080103	0.022044	0.021746	33.6855	12466.4	0.020017	0.022569	1492.54	75815.5
18	2.000000	1.082406	7.36522e+06	-39539.1	955.819	-29794.2	0.000000	0.000000	7.084207	38.3339	NaN	0.000000	0.001592	0.001650	28.0825	24.7524	0.001755	14100.3	4.936129	-179.116	37.4613	1.082070	0.024049	0.023713	38.3339	14100.3	0.022010	0.025800	1485.8	80202.9
18	2.000000	1.084407	7.36522e+06	-39539.1	955.818	-29794.2	0.000000	0.000000	7.086502	45.5045	NaN	0.000000	0.001563	0.001632	28.0829	25.7682	0.001728	14910.2	4.912864	-179.887	44.5577	1.084162	0.026050	0.025805	45.5045	14910.2	0.023761	0.028801	1579.99	80270.4
18	2.000000	1.086353	7.36522e+06	-39539.1	955.819	-29794.2	0.000000	0.000000	7.088772	53.3635	NaN	0.000000	0.001595	0.001593	28.0826	27.7705	0.001760	15779.1	-0.125436	-175.19	51.3289	1.086111	0.027996	0.027754	53.3635	15779.1	0.025460	0.031858	1675.06	80769.7
18	2.000000	1.088426	7.36522e+06	-39539.1	955.819	-29794.2	0.000000	0.000000	7.091126	60.2202	NaN	0.000000	0.001571	0.001662	28.0831	30.7047	0.001845	16644.3	7.700627	178.068	59.8844	1.088038	0.030069	0.029681	60.2202	16644.3	0.027356	0.035441	1699.15	80776.3
18	2.000000	1.090339	7.36522e+06	-39539.1	955.817	-29794.2	0.000000	0.000000	7.093290	66.3332	NaN	0.000000	0.001617	0.001645	28.0829	32.0249	0.001848	17328.8	3.500325	-178.915	63.7268	1.090028	0.031982	0.031671	66.3332	17328.8	0.029111	0.038922	1704.27	80250.2
18	2.000000	1.092374	7.36522e+06	-39539.1	955.818	-29794.2	0.000000	0.000000	7.095603	73.0885	NaN	0.000000	0.001587	0.001641	28.0832	35.633	0.001924	18519.7	3.363343	-179.756	71.7203	1.092104	0.034017	0.033747	73.0885	18519.7	0.031057	0.042963	1701.18	81631.4
18	2.000000	1.094353	7.36522e+06	-39539.1	955.818	-29794.2	0.000000	0.000000	7.098015	83.6282	NaN	0.000000	0.001608	0.001629	28.0821	36.7174	0.001795	20459.6	3.916894	178.114	81.1306	1.094053	0.035996	0.035696	83.6282	20459.6	0.032930	0.047036	1777.95	86189.5
18	2.000000	1.096374	7.36522e+06	-39539.1	955.817	-29794.2	0.000000	0.000000	7.100380	92.0194	NaN	0.000000	0.001577	0.001642	28.0839	38.7822	0.001815	21363.7	2.896729	179.519	89.7659	1.096077	0.038017	0.037720	92.0194	21363.7	0.034786	0.051249	1795.53	86219.8
18	2.000000	1.098421	7.36522e+06	-39539.1	955.818	-29794.2	0.000000	0.000000	7.102686	98.2939	NaN	0.000000	0.001590	0.001619	28.0847	40.875	0.001777	23007.7	3.432200	178.074	98.2607	1.098076	0.040064	0.039719	98.2939	23007.7	0.036860	0.056166	1750.07	88697.4
18	2.000000	1.100392	7.36522e+06	-39539.1	955.818	-29794.2	0.000000	0.000000	7.105028	107.307	NaN	0.000000	0.001615	0.001597	28.0832	43.4349	0.001811	23983	9.408961	171.821	109.453	1.100112	0.042036	0.041755	107.307	23983	0.038680	0.060661	1768.96	88965.6
18	2.000000	1.102341	7.36522e+06	-39539.1	955.82	-29794.2	0.000000	0.000000	7.107258	114.159	NaN	0.000000	0.001609	0.001619	28.0838	44.7107	0.001844	24242.4	5.452271	175.17	111.406	1.102049	0.043984	0.043692	114.159	24242.4	0.040453	0.065203	1750.83	86739.1
18	2.000000	1.104357	7.36522e+06	-39539.1	955.819	-29794.2	0.000000	0.000000	7.109843	128.006	NaN	0.000000	0.001621	0.001622	28.0826	46.1609	0.001851	24935.2	9.422175	172.899	127.919	1.103997	0.046000	0.045640	128.006	24935.2	0.042150	0.069703	1836.45	86290.1
18	2.000000	1.106320	7.36522e+06	-39539.1	955.818	-29794.2	0.000000	0.000000	7.112210	137.847	NaN	0.000000	0.001580	0.001631	28.0824	48.4295	0.001851	26161	7.671772	173.626	136.378	1.106030	0.047963	0.047673	137.847	26161	0.044011	0.074806	1842.74	87389.9
18	2.000000	1.108401	7.36522e+06	-39539.1	955.818	-29794.2	0.000000	0.000000	7.114675	147.172	NaN	0.000000	0.001568	0.001646	28.085	50.2731	0.001804	27861.9	8.373857	172.466	147.633	1.108057	0.050044	0.049700	147.172	27861.9	0.046083	0.080691	1823.91	89613.2
18	2.000000	1.110278	7.36522e+06	-39539.1	955.82	-29794.2	0.000000	0.000000	7.116846	154.353	NaN	0.000000	0.001599	0.001639	28.0862	50.6128	0.001607	31497.1	2.092430	175.919	150.434	1.110009	0.051921	0.051652	154.353	31497.1	0.048246	0.087067	1772.79	97525.1
18	2.000000	1.112361	7.36522e+06	-39539.1	955.819	-29794.2	0.000000	0.000000	7.119468	167.458	NaN	0.000000	0.001553	0.001681	28.0834	54.9447	0.001769	31067.8	5.396764	173.841	167.87	1.112074	0.054004	0.053717	167.458	31067.8	0.049962	0.092295	1814.38	93432
18	2.000000	1.114328	7.36522e+06	-39539.1	955.819	-29794.2	0.000000	0.000000	7.122048	182.392	NaN	0.000000	0.001552	0.001666	28.0848	55.1511	0.001628	33866.4	3.009865	175.094	179.891	1.114063	0.055971	0.055706	182.392	33866.4	0.051931	0.098476	1852.14	98599.8
18	2.000000	1.116310	7.36522e+06	-39539.1	955.82	-29794.2	0.000000	0.000000	7.124395	191.256	NaN	0.000000	0.001581	0.001665	28.0846	59.0495	0.001759	33567.9	6.223249	172.464	188.149	1.115985	0.057953	0.057628	191.256	33567.9	0.053680	0.104126	1836.77	95042.4
18	2.000000	1.118377	7.36522e+06	-39539.1	955.819	-29794.2	0.000000	0.000000	7.127107	206.968	NaN	0.000000	0.001564	0.001677	28.0831	61.0527	0.001771	34466.7	3.789637	175.359	208.759	1.118040	0.060020	0.059683	206.968	34466.7	0.055516	0.110223	1877.71	94849.7
18	2.000000	1.120350	7.36522e+06	-39539.1	955.819	-29794.2	0.000000	0.000000	7.129544	218.225	NaN	0.000000	0.001575	0.001656	28.0825	62.7705	0.001710	36717.9	5.442208	172.977	218.774	1.120027	0.061994	0.061670	218.225	36717.9	0.057536	0.117122	1863.24	98024
18	2.000000	1.122323	7.36522e+06	-39539.1	955.819	-29794.2	0.000000	0.000000	7.132112	232.728	NaN	0.000000	0.001540	0.001665	28.0832	65.6432	0.001815	36161.1	5.164168	173.002	232.378	1.122053	0.063966	0.063696	232.728	36161.1	0.059139	0.122740	1896.1	94302.1
18	2.000000	1.124421	7.36522e+06	-39539.1	955.819	-29794.2	0.000000	0.000000	7.134389	237.084	NaN	0.000000	0.001524	0.001674	28.0831	67.0666	0.001753	38253	8.058283	169.97	241.946	1.124030	0.066064	0.065673	237.084	38253	0.061416	0.130934	1810.72	96585.7
18	2.000000	1.126322	7.36522e+06	-39539.1	955.819	-29794.2	0.000000	0.000000	7.136957	253.309	NaN	0.000000	0.001553	0.001658	28.0832	68.9235	0.001745	39490.4	4.908675	172.241	251.82	1.126071	0.067965	0.067714	253.309	39490.4	0.063154	0.137361	1844.11	97349.4
18	2.000000	1.128373	7.36522e+06	-39539.1	955.819	-29794.2	0.000000	0.000000	7.139918	275.451	NaN	0.000000	0.001555	0.001656	28.0819	71.9545	0.001676	42929	7.231780	170.878	275.967	1.127949	0.070017	0.069593	275.451	42929	0.065204	0.145128	1897.98	102955
18	2.000000	1.130287	7.36522e+06	-39539.1	955.82	-29794.2	0.000000	0.000000	7.142314	287.202	NaN	0.000000	0.001571	0.001639	28.0823	72.9078	0.001802	40461	3.879476	173.635	285.132	1.129932	0.071930	0.071575	287.202	40461	0.066606	0.150557	1907.6	95270.7
18	2.000000	1.132306	7.36522e+06	-39539.1	955.82	-29794.2	0.000000	0.000000	7.144968	302.629	NaN	0.000000	0.001516	0.001699	28.0803	76.3762	0.001919	39806.6	7.523306	170.168	300.285	1.132028	0.073950	0.073671	302.629	39806.6	0.068248	0.157033	1927.17	91776.9
18	2.000000	1.134267	7.36522e+06	-39539.1	955.819	-29794.2	0.000000	0.000000	7.147714	321.756	NaN	0.000000	0.001570	0.001666	28.083	75.3062	0.001755	42910.2	2.981481	174.138	319.288	1.133854	0.075910	0.075497	321.756	42910.2	0.070286	0.165254	1947.05	96440.2
18	2.000000	1.136262	7.36522e+06	-39539.1	955.819	-29794.2	0.000000	0.000000	7.150246	334.813	NaN	0.000000	0.001522	0.001674	28.0855	78.8334	0.001819	43334.7	1.970795	174.695	331.304	1.136041	0.077905	0.077684	334.813	43334.7	0.072111	0.172779	1937.8	95249.5
18	2.000000	1.138283	7.36522e+06	-39539.1	955.818	-29794.2	0.000000	0.000000	7.153119	355.547	NaN	0.000000	0.001545	0.001672	28.0817	82.0389	0.001901	43146.9	10.9269	166.585	353.101	1.137929	0.079926	0.079572	355.547	43146.9	0.073745	0.179656	1979.04	93003.9
18	2.000000	1.140206	7.36522e+06	-39539.1	955.818	-29794.2	0.000000	0.000000	7.155620	369.622	NaN	0.000000	0.001544	0.001649	28.0843	81.5026	0.001665	48946.6	1.878495	174.153	364.088	1.139932	0.081849	0.081575	369.622	48946.6	0.076185	0.190154	1943.8	102552
18	2.000000	1.142233	7.36522e+06	-39539.1	955.819	-29794.2	0.000000	0.000000	7.157973	377.56	NaN	0.000000	0.001529	0.001628	28.084	84.6393	0.001796	47135.8	-0.287900	176.46	373.163	1.142180	0.083876	0.083823	377.56	47135.8	0.077868	0.197559	1911.13	96889.4
18	2.000000	1.144237	7.36522e+06	-39539.1	955.819	-29794.2	0.000000	0.000000	7.161069	404.094	NaN	0.000000	0.001544	0.001636	28.0822	86.5022	0.001817	47612.1	5.609665	170.725	400.686	1.143902	0.085880	0.085545	404.094	47612.1	0.079515	0.204933	1971.84	96091.4
18	2.000000	1.146275	7.36522e+06	-39539.1	955.82	-29794.2	0.000000	0.000000	7.163613	416.423	NaN	0.000000	0.001566	0.001652	28.0831	88.8109	0.001773	50101.9	6.129783	169.482	414.223	1.146002	0.087918	0.087645	416.423	50101.9	0.081685	0.214840	1938.29	98757.4
18	2.000000	1.148301	7.36522e+06	-39539.1	955.82	-29794.2	0.000000	0.000000	7.166498	437.336	NaN	0.000000	0.001560	0.001657	28.0825	91.3015	0.001885	48429.4	4.862344	171.825	432.769	1.147935	0.089944	0.089578	437.336	48429.4	0.083171	0.221755	1972.16	93960.5
18	2.000000	1.150296	7.36522e+06	-39539.1	955.82	-29794.2	0.000000	0.000000	7.169223	455.09	NaN	0.000000	0.001585	0.001625	28.0817	91.8189	0.001660	55321.7	5.535220	169.615	454.495	1.149976	0.091940	0.091619	455.09	55321.7	0.085770	0.234088	1944.1	104467
18	2.000000	1.152227	7.36522e+06	-39539.1	955.82	-29794.2	0.000000	0.000000	7.171772	470.134	NaN	0.000000	0.001545	0.001629	28.0835	95.8986	0.001759	54523.9	1.341772	173.765	464.405	1.152051	0.093870	0.093694	470.134	54523.9	0.087403	0.241998	1942.71	101264
18	2.000000	1.154327	7.36522e+06	-39539.1	955.819	-29794.2	0.000000	0.000000	7.175040	498.546	NaN	0.000000	0.001565	0.001690	28.0849	96.6081	0.001795	53820.5	2.512114	173.021	499.088	1.153994	0.095970	0.095637	498.546	53820.5	0.089023	0.249966	1994.46	98351.4
18	2.000000	1.156241	7.36522e+06	-39539.1	955.819	-29794.2	0.000000	0.000000	7.177874	520.961	NaN	0.000000	0.001586	0.001661	28.0848	99.4232	0.001806	55051.4	1.910616	173.309	516.491	1.155962	0.097884	0.097606	520.961	55051.4	0.090786	0.258776	2013.18	98873.6
18	2.000000	1.158335	7.36522e+06	-39539.1	955.819	-29794.2	0.000000	0.000000	7.180813	541.525	NaN	0.000000	0.001558	0.001663	28.0854	101.373	0.001707	59401.6	5.835845	169.196	540.278	1.157976	0.099978	0.099619	541.525	59401.6	0.093141	0.270760	2000.02	104299
18	2.000000	1.160207	7.36522e+06	-39539.1	955.819	-29794.2	0.000000	0.000000	7.183761	567.686	NaN	0.000000	0.001573	0.001670	28.0839	103.222	0.001799	57376.9	4.990056	170.068	562.683	1.159840	0.101850	0.101483	567.686	57376.9	0.094430	0.277430	2046.23	99525.3
18	2.000000	1.162246	7.36522e+06	-39539.1	955.819	-29794.2	0.000000	0.000000	7.186768	591.243	NaN	0.000000	0.001551	0.001662	28.0839	106.823	0.001875	56960.2	8.742895	166.569	587.948	1.161783	0.103889	0.103426	591.243	56960.2	0.096104	0.286205	2065.8	97276
18	2.000000	1.164246	7.36522e+06	-39539.1	955.819	-29794.2	0.000000	0.000000	7.189709	614.157	NaN	0.000000	0.001570	0.001682	28.0847	105.633	0.001672	63190.5	3.926061	170.607	612.423	1.163873	0.105889	0.105516	614.157	63190.5	0.098600	0.299522	2050.46	105490
18	2.000000	1.166240	7.36522e+06	-39539.1	955.819	-29794.2	0.000000	0.000000	7.192740	639.385	NaN	0.000000	0.001591	0.001671	28.0842	109.426	0.001651	66264.1	4.358794	170.027	635.904	1.165840	0.107883	0.107483	639.385	66264.1	0.100646	0.310654	2058.19	108621
18	2.000000	1.167239	7.36522e+06	-39539.1	955.819	-29794.2	0.000000	0.000000	7.194310	653.271	NaN	0.000000	0.001546	0.001596	28.1319	110.669	0.001751	63203.5	6.475721	168.489	650.236	1.166895	0.108882	0.108538	653.271	63203.5	0.101130	0.313317	2085.02	103163