File: remote_trans/data/nanoindenter/0828-1/data/Data_2025-08-06,11h17m57s/2025-07-22_16-23-58_1_353.txt
2025-07-22, 16:23:58, 1
Index	Phase	Displacement	Time	Pos X	Pos Y	Pos Z	Rot A	Rot B	Piezo Z	Force A	Force B	Gripper	Voltage A	Voltage B	Temperature	Amplitude force	Amplitude pos	Stiffness	Phase shift	Phase excitation	Force A raw	Displacement raw	HMax	HMax raw	Real Force	Real Stiffness	Contact Depth	Area	Hardness	Reduced Mod.
[#]	[#]	[um]	[s]	[um]	[um]	[um]	[m°]	[m°]	[um]	[uN]	[uN]	[V]	[V]	[V]	[°C]	[uN]	[um]	[N/m]	[°]	[°]	[uN]	[um]	[um]	[um]	[uN]	[N/m]	[um]	[um^2]	[MPa]	[MPa]
353	1.000000	0.002466	7.36851e+06	-56289.1	955.818	-29739.7	0.000000	0.000000	6.002793	0.004981	NaN	0.000000	0.001655	0.001685	28.0801	0.052613	0.000875	60.1412	58.702	-163.883	-0.009720	0.001202	-1.036124	-1.037388	0.004981	60.1412	-1.036186	-6.961059E+13	-7.155758E-17	NaN
353	1.000000	0.010470	7.36851e+06	-56289.1	955.819	-29739.7	0.000000	0.000000	6.010800	0.092330	NaN	0.000000	0.001651	0.001689	28.0804	0.090826	0.001002	90.6794	-15.1714	-162.08	-0.039797	0.009115	-1.028120	-1.029475	0.092330	90.6794	-1.028884	-5.552215E+13	-1.662948E-15	NaN
353	1.000000	0.018438	7.36851e+06	-56289.1	955.817	-29739.7	0.000000	0.000000	6.018767	0.081027	NaN	0.000000	0.001634	0.001720	28.0803	0.045134	0.001836	24.5797	-83.8899	-166.699	0.041573	0.017118	-1.020152	-1.021472	0.081027	24.5797	-1.022624	-4.573623E+13	-1.771606E-15	NaN
353	1.000000	0.026436	7.36851e+06	-56289.1	955.819	-29739.7	0.000000	0.000000	6.026762	0.020384	NaN	0.000000	0.001644	0.001677	28.0804	0.155896	0.001818	85.7492	67.1325	-167.57	-0.002258	0.025141	-1.012154	-1.013449	0.020384	85.7492	-1.012333	-3.324890E+13	-6.130707E-16	NaN
353	1.000000	0.034409	7.36851e+06	-56289.1	955.818	-29739.7	0.000000	0.000000	6.034736	0.012759	NaN	0.000000	0.001620	0.001650	28.0802	0.068889	0.001984	34.7168	11.5953	-161.277	0.007135	0.033139	-1.004181	-1.005452	0.012759	34.7168	-1.004456	-2.604741E+13	-4.898416E-16	NaN
353	1.000000	0.042436	7.36851e+06	-56289.1	955.817	-29739.7	0.000000	0.000000	6.042760	-0.041683	NaN	0.000000	0.001600	0.001653	28.0804	0.027329	0.001798	15.1976	-58.5956	-166.939	-0.073108	0.041125	-0.996154	-0.997465	-0.041683	15.1976	-0.994097	-1.889224E+13	2.206334E-15	NaN
353	1.000000	0.050428	7.36851e+06	-56289.1	955.819	-29739.7	0.000000	0.000000	6.050754	-0.003984	NaN	0.000000	0.001599	0.001670	28.0803	0.140457	0.001820	77.1802	111.289	-168.468	-0.018680	0.049158	-0.988162	-0.989432	-0.003984	77.1802	-0.988123	-1.569758E+13	2.537766E-16	NaN
353	1.000000	0.058418	7.36851e+06	-56289.1	955.819	-29739.7	0.000000	0.000000	6.058745	0.024842	NaN	0.000000	0.001611	0.001684	28.0804	0.119858	0.001980	60.5265	118.743	-166.986	-0.011668	0.057152	-0.980172	-0.981438	0.024842	60.5265	-0.980480	-1.238444E+13	-2.005906E-15	NaN
353	1.000000	0.066431	7.36851e+06	-56289.1	955.818	-29739.7	0.000000	0.000000	6.066757	-0.008837	NaN	0.000000	0.001569	0.001664	28.0804	0.095949	0.002033	47.1903	-83.6225	-165.243	-0.090035	0.065110	-0.972159	-0.973481	-0.008837	47.1903	-0.972019	-9.525016E+12	9.277455E-16	NaN
353	1.000000	0.074453	7.36851e+06	-56289.1	955.817	-29739.7	0.000000	0.000000	6.074781	0.041885	NaN	0.000000	0.001551	0.001675	28.0792	0.059449	0.002013	29.5294	-14.065	-166.555	0.114755	0.073146	-0.964137	-0.965444	0.041885	29.5294	-0.965200	-7.708560E+12	-5.433584E-15	NaN
353	1.000000	0.082433	7.36851e+06	-56289.1	955.818	-29739.7	0.000000	0.000000	6.082759	-0.017969	NaN	0.000000	0.001562	0.001679	28.0794	0.075847	0.001923	39.4488	121.101	-167.456	0.014954	0.081201	-0.956157	-0.957389	-0.017969	39.4488	-0.955815	-5.760290E+12	3.119380E-15	NaN
353	1.000000	0.090438	7.36851e+06	-56289.1	955.817	-29739.7	0.000000	0.000000	6.090765	0.026279	NaN	0.000000	0.001550	0.001694	28.0792	0.107625	0.002008	53.5954	-98.483	-166.41	0.065708	0.089172	-0.948152	-0.949418	0.026279	53.5954	-0.948519	-4.592595E+12	-5.722076E-15	NaN
353	1.000000	0.098462	7.36851e+06	-56289.1	955.818	-29739.7	0.000000	0.000000	6.098790	0.039459	NaN	0.000000	0.001536	0.001673	28.079	0.063507	0.002043	31.0929	-103.161	-168.567	0.050257	0.097100	-0.940128	-0.941490	0.039459	31.0929	-0.941079	-3.645021E+12	-1.082550E-14	NaN
353	1.000000	0.106445	7.36851e+06	-56289.1	955.818	-29739.7	0.000000	0.000000	6.106770	-0.015633	NaN	0.000000	0.001554	0.001692	28.0791	0.066297	0.001973	33.607	-74.6521	-165.546	-0.015709	0.105145	-0.932145	-0.933445	-0.015633	33.607	-0.931797	-2.731765E+12	5.722507E-15	NaN
353	1.000000	0.114440	7.36851e+06	-56289.1	955.818	-29739.7	0.000000	0.000000	6.114768	0.039013	NaN	0.000000	0.001567	0.001674	28.0792	0.140276	0.001999	70.1892	16.7543	-163.839	0.011685	0.113104	-0.924150	-0.925486	0.039013	70.1892	-0.924567	-2.182025E+12	-1.787940E-14	NaN
353	1.000000	0.122451	7.36851e+06	-56289.1	955.818	-29739.7	0.000000	0.000000	6.122778	0.022685	NaN	0.000000	0.001530	0.001654	28.0793	0.046973	0.002034	23.0996	70.9197	-163.755	0.011154	0.121130	-0.916139	-0.917460	0.022685	23.0996	-0.916875	-1.717969E+12	-1.320476E-14	NaN
353	1.000000	0.130476	7.36851e+06	-56289.1	955.818	-29739.7	0.000000	0.000000	6.130800	-0.026013	NaN	0.000000	0.001577	0.001688	28.0792	0.038821	0.002048	18.9545	-21.5178	-167.781	0.007590	0.129106	-0.908114	-0.909484	-0.026013	18.9545	-0.907085	-1.267036E+12	2.053073E-14	NaN
353	1.000000	0.138462	7.36851e+06	-56289.1	955.818	-29739.7	0.000000	0.000000	6.138787	-0.014086	NaN	0.000000	0.001546	0.001651	28.0792	0.139908	0.002000	69.9595	-15.7655	-166.828	-0.054993	0.137135	-0.900128	-0.901455	-0.014086	69.9595	-0.899977	-1.015681E+12	1.386829E-14	NaN
353	1.000000	0.146504	7.36851e+06	-56289.1	955.817	-29739.7	0.000000	0.000000	6.146831	0.030238	NaN	0.000000	0.001553	0.001618	28.0792	0.137004	0.001903	71.9946	-40.6147	-162.58	-0.018198	0.145166	-0.892086	-0.893424	0.030238	71.9946	-0.892401	-8.023578E+11	-3.768675E-14	NaN
353	1.000000	0.154468	7.36851e+06	-56289.1	955.818	-29739.7	0.000000	0.000000	6.154795	0.033005	NaN	0.000000	0.001522	0.001682	28.0792	0.100172	0.002107	47.5394	161.501	-165.679	0.028084	0.153144	-0.884122	-0.885446	0.033005	47.5394	-0.884643	-6.302224E+11	-5.237000E-14	NaN
353	1.000000	0.162476	7.36851e+06	-56289.1	955.818	-29739.7	0.000000	0.000000	6.162803	0.011158	NaN	0.000000	0.001558	0.001647	28.0793	0.110002	0.001967	55.9367	160.354	-163.907	0.090009	0.161100	-0.876114	-0.877490	0.011158	55.9367	-0.876263	-4.854817E+11	-2.298239E-14	NaN
353	1.000000	0.170465	7.36851e+06	-56289.1	955.819	-29739.7	0.000000	0.000000	6.170792	0.028147	NaN	0.000000	0.001533	0.001700	28.0791	0.052570	0.001987	26.4546	-113.076	-164.98	0.008806	0.169210	-0.868125	-0.869380	0.028147	26.4546	-0.868923	-3.862516E+11	-7.287337E-14	NaN
353	1.000000	0.178451	7.36851e+06	-56289.1	955.818	-29739.7	0.000000	0.000000	6.178777	0.006628	NaN	0.000000	0.001512	0.001693	28.0792	0.088385	0.001889	46.7911	-177.536	-164.71	-0.071077	0.177125	-0.860139	-0.861465	0.006628	46.7911	-0.860245	-2.947412E+11	-2.248770E-14	NaN
353	1.000000	0.186468	7.36851e+06	-56289.1	955.819	-29739.7	0.000000	0.000000	6.186790	-0.100567	NaN	0.000000	0.001507	0.001713	28.0791	0.083029	0.002035	40.7954	120.389	-165.398	-0.020903	0.185113	-0.852122	-0.853477	-0.100567	40.7954	-0.850273	-2.159900E+11	4.656115E-13	NaN
353	1.000000	0.194458	7.36851e+06	-56289.1	955.817	-29739.7	0.000000	0.000000	6.194784	-0.002938	NaN	0.000000	0.001539	0.001701	28.0791	0.081602	0.002068	39.4517	-73.0897	-166.507	0.029071	0.193225	-0.844132	-0.845365	-0.002938	39.4517	-0.844076	-1.780365E+11	1.650432E-14	NaN
353	1.000000	0.202458	7.36851e+06	-56289.1	955.819	-29739.7	0.000000	0.000000	6.202782	-0.041350	NaN	0.000000	0.001518	0.001665	28.0795	0.013134	0.002040	6.438925	-42.9625	-168.14	-0.003642	0.201207	-0.836132	-0.837383	-0.041350	6.438925	-0.831316	-1.195681E+11	3.458255E-13	NaN
353	1.000000	0.210472	7.36851e+06	-56289.1	955.818	-29739.7	0.000000	0.000000	6.210796	-0.030545	NaN	0.000000	0.001521	0.001668	28.0804	0.064430	0.001996	32.272	-158.296	-166.495	-0.085524	0.209181	-0.828118	-0.829409	-0.030545	32.272	-0.827409	-1.058421E+11	2.885862E-13	NaN
353	1.000000	0.218468	7.36851e+06	-56289.1	955.818	-29739.7	0.000000	0.000000	6.218795	0.039501	NaN	0.000000	0.001506	0.001651	28.0806	0.095061	0.001969	48.2902	4.158994	-163.973	0.018449	0.217150	-0.820122	-0.821440	0.039501	48.2902	-0.820736	-8.593923E+10	-4.596347E-13	NaN
353	1.000000	0.226488	7.36851e+06	-56289.1	955.818	-29739.7	0.000000	0.000000	6.226813	-0.014226	NaN	0.000000	0.001538	0.001665	28.0802	0.046893	0.001970	23.798	101.3	-163.926	-0.035606	0.225195	-0.812102	-0.813395	-0.014226	23.798	-0.811654	-6.471536E+10	2.198302E-13	NaN
353	1.000000	0.234475	7.36851e+06	-56289.1	955.819	-29739.7	0.000000	0.000000	6.234802	0.023074	NaN	0.000000	0.001543	0.001660	28.0803	0.056529	0.001994	28.3472	64.0166	-165.213	-0.049211	0.233185	-0.804115	-0.805405	0.023074	28.3472	-0.804725	-5.211946E+10	-4.427178E-13	NaN
353	1.000000	0.242494	7.36851e+06	-56289.1	955.818	-29739.7	0.000000	0.000000	6.242822	0.044646	NaN	0.000000	0.001516	0.001664	28.0804	0.119773	0.002105	56.9098	179.382	-165.028	0.129448	0.241260	-0.796096	-0.797330	0.044646	56.9098	-0.796685	-4.053726E+10	-1.101357E-12	NaN
353	1.000000	0.250505	7.36851e+06	-56289.1	955.818	-29739.7	0.000000	0.000000	6.250833	0.061749	NaN	0.000000	0.001507	0.001720	28.0803	0.175318	0.002150	81.5453	135.292	-169.865	-0.031822	0.249198	-0.788085	-0.789392	0.061749	81.5453	-0.788653	-3.153477E+10	-1.958124E-12	NaN
353	1.000000	0.258517	7.36851e+06	-56289.1	955.818	-29739.7	0.000000	0.000000	6.258843	0.012741	NaN	0.000000	0.001482	0.001666	28.0805	0.088326	0.001952	45.2431	-175.02	-166.488	-0.021861	0.257206	-0.780073	-0.781384	0.012741	45.2431	-0.780285	-2.427162E+10	-5.249333E-13	NaN
353	1.000000	0.266530	7.36851e+06	-56289.1	955.817	-29739.7	0.000000	0.000000	6.266854	-0.032413	NaN	0.000000	0.001545	0.001689	28.0804	0.036242	0.002056	17.6299	59.6474	-167.558	-0.016458	0.265221	-0.772060	-0.773369	-0.032413	17.6299	-0.770681	-1.797089E+10	1.803623E-12	NaN
353	1.000000	0.274527	7.36851e+06	-56289.1	955.817	-29739.7	0.000000	0.000000	6.274853	-0.001517	NaN	0.000000	0.001533	0.001681	28.0817	0.095666	0.002146	44.5766	-123.02	-168.721	-0.002542	0.273195	-0.764063	-0.765395	-0.001517	44.5766	-0.764037	-1.459560E+10	1.039185E-13	NaN
353	1.000000	0.282544	7.36851e+06	-56289.1	955.819	-29739.7	0.000000	0.000000	6.282871	0.032044	NaN	0.000000	0.001519	0.001653	28.0805	0.042335	0.001979	21.3873	111.549	-161.568	-0.025578	0.281224	-0.756046	-0.757366	0.032044	21.3873	-0.757170	-1.177051E+10	-2.722374E-12	NaN
353	1.000000	0.290484	7.36851e+06	-56289.1	955.818	-29739.7	0.000000	0.000000	6.290811	0.028355	NaN	0.000000	0.001563	0.001678	28.0803	0.090612	0.001972	45.94	134.22	-164.247	0.045343	0.289208	-0.748106	-0.749382	0.028355	45.94	-0.748569	-8.989561E+9	-3.154232E-12	NaN
353	1.000000	0.298523	7.36851e+06	-56289.1	955.819	-29739.7	0.000000	0.000000	6.298847	-0.027703	NaN	0.000000	0.001506	0.001695	28.081	0.041773	0.001954	21.3822	80.2755	-163.764	0.056440	0.297211	-0.740068	-0.741379	-0.027703	21.3822	-0.739096	-6.679439E+9	4.147559E-12	NaN
353	1.000000	0.306563	7.36851e+06	-56289.1	955.819	-29739.7	0.000000	0.000000	6.306888	-0.018768	NaN	0.000000	0.001531	0.001701	28.0806	0.093736	0.001934	48.478	13.5312	-169.251	-0.035774	0.305210	-0.732027	-0.733380	-0.018768	48.478	-0.731736	-5.302392E+9	3.539601E-12	NaN
353	1.000000	0.314531	7.36851e+06	-56289.1	955.818	-29739.7	0.000000	0.000000	6.314857	-0.006114	NaN	0.000000	0.001549	0.001660	28.0804	0.083423	0.002028	41.1315	-34.844	-165.472	0.004508	0.313184	-0.724059	-0.725406	-0.006114	41.1315	-0.723947	-4.152386E+9	1.472418E-12	NaN
353	1.000000	0.322540	7.36851e+06	-56289.1	955.819	-29739.7	0.000000	0.000000	6.322866	0.005602	NaN	0.000000	0.001510	0.001690	28.0806	0.046335	0.001956	23.6902	-2.817761	-166.042	-0.156123	0.321277	-0.716050	-0.717313	0.005602	23.6902	-0.716228	-3.258517E+9	-1.719183E-12	NaN
353	1.000000	0.330536	7.36851e+06	-56289.1	955.818	-29739.7	0.000000	0.000000	6.330860	-0.040622	NaN	0.000000	0.001524	0.001692	28.0804	0.017629	0.001958	9.005033	-93.704	-167.285	0.061243	0.329291	-0.708054	-0.709299	-0.040622	9.005033	-0.704671	-2.266247E+9	1.792474E-11	NaN
353	1.000000	0.338540	7.36851e+06	-56289.1	955.818	-29739.7	0.000000	0.000000	6.338867	0.029304	NaN	0.000000	0.001549	0.001693	28.0809	0.044816	0.002013	22.2648	141.244	-165.362	0.001188	0.337246	-0.700050	-0.701344	0.029304	22.2648	-0.701038	-2.021626E+9	-1.449516E-11	NaN
353	1.000000	0.346568	7.36851e+06	-56289.1	955.818	-29739.7	0.000000	0.000000	6.346892	-0.052555	NaN	0.000000	0.001518	0.001681	28.0794	0.073466	0.001990	36.9214	-65.7272	-167.41	-0.021842	0.345226	-0.692022	-0.693364	-0.052555	36.9214	-0.690954	-1.472161E+9	3.569935E-11	NaN
353	1.000000	0.354532	7.36851e+06	-56289.1	955.817	-29739.7	0.000000	0.000000	6.354859	0.023787	NaN	0.000000	0.001529	0.001643	28.0794	0.104226	0.001857	56.115	55.409	-167.274	-0.000953	0.353193	-0.684058	-0.685397	0.023787	56.115	-0.684376	-1.196869E+9	-1.987428E-11	NaN
353	1.000000	0.362562	7.36851e+06	-56289.1	955.817	-29739.7	0.000000	0.000000	6.362889	0.024826	NaN	0.000000	0.001521	0.001679	28.0793	0.120424	0.002116	56.9184	144.324	-168.304	0.027615	0.361276	-0.676028	-0.677314	0.024826	56.9184	-0.676355	-9.297057E+8	-2.670278E-11	NaN
353	1.000000	0.370574	7.36851e+06	-56289.1	955.818	-29739.7	0.000000	0.000000	6.370896	-0.079313	NaN	0.000000	0.001485	0.001675	28.0792	0.065688	0.002136	30.7582	-135.067	-167.509	-0.073205	0.369261	-0.668016	-0.669329	-0.079313	30.7582	-0.666082	-6.726068E+8	1.179191E-10	NaN
353	1.000000	0.378594	7.36851e+06	-56289.1	955.817	-29739.7	0.000000	0.000000	6.378919	-0.020923	NaN	0.000000	0.001474	0.001688	28.0795	0.064688	0.001953	33.1265	-102.152	-166.224	-0.026104	0.377207	-0.659996	-0.661383	-0.020923	33.1265	-0.659523	-5.469254E+8	3.825508E-11	NaN
353	1.000000	0.386564	7.36851e+06	-56289.1	955.818	-29739.7	0.000000	0.000000	6.386890	0.004840	NaN	0.000000	0.001509	0.001701	28.0792	0.057739	0.001968	29.3368	-43.9966	-164.036	0.057050	0.385301	-0.652026	-0.653289	0.004840	29.3368	-0.652149	-4.334116E+8	-1.116687E-11	NaN
353	1.000000	0.394557	7.36851e+06	-56289.1	955.818	-29739.7	0.000000	0.000000	6.394882	-0.019975	NaN	0.000000	0.001523	0.001694	28.0796	0.092816	0.002024	45.853	-166.689	-163.581	-0.011715	0.393231	-0.644033	-0.645359	-0.019975	45.853	-0.643706	-3.319961E+8	6.016491E-11	NaN
353	1.000000	0.402555	7.36851e+06	-56289.1	955.819	-29739.7	0.000000	0.000000	6.402881	0.004586	NaN	0.000000	0.001490	0.001708	28.0794	0.017776	0.002001	8.882764	137.659	-164.417	0.021635	0.401254	-0.636035	-0.637336	0.004586	8.882764	-0.636423	-2.637531E+8	-1.738691E-11	NaN
353	1.000000	0.410582	7.36851e+06	-56289.1	955.817	-29739.7	0.000000	0.000000	6.410909	0.043538	NaN	0.000000	0.001526	0.001693	28.0793	0.037356	0.001970	18.9618	150.765	-167.803	0.122157	0.409266	-0.628008	-0.629324	0.043538	18.9618	-0.629730	-2.134618E+8	-2.039636E-10	NaN
353	1.000000	0.418593	7.36851e+06	-56289.1	955.818	-29739.7	0.000000	0.000000	6.418919	0.013438	NaN	0.000000	0.001519	0.001689	28.0794	0.028654	0.002103	13.6239	-69.3438	-164.506	0.039289	0.417256	-0.619997	-0.621334	0.013438	13.6239	-0.620737	-1.606073E+8	-8.366958E-11	NaN
353	1.000000	0.426577	7.36851e+06	-56289.1	955.817	-29739.7	0.000000	0.000000	6.426903	-0.014934	NaN	0.000000	0.001527	0.001693	28.0792	0.056238	0.002028	27.7294	-86.4263	-166.724	0.001822	0.425310	-0.612013	-0.613280	-0.014934	27.7294	-0.611609	-1.202945E+8	1.241462E-10	NaN
353	1.000000	0.434574	7.36851e+06	-56289.1	955.819	-29739.7	0.000000	0.000000	6.434900	-0.006448	NaN	0.000000	0.001503	0.001682	28.0794	0.075075	0.001988	37.7654	-104.528	-161.687	-0.006730	0.433348	-0.604016	-0.605242	-0.006448	37.7654	-0.603888	-9.418749E+7	6.845625E-11	NaN
353	1.000000	0.442576	7.36851e+06	-56289.1	955.818	-29739.7	0.000000	0.000000	6.442901	-0.031241	NaN	0.000000	0.001511	0.001710	28.0792	0.077223	0.001926	40.103	79.0211	-166.352	0.015582	0.441278	-0.596014	-0.597312	-0.031241	40.103	-0.595429	-7.202766E+7	4.337394E-10	NaN
353	1.000000	0.450589	7.36851e+06	-56289.1	955.818	-29739.7	0.000000	0.000000	6.450914	-0.008620	NaN	0.000000	0.001530	0.001716	28.0795	0.052114	0.002099	24.8303	-31.6637	-167.187	0.016853	0.449338	-0.588001	-0.589253	-0.008620	24.8303	-0.587741	-5.643069E+7	1.527578E-10	NaN
353	1.000000	0.458587	7.36851e+06	-56289.1	955.818	-29739.7	0.000000	0.000000	6.458911	-0.033775	NaN	0.000000	0.001538	0.001696	28.0793	0.074145	0.001968	37.6725	-27.3223	-163.49	-0.020634	0.457266	-0.580003	-0.581325	-0.033775	37.6725	-0.579331	-4.320062E+7	7.818147E-10	NaN
353	1.000000	0.466623	7.36851e+06	-56289.1	955.818	-29739.7	0.000000	0.000000	6.466951	0.041888	NaN	0.000000	0.001522	0.001697	28.0794	0.026873	0.001944	13.8244	-35.9198	-164.817	0.016258	0.465255	-0.571967	-0.573335	0.041888	13.8244	-0.574239	-3.674477E+7	-1.139974E-9	NaN
353	1.000000	0.474589	7.36851e+06	-56289.1	955.818	-29739.7	0.000000	0.000000	6.474914	-0.004367	NaN	0.000000	0.001534	0.001656	28.0793	0.033977	0.001895	17.9345	6.127107	-169.135	0.037710	0.473335	-0.564001	-0.565255	-0.004367	17.9345	-0.563819	-2.637507E+7	1.655902E-10	NaN
353	1.000000	0.482596	7.36851e+06	-56289.1	955.818	-29739.7	0.000000	0.000000	6.482924	0.046809	NaN	0.000000	0.001506	0.001654	28.0806	0.161895	0.002108	76.785	-86.0172	-167.781	0.010099	0.481294	-0.555994	-0.557296	0.046809	76.785	-0.556451	-2.085807E+7	-2.244188E-9	NaN
353	1.000000	0.490612	7.36851e+06	-56289.1	955.818	-29739.7	0.000000	0.000000	6.490937	-0.021150	NaN	0.000000	0.001536	0.001675	28.0808	0.142728	0.002071	68.9329	-141.451	-166.558	0.001692	0.489304	-0.547978	-0.549286	-0.021150	68.9329	-0.547748	-1.580358E+7	1.338289E-9	NaN
353	1.000000	0.498614	7.36852e+06	-56289.1	955.817	-29739.7	0.000000	0.000000	6.498941	0.006531	NaN	0.000000	0.001537	0.001676	28.0802	0.055815	0.002054	27.1675	-120.591	-166.133	-0.034450	0.497325	-0.539976	-0.541265	0.006531	27.1675	-0.540156	-1.240280E+7	-5.265898E-10	NaN
353	1.000000	0.506629	7.36852e+06	-56289.1	955.818	-29739.7	0.000000	0.000000	6.506955	0.004855	NaN	0.000000	0.001516	0.001670	28.0807	0.095820	0.002018	47.4785	-88.1127	-163.636	0.039281	0.505284	-0.531961	-0.533306	0.004855	47.4785	-0.532037	-9.569e+06	-5.073562E-10	NaN
353	1.000000	0.514602	7.36852e+06	-56289.1	955.817	-29739.7	0.000000	0.000000	6.514926	-0.044992	NaN	0.000000	0.001551	0.001647	28.0806	0.032504	0.001918	16.9504	155.305	-167.119	-0.003996	0.513276	-0.523988	-0.525315	-0.044992	16.9504	-0.521997	-6.94023e+06	6.482728E-9	NaN
353	1.000000	0.522607	7.36852e+06	-56289.1	955.818	-29739.7	0.000000	0.000000	6.522931	-0.026179	NaN	0.000000	0.001522	0.001664	28.0807	0.080394	0.002005	40.1012	-163.427	-163.57	-0.019622	0.521376	-0.515983	-0.517214	-0.026179	40.1012	-0.515494	-5.63515e+06	4.645607E-9	NaN
353	1.000000	0.530630	7.36852e+06	-56289.1	955.818	-29739.7	0.000000	0.000000	6.530953	-0.065797	NaN	0.000000	0.001551	0.001654	28.0808	0.044242	0.002040	21.686	144.199	-167.21	0.009763	0.529284	-0.507960	-0.509306	-0.065797	21.686	-0.505685	-4.11422e+06	1.599256E-8	NaN
353	1.000000	0.538646	7.36852e+06	-56289.1	955.818	-29739.7	0.000000	0.000000	6.538974	0.044327	NaN	0.000000	0.001533	0.001658	28.0807	0.096147	0.002063	46.6088	-17.9355	-166.78	0.079204	0.537346	-0.499944	-0.501244	0.044327	46.6088	-0.500657	-3.50097e+06	-1.266124E-8	NaN
353	1.000000	0.546644	7.36852e+06	-56289.1	955.817	-29739.7	0.000000	0.000000	6.546972	0.041668	NaN	0.000000	0.001583	0.001672	28.0807	0.021941	0.002065	10.6249	-153.106	-168.961	-0.060101	0.545377	-0.491946	-0.493213	0.041668	10.6249	-0.494887	-2.90844e+06	-1.432666E-8	NaN
353	1.000000	0.554652	7.36852e+06	-56289.1	955.819	-29739.7	0.000000	0.000000	6.554979	0.034768	NaN	0.000000	0.001555	0.001643	28.0805	0.066014	0.001926	34.276	63.5314	-165.721	0.029618	0.553337	-0.483938	-0.485254	0.034768	34.276	-0.484699	-2.09548e+06	-1.659169E-8	NaN
353	1.000000	0.562631	7.36852e+06	-56289.1	955.817	-29739.7	0.000000	0.000000	6.562957	0.001310	NaN	0.000000	0.001553	0.001671	28.0806	0.087979	0.001995	44.0921	159.514	-166.555	-0.013293	0.561347	-0.475959	-0.477243	0.001310	44.0921	-0.475981	-1.58214e+06	-8.281876E-10	NaN
353	1.000000	0.570632	7.36852e+06	-56289.1	955.818	-29739.7	0.000000	0.000000	6.570960	0.057015	NaN	0.000000	0.001552	0.001665	28.0806	0.073278	0.002027	36.1427	-43.5323	-165.915	0.111087	0.569335	-0.467958	-0.469255	0.057015	36.1427	-0.469142	-1.26872e+06	-4.493875E-8	NaN
353	1.000000	0.578633	7.36852e+06	-56289.1	955.818	-29739.7	0.000000	0.000000	6.578960	0.017737	NaN	0.000000	0.001512	0.001674	28.0806	0.100877	0.001935	52.1321	-179.091	-164.677	0.012576	0.577291	-0.459957	-0.461299	0.017737	52.1321	-0.460212	-950599	-1.865898E-8	NaN
353	1.000000	0.586639	7.36852e+06	-56289.1	955.817	-29739.7	0.000000	0.000000	6.586963	-0.031120	NaN	0.000000	0.001536	0.001675	28.0808	0.080136	0.002007	39.9355	-96.8968	-168.254	0.152982	0.585323	-0.451952	-0.453267	-0.031120	39.9355	-0.451367	-713825	4.359629E-8	NaN
353	1.000000	0.594641	7.36852e+06	-56289.1	955.818	-29739.7	0.000000	0.000000	6.594967	0.001857	NaN	0.000000	0.001513	0.001693	28.0805	0.017602	0.002040	8.627806	71.2998	-167.11	-0.005977	0.593330	-0.443949	-0.445260	0.001857	8.627806	-0.444111	-564098	-3.291662E-9	NaN
353	1.000000	0.602667	7.36852e+06	-56289.1	955.817	-29739.7	0.000000	0.000000	6.602993	0.019723	NaN	0.000000	0.001514	0.001671	28.0805	0.099946	0.001955	51.1214	124.967	-168.38	0.013318	0.601372	-0.435923	-0.437218	0.019723	51.1214	-0.436213	-436405	-4.519434E-8	NaN
353	1.000000	0.610676	7.36852e+06	-56289.1	955.818	-29739.7	0.000000	0.000000	6.611000	-0.039386	NaN	0.000000	0.001544	0.001677	28.0806	0.122460	0.001971	62.1189	-140.517	-165.899	-0.023611	0.609416	-0.427914	-0.429174	-0.039386	62.1189	-0.427438	-327953	1.200978E-7	NaN
353	1.000000	0.618684	7.36852e+06	-56289.1	955.818	-29739.7	0.000000	0.000000	6.619011	0.018025	NaN	0.000000	0.001486	0.001670	28.0793	0.080134	0.002066	38.791	-106.204	-162.362	-0.044141	0.617299	-0.419906	-0.421292	0.018025	38.791	-0.420254	-259432	-6.947938E-8	NaN
353	1.000000	0.626626	7.36852e+06	-56289.1	955.818	-29739.7	0.000000	0.000000	6.626954	0.049570	NaN	0.000000	0.001557	0.001684	28.0797	0.053503	0.001783	30.0037	-20.8892	-167.115	0.029372	0.625353	-0.411964	-0.413237	0.049570	30.0037	-0.413203	-206030	-2.405946E-7	NaN
353	1.000000	0.634697	7.36852e+06	-56289.1	955.818	-29739.7	0.000000	0.000000	6.635023	0.009633	NaN	0.000000	0.001549	0.001693	28.0794	0.106486	0.001913	55.6635	162.51	-167.412	0.031150	0.633351	-0.403893	-0.405239	0.009633	55.6635	-0.404023	-152523	-6.315624E-8	NaN
353	1.000000	0.642680	7.36852e+06	-56289.1	955.818	-29739.7	0.000000	0.000000	6.643007	0.014440	NaN	0.000000	0.001534	0.001710	28.0794	0.111809	0.002138	52.2868	-55.5623	-167.001	-0.011808	0.641377	-0.395910	-0.397213	0.014440	52.2868	-0.396117	-117647	-1.227365E-7	NaN
353	1.000000	0.650676	7.36852e+06	-56289.1	955.818	-29739.7	0.000000	0.000000	6.651003	0.009582	NaN	0.000000	0.001491	0.001668	28.0798	0.045541	0.001998	22.7908	38.1786	-166.875	0.005184	0.649395	-0.387914	-0.389195	0.009582	22.7908	-0.388229	-90745.4	-1.055923E-7	NaN
353	1.000000	0.658667	7.36852e+06	-56289.1	955.819	-29739.7	0.000000	0.000000	6.658992	-0.018813	NaN	0.000000	0.001528	0.001651	28.0794	0.049329	0.001940	25.4245	69.0569	-166.641	0.018116	0.657324	-0.379923	-0.381266	-0.018813	25.4245	-0.379368	-67736.6	2.777303E-7	NaN
353	1.000000	0.666683	7.36852e+06	-56289.1	955.818	-29739.7	0.000000	0.000000	6.667006	-0.080016	NaN	0.000000	0.001506	0.001673	28.0796	0.023790	0.002068	11.5031	128.004	-165.026	-0.053074	0.665358	-0.371907	-0.373232	-0.080016	11.5031	-0.366690	-44507.2	1.797818E-6	NaN
353	1.000000	0.674717	7.36852e+06	-56289.1	955.818	-29739.7	0.000000	0.000000	6.675041	-0.036757	NaN	0.000000	0.001521	0.001690	28.0792	0.054667	0.001929	28.3458	-52.4412	-167.714	0.066822	0.673363	-0.363873	-0.365227	-0.036757	28.3458	-0.362901	-39242.1	9.366640E-7	NaN
353	1.000000	0.682684	7.36852e+06	-56289.1	955.818	-29739.7	0.000000	0.000000	6.683009	-0.017206	NaN	0.000000	0.001507	0.001689	28.0793	0.037946	0.002022	18.7693	-7.542707	-166.987	-0.021575	0.681388	-0.355907	-0.357202	-0.017206	18.7693	-0.355219	-30385.6	5.662654E-7	NaN
353	1.000000	0.690678	7.36852e+06	-56289.1	955.817	-29739.7	0.000000	0.000000	6.691003	-0.019383	NaN	0.000000	0.001518	0.001653	28.0793	0.066840	0.001910	34.9884	-138.701	-166.249	-0.007181	0.689423	-0.347912	-0.349168	-0.019383	34.9884	-0.347497	-23477.7	8.255750E-7	NaN
353	1.000000	0.698680	7.36852e+06	-56289.1	955.818	-29739.7	0.000000	0.000000	6.699005	-0.007387	NaN	0.000000	0.001516	0.001686	28.0792	0.040411	0.002119	19.0713	-90.0742	-166.254	-0.025001	0.697385	-0.339910	-0.341205	-0.007387	19.0713	-0.339620	-18030.6	4.097186E-7	NaN
353	1.000000	0.706702	7.36852e+06	-56289.1	955.818	-29739.7	0.000000	0.000000	6.707027	-0.006868	NaN	0.000000	0.001467	0.001632	28.0796	0.048507	0.001954	24.8212	120.318	-165.552	-0.136087	0.705387	-0.331888	-0.333203	-0.006868	24.8212	-0.331681	-13805.6	4.975054E-7	NaN
353	1.000000	0.714679	7.36852e+06	-56289.1	955.817	-29739.7	0.000000	0.000000	6.715004	-0.022335	NaN	0.000000	0.001500	0.001686	28.0793	0.154157	0.001932	79.8111	-11.2416	-167.482	-0.077973	0.713381	-0.323911	-0.325209	-0.022335	79.8111	-0.323701	-10545.5	2.117973E-6	NaN
353	1.000000	0.722710	7.36852e+06	-56289.1	955.816	-29739.7	0.000000	0.000000	6.723036	-0.012671	NaN	0.000000	0.001499	0.001640	28.0795	0.111685	0.002024	55.171	-102.803	-168.434	-0.025327	0.721416	-0.315880	-0.317174	-0.012671	55.171	-0.315707	-8042.42	1.575561E-6	NaN
353	1.000000	0.730690	7.36852e+06	-56289.1	955.817	-29739.7	0.000000	0.000000	6.731017	0.024915	NaN	0.000000	0.001497	0.001622	28.0794	0.059648	0.001965	30.3561	-151.257	-163.08	0.086013	0.729352	-0.307900	-0.309238	0.024915	30.3561	-0.308516	-6296.19	-3.957158E-6	NaN
353	1.000000	0.738718	7.36852e+06	-56289.1	955.818	-29739.7	0.000000	0.000000	6.739043	-0.020161	NaN	0.000000	0.001492	0.001637	28.0796	0.162194	0.001966	82.4914	155.382	-167.434	-0.039901	0.737385	-0.299872	-0.301206	-0.020161	82.4914	-0.299689	-4655.88	4.330121E-6	NaN
353	1.000000	0.746734	7.36852e+06	-56289.1	955.817	-29739.7	0.000000	0.000000	6.747060	-0.001397	NaN	0.000000	0.001488	0.001644	28.0794	0.096437	0.002081	46.3395	31.4288	-167.753	0.030053	0.745337	-0.291856	-0.293253	-0.001397	46.3395	-0.291834	-3554.31	3.929499E-7	NaN
353	1.000000	0.754731	7.36852e+06	-56289.1	955.818	-29739.7	0.000000	0.000000	6.755058	0.025645	NaN	0.000000	0.001507	0.001621	28.0807	0.131500	0.001938	67.8668	153.185	-162.884	-0.086613	0.753403	-0.283859	-0.285187	0.025645	67.8668	-0.284142	-2725	-9.410902E-6	NaN
353	1.000000	0.762718	7.36852e+06	-56289.1	955.818	-29739.7	0.000000	0.000000	6.763046	0.048578	NaN	0.000000	0.001518	0.001634	28.0807	0.065757	0.001933	34.0099	-67.25	-169.961	-0.001151	0.761367	-0.275872	-0.277224	0.048578	34.0099	-0.276944	-2122.32	-2.288900E-5	NaN
353	1.000000	0.770722	7.36852e+06	-56289.1	955.819	-29739.7	0.000000	0.000000	6.771046	-0.037009	NaN	0.000000	0.001495	0.001681	28.0807	0.129452	0.002015	64.2404	-150.433	-168.496	-0.011976	0.769440	-0.267868	-0.269150	-0.037009	64.2404	-0.267436	-1522.4	2.430971E-5	NaN
353	1.000000	0.778742	7.36852e+06	-56289.1	955.818	-29739.7	0.000000	0.000000	6.779064	-0.084484	NaN	0.000000	0.001498	0.001688	28.0806	0.026345	0.002127	12.3863	-157.453	-168.87	-0.008922	0.777392	-0.259848	-0.261198	-0.084484	12.3863	-0.254732	-972.737	8.685175E-5	NaN
353	1.000000	0.786699	7.36852e+06	-56289.1	955.818	-29739.7	0.000000	0.000000	6.787027	0.031681	NaN	0.000000	0.001515	0.001702	28.0804	0.038722	0.001980	19.56	-0.684160	-166.154	-0.018897	0.785380	-0.251891	-0.253210	0.031681	19.56	-0.253105	-918.174	-3.450401E-5	NaN
353	1.000000	0.794711	7.36852e+06	-56289.1	955.818	-29739.7	0.000000	0.000000	6.795039	0.057688	NaN	0.000000	0.001501	0.001702	28.0807	0.064838	0.001929	33.6133	150.03	-165.986	-0.031403	0.793393	-0.243879	-0.245197	0.057688	33.6133	-0.245166	-691.889	-8.337745E-5	NaN
353	1.000000	0.802734	7.36852e+06	-56289.1	955.817	-29739.7	0.000000	0.000000	6.803061	0.012694	NaN	0.000000	0.001503	0.001681	28.0806	0.085614	0.002079	41.1763	113.274	-166.219	-0.046520	0.801403	-0.235856	-0.237187	0.012694	41.1763	-0.236087	-499.24	-2.542601E-5	NaN
353	1.000000	0.810765	7.36852e+06	-56289.1	955.819	-29739.7	0.000000	0.000000	6.811091	0.017964	NaN	0.000000	0.001510	0.001682	28.0806	0.050320	0.001984	25.3639	-130.004	-166.219	0.096493	0.809456	-0.227826	-0.229134	0.017964	25.3639	-0.228357	-377.177	-4.762778E-5	NaN
353	1.000000	0.818753	7.36852e+06	-56289.1	955.817	-29739.7	0.000000	0.000000	6.819080	0.022435	NaN	0.000000	0.001519	0.001665	28.0808	0.039785	0.001983	20.0655	39.5582	-168.299	-0.008799	0.817459	-0.219837	-0.221131	0.022435	20.0655	-0.220675	-284.749	-7.878687E-5	NaN
353	1.000000	0.826754	7.36852e+06	-56289.1	955.818	-29739.7	0.000000	0.000000	6.827079	-0.017836	NaN	0.000000	0.001558	0.001691	28.0805	0.044094	0.002163	20.3817	-147.188	-166.463	-0.033201	0.825415	-0.211836	-0.213175	-0.017836	20.3817	-0.211180	-200.407	8.899808E-5	NaN
353	1.000000	0.834758	7.36852e+06	-56289.1	955.818	-29739.7	0.000000	0.000000	6.835084	-0.006134	NaN	0.000000	0.001558	0.001692	28.0808	0.063013	0.002058	30.6202	-115.297	-163.022	-0.005499	0.833517	-0.203832	-0.205073	-0.006134	30.6202	-0.203682	-151.369	4.052443E-5	NaN
353	1.000000	0.842735	7.36852e+06	-56289.1	955.818	-29739.7	0.000000	0.000000	6.843060	-0.003132	NaN	0.000000	0.001539	0.001700	28.0807	0.142431	0.001919	74.2264	39.71	-166.497	-0.016632	0.841464	-0.195855	-0.197126	-0.003132	74.2264	-0.195824	-112.419	2.785590E-5	NaN
353	1.000000	0.850793	7.36852e+06	-56289.1	955.817	-29739.7	0.000000	0.000000	6.851120	0.022718	NaN	0.000000	0.001537	0.001726	28.0808	0.037942	0.001990	19.0669	110.467	-166.08	-0.020698	0.849428	-0.187797	-0.189162	0.022718	19.0669	-0.188690	-85.5312	-0.000266	NaN
353	1.000000	0.858757	7.36852e+06	-56289.1	955.818	-29739.7	0.000000	0.000000	6.859083	0.015202	NaN	0.000000	0.001508	0.001692	28.0809	0.066129	0.001955	33.8292	73.6185	-167.28	0.077148	0.857427	-0.179833	-0.181163	0.015202	33.8292	-0.180170	-61.4276	-0.000247	NaN
353	1.000000	0.866773	7.36852e+06	-56289.1	955.819	-29739.7	0.000000	0.000000	6.867098	-0.035074	NaN	0.000000	0.001565	0.001720	28.0805	0.121928	0.001940	62.8434	-75.4623	-166.075	-0.099589	0.865424	-0.171817	-0.173166	-0.035074	62.8434	-0.171398	-43.4367	0.000807	NaN
353	1.000000	0.874772	7.36852e+06	-56289.1	955.817	-29739.7	0.000000	0.000000	6.875098	0.021594	NaN	0.000000	0.001536	0.001702	28.0807	0.165223	0.001936	85.3617	170.766	-167.772	0.031079	0.873447	-0.163818	-0.165143	0.021594	85.3617	-0.164008	-32.275	-0.000669	NaN
353	1.000000	0.882774	7.36852e+06	-56289.1	955.818	-29739.7	0.000000	0.000000	6.883100	0.002581	NaN	0.000000	0.001559	0.001682	28.0805	0.079571	0.001844	43.1607	-149.71	-164.704	-0.044862	0.881527	-0.155816	-0.157063	0.002581	43.1607	-0.155861	-23.1238	-0.000112	NaN
353	1.000000	0.890736	7.36852e+06	-56289.1	955.817	-29739.7	0.000000	0.000000	6.891062	-0.007865	NaN	0.000000	0.001559	0.001698	28.0794	0.075939	0.001978	38.3936	-128.076	-164.645	0.017521	0.889492	-0.147854	-0.149098	-0.007865	38.3936	-0.147700	-16.4408	0.000478	NaN
353	1.000000	0.898791	7.36852e+06	-56289.1	955.819	-29739.7	0.000000	0.000000	6.899117	-0.004381	NaN	0.000000	0.001578	0.001720	28.0798	0.054466	0.002092	26.0363	71.0884	-167.395	-0.031551	0.897483	-0.139799	-0.141107	-0.004381	26.0363	-0.139673	-11.6633	0.000376	NaN
353	1.000000	0.906785	7.36852e+06	-56289.1	955.819	-29739.7	0.000000	0.000000	6.907109	-0.046476	NaN	0.000000	0.001544	0.001689	28.0794	0.064179	0.002008	31.9656	149.285	-167.393	-0.080082	0.905471	-0.131805	-0.133119	-0.046476	31.9656	-0.130714	-7.868084	0.005907	NaN
353	1.000000	0.914790	7.36852e+06	-56289.1	955.818	-29739.7	0.000000	0.000000	6.915115	-0.011432	NaN	0.000000	0.001550	0.001701	28.0796	0.049576	0.001964	25.2416	123.646	-168.206	0.033941	0.913461	-0.123800	-0.125129	-0.011432	25.2416	-0.123461	-5.668148	0.002017	NaN
353	1.000000	0.922796	7.36852e+06	-56289.1	955.819	-29739.7	0.000000	0.000000	6.923122	0.007690	NaN	0.000000	0.001546	0.001690	28.079	0.015578	0.002057	7.573432	-48.6613	-165.3	-0.004533	0.921532	-0.115794	-0.117058	0.007690	7.573432	-0.116555	-4.112055	-0.001870	NaN
353	1.000000	0.930799	7.36852e+06	-56289.1	955.818	-29739.7	0.000000	0.000000	6.931125	-0.000997	NaN	0.000000	0.001556	0.001725	28.0791	0.111230	0.001989	55.9328	-175.968	-166.732	0.017941	0.929459	-0.107791	-0.109131	-0.000997	55.9328	-0.107778	-2.696318	0.000370	NaN
353	1.000000	0.938783	7.36852e+06	-56289.1	955.818	-29739.7	0.000000	0.000000	6.939109	0.013000	NaN	0.000000	0.001567	0.001681	28.0792	0.156310	0.002019	77.4284	9.197756	-163.107	-0.023759	0.937499	-0.099807	-0.101091	0.013000	77.4284	-0.099933	-1.820914	-0.007139	NaN
353	1.000000	0.946788	7.36852e+06	-56289.1	955.818	-29739.7	0.000000	0.000000	6.947117	0.066806	NaN	0.000000	0.001586	0.001669	28.0792	0.089216	0.001987	44.9088	161.078	-168.123	0.005320	0.945494	-0.091802	-0.093096	0.066806	44.9088	-0.092918	-1.263811	-0.052861	NaN
353	1.000000	0.954797	7.36852e+06	-56289.1	955.818	-29739.7	0.000000	0.000000	6.955122	-0.036741	NaN	0.000000	0.001574	0.001666	28.0795	0.084401	0.001879	44.9176	122.285	-165.675	-0.126184	0.953473	-0.083793	-0.085117	-0.036741	44.9176	-0.083179	-0.741912	0.049522	NaN
353	1.000000	0.962829	7.36852e+06	-56289.1	955.818	-29739.7	0.000000	0.000000	6.963156	0.031168	NaN	0.000000	0.001540	0.001665	28.0792	0.072204	0.002092	34.5084	72.7708	-163.762	0.111550	0.961529	-0.075761	-0.077061	0.031168	34.5084	-0.076438	-0.502973	-0.061968	NaN
353	1.000000	0.970810	7.36852e+06	-56289.1	955.818	-29739.7	0.000000	0.000000	6.971140	0.089646	NaN	0.000000	0.001583	0.001659	28.0794	0.027418	0.002071	13.2417	-161.286	-165.132	0.086590	0.969493	-0.067780	-0.069097	0.089646	13.2417	-0.072857	-0.406141	-0.220726	NaN
353	1.000000	0.978797	7.36852e+06	-56289.1	955.819	-29739.7	0.000000	0.000000	6.979122	-0.024762	NaN	0.000000	0.001587	0.001662	28.0791	0.150207	0.002118	70.9276	-114.269	-166.978	0.017117	0.977498	-0.059793	-0.061092	-0.024762	70.9276	-0.059531	-0.174591	0.141829	NaN
353	1.000000	0.986800	7.36852e+06	-56289.1	955.819	-29739.7	0.000000	0.000000	6.987129	0.071763	NaN	0.000000	0.001547	0.001640	28.0791	0.067793	0.001863	36.3938	162.08	-167.699	0.027401	0.985534	-0.051790	-0.053056	0.071763	36.3938	-0.053269	-0.114401	-0.627294	NaN
353	1.000000	0.994815	7.36852e+06	-56289.1	955.819	-29739.7	0.000000	0.000000	6.995139	-0.045564	NaN	0.000000	0.001571	0.001642	28.0793	0.042921	0.001877	22.8617	137.463	-166.152	0.043325	0.993496	-0.043775	-0.045094	-0.045564	22.8617	-0.042280	-0.053067	0.858606	NaN
353	1.000000	1.002833	7.36852e+06	-56289.1	955.818	-29739.7	0.000000	0.000000	7.003161	0.051540	NaN	0.000000	0.001579	0.001649	28.0793	0.086094	0.002127	40.4815	159.113	-167.371	-0.072915	1.001550	-0.035757	-0.037040	0.051540	40.4815	-0.036712	-0.035996	-1.431838	NaN
353	1.000000	1.010816	7.36852e+06	-56289.1	955.818	-29739.7	0.000000	0.000000	7.011141	-0.006401	NaN	0.000000	0.001569	0.001642	28.0797	0.095457	0.002043	46.7267	176.73	-168.105	-0.042033	1.009514	-0.027774	-0.029076	-0.006401	46.7267	-0.027671	-0.019864	0.322261	NaN
353	1.000000	1.018835	7.36852e+06	-56289.1	955.819	-29739.7	0.000000	0.000000	7.019162	0.040413	NaN	0.000000	0.001548	0.001670	28.0793	0.113094	0.002079	54.386	-111.286	-164.689	0.009644	1.017518	-0.019755	-0.021072	0.040413	54.386	-0.020313	-0.012793	-3.159011	NaN
353	1.000000	1.026871	7.36852e+06	-56289.1	955.818	-29739.7	0.000000	0.000000	7.027197	0.009710	NaN	0.000000	0.001573	0.001677	28.0807	0.126921	0.001909	66.4685	-3.085691	-169.083	0.040275	1.025606	-0.011719	-0.012984	0.009710	66.4685	-0.011829	-0.007431	-1.306805	NaN
353	1.000000	1.034828	7.36852e+06	-56289.1	955.818	-29739.7	0.000000	0.000000	7.035156	0.049481	NaN	0.000000	0.001575	0.001670	28.0807	0.075162	0.001974	38.0729	-144.027	-166.708	0.015074	1.033529	-0.003762	-0.005061	0.049481	38.0729	-0.004737	-0.003251	-15.221	NaN
353	1.000000	1.042806	7.36852e+06	-56289.1	955.817	-29739.7	0.000000	0.000000	7.043246	2.765735	NaN	0.000000	0.001552	0.001658	28.0807	3.692546	0.001903	1939.91	10.5031	-170.608	1.280407	1.041548	0.004216	0.002958	2.765735	1939.91	0.003147	0.002504	1104.49	35418.5
353	2.000000	1.048464	7.36852e+06	-56289.1	955.818	-29739.7	0.000000	0.000000	7.049122	8.074179	NaN	0.000000	0.001535	0.001652	28.0807	9.063699	0.001668	5434.19	8.890605	-173.242	8.192710	1.048154	0.009874	0.009564	8.074179	5434.19	0.008760	0.007836	1030.43	56087.8
353	2.000000	1.050387	7.36852e+06	-56289.1	955.818	-29739.7	0.000000	0.000000	7.051180	11.3731	NaN	0.000000	0.001534	0.001657	28.0805	11.3643	0.001746	6507.56	5.226596	-173.369	10.5635	1.050153	0.011797	0.011563	11.3731	6507.56	0.010486	0.009726	1169.3	60285.7
353	2.000000	1.052417	7.36852e+06	-56289.1	955.818	-29739.7	0.000000	0.000000	7.053328	14.2112	NaN	0.000000	0.001531	0.001632	28.0809	13.6311	0.001661	8205.08	8.055890	-176.579	13.8291	1.052089	0.013827	0.013499	14.2112	8205.08	0.012528	0.012129	1171.71	68069.2
353	2.000000	1.054390	7.36852e+06	-56289.1	955.818	-29739.7	0.000000	0.000000	7.055450	17.8478	NaN	0.000000	0.001570	0.001642	28.0807	15.4083	0.001782	8647.58	4.258271	-173.295	18.1389	1.054062	0.015800	0.015472	17.8478	8647.58	0.014252	0.014300	1248.07	66068.4
353	2.000000	1.056410	7.36852e+06	-56289.1	955.818	-29739.7	0.000000	0.000000	7.057571	20.3094	NaN	0.000000	0.001571	0.001695	28.0803	19.0314	0.002041	9326.02	9.970408	-178.587	21.043	1.056129	0.017820	0.017539	20.3094	9326.02	0.016187	0.016900	1201.71	65542.1
353	2.000000	1.058354	7.36852e+06	-56289.1	955.818	-29739.7	0.000000	0.000000	7.059705	24.9041	NaN	0.000000	0.001573	0.001670	28.0805	19.8038	0.001936	10228.8	8.172205	-177.09	24.895	1.057999	0.019764	0.019409	24.9041	10228.8	0.017938	0.019405	1283.38	67087.1
353	2.000000	1.060359	7.36852e+06	-56289.1	955.819	-29739.7	0.000000	0.000000	7.061779	26.5743	NaN	0.000000	0.001564	0.001642	28.0805	21.8852	0.001873	11686.3	9.492745	178.571	26.0682	1.060084	0.021769	0.021494	26.5743	11686.3	0.020064	0.022643	1173.63	70955.3
353	2.000000	1.062380	7.36852e+06	-56289.1	955.817	-29739.7	0.000000	0.000000	7.064028	32.1295	NaN	0.000000	0.001542	0.001659	28.0813	24.1638	0.002067	11687.6	11.9008	177.459	32.2331	1.061977	0.023790	0.023387	32.1295	11687.6	0.021729	0.025332	1268.36	67091.3
353	2.000000	1.064344	7.36852e+06	-56289.1	955.818	-29739.7	0.000000	0.000000	7.066128	35.4305	NaN	0.000000	0.001570	0.001675	28.0803	25.4556	0.001783	14276.2	6.064484	179.597	35.9458	1.063997	0.025754	0.025407	35.4305	14276.2	0.023893	0.029032	1220.4	76550.4
353	2.000000	1.066342	7.36852e+06	-56289.1	955.817	-29739.7	0.000000	0.000000	7.068325	40.295	NaN	0.000000	0.001542	0.001599	28.0805	27.0962	0.001790	15133.5	1.535806	-175.704	39.2728	1.066035	0.027752	0.027445	40.295	15133.5	0.025755	0.032403	1243.55	76810.4
353	2.000000	1.068281	7.36852e+06	-56289.1	955.818	-29739.7	0.000000	0.000000	7.070472	45.3419	NaN	0.000000	0.001554	0.001662	28.0803	28.9762	0.001750	16561.8	3.936489	179.659	43.7022	1.068031	0.029691	0.029440	45.3419	16561.8	0.027637	0.035989	1259.89	79762.4
353	2.000000	1.070303	7.36852e+06	-56289.1	955.818	-29739.7	0.000000	0.000000	7.072712	50.6416	NaN	0.000000	0.001611	0.001641	28.0805	30.8433	0.001773	17400.6	8.635829	175.678	49.7941	1.069962	0.031713	0.031372	50.6416	17400.6	0.029530	0.039775	1273.2	79713.8
353	2.000000	1.072379	7.36852e+06	-56289.1	955.817	-29739.7	0.000000	0.000000	7.075003	55.8427	NaN	0.000000	0.001569	0.001604	28.0807	32.5013	0.001903	17080.2	3.272981	-177.873	56.0936	1.071965	0.033789	0.033375	55.8427	17080.2	0.031337	0.043561	1281.95	74768.3
353	2.000000	1.074283	7.36852e+06	-56289.1	955.817	-29739.7	0.000000	0.000000	7.077083	60.1229	NaN	0.000000	0.001562	0.001629	28.0804	33.2379	0.001688	19691.4	3.962911	178.855	58.1084	1.074029	0.035693	0.035439	60.1229	19691.4	0.033403	0.048093	1250.13	82036.6
353	2.000000	1.076294	7.36852e+06	-56289.1	955.817	-29739.7	0.000000	0.000000	7.079311	65.4103	NaN	0.000000	0.001543	0.001629	28.0793	36.4788	0.001784	20447.4	3.532468	178.752	63.3013	1.076009	0.037704	0.037419	65.4103	20447.4	0.035305	0.052458	1246.91	81565.1
353	2.000000	1.078353	7.36852e+06	-56289.1	955.817	-29739.7	0.000000	0.000000	7.081734	74.2763	NaN	0.000000	0.001551	0.001641	28.0793	38.1227	0.001695	22493	7.319616	174.931	76.0439	1.077943	0.039763	0.039353	74.2763	22493	0.037286	0.057203	1298.48	85923.6
353	2.000000	1.080323	7.36852e+06	-56289.1	955.817	-29739.7	0.000000	0.000000	7.083846	77.7294	NaN	0.000000	0.001573	0.001696	28.0793	39.8916	0.001696	23520.9	5.038079	175.245	77.602	1.080044	0.041733	0.041453	77.7294	23520.9	0.039254	0.062115	1251.38	86224.4
353	2.000000	1.082337	7.36852e+06	-56289.1	955.818	-29739.7	0.000000	0.000000	7.086258	87.3818	NaN	0.000000	0.001552	0.001667	28.0795	42.3735	0.001931	21946.6	10.1246	173.591	87.555	1.081960	0.043747	0.043370	87.3818	21946.6	0.040761	0.066010	1323.77	78043.3
353	2.000000	1.084276	7.36852e+06	-56289.1	955.817	-29739.7	0.000000	0.000000	7.088330	90.6056	NaN	0.000000	0.001536	0.001697	28.0792	43.7918	0.001862	23522	1.302536	-180	88.6607	1.083945	0.045686	0.045355	90.6056	23522	0.042797	0.071457	1267.98	80394.2
353	2.000000	1.086291	7.36852e+06	-56289.1	955.817	-29739.7	0.000000	0.000000	7.090787	101.346	NaN	0.000000	0.001539	0.001652	28.0795	46.3248	0.001854	24984.9	5.160643	176.118	100.054	1.085969	0.047701	0.047379	101.346	24984.9	0.044659	0.076623	1322.66	82465.4
353	2.000000	1.088277	7.36852e+06	-56289.1	955.818	-29739.7	0.000000	0.000000	7.093139	110.269	NaN	0.000000	0.001534	0.001645	28.0791	46.772	0.001719	27205	2.992507	177.209	109.427	1.087902	0.049687	0.049312	110.269	27205	0.046647	0.082332	1339.33	86624
353	2.000000	1.090256	7.36852e+06	-56289.1	955.818	-29739.7	0.000000	0.000000	7.095503	119.605	NaN	0.000000	0.001559	0.001693	28.0792	50.0795	0.001844	27153	5.100255	175.735	118.044	1.090003	0.051666	0.051413	119.605	27153	0.048363	0.087419	1368.17	83905
353	2.000000	1.092310	7.36852e+06	-56289.1	955.818	-29739.7	0.000000	0.000000	7.097866	127.147	NaN	0.000000	0.001555	0.001692	28.0793	51.71	0.001799	28744.6	2.687178	177.076	126.28	1.091914	0.053720	0.053324	127.147	28744.6	0.050402	0.093660	1357.54	85812.9
353	2.000000	1.094325	7.36852e+06	-56289.1	955.819	-29739.7	0.000000	0.000000	7.100063	131.549	NaN	0.000000	0.001545	0.001648	28.0792	52.8841	0.001679	31494.3	4.223348	174.545	132.376	1.094040	0.055735	0.055450	131.549	31494.3	0.052602	0.100626	1307.31	90708.9
353	2.000000	1.096240	7.36852e+06	-56289.1	955.819	-29739.7	0.000000	0.000000	7.102372	141.126	NaN	0.000000	0.001534	0.001641	28.0793	56.3018	0.001916	29388.5	3.996862	174.971	138.026	1.096055	0.057650	0.057465	141.126	29388.5	0.054049	0.105337	1339.75	82729.3
353	2.000000	1.098297	7.36852e+06	-56289.1	955.819	-29739.7	0.000000	0.000000	7.104975	154.418	NaN	0.000000	0.001540	0.001646	28.0793	57.3577	0.001828	31384.7	8.897644	170.894	155.052	1.097871	0.059706	0.059281	154.418	31384.7	0.056016	0.111912	1379.81	85714.2
353	2.000000	1.100246	7.36852e+06	-56289.1	955.819	-29739.7	0.000000	0.000000	7.107495	168.278	NaN	0.000000	0.001554	0.001654	28.0794	59.0532	0.001782	33134.1	4.605265	174.284	165.993	1.099945	0.061656	0.061355	168.278	33134.1	0.057847	0.118200	1423.68	88052.1
353	2.000000	1.102301	7.36852e+06	-56289.1	955.818	-29739.7	0.000000	0.000000	7.110003	179.285	NaN	0.000000	0.001560	0.001659	28.0796	60.9982	0.001760	34652.3	6.872574	172.701	179.563	1.101864	0.063711	0.063274	179.285	34652.3	0.059831	0.125203	1431.96	89474.2
353	2.000000	1.104283	7.36852e+06	-56289.1	955.819	-29739.7	0.000000	0.000000	7.112143	183.142	NaN	0.000000	0.001562	0.001623	28.0794	62.5122	0.001773	35266.4	5.052344	172.683	181.986	1.103989	0.065693	0.065399	183.142	35266.4	0.061798	0.132335	1383.93	88572.3
353	2.000000	1.106254	7.36852e+06	-56289.1	955.819	-29739.7	0.000000	0.000000	7.114513	192.829	NaN	0.000000	0.001607	0.001678	28.0795	65.618	0.001715	38265.5	5.320638	171.734	190.307	1.105958	0.067664	0.067368	192.829	38265.5	0.063884	0.140104	1376.32	93401.7
353	2.000000	1.108236	7.36852e+06	-56289.1	955.819	-29739.7	0.000000	0.000000	7.117009	205.317	NaN	0.000000	0.001593	0.001638	28.0793	65.7626	0.001760	37356	3.263281	174.101	204.336	1.108011	0.069646	0.069421	205.317	37356	0.065524	0.146358	1402.85	89212.6
353	2.000000	1.110237	7.36852e+06	-56289.1	955.818	-29739.7	0.000000	0.000000	7.119555	218.577	NaN	0.000000	0.001555	0.001653	28.0806	69.8102	0.001812	38533.7	5.672886	171.895	215.96	1.109897	0.071647	0.071307	218.577	38533.7	0.067393	0.153643	1422.63	89816.6
353	2.000000	1.112305	7.36852e+06	-56289.1	955.819	-29739.7	0.000000	0.000000	7.121916	225.691	NaN	0.000000	0.001580	0.001670	28.0812	71.4671	0.001856	38507.9	4.942193	172.972	225.471	1.111955	0.073715	0.073365	225.691	38507.9	0.069320	0.161331	1398.93	87591.8
353	2.000000	1.114153	7.36852e+06	-56289.1	955.818	-29739.7	0.000000	0.000000	7.124315	239.097	NaN	0.000000	0.001577	0.001644	28.0804	73.3897	0.001973	37198	5.040932	173.069	234.455	1.114012	0.075563	0.075422	239.097	37198	0.070742	0.167120	1430.69	83134
353	2.000000	1.116189	7.36852e+06	-56289.1	955.817	-29739.7	0.000000	0.000000	7.126780	249.53	NaN	0.000000	0.001595	0.001705	28.0801	74.2758	0.001900	39084.1	2.833204	174.838	245.723	1.115886	0.077599	0.077295	249.53	39084.1	0.072810	0.175708	1420.14	85187.8
353	2.000000	1.118205	7.36852e+06	-56289.1	955.817	-29739.7	0.000000	0.000000	7.129451	265.448	NaN	0.000000	0.001515	0.001715	28.0803	74.8615	0.001731	43253	3.433691	173.68	262.584	1.117776	0.079615	0.079186	265.448	43253	0.075012	0.185071	1434.3	91858.5
353	2.000000	1.120189	7.36852e+06	-56289.1	955.818	-29739.7	0.000000	0.000000	7.131922	277.268	NaN	0.000000	0.001560	0.001684	28.0803	77.004	0.001735	44376.2	4.679489	171.526	272.966	1.119940	0.081599	0.081350	277.268	44376.2	0.076913	0.193340	1434.1	92206.8
353	2.000000	1.122256	7.36852e+06	-56289.1	955.818	-29739.7	0.000000	0.000000	7.134525	290.314	NaN	0.000000	0.001550	0.001697	28.0805	79.8418	0.001775	44979.7	5.196068	171.824	287.769	1.121953	0.083666	0.083363	290.314	44979.7	0.078825	0.201827	1438.43	91474.5
353	2.000000	1.124135	7.36852e+06	-56289.1	955.817	-29739.7	0.000000	0.000000	7.136936	303.219	NaN	0.000000	0.001580	0.001675	28.0803	80.7462	0.001742	46358.7	3.485689	172.23	296.904	1.123850	0.085545	0.085260	303.219	46358.7	0.080640	0.210042	1443.61	92417
353	2.000000	1.126189	7.36852e+06	-56289.1	955.818	-29739.7	0.000000	0.000000	7.139457	314.59	NaN	0.000000	0.001544	0.001664	28.0803	83.3344	0.001631	51097.2	1.025312	174.179	310.968	1.125988	0.087599	0.087398	314.59	51097.2	0.082981	0.220865	1424.35	99336
353	2.000000	1.128188	7.36852e+06	-56289.1	955.817	-29739.7	0.000000	0.000000	7.142062	329.301	NaN	0.000000	0.001552	0.001724	28.0802	84.6613	0.001863	45454.1	2.933738	173.478	324.562	1.127837	0.089598	0.089246	329.301	45454.1	0.084165	0.226433	1454.3	87272.4
353	2.000000	1.130255	7.36852e+06	-56289.1	955.817	-29739.7	0.000000	0.000000	7.144364	335.035	NaN	0.000000	0.001563	0.001663	28.0803	89.0033	0.001828	48697.9	6.814673	168.825	335.541	1.129913	0.091665	0.091323	335.035	48697.9	0.086505	0.237633	1409.89	91270.4
353	2.000000	1.132261	7.36852e+06	-56289.1	955.818	-29739.7	0.000000	0.000000	7.147030	351.065	NaN	0.000000	0.001544	0.001675	28.0804	89.2353	0.001776	50254.1	2.945960	172.983	351.049	1.131883	0.093671	0.093293	351.065	50254.1	0.088431	0.247042	1421.07	92376
353	2.000000	1.134240	7.36852e+06	-56289.1	955.818	-29739.7	0.000000	0.000000	7.149664	366.989	NaN	0.000000	0.001570	0.001628	28.0802	91.9651	0.001792	51308.3	8.086336	167.694	368.033	1.133890	0.095650	0.095300	366.989	51308.3	0.090286	0.256259	1432.1	92602.2
353	2.000000	1.136191	7.36852e+06	-56289.1	955.817	-29739.7	0.000000	0.000000	7.152097	378.705	NaN	0.000000	0.001541	0.001639	28.0804	93.2616	0.001853	50342.7	2.194116	173.39	375.99	1.135955	0.097601	0.097365	378.705	50342.7	0.091959	0.264715	1430.61	89396.6
353	2.000000	1.138259	7.36852e+06	-56289.1	955.816	-29739.7	0.000000	0.000000	7.154660	390.734	NaN	0.000000	0.001582	0.001621	28.0804	95.2974	0.001793	53152.5	6.817194	167.695	391.647	1.138087	0.099669	0.099497	390.734	53152.5	0.094155	0.276003	1415.69	92435.8
353	2.000000	1.140151	7.36852e+06	-56289.1	955.817	-29739.7	0.000000	0.000000	7.157323	409.473	NaN	0.000000	0.001551	0.001649	28.0803	96.7118	0.001766	54754.3	6.106136	168.89	402.617	1.139825	0.101561	0.101235	409.473	54754.3	0.095952	0.285404	1434.72	93640
353	2.000000	1.142335	7.36852e+06	-56289.1	955.818	-29739.7	0.000000	0.000000	7.160158	425.303	NaN	0.000000	0.001549	0.001656	28.0803	99.418	0.001760	56487.2	6.229979	168.699	429.566	1.141828	0.103745	0.103238	425.303	56487.2	0.098098	0.296824	1432.84	94727
353	2.000000	1.144128	7.36852e+06	-56289.1	955.818	-29739.7	0.000000	0.000000	7.162694	443.364	NaN	0.000000	0.001567	0.001632	28.0793	100.06	0.001875	53369.9	4.538700	170.506	436.736	1.143898	0.105538	0.105308	443.364	53369.9	0.099308	0.303351	1461.55	88531.3
353	2.000000	1.146182	7.36852e+06	-56289.1	955.817	-29739.7	0.000000	0.000000	7.165526	462.251	NaN	0.000000	0.001558	0.001664	28.0789	102.91	0.001761	58446.7	5.263138	169.059	459.317	1.145807	0.107592	0.107217	462.251	58446.7	0.101661	0.316244	1461.69	94956