File: remote_trans/data/nanoindenter/0828-1/data/Data_2025-08-06,11h17m57s/2025-07-22_16-23-58_1_489.txt
2025-07-22, 16:23:58, 1
Index	Phase	Displacement	Time	Pos X	Pos Y	Pos Z	Rot A	Rot B	Piezo Z	Force A	Force B	Gripper	Voltage A	Voltage B	Temperature	Amplitude force	Amplitude pos	Stiffness	Phase shift	Phase excitation	Force A raw	Displacement raw	HMax	HMax raw	Real Force	Real Stiffness	Contact Depth	Area	Hardness	Reduced Mod.
[#]	[#]	[um]	[s]	[um]	[um]	[um]	[m°]	[m°]	[um]	[uN]	[uN]	[V]	[V]	[V]	[°C]	[uN]	[um]	[N/m]	[°]	[°]	[uN]	[um]	[um]	[um]	[uN]	[N/m]	[um]	[um^2]	[MPa]	[MPa]
489	1.000000	0.002414	7.36984e+06	-52639.1	1005.82	-29748.7	0.000000	0.000000	6.002731	0.048224	NaN	0.000000	0.001586	0.001743	28.083	0.022141	0.000957	23.1286	-126.11	179.53	0.034756	0.001169	-1.160144	-1.161389	0.048224	23.1286	-1.161708	-3.371016E+15	-1.430559E-17	NaN
489	1.000000	0.012484	7.36984e+06	-52639.1	1005.82	-29748.7	0.000000	0.000000	6.012798	-0.013698	NaN	0.000000	0.001594	0.001725	28.0831	0.031521	0.001117	28.2166	77.2963	-3.945123	0.069666	0.011073	-1.150075	-1.151485	-0.013698	28.2166	-1.149711	-2.327766E+15	5.884712E-18	NaN
489	1.000000	0.022386	7.36984e+06	-52639.1	1005.82	-29748.7	0.000000	0.000000	6.022700	-0.017307	NaN	0.000000	0.001594	0.001698	28.0829	0.086894	0.001730	50.232	-27.4402	174.543	-0.007976	0.021086	-1.140172	-1.141472	-0.017307	50.232	-1.139913	-1.720195E+15	1.006110E-17	NaN
489	1.000000	0.032354	7.36984e+06	-52639.1	1005.82	-29748.6	0.000000	0.000000	6.032669	0.005967	NaN	0.000000	0.001599	0.001718	28.0828	0.111867	0.001888	59.2603	67.2627	-2.406603	0.023759	0.031020	-1.130205	-1.131538	0.005967	59.2603	-1.130280	-1.277556E+15	-4.670947E-18	NaN
489	1.000000	0.042369	7.36984e+06	-52639.1	1005.82	-29748.6	0.000000	0.000000	6.042685	0.019680	NaN	0.000000	0.001584	0.001710	28.0819	0.097668	0.002023	48.2794	-122.673	176.852	0.011832	0.041098	-1.120189	-1.121460	0.019680	48.2794	-1.120495	-9.443037E+14	-2.084095E-17	NaN
489	1.000000	0.052376	7.36984e+06	-52639.1	1005.82	-29748.6	0.000000	0.000000	6.052692	0.044838	NaN	0.000000	0.001586	0.001697	28.0818	0.063816	0.001849	34.518	110.003	-2.045348	0.044238	0.051001	-1.110183	-1.111557	0.044838	34.518	-1.111157	-7.076381E+14	-6.336323E-17	NaN
489	1.000000	0.062381	7.36984e+06	-52639.1	1005.82	-29748.6	0.000000	0.000000	6.062695	-0.006872	NaN	0.000000	0.001566	0.001692	28.0817	0.132801	0.001974	67.2799	53.2522	175.689	-0.007955	0.061110	-1.100178	-1.101448	-0.006872	67.2799	-1.100101	-5.028320E+14	1.366661E-17	NaN
489	1.000000	0.072374	7.36984e+06	-52639.1	1005.82	-29748.6	0.000000	0.000000	6.072686	-0.059244	NaN	0.000000	0.001548	0.001685	28.0819	0.067062	0.001869	35.8772	-92.4995	-0.813923	-0.026408	0.071015	-1.090184	-1.091543	-0.059244	35.8772	-1.088946	-3.561710E+14	1.663363E-16	NaN
489	1.000000	0.082385	7.36984e+06	-52639.1	1005.82	-29748.6	0.000000	0.000000	6.082698	-0.029743	NaN	0.000000	0.001552	0.001725	28.082	0.025116	0.002034	12.3462	11.0881	177.764	0.005482	0.081056	-1.080173	-1.081502	-0.029743	12.3462	-1.078366	-2.567905E+14	1.158244E-16	NaN
489	1.000000	0.092387	7.36984e+06	-52639.1	1005.82	-29748.6	0.000000	0.000000	6.092700	-0.038833	NaN	0.000000	0.001558	0.001735	28.0818	0.091902	0.001805	50.9129	-125.019	-2.547499	-0.017834	0.091013	-1.070172	-1.071545	-0.038833	50.9129	-1.069600	-1.957984E+14	1.983338E-16	NaN
489	1.000000	0.102389	7.36984e+06	-52639.1	1005.82	-29748.6	0.000000	0.000000	6.102706	0.055946	NaN	0.000000	0.001520	0.001747	28.0818	0.133418	0.001925	69.3174	-82.2225	172.014	0.060805	0.101091	-1.060169	-1.061467	0.055946	69.3174	-1.060774	-1.490131E+14	-3.754459E-16	NaN
489	1.000000	0.112384	7.36984e+06	-52639.1	1005.82	-29748.6	0.000000	0.000000	6.112698	-0.002153	NaN	0.000000	0.001546	0.001728	28.0831	0.101458	0.001910	53.1207	-99.2812	-3.056621	0.056939	0.111042	-1.050175	-1.051517	-0.002153	53.1207	-1.050144	-1.072392E+14	2.007953E-17	NaN
489	1.000000	0.122407	7.36984e+06	-52639.1	1005.82	-29748.6	0.000000	0.000000	6.122725	0.069483	NaN	0.000000	0.001557	0.001726	28.0817	0.068465	0.002001	34.222	-131.395	173.56	0.060842	0.121115	-1.040151	-1.041444	0.069483	34.222	-1.041674	-8.250433E+13	-8.421684E-16	NaN
489	1.000000	0.132385	7.36984e+06	-52639.1	1005.82	-29748.6	0.000000	0.000000	6.132701	0.015819	NaN	0.000000	0.001523	0.001676	28.0819	0.124348	0.002024	61.4317	-4.862308	-2.402101	0.042098	0.131059	-1.030173	-1.031500	0.015819	61.4317	-1.030366	-5.813080E+13	-2.721338E-16	NaN
489	1.000000	0.142396	7.36984e+06	-52639.1	1005.82	-29748.6	0.000000	0.000000	6.142712	0.034682	NaN	0.000000	0.001599	0.001774	28.0816	0.134575	0.001921	70.0545	174.855	175.924	0.102628	0.141048	-1.020162	-1.021511	0.034682	70.0545	-1.020534	-4.286798E+13	-8.090474E-16	NaN
489	1.000000	0.152433	7.36984e+06	-52639.1	1005.82	-29748.6	0.000000	0.000000	6.152746	-0.051461	NaN	0.000000	0.001560	0.001752	28.082	0.020560	0.001841	11.1662	14.4	-3.981777	-0.027996	0.151105	-1.010125	-1.011454	-0.051461	11.1662	-1.006669	-2.789598E+13	1.844743E-15	NaN
489	1.000000	0.162407	7.36984e+06	-52639.1	1005.82	-29748.6	0.000000	0.000000	6.162723	0.019484	NaN	0.000000	0.001564	0.001748	28.0816	0.074305	0.001964	37.8318	167.006	174.238	0.001411	0.161067	-1.000151	-1.001491	0.019484	37.8318	-1.000537	-2.306769E+13	-8.446472E-16	NaN
489	1.000000	0.172410	7.36984e+06	-52639.1	1005.82	-29748.6	0.000000	0.000000	6.172723	-0.043219	NaN	0.000000	0.001551	0.001732	28.0822	0.151272	0.002046	73.9289	-33.2174	-7.416660	0.079366	0.171081	-0.990148	-0.991477	-0.043219	73.9289	-0.989710	-1.648934E+13	2.621049E-15	NaN
489	1.000000	0.182386	7.36984e+06	-52639.1	1005.82	-29748.6	0.000000	0.000000	6.182699	-0.029980	NaN	0.000000	0.001601	0.001726	28.0832	0.055279	0.002180	25.3615	126.488	174.382	0.087183	0.181126	-0.980172	-0.981432	-0.029980	25.3615	-0.979286	-1.193411E+13	2.512107E-15	NaN
489	1.000000	0.192423	7.36984e+06	-52639.1	1005.82	-29748.6	0.000000	0.000000	6.192737	-0.022403	NaN	0.000000	0.001570	0.001733	28.0831	0.054177	0.001989	27.2353	-35.9566	-3.140664	-0.011588	0.191056	-0.970135	-0.971503	-0.022403	27.2353	-0.969518	-8.813859E+12	2.541772E-15	NaN
489	1.000000	0.202445	7.36984e+06	-52639.1	1005.82	-29748.6	0.000000	0.000000	6.202760	0.023633	NaN	0.000000	0.001566	0.001741	28.083	0.097589	0.002085	46.8111	168.045	172.869	0.049401	0.201129	-0.960114	-0.961429	0.023633	46.8111	-0.960492	-6.660513E+12	-3.548288E-15	NaN
489	1.000000	0.212428	7.36984e+06	-52639.1	1005.82	-29748.6	0.000000	0.000000	6.212741	-0.036550	NaN	0.000000	0.001581	0.001719	28.083	0.047862	0.001971	24.2774	-116.914	-3.086640	-0.041651	0.211082	-0.950130	-0.951476	-0.036550	24.2774	-0.949001	-4.661848E+12	7.840148E-15	NaN
489	1.000000	0.222414	7.36984e+06	-52639.1	1005.82	-29748.6	0.000000	0.000000	6.222728	-0.019545	NaN	0.000000	0.001594	0.001698	28.083	0.063105	0.001979	31.8945	177.092	176.139	0.050382	0.221077	-0.940144	-0.941481	-0.019545	31.8945	-0.939685	-3.490453E+12	5.599660E-15	NaN
489	1.000000	0.232436	7.36984e+06	-52639.1	1005.82	-29748.6	0.000000	0.000000	6.232750	-0.002438	NaN	0.000000	0.001569	0.001686	28.0829	0.060527	0.001952	31.0073	151.283	-7.908121	-0.010487	0.231065	-0.930123	-0.931493	-0.002438	31.0073	-0.930064	-2.588545E+12	9.417095E-16	NaN
489	1.000000	0.242430	7.36984e+06	-52639.1	1005.82	-29748.6	0.000000	0.000000	6.242743	-0.054776	NaN	0.000000	0.001576	0.001715	28.0828	0.015127	0.002014	7.512685	138.794	177.67	-0.018826	0.241075	-0.920128	-0.921483	-0.054776	7.512685	-0.914660	-1.603603E+12	3.415815E-14	NaN
489	1.000000	0.252472	7.36984e+06	-52639.1	1005.82	-29748.6	0.000000	0.000000	6.252786	-0.029001	NaN	0.000000	0.001593	0.001742	28.083	0.012046	0.001961	6.143412	-18.381	-5.769442	-0.115681	0.251119	-0.910086	-0.911439	-0.029001	6.143412	-0.906546	-1.245950E+12	2.327591E-14	NaN
489	1.000000	0.262490	7.36984e+06	-52639.1	1005.82	-29748.6	0.000000	0.000000	6.262807	0.033308	NaN	0.000000	0.001594	0.001704	28.0829	0.048630	0.002018	24.1034	111.014	176.891	0.097642	0.261144	-0.900068	-0.901414	0.033308	24.1034	-0.901104	-1.051931E+12	-3.166395E-14	NaN
489	1.000000	0.272447	7.36984e+06	-52639.1	1005.82	-29748.6	0.000000	0.000000	6.272763	0.027374	NaN	0.000000	0.001623	0.001684	28.083	0.028440	0.002048	13.8846	160.515	0.094947	-0.019084	0.271038	-0.890111	-0.891521	0.027374	13.8846	-0.891590	-7.823603E+11	-3.498936E-14	NaN
489	1.000000	0.282453	7.36984e+06	-52639.1	1005.82	-29748.6	0.000000	0.000000	6.282770	0.036304	NaN	0.000000	0.001604	0.001682	28.0828	0.014798	0.002002	7.391621	-0.091440	171.882	0.106786	0.281151	-0.880105	-0.881408	0.036304	7.391621	-0.883789	-6.136745E+11	-5.915766E-14	NaN
489	1.000000	0.292454	7.36984e+06	-52639.1	1005.82	-29748.6	0.000000	0.000000	6.292771	0.045304	NaN	0.000000	0.001603	0.001653	28.0832	0.060023	0.002102	28.562	-128.329	-1.596283	0.001290	0.291090	-0.870104	-0.871468	0.045304	28.562	-0.871294	-4.158589E+11	-1.089397E-13	NaN
489	1.000000	0.302487	7.36984e+06	-52639.1	1005.82	-29748.6	0.000000	0.000000	6.302802	0.024288	NaN	0.000000	0.001596	0.001681	28.0826	0.043323	0.001949	22.2274	-159.128	173.202	0.049771	0.301171	-0.860072	-0.861387	0.024288	22.2274	-0.860891	-3.007343E+11	-8.076111E-14	NaN
489	1.000000	0.312516	7.36984e+06	-52639.1	1005.82	-29748.6	0.000000	0.000000	6.312833	0.058678	NaN	0.000000	0.001564	0.001672	28.0822	0.084581	0.001885	44.8726	-78.8593	-4.159690	0.068100	0.311130	-0.850042	-0.851428	0.058678	44.8726	-0.851023	-2.210996E+11	-2.653933E-13	NaN
489	1.000000	0.322461	7.36984e+06	-52639.1	1005.82	-29748.6	0.000000	0.000000	6.322777	0.035210	NaN	0.000000	0.001576	0.001690	28.0815	0.047334	0.002081	22.7507	43.5664	176.684	-0.061150	0.321173	-0.840097	-0.841386	0.035210	22.7507	-0.841258	-1.630555E+11	-2.159415E-13	NaN
489	1.000000	0.332470	7.36984e+06	-52639.1	1005.82	-29748.6	0.000000	0.000000	6.332784	-0.017429	NaN	0.000000	0.001620	0.001724	28.0816	0.152592	0.001952	78.1644	89.7599	-3.183400	0.022740	0.331149	-0.830088	-0.831409	-0.017429	78.1644	-0.829921	-1.144756E+11	1.522520E-13	NaN
489	1.000000	0.342462	7.36984e+06	-52639.1	1005.82	-29748.6	0.000000	0.000000	6.342779	0.055449	NaN	0.000000	0.001606	0.001724	28.0813	0.121272	0.001888	64.2318	9.833115	179.036	0.001950	0.341220	-0.820096	-0.821338	0.055449	64.2318	-0.820744	-8.595952E+10	-6.450551E-13	NaN
489	1.000000	0.352510	7.36984e+06	-52639.1	1005.82	-29748.6	0.000000	0.000000	6.352825	0.017311	NaN	0.000000	0.001564	0.001677	28.0814	0.035690	0.001818	19.6332	-88.8306	-2.052405	-0.081470	0.351167	-0.810048	-0.811391	0.017311	19.6332	-0.810710	-6.283485E+10	-2.754978E-13	NaN
489	1.000000	0.362473	7.36984e+06	-52639.1	1005.82	-29748.6	0.000000	0.000000	6.362791	0.067850	NaN	0.000000	0.001532	0.001674	28.0815	0.047412	0.002053	23.0948	115.322	176.233	0.016781	0.361160	-0.800085	-0.801398	0.067850	23.0948	-0.802289	-4.829772E+10	-1.404838E-12	NaN
489	1.000000	0.372509	7.36984e+06	-52639.1	1005.82	-29748.6	0.000000	0.000000	6.372827	0.086985	NaN	0.000000	0.001550	0.001667	28.0814	0.076305	0.002093	36.455	61.412	-4.242380	0.026584	0.371147	-0.790049	-0.791412	0.086985	36.455	-0.791839	-3.483819E+10	-2.496837E-12	NaN
489	1.000000	0.382523	7.36984e+06	-52639.1	1005.82	-29748.6	0.000000	0.000000	6.382838	0.000415	NaN	0.000000	0.001512	0.001669	28.0813	0.069138	0.002031	34.0406	-112.684	174.485	0.022640	0.381182	-0.780035	-0.781376	0.000415	34.0406	-0.780044	-2.408982E+10	-1.722640E-14	NaN
489	1.000000	0.392463	7.36984e+06	-52639.1	1005.82	-29748.6	0.000000	0.000000	6.392777	-0.008880	NaN	0.000000	0.001538	0.001683	28.0814	0.113980	0.002033	56.0526	-165.982	-6.979000	0.039220	0.391155	-0.770095	-0.771404	-0.008880	56.0526	-0.769977	-1.757871E+10	5.051431E-13	NaN
489	1.000000	0.402532	7.36984e+06	-52639.1	1005.82	-29748.6	0.000000	0.000000	6.402844	-0.078943	NaN	0.000000	0.001535	0.001695	28.0817	0.091300	0.002000	45.6443	102.321	178.318	-0.142598	0.401198	-0.760026	-0.761360	-0.078943	45.6443	-0.758729	-1.235969E+10	6.387115E-12	NaN
489	1.000000	0.412509	7.36984e+06	-52639.1	1005.82	-29748.6	0.000000	0.000000	6.412823	-0.032559	NaN	0.000000	0.001516	0.001723	28.0813	0.018682	0.002042	9.150034	66.9244	-1.604817	-0.073564	0.411177	-0.750049	-0.751381	-0.032559	9.150034	-0.747380	-8.660753E+9	3.759352E-12	NaN
489	1.000000	0.422523	7.36984e+06	-52639.1	1005.82	-29748.6	0.000000	0.000000	6.422836	-0.046374	NaN	0.000000	0.001578	0.001751	28.0815	0.101282	0.002049	49.4331	14.0895	176.349	0.000207	0.421230	-0.740035	-0.741328	-0.046374	49.4331	-0.739331	-6.728969E+9	6.891648E-12	NaN
489	1.000000	0.432526	7.36984e+06	-52639.1	1005.82	-29748.6	0.000000	0.000000	6.432840	-0.018125	NaN	0.000000	0.001574	0.001711	28.0814	0.040430	0.001960	20.6274	-39.4435	-4.931771	-0.057166	0.431185	-0.730032	-0.731373	-0.018125	20.6274	-0.729373	-4.923370E+9	3.681441E-12	NaN
489	1.000000	0.442542	7.36984e+06	-52639.1	1005.82	-29748.6	0.000000	0.000000	6.442856	-0.010671	NaN	0.000000	0.001561	0.001721	28.0815	0.137801	0.001961	70.2698	47.3108	173.582	0.005721	0.441240	-0.720016	-0.721318	-0.010671	70.2698	-0.719902	-3.657127E+9	2.917772E-12	NaN
489	1.000000	0.452519	7.36984e+06	-52639.1	1005.82	-29748.6	0.000000	0.000000	6.452835	0.037834	NaN	0.000000	0.001595	0.001692	28.0825	0.075620	0.001981	38.1745	77.8756	-1.245287	0.006749	0.451133	-0.710039	-0.711425	0.037834	38.1745	-0.710782	-2.746164E+9	-1.377693E-11	NaN
489	1.000000	0.462514	7.36984e+06	-52639.1	1005.82	-29748.6	0.000000	0.000000	6.462828	-0.021343	NaN	0.000000	0.001566	0.001723	28.0824	0.072768	0.001967	36.9927	149.862	175.868	0.015139	0.461252	-0.700044	-0.701306	-0.021343	36.9927	-0.699611	-1.932959E+9	1.104148E-11	NaN
489	1.000000	0.472537	7.36984e+06	-52639.1	1005.82	-29748.6	0.000000	0.000000	6.472852	0.010752	NaN	0.000000	0.001590	0.001735	28.0826	0.049691	0.002034	24.4258	-175.139	-2.718053	-0.026479	0.471241	-0.690021	-0.691317	0.010752	24.4258	-0.690351	-1.444494E+9	-7.443666E-12	NaN
489	1.000000	0.482563	7.36984e+06	-52639.1	1005.82	-29748.6	0.000000	0.000000	6.482877	-0.014309	NaN	0.000000	0.001581	0.001688	28.0824	0.064531	0.002010	32.105	173.567	178.827	-0.015902	0.481220	-0.679995	-0.681339	-0.014309	32.105	-0.679661	-1.031733E+9	1.386869E-11	NaN
489	1.000000	0.492522	7.36984e+06	-52639.1	1005.82	-29748.6	0.000000	0.000000	6.492835	-0.030105	NaN	0.000000	0.001600	0.001722	28.0824	0.071478	0.001873	38.1597	-103.056	-6.006918	-0.048080	0.491193	-0.670037	-0.671365	-0.030105	38.1597	-0.669445	-7.478137E+8	4.025669E-11	NaN
489	1.000000	0.502552	7.36984e+06	-52639.1	1005.82	-29748.6	0.000000	0.000000	6.502867	0.001457	NaN	0.000000	0.001600	0.001710	28.0825	0.033508	0.002002	16.7353	-146.027	175.235	0.003522	0.501219	-0.660006	-0.661339	0.001457	16.7353	-0.660072	-5.564820E+8	-2.618525E-12	NaN
489	1.000000	0.512529	7.36984e+06	-52639.1	1005.82	-29748.6	0.000000	0.000000	6.512845	0.015658	NaN	0.000000	0.001537	0.001692	28.0825	0.063680	0.001998	31.8743	65.0723	-1.821041	-0.012028	0.511186	-0.650029	-0.651372	0.015658	31.8743	-0.650398	-4.100963E+8	-3.818053E-11	NaN
489	1.000000	0.522583	7.36984e+06	-52639.1	1005.82	-29748.6	0.000000	0.000000	6.522897	-0.032441	NaN	0.000000	0.001571	0.001699	28.0824	0.064696	0.001921	33.6731	19.5822	173.895	0.042041	0.521247	-0.639975	-0.641311	-0.032441	33.6731	-0.639252	-2.884251E+8	1.124752E-10	NaN
489	1.000000	0.532562	7.36984e+06	-52639.1	1005.82	-29748.6	0.000000	0.000000	6.532878	0.030461	NaN	0.000000	0.001620	0.001712	28.0825	0.008928	0.001899	4.702149	-24.7302	-6.543284	0.046472	0.531211	-0.629996	-0.631347	0.030461	4.702149	-0.634855	-2.510022E+8	-1.213576E-10	NaN
489	1.000000	0.542576	7.36984e+06	-52639.1	1005.82	-29748.6	0.000000	0.000000	6.542891	0.016709	NaN	0.000000	0.001586	0.001704	28.0828	0.131999	0.001909	69.1561	71.7606	176.393	0.022010	0.541258	-0.619982	-0.621300	0.016709	69.1561	-0.620164	-1.577186E+8	-1.059418E-10	NaN
489	1.000000	0.552579	7.36984e+06	-52639.1	1005.82	-29748.6	0.000000	0.000000	6.552896	0.059255	NaN	0.000000	0.001518	0.001705	28.0826	0.106538	0.002092	50.9259	49.0072	-2.340611	-0.008585	0.551209	-0.609979	-0.611349	0.059255	50.9259	-0.610852	-1.174456E+8	-5.045343E-10	NaN
489	1.000000	0.562565	7.36984e+06	-52639.1	1005.82	-29748.6	0.000000	0.000000	6.562881	0.037231	NaN	0.000000	0.001562	0.001726	28.0827	0.065247	0.001933	33.7579	-150.937	174.867	-0.008909	0.561253	-0.599993	-0.601305	0.037231	33.7579	-0.600820	-8.545860E+7	-4.356630E-10	NaN
489	1.000000	0.572573	7.36984e+06	-52639.1	1005.82	-29748.6	0.000000	0.000000	6.572889	0.028782	NaN	0.000000	0.001525	0.001744	28.0824	0.003579	0.001972	1.815309	-136.865	-4.161815	0.050931	0.571174	-0.589985	-0.591384	0.028782	1.815309	-0.601877	-8.836995E+7	-3.257003E-10	NaN
489	1.000000	0.582587	7.36984e+06	-52639.1	1005.82	-29748.6	0.000000	0.000000	6.582903	0.049152	NaN	0.000000	0.001585	0.001729	28.0828	0.074652	0.001984	37.6285	-158.076	174.901	0.059777	0.581248	-0.579972	-0.581310	0.049152	37.6285	-0.580951	-4.548377E+7	-1.080639E-9	NaN
489	1.000000	0.592593	7.36984e+06	-52639.1	1005.82	-29748.6	0.000000	0.000000	6.592911	0.068977	NaN	0.000000	0.001548	0.001732	28.0811	0.057368	0.002072	27.6898	-111.773	-3.888211	0.028127	0.591236	-0.569965	-0.571323	0.068977	27.6898	-0.571833	-3.403766E+7	-2.026488E-9	NaN
489	1.000000	0.602628	7.36984e+06	-52639.1	1005.82	-29748.6	0.000000	0.000000	6.602943	0.004551	NaN	0.000000	0.001524	0.001673	28.0813	0.043866	0.001948	22.5149	9.976042	177.094	-0.018516	0.601265	-0.559931	-0.561293	0.004551	22.5149	-0.560082	-2.341616E+7	-1.943652E-10	NaN
489	1.000000	0.612622	7.36984e+06	-52639.1	1005.82	-29748.6	0.000000	0.000000	6.612937	-0.004340	NaN	0.000000	0.001523	0.001660	28.0814	0.049633	0.001961	25.3066	-100.557	-2.224227	0.053205	0.611267	-0.549936	-0.551292	-0.004340	25.3066	-0.549807	-1.687669E+7	2.571623E-10	NaN
489	1.000000	0.622579	7.36984e+06	-52639.1	1005.82	-29748.6	0.000000	0.000000	6.622891	-0.053291	NaN	0.000000	0.001545	0.001694	28.0814	0.077015	0.001950	39.4922	166.446	176.677	-0.124873	0.621320	-0.539980	-0.541238	-0.053291	39.4922	-0.538968	-1.194094E+7	4.462905E-9	NaN
489	1.000000	0.632630	7.36984e+06	-52639.1	1005.82	-29748.6	0.000000	0.000000	6.632948	0.089733	NaN	0.000000	0.001523	0.001710	28.0814	0.023109	0.001962	11.7814	-11.2985	-4.561611	0.041619	0.631208	-0.529929	-0.531351	0.089733	11.7814	-0.535641	-1.073706E+7	-8.357339E-9	NaN
489	1.000000	0.642620	7.36984e+06	-52639.1	1005.82	-29748.6	0.000000	0.000000	6.642934	-0.008026	NaN	0.000000	0.001552	0.001669	28.0811	0.096383	0.002052	46.9689	129.069	175.786	0.032964	0.641321	-0.519938	-0.521238	-0.008026	46.9689	-0.519810	-6.47076e+06	1.240299E-9	NaN
489	1.000000	0.652624	7.36984e+06	-52639.1	1005.82	-29748.6	0.000000	0.000000	6.652940	0.026565	NaN	0.000000	0.001616	0.001696	28.0816	0.022459	0.002034	11.0425	-50.8707	-2.460762	0.000682	0.651283	-0.509934	-0.511276	0.026565	11.0425	-0.511738	-4.996e+06	-5.317330E-9	NaN
489	1.000000	0.662663	7.36984e+06	-52639.1	1005.82	-29748.6	0.000000	0.000000	6.662979	0.028417	NaN	0.000000	0.001569	0.001723	28.0813	0.053786	0.002066	26.0283	133.54	176.248	0.088665	0.661320	-0.499895	-0.501239	0.028417	26.0283	-0.500714	-3.50733e+06	-8.102175E-9	NaN
489	1.000000	0.672625	7.36984e+06	-52639.1	1005.82	-29748.6	0.000000	0.000000	6.672941	0.022861	NaN	0.000000	0.001585	0.001741	28.0814	0.074907	0.002091	35.8157	-53.6157	-6.110955	-0.011806	0.671279	-0.489933	-0.491280	0.022861	35.8157	-0.490412	-2.51855e+06	-9.076858E-9	NaN
489	1.000000	0.682609	7.36984e+06	-52639.1	1005.82	-29748.6	0.000000	0.000000	6.682924	-0.008451	NaN	0.000000	0.001599	0.001676	28.0813	0.041527	0.001971	21.0681	56.8175	174.118	0.044482	0.681296	-0.479949	-0.481262	-0.008451	21.0681	-0.479648	-1.78075e+06	4.745776E-9	NaN
489	1.000000	0.692677	7.36984e+06	-52639.1	1005.82	-29748.6	0.000000	0.000000	6.692993	0.020783	NaN	0.000000	0.001558	0.001709	28.0817	0.044272	0.002003	22.0986	-18.6266	-4.837736	0.088251	0.691251	-0.469881	-0.471307	0.020783	22.0986	-0.470586	-1.32933e+06	-1.563394E-8	NaN
489	1.000000	0.702638	7.36984e+06	-52639.1	1005.82	-29748.6	0.000000	0.000000	6.702955	0.037427	NaN	0.000000	0.001568	0.001704	28.0813	0.045239	0.001948	23.2281	136.292	169.932	-0.003078	0.701323	-0.459920	-0.461235	0.037427	23.2281	-0.461128	-979200	-3.822220E-8	NaN
489	1.000000	0.712665	7.36984e+06	-52639.1	1005.82	-29748.6	0.000000	0.000000	6.712981	0.042130	NaN	0.000000	0.001601	0.001672	28.0813	0.077107	0.001937	39.8095	-41.5137	-2.964118	0.001251	0.711257	-0.449894	-0.451301	0.042130	39.8095	-0.450687	-698268	-6.033533E-8	NaN
489	1.000000	0.722638	7.36984e+06	-52639.1	1005.82	-29748.6	0.000000	0.000000	6.722955	0.046194	NaN	0.000000	0.001579	0.001679	28.0824	0.018671	0.001995	9.359835	149.812	176.189	0.087166	0.721307	-0.439920	-0.441251	0.046194	9.359835	-0.443621	-555207	-8.320218E-8	NaN
489	1.000000	0.732675	7.36984e+06	-52639.1	1005.82	-29748.6	0.000000	0.000000	6.732995	0.123606	NaN	0.000000	0.001633	0.001689	28.0825	0.119622	0.001953	61.259	146.36	-9.038343	0.098402	0.731287	-0.429883	-0.431272	0.123606	61.259	-0.431397	-373092	-3.313012E-7	NaN
489	1.000000	0.742655	7.36984e+06	-52639.1	1005.82	-29748.6	0.000000	0.000000	6.742972	0.042986	NaN	0.000000	0.001578	0.001693	28.0826	0.036246	0.001974	18.3574	59.2972	172.53	0.041281	0.741341	-0.419903	-0.421217	0.042986	18.3574	-0.421659	-271607	-1.582655E-7	NaN
489	1.000000	0.752677	7.36984e+06	-52639.1	1005.82	-29748.6	0.000000	0.000000	6.752993	0.031865	NaN	0.000000	0.001587	0.001730	28.0828	0.117110	0.002075	56.4389	118.212	-4.721222	0.050079	0.751257	-0.409881	-0.411302	0.031865	56.4389	-0.410305	-187384	-1.700512E-7	NaN
489	1.000000	0.762648	7.36984e+06	-52639.1	1005.82	-29748.6	0.000000	0.000000	6.762964	0.035269	NaN	0.000000	0.001551	0.001667	28.0826	0.094135	0.002062	45.6621	104.951	176.979	0.012727	0.761333	-0.399910	-0.401226	0.035269	45.6621	-0.400489	-135822	-2.596671E-7	NaN
489	1.000000	0.772666	7.36984e+06	-52639.1	1005.82	-29748.6	0.000000	0.000000	6.772978	-0.071091	NaN	0.000000	0.001555	0.001697	28.0825	0.068407	0.002198	31.129	57.038	-3.948827	-0.108451	0.771340	-0.389892	-0.391218	-0.071091	31.129	-0.388179	-90597.6	7.846915E-7	NaN
489	1.000000	0.782652	7.36984e+06	-52639.1	1005.82	-29748.6	0.000000	0.000000	6.782967	0.002782	NaN	0.000000	0.001598	0.001696	28.0823	0.135097	0.002046	66.0189	-165.907	174.386	0.039336	0.781341	-0.379907	-0.381217	0.002782	66.0189	-0.379938	-69024.1	-4.030195E-8	NaN
489	1.000000	0.792693	7.36984e+06	-52639.1	1005.82	-29748.6	0.000000	0.000000	6.793007	-0.021781	NaN	0.000000	0.001609	0.001718	28.0827	0.033092	0.001967	16.8226	-105.679	-1.268543	-0.003759	0.791343	-0.369865	-0.371216	-0.021781	16.8226	-0.368894	-47884.6	4.548659E-7	NaN
489	1.000000	0.802682	7.36984e+06	-52639.1	1005.82	-29748.6	0.000000	0.000000	6.802997	0.011079	NaN	0.000000	0.001604	0.001695	28.0824	0.065296	0.001954	33.4245	55.6234	174.805	-0.007228	0.801393	-0.359876	-0.361166	0.011079	33.4245	-0.360125	-35780.8	-3.096241E-7	NaN
489	1.000000	0.812689	7.36984e+06	-52639.1	1005.82	-29748.6	0.000000	0.000000	6.813004	0.001365	NaN	0.000000	0.001593	0.001694	28.0826	0.020978	0.002055	10.2092	13.2903	-2.172951	-0.022693	0.811297	-0.349869	-0.351261	0.001365	10.2092	-0.349969	-25501.1	-5.351550E-8	NaN
489	1.000000	0.822674	7.36984e+06	-52639.1	1005.82	-29748.6	0.000000	0.000000	6.822992	0.089113	NaN	0.000000	0.001612	0.001699	28.0825	0.029241	0.002049	14.2722	-83.8908	174.942	-0.001625	0.821353	-0.339884	-0.341205	0.089113	14.2722	-0.344567	-21284.4	-4.186778E-6	NaN
489	1.000000	0.832692	7.36984e+06	-52639.1	1005.82	-29748.6	0.000000	0.000000	6.833012	0.128542	NaN	0.000000	0.001627	0.001703	28.0828	0.101054	0.002096	48.2162	108.492	-4.165580	0.123414	0.831349	-0.329866	-0.331210	0.128542	48.2162	-0.331865	-13891.7	-9.253169E-6	NaN
489	1.000000	0.842689	7.36984e+06	-52639.1	1005.82	-29748.6	0.000000	0.000000	6.843004	0.010478	NaN	0.000000	0.001637	0.001708	28.0824	0.095917	0.001950	49.1953	-35.7317	177.504	-0.025099	0.841353	-0.319869	-0.321205	0.010478	49.1953	-0.320029	-9312.54	-1.125110E-6	NaN
489	1.000000	0.852705	7.36984e+06	-52639.1	1005.82	-29748.6	0.000000	0.000000	6.853021	0.037634	NaN	0.000000	0.001612	0.001706	28.0826	0.064509	0.001933	33.3639	74.8565	-4.806186	-0.007398	0.851348	-0.309853	-0.311210	0.037634	33.3639	-0.310699	-6782.69	-5.548594E-6	NaN
489	1.000000	0.862703	7.36984e+06	-52639.1	1005.82	-29748.6	0.000000	0.000000	6.863018	0.006285	NaN	0.000000	0.001626	0.001700	28.0814	0.129227	0.001996	64.7357	-136.829	176.929	0.001321	0.861373	-0.299856	-0.301186	0.006285	64.7357	-0.299928	-4694.29	-1.338860E-6	NaN
489	1.000000	0.872700	7.36984e+06	-52639.1	1005.82	-29748.6	0.000000	0.000000	6.873014	-0.002714	NaN	0.000000	0.001610	0.001723	28.0813	0.104834	0.001955	53.6234	55.6663	-5.889394	-0.038528	0.871373	-0.289858	-0.291185	-0.002714	53.6234	-0.289820	-3315.98	8.185483E-7	NaN
489	1.000000	0.882715	7.36984e+06	-52639.1	1005.82	-29748.6	0.000000	0.000000	6.883032	0.049813	NaN	0.000000	0.001637	0.001770	28.0814	0.056072	0.002050	27.3574	-118.974	173.881	0.037676	0.881343	-0.279843	-0.281215	0.049813	27.3574	-0.281209	-2461.49	-2.023680E-5	NaN
489	1.000000	0.892707	7.36984e+06	-52639.1	1005.82	-29748.6	0.000000	0.000000	6.893020	-0.048363	NaN	0.000000	0.001638	0.001712	28.0814	0.028863	0.001941	14.8739	-96.9733	0.414276	-0.009048	0.891348	-0.269851	-0.271210	-0.048363	14.8739	-0.267413	-1521.16	3.179320E-5	NaN
489	1.000000	0.902724	7.36984e+06	-52639.1	1005.82	-29748.6	0.000000	0.000000	6.903037	-0.021695	NaN	0.000000	0.001622	0.001791	28.0815	0.110134	0.002001	55.0514	50.6732	176.177	-0.016359	0.901403	-0.259835	-0.261156	-0.021695	55.0514	-0.259539	-1153.06	1.881531E-5	NaN
489	1.000000	0.912719	7.36984e+06	-52639.1	1005.82	-29748.6	0.000000	0.000000	6.913033	-0.010458	NaN	0.000000	0.001604	0.001816	28.0814	0.101695	0.002051	49.5918	121.294	-0.602194	-0.087188	0.911390	-0.249840	-0.251169	-0.010458	49.5918	-0.249681	-812.905	1.286506E-5	NaN
489	1.000000	0.922711	7.36984e+06	-52639.1	1005.82	-29748.6	0.000000	0.000000	6.923028	0.044630	NaN	0.000000	0.001601	0.001786	28.0819	0.123150	0.001927	63.9052	-17.5553	178.936	0.023159	0.921370	-0.239847	-0.241188	0.044630	63.9052	-0.240371	-582.56	-7.660978E-5	NaN
489	1.000000	0.932724	7.36984e+06	-52639.1	1005.82	-29748.6	0.000000	0.000000	6.933037	-0.022777	NaN	0.000000	0.001671	0.001818	28.0814	0.027538	0.001975	13.945	-92.0925	-1.811125	0.038938	0.931401	-0.229835	-0.231157	-0.022777	13.945	-0.228610	-380.665	5.983604E-5	NaN
489	1.000000	0.942726	7.36984e+06	-52639.1	1005.82	-29748.6	0.000000	0.000000	6.943039	-0.039264	NaN	0.000000	0.001703	0.001813	28.0814	0.085921	0.002081	41.2905	94.9132	174.775	-0.063557	0.941428	-0.219833	-0.221130	-0.039264	41.2905	-0.219119	-268.904	0.000146	NaN
489	1.000000	0.952744	7.36984e+06	-52639.1	1005.82	-29748.6	0.000000	0.000000	6.953057	-0.051181	NaN	0.000000	0.001663	0.001826	28.0814	0.034961	0.001930	18.116	-147.794	-7.939603	0.040378	0.951363	-0.209814	-0.211195	-0.051181	18.116	-0.207695	-175.967	0.000291	NaN
489	1.000000	0.962759	7.36984e+06	-52639.1	1005.82	-29748.6	0.000000	0.000000	6.963073	-0.019331	NaN	0.000000	0.001679	0.001803	28.0816	0.030749	0.001917	16.0441	54.6061	172.63	0.054436	0.961464	-0.199799	-0.201094	-0.019331	16.0441	-0.198895	-126.336	0.000153	NaN
489	1.000000	0.972776	7.36984e+06	-52639.1	1005.82	-29748.6	0.000000	0.000000	6.973093	0.053176	NaN	0.000000	0.001694	0.001808	28.0815	0.108455	0.002006	54.0718	-89.754	-4.019050	0.050982	0.971408	-0.189782	-0.191151	0.053176	54.0718	-0.190520	-91.7721	-0.000579	NaN
489	1.000000	0.982770	7.36984e+06	-52639.1	1005.82	-29748.6	0.000000	0.000000	6.983086	0.022957	NaN	0.000000	0.001696	0.001838	28.0813	0.012564	0.001934	6.496843	-28.2908	178.942	0.042623	0.981431	-0.179788	-0.181127	0.022957	6.496843	-0.182438	-67.1202	-0.000342	NaN
489	1.000000	0.992767	7.36984e+06	-52639.1	1005.82	-29748.6	0.000000	0.000000	6.993085	0.065181	NaN	0.000000	0.001665	0.001847	28.0815	0.054143	0.001896	28.5599	-165.563	-2.670836	0.028736	0.991431	-0.169791	-0.171128	0.065181	28.5599	-0.171503	-43.618	-0.001494	NaN
489	1.000000	1.002774	7.36984e+06	-52639.1	1005.82	-29748.6	0.000000	0.000000	7.003089	0.015899	NaN	0.000000	0.001642	0.001828	28.0829	0.169863	0.002060	82.4564	117.568	179.297	0.054635	1.001430	-0.159784	-0.161129	0.015899	82.4564	-0.159929	-27.3354	-0.000582	NaN
489	1.000000	1.012757	7.36984e+06	-52639.1	1005.82	-29748.6	0.000000	0.000000	7.013072	0.016014	NaN	0.000000	0.001655	0.001792	28.0828	0.033527	0.002118	15.8305	-49.707	-3.429561	-0.015863	1.011429	-0.149802	-0.151129	0.016014	15.8305	-0.150560	-18.5446	-0.000864	NaN
489	1.000000	1.022749	7.36984e+06	-52639.1	1005.82	-29748.6	0.000000	0.000000	7.023066	0.047368	NaN	0.000000	0.001566	0.001841	28.0827	0.004262	0.001972	2.161078	13.1021	174.293	-0.055046	1.021448	-0.139809	-0.141110	0.047368	2.161078	-0.156248	-23.4965	-0.002016	NaN
489	1.000000	1.032783	7.36984e+06	-52639.1	1005.82	-29748.6	0.000000	0.000000	7.033098	0.006703	NaN	0.000000	0.001576	0.001804	28.0827	0.072103	0.002023	35.634	135.671	-1.445599	-0.033035	1.031411	-0.129775	-0.131147	0.006703	35.634	-0.129916	-7.592459	-0.000883	NaN
489	1.000000	1.042777	7.36984e+06	-52639.1	1005.82	-29748.6	0.000000	0.000000	7.043090	-0.050791	NaN	0.000000	0.001574	0.001791	28.0829	0.080457	0.001876	42.8973	-26.8109	176.664	-0.104208	1.041480	-0.119781	-0.121078	-0.050791	42.8973	-0.118893	-4.588651	0.011069	NaN
489	1.000000	1.052805	7.36984e+06	-52639.1	1005.82	-29748.6	0.000000	0.000000	7.053122	0.046645	NaN	0.000000	0.001630	0.001792	28.0826	0.076490	0.001926	39.7164	-103.538	-0.115438	0.036729	1.051402	-0.109753	-0.111156	0.046645	39.7164	-0.110634	-3.098994	-0.015052	NaN
489	1.000000	1.062781	7.36984e+06	-52639.1	1005.82	-29748.6	0.000000	0.000000	7.063095	-0.017461	NaN	0.000000	0.001595	0.001775	28.0828	0.014002	0.002085	6.715593	-55.1978	173.753	0.022690	1.061469	-0.099778	-0.101089	-0.017461	6.715593	-0.097827	-1.634301	0.010684	NaN
489	1.000000	1.072773	7.36984e+06	-52639.1	1005.82	-29748.6	0.000000	0.000000	7.073089	0.037483	NaN	0.000000	0.001612	0.001792	28.0826	0.084830	0.002148	39.5002	37.8405	-6.805630	0.007890	1.071527	-0.089785	-0.091031	0.037483	39.5002	-0.090497	-1.110342	-0.033758	NaN
489	1.000000	1.082801	7.36984e+06	-52639.1	1005.82	-29748.6	0.000000	0.000000	7.083115	-0.005619	NaN	0.000000	0.001599	0.001770	28.0829	0.089233	0.001940	46.0025	-84.7745	171.973	0.029978	1.081453	-0.079757	-0.081105	-0.005619	46.0025	-0.079666	-0.607183	0.009254	NaN
489	1.000000	1.092804	7.36984e+06	-52639.1	1005.82	-29748.6	0.000000	0.000000	7.093117	-0.037196	NaN	0.000000	0.001599	0.001755	28.0827	0.087734	0.001920	45.7049	56.1484	-3.944611	-0.015836	1.091450	-0.069754	-0.071109	-0.037196	45.7049	-0.069144	-0.323505	0.114977	NaN
489	1.000000	1.102823	7.36984e+06	-52639.1	1005.82	-29748.6	0.000000	0.000000	7.103137	-0.025503	NaN	0.000000	0.001589	0.001807	28.0824	0.040807	0.002097	19.4554	138.128	176.806	0.014880	1.101477	-0.059735	-0.061081	-0.025503	19.4554	-0.058752	-0.165788	0.153830	NaN
489	1.000000	1.112821	7.36984e+06	-52639.1	1005.82	-29748.6	0.000000	0.000000	7.113135	-0.015793	NaN	0.000000	0.001580	0.001784	28.0829	0.050197	0.001981	25.3378	-137.851	-1.671553	0.039696	1.111468	-0.049737	-0.051091	-0.015793	25.3378	-0.049270	-0.086721	0.182116	NaN
489	1.000000	1.122809	7.36984e+06	-52639.1	1005.82	-29748.6	0.000000	0.000000	7.123123	-0.018296	NaN	0.000000	0.001583	0.001807	28.0828	0.113019	0.001970	57.3625	38.9731	176.746	0.027467	1.121496	-0.039749	-0.041062	-0.018296	57.3625	-0.039510	-0.043699	0.418684	NaN
489	1.000000	1.132783	7.36984e+06	-52639.1	1005.82	-29748.6	0.000000	0.000000	7.133099	0.020843	NaN	0.000000	0.001554	0.001751	28.0818	0.122410	0.002037	60.0932	139.63	-6.303405	-0.011206	1.131446	-0.029775	-0.031113	0.020843	60.0932	-0.030035	-0.023065	-0.903661	NaN
489	1.000000	1.142804	7.36984e+06	-52639.1	1005.82	-29748.6	0.000000	0.000000	7.143120	0.043620	NaN	0.000000	0.001580	0.001790	28.0816	0.114266	0.002011	56.8131	-129.303	174.686	-0.009648	1.141511	-0.019754	-0.021047	0.043620	56.8131	-0.020330	-0.012806	-3.406134	NaN
489	1.000000	1.152842	7.36984e+06	-52639.1	1005.82	-29748.6	0.000000	0.000000	7.153158	0.039082	NaN	0.000000	0.001577	0.001792	28.0817	0.059551	0.002012	29.5993	-135.001	-2.222170	-0.003214	1.151408	-0.009716	-0.011151	0.039082	29.5993	-0.010706	-0.006791	-5.755292	NaN
489	1.000000	1.162823	7.36984e+06	-52639.1	1005.82	-29748.6	0.000000	0.000000	7.163294	3.795367	NaN	0.000000	0.001579	0.001791	28.0815	4.908135	0.001937	2533.39	17.52	168.846	3.036643	1.161477	0.000265	-0.001081	3.795367	2533.39	-0.000858	-0.000631	-6014.09	NaN
489	2.000000	1.168040	7.36984e+06	-52639.1	1005.82	-29748.6	0.000000	0.000000	7.168759	9.828660	NaN	0.000000	0.001599	0.001783	28.0816	10.1102	0.001560	6480.9	5.727330	-10.9219	9.238372	1.167655	0.005482	0.005097	9.828660	6480.9	0.004345	0.003543	2773.89	99473.2
489	2.000000	1.170490	7.36984e+06	-52639.1	1005.82	-29748.6	0.000000	0.000000	7.171334	12.8563	NaN	0.000000	0.001592	0.001802	28.0818	12.9609	0.001813	7149.46	7.826905	166.613	12.5846	1.170217	0.007932	0.007659	12.8563	7149.46	0.006583	0.005625	2285.48	87091.6
489	2.000000	1.172947	7.36984e+06	-52639.1	1005.82	-29748.6	0.000000	0.000000	7.173974	17.3171	NaN	0.000000	0.001600	0.001779	28.0819	15.5842	0.001687	9239.43	2.275060	-10.6394	16.138	1.172640	0.010389	0.010082	17.3171	9239.43	0.008983	0.008073	2145.03	93950.3
489	2.000000	1.175450	7.36984e+06	-52639.1	1005.82	-29748.6	0.000000	0.000000	7.176639	21.2436	NaN	0.000000	0.001590	0.001788	28.0815	18.6859	0.001767	10574.2	6.971026	163.905	21.8651	1.175145	0.012892	0.012587	21.2436	10574.2	0.011385	0.010762	1973.9	93125.4
489	2.000000	1.177954	7.36984e+06	-52639.1	1005.82	-29748.6	0.000000	0.000000	7.179353	26.3742	NaN	0.000000	0.001620	0.001787	28.0819	20.6568	0.001777	11624.8	6.353638	-15.85	25.1447	1.177569	0.015395	0.015011	26.3742	11624.8	0.013694	0.013583	1941.74	91130.8
489	2.000000	1.180487	7.36984e+06	-52639.1	1005.82	-29748.6	0.000000	0.000000	7.182068	30.7911	NaN	0.000000	0.001576	0.001772	28.0818	23.2462	0.001837	12654.2	7.887291	162.766	32.6617	1.180130	0.017929	0.017572	30.7911	12654.2	0.016104	0.016785	1834.39	89236.2
489	2.000000	1.182917	7.36984e+06	-52639.1	1005.82	-29748.6	0.000000	0.000000	7.184821	38.6412	NaN	0.000000	0.001670	0.001755	28.0818	25.9952	0.001858	13993.1	7.739193	-19.0304	36.8957	1.182567	0.020358	0.020009	38.6412	13993.1	0.018287	0.019922	1939.62	90577.2
489	2.000000	1.185383	7.36984e+06	-52639.1	1005.82	-29748.6	0.000000	0.000000	7.187594	46.1069	NaN	0.000000	0.001656	0.001762	28.0815	28.0504	0.001756	15976.8	5.531723	161.106	44.2428	1.185081	0.022825	0.022523	46.1069	15976.8	0.020661	0.023591	1954.43	95036.5
489	2.000000	1.187967	7.36984e+06	-52639.1	1005.82	-29748.6	0.000000	0.000000	7.190390	51.263	NaN	0.000000	0.001676	0.001730	28.0823	30.2342	0.001769	17094	5.762632	-18.9164	50.0254	1.187586	0.025409	0.025028	51.263	17094	0.023160	0.027752	1847.16	93749.1
489	2.000000	1.190396	7.36984e+06	-52639.1	1005.82	-29748.6	0.000000	0.000000	7.193087	57.7878	NaN	0.000000	0.001671	0.001780	28.0815	31.7893	0.001656	19195.6	0.829570	164.7	56.0005	1.190079	0.027838	0.027521	57.7878	19195.6	0.025580	0.032079	1801.44	97919.1
489	2.000000	1.192880	7.36984e+06	-52639.1	1005.82	-29748.6	0.000000	0.000000	7.195890	65.5519	NaN	0.000000	0.001671	0.001782	28.0831	34.7136	0.001679	20675.5	4.998305	-20.5284	62.7848	1.192602	0.030321	0.030044	65.5519	20675.5	0.027944	0.036589	1791.56	98753.6
489	2.000000	1.195381	7.36984e+06	-52639.1	1005.82	-29748.6	0.000000	0.000000	7.198694	72.9084	NaN	0.000000	0.001660	0.001792	28.0828	37.775	0.001788	21127.3	2.789442	162.082	71.2874	1.195079	0.032822	0.032520	72.9084	21127.3	0.030234	0.041230	1768.32	95062.6
489	2.000000	1.197912	7.36984e+06	-52639.1	1005.82	-29748.6	0.000000	0.000000	7.201607	82.1764	NaN	0.000000	0.001668	0.001770	28.083	39.7406	0.001866	21298.4	5.955370	-19.4646	82.3471	1.197374	0.035354	0.034816	82.1764	21298.4	0.032460	0.045998	1786.53	90730.3
489	2.000000	1.200354	7.36984e+06	-52639.1	1005.82	-29748.6	0.000000	0.000000	7.204429	91.4328	NaN	0.000000	0.001615	0.001784	28.0827	41.4878	0.001701	24391.5	2.244009	160.962	88.0586	1.200049	0.037796	0.037491	91.4328	24391.5	0.034984	0.051710	1768.2	97999.9
489	2.000000	1.202908	7.36984e+06	-52639.1	1005.82	-29748.6	0.000000	0.000000	7.207372	100.895	NaN	0.000000	0.001582	0.001780	28.0834	44.2746	0.001773	24976.5	3.359323	-19.6188	99.908	1.202535	0.040350	0.039977	100.895	24976.5	0.037320	0.057285	1761.27	95341.7
489	2.000000	1.205340	7.36984e+06	-52639.1	1005.82	-29748.6	0.000000	0.000000	7.210047	106.786	NaN	0.000000	0.001637	0.001783	28.0856	46.9771	0.001742	26971.2	3.661521	158.537	103.251	1.205173	0.042782	0.042615	106.786	26971.2	0.039812	0.063545	1680.49	97753.9
489	2.000000	1.207923	7.36984e+06	-52639.1	1005.82	-29748.6	0.000000	0.000000	7.213287	122.754	NaN	0.000000	0.001625	0.001746	28.0844	49.0212	0.001932	25377	7.675970	-22.4421	122.353	1.207508	0.045365	0.044949	122.754	25377	0.041737	0.068595	1789.56	88525.4
489	2.000000	1.210351	7.36984e+06	-52639.1	1005.82	-29748.6	0.000000	0.000000	7.215947	128.392	NaN	0.000000	0.001605	0.001728	28.0835	51.1667	0.001972	25947.7	1.630233	161.545	125.393	1.210127	0.047793	0.047569	128.392	25947.7	0.044082	0.075003	1711.83	86563.1
489	2.000000	1.212862	7.36984e+06	-52639.1	1005.82	-29748.6	0.000000	0.000000	7.219135	144.86	NaN	0.000000	0.001610	0.001776	28.0841	54.0237	0.001788	30211.1	8.070548	-25.9109	143.087	1.212441	0.050304	0.049883	144.86	30211.1	0.046708	0.082509	1755.7	96092.5
489	2.000000	1.215353	7.36984e+06	-52639.1	1005.82	-29748.6	0.000000	0.000000	7.222098	156.349	NaN	0.000000	0.001616	0.001789	28.0828	56.3467	0.001774	31761.7	3.587827	157.797	154.56	1.214936	0.052795	0.052378	156.349	31761.7	0.049103	0.089661	1743.78	96911.4
489	2.000000	1.217846	7.36984e+06	-52639.1	1005.82	-29748.6	0.000000	0.000000	7.224941	164.85	NaN	0.000000	0.001632	0.001791	28.0831	58.4737	0.001875	31188.3	5.709634	-23.4851	163.056	1.217511	0.055288	0.054953	164.85	31188.3	0.051323	0.096548	1707.44	91705.3
489	2.000000	1.220366	7.36984e+06	-52639.1	1005.82	-29748.6	0.000000	0.000000	7.227980	177.47	NaN	0.000000	0.001576	0.001792	28.0827	59.8163	0.001702	35142.4	2.796963	157.242	176.05	1.220125	0.057808	0.057567	177.47	35142.4	0.054020	0.105244	1686.28	98970.7
489	2.000000	1.222809	7.36984e+06	-52639.1	1005.82	-29748.6	0.000000	0.000000	7.231003	191.585	NaN	0.000000	0.001602	0.001832	28.0828	62.412	0.001685	37041.7	3.105185	-23.0564	187.767	1.222521	0.060250	0.059963	191.585	37041.7	0.056371	0.113119	1693.66	100623
489	2.000000	1.225427	7.36984e+06	-52639.1	1005.82	-29748.6	0.000000	0.000000	7.233311	184.064	NaN	0.000000	0.001582	0.001818	28.0826	66.1384	0.001790	36942	2.690636	156.516	183.598	1.225329	0.062868	0.062770	184.064	36942	0.059131	0.122712	1499.97	96349.8
489	2.000000	1.227868	7.36984e+06	-52639.1	1005.82	-29748.6	0.000000	0.000000	7.237043	215.426	NaN	0.000000	0.001587	0.001804	28.0815	67.6683	0.001810	37395.9	1.947854	-22.0807	212.088	1.227608	0.065310	0.065049	215.426	37395.9	0.060990	0.129381	1665.05	94986.4
489	2.000000	1.230330	7.36984e+06	-52639.1	1005.82	-29748.6	0.000000	0.000000	7.240197	232.26	NaN	0.000000	0.001603	0.001773	28.0817	70.6574	0.001802	39208.2	7.157411	153.229	229.978	1.229915	0.067772	0.067357	232.26	39208.2	0.063329	0.138015	1682.86	96424.4
489	2.000000	1.232841	7.36984e+06	-52639.1	1005.82	-29748.6	0.000000	0.000000	7.243213	244.542	NaN	0.000000	0.001606	0.001805	28.0817	73.4873	0.001734	42389.8	6.331202	-27.1478	241.986	1.232459	0.070282	0.069901	244.542	42389.8	0.065956	0.148027	1652.01	100662
489	2.000000	1.235355	7.36984e+06	-52639.1	1005.82	-29748.6	0.000000	0.000000	7.246184	255.641	NaN	0.000000	0.001639	0.001780	28.0816	76.8192	0.001863	41234.4	5.575928	153.638	254.887	1.235004	0.072797	0.072445	255.641	41234.4	0.068147	0.156632	1632.11	95190.4
489	2.000000	1.237778	7.36984e+06	-52639.1	1005.82	-29748.6	0.000000	0.000000	7.249473	276.716	NaN	0.000000	0.001635	0.001801	28.0815	78.3683	0.001824	42971	5.661853	-26.296	271.07	1.237479	0.075219	0.074920	276.716	42971	0.070390	0.165676	1670.22	96453.6
489	2.000000	1.240448	7.36984e+06	-52639.1	1005.82	-29748.6	0.000000	0.000000	7.252391	282.737	NaN	0.000000	0.001607	0.001777	28.0817	81.1863	0.001816	44707.7	5.509279	153.266	289.729	1.240000	0.077890	0.077442	282.737	44707.7	0.073147	0.177123	1596.27	97055
489	2.000000	1.242915	7.36984e+06	-52639.1	1005.82	-29748.6	0.000000	0.000000	7.255702	303.26	NaN	0.000000	0.001625	0.001807	28.0816	83.1956	0.001832	45417.5	4.349045	-25.5723	304.941	1.242586	0.080357	0.080027	303.26	45417.5	0.075349	0.186524	1625.85	96079.2
489	2.000000	1.245392	7.36984e+06	-52639.1	1005.82	-29748.6	0.000000	0.000000	7.258333	307.005	NaN	0.000000	0.001610	0.001767	28.0815	85.1522	0.001807	47116.5	1.687199	156.145	306.694	1.245243	0.082834	0.082685	307.005	47116.5	0.077947	0.197909	1551.25	96764
489	2.000000	1.247783	7.36984e+06	-52639.1	1005.82	-29748.6	0.000000	0.000000	7.262216	343.294	NaN	0.000000	0.001646	0.001756	28.0816	87.6208	0.001857	47182.3	6.066572	-27.7377	337.509	1.247373	0.085224	0.084815	343.294	47182.3	0.079767	0.206074	1665.88	94960.1
489	2.000000	1.250211	7.36984e+06	-52639.1	1005.82	-29748.6	0.000000	0.000000	7.265020	352.416	NaN	0.000000	0.001608	0.001782	28.0815	88.488	0.001863	47500.7	2.446919	155.613	344.732	1.249970	0.087652	0.087412	352.416	47500.7	0.082088	0.216707	1626.23	93226
489	2.000000	1.252810	7.36984e+06	-52639.1	1005.82	-29748.6	0.000000	0.000000	7.268481	373.377	NaN	0.000000	0.001609	0.001806	28.0816	92.0319	0.001684	54663.8	5.809202	-28.6009	370.05	1.252479	0.090252	0.089921	373.377	54663.8	0.085129	0.231017	1616.23	103909
489	2.000000	1.255203	7.36984e+06	-52639.1	1005.82	-29748.6	0.000000	0.000000	7.271465	387.744	NaN	0.000000	0.001627	0.001791	28.0815	95.6573	0.001873	51064.5	4.038292	153.725	380.83	1.254941	0.092645	0.092383	387.744	51064.5	0.086950	0.239790	1617.01	95274.4
489	2.000000	1.257729	7.36984e+06	-52639.1	1005.82	-29748.6	0.000000	0.000000	7.274917	410.273	NaN	0.000000	0.001590	0.001769	28.0818	96.4911	0.001786	54026.6	6.258639	-28.7962	401.039	1.257402	0.095170	0.094844	410.273	54026.6	0.089475	0.252211	1626.71	98287.6
489	2.000000	1.260265	7.36984e+06	-52639.1	1005.82	-29748.6	0.000000	0.000000	7.278332	431.621	NaN	0.000000	0.001558	0.001769	28.0824	98.401	0.001788	55045.4	5.154487	152.171	427.177	1.259940	0.097707	0.097382	431.621	55045.4	0.091826	0.264036	1634.7	97873
489	2.000000	1.262787	7.36984e+06	-52639.1	1005.82	-29748.6	0.000000	0.000000	7.281507	447.506	NaN	0.000000	0.001524	0.001777	28.0827	100.31	0.001771	56631.7	5.126151	-27.6539	444.718	1.262454	0.100229	0.099896	447.506	56631.7	0.094303	0.276768	1616.9	98350.1
489	2.000000	1.264820	7.36984e+06	-52639.1	1005.82	-29748.6	0.000000	0.000000	7.284146	462.232	NaN	0.000000	0.001542	0.001816	28.0828	102.547	0.001711	59920.8	4.877477	-27.9344	458.168	1.264422	0.102262	0.101864	462.232	59920.8	0.096476	0.288173	1604.01	101982