File: remote_trans/data/nanoindenter/0828-1/data/Data_2025-08-06,11h17m57s/2025-07-22_16-23-58_1_763.txt
2025-07-22, 16:23:58, 1
Index	Phase	Displacement	Time	Pos X	Pos Y	Pos Z	Rot A	Rot B	Piezo Z	Force A	Force B	Gripper	Voltage A	Voltage B	Temperature	Amplitude force	Amplitude pos	Stiffness	Phase shift	Phase excitation	Force A raw	Displacement raw	HMax	HMax raw	Real Force	Real Stiffness	Contact Depth	Area	Hardness	Reduced Mod.
[#]	[#]	[um]	[s]	[um]	[um]	[um]	[m°]	[m°]	[um]	[uN]	[uN]	[V]	[V]	[V]	[°C]	[uN]	[um]	[N/m]	[°]	[°]	[uN]	[um]	[um]	[um]	[uN]	[N/m]	[um]	[um^2]	[MPa]	[MPa]
763	1.000000	0.002137	7.37252e+06	-38939.1	1005.82	-29795.6	0.000000	0.000000	6.002810	0.041289	NaN	0.000000	0.001830	0.001806	28.0823	0.039821	0.000970	41.0418	80.3045	-166.888	0.015591	0.000845	-1.105658	-1.106950	0.041289	41.0418	-1.106413	-6.111461E+14	-6.755953E-17	NaN
763	1.000000	0.012196	7.37252e+06	-38939.1	1005.82	-29795.6	0.000000	0.000000	6.012867	-0.018289	NaN	0.000000	0.001790	0.001811	28.0825	0.074614	0.001176	63.4648	148.731	13.5236	0.009927	0.010755	-1.095599	-1.097040	-0.018289	63.4648	-1.095383	-4.345944E+14	4.208230E-17	NaN
763	1.000000	0.022108	7.37252e+06	-38939.1	1005.82	-29795.6	0.000000	0.000000	6.022780	0.022543	NaN	0.000000	0.001814	0.001787	28.0821	0.042423	0.001914	22.1596	158.768	-165.504	0.018402	0.020817	-1.085687	-1.086978	0.022543	22.1596	-1.086450	-3.297212E+14	-6.836862E-17	NaN
763	1.000000	0.032096	7.37252e+06	-38939.1	1005.82	-29795.6	0.000000	0.000000	6.032766	-0.035353	NaN	0.000000	0.001803	0.001764	28.0822	0.046417	0.001820	25.5097	77.5903	14.1215	0.035628	0.030699	-1.075699	-1.077096	-0.035353	25.5097	-1.074660	-2.289736E+14	1.543980E-16	NaN
763	1.000000	0.042099	7.37252e+06	-38939.1	1005.82	-29795.6	0.000000	0.000000	6.042772	0.037884	NaN	0.000000	0.001797	0.001691	28.0836	0.093254	0.001967	47.4105	72.0854	-167.665	0.031346	0.040728	-1.065696	-1.067066	0.037884	47.4105	-1.066296	-1.767743E+14	-2.143098E-16	NaN
763	1.000000	0.052060	7.37252e+06	-38939.1	1005.82	-29795.6	0.000000	0.000000	6.052732	0.024572	NaN	0.000000	0.001834	0.001740	28.0835	0.140562	0.002000	70.2927	-147.827	12.9788	0.079797	0.050732	-1.055735	-1.057063	0.024572	70.2927	-1.055997	-1.285366E+14	-1.911663E-16	NaN
763	1.000000	0.062090	7.37252e+06	-38939.1	1005.82	-29795.6	0.000000	0.000000	6.062761	-0.009091	NaN	0.000000	0.001820	0.001757	28.0835	0.055905	0.002015	27.7491	74.9368	-165.719	0.065573	0.060723	-1.045705	-1.047071	-0.009091	27.7491	-1.045459	-9.276174E+13	9.800820E-17	NaN
763	1.000000	0.072095	7.37252e+06	-38939.1	1005.82	-29795.6	0.000000	0.000000	6.072768	0.023806	NaN	0.000000	0.001834	0.001762	28.0835	0.071961	0.001991	36.1471	-110.238	12.8707	0.019459	0.070737	-1.035700	-1.037058	0.023806	36.1471	-1.036194	-6.962801E+13	-3.419016E-16	NaN
763	1.000000	0.082097	7.37252e+06	-38939.1	1005.82	-29795.6	0.000000	0.000000	6.082770	0.043993	NaN	0.000000	0.001807	0.001745	28.0838	0.045335	0.001989	22.7879	34.6883	-161.427	0.019858	0.080782	-1.025698	-1.027013	0.043993	22.7879	-1.027146	-5.261225E+13	-8.361806E-16	NaN
763	1.000000	0.092088	7.37252e+06	-38939.1	1005.82	-29795.6	0.000000	0.000000	6.092759	-0.009235	NaN	0.000000	0.001729	0.001752	28.0836	0.095854	0.002078	46.1378	158.772	12.9281	0.030974	0.090776	-1.015707	-1.017019	-0.009235	46.1378	-1.015557	-3.674245E+13	2.513564E-16	NaN
763	1.000000	0.102105	7.37252e+06	-38939.1	1005.82	-29795.6	0.000000	0.000000	6.102777	0.019651	NaN	0.000000	0.001741	0.001743	28.0838	0.111041	0.001842	60.2869	-69.3528	-166.117	0.018419	0.100780	-1.005690	-1.007015	0.019651	60.2869	-1.005934	-2.726838E+13	-7.206354E-16	NaN
763	1.000000	0.112087	7.37252e+06	-38939.1	1005.82	-29795.6	0.000000	0.000000	6.112758	-0.012899	NaN	0.000000	0.001755	0.001769	28.0839	0.069820	0.001996	34.9761	-76.4441	14.0123	-0.052680	0.110786	-0.995708	-0.997009	-0.012899	34.9761	-0.995431	-1.969026E+13	6.551044E-16	NaN
763	1.000000	0.122119	7.37252e+06	-38939.1	1005.82	-29795.6	0.000000	0.000000	6.122791	0.023880	NaN	0.000000	0.001725	0.001780	28.0838	0.013030	0.002023	6.441164	-110.079	-167.622	-0.094006	0.120789	-0.985676	-0.987006	0.023880	6.441164	-0.988457	-1.586077E+13	-1.505585E-15	NaN
763	1.000000	0.132098	7.37252e+06	-38939.1	1005.82	-29795.6	0.000000	0.000000	6.132769	0.001544	NaN	0.000000	0.001781	0.001745	28.0839	0.090824	0.001848	49.1524	-142.913	14.8282	-0.070216	0.130709	-0.975697	-0.977086	0.001544	49.1524	-0.975721	-1.068448E+13	-1.445420E-16	NaN
763	1.000000	0.142089	7.37252e+06	-38939.1	1005.82	-29795.6	0.000000	0.000000	6.142759	-0.037913	NaN	0.000000	0.001734	0.001731	28.0838	0.037146	0.001937	19.1758	-123.774	-169.173	-0.012924	0.140787	-0.965706	-0.967008	-0.037913	19.1758	-0.964223	-7.478290E+12	5.069794E-15	NaN
763	1.000000	0.152114	7.37252e+06	-38939.1	1005.82	-29795.6	0.000000	0.000000	6.152788	0.040804	NaN	0.000000	0.001767	0.001731	28.0838	0.046607	0.002001	23.2928	-41.623	16.2287	0.078239	0.150761	-0.955681	-0.957034	0.040804	23.2928	-0.956994	-5.975127E+12	-6.829041E-15	NaN
763	1.000000	0.162121	7.37252e+06	-38939.1	1005.82	-29795.6	0.000000	0.000000	6.162791	-0.016659	NaN	0.000000	0.001825	0.001726	28.0839	0.050195	0.002046	24.5317	-108.627	-166.496	-0.003257	0.160857	-0.945674	-0.946938	-0.016659	24.5317	-0.945165	-4.138230E+12	4.025694E-15	NaN
763	1.000000	0.172138	7.37252e+06	-38939.1	1005.82	-29795.6	0.000000	0.000000	6.172810	0.015646	NaN	0.000000	0.001815	0.001726	28.0836	0.123900	0.002012	61.5691	9.899879	13.6889	-0.024051	0.170733	-0.935657	-0.937062	0.015646	61.5691	-0.935848	-3.098226E+12	-5.049998E-15	NaN
763	1.000000	0.182138	7.37252e+06	-38939.1	1005.82	-29795.6	0.000000	0.000000	6.182811	0.022489	NaN	0.000000	0.001799	0.001738	28.0824	0.069860	0.002034	34.3427	-32.0744	-164.916	0.022007	0.180858	-0.925656	-0.926937	0.022489	34.3427	-0.926148	-2.291918E+12	-9.812320E-15	NaN
763	1.000000	0.192140	7.37252e+06	-38939.1	1005.82	-29795.6	0.000000	0.000000	6.192815	0.089451	NaN	0.000000	0.001746	0.001723	28.0825	0.087857	0.001911	45.9781	-71.5016	16.1814	0.084526	0.190789	-0.915655	-0.917006	0.089451	45.9781	-0.917114	-1.730757E+12	-5.168317E-14	NaN
763	1.000000	0.202136	7.37252e+06	-38939.1	1005.82	-29795.6	0.000000	0.000000	6.202807	-0.012135	NaN	0.000000	0.001719	0.001750	28.0823	0.111969	0.002032	55.0952	-162.348	-168.52	0.007073	0.200747	-0.905659	-0.907047	-0.012135	55.0952	-0.905494	-1.205838E+12	1.006326E-14	NaN
763	1.000000	0.212172	7.37252e+06	-38939.1	1005.82	-29795.6	0.000000	0.000000	6.212844	-0.005211	NaN	0.000000	0.001670	0.001799	28.0825	0.049315	0.001973	24.9937	-169.41	12.5755	0.023398	0.210766	-0.895623	-0.897029	-0.005211	24.9937	-0.895466	-8.826736E+11	5.903320E-15	NaN
763	1.000000	0.222132	7.37252e+06	-38939.1	1005.82	-29795.6	0.000000	0.000000	6.222803	-0.030281	NaN	0.000000	0.001741	0.001725	28.0825	0.036155	0.001910	18.9249	124.663	-163.935	-0.072399	0.220839	-0.885663	-0.886956	-0.030281	18.9249	-0.884463	-6.266907E+11	4.831879E-14	NaN
763	1.000000	0.232136	7.37252e+06	-38939.1	1005.82	-29795.6	0.000000	0.000000	6.232808	0.006000	NaN	0.000000	0.001682	0.001705	28.0828	0.079759	0.002101	37.9568	92.7415	12.9328	-0.000223	0.230741	-0.875659	-0.877054	0.006000	37.9568	-0.875777	-4.781876E+11	-1.254634E-14	NaN
763	1.000000	0.242165	7.37252e+06	-38939.1	1005.82	-29795.6	0.000000	0.000000	6.242837	0.003692	NaN	0.000000	0.001673	0.001777	28.0826	0.042629	0.001878	22.7006	169.921	-167.312	0.049092	0.240842	-0.865630	-0.866952	0.003692	22.7006	-0.865752	-3.499165E+11	-1.055193E-14	NaN
763	1.000000	0.252184	7.37252e+06	-38939.1	1005.82	-29795.6	0.000000	0.000000	6.252853	-0.051465	NaN	0.000000	0.001714	0.001768	28.0825	0.058985	0.001969	29.9584	74.6173	15.7947	-0.027746	0.250789	-0.855611	-0.857005	-0.051465	29.9584	-0.854323	-2.450578E+11	2.100106E-13	NaN
763	1.000000	0.262148	7.37252e+06	-38939.1	1005.82	-29795.6	0.000000	0.000000	6.262821	0.041147	NaN	0.000000	0.001821	0.001775	28.0826	0.088286	0.002049	43.0831	-125.265	-162.375	0.022655	0.260853	-0.845647	-0.846942	0.041147	43.0831	-0.846363	-1.911984E+11	-2.152083E-13	NaN
763	1.000000	0.272181	7.37252e+06	-38939.1	1005.82	-29795.6	0.000000	0.000000	6.272852	-0.033639	NaN	0.000000	0.001783	0.001706	28.0825	0.050956	0.001985	25.6644	-42.516	15.0636	-0.050241	0.270858	-0.835613	-0.836936	-0.033639	25.6644	-0.834630	-1.325983E+11	2.536942E-13	NaN
763	1.000000	0.282151	7.37252e+06	-38939.1	1005.82	-29795.6	0.000000	0.000000	6.282825	0.061516	NaN	0.000000	0.001767	0.001730	28.0824	0.075496	0.001949	38.7396	-135.646	-164.46	0.012108	0.280848	-0.825644	-0.826947	0.061516	38.7396	-0.826835	-1.039650E+11	-5.916977E-13	NaN
763	1.000000	0.292180	7.37252e+06	-38939.1	1005.82	-29795.6	0.000000	0.000000	6.292852	0.003587	NaN	0.000000	0.001775	0.001762	28.0826	0.023238	0.001910	12.1648	-1.054643	14.5294	0.001693	0.290800	-0.815615	-0.816995	0.003587	12.1648	-0.815836	-7.374552E+10	-4.864102E-14	NaN
763	1.000000	0.302182	7.37252e+06	-38939.1	1005.82	-29795.6	0.000000	0.000000	6.302853	-0.015022	NaN	0.000000	0.001720	0.001741	28.0826	0.084063	0.002002	41.9818	161.44	-163.713	0.009051	0.300889	-0.805613	-0.806906	-0.015022	41.9818	-0.805345	-5.313824E+10	2.826886E-13	NaN
763	1.000000	0.312178	7.37252e+06	-38939.1	1005.82	-29795.6	0.000000	0.000000	6.312849	-0.018245	NaN	0.000000	0.001697	0.001802	28.0838	0.012611	0.001932	6.528019	-118.886	16.6399	-0.011522	0.310808	-0.795617	-0.796987	-0.018245	6.528019	-0.793521	-3.671948E+10	4.968812E-13	NaN
763	1.000000	0.322183	7.37252e+06	-38939.1	1005.82	-29795.6	0.000000	0.000000	6.322857	0.068682	NaN	0.000000	0.001700	0.001723	28.0838	0.056071	0.001994	28.1211	56.0926	-165.419	0.046052	0.320870	-0.785612	-0.786925	0.068682	28.1211	-0.787444	-3.036467E+10	-2.261889E-12	NaN
763	1.000000	0.332208	7.37252e+06	-38939.1	1005.82	-29795.6	0.000000	0.000000	6.332880	0.009469	NaN	0.000000	0.001737	0.001758	28.0838	0.065980	0.002084	31.6624	77.1925	8.794135	-0.037263	0.330831	-0.775587	-0.776964	0.009469	31.6624	-0.775812	-2.110133E+10	-4.487242E-13	NaN
763	1.000000	0.342194	7.37252e+06	-38939.1	1005.82	-29795.6	0.000000	0.000000	6.342866	0.006896	NaN	0.000000	0.001735	0.001778	28.0837	0.099468	0.002068	48.0926	120.689	-167.786	-0.009733	0.340806	-0.765601	-0.766989	0.006896	48.0926	-0.765709	-1.537985E+10	-4.484003E-13	NaN
763	1.000000	0.352213	7.37252e+06	-38939.1	1005.82	-29795.6	0.000000	0.000000	6.352888	0.074392	NaN	0.000000	0.001760	0.001749	28.0835	0.015778	0.001956	8.065561	165.984	13.0419	0.062956	0.350853	-0.755582	-0.756942	0.074392	8.065561	-0.762499	-1.390910E+10	-5.348403E-12	NaN
763	1.000000	0.362246	7.37252e+06	-38939.1	1005.82	-29795.6	0.000000	0.000000	6.362917	-0.006137	NaN	0.000000	0.001731	0.001742	28.0834	0.058350	0.001986	29.3832	-107.371	-167.173	0.021152	0.360893	-0.745549	-0.746902	-0.006137	29.3832	-0.745393	-8.137601E+9	7.541159E-13	NaN
763	1.000000	0.372224	7.37252e+06	-38939.1	1005.82	-29795.6	0.000000	0.000000	6.372897	0.044131	NaN	0.000000	0.001739	0.001756	28.0833	0.163765	0.002011	81.4543	-10.7778	12.3628	0.012052	0.370868	-0.735571	-0.736927	0.044131	81.4543	-0.735978	-6.057077E+9	-7.285805E-12	NaN
763	1.000000	0.382219	7.37252e+06	-38939.1	1005.82	-29795.6	0.000000	0.000000	6.382888	-0.080090	NaN	0.000000	0.001784	0.001709	28.0835	0.015621	0.002023	7.720691	104.228	-164.716	-0.069743	0.380894	-0.725575	-0.726901	-0.080090	7.720691	-0.717795	-3.422984E+9	2.339768E-11	NaN
763	1.000000	0.392230	7.37252e+06	-38939.1	1005.82	-29795.6	0.000000	0.000000	6.392899	-0.046669	NaN	0.000000	0.001777	0.001759	28.0833	0.102580	0.002090	49.0857	136.53	15.8376	-0.041410	0.390843	-0.715565	-0.716952	-0.046669	49.0857	-0.714852	-3.120738E+9	1.495449E-11	NaN
763	1.000000	0.402265	7.37252e+06	-38939.1	1005.82	-29795.6	0.000000	0.000000	6.402937	0.001891	NaN	0.000000	0.001743	0.001736	28.0834	0.028598	0.002043	13.9947	-110.429	-169.033	-0.066244	0.400892	-0.705530	-0.706902	0.001891	13.9947	-0.705631	-2.335692E+9	-8.094275E-13	NaN
763	1.000000	0.412249	7.37252e+06	-38939.1	1005.82	-29795.6	0.000000	0.000000	6.412918	-0.059515	NaN	0.000000	0.001747	0.001768	28.0836	0.023135	0.001979	11.6901	-72.8483	12.0214	-0.033946	0.410839	-0.695546	-0.696956	-0.059515	11.6901	-0.691728	-1.508447E+9	3.945462E-11	NaN
763	1.000000	0.422225	7.37252e+06	-38939.1	1005.82	-29795.6	0.000000	0.000000	6.422899	0.063716	NaN	0.000000	0.001774	0.001744	28.0835	0.071693	0.002139	33.5117	-93.2836	-167.793	-0.009110	0.420895	-0.685570	-0.686900	0.063716	33.5117	-0.686996	-1.299748E+9	-4.902148E-11	NaN
763	1.000000	0.432197	7.37252e+06	-38939.1	1005.82	-29795.6	0.000000	0.000000	6.432867	-0.051329	NaN	0.000000	0.001793	0.001759	28.0837	0.044397	0.001935	22.9387	-128.591	17.2532	-0.059460	0.430881	-0.675598	-0.676914	-0.051329	22.9387	-0.673920	-8.610499E+8	5.961247E-11	NaN
763	1.000000	0.442239	7.37252e+06	-38939.1	1005.82	-29795.6	0.000000	0.000000	6.442910	-0.004830	NaN	0.000000	0.001784	0.001741	28.0835	0.080076	0.001994	40.1547	-120.873	-164.345	0.051347	0.441025	-0.665556	-0.666770	-0.004830	40.1547	-0.665466	-6.596599E+8	7.321575E-12	NaN
763	1.000000	0.452235	7.37252e+06	-38939.1	1005.82	-29795.6	0.000000	0.000000	6.452904	-0.055792	NaN	0.000000	0.001762	0.001776	28.083	0.032257	0.002038	15.8289	-162.43	12.7469	-0.025859	0.450825	-0.655560	-0.656970	-0.055792	15.8289	-0.652916	-4.440274E+8	1.256509E-10	NaN
763	1.000000	0.462254	7.37252e+06	-38939.1	1005.82	-29795.6	0.000000	0.000000	6.462925	-0.013681	NaN	0.000000	0.001768	0.001763	28.0822	0.063700	0.002115	30.1251	-118.961	-161.928	0.025834	0.460949	-0.645541	-0.646846	-0.013681	30.1251	-0.645201	-3.480391E+8	3.930875E-11	NaN
763	1.000000	0.472269	7.37252e+06	-38939.1	1005.82	-29795.6	0.000000	0.000000	6.472942	0.054857	NaN	0.000000	0.001754	0.001751	28.0824	0.076029	0.001969	38.6104	-115.407	12.863	0.049242	0.470924	-0.635526	-0.636871	0.054857	38.6104	-0.636592	-2.651679E+8	-2.068770E-10	NaN
763	1.000000	0.482244	7.37252e+06	-38939.1	1005.82	-29795.6	0.000000	0.000000	6.482919	0.067018	NaN	0.000000	0.001701	0.001772	28.0823	0.045518	0.001994	22.8261	39.218	-164.844	-0.020794	0.480971	-0.625550	-0.626824	0.067018	22.8261	-0.627752	-2.005190E+8	-3.342208E-10	NaN
763	1.000000	0.492266	7.37252e+06	-38939.1	1005.82	-29795.6	0.000000	0.000000	6.492939	0.027867	NaN	0.000000	0.001695	0.001763	28.0826	0.065551	0.002006	32.6701	-33.0898	15.5377	-0.013608	0.490891	-0.615529	-0.616904	0.027867	32.6701	-0.616169	-1.389825E+8	-2.005076E-10	NaN
763	1.000000	0.502238	7.37252e+06	-38939.1	1005.82	-29795.6	0.000000	0.000000	6.502910	0.012351	NaN	0.000000	0.001715	0.001776	28.0825	0.097108	0.001894	51.2685	-58.9242	-169.226	0.009354	0.500939	-0.605557	-0.606856	0.012351	51.2685	-0.605737	-9.987468E+7	-1.236605E-10	NaN
763	1.000000	0.512248	7.37252e+06	-38939.1	1005.82	-29795.6	0.000000	0.000000	6.512921	0.049806	NaN	0.000000	0.001711	0.001774	28.0825	0.080536	0.002094	38.4576	167.541	12.5629	-0.003866	0.510880	-0.595547	-0.596914	0.049806	38.4576	-0.596519	-7.456003E+7	-6.680048E-10	NaN
763	1.000000	0.522286	7.37252e+06	-38939.1	1005.82	-29795.6	0.000000	0.000000	6.522958	0.017776	NaN	0.000000	0.001725	0.001766	28.0825	0.043489	0.001880	23.1281	89.2229	-161.262	-0.078969	0.521001	-0.585509	-0.586794	0.017776	23.1281	-0.586085	-5.354075E+7	-3.320098E-10	NaN
763	1.000000	0.532336	7.37252e+06	-38939.1	1005.82	-29795.6	0.000000	0.000000	6.533007	-0.004978	NaN	0.000000	0.001724	0.001804	28.0826	0.084994	0.002057	41.3219	140.615	13.7975	-0.032114	0.530909	-0.575459	-0.576886	-0.004978	41.3219	-0.575369	-3.808812E+7	1.306878E-10	NaN
763	1.000000	0.542252	7.37252e+06	-38939.1	1005.82	-29795.6	0.000000	0.000000	6.542924	-0.002588	NaN	0.000000	0.001699	0.001799	28.0826	0.082468	0.002044	40.3524	37.9403	-164.641	-0.004298	0.541037	-0.565543	-0.566758	-0.002588	40.3524	-0.565495	-2.782051E+7	9.303908E-11	NaN
763	1.000000	0.552283	7.37252e+06	-38939.1	1005.82	-29795.6	0.000000	0.000000	6.552953	-0.017284	NaN	0.000000	0.001710	0.001749	28.0824	0.097244	0.001958	49.656	30.325	12.3965	-0.035222	0.550915	-0.555512	-0.556880	-0.017284	49.656	-0.555251	-2.007548E+7	8.609543E-10	NaN
763	1.000000	0.562280	7.37252e+06	-38939.1	1005.82	-29795.6	0.000000	0.000000	6.562954	0.067643	NaN	0.000000	0.001717	0.001778	28.0823	0.051104	0.001999	25.5683	-179.997	-168.227	0.041759	0.561021	-0.545515	-0.546774	0.067643	25.5683	-0.547499	-1.567882E+7	-4.314317E-9	NaN
763	1.000000	0.572307	7.37252e+06	-38939.1	1005.82	-29795.6	0.000000	0.000000	6.572979	0.022258	NaN	0.000000	0.001699	0.001771	28.0826	0.041656	0.002067	20.1486	168.196	17.506	-0.000809	0.570910	-0.535488	-0.536885	0.022258	20.1486	-0.536317	-1.097141E+7	-2.028721E-9	NaN
763	1.000000	0.582301	7.37252e+06	-38939.1	1005.82	-29795.6	0.000000	0.000000	6.582973	0.008299	NaN	0.000000	0.001713	0.001758	28.0824	0.115521	0.002119	54.5162	130.718	-161.979	-0.080849	0.581017	-0.525494	-0.526778	0.008299	54.5162	-0.525608	-7.79041e+06	-1.065233E-9	NaN
763	1.000000	0.592283	7.37252e+06	-38939.1	1005.82	-29795.6	0.000000	0.000000	6.592957	0.074736	NaN	0.000000	0.001718	0.001735	28.0837	0.104808	0.002115	49.5498	-118.4	13.0383	0.078490	0.590941	-0.515512	-0.516854	0.074736	49.5498	-0.516644	-5.84663e+06	-1.278277E-8	NaN
763	1.000000	0.602284	7.37252e+06	-38939.1	1005.82	-29795.6	0.000000	0.000000	6.602956	0.008681	NaN	0.000000	0.001711	0.001739	28.0837	0.052991	0.002007	26.4014	35.9728	-165.628	0.004184	0.600935	-0.505511	-0.506860	0.008681	26.4014	-0.505758	-4.1239e+06	-2.105052E-9	NaN
763	1.000000	0.612329	7.37252e+06	-38939.1	1005.82	-29795.6	0.000000	0.000000	6.613000	0.004882	NaN	0.000000	0.001700	0.001761	28.0839	0.086993	0.001952	44.566	-142.534	16.4929	0.025995	0.610939	-0.495466	-0.496856	0.004882	44.566	-0.495548	-2.97092e+06	-1.643325E-9	NaN
763	1.000000	0.622286	7.37252e+06	-38939.1	1005.82	-29795.6	0.000000	0.000000	6.622960	0.067762	NaN	0.000000	0.001669	0.001717	28.0836	0.122223	0.001942	62.937	-175.531	-169.412	0.050233	0.621020	-0.485509	-0.486775	0.067762	62.937	-0.486317	-2.20752e+06	-3.069602E-8	NaN
763	1.000000	0.632304	7.37252e+06	-38939.1	1005.82	-29795.6	0.000000	0.000000	6.632977	0.033309	NaN	0.000000	0.001664	0.001753	28.0839	0.135119	0.002035	66.4091	-43.7272	15.4669	-0.030082	0.630976	-0.475491	-0.476819	0.033309	66.4091	-0.475867	-1.57635e+06	-2.113078E-8	NaN
763	1.000000	0.642315	7.37252e+06	-38939.1	1005.82	-29795.6	0.000000	0.000000	6.642987	0.022351	NaN	0.000000	0.001688	0.001737	28.0838	0.051768	0.002084	24.8355	167.376	-167.638	-0.066368	0.641012	-0.465480	-0.466783	0.022351	24.8355	-0.466155	-1.15203e+06	-1.940116E-8	NaN
763	1.000000	0.652316	7.37252e+06	-38939.1	1005.82	-29795.6	0.000000	0.000000	6.652986	-0.046700	NaN	0.000000	0.001648	0.001738	28.084	0.017055	0.002034	8.383472	170.262	16.912	0.064431	0.650986	-0.455479	-0.456809	-0.046700	8.383472	-0.451301	-712294	6.556232E-8	NaN
763	1.000000	0.662331	7.37252e+06	-38939.1	1005.82	-29795.6	0.000000	0.000000	6.663002	-0.005513	NaN	0.000000	0.001684	0.001745	28.0838	0.034655	0.001982	17.4842	25.8291	-165.006	-0.002895	0.660998	-0.445464	-0.446797	-0.005513	17.4842	-0.445227	-584922	9.425386E-9	NaN
763	1.000000	0.672321	7.37252e+06	-38939.1	1005.82	-29795.6	0.000000	0.000000	6.672994	0.046285	NaN	0.000000	0.001690	0.001755	28.0842	0.066400	0.001922	34.5445	-133.928	16.154	0.046362	0.670953	-0.435474	-0.436841	0.046285	34.5445	-0.436479	-440196	-1.051456E-7	NaN
763	1.000000	0.682305	7.37252e+06	-38939.1	1005.82	-29795.6	0.000000	0.000000	6.682975	-0.026859	NaN	0.000000	0.001703	0.001766	28.0844	0.020165	0.002153	9.366134	-45.1338	-166.989	0.003397	0.681020	-0.425490	-0.426775	-0.026859	9.366134	-0.423339	-286915	9.361325E-8	NaN
763	1.000000	0.692367	7.37252e+06	-38939.1	1005.82	-29795.6	0.000000	0.000000	6.693037	-0.049411	NaN	0.000000	0.001728	0.001740	28.0841	0.083564	0.001975	42.3048	-176.365	14.9364	-0.012771	0.691002	-0.415427	-0.416793	-0.049411	42.3048	-0.414551	-215320	2.294787E-7	NaN
763	1.000000	0.702363	7.37252e+06	-38939.1	1005.82	-29795.6	0.000000	0.000000	6.703033	-0.038075	NaN	0.000000	0.001688	0.001761	28.0838	0.034691	0.002089	16.61	-157.715	-165.289	-0.031145	0.700994	-0.405432	-0.406801	-0.038075	16.61	-0.403713	-150980	2.521847E-7	NaN
763	1.000000	0.712355	7.37252e+06	-38939.1	1005.82	-29795.6	0.000000	0.000000	6.713028	0.019167	NaN	0.000000	0.001743	0.001769	28.084	0.031471	0.002086	15.0902	136.893	13.3894	0.032873	0.710990	-0.395440	-0.396805	0.019167	15.0902	-0.396392	-118718	-1.614492E-7	NaN
763	1.000000	0.722354	7.37252e+06	-38939.1	1005.82	-29795.6	0.000000	0.000000	6.723025	-0.008802	NaN	0.000000	0.001713	0.001725	28.0828	0.068905	0.001870	36.8524	-18.0514	-166.48	0.002937	0.721030	-0.385441	-0.386765	-0.008802	36.8524	-0.385262	-82288.8	1.069632E-7	NaN
763	1.000000	0.732354	7.37252e+06	-38939.1	1005.82	-29795.6	0.000000	0.000000	6.733025	0.003803	NaN	0.000000	0.001708	0.001771	28.0825	0.089744	0.002021	44.4086	-28.4337	15.4425	0.028225	0.731011	-0.375441	-0.376784	0.003803	44.4086	-0.375506	-59612.8	-6.380025E-8	NaN
763	1.000000	0.742389	7.37252e+06	-38939.1	1005.82	-29795.6	0.000000	0.000000	6.743061	0.000863	NaN	0.000000	0.001686	0.001767	28.0824	0.041736	0.002018	20.6789	5.255497	-166.068	0.010792	0.741024	-0.365406	-0.366770	0.000863	20.6789	-0.365437	-42693.5	-2.021420E-8	NaN
763	1.000000	0.752371	7.37252e+06	-38939.1	1005.82	-29795.6	0.000000	0.000000	6.753042	-0.024075	NaN	0.000000	0.001691	0.001776	28.0826	0.073295	0.001932	37.9363	-4.745742	10.6489	-0.043559	0.750972	-0.355424	-0.356823	-0.024075	37.9363	-0.354948	-30112	7.995127E-7	NaN
763	1.000000	0.762388	7.37252e+06	-38939.1	1005.82	-29795.6	0.000000	0.000000	6.763063	0.082877	NaN	0.000000	0.001700	0.001781	28.0826	0.049476	0.002021	24.4759	113.257	-165.22	0.127456	0.761074	-0.345407	-0.346721	0.082877	24.4759	-0.347946	-23833.1	-3.477401E-6	NaN
763	1.000000	0.772362	7.37252e+06	-38939.1	1005.82	-29795.6	0.000000	0.000000	6.773033	0.008123	NaN	0.000000	0.001697	0.001763	28.0827	0.036174	0.002047	17.6709	-156.463	12.2108	0.006155	0.770991	-0.335433	-0.336804	0.008123	17.6709	-0.335778	-15847.2	-5.125775E-7	NaN
763	1.000000	0.782358	7.37252e+06	-38939.1	1005.82	-29795.6	0.000000	0.000000	6.783032	0.037479	NaN	0.000000	0.001689	0.001751	28.0826	0.060997	0.001928	31.6335	30.7103	-167.85	-0.003573	0.781040	-0.325436	-0.326755	0.037479	31.6335	-0.326325	-11523.5	-3.252429E-6	NaN
763	1.000000	0.792388	7.37252e+06	-38939.1	1005.82	-29795.6	0.000000	0.000000	6.793060	0.015561	NaN	0.000000	0.001682	0.001780	28.0826	0.049548	0.001951	25.4018	62.6309	15.9374	0.056635	0.790970	-0.315407	-0.316824	0.015561	25.4018	-0.315866	-8085.85	-1.924488E-6	NaN
763	1.000000	0.802404	7.37252e+06	-38939.1	1005.82	-29795.6	0.000000	0.000000	6.803073	-0.040788	NaN	0.000000	0.001642	0.001727	28.0825	0.059295	0.002037	29.1048	77.1844	-167.036	0.013905	0.801025	-0.305391	-0.306770	-0.040788	29.1048	-0.304340	-5459.61	7.470815E-6	NaN
763	1.000000	0.812396	7.37252e+06	-38939.1	1005.82	-29795.6	0.000000	0.000000	6.813070	0.058133	NaN	0.000000	0.001628	0.001785	28.0829	0.030665	0.001995	15.373	72.8359	14.7263	0.022326	0.810999	-0.295399	-0.296796	0.058133	15.373	-0.298235	-4429.4	-1.312443E-5	NaN
763	1.000000	0.822410	7.37252e+06	-38939.1	1005.82	-29795.6	0.000000	0.000000	6.823079	-0.062496	NaN	0.000000	0.001689	0.001748	28.0824	0.047267	0.002051	23.0456	-158.328	-163.783	-0.077633	0.821097	-0.285384	-0.286698	-0.062496	23.0456	-0.283351	-2651.29	2.357197E-5	NaN
763	1.000000	0.832427	7.37252e+06	-38939.1	1005.82	-29795.6	0.000000	0.000000	6.833097	-0.033489	NaN	0.000000	0.001711	0.001729	28.0826	0.021546	0.002166	9.946264	-65.1789	14.9662	-0.081486	0.831006	-0.275368	-0.276789	-0.033489	9.946264	-0.272843	-1839.56	1.820497E-5	NaN
763	1.000000	0.842433	7.37252e+06	-38939.1	1005.82	-29795.6	0.000000	0.000000	6.843105	0.014158	NaN	0.000000	0.001698	0.001731	28.0824	0.087882	0.002000	43.9399	-95.8134	-166.044	-0.031143	0.841081	-0.265362	-0.266714	0.014158	43.9399	-0.265604	-1427.58	-9.917705E-6	NaN
763	1.000000	0.852473	7.37252e+06	-38939.1	1005.82	-29795.6	0.000000	0.000000	6.853146	0.045956	NaN	0.000000	0.001646	0.001748	28.0825	0.034406	0.002052	16.7676	-55.4731	16.1942	-0.005032	0.851117	-0.255322	-0.256678	0.045956	16.7676	-0.257377	-1068.26	-4.301934E-5	NaN
763	1.000000	0.862391	7.37252e+06	-38939.1	1005.82	-29795.6	0.000000	0.000000	6.863062	-0.019578	NaN	0.000000	0.001701	0.001725	28.0838	0.045389	0.002070	21.9294	16.3257	-166.44	-0.068821	0.861105	-0.245404	-0.246690	-0.019578	21.9294	-0.244734	-681.271	2.873795E-5	NaN
763	1.000000	0.872398	7.37252e+06	-38939.1	1005.82	-29795.6	0.000000	0.000000	6.873066	-0.084279	NaN	0.000000	0.001667	0.001736	28.0837	0.055502	0.002099	26.4411	19.1551	15.9162	-0.040062	0.871048	-0.235397	-0.236747	-0.084279	26.4411	-0.233006	-446.588	0.000189	NaN
763	1.000000	0.882455	7.37252e+06	-38939.1	1005.82	-29795.6	0.000000	0.000000	6.883127	0.021315	NaN	0.000000	0.001660	0.001759	28.0836	0.057023	0.001963	29.0525	-106.183	-166.557	0.028428	0.881133	-0.225340	-0.226662	0.021315	29.0525	-0.225890	-344.722	-6.183265E-5	NaN
763	1.000000	0.892449	7.37252e+06	-38939.1	1005.82	-29795.6	0.000000	0.000000	6.893119	-0.030155	NaN	0.000000	0.001654	0.001723	28.0836	0.107673	0.001933	55.6961	-18.3515	13.4159	0.016347	0.891091	-0.215346	-0.216704	-0.030155	55.6961	-0.214940	-230.438	0.000131	NaN
763	1.000000	0.902417	7.37252e+06	-38939.1	1005.82	-29795.6	0.000000	0.000000	6.903088	-0.002092	NaN	0.000000	0.001669	0.001777	28.0837	0.083353	0.001955	42.6454	165.152	-166.206	0.019321	0.901149	-0.205378	-0.206646	-0.002092	42.6454	-0.205341	-161.111	1.298266E-5	NaN
763	1.000000	0.912438	7.37252e+06	-38939.1	1005.82	-29795.6	0.000000	0.000000	6.913108	-0.040436	NaN	0.000000	0.001640	0.001729	28.0836	0.008495	0.001840	4.616583	-145.218	14.0738	-0.033823	0.911118	-0.195357	-0.196677	-0.040436	4.616583	-0.188787	-85.8522	0.000471	NaN
763	1.000000	0.922434	7.37252e+06	-38939.1	1005.82	-29795.6	0.000000	0.000000	6.923104	-0.018847	NaN	0.000000	0.001654	0.001759	28.0835	0.120341	0.002110	57.034	141.909	-166.937	-0.112493	0.921109	-0.185361	-0.186685	-0.018847	57.034	-0.185113	-74.4805	0.000253	NaN
763	1.000000	0.932419	7.37252e+06	-38939.1	1005.82	-29795.6	0.000000	0.000000	6.933094	0.074419	NaN	0.000000	0.001681	0.001732	28.0836	0.050151	0.002125	23.6003	-32.7219	16.7817	0.055371	0.931099	-0.175376	-0.176696	0.074419	23.6003	-0.177741	-55.8394	-0.001333	NaN
763	1.000000	0.942475	7.37252e+06	-38939.1	1005.82	-29795.6	0.000000	0.000000	6.943147	0.012161	NaN	0.000000	0.001684	0.001751	28.0836	0.096243	0.001994	48.2764	-5.726314	-165.502	-0.072814	0.941148	-0.165320	-0.166647	0.012161	48.2764	-0.165509	-34.2956	-0.000355	NaN
763	1.000000	0.952442	7.37252e+06	-38939.1	1005.82	-29795.6	0.000000	0.000000	6.953111	-0.063489	NaN	0.000000	0.001659	0.001773	28.0837	0.085410	0.002066	41.3503	84.9977	14.2305	-0.080407	0.951055	-0.155352	-0.156740	-0.063489	41.3503	-0.154201	-21.5867	0.002941	NaN
763	1.000000	0.962430	7.37252e+06	-38939.1	1005.82	-29795.6	0.000000	0.000000	6.963102	0.017132	NaN	0.000000	0.001718	0.001769	28.0836	0.102994	0.001876	54.8987	27.0221	-163.905	0.020828	0.961179	-0.145365	-0.146616	0.017132	54.8987	-0.145599	-15.0397	-0.001139	NaN
763	1.000000	0.972447	7.37252e+06	-38939.1	1005.82	-29795.6	0.000000	0.000000	6.973120	0.035470	NaN	0.000000	0.001716	0.001784	28.0836	0.055852	0.001939	28.8031	-110.988	16.1358	0.027695	0.971092	-0.135348	-0.136703	0.035470	28.8031	-0.136271	-10.0579	-0.003527	NaN
763	1.000000	0.982441	7.37252e+06	-38939.1	1005.82	-29795.6	0.000000	0.000000	6.983116	0.090847	NaN	0.000000	0.001722	0.001744	28.0837	0.089142	0.001977	45.0784	-128.675	-162.897	0.066498	0.981178	-0.125354	-0.126617	0.090847	45.0784	-0.126865	-6.618680	-0.013726	NaN
763	1.000000	0.992480	7.37252e+06	-38939.1	1005.82	-29795.6	0.000000	0.000000	6.993153	0.024449	NaN	0.000000	0.001704	0.001731	28.0834	0.086652	0.001982	43.7195	-135.968	17.7675	0.050213	0.991115	-0.115315	-0.116680	0.024449	43.7195	-0.115734	-3.955628	-0.006181	NaN
763	1.000000	1.002475	7.37252e+06	-38939.1	1005.82	-29795.6	0.000000	0.000000	7.003148	0.021807	NaN	0.000000	0.001724	0.001753	28.0825	0.068270	0.002003	34.0765	102.572	-164.529	0.078446	1.001165	-0.105320	-0.106629	0.021807	34.0765	-0.105800	-2.445768	-0.008916	NaN
763	1.000000	1.012477	7.37252e+06	-38939.1	1005.82	-29795.6	0.000000	0.000000	7.013147	-0.030399	NaN	0.000000	0.001701	0.001737	28.0823	0.013447	0.001931	6.965200	-145.596	12.0519	0.005557	1.011099	-0.095318	-0.096696	-0.030399	6.965200	-0.092044	-1.206405	0.025198	NaN
763	1.000000	1.022474	7.37252e+06	-38939.1	1005.82	-29795.6	0.000000	0.000000	7.023147	0.053170	NaN	0.000000	0.001745	0.001708	28.0829	0.107734	0.002031	53.033	-16.4779	-165.497	-0.003617	1.021168	-0.085321	-0.086626	0.053170	53.033	-0.086073	-0.872099	-0.060967	NaN
763	1.000000	1.032473	7.37252e+06	-38939.1	1005.82	-29795.6	0.000000	0.000000	7.033143	-0.026470	NaN	0.000000	0.001790	0.001700	28.0824	0.155831	0.002007	77.6443	102.841	12.7808	-0.023241	1.031100	-0.075322	-0.076695	-0.026470	77.6443	-0.075067	-0.463705	0.057084	NaN
763	1.000000	1.042500	7.37252e+06	-38939.1	1005.82	-29795.6	0.000000	0.000000	7.043171	0.001136	NaN	0.000000	0.001796	0.001701	28.0825	0.078927	0.002047	38.5552	-86.5611	-165.686	0.012181	1.041172	-0.065295	-0.066623	0.001136	38.5552	-0.065317	-0.254311	-0.004467	NaN
763	1.000000	1.052452	7.37252e+06	-38939.1	1005.82	-29795.6	0.000000	0.000000	7.053123	-0.008199	NaN	0.000000	0.001805	0.001698	28.0823	0.063093	0.001962	32.1518	-66.7425	14.288	0.020741	1.051090	-0.055343	-0.056705	-0.008199	32.1518	-0.055152	-0.130114	0.063012	NaN
763	1.000000	1.062498	7.37252e+06	-38939.1	1005.82	-29795.6	0.000000	0.000000	7.063169	-0.009407	NaN	0.000000	0.001787	0.001722	28.0829	0.086818	0.002020	42.9861	26.0522	-164.4	-0.003430	1.061205	-0.045297	-0.046590	-0.009407	42.9861	-0.045133	-0.064873	0.145011	NaN
763	1.000000	1.072472	7.37252e+06	-38939.1	1005.82	-29795.6	0.000000	0.000000	7.073143	-0.026952	NaN	0.000000	0.001781	0.001740	28.0822	0.120771	0.001907	63.3377	-176.27	18.1005	-0.002545	1.071151	-0.035322	-0.036644	-0.026952	63.3377	-0.035003	-0.032032	0.841404	NaN
763	1.000000	1.082500	7.37252e+06	-38939.1	1005.82	-29795.6	0.000000	0.000000	7.083173	0.032948	NaN	0.000000	0.001746	0.001747	28.0824	0.034654	0.001922	18.0292	-164.664	-164.914	-0.067238	1.081150	-0.025295	-0.026645	0.032948	18.0292	-0.026665	-0.018666	-1.765092	NaN
763	1.000000	1.092513	7.37252e+06	-38939.1	1005.82	-29795.6	0.000000	0.000000	7.093188	0.064036	NaN	0.000000	0.001704	0.001742	28.0824	0.076904	0.001887	40.7649	-101.213	13.7512	0.102972	1.091178	-0.015281	-0.016617	0.064036	40.7649	-0.016460	-0.010169	-6.297408	NaN
763	1.000000	1.102482	7.37252e+06	-38939.1	1005.82	-29795.6	0.000000	0.000000	7.103159	0.127664	NaN	0.000000	0.001714	0.001735	28.0827	0.238153	0.001797	132.549	2.532001	-162.354	-0.037058	1.101214	-0.005313	-0.006581	0.127664	132.549	-0.006035	-0.004058	-31.4602	NaN
763	2.000000	1.112207	7.37252e+06	-38939.1	1005.82	-29795.6	0.000000	0.000000	7.113245	8.917712	NaN	0.000000	0.001732	0.001716	28.0823	9.015273	0.001728	5216.87	12.5429	5.354166	7.508463	1.111106	0.004412	0.003312	8.917712	5216.87	0.003130	0.002489	3582.43	95531.2
763	2.000000	1.115046	7.37252e+06	-38939.1	1005.82	-29795.6	0.000000	0.000000	7.116120	9.804403	NaN	0.000000	0.001693	0.001747	28.0825	11.4681	0.001703	6732.25	7.155392	-172.365	9.530586	1.114764	0.007251	0.006969	9.804403	6732.25	0.006159	0.005216	1879.67	85165.6
763	2.000000	1.117580	7.37252e+06	-38939.1	1005.82	-29795.6	0.000000	0.000000	7.118866	14.9662	NaN	0.000000	0.001713	0.001741	28.0836	14.5781	0.001762	8275.13	8.236557	5.866281	15.7048	1.117117	0.009785	0.009322	14.9662	8275.13	0.008429	0.007487	1998.99	87377.2
763	2.000000	1.119985	7.37252e+06	-38939.1	1005.82	-29795.6	0.000000	0.000000	7.121486	20.1964	NaN	0.000000	0.001714	0.001705	28.0838	17.5935	0.001749	10060.1	5.024885	-175.875	19.1013	1.119595	0.012190	0.011800	20.1964	10060.1	0.010684	0.009952	2029.41	92134.5
763	2.000000	1.122468	7.37252e+06	-38939.1	1005.82	-29795.6	0.000000	0.000000	7.124041	21.9373	NaN	0.000000	0.001702	0.001743	28.0838	19.7885	0.001666	11877.9	8.412608	0.855034	20.9587	1.122169	0.014673	0.014374	21.9373	11877.9	0.013288	0.013070	1678.47	94924.6
763	2.000000	1.125021	7.37252e+06	-38939.1	1005.82	-29795.6	0.000000	0.000000	7.126674	23.877	NaN	0.000000	0.001784	0.001690	28.0838	22.8568	0.001863	12267.9	7.409669	-177.158	25.5358	1.124755	0.017226	0.016960	23.877	12267.9	0.015766	0.016321	1462.96	87734.5
763	2.000000	1.127516	7.37252e+06	-38939.1	1005.82	-29795.6	0.000000	0.000000	7.129600	34.3841	NaN	0.000000	0.001760	0.001721	28.0837	25.0939	0.001772	14158.8	4.001763	3.690551	35.4538	1.127099	0.019721	0.019304	34.3841	14158.8	0.017900	0.019349	1777.08	92998.1
763	2.000000	1.129959	7.37252e+06	-38939.1	1005.82	-29795.6	0.000000	0.000000	7.132222	38.74	NaN	0.000000	0.001724	0.001680	28.0835	27.8586	0.001760	15827.8	6.939801	178.731	37.1754	1.129559	0.022164	0.021764	38.74	15827.8	0.020328	0.023060	1679.94	95227.1
763	2.000000	1.132419	7.37252e+06	-38939.1	1005.82	-29795.6	0.000000	0.000000	7.134940	45.0107	NaN	0.000000	0.001714	0.001686	28.0834	29.1682	0.001757	16598.2	2.839720	2.257837	42.1756	1.132076	0.024624	0.024281	45.0107	16598.2	0.022590	0.026777	1680.97	92673.3
763	2.000000	1.134987	7.37252e+06	-38939.1	1005.82	-29795.6	0.000000	0.000000	7.137735	50.5426	NaN	0.000000	0.001698	0.001725	28.0837	33.0753	0.001823	18147.7	9.225099	174.94	50.3698	1.134668	0.027192	0.026873	50.5426	18147.7	0.025103	0.031203	1619.8	93863.5
763	2.000000	1.137452	7.37252e+06	-38939.1	1005.82	-29795.6	0.000000	0.000000	7.140650	61.4802	NaN	0.000000	0.001722	0.001727	28.0837	34.7494	0.001778	19539.1	7.890168	-3.994161	59.2804	1.136994	0.029657	0.029199	61.4802	19539.1	0.027297	0.035328	1740.27	94976.7
763	2.000000	1.139921	7.37252e+06	-38939.1	1005.82	-29795.6	0.000000	0.000000	7.143399	68.2926	NaN	0.000000	0.001730	0.001721	28.0836	35.8863	0.001740	20618.8	3.142587	179.204	66.3228	1.139659	0.032126	0.031864	68.2926	20618.8	0.029642	0.040005	1707.08	94183.9
763	2.000000	1.142441	7.37252e+06	-38939.1	1005.82	-29795.6	0.000000	0.000000	7.146292	77.3817	NaN	0.000000	0.001720	0.001728	28.0835	39.6328	0.001953	20291.8	5.494659	-2.411736	74.7223	1.142105	0.034646	0.034310	77.3817	20291.8	0.031786	0.044527	1737.86	87857.9
763	2.000000	1.145035	7.37252e+06	-38939.1	1005.82	-29795.6	0.000000	0.000000	7.149124	83.161	NaN	0.000000	0.001741	0.001712	28.0838	40.9555	0.001821	22484.8	4.991903	178.65	89.1025	1.144677	0.037240	0.036882	83.161	22484.8	0.034466	0.050511	1646.4	91404.9
763	2.000000	1.147459	7.37252e+06	-38939.1	1005.82	-29795.6	0.000000	0.000000	7.152146	97.7143	NaN	0.000000	0.001730	0.001741	28.0837	43.4421	0.001859	23368.1	7.777445	-4.695397	96.9063	1.146964	0.039664	0.039169	97.7143	23368.1	0.036528	0.055364	1764.95	90736.9
763	2.000000	1.149939	7.37252e+06	-38939.1	1005.82	-29795.6	0.000000	0.000000	7.154810	102.201	NaN	0.000000	0.001720	0.001739	28.084	45.9824	0.001711	26869.7	4.890440	175.833	101.755	1.149653	0.042144	0.041859	102.201	26869.7	0.039292	0.062210	1642.83	98425
763	2.000000	1.152390	7.37252e+06	-38939.1	1005.82	-29795.6	0.000000	0.000000	7.157703	112.954	NaN	0.000000	0.001726	0.001695	28.0824	48.3457	0.001803	26806.9	5.828702	-4.553680	108.291	1.152061	0.044595	0.044266	112.954	26806.9	0.041434	0.067788	1666.28	94068.2
763	2.000000	1.154954	7.37252e+06	-38939.1	1005.82	-29795.6	0.000000	0.000000	7.160652	122.331	NaN	0.000000	0.001751	0.001724	28.0823	51.2879	0.001710	29997.8	1.810922	177.641	121.525	1.154786	0.047159	0.046992	122.331	29997.8	0.044100	0.075054	1629.9	100040
763	2.000000	1.157386	7.37252e+06	-38939.1	1005.82	-29795.6	0.000000	0.000000	7.163824	140.342	NaN	0.000000	0.001718	0.001793	28.0826	53.4102	0.001670	31976.8	4.327606	-4.295942	137.199	1.157028	0.049591	0.049233	140.342	31976.8	0.046299	0.081318	1725.84	102451
763	2.000000	1.159883	7.37252e+06	-38939.1	1005.82	-29795.6	0.000000	0.000000	7.166878	153.897	NaN	0.000000	0.001768	0.001770	28.0821	55.6855	0.001880	29620.5	4.856912	175.048	151.83	1.159678	0.052088	0.051883	153.897	29620.5	0.048191	0.086904	1770.87	91800.4
763	2.000000	1.162383	7.37252e+06	-38939.1	1005.82	-29795.6	0.000000	0.000000	7.170068	170.673	NaN	0.000000	0.001703	0.001773	28.082	58.4658	0.001805	32394.6	6.163367	-7.225838	168.223	1.162053	0.054588	0.054258	170.673	32394.6	0.050637	0.094392	1808.13	96333.5
763	2.000000	1.164950	7.37252e+06	-38939.1	1005.82	-29795.6	0.000000	0.000000	7.173105	182.104	NaN	0.000000	0.001742	0.001748	28.0824	61.2352	0.001846	33173.4	7.021022	173.322	183.446	1.164543	0.057155	0.056748	182.104	33173.4	0.053038	0.102034	1784.73	94883.4
763	2.000000	1.167437	7.37252e+06	-38939.1	1005.82	-29795.6	0.000000	0.000000	7.176104	194.565	NaN	0.000000	0.001711	0.001745	28.0823	61.7604	0.001801	34284.6	3.876776	-4.123954	193.244	1.167034	0.059642	0.059239	194.565	34284.6	0.055386	0.109784	1772.26	94537.2
763	2.000000	1.169839	7.37252e+06	-38939.1	1005.82	-29795.6	0.000000	0.000000	7.179169	210.7	NaN	0.000000	0.001708	0.001781	28.0822	65.3657	0.001745	37456.7	7.484664	170.273	207.517	1.169604	0.062044	0.061809	210.7	37456.7	0.057825	0.118125	1783.7	99570.9
763	2.000000	1.172382	7.37252e+06	-38939.1	1005.82	-29795.6	0.000000	0.000000	7.182245	223.692	NaN	0.000000	0.001675	0.001771	28.0823	68.1161	0.001782	38227.4	7.740663	-9.288760	221.061	1.171945	0.064587	0.064150	223.692	38227.4	0.060198	0.126520	1768.05	98190.4
763	2.000000	1.174915	7.37252e+06	-38939.1	1005.82	-29795.6	0.000000	0.000000	7.185159	232.954	NaN	0.000000	0.001670	0.001785	28.0824	70.2245	0.001786	39314.4	2.394608	175.239	233.073	1.174719	0.067120	0.066924	232.954	39314.4	0.062676	0.135580	1718.2	97550
763	2.000000	1.177365	7.37252e+06	-38939.1	1005.82	-29795.6	0.000000	0.000000	7.188429	252.921	NaN	0.000000	0.001701	0.001771	28.0823	72.0489	0.001769	40735.3	2.832069	-4.654704	247.818	1.176967	0.069570	0.069172	252.921	40735.3	0.064913	0.144013	1756.23	98071.5
763	2.000000	1.180046	7.37252e+06	-38939.1	1005.82	-29795.6	0.000000	0.000000	7.191642	265.854	NaN	0.000000	0.001712	0.001797	28.0824	75.3164	0.001857	40566.5	4.488165	173.532	273.335	1.179617	0.072251	0.071822	265.854	40566.5	0.067336	0.153421	1732.84	94623.3
763	2.000000	1.182423	7.37252e+06	-38939.1	1005.82	-29795.6	0.000000	0.000000	7.194791	284.647	NaN	0.000000	0.001690	0.001806	28.0826	76.9063	0.001715	44836.9	4.474783	-7.646753	284.437	1.182017	0.074628	0.074222	284.647	44836.9	0.069867	0.163545	1740.48	101295
763	2.000000	1.184926	7.37252e+06	-38939.1	1005.82	-29795.6	0.000000	0.000000	7.197732	295.29	NaN	0.000000	0.001698	0.001790	28.0828	80.2668	0.001757	45684.5	2.715089	174.18	296.624	1.184710	0.077131	0.076915	295.29	45684.5	0.072283	0.173500	1701.96	100206
763	2.000000	1.187356	7.37252e+06	-38939.1	1005.82	-29795.6	0.000000	0.000000	7.201442	326.444	NaN	0.000000	0.001713	0.001773	28.0835	82.7801	0.001797	46065.1	7.926063	-11.1992	321.092	1.187062	0.079561	0.079267	326.444	46065.1	0.074246	0.181789	1795.73	98710.1
763	2.000000	1.189884	7.37252e+06	-38939.1	1005.82	-29795.6	0.000000	0.000000	7.204460	338.364	NaN	0.000000	0.001711	0.001798	28.0834	84.9986	0.001782	47705.7	3.550373	172.946	339.351	1.189616	0.082089	0.081821	338.364	47705.7	0.076769	0.192710	1755.82	99286.8
763	2.000000	1.192326	7.37252e+06	-38939.1	1005.82	-29795.6	0.000000	0.000000	7.207807	360.387	NaN	0.000000	0.001677	0.001797	28.0838	87.3787	0.001772	49309.7	4.185928	-8.079817	355.179	1.191966	0.084531	0.084171	360.387	49309.7	0.079049	0.202835	1776.75	100031
763	2.000000	1.194972	7.37252e+06	-38939.1	1005.82	-29795.6	0.000000	0.000000	7.211318	381.428	NaN	0.000000	0.001710	0.001756	28.0834	90.6625	0.001799	50397	4.430369	171.938	385.116	1.194563	0.087177	0.086769	381.428	50397	0.081501	0.213994	1782.42	99535.4
763	2.000000	1.197285	7.37252e+06	-38939.1	1005.82	-29795.6	0.000000	0.000000	7.214693	407.297	NaN	0.000000	0.001684	0.001738	28.0836	92.5469	0.001756	52692	6.571320	-10.2563	401.001	1.196984	0.089490	0.089189	407.297	52692	0.083693	0.224205	1816.63	101671
763	2.000000	1.199883	7.37252e+06	-38939.1	1005.82	-29795.6	0.000000	0.000000	7.217709	417.44	NaN	0.000000	0.001711	0.001804	28.0835	94.9651	0.001910	49714.4	3.927657	172.881	418.567	1.199505	0.092089	0.091710	417.44	49714.4	0.085791	0.234189	1782.49	93858.1
763	2.000000	1.202257	7.37252e+06	-38939.1	1005.82	-29795.6	0.000000	0.000000	7.221042	440.788	NaN	0.000000	0.001695	0.001771	28.0841	95.7608	0.001789	53538.9	3.278695	-7.522939	432.764	1.201823	0.094462	0.094028	440.788	53538.9	0.088288	0.246334	1789.39	98555.4
763	2.000000	1.204838	7.37252e+06	-38939.1	1005.82	-29795.7	0.000000	0.000000	7.224483	461.747	NaN	0.000000	0.001756	0.001748	28.0836	98.9867	0.001804	54860.5	6.232513	169.464	457.913	1.204521	0.097043	0.096726	461.747	54860.5	0.090730	0.258492	1786.31	98584.6
763	2.000000	1.207339	7.37252e+06	-38939.1	1005.82	-29795.6	0.000000	0.000000	7.228066	488.055	NaN	0.000000	0.001749	0.001797	28.0839	100.696	0.001679	59956.4	6.255850	-10.9484	483.775	1.207011	0.099544	0.099216	488.055	59956.4	0.093439	0.272295	1792.38	104976
763	2.000000	1.209839	7.37252e+06	-38939.1	1005.82	-29795.6	0.000000	0.000000	7.231311	506.182	NaN	0.000000	0.001733	0.001780	28.0838	101.659	0.001736	58556.5	3.795726	171.48	504.233	1.209463	0.102044	0.101668	506.182	58556.5	0.095561	0.283344	1786.46	100506
763	2.000000	1.210829	7.37252e+06	-38939.1	1005.82	-29795.6	0.000000	0.000000	7.232629	514.179	NaN	0.000000	0.001766	0.001786	28.0838	104.652	0.001846	56700.1	6.921451	169.201	509.42	1.210462	0.103034	0.102667	514.179	56700.1	0.096233	0.286885	1792.28	96716.9