File: remote_trans/data/nanoindenter/0828-1/data/Data_2025-08-06,11h17m57s/2025-07-22_16-23-58_1_681.txt
2025-07-22, 16:23:58, 1
Index	Phase	Displacement	Time	Pos X	Pos Y	Pos Z	Rot A	Rot B	Piezo Z	Force A	Force B	Gripper	Voltage A	Voltage B	Temperature	Amplitude force	Amplitude pos	Stiffness	Phase shift	Phase excitation	Force A raw	Displacement raw	HMax	HMax raw	Real Force	Real Stiffness	Contact Depth	Area	Hardness	Reduced Mod.
[#]	[#]	[um]	[s]	[um]	[um]	[um]	[m°]	[m°]	[um]	[uN]	[uN]	[V]	[V]	[V]	[°C]	[uN]	[um]	[N/m]	[°]	[°]	[uN]	[um]	[um]	[um]	[uN]	[N/m]	[um]	[um^2]	[MPa]	[MPa]
681	1.000000	0.002609	7.37171e+06	-43039.1	1005.82	-29780.5	0.000000	0.000000	6.002770	0.047155	NaN	0.000000	0.001612	0.001806	28.0835	0.166125	0.000994	167.143	-47.1557	-164.517	-0.014987	0.001361	-1.126722	-1.127970	0.047155	167.143	-1.126934	-1.152099E+15	-4.092993E-17	NaN
681	1.000000	0.012691	7.37171e+06	-43039.1	1005.82	-29780.5	0.000000	0.000000	6.012850	0.023099	NaN	0.000000	0.001616	0.001800	28.0833	0.028503	0.001341	21.2555	77.879	17.489	-0.027958	0.011247	-1.116641	-1.118084	0.023099	21.2555	-1.117456	-8.596769E+14	-2.686991E-17	NaN
681	1.000000	0.022604	7.37171e+06	-43039.1	1005.82	-29780.5	0.000000	0.000000	6.022765	0.057258	NaN	0.000000	0.001633	0.001831	28.0817	0.050028	0.001697	29.4886	37.9846	-166.227	0.010781	0.021152	-1.106727	-1.108179	0.057258	29.4886	-1.108183	-6.455143E+14	-8.870183E-17	NaN
681	1.000000	0.032604	7.37171e+06	-43039.1	1005.82	-29780.5	0.000000	0.000000	6.032766	0.074456	NaN	0.000000	0.001609	0.001748	28.0817	0.044715	0.002014	22.1974	-127.427	15.6145	0.020404	0.031215	-1.096727	-1.098116	0.074456	22.1974	-1.099243	-4.896706E+14	-1.520524E-16	NaN
681	1.000000	0.042604	7.37171e+06	-43039.1	1005.82	-29780.5	0.000000	0.000000	6.042763	0.001786	NaN	0.000000	0.001588	0.001778	28.0814	0.021841	0.001854	11.7778	100.149	-163.223	0.038985	0.041317	-1.086727	-1.088015	0.001786	11.7778	-1.086841	-3.337240E+14	-5.351870E-18	NaN
681	1.000000	0.052576	7.37171e+06	-43039.1	1005.82	-29780.5	0.000000	0.000000	6.052738	0.102514	NaN	0.000000	0.001587	0.001800	28.0816	0.121245	0.001999	60.6567	-49.9157	16.5729	0.115376	0.051257	-1.076756	-1.078074	0.102514	60.6567	-1.078023	-2.540782E+14	-4.034756E-16	NaN
681	1.000000	0.062547	7.37171e+06	-43039.1	1005.82	-29780.5	0.000000	0.000000	6.062706	0.028311	NaN	0.000000	0.001596	0.001785	28.0816	0.079497	0.002005	39.654	-161.599	-164.809	0.080150	0.061313	-1.066785	-1.068018	0.028311	39.654	-1.067320	-1.824670E+14	-1.551588E-16	NaN
681	1.000000	0.072617	7.37171e+06	-43039.1	1005.82	-29780.5	0.000000	0.000000	6.072777	0.038002	NaN	0.000000	0.001612	0.001803	28.0817	0.041790	0.001938	21.5648	4.470508	18.0909	0.059142	0.071235	-1.056714	-1.058096	0.038002	21.5648	-1.058036	-1.369069E+14	-2.775725E-16	NaN
681	1.000000	0.082592	7.37171e+06	-43039.1	1005.82	-29780.5	0.000000	0.000000	6.082753	0.056863	NaN	0.000000	0.001644	0.001802	28.0818	0.067758	0.002010	33.7067	138.448	-163.578	0.039403	0.081327	-1.046739	-1.048004	0.056863	33.7067	-1.048005	-1.003668E+14	-5.665499E-16	NaN
681	1.000000	0.092604	7.37171e+06	-43039.1	1005.82	-29780.5	0.000000	0.000000	6.092765	0.068880	NaN	0.000000	0.001648	0.001795	28.0816	0.103834	0.001956	53.0974	-137.115	15.7801	0.094824	0.091249	-1.036727	-1.038082	0.068880	53.0974	-1.037700	-7.295295E+13	-9.441703E-16	NaN
681	1.000000	0.102580	7.37171e+06	-43039.1	1005.82	-29780.5	0.000000	0.000000	6.102739	0.004526	NaN	0.000000	0.001619	0.001815	28.0814	0.043307	0.001924	22.5109	29.5388	-164.366	-0.020358	0.101307	-1.026751	-1.028024	0.004526	22.5109	-1.026902	-5.221592E+13	-8.667961E-17	NaN
681	1.000000	0.112613	7.37171e+06	-43039.1	1005.82	-29780.5	0.000000	0.000000	6.112775	0.083025	NaN	0.000000	0.001653	0.001819	28.0815	0.093995	0.002008	46.8117	-40.5151	15.792	0.109906	0.111291	-1.016718	-1.018040	0.083025	46.8117	-1.018049	-3.969143E+13	-2.091761E-15	NaN
681	1.000000	0.122601	7.37171e+06	-43039.1	1005.82	-29780.5	0.000000	0.000000	6.122763	0.082637	NaN	0.000000	0.001582	0.001790	28.0818	0.058714	0.001941	30.2426	-170.43	-162.094	0.046527	0.121256	-1.006730	-1.008075	0.082637	30.2426	-1.008780	-2.978230E+13	-2.774704E-15	NaN
681	1.000000	0.132642	7.37171e+06	-43039.1	1005.82	-29780.5	0.000000	0.000000	6.132805	0.086521	NaN	0.000000	0.001602	0.001820	28.0815	0.032241	0.002008	16.0582	123.149	15.1599	0.067540	0.131286	-0.996689	-0.998045	0.086521	16.0582	-1.000730	-2.320567E+13	-3.728459E-15	NaN
681	1.000000	0.142613	7.37171e+06	-43039.1	1005.82	-29780.5	0.000000	0.000000	6.142773	0.019107	NaN	0.000000	0.001618	0.001812	28.0814	0.052395	0.002009	26.0865	125.599	-162.46	0.020049	0.141319	-0.986718	-0.988012	0.019107	26.0865	-0.987267	-1.528650E+13	-1.249941E-15	NaN
681	1.000000	0.152622	7.37171e+06	-43039.1	1005.82	-29780.5	0.000000	0.000000	6.152780	0.006992	NaN	0.000000	0.001584	0.001788	28.0815	0.022761	0.001953	11.6554	-143.184	15.8441	0.011814	0.151290	-0.976710	-0.978041	0.006992	11.6554	-0.977160	-1.117226E+13	-6.258123E-16	NaN
681	1.000000	0.162636	7.37171e+06	-43039.1	1005.82	-29780.5	0.000000	0.000000	6.162795	0.017775	NaN	0.000000	0.001585	0.001787	28.0827	0.069866	0.002137	32.6938	9.888588	-166.981	0.105820	0.161342	-0.966695	-0.967989	0.017775	32.6938	-0.967103	-8.177484E+12	-2.173613E-15	NaN
681	1.000000	0.172634	7.37171e+06	-43039.1	1005.82	-29780.5	0.000000	0.000000	6.172795	0.066038	NaN	0.000000	0.001562	0.001815	28.0828	0.039392	0.001992	19.7762	50.0837	12.2112	0.102132	0.171303	-0.956697	-0.958028	0.066038	19.7762	-0.959202	-6.398965E+12	-1.032014E-14	NaN
681	1.000000	0.182623	7.37171e+06	-43039.1	1005.82	-29780.5	0.000000	0.000000	6.182783	0.048033	NaN	0.000000	0.001585	0.001803	28.0827	0.106008	0.002010	52.737	155.428	-167.097	0.010934	0.181322	-0.946708	-0.948009	0.048033	52.737	-0.947391	-4.434503E+12	-1.083154E-14	NaN
681	1.000000	0.192656	7.37171e+06	-43039.1	1005.82	-29780.5	0.000000	0.000000	6.192816	0.025239	NaN	0.000000	0.001598	0.001839	28.0829	0.015058	0.002078	7.246164	11.7813	18.3489	0.005266	0.191273	-0.936675	-0.938059	0.025239	7.246164	-0.939288	-3.447674E+12	-7.320697E-15	NaN
681	1.000000	0.202648	7.37171e+06	-43039.1	1005.82	-29780.5	0.000000	0.000000	6.202808	0.036429	NaN	0.000000	0.001597	0.001802	28.0827	0.066615	0.001961	33.9648	166.974	-161.899	-0.039295	0.201362	-0.926683	-0.927970	0.036429	33.9648	-0.927488	-2.389396E+12	-1.524592E-14	NaN
681	1.000000	0.212649	7.37171e+06	-43039.1	1005.82	-29780.5	0.000000	0.000000	6.212806	-0.048174	NaN	0.000000	0.001592	0.001822	28.0826	0.078110	0.002072	37.6989	-32.0415	15.7482	0.013025	0.211281	-0.916682	-0.918050	-0.048174	37.6989	-0.915724	-1.657541E+12	2.906362E-14	NaN
681	1.000000	0.222642	7.37171e+06	-43039.1	1005.82	-29780.5	0.000000	0.000000	6.222804	0.072536	NaN	0.000000	0.001619	0.001819	28.0825	0.080389	0.001981	40.5889	105.9	-166.676	0.025497	0.221396	-0.906689	-0.907935	0.072536	40.5889	-0.908030	-1.304808E+12	-5.559166E-14	NaN
681	1.000000	0.232683	7.37171e+06	-43039.1	1005.82	-29780.5	0.000000	0.000000	6.232839	-0.054315	NaN	0.000000	0.001590	0.001840	28.0826	0.032335	0.002125	15.2183	-23.4733	17.6759	-0.101678	0.231265	-0.896648	-0.898066	-0.054315	15.2183	-0.893971	-8.425486E+11	6.446483E-14	NaN
681	1.000000	0.242671	7.37171e+06	-43039.1	1005.82	-29780.5	0.000000	0.000000	6.242831	0.046691	NaN	0.000000	0.001555	0.001832	28.0824	0.004388	0.002077	2.112879	-112.798	-163.769	0.008286	0.241295	-0.886661	-0.888036	0.046691	2.112879	-0.903234	-1.124003E+12	-4.154029E-14	NaN
681	1.000000	0.252663	7.37171e+06	-43039.1	1005.82	-29780.5	0.000000	0.000000	6.252821	-0.024554	NaN	0.000000	0.001602	0.001804	28.0826	0.010396	0.001817	5.722871	22.0458	15.5727	0.009454	0.251349	-0.876668	-0.877982	-0.024554	5.722871	-0.873450	-4.447558E+11	5.520720E-14	NaN
681	1.000000	0.262657	7.37171e+06	-43039.1	1005.82	-29780.5	0.000000	0.000000	6.262819	0.079177	NaN	0.000000	0.001551	0.001827	28.0824	0.084319	0.001789	47.1342	80.8219	-163.359	0.126037	0.261401	-0.866674	-0.867930	0.079177	47.1342	-0.867934	-3.745309E+11	-2.114024E-13	NaN
681	1.000000	0.272693	7.37171e+06	-43039.1	1005.82	-29780.5	0.000000	0.000000	6.272853	0.045116	NaN	0.000000	0.001603	0.001787	28.0826	0.041228	0.002074	19.8752	-133.902	15.0176	0.046274	0.271307	-0.856638	-0.858024	0.045116	19.8752	-0.858341	-2.777547E+11	-1.624299E-13	NaN
681	1.000000	0.282676	7.37171e+06	-43039.1	1005.82	-29780.5	0.000000	0.000000	6.282837	0.052700	NaN	0.000000	0.001584	0.001749	28.0826	0.052844	0.002018	26.1797	-88.4855	-162.749	-0.036265	0.281369	-0.846655	-0.847962	0.052700	26.1797	-0.848165	-2.022482E+11	-2.605691E-13	NaN
681	1.000000	0.292696	7.37171e+06	-43039.1	1005.82	-29780.5	0.000000	0.000000	6.292856	0.033349	NaN	0.000000	0.001643	0.001816	28.0825	0.075841	0.002123	35.7264	100.11	17.2956	-0.005311	0.291293	-0.836635	-0.838039	0.033349	35.7264	-0.837335	-1.442751E+11	-2.311511E-13	NaN
681	1.000000	0.302675	7.37171e+06	-43039.1	1005.82	-29780.5	0.000000	0.000000	6.302832	-0.052821	NaN	0.000000	0.001670	0.001806	28.0814	0.123098	0.001990	61.8695	26.5353	-161.294	-0.031603	0.301346	-0.826656	-0.827985	-0.052821	61.8695	-0.826015	-1.013380E+11	5.212350E-13	NaN
681	1.000000	0.312679	7.37171e+06	-43039.1	1005.82	-29780.5	0.000000	0.000000	6.312837	-0.009729	NaN	0.000000	0.001668	0.001792	28.0814	0.068180	0.001937	35.1945	138.14	17.0568	0.017889	0.311363	-0.816652	-0.817968	-0.009729	35.1945	-0.816445	-7.516112E+10	1.294457E-13	NaN
681	1.000000	0.322718	7.37171e+06	-43039.1	1005.82	-29780.5	0.000000	0.000000	6.322875	-0.037178	NaN	0.000000	0.001703	0.001798	28.0812	0.023634	0.002062	11.4634	146.512	-165.709	-0.081963	0.321403	-0.806614	-0.807929	-0.037178	11.4634	-0.804181	-5.124056E+10	7.255558E-13	NaN
681	1.000000	0.332714	7.37171e+06	-43039.1	1005.82	-29780.5	0.000000	0.000000	6.332875	0.056401	NaN	0.000000	0.001642	0.001809	28.0815	0.047450	0.002006	23.6514	37.4832	15.6095	0.014163	0.331330	-0.796617	-0.798002	0.056401	23.6514	-0.798406	-4.277812E+10	-1.318451E-12	NaN
681	1.000000	0.342725	7.37171e+06	-43039.1	1005.82	-29780.5	0.000000	0.000000	6.342885	0.015035	NaN	0.000000	0.001652	0.001825	28.0815	0.099215	0.001896	52.3296	-110.959	-167.361	-0.030039	0.341375	-0.786606	-0.787956	0.015035	52.3296	-0.786821	-2.977894E+10	-5.049026E-13	NaN
681	1.000000	0.352701	7.37171e+06	-43039.1	1005.82	-29780.5	0.000000	0.000000	6.352859	-0.017587	NaN	0.000000	0.001657	0.001840	28.0816	0.034663	0.002099	16.516	112.154	15.6303	0.022106	0.351357	-0.776630	-0.777974	-0.017587	16.516	-0.775832	-2.111466E+10	8.329146E-13	NaN
681	1.000000	0.362731	7.37171e+06	-43039.1	1005.82	-29780.5	0.000000	0.000000	6.362888	-0.018545	NaN	0.000000	0.001654	0.001844	28.0817	0.039731	0.001998	19.8809	-149.33	-165.864	-0.013528	0.361415	-0.766601	-0.767916	-0.018545	19.8809	-0.765901	-1.547277E+10	1.198566E-12	NaN
681	1.000000	0.372719	7.37171e+06	-43039.1	1005.82	-29780.5	0.000000	0.000000	6.372876	-0.030854	NaN	0.000000	0.001642	0.001792	28.0816	0.046583	0.001932	24.1154	68.5675	18.6478	0.057881	0.371297	-0.756613	-0.758034	-0.030854	24.1154	-0.755653	-1.122425E+10	2.748860E-12	NaN
681	1.000000	0.382737	7.37171e+06	-43039.1	1005.82	-29780.5	0.000000	0.000000	6.382897	0.033744	NaN	0.000000	0.001603	0.001846	28.0816	0.074245	0.002033	36.5199	2.519407	-163.622	0.020277	0.381354	-0.746594	-0.747978	0.033744	36.5199	-0.747287	-8.635515E+9	-3.907606E-12	NaN
681	1.000000	0.392741	7.37171e+06	-43039.1	1005.82	-29780.5	0.000000	0.000000	6.392901	0.035321	NaN	0.000000	0.001672	0.001826	28.0814	0.058601	0.001989	29.4568	110.292	13.662	0.020387	0.391366	-0.736590	-0.737966	0.035321	29.4568	-0.737489	-6.351165E+9	-5.561307E-12	NaN
681	1.000000	0.402746	7.37171e+06	-43039.1	1005.82	-29780.5	0.000000	0.000000	6.402906	0.039528	NaN	0.000000	0.001663	0.001801	28.0815	0.026789	0.001941	13.7989	-66.6295	-162.044	0.019112	0.401423	-0.726585	-0.727909	0.039528	13.7989	-0.728733	-4.825541E+9	-8.191311E-12	NaN
681	1.000000	0.412713	7.37171e+06	-43039.1	1005.82	-29780.5	0.000000	0.000000	6.412873	0.037814	NaN	0.000000	0.001650	0.001806	28.0817	0.044647	0.001974	22.6139	-173.891	17.9703	-0.009543	0.411408	-0.716618	-0.717924	0.037814	22.6139	-0.717872	-3.431261E+9	-1.102058E-11	NaN
681	1.000000	0.422741	7.37171e+06	-43039.1	1005.82	-29780.5	0.000000	0.000000	6.422898	-0.026230	NaN	0.000000	0.001637	0.001755	28.0817	0.023232	0.001972	11.7809	-161.671	-159.53	-0.096063	0.421430	-0.706591	-0.707901	-0.026230	11.7809	-0.704921	-2.284131E+9	1.148364E-11	NaN
681	1.000000	0.432775	7.37171e+06	-43039.1	1005.82	-29780.5	0.000000	0.000000	6.432936	0.070844	NaN	0.000000	0.001607	0.001785	28.0829	0.042168	0.001977	21.331	161.147	13.0275	0.113272	0.431452	-0.696556	-0.697879	0.070844	21.331	-0.699047	-1.898974E+9	-3.730662E-11	NaN
681	1.000000	0.442726	7.37171e+06	-43039.1	1005.82	-29780.5	0.000000	0.000000	6.442888	0.090426	NaN	0.000000	0.001663	0.001755	28.0829	0.006687	0.001972	3.390727	157.264	-165.172	0.062803	0.441472	-0.686605	-0.687860	0.090426	3.390727	-0.706607	-2.408447E+9	-3.754554E-11	NaN
681	1.000000	0.452773	7.37171e+06	-43039.1	1005.82	-29780.5	0.000000	0.000000	6.452931	-0.022975	NaN	0.000000	0.001643	0.001784	28.0831	0.084157	0.002060	40.8582	-176.837	12.4114	0.002634	0.451378	-0.676558	-0.677953	-0.022975	40.8582	-0.676136	-9.233316E+8	2.488232E-11	NaN
681	1.000000	0.462776	7.37171e+06	-43039.1	1005.82	-29780.5	0.000000	0.000000	6.462936	0.029701	NaN	0.000000	0.001714	0.001739	28.0831	0.050704	0.002023	25.066	28.9898	-164.926	-0.003688	0.461440	-0.666555	-0.667892	0.029701	25.066	-0.667443	-7.020946E+8	-4.230371E-11	NaN
681	1.000000	0.472767	7.37171e+06	-43039.1	1005.82	-29780.5	0.000000	0.000000	6.472926	0.025484	NaN	0.000000	0.001696	0.001777	28.0829	0.042276	0.002076	20.3639	16.4057	15.3875	-0.085865	0.471447	-0.656565	-0.657884	0.025484	20.3639	-0.657503	-5.131756E+8	-4.966007E-11	NaN
681	1.000000	0.482782	7.37171e+06	-43039.1	1005.82	-29780.5	0.000000	0.000000	6.482941	0.004458	NaN	0.000000	0.001641	0.001768	28.0831	0.015359	0.002045	7.509201	-145.647	-165.234	0.032367	0.481445	-0.646549	-0.647887	0.004458	7.509201	-0.646994	-3.683234E+8	-1.210325E-11	NaN
681	1.000000	0.492748	7.37171e+06	-43039.1	1005.82	-29780.5	0.000000	0.000000	6.492906	-0.001501	NaN	0.000000	0.001715	0.001763	28.0831	0.034915	0.002117	16.4926	57.9953	17.6995	-0.011754	0.491400	-0.636583	-0.637931	-0.001501	16.4926	-0.636515	-2.645247E+8	5.675215E-12	NaN
681	1.000000	0.502758	7.37171e+06	-43039.1	1005.82	-29780.5	0.000000	0.000000	6.502918	0.030106	NaN	0.000000	0.001672	0.001773	28.0831	0.083563	0.002049	40.7756	-112.684	-163.375	-0.031643	0.501465	-0.626573	-0.627866	0.030106	40.7756	-0.627127	-1.965897E+8	-1.531402E-10	NaN
681	1.000000	0.512772	7.37171e+06	-43039.1	1005.82	-29780.5	0.000000	0.000000	6.512930	-0.015598	NaN	0.000000	0.001612	0.001791	28.083	0.111019	0.001986	55.8993	-3.670583	18.8987	0.044188	0.511386	-0.616559	-0.617945	-0.015598	55.8993	-0.616350	-1.397827E+8	1.115907E-10	NaN
681	1.000000	0.522794	7.37171e+06	-43039.1	1005.82	-29780.5	0.000000	0.000000	6.522954	0.016757	NaN	0.000000	0.001637	0.001815	28.0832	0.069429	0.001964	35.3578	-32.6514	-163.532	-0.056894	0.521456	-0.606537	-0.607875	0.016757	35.3578	-0.606892	-1.035977E+8	-1.617513E-10	NaN
681	1.000000	0.532808	7.37171e+06	-43039.1	1005.82	-29780.5	0.000000	0.000000	6.532968	0.034481	NaN	0.000000	0.001570	0.001798	28.0829	0.029203	0.002067	14.1296	21.2097	11.3795	-0.034119	0.531434	-0.596523	-0.597897	0.034481	14.1296	-0.598354	-7.902886E+7	-4.363139E-10	NaN
681	1.000000	0.542797	7.37171e+06	-43039.1	1005.82	-29780.5	0.000000	0.000000	6.542955	-0.010995	NaN	0.000000	0.001608	0.001765	28.0832	0.030410	0.002079	14.6246	-36.7843	-165.071	0.024738	0.541549	-0.586534	-0.587782	-0.010995	14.6246	-0.585970	-5.334589E+7	2.061106E-10	NaN
681	1.000000	0.552809	7.37171e+06	-43039.1	1005.82	-29780.5	0.000000	0.000000	6.552967	0.005257	NaN	0.000000	0.001573	0.001822	28.0829	0.088331	0.001968	44.8897	-47.4574	15.9083	-0.065035	0.551432	-0.576523	-0.577899	0.005257	44.8897	-0.576610	-3.962194E+7	-1.326790E-10	NaN
681	1.000000	0.562777	7.37171e+06	-43039.1	1005.82	-29780.5	0.000000	0.000000	6.562934	-0.042113	NaN	0.000000	0.001645	0.001761	28.0831	0.060062	0.001982	30.2983	-122.19	-162.246	-0.063224	0.561475	-0.566554	-0.567857	-0.042113	30.2983	-0.565512	-2.783545E+7	1.512928E-9	NaN
681	1.000000	0.572792	7.37171e+06	-43039.1	1005.82	-29780.5	0.000000	0.000000	6.572949	-0.047791	NaN	0.000000	0.001544	0.001771	28.0818	0.037993	0.001998	19.016	117.496	15.4534	0.009032	0.571448	-0.556539	-0.557884	-0.047791	19.016	-0.554654	-1.969699E+7	2.426297E-9	NaN
681	1.000000	0.582828	7.37171e+06	-43039.1	1005.82	-29780.5	0.000000	0.000000	6.582986	0.000295	NaN	0.000000	0.001578	0.001786	28.0817	0.151667	0.001935	78.3783	-50.7471	-165.328	0.009957	0.581491	-0.546504	-0.547840	0.000295	78.3783	-0.546506	-1.518994E+7	-1.943047E-11	NaN
681	1.000000	0.592810	7.37171e+06	-43039.1	1005.82	-29780.5	0.000000	0.000000	6.592968	0.007608	NaN	0.000000	0.001592	0.001790	28.0818	0.034694	0.001945	17.8347	-120.875	13.2212	0.079807	0.591450	-0.536522	-0.537881	0.007608	17.8347	-0.536842	-1.115695E+7	-6.819034E-10	NaN
681	1.000000	0.602795	7.37171e+06	-43039.1	1005.82	-29780.5	0.000000	0.000000	6.602954	0.010319	NaN	0.000000	0.001616	0.001769	28.0818	0.046521	0.002013	23.1101	157.072	-165.484	0.144579	0.601541	-0.526537	-0.527791	0.010319	23.1101	-0.526871	-8.11179e+06	-1.272156E-9	NaN
681	1.000000	0.612845	7.37171e+06	-43039.1	1005.82	-29780.5	0.000000	0.000000	6.613000	-0.088742	NaN	0.000000	0.001617	0.001775	28.0818	0.055622	0.001922	28.9406	-86.2357	17.763	-0.087884	0.611409	-0.516486	-0.517922	-0.088742	28.9406	-0.514187	-5.40397e+06	1.642156E-8	NaN
681	1.000000	0.622830	7.37171e+06	-43039.1	1005.82	-29780.5	0.000000	0.000000	6.622991	0.069907	NaN	0.000000	0.001609	0.001795	28.0817	0.014374	0.001827	7.866739	-174.324	-164.995	-0.020323	0.621547	-0.506502	-0.507785	0.069907	7.866739	-0.513166	-5.23009e+06	-1.336631E-8	NaN
681	1.000000	0.632847	7.37171e+06	-43039.1	1005.82	-29780.5	0.000000	0.000000	6.633008	0.036650	NaN	0.000000	0.001587	0.001770	28.0821	0.019694	0.002055	9.583864	151.484	15.1866	-0.009221	0.631459	-0.496484	-0.497872	0.036650	9.583864	-0.499352	-3.35718e+06	-1.091679E-8	NaN
681	1.000000	0.642844	7.37171e+06	-43039.1	1005.82	-29780.5	0.000000	0.000000	6.643005	0.047746	NaN	0.000000	0.001590	0.001794	28.0819	0.107370	0.002048	52.4243	-109.611	-164.869	0.108360	0.641514	-0.486487	-0.487817	0.047746	52.4243	-0.487170	-2.26902e+06	-2.104275E-8	NaN
681	1.000000	0.652861	7.37171e+06	-43039.1	1005.82	-29780.5	0.000000	0.000000	6.653020	0.022927	NaN	0.000000	0.001587	0.001782	28.0818	0.085555	0.002018	42.4011	74.1216	15.3236	0.030438	0.651503	-0.476471	-0.477828	0.022927	42.4011	-0.476876	-1.62848e+06	-1.407873E-8	NaN
681	1.000000	0.662844	7.37172e+06	-43039.1	1005.82	-29780.5	0.000000	0.000000	6.663000	-0.048236	NaN	0.000000	0.001601	0.001812	28.0816	0.116404	0.002062	56.4506	-116.734	-161.915	-0.106793	0.661552	-0.466488	-0.467780	-0.048236	56.4506	-0.465847	-1.1406e+06	4.228952E-8	NaN
681	1.000000	0.672851	7.37172e+06	-43039.1	1005.82	-29780.5	0.000000	0.000000	6.673009	-0.007595	NaN	0.000000	0.001538	0.001803	28.0816	0.060198	0.001953	30.8232	167.92	18.4704	-0.015542	0.671487	-0.456480	-0.457845	-0.007595	30.8232	-0.456295	-837410	9.070014E-9	NaN
681	1.000000	0.682848	7.37172e+06	-43039.1	1005.82	-29780.5	0.000000	0.000000	6.683009	0.060108	NaN	0.000000	0.001542	0.001765	28.0814	0.061329	0.002127	28.8291	-30.6127	-164.434	0.043442	0.681498	-0.446483	-0.447834	0.060108	28.8291	-0.448047	-640964	-9.377677E-8	NaN
681	1.000000	0.692881	7.37172e+06	-43039.1	1005.82	-29780.5	0.000000	0.000000	6.693042	0.076478	NaN	0.000000	0.001600	0.001777	28.0817	0.082371	0.001910	43.1156	62.4952	17.6792	0.018902	0.691483	-0.436451	-0.437849	0.076478	43.1156	-0.437781	-459237	-1.665328E-7	NaN
681	1.000000	0.702842	7.37172e+06	-43039.1	1005.82	-29780.5	0.000000	0.000000	6.702998	-0.061999	NaN	0.000000	0.001577	0.001770	28.0819	0.017133	0.002048	8.366541	49.6526	-166.642	0.012241	0.701534	-0.426489	-0.427798	-0.061999	8.366541	-0.420931	-265230	2.337556E-7	NaN
681	1.000000	0.712863	7.37172e+06	-43039.1	1005.82	-29780.5	0.000000	0.000000	6.713020	-0.027454	NaN	0.000000	0.001609	0.001783	28.0828	0.108778	0.002072	52.5115	102.535	13.7578	0.025797	0.711508	-0.416469	-0.417824	-0.027454	52.5115	-0.416076	-226329	1.213025E-7	NaN
681	1.000000	0.722873	7.37172e+06	-43039.1	1005.82	-29780.5	0.000000	0.000000	6.723031	-0.007202	NaN	0.000000	0.001609	0.001779	28.0826	0.084656	0.001874	45.175	-119.399	-164.731	-0.010108	0.721561	-0.406459	-0.407770	-0.007202	45.175	-0.406339	-164556	4.376383E-8	NaN
681	1.000000	0.732875	7.37172e+06	-43039.1	1005.82	-29780.5	0.000000	0.000000	6.733035	0.037323	NaN	0.000000	0.001587	0.001784	28.0828	0.086708	0.001985	43.6873	111.44	17.9202	-0.005219	0.731534	-0.396457	-0.397797	0.037323	43.6873	-0.397097	-121501	-3.071838E-7	NaN
681	1.000000	0.742895	7.37172e+06	-43039.1	1005.82	-29780.5	0.000000	0.000000	6.743056	0.039415	NaN	0.000000	0.001628	0.001781	28.0831	0.063365	0.002040	31.0637	154.612	-164.273	0.058389	0.741512	-0.386436	-0.387820	0.039415	31.0637	-0.387388	-88263.4	-4.465592E-7	NaN
681	1.000000	0.752911	7.37172e+06	-43039.1	1005.82	-29780.5	0.000000	0.000000	6.753071	0.047756	NaN	0.000000	0.001576	0.001816	28.0829	0.066477	0.002008	33.0986	-121.25	12.9462	0.037266	0.751486	-0.376420	-0.377845	0.047756	33.0986	-0.377503	-63684.3	-7.498819E-7	NaN
681	1.000000	0.762892	7.37172e+06	-43039.1	1005.82	-29780.5	0.000000	0.000000	6.763052	0.048659	NaN	0.000000	0.001557	0.001782	28.0828	0.013153	0.001920	6.849302	-9.490599	-161.754	0.041778	0.761570	-0.366439	-0.367761	0.048659	6.849302	-0.371768	-52671.5	-9.238195E-7	NaN
681	1.000000	0.772897	7.37172e+06	-43039.1	1005.82	-29780.5	0.000000	0.000000	6.773058	0.079135	NaN	0.000000	0.001591	0.001760	28.083	0.081366	0.002050	39.6987	94.3562	14.7735	0.064691	0.771507	-0.356435	-0.357824	0.079135	39.6987	-0.357930	-33258.8	-2.379367E-6	NaN
681	1.000000	0.782896	7.37172e+06	-43039.1	1005.82	-29780.5	0.000000	0.000000	6.783056	0.029060	NaN	0.000000	0.001616	0.001779	28.083	0.012072	0.002030	5.946259	141.211	-162.421	-0.001228	0.781555	-0.346435	-0.347776	0.029060	5.946259	-0.350100	-25612.8	-1.134575E-6	NaN
681	1.000000	0.792895	7.37172e+06	-43039.1	1005.82	-29780.5	0.000000	0.000000	6.793055	0.054540	NaN	0.000000	0.001584	0.001767	28.0829	0.019026	0.001992	9.551561	-94.4014	17.773	0.076942	0.791552	-0.336437	-0.337779	0.054540	9.551561	-0.340719	-18708.3	-2.915263E-6	NaN
681	1.000000	0.802921	7.37172e+06	-43039.1	1005.82	-29780.5	0.000000	0.000000	6.803079	-0.016430	NaN	0.000000	0.001610	0.001746	28.0828	0.024662	0.001949	12.6541	-58.6714	-167.605	-0.010174	0.801606	-0.326410	-0.327726	-0.016430	12.6541	-0.325437	-11182.7	1.469204E-6	NaN
681	1.000000	0.812913	7.37172e+06	-43039.1	1005.82	-29780.5	0.000000	0.000000	6.813070	-0.038902	NaN	0.000000	0.001612	0.001794	28.0831	0.005426	0.001909	2.843045	-83.2423	14.3705	0.073648	0.811494	-0.316418	-0.317837	-0.038902	2.843045	-0.306156	-5809.03	6.696835E-6	NaN
681	1.000000	0.822921	7.37172e+06	-43039.1	1005.82	-29780.5	0.000000	0.000000	6.823081	0.034226	NaN	0.000000	0.001616	0.001770	28.0828	0.092616	0.001956	47.354	150.453	-166.815	0.069288	0.821601	-0.306411	-0.307730	0.034226	47.354	-0.306953	-5969.24	-5.733725E-6	NaN
681	1.000000	0.832893	7.37172e+06	-43039.1	1005.82	-29780.5	0.000000	0.000000	6.833054	0.055330	NaN	0.000000	0.001597	0.001807	28.083	0.122604	0.001850	66.2779	80.5455	15.1147	0.007534	0.831579	-0.296438	-0.297752	0.055330	66.2779	-0.297064	-4254.96	-1.300358E-5	NaN
681	1.000000	0.842927	7.37172e+06	-43039.1	1005.82	-29780.5	0.000000	0.000000	6.843085	-0.013815	NaN	0.000000	0.001559	0.001749	28.0818	0.072457	0.001993	36.3594	72.3891	-167.632	0.002900	0.841545	-0.286404	-0.287786	-0.013815	36.3594	-0.286119	-2917.98	4.734373E-6	NaN
681	1.000000	0.852946	7.37172e+06	-43039.1	1005.82	-29780.5	0.000000	0.000000	6.853102	-0.052409	NaN	0.000000	0.001575	0.001730	28.0817	0.062502	0.002087	29.9471	120.153	10.9071	0.033742	0.851589	-0.276386	-0.277742	-0.052409	29.9471	-0.275073	-1988.41	2.635735E-5	NaN
681	1.000000	0.862921	7.37172e+06	-43039.1	1005.82	-29780.5	0.000000	0.000000	6.863083	0.089225	NaN	0.000000	0.001587	0.001778	28.0819	0.073758	0.002169	34.0027	-105.114	-166.218	0.076868	0.861639	-0.266410	-0.267693	0.089225	34.0027	-0.268379	-1573.55	-5.670316E-5	NaN
681	1.000000	0.872932	7.37172e+06	-43039.1	1005.82	-29780.5	0.000000	0.000000	6.873093	0.067383	NaN	0.000000	0.001561	0.001791	28.0818	0.050299	0.002065	24.3544	-67.6773	19.512	0.026408	0.871577	-0.256399	-0.257755	0.067383	24.3544	-0.258475	-1110.51	-6.067766E-5	NaN
681	1.000000	0.882936	7.37172e+06	-43039.1	1005.82	-29780.5	0.000000	0.000000	6.883093	-0.037472	NaN	0.000000	0.001615	0.001770	28.082	0.118842	0.001909	62.2472	-124.911	-164.45	0.140440	0.881678	-0.246395	-0.247654	-0.037472	62.2472	-0.245943	-711.388	5.267428E-5	NaN
681	1.000000	0.892957	7.37172e+06	-43039.1	1005.82	-29780.5	0.000000	0.000000	6.893116	0.018959	NaN	0.000000	0.001594	0.001782	28.0816	0.106107	0.002019	52.5585	145.007	13.3472	0.076148	0.891587	-0.236374	-0.237745	0.018959	52.5585	-0.236645	-509.395	-3.721930E-5	NaN
681	1.000000	0.902957	7.37172e+06	-43039.1	1005.82	-29780.5	0.000000	0.000000	6.903113	-0.058233	NaN	0.000000	0.001622	0.001785	28.0818	0.056895	0.001953	29.1377	-172.151	-163.624	-0.018220	0.901593	-0.226374	-0.227738	-0.058233	29.1377	-0.224875	-332.165	0.000175	NaN
681	1.000000	0.912940	7.37172e+06	-43039.1	1005.82	-29780.5	0.000000	0.000000	6.913098	-0.028728	NaN	0.000000	0.001592	0.001786	28.0818	0.108569	0.002159	50.285	50.1767	15.5127	-0.032471	0.911611	-0.216391	-0.217720	-0.028728	50.285	-0.215963	-239.324	0.000120	NaN
681	1.000000	0.922924	7.37172e+06	-43039.1	1005.82	-29780.5	0.000000	0.000000	6.923085	0.058648	NaN	0.000000	0.001588	0.001775	28.0819	0.031549	0.001853	17.0254	126.538	-164.008	-0.014795	0.921618	-0.206407	-0.207713	0.058648	17.0254	-0.208991	-184.7	-0.000318	NaN
681	1.000000	0.932967	7.37172e+06	-43039.1	1005.82	-29780.5	0.000000	0.000000	6.933126	0.011145	NaN	0.000000	0.001630	0.001758	28.0818	0.078077	0.001878	41.5684	-38.7888	15.6109	0.064050	0.931595	-0.196365	-0.197737	0.011145	41.5684	-0.196566	-115.64	-9.637711E-5	NaN
681	1.000000	0.942948	7.37172e+06	-43039.1	1005.82	-29780.5	0.000000	0.000000	6.943111	0.110114	NaN	0.000000	0.001600	0.001774	28.0819	0.038711	0.001949	19.8668	-133.395	-163.521	0.070745	0.941647	-0.186384	-0.187685	0.110114	19.8668	-0.190541	-91.8445	-0.001199	NaN
681	1.000000	0.952974	7.37172e+06	-43039.1	1005.82	-29780.5	0.000000	0.000000	6.953133	0.015173	NaN	0.000000	0.001578	0.001771	28.0827	0.046198	0.001996	23.1401	-71.508	13.1908	0.101441	0.951586	-0.176357	-0.177745	0.015173	23.1401	-0.176849	-53.9133	-0.000281	NaN
681	1.000000	0.962984	7.37172e+06	-43039.1	1005.82	-29780.5	0.000000	0.000000	6.963143	0.003702	NaN	0.000000	0.001555	0.001754	28.0821	0.043540	0.001911	22.7891	-23.2574	-164.843	-0.024670	0.961661	-0.166347	-0.167670	0.003702	22.7891	-0.166469	-35.6496	-0.000104	NaN
681	1.000000	0.972956	7.37172e+06	-43039.1	1005.82	-29780.5	0.000000	0.000000	6.973115	0.011895	NaN	0.000000	0.001593	0.001745	28.0817	0.121005	0.001920	63.0204	-141.389	18.332	0.038985	0.971628	-0.156375	-0.157703	0.011895	63.0204	-0.156517	-23.7588	-0.000501	NaN
681	1.000000	0.982978	7.37172e+06	-43039.1	1005.82	-29780.5	0.000000	0.000000	6.983138	0.033915	NaN	0.000000	0.001611	0.001783	28.0833	0.074696	0.002033	36.7442	2.878929	-165.463	0.048113	0.981685	-0.146353	-0.147647	0.033915	36.7442	-0.147045	-15.9915	-0.002121	NaN
681	1.000000	0.992968	7.37172e+06	-43039.1	1005.82	-29780.5	0.000000	0.000000	6.993125	-0.026779	NaN	0.000000	0.001575	0.001780	28.0832	0.086303	0.002000	43.1571	15.7453	12.931	0.014612	0.991600	-0.136363	-0.137731	-0.026779	43.1571	-0.135898	-9.894866	0.002706	NaN
681	1.000000	1.002996	7.37172e+06	-43039.1	1005.82	-29780.5	0.000000	0.000000	7.003155	0.028122	NaN	0.000000	0.001573	0.001806	28.0832	0.098618	0.001937	50.9047	-133.191	-162.153	0.085907	1.001661	-0.126336	-0.127671	0.028122	50.9047	-0.126750	-6.584229	-0.004271	NaN
681	1.000000	1.013020	7.37172e+06	-43039.1	1005.82	-29780.5	0.000000	0.000000	7.013177	-0.045575	NaN	0.000000	0.001598	0.001770	28.0829	0.127677	0.001980	64.4725	-138.236	12.8072	0.007156	1.011619	-0.116311	-0.117713	-0.045575	64.4725	-0.115781	-3.964330	0.011496	NaN
681	1.000000	1.022976	7.37172e+06	-43039.1	1005.82	-29780.5	0.000000	0.000000	7.023135	0.008104	NaN	0.000000	0.001641	0.001788	28.0829	0.051168	0.001969	25.9918	-121.362	-165.881	-0.044351	1.021704	-0.106355	-0.107627	0.008104	25.9918	-0.106589	-2.543099	-0.003187	NaN
681	1.000000	1.033025	7.37172e+06	-43039.1	1005.82	-29780.5	0.000000	0.000000	7.033181	-0.065283	NaN	0.000000	0.001605	0.001806	28.0832	0.081712	0.002012	40.6063	-66.5214	12.1152	-0.039276	1.031647	-0.096307	-0.097685	-0.065283	40.6063	-0.095101	-1.418108	0.046035	NaN
681	1.000000	1.043029	7.37172e+06	-43039.1	1005.82	-29780.5	0.000000	0.000000	7.043188	0.008193	NaN	0.000000	0.001612	0.001814	28.0831	0.058144	0.001918	30.3176	-143.879	-165.958	-0.024691	1.041654	-0.086303	-0.087677	0.008193	30.3176	-0.086505	-0.893177	-0.009173	NaN
681	1.000000	1.052994	7.37172e+06	-43039.1	1005.82	-29780.5	0.000000	0.000000	7.053152	-0.003296	NaN	0.000000	0.001630	0.001824	28.083	0.112335	0.002023	55.5429	-61.1338	19.0199	0.020775	1.051682	-0.076338	-0.077649	-0.003296	55.5429	-0.076293	-0.498682	0.006610	NaN
681	1.000000	1.062990	7.37172e+06	-43039.1	1005.82	-29780.5	0.000000	0.000000	7.063149	-0.011939	NaN	0.000000	0.001643	0.001803	28.0832	0.037225	0.001980	18.8035	144.747	-163.395	-0.004413	1.061712	-0.066341	-0.067620	-0.011939	18.8035	-0.065865	-0.263322	0.045339	NaN
681	1.000000	1.073021	7.37172e+06	-43039.1	1005.82	-29780.5	0.000000	0.000000	7.073179	-0.027471	NaN	0.000000	0.001620	0.001808	28.0831	0.048571	0.002016	24.0938	-138.058	17.6417	-0.085589	1.071694	-0.056310	-0.057637	-0.027471	24.0938	-0.055455	-0.132821	0.206828	NaN
681	1.000000	1.083003	7.37172e+06	-43039.1	1005.82	-29780.5	0.000000	0.000000	7.083164	0.042285	NaN	0.000000	0.001632	0.001823	28.0831	0.020401	0.002023	10.084	44.5567	-163.584	0.097678	1.081801	-0.046328	-0.047530	0.042285	10.084	-0.049473	-0.087958	-0.480736	NaN
681	1.000000	1.093010	7.37172e+06	-43039.1	1005.82	-29780.5	0.000000	0.000000	7.093170	0.033192	NaN	0.000000	0.001612	0.001778	28.083	0.068561	0.002034	33.7055	-37.1192	16.7252	-0.006328	1.091632	-0.036321	-0.037699	0.033192	33.7055	-0.037060	-0.036868	-0.900291	NaN
681	1.000000	1.103044	7.37172e+06	-43039.1	1005.82	-29780.5	0.000000	0.000000	7.103206	0.084603	NaN	0.000000	0.001607	0.001765	28.0834	0.034652	0.002006	17.276	-51.4168	-165.093	0.087776	1.101713	-0.026287	-0.027618	0.084603	17.276	-0.029960	-0.022954	-3.685800	NaN
681	1.000000	1.113016	7.37172e+06	-43039.1	1005.82	-29780.5	0.000000	0.000000	7.113173	-0.023646	NaN	0.000000	0.001614	0.001787	28.0827	0.101043	0.001903	53.1102	85.0885	15.0677	0.023373	1.111628	-0.016315	-0.017703	-0.023646	53.1102	-0.015981	-0.009872	2.395317	NaN
681	1.000000	1.123033	7.37172e+06	-43039.1	1005.82	-29780.5	0.000000	0.000000	7.123190	-0.029408	NaN	0.000000	0.001609	0.001778	28.0819	0.076520	0.002039	37.5312	111.144	-164.152	0.013183	1.121734	-0.006299	-0.007598	-0.029408	37.5312	-0.005711	-0.003859	7.620755	NaN
681	1.000000	1.133024	7.37172e+06	-43039.1	1005.82	-29780.5	0.000000	0.000000	7.133421	5.793824	NaN	0.000000	0.001618	0.001818	28.0819	5.697807	0.001689	3372.68	7.761581	16.1173	4.345922	1.131636	0.003693	0.002305	5.793824	3372.68	0.002405	0.001885	3074.17	70978.8
681	2.000000	1.138524	7.37172e+06	-43039.1	1005.82	-29780.5	0.000000	0.000000	7.139165	11.7454	NaN	0.000000	0.001641	0.001769	28.0822	10.5565	0.001631	6470.79	7.760560	-173.237	11.1439	1.138238	0.009193	0.008907	11.7454	6470.79	0.007831	0.006869	1709.79	71329.3
681	2.000000	1.141021	7.37172e+06	-43039.1	1005.82	-29780.5	0.000000	0.000000	7.141801	15.1334	NaN	0.000000	0.001603	0.001778	28.0817	13.6784	0.001880	7277.15	10.1454	5.455222	15.2427	1.140662	0.011689	0.011331	15.1334	7277.15	0.010130	0.009326	1622.71	68847.2
681	2.000000	1.143484	7.37172e+06	-43039.1	1005.82	-29780.5	0.000000	0.000000	7.144422	18.9465	NaN	0.000000	0.001587	0.001789	28.0817	16.2624	0.001893	8589.91	8.684713	-175.258	19.1856	1.143208	0.014153	0.013877	18.9465	8589.91	0.012499	0.012093	1566.71	71366
681	2.000000	1.145988	7.37172e+06	-43039.1	1005.82	-29780.5	0.000000	0.000000	7.147250	26.8327	NaN	0.000000	0.001605	0.001777	28.0817	18.1658	0.001709	10627.5	8.589543	2.759823	27.3022	1.145615	0.016657	0.016284	26.8327	10627.5	0.014764	0.014971	1792.25	79354.3
681	2.000000	1.148433	7.37172e+06	-43039.1	1005.82	-29780.5	0.000000	0.000000	7.149918	32.2819	NaN	0.000000	0.001567	0.001779	28.0819	20.9279	0.001728	12109.2	3.147765	-174.65	31.7064	1.148138	0.019102	0.018807	32.2819	12109.2	0.017102	0.018192	1774.53	82025.9
681	2.000000	1.150949	7.37172e+06	-43039.1	1005.82	-29780.5	0.000000	0.000000	7.152654	37.6245	NaN	0.000000	0.001550	0.001711	28.0818	24.3064	0.001869	13004.1	5.256270	4.155939	37.6096	1.150622	0.021618	0.021291	37.6245	13004.1	0.019448	0.021682	1735.27	80686.8
681	2.000000	1.153464	7.37172e+06	-43039.1	1005.82	-29780.5	0.000000	0.000000	7.155501	45.6957	NaN	0.000000	0.001577	0.001748	28.0819	27.516	0.001867	14741.2	8.570775	178.295	45.8667	1.153107	0.024133	0.023775	45.6957	14741.2	0.021808	0.025464	1794.53	84399.9
681	2.000000	1.155998	7.37172e+06	-43039.1	1005.82	-29780.5	0.000000	0.000000	7.158244	50.791	NaN	0.000000	0.001614	0.001738	28.0819	29.1459	0.001764	16524.6	8.886595	-1.210227	53.3445	1.155531	0.026667	0.026199	50.791	16524.6	0.024362	0.029864	1700.72	87363
681	2.000000	1.158366	7.37172e+06	-43039.1	1005.82	-29780.5	0.000000	0.000000	7.161114	62.999	NaN	0.000000	0.001623	0.001709	28.0818	30.5179	0.001765	17295.2	2.737310	-176.375	60.6346	1.158129	0.029035	0.028797	62.999	17295.2	0.026303	0.033429	1884.56	86424.8
681	2.000000	1.160932	7.37172e+06	-43039.1	1005.82	-29780.5	0.000000	0.000000	7.163830	66.6438	NaN	0.000000	0.001593	0.001697	28.0818	34.2399	0.001832	18692.7	6.476482	-1.455440	65.7387	1.160638	0.031601	0.031306	66.6438	18692.7	0.028927	0.038549	1728.8	86983.6
681	2.000000	1.163439	7.37172e+06	-43039.1	1005.82	-29780.5	0.000000	0.000000	7.166708	75.6805	NaN	0.000000	0.001575	0.001706	28.0819	36.4898	0.001843	19803.5	4.864117	-179.956	74.1833	1.163151	0.034107	0.033819	75.6805	19803.5	0.031241	0.043355	1745.59	86894.6
681	2.000000	1.165916	7.37172e+06	-43039.1	1005.82	-29780.5	0.000000	0.000000	7.169673	87.5463	NaN	0.000000	0.001580	0.001733	28.0831	38.732	0.001817	21315.7	8.361244	-3.792263	84.8308	1.165547	0.036585	0.036216	87.5463	21315.7	0.033504	0.048321	1811.77	88594.1
681	2.000000	1.168444	7.37172e+06	-43039.1	1005.82	-29780.5	0.000000	0.000000	7.172554	96.1543	NaN	0.000000	0.001581	0.001707	28.0833	41.0093	0.001756	23358.1	4.349985	178.899	98.7693	1.168194	0.039112	0.038863	96.1543	23358.1	0.036025	0.054160	1775.39	91700.8
681	2.000000	1.170890	7.37172e+06	-43039.1	1005.82	-29780.5	0.000000	0.000000	7.175517	108.72	NaN	0.000000	0.001562	0.001740	28.0832	43.5572	0.001673	26031.1	4.451472	-2.747464	106.487	1.170560	0.041558	0.041228	108.72	26031.1	0.038426	0.060024	1811.28	97074.5
681	2.000000	1.173433	7.37172e+06	-43039.1	1005.82	-29780.5	0.000000	0.000000	7.178572	121.179	NaN	0.000000	0.001565	0.001717	28.0833	46.8923	0.001814	25853.5	7.747662	175.183	121.481	1.173059	0.044101	0.043728	121.179	25853.5	0.040586	0.065552	1848.6	92257.4
681	2.000000	1.175854	7.37172e+06	-43039.1	1005.82	-29780.5	0.000000	0.000000	7.181496	133.397	NaN	0.000000	0.001564	0.001768	28.0833	48.674	0.001821	26726.8	5.430078	-3.527032	129.427	1.175480	0.046523	0.046149	133.397	26726.8	0.042780	0.071409	1868.06	91378.3
681	2.000000	1.178371	7.37172e+06	-43039.1	1005.82	-29780.5	0.000000	0.000000	7.184510	145.507	NaN	0.000000	0.001579	0.001685	28.0832	50.5984	0.001657	30541.2	6.962784	173.17	145.028	1.178116	0.049040	0.048785	145.507	30541.2	0.045467	0.078919	1843.76	99327.6
681	2.000000	1.180939	7.37172e+06	-43039.1	1005.82	-29780.5	0.000000	0.000000	7.187497	155.716	NaN	0.000000	0.001553	0.001707	28.083	53.6994	0.001754	30607.7	7.885995	-6.952725	158.34	1.180437	0.051607	0.051106	155.716	30607.7	0.047792	0.085710	1816.77	95518.5
681	2.000000	1.183322	7.37172e+06	-43039.1	1005.82	-29780.5	0.000000	0.000000	7.190537	171.671	NaN	0.000000	0.001569	0.001709	28.0834	56.6791	0.001719	32969.6	5.931796	173.255	167.706	1.183098	0.053991	0.053766	171.671	32969.6	0.050086	0.092678	1852.33	98945.9
681	2.000000	1.185758	7.37172e+06	-43039.1	1005.82	-29780.5	0.000000	0.000000	7.193450	183.301	NaN	0.000000	0.001621	0.001684	28.0832	58.0802	0.001835	31645.3	4.598430	-3.571772	175.438	1.185550	0.056427	0.056219	183.301	31645.3	0.052082	0.098958	1852.3	91908.5
681	2.000000	1.188415	7.37172e+06	-43039.1	1005.82	-29780.5	0.000000	0.000000	7.196701	197.745	NaN	0.000000	0.001600	0.001712	28.0831	60.8731	0.001781	34178.2	5.214343	174.491	198.936	1.188101	0.059084	0.058769	197.745	34178.2	0.054744	0.107640	1837.1	95177.8
681	2.000000	1.190870	7.37172e+06	-43039.1	1005.82	-29780.5	0.000000	0.000000	7.199928	216.533	NaN	0.000000	0.001591	0.001717	28.0832	64.0058	0.001821	35151.3	6.462513	-6.904398	214.039	1.190457	0.061539	0.061126	216.533	35151.3	0.056919	0.114991	1883.04	94707
681	2.000000	1.193360	7.37172e+06	-43039.1	1005.82	-29780.5	0.000000	0.000000	7.203161	234.612	NaN	0.000000	0.001576	0.001690	28.0833	65.8674	0.001715	38395.5	4.643532	174.647	233.225	1.193045	0.064029	0.063714	234.612	38395.5	0.059446	0.123829	1894.65	99687.9
681	2.000000	1.195832	7.37172e+06	-43039.1	1005.82	-29780.5	0.000000	0.000000	7.206206	248.542	NaN	0.000000	0.001562	0.001699	28.083	67.6484	0.001685	40154.7	3.022868	-4.569245	242.826	1.195567	0.066501	0.066236	248.542	40154.7	0.061858	0.132557	1874.99	100765
681	2.000000	1.198295	7.37172e+06	-43039.1	1005.82	-29780.5	0.000000	0.000000	7.209567	270.374	NaN	0.000000	0.001598	0.001686	28.083	70.4496	0.001736	40570.1	9.289542	170.065	267.086	1.197819	0.068964	0.068488	270.374	40570.1	0.063966	0.140413	1925.57	98918.2
681	2.000000	1.200818	7.37172e+06	-43039.1	1005.82	-29780.5	0.000000	0.000000	7.212672	284.552	NaN	0.000000	0.001573	0.001712	28.082	73.7671	0.001788	41267.5	5.104185	-6.561533	280.912	1.200567	0.071487	0.071235	284.552	41267.5	0.066315	0.149422	1904.35	97538.1
681	2.000000	1.203279	7.37172e+06	-43039.1	1005.82	-29780.5	0.000000	0.000000	7.215653	297.203	NaN	0.000000	0.001601	0.001659	28.082	76.5602	0.001796	42624.9	3.875201	174.054	290.763	1.203003	0.073948	0.073672	297.203	42624.9	0.068718	0.158914	1870.22	97691.4
681	2.000000	1.205824	7.37172e+06	-43039.1	1005.82	-29780.5	0.000000	0.000000	7.219216	321.979	NaN	0.000000	0.001632	0.001687	28.082	78.805	0.001800	43786.6	6.338461	-8.259777	316.923	1.205392	0.076493	0.076061	321.979	43786.6	0.070978	0.168089	1915.53	97576.4
681	2.000000	1.208425	7.37172e+06	-43039.1	1005.82	-29780.5	0.000000	0.000000	7.222630	341.758	NaN	0.000000	0.001625	0.001703	28.0817	80.786	0.001870	43197.9	7.923934	170.559	346.222	1.208046	0.079094	0.078715	341.758	43197.9	0.073160	0.177181	1928.86	93762.1
681	2.000000	1.210836	7.37172e+06	-43039.1	1005.82	-29780.5	0.000000	0.000000	7.225919	363.111	NaN	0.000000	0.001636	0.001686	28.0831	82.8157	0.001830	45265.4	2.382102	-4.750084	359.515	1.210452	0.081505	0.081121	363.111	45265.4	0.075488	0.187127	1940.45	95602.8
681	2.000000	1.213445	7.37172e+06	-43039.1	1005.82	-29780.5	0.000000	0.000000	7.229150	378.235	NaN	0.000000	0.001616	0.001707	28.0819	85.7409	0.001776	48281.1	6.443018	170.685	383.256	1.213125	0.084114	0.083794	378.235	48281.1	0.078239	0.199207	1898.7	98832
681	2.000000	1.215906	7.37172e+06	-43039.1	1005.82	-29780.5	0.000000	0.000000	7.232784	406.789	NaN	0.000000	0.001622	0.001671	28.0823	86.3879	0.001744	49534.6	5.721504	-7.809608	405.334	1.215462	0.086575	0.086130	406.789	49534.6	0.080415	0.209018	1946.19	98989.6
681	2.000000	1.218354	7.37172e+06	-43039.1	1005.82	-29780.5	0.000000	0.000000	7.236257	431.725	NaN	0.000000	0.001562	0.001682	28.0819	89.3593	0.001716	52089.3	4.505912	172.241	432.309	1.218001	0.089022	0.088670	431.725	52089.3	0.082806	0.220047	1961.96	101453
681	2.000000	1.220797	7.37172e+06	-43039.1	1005.82	-29780.5	0.000000	0.000000	7.239487	450.865	NaN	0.000000	0.001589	0.001690	28.0826	92.95	0.001836	50622.1	8.789283	-10.885	446.686	1.220381	0.091466	0.091050	450.865	50622.1	0.084786	0.229381	1965.57	96568.2
681	2.000000	1.223231	7.37172e+06	-43039.1	1005.82	-29780.5	0.000000	0.000000	7.242946	475.799	NaN	0.000000	0.001591	0.001691	28.0818	94.972	0.001870	50778.9	2.670872	174.822	469.339	1.222996	0.093900	0.093665	475.799	50778.9	0.086873	0.239416	1987.33	94815.8
681	2.000000	1.225769	7.37172e+06	-43039.1	1005.82	-29780.5	0.000000	0.000000	7.246214	493.573	NaN	0.000000	0.001601	0.001694	28.0821	96.6967	0.001756	55052.7	3.671713	-7.223647	486.29	1.225537	0.096438	0.096205	493.573	55052.7	0.089714	0.253402	1947.79	99918.8
681	2.000000	1.228317	7.37172e+06	-43039.1	1005.82	-29780.5	0.000000	0.000000	7.249933	522.063	NaN	0.000000	0.001577	0.001688	28.0818	98.6515	0.001710	57695.7	4.929745	171.155	522.516	1.228000	0.098986	0.098668	522.063	57695.7	0.092200	0.265940	1963.09	102217
681	2.000000	1.230753	7.37172e+06	-43039.1	1005.82	-29780.5	0.000000	0.000000	7.253314	545.064	NaN	0.000000	0.001612	0.001686	28.0823	101.426	0.001785	56833	1.685555	-5.133901	538.819	1.230309	0.101421	0.100978	545.064	56833	0.094228	0.276382	1972.14	98768.6
681	2.000000	1.233416	7.37172e+06	-43039.1	1005.82	-29780.5	0.000000	0.000000	7.257108	572.588	NaN	0.000000	0.001588	0.001678	28.0823	103.885	0.001678	61921.5	2.227642	173.881	574.046	1.232977	0.104084	0.103646	572.588	61921.5	0.097149	0.291747	1962.62	104740
681	2.000000	1.235379	7.37172e+06	-43039.1	1005.82	-29780.5	0.000000	0.000000	7.259604	585.549	NaN	0.000000	0.001548	0.001682	28.0833	104.735	0.001740	60187.8	3.823726	172.051	590.13	1.235047	0.106048	0.105716	585.549	60187.8	0.098751	0.300340	1949.62	100340