File: remote_trans/data/nanoindenter/0828-1/data/Data_2025-08-06,11h17m57s/2025-07-22_16-23-58_1_442.txt
2025-07-22, 16:23:58, 1
Index	Phase	Displacement	Time	Pos X	Pos Y	Pos Z	Rot A	Rot B	Piezo Z	Force A	Force B	Gripper	Voltage A	Voltage B	Temperature	Amplitude force	Amplitude pos	Stiffness	Phase shift	Phase excitation	Force A raw	Displacement raw	HMax	HMax raw	Real Force	Real Stiffness	Contact Depth	Area	Hardness	Reduced Mod.
[#]	[#]	[um]	[s]	[um]	[um]	[um]	[m°]	[m°]	[um]	[uN]	[uN]	[V]	[V]	[V]	[°C]	[uN]	[um]	[N/m]	[°]	[°]	[uN]	[um]	[um]	[um]	[uN]	[N/m]	[um]	[um^2]	[MPa]	[MPa]
442	1.000000	0.002142	7.36938e+06	-54989.1	1005.82	-29742.6	0.000000	0.000000	6.002802	-0.004597	NaN	0.000000	0.001741	0.001687	28.0805	0.068961	0.001015	67.9542	-42.4032	-160.841	-0.023012	0.000906	-1.115868	-1.117104	-0.004597	67.9542	-1.115818	-8.172479E+14	5.625513E-18	NaN
442	1.000000	0.012181	7.36938e+06	-54989.1	1005.82	-29742.6	0.000000	0.000000	6.012842	0.015763	NaN	0.000000	0.001715	0.001682	28.0804	0.088150	0.001257	70.1491	-95.2408	19.5184	-0.086292	0.010714	-1.105829	-1.107296	0.015763	70.1491	-1.105998	-6.033574E+14	-2.612622E-17	NaN
442	1.000000	0.022081	7.36938e+06	-54989.1	1005.82	-29742.6	0.000000	0.000000	6.022742	0.006648	NaN	0.000000	0.001689	0.001659	28.0802	0.055810	0.001846	30.2295	116.204	-168.313	0.019778	0.020823	-1.095929	-1.097187	0.006648	30.2295	-1.096094	-4.442546E+14	-1.496400E-17	NaN
442	1.000000	0.032087	7.36938e+06	-54989.1	1005.82	-29742.6	0.000000	0.000000	6.032750	0.058573	NaN	0.000000	0.001687	0.001634	28.0803	0.073166	0.002012	36.363	-65.7976	15.2032	-0.076595	0.030746	-1.085923	-1.087264	0.058573	36.363	-1.087131	-3.367355E+14	-1.739433E-16	NaN
442	1.000000	0.042091	7.36938e+06	-54989.1	1005.82	-29742.6	0.000000	0.000000	6.042751	0.006610	NaN	0.000000	0.001700	0.001673	28.0805	0.019692	0.001822	10.81	-53.4307	-165.229	0.039406	0.040822	-1.075919	-1.077188	0.006610	10.81	-1.076378	-2.414730E+14	-2.737419E-17	NaN
442	1.000000	0.052085	7.36938e+06	-54989.1	1005.82	-29742.6	0.000000	0.000000	6.052747	0.041959	NaN	0.000000	0.001696	0.001663	28.081	0.016274	0.001853	8.782011	-87.3335	15.0363	0.001532	0.050746	-1.065925	-1.067264	0.041959	8.782011	-1.069509	-1.952486E+14	-2.148982E-16	NaN
442	1.000000	0.062087	7.36938e+06	-54989.1	1005.82	-29742.6	0.000000	0.000000	6.062750	0.059123	NaN	0.000000	0.001705	0.001666	28.0804	0.035588	0.002033	17.5085	-153.673	-167.148	0.052372	0.060768	-1.055923	-1.057242	0.059123	17.5085	-1.058455	-1.386956E+14	-4.262773E-16	NaN
442	1.000000	0.072090	7.36938e+06	-54989.1	1005.82	-29742.6	0.000000	0.000000	6.072751	0.015402	NaN	0.000000	0.001717	0.001644	28.0817	0.041564	0.001998	20.7999	55.8074	14.5847	-0.008462	0.070719	-1.045920	-1.047291	0.015402	20.7999	-1.046475	-9.572567E+13	-1.608960E-16	NaN
442	1.000000	0.082126	7.36938e+06	-54989.1	1005.82	-29742.6	0.000000	0.000000	6.082783	-0.067316	NaN	0.000000	0.001687	0.001631	28.0817	0.099312	0.001995	49.7699	-70.3086	-162.22	0.019914	0.080848	-1.035884	-1.037162	-0.067316	49.7699	-1.034870	-6.683115E+13	1.007252E-15	NaN
442	1.000000	0.092085	7.36938e+06	-54989.1	1005.82	-29742.6	0.000000	0.000000	6.092746	0.007828	NaN	0.000000	0.001678	0.001655	28.0822	0.021075	0.001949	10.8143	-164.639	15.4525	-0.070104	0.090745	-1.025925	-1.027265	0.007828	10.8143	-1.026468	-5.151938E+13	-1.519525E-16	NaN
442	1.000000	0.102107	7.36938e+06	-54989.1	1005.82	-29742.6	0.000000	0.000000	6.102768	0.006757	NaN	0.000000	0.001687	0.001654	28.0816	0.066907	0.001846	36.2517	-81.299	-164.762	0.009503	0.100844	-1.015903	-1.017166	0.006757	36.2517	-1.016043	-3.729960E+13	-1.811659E-16	NaN
442	1.000000	0.112107	7.36938e+06	-54989.1	1005.82	-29742.6	0.000000	0.000000	6.112765	-0.048150	NaN	0.000000	0.001708	0.001647	28.0817	0.037673	0.002072	18.1799	36.6405	19.4509	0.108552	0.110781	-1.005903	-1.007229	-0.048150	18.1799	-1.003917	-2.561540E+13	1.879711E-15	NaN
442	1.000000	0.122116	7.36938e+06	-54989.1	1005.82	-29742.6	0.000000	0.000000	6.122774	-0.072298	NaN	0.000000	0.001596	0.001685	28.0817	0.073724	0.001822	40.4554	-119.701	-167.11	-0.108411	0.120834	-0.995894	-0.997176	-0.072298	40.4554	-0.994553	-1.916164E+13	3.773069E-15	NaN
442	1.000000	0.132128	7.36938e+06	-54989.1	1005.82	-29742.6	0.000000	0.000000	6.132787	-0.024601	NaN	0.000000	0.001621	0.001678	28.0817	0.066583	0.001939	34.3351	-73.6157	16.4794	0.013062	0.130756	-0.985882	-0.987254	-0.024601	34.3351	-0.985345	-1.440155E+13	1.708203E-15	NaN
442	1.000000	0.142118	7.36938e+06	-54989.1	1005.82	-29742.6	0.000000	0.000000	6.142778	-0.013789	NaN	0.000000	0.001604	0.001709	28.0817	0.084188	0.001822	46.1974	119.238	-162.586	0.045002	0.140851	-0.975892	-0.977159	-0.013789	46.1974	-0.975668	-1.066709E+13	1.292633E-15	NaN
442	1.000000	0.152121	7.36938e+06	-54989.1	1005.82	-29742.6	0.000000	0.000000	6.152782	-0.004812	NaN	0.000000	0.001575	0.001703	28.0818	0.032088	0.001968	16.3069	90.5436	16.7211	-0.011581	0.150800	-0.965889	-0.967210	-0.004812	16.3069	-0.965667	-7.821073E+12	6.152277E-16	NaN
442	1.000000	0.162144	7.36938e+06	-54989.1	1005.82	-29742.6	0.000000	0.000000	6.162802	-0.037835	NaN	0.000000	0.001614	0.001709	28.0817	0.147852	0.001829	80.8506	-140.619	-165.898	-0.012141	0.160841	-0.955866	-0.957169	-0.037835	80.8506	-0.955515	-5.706939E+12	6.629652E-15	NaN
442	1.000000	0.172167	7.36938e+06	-54989.1	1005.82	-29742.6	0.000000	0.000000	6.172828	-0.008306	NaN	0.000000	0.001619	0.001684	28.0816	0.038841	0.001993	19.4854	135.336	15.9386	0.038629	0.170753	-0.945842	-0.947257	-0.008306	19.4854	-0.945523	-4.184467E+12	1.985008E-15	NaN
442	1.000000	0.182126	7.36938e+06	-54989.1	1005.82	-29742.6	0.000000	0.000000	6.182786	-0.006538	NaN	0.000000	0.001633	0.001765	28.0819	0.120502	0.001831	65.8106	-116.536	-165.501	-0.003998	0.180789	-0.935884	-0.937221	-0.006538	65.8106	-0.935809	-3.094517E+12	2.112868E-15	NaN
442	1.000000	0.192122	7.36938e+06	-54989.1	1005.82	-29742.6	0.000000	0.000000	6.192781	-0.021849	NaN	0.000000	0.001630	0.001719	28.0816	0.069145	0.002015	34.3177	-101.015	14.2001	-0.031701	0.190825	-0.925888	-0.927185	-0.021849	34.3177	-0.925411	-2.240010E+12	9.754097E-15	NaN
442	1.000000	0.202125	7.36938e+06	-54989.1	1005.82	-29742.6	0.000000	0.000000	6.202786	0.014779	NaN	0.000000	0.001631	0.001739	28.0805	0.003983	0.002058	1.935047	22.99	-163.537	-0.008776	0.200889	-0.915885	-0.917121	0.014779	1.935047	-0.921613	-1.990602E+12	-7.424182E-15	NaN
442	1.000000	0.212139	7.36938e+06	-54989.1	1005.82	-29742.6	0.000000	0.000000	6.212798	-0.032778	NaN	0.000000	0.001639	0.001700	28.0804	0.042522	0.001997	21.2922	-99.8419	14.0951	-0.033851	0.210820	-0.905871	-0.907189	-0.032778	21.2922	-0.904717	-1.177042E+12	2.784767E-14	NaN
442	1.000000	0.222178	7.36938e+06	-54989.1	1005.82	-29742.6	0.000000	0.000000	6.222839	0.016798	NaN	0.000000	0.001604	0.001670	28.081	0.156522	0.002032	77.0411	-161.595	-162.258	-0.052259	0.220870	-0.895832	-0.897140	0.016798	77.0411	-0.895995	-8.973224E+11	-1.871992E-14	NaN
442	1.000000	0.232170	7.36938e+06	-54989.1	1005.82	-29742.6	0.000000	0.000000	6.232828	-0.053946	NaN	0.000000	0.001624	0.001669	28.0804	0.033024	0.001924	17.1666	-69.2927	14.0908	-0.124915	0.230772	-0.885840	-0.887238	-0.053946	17.1666	-0.883483	-6.078669E+11	8.874688E-14	NaN
442	1.000000	0.242162	7.36938e+06	-54989.1	1005.82	-29742.6	0.000000	0.000000	6.242823	0.016600	NaN	0.000000	0.001644	0.001655	28.0807	0.064736	0.001995	32.4442	130.552	-167.01	-0.002259	0.240910	-0.875848	-0.877100	0.016600	32.4442	-0.876232	-4.849991E+11	-3.422590E-14	NaN
442	1.000000	0.252176	7.36938e+06	-54989.1	1005.82	-29742.6	0.000000	0.000000	6.252836	-0.008537	NaN	0.000000	0.001615	0.001662	28.0806	0.109526	0.002062	53.1192	24.1706	15.5252	-0.052532	0.250837	-0.865834	-0.867173	-0.008537	53.1192	-0.865714	-3.495002E+11	2.442589E-14	NaN
442	1.000000	0.262184	7.36938e+06	-54989.1	1005.82	-29742.6	0.000000	0.000000	6.262843	-0.021155	NaN	0.000000	0.001675	0.001690	28.0808	0.006850	0.001992	3.438140	173.596	-164.523	-0.003795	0.260870	-0.855826	-0.857140	-0.021155	3.438140	-0.851211	-2.224028E+11	9.511821E-14	NaN
442	1.000000	0.272197	7.36938e+06	-54989.1	1005.82	-29742.6	0.000000	0.000000	6.272858	0.020863	NaN	0.000000	0.001651	0.001658	28.0804	0.046751	0.002075	22.5309	-20.7338	13.9393	0.039017	0.270814	-0.845813	-0.847196	0.020863	22.5309	-0.846507	-1.920599E+11	-1.086250E-13	NaN
442	1.000000	0.282191	7.36938e+06	-54989.1	1005.82	-29742.6	0.000000	0.000000	6.282852	-0.004200	NaN	0.000000	0.001645	0.001677	28.0807	0.006115	0.001991	3.071824	-20.4696	-167.092	-0.034388	0.280925	-0.835819	-0.837085	-0.004200	3.071824	-0.834793	-1.332735E+11	3.151588E-14	NaN
442	1.000000	0.292170	7.36938e+06	-54989.1	1005.82	-29742.6	0.000000	0.000000	6.292829	-0.039793	NaN	0.000000	0.001603	0.001655	28.0805	0.041235	0.001850	22.2893	82.6473	15.4859	0.022179	0.290788	-0.825840	-0.827222	-0.039793	22.2893	-0.824501	-9.665868E+10	4.116899E-13	NaN
442	1.000000	0.302186	7.36938e+06	-54989.1	1005.82	-29742.6	0.000000	0.000000	6.302846	0.000213	NaN	0.000000	0.001588	0.001693	28.0808	0.119137	0.001878	63.4483	-170.274	-162.724	0.024419	0.300830	-0.815824	-0.817180	0.000213	63.4483	-0.815827	-7.372460E+10	-2.892593E-15	NaN
442	1.000000	0.312206	7.36938e+06	-54989.1	1005.82	-29742.6	0.000000	0.000000	6.312868	0.032880	NaN	0.000000	0.001675	0.001699	28.0806	0.067590	0.001874	36.0627	-116.89	17.407	-0.036422	0.310848	-0.805804	-0.807162	0.032880	36.0627	-0.806488	-5.507028E+10	-5.970538E-13	NaN
442	1.000000	0.322210	7.36938e+06	-54989.1	1005.82	-29742.6	0.000000	0.000000	6.322870	-0.009858	NaN	0.000000	0.001628	0.001703	28.081	0.032103	0.002024	15.8647	109.289	-162.214	-0.077204	0.320939	-0.795800	-0.797071	-0.009858	15.8647	-0.795334	-3.886157E+10	2.536658E-13	NaN
442	1.000000	0.332206	7.36938e+06	-54989.1	1005.82	-29742.6	0.000000	0.000000	6.332868	0.046823	NaN	0.000000	0.001688	0.001674	28.0809	0.094418	0.002044	46.1919	130.403	13.9595	0.096616	0.330858	-0.785804	-0.787152	0.046823	46.1919	-0.786564	-2.954050E+10	-1.585049E-12	NaN
442	1.000000	0.342229	7.36938e+06	-54989.1	1005.82	-29742.6	0.000000	0.000000	6.342892	0.058956	NaN	0.000000	0.001639	0.001677	28.0818	0.069894	0.002081	33.593	7.218170	-163.933	0.044726	0.340907	-0.775781	-0.777102	0.058956	33.593	-0.777097	-2.196742E+10	-2.683785E-12	NaN
442	1.000000	0.352189	7.36938e+06	-54989.1	1005.82	-29742.6	0.000000	0.000000	6.352849	-0.016747	NaN	0.000000	0.001650	0.001696	28.0815	0.096361	0.001819	52.965	-4.656246	12.1361	-0.026585	0.350883	-0.765821	-0.767126	-0.016747	52.965	-0.765584	-1.531967E+10	1.093161E-12	NaN
442	1.000000	0.362222	7.36938e+06	-54989.1	1005.82	-29742.6	0.000000	0.000000	6.362880	-0.059189	NaN	0.000000	0.001624	0.001686	28.0817	0.004076	0.002054	1.984691	-178.512	-160.653	-0.093754	0.360872	-0.755788	-0.757138	-0.059189	1.984691	-0.733421	-5.590136E+9	1.058810E-11	NaN
442	1.000000	0.372233	7.36938e+06	-54989.1	1005.82	-29742.6	0.000000	0.000000	6.372894	0.026534	NaN	0.000000	0.001647	0.001654	28.0818	0.043294	0.002023	21.3999	-65.9372	16.6356	-0.064233	0.370856	-0.745777	-0.747154	0.026534	21.3999	-0.746707	-8.479884E+9	-3.129036E-12	NaN
442	1.000000	0.382226	7.36938e+06	-54989.1	1005.82	-29742.6	0.000000	0.000000	6.382886	0.012694	NaN	0.000000	0.001618	0.001662	28.0818	0.067903	0.002131	31.8691	150.422	-161.984	0.063701	0.380903	-0.735784	-0.737107	0.012694	31.8691	-0.736083	-6.077152E+9	-2.088881E-12	NaN
442	1.000000	0.392214	7.36938e+06	-54989.1	1005.82	-29742.6	0.000000	0.000000	6.392874	-0.002688	NaN	0.000000	0.001616	0.001708	28.0816	0.075352	0.001927	39.1057	134.353	16.144	-0.015575	0.390893	-0.725796	-0.727117	-0.002688	39.1057	-0.725744	-4.393370E+9	6.117774E-13	NaN
442	1.000000	0.402221	7.36938e+06	-54989.1	1005.82	-29742.6	0.000000	0.000000	6.402880	-0.034056	NaN	0.000000	0.001617	0.001664	28.082	0.130592	0.002126	61.4193	-85.7184	-165.206	-0.076256	0.400943	-0.715789	-0.717067	-0.034056	61.4193	-0.715373	-3.172198E+9	1.073573E-11	NaN
442	1.000000	0.412226	7.36938e+06	-54989.1	1005.82	-29742.6	0.000000	0.000000	6.412888	0.021569	NaN	0.000000	0.001611	0.001648	28.0817	0.095719	0.001986	48.1849	-103.22	15.7292	0.018927	0.410912	-0.705784	-0.707098	0.021569	48.1849	-0.706119	-2.371817E+9	-9.093834E-12	NaN
442	1.000000	0.422223	7.36938e+06	-54989.1	1005.82	-29742.6	0.000000	0.000000	6.422881	-0.044181	NaN	0.000000	0.001621	0.001697	28.0818	0.084584	0.002070	40.8537	76.7453	-167.376	-0.027497	0.420930	-0.695787	-0.697080	-0.044181	40.8537	-0.694976	-1.670740E+9	2.644377E-11	NaN
442	1.000000	0.432244	7.36938e+06	-54989.1	1005.82	-29742.6	0.000000	0.000000	6.432904	-0.019486	NaN	0.000000	0.001608	0.001650	28.0815	0.024842	0.001929	12.8792	-104.494	14.9115	-0.053912	0.430952	-0.685766	-0.687058	-0.019486	12.8792	-0.684631	-1.206516E+9	1.615053E-11	NaN
442	1.000000	0.442246	7.36938e+06	-54989.1	1005.82	-29742.6	0.000000	0.000000	6.442904	-0.059368	NaN	0.000000	0.001623	0.001658	28.082	0.072300	0.002094	34.5347	-85.5488	-162.662	0.016248	0.440936	-0.675764	-0.677074	-0.059368	34.5347	-0.674475	-8.762446E+8	6.775295E-11	NaN
442	1.000000	0.452238	7.36938e+06	-54989.1	1005.82	-29742.6	0.000000	0.000000	6.452896	-0.058464	NaN	0.000000	0.001623	0.001657	28.0815	0.058579	0.001896	30.8948	58.349	14.4232	-0.035515	0.450928	-0.665772	-0.667081	-0.058464	30.8948	-0.664353	-6.369210E+8	9.179226E-11	NaN
442	1.000000	0.462245	7.36938e+06	-54989.1	1005.82	-29742.6	0.000000	0.000000	6.462905	-0.015438	NaN	0.000000	0.001592	0.001644	28.0816	0.122427	0.001948	62.8437	-107.884	-167.597	-0.031959	0.460915	-0.655765	-0.657095	-0.015438	62.8437	-0.655581	-4.829719E+8	3.196414E-11	NaN
442	1.000000	0.472289	7.36938e+06	-54989.1	1005.82	-29742.6	0.000000	0.000000	6.472948	-0.027355	NaN	0.000000	0.001610	0.001630	28.0816	0.051883	0.001969	26.3508	137.506	12.141	0.054120	0.470902	-0.645721	-0.647108	-0.027355	26.3508	-0.644942	-3.452125E+8	7.924146E-11	NaN
442	1.000000	0.482265	7.36938e+06	-54989.1	1005.82	-29742.6	0.000000	0.000000	6.482924	-0.035194	NaN	0.000000	0.001595	0.001644	28.0803	0.066025	0.002121	31.13	0.294694	-164.614	-0.070911	0.480961	-0.635745	-0.637049	-0.035194	31.13	-0.634897	-2.513354E+8	1.400275E-10	NaN
442	1.000000	0.492274	7.36938e+06	-54989.1	1005.82	-29742.6	0.000000	0.000000	6.492934	-0.008730	NaN	0.000000	0.001620	0.001696	28.0803	0.097167	0.002022	48.0663	11.7265	17.9764	0.020018	0.490948	-0.625736	-0.627062	-0.008730	48.0663	-0.625599	-1.873174E+8	4.660464E-11	NaN
442	1.000000	0.502284	7.36938e+06	-54989.1	1005.82	-29742.6	0.000000	0.000000	6.502942	-0.048243	NaN	0.000000	0.001593	0.001696	28.0804	0.065135	0.001923	33.8776	-9.036774	-166.228	-0.000356	0.500967	-0.615726	-0.617043	-0.048243	33.8776	-0.614658	-1.324916E+8	3.641245E-10	NaN
442	1.000000	0.512288	7.36938e+06	-54989.1	1005.82	-29742.6	0.000000	0.000000	6.512949	0.013038	NaN	0.000000	0.001592	0.001695	28.0805	0.052329	0.002018	25.9321	-44.0424	19.0514	-0.047871	0.510919	-0.605722	-0.607091	0.013038	25.9321	-0.606099	-1.010266E+8	-1.290566E-10	NaN
442	1.000000	0.522302	7.36938e+06	-54989.1	1005.82	-29742.6	0.000000	0.000000	6.522962	-0.011475	NaN	0.000000	0.001617	0.001682	28.0806	0.035395	0.002048	17.2792	-144.098	-164.273	-0.053715	0.521006	-0.595708	-0.597004	-0.011475	17.2792	-0.595210	-7.152827E+7	1.604267E-10	NaN
442	1.000000	0.532275	7.36938e+06	-54989.1	1005.82	-29742.6	0.000000	0.000000	6.532932	-0.095975	NaN	0.000000	0.001607	0.001682	28.0805	0.115505	0.002047	56.4383	-154.123	16.3125	-0.056114	0.530923	-0.585734	-0.587087	-0.095975	56.4383	-0.584459	-5.084561E+7	1.887577E-9	NaN
442	1.000000	0.542327	7.36938e+06	-54989.1	1005.82	-29742.6	0.000000	0.000000	6.542988	0.017719	NaN	0.000000	0.001615	0.001686	28.0805	0.042845	0.002018	21.231	177.341	-167.435	0.002819	0.540966	-0.575683	-0.577044	0.017719	21.231	-0.576309	-3.924375E+7	-4.515070E-10	NaN
442	1.000000	0.552310	7.36938e+06	-54989.1	1005.82	-29742.6	0.000000	0.000000	6.552970	-0.004639	NaN	0.000000	0.001577	0.001700	28.0807	0.070445	0.001941	36.2884	-36.7998	13.8112	0.016767	0.550950	-0.565700	-0.567060	-0.004639	36.2884	-0.565604	-2.791772E+7	1.661655E-10	NaN
442	1.000000	0.562321	7.36938e+06	-54989.1	1005.82	-29742.6	0.000000	0.000000	6.562981	-0.012266	NaN	0.000000	0.001603	0.001668	28.0804	0.118658	0.002086	56.8794	105.723	-165.628	-0.078403	0.561055	-0.555689	-0.556955	-0.012266	56.8794	-0.555528	-2.025304E+7	6.056404E-10	NaN
442	1.000000	0.572293	7.36938e+06	-54989.1	1005.82	-29742.6	0.000000	0.000000	6.572953	-0.010347	NaN	0.000000	0.001613	0.001625	28.0805	0.050918	0.001946	26.1646	111.463	16.9009	0.022670	0.570954	-0.545717	-0.547056	-0.010347	26.1646	-0.545420	-1.467253E+7	7.052028E-10	NaN
442	1.000000	0.582274	7.36938e+06	-54989.1	1005.82	-29742.6	0.000000	0.000000	6.582934	-0.012590	NaN	0.000000	0.001639	0.001643	28.0805	0.037576	0.001965	19.12	136.376	-166.647	-0.096240	0.580996	-0.535736	-0.537014	-0.012590	19.12	-0.535242	-1.060113E+7	1.187632E-9	NaN
442	1.000000	0.592309	7.36938e+06	-54989.1	1005.82	-29742.6	0.000000	0.000000	6.592968	-0.022688	NaN	0.000000	0.001659	0.001668	28.0809	0.085598	0.002011	42.5747	162.053	14.9198	0.056029	0.590954	-0.525701	-0.527056	-0.022688	42.5747	-0.525301	-7.71435e+06	2.940974E-9	NaN
442	1.000000	0.602351	7.36938e+06	-54989.1	1005.82	-29742.6	0.000000	0.000000	6.603011	-0.004430	NaN	0.000000	0.001616	0.001667	28.0805	0.030416	0.002029	14.9915	4.894736	-165.203	0.006376	0.601045	-0.515659	-0.516965	-0.004430	14.9915	-0.515437	-5.62499e+06	7.875153E-10	NaN
442	1.000000	0.612347	7.36938e+06	-54989.1	1005.82	-29742.6	0.000000	0.000000	6.613006	-0.019673	NaN	0.000000	0.001614	0.001657	28.0818	0.095951	0.001990	48.22	8.643793	14.1488	0.057280	0.610947	-0.505663	-0.507063	-0.019673	48.22	-0.505357	-4.07122e+06	4.832216E-9	NaN
442	1.000000	0.622360	7.36938e+06	-54989.1	1005.82	-29742.6	0.000000	0.000000	6.623017	-0.065167	NaN	0.000000	0.001633	0.001680	28.0819	0.099675	0.002015	49.4766	165.66	-165.337	0.004536	0.620977	-0.495650	-0.497033	-0.065167	49.4766	-0.494663	-2.8875e+06	2.256850E-8	NaN
442	1.000000	0.632316	7.36938e+06	-54989.1	1005.82	-29742.6	0.000000	0.000000	6.632975	-0.038647	NaN	0.000000	0.001581	0.001679	28.0819	0.060502	0.002119	28.5522	-41.4155	12.1853	-0.072466	0.631011	-0.485694	-0.486999	-0.038647	28.5522	-0.484679	-2.09412e+06	1.845509E-8	NaN
442	1.000000	0.642327	7.36938e+06	-54989.1	1005.82	-29742.6	0.000000	0.000000	6.642984	-0.085318	NaN	0.000000	0.001631	0.001673	28.0818	0.108917	0.002016	54.0216	-52.7662	-168.689	0.029960	0.640991	-0.475683	-0.477019	-0.085318	54.0216	-0.474498	-1.50824e+06	5.656789E-8	NaN
442	1.000000	0.652345	7.36938e+06	-54989.1	1005.82	-29742.6	0.000000	0.000000	6.653004	-0.023896	NaN	0.000000	0.001607	0.001642	28.0819	0.109078	0.001959	55.6804	-161.175	17.3966	-0.014621	0.650987	-0.465665	-0.467023	-0.023896	55.6804	-0.465343	-1.12218e+06	2.129443E-8	NaN
442	1.000000	0.662317	7.36938e+06	-54989.1	1005.82	-29742.6	0.000000	0.000000	6.662977	-0.010236	NaN	0.000000	0.001588	0.001669	28.0822	0.054696	0.002118	25.8208	8.624205	-167.179	0.036321	0.661073	-0.455693	-0.456937	-0.010236	25.8208	-0.455396	-813363	1.258466E-8	NaN
442	1.000000	0.672367	7.36938e+06	-54989.1	1005.82	-29742.6	0.000000	0.000000	6.673026	-0.017965	NaN	0.000000	0.001633	0.001679	28.082	0.050109	0.001954	25.6405	103.276	14.6623	-0.081992	0.671017	-0.445643	-0.446993	-0.017965	25.6405	-0.445118	-582843	3.082306E-8	NaN
442	1.000000	0.682365	7.36938e+06	-54989.1	1005.82	-29742.6	0.000000	0.000000	6.683024	-0.047116	NaN	0.000000	0.001665	0.001693	28.0817	0.047456	0.001992	23.8201	-176.355	-163.139	-0.012458	0.681067	-0.435645	-0.436943	-0.047116	23.8201	-0.434161	-408229	1.154155E-7	NaN
442	1.000000	0.692364	7.36939e+06	-54989.1	1005.82	-29742.6	0.000000	0.000000	6.693024	-0.032099	NaN	0.000000	0.001714	0.001680	28.0818	0.067291	0.002052	32.7944	-58.1357	15.1806	-0.003156	0.691005	-0.425645	-0.427005	-0.032099	32.7944	-0.424911	-302014	1.062824E-7	NaN
442	1.000000	0.702378	7.36939e+06	-54989.1	1005.82	-29742.6	0.000000	0.000000	6.703039	0.015686	NaN	0.000000	0.001699	0.001680	28.0819	0.093836	0.002062	45.518	35.1564	-160.642	-0.034393	0.701048	-0.415632	-0.416962	0.015686	45.518	-0.415890	-224955	-6.972722E-8	NaN
442	1.000000	0.712387	7.36939e+06	-54989.1	1005.82	-29742.6	0.000000	0.000000	6.713050	0.049037	NaN	0.000000	0.001707	0.001676	28.0815	0.117900	0.001970	59.8527	165.555	15.1402	0.057517	0.710983	-0.405623	-0.407026	0.049037	59.8527	-0.406237	-164007	-2.989952E-7	NaN
442	1.000000	0.722381	7.36939e+06	-54989.1	1005.82	-29742.6	0.000000	0.000000	6.723040	-0.019603	NaN	0.000000	0.001662	0.001651	28.0816	0.051272	0.001921	26.6894	54.6646	-166.166	-0.089804	0.721075	-0.395629	-0.396935	-0.019603	26.6894	-0.395078	-113698	1.724177E-7	NaN
442	1.000000	0.732381	7.36939e+06	-54989.1	1005.82	-29742.6	0.000000	0.000000	6.733042	0.008702	NaN	0.000000	0.001676	0.001692	28.0818	0.055660	0.002098	26.5239	-68.5452	14.3677	0.006903	0.731031	-0.385629	-0.386979	0.008702	26.5239	-0.385875	-83969.6	-1.036357E-7	NaN
442	1.000000	0.742390	7.36939e+06	-54989.1	1005.82	-29742.6	0.000000	0.000000	6.743052	0.032494	NaN	0.000000	0.001694	0.001685	28.0818	0.019045	0.002014	9.457346	178.782	-164.654	-0.008694	0.741036	-0.375620	-0.376974	0.032494	9.457346	-0.378197	-65163.3	-4.986598E-7	NaN
442	1.000000	0.752385	7.36939e+06	-54989.1	1005.82	-29742.6	0.000000	0.000000	6.753047	0.018913	NaN	0.000000	0.001699	0.001701	28.0804	0.037677	0.002061	18.2814	136.152	13.7696	0.047362	0.751006	-0.365625	-0.367003	0.018913	18.2814	-0.366400	-44081.3	-4.290487E-7	NaN
442	1.000000	0.762376	7.36939e+06	-54989.1	1005.82	-29742.6	0.000000	0.000000	6.763037	0.009965	NaN	0.000000	0.001705	0.001679	28.0805	0.038154	0.002132	17.8998	-178.29	-163.502	0.032691	0.761110	-0.355634	-0.356900	0.009965	17.8998	-0.356052	-31241.1	-3.189682E-7	NaN
442	1.000000	0.772401	7.36939e+06	-54989.1	1005.82	-29742.6	0.000000	0.000000	6.773064	0.069858	NaN	0.000000	0.001664	0.001682	28.0804	0.068032	0.002026	33.5868	-73.9856	16.0324	-0.002301	0.771024	-0.345609	-0.346986	0.069858	33.5868	-0.347169	-23221.6	-3.008336E-6	NaN
442	1.000000	0.782403	7.36939e+06	-54989.1	1005.82	-29742.6	0.000000	0.000000	6.783063	0.011876	NaN	0.000000	0.001644	0.001698	28.0804	0.076106	0.001886	40.3544	-124.435	-162.718	0.016863	0.781097	-0.335607	-0.336913	0.011876	40.3544	-0.335828	-15873.9	-7.481722E-7	NaN
442	1.000000	0.792407	7.36939e+06	-54989.1	1005.82	-29742.6	0.000000	0.000000	6.793070	0.049468	NaN	0.000000	0.001644	0.001700	28.0803	0.094454	0.002032	46.4924	148.489	17.0099	0.077868	0.791037	-0.325602	-0.326973	0.049468	46.4924	-0.326400	-11552.9	-4.281880E-6	NaN
442	1.000000	0.802411	7.36939e+06	-54989.1	1005.82	-29742.6	0.000000	0.000000	6.803073	0.027448	NaN	0.000000	0.001676	0.001695	28.0806	0.099852	0.002059	48.502	143.365	-163.899	0.047729	0.801073	-0.315599	-0.316937	0.027448	48.502	-0.316023	-8129.08	-3.376555E-6	NaN
442	1.000000	0.812415	7.36939e+06	-54989.1	1005.82	-29742.6	0.000000	0.000000	6.813076	0.014815	NaN	0.000000	0.001659	0.001717	28.0804	0.127454	0.001901	67.0593	-59.5885	13.9908	-0.027909	0.811007	-0.305595	-0.307003	0.014815	67.0593	-0.305761	-5731.24	-2.585038E-6	NaN
442	1.000000	0.822444	7.36939e+06	-54989.1	1005.82	-29742.6	0.000000	0.000000	6.823103	-0.033221	NaN	0.000000	0.001633	0.001695	28.0807	0.098846	0.001967	50.2571	-176.393	-163.463	-0.006781	0.821071	-0.295566	-0.296939	-0.033221	50.2571	-0.295070	-3973.1	8.361565E-6	NaN
442	1.000000	0.832412	7.36939e+06	-54989.1	1005.82	-29742.6	0.000000	0.000000	6.833072	-0.018026	NaN	0.000000	0.001597	0.001677	28.0806	0.024587	0.001993	12.3365	-4.807526	14.1807	-0.154874	0.831026	-0.285598	-0.286984	-0.018026	12.3365	-0.284502	-2759.17	6.532956E-6	NaN
442	1.000000	0.842432	7.36939e+06	-54989.1	1005.82	-29742.6	0.000000	0.000000	6.843090	-0.045753	NaN	0.000000	0.001624	0.001711	28.0807	0.016865	0.002068	8.153880	-64.7467	-163.442	-0.078232	0.841101	-0.275578	-0.276909	-0.045753	8.153880	-0.271370	-1747.26	2.618589E-5	NaN
442	1.000000	0.852411	7.36939e+06	-54989.1	1005.82	-29742.6	0.000000	0.000000	6.853069	-0.059511	NaN	0.000000	0.001613	0.001643	28.0804	0.094111	0.002013	46.7504	-114.75	14.4125	-0.112232	0.851041	-0.265599	-0.266969	-0.059511	46.7504	-0.264644	-1380.25	4.311629E-5	NaN
442	1.000000	0.862416	7.36939e+06	-54989.1	1005.82	-29742.6	0.000000	0.000000	6.863077	0.017439	NaN	0.000000	0.001613	0.001702	28.0806	0.034121	0.001986	17.1834	21.1122	-162.583	0.014789	0.861130	-0.255594	-0.256880	0.017439	17.1834	-0.256356	-1030.32	-1.692575E-5	NaN
442	1.000000	0.872427	7.36939e+06	-54989.1	1005.82	-29742.6	0.000000	0.000000	6.873088	0.019363	NaN	0.000000	0.001626	0.001710	28.0807	0.089095	0.002010	44.3163	43.0196	13.9557	-0.054873	0.871000	-0.245583	-0.247010	0.019363	44.3163	-0.245911	-710.562	-2.725008E-5	NaN
442	1.000000	0.882441	7.36939e+06	-54989.1	1005.82	-29742.6	0.000000	0.000000	6.883101	-0.020074	NaN	0.000000	0.001630	0.001701	28.0807	0.162298	0.002058	78.844	82.4477	-166.143	-0.089164	0.881133	-0.235569	-0.236877	-0.020074	78.844	-0.235378	-486.605	4.125381E-5	NaN
442	1.000000	0.892429	7.36939e+06	-54989.1	1005.82	-29742.6	0.000000	0.000000	6.893087	-0.042908	NaN	0.000000	0.001626	0.001678	28.0817	0.064778	0.002037	31.7979	175.756	13.7785	-0.042804	0.891067	-0.225581	-0.226943	-0.042908	31.7979	-0.224569	-328.468	0.000131	NaN
442	1.000000	0.902450	7.36939e+06	-54989.1	1005.82	-29742.6	0.000000	0.000000	6.903109	-0.044701	NaN	0.000000	0.001613	0.001669	28.0819	0.051489	0.001893	27.1981	104.199	-165.603	-0.024838	0.901107	-0.215560	-0.216903	-0.044701	27.1981	-0.214327	-225.261	0.000198	NaN
442	1.000000	0.912462	7.36939e+06	-54989.1	1005.82	-29742.6	0.000000	0.000000	6.913120	-0.060547	NaN	0.000000	0.001646	0.001680	28.0819	0.012569	0.002067	6.079285	-137.845	16.2176	-0.082070	0.911119	-0.205548	-0.206891	-0.060547	6.079285	-0.198078	-122.48	0.000494	NaN
442	1.000000	0.922481	7.36939e+06	-54989.1	1005.82	-29742.6	0.000000	0.000000	6.923140	-0.034701	NaN	0.000000	0.001658	0.001659	28.0819	0.139280	0.002018	69.0268	-177.136	-164.909	0.048765	0.921126	-0.195529	-0.196884	-0.034701	69.0268	-0.195152	-109.577	0.000317	NaN
442	1.000000	0.932415	7.36939e+06	-54989.1	1005.82	-29742.6	0.000000	0.000000	6.933076	0.014038	NaN	0.000000	0.001626	0.001708	28.0817	0.109414	0.001968	55.6066	-169.383	15.1794	0.049801	0.931128	-0.185595	-0.186881	0.014038	55.6066	-0.185784	-76.4442	-0.000184	NaN
442	1.000000	0.942490	7.36939e+06	-54989.1	1005.82	-29742.6	0.000000	0.000000	6.943150	-0.024504	NaN	0.000000	0.001634	0.001726	28.0818	0.022878	0.001941	11.787	-51.8181	-165.677	-0.021129	0.941143	-0.175519	-0.176867	-0.024504	11.787	-0.173960	-48.0944	0.000510	NaN
442	1.000000	0.952440	7.36939e+06	-54989.1	1005.82	-29742.6	0.000000	0.000000	6.953099	-0.022403	NaN	0.000000	0.001620	0.001730	28.0819	0.076871	0.001963	39.1521	-27.171	12.8167	-0.025403	0.951113	-0.165570	-0.166897	-0.022403	39.1521	-0.165141	-33.7893	0.000663	NaN
442	1.000000	0.962478	7.36939e+06	-54989.1	1005.82	-29742.6	0.000000	0.000000	6.963138	-0.029136	NaN	0.000000	0.001658	0.001693	28.0818	0.019510	0.002095	9.312486	-101.022	-163.535	-0.020748	0.961163	-0.155532	-0.156847	-0.029136	9.312486	-0.153185	-20.6938	0.001408	NaN
442	1.000000	0.972467	7.36939e+06	-54989.1	1005.82	-29742.6	0.000000	0.000000	6.973129	0.040416	NaN	0.000000	0.001644	0.001744	28.0817	0.078149	0.002111	37.0286	78.3701	17.4873	0.013670	0.971112	-0.145543	-0.146897	0.040416	37.0286	-0.146362	-15.5348	-0.002602	NaN
442	1.000000	0.982466	7.36939e+06	-54989.1	1005.82	-29742.6	0.000000	0.000000	6.983123	-0.075676	NaN	0.000000	0.001635	0.001687	28.082	0.035252	0.001902	18.5383	73.3425	-165.513	-0.084768	0.981137	-0.135544	-0.136872	-0.075676	18.5383	-0.132482	-8.511789	0.008891	NaN
442	1.000000	0.992471	7.36939e+06	-54989.1	1005.82	-29742.6	0.000000	0.000000	6.993130	-0.031037	NaN	0.000000	0.001630	0.001721	28.0818	0.124032	0.001998	62.0811	41.1479	11.631	-0.001867	0.991072	-0.125539	-0.126938	-0.031037	62.0811	-0.125164	-6.126785	0.005066	NaN
442	1.000000	1.002476	7.36939e+06	-54989.1	1005.82	-29742.6	0.000000	0.000000	7.003135	-0.020650	NaN	0.000000	0.001635	0.001705	28.0818	0.051438	0.001998	25.7395	76.2991	-162.565	0.041040	1.001196	-0.115534	-0.116814	-0.020650	25.7395	-0.114933	-3.808176	0.005422	NaN
442	1.000000	1.012474	7.36939e+06	-54989.1	1005.82	-29742.6	0.000000	0.000000	7.013134	-0.023805	NaN	0.000000	0.001656	0.001760	28.0817	0.090580	0.001981	45.7258	116.657	12.2245	0.029126	1.011129	-0.105536	-0.106881	-0.023805	45.7258	-0.105145	-2.367611	0.010054	NaN
442	1.000000	1.022519	7.36939e+06	-54989.1	1005.82	-29742.6	0.000000	0.000000	7.023178	-0.016306	NaN	0.000000	0.001655	0.001709	28.0808	0.059794	0.002035	29.3864	-18.1154	-165.42	0.003547	1.021156	-0.095491	-0.096854	-0.016306	29.3864	-0.095075	-1.416204	0.011514	NaN
442	1.000000	1.032487	7.36939e+06	-54989.1	1005.82	-29742.6	0.000000	0.000000	7.033150	0.040824	NaN	0.000000	0.001636	0.001706	28.0806	0.142650	0.002013	70.8529	153.012	17.3446	-0.059324	1.031102	-0.085522	-0.086908	0.040824	70.8529	-0.085955	-0.866388	-0.047119	NaN
442	1.000000	1.042511	7.36939e+06	-54989.1	1005.82	-29742.6	0.000000	0.000000	7.043172	0.015612	NaN	0.000000	0.001632	0.001675	28.0804	0.051253	0.002030	25.2516	20.7427	-165.737	0.016129	1.041174	-0.075499	-0.076836	0.015612	25.2516	-0.075963	-0.489049	-0.031923	NaN
442	1.000000	1.052498	7.36939e+06	-54989.1	1005.82	-29742.6	0.000000	0.000000	7.053159	0.011013	NaN	0.000000	0.001622	0.001703	28.0809	0.043471	0.001943	22.3724	-99.074	15.9546	0.008232	1.051101	-0.065512	-0.066909	0.011013	22.3724	-0.065881	-0.263595	-0.041779	NaN
442	1.000000	1.062494	7.36939e+06	-54989.1	1005.82	-29742.6	0.000000	0.000000	7.063154	-0.009113	NaN	0.000000	0.001654	0.001672	28.0806	0.094256	0.002000	47.1229	57.7192	-164.371	-0.034324	1.061171	-0.055516	-0.056839	-0.009113	47.1229	-0.055371	-0.132063	0.069005	NaN
442	1.000000	1.072512	7.36939e+06	-54989.1	1005.82	-29742.6	0.000000	0.000000	7.073174	0.031379	NaN	0.000000	0.001644	0.001653	28.0805	0.098015	0.001945	50.3868	95.3643	16.4748	0.060507	1.071165	-0.045498	-0.046845	0.031379	50.3868	-0.045965	-0.068785	-0.456192	NaN
442	1.000000	1.082521	7.36939e+06	-54989.1	1005.82	-29742.6	0.000000	0.000000	7.083183	0.039583	NaN	0.000000	0.001611	0.001652	28.0803	0.101102	0.002179	46.3881	47.2039	-165.041	-0.029831	1.081245	-0.035489	-0.036765	0.039583	46.3881	-0.036129	-0.034585	-1.144496	NaN
442	1.000000	1.092536	7.36939e+06	-54989.1	1005.82	-29742.6	0.000000	0.000000	7.093198	0.038944	NaN	0.000000	0.001677	0.001696	28.0808	0.144791	0.001899	76.2609	-123.373	13.2039	0.032055	1.091139	-0.025474	-0.026871	0.038944	76.2609	-0.025857	-0.017768	-2.191815	NaN
442	1.000000	1.102528	7.36939e+06	-54989.1	1005.82	-29742.6	0.000000	0.000000	7.103188	-0.004460	NaN	0.000000	0.001634	0.001683	28.0805	0.007185	0.001981	3.626984	42.964	-163.782	-0.009961	1.101224	-0.015482	-0.016786	-0.004460	3.626984	-0.014560	-0.009013	0.494786	NaN
442	1.000000	1.112514	7.36939e+06	-54989.1	1005.82	-29742.6	0.000000	0.000000	7.113173	-0.038250	NaN	0.000000	0.001610	0.001691	28.0806	0.013371	0.002063	6.481176	-145.651	16.7422	-0.010194	1.111177	-0.005496	-0.006833	-0.038250	6.481176	-0.001069	-0.000783	48.8558	NaN
442	1.000000	1.122470	7.36939e+06	-54989.1	1005.82	-29742.6	0.000000	0.000000	7.123277	3.563127	NaN	0.000000	0.001595	0.001728	28.0806	4.185146	0.001845	2268.14	5.801837	-166.057	1.903953	1.121226	0.004460	0.003216	3.563127	2268.14	0.003282	0.002619	1360.57	40493.7
442	2.000000	1.128640	7.36939e+06	-54989.1	1005.82	-29742.6	0.000000	0.000000	7.129642	8.299050	NaN	0.000000	0.001636	0.001709	28.0812	9.660790	0.001664	5807.25	10.6055	4.800459	7.745072	1.128289	0.010630	0.010279	8.299050	5807.25	0.009558	0.008695	954.497	56900.6
442	2.000000	1.131097	7.36939e+06	-54989.1	1005.82	-29742.6	0.000000	0.000000	7.132254	12.0706	NaN	0.000000	0.001645	0.001721	28.0804	11.7179	0.001646	7120.43	9.803797	-174.524	12.2618	1.130761	0.013087	0.012751	12.0706	7120.43	0.011816	0.011270	1071.01	61279.2
442	2.000000	1.133532	7.36939e+06	-54989.1	1005.82	-29742.6	0.000000	0.000000	7.134775	14.1432	NaN	0.000000	0.001673	0.001714	28.0806	14.1242	0.001782	7926.21	6.205059	8.097430	12.7888	1.133219	0.015522	0.015209	14.1432	7926.21	0.014184	0.014213	995.104	60743.4
442	2.000000	1.136050	7.36939e+06	-54989.1	1005.82	-29742.6	0.000000	0.000000	7.137444	17.8274	NaN	0.000000	0.001695	0.001718	28.0817	16.9116	0.001706	9913.81	9.034516	-177.011	17.5394	1.135754	0.018040	0.017744	17.8274	9913.81	0.016691	0.017607	1012.49	68259.9
442	2.000000	1.138565	7.36939e+06	-54989.1	1005.82	-29742.6	0.000000	0.000000	7.140210	23.9542	NaN	0.000000	0.001706	0.001728	28.0822	19.2896	0.001681	11473	4.927229	5.264820	22.2137	1.138238	0.020555	0.020228	23.9542	11473	0.018989	0.020978	1141.87	72371.5
442	2.000000	1.141055	7.36939e+06	-54989.1	1005.82	-29742.6	0.000000	0.000000	7.142826	27.0077	NaN	0.000000	0.001675	0.001729	28.0819	21.3795	0.001802	11865	7.354054	-177.291	26.5567	1.140767	0.023045	0.022757	27.0077	11865	0.021338	0.024688	1093.96	68992
442	2.000000	1.143546	7.36939e+06	-54989.1	1005.82	-29742.6	0.000000	0.000000	7.145513	31.7502	NaN	0.000000	0.001686	0.001716	28.0819	24.2943	0.001753	13856.7	6.407558	2.124260	31.3607	1.143206	0.025537	0.025196	31.7502	13856.7	0.023818	0.028900	1098.61	74469.7
442	2.000000	1.146033	7.36939e+06	-54989.1	1005.82	-29742.6	0.000000	0.000000	7.148246	37.728	NaN	0.000000	0.001691	0.001702	28.0819	26.8663	0.001795	14966.3	5.665804	-178.276	38.2839	1.145697	0.028023	0.027687	37.728	14966.3	0.026133	0.033108	1139.53	75148.1
442	2.000000	1.148511	7.36939e+06	-54989.1	1005.82	-29742.6	0.000000	0.000000	7.150907	42.212	NaN	0.000000	0.001703	0.001736	28.0823	28.8068	0.001877	15347.1	9.145409	-0.856880	40.5198	1.148166	0.030501	0.030156	42.212	15347.1	0.028438	0.037568	1123.62	72342.2
442	2.000000	1.151000	7.36939e+06	-54989.1	1005.82	-29742.6	0.000000	0.000000	7.153704	49.6936	NaN	0.000000	0.001655	0.001731	28.082	31.4775	0.001800	17483.2	9.842319	176.757	48.1913	1.150701	0.032990	0.032691	49.6936	17483.2	0.030858	0.042541	1168.14	77444.7
442	2.000000	1.153515	7.36939e+06	-54989.1	1005.82	-29742.6	0.000000	0.000000	7.156473	55.8574	NaN	0.000000	0.001616	0.001732	28.0821	33.6094	0.001802	18647.6	3.665540	2.136770	54.8072	1.153160	0.035505	0.035150	55.8574	18647.6	0.033258	0.047768	1169.34	77951.5
442	2.000000	1.156021	7.36939e+06	-54989.1	1005.82	-29742.6	0.000000	0.000000	7.159218	61.6786	NaN	0.000000	0.001653	0.001717	28.0821	36.8057	0.001736	21204	5.128338	179.212	61.4307	1.155698	0.038011	0.037688	61.6786	21204	0.035829	0.053694	1148.7	83603.7
442	2.000000	1.158492	7.36939e+06	-54989.1	1005.82	-29742.6	0.000000	0.000000	7.162130	72.38	NaN	0.000000	0.001647	0.001718	28.0823	38.6022	0.001793	21533.3	4.830003	-0.201544	70.2413	1.158147	0.040482	0.040137	72.38	21533.3	0.037961	0.058865	1229.59	81087.5
442	2.000000	1.160932	7.36939e+06	-54989.1	1005.82	-29742.6	0.000000	0.000000	7.165039	83.8008	NaN	0.000000	0.001638	0.001716	28.082	40.9467	0.001772	23103.8	6.378897	176.722	80.6169	1.160685	0.042922	0.042675	83.8008	23103.8	0.040202	0.064550	1298.23	83082.1
442	2.000000	1.163464	7.36939e+06	-54989.1	1005.82	-29742.6	0.000000	0.000000	7.167978	93.6739	NaN	0.000000	0.001645	0.001693	28.0821	42.6286	0.001719	24799.6	3.492596	-0.856897	90.3804	1.163047	0.045454	0.045037	93.6739	24799.6	0.042621	0.070978	1319.76	85046.5
442	2.000000	1.166024	7.36939e+06	-54989.1	1005.82	-29742.6	0.000000	0.000000	7.171049	106.108	NaN	0.000000	0.001627	0.001712	28.0821	46.3633	0.001841	25189.2	9.250912	174.383	106.491	1.165599	0.048014	0.047589	106.108	25189.2	0.044855	0.077175	1374.91	82841.9
442	2.000000	1.168542	7.36939e+06	-54989.1	1005.82	-29742.6	0.000000	0.000000	7.173965	115.772	NaN	0.000000	0.001652	0.001707	28.0818	47.0505	0.001745	26960.5	4.804574	-1.461178	116.062	1.168022	0.050532	0.050012	115.772	26960.5	0.047311	0.084284	1373.59	84845.4
442	2.000000	1.170936	7.36939e+06	-54989.1	1005.82	-29742.6	0.000000	0.000000	7.176917	129.347	NaN	0.000000	0.001612	0.001695	28.0807	49.2713	0.001737	28360	3.725717	177.606	126.028	1.170635	0.052926	0.052625	129.347	28360	0.049506	0.090891	1423.09	85944.6
442	2.000000	1.173479	7.36939e+06	-54989.1	1005.82	-29742.6	0.000000	0.000000	7.179822	138.137	NaN	0.000000	0.001633	0.001749	28.081	51.9482	0.001775	29271.4	4.198829	-2.521575	136.796	1.173118	0.055469	0.055108	138.137	29271.4	0.051930	0.098472	1402.8	85223.7
442	2.000000	1.175962	7.36939e+06	-54989.1	1005.82	-29742.6	0.000000	0.000000	7.182693	147.564	NaN	0.000000	0.001612	0.001718	28.0813	55.7653	0.001751	31856.5	6.122660	174.736	145.705	1.175657	0.057952	0.057647	147.564	31856.5	0.054478	0.106756	1382.26	89079
442	2.000000	1.178465	7.36939e+06	-54989.1	1005.82	-29742.6	0.000000	0.000000	7.185915	165.049	NaN	0.000000	0.001722	0.001764	28.0809	57.1461	0.001709	33443.3	2.437306	-1.779233	160.966	1.178125	0.060455	0.060116	165.049	33443.3	0.056754	0.114425	1442.42	90328
442	2.000000	1.180912	7.36939e+06	-54989.1	1005.82	-29742.6	0.000000	0.000000	7.189084	182.599	NaN	0.000000	0.001698	0.001763	28.081	59.8748	0.001933	30976.9	6.323035	175.303	179.204	1.180646	0.062902	0.062636	182.599	30976.9	0.058481	0.120419	1516.37	81557.6
442	2.000000	1.183462	7.36939e+06	-54989.1	1005.82	-29742.6	0.000000	0.000000	7.192075	193.31	NaN	0.000000	0.001704	0.001758	28.0809	62.7487	0.001871	33530.2	4.799584	-4.273350	190.226	1.183073	0.065452	0.065063	193.31	33530.2	0.061128	0.129885	1488.32	85002
442	2.000000	1.185923	7.36939e+06	-54989.1	1005.82	-29742.6	0.000000	0.000000	7.195249	210.651	NaN	0.000000	0.001708	0.001756	28.0813	63.9614	0.001726	37068.1	0.625239	179.078	207.088	1.185696	0.067913	0.067686	210.651	37068.1	0.063651	0.139225	1513.02	90764.3
442	2.000000	1.188473	7.36939e+06	-54989.1	1005.82	-29742.6	0.000000	0.000000	7.198241	221.399	NaN	0.000000	0.001702	0.001768	28.0809	66.4698	0.001752	37948.7	4.359842	-4.887666	218.825	1.188094	0.070463	0.070084	221.399	37948.7	0.066087	0.148536	1490.54	89961
442	2.000000	1.190917	7.36939e+06	-54989.1	1005.82	-29742.6	0.000000	0.000000	7.201423	239.338	NaN	0.000000	0.001699	0.001750	28.0809	68.3537	0.001716	39839	4.892544	173.794	236.721	1.190632	0.072907	0.072622	239.338	39839	0.068401	0.157646	1518.2	91672.7
442	2.000000	1.193475	7.36939e+06	-54989.1	1005.82	-29742.6	0.000000	0.000000	7.204526	252.58	NaN	0.000000	0.001671	0.001777	28.0811	71.6407	0.001740	41163.3	5.167525	-6.544649	250.757	1.193185	0.075465	0.075175	252.58	41163.3	0.070863	0.167616	1506.9	91859.8
442	2.000000	1.195860	7.36939e+06	-54989.1	1005.82	-29742.6	0.000000	0.000000	7.207666	270.936	NaN	0.000000	0.001659	0.001773	28.0809	73.6412	0.001754	41995.3	1.214230	177.166	265.824	1.195646	0.077850	0.077636	270.936	41995.3	0.073011	0.176553	1534.59	91313.8
442	2.000000	1.198438	7.36939e+06	-54989.1	1005.82	-29742.6	0.000000	0.000000	7.211386	298.696	NaN	0.000000	0.001626	0.001769	28.081	76.2249	0.001802	42309.1	6.235600	-7.716907	293.925	1.198139	0.080428	0.080129	298.696	42309.1	0.075133	0.185594	1609.41	89727.5
442	2.000000	1.200818	7.36939e+06	-54989.1	1005.82	-29742.6	0.000000	0.000000	7.214410	314.358	NaN	0.000000	0.001602	0.001743	28.0809	78.3351	0.001849	42374.4	6.390997	172.512	308.155	1.200562	0.082808	0.082552	314.358	42374.4	0.077244	0.194798	1613.76	87717.1
442	2.000000	1.203389	7.36939e+06	-54989.1	1005.82	-29742.6	0.000000	0.000000	7.217768	333.48	NaN	0.000000	0.001580	0.001745	28.0826	80.4547	0.001840	43733.6	3.434579	-4.606552	329.996	1.203027	0.085379	0.085017	333.48	43733.6	0.079660	0.205590	1622.06	88122.6
442	2.000000	1.205922	7.36939e+06	-54989.1	1005.82	-29742.6	0.000000	0.000000	7.220987	350.167	NaN	0.000000	0.001635	0.001742	28.0823	83.6975	0.001807	46320.1	3.683365	174.338	350.172	1.205734	0.087912	0.087724	350.167	46320.1	0.082242	0.217423	1610.53	90759.2
442	2.000000	1.208486	7.36939e+06	-54989.1	1005.82	-29742.6	0.000000	0.000000	7.224525	373.858	NaN	0.000000	0.001592	0.001785	28.0822	84.2836	0.001825	46185.1	-0.004239	-1.501549	372.472	1.208057	0.090476	0.090047	373.858	46185.1	0.084405	0.227569	1642.83	88454.1
442	2.000000	1.210897	7.36939e+06	-54989.1	1005.82	-29742.6	0.000000	0.000000	7.227954	398.596	NaN	0.000000	0.001597	0.001781	28.0825	87.4258	0.001816	48150.7	5.219895	172.567	396.484	1.210635	0.092887	0.092625	398.596	48150.7	0.086678	0.238472	1671.46	90085.9
442	2.000000	1.213379	7.36939e+06	-54989.1	1005.82	-29742.6	0.000000	0.000000	7.231463	423.556	NaN	0.000000	0.001584	0.001780	28.0822	89.7729	0.001703	52728.2	6.836880	-9.745797	418.682	1.212980	0.095369	0.094970	423.556	52728.2	0.089345	0.251562	1683.7	96049.2
442	2.000000	1.215897	7.36939e+06	-54989.1	1005.82	-29742.6	0.000000	0.000000	7.234221	429.387	NaN	0.000000	0.001613	0.001795	28.082	92.7185	0.001772	52319.7	3.140911	173.691	427.739	1.215646	0.097887	0.097636	429.387	52319.7	0.091732	0.263559	1629.19	93110.8
442	2.000000	1.218445	7.36939e+06	-54989.1	1005.82	-29742.6	0.000000	0.000000	7.237795	454.345	NaN	0.000000	0.001607	0.001792	28.0821	95.1972	0.001821	52274.7	6.588617	-9.330804	449.704	1.218053	0.100435	0.100043	454.345	52274.7	0.093916	0.274764	1653.58	91113.9
442	2.000000	1.220831	7.36939e+06	-54989.1	1005.82	-29742.6	0.000000	0.000000	7.240992	474.045	NaN	0.000000	0.001602	0.001751	28.0823	97.0771	0.001904	50983	4.492838	172.694	468.858	1.220632	0.102821	0.102622	474.045	50983	0.095848	0.284854	1664.17	87274.6
442	2.000000	1.223417	7.36939e+06	-54989.1	1005.82	-29742.6	0.000000	0.000000	7.244926	506.805	NaN	0.000000	0.001649	0.001760	28.0821	99.047	0.001822	54372	1.940250	-4.977842	504.592	1.223082	0.105407	0.105073	506.805	54372	0.098417	0.298535	1697.64	90918.2
442	2.000000	1.225985	7.36939e+06	-54989.1	1005.82	-29742.6	0.000000	0.000000	7.248251	525.2	NaN	0.000000	0.001636	0.001770	28.0824	102.135	0.001818	56181	2.165463	174.621	528.545	1.225683	0.107976	0.107673	525.2	56181	0.100964	0.312402	1681.17	91834.5