File: remote_trans/data/nanoindenter/0828-1/data/Data_2025-08-06,11h17m57s/2025-07-22_16-23-58_1_498.txt
2025-07-22, 16:23:58, 1
Index	Phase	Displacement	Time	Pos X	Pos Y	Pos Z	Rot A	Rot B	Piezo Z	Force A	Force B	Gripper	Voltage A	Voltage B	Temperature	Amplitude force	Amplitude pos	Stiffness	Phase shift	Phase excitation	Force A raw	Displacement raw	HMax	HMax raw	Real Force	Real Stiffness	Contact Depth	Area	Hardness	Reduced Mod.
[#]	[#]	[um]	[s]	[um]	[um]	[um]	[m°]	[m°]	[um]	[uN]	[uN]	[V]	[V]	[V]	[°C]	[uN]	[um]	[N/m]	[°]	[°]	[uN]	[um]	[um]	[um]	[uN]	[N/m]	[um]	[um^2]	[MPa]	[MPa]
498	1.000000	0.002506	7.36992e+06	-52189.1	1005.82	-29749.9	0.000000	0.000000	6.002798	-0.010928	NaN	0.000000	0.001586	0.001734	28.0834	0.047203	0.000896	52.658	-66.9343	-162.889	0.032217	0.001255	-1.059756	-1.061007	-0.010928	52.658	-1.059600	-1.436976E+14	7.604646E-17	NaN
498	1.000000	0.010461	7.36992e+06	-52189.1	1005.82	-29749.9	0.000000	0.000000	6.010755	0.038822	NaN	0.000000	0.001601	0.001736	28.0829	0.031721	0.001011	31.3857	115.586	-165.811	0.016508	0.009113	-1.051801	-1.053149	0.038822	31.3857	-1.052729	-1.161705E+14	-3.341855E-16	NaN
498	1.000000	0.018474	7.36992e+06	-52189.1	1005.82	-29749.9	0.000000	0.000000	6.018769	0.060387	NaN	0.000000	0.001631	0.001718	28.083	0.043566	0.001718	25.3652	22.6291	-163.353	-0.004438	0.017134	-1.043788	-1.045128	0.060387	25.3652	-1.045573	-9.308992E+13	-6.486979E-16	NaN
498	1.000000	0.026506	7.36992e+06	-52189.1	1005.82	-29749.9	0.000000	0.000000	6.026801	0.074483	NaN	0.000000	0.001623	0.001711	28.083	0.047736	0.001871	25.5154	160.908	-164.311	0.086080	0.025122	-1.035756	-1.037140	0.074483	25.5154	-1.037946	-7.350937E+13	-1.013243E-15	NaN
498	1.000000	0.034463	7.36992e+06	-52189.1	1005.82	-29749.9	0.000000	0.000000	6.034756	0.014107	NaN	0.000000	0.001634	0.001738	28.0821	0.032914	0.001878	17.5275	-133.105	-163.586	0.028349	0.033196	-1.027799	-1.029066	0.014107	17.5275	-1.028402	-5.470044E+13	-2.579016E-16	NaN
498	1.000000	0.042453	7.36992e+06	-52189.1	1005.82	-29749.9	0.000000	0.000000	6.042750	0.110512	NaN	0.000000	0.001653	0.001702	28.082	0.132774	0.001933	68.6972	-80.5709	-160.262	0.101795	0.041087	-1.019809	-1.021175	0.110512	68.6972	-1.021015	-4.351229E+13	-2.539786E-15	NaN
498	1.000000	0.050449	7.36992e+06	-52189.1	1005.82	-29749.9	0.000000	0.000000	6.050742	-0.004449	NaN	0.000000	0.001634	0.001714	28.0819	0.126427	0.001970	64.1697	-32.5149	-164.418	0.061600	0.049190	-1.011813	-1.013072	-0.004449	64.1697	-1.011761	-3.266467E+13	1.361953E-16	NaN
498	1.000000	0.058477	7.36992e+06	-52189.1	1005.82	-29749.9	0.000000	0.000000	6.058772	0.071885	NaN	0.000000	0.001604	0.001715	28.0821	0.069618	0.001973	35.2935	72.2668	-166.546	0.089279	0.057194	-1.003785	-1.005068	0.071885	35.2935	-1.005313	-2.674787E+13	-2.687499E-15	NaN
498	1.000000	0.066436	7.36992e+06	-52189.1	1005.82	-29749.9	0.000000	0.000000	6.066730	0.048391	NaN	0.000000	0.001619	0.001720	28.0819	0.025966	0.001969	13.1868	58.7059	-167.428	-0.044759	0.065062	-0.995826	-0.997200	0.048391	13.1868	-0.998579	-2.170860E+13	-2.229097E-15	NaN
498	1.000000	0.074446	7.36992e+06	-52189.1	1005.82	-29749.9	0.000000	0.000000	6.074741	0.064109	NaN	0.000000	0.001589	0.001728	28.0818	0.146897	0.002022	72.6393	91.2432	-162.167	0.094827	0.073172	-0.987816	-0.989090	0.064109	72.6393	-0.988478	-1.587148E+13	-4.039254E-15	NaN
498	1.000000	0.082467	7.36992e+06	-52189.1	1005.82	-29749.9	0.000000	0.000000	6.082763	0.072395	NaN	0.000000	0.001628	0.001733	28.0819	0.121065	0.002100	57.6463	-46.1271	-164.515	0.089309	0.081153	-0.979795	-0.981109	0.072395	57.6463	-0.980737	-1.248340E+13	-5.799314E-15	NaN
498	1.000000	0.090461	7.36992e+06	-52189.1	1005.82	-29749.9	0.000000	0.000000	6.090756	0.067373	NaN	0.000000	0.001623	0.001706	28.0818	0.065426	0.002026	32.2951	-85.9691	-166.054	0.011379	0.089193	-0.971801	-0.973069	0.067373	32.2951	-0.973366	-9.931685E+12	-6.783611E-15	NaN
498	1.000000	0.098505	7.36992e+06	-52189.1	1005.82	-29749.9	0.000000	0.000000	6.098801	0.076678	NaN	0.000000	0.001573	0.001700	28.082	0.102953	0.002042	50.4062	136.791	-160.549	0.083247	0.097200	-0.963757	-0.965062	0.076678	50.4062	-0.964898	-7.636497E+12	-1.004099E-14	NaN
498	1.000000	0.106458	7.36992e+06	-52189.1	1005.82	-29749.9	0.000000	0.000000	6.106752	0.048395	NaN	0.000000	0.001623	0.001702	28.0818	0.146817	0.001985	73.9598	-104.693	-165.102	0.099808	0.105210	-0.955804	-0.957052	0.048395	73.9598	-0.956295	-5.846748E+12	-8.277275E-15	NaN
498	1.000000	0.114483	7.36992e+06	-52189.1	1005.82	-29749.9	0.000000	0.000000	6.114778	0.058961	NaN	0.000000	0.001579	0.001686	28.082	0.092257	0.002056	44.8644	-121.742	-166.581	0.049606	0.113175	-0.947779	-0.949087	0.058961	44.8644	-0.948765	-4.627735E+12	-1.274072E-14	NaN
498	1.000000	0.122482	7.36992e+06	-52189.1	1005.82	-29750	0.000000	0.000000	6.122778	0.094791	NaN	0.000000	0.001636	0.001700	28.0819	0.043912	0.001948	22.5455	-128.129	-166.865	0.139965	0.121189	-0.939780	-0.941073	0.094791	22.5455	-0.942933	-3.861100E+12	-2.455033E-14	NaN
498	1.000000	0.130490	7.36992e+06	-52189.1	1005.82	-29750	0.000000	0.000000	6.130784	0.049628	NaN	0.000000	0.001663	0.001682	28.0819	0.031574	0.001882	16.7787	-118.037	-165.942	0.078092	0.129195	-0.931772	-0.933067	0.049628	16.7787	-0.933990	-2.924480E+12	-1.696972E-14	NaN
498	1.000000	0.138487	7.36992e+06	-52189.1	1005.82	-29750	0.000000	0.000000	6.138781	0.046058	NaN	0.000000	0.001669	0.001728	28.0821	0.013536	0.001992	6.796451	145.094	-166.265	0.012786	0.137147	-0.923775	-0.925115	0.046058	6.796451	-0.928858	-2.493317E+12	-1.847255E-14	NaN
498	1.000000	0.146476	7.36992e+06	-52189.1	1005.82	-29750	0.000000	0.000000	6.146771	0.065791	NaN	0.000000	0.001656	0.001711	28.0818	0.115810	0.001928	60.0566	-178.24	-165.366	-0.038585	0.145113	-0.915786	-0.917149	0.065791	60.0566	-0.916608	-1.703731E+12	-3.861558E-14	NaN
498	1.000000	0.154490	7.36992e+06	-52189.1	1005.82	-29750	0.000000	0.000000	6.154786	0.082186	NaN	0.000000	0.001632	0.001695	28.0822	0.084675	0.002016	41.9982	102.595	-162.766	0.086656	0.153185	-0.907772	-0.909077	0.082186	41.9982	-0.909239	-1.354847E+12	-6.066102E-14	NaN
498	1.000000	0.162524	7.36992e+06	-52189.1	1005.82	-29750	0.000000	0.000000	6.162817	0.016722	NaN	0.000000	0.001662	0.001716	28.0819	0.071785	0.001997	35.9506	-160.476	-166.089	0.054708	0.161180	-0.899738	-0.901082	0.016722	35.9506	-0.900087	-1.019162E+12	-1.640782E-14	NaN
498	1.000000	0.170523	7.36992e+06	-52189.1	1005.82	-29750	0.000000	0.000000	6.170818	0.073678	NaN	0.000000	0.001635	0.001760	28.0826	0.018599	0.001907	9.753562	8.615985	-162.97	-0.026246	0.169194	-0.891739	-0.893068	0.073678	9.753562	-0.897405	-9.375568E+11	-7.858515E-14	NaN
498	1.000000	0.178492	7.36992e+06	-52189.1	1005.82	-29750	0.000000	0.000000	6.178788	0.076160	NaN	0.000000	0.001669	0.001751	28.0832	0.041687	0.001958	21.2862	-5.138033	-164.186	0.094731	0.177229	-0.883770	-0.885033	0.076160	21.2862	-0.886453	-6.667569E+11	-1.142249E-13	NaN
498	1.000000	0.186507	7.36992e+06	-52189.1	1005.82	-29750	0.000000	0.000000	6.186800	0.001826	NaN	0.000000	0.001665	0.001765	28.0831	0.042170	0.001924	21.9218	94.8003	-164.39	-0.010184	0.185210	-0.875755	-0.877052	0.001826	21.9218	-0.875817	-4.787785E+11	-3.814442E-15	NaN
498	1.000000	0.194499	7.36992e+06	-52189.1	1005.82	-29750	0.000000	0.000000	6.194797	0.138350	NaN	0.000000	0.001672	0.001722	28.0832	0.058984	0.002162	27.281	122.518	-164.825	0.098341	0.193185	-0.867763	-0.869077	0.138350	27.281	-0.871567	-4.194116E+11	-3.298679E-13	NaN
498	1.000000	0.202493	7.36992e+06	-52189.1	1005.82	-29750	0.000000	0.000000	6.202787	0.040849	NaN	0.000000	0.001646	0.001711	28.0831	0.046430	0.002045	22.7013	-171.014	-162.615	-0.028803	0.201188	-0.859769	-0.861074	0.040849	22.7013	-0.861118	-3.028724E+11	-1.348734E-13	NaN
498	1.000000	0.210510	7.36992e+06	-52189.1	1005.82	-29750	0.000000	0.000000	6.210805	0.063073	NaN	0.000000	0.001617	0.001723	28.0833	0.162163	0.002126	76.2661	169.611	-167.432	0.027167	0.209218	-0.851752	-0.853044	0.063073	76.2661	-0.852373	-2.306033E+11	-2.735125E-13	NaN
498	1.000000	0.218544	7.36992e+06	-52189.1	1005.82	-29750	0.000000	0.000000	6.218837	0.012104	NaN	0.000000	0.001659	0.001739	28.0833	0.143775	0.001912	75.2061	-83.2798	-164.867	0.077629	0.217229	-0.843718	-0.845033	0.012104	75.2061	-0.843839	-1.767223E+11	-6.849332E-14	NaN
498	1.000000	0.226545	7.36992e+06	-52189.1	1005.82	-29750	0.000000	0.000000	6.226835	-0.044010	NaN	0.000000	0.001645	0.001706	28.0832	0.089147	0.001978	45.0732	176.248	-164.151	0.046770	0.225256	-0.835717	-0.837006	-0.044010	45.0732	-0.834985	-1.340737E+11	3.282505E-13	NaN
498	1.000000	0.234545	7.36992e+06	-52189.1	1005.82	-29750	0.000000	0.000000	6.234838	0.015111	NaN	0.000000	0.001642	0.001729	28.0832	0.106487	0.001956	54.4383	177.984	-163.005	0.027533	0.233206	-0.827717	-0.829056	0.015111	54.4383	-0.827925	-1.075613E+11	-1.404853E-13	NaN
498	1.000000	0.242552	7.36992e+06	-52189.1	1005.82	-29750	0.000000	0.000000	6.242844	-0.013098	NaN	0.000000	0.001639	0.001704	28.0833	0.020100	0.002031	9.895839	-13.1956	-163.624	0.043394	0.241249	-0.819710	-0.821013	-0.013098	9.895839	-0.818717	-8.068932E+10	1.623316E-13	NaN
498	1.000000	0.250542	7.36992e+06	-52189.1	1005.82	-29750	0.000000	0.000000	6.250839	0.106789	NaN	0.000000	0.001650	0.001771	28.0834	0.110927	0.001995	55.5942	104.665	-164.485	0.119126	0.249216	-0.811720	-0.813046	0.106789	55.5942	-0.813161	-6.783434E+10	-1.574266E-12	NaN
498	1.000000	0.258544	7.36992e+06	-52189.1	1005.82	-29750	0.000000	0.000000	6.258840	0.088771	NaN	0.000000	0.001614	0.001750	28.0835	0.011550	0.002070	5.578832	74.679	-163.183	0.032738	0.257171	-0.803718	-0.805091	0.088771	5.578832	-0.815652	-7.332374E+10	-1.210674E-12	NaN
498	1.000000	0.266551	7.36992e+06	-52189.1	1005.82	-29750	0.000000	0.000000	6.266848	0.095998	NaN	0.000000	0.001666	0.001721	28.0833	0.085418	0.002000	42.7002	-148.457	-163.074	0.087422	0.265248	-0.795711	-0.797014	0.095998	42.7002	-0.797397	-4.144994E+10	-2.315997E-12	NaN
498	1.000000	0.274542	7.36992e+06	-52189.1	1005.82	-29750	0.000000	0.000000	6.274833	-0.025571	NaN	0.000000	0.001639	0.001692	28.0832	0.073859	0.002003	36.8683	-117.847	-163.381	0.040324	0.273266	-0.787720	-0.788996	-0.025571	36.8683	-0.787200	-3.013366E+10	8.485977E-13	NaN
498	1.000000	0.282532	7.36992e+06	-52189.1	1005.82	-29750	0.000000	0.000000	6.282827	0.066781	NaN	0.000000	0.001589	0.001740	28.0834	0.032905	0.002039	16.1347	-18.4816	-167.279	0.022805	0.281280	-0.779730	-0.780982	0.066781	16.1347	-0.782834	-2.628729E+10	-2.540438E-12	NaN
498	1.000000	0.290584	7.36992e+06	-52189.1	1005.82	-29750	0.000000	0.000000	6.290878	0.042792	NaN	0.000000	0.001634	0.001694	28.0833	0.019857	0.001883	10.5479	146.699	-161.417	0.033362	0.289229	-0.771678	-0.773033	0.042792	10.5479	-0.774721	-2.039298E+10	-2.098377E-12	NaN
498	1.000000	0.298542	7.36992e+06	-52189.1	1005.82	-29750	0.000000	0.000000	6.298836	0.040117	NaN	0.000000	0.001595	0.001714	28.0837	0.153549	0.001935	79.3476	37.8649	-163.893	0.009660	0.297245	-0.763720	-0.765017	0.040117	79.3476	-0.764099	-1.462385E+10	-2.743257E-12	NaN
498	1.000000	0.306581	7.36992e+06	-52189.1	1005.82	-29750	0.000000	0.000000	6.306874	0.027162	NaN	0.000000	0.001630	0.001703	28.083	0.053164	0.002012	26.4265	35.0303	-162.226	0.041567	0.305258	-0.755681	-0.757004	0.027162	26.4265	-0.756452	-1.150884E+10	-2.360081E-12	NaN
498	1.000000	0.314555	7.36992e+06	-52189.1	1005.82	-29750	0.000000	0.000000	6.314852	0.104079	NaN	0.000000	0.001629	0.001707	28.0824	0.085074	0.001953	43.5541	164.343	-166.952	0.058253	0.313224	-0.747707	-0.749038	0.104079	43.5541	-0.749499	-9.255611E+9	-1.124498E-11	NaN
498	1.000000	0.322572	7.36992e+06	-52189.1	1005.82	-29750	0.000000	0.000000	6.322868	0.089378	NaN	0.000000	0.001635	0.001703	28.0827	0.077353	0.001952	39.634	-109.895	-166.36	0.020067	0.321252	-0.739690	-0.741010	0.089378	39.634	-0.741382	-7.175864E+9	-1.245530E-11	NaN
498	1.000000	0.330560	7.36992e+06	-52189.1	1005.82	-29750	0.000000	0.000000	6.330855	0.071198	NaN	0.000000	0.001609	0.001707	28.0828	0.030126	0.001955	15.4089	126.56	-165.048	0.068990	0.329219	-0.731702	-0.733043	0.071198	15.4089	-0.735167	-5.905033E+9	-1.205709E-11	NaN
498	1.000000	0.338549	7.36992e+06	-52189.1	1005.82	-29750	0.000000	0.000000	6.338842	0.014118	NaN	0.000000	0.001677	0.001691	28.0823	0.071383	0.001959	36.4312	-157.342	-166.615	0.001761	0.337264	-0.723713	-0.724998	0.014118	36.4312	-0.724003	-4.159703E+9	-3.393957E-12	NaN
498	1.000000	0.346592	7.36992e+06	-52189.1	1005.82	-29750	0.000000	0.000000	6.346886	0.041448	NaN	0.000000	0.001654	0.001678	28.0824	0.038095	0.001981	19.2286	169.287	-165.113	0.010328	0.345250	-0.715670	-0.717012	0.041448	19.2286	-0.717287	-3.368738E+9	-1.230384E-11	NaN
498	1.000000	0.354582	7.36992e+06	-52189.1	1005.82	-29750	0.000000	0.000000	6.354875	0.011593	NaN	0.000000	0.001696	0.001666	28.0824	0.115770	0.002020	57.3143	127.837	-163.245	-0.055836	0.353290	-0.707680	-0.708972	0.011593	57.3143	-0.707832	-2.502991E+9	-4.631621E-12	NaN
498	1.000000	0.362610	7.36992e+06	-52189.1	1005.82	-29750	0.000000	0.000000	6.362905	0.066902	NaN	0.000000	0.001643	0.001712	28.0825	0.047109	0.002003	23.5214	-133.119	-167.109	0.077942	0.361269	-0.699652	-0.700993	0.066902	23.5214	-0.701785	-2.069694E+9	-3.232441E-11	NaN
498	1.000000	0.370591	7.36992e+06	-52189.1	1005.82	-29750	0.000000	0.000000	6.370884	0.007846	NaN	0.000000	0.001664	0.001727	28.0824	0.017658	0.002068	8.537931	152.563	-165.246	0.041641	0.369246	-0.691671	-0.693016	0.007846	8.537931	-0.692360	-1.538735E+9	-5.098816E-12	NaN
498	1.000000	0.378580	7.36992e+06	-52189.1	1005.82	-29750	0.000000	0.000000	6.378877	0.117652	NaN	0.000000	0.001604	0.001721	28.0823	0.037613	0.001955	19.2384	-169.624	-165.357	0.111141	0.377295	-0.683682	-0.684967	0.117652	19.2384	-0.688269	-1.352864E+9	-8.696519E-11	NaN
498	1.000000	0.386605	7.36993e+06	-52189.1	1005.82	-29750	0.000000	0.000000	6.386901	0.083584	NaN	0.000000	0.001613	0.001704	28.0826	0.052969	0.001975	26.813	-156.474	-164.596	0.047506	0.385299	-0.675657	-0.676963	0.083584	26.813	-0.677995	-9.789875E+8	-8.537793E-11	NaN
498	1.000000	0.394568	7.36993e+06	-52189.1	1005.82	-29750	0.000000	0.000000	6.394862	0.042259	NaN	0.000000	0.001652	0.001706	28.0825	0.082690	0.001962	42.1359	7.467425	-164.927	0.061433	0.393328	-0.667694	-0.668934	0.042259	42.1359	-0.668446	-7.246379E+8	-5.831758E-11	NaN
498	1.000000	0.402594	7.36993e+06	-52189.1	1005.82	-29750	0.000000	0.000000	6.402890	0.082355	NaN	0.000000	0.001640	0.001691	28.0827	0.035928	0.002082	17.2529	-47.6905	-163.051	0.106459	0.401323	-0.659668	-0.660939	0.082355	17.2529	-0.663248	-6.151154E+8	-1.338861E-10	NaN
498	1.000000	0.410618	7.36993e+06	-52189.1	1005.82	-29750	0.000000	0.000000	6.410911	0.031737	NaN	0.000000	0.001633	0.001679	28.0823	0.089898	0.001944	46.2492	-166.955	-166.232	0.081146	0.409301	-0.651644	-0.652961	0.031737	46.2492	-0.652159	-4.335420E+8	-7.320395E-11	NaN
498	1.000000	0.418626	7.36993e+06	-52189.1	1005.82	-29750	0.000000	0.000000	6.418921	0.060877	NaN	0.000000	0.001617	0.001700	28.0825	0.036572	0.002026	18.0545	-4.994402	-163.127	0.113042	0.417339	-0.643636	-0.644923	0.060877	18.0545	-0.646165	-3.587983E+8	-1.696697E-10	NaN
498	1.000000	0.426575	7.36993e+06	-52189.1	1005.82	-29750	0.000000	0.000000	6.426871	0.080784	NaN	0.000000	0.001676	0.001737	28.0825	0.099863	0.002034	49.092	158.24	-163.246	0.037106	0.425303	-0.635687	-0.636959	0.080784	49.092	-0.636921	-2.679412E+8	-3.014974E-10	NaN
498	1.000000	0.434628	7.36993e+06	-52189.1	1005.82	-29750	0.000000	0.000000	6.434920	0.000610	NaN	0.000000	0.001664	0.001693	28.0826	0.088927	0.001912	46.505	156.097	-164.172	-0.063970	0.433291	-0.627634	-0.628971	0.000610	46.505	-0.627644	-1.998345E+8	-3.052085E-12	NaN
498	1.000000	0.442634	7.36993e+06	-52189.1	1005.82	-29750	0.000000	0.000000	6.442927	0.024304	NaN	0.000000	0.001650	0.001671	28.0831	0.063575	0.002068	30.7441	113.97	-168.114	0.019033	0.441349	-0.619628	-0.620913	0.024304	30.7441	-0.620221	-1.580046E+8	-1.538198E-10	NaN
498	1.000000	0.450648	7.36993e+06	-52189.1	1005.82	-29750	0.000000	0.000000	6.450940	-0.008881	NaN	0.000000	0.001697	0.001701	28.084	0.064268	0.002149	29.9109	-148.563	-164	-0.008063	0.449273	-0.611614	-0.612989	-0.008881	29.9109	-0.611391	-1.194679E+8	7.433475E-11	NaN
498	1.000000	0.458646	7.36993e+06	-52189.1	1005.82	-29750	0.000000	0.000000	6.458937	-0.041341	NaN	0.000000	0.001637	0.001701	28.0838	0.049701	0.002118	23.4669	150.172	-165.664	-0.031666	0.457350	-0.603616	-0.604912	-0.041341	23.4669	-0.602295	-8.954881E+7	4.616556E-10	NaN
498	1.000000	0.466635	7.36993e+06	-52189.1	1005.82	-29750	0.000000	0.000000	6.466928	0.024201	NaN	0.000000	0.001654	0.001671	28.0839	0.065214	0.002084	31.2885	-159.056	-165.75	0.078576	0.465298	-0.595627	-0.596964	0.024201	31.2885	-0.596207	-7.382734E+7	-3.278054E-10	NaN
498	1.000000	0.474630	7.36993e+06	-52189.1	1005.82	-29750	0.000000	0.000000	6.474925	0.063692	NaN	0.000000	0.001660	0.001729	28.0838	0.052420	0.002026	25.8707	-128.096	-164.113	0.019345	0.473330	-0.587632	-0.588932	0.063692	25.8707	-0.589478	-5.963138E+7	-1.068093E-9	NaN
498	1.000000	0.482634	7.36993e+06	-52189.1	1005.82	-29750	0.000000	0.000000	6.482931	0.100813	NaN	0.000000	0.001661	0.001698	28.0837	0.065453	0.002100	31.1753	-71.1419	-166.985	0.132919	0.481302	-0.579628	-0.580960	0.100813	31.1753	-0.582053	-4.710397E+7	-2.140232E-9	NaN
498	1.000000	0.490675	7.36993e+06	-52189.1	1005.82	-29750	0.000000	0.000000	6.490971	0.086254	NaN	0.000000	0.001623	0.001707	28.0841	0.082615	0.001981	41.7	-18.3073	-165.259	0.041595	0.489371	-0.571587	-0.572891	0.086254	41.7	-0.573138	-3.548003E+7	-2.431048E-9	NaN
498	1.000000	0.498637	7.36993e+06	-52189.1	1005.82	-29750	0.000000	0.000000	6.498934	0.107990	NaN	0.000000	0.001657	0.001722	28.0838	0.045710	0.002027	22.5497	122.2	-165.597	0.124046	0.497306	-0.563625	-0.564956	0.107990	22.5497	-0.567217	-2.938769E+7	-3.674680E-9	NaN
498	1.000000	0.506627	7.36993e+06	-52189.1	1005.82	-29750	0.000000	0.000000	6.506919	-0.000605	NaN	0.000000	0.001612	0.001706	28.0837	0.030708	0.002028	15.1449	-14.6168	-168.314	0.024209	0.505329	-0.555635	-0.556933	-0.000605	15.1449	-0.555605	-2.030321E+7	2.981785E-11	NaN
498	1.000000	0.514674	7.36993e+06	-52189.1	1005.82	-29750	0.000000	0.000000	6.514969	0.055086	NaN	0.000000	0.001641	0.001714	28.0836	0.037739	0.001943	19.422	173.257	-165.405	0.055514	0.513324	-0.547588	-0.548938	0.055086	19.422	-0.549715	-1.682709E+7	-3.273647E-9	NaN
498	1.000000	0.522650	7.36993e+06	-52189.1	1005.82	-29750	0.000000	0.000000	6.522944	0.032119	NaN	0.000000	0.001622	0.001754	28.0834	0.116412	0.001982	58.7415	-81.599	-162.136	0.008891	0.521294	-0.539612	-0.540968	0.032119	58.7415	-0.540022	-1.234982E+7	-2.600745E-9	NaN
498	1.000000	0.530655	7.36993e+06	-52189.1	1005.82	-29750	0.000000	0.000000	6.530951	0.078352	NaN	0.000000	0.001636	0.001679	28.0836	0.046487	0.002087	22.2768	33.5575	-160.826	0.060008	0.529364	-0.531607	-0.532898	0.078352	22.2768	-0.534244	-1.026843E+7	-7.630412E-9	NaN
498	1.000000	0.538674	7.36993e+06	-52189.1	1005.82	-29750	0.000000	0.000000	6.538968	0.033952	NaN	0.000000	0.001606	0.001693	28.0836	0.014611	0.002098	6.963561	-171.925	-161.592	0.060201	0.537335	-0.523588	-0.524927	0.033952	6.963561	-0.527245	-8.20923e+06	-4.135883E-9	NaN
498	1.000000	0.546667	7.36993e+06	-52189.1	1005.82	-29750	0.000000	0.000000	6.546959	0.005947	NaN	0.000000	0.001560	0.001701	28.0838	0.086996	0.001957	44.4608	-30.6356	-162.426	0.013468	0.545338	-0.515595	-0.516924	0.005947	44.4608	-0.515696	-5.67171e+06	-1.048500E-9	NaN
498	1.000000	0.554644	7.36993e+06	-52189.1	1005.82	-29750	0.000000	0.000000	6.554939	0.058468	NaN	0.000000	0.001587	0.001703	28.0837	0.114639	0.001886	60.7762	-46.8714	-164.46	0.001106	0.553356	-0.507618	-0.508906	0.058468	60.7762	-0.508340	-4.4801e+06	-1.305053E-8	NaN
498	1.000000	0.562673	7.36993e+06	-52189.1	1005.82	-29750	0.000000	0.000000	6.562967	0.049003	NaN	0.000000	0.001603	0.001690	28.0836	0.050944	0.001879	27.1146	-158.339	-166.963	0.073585	0.561400	-0.499589	-0.500862	0.049003	27.1146	-0.500945	-3.53342e+06	-1.386833E-8	NaN
498	1.000000	0.570646	7.36993e+06	-52189.1	1005.82	-29750	0.000000	0.000000	6.570941	0.056497	NaN	0.000000	0.001586	0.001689	28.0837	0.070549	0.001864	37.856	34.236	-165.134	0.082544	0.569377	-0.491616	-0.492885	0.056497	37.856	-0.492735	-2.714e+06	-2.081678E-8	NaN
498	1.000000	0.578653	7.36993e+06	-52189.1	1005.82	-29750	0.000000	0.000000	6.578946	-0.000208	NaN	0.000000	0.001593	0.001710	28.0835	0.116131	0.001990	58.366	80.2592	-164.238	0.009202	0.577376	-0.483609	-0.484886	-0.000208	58.366	-0.483606	-2.02299e+06	1.026646E-10	NaN
498	1.000000	0.586671	7.36993e+06	-52189.1	1005.82	-29750	0.000000	0.000000	6.586961	-0.065522	NaN	0.000000	0.001636	0.001715	28.0826	0.066047	0.002012	32.8333	118.47	-163.135	0.009896	0.585372	-0.475591	-0.476890	-0.065522	32.8333	-0.474094	-1.48871e+06	4.401289E-8	NaN
498	1.000000	0.594676	7.36993e+06	-52189.1	1005.82	-29750	0.000000	0.000000	6.594973	0.114008	NaN	0.000000	0.001658	0.001700	28.0826	0.074929	0.001975	37.939	-124.385	-163.34	0.080499	0.593322	-0.467586	-0.468940	0.114008	37.939	-0.469840	-1.29766e+06	-8.785685E-8	NaN
498	1.000000	0.602682	7.36993e+06	-52189.1	1005.82	-29750	0.000000	0.000000	6.602977	0.070209	NaN	0.000000	0.001636	0.001719	28.0824	0.098688	0.001939	50.8963	-27.3353	-164.351	0.011303	0.601367	-0.459580	-0.460895	0.070209	50.8963	-0.460614	-963057	-7.290168E-8	NaN
498	1.000000	0.610691	7.36993e+06	-52189.1	1005.82	-29750	0.000000	0.000000	6.610982	-0.024375	NaN	0.000000	0.001628	0.001738	28.0826	0.055367	0.001992	27.7914	-85.0738	-160.081	0.005927	0.609404	-0.451571	-0.452858	-0.024375	27.7914	-0.450913	-703402	3.465297E-8	NaN
498	1.000000	0.618703	7.36993e+06	-52189.1	1005.82	-29750	0.000000	0.000000	6.618998	0.079088	NaN	0.000000	0.001625	0.001718	28.0824	0.028352	0.002038	13.9127	-6.783622	-167.716	0.097572	0.617391	-0.443559	-0.444871	0.079088	13.9127	-0.447823	-636322	-1.242901E-7	NaN
498	1.000000	0.626698	7.36993e+06	-52189.1	1005.82	-29750	0.000000	0.000000	6.626991	0.008761	NaN	0.000000	0.001599	0.001679	28.0821	0.015491	0.002006	7.724165	158.75	-167.751	0.019436	0.625398	-0.435564	-0.436864	0.008761	7.724165	-0.436415	-439283	-1.994483E-8	NaN
498	1.000000	0.634717	7.36993e+06	-52189.1	1005.82	-29750	0.000000	0.000000	6.635009	0.005423	NaN	0.000000	0.001592	0.001670	28.0823	0.088716	0.002013	44.0645	-114.135	-165.969	-0.012792	0.633432	-0.427545	-0.428830	0.005423	44.0645	-0.427638	-330089	-1.642861E-8	NaN
498	1.000000	0.642701	7.36993e+06	-52189.1	1005.82	-29750	0.000000	0.000000	6.642993	-0.004969	NaN	0.000000	0.001624	0.001728	28.0823	0.109506	0.001822	60.1159	-19.3462	-164.811	0.061735	0.641415	-0.419561	-0.420847	-0.004969	60.1159	-0.419499	-253113	1.963187E-8	NaN
498	1.000000	0.650731	7.36993e+06	-52189.1	1005.82	-29750	0.000000	0.000000	6.651024	0.023395	NaN	0.000000	0.001643	0.001743	28.0827	0.129569	0.001896	68.3399	174.531	-164.434	0.042314	0.649396	-0.411531	-0.412866	0.023395	68.3399	-0.411788	-196707	-1.189349E-7	NaN
498	1.000000	0.658741	7.36993e+06	-52189.1	1005.82	-29750	0.000000	0.000000	6.659035	0.025050	NaN	0.000000	0.001662	0.001755	28.0823	0.060233	0.002003	30.0682	24.6251	-163.968	-0.043186	0.657411	-0.403521	-0.404851	0.025050	30.0682	-0.404145	-153136	-1.635800E-7	NaN
498	1.000000	0.666739	7.36993e+06	-52189.1	1005.82	-29750	0.000000	0.000000	6.667032	0.023719	NaN	0.000000	0.001662	0.001729	28.0822	0.070389	0.001904	36.9709	40.7881	-168.13	-0.001654	0.665405	-0.395523	-0.396857	0.023719	36.9709	-0.396005	-117214	-2.023569E-7	NaN
498	1.000000	0.674690	7.36993e+06	-52189.1	1005.82	-29750	0.000000	0.000000	6.674983	0.030564	NaN	0.000000	0.001692	0.001710	28.0823	0.089051	0.002014	44.2167	114.292	-164.399	0.008879	0.673428	-0.387572	-0.388834	0.030564	44.2167	-0.388091	-90333.6	-3.383447E-7	NaN
498	1.000000	0.682733	7.36993e+06	-52189.1	1005.82	-29750	0.000000	0.000000	6.683026	0.018834	NaN	0.000000	0.001687	0.001680	28.0823	0.100260	0.001947	51.4909	-154.562	-167.101	0.073120	0.681463	-0.379529	-0.380799	0.018834	51.4909	-0.379804	-68717.9	-2.740834E-7	NaN
498	1.000000	0.690721	7.36993e+06	-52189.1	1005.82	-29750	0.000000	0.000000	6.691011	-0.059620	NaN	0.000000	0.001674	0.001718	28.0826	0.058271	0.001927	30.2325	130.306	-162.598	-0.023549	0.689400	-0.371541	-0.372862	-0.059620	30.2325	-0.370062	-49776.4	1.197758E-6	NaN
498	1.000000	0.698706	7.36993e+06	-52189.1	1005.82	-29750	0.000000	0.000000	6.698998	-0.021428	NaN	0.000000	0.001668	0.001712	28.082	0.041070	0.001968	20.8666	-41.0491	-163.856	0.017114	0.697401	-0.363556	-0.364861	-0.021428	20.8666	-0.362786	-39092.5	5.481427E-7	NaN
498	1.000000	0.706762	7.36993e+06	-52189.1	1005.82	-29750	0.000000	0.000000	6.707058	0.078278	NaN	0.000000	0.001623	0.001677	28.0821	0.056771	0.001946	29.1686	122.957	-161.921	0.083512	0.705396	-0.355500	-0.356866	0.078278	29.1686	-0.357513	-32800	-2.386534E-6	NaN
498	1.000000	0.714727	7.36993e+06	-52189.1	1005.82	-29750	0.000000	0.000000	6.715020	0.021006	NaN	0.000000	0.001657	0.001704	28.082	0.038766	0.002036	19.0442	-103.209	-167.015	0.075343	0.713404	-0.347535	-0.348858	0.021006	19.0442	-0.348362	-24167.1	-8.692003E-7	NaN
498	1.000000	0.722741	7.36993e+06	-52189.1	1005.82	-29750	0.000000	0.000000	6.723037	0.088277	NaN	0.000000	0.001645	0.001653	28.0835	0.053759	0.001989	27.0323	62.3266	-163.946	0.025413	0.721467	-0.339521	-0.340795	0.088277	27.0323	-0.341970	-19509.8	-4.524750E-6	NaN
498	1.000000	0.730746	7.36993e+06	-52189.1	1005.82	-29750	0.000000	0.000000	6.731039	0.008538	NaN	0.000000	0.001639	0.001689	28.0833	0.117760	0.002087	56.4311	-117.162	-163.937	0.029320	0.729416	-0.331516	-0.332846	0.008538	56.4311	-0.331630	-13781.8	-6.195214E-7	NaN
498	1.000000	0.738738	7.36993e+06	-52189.1	1005.82	-29750	0.000000	0.000000	6.739032	0.042845	NaN	0.000000	0.001541	0.001678	28.0835	0.055026	0.001931	28.4902	-130.77	-168.565	0.104525	0.737460	-0.323524	-0.324802	0.042845	28.4902	-0.324652	-10890.1	-3.934293E-6	NaN
498	1.000000	0.746725	7.36993e+06	-52189.1	1005.82	-29750	0.000000	0.000000	6.747021	0.067750	NaN	0.000000	0.001565	0.001685	28.0839	0.029953	0.001907	15.7053	-3.603581	-162.451	0.024526	0.745448	-0.315537	-0.316814	0.067750	15.7053	-0.318772	-8923.94	-7.591896E-6	NaN
498	1.000000	0.754734	7.36993e+06	-52189.1	1005.82	-29750	0.000000	0.000000	6.755033	0.154901	NaN	0.000000	0.001566	0.001671	28.0837	0.040686	0.002002	20.32	-50.812	-165.009	0.166579	0.753438	-0.307528	-0.308824	0.154901	20.32	-0.313245	-7396.61	-2.094214E-5	NaN
498	1.000000	0.762756	7.36993e+06	-52189.1	1005.82	-29750	0.000000	0.000000	6.763049	-0.000484	NaN	0.000000	0.001600	0.001718	28.0835	0.085325	0.001958	43.5709	-161.148	-165.82	0.088799	0.761456	-0.299506	-0.300806	-0.000484	43.5709	-0.299497	-4625.42	1.047130E-7	NaN
498	1.000000	0.770756	7.36993e+06	-52189.1	1005.82	-29750	0.000000	0.000000	6.771051	0.053570	NaN	0.000000	0.001560	0.001719	28.0834	0.036671	0.002018	18.1679	-76.7325	-166.938	0.031324	0.769447	-0.291506	-0.292815	0.053570	18.1679	-0.293717	-3792.5	-1.412521E-5	NaN
498	1.000000	0.778743	7.36993e+06	-52189.1	1005.82	-29750	0.000000	0.000000	6.779039	0.091151	NaN	0.000000	0.001551	0.001738	28.0835	0.109477	0.002028	53.992	60.8796	-163.942	0.104995	0.777477	-0.283519	-0.284785	0.091151	53.992	-0.284785	-2786.37	-3.271311E-5	NaN
498	1.000000	0.786766	7.36993e+06	-52189.1	1005.82	-29750	0.000000	0.000000	6.787059	0.011871	NaN	0.000000	0.001562	0.001742	28.0833	0.045841	0.002120	21.6188	68.2235	-165.164	-0.020489	0.785458	-0.275496	-0.276804	0.011871	21.6188	-0.275908	-2047.13	-5.798743E-6	NaN
498	1.000000	0.794762	7.36993e+06	-52189.1	1005.82	-29750	0.000000	0.000000	6.795057	0.070442	NaN	0.000000	0.001616	0.001725	28.0836	0.080800	0.002137	37.805	142.507	-165.018	0.058402	0.793401	-0.267500	-0.268861	0.070442	37.805	-0.268898	-1602.44	-4.395936E-5	NaN
498	1.000000	0.802770	7.36993e+06	-52189.1	1005.82	-29750	0.000000	0.000000	6.803062	-0.008485	NaN	0.000000	0.001655	0.001713	28.0836	0.046197	0.002031	22.7443	-178.931	-165.649	-0.041061	0.801422	-0.259492	-0.260840	-0.008485	22.7443	-0.259213	-1139.84	7.444410E-6	NaN
498	1.000000	0.810764	7.36993e+06	-52189.1	1005.82	-29750	0.000000	0.000000	6.811058	0.057946	NaN	0.000000	0.001662	0.001706	28.0834	0.071638	0.002039	35.1325	143.856	-164.557	0.039157	0.809491	-0.251498	-0.252771	0.057946	35.1325	-0.252735	-906.188	-6.394531E-5	NaN
498	1.000000	0.818783	7.36993e+06	-52189.1	1005.82	-29750	0.000000	0.000000	6.819077	0.027530	NaN	0.000000	0.001633	0.001733	28.0838	0.077169	0.001905	40.5164	145.181	-164.736	0.099510	0.817483	-0.243479	-0.244779	0.027530	40.5164	-0.243988	-663.315	-4.150331E-5	NaN
498	1.000000	0.826797	7.36993e+06	-52189.1	1005.82	-29750	0.000000	0.000000	6.827089	-0.014781	NaN	0.000000	0.001629	0.001748	28.0832	0.078897	0.001934	40.7884	71.6149	-164.937	0.125004	0.825498	-0.235465	-0.236764	-0.014781	40.7884	-0.235193	-483.372	3.057930E-5	NaN
498	1.000000	0.834766	7.36993e+06	-52189.1	1005.82	-29750	0.000000	0.000000	6.835058	0.005907	NaN	0.000000	0.001629	0.001714	28.0831	0.046681	0.002146	21.7529	17.608	-164.951	-0.026225	0.833492	-0.227496	-0.228770	0.005907	21.7529	-0.227700	-368.258	-1.603919E-5	NaN
498	1.000000	0.842797	7.36993e+06	-52189.1	1005.82	-29750	0.000000	0.000000	6.843091	0.043410	NaN	0.000000	0.001618	0.001732	28.0835	0.035360	0.001950	18.1332	-143.637	-168.861	0.024758	0.841459	-0.219465	-0.220803	0.043410	18.1332	-0.221260	-290.938	-0.000149	NaN
498	1.000000	0.850777	7.36993e+06	-52189.1	1005.82	-29750	0.000000	0.000000	6.851070	0.031797	NaN	0.000000	0.001626	0.001768	28.0834	0.126352	0.002042	61.8864	24.8115	-163.125	0.036258	0.849471	-0.211485	-0.212791	0.031797	61.8864	-0.211871	-205.624	-0.000155	NaN
498	1.000000	0.858786	7.36993e+06	-52189.1	1005.82	-29750	0.000000	0.000000	6.859081	0.047318	NaN	0.000000	0.001646	0.001751	28.0825	0.094300	0.002014	46.8129	-35.3054	-162.634	0.075217	0.857471	-0.203476	-0.204791	0.047318	46.8129	-0.204234	-154.544	-0.000306	NaN
498	1.000000	0.866795	7.36993e+06	-52189.1	1005.82	-29750	0.000000	0.000000	6.867090	0.066808	NaN	0.000000	0.001660	0.001722	28.0822	0.056743	0.001926	29.4687	-154.055	-168.911	0.067981	0.865480	-0.195467	-0.196782	0.066808	29.4687	-0.197168	-118.317	-0.000565	NaN
498	1.000000	0.874815	7.36993e+06	-52189.1	1005.82	-29750	0.000000	0.000000	6.875113	0.130590	NaN	0.000000	0.001674	0.001753	28.0822	0.041464	0.001986	20.8823	-29.0908	-164.622	0.144497	0.873492	-0.187447	-0.188770	0.130590	20.8823	-0.192137	-97.6487	-0.001337	NaN
498	1.000000	0.882808	7.36993e+06	-52189.1	1005.82	-29750	0.000000	0.000000	6.883102	0.032519	NaN	0.000000	0.001679	0.001758	28.0823	0.046467	0.001971	23.5803	-159.707	-163.348	-0.006536	0.881467	-0.179454	-0.180795	0.032519	23.5803	-0.180488	-62.1972	-0.000523	NaN
498	1.000000	0.890836	7.36993e+06	-52189.1	1005.82	-29750	0.000000	0.000000	6.891132	0.077037	NaN	0.000000	0.001579	0.001731	28.082	0.057578	0.002045	28.1559	112.847	-164.442	0.026223	0.889454	-0.171426	-0.172808	0.077037	28.1559	-0.173478	-47.1824	-0.001633	NaN
498	1.000000	0.898780	7.36993e+06	-52189.1	1005.82	-29750	0.000000	0.000000	6.899078	0.123499	NaN	0.000000	0.001581	0.001763	28.0824	0.062939	0.001973	31.8942	-131.75	-164.531	0.060368	0.897521	-0.163482	-0.164741	0.123499	31.8942	-0.166386	-35.5303	-0.003476	NaN
498	1.000000	0.906788	7.36993e+06	-52189.1	1005.82	-29750	0.000000	0.000000	6.907084	0.085962	NaN	0.000000	0.001549	0.001746	28.082	0.082605	0.001981	41.7073	1.416088	-167.269	0.021595	0.905480	-0.155474	-0.156782	0.085962	41.7073	-0.157020	-24.2566	-0.003544	NaN
498	1.000000	0.914792	7.36993e+06	-52189.1	1005.82	-29750	0.000000	0.000000	6.915090	0.121731	NaN	0.000000	0.001524	0.001744	28.0822	0.038848	0.001957	19.847	64.0093	-165.078	0.182570	0.913489	-0.147470	-0.148773	0.121731	19.847	-0.152070	-19.7537	-0.006162	NaN
498	1.000000	0.922819	7.36993e+06	-52189.1	1005.82	-29750	0.000000	0.000000	6.923112	0.011918	NaN	0.000000	0.001545	0.001741	28.0821	0.037138	0.001945	19.0901	36.2031	-166.283	0.015451	0.921525	-0.139443	-0.140737	0.011918	19.0901	-0.139911	-11.7841	-0.001011	NaN
498	1.000000	0.930820	7.36993e+06	-52189.1	1005.82	-29750	0.000000	0.000000	6.931114	0.038281	NaN	0.000000	0.001573	0.001732	28.0822	0.054670	0.001945	28.1109	115.781	-167.532	0.055001	0.929516	-0.131442	-0.132746	0.038281	28.1109	-0.132463	-8.504405	-0.004501	NaN
498	1.000000	0.938851	7.36993e+06	-52189.1	1005.82	-29750	0.000000	0.000000	6.939145	0.054692	NaN	0.000000	0.001531	0.001753	28.082	0.129290	0.002008	64.3944	7.824780	-167.3	-0.042983	0.937504	-0.123411	-0.124758	0.054692	64.3944	-0.124048	-5.822739	-0.009393	NaN
498	1.000000	0.946798	7.36993e+06	-52189.1	1005.82	-29750	0.000000	0.000000	6.947090	-0.021494	NaN	0.000000	0.001555	0.001765	28.082	0.039363	0.002069	19.0214	-51.155	-163.918	-0.034042	0.945521	-0.115464	-0.116741	-0.021494	19.0214	-0.114616	-3.751356	0.005730	NaN
498	1.000000	0.954835	7.36993e+06	-52189.1	1005.82	-29750	0.000000	0.000000	6.955128	0.012644	NaN	0.000000	0.001577	0.001786	28.0823	0.108945	0.001938	56.2112	-13.0132	-163.917	0.000738	0.953505	-0.107427	-0.108757	0.012644	56.2112	-0.107596	-2.672305	-0.004731	NaN
498	1.000000	0.962838	7.36993e+06	-52189.1	1005.82	-29750	0.000000	0.000000	6.963134	0.093371	NaN	0.000000	0.001584	0.001779	28.0822	0.044010	0.002148	20.4849	-136.703	-164.805	0.023238	0.961512	-0.099424	-0.100750	0.093371	20.4849	-0.102843	-2.110179	-0.044248	NaN
498	1.000000	0.970821	7.36993e+06	-52189.1	1005.82	-29750	0.000000	0.000000	6.971114	0.007691	NaN	0.000000	0.001604	0.001742	28.0823	0.087506	0.002037	42.9645	-81.4933	-164.531	-0.021471	0.969591	-0.091441	-0.092671	0.007691	42.9645	-0.091575	-1.176509	-0.006537	NaN
498	1.000000	0.978866	7.36993e+06	-52189.1	1005.82	-29750	0.000000	0.000000	6.979155	-0.073081	NaN	0.000000	0.001616	0.001789	28.082	0.086006	0.002002	42.959	-94.8917	-163.844	0.012252	0.977529	-0.083396	-0.084733	-0.073081	42.959	-0.082120	-0.698771	0.104585	NaN
498	1.000000	0.986838	7.36993e+06	-52189.1	1005.82	-29750	0.000000	0.000000	6.987132	0.034423	NaN	0.000000	0.001600	0.001788	28.0822	0.104110	0.001963	53.0267	-47.2395	-164.17	-0.003784	0.985515	-0.075424	-0.076747	0.034423	53.0267	-0.075911	-0.487547	-0.070605	NaN
498	1.000000	0.994849	7.36993e+06	-52189.1	1005.82	-29750	0.000000	0.000000	6.995145	0.072893	NaN	0.000000	0.001587	0.001767	28.0834	0.066365	0.002089	31.7673	-49.3526	-165.08	0.030581	0.993595	-0.067413	-0.068667	0.072893	31.7673	-0.069134	-0.323303	-0.225463	NaN
498	1.000000	1.002830	7.36993e+06	-52189.1	1005.82	-29750	0.000000	0.000000	7.003123	0.029859	NaN	0.000000	0.001628	0.001764	28.0836	0.110868	0.001968	56.3491	26.1503	-163.494	-0.048774	1.001556	-0.059432	-0.060706	0.029859	56.3491	-0.059830	-0.178078	-0.167675	NaN
498	1.000000	1.010840	7.36993e+06	-52189.1	1005.82	-29750	0.000000	0.000000	7.011135	0.059163	NaN	0.000000	0.001577	0.001771	28.0838	0.056404	0.001986	28.4073	161.327	-164.413	0.056609	1.009590	-0.051422	-0.052672	0.059163	28.4073	-0.052984	-0.112189	-0.527354	NaN
498	1.000000	1.018826	7.36993e+06	-52189.1	1005.82	-29750	0.000000	0.000000	7.019119	0.015623	NaN	0.000000	0.001603	0.001745	28.0835	0.032046	0.002070	15.4837	-109.711	-165.691	0.037545	1.017511	-0.043436	-0.044751	0.015623	15.4837	-0.044193	-0.060718	-0.257310	NaN
498	1.000000	1.026864	7.36993e+06	-52189.1	1005.82	-29750	0.000000	0.000000	7.027159	0.052070	NaN	0.000000	0.001588	0.001705	28.0837	0.063713	0.001869	34.0853	101.696	-166.069	0.060276	1.025557	-0.035398	-0.036705	0.052070	34.0853	-0.036544	-0.035582	-1.463380	NaN
498	1.000000	1.034847	7.36993e+06	-52189.1	1005.82	-29750	0.000000	0.000000	7.035141	0.036457	NaN	0.000000	0.001574	0.001716	28.0837	0.044592	0.002096	21.2789	-64.7204	-163.28	0.006888	1.033535	-0.027415	-0.028727	0.036457	21.2789	-0.028700	-0.021185	-1.720857	NaN
498	1.000000	1.042862	7.36993e+06	-52189.1	1005.82	-29750	0.000000	0.000000	7.043156	0.040224	NaN	0.000000	0.001536	0.001765	28.0835	0.240915	0.001951	123.473	-174.549	-162.622	-0.001078	1.041551	-0.019400	-0.020711	0.040224	123.473	-0.019645	-0.012302	-3.269726	NaN
498	1.000000	1.050846	7.36993e+06	-52189.1	1005.82	-29750	0.000000	0.000000	7.051139	0.031909	NaN	0.000000	0.001581	0.001779	28.084	0.058666	0.001982	29.6006	-52.9678	-164.179	0.006427	1.049521	-0.011416	-0.012741	0.031909	29.6006	-0.012225	-0.007657	-4.167302	NaN
498	1.000000	1.058843	7.36993e+06	-52189.1	1005.82	-29750	0.000000	0.000000	7.059183	1.136234	NaN	0.000000	0.001571	0.001738	28.0833	1.785649	0.001962	909.998	11.7266	-167.603	0.239726	1.057558	-0.003419	-0.004704	1.136234	909.998	-0.004355	-0.003008	-377.795	NaN
498	2.000000	1.065499	7.36993e+06	-52189.1	1005.82	-29750	0.000000	0.000000	7.066191	9.703331	NaN	0.000000	0.001562	0.001776	28.0833	8.783715	0.001599	5494.96	6.989076	-172.438	8.819844	1.065122	0.003237	0.002860	9.703331	5494.96	0.001913	0.001485	6536.31	130300
498	2.000000	1.067513	7.36993e+06	-52189.1	1005.82	-29750	0.000000	0.000000	7.068382	14.0181	NaN	0.000000	0.001586	0.001762	28.0834	10.4133	0.001459	7135.02	0.570782	-169.851	13.1535	1.067175	0.005251	0.004913	14.0181	7135.02	0.003777	0.003045	4604.04	118139
498	2.000000	1.069478	7.36993e+06	-52189.1	1005.82	-29750	0.000000	0.000000	7.070457	16.7038	NaN	0.000000	0.001569	0.001765	28.0835	14.1777	0.001807	7843.95	9.516691	-177.069	16.6023	1.069196	0.007216	0.006934	16.7038	7843.95	0.005619	0.004705	3550.28	104479
498	2.000000	1.071481	7.36993e+06	-52189.1	1005.82	-29750	0.000000	0.000000	7.072703	22.5969	NaN	0.000000	0.001586	0.001759	28.0838	15.7748	0.001622	9722.89	9.804598	-179.376	23.1827	1.071143	0.009219	0.008881	22.5969	9722.89	0.007476	0.006509	3471.53	110104
498	2.000000	1.073416	7.36993e+06	-52189.1	1005.82	-29750	0.000000	0.000000	7.074885	28.6077	NaN	0.000000	0.001585	0.001728	28.0832	18.3992	0.001710	10758	4.680498	-174.832	27.0671	1.073141	0.011154	0.010879	28.6077	10758	0.009160	0.008262	3462.36	108131
498	2.000000	1.075452	7.36993e+06	-52189.1	1005.82	-29750	0.000000	0.000000	7.077122	33.5097	NaN	0.000000	0.001622	0.001768	28.084	21.0527	0.001752	12017.5	8.224729	-179.124	32.817	1.075099	0.013190	0.012837	33.5097	12017.5	0.011098	0.010428	3213.45	107520
498	2.000000	1.077425	7.36993e+06	-52189.1	1005.82	-29750	0.000000	0.000000	7.079225	36.6456	NaN	0.000000	0.001596	0.001753	28.0837	23.0293	0.001773	12987.6	7.816871	-179.313	35.4738	1.077109	0.015163	0.014847	36.6456	12987.6	0.013047	0.012769	2869.96	105010
498	2.000000	1.079440	7.36993e+06	-52189.1	1005.82	-29750	0.000000	0.000000	7.081461	42.0371	NaN	0.000000	0.001601	0.001746	28.0837	25.114	0.001772	14171.9	5.572315	-178.301	41.1597	1.079144	0.017178	0.016882	42.0371	14171.9	0.014953	0.015223	2761.34	104941
498	2.000000	1.081411	7.36993e+06	-52189.1	1005.82	-29750	0.000000	0.000000	7.083711	48.8203	NaN	0.000000	0.001596	0.001727	28.083	26.7167	0.001760	15183.8	7.062935	179.927	48.0648	1.081096	0.019149	0.018834	48.8203	15183.8	0.016737	0.017672	2762.55	104353
498	2.000000	1.083395	7.36993e+06	-52189.1	1005.82	-29750	0.000000	0.000000	7.085963	55.3396	NaN	0.000000	0.001585	0.001751	28.0823	29.4725	0.001785	16508.8	10.6043	175.688	53.9567	1.083043	0.021133	0.020781	55.3396	16508.8	0.018619	0.020418	2710.3	105555
498	2.000000	1.085447	7.36993e+06	-52189.1	1005.82	-29750	0.000000	0.000000	7.088226	60.4704	NaN	0.000000	0.001573	0.001763	28.0828	30.9629	0.001830	16918.5	5.125909	-177.578	59.4919	1.085024	0.023185	0.022762	60.4704	16918.5	0.020504	0.023340	2590.79	101177
498	2.000000	1.087406	7.36993e+06	-52189.1	1005.82	-29750	0.000000	0.000000	7.090413	66.0201	NaN	0.000000	0.001550	0.001810	28.0824	31.6203	0.001674	18890.8	-0.973298	-173.958	64.6677	1.087050	0.025144	0.024788	66.0201	18890.8	0.022523	0.026663	2476.14	105700
498	2.000000	1.089432	7.36993e+06	-52189.1	1005.82	-29750	0.000000	0.000000	7.092613	70.2466	NaN	0.000000	0.001560	0.001790	28.0824	35.9201	0.001881	19097.8	4.566203	179.72	69.7705	1.089190	0.027170	0.026928	70.2466	19097.8	0.024411	0.029953	2345.26	100818
498	2.000000	1.091389	7.36993e+06	-52189.1	1005.82	-29750	0.000000	0.000000	7.094856	77.2037	NaN	0.000000	0.001558	0.001776	28.0825	36.8461	0.001812	20336.3	6.330790	178.011	77.2698	1.091125	0.029127	0.028863	77.2037	20336.3	0.026280	0.033385	2312.55	101689
498	2.000000	1.093446	7.36993e+06	-52189.1	1005.82	-29750	0.000000	0.000000	7.097259	85.6185	NaN	0.000000	0.001552	0.001794	28.0822	38.8706	0.001878	20699.3	5.976560	179.194	86.3992	1.093118	0.031184	0.030856	85.6185	20699.3	0.028081	0.036861	2322.74	98502.1
498	2.000000	1.095455	7.36993e+06	-52189.1	1005.82	-29750	0.000000	0.000000	7.099417	89.2213	NaN	0.000000	0.001560	0.001801	28.0825	40.7908	0.001861	21919.1	7.807483	176.8	92.3297	1.095167	0.033193	0.032905	89.2213	21919.1	0.030140	0.041035	2174.27	98859.5
498	2.000000	1.097375	7.36993e+06	-52189.1	1005.82	-29750	0.000000	0.000000	7.101678	97.5249	NaN	0.000000	0.001621	0.001789	28.0823	41.4349	0.001666	24873.9	4.739085	177.614	96.5766	1.097089	0.035113	0.034827	97.5249	24873.9	0.032172	0.045366	2149.73	106697
498	2.000000	1.099356	7.36993e+06	-52189.1	1005.82	-29750	0.000000	0.000000	7.104033	106.607	NaN	0.000000	0.001583	0.001780	28.0825	44.2273	0.002008	22027.7	0.843253	-176.771	104.268	1.099064	0.037094	0.036802	106.607	22027.7	0.033464	0.048230	2210.38	91639.5
498	2.000000	1.101347	7.36993e+06	-52189.1	1005.82	-29750	0.000000	0.000000	7.106280	112.843	NaN	0.000000	0.001587	0.001785	28.0826	45.4601	0.001855	24504.8	1.970931	-179.625	109.236	1.101028	0.039085	0.038766	112.843	24504.8	0.035631	0.053225	2120.1	97043.2
498	2.000000	1.103362	7.36993e+06	-52189.1	1005.82	-29750	0.000000	0.000000	7.108547	118.962	NaN	0.000000	0.001596	0.001769	28.0823	47.3466	0.001737	27260.2	4.887271	176.209	117.353	1.103029	0.041100	0.040767	118.962	27260.2	0.037827	0.058533	2032.41	102945
498	2.000000	1.105373	7.36993e+06	-52189.1	1005.82	-29750	0.000000	0.000000	7.111214	134.928	NaN	0.000000	0.001583	0.001784	28.0823	49.6609	0.001711	29023.2	6.519398	175.47	132.139	1.104997	0.043111	0.042735	134.928	29023.2	0.039624	0.063060	2139.68	105595
498	2.000000	1.107326	7.36993e+06	-52189.1	1005.82	-29750	0.000000	0.000000	7.113602	145.51	NaN	0.000000	0.001622	0.001785	28.0823	51.9905	0.001772	29337.1	6.120164	175.091	143.069	1.106983	0.045064	0.044721	145.51	29337.1	0.041344	0.067547	2154.2	103131
498	2.000000	1.109310	7.36993e+06	-52189.1	1005.82	-29750	0.000000	0.000000	7.115977	155.011	NaN	0.000000	0.001619	0.001778	28.0825	54.6566	0.001870	29230.4	3.837143	177.441	151.17	1.109124	0.047048	0.046862	155.011	29230.4	0.043070	0.072204	2146.85	99386.5
498	2.000000	1.111385	7.36993e+06	-52189.1	1005.82	-29750	0.000000	0.000000	7.118618	168.758	NaN	0.000000	0.001607	0.001782	28.0831	55.2512	0.001789	30887.6	6.022963	175.269	168.251	1.111053	0.049123	0.048791	168.758	30887.6	0.045026	0.077660	2173.04	101265
498	2.000000	1.113317	7.36993e+06	-52189.1	1005.82	-29750	0.000000	0.000000	7.121085	181.76	NaN	0.000000	0.001601	0.001809	28.0826	57.7968	0.001724	33527.4	3.302630	176.983	178.425	1.113001	0.051055	0.050739	181.76	33527.4	0.046989	0.083334	2181.1	106111
498	2.000000	1.115374	7.36993e+06	-52189.1	1005.82	-29750	0.000000	0.000000	7.123342	186.634	NaN	0.000000	0.001593	0.001771	28.0837	60.3803	0.001871	32275	6.142524	175.378	184.592	1.115114	0.053112	0.052852	186.634	32275	0.048775	0.088665	2104.94	99029.3
498	2.000000	1.117328	7.36993e+06	-52189.1	1005.82	-29750	0.000000	0.000000	7.125569	193.248	NaN	0.000000	0.001561	0.001770	28.0837	61.7795	0.001668	37027.5	2.874828	175.793	191.317	1.117215	0.055066	0.054953	193.248	37027.5	0.051152	0.096008	2012.83	109180
498	2.000000	1.119382	7.36993e+06	-52189.1	1005.82	-29750	0.000000	0.000000	7.128422	212.703	NaN	0.000000	0.001603	0.001780	28.0837	63.9552	0.001860	34390.2	4.756869	175.774	213.984	1.119060	0.057120	0.056798	212.703	34390.2	0.052481	0.100237	2122	99241.6
498	2.000000	1.121447	7.36993e+06	-52189.1	1005.82	-29750	0.000000	0.000000	7.131081	227.14	NaN	0.000000	0.001637	0.001786	28.0839	64.1748	0.001747	36738.8	6.106488	174.342	230.482	1.120903	0.059185	0.058641	227.14	36738.8	0.054548	0.106988	2123.05	102620
498	2.000000	1.123307	7.36993e+06	-52189.1	1005.82	-29750	0.000000	0.000000	7.133220	233.933	NaN	0.000000	0.001685	0.001821	28.0837	66.4494	0.001772	37500	1.836252	177.61	229.972	1.123120	0.061045	0.060858	233.933	37500	0.056366	0.113101	2068.35	101876
498	2.000000	1.125353	7.36993e+06	-52189.1	1005.82	-29750	0.000000	0.000000	7.135796	246.809	NaN	0.000000	0.001649	0.001802	28.0838	68.9694	0.001759	39202.8	4.876808	174.565	246.241	1.125145	0.063091	0.062883	246.809	39202.8	0.058370	0.120027	2056.28	103383
498	2.000000	1.127378	7.36993e+06	-52189.1	1005.82	-29750	0.000000	0.000000	7.138307	258.609	NaN	0.000000	0.001669	0.001788	28.0839	70.4694	0.001808	38979.1	4.082450	175.267	259.098	1.127090	0.065116	0.064828	258.609	38979.1	0.060140	0.126313	2047.37	100203
498	2.000000	1.129259	7.36993e+06	-52189.1	1005.82	-29750	0.000000	0.000000	7.140892	275.746	NaN	0.000000	0.001645	0.001825	28.0837	72.8237	0.001759	41397.1	2.160427	176.608	269.435	1.128994	0.066997	0.066732	275.746	41397.1	0.062002	0.133084	2071.97	103677
498	2.000000	1.131308	7.36993e+06	-52189.1	1005.82	-29750	0.000000	0.000000	7.143349	285.675	NaN	0.000000	0.001681	0.001787	28.0839	74.2288	0.001791	41449.2	3.681079	174.898	282.795	1.131059	0.069046	0.068797	285.675	41449.2	0.063877	0.140076	2039.43	101183
498	2.000000	1.133328	7.36993e+06	-52189.1	1005.82	-29750	0.000000	0.000000	7.146094	303.283	NaN	0.000000	0.001692	0.001780	28.0839	77.8092	0.001752	44422.6	9.176713	169.416	301.47	1.132949	0.071066	0.070687	303.283	44422.6	0.065946	0.147988	2049.38	105503
498	2.000000	1.135410	7.36993e+06	-52189.1	1005.82	-29750	0.000000	0.000000	7.148767	317.655	NaN	0.000000	0.001667	0.001755	28.084	78.8032	0.001734	45457.1	3.777854	174.876	318.542	1.135014	0.073148	0.072752	317.655	45457.1	0.067907	0.155679	2040.44	105259
498	2.000000	1.137352	7.36993e+06	-52189.1	1005.82	-29750	0.000000	0.000000	7.151127	327.826	NaN	0.000000	0.001724	0.001762	28.084	80.3396	0.001684	47721.6	2.044495	175.455	326.461	1.137052	0.075090	0.074790	327.826	47721.6	0.069938	0.163835	2000.95	107717
498	2.000000	1.139401	7.36993e+06	-52189.1	1005.82	-29750	0.000000	0.000000	7.153356	332.206	NaN	0.000000	0.001705	0.001783	28.0837	83.4602	0.001789	46641	2.597313	175.024	332.492	1.139193	0.077139	0.076931	332.206	46641	0.071797	0.171473	1937.37	102907
498	2.000000	1.141312	7.36993e+06	-52189.1	1005.82	-29750	0.000000	0.000000	7.156386	359.416	NaN	0.000000	0.001697	0.001764	28.0838	84.3084	0.001770	47618.7	7.987943	170.01	356.486	1.140979	0.079050	0.078717	359.416	47618.7	0.073389	0.178145	2017.54	103077
498	2.000000	1.143277	7.36993e+06	-52189.1	1005.82	-29750	0.000000	0.000000	7.158822	370.862	NaN	0.000000	0.001688	0.001748	28.0837	87.2714	0.001790	48754.8	4.398511	173.079	367.323	1.143077	0.081015	0.080815	370.862	48754.8	0.075310	0.186356	1990.07	103186
498	2.000000	1.145276	7.36993e+06	-52189.1	1005.82	-29750	0.000000	0.000000	7.161431	385.687	NaN	0.000000	0.001600	0.001752	28.084	88.1767	0.001823	48368.5	3.143461	174.22	380.761	1.145044	0.083014	0.082782	385.687	48368.5	0.077034	0.193871	1989.4	100364
498	2.000000	1.147281	7.36993e+06	-52189.1	1005.82	-29750	0.000000	0.000000	7.164139	402.798	NaN	0.000000	0.001643	0.001697	28.0842	89.4497	0.001696	52726.2	4.632828	172.555	400.534	1.146962	0.085019	0.084700	402.798	52726.2	0.079289	0.203913	1975.34	106678
498	2.000000	1.149295	7.36993e+06	-52189.1	1005.82	-29750	0.000000	0.000000	7.166581	413.209	NaN	0.000000	0.001644	0.001718	28.0825	92.5698	0.001835	50440.6	4.196306	172.765	410.318	1.149113	0.087033	0.086851	413.209	50440.6	0.080889	0.211182	1956.65	100282
498	2.000000	1.151272	7.36993e+06	-52189.1	1005.82	-29750	0.000000	0.000000	7.169651	439.761	NaN	0.000000	0.001609	0.001766	28.0824	92.877	0.001813	51230.3	4.153417	173.478	436.309	1.151027	0.089010	0.088765	439.761	51230.3	0.082572	0.218956	2008.44	100028
498	2.000000	1.153412	7.36993e+06	-52189.1	1005.82	-29750	0.000000	0.000000	7.172327	452.806	NaN	0.000000	0.001589	0.001748	28.0823	96.983	0.001843	52614.1	8.542686	169.016	457.469	1.152945	0.091150	0.090683	452.806	52614.1	0.084695	0.228951	1977.74	100463
498	2.000000	1.155310	7.36993e+06	-52189.1	1005.82	-29750	0.000000	0.000000	7.175131	474.828	NaN	0.000000	0.001582	0.001736	28.0823	98.9819	0.001831	54049.8	7.101979	170.014	471.677	1.155018	0.093048	0.092756	474.828	54049.8	0.086459	0.237412	2000.01	101348
498	2.000000	1.157221	7.36993e+06	-52189.1	1005.82	-29750	0.000000	0.000000	7.177906	495.855	NaN	0.000000	0.001613	0.001754	28.0826	99.9814	0.001739	57501.1	5.226667	171.319	488.957	1.156956	0.094959	0.094694	495.855	57501.1	0.088491	0.247337	2004.78	105634
498	2.000000	1.159302	7.36993e+06	-52189.1	1005.82	-29750	0.000000	0.000000	7.180471	507.616	NaN	0.000000	0.001601	0.001758	28.0825	102.827	0.001799	57151.4	4.499629	172.238	506.087	1.158934	0.097040	0.096672	507.616	57151.4	0.090379	0.256727	1977.26	103054
498	2.000000	1.161301	7.36993e+06	-52189.1	1005.82	-29750	0.000000	0.000000	7.183148	524.082	NaN	0.000000	0.001617	0.001769	28.0827	102.858	0.001771	58070.9	4.244125	172.341	522.754	1.161004	0.099039	0.098742	524.082	58070.9	0.092271	0.266302	1967.99	102812
498	2.000000	1.163332	7.36993e+06	-52189.1	1005.82	-29750	0.000000	0.000000	7.185426	530.088	NaN	0.000000	0.001597	0.001808	28.0825	104.985	0.001790	58648.7	1.123352	175.244	529.812	1.163202	0.101070	0.100940	530.088	58648.7	0.094291	0.276710	1915.68	101864