File: remote_trans/data/nanoindenter/0828-1/data/Data_2025-08-06,11h17m57s/2025-07-22_16-23-58_1_1103.txt
2025-07-22, 16:23:58, 1
Index	Phase	Displacement	Time	Pos X	Pos Y	Pos Z	Rot A	Rot B	Piezo Z	Force A	Force B	Gripper	Voltage A	Voltage B	Temperature	Amplitude force	Amplitude pos	Stiffness	Phase shift	Phase excitation	Force A raw	Displacement raw	HMax	HMax raw	Real Force	Real Stiffness	Contact Depth	Area	Hardness	Reduced Mod.
[#]	[#]	[um]	[s]	[um]	[um]	[um]	[m°]	[m°]	[um]	[uN]	[uN]	[V]	[V]	[V]	[°C]	[uN]	[um]	[N/m]	[°]	[°]	[uN]	[um]	[um]	[um]	[uN]	[N/m]	[um]	[um^2]	[MPa]	[MPa]
1103	1.000000	0.002637	7.37584e+06	-55289.1	1055.82	-29742	0.000000	0.000000	6.004069	8.469081	NaN	0.000000	0.001654	0.001676	28.0834	2.704147	0.000840	3220.68	16.0518	-169.541	5.402946	0.001446	2.117845	2.116654	8.469081	3220.68	2.115872	115.167	0.073537	274.193
1103	2.000000	0.005037	7.37584e+06	-55289.1	1055.82	-29742	0.000000	0.000000	6.006428	7.454944	NaN	0.000000	0.001670	0.001681	28.0837	3.303894	0.000967	3416.51	26.7886	-171.654	8.743398	0.004715	2.120244	2.119923	7.454944	3416.51	2.118608	115.465	0.064565	290.49
1103	2.000000	0.006033	7.37584e+06	-55289.1	1055.82	-29742	0.000000	0.000000	6.007416	7.259374	NaN	0.000000	0.001626	0.001648	28.0851	2.986154	0.000875	3413.15	7.036671	-170.54	7.213741	0.005672	2.121241	2.120879	7.259374	3413.15	2.119646	115.578	0.062809	290.062
1103	2.000000	0.007029	7.37584e+06	-55289.1	1055.82	-29742	0.000000	0.000000	6.008408	7.164355	NaN	0.000000	0.001623	0.001642	28.0847	5.340308	0.001425	3748.79	6.916841	-172.974	7.195143	0.006858	2.122237	2.122066	7.164355	3748.79	2.120804	115.705	0.061919	318.412
1103	2.000000	0.007990	7.37584e+06	-55289.1	1055.82	-29742	0.000000	0.000000	6.009310	5.750187	NaN	0.000000	0.001630	0.001679	28.082	5.120212	0.001521	3367.43	15.658	-170.747	6.345021	0.007763	2.123197	2.122971	5.750187	3367.43	2.121917	115.826	0.049645	285.87
1103	2.000000	0.008971	7.37584e+06	-55289.1	1055.82	-29742	0.000000	0.000000	6.010332	6.709660	NaN	0.000000	0.001625	0.001659	28.0823	5.328917	0.001604	3322.52	11.8878	-169.17	6.718295	0.008709	2.124179	2.123916	6.709660	3322.52	2.122665	115.908	0.057888	281.959
1103	2.000000	0.009997	7.37584e+06	-55289.1	1055.82	-29742	0.000000	0.000000	6.011441	8.744174	NaN	0.000000	0.001650	0.001676	28.0821	5.617908	0.001560	3600.69	0.351707	-167.883	8.339131	0.009631	2.125205	2.124838	8.744174	3600.69	2.123384	115.986	0.075390	305.461
1103	2.000000	0.010962	7.37584e+06	-55289.1	1055.82	-29742	0.000000	0.000000	6.012310	6.422374	NaN	0.000000	0.001641	0.001664	28.0818	5.995999	0.001805	3321.88	-0.844433	-169.574	6.686122	0.010687	2.126169	2.125895	6.422374	3321.88	2.124719	116.132	0.055302	281.631
1103	2.000000	0.011956	7.37584e+06	-55289.1	1055.82	-29742	0.000000	0.000000	6.013338	7.220506	NaN	0.000000	0.001669	0.001655	28.0818	6.182318	0.001846	3349.66	10.8957	-171.065	7.692971	0.011640	2.127164	2.126848	7.220506	3349.66	2.125547	116.223	0.062126	283.876
1103	2.000000	0.012942	7.37584e+06	-55289.1	1055.82	-29742	0.000000	0.000000	6.014377	8.523184	NaN	0.000000	0.001649	0.001655	28.0815	7.225680	0.001755	4116.86	11.2219	-171.244	8.359450	0.012626	2.128150	2.127834	8.523184	4116.86	2.126597	116.338	0.073263	348.722
1103	2.000000	0.013906	7.37584e+06	-55289.1	1055.82	-29742	0.000000	0.000000	6.015273	6.876838	NaN	0.000000	0.001675	0.001648	28.0819	7.300483	0.001871	3902.59	9.569142	-172.197	6.813447	0.013662	2.129114	2.128869	6.876838	3902.59	2.127792	116.468	0.059045	330.387
1103	2.000000	0.014930	7.37584e+06	-55289.1	1055.82	-29742	0.000000	0.000000	6.016276	6.358227	NaN	0.000000	0.001658	0.001676	28.0814	6.309429	0.001921	3283.91	9.511354	-170.538	6.413039	0.014674	2.130138	2.129881	6.358227	3283.91	2.128686	116.566	0.054546	277.894
1103	2.000000	0.015936	7.37584e+06	-55289.1	1055.82	-29742	0.000000	0.000000	6.017339	7.743191	NaN	0.000000	0.001612	0.001693	28.0814	6.596524	0.001913	3448.75	15.5547	-170.978	7.916451	0.015620	2.131144	2.130828	7.743191	3448.75	2.129460	116.651	0.066379	291.737
1103	2.000000	0.016937	7.37584e+06	-55289.1	1055.82	-29742	0.000000	0.000000	6.018383	8.788337	NaN	0.000000	0.001628	0.001643	28.0816	6.953590	0.001926	3610.22	11.3255	-172.093	8.665929	0.016622	2.132145	2.131830	8.788337	3610.22	2.130319	116.745	0.075278	305.273
1103	2.000000	0.017906	7.37584e+06	-55289.1	1055.82	-29742	0.000000	0.000000	6.019300	7.522220	NaN	0.000000	0.001643	0.001645	28.0813	6.620708	0.001938	3416.25	6.567101	-171.475	7.874947	0.017618	2.133114	2.132826	7.522220	3416.25	2.131463	116.87	0.064364	288.716
1103	2.000000	0.018921	7.37584e+06	-55289.1	1055.82	-29742	0.000000	0.000000	6.020304	7.264832	NaN	0.000000	0.001661	0.001641	28.0815	6.650328	0.002103	3162.15	7.875885	-172.492	7.283247	0.018632	2.134129	2.133840	7.264832	3162.15	2.132406	116.974	0.062106	267.123
1103	2.000000	0.019958	7.37584e+06	-55289.1	1055.82	-29742	0.000000	0.000000	6.021348	7.448288	NaN	0.000000	0.001624	0.001642	28.0814	6.972876	0.002017	3457.84	10.2385	-167.519	8.156914	0.019611	2.135165	2.134818	7.448288	3457.84	2.133550	117.099	0.063607	291.945
1103	2.000000	0.020904	7.37584e+06	-55289.1	1055.82	-29742	0.000000	0.000000	6.022348	8.748232	NaN	0.000000	0.001650	0.001698	28.0815	7.037335	0.001971	3571.09	7.795495	-167.703	8.729342	0.020593	2.136111	2.135800	8.748232	3571.09	2.134274	117.179	0.074657	301.404
1103	2.000000	0.021888	7.37584e+06	-55289.1	1055.82	-29742	0.000000	0.000000	6.023348	9.128607	NaN	0.000000	0.001648	0.001652	28.0826	7.036048	0.002004	3511.31	1.241264	-167.427	8.779585	0.021562	2.137096	2.136770	9.128607	3511.31	2.135146	117.275	0.077840	296.238
1103	2.000000	0.022898	7.37584e+06	-55289.1	1055.82	-29742	0.000000	0.000000	6.024329	8.431538	NaN	0.000000	0.001625	0.001643	28.0825	7.158324	0.001958	3655.84	6.812608	-173.175	8.111422	0.022631	2.138105	2.137838	8.431538	3655.84	2.136376	117.41	0.071813	308.254
1103	2.000000	0.023923	7.37584e+06	-55289.1	1055.82	-29742	0.000000	0.000000	6.025341	8.103975	NaN	0.000000	0.001655	0.001667	28.0829	7.648026	0.002015	3796.47	13.5551	-171.742	8.836824	0.023606	2.139131	2.138813	8.103975	3796.47	2.137530	117.537	0.068948	319.939
1103	2.000000	0.024886	7.37584e+06	-55289.1	1055.82	-29742	0.000000	0.000000	6.026272	7.338263	NaN	0.000000	0.001626	0.001682	28.0827	7.547264	0.001926	3919.36	13.7672	-173.713	7.690272	0.024594	2.140093	2.139802	7.338263	3919.36	2.138689	117.664	0.062366	330.115
1103	2.000000	0.025857	7.37584e+06	-55289.1	1055.82	-29742	0.000000	0.000000	6.027274	8.090929	NaN	0.000000	0.001671	0.001697	28.0827	7.255222	0.001978	3667.62	7.431630	-169.991	7.500746	0.025608	2.141065	2.140815	8.090929	3667.62	2.139410	117.744	0.068716	308.808
1103	2.000000	0.026897	7.37584e+06	-55289.1	1055.82	-29742	0.000000	0.000000	6.028348	8.918473	NaN	0.000000	0.001652	0.001682	28.0827	7.144329	0.002029	3521.61	9.706864	-169.596	8.660134	0.026580	2.142105	2.141788	8.918473	3521.61	2.140205	117.831	0.075689	296.405
1103	2.000000	0.027871	7.37584e+06	-55289.1	1055.82	-29742	0.000000	0.000000	6.029313	8.681991	NaN	0.000000	0.001660	0.001692	28.0826	6.887436	0.001994	3454.39	12.7185	-171.059	8.754087	0.027562	2.143079	2.142770	8.681991	3454.39	2.141194	117.94	0.073614	290.612
1103	2.000000	0.028875	7.37584e+06	-55289.1	1055.82	-29742	0.000000	0.000000	6.030330	9.021238	NaN	0.000000	0.001666	0.001699	28.0826	7.575168	0.002113	3584.31	11.407	-172.207	9.051758	0.028577	2.144082	2.143785	9.021238	3584.31	2.142195	118.05	0.076419	301.401
1103	2.000000	0.029937	7.37584e+06	-55289.1	1055.82	-29742	0.000000	0.000000	6.031363	8.309857	NaN	0.000000	0.001652	0.001690	28.0826	6.907520	0.002054	3363.54	6.319788	-170.328	9.029591	0.029592	2.145145	2.144799	8.309857	3363.54	2.143292	118.171	0.070320	282.692
1103	2.000000	0.030862	7.37584e+06	-55289.1	1055.82	-29742	0.000000	0.000000	6.032313	8.916979	NaN	0.000000	0.001662	0.001693	28.0827	7.425589	0.002067	3592.73	8.635744	-174.211	8.641365	0.030562	2.146070	2.145770	8.916979	3592.73	2.144208	118.272	0.075394	301.826
1103	2.000000	0.031896	7.37584e+06	-55289.1	1055.82	-29742	0.000000	0.000000	6.033336	8.644358	NaN	0.000000	0.001681	0.001670	28.0826	7.934999	0.001955	4058.34	11.4694	-171.39	9.149267	0.031570	2.147104	2.146777	8.644358	4058.34	2.145506	118.416	0.073000	340.735
1103	2.000000	0.032865	7.37584e+06	-55289.1	1055.82	-29742	0.000000	0.000000	6.034299	8.512688	NaN	0.000000	0.001662	0.001725	28.0825	7.689993	0.002047	3756.28	10.8101	-170.044	8.763985	0.032566	2.148073	2.147774	8.512688	3756.28	2.146373	118.511	0.071830	315.247
1103	2.000000	0.033881	7.37584e+06	-55289.1	1055.82	-29742	0.000000	0.000000	6.035289	7.880806	NaN	0.000000	0.001663	0.001726	28.0825	7.095721	0.002017	3518.28	0.845001	-167.752	7.514504	0.033598	2.149089	2.148805	7.880806	3518.28	2.147409	118.626	0.066434	295.13
1103	2.000000	0.034890	7.37584e+06	-55289.1	1055.82	-29742	0.000000	0.000000	6.036329	8.610582	NaN	0.000000	0.001734	0.001740	28.0834	7.021349	0.002023	3471.37	9.493287	-169.792	9.038826	0.034580	2.150098	2.149788	8.610582	3471.37	2.148238	118.717	0.072530	291.083
1103	2.000000	0.035883	7.37584e+06	-55289.1	1055.82	-29742	0.000000	0.000000	6.037328	8.772186	NaN	0.000000	0.001706	0.001697	28.0824	7.632425	0.002161	3531.67	20.1963	-171.899	9.184400	0.035571	2.151091	2.150778	8.772186	3531.67	2.149228	118.827	0.073823	296.003
1103	2.000000	0.036869	7.37584e+06	-55289.1	1055.82	-29742	0.000000	0.000000	6.038284	8.053384	NaN	0.000000	0.001687	0.001688	28.0823	6.606614	0.001945	3397.2	13.1985	-174.137	7.609449	0.036577	2.152076	2.151784	8.053384	3397.2	2.150298	118.945	0.067707	284.591
1103	2.000000	0.037850	7.37584e+06	-55289.1	1055.82	-29742	0.000000	0.000000	6.039264	8.001446	NaN	0.000000	0.001708	0.001667	28.0827	6.609167	0.001958	3376.23	7.950863	-172.396	7.992221	0.037599	2.153058	2.152807	8.001446	3376.23	2.151281	119.054	0.067209	282.705
1103	2.000000	0.038873	7.37584e+06	-55289.1	1055.82	-29742	0.000000	0.000000	6.040299	8.315721	NaN	0.000000	0.001732	0.001689	28.0825	6.633996	0.002092	3171.54	9.198987	-168.044	8.769132	0.038516	2.154080	2.153724	8.315721	3171.54	2.152114	119.146	0.069794	265.463
1103	2.000000	0.039888	7.37584e+06	-55289.1	1055.82	-29742	0.000000	0.000000	6.041336	8.866927	NaN	0.000000	0.001728	0.001672	28.0825	6.697925	0.001973	3394.52	9.320214	-171.87	8.825025	0.039580	2.155095	2.154788	8.866927	3394.52	2.153136	119.259	0.074350	283.992
1103	2.000000	0.040877	7.37584e+06	-55289.1	1055.82	-29742	0.000000	0.000000	6.042299	8.224444	NaN	0.000000	0.001696	0.001682	28.0826	7.093735	0.002050	3459.98	4.590466	-167.83	7.962245	0.040544	2.156084	2.155752	8.224444	3459.98	2.154302	119.388	0.068888	289.312
1103	2.000000	0.041832	7.37584e+06	-55289.1	1055.82	-29742	0.000000	0.000000	6.043259	8.318615	NaN	0.000000	0.001729	0.001659	28.0824	6.982654	0.002056	3396.02	7.033079	-172.204	7.560531	0.041533	2.157040	2.156741	8.318615	3396.02	2.155203	119.488	0.069619	283.845
1103	2.000000	0.042895	7.37584e+06	-55289.1	1055.82	-29742	0.000000	0.000000	6.044302	7.850336	NaN	0.000000	0.001703	0.001656	28.0827	7.172096	0.002067	3469.74	9.601044	-171.231	9.244302	0.042563	2.158103	2.157771	7.850336	3469.74	2.156406	119.622	0.065626	289.844
1103	2.000000	0.043843	7.37584e+06	-55289.1	1055.82	-29742	0.000000	0.000000	6.045253	7.933460	NaN	0.000000	0.001682	0.001660	28.0825	7.284768	0.001825	3990.56	8.911431	-168.159	7.471013	0.043477	2.159050	2.158684	7.933460	3990.56	2.157559	119.75	0.066250	333.173
1103	2.000000	0.044835	7.37584e+06	-55289.1	1055.82	-29742	0.000000	0.000000	6.046254	8.138381	NaN	0.000000	0.001725	0.001635	28.0825	7.482608	0.001806	4143.12	10.5209	-174.696	8.001698	0.044554	2.160043	2.159762	8.138381	4143.12	2.158569	119.862	0.067898	345.748
1103	2.000000	0.045886	7.37584e+06	-55289.1	1055.82	-29742	0.000000	0.000000	6.047247	6.733323	NaN	0.000000	0.001642	0.001699	28.0823	6.551613	0.002123	3086.5	9.060772	-169.644	7.710884	0.045676	2.161093	2.160884	6.733323	3086.5	2.159457	119.961	0.056129	257.466
1103	2.000000	0.046883	7.37584e+06	-55289.1	1055.82	-29742	0.000000	0.000000	6.048250	6.889843	NaN	0.000000	0.001666	0.001688	28.0823	6.953907	0.002081	3340.9	12.2388	-170.896	7.170022	0.046577	2.162091	2.161784	6.889843	3340.9	2.160544	120.081	0.057376	278.547
1103	2.000000	0.047844	7.37584e+06	-55289.1	1055.82	-29742	0.000000	0.000000	6.049229	7.318049	NaN	0.000000	0.001675	0.001657	28.0828	7.270833	0.002111	3444.26	11.8503	-171.316	7.605525	0.047539	2.163052	2.162746	7.318049	3444.26	2.161458	120.183	0.060891	287.044
1103	2.000000	0.048860	7.37584e+06	-55289.1	1055.82	-29742	0.000000	0.000000	6.050211	6.486765	NaN	0.000000	0.001651	0.001683	28.0825	7.325104	0.002054	3566.24	5.962928	-171.542	6.185273	0.048519	2.164067	2.163726	6.486765	3566.24	2.162703	120.321	0.053912	297.039
1103	2.000000	0.049842	7.37584e+06	-55289.1	1055.82	-29742	0.000000	0.000000	6.051200	6.659781	NaN	0.000000	0.001643	0.001698	28.0825	6.758793	0.001916	3527.46	3.751916	-166.095	7.290085	0.049566	2.165049	2.164774	6.659781	3527.46	2.163633	120.425	0.055302	293.682
1103	2.000000	0.050864	7.37584e+06	-55289.1	1055.82	-29742	0.000000	0.000000	6.052236	6.995832	NaN	0.000000	0.001651	0.001679	28.0825	6.474369	0.001886	3433.43	5.200883	-168.421	7.044129	0.050534	2.166072	2.165742	6.995832	3433.43	2.164544	120.526	0.058044	285.733
1103	2.000000	0.051857	7.37584e+06	-55289.1	1055.82	-29742	0.000000	0.000000	6.053227	6.947936	NaN	0.000000	0.001657	0.001678	28.0825	7.289752	0.002117	3443.3	9.626229	-169.294	7.137439	0.051501	2.167065	2.166709	6.947936	3443.3	2.165551	120.639	0.057593	286.421
1103	2.000000	0.052861	7.37584e+06	-55289.1	1055.82	-29742	0.000000	0.000000	6.054212	6.495185	NaN	0.000000	0.001655	0.001697	28.0827	7.406348	0.002098	3530.76	8.642821	-170.383	6.910069	0.052535	2.168069	2.167743	6.495185	3530.76	2.166689	120.765	0.053784	293.542
1103	2.000000	0.053838	7.37584e+06	-55289.1	1055.82	-29742	0.000000	0.000000	6.055194	6.596035	NaN	0.000000	0.001677	0.001718	28.0824	6.993775	0.002006	3486.34	8.500374	-170.992	6.532181	0.053530	2.169046	2.168738	6.596035	3486.34	2.167627	120.87	0.054571	289.724
1103	2.000000	0.054842	7.37584e+06	-55289.1	1055.82	-29742	0.000000	0.000000	6.056196	6.574258	NaN	0.000000	0.001682	0.001674	28.0827	7.047442	0.002046	3445.12	14.0074	-170.575	6.679114	0.054524	2.170049	2.169732	6.574258	3445.12	2.168618	120.981	0.054341	286.167
1103	2.000000	0.055863	7.37584e+06	-55289.1	1055.82	-29742	0.000000	0.000000	6.057166	5.329823	NaN	0.000000	0.001638	0.001689	28.0812	7.143770	0.002020	3535.89	10.3405	-171.89	5.490870	0.055547	2.171071	2.170755	5.329823	3535.89	2.169940	121.128	0.044002	293.528
1103	2.000000	0.056838	7.37584e+06	-55289.1	1055.82	-29742	0.000000	0.000000	6.058206	6.912745	NaN	0.000000	0.001654	0.001711	28.0813	7.312926	0.001954	3742.58	7.068153	-171.24	7.280388	0.056468	2.172045	2.171675	6.912745	3742.58	2.170660	121.208	0.057032	310.583
1103	2.000000	0.057874	7.37584e+06	-55289.1	1055.82	-29742	0.000000	0.000000	6.059219	6.330037	NaN	0.000000	0.001633	0.001681	28.0816	6.973534	0.001915	3641.52	10.1145	-172.119	6.404961	0.057588	2.173082	2.172795	6.330037	3641.52	2.171778	121.333	0.052171	302.041
1103	2.000000	0.058844	7.37584e+06	-55289.1	1055.82	-29742	0.000000	0.000000	6.060218	7.042179	NaN	0.000000	0.001627	0.001696	28.0813	6.646519	0.001980	3356.51	8.239766	-168.283	6.944748	0.058514	2.174052	2.173722	7.042179	3356.51	2.172479	121.412	0.058003	278.311
1103	2.000000	0.059821	7.37584e+06	-55289.1	1055.82	-29742	0.000000	0.000000	6.061184	6.782251	NaN	0.000000	0.001663	0.001708	28.0814	6.863054	0.001984	3459.11	8.655716	-169.597	6.783877	0.059579	2.175029	2.174786	6.782251	3459.11	2.173558	121.532	0.055806	286.676
1103	2.000000	0.060850	7.37584e+06	-55289.1	1055.82	-29742	0.000000	0.000000	6.062228	7.135863	NaN	0.000000	0.001638	0.001683	28.0816	6.671796	0.002076	3213.77	3.117170	-172.531	7.552498	0.060578	2.176058	2.175786	7.135863	3213.77	2.174392	121.626	0.058671	266.242
1103	2.000000	0.061859	7.37584e+06	-55289.1	1055.82	-29742	0.000000	0.000000	6.063275	8.043999	NaN	0.000000	0.001638	0.001694	28.0815	7.158434	0.002106	3399.36	2.877448	-167.687	8.139505	0.061478	2.177067	2.176685	8.043999	3399.36	2.175292	121.726	0.066083	281.5
1103	2.000000	0.062828	7.37584e+06	-55289.1	1055.82	-29742	0.000000	0.000000	6.064170	6.263237	NaN	0.000000	0.001642	0.001675	28.0815	7.469813	0.001831	4079.76	7.751114	-169.19	6.663155	0.062561	2.178036	2.177769	6.263237	4079.76	2.176884	121.905	0.051378	337.597
1103	2.000000	0.063833	7.37584e+06	-55289.1	1055.82	-29742	0.000000	0.000000	6.065213	7.201268	NaN	0.000000	0.001621	0.001648	28.0813	7.032218	0.001860	3780.5	6.418931	-165.912	7.121432	0.063517	2.179041	2.178725	7.201268	3780.5	2.177612	121.986	0.059034	312.728
1103	2.000000	0.064832	7.37584e+06	-55289.1	1055.82	-29742	0.000000	0.000000	6.066236	7.779220	NaN	0.000000	0.001646	0.001681	28.0818	6.864420	0.001950	3519.42	11.0964	-170.721	8.375731	0.064524	2.180039	2.179732	7.779220	3519.42	2.178382	122.072	0.063726	291.029
1103	2.000000	0.065831	7.37584e+06	-55289.1	1055.82	-29742	0.000000	0.000000	6.067252	8.166573	NaN	0.000000	0.001658	0.001647	28.0815	6.176635	0.001953	3163.39	10.5417	-168.544	7.353868	0.065528	2.181039	2.180736	8.166573	3163.39	2.179103	122.153	0.066855	261.501
1103	2.000000	0.066838	7.37584e+06	-55289.1	1055.82	-29742	0.000000	0.000000	6.068237	7.653509	NaN	0.000000	0.001655	0.001643	28.0815	6.615783	0.002164	3057.84	18.3701	-171.964	7.940392	0.066524	2.182046	2.181732	7.653509	3057.84	2.180168	122.273	0.062594	252.652
1103	2.000000	0.067868	7.37584e+06	-55289.1	1055.82	-29742	0.000000	0.000000	6.069264	7.564901	NaN	0.000000	0.001644	0.001661	28.0815	6.821816	0.002137	3191.83	9.157725	-170.892	7.566393	0.067516	2.183076	2.182723	7.564901	3191.83	2.181299	122.399	0.061805	263.586
1103	2.000000	0.068829	7.37584e+06	-55289.1	1055.82	-29742	0.000000	0.000000	6.070236	7.832615	NaN	0.000000	0.001647	0.001663	28.0813	6.883682	0.002090	3294.41	2.410615	-168.806	8.395049	0.068504	2.184037	2.183711	7.832615	3294.41	2.182254	122.507	0.063936	271.939
1103	2.000000	0.069818	7.37584e+06	-55289.1	1055.82	-29742	0.000000	0.000000	6.071225	7.840104	NaN	0.000000	0.001632	0.001664	28.0813	7.176559	0.001883	3811.82	9.845552	-172.681	7.993330	0.069552	2.185026	2.184759	7.840104	3811.82	2.183483	122.645	0.063925	314.472
1103	2.000000	0.070847	7.37584e+06	-55289.1	1055.82	-29742	0.000000	0.000000	6.072212	6.819831	NaN	0.000000	0.001644	0.001662	28.0812	7.280829	0.001907	3817.09	17.5041	-173.147	6.894315	0.070535	2.186055	2.185743	6.819831	3817.09	2.184715	122.783	0.055544	314.728
1103	2.000000	0.071816	7.37584e+06	-55289.1	1055.82	-29742	0.000000	0.000000	6.073171	6.595337	NaN	0.000000	0.001687	0.001648	28.0814	7.176594	0.002063	3478.96	14.9307	-173.526	6.763567	0.071509	2.187024	2.186717	6.595337	3478.96	2.185602	122.883	0.053672	286.733
1103	2.000000	0.072841	7.37584e+06	-55289.1	1055.82	-29742	0.000000	0.000000	6.074200	6.682325	NaN	0.000000	0.001652	0.001677	28.0811	6.762544	0.001941	3483.29	7.559983	-172.251	7.071449	0.072523	2.188049	2.187731	6.682325	3483.29	2.186610	122.996	0.054329	286.957
1103	2.000000	0.073854	7.37584e+06	-55289.1	1055.82	-29742	0.000000	0.000000	6.075207	6.536982	NaN	0.000000	0.001670	0.001677	28.081	6.647967	0.001919	3464.25	6.473309	-171.372	7.069915	0.073512	2.189062	2.188720	6.536982	3464.25	2.187647	123.113	0.053097	285.253
1103	2.000000	0.074826	7.37584e+06	-55289.1	1055.82	-29742	0.000000	0.000000	6.076188	6.761801	NaN	0.000000	0.001681	0.001700	28.0813	7.063037	0.001965	3594.43	9.118000	-170.724	6.439386	0.074530	2.190034	2.189738	6.761801	3594.43	2.188623	123.223	0.054875	295.841
1103	2.000000	0.075826	7.37584e+06	-55289.1	1055.82	-29742	0.000000	0.000000	6.077221	7.564415	NaN	0.000000	0.001660	0.001681	28.0811	6.974338	0.001894	3682.53	8.705652	-169.738	6.861943	0.075508	2.191034	2.190715	7.564415	3682.53	2.189493	123.321	0.061339	302.971
1103	2.000000	0.076831	7.37584e+06	-55289.1	1055.82	-29742	0.000000	0.000000	6.078188	6.646645	NaN	0.000000	0.001676	0.001663	28.0813	6.653352	0.002028	3281.29	10.6651	-173.108	6.917710	0.076499	2.192038	2.191707	6.646645	3281.29	2.190519	123.436	0.053847	269.834
1103	2.000000	0.077818	7.37584e+06	-55289.1	1055.82	-29742	0.000000	0.000000	6.079186	6.916101	NaN	0.000000	0.001662	0.001681	28.0811	6.463606	0.002010	3215.28	6.719642	-165.215	6.778170	0.077481	2.193025	2.192689	6.916101	3215.28	2.191412	123.537	0.055984	264.298
1103	2.000000	0.078817	7.37584e+06	-55289.1	1055.82	-29742	0.000000	0.000000	6.080209	7.499440	NaN	0.000000	0.001636	0.001700	28.0815	6.808556	0.001999	3406.35	14.0785	-173.222	7.609720	0.078502	2.194024	2.193710	7.499440	3406.35	2.192373	123.645	0.060653	279.881
1103	2.000000	0.079803	7.37584e+06	-55289.1	1055.82	-29742	0.000000	0.000000	6.081189	7.348758	NaN	0.000000	0.001631	0.001665	28.0812	6.585448	0.001941	3391.95	4.280570	-171.674	7.049175	0.079568	2.195010	2.194776	7.348758	3391.95	2.193385	123.76	0.059379	278.569
1103	2.000000	0.080835	7.37584e+06	-55289.1	1055.82	-29742	0.000000	0.000000	6.082229	7.532551	NaN	0.000000	0.001630	0.001633	28.0811	6.500133	0.001890	3438.85	1.763074	-171.753	7.478714	0.080470	2.196043	2.195678	7.532551	3438.85	2.194400	123.874	0.060808	282.291
1103	2.000000	0.081816	7.37584e+06	-55289.1	1055.82	-29742	0.000000	0.000000	6.083213	7.583228	NaN	0.000000	0.001634	0.001629	28.0817	6.485514	0.001989	3260.28	8.571303	-168.937	8.140141	0.081508	2.197024	2.196715	7.583228	3260.28	2.195280	123.974	0.061168	267.525
1103	2.000000	0.082809	7.37584e+06	-55289.1	1055.82	-29742	0.000000	0.000000	6.084184	7.071103	NaN	0.000000	0.001644	0.001624	28.0812	7.218613	0.002067	3492.99	10.3362	-171.02	6.581991	0.082516	2.198017	2.197724	7.071103	3492.99	2.196498	124.111	0.056974	286.461
1103	2.000000	0.083837	7.37584e+06	-55289.1	1055.82	-29742	0.000000	0.000000	6.085225	7.395079	NaN	0.000000	0.001654	0.001625	28.0812	7.410631	0.002084	3556.2	6.878624	-171.298	7.569825	0.083513	2.199045	2.198720	7.395079	3556.2	2.197485	124.223	0.059531	291.514
1103	2.000000	0.084799	7.37584e+06	-55289.1	1055.82	-29742	0.000000	0.000000	6.086144	6.328877	NaN	0.000000	0.001677	0.001660	28.0815	6.705833	0.001950	3439.42	10.4292	-172.92	6.677103	0.084498	2.200007	2.199706	6.328877	3439.42	2.198627	124.352	0.050895	281.794
1103	2.000000	0.085824	7.37584e+06	-55289.1	1055.82	-29742	0.000000	0.000000	6.087178	6.542757	NaN	0.000000	0.001671	0.001693	28.0813	6.710058	0.001960	3423.76	10.3491	-170.594	6.671366	0.085520	2.201032	2.200727	6.542757	3423.76	2.199599	124.462	0.052568	280.387
1103	2.000000	0.086829	7.37584e+06	-55289.1	1055.82	-29742	0.000000	0.000000	6.088224	7.544508	NaN	0.000000	0.001656	0.001660	28.0813	6.996400	0.001894	3693.62	11.8521	-170.324	7.712143	0.086477	2.202037	2.201684	7.544508	3693.62	2.200505	124.564	0.060567	302.363
1103	2.000000	0.087822	7.37584e+06	-55289.1	1055.82	-29742	0.000000	0.000000	6.089177	6.576502	NaN	0.000000	0.001671	0.001678	28.0811	6.739602	0.001980	3404.34	6.699972	-170.526	7.079640	0.087519	2.203030	2.202727	6.576502	3404.34	2.201581	124.686	0.052744	278.546
1103	2.000000	0.088801	7.37584e+06	-55289.1	1055.82	-29742	0.000000	0.000000	6.090188	7.367562	NaN	0.000000	0.001612	0.001660	28.0813	6.375225	0.002032	3138.06	4.883495	-172.405	7.074115	0.088520	2.204008	2.203728	7.367562	3138.06	2.202248	124.762	0.059053	256.681
1103	2.000000	0.089833	7.37584e+06	-55289.1	1055.82	-29742	0.000000	0.000000	6.091216	7.260293	NaN	0.000000	0.001649	0.001670	28.0824	6.563696	0.001985	3305.98	2.279914	-166.143	7.533045	0.089535	2.205040	2.204743	7.260293	3305.98	2.203393	124.892	0.058133	270.276
1103	2.000000	0.090808	7.37584e+06	-55289.1	1055.82	-29742	0.000000	0.000000	6.092175	6.890920	NaN	0.000000	0.001650	0.001661	28.0826	7.401714	0.001961	3773.88	9.941362	-172.078	7.352209	0.090530	2.206015	2.205738	6.890920	3773.88	2.204646	125.034	0.055113	308.353
1103	2.000000	0.091815	7.37584e+06	-55289.1	1055.82	-29742	0.000000	0.000000	6.093188	7.028854	NaN	0.000000	0.001640	0.001673	28.0827	6.821047	0.002007	3398.74	3.936949	-170.079	7.314024	0.091505	2.207022	2.206713	7.028854	3398.74	2.205471	125.127	0.056174	277.597
1103	2.000000	0.092834	7.37584e+06	-55289.1	1055.82	-29742	0.000000	0.000000	6.094145	5.532795	NaN	0.000000	0.001626	0.001677	28.0825	6.600780	0.002042	3233.09	10.8026	-170.833	5.801171	0.092539	2.208041	2.207747	5.532795	3233.09	2.206758	125.273	0.044166	263.913
1103	2.000000	0.093800	7.37584e+06	-55289.1	1055.82	-29742	0.000000	0.000000	6.095139	6.202520	NaN	0.000000	0.001631	0.001644	28.0822	7.157639	0.001969	3635.14	10.5176	-170.964	5.733762	0.093459	2.209007	2.208667	6.202520	3635.14	2.207728	125.383	0.049468	296.602
1103	2.000000	0.094822	7.37584e+06	-55289.1	1055.82	-29742	0.000000	0.000000	6.096155	6.028559	NaN	0.000000	0.001626	0.001635	28.0824	7.024136	0.002161	3251.07	14.7314	-169.731	6.357390	0.094539	2.210030	2.209747	6.028559	3251.07	2.208639	125.487	0.048041	265.155
1103	2.000000	0.095790	7.37584e+06	-55289.1	1055.82	-29742	0.000000	0.000000	6.097125	6.104766	NaN	0.000000	0.001633	0.001666	28.0827	6.487009	0.001967	3298.07	2.117486	-168.15	6.111858	0.095503	2.210998	2.210710	6.104766	3298.07	2.209609	125.597	0.048606	268.87
1103	2.000000	0.096846	7.37584e+06	-55289.1	1055.82	-29742	0.000000	0.000000	6.098235	7.407189	NaN	0.000000	0.001638	0.001632	28.0825	6.495574	0.001952	3327.61	4.948566	-169.731	7.179132	0.096454	2.212054	2.211662	7.407189	3327.61	2.210384	125.685	0.058934	271.184
1103	2.000000	0.097761	7.37584e+06	-55289.1	1055.82	-29742	0.000000	0.000000	6.099131	6.961018	NaN	0.000000	0.001616	0.001650	28.0823	6.901039	0.002037	3388.15	17.4715	-174.638	6.998965	0.097509	2.212968	2.212717	6.961018	3388.15	2.211427	125.804	0.055332	275.987
1103	2.000000	0.098812	7.37584e+06	-55289.1	1055.82	-29742	0.000000	0.000000	6.100190	7.145288	NaN	0.000000	0.001644	0.001657	28.0824	6.720268	0.001964	3421.59	8.627465	-173.603	7.597487	0.098466	2.214019	2.213674	7.145288	3421.59	2.212453	125.921	0.056744	278.582
1103	2.000000	0.099801	7.37584e+06	-55289.1	1055.82	-29742	0.000000	0.000000	6.101183	7.248952	NaN	0.000000	0.001594	0.001637	28.0824	6.772976	0.001956	3463.06	-0.101888	-168.01	7.451435	0.099524	2.215009	2.214731	7.248952	3463.06	2.213439	126.033	0.057516	281.832
1103	2.000000	0.100796	7.37584e+06	-55289.1	1055.82	-29742	0.000000	0.000000	6.102173	7.127267	NaN	0.000000	0.001654	0.001618	28.0825	6.738332	0.002054	3280.51	6.556833	-169.46	7.183071	0.100548	2.216004	2.215756	7.127267	3280.51	2.214374	126.14	0.056503	266.863
1103	2.000000	0.101775	7.37584e+06	-55289.1	1055.82	-29742	0.000000	0.000000	6.103130	6.571604	NaN	0.000000	0.001657	0.001635	28.0824	7.037380	0.001925	3656.33	10.2663	-171.844	6.742773	0.101505	2.216983	2.216713	6.571604	3656.33	2.215635	126.283	0.052039	297.266
1103	2.000000	0.102332	7.37584e+06	-55289.1	1055.82	-29742	0.000000	0.000000	6.103682	6.455585	NaN	0.000000	0.001646	0.001653	28.0825	6.880432	0.001885	3650.36	11.0374	9.207807	6.541072	0.101909	2.217540	2.217116	6.455585	3650.36	2.216213	126.349	0.051093	296.703