File: remote_trans/data/nanoindenter/0828-1/data/Data_2025-08-06,11h17m57s/2025-07-22_16-23-58_1_527.txt
2025-07-22, 16:23:58, 1
Index	Phase	Displacement	Time	Pos X	Pos Y	Pos Z	Rot A	Rot B	Piezo Z	Force A	Force B	Gripper	Voltage A	Voltage B	Temperature	Amplitude force	Amplitude pos	Stiffness	Phase shift	Phase excitation	Force A raw	Displacement raw	HMax	HMax raw	Real Force	Real Stiffness	Contact Depth	Area	Hardness	Reduced Mod.
[#]	[#]	[um]	[s]	[um]	[um]	[um]	[m°]	[m°]	[um]	[uN]	[uN]	[V]	[V]	[V]	[°C]	[uN]	[um]	[N/m]	[°]	[°]	[uN]	[um]	[um]	[um]	[uN]	[N/m]	[um]	[um^2]	[MPa]	[MPa]
527	1.000000	0.002632	7.3702e+06	-50739.1	1005.82	-29754.6	0.000000	0.000000	6.002778	-0.024053	NaN	0.000000	0.001586	0.001745	28.0825	0.063479	0.000947	67.009	68.2869	-168.041	-0.084393	0.001431	-1.074864	-1.076065	-0.024053	67.009	-1.074595	-2.285171E+14	1.052573E-16	NaN
527	1.000000	0.010634	7.3702e+06	-50739.1	1005.82	-29754.6	0.000000	0.000000	6.010780	-0.025991	NaN	0.000000	0.001581	0.001777	28.082	0.071803	0.001013	70.8762	-83.4581	-166.82	-0.034878	0.009289	-1.066862	-1.068207	-0.025991	70.8762	-1.066587	-1.783750E+14	1.457101E-16	NaN
527	1.000000	0.018635	7.3702e+06	-50739.1	1005.82	-29754.6	0.000000	0.000000	6.018780	-0.065978	NaN	0.000000	0.001602	0.001792	28.082	0.066495	0.001748	38.0468	-0.151362	-165.929	-0.027747	0.017274	-1.058861	-1.060222	-0.065978	38.0468	-1.057561	-1.349077E+14	4.890612E-16	NaN
527	1.000000	0.026654	7.3702e+06	-50739.1	1005.82	-29754.6	0.000000	0.000000	6.026803	0.038026	NaN	0.000000	0.001563	0.001755	28.0819	0.049101	0.001722	28.5219	-2.648221	-164.246	0.089139	0.025268	-1.050842	-1.052229	0.038026	28.5219	-1.051842	-1.130236E+14	-3.364445E-16	NaN
527	1.000000	0.034624	7.3702e+06	-50739.1	1005.82	-29754.6	0.000000	0.000000	6.034767	-0.096030	NaN	0.000000	0.001561	0.001752	28.0817	0.016804	0.002081	8.073124	80.8543	-165.949	-0.022509	0.033305	-1.042872	-1.044191	-0.096030	8.073124	-1.033951	-6.495631E+13	1.478385E-15	NaN
527	1.000000	0.042583	7.3702e+06	-50739.1	1005.82	-29754.7	0.000000	0.000000	6.042728	-0.060962	NaN	0.000000	0.001600	0.001737	28.0825	0.089932	0.001859	48.3707	-14.3136	-165.342	-0.130039	0.041225	-1.034913	-1.036271	-0.060962	48.3707	-1.033967	-6.498920E+13	9.380319E-16	NaN
527	1.000000	0.050606	7.3702e+06	-50739.1	1005.82	-29754.7	0.000000	0.000000	6.050753	-0.011007	NaN	0.000000	0.001577	0.001733	28.0829	0.086933	0.001884	46.1329	-171.216	-161.814	-0.040704	0.049297	-1.026890	-1.028199	-0.011007	46.1329	-1.026711	-5.190864E+13	2.120370E-16	NaN
527	1.000000	0.058646	7.3702e+06	-50739.1	1005.82	-29754.7	0.000000	0.000000	6.058792	-0.053291	NaN	0.000000	0.001630	0.001748	28.0834	0.096180	0.001926	49.9261	-75.8622	-164.578	-0.103716	0.057272	-1.018850	-1.020224	-0.053291	49.9261	-1.018049	-3.969190E+13	1.342614E-15	NaN
527	1.000000	0.066648	7.3702e+06	-50739.1	1005.82	-29754.7	0.000000	0.000000	6.066791	-0.111077	NaN	0.000000	0.001639	0.001780	28.0834	0.081301	0.001892	42.9765	-1.691859	-167.656	-0.111175	0.065312	-1.010848	-1.012184	-0.111077	42.9765	-1.008910	-2.990254E+13	3.714637E-15	NaN
527	1.000000	0.074629	7.3702e+06	-50739.1	1005.82	-29754.7	0.000000	0.000000	6.074777	0.002296	NaN	0.000000	0.001609	0.001812	28.0833	0.114544	0.001964	58.3309	-85.4686	-162.72	0.019196	0.073262	-1.002867	-1.004234	0.002296	58.3309	-1.002896	-2.481761E+13	-9.250639E-17	NaN
527	1.000000	0.082633	7.3702e+06	-50739.1	1005.82	-29754.7	0.000000	0.000000	6.082778	-0.067456	NaN	0.000000	0.001608	0.001835	28.0831	0.051608	0.002142	24.0912	-31.0508	-167.004	-0.070617	0.081268	-0.994863	-0.996228	-0.067456	24.0912	-0.992763	-1.812683E+13	3.721319E-15	NaN
527	1.000000	0.090606	7.3702e+06	-50739.1	1005.82	-29754.7	0.000000	0.000000	6.090751	-0.049815	NaN	0.000000	0.001640	0.001746	28.0832	0.084864	0.002103	40.347	-21.5848	-169.202	-0.062838	0.089264	-0.986890	-0.988232	-0.049815	40.347	-0.985964	-1.468086E+13	3.393196E-15	NaN
527	1.000000	0.098630	7.3702e+06	-50739.1	1005.82	-29754.7	0.000000	0.000000	6.098775	-0.067616	NaN	0.000000	0.001598	0.001757	28.0835	0.103661	0.001907	54.3663	106.975	-164.933	-0.047153	0.097369	-0.978866	-0.980127	-0.067616	54.3663	-0.977933	-1.144357E+13	5.908686E-15	NaN
527	1.000000	0.106616	7.3702e+06	-50739.1	1005.82	-29754.7	0.000000	0.000000	6.106760	-0.085128	NaN	0.000000	0.001582	0.001756	28.0833	0.068694	0.002038	33.713	81.4382	-167.079	0.010263	0.105338	-0.970880	-0.972158	-0.085128	33.713	-0.968986	-8.669671E+12	9.819093E-15	NaN
527	1.000000	0.114621	7.3702e+06	-50739.1	1005.82	-29754.7	0.000000	0.000000	6.114767	-0.030702	NaN	0.000000	0.001598	0.001743	28.0832	0.085639	0.002068	41.4187	-124.345	-165.954	0.028374	0.113328	-0.962875	-0.964168	-0.030702	41.4187	-0.962319	-7.049042E+12	4.355554E-15	NaN
527	1.000000	0.122634	7.3702e+06	-50739.1	1005.82	-29754.7	0.000000	0.000000	6.122780	-0.044538	NaN	0.000000	0.001589	0.001767	28.083	0.049637	0.001931	25.6997	-141.372	-165.949	-0.041807	0.121314	-0.954862	-0.956182	-0.044538	25.6997	-0.953562	-5.371078E+12	8.292166E-15	NaN
527	1.000000	0.130636	7.3702e+06	-50739.1	1005.82	-29754.7	0.000000	0.000000	6.130781	-0.047878	NaN	0.000000	0.001600	0.001755	28.083	0.059391	0.002025	29.335	-75.9451	-166.354	0.051852	0.129351	-0.946860	-0.948145	-0.047878	29.335	-0.945636	-4.199235E+12	1.140162E-14	NaN
527	1.000000	0.138612	7.3702e+06	-50739.1	1005.82	-29754.7	0.000000	0.000000	6.138761	0.024944	NaN	0.000000	0.001592	0.001767	28.0828	0.072943	0.002004	36.3934	-153.411	-168.821	-0.056269	0.137388	-0.938884	-0.940109	0.024944	36.3934	-0.939398	-3.459516E+12	-7.210328E-15	NaN
527	1.000000	0.146642	7.3702e+06	-50739.1	1005.82	-29754.7	0.000000	0.000000	6.146788	-0.029876	NaN	0.000000	0.001624	0.001728	28.083	0.116136	0.002117	54.8655	-131.354	-167.772	-0.011303	0.145343	-0.930855	-0.932153	-0.029876	54.8655	-0.930446	-2.619502E+12	1.140533E-14	NaN
527	1.000000	0.154646	7.3702e+06	-50739.1	1005.82	-29754.7	0.000000	0.000000	6.154794	0.037263	NaN	0.000000	0.001660	0.001737	28.0832	0.055233	0.001986	27.8176	18.3357	-164.604	0.009629	0.153339	-0.922851	-0.924157	0.037263	27.8176	-0.923855	-2.134294E+12	-1.745908E-14	NaN
527	1.000000	0.162635	7.3702e+06	-50739.1	1005.82	-29754.7	0.000000	0.000000	6.162782	-0.024064	NaN	0.000000	0.001632	0.001771	28.083	0.128466	0.002029	63.3138	-127.915	-163.698	0.026702	0.161391	-0.914861	-0.916105	-0.024064	63.3138	-0.914576	-1.599412E+12	1.504531E-14	NaN
527	1.000000	0.170686	7.3702e+06	-50739.1	1005.82	-29754.7	0.000000	0.000000	6.170833	-0.005176	NaN	0.000000	0.001605	0.001764	28.0835	0.033359	0.001910	17.4637	-155.582	-166.475	-0.089701	0.169290	-0.906810	-0.908206	-0.005176	17.4637	-0.906588	-1.247589E+12	4.148874E-15	NaN
527	1.000000	0.178661	7.3702e+06	-50739.1	1005.82	-29754.7	0.000000	0.000000	6.178804	-0.090899	NaN	0.000000	0.001599	0.001756	28.0828	0.046292	0.001975	23.4391	-103.985	-164.478	-0.070535	0.177369	-0.898836	-0.900128	-0.090899	23.4391	-0.895927	-8.954176E+11	1.015159E-13	NaN
527	1.000000	0.186649	7.3702e+06	-50739.1	1005.82	-29754.7	0.000000	0.000000	6.186793	-0.069741	NaN	0.000000	0.001601	0.001780	28.0818	0.088336	0.002059	42.9065	122.97	-164.282	-0.084902	0.185337	-0.890847	-0.892160	-0.069741	42.9065	-0.889628	-7.360224E+11	9.475367E-14	NaN
527	1.000000	0.194668	7.3702e+06	-50739.1	1005.82	-29754.7	0.000000	0.000000	6.194813	-0.068146	NaN	0.000000	0.001614	0.001778	28.0819	0.043214	0.001979	21.8401	-145.196	-163.298	0.003947	0.193363	-0.882828	-0.884133	-0.068146	21.8401	-0.880488	-5.537357E+11	1.230658E-13	NaN
527	1.000000	0.202675	7.3702e+06	-50739.1	1005.82	-29754.7	0.000000	0.000000	6.202820	-0.059564	NaN	0.000000	0.001625	0.001802	28.0816	0.047283	0.002005	23.5861	27.1221	-166.066	-0.025025	0.201329	-0.874821	-0.876167	-0.059564	23.5861	-0.872927	-4.375680E+11	1.361259E-13	NaN
527	1.000000	0.210661	7.3702e+06	-50739.1	1005.82	-29754.7	0.000000	0.000000	6.210806	-0.072022	NaN	0.000000	0.001591	0.001806	28.0818	0.063603	0.001968	32.3117	-171.336	-170.652	-0.063723	0.209323	-0.866835	-0.868173	-0.072022	32.3117	-0.865163	-3.435564E+11	2.096357E-13	NaN
527	1.000000	0.218636	7.3702e+06	-50739.1	1005.82	-29754.7	0.000000	0.000000	6.218783	-0.018351	NaN	0.000000	0.001591	0.001743	28.0817	0.115556	0.002038	56.6996	-108.678	-165.157	-0.019842	0.217328	-0.858860	-0.860168	-0.018351	56.6996	-0.858617	-2.801582E+11	6.550061E-14	NaN
527	1.000000	0.226653	7.3702e+06	-50739.1	1005.82	-29754.7	0.000000	0.000000	6.226800	-0.010306	NaN	0.000000	0.001611	0.001736	28.0816	0.100130	0.001901	52.6837	95.5095	-164.941	0.024830	0.225386	-0.850843	-0.852110	-0.010306	52.6837	-0.850696	-2.188590E+11	4.708843E-14	NaN
527	1.000000	0.234666	7.3702e+06	-50739.1	1005.82	-29754.7	0.000000	0.000000	6.234811	-0.063938	NaN	0.000000	0.001584	0.001718	28.0817	0.062662	0.002039	30.7245	-18.802	-166.413	-0.076532	0.233390	-0.842830	-0.844107	-0.063938	30.7245	-0.841270	-1.631142E+11	3.919816E-13	NaN
527	1.000000	0.242686	7.3702e+06	-50739.1	1005.82	-29754.7	0.000000	0.000000	6.242829	-0.106556	NaN	0.000000	0.001596	0.001741	28.0818	0.064233	0.001886	34.0613	-94.3165	-169.286	-0.107334	0.241413	-0.834810	-0.836083	-0.106556	34.0613	-0.832464	-1.239310E+11	8.598027E-13	NaN
527	1.000000	0.250683	7.3702e+06	-50739.1	1005.82	-29754.7	0.000000	0.000000	6.250830	-0.018799	NaN	0.000000	0.001585	0.001775	28.0821	0.054303	0.002037	26.6575	52.744	-167.167	0.001239	0.249374	-0.826813	-0.828122	-0.018799	26.6575	-0.826284	-1.021908E+11	1.839606E-13	NaN
527	1.000000	0.258660	7.3702e+06	-50739.1	1005.82	-29754.7	0.000000	0.000000	6.258807	-0.001642	NaN	0.000000	0.001576	0.001761	28.0819	0.076745	0.002068	37.1123	-126.298	-165.804	0.082519	0.257390	-0.818836	-0.820106	-0.001642	37.1123	-0.818803	-8.090506E+10	2.029726E-14	NaN
527	1.000000	0.266681	7.3702e+06	-50739.1	1005.82	-29754.7	0.000000	0.000000	6.266822	-0.151840	NaN	0.000000	0.001577	0.001724	28.0817	0.090899	0.002006	45.3137	-160.663	-165.534	-0.065810	0.265373	-0.810815	-0.812123	-0.151840	45.3137	-0.808302	-5.828109E+10	2.605303E-12	NaN
527	1.000000	0.274681	7.3702e+06	-50739.1	1005.82	-29754.7	0.000000	0.000000	6.274830	0.029643	NaN	0.000000	0.001604	0.001715	28.0818	0.087653	0.002038	43.0161	-137.757	-166.366	0.044169	0.273407	-0.802815	-0.804089	0.029643	43.0161	-0.803332	-4.989812E+10	-5.940740E-13	NaN
527	1.000000	0.282706	7.37021e+06	-50739.1	1005.82	-29754.7	0.000000	0.000000	6.282849	-0.121573	NaN	0.000000	0.001583	0.001760	28.0817	0.064717	0.001899	34.0877	-175.076	-164.766	-0.065378	0.281409	-0.794790	-0.796087	-0.121573	34.0877	-0.792115	-3.514047E+10	3.459629E-12	NaN
527	1.000000	0.290730	7.37021e+06	-50739.1	1005.82	-29754.7	0.000000	0.000000	6.290879	0.022627	NaN	0.000000	0.001619	0.001771	28.082	0.025390	0.001852	13.7071	162.636	-164.254	-0.033599	0.289339	-0.786766	-0.788157	0.022627	13.7071	-0.788004	-3.090085E+10	-7.322304E-13	NaN
527	1.000000	0.298703	7.37021e+06	-50739.1	1005.82	-29754.7	0.000000	0.000000	6.298847	-0.076482	NaN	0.000000	0.001564	0.001735	28.082	0.049833	0.002043	24.3962	-172.181	-164.863	-0.083949	0.297442	-0.778793	-0.780054	-0.076482	24.3962	-0.776442	-2.152172E+10	3.553735E-12	NaN
527	1.000000	0.306709	7.37021e+06	-50739.1	1005.82	-29754.7	0.000000	0.000000	6.306854	-0.058130	NaN	0.000000	0.001547	0.001760	28.082	0.049134	0.001993	24.6489	4.307655	-163.557	-0.075767	0.305385	-0.770787	-0.772111	-0.058130	24.6489	-0.769018	-1.705914E+10	3.407553E-12	NaN
527	1.000000	0.314683	7.37021e+06	-50739.1	1005.82	-29754.7	0.000000	0.000000	6.314831	0.017558	NaN	0.000000	0.001552	0.001791	28.082	0.050198	0.002029	24.7342	56.2336	-161.711	-0.058620	0.313314	-0.762813	-0.764183	0.017558	24.7342	-0.763346	-1.428282E+10	-1.229308E-12	NaN
527	1.000000	0.322715	7.37021e+06	-50739.1	1005.82	-29754.7	0.000000	0.000000	6.322861	-0.021913	NaN	0.000000	0.001580	0.001797	28.0834	0.130273	0.002109	61.7786	49.5378	-167.372	-0.063914	0.321421	-0.754782	-0.756075	-0.021913	61.7786	-0.754516	-1.083125E+10	2.023081E-12	NaN
527	1.000000	0.330716	7.37021e+06	-50739.1	1005.82	-29754.7	0.000000	0.000000	6.330859	-0.104402	NaN	0.000000	0.001570	0.001751	28.0832	0.061798	0.002038	30.317	-101.928	-165.951	-0.065660	0.329442	-0.746780	-0.748054	-0.104402	30.317	-0.744197	-7.838259E+9	1.331948E-11	NaN
527	1.000000	0.338730	7.37021e+06	-50739.1	1005.82	-29754.7	0.000000	0.000000	6.338876	-0.035069	NaN	0.000000	0.001550	0.001822	28.0829	0.056107	0.002043	27.4663	-73.6136	-169.135	-0.056978	0.337459	-0.738766	-0.740037	-0.035069	27.4663	-0.737808	-6.415095E+9	5.466590E-12	NaN
527	1.000000	0.346720	7.37021e+06	-50739.1	1005.82	-29754.7	0.000000	0.000000	6.346866	-0.043806	NaN	0.000000	0.001566	0.001769	28.083	0.038336	0.002054	18.6607	90.6039	-165.687	-0.091702	0.345389	-0.730776	-0.732107	-0.043806	18.6607	-0.729015	-4.868389E+9	8.998016E-12	NaN
527	1.000000	0.354726	7.37021e+06	-50739.1	1005.82	-29754.7	0.000000	0.000000	6.354873	-0.000300	NaN	0.000000	0.001591	0.001807	28.083	0.100977	0.002012	50.1993	28.2295	-164.813	0.081499	0.353441	-0.722771	-0.724055	-0.000300	50.1993	-0.722766	-4.001230E+9	7.494741E-14	NaN
527	1.000000	0.362737	7.37021e+06	-50739.1	1005.82	-29754.7	0.000000	0.000000	6.362879	-0.124286	NaN	0.000000	0.001580	0.001780	28.0831	0.121386	0.002007	60.4833	-88.3895	-165.839	-0.142275	0.361405	-0.714760	-0.716091	-0.124286	60.4833	-0.713218	-2.964591E+9	4.192347E-11	NaN
527	1.000000	0.370731	7.37021e+06	-50739.1	1005.82	-29754.7	0.000000	0.000000	6.370875	-0.091982	NaN	0.000000	0.001585	0.001767	28.0829	0.042770	0.002030	21.0649	-30.8962	-166.136	-0.169025	0.369409	-0.706765	-0.708087	-0.091982	21.0649	-0.703490	-2.183671E+9	4.212257E-11	NaN
527	1.000000	0.378753	7.37021e+06	-50739.1	1005.82	-29754.7	0.000000	0.000000	6.378898	-0.060812	NaN	0.000000	0.001542	0.001782	28.0829	0.124959	0.001912	65.3448	174.247	-164.522	-0.025023	0.377412	-0.698743	-0.700084	-0.060812	65.3448	-0.698045	-1.840041E+9	3.304945E-11	NaN
527	1.000000	0.386736	7.37021e+06	-50739.1	1005.82	-29754.7	0.000000	0.000000	6.386879	-0.093555	NaN	0.000000	0.001543	0.001760	28.0829	0.103193	0.001965	52.5223	-144.066	-164.346	-0.045789	0.385457	-0.690760	-0.692039	-0.093555	52.5223	-0.689425	-1.402987E+9	6.668262E-11	NaN
527	1.000000	0.394721	7.37021e+06	-50739.1	1005.82	-29754.7	0.000000	0.000000	6.394864	-0.111549	NaN	0.000000	0.001528	0.001803	28.0829	0.113869	0.002072	54.9645	75.7626	-167.711	-0.127659	0.393458	-0.682775	-0.684038	-0.111549	54.9645	-0.681253	-1.084785E+9	1.028303E-10	NaN
527	1.000000	0.402742	7.37021e+06	-50739.1	1005.82	-29754.7	0.000000	0.000000	6.402884	-0.123008	NaN	0.000000	0.001547	0.001796	28.0835	0.122662	0.001878	65.3158	-13.018	-164.407	-0.139576	0.401450	-0.674754	-0.676046	-0.123008	65.3158	-0.673342	-8.455208E+8	1.454824E-10	NaN
527	1.000000	0.410774	7.37021e+06	-50739.1	1005.82	-29754.7	0.000000	0.000000	6.410920	-0.023574	NaN	0.000000	0.001554	0.001793	28.0831	0.161091	0.002019	79.7683	-55.0788	-168.903	-0.001640	0.409437	-0.666722	-0.668059	-0.023574	79.7683	-0.666500	-6.815305E+8	3.458946E-11	NaN
527	1.000000	0.418765	7.37021e+06	-50739.1	1005.82	-29754.7	0.000000	0.000000	6.418912	-0.002984	NaN	0.000000	0.001559	0.001791	28.0834	0.116969	0.002066	56.6121	-71.5428	-166.14	-0.011008	0.417473	-0.658731	-0.660023	-0.002984	56.6121	-0.658692	-5.327765E+8	5.600867E-12	NaN
527	1.000000	0.426742	7.37021e+06	-50739.1	1005.82	-29754.7	0.000000	0.000000	6.426889	-0.007678	NaN	0.000000	0.001528	0.001763	28.0832	0.057673	0.002060	27.9958	105.173	-169.551	0.002427	0.425495	-0.650754	-0.652001	-0.007678	27.9958	-0.650548	-4.120541E+8	1.863459E-11	NaN
527	1.000000	0.434740	7.37021e+06	-50739.1	1005.82	-29754.7	0.000000	0.000000	6.434886	-0.052814	NaN	0.000000	0.001525	0.001776	28.0832	0.091407	0.002066	44.2531	9.192948	-166.62	-0.064588	0.433440	-0.642756	-0.644056	-0.052814	44.2531	-0.641861	-3.131951E+8	1.686305E-10	NaN
527	1.000000	0.442762	7.37021e+06	-50739.1	1005.82	-29754.7	0.000000	0.000000	6.442907	-0.063911	NaN	0.000000	0.001512	0.001784	28.0835	0.028507	0.001989	14.3292	160.68	-166.697	-0.036407	0.441466	-0.634734	-0.636030	-0.063911	14.3292	-0.631389	-2.249535E+8	2.841078E-10	NaN
527	1.000000	0.450779	7.37021e+06	-50739.1	1005.82	-29754.7	0.000000	0.000000	6.450926	-0.013902	NaN	0.000000	0.001528	0.001750	28.0835	0.017797	0.001859	9.573133	158.711	-168.267	0.040365	0.449480	-0.626717	-0.628016	-0.013902	9.573133	-0.625628	-1.874889E+8	7.414800E-11	NaN
527	1.000000	0.458795	7.37021e+06	-50739.1	1005.82	-29754.7	0.000000	0.000000	6.458942	-0.019362	NaN	0.000000	0.001516	0.001749	28.0825	0.058128	0.001917	30.3194	130.531	-166.121	-0.010225	0.457490	-0.618701	-0.620006	-0.019362	30.3194	-0.618222	-1.483165E+8	1.305481E-10	NaN
527	1.000000	0.466818	7.37021e+06	-50739.1	1005.82	-29754.7	0.000000	0.000000	6.466959	-0.153877	NaN	0.000000	0.001551	0.001769	28.0821	0.062498	0.002012	31.0615	-172.797	-166.225	-0.080738	0.465458	-0.610679	-0.612038	-0.153877	31.0615	-0.606963	-1.038305E+8	1.482005E-9	NaN
527	1.000000	0.474806	7.37021e+06	-50739.1	1005.82	-29754.7	0.000000	0.000000	6.474952	-0.044107	NaN	0.000000	0.001547	0.001738	28.082	0.041175	0.001960	21.0094	-36.1036	-164.227	-0.037453	0.473482	-0.602690	-0.604014	-0.044107	21.0094	-0.601115	-8.626202E+7	5.113190E-10	NaN
527	1.000000	0.482784	7.37021e+06	-50739.1	1005.82	-29754.7	0.000000	0.000000	6.482929	-0.061735	NaN	0.000000	0.001589	0.001751	28.0822	0.038320	0.001957	19.5853	91.9392	-165.669	-0.037869	0.481478	-0.594712	-0.596018	-0.061735	19.5853	-0.592348	-6.531843E+7	9.451325E-10	NaN
527	1.000000	0.490799	7.37021e+06	-50739.1	1005.82	-29754.7	0.000000	0.000000	6.490946	-0.016250	NaN	0.000000	0.001522	0.001821	28.0822	0.018926	0.001942	9.743922	70.0412	-164.161	-0.081028	0.489442	-0.586697	-0.588054	-0.016250	9.743922	-0.585446	-5.246492E+7	3.097398E-10	NaN
527	1.000000	0.498831	7.37021e+06	-50739.1	1005.82	-29754.7	0.000000	0.000000	6.498979	0.004974	NaN	0.000000	0.001571	0.001813	28.0824	0.095403	0.001927	49.5197	-149.005	-163.683	0.045017	0.497455	-0.578665	-0.580041	0.004974	49.5197	-0.578740	-4.239694E+7	-1.173314E-10	NaN
527	1.000000	0.506784	7.37021e+06	-50739.1	1005.82	-29754.7	0.000000	0.000000	6.506930	-0.046172	NaN	0.000000	0.001574	0.001796	28.0822	0.027393	0.001892	14.4777	59.3513	-167.23	0.007619	0.505496	-0.570712	-0.572000	-0.046172	14.4777	-0.568320	-3.043815E+7	1.516910E-9	NaN
527	1.000000	0.514844	7.37021e+06	-50739.1	1005.82	-29754.7	0.000000	0.000000	6.514989	-0.054885	NaN	0.000000	0.001560	0.001816	28.0824	0.075517	0.001997	37.8076	-179.775	-165.938	-0.053827	0.513530	-0.562652	-0.563966	-0.054885	37.8076	-0.561563	-2.454735E+7	2.235876E-9	NaN
527	1.000000	0.522796	7.37021e+06	-50739.1	1005.82	-29754.7	0.000000	0.000000	6.522940	-0.089905	NaN	0.000000	0.001546	0.001782	28.0825	0.085469	0.002164	39.5022	157.138	-162.239	-0.058561	0.521491	-0.554700	-0.556005	-0.089905	39.5022	-0.552993	-1.868107E+7	4.812639E-9	NaN
527	1.000000	0.530845	7.37021e+06	-50739.1	1005.82	-29754.7	0.000000	0.000000	6.530989	-0.089445	NaN	0.000000	0.001537	0.001765	28.0822	0.171686	0.002037	84.2861	64.2923	-166.304	-0.060854	0.529515	-0.546651	-0.547981	-0.089445	84.2861	-0.545855	-1.487749E+7	6.012116E-9	NaN
527	1.000000	0.538802	7.37021e+06	-50739.1	1005.82	-29754.7	0.000000	0.000000	6.538945	-0.108252	NaN	0.000000	0.001522	0.001769	28.0824	0.107975	0.002119	50.9548	-34.4675	-166.604	-0.072210	0.537515	-0.538694	-0.539981	-0.108252	50.9548	-0.537100	-1.124958E+7	9.622743E-9	NaN
527	1.000000	0.546801	7.37021e+06	-50739.1	1005.82	-29754.7	0.000000	0.000000	6.546944	-0.109762	NaN	0.000000	0.001534	0.001780	28.0826	0.110245	0.001927	57.2176	155.797	-167.744	-0.049975	0.545486	-0.530695	-0.532010	-0.109762	57.2176	-0.529256	-8.75471e+06	1.253751E-8	NaN
527	1.000000	0.554804	7.37021e+06	-50739.1	1005.82	-29754.7	0.000000	0.000000	6.554951	0.005173	NaN	0.000000	0.001484	0.001799	28.0826	0.060219	0.002062	29.1988	-107.521	-165.506	-0.010319	0.553550	-0.522692	-0.523947	0.005173	29.1988	-0.522825	-7.12657e+06	-7.259290E-10	NaN
527	1.000000	0.562826	7.37021e+06	-50739.1	1005.82	-29754.7	0.000000	0.000000	6.562972	-0.027852	NaN	0.000000	0.001517	0.001797	28.0823	0.121155	0.001906	63.5577	-112.407	-163.916	-0.027568	0.561493	-0.514670	-0.516003	-0.027852	63.5577	-0.514341	-5.43081e+06	5.128433E-9	NaN
527	1.000000	0.570826	7.37021e+06	-50739.1	1005.82	-29754.7	0.000000	0.000000	6.570974	0.021835	NaN	0.000000	0.001568	0.001772	28.0821	0.064147	0.002033	31.5528	107.207	-168.207	-0.087864	0.569489	-0.506670	-0.508007	0.021835	31.5528	-0.507189	-4.31776e+06	-5.056963E-9	NaN
527	1.000000	0.578803	7.37021e+06	-50739.1	1005.82	-29754.7	0.000000	0.000000	6.578950	-0.009569	NaN	0.000000	0.001554	0.001759	28.0824	0.064480	0.001920	33.5857	158.559	-162.727	-0.029852	0.577507	-0.498693	-0.499989	-0.009569	33.5857	-0.498479	-3.26434e+06	2.931463E-9	NaN
527	1.000000	0.586848	7.37021e+06	-50739.1	1005.82	-29754.7	0.000000	0.000000	6.586993	-0.040925	NaN	0.000000	0.001545	0.001788	28.0825	0.063633	0.002124	29.9558	19.395	-165.756	-0.109615	0.585510	-0.490648	-0.491986	-0.040925	29.9558	-0.489624	-2.45547e+06	1.666669E-8	NaN
527	1.000000	0.594848	7.37021e+06	-50739.1	1005.82	-29754.7	0.000000	0.000000	6.594994	-0.040502	NaN	0.000000	0.001543	0.001807	28.0836	0.084890	0.002074	40.9296	169.929	-166.979	-0.025934	0.593522	-0.482648	-0.483974	-0.040502	40.9296	-0.481906	-1.91517e+06	2.114786E-8	NaN
527	1.000000	0.602799	7.37021e+06	-50739.1	1005.82	-29754.7	0.000000	0.000000	6.602944	-0.061075	NaN	0.000000	0.001565	0.001797	28.0835	0.048062	0.001944	24.7285	-87.0207	-168.95	-0.042268	0.601560	-0.474697	-0.475936	-0.061075	24.7285	-0.472844	-1.42985e+06	4.271414E-8	NaN
527	1.000000	0.610850	7.37021e+06	-50739.1	1005.82	-29754.7	0.000000	0.000000	6.610996	-0.031404	NaN	0.000000	0.001515	0.001799	28.0837	0.127037	0.002016	63.0019	-131.249	-165.667	0.012494	0.609540	-0.466646	-0.467956	-0.031404	63.0019	-0.466272	-1.1564e+06	2.715625E-8	NaN
527	1.000000	0.618860	7.37021e+06	-50739.1	1005.82	-29754.7	0.000000	0.000000	6.619007	-0.009888	NaN	0.000000	0.001531	0.001774	28.0834	0.022645	0.002000	11.3247	-131.59	-167.168	-0.122853	0.617508	-0.458636	-0.459988	-0.009888	11.3247	-0.457981	-884379	1.118085E-8	NaN
527	1.000000	0.626895	7.37021e+06	-50739.1	1005.82	-29754.7	0.000000	0.000000	6.627041	-0.037014	NaN	0.000000	0.001489	0.001840	28.0835	0.129395	0.002211	58.5203	112.39	-166.834	-0.012991	0.625553	-0.450601	-0.451943	-0.037014	58.5203	-0.450126	-685678	5.398165E-8	NaN
527	1.000000	0.634836	7.37021e+06	-50739.1	1005.82	-29754.7	0.000000	0.000000	6.634981	-0.053476	NaN	0.000000	0.001507	0.001845	28.0834	0.070656	0.002073	34.0859	-91.9042	-167.589	-0.060571	0.633579	-0.442660	-0.443917	-0.053476	34.0859	-0.441484	-517964	1.032435E-7	NaN
527	1.000000	0.642864	7.37021e+06	-50739.1	1005.82	-29754.7	0.000000	0.000000	6.643009	-0.054565	NaN	0.000000	0.001503	0.001848	28.0834	0.127022	0.002093	60.6869	-165.762	-170.501	-0.074651	0.641584	-0.434632	-0.435912	-0.054565	60.6869	-0.433958	-405530	1.345522E-7	NaN
527	1.000000	0.650870	7.37021e+06	-50739.1	1005.82	-29754.7	0.000000	0.000000	6.651014	-0.099064	NaN	0.000000	0.001533	0.001825	28.0835	0.061504	0.001951	31.526	50.6253	-163.979	-0.108807	0.649559	-0.426626	-0.427937	-0.099064	31.526	-0.424269	-295752	3.349565E-7	NaN
527	1.000000	0.658856	7.37021e+06	-50739.1	1005.82	-29754.7	0.000000	0.000000	6.658999	-0.092269	NaN	0.000000	0.001552	0.001807	28.0833	0.092592	0.001900	48.7297	-70.8026	-162.932	-0.148316	0.657489	-0.418640	-0.420007	-0.092269	48.7297	-0.417220	-234951	3.927154E-7	NaN
527	1.000000	0.666858	7.37021e+06	-50739.1	1005.82	-29754.7	0.000000	0.000000	6.667002	-0.071644	NaN	0.000000	0.001562	0.001808	28.0835	0.095579	0.002077	46.0256	71.0551	-168.779	-0.018683	0.665581	-0.410638	-0.411915	-0.071644	46.0256	-0.409471	-182336	3.929200E-7	NaN
527	1.000000	0.674899	7.37021e+06	-50739.1	1005.82	-29754.7	0.000000	0.000000	6.675046	-0.015733	NaN	0.000000	0.001542	0.001807	28.0833	0.055154	0.002003	27.5382	-104.483	-164.205	-0.022037	0.673540	-0.402597	-0.403956	-0.015733	27.5382	-0.402169	-143520	1.096227E-7	NaN
527	1.000000	0.682859	7.37021e+06	-50739.1	1005.82	-29754.7	0.000000	0.000000	6.683003	-0.073345	NaN	0.000000	0.001532	0.001830	28.0834	0.077754	0.001967	39.5245	134.084	-167.269	-0.075512	0.681583	-0.394637	-0.395913	-0.073345	39.5245	-0.393246	-107046	6.851664E-7	NaN
527	1.000000	0.690859	7.37021e+06	-50739.1	1005.82	-29754.7	0.000000	0.000000	6.691002	-0.089909	NaN	0.000000	0.001544	0.001830	28.0835	0.106426	0.001956	54.4047	45.9031	-165.913	-0.170464	0.689600	-0.386637	-0.387896	-0.089909	54.4047	-0.385398	-82658.8	1.087706E-6	NaN
527	1.000000	0.698881	7.37021e+06	-50739.1	1005.82	-29754.7	0.000000	0.000000	6.699024	-0.106017	NaN	0.000000	0.001566	0.001807	28.0834	0.043242	0.002021	21.3975	147.825	-166.446	-0.081136	0.697583	-0.378615	-0.379913	-0.106017	21.3975	-0.374899	-58428.7	1.814469E-6	NaN
527	1.000000	0.706869	7.37021e+06	-50739.1	1005.82	-29754.7	0.000000	0.000000	6.707012	-0.100396	NaN	0.000000	0.001562	0.001820	28.0837	0.124174	0.002066	60.115	-115.053	-165.661	-0.014348	0.705604	-0.370627	-0.371892	-0.100396	60.115	-0.369375	-48654.7	2.063449E-6	NaN
527	1.000000	0.714854	7.37021e+06	-50739.1	1005.82	-29754.7	0.000000	0.000000	6.714999	-0.053922	NaN	0.000000	0.001586	0.001805	28.0835	0.090265	0.001969	45.8461	-88.8055	-164.296	-0.026054	0.713545	-0.362642	-0.363951	-0.053922	45.8461	-0.361760	-37781.7	1.427207E-6	NaN
527	1.000000	0.722879	7.37021e+06	-50739.1	1005.82	-29754.7	0.000000	0.000000	6.723023	-0.082640	NaN	0.000000	0.001587	0.001818	28.0835	0.093750	0.002060	45.5046	121.3	-167.369	-0.077392	0.721594	-0.354617	-0.355902	-0.082640	45.5046	-0.353255	-28458.8	2.903856E-6	NaN
527	1.000000	0.730867	7.37021e+06	-50739.1	1005.82	-29754.7	0.000000	0.000000	6.731011	-0.082378	NaN	0.000000	0.001592	0.001830	28.0823	0.087206	0.002058	42.3844	-110.048	-164.977	0.003132	0.729576	-0.346629	-0.347920	-0.082378	42.3844	-0.345172	-21719.7	3.792771E-6	NaN
527	1.000000	0.738867	7.37021e+06	-50739.1	1005.82	-29754.7	0.000000	0.000000	6.739009	-0.148291	NaN	0.000000	0.001587	0.001818	28.0822	0.095050	0.001985	47.8877	173.549	-167.259	-0.189494	0.737611	-0.338629	-0.339885	-0.148291	47.8877	-0.336306	-16131.3	9.192768E-6	NaN
527	1.000000	0.746889	7.37021e+06	-50739.1	1005.82	-29754.7	0.000000	0.000000	6.747036	-0.009838	NaN	0.000000	0.001592	0.001824	28.0823	0.039116	0.002071	18.8892	-121.164	-167.493	-0.035178	0.745643	-0.330607	-0.331853	-0.009838	18.8892	-0.330216	-13140.7	7.486839E-7	NaN
527	1.000000	0.754888	7.37021e+06	-50739.1	1005.82	-29754.7	0.000000	0.000000	6.755032	-0.087576	NaN	0.000000	0.001571	0.001790	28.0824	0.016523	0.002048	8.066351	-91.6831	-169.703	-0.059835	0.753591	-0.322608	-0.323905	-0.087576	8.066351	-0.314465	-7709.95	1.135880E-5	NaN
527	1.000000	0.762888	7.37021e+06	-50739.1	1005.82	-29754.7	0.000000	0.000000	6.763035	-0.019586	NaN	0.000000	0.001582	0.001781	28.0821	0.050378	0.001992	25.2961	-60.3516	-167.626	-0.004414	0.761548	-0.314608	-0.315948	-0.019586	25.2961	-0.314027	-7595.96	2.578491E-6	NaN
527	1.000000	0.770914	7.37021e+06	-50739.1	1005.82	-29754.7	0.000000	0.000000	6.771058	-0.084499	NaN	0.000000	0.001563	0.001772	28.0822	0.079288	0.001890	41.9406	175.473	-167.258	-0.089181	0.769574	-0.306582	-0.307922	-0.084499	41.9406	-0.305071	-5597.72	1.509531E-5	NaN
527	1.000000	0.778915	7.37021e+06	-50739.1	1005.82	-29754.7	0.000000	0.000000	6.779058	-0.122575	NaN	0.000000	0.001611	0.001762	28.0822	0.016337	0.001877	8.703903	-72.6218	-165.911	-0.100322	0.777620	-0.298581	-0.299876	-0.122575	8.703903	-0.288019	-3116.01	3.933735E-5	NaN
527	1.000000	0.786907	7.37021e+06	-50739.1	1005.82	-29754.7	0.000000	0.000000	6.787052	-0.058883	NaN	0.000000	0.001627	0.001786	28.082	0.043117	0.002076	20.7682	119.369	-165.39	-0.037917	0.785664	-0.290589	-0.291832	-0.058883	20.7682	-0.288463	-3164.2	1.860910E-5	NaN
527	1.000000	0.794907	7.37021e+06	-50739.1	1005.82	-29754.7	0.000000	0.000000	6.795051	-0.083924	NaN	0.000000	0.001646	0.001783	28.082	0.040347	0.001992	20.2537	146.961	-168.2	-0.125437	0.793642	-0.282589	-0.283854	-0.083924	20.2537	-0.279482	-2318.19	3.620229E-5	NaN
527	1.000000	0.802922	7.37021e+06	-50739.1	1005.82	-29754.7	0.000000	0.000000	6.803071	0.037456	NaN	0.000000	0.001662	0.001786	28.0822	0.044525	0.002032	21.9144	-29.3339	-164.699	-0.019273	0.801651	-0.274574	-0.275845	0.037456	21.9144	-0.275856	-2043.39	-1.833021E-5	NaN
527	1.000000	0.810937	7.37021e+06	-50739.1	1005.82	-29754.7	0.000000	0.000000	6.811078	-0.137412	NaN	0.000000	0.001679	0.001770	28.0822	0.148927	0.002051	72.6102	-70.04	-166.301	-0.040846	0.809624	-0.266560	-0.267873	-0.137412	72.6102	-0.265140	-1404.52	9.783553E-5	NaN
527	1.000000	0.818911	7.37021e+06	-50739.1	1005.82	-29754.7	0.000000	0.000000	6.819055	-0.086808	NaN	0.000000	0.001652	0.001811	28.0817	0.135791	0.001950	69.6252	-171.542	-166.885	-0.055182	0.817672	-0.258585	-0.259824	-0.086808	69.6252	-0.257650	-1078.59	8.048254E-5	NaN
527	1.000000	0.826932	7.37021e+06	-50739.1	1005.82	-29754.7	0.000000	0.000000	6.827079	-0.020541	NaN	0.000000	0.001627	0.001763	28.0822	0.111598	0.001948	57.2921	169.566	-170.428	-0.001195	0.825585	-0.250564	-0.251911	-0.020541	57.2921	-0.250295	-830.861	2.472289E-5	NaN
527	1.000000	0.834920	7.37021e+06	-50739.1	1005.82	-29754.7	0.000000	0.000000	6.835066	-0.041494	NaN	0.000000	0.001566	0.001755	28.082	0.104837	0.002082	50.3554	-118.524	-166.235	-0.003991	0.833649	-0.242576	-0.243847	-0.041494	50.3554	-0.241958	-616.741	6.728027E-5	NaN
527	1.000000	0.842941	7.37021e+06	-50739.1	1005.82	-29754.7	0.000000	0.000000	6.843088	-0.006574	NaN	0.000000	0.001576	0.001767	28.0821	0.037131	0.001963	18.9136	172.654	-168.48	-0.030843	0.841615	-0.234555	-0.235882	-0.006574	18.9136	-0.234294	-467.908	1.404984E-5	NaN
527	1.000000	0.850961	7.37021e+06	-50739.1	1005.82	-29754.7	0.000000	0.000000	6.851106	-0.072183	NaN	0.000000	0.001556	0.001785	28.0818	0.037807	0.001938	19.5105	-22.4167	-169.877	-0.096291	0.849646	-0.226535	-0.227850	-0.072183	19.5105	-0.223760	-318.88	0.000226	NaN
527	1.000000	0.858952	7.37021e+06	-50739.1	1005.82	-29754.7	0.000000	0.000000	6.859096	-0.081686	NaN	0.000000	0.001590	0.001773	28.0819	0.054844	0.001993	27.5235	-160.73	-165.705	-0.057706	0.857616	-0.218544	-0.219880	-0.081686	27.5235	-0.216318	-242.495	0.000337	NaN
527	1.000000	0.866936	7.37021e+06	-50739.1	1005.82	-29754.7	0.000000	0.000000	6.867082	-0.033003	NaN	0.000000	0.001575	0.001780	28.0832	0.051210	0.001968	26.0201	45.741	-169.218	-0.040565	0.865652	-0.210560	-0.211844	-0.033003	26.0201	-0.209609	-189.009	0.000175	NaN
527	1.000000	0.874960	7.37021e+06	-50739.1	1005.82	-29754.7	0.000000	0.000000	6.875105	-0.061925	NaN	0.000000	0.001597	0.001784	28.0835	0.042246	0.002004	21.0798	102.54	-167.146	-0.130156	0.873620	-0.202536	-0.203876	-0.061925	21.0798	-0.200333	-133.402	0.000464	NaN
527	1.000000	0.882965	7.37021e+06	-50739.1	1005.82	-29754.7	0.000000	0.000000	6.883111	-0.055177	NaN	0.000000	0.001580	0.001766	28.0833	0.038282	0.001948	19.6532	155.648	-165.806	-0.168345	0.881633	-0.194531	-0.195863	-0.055177	19.6532	-0.192425	-98.7314	0.000559	NaN
527	1.000000	0.890960	7.37021e+06	-50739.1	1005.82	-29754.7	0.000000	0.000000	6.891104	-0.101780	NaN	0.000000	0.001576	0.001749	28.0832	0.057294	0.001914	29.9344	169.897	-166.964	-0.029280	0.889623	-0.186536	-0.187873	-0.101780	29.9344	-0.183986	-71.2889	0.001428	NaN
527	1.000000	0.898956	7.37021e+06	-50739.1	1005.82	-29754.7	0.000000	0.000000	6.899098	-0.132451	NaN	0.000000	0.001597	0.001813	28.0835	0.035669	0.001944	18.3484	125.938	-166.529	-0.058765	0.897681	-0.178540	-0.179815	-0.132451	18.3484	-0.173126	-46.5287	0.002847	NaN
527	1.000000	0.906988	7.37021e+06	-50739.1	1005.82	-29754.7	0.000000	0.000000	6.907135	-0.014530	NaN	0.000000	0.001625	0.001799	28.0833	0.116406	0.002018	57.6787	-54.1363	-164.638	-0.037549	0.905691	-0.170508	-0.171805	-0.014530	57.6787	-0.170319	-41.6052	0.000349	NaN
527	1.000000	0.914978	7.37021e+06	-50739.1	1005.82	-29754.7	0.000000	0.000000	6.915123	-0.062475	NaN	0.000000	0.001593	0.001758	28.0834	0.028602	0.001926	14.8498	-147.907	-165.837	-0.018689	0.913692	-0.162518	-0.163804	-0.062475	14.8498	-0.159363	-26.709	0.002339	NaN
527	1.000000	0.922954	7.37021e+06	-50739.1	1005.82	-29754.7	0.000000	0.000000	6.923101	0.001894	NaN	0.000000	0.001606	0.001800	28.0831	0.061189	0.001928	31.7357	173.348	-166.337	-0.023468	0.921685	-0.154542	-0.155811	0.001894	31.7357	-0.154587	-21.9353	-8.636438E-5	NaN
527	1.000000	0.930966	7.37021e+06	-50739.1	1005.82	-29754.7	0.000000	0.000000	6.931110	-0.079892	NaN	0.000000	0.001597	0.001791	28.0832	0.145474	0.001968	73.9366	131.805	-165.053	-0.057842	0.929671	-0.146530	-0.147825	-0.079892	73.9366	-0.145720	-15.1173	0.005285	NaN
527	1.000000	0.938977	7.37021e+06	-50739.1	1005.82	-29754.7	0.000000	0.000000	6.939124	-0.001151	NaN	0.000000	0.001621	0.001822	28.0833	0.081885	0.002055	39.8552	29.9603	-161.658	-0.012842	0.937630	-0.138519	-0.139866	-0.001151	39.8552	-0.138497	-11.0835	0.000104	NaN
527	1.000000	0.947010	7.37021e+06	-50739.1	1005.82	-29754.7	0.000000	0.000000	6.947155	-0.037320	NaN	0.000000	0.001581	0.001785	28.0832	0.074782	0.001981	37.7439	107.376	-166.561	-0.082872	0.945658	-0.130486	-0.131838	-0.037320	37.7439	-0.129745	-7.534497	0.004953	NaN
527	1.000000	0.954991	7.37021e+06	-50739.1	1005.82	-29754.7	0.000000	0.000000	6.955137	-0.028461	NaN	0.000000	0.001611	0.001803	28.0833	0.174907	0.002065	84.7197	99.906	-165.718	-0.068117	0.953649	-0.122505	-0.123847	-0.028461	84.7197	-0.122253	-5.362345	0.005308	NaN
527	1.000000	0.962984	7.37021e+06	-50739.1	1005.82	-29754.7	0.000000	0.000000	6.963130	-0.031984	NaN	0.000000	0.001582	0.001780	28.0831	0.147240	0.001988	74.0817	-17.282	-167.225	0.047914	0.961679	-0.114512	-0.115817	-0.031984	74.0817	-0.114189	-3.675769	0.008701	NaN
527	1.000000	0.970972	7.37021e+06	-50739.1	1005.82	-29754.7	0.000000	0.000000	6.971117	-0.046279	NaN	0.000000	0.001608	0.001784	28.0832	0.010079	0.002007	5.022061	76.8659	-164.357	-0.017161	0.969651	-0.106524	-0.107845	-0.046279	5.022061	-0.099613	-1.791357	0.025835	NaN
527	1.000000	0.979014	7.37021e+06	-50739.1	1005.82	-29754.7	0.000000	0.000000	6.979158	-0.076619	NaN	0.000000	0.001633	0.001811	28.0831	0.126218	0.001951	64.6921	-107.004	-164.525	-0.014749	0.977699	-0.098482	-0.099798	-0.076619	64.6921	-0.097594	-1.614710	0.047451	NaN
527	1.000000	0.986992	7.37021e+06	-50739.1	1005.82	-29754.7	0.000000	0.000000	6.987136	-0.093041	NaN	0.000000	0.001599	0.001786	28.0831	0.062052	0.001980	31.3336	65.3795	-166.608	-0.222748	0.985746	-0.090504	-0.091750	-0.093041	31.3336	-0.088277	-0.984419	0.094514	NaN
527	1.000000	0.994988	7.37021e+06	-50739.1	1005.82	-29754.7	0.000000	0.000000	6.995133	-0.062102	NaN	0.000000	0.001582	0.001785	28.0831	0.070606	0.001949	36.2239	-42.8949	-167.202	-0.047036	0.993684	-0.082508	-0.083812	-0.062102	36.2239	-0.081222	-0.663939	0.093536	NaN
527	1.000000	1.003003	7.37021e+06	-50739.1	1005.82	-29754.7	0.000000	0.000000	7.003148	-0.067434	NaN	0.000000	0.001614	0.001806	28.0819	0.180146	0.001943	92.6934	137.518	-166.283	-0.066435	1.001708	-0.074493	-0.075789	-0.067434	92.6934	-0.073947	-0.433696	0.155487	NaN
527	1.000000	1.011016	7.37021e+06	-50739.1	1005.82	-29754.7	0.000000	0.000000	7.011162	-0.017236	NaN	0.000000	0.001608	0.001786	28.082	0.042518	0.001911	22.2548	-172.579	-166.095	-0.076548	1.009679	-0.066480	-0.067817	-0.017236	22.2548	-0.065900	-0.263909	0.065311	NaN
527	1.000000	1.019011	7.37021e+06	-50739.1	1005.82	-29754.7	0.000000	0.000000	7.019158	0.004365	NaN	0.000000	0.001591	0.001813	28.0819	0.038188	0.002041	18.7096	-88.0824	-168.443	-0.021166	1.017661	-0.058485	-0.059835	0.004365	18.7096	-0.058660	-0.164780	-0.026488	NaN
527	1.000000	1.027020	7.37021e+06	-50739.1	1005.82	-29754.7	0.000000	0.000000	7.027167	-0.030476	NaN	0.000000	0.001605	0.001780	28.0817	0.031760	0.001865	17.0272	2.758913	-165.931	-0.026212	1.025721	-0.050476	-0.051775	-0.030476	17.0272	-0.049133	-0.085898	0.354786	NaN
527	1.000000	1.035033	7.37021e+06	-50739.1	1005.82	-29754.7	0.000000	0.000000	7.035179	-0.031687	NaN	0.000000	0.001577	0.001792	28.0818	0.115367	0.001916	60.2255	120.053	-169.657	0.004665	1.033683	-0.042463	-0.043813	-0.031687	60.2255	-0.042069	-0.052285	0.606044	NaN
527	1.000000	1.043006	7.37021e+06	-50739.1	1005.82	-29754.7	0.000000	0.000000	7.043153	-0.014549	NaN	0.000000	0.001604	0.001817	28.0819	0.090762	0.002058	44.1085	62.9365	-167.657	-0.024544	1.041684	-0.034490	-0.035812	-0.014549	44.1085	-0.034242	-0.030426	0.478190	NaN
527	1.000000	1.051037	7.37021e+06	-50739.1	1005.82	-29754.7	0.000000	0.000000	7.051183	-0.035141	NaN	0.000000	0.001600	0.001831	28.0818	0.110873	0.001929	57.4856	96.183	-167.979	-0.068805	1.049679	-0.026459	-0.027817	-0.035141	57.4856	-0.026001	-0.017924	1.960592	NaN
527	1.000000	1.059018	7.37021e+06	-50739.1	1005.82	-29754.7	0.000000	0.000000	7.059166	0.006479	NaN	0.000000	0.001603	0.001805	28.0818	0.067087	0.001961	34.2131	-116.239	-163.217	0.007686	1.057687	-0.018478	-0.019809	0.006479	34.2131	-0.018620	-0.011582	-0.559403	NaN
527	1.000000	1.067053	7.37021e+06	-50739.1	1005.82	-29754.7	0.000000	0.000000	7.067202	0.032282	NaN	0.000000	0.001614	0.001787	28.0815	0.105925	0.002035	52.0413	89.3735	-166.887	-0.047040	1.065677	-0.010443	-0.011819	0.032282	52.0413	-0.010908	-0.006906	-4.674631	NaN
527	1.000000	1.074987	7.37021e+06	-50739.1	1005.82	-29754.7	0.000000	0.000000	7.075180	1.107220	NaN	0.000000	0.001601	0.001795	28.0816	1.640665	0.001829	897.185	8.764876	-168.686	0.397368	1.073717	-0.002509	-0.003779	1.107220	897.185	-0.003435	-0.002409	-459.544	NaN
527	2.000000	1.082535	7.37021e+06	-50739.1	1005.82	-29754.7	0.000000	0.000000	7.083015	8.088626	NaN	0.000000	0.001610	0.001760	28.0817	8.565308	0.001665	5145.55	11.7398	-174.91	7.451864	1.081673	0.005039	0.004177	8.088626	5145.55	0.003860	0.003116	2595.57	84213.9
527	2.000000	1.084677	7.37021e+06	-50739.1	1005.82	-29754.7	0.000000	0.000000	7.085287	11.2475	NaN	0.000000	0.001597	0.001807	28.0817	10.771	0.001543	6981.45	8.040176	-177.725	10.4512	1.084396	0.007181	0.006900	11.2475	6981.45	0.005972	0.005038	2232.41	89862.4
527	2.000000	1.086623	7.37021e+06	-50739.1	1005.82	-29754.7	0.000000	0.000000	7.087360	14.3451	NaN	0.000000	0.001610	0.001788	28.0819	13.2629	0.001707	7770.18	4.311249	-173.338	12.6144	1.086370	0.009126	0.008874	14.3451	7770.18	0.007742	0.006778	2116.38	86228.2
527	2.000000	1.088686	7.37021e+06	-50739.1	1005.82	-29754.7	0.000000	0.000000	7.089593	18.4626	NaN	0.000000	0.001632	0.001800	28.0817	16.2011	0.001810	8952.62	10.4526	179.268	17.9163	1.088410	0.011190	0.010914	18.4626	8952.62	0.009643	0.008788	2100.94	87253.8
527	2.000000	1.090677	7.37021e+06	-50739.1	1005.82	-29754.7	0.000000	0.000000	7.091762	22.7928	NaN	0.000000	0.001639	0.001808	28.0816	17.8511	0.001704	10473.8	6.050465	-178.049	22.0676	1.090342	0.013181	0.012846	22.7928	10473.8	0.011549	0.010954	2080.68	91428.6
527	2.000000	1.092666	7.37021e+06	-50739.1	1005.82	-29754.7	0.000000	0.000000	7.093904	26.5223	NaN	0.000000	0.001609	0.001835	28.0821	19.7283	0.001715	11500.9	6.213502	-177.687	25.9343	1.092295	0.015170	0.014799	26.5223	11500.9	0.013440	0.013262	1999.94	91244.6
527	2.000000	1.094647	7.37021e+06	-50739.1	1005.82	-29754.7	0.000000	0.000000	7.095995	29.2008	NaN	0.000000	0.001632	0.001800	28.0818	20.8895	0.001755	11903.1	5.212117	-177.76	28.33	1.094309	0.017151	0.016813	29.2008	11903.1	0.015311	0.015703	1859.62	86785.9
527	2.000000	1.096666	7.37021e+06	-50739.1	1005.82	-29754.7	0.000000	0.000000	7.098248	34.8899	NaN	0.000000	0.001588	0.001775	28.0833	23.6777	0.001730	13685.5	8.813938	176.349	34.2211	1.096302	0.019170	0.018806	34.8899	13685.5	0.017257	0.018415	1894.69	92141.2
527	2.000000	1.098680	7.37021e+06	-50739.1	1005.82	-29754.7	0.000000	0.000000	7.100556	42.0357	NaN	0.000000	0.001621	0.001805	28.0833	25.2865	0.001694	14929.9	7.032590	179.942	42.6958	1.098316	0.021183	0.020819	42.0357	14929.9	0.019072	0.021105	1991.78	93894.7
527	2.000000	1.100630	7.37021e+06	-50739.1	1005.82	-29754.7	0.000000	0.000000	7.102604	44.4047	NaN	0.000000	0.001602	0.001776	28.083	26.8531	0.001708	15718.9	2.394678	-176.525	44.4275	1.100319	0.023134	0.022823	44.4047	15718.9	0.021015	0.024163	1837.73	92389.2
527	2.000000	1.102547	7.37021e+06	-50739.1	1005.82	-29754.7	0.000000	0.000000	7.104841	52.2038	NaN	0.000000	0.001636	0.001751	28.0838	29.6913	0.001860	15966.3	3.714798	-177.64	49.8116	1.102370	0.025051	0.024874	52.2038	15966.3	0.022599	0.026792	1948.48	89119.8
527	2.000000	1.104571	7.37021e+06	-50739.1	1005.82	-29754.7	0.000000	0.000000	7.107112	58.2104	NaN	0.000000	0.001637	0.001790	28.0831	30.7835	0.001748	17612.2	2.867064	-178.89	55.1309	1.104320	0.027075	0.026824	58.2104	17612.2	0.024596	0.030285	1922.1	92464.5
527	2.000000	1.106572	7.37021e+06	-50739.1	1005.82	-29754.7	0.000000	0.000000	7.109352	64.0087	NaN	0.000000	0.001613	0.001770	28.0831	32.7619	0.001787	18337.3	7.010490	177.588	63.5054	1.106261	0.029076	0.028765	64.0087	18337.3	0.026458	0.033722	1898.15	91233.4
527	2.000000	1.108571	7.37021e+06	-50739.1	1005.82	-29754.7	0.000000	0.000000	7.111599	70.0306	NaN	0.000000	0.001598	0.001786	28.0832	34.818	0.001801	19331.7	3.316498	-179.877	67.648	1.108305	0.031075	0.030809	70.0306	19331.7	0.028358	0.037410	1871.98	91316.9
527	2.000000	1.110603	7.37021e+06	-50739.1	1005.82	-29754.7	0.000000	0.000000	7.113932	77.3783	NaN	0.000000	0.001599	0.001804	28.0829	37.1487	0.001703	21810.4	8.032745	173.835	76.6998	1.110281	0.033107	0.032785	77.3783	21810.4	0.030446	0.041673	1856.81	97613.6
527	2.000000	1.112593	7.37021e+06	-50739.1	1005.82	-29754.7	0.000000	0.000000	7.116270	85.8418	NaN	0.000000	0.001525	0.001808	28.0842	39.1347	0.001714	22836.5	1.122818	-178.975	84.1815	1.112271	0.035097	0.034775	85.8418	22836.5	0.032277	0.045597	1882.64	97709.3
527	2.000000	1.114600	7.37021e+06	-50739.1	1005.82	-29754.7	0.000000	0.000000	7.118634	94.5069	NaN	0.000000	0.001545	0.001762	28.0831	40.2482	0.001757	22904.2	2.534035	179.761	94.3011	1.114286	0.037104	0.036790	94.5069	22904.2	0.034009	0.049464	1910.63	94090.2
527	2.000000	1.116606	7.37021e+06	-50739.1	1005.82	-29754.7	0.000000	0.000000	7.120951	102.078	NaN	0.000000	0.001576	0.001799	28.0833	43.7497	0.001908	22929.6	5.525899	176.52	102.808	1.116262	0.039110	0.038766	102.078	22929.6	0.035771	0.053556	1905.98	90524.2
527	2.000000	1.118644	7.37021e+06	-50739.1	1005.82	-29754.7	0.000000	0.000000	7.123257	108.6	NaN	0.000000	0.001605	0.001793	28.0832	45.3838	0.001791	25339.4	8.756068	172.967	111.169	1.118322	0.041148	0.040826	108.6	25339.4	0.037934	0.058797	1847.04	95475.4
527	2.000000	1.120553	7.37021e+06	-50739.1	1005.82	-29754.7	0.000000	0.000000	7.125699	121.566	NaN	0.000000	0.001531	0.001778	28.0831	46.0737	0.001774	25970.8	5.576870	175.395	119.016	1.120171	0.043057	0.042675	121.566	25970.8	0.039546	0.062860	1933.91	94639.1
527	2.000000	1.122527	7.37021e+06	-50739.1	1005.82	-29754.7	0.000000	0.000000	7.128101	131.963	NaN	0.000000	0.001555	0.001795	28.0853	49.3558	0.001814	27208.2	5.755985	174.747	128.34	1.122219	0.045031	0.044723	131.963	27208.2	0.041394	0.067680	1949.81	95553
527	2.000000	1.124571	7.37021e+06	-50739.1	1005.82	-29754.7	0.000000	0.000000	7.130509	140.807	NaN	0.000000	0.001554	0.001779	28.0833	48.8049	0.001710	28534.8	2.458468	178.777	139.22	1.124155	0.047075	0.046659	140.807	28534.8	0.043374	0.073039	1927.83	96465.2
527	2.000000	1.126500	7.37021e+06	-50739.1	1005.82	-29754.7	0.000000	0.000000	7.132763	148.706	NaN	0.000000	0.001532	0.001774	28.0832	52.1067	0.001779	29288.4	2.686529	176.497	144.775	1.126260	0.049004	0.048763	148.706	29288.4	0.045196	0.078145	1902.95	95723.4
527	2.000000	1.128596	7.37021e+06	-50739.1	1005.82	-29754.7	0.000000	0.000000	7.135370	161.145	NaN	0.000000	0.001581	0.001798	28.0832	54.2765	0.001755	30933.5	5.059944	174.942	160.352	1.128256	0.051100	0.050760	161.145	30933.5	0.047193	0.083934	1919.91	97551.5
527	2.000000	1.130532	7.37021e+06	-50739.1	1005.82	-29754.7	0.000000	0.000000	7.137764	172.283	NaN	0.000000	0.001578	0.001818	28.0819	55.9944	0.001711	32727.9	3.288931	175.009	169.268	1.130281	0.053036	0.052785	172.283	32727.9	0.049088	0.089615	1922.48	99885.3
527	2.000000	1.132599	7.37021e+06	-50739.1	1005.82	-29754.7	0.000000	0.000000	7.140145	179.921	NaN	0.000000	0.001565	0.001824	28.0823	58.6365	0.001687	34763.9	3.199035	174.64	179.514	1.132356	0.055102	0.054860	179.921	34763.9	0.051221	0.096224	1869.81	102391
527	2.000000	1.134517	7.37021e+06	-50739.1	1005.82	-29754.7	0.000000	0.000000	7.142444	189.173	NaN	0.000000	0.001555	0.001800	28.0818	59.4813	0.001716	34670.5	3.525742	174.561	186.833	1.134377	0.057021	0.056881	189.173	34670.5	0.052929	0.101681	1860.45	99337.5
527	2.000000	1.136510	7.37021e+06	-50739.1	1005.82	-29754.7	0.000000	0.000000	7.145108	205.501	NaN	0.000000	0.001539	0.001805	28.082	62.7337	0.001875	33464.4	5.759991	173.22	201.537	1.136098	0.059014	0.058602	205.501	33464.4	0.054408	0.106523	1929.16	93677.2
527	2.000000	1.138545	7.37021e+06	-50739.1	1005.82	-29754.7	0.000000	0.000000	7.147671	218.341	NaN	0.000000	0.001548	0.001791	28.0819	64.4931	0.001774	36356.2	5.746930	172.622	214.88	1.138255	0.061049	0.060759	218.341	36356.2	0.056545	0.113711	1920.14	98503.2
527	2.000000	1.140522	7.37021e+06	-50739.1	1005.82	-29754.7	0.000000	0.000000	7.150163	230.853	NaN	0.000000	0.001554	0.001784	28.0819	65.8844	0.001765	37325	8.107382	169.705	227.358	1.140157	0.063026	0.062661	230.853	37325	0.058387	0.120089	1922.35	98405.9
527	2.000000	1.142557	7.37021e+06	-50739.1	1005.82	-29754.7	0.000000	0.000000	7.152387	235.459	NaN	0.000000	0.001565	0.001780	28.0822	69.4831	0.001771	39223.4	5.305948	172.511	233.901	1.142259	0.065061	0.064763	235.459	39223.4	0.060559	0.127820	1842.12	100235
527	2.000000	1.144503	7.37021e+06	-50739.1	1005.82	-29754.7	0.000000	0.000000	7.155091	253.89	NaN	0.000000	0.001594	0.001788	28.082	69.9976	0.001853	37784.3	7.332203	171.443	249.538	1.144113	0.067007	0.066617	253.89	37784.3	0.061968	0.132958	1909.55	94673.2
527	2.000000	1.146520	7.37021e+06	-50739.1	1005.82	-29754.7	0.000000	0.000000	7.157792	270.519	NaN	0.000000	0.001620	0.001785	28.082	71.953	0.001766	40747.5	2.299397	174.803	266.548	1.146170	0.069024	0.068674	270.519	40747.5	0.064044	0.140709	1922.54	99245.9
527	2.000000	1.148632	7.37021e+06	-50739.1	1005.82	-29754.7	0.000000	0.000000	7.160460	284.052	NaN	0.000000	0.001562	0.001771	28.0819	74.4571	0.001791	41564.2	8.139914	170.351	286.165	1.148115	0.071136	0.070619	284.052	41564.2	0.066010	0.148237	1916.2	98631.2
527	2.000000	1.150532	7.37021e+06	-50739.1	1005.82	-29754.7	0.000000	0.000000	7.162893	296.997	NaN	0.000000	0.001553	0.001757	28.0818	75.7878	0.001867	40586.5	2.387340	174.705	294.848	1.150162	0.073036	0.072666	296.997	40586.5	0.067548	0.154257	1925.34	94413
527	2.000000	1.152483	7.37021e+06	-50739.1	1005.82	-29754.7	0.000000	0.000000	7.165333	308.895	NaN	0.000000	0.001569	0.001776	28.0818	77.2012	0.001837	42030.7	2.114385	174.939	306.135	1.152320	0.074987	0.074824	308.895	42030.7	0.069475	0.161957	1907.26	95420.1
527	2.000000	1.154526	7.37021e+06	-50739.1	1005.82	-29754.7	0.000000	0.000000	7.168143	327.551	NaN	0.000000	0.001638	0.001786	28.0818	79.9997	0.001803	44373.1	9.033423	167.34	328.212	1.154144	0.077030	0.076648	327.551	44373.1	0.071493	0.170215	1924.33	98263.7
527	2.000000	1.156479	7.37021e+06	-50739.1	1005.82	-29754.7	0.000000	0.000000	7.170662	341.314	NaN	0.000000	0.001635	0.001781	28.082	82.0299	0.001730	47406	5.265724	170.701	338.462	1.156261	0.078983	0.078764	341.314	47406	0.073583	0.178968	1907.12	102381
527	2.000000	1.158589	7.37021e+06	-50739.1	1005.82	-29754.7	0.000000	0.000000	7.173346	355.251	NaN	0.000000	0.001648	0.001779	28.082	84.5838	0.001874	45135.3	1.425133	175.939	354.543	1.158219	0.081093	0.080723	355.251	45135.3	0.075190	0.185840	1911.6	95657.7
527	2.000000	1.160511	7.37021e+06	-50739.1	1005.82	-29754.7	0.000000	0.000000	7.176088	375.196	NaN	0.000000	0.001645	0.001750	28.0822	87.1367	0.001998	43619.7	8.565910	168.94	374.315	1.160213	0.083015	0.082717	375.196	43619.7	0.076564	0.191810	1956.08	90995.6
527	2.000000	1.162467	7.37021e+06	-50739.1	1005.82	-29754.7	0.000000	0.000000	7.178587	388.426	NaN	0.000000	0.001615	0.001777	28.0819	88.4532	0.001642	53881.6	7.028211	168.27	385.363	1.162181	0.084971	0.084684	388.426	53881.6	0.079564	0.205156	1893.32	108686
527	2.000000	1.164512	7.37021e+06	-50739.1	1005.82	-29754.7	0.000000	0.000000	7.181364	406.208	NaN	0.000000	0.001546	0.001795	28.0832	88.5215	0.001731	51133.5	2.369706	173.596	405.726	1.164187	0.087016	0.086691	406.208	51133.5	0.081058	0.211957	1916.47	101474
527	2.000000	1.166536	7.37021e+06	-50739.1	1005.82	-29754.7	0.000000	0.000000	7.184037	422.018	NaN	0.000000	0.001586	0.001752	28.0834	92.3047	0.001786	51690.6	2.113852	173.633	421.018	1.166219	0.089040	0.088723	422.018	51690.6	0.082916	0.220562	1913.38	100559
527	2.000000	1.168500	7.37021e+06	-50739.1	1005.82	-29754.7	0.000000	0.000000	7.186654	437.869	NaN	0.000000	0.001552	0.001748	28.0834	94.3112	0.001730	54514.3	4.995759	170.296	432.661	1.168286	0.091004	0.090790	437.869	54514.3	0.084980	0.230307	1901.24	103784
527	2.000000	1.170599	7.37021e+06	-50739.1	1005.82	-29754.7	0.000000	0.000000	7.189421	454.122	NaN	0.000000	0.001580	0.001792	28.0835	96.2114	0.001698	56646.5	5.526717	169.705	459.31	1.170164	0.093103	0.092668	454.122	56646.5	0.087091	0.240476	1888.43	105538
527	2.000000	1.172580	7.37021e+06	-50739.1	1005.82	-29754.7	0.000000	0.000000	7.192099	471.083	NaN	0.000000	0.001573	0.001740	28.0833	98.7305	0.001771	55741.9	3.090944	172.72	472.884	1.172251	0.095084	0.094755	471.083	55741.9	0.088745	0.248592	1895.01	102144
527	2.000000	1.174451	7.37021e+06	-50739.1	1005.82	-29754.7	0.000000	0.000000	7.194685	488.464	NaN	0.000000	0.001602	0.001755	28.0831	100.119	0.001804	55501.6	5.067723	170.036	484.229	1.174127	0.096955	0.096631	488.464	55501.6	0.090354	0.256605	1903.57	100103
527	2.000000	1.176540	7.37021e+06	-50739.1	1005.82	-29754.7	0.000000	0.000000	7.197303	501.315	NaN	0.000000	0.001583	0.001769	28.0835	103.83	0.001873	55442.1	6.481061	168.818	499.999	1.176228	0.099044	0.098732	501.315	55442.1	0.092262	0.266260	1882.8	98165.8
527	2.000000	1.178550	7.37021e+06	-50739.1	1005.82	-29754.7	0.000000	0.000000	7.200253	524.203	NaN	0.000000	0.001596	0.001730	28.0836	104.262	0.001833	56894.2	0.683330	174.717	523.251	1.178220	0.101053	0.100724	524.203	56894.2	0.094143	0.275940	1899.7	98954
527	2.000000	1.180558	7.37021e+06	-50739.1	1005.82	-29754.7	0.000000	0.000000	7.203112	544.88	NaN	0.000000	0.001546	0.001731	28.0835	106.673	0.001786	59721.3	6.190411	168.598	548.344	1.180292	0.103061	0.102796	544.88	59721.3	0.096219	0.286810	1899.79	101884
527	2.000000	1.180967	7.37021e+06	-50739.1	1005.82	-29754.7	0.000000	0.000000	7.203744	550.316	NaN	0.000000	0.001583	0.001745	28.0839	105.256	0.001717	61313.6	0.886267	-6.153939	544.338	1.180685	0.103470	0.103189	550.316	61313.6	0.096739	0.289566	1900.49	104101