File: remote_trans/data/nanoindenter/0828-1/data/Data_2025-08-06,11h17m57s/2025-07-22_16-23-58_1_581.txt
2025-07-22, 16:23:58, 1
Index	Phase	Displacement	Time	Pos X	Pos Y	Pos Z	Rot A	Rot B	Piezo Z	Force A	Force B	Gripper	Voltage A	Voltage B	Temperature	Amplitude force	Amplitude pos	Stiffness	Phase shift	Phase excitation	Force A raw	Displacement raw	HMax	HMax raw	Real Force	Real Stiffness	Contact Depth	Area	Hardness	Reduced Mod.
[#]	[#]	[um]	[s]	[um]	[um]	[um]	[m°]	[m°]	[um]	[uN]	[uN]	[V]	[V]	[V]	[°C]	[uN]	[um]	[N/m]	[°]	[°]	[uN]	[um]	[um]	[um]	[uN]	[N/m]	[um]	[um^2]	[MPa]	[MPa]
581	1.000000	0.002254	7.37073e+06	-48039.1	1005.82	-29763.9	0.000000	0.000000	6.002805	0.037771	NaN	0.000000	0.001556	0.001788	28.0787	0.049999	0.000944	52.9841	75.8286	-162.955	0.063004	0.000997	-1.046759	-1.048016	0.037771	52.9841	-1.047294	-9.818336E+13	-3.847032E-16	NaN
581	1.000000	0.010231	7.37073e+06	-48039.1	1005.82	-29763.9	0.000000	0.000000	6.010779	-0.016390	NaN	0.000000	0.001563	0.001777	28.0787	0.106458	0.001115	95.509	-97.767	-167.278	-0.009157	0.008855	-1.038783	-1.040158	-0.016390	95.509	-1.038654	-7.513911E+13	2.181353E-16	NaN
581	1.000000	0.018194	7.37073e+06	-48039.1	1005.82	-29763.9	0.000000	0.000000	6.018741	-0.050559	NaN	0.000000	0.001557	0.001783	28.0801	0.084963	0.001840	46.183	168.931	-167.704	-0.032081	0.016876	-1.030820	-1.032138	-0.050559	46.183	-1.029999	-5.747283E+13	8.797004E-16	NaN
581	1.000000	0.026234	7.37073e+06	-48039.1	1005.82	-29763.9	0.000000	0.000000	6.026784	0.030925	NaN	0.000000	0.001535	0.001775	28.0799	0.086662	0.001705	50.8348	-150.602	-161.645	-0.018779	0.024900	-1.022780	-1.024113	0.030925	50.8348	-1.023236	-4.661101E+13	-6.634685E-16	NaN
581	1.000000	0.034220	7.37073e+06	-48039.1	1005.82	-29763.9	0.000000	0.000000	6.034769	-0.001723	NaN	0.000000	0.001552	0.001752	28.08	0.125035	0.001779	70.2694	31.2667	-163.814	0.007124	0.032900	-1.014794	-1.016113	-0.001723	70.2694	-1.014775	-3.586306E+13	4.804338E-17	NaN
581	1.000000	0.042224	7.37073e+06	-48039.1	1005.82	-29763.9	0.000000	0.000000	6.042773	0.002871	NaN	0.000000	0.001571	0.001800	28.0803	0.072980	0.002010	36.3172	-39.5371	-167.358	-0.040711	0.040870	-1.006790	-1.008144	0.002871	36.3172	-1.006849	-2.805253E+13	-1.023553E-16	NaN
581	1.000000	0.050185	7.37073e+06	-48039.1	1005.82	-29763.9	0.000000	0.000000	6.050735	0.017984	NaN	0.000000	0.001549	0.001756	28.0801	0.070394	0.002045	34.4247	145.135	-162.726	0.028471	0.048913	-0.998828	-1.000100	0.017984	34.4247	-0.999220	-2.214467E+13	-8.121016E-16	NaN
581	1.000000	0.058202	7.37073e+06	-48039.1	1005.82	-29763.9	0.000000	0.000000	6.058753	0.050779	NaN	0.000000	0.001574	0.001740	28.0803	0.068725	0.002003	34.3033	-132.523	-162.821	-0.002885	0.056861	-0.990811	-0.992153	0.050779	34.3033	-0.991922	-1.766002E+13	-2.875388E-15	NaN
581	1.000000	0.066226	7.37073e+06	-48039.1	1005.82	-29763.9	0.000000	0.000000	6.066774	-0.022939	NaN	0.000000	0.001583	0.001753	28.0799	0.139225	0.002031	68.5544	124.201	-165.712	-0.045880	0.064840	-0.982788	-0.984173	-0.022939	68.5544	-0.982537	-1.320050E+13	1.737736E-15	NaN
581	1.000000	0.074221	7.37073e+06	-48039.1	1005.82	-29763.9	0.000000	0.000000	6.074770	-0.000148	NaN	0.000000	0.001575	0.001781	28.0803	0.130858	0.002026	64.5911	-70.1497	-164.55	-0.038751	0.072938	-0.974793	-0.976076	-0.000148	64.5911	-0.974791	-1.038079E+13	1.426260E-17	NaN
581	1.000000	0.082194	7.37073e+06	-48039.1	1005.82	-29763.9	0.000000	0.000000	6.082744	0.019938	NaN	0.000000	0.001546	0.001771	28.0804	0.037491	0.002008	18.6737	173.19	-166.656	0.116621	0.080932	-0.966820	-0.968082	0.019938	18.6737	-0.967621	-8.309870E+12	-2.399363E-15	NaN
581	1.000000	0.090209	7.37073e+06	-48039.1	1005.82	-29763.9	0.000000	0.000000	6.090760	0.044782	NaN	0.000000	0.001534	0.001739	28.0803	0.123173	0.002029	60.6928	171.687	-162.615	0.024177	0.088913	-0.958805	-0.960101	0.044782	60.6928	-0.959358	-6.430046E+12	-6.964503E-15	NaN
581	1.000000	0.098205	7.37073e+06	-48039.1	1005.82	-29763.9	0.000000	0.000000	6.098754	0.008987	NaN	0.000000	0.001536	0.001766	28.0804	0.043537	0.001844	23.6037	129.529	-166.874	0.045610	0.096871	-0.950809	-0.952143	0.008987	23.6037	-0.951095	-4.974968E+12	-1.806526E-15	NaN
581	1.000000	0.106247	7.37073e+06	-48039.1	1005.82	-29763.9	0.000000	0.000000	6.106797	0.026061	NaN	0.000000	0.001588	0.001767	28.0803	0.059042	0.002084	28.3344	-125.453	-169.34	-0.000639	0.104899	-0.942767	-0.944114	0.026061	28.3344	-0.943457	-3.924401E+12	-6.640830E-15	NaN
581	1.000000	0.114223	7.37073e+06	-48039.1	1005.82	-29763.9	0.000000	0.000000	6.114771	-0.017092	NaN	0.000000	0.001606	0.001786	28.0804	0.118162	0.001942	60.8532	124.805	-164.585	-0.031227	0.112885	-0.934791	-0.936128	-0.017092	60.8532	-0.934580	-2.978584E+12	5.738437E-15	NaN
581	1.000000	0.122260	7.37073e+06	-48039.1	1005.82	-29763.9	0.000000	0.000000	6.122810	0.027766	NaN	0.000000	0.001559	0.001744	28.0801	0.053170	0.001859	28.6024	64.385	-168.603	-0.108848	0.120978	-0.926753	-0.928036	0.027766	28.6024	-0.927482	-2.388939E+12	-1.162279E-14	NaN
581	1.000000	0.130236	7.37073e+06	-48039.1	1005.82	-29763.9	0.000000	0.000000	6.130782	-0.066527	NaN	0.000000	0.001545	0.001798	28.0799	0.064555	0.002051	31.4805	-134.557	-163.788	7.424295E-5	0.128887	-0.918778	-0.920127	-0.066527	31.4805	-0.917193	-1.735021E+12	3.834381E-14	NaN
581	1.000000	0.138242	7.37073e+06	-48039.1	1005.82	-29763.9	0.000000	0.000000	6.138786	-0.098264	NaN	0.000000	0.001551	0.001761	28.0803	0.045854	0.001922	23.8609	-14.6492	-165.038	-0.082579	0.136874	-0.910772	-0.912140	-0.098264	23.8609	-0.907684	-1.290841E+12	7.612367E-14	NaN
581	1.000000	0.146257	7.37073e+06	-48039.1	1005.82	-29763.9	0.000000	0.000000	6.146806	0.008079	NaN	0.000000	0.001548	0.001770	28.08	0.098194	0.002078	47.2498	109.691	-166.547	-0.064371	0.144901	-0.902757	-0.904113	0.008079	47.2498	-0.902885	-1.111845E+12	-7.266453E-15	NaN
581	1.000000	0.154258	7.37073e+06	-48039.1	1005.82	-29763.9	0.000000	0.000000	6.154806	-0.030301	NaN	0.000000	0.001554	0.001762	28.0792	0.055890	0.002024	27.6129	-166.895	-164.098	-0.054267	0.152927	-0.894756	-0.896086	-0.030301	27.6129	-0.893933	-8.415415E+11	3.600613E-14	NaN
581	1.000000	0.162236	7.37073e+06	-48039.1	1005.82	-29763.9	0.000000	0.000000	6.162786	0.027290	NaN	0.000000	0.001610	0.001755	28.0788	0.134448	0.002128	63.1863	-153.209	-167.839	0.044989	0.160916	-0.886778	-0.888098	0.027290	63.1863	-0.887102	-6.803591E+11	-4.011171E-14	NaN
581	1.000000	0.170242	7.37073e+06	-48039.1	1005.82	-29763.9	0.000000	0.000000	6.170788	-0.052295	NaN	0.000000	0.001604	0.001789	28.0786	0.121087	0.002014	60.11	162.88	-163.488	-0.056644	0.168999	-0.878772	-0.880015	-0.052295	60.11	-0.878120	-5.143713E+11	1.016679E-13	NaN
581	1.000000	0.178246	7.37073e+06	-48039.1	1005.82	-29763.9	0.000000	0.000000	6.178795	-0.012971	NaN	0.000000	0.001586	0.001787	28.0791	0.064643	0.002192	29.4871	-18.341	-163.462	-0.071175	0.176931	-0.870768	-0.872083	-0.012971	29.4871	-0.870438	-4.049156E+11	3.203443E-14	NaN
581	1.000000	0.186253	7.37073e+06	-48039.1	1005.82	-29763.9	0.000000	0.000000	6.186799	-0.076631	NaN	0.000000	0.001602	0.001764	28.0787	0.053785	0.002150	25.0141	116.654	-165.087	-0.111497	0.184920	-0.862760	-0.864093	-0.076631	25.0141	-0.860463	-2.967451E+11	2.582380E-13	NaN
581	1.000000	0.194306	7.37073e+06	-48039.1	1005.82	-29763.9	0.000000	0.000000	6.194856	0.023386	NaN	0.000000	0.001555	0.001786	28.0792	0.033189	0.001894	17.5252	-159.496	-165.015	0.037385	0.192913	-0.854708	-0.856100	0.023386	17.5252	-0.855708	-2.558746E+11	-9.139632E-14	NaN
581	1.000000	0.202273	7.37073e+06	-48039.1	1005.82	-29763.9	0.000000	0.000000	6.202819	-0.063803	NaN	0.000000	0.001588	0.001776	28.0789	0.011584	0.001956	5.922593	93.4965	-164.033	-0.069508	0.200960	-0.846741	-0.848054	-0.063803	5.922593	-0.838661	-1.503688E+11	4.243088E-13	NaN
581	1.000000	0.210244	7.37073e+06	-48039.1	1005.82	-29763.9	0.000000	0.000000	6.210791	-0.046568	NaN	0.000000	0.001570	0.001786	28.079	0.062101	0.002050	30.2901	107.329	-164.085	-0.065984	0.208973	-0.838770	-0.840041	-0.046568	30.2901	-0.837617	-1.455479E+11	3.199515E-13	NaN
581	1.000000	0.218271	7.37073e+06	-48039.1	1005.82	-29763.9	0.000000	0.000000	6.218822	0.045495	NaN	0.000000	0.001536	0.001734	28.079	0.072783	0.002025	35.9368	137.012	-168.15	0.098739	0.216964	-0.830743	-0.832050	0.045495	35.9368	-0.831692	-1.209828E+11	-3.760472E-13	NaN
581	1.000000	0.226285	7.37073e+06	-48039.1	1005.82	-29763.9	0.000000	0.000000	6.226834	0.016203	NaN	0.000000	0.001530	0.001736	28.0789	0.039753	0.002013	19.747	30.1514	-165.676	-0.003236	0.224940	-0.822729	-0.824074	0.016203	19.747	-0.823344	-9.323038E+10	-1.737906E-13	NaN
581	1.000000	0.234293	7.37073e+06	-48039.1	1005.82	-29763.9	0.000000	0.000000	6.234842	0.019583	NaN	0.000000	0.001550	0.001760	28.0791	0.096676	0.002058	46.9784	-167.616	-167.074	0.020249	0.232913	-0.814721	-0.816100	0.019583	46.9784	-0.815034	-7.192144E+10	-2.722845E-13	NaN
581	1.000000	0.242247	7.37073e+06	-48039.1	1005.82	-29763.9	0.000000	0.000000	6.242795	-0.014322	NaN	0.000000	0.001556	0.001781	28.0788	0.138407	0.001947	71.079	-28.8033	-164.454	-0.076111	0.240990	-0.806767	-0.808024	-0.014322	71.079	-0.806616	-5.529037E+10	2.590246E-13	NaN
581	1.000000	0.250248	7.37073e+06	-48039.1	1005.82	-29763.9	0.000000	0.000000	6.250798	0.020186	NaN	0.000000	0.001524	0.001806	28.0793	0.075194	0.001935	38.869	-147.157	-163.569	0.007898	0.248986	-0.798766	-0.800028	0.020186	38.869	-0.799155	-4.379215E+10	-4.609407E-13	NaN
581	1.000000	0.258296	7.37073e+06	-48039.1	1005.82	-29763.9	0.000000	0.000000	6.258846	0.025987	NaN	0.000000	0.001532	0.001770	28.0791	0.017139	0.002139	8.014347	-174.265	-164.71	0.007940	0.256980	-0.790717	-0.792034	0.025987	8.014347	-0.793149	-3.629545E+10	-7.159848E-13	NaN
581	1.000000	0.266270	7.37073e+06	-48039.1	1005.82	-29763.9	0.000000	0.000000	6.266817	-0.031727	NaN	0.000000	0.001545	0.001759	28.079	0.114289	0.001996	57.2464	-102.342	-163.916	0.060339	0.264958	-0.782744	-0.784055	-0.031727	57.2464	-0.782328	-2.587429E+10	1.226185E-12	NaN
581	1.000000	0.274283	7.37073e+06	-48039.1	1005.82	-29763.9	0.000000	0.000000	6.274830	-0.045007	NaN	0.000000	0.001582	0.001775	28.0789	0.019380	0.001780	10.8879	-131.991	-162.754	0.043662	0.272974	-0.774731	-0.776040	-0.045007	10.8879	-0.771631	-1.851304E+10	2.431108E-12	NaN
581	1.000000	0.282294	7.37073e+06	-48039.1	1005.82	-29763.9	0.000000	0.000000	6.282844	0.037941	NaN	0.000000	0.001568	0.001772	28.0788	0.123367	0.002009	61.3968	-77.7736	-163.984	-0.004188	0.281050	-0.766720	-0.767963	0.037941	61.3968	-0.767183	-1.610667E+10	-2.355623E-12	NaN
581	1.000000	0.290330	7.37073e+06	-48039.1	1005.82	-29763.9	0.000000	0.000000	6.290878	-0.016026	NaN	0.000000	0.001570	0.001770	28.0803	0.033303	0.002024	16.4536	4.486093	-162.936	0.033891	0.288991	-0.758684	-0.760023	-0.016026	16.4536	-0.757954	-1.206313E+10	1.328530E-12	NaN
581	1.000000	0.298303	7.37073e+06	-48039.1	1005.82	-29763.9	0.000000	0.000000	6.298852	0.015899	NaN	0.000000	0.001571	0.001773	28.0801	0.007700	0.002092	3.679879	-46.2256	-164.913	0.026853	0.297026	-0.750711	-0.751987	0.015899	3.679879	-0.753951	-1.064145E+10	-1.494072E-12	NaN
581	1.000000	0.306322	7.37073e+06	-48039.1	1005.82	-29763.9	0.000000	0.000000	6.306870	-0.014372	NaN	0.000000	0.001582	0.001791	28.0801	0.110765	0.001977	56.0355	-120.727	-163.779	-0.046235	0.304965	-0.742692	-0.744049	-0.014372	56.0355	-0.742499	-7.431803E+9	1.933828E-12	NaN
581	1.000000	0.314327	7.37073e+06	-48039.1	1005.82	-29763.9	0.000000	0.000000	6.314874	-0.039563	NaN	0.000000	0.001585	0.001819	28.08	0.015580	0.002016	7.729763	141.025	-165.037	0.000486	0.312965	-0.734687	-0.736049	-0.039563	7.729763	-0.730848	-5.156655E+9	7.672318E-12	NaN
581	1.000000	0.322309	7.37073e+06	-48039.1	1005.82	-29763.9	0.000000	0.000000	6.322856	-0.058114	NaN	0.000000	0.001576	0.001785	28.0805	0.032056	0.002019	15.8741	130.495	-164.662	-0.000725	0.321009	-0.726705	-0.728004	-0.058114	15.8741	-0.723959	-4.153907E+9	1.399017E-11	NaN
581	1.000000	0.330311	7.37073e+06	-48039.1	1005.82	-29763.9	0.000000	0.000000	6.330861	0.034700	NaN	0.000000	0.001574	0.001811	28.0802	0.120674	0.002072	58.241	75.5461	-166.856	0.106367	0.329005	-0.718703	-0.720009	0.034700	58.241	-0.719150	-3.571733E+9	-9.715158E-12	NaN
581	1.000000	0.338310	7.37073e+06	-48039.1	1005.82	-29763.9	0.000000	0.000000	6.338859	0.010410	NaN	0.000000	0.001550	0.001824	28.0802	0.108235	0.001919	56.4054	-162.111	-163.884	0.039720	0.337045	-0.710704	-0.711968	0.010410	56.4054	-0.710842	-2.751348E+9	-3.783602E-12	NaN
581	1.000000	0.346337	7.37073e+06	-48039.1	1005.82	-29763.9	0.000000	0.000000	6.346885	-0.034051	NaN	0.000000	0.001541	0.001781	28.0806	0.068658	0.001904	36.0598	-92.4944	-164.017	-0.041071	0.345030	-0.702676	-0.703984	-0.034051	36.0598	-0.701968	-2.081649E+9	1.635774E-11	NaN
581	1.000000	0.354327	7.37073e+06	-48039.1	1005.82	-29763.9	0.000000	0.000000	6.354874	-0.063166	NaN	0.000000	0.001594	0.001807	28.0802	0.078233	0.002094	37.3538	-15.8635	-163.863	-0.008647	0.353027	-0.694686	-0.695987	-0.063166	37.3538	-0.693418	-1.590833E+9	3.970648E-11	NaN
581	1.000000	0.362344	7.37073e+06	-48039.1	1005.82	-29763.9	0.000000	0.000000	6.362893	-0.001689	NaN	0.000000	0.001596	0.001819	28.0803	0.059748	0.001962	30.4493	-16.655	-165.024	0.029998	0.361039	-0.686670	-0.687975	-0.001689	30.4493	-0.686628	-1.284796E+9	1.314360E-12	NaN
581	1.000000	0.370343	7.37073e+06	-48039.1	1005.82	-29763.9	0.000000	0.000000	6.370888	-0.089996	NaN	0.000000	0.001576	0.001776	28.0801	0.070933	0.001981	35.8145	18.5269	-165.954	-0.083966	0.369005	-0.678671	-0.680008	-0.089996	35.8145	-0.676786	-9.424169E+8	9.549461E-11	NaN
581	1.000000	0.378287	7.37073e+06	-48039.1	1005.82	-29763.9	0.000000	0.000000	6.378833	-0.066633	NaN	0.000000	0.001619	0.001797	28.0802	0.071070	0.002022	35.1419	-8.394206	-161.879	-0.036194	0.376987	-0.670727	-0.672027	-0.066633	35.1419	-0.669305	-7.445184E+8	8.949788E-11	NaN
581	1.000000	0.386352	7.37073e+06	-48039.1	1005.82	-29763.9	0.000000	0.000000	6.386899	-0.060361	NaN	0.000000	0.001590	0.001778	28.0803	0.047641	0.001988	23.9611	140.875	-165.093	-0.058135	0.385019	-0.662662	-0.663994	-0.060361	23.9611	-0.660772	-5.689148E+8	1.060977E-10	NaN
581	1.000000	0.394310	7.37073e+06	-48039.1	1005.82	-29763.9	0.000000	0.000000	6.394861	0.045917	NaN	0.000000	0.001583	0.001753	28.0802	0.073758	0.001958	37.6704	19.9979	-162.503	0.037897	0.393072	-0.654704	-0.655941	0.045917	37.6704	-0.655618	-4.835403E+8	-9.496035E-11	NaN
581	1.000000	0.402343	7.37073e+06	-48039.1	1005.82	-29763.9	0.000000	0.000000	6.402895	0.070512	NaN	0.000000	0.001586	0.001788	28.0803	0.038332	0.002062	18.5861	-108.851	-163.293	0.032456	0.401038	-0.646671	-0.647976	0.070512	18.5861	-0.649516	-3.988472E+8	-1.767885E-10	NaN
581	1.000000	0.410337	7.37073e+06	-48039.1	1005.82	-29763.9	0.000000	0.000000	6.410887	0.015402	NaN	0.000000	0.001587	0.001771	28.08	0.059033	0.001914	30.8446	123.413	-164.252	0.055930	0.409070	-0.638676	-0.639944	0.015402	30.8446	-0.639051	-2.865942E+8	-5.374126E-11	NaN
581	1.000000	0.418377	7.37073e+06	-48039.1	1005.82	-29763.9	0.000000	0.000000	6.418925	-0.012451	NaN	0.000000	0.001571	0.001776	28.08	0.048471	0.002099	23.0901	-132.78	-160.656	-0.106549	0.416996	-0.630637	-0.632018	-0.012451	23.0901	-0.630233	-2.168789E+8	5.741151E-11	NaN
581	1.000000	0.426343	7.37073e+06	-48039.1	1005.82	-29763.9	0.000000	0.000000	6.426891	-0.011864	NaN	0.000000	0.001580	0.001765	28.0788	0.057179	0.001885	30.3351	134.701	-162.056	0.001887	0.425085	-0.622671	-0.623929	-0.011864	30.3351	-0.622378	-1.691665E+8	7.013338E-11	NaN
581	1.000000	0.434358	7.37073e+06	-48039.1	1005.82	-29763.9	0.000000	0.000000	6.434904	-0.061045	NaN	0.000000	0.001574	0.001755	28.0786	0.054510	0.001948	27.9882	-154.005	-165.379	-0.007446	0.433034	-0.614656	-0.615980	-0.061045	27.9882	-0.613020	-1.257939E+8	4.852739E-10	NaN
581	1.000000	0.442356	7.37073e+06	-48039.1	1005.82	-29763.9	0.000000	0.000000	6.442907	0.031087	NaN	0.000000	0.001557	0.001789	28.0791	0.153344	0.002028	75.5957	-141.477	-165.681	0.072668	0.441066	-0.606657	-0.607948	0.031087	75.5957	-0.606966	-1.038392E+8	-2.993782E-10	NaN
581	1.000000	0.450353	7.37073e+06	-48039.1	1005.82	-29763.9	0.000000	0.000000	6.450900	-0.051264	NaN	0.000000	0.001539	0.001742	28.0788	0.036052	0.002051	17.575	128.795	-164.638	-0.110247	0.448987	-0.598661	-0.600027	-0.051264	17.575	-0.596473	-7.445274E+7	6.885487E-10	NaN
581	1.000000	0.458396	7.37073e+06	-48039.1	1005.82	-29763.9	0.000000	0.000000	6.458944	-0.027445	NaN	0.000000	0.001556	0.001734	28.0789	0.056976	0.002009	28.3656	161.227	-164.817	-0.078629	0.457095	-0.590618	-0.591919	-0.027445	28.3656	-0.589892	-6.042005E+7	4.542364E-10	NaN
581	1.000000	0.466360	7.37073e+06	-48039.1	1005.82	-29763.9	0.000000	0.000000	6.466906	-0.081085	NaN	0.000000	0.001523	0.001753	28.0789	0.025296	0.001960	12.9067	-74.3202	-165.806	-0.041295	0.465074	-0.582653	-0.583940	-0.081085	12.9067	-0.577942	-4.133447E+7	1.961671E-9	NaN
581	1.000000	0.474340	7.37073e+06	-48039.1	1005.82	-29763.9	0.000000	0.000000	6.474887	-0.062396	NaN	0.000000	0.001553	0.001769	28.0788	0.063854	0.002017	31.6515	86.3375	-163.391	-0.025377	0.473085	-0.574674	-0.575928	-0.062396	31.6515	-0.573195	-3.554436E+7	1.755427E-9	NaN
581	1.000000	0.482362	7.37073e+06	-48039.1	1005.82	-29763.9	0.000000	0.000000	6.482912	0.031068	NaN	0.000000	0.001571	0.001741	28.079	0.082697	0.001963	42.1256	-12.0255	-164.242	-0.057427	0.481045	-0.566652	-0.567969	0.031068	42.1256	-0.567205	-2.937714E+7	-1.057570E-9	NaN
581	1.000000	0.490382	7.37073e+06	-48039.1	1005.82	-29763.9	0.000000	0.000000	6.490930	-0.039064	NaN	0.000000	0.001562	0.001736	28.0789	0.065109	0.002068	31.4773	171.635	-165.073	-0.050316	0.489051	-0.558631	-0.559963	-0.039064	31.4773	-0.557701	-2.170524E+7	1.799740E-9	NaN
581	1.000000	0.498383	7.37073e+06	-48039.1	1005.82	-29763.9	0.000000	0.000000	6.498933	0.019978	NaN	0.000000	0.001563	0.001751	28.0792	0.103678	0.002014	51.4754	134.883	-164.424	0.004127	0.497085	-0.550630	-0.551928	0.019978	51.4754	-0.550922	-1.748717E+7	-1.142445E-9	NaN
581	1.000000	0.506385	7.37073e+06	-48039.1	1005.82	-29763.9	0.000000	0.000000	6.506932	-0.027297	NaN	0.000000	0.001650	0.001750	28.079	0.086100	0.002043	42.1356	-68.6688	-163.462	-0.058049	0.505122	-0.542629	-0.543892	-0.027297	42.1356	-0.542143	-1.321530E+7	2.065565E-9	NaN
581	1.000000	0.514406	7.37073e+06	-48039.1	1005.82	-29763.9	0.000000	0.000000	6.514956	0.029765	NaN	0.000000	0.001614	0.001759	28.0787	0.047852	0.002078	23.0279	-156.723	-162.609	0.103651	0.513122	-0.534607	-0.535892	0.029765	23.0279	-0.535577	-1.071510E+7	-2.777880E-9	NaN
581	1.000000	0.522395	7.37073e+06	-48039.1	1005.82	-29763.9	0.000000	0.000000	6.522943	-0.030723	NaN	0.000000	0.001626	0.001749	28.0787	0.106339	0.002005	53.0344	59.5218	-162.662	-0.029269	0.521098	-0.526618	-0.527916	-0.030723	53.0344	-0.526184	-7.9353e+06	3.871643E-9	NaN
581	1.000000	0.530383	7.37073e+06	-48039.1	1005.82	-29763.9	0.000000	0.000000	6.530931	-0.022863	NaN	0.000000	0.001612	0.001770	28.0788	0.121380	0.002036	59.6055	-128.143	-162.501	-0.087142	0.529123	-0.518630	-0.519891	-0.022863	59.6055	-0.518343	-6.17368e+06	3.703276E-9	NaN
581	1.000000	0.538396	7.37073e+06	-48039.1	1005.82	-29763.9	0.000000	0.000000	6.538943	-0.041530	NaN	0.000000	0.001592	0.001769	28.0789	0.126827	0.001962	64.6286	-67.2073	-165.332	0.017928	0.537073	-0.510618	-0.511941	-0.041530	64.6286	-0.510136	-4.74579e+06	8.750988E-9	NaN
581	1.000000	0.546425	7.37073e+06	-48039.1	1005.82	-29763.9	0.000000	0.000000	6.546973	-0.019010	NaN	0.000000	0.001613	0.001733	28.0789	0.091560	0.001956	46.8032	-16.5615	-161.898	0.010188	0.545089	-0.502589	-0.503924	-0.019010	46.8032	-0.502284	-3.68872e+06	5.153455E-9	NaN
581	1.000000	0.554399	7.37073e+06	-48039.1	1005.82	-29763.9	0.000000	0.000000	6.554949	0.012688	NaN	0.000000	0.001648	0.001740	28.0793	0.037225	0.002052	18.1371	161.616	-167.361	0.066758	0.553108	-0.494614	-0.495906	0.012688	18.1371	-0.495139	-2.93209e+06	-4.327216E-9	NaN
581	1.000000	0.562411	7.37073e+06	-48039.1	1005.82	-29763.9	0.000000	0.000000	6.562956	-0.080036	NaN	0.000000	0.001677	0.001805	28.0802	0.028801	0.001912	15.065	156.506	-168.045	-0.013475	0.561084	-0.486603	-0.487930	-0.080036	15.065	-0.482619	-1.95964e+06	4.084200E-8	NaN
581	1.000000	0.570420	7.37073e+06	-48039.1	1005.82	-29763.9	0.000000	0.000000	6.570968	-0.016701	NaN	0.000000	0.001656	0.001745	28.08	0.099216	0.001987	49.9405	-95.5815	-166.826	-0.043547	0.569129	-0.478594	-0.479885	-0.016701	49.9405	-0.478343	-1.70739e+06	9.781581E-9	NaN
581	1.000000	0.578427	7.37073e+06	-48039.1	1005.82	-29763.9	0.000000	0.000000	6.578974	-0.033284	NaN	0.000000	0.001642	0.001755	28.08	0.074661	0.002130	35.0507	157.564	-164.546	0.099014	0.577136	-0.470587	-0.471878	-0.033284	35.0507	-0.469875	-1.29913e+06	2.562026E-8	NaN
581	1.000000	0.586423	7.37073e+06	-48039.1	1005.82	-29763.9	0.000000	0.000000	6.586972	-0.004080	NaN	0.000000	0.001612	0.001718	28.0801	0.041919	0.001962	21.3645	-137.356	-163.7	-0.063684	0.585080	-0.462590	-0.463934	-0.004080	21.3645	-0.462447	-1.02188e+06	3.992969E-9	NaN
581	1.000000	0.594396	7.37073e+06	-48039.1	1005.82	-29763.9	0.000000	0.000000	6.594944	-0.020678	NaN	0.000000	0.001662	0.001758	28.0803	0.030655	0.001983	15.461	146.271	-164.69	-0.072427	0.593107	-0.454618	-0.455907	-0.020678	15.461	-0.453615	-767759	2.693313E-8	NaN
581	1.000000	0.602403	7.37073e+06	-48039.1	1005.82	-29763.9	0.000000	0.000000	6.602949	-0.070584	NaN	0.000000	0.001686	0.001763	28.0798	0.013583	0.002019	6.728859	134.318	-165.158	-0.101170	0.601101	-0.446611	-0.447912	-0.070584	6.728859	-0.438744	-473838	1.489620E-7	NaN
581	1.000000	0.610442	7.37073e+06	-48039.1	1005.82	-29763.9	0.000000	0.000000	6.610994	0.073452	NaN	0.000000	0.001659	0.001788	28.0803	0.027366	0.001945	14.0729	172.435	-170.397	0.023945	0.609108	-0.438572	-0.439906	0.073452	14.0729	-0.442486	-535109	-1.372656E-7	NaN
581	1.000000	0.618420	7.37073e+06	-48039.1	1005.82	-29763.9	0.000000	0.000000	6.618968	-0.021659	NaN	0.000000	0.001648	0.001769	28.08	0.044587	0.001992	22.3806	-151.006	-164.126	-0.002948	0.617166	-0.430594	-0.431847	-0.021659	22.3806	-0.429868	-354970	6.101667E-8	NaN
581	1.000000	0.626431	7.37073e+06	-48039.1	1005.82	-29763.9	0.000000	0.000000	6.626978	-0.044539	NaN	0.000000	0.001586	0.001769	28.0802	0.088605	0.002028	43.6919	-118.733	-167.044	-0.052253	0.625184	-0.422582	-0.423829	-0.044539	43.6919	-0.421818	-273018	1.631360E-7	NaN
581	1.000000	0.634441	7.37073e+06	-48039.1	1005.82	-29763.9	0.000000	0.000000	6.634989	-0.027267	NaN	0.000000	0.001574	0.001758	28.0803	0.046484	0.002085	22.2895	167.762	-162.289	0.001113	0.633195	-0.414573	-0.415819	-0.027267	22.2895	-0.413655	-209099	1.304046E-7	NaN
581	1.000000	0.642445	7.37073e+06	-48039.1	1005.82	-29763.9	0.000000	0.000000	6.642991	-0.070450	NaN	0.000000	0.001598	0.001776	28.0802	0.060639	0.001916	31.6503	-67.9437	-164.336	0.009537	0.641136	-0.406569	-0.407878	-0.070450	31.6503	-0.404899	-156969	4.488135E-7	NaN
581	1.000000	0.650436	7.37073e+06	-48039.1	1005.82	-29763.9	0.000000	0.000000	6.650984	-0.011566	NaN	0.000000	0.001533	0.001761	28.0805	0.032128	0.001874	17.1423	32.2033	-163.063	-0.104228	0.649134	-0.398578	-0.399880	-0.011566	17.1423	-0.398072	-125456	9.219073E-8	NaN
581	1.000000	0.658466	7.37073e+06	-48039.1	1005.82	-29763.9	0.000000	0.000000	6.659013	-0.054069	NaN	0.000000	0.001550	0.001728	28.0802	0.079026	0.002003	39.4592	91.6258	-165.624	-0.099844	0.657168	-0.390548	-0.391846	-0.054069	39.4592	-0.389520	-94689.6	5.710171E-7	NaN
581	1.000000	0.666474	7.37073e+06	-48039.1	1005.82	-29763.9	0.000000	0.000000	6.667023	0.008399	NaN	0.000000	0.001556	0.001718	28.0803	0.061894	0.002009	30.8099	-176.799	-163.523	0.034273	0.665125	-0.382540	-0.383889	0.008399	30.8099	-0.382744	-75727.4	-1.109082E-7	NaN
581	1.000000	0.674468	7.37073e+06	-48039.1	1005.82	-29763.9	0.000000	0.000000	6.675014	-0.073745	NaN	0.000000	0.001551	0.001791	28.0802	0.073733	0.002015	36.5984	-108.792	-167.987	-0.082154	0.673208	-0.374546	-0.375806	-0.073745	36.5984	-0.373035	-54930.1	1.342517E-6	NaN
581	1.000000	0.682484	7.37073e+06	-48039.1	1005.82	-29763.9	0.000000	0.000000	6.683032	-0.035130	NaN	0.000000	0.001553	0.001746	28.0802	0.047946	0.001969	24.3563	168.563	-166.001	-0.079465	0.681203	-0.366530	-0.367811	-0.035130	24.3563	-0.365448	-42708.6	8.225590E-7	NaN
581	1.000000	0.690495	7.37073e+06	-48039.1	1005.82	-29763.9	0.000000	0.000000	6.691042	-0.066818	NaN	0.000000	0.001532	0.001756	28.0807	0.064418	0.001914	33.6565	124.046	-167.218	-0.030314	0.689152	-0.358518	-0.359861	-0.066818	33.6565	-0.357029	-32275.9	2.070208E-6	NaN
581	1.000000	0.698465	7.37073e+06	-48039.1	1005.82	-29763.9	0.000000	0.000000	6.699015	0.014608	NaN	0.000000	0.001514	0.001772	28.0787	0.069998	0.002044	34.2401	-39.3001	-165.356	-0.091606	0.697177	-0.350549	-0.351837	0.014608	34.2401	-0.350869	-26279	-5.558827E-7	NaN
581	1.000000	0.706466	7.37073e+06	-48039.1	1005.82	-29763.9	0.000000	0.000000	6.707017	0.044158	NaN	0.000000	0.001524	0.001785	28.0789	0.090995	0.002137	42.582	35.1766	-167.271	-0.082709	0.705180	-0.342547	-0.343834	0.044158	42.582	-0.343325	-20416.8	-2.162838E-6	NaN
581	1.000000	0.714477	7.37073e+06	-48039.1	1005.82	-29763.9	0.000000	0.000000	6.715025	-0.013128	NaN	0.000000	0.001498	0.001769	28.079	0.082755	0.001998	41.4252	-170.67	-164.798	-0.000554	0.713154	-0.334537	-0.335860	-0.013128	41.4252	-0.334299	-15078.2	8.706525E-7	NaN
581	1.000000	0.722471	7.37073e+06	-48039.1	1005.82	-29763.9	0.000000	0.000000	6.723019	-0.011131	NaN	0.000000	0.001498	0.001736	28.0789	0.057417	0.002119	27.1005	-143.863	-163.339	-0.002590	0.721175	-0.326543	-0.327839	-0.011131	27.1005	-0.326235	-11488.5	9.688815E-7	NaN
581	1.000000	0.730481	7.37073e+06	-48039.1	1005.82	-29763.9	0.000000	0.000000	6.731031	0.033110	NaN	0.000000	0.001508	0.001741	28.0792	0.116830	0.001888	61.8878	-113.165	-165.089	-0.026043	0.729164	-0.318533	-0.319850	0.033110	61.8878	-0.318934	-8973.26	-3.689851E-6	NaN
581	1.000000	0.738505	7.37073e+06	-48039.1	1005.82	-29763.9	0.000000	0.000000	6.739052	-0.040096	NaN	0.000000	0.001533	0.001758	28.0791	0.106364	0.001976	53.8305	100.355	-166.955	-0.014100	0.737162	-0.310509	-0.311851	-0.040096	53.8305	-0.309950	-6611.79	6.064298E-6	NaN
581	1.000000	0.746518	7.37073e+06	-48039.1	1005.82	-29763.9	0.000000	0.000000	6.747066	-0.043284	NaN	0.000000	0.001570	0.001787	28.0795	0.082337	0.002008	41.0069	131.942	-165.083	-0.031792	0.745162	-0.302495	-0.303851	-0.043284	41.0069	-0.301704	-4988.66	8.676543E-6	NaN
581	1.000000	0.754483	7.37073e+06	-48039.1	1005.82	-29763.9	0.000000	0.000000	6.755030	-0.046631	NaN	0.000000	0.001543	0.001783	28.0792	0.053009	0.002003	26.4636	40.0441	-162.867	-0.082113	0.753167	-0.294531	-0.295847	-0.046631	26.4636	-0.293209	-3726.75	1.251266E-5	NaN
581	1.000000	0.762513	7.37073e+06	-48039.1	1005.82	-29763.9	0.000000	0.000000	6.763059	-0.063979	NaN	0.000000	0.001538	0.001760	28.0789	0.156436	0.002010	77.8448	-4.011568	-166.662	-0.058966	0.761171	-0.286501	-0.287842	-0.063979	77.8448	-0.285884	-2894.39	2.210440E-5	NaN
581	1.000000	0.770528	7.37073e+06	-48039.1	1005.82	-29763.9	0.000000	0.000000	6.771077	0.010731	NaN	0.000000	0.001554	0.001761	28.0789	0.070719	0.001965	35.9958	-95.8044	-164.477	-0.055557	0.769205	-0.278486	-0.279809	0.010731	35.9958	-0.278709	-2256.79	-4.754949E-6	NaN
581	1.000000	0.778497	7.37073e+06	-48039.1	1005.82	-29763.9	0.000000	0.000000	6.779045	-0.012083	NaN	0.000000	0.001555	0.001741	28.079	0.048595	0.002022	24.0318	107.149	-167.248	-0.022799	0.777191	-0.270517	-0.271823	-0.012083	24.0318	-0.270140	-1673.68	7.219696E-6	NaN
581	1.000000	0.786485	7.37073e+06	-48039.1	1005.82	-29763.9	0.000000	0.000000	6.787034	-0.013277	NaN	0.000000	0.001569	0.001748	28.0792	0.026246	0.002007	13.0785	158.84	-162.792	-0.000340	0.785203	-0.262528	-0.263811	-0.013277	13.0785	-0.261767	-1247.33	1.064424E-5	NaN
581	1.000000	0.794539	7.37073e+06	-48039.1	1005.82	-29763.9	0.000000	0.000000	6.795089	0.022487	NaN	0.000000	0.001559	0.001731	28.0791	0.021851	0.002047	10.6762	-149.368	-164.843	-0.023865	0.793235	-0.254475	-0.255779	0.022487	10.6762	-0.256055	-1019.4	-2.205918E-5	NaN
581	1.000000	0.802505	7.37073e+06	-48039.1	1005.82	-29763.9	0.000000	0.000000	6.803054	-0.011879	NaN	0.000000	0.001547	0.001742	28.0791	0.048623	0.002019	24.0822	99.5728	-165.204	0.068711	0.801236	-0.246509	-0.247778	-0.011879	24.0822	-0.246139	-716.368	1.658203E-5	NaN
581	1.000000	0.810517	7.37073e+06	-48039.1	1005.82	-29763.9	0.000000	0.000000	6.811067	0.025679	NaN	0.000000	0.001599	0.001753	28.0786	0.044489	0.002068	21.5094	21.1199	-167.031	0.060760	0.809179	-0.238497	-0.239834	0.025679	21.5094	-0.239392	-562.414	-4.565935E-5	NaN
581	1.000000	0.818506	7.37073e+06	-48039.1	1005.82	-29763.9	0.000000	0.000000	6.819054	-0.004841	NaN	0.000000	0.001587	0.001788	28.0789	0.099970	0.001906	52.4375	-163.008	-164.04	0.091017	0.817236	-0.230508	-0.231778	-0.004841	52.4375	-0.230439	-406.86	1.189854E-5	NaN
581	1.000000	0.826541	7.37073e+06	-48039.1	1005.82	-29763.9	0.000000	0.000000	6.827089	-0.018937	NaN	0.000000	0.001557	0.001776	28.0792	0.103773	0.002213	46.9027	178.587	-165.444	-0.019382	0.825233	-0.222473	-0.223780	-0.018937	46.9027	-0.222170	-300.823	6.295019E-5	NaN
581	1.000000	0.834542	7.37073e+06	-48039.1	1005.82	-29763.9	0.000000	0.000000	6.835091	0.014224	NaN	0.000000	0.001569	0.001736	28.0803	0.049478	0.002144	23.073	171.686	-165.136	-0.055300	0.833226	-0.214472	-0.215787	0.014224	23.073	-0.214934	-230.387	-6.174051E-5	NaN
581	1.000000	0.842537	7.37073e+06	-48039.1	1005.82	-29763.9	0.000000	0.000000	6.843087	0.028305	NaN	0.000000	0.001542	0.001752	28.0802	0.088427	0.001960	45.1059	133.402	-166.276	0.043042	0.841185	-0.206477	-0.207829	0.028305	45.1059	-0.206947	-171.111	-0.000165	NaN
581	1.000000	0.850510	7.37074e+06	-48039.1	1005.82	-29763.9	0.000000	0.000000	6.851058	-0.022174	NaN	0.000000	0.001561	0.001772	28.0799	0.045900	0.001947	23.5742	-66.1955	-166.531	0.000708	0.849240	-0.198504	-0.199774	-0.022174	23.5742	-0.197799	-121.188	0.000183	NaN
581	1.000000	0.858538	7.37074e+06	-48039.1	1005.82	-29763.9	0.000000	0.000000	6.859085	-0.045882	NaN	0.000000	0.001556	0.001738	28.0802	0.154910	0.002052	75.4836	-126.889	-163.25	-0.076491	0.857214	-0.190476	-0.191800	-0.045882	75.4836	-0.190020	-90.0259	0.000510	NaN
581	1.000000	0.866538	7.37074e+06	-48039.1	1005.82	-29763.9	0.000000	0.000000	6.867086	-0.018501	NaN	0.000000	0.001635	0.001753	28.0799	0.130171	0.002001	65.044	-151.549	-161.365	0.012538	0.865266	-0.182476	-0.183748	-0.018501	65.044	-0.182262	-66.661	0.000278	NaN
581	1.000000	0.874535	7.37074e+06	-48039.1	1005.82	-29763.9	0.000000	0.000000	6.875083	-0.028764	NaN	0.000000	0.001637	0.001805	28.0796	0.057802	0.001922	30.0809	-96.922	-162.37	-0.058085	0.873240	-0.174478	-0.175774	-0.028764	30.0809	-0.173761	-47.7164	0.000603	NaN
581	1.000000	0.882560	7.37074e+06	-48039.1	1005.82	-29763.9	0.000000	0.000000	6.883108	-0.018813	NaN	0.000000	0.001594	0.001765	28.0803	0.151185	0.001997	75.7014	37.0633	-165.397	-0.035673	0.881226	-0.166454	-0.167787	-0.018813	75.7014	-0.166268	-35.3617	0.000532	NaN
581	1.000000	0.890554	7.37074e+06	-48039.1	1005.82	-29763.9	0.000000	0.000000	6.891104	0.027204	NaN	0.000000	0.001558	0.001799	28.0799	0.043724	0.002023	21.6159	88.1254	-166.964	0.072848	0.889273	-0.158460	-0.159740	0.027204	21.6159	-0.159404	-26.7539	-0.001017	NaN
581	1.000000	0.898578	7.37074e+06	-48039.1	1005.82	-29763.9	0.000000	0.000000	6.899126	-0.018477	NaN	0.000000	0.001576	0.001744	28.0802	0.029455	0.001920	15.3383	166.825	-163.161	-0.014968	0.897229	-0.150436	-0.151785	-0.018477	15.3383	-0.149532	-17.7611	0.001040	NaN
581	1.000000	0.906534	7.37074e+06	-48039.1	1005.82	-29763.9	0.000000	0.000000	6.907080	-0.067833	NaN	0.000000	0.001565	0.001743	28.0798	0.037584	0.002082	18.0485	142.742	-162.28	-0.060906	0.905277	-0.142480	-0.143736	-0.067833	18.0485	-0.139661	-11.6574	0.005819	NaN
581	1.000000	0.914538	7.37074e+06	-48039.1	1005.82	-29763.9	0.000000	0.000000	6.915085	-0.023369	NaN	0.000000	0.001571	0.001764	28.08	0.187848	0.002138	87.8522	160.839	-167.157	-0.039265	0.913248	-0.134476	-0.135766	-0.023369	87.8522	-0.134277	-9.214367	0.002536	NaN
581	1.000000	0.922552	7.37074e+06	-48039.1	1005.82	-29763.9	0.000000	0.000000	6.923100	-0.038274	NaN	0.000000	0.001575	0.001774	28.0802	0.028586	0.001948	14.6779	-41.9246	-161.875	0.037332	0.921236	-0.126462	-0.127778	-0.038274	14.6779	-0.124506	-5.945756	0.006437	NaN
581	1.000000	0.930542	7.37074e+06	-48039.1	1005.82	-29763.9	0.000000	0.000000	6.931092	0.040484	NaN	0.000000	0.001580	0.001767	28.08	0.111391	0.002036	54.7021	73.7593	-162.309	-0.000550	0.929245	-0.118472	-0.119769	0.040484	54.7021	-0.119027	-4.617547	-0.008768	NaN
581	1.000000	0.938566	7.37074e+06	-48039.1	1005.82	-29763.9	0.000000	0.000000	6.939115	-0.016314	NaN	0.000000	0.001557	0.001790	28.0802	0.022849	0.002209	10.3424	-20.0858	-165.321	-0.066907	0.937241	-0.110447	-0.111773	-0.016314	10.3424	-0.109264	-2.899581	0.005626	NaN
581	1.000000	0.946555	7.37074e+06	-48039.1	1005.82	-29763.9	0.000000	0.000000	6.947103	-0.006887	NaN	0.000000	0.001604	0.001769	28.0801	0.049287	0.002016	24.4524	-152.738	-165.289	0.053512	0.945277	-0.102459	-0.103737	-0.006887	24.4524	-0.102248	-2.047901	0.003363	NaN
581	1.000000	0.954573	7.37074e+06	-48039.1	1005.82	-29763.9	0.000000	0.000000	6.955122	0.002166	NaN	0.000000	0.001552	0.001777	28.0802	0.049867	0.001879	26.5401	-16.9482	-162.596	-0.023201	0.953234	-0.094441	-0.095780	0.002166	26.5401	-0.094502	-1.374188	-0.001577	NaN
581	1.000000	0.962581	7.37074e+06	-48039.1	1005.82	-29763.9	0.000000	0.000000	6.963130	0.015414	NaN	0.000000	0.001640	0.001776	28.0799	0.053719	0.002111	25.4514	-74.7541	-164.361	-0.059657	0.961317	-0.086433	-0.087697	0.015414	25.4514	-0.086887	-0.912194	-0.016897	NaN
581	1.000000	0.970573	7.37074e+06	-48039.1	1005.82	-29763.9	0.000000	0.000000	6.971120	-0.057421	NaN	0.000000	0.001609	0.001786	28.0787	0.071432	0.002103	33.9586	116.735	-165.581	-0.077635	0.969250	-0.078440	-0.079763	-0.057421	33.9586	-0.077172	-0.525166	0.109339	NaN
581	1.000000	0.978586	7.37074e+06	-48039.1	1005.82	-29763.9	0.000000	0.000000	6.979132	-0.062460	NaN	0.000000	0.001641	0.001758	28.0787	0.088854	0.002029	43.7918	-172.507	-166.563	-0.030382	0.977303	-0.070428	-0.071710	-0.062460	43.7918	-0.069358	-0.327835	0.190521	NaN
581	1.000000	0.986581	7.37074e+06	-48039.1	1005.82	-29763.9	0.000000	0.000000	6.987128	-0.061771	NaN	0.000000	0.001621	0.001780	28.0786	0.084962	0.002000	42.4784	45.8008	-167.046	-0.049345	0.985255	-0.062432	-0.063759	-0.061771	42.4784	-0.061342	-0.196707	0.314026	NaN
581	1.000000	0.994615	7.37074e+06	-48039.1	1005.82	-29763.9	0.000000	0.000000	6.995161	-0.059007	NaN	0.000000	0.001646	0.001774	28.0789	0.075786	0.001948	38.8955	22.8448	-161.615	-0.087902	0.993239	-0.054399	-0.055775	-0.059007	38.8955	-0.053261	-0.114345	0.516046	NaN
581	1.000000	1.002592	7.37074e+06	-48039.1	1005.82	-29763.9	0.000000	0.000000	7.003141	0.020211	NaN	0.000000	0.001579	0.001767	28.0788	0.051762	0.001989	26.0179	67.3185	-162.061	-0.016015	1.001269	-0.046422	-0.047745	0.020211	26.0179	-0.047005	-0.074000	-0.273119	NaN
581	1.000000	1.010622	7.37074e+06	-48039.1	1005.82	-29763.9	0.000000	0.000000	7.011172	0.006453	NaN	0.000000	0.001551	0.001766	28.0786	0.081632	0.002120	38.503	-91.0333	-162.895	0.036396	1.009307	-0.038391	-0.039706	0.006453	38.503	-0.038517	-0.040780	-0.158234	NaN
581	1.000000	1.018594	7.37074e+06	-48039.1	1005.82	-29763.9	0.000000	0.000000	7.019144	0.021312	NaN	0.000000	0.001581	0.001780	28.0786	0.081655	0.002101	38.8727	-8.170570	-167.559	-0.020047	1.017292	-0.030420	-0.031722	0.021312	38.8727	-0.030831	-0.024280	-0.877744	NaN
581	1.000000	1.026603	7.37074e+06	-48039.1	1005.82	-29763.9	0.000000	0.000000	7.027152	0.009779	NaN	0.000000	0.001575	0.001785	28.0787	0.104029	0.002010	51.7484	87.9377	-165.028	-0.004552	1.025289	-0.022411	-0.023725	0.009779	51.7484	-0.022553	-0.014587	-0.670380	NaN
581	1.000000	1.034606	7.37074e+06	-48039.1	1005.82	-29763.9	0.000000	0.000000	7.035152	-0.055247	NaN	0.000000	0.001576	0.001753	28.0789	0.071711	0.001941	36.9384	129.361	-166.266	-0.016563	1.033287	-0.014408	-0.015726	-0.055247	36.9384	-0.013287	-0.008268	6.682055	NaN
581	1.000000	1.042650	7.37074e+06	-48039.1	1005.82	-29763.9	0.000000	0.000000	7.043195	-0.095334	NaN	0.000000	0.001568	0.001714	28.0786	0.083320	0.002017	41.3184	123.04	-167.557	-0.054935	1.041291	-0.006364	-0.007723	-0.095334	41.3184	-0.004633	-0.003185	29.9315	NaN
581	1.000000	1.050607	7.37074e+06	-48039.1	1005.82	-29763.9	0.000000	0.000000	7.051419	6.402107	NaN	0.000000	0.001613	0.001739	28.0788	6.852392	0.001753	3908.67	10.6696	-169.892	5.033435	1.049279	0.001593	0.000265	6.402107	3908.67	0.000365	0.000275	23310.5	215485
581	2.000000	1.054206	7.37074e+06	-48039.1	1005.82	-29763.9	0.000000	0.000000	7.055157	9.769182	NaN	0.000000	0.001618	0.001707	28.0787	9.948692	0.001559	6382.91	5.836529	-171.898	9.601578	1.053897	0.005193	0.004883	9.769182	6382.91	0.004045	0.003278	2980.06	101853
581	2.000000	1.056232	7.37074e+06	-48039.1	1005.82	-29763.9	0.000000	0.000000	7.057324	13.2163	NaN	0.000000	0.001587	0.001712	28.0789	12.6932	0.001637	7753.16	9.417272	-176.368	12.987	1.055855	0.007218	0.006841	13.2163	7753.16	0.005940	0.005008	2639.23	100100
581	2.000000	1.058202	7.37074e+06	-48039.1	1005.82	-29763.9	0.000000	0.000000	7.059416	16.1588	NaN	0.000000	0.001620	0.001694	28.0789	14.3498	0.001632	8790.78	2.828830	-170.108	16.3477	1.057851	0.009188	0.008837	16.1588	8790.78	0.007810	0.006848	2359.81	97058.7
581	2.000000	1.060178	7.37074e+06	-48039.1	1005.82	-29763.9	0.000000	0.000000	7.061583	20.8327	NaN	0.000000	0.001567	0.001701	28.0786	17.8383	0.001799	9914.94	7.266705	-176.41	20.6458	1.059848	0.011164	0.010834	20.8327	9914.94	0.009588	0.008727	2387.02	96965.8
581	2.000000	1.062139	7.37074e+06	-48039.1	1005.82	-29763.9	0.000000	0.000000	7.063750	25.8347	NaN	0.000000	0.001619	0.001709	28.0787	19.1178	0.001664	11489.5	5.176455	-175.399	24.9419	1.061795	0.013125	0.012782	25.8347	11489.5	0.011439	0.010825	2386.62	100893
581	2.000000	1.064148	7.37074e+06	-48039.1	1005.82	-29763.9	0.000000	0.000000	7.065875	28.6578	NaN	0.000000	0.001571	0.001725	28.0786	21.7413	0.001692	12848.6	5.637854	-177.306	28.986	1.063783	0.015134	0.014769	28.6578	12848.6	0.013461	0.013288	2156.75	101838
581	2.000000	1.066177	7.37074e+06	-48039.1	1005.82	-29763.9	0.000000	0.000000	7.068135	34.2584	NaN	0.000000	0.001555	0.001774	28.0802	24.3815	0.001795	13582.6	8.260001	-178.241	34.6572	1.065763	0.017164	0.016749	34.2584	13582.6	0.015272	0.015650	2189.07	99197.9
581	2.000000	1.068113	7.37074e+06	-48039.1	1005.82	-29763.9	0.000000	0.000000	7.070244	38.4781	NaN	0.000000	0.001594	0.001746	28.08	26.2033	0.001814	14443.1	5.832845	-177.294	38.9403	1.067836	0.019099	0.018822	38.4781	14443.1	0.017101	0.018190	2115.35	97840.5
581	2.000000	1.070095	7.37074e+06	-48039.1	1005.82	-29763.9	0.000000	0.000000	7.072540	46.103	NaN	0.000000	0.001608	0.001731	28.0798	28.5679	0.001805	15823.4	4.140898	-177.267	43.5675	1.069773	0.021082	0.020760	46.103	15823.4	0.018896	0.020838	2212.49	100150
581	2.000000	1.072133	7.37074e+06	-48039.1	1005.82	-29763.9	0.000000	0.000000	7.074754	50.4014	NaN	0.000000	0.001622	0.001755	28.08	30.3252	0.001791	16927.6	7.031656	178.426	50.9367	1.071765	0.023119	0.022751	50.4014	16927.6	0.020886	0.023953	2104.15	99927.6
581	2.000000	1.074051	7.37074e+06	-48039.1	1005.82	-29763.9	0.000000	0.000000	7.076959	57.3899	NaN	0.000000	0.001629	0.001770	28.0799	32.5146	0.001829	17773	3.260252	-177.497	54.163	1.073736	0.025037	0.024722	57.3899	17773	0.022615	0.026820	2139.85	99153.5
581	2.000000	1.076100	7.37074e+06	-48039.1	1005.82	-29763.9	0.000000	0.000000	7.079366	66.0923	NaN	0.000000	0.001611	0.001787	28.0805	34.3487	0.001752	19603.9	2.918772	-177.552	64.8525	1.075726	0.027086	0.026712	66.0923	19603.9	0.024558	0.030216	2187.32	103038
581	2.000000	1.078092	7.37074e+06	-48039.1	1005.82	-29763.9	0.000000	0.000000	7.081498	69.4892	NaN	0.000000	0.001574	0.001758	28.08	36.4598	0.001879	19408.8	4.844546	-179.523	69.1506	1.077875	0.029078	0.028862	69.4892	19408.8	0.026393	0.033599	2068.18	96740.2
581	2.000000	1.080027	7.37074e+06	-48039.1	1005.82	-29763.9	0.000000	0.000000	7.083790	78.1884	NaN	0.000000	0.001620	0.001719	28.0799	38.5262	0.001749	22033.1	5.859578	177.126	74.5156	1.079819	0.031013	0.030805	78.1884	22033.1	0.028352	0.037396	2090.81	104096
581	2.000000	1.082062	7.37074e+06	-48039.1	1005.82	-29763.9	0.000000	0.000000	7.086236	88.1625	NaN	0.000000	0.001592	0.001738	28.0799	39.193	0.001728	22676.7	2.257890	-178.218	86.2828	1.081675	0.033048	0.032661	88.1625	22676.7	0.030133	0.041019	2149.31	102296
581	2.000000	1.084109	7.37074e+06	-48039.1	1005.82	-29763.9	0.000000	0.000000	7.088550	94.6749	NaN	0.000000	0.001577	0.001752	28.0799	41.5258	0.001694	24506.3	6.553171	176.195	95.9386	1.083771	0.035095	0.034757	94.6749	24506.3	0.032197	0.045421	2084.37	105056
581	2.000000	1.086155	7.37074e+06	-48039.1	1005.82	-29763.9	0.000000	0.000000	7.090922	102.591	NaN	0.000000	0.001628	0.001720	28.08	44.013	0.001751	25136.1	6.031834	176.708	104.18	1.085772	0.037141	0.036758	102.591	25136.1	0.034080	0.049626	2067.27	103089
581	2.000000	1.088067	7.37074e+06	-48039.1	1005.82	-29763.9	0.000000	0.000000	7.093220	111.975	NaN	0.000000	0.001589	0.001758	28.0799	45.3468	0.001703	26629.1	4.684287	177.034	112.302	1.087806	0.039054	0.038792	111.975	26629.1	0.035900	0.053862	2078.91	104831
581	2.000000	1.090047	7.37074e+06	-48039.1	1005.82	-29763.9	0.000000	0.000000	7.095536	120.164	NaN	0.000000	0.001567	0.001757	28.0801	48.9202	0.001863	26251.9	5.887329	176.467	117.019	1.089771	0.041033	0.040758	120.164	26251.9	0.037600	0.057973	2072.76	99614.3
581	2.000000	1.092163	7.37074e+06	-48039.1	1005.82	-29763.9	0.000000	0.000000	7.097956	127.549	NaN	0.000000	0.001551	0.001780	28.0801	49.7976	0.001827	27257.5	7.977326	174.141	130.652	1.091697	0.043149	0.042683	127.549	27257.5	0.039640	0.063100	2021.38	99139
581	2.000000	1.094036	7.37074e+06	-48039.1	1005.82	-29763.9	0.000000	0.000000	7.100047	132.856	NaN	0.000000	0.001576	0.001732	28.0799	51.2774	0.001820	28172.2	1.983791	179.296	129.618	1.093800	0.045022	0.044786	132.856	28172.2	0.041485	0.067922	1956.01	98761.6
581	2.000000	1.096109	7.37074e+06	-48039.1	1005.82	-29763.9	0.000000	0.000000	7.102818	149.837	NaN	0.000000	0.001599	0.001756	28.08	52.6996	0.001754	30045	1.579082	179.679	149.514	1.095724	0.047095	0.046710	149.837	30045	0.043354	0.072985	2053	101609
581	2.000000	1.098086	7.37074e+06	-48039.1	1005.82	-29763.9	0.000000	0.000000	7.104928	153.062	NaN	0.000000	0.001598	0.001745	28.08	54.8467	0.001762	31133.5	3.230420	177.484	154.885	1.097792	0.049073	0.048778	153.062	31133.5	0.045385	0.078685	1945.26	101404
581	2.000000	1.100030	7.37074e+06	-48039.1	1005.82	-29763.9	0.000000	0.000000	7.107346	164.603	NaN	0.000000	0.001581	0.001758	28.0791	56.4668	0.001695	33319.4	4.116616	175.264	162.207	1.099844	0.051016	0.050831	164.603	33319.4	0.047311	0.084283	1952.98	104858
581	2.000000	1.102032	7.37074e+06	-48039.1	1005.82	-29763.9	0.000000	0.000000	7.110003	180.513	NaN	0.000000	0.001570	0.001775	28.0791	56.9263	0.001644	34619.5	0.746480	178.789	177.059	1.101723	0.053019	0.052710	180.513	34619.5	0.049108	0.089676	2012.94	105622
581	2.000000	1.103947	7.37074e+06	-48039.1	1005.82	-29763.9	0.000000	0.000000	7.112387	191.947	NaN	0.000000	0.001606	0.001735	28.0789	59.687	0.001832	32578.5	4.543320	176.031	186.461	1.103729	0.054933	0.054715	191.947	32578.5	0.050514	0.094008	2041.81	97078
581	2.000000	1.105997	7.37074e+06	-48039.1	1005.82	-29763.9	0.000000	0.000000	7.114769	200.012	NaN	0.000000	0.001613	0.001717	28.0787	62.0168	0.001775	34947.4	5.929207	174.465	195.358	1.105562	0.056983	0.056548	200.012	34947.4	0.052691	0.100912	1982.04	100512
581	2.000000	1.108060	7.37074e+06	-48039.1	1005.82	-29763.9	0.000000	0.000000	7.117247	210.112	NaN	0.000000	0.001581	0.001726	28.0789	63.459	0.001819	34879.4	3.426087	176.53	209.483	1.107663	0.059046	0.058649	210.112	34879.4	0.054528	0.106921	1965.11	97456.3
581	2.000000	1.110061	7.37074e+06	-48039.1	1005.82	-29763.9	0.000000	0.000000	7.119715	221.462	NaN	0.000000	0.001616	0.001734	28.0788	65.9679	0.001866	35352	6.890320	173.111	220.227	1.109731	0.061047	0.060718	221.462	35352	0.056349	0.113041	1959.13	96065.8
581	2.000000	1.111977	7.37074e+06	-48039.1	1005.82	-29763.9	0.000000	0.000000	7.122015	230.8	NaN	0.000000	0.001568	0.001748	28.0795	65.5523	0.001776	36917.8	2.270531	177.193	226.619	1.111827	0.062963	0.062813	230.8	36917.8	0.058274	0.119693	1928.26	97493.3
581	2.000000	1.113978	7.37074e+06	-48039.1	1005.82	-29763.9	0.000000	0.000000	7.124765	249	NaN	0.000000	0.001589	0.001739	28.0789	68.3538	0.001727	39581.2	3.213326	176.255	243.937	1.113579	0.064964	0.064565	249	39581.2	0.060246	0.126693	1965.38	101598
581	2.000000	1.116084	7.37074e+06	-48039.1	1005.82	-29763.9	0.000000	0.000000	7.127497	264.248	NaN	0.000000	0.001599	0.001739	28.0786	70.9452	0.001882	37689.5	3.563876	177.184	264.5	1.115635	0.067070	0.066621	264.248	37689.5	0.061811	0.132384	1996.07	94640.2
581	2.000000	1.118012	7.37074e+06	-48039.1	1005.82	-29763.9	0.000000	0.000000	7.129711	271.191	NaN	0.000000	0.001621	0.001704	28.0787	72.4681	0.001719	42158.8	4.451110	173.759	268.819	1.117770	0.068998	0.068756	271.191	42158.8	0.064174	0.141198	1920.64	102505
581	2.000000	1.120029	7.37074e+06	-48039.1	1005.82	-29763.9	0.000000	0.000000	7.132207	282.867	NaN	0.000000	0.001638	0.001704	28.0787	74.9632	0.001706	43939.8	2.401291	175.551	280.097	1.119763	0.071015	0.070749	282.867	43939.8	0.066187	0.148922	1899.43	104028
581	2.000000	1.122009	7.37074e+06	-48039.1	1005.82	-29763.9	0.000000	0.000000	7.134790	297.525	NaN	0.000000	0.001591	0.001722	28.079	75.8515	0.001755	43215.2	1.555172	176.673	293.86	1.121714	0.072995	0.072700	297.525	43215.2	0.067831	0.155377	1914.85	100165
581	2.000000	1.124044	7.37074e+06	-48039.1	1005.82	-29763.9	0.000000	0.000000	7.137243	307.659	NaN	0.000000	0.001596	0.001694	28.0788	79.5357	0.001784	44575	7.159750	171.118	308.399	1.123663	0.075031	0.074649	307.659	44575	0.069854	0.163495	1881.76	100719
581	2.000000	1.126047	7.37074e+06	-48039.1	1005.82	-29763.9	0.000000	0.000000	7.139801	321.171	NaN	0.000000	0.001590	0.001732	28.0787	81.8414	0.001710	47851.9	8.039734	170.046	323.508	1.125747	0.077034	0.076733	321.171	47851.9	0.072000	0.172318	1863.83	105319
581	2.000000	1.128036	7.37074e+06	-48039.1	1005.82	-29763.9	0.000000	0.000000	7.142490	338.203	NaN	0.000000	0.001564	0.001737	28.0788	81.9885	0.001730	47388.8	2.832233	175.068	338.003	1.127712	0.079022	0.078699	338.203	47388.8	0.073670	0.179335	1885.87	102239
581	2.000000	1.129953	7.37074e+06	-48039.1	1005.82	-29763.9	0.000000	0.000000	7.144836	348.618	NaN	0.000000	0.001585	0.001738	28.0787	84.2319	0.001698	49597	2.090190	174.801	342.939	1.129718	0.080940	0.080704	348.618	49597	0.075668	0.187906	1855.28	104534
581	2.000000	1.131962	7.37074e+06	-48039.1	1005.82	-29763.9	0.000000	0.000000	7.147461	363.614	NaN	0.000000	0.001585	0.001694	28.0789	85.4324	0.001815	47062.6	2.138634	175.626	358.75	1.131722	0.082948	0.082709	363.614	47062.6	0.077154	0.194399	1870.45	97521.7
581	2.000000	1.134022	7.37074e+06	-48039.1	1005.82	-29763.9	0.000000	0.000000	7.150081	377.255	NaN	0.000000	0.001604	0.001732	28.0796	88.9426	0.001753	50741.3	6.649200	170.417	375.389	1.133704	0.085008	0.084690	377.255	50741.3	0.079432	0.204558	1844.25	102501
581	2.000000	1.136082	7.37074e+06	-48039.1	1005.82	-29763.9	0.000000	0.000000	7.152855	394.622	NaN	0.000000	0.001613	0.001717	28.08	90.0206	0.001882	47842.8	2.629272	175.781	394.494	1.135626	0.087068	0.086612	394.622	47842.8	0.080882	0.211149	1868.93	95125.2
581	2.000000	1.137938	7.37074e+06	-48039.1	1005.82	-29763.9	0.000000	0.000000	7.155160	405.525	NaN	0.000000	0.001568	0.001696	28.0802	91.0299	0.001764	51615.2	3.322288	173.833	400.342	1.137659	0.088924	0.088646	405.525	51615.2	0.083032	0.221102	1834.11	100289
581	2.000000	1.140144	7.37074e+06	-48039.1	1005.82	-29763.9	0.000000	0.000000	7.157478	408.27	NaN	0.000000	0.001575	0.001685	28.0799	95.0214	0.001754	54173.9	6.750172	170.004	414.752	1.139832	0.091130	0.090818	408.27	54173.9	0.085478	0.232685	1754.6	102607
581	2.000000	1.141898	7.37074e+06	-48039.1	1005.82	-29763.9	0.000000	0.000000	7.160538	440.023	NaN	0.000000	0.001584	0.001716	28.0801	94.1482	0.001718	54807.2	4.688727	172.163	433.19	1.141619	0.092884	0.092605	440.023	54807.2	0.086863	0.239367	1838.28	102348
581	2.000000	1.143902	7.37074e+06	-48039.1	1005.82	-29763.9	0.000000	0.000000	7.162916	449.119	NaN	0.000000	0.001565	0.001695	28.0799	97.6704	0.001736	56245.6	8.496312	167.742	442.245	1.143650	0.094888	0.094636	449.119	56245.6	0.088900	0.249355	1801.12	102909
581	2.000000	1.145994	7.37074e+06	-48039.1	1005.82	-29763.9	0.000000	0.000000	7.166140	476.63	NaN	0.000000	0.001545	0.001624	28.0801	100.284	0.001929	51992.4	4.376784	173.306	473.309	1.145548	0.096981	0.096535	476.63	51992.4	0.090105	0.255356	1866.54	94002.7
581	2.000000	1.148001	7.37074e+06	-48039.1	1005.82	-29763.9	0.000000	0.000000	7.168363	481.912	NaN	0.000000	0.001519	0.001655	28.0801	100.919	0.001677	60168.9	1.091547	174.975	480.876	1.147801	0.098987	0.098788	481.912	60168.9	0.092980	0.269935	1785.29	105807
581	2.000000	1.150035	7.37074e+06	-48039.1	1005.82	-29763.9	0.000000	0.000000	7.170978	496.024	NaN	0.000000	0.001573	0.001633	28.08	105.025	0.001852	56693.7	7.217404	168.985	497.831	1.149827	0.101022	0.100813	496.024	56693.7	0.094460	0.277585	1786.93	98312.8
581	2.000000	1.150954	7.37074e+06	-48039.1	1005.82	-29763.9	0.000000	0.000000	7.172294	505.683	NaN	0.000000	0.001563	0.001606	28.08	104.615	0.001833	57080.5	4.313203	171.76	502.897	1.150730	0.101940	0.101716	505.683	57080.5	0.095296	0.281954	1793.5	98213.7