File: remote_trans/data/nanoindenter/0828-1/data/Data_2025-08-06,11h17m57s/2025-07-22_16-23-58_1_764.txt
2025-07-22, 16:23:58, 1
Index	Phase	Displacement	Time	Pos X	Pos Y	Pos Z	Rot A	Rot B	Piezo Z	Force A	Force B	Gripper	Voltage A	Voltage B	Temperature	Amplitude force	Amplitude pos	Stiffness	Phase shift	Phase excitation	Force A raw	Displacement raw	HMax	HMax raw	Real Force	Real Stiffness	Contact Depth	Area	Hardness	Reduced Mod.
[#]	[#]	[um]	[s]	[um]	[um]	[um]	[m°]	[m°]	[um]	[uN]	[uN]	[V]	[V]	[V]	[°C]	[uN]	[um]	[N/m]	[°]	[°]	[uN]	[um]	[um]	[um]	[uN]	[N/m]	[um]	[um^2]	[MPa]	[MPa]
764	1.000000	0.002622	7.37253e+06	-38889.1	1005.82	-29795.8	0.000000	0.000000	6.002825	-8.074834E-5	NaN	0.000000	0.001639	0.001771	28.0803	0.103537	0.000997	103.881	89.301	-169.611	-0.084803	0.001306	-1.146879	-1.148195	-8.074834E-5	103.881	-1.146879	-2.132913E+15	3.785824E-20	NaN
764	1.000000	0.012651	7.37253e+06	-38889.1	1005.82	-29795.8	0.000000	0.000000	6.012853	-0.029765	NaN	0.000000	0.001686	0.001763	28.0805	0.120577	0.001219	98.9412	-160.55	21.7502	-0.038598	0.011183	-1.136851	-1.138319	-0.029765	98.9412	-1.136625	-1.554089E+15	1.915268E-17	NaN
764	1.000000	0.022572	7.37253e+06	-38889.1	1005.82	-29795.8	0.000000	0.000000	6.022774	-0.030191	NaN	0.000000	0.001664	0.001748	28.0812	0.014277	0.001648	8.661983	-175.726	-165.697	-0.020176	0.021216	-1.126930	-1.128285	-0.030191	8.661983	-1.124315	-1.062596E+15	2.841202E-17	NaN
764	1.000000	0.032554	7.37253e+06	-38889.1	1005.82	-29795.8	0.000000	0.000000	6.032756	-0.021101	NaN	0.000000	0.001663	0.001761	28.0812	0.052322	0.001856	28.1963	91.6555	13.5746	-0.106152	0.031159	-1.116947	-1.118342	-0.021101	28.1963	-1.116386	-8.317317E+14	2.537046E-17	NaN
764	1.000000	0.042529	7.37253e+06	-38889.1	1005.82	-29795.8	0.000000	0.000000	6.042730	-0.051029	NaN	0.000000	0.001644	0.001774	28.0815	0.071729	0.001916	37.4287	-139.724	-166.179	-0.033019	0.041247	-1.106972	-1.108255	-0.051029	37.4287	-1.105950	-6.024617E+14	8.470058E-17	NaN
764	1.000000	0.052533	7.37253e+06	-38889.1	1005.82	-29795.8	0.000000	0.000000	6.052734	-0.064068	NaN	0.000000	0.001628	0.001780	28.0813	0.063731	0.002002	31.8347	153.759	14.8054	-0.024510	0.051185	-1.096968	-1.098316	-0.064068	31.8347	-1.095459	-4.356176E+14	1.470747E-16	NaN
764	1.000000	0.062538	7.37253e+06	-38889.1	1005.82	-29795.8	0.000000	0.000000	6.062740	-0.017173	NaN	0.000000	0.001647	0.001787	28.0813	0.013899	0.001937	7.175720	13.9476	-165.829	-0.015833	0.061240	-1.086964	-1.088262	-0.017173	7.175720	-1.085169	-3.169091E+14	5.418970E-17	NaN
764	1.000000	0.072525	7.37253e+06	-38889.1	1005.82	-29795.8	0.000000	0.000000	6.072726	-0.055167	NaN	0.000000	0.001649	0.001777	28.0815	0.117441	0.002032	57.7911	146.385	13.1438	-0.026305	0.071174	-1.076976	-1.078327	-0.055167	57.7911	-1.076260	-2.405966E+14	2.292909E-16	NaN
764	1.000000	0.082565	7.37253e+06	-38889.1	1005.82	-29795.8	0.000000	0.000000	6.082769	0.017786	NaN	0.000000	0.001642	0.001766	28.0811	0.112480	0.001928	58.3395	50.354	-162.308	-0.020346	0.081241	-1.066937	-1.068261	0.017786	58.3395	-1.067165	-1.815945E+14	-9.794214E-17	NaN
764	1.000000	0.092569	7.37253e+06	-38889.1	1005.82	-29795.8	0.000000	0.000000	6.092773	0.013829	NaN	0.000000	0.001662	0.001746	28.081	0.120028	0.001913	62.7484	33.6976	11.3865	-0.036942	0.091210	-1.056933	-1.058292	0.013829	62.7484	-1.057098	-1.329899E+14	-1.039843E-16	NaN
764	1.000000	0.102551	7.37253e+06	-38889.1	1005.82	-29795.8	0.000000	0.000000	6.102754	-0.007766	NaN	0.000000	0.001666	0.001770	28.0808	0.044685	0.001943	23.0027	-13.9307	-164.827	0.014043	0.101292	-1.046950	-1.048209	-0.007766	23.0027	-1.046697	-9.638570E+13	8.057195E-17	NaN
764	1.000000	0.112565	7.37253e+06	-38889.1	1005.82	-29795.8	0.000000	0.000000	6.112765	-0.061238	NaN	0.000000	0.001629	0.001777	28.0812	0.022633	0.001754	12.9046	69.2277	11.6991	0.023774	0.111251	-1.036937	-1.038251	-0.061238	12.9046	-1.033378	-6.381303E+13	9.596451E-16	NaN
764	1.000000	0.122572	7.37253e+06	-38889.1	1005.82	-29795.8	0.000000	0.000000	6.122770	-0.133534	NaN	0.000000	0.001680	0.001779	28.0811	0.076844	0.002132	36.0384	89.8728	-165.116	-0.070957	0.121272	-1.026929	-1.028229	-0.133534	36.0384	-1.024150	-4.795005E+13	2.784860E-15	NaN
764	1.000000	0.132578	7.37253e+06	-38889.1	1005.82	-29795.8	0.000000	0.000000	6.132779	-0.046533	NaN	0.000000	0.001677	0.001763	28.0811	0.031806	0.001925	16.5229	155.124	15.1783	-0.016405	0.131199	-1.016923	-1.018302	-0.046533	16.5229	-1.014811	-3.590285E+13	1.296088E-15	NaN
764	1.000000	0.142559	7.37253e+06	-38889.1	1005.82	-29795.8	0.000000	0.000000	6.142760	-0.044679	NaN	0.000000	0.001678	0.001766	28.081	0.061872	0.001980	31.2445	-128.901	-166.25	0.004935	0.141244	-1.006943	-1.008258	-0.044679	31.2445	-1.005870	-2.721431E+13	1.641730E-15	NaN
764	1.000000	0.152586	7.37253e+06	-38889.1	1005.82	-29795.8	0.000000	0.000000	6.152792	0.069505	NaN	0.000000	0.001710	0.001768	28.0799	0.016478	0.002056	8.016121	-65.0508	15.3701	-0.040250	0.151238	-0.996916	-0.998263	0.069505	8.016121	-1.003419	-2.522289E+13	-2.755617E-15	NaN
764	1.000000	0.162545	7.37253e+06	-38889.1	1005.82	-29795.8	0.000000	0.000000	6.162750	0.031915	NaN	0.000000	0.001663	0.001829	28.0798	0.039320	0.002029	19.3831	128.668	-164.274	0.060695	0.161282	-0.986956	-0.988220	0.031915	19.3831	-0.988191	-1.573076E+13	-2.028816E-15	NaN
764	1.000000	0.172587	7.37253e+06	-38889.1	1005.82	-29795.8	0.000000	0.000000	6.172789	-0.035601	NaN	0.000000	0.001686	0.001808	28.0798	0.041067	0.002006	20.4747	-78.7606	13.3177	-0.000814	0.171219	-0.976914	-0.978283	-0.035601	20.4747	-0.975610	-1.064789E+13	3.343506E-15	NaN
764	1.000000	0.182605	7.37253e+06	-38889.1	1005.82	-29795.8	0.000000	0.000000	6.182806	-0.060774	NaN	0.000000	0.001702	0.001810	28.0799	0.103554	0.001881	55.0657	145.282	-163.207	0.035406	0.181331	-0.966896	-0.968170	-0.060774	55.0657	-0.966068	-7.918990E+12	7.674460E-15	NaN
764	1.000000	0.192624	7.37253e+06	-38889.1	1005.82	-29795.8	0.000000	0.000000	6.192824	-0.097642	NaN	0.000000	0.001669	0.001812	28.0801	0.132898	0.002023	65.6946	108.204	18.3478	-0.058549	0.191251	-0.956877	-0.958251	-0.097642	65.6946	-0.955762	-5.750866E+12	1.697869E-14	NaN
764	1.000000	0.202626	7.37253e+06	-38889.1	1005.82	-29795.8	0.000000	0.000000	6.202826	-0.065226	NaN	0.000000	0.001679	0.001825	28.0798	0.078128	0.002010	38.8674	-85.2413	-165.243	-0.102122	0.201262	-0.946876	-0.948239	-0.065226	38.8674	-0.945617	-4.196727E+12	1.554206E-14	NaN
764	1.000000	0.212589	7.37253e+06	-38889.1	1005.82	-29795.8	0.000000	0.000000	6.212790	-0.048431	NaN	0.000000	0.001707	0.001800	28.08	0.086466	0.001924	44.9504	-136.496	15.0461	-0.081808	0.211267	-0.936913	-0.938235	-0.048431	44.9504	-0.936105	-3.123067E+12	1.550762E-14	NaN
764	1.000000	0.222602	7.37253e+06	-38889.1	1005.82	-29795.8	0.000000	0.000000	6.222806	0.008250	NaN	0.000000	0.001701	0.001762	28.0797	0.045048	0.002002	22.5069	-170.613	-164.032	-0.086603	0.221290	-0.926899	-0.928211	0.008250	22.5069	-0.927174	-2.366223E+12	-3.486698E-15	NaN
764	1.000000	0.232605	7.37253e+06	-38889.1	1005.82	-29795.8	0.000000	0.000000	6.232807	-0.041272	NaN	0.000000	0.001681	0.001763	28.0799	0.031345	0.001960	15.9942	15.4811	9.769262	0.070709	0.231257	-0.916896	-0.918244	-0.041272	15.9942	-0.914961	-1.618677E+12	2.549747E-14	NaN
764	1.000000	0.242631	7.37253e+06	-38889.1	1005.82	-29795.8	0.000000	0.000000	6.242833	-0.007528	NaN	0.000000	0.001634	0.001792	28.0797	0.083238	0.002051	40.5941	-39.2904	-165.036	-0.057787	0.241304	-0.906871	-0.908197	-0.007528	40.5941	-0.906732	-1.253189E+12	6.007029E-15	NaN
764	1.000000	0.252614	7.37253e+06	-38889.1	1005.82	-29795.8	0.000000	0.000000	6.252812	-0.124401	NaN	0.000000	0.001631	0.001797	28.0797	0.051634	0.001932	26.7285	136.083	11.7476	-0.072085	0.251245	-0.896887	-0.898256	-0.124401	26.7285	-0.893397	-8.276131E+11	1.503130E-13	NaN
764	1.000000	0.262674	7.37253e+06	-38889.1	1005.82	-29795.8	0.000000	0.000000	6.262877	0.000598	NaN	0.000000	0.001673	0.001789	28.0798	0.025756	0.001935	13.3082	-1.520784	-164.784	-0.046649	0.261273	-0.886828	-0.888228	0.000598	13.3082	-0.886861	-6.752803E+11	-8.861919E-16	NaN
764	1.000000	0.272637	7.37253e+06	-38889.1	1005.82	-29795.8	0.000000	0.000000	6.272839	-0.026917	NaN	0.000000	0.001672	0.001790	28.0797	0.054756	0.002185	25.0562	133.173	14.8577	0.070338	0.271264	-0.876864	-0.878237	-0.026917	25.0562	-0.876058	-4.823897E+11	5.579891E-14	NaN
764	1.000000	0.282659	7.37253e+06	-38889.1	1005.82	-29795.8	0.000000	0.000000	6.282862	-0.010041	NaN	0.000000	0.001657	0.001773	28.0799	0.074431	0.001916	38.8405	-49.4529	-165.037	-0.030268	0.281304	-0.866842	-0.868198	-0.010041	38.8405	-0.866648	-3.598275E+11	2.790495E-14	NaN
764	1.000000	0.292671	7.37253e+06	-38889.1	1005.82	-29795.8	0.000000	0.000000	6.292875	0.011381	NaN	0.000000	0.001674	0.001769	28.0808	0.035287	0.001886	18.7052	-41.7658	15.0497	0.026374	0.291265	-0.856830	-0.858236	0.011381	18.7052	-0.857286	-2.687754E+11	-4.234322E-14	NaN
764	1.000000	0.302657	7.37253e+06	-38889.1	1005.82	-29795.8	0.000000	0.000000	6.302858	-0.033496	NaN	0.000000	0.001659	0.001801	28.0816	0.061336	0.001942	31.5869	-122.846	-166.145	-0.055207	0.301335	-0.846845	-0.848166	-0.033496	31.5869	-0.846050	-1.893381E+11	1.769093E-13	NaN
764	1.000000	0.312641	7.37253e+06	-38889.1	1005.82	-29795.8	0.000000	0.000000	6.312841	-0.086565	NaN	0.000000	0.001670	0.001796	28.081	0.065165	0.001948	33.4564	166.344	15.2654	-0.056955	0.311348	-0.836860	-0.838153	-0.086565	33.4564	-0.834920	-1.338004E+11	6.469747E-13	NaN
764	1.000000	0.322632	7.37253e+06	-38889.1	1005.82	-29795.8	0.000000	0.000000	6.322835	-0.001986	NaN	0.000000	0.001675	0.001782	28.0812	0.038958	0.001972	19.7558	65.9976	-166.587	0.028931	0.321351	-0.826869	-0.828150	-0.001986	19.7558	-0.826794	-1.038306E+11	1.912749E-14	NaN
764	1.000000	0.332680	7.37253e+06	-38889.1	1005.82	-29795.8	0.000000	0.000000	6.332882	-0.036373	NaN	0.000000	0.001649	0.001797	28.0809	0.069972	0.001949	35.8996	125.974	13.9772	-0.016466	0.331309	-0.816821	-0.818192	-0.036373	35.8996	-0.816062	-7.426729E+10	4.897569E-13	NaN
764	1.000000	0.342697	7.37253e+06	-38889.1	1005.82	-29795.8	0.000000	0.000000	6.342898	-0.069699	NaN	0.000000	0.001661	0.001729	28.0813	0.115732	0.002015	57.425	135.996	-166.077	-0.090897	0.341364	-0.806804	-0.808137	-0.069699	57.425	-0.805894	-5.405704E+10	1.289361E-12	NaN
764	1.000000	0.352642	7.37253e+06	-38889.1	1005.82	-29795.8	0.000000	0.000000	6.352845	-0.025725	NaN	0.000000	0.001650	0.001829	28.0812	0.082379	0.001919	42.9178	105.041	12.3415	0.026840	0.351284	-0.796859	-0.798218	-0.025725	42.9178	-0.796409	-4.019001E+10	6.400770E-13	NaN
764	1.000000	0.362678	7.37253e+06	-38889.1	1005.82	-29795.8	0.000000	0.000000	6.362880	-0.040511	NaN	0.000000	0.001619	0.001799	28.0812	0.070770	0.002037	34.7365	-82.8231	-166.216	-0.010167	0.361370	-0.786823	-0.788132	-0.040511	34.7365	-0.785948	-2.897670E+10	1.398049E-12	NaN
764	1.000000	0.372664	7.37253e+06	-38889.1	1005.82	-29795.8	0.000000	0.000000	6.372866	-0.032414	NaN	0.000000	0.001626	0.001777	28.0811	0.098468	0.002007	49.061	176.559	14.2649	-0.010187	0.371308	-0.776838	-0.778193	-0.032414	49.061	-0.776342	-2.145453E+10	1.510828E-12	NaN
764	1.000000	0.382700	7.37253e+06	-38889.1	1005.82	-29795.8	0.000000	0.000000	6.382901	-0.033949	NaN	0.000000	0.001667	0.001813	28.0811	0.126313	0.002023	62.4499	-171.375	-166.589	0.027441	0.381417	-0.766802	-0.768085	-0.033949	62.4499	-0.766394	-1.571348E+10	2.160499E-12	NaN
764	1.000000	0.392718	7.37253e+06	-38889.1	1005.82	-29795.8	0.000000	0.000000	6.392919	-0.038816	NaN	0.000000	0.001689	0.001744	28.0812	0.035791	0.001989	17.9945	-96.895	13.4829	0.003931	0.391329	-0.756784	-0.758172	-0.038816	17.9945	-0.755166	-1.105425E+10	3.511374E-12	NaN
764	1.000000	0.402710	7.37253e+06	-38889.1	1005.82	-29795.8	0.000000	0.000000	6.402912	-0.032513	NaN	0.000000	0.001664	0.001766	28.0811	0.078184	0.002100	37.2268	90.7361	-165.779	-0.038434	0.401401	-0.746792	-0.748101	-0.032513	37.2268	-0.746137	-8.329608E+9	3.903259E-12	NaN
764	1.000000	0.412697	7.37253e+06	-38889.1	1005.82	-29795.8	0.000000	0.000000	6.412897	-0.078967	NaN	0.000000	0.001733	0.001794	28.0815	0.060959	0.002020	30.1767	86.4776	13.1846	-0.058598	0.411318	-0.736805	-0.738183	-0.078967	30.1767	-0.734842	-5.845097E+9	1.351003E-11	NaN
764	1.000000	0.422696	7.37253e+06	-38889.1	1005.82	-29795.8	0.000000	0.000000	6.422897	-0.042180	NaN	0.000000	0.001737	0.001789	28.0806	0.051712	0.001869	27.6743	0.424043	-162.644	0.008916	0.421399	-0.726806	-0.728102	-0.042180	27.6743	-0.725662	-4.382108E+9	9.625399E-12	NaN
764	1.000000	0.432686	7.37253e+06	-38889.1	1005.82	-29795.8	0.000000	0.000000	6.432886	-0.087642	NaN	0.000000	0.001725	0.001811	28.0799	0.045722	0.001936	23.6167	-109.497	12.2172	-0.084398	0.431382	-0.716815	-0.718120	-0.087642	23.6167	-0.714032	-3.041362E+9	2.881666E-11	NaN
764	1.000000	0.442703	7.37253e+06	-38889.1	1005.82	-29795.8	0.000000	0.000000	6.442904	-0.035709	NaN	0.000000	0.001743	0.001776	28.0802	0.081834	0.001960	41.7448	-118.024	-168.855	-0.114648	0.441394	-0.706799	-0.708107	-0.035709	41.7448	-0.706157	-2.374648E+9	1.503774E-11	NaN
764	1.000000	0.452716	7.37253e+06	-38889.1	1005.82	-29795.8	0.000000	0.000000	6.452915	-0.085272	NaN	0.000000	0.001648	0.001799	28.0799	0.051821	0.002119	24.4532	-80.6556	11.7092	-0.112684	0.451368	-0.696786	-0.698134	-0.085272	24.4532	-0.694170	-1.628930E+9	5.234845E-11	NaN
764	1.000000	0.462701	7.37253e+06	-38889.1	1005.82	-29795.8	0.000000	0.000000	6.462901	-0.079123	NaN	0.000000	0.001716	0.001783	28.0801	0.081808	0.002045	40.0103	-57.5195	-166.519	-0.058499	0.461405	-0.686801	-0.688096	-0.079123	40.0103	-0.685318	-1.232864E+9	6.417826E-11	NaN
764	1.000000	0.472726	7.37253e+06	-38889.1	1005.82	-29795.8	0.000000	0.000000	6.472925	-0.094845	NaN	0.000000	0.001721	0.001793	28.08	0.014298	0.002013	7.102463	159.838	11.0736	-0.036175	0.471379	-0.676775	-0.678122	-0.094845	7.102463	-0.666760	-6.871277E+8	1.380317E-10	NaN
764	1.000000	0.482712	7.37253e+06	-38889.1	1005.82	-29795.8	0.000000	0.000000	6.482913	-0.046700	NaN	0.000000	0.001703	0.001803	28.0802	0.106332	0.001974	53.8654	-106.728	-161.996	0.015427	0.481399	-0.666790	-0.668103	-0.046700	53.8654	-0.666139	-6.738196E+8	6.930595E-11	NaN
764	1.000000	0.492727	7.37253e+06	-38889.1	1005.82	-29795.8	0.000000	0.000000	6.492928	-0.070728	NaN	0.000000	0.001673	0.001816	28.08	0.051807	0.002003	25.8647	-54.7238	12.339	-0.041163	0.491363	-0.656774	-0.658139	-0.070728	25.8647	-0.654723	-4.700806E+8	1.504596E-10	NaN
764	1.000000	0.502732	7.37253e+06	-38889.1	1005.82	-29795.8	0.000000	0.000000	6.502935	-0.000371	NaN	0.000000	0.001683	0.001814	28.08	0.046076	0.002061	22.3523	-157.35	-164.003	-0.038671	0.501486	-0.646770	-0.648016	-0.000371	22.3523	-0.646757	-3.655726E+8	1.015060E-12	NaN
764	1.000000	0.512749	7.37253e+06	-38889.1	1005.82	-29795.8	0.000000	0.000000	6.512951	-0.028392	NaN	0.000000	0.001713	0.001749	28.0801	0.036296	0.002024	17.9284	-177.74	14.6794	0.048497	0.511386	-0.636752	-0.638116	-0.028392	17.9284	-0.635565	-2.566982E+8	1.106053E-10	NaN
764	1.000000	0.522753	7.37253e+06	-38889.1	1005.82	-29795.8	0.000000	0.000000	6.522956	-0.018114	NaN	0.000000	0.001712	0.001823	28.0799	0.065833	0.001970	33.4248	-110.408	-164.544	-0.060915	0.521396	-0.626748	-0.628105	-0.018114	33.4248	-0.626341	-1.917668E+8	9.445736E-11	NaN
764	1.000000	0.532745	7.37253e+06	-38889.1	1005.82	-29795.8	0.000000	0.000000	6.532947	-0.024455	NaN	0.000000	0.001709	0.001786	28.0799	0.083142	0.002031	40.943	-117.294	12.3477	0.054957	0.531370	-0.616757	-0.618131	-0.024455	40.943	-0.616309	-1.396001E+8	1.751780E-10	NaN
764	1.000000	0.542757	7.37253e+06	-38889.1	1005.82	-29795.8	0.000000	0.000000	6.542958	-0.056106	NaN	0.000000	0.001731	0.001835	28.0799	0.041776	0.001929	21.6513	-124.948	-165.718	-0.003258	0.541455	-0.606744	-0.608047	-0.056106	21.6513	-0.604801	-9.695336E+7	5.786887E-10	NaN
764	1.000000	0.552734	7.37253e+06	-38889.1	1005.82	-29795.8	0.000000	0.000000	6.552937	-0.002311	NaN	0.000000	0.001716	0.001826	28.0802	0.042746	0.002010	21.2697	132.32	15.0588	0.068709	0.551425	-0.596767	-0.598076	-0.002311	21.2697	-0.596686	-7.495652E+7	3.083338E-11	NaN
764	1.000000	0.562795	7.37253e+06	-38889.1	1005.82	-29795.8	0.000000	0.000000	6.562995	-0.060222	NaN	0.000000	0.001683	0.001810	28.0811	0.031831	0.002042	15.5881	81.5467	-168.052	0.049738	0.561436	-0.586707	-0.588066	-0.060222	15.5881	-0.583809	-4.980675E+7	1.209111E-9	NaN
764	1.000000	0.572776	7.37253e+06	-38889.1	1005.82	-29795.8	0.000000	0.000000	6.572978	-0.007927	NaN	0.000000	0.001717	0.001816	28.0812	0.023817	0.002010	11.8519	86.5409	15.6426	0.029594	0.571361	-0.576726	-0.578141	-0.007927	11.8519	-0.576224	-3.913830E+7	2.025432E-10	NaN
764	1.000000	0.582743	7.37253e+06	-38889.1	1005.82	-29795.8	0.000000	0.000000	6.582946	-0.015313	NaN	0.000000	0.001712	0.001804	28.081	0.118618	0.002023	58.6418	91.3123	-169.774	-0.091686	0.581420	-0.566758	-0.568081	-0.015313	58.6418	-0.566562	-2.878213E+7	5.320411E-10	NaN
764	1.000000	0.592772	7.37253e+06	-38889.1	1005.82	-29795.8	0.000000	0.000000	6.592974	-0.021097	NaN	0.000000	0.001720	0.001785	28.0814	0.145499	0.001865	78.0365	15.2997	12.1511	-0.083855	0.591400	-0.556730	-0.558101	-0.021097	78.0365	-0.556527	-2.090841E+7	1.009017E-9	NaN
764	1.000000	0.602766	7.37253e+06	-38889.1	1005.82	-29795.8	0.000000	0.000000	6.602967	-0.049994	NaN	0.000000	0.001731	0.001793	28.0811	0.091079	0.002120	42.9526	16.4159	-166.6	-0.069730	0.601427	-0.546735	-0.548074	-0.049994	42.9526	-0.545862	-1.488089E+7	3.359638E-9	NaN
764	1.000000	0.612763	7.37253e+06	-38889.1	1005.82	-29795.8	0.000000	0.000000	6.612965	-0.047174	NaN	0.000000	0.001704	0.001788	28.0811	0.127486	0.002052	62.1354	38.7295	14.4663	-0.034162	0.611451	-0.536738	-0.538051	-0.047174	62.1354	-0.536169	-1.091958E+7	4.320146E-9	NaN
764	1.000000	0.622795	7.37253e+06	-38889.1	1005.82	-29795.8	0.000000	0.000000	6.622998	-0.020817	NaN	0.000000	0.001636	0.001825	28.0812	0.057122	0.001918	29.7839	82.9442	-163.773	0.011887	0.621452	-0.526706	-0.528050	-0.020817	29.7839	-0.526182	-7.93481e+06	2.623551E-9	NaN
764	1.000000	0.632808	7.37253e+06	-38889.1	1005.82	-29795.8	0.000000	0.000000	6.633008	-0.076227	NaN	0.000000	0.001686	0.001804	28.081	0.025216	0.002011	12.5407	-38.7774	14.0738	-0.089324	0.631439	-0.516694	-0.518063	-0.076227	12.5407	-0.512135	-5.05996e+06	1.506472E-8	NaN
764	1.000000	0.642802	7.37253e+06	-38889.1	1005.82	-29795.8	0.000000	0.000000	6.643001	-0.083177	NaN	0.000000	0.001640	0.001846	28.0813	0.005894	0.001882	3.131335	-34.4091	-167.998	-0.036834	0.641469	-0.506700	-0.508032	-0.083177	3.131335	-0.486778	-2.24053e+06	3.712399E-8	NaN
764	1.000000	0.652808	7.37253e+06	-38889.1	1005.82	-29795.8	0.000000	0.000000	6.653007	-0.107403	NaN	0.000000	0.001666	0.001788	28.081	0.058226	0.001991	29.2518	-157.858	10.6844	-0.063126	0.651470	-0.496693	-0.498031	-0.107403	29.2518	-0.493939	-2.82112e+06	3.807086E-8	NaN
764	1.000000	0.662817	7.37253e+06	-38889.1	1005.82	-29795.8	0.000000	0.000000	6.663022	0.041804	NaN	0.000000	0.001639	0.001796	28.081	0.106939	0.001919	55.7292	-40.2071	-168.884	0.056386	0.661494	-0.486684	-0.488007	0.041804	55.7292	-0.487247	-2.27462e+06	-1.837822E-8	NaN
764	1.000000	0.672816	7.37253e+06	-38889.1	1005.82	-29795.8	0.000000	0.000000	6.673016	-0.083400	NaN	0.000000	0.001673	0.001762	28.0809	0.032240	0.001994	16.1692	149.281	15.4413	-0.052886	0.671461	-0.476685	-0.478040	-0.083400	16.1692	-0.472817	-1.42858e+06	5.837976E-8	NaN
764	1.000000	0.682806	7.37253e+06	-38889.1	1005.82	-29795.8	0.000000	0.000000	6.683007	-0.035474	NaN	0.000000	0.001695	0.001791	28.0809	0.141159	0.002077	67.9567	31.7775	-163.356	0.011946	0.681456	-0.466696	-0.468045	-0.035474	67.9567	-0.466304	-1.15759e+06	3.064502E-8	NaN
764	1.000000	0.692829	7.37253e+06	-38889.1	1005.82	-29795.8	0.000000	0.000000	6.693029	-0.077161	NaN	0.000000	0.001659	0.001801	28.0811	0.104158	0.002040	51.0593	81.0043	13.1944	0.031500	0.691462	-0.456672	-0.458039	-0.077161	51.0593	-0.455539	-817140	9.442817E-8	NaN
764	1.000000	0.702806	7.37253e+06	-38889.1	1005.82	-29795.8	0.000000	0.000000	6.703008	-0.031382	NaN	0.000000	0.001671	0.001792	28.0799	0.063030	0.001872	33.6755	55.2603	-167.239	-0.096704	0.701528	-0.446696	-0.447973	-0.031382	33.6755	-0.445997	-599711	5.232879E-8	NaN
764	1.000000	0.712843	7.37253e+06	-38889.1	1005.82	-29795.8	0.000000	0.000000	6.713047	0.014434	NaN	0.000000	0.001691	0.001772	28.0798	0.017308	0.002029	8.531356	-102.103	13.2015	-0.003507	0.711462	-0.436659	-0.438039	0.014434	8.531356	-0.437928	-461431	-3.128059E-8	NaN
764	1.000000	0.722826	7.37253e+06	-38889.1	1005.82	-29795.8	0.000000	0.000000	6.723028	-0.044661	NaN	0.000000	0.001664	0.001758	28.0798	0.043351	0.001961	22.1012	-134.314	-164.057	0.017448	0.721542	-0.426675	-0.427959	-0.044661	22.1012	-0.425159	-304467	1.466845E-7	NaN
764	1.000000	0.732818	7.37253e+06	-38889.1	1005.82	-29795.8	0.000000	0.000000	6.733022	0.017998	NaN	0.000000	0.001697	0.001782	28.08	0.064819	0.001985	32.6589	-2.492127	13.2099	0.043747	0.731442	-0.416683	-0.418060	0.017998	32.6589	-0.417097	-234004	-7.691137E-8	NaN
764	1.000000	0.742832	7.37253e+06	-38889.1	1005.82	-29795.8	0.000000	0.000000	6.743034	-0.035780	NaN	0.000000	0.001657	0.001788	28.0796	0.078645	0.002154	36.5047	59.5961	-165.777	0.014480	0.741509	-0.406669	-0.407993	-0.035780	36.5047	-0.405934	-162387	2.203383E-7	NaN
764	1.000000	0.752840	7.37253e+06	-38889.1	1005.82	-29795.8	0.000000	0.000000	6.753044	0.002552	NaN	0.000000	0.001659	0.001809	28.0798	0.084095	0.001983	42.4155	169.824	10.8745	-0.008209	0.751444	-0.396661	-0.398058	0.002552	42.4155	-0.396706	-119949	-2.127835E-8	NaN
764	1.000000	0.762837	7.37253e+06	-38889.1	1005.82	-29795.8	0.000000	0.000000	6.763038	-0.059305	NaN	0.000000	0.001598	0.001796	28.0798	0.031589	0.001999	15.8038	-67.0278	-164.438	0.043334	0.761541	-0.386664	-0.387961	-0.059305	15.8038	-0.383850	-78543	7.550658E-7	NaN
764	1.000000	0.772811	7.37253e+06	-38889.1	1005.82	-29795.8	0.000000	0.000000	6.773013	-0.026799	NaN	0.000000	0.001745	0.001783	28.08	0.021477	0.002023	10.6147	129.838	12.7548	-0.071930	0.771465	-0.376690	-0.378036	-0.026799	10.6147	-0.374797	-58230.1	4.602197E-7	NaN
764	1.000000	0.782840	7.37253e+06	-38889.1	1005.82	-29795.8	0.000000	0.000000	6.783041	-0.054034	NaN	0.000000	0.001737	0.001781	28.0797	0.029333	0.001971	14.8792	101.698	-165.574	-0.119066	0.781537	-0.366661	-0.367965	-0.054034	14.8792	-0.363938	-40618.6	1.330287E-6	NaN
764	1.000000	0.792875	7.37253e+06	-38889.1	1005.82	-29795.8	0.000000	0.000000	6.793078	-0.000747	NaN	0.000000	0.001722	0.001779	28.0796	0.114672	0.002017	56.8513	-117.727	13.7644	0.044682	0.791500	-0.356627	-0.358001	-0.000747	56.8513	-0.356617	-31835.2	2.347522E-8	NaN
764	1.000000	0.802848	7.37253e+06	-38889.1	1005.82	-29795.8	0.000000	0.000000	6.803050	-0.031580	NaN	0.000000	0.001699	0.001769	28.0798	0.040071	0.002010	19.935	70.2097	-166.208	-0.103520	0.801552	-0.346653	-0.347949	-0.031580	19.935	-0.345465	-21934.1	1.439753E-6	NaN
764	1.000000	0.812831	7.37253e+06	-38889.1	1005.82	-29795.8	0.000000	0.000000	6.813034	-0.016747	NaN	0.000000	0.001725	0.001811	28.0795	0.024168	0.001990	12.1424	166.848	15.9541	-0.025560	0.811517	-0.336670	-0.337984	-0.016747	12.1424	-0.335636	-15771.5	1.061831E-6	NaN
764	1.000000	0.822867	7.37253e+06	-38889.1	1005.82	-29795.8	0.000000	0.000000	6.823071	0.010310	NaN	0.000000	0.001714	0.001825	28.0797	0.057722	0.002033	28.3939	-129.022	-167.014	0.087309	0.821578	-0.326634	-0.327923	0.010310	28.3939	-0.326907	-11752.1	-8.772700E-7	NaN
764	1.000000	0.832913	7.37253e+06	-38889.1	1005.82	-29795.8	0.000000	0.000000	6.833115	-0.014975	NaN	0.000000	0.001694	0.001837	28.0804	0.046623	0.001926	24.2121	-102.78	13.0864	-0.112002	0.831498	-0.316589	-0.318004	-0.014975	24.2121	-0.316125	-8157.2	1.835834E-6	NaN
764	1.000000	0.842863	7.37253e+06	-38889.1	1005.82	-29795.8	0.000000	0.000000	6.843067	0.025703	NaN	0.000000	0.001730	0.001826	28.0813	0.051521	0.002133	24.1542	121.34	-165.389	0.018111	0.841527	-0.306638	-0.307975	0.025703	24.1542	-0.307436	-6068.6	-4.235378E-6	NaN
764	1.000000	0.852860	7.37253e+06	-38889.1	1005.82	-29795.8	0.000000	0.000000	6.853063	-0.017877	NaN	0.000000	0.001739	0.001784	28.0809	0.010129	0.002096	4.832669	-81.6614	13.5136	0.001642	0.851486	-0.296641	-0.298016	-0.017877	4.832669	-0.293867	-3812.05	4.689508E-6	NaN
764	1.000000	0.862917	7.37253e+06	-38889.1	1005.82	-29795.8	0.000000	0.000000	6.863121	0.026990	NaN	0.000000	0.001711	0.001768	28.0811	0.048186	0.002009	23.9812	-149.739	-167.291	-0.030342	0.861600	-0.286584	-0.287901	0.026990	23.9812	-0.287429	-3053.12	-8.840109E-6	NaN
764	1.000000	0.872925	7.37253e+06	-38889.1	1005.82	-29795.8	0.000000	0.000000	6.873127	-0.039445	NaN	0.000000	0.001746	0.001769	28.081	0.044611	0.002025	22.0271	-36.5564	14.3921	-0.076021	0.871544	-0.276576	-0.277958	-0.039445	22.0271	-0.275233	-1999.54	1.972717E-5	NaN
764	1.000000	0.882914	7.37253e+06	-38889.1	1005.82	-29795.8	0.000000	0.000000	6.883115	-0.043855	NaN	0.000000	0.001743	0.001771	28.0811	0.081424	0.001985	41.0272	45.5741	-164.017	-0.058031	0.881583	-0.266588	-0.267919	-0.043855	41.0272	-0.265786	-1436.75	3.052371E-5	NaN
764	1.000000	0.892910	7.37253e+06	-38889.1	1005.82	-29795.8	0.000000	0.000000	6.893113	-0.007618	NaN	0.000000	0.001722	0.001786	28.0809	0.105342	0.001952	53.9684	-42.3533	12.326	-0.022738	0.891496	-0.256591	-0.258005	-0.007618	53.9684	-0.256486	-1035.07	7.359793E-6	NaN
764	1.000000	0.902923	7.37253e+06	-38889.1	1005.82	-29795.8	0.000000	0.000000	6.903124	-0.056528	NaN	0.000000	0.001733	0.001778	28.081	0.013574	0.001963	6.915384	18.8596	-165.506	-0.039138	0.901596	-0.246578	-0.247905	-0.056528	6.915384	-0.240448	-584.177	9.676435E-5	NaN
764	1.000000	0.912927	7.37253e+06	-38889.1	1005.82	-29795.8	0.000000	0.000000	6.913131	0.022023	NaN	0.000000	0.001737	0.001826	28.0813	0.034260	0.002030	16.8728	106.861	16.0789	-0.083458	0.911592	-0.236575	-0.237909	0.022023	16.8728	-0.237554	-526.375	-4.183913E-5	NaN
764	1.000000	0.922890	7.37253e+06	-38889.1	1005.82	-29795.8	0.000000	0.000000	6.923092	-0.032706	NaN	0.000000	0.001699	0.001783	28.081	0.087211	0.002041	42.7277	141.26	-161.516	-0.099945	0.921600	-0.226612	-0.227902	-0.032706	42.7277	-0.226038	-346.581	9.436812E-5	NaN
764	1.000000	0.932907	7.37253e+06	-38889.1	1005.82	-29795.8	0.000000	0.000000	6.933109	-0.037003	NaN	0.000000	0.001690	0.001789	28.0811	0.073597	0.001939	37.9552	6.812613	12.9698	-0.008642	0.931494	-0.216594	-0.218007	-0.037003	37.9552	-0.215863	-238.445	0.000155	NaN
764	1.000000	0.942922	7.37253e+06	-38889.1	1005.82	-29795.8	0.000000	0.000000	6.943124	-0.024753	NaN	0.000000	0.001713	0.001781	28.0811	0.059290	0.002051	28.9139	-80.7969	-167.523	0.042959	0.941593	-0.206580	-0.207908	-0.024753	28.9139	-0.205938	-164.756	0.000150	NaN
764	1.000000	0.952928	7.37253e+06	-38889.1	1005.82	-29795.8	0.000000	0.000000	6.953129	-0.051546	NaN	0.000000	0.001714	0.001813	28.0809	0.043700	0.001921	22.7486	81.2677	14.3729	-0.013391	0.951603	-0.196573	-0.197898	-0.051546	22.7486	-0.194874	-108.42	0.000475	NaN
764	1.000000	0.962897	7.37253e+06	-38889.1	1005.82	-29795.8	0.000000	0.000000	6.963097	-0.067711	NaN	0.000000	0.001723	0.001825	28.081	0.077065	0.002026	38.0314	141.659	-166.487	-0.083038	0.961612	-0.186605	-0.187889	-0.067711	38.0314	-0.185269	-74.9323	0.000904	NaN
764	1.000000	0.972918	7.37253e+06	-38889.1	1005.82	-29795.8	0.000000	0.000000	6.973121	-0.008755	NaN	0.000000	0.001734	0.001817	28.0796	0.126011	0.001961	64.2728	43.7092	13.6508	-0.001701	0.971522	-0.176583	-0.177979	-0.008755	64.2728	-0.176481	-53.1365	0.000165	NaN
764	1.000000	0.982926	7.37253e+06	-38889.1	1005.82	-29795.8	0.000000	0.000000	6.983126	-0.067054	NaN	0.000000	0.001732	0.001820	28.0799	0.090089	0.001985	45.3851	156.156	-165.414	-0.008681	0.981604	-0.166576	-0.167897	-0.067054	45.3851	-0.165467	-34.2382	0.001958	NaN
764	1.000000	0.992945	7.37253e+06	-38889.1	1005.82	-29795.8	0.000000	0.000000	6.993145	-0.092731	NaN	0.000000	0.001735	0.001797	28.0794	0.092716	0.002011	46.098	-71.065	14.2321	-0.066802	0.991556	-0.156556	-0.157945	-0.092731	46.098	-0.155047	-22.358	0.004148	NaN
764	1.000000	1.002938	7.37253e+06	-38889.1	1005.82	-29795.8	0.000000	0.000000	7.003139	-0.057225	NaN	0.000000	0.001694	0.001816	28.0796	0.053720	0.001979	27.1475	-11.4834	-166.856	-0.109301	1.001648	-0.146563	-0.147854	-0.057225	27.1475	-0.144982	-14.6502	0.003906	NaN
764	1.000000	1.012919	7.37253e+06	-38889.1	1005.82	-29795.8	0.000000	0.000000	7.013122	-0.003035	NaN	0.000000	0.001701	0.001782	28.0797	0.053214	0.001816	29.31	137.81	11.3299	-0.056276	1.011581	-0.136582	-0.137920	-0.003035	29.31	-0.136505	-10.1611	0.000299	NaN
764	1.000000	1.022939	7.37253e+06	-38889.1	1005.82	-29795.8	0.000000	0.000000	7.023143	0.011757	NaN	0.000000	0.001743	0.001834	28.0799	0.096129	0.001971	48.773	-88.172	-167.284	-0.018637	1.021612	-0.126562	-0.127889	0.011757	48.773	-0.126743	-6.582252	-0.001786	NaN
764	1.000000	1.032979	7.37253e+06	-38889.1	1005.82	-29795.8	0.000000	0.000000	7.033183	0.006509	NaN	0.000000	0.001762	0.001827	28.0797	0.078445	0.001954	40.1412	80.4799	11.4211	-0.035488	1.031591	-0.116522	-0.117911	0.006509	40.1412	-0.116644	-4.129234	-0.001576	NaN
764	1.000000	1.042950	7.37253e+06	-38889.1	1005.82	-29795.8	0.000000	0.000000	7.043150	-0.078590	NaN	0.000000	0.001760	0.001803	28.0798	0.044828	0.002092	21.4314	81.5994	-169.634	-0.042196	1.041709	-0.106551	-0.107792	-0.078590	21.4314	-0.103801	-2.214070	0.035496	NaN
764	1.000000	1.052947	7.37253e+06	-38889.1	1005.82	-29795.8	0.000000	0.000000	7.053147	-0.092276	NaN	0.000000	0.001771	0.001800	28.0797	0.028769	0.002053	14.0153	165.809	13.1947	0.007422	1.051606	-0.096554	-0.097896	-0.092276	14.0153	-0.091616	-1.179104	0.078259	NaN
764	1.000000	1.062962	7.37253e+06	-38889.1	1005.82	-29795.8	0.000000	0.000000	7.063166	0.003802	NaN	0.000000	0.001756	0.001767	28.0799	0.013339	0.001883	7.084530	-88.5506	-165.534	0.012896	1.061638	-0.086539	-0.087863	0.003802	7.084530	-0.086941	-0.914915	-0.004155	NaN
764	1.000000	1.072937	7.37253e+06	-38889.1	1005.82	-29795.8	0.000000	0.000000	7.073141	0.011004	NaN	0.000000	0.001740	0.001799	28.0798	0.028615	0.001948	14.6918	5.102414	13.762	-0.012447	1.071683	-0.076564	-0.077818	0.011004	14.6918	-0.077126	-0.523751	-0.021009	NaN
764	1.000000	1.082961	7.37253e+06	-38889.1	1005.82	-29795.8	0.000000	0.000000	7.083162	-0.066022	NaN	0.000000	0.001769	0.001800	28.0796	0.011403	0.001995	5.714355	-43.6664	-164.227	-0.027680	1.081698	-0.066540	-0.067803	-0.066022	5.714355	-0.057875	-0.156362	0.422236	NaN
764	1.000000	1.092972	7.37253e+06	-38889.1	1005.82	-29795.8	0.000000	0.000000	7.093174	-0.027690	NaN	0.000000	0.001764	0.001791	28.08	0.121537	0.001930	62.9593	76.1123	10.8394	-0.039370	1.091627	-0.056529	-0.057874	-0.027690	62.9593	-0.056199	-0.139691	0.198221	NaN
764	1.000000	1.102980	7.37253e+06	-38889.1	1005.82	-29795.8	0.000000	0.000000	7.103180	-0.075743	NaN	0.000000	0.001713	0.001805	28.0798	0.043322	0.001917	22.5931	-163.32	-164.143	-0.132912	1.101643	-0.046521	-0.047858	-0.075743	22.5931	-0.044007	-0.059927	1.263914	NaN
764	1.000000	1.112983	7.37253e+06	-38889.1	1005.82	-29795.8	0.000000	0.000000	7.113188	0.031798	NaN	0.000000	0.001713	0.001791	28.0811	0.077810	0.002073	37.5383	-78.2557	17.0687	-0.002356	1.111633	-0.036518	-0.037869	0.031798	37.5383	-0.037153	-0.037107	-0.856939	NaN
764	1.000000	1.122953	7.37253e+06	-38889.1	1005.82	-29795.8	0.000000	0.000000	7.123154	-0.050427	NaN	0.000000	0.001698	0.001786	28.0811	0.032829	0.002028	16.1848	-132.365	-164.769	-0.001125	1.121645	-0.026548	-0.027856	-0.050427	16.1848	-0.024212	-0.016092	3.133660	NaN
764	1.000000	1.132991	7.37253e+06	-38889.1	1005.82	-29795.8	0.000000	0.000000	7.133190	-0.102444	NaN	0.000000	0.001682	0.001821	28.0813	0.049786	0.001943	25.6197	-114.608	12.62	-0.022627	1.131645	-0.016510	-0.017856	-0.102444	25.6197	-0.013511	-0.008398	12.1983	NaN
764	1.000000	1.143013	7.37253e+06	-38889.1	1005.82	-29795.8	0.000000	0.000000	7.143216	-0.004846	NaN	0.000000	0.001714	0.001792	28.0809	0.077079	0.001912	40.3228	-169.666	-166.64	-0.032643	1.141690	-0.006489	-0.007811	-0.004846	40.3228	-0.006398	-0.004279	1.132478	NaN
764	1.000000	1.152968	7.37253e+06	-38889.1	1005.82	-29795.8	0.000000	0.000000	7.153416	5.944953	NaN	0.000000	0.001701	0.001798	28.0812	5.967734	0.001864	3201.24	10.3028	8.222250	4.175144	1.151639	0.003467	0.002137	5.944953	3201.24	0.002074	0.001615	3681.69	72784.9
764	2.000000	1.157594	7.37253e+06	-38889.1	1005.82	-29795.8	0.000000	0.000000	7.158218	10.2562	NaN	0.000000	0.001685	0.001804	28.0813	9.919715	0.001861	5329.63	1.682596	-169.508	9.752302	1.157273	0.008092	0.007772	10.2562	5329.63	0.006649	0.005689	1802.77	64557.4
764	2.000000	1.160106	7.37253e+06	-38889.1	1005.82	-29795.8	0.000000	0.000000	7.160703	9.589213	NaN	0.000000	0.001713	0.001821	28.0813	11.1952	0.001837	6093.83	8.938909	4.215299	9.987240	1.159787	0.010605	0.010285	9.589213	6093.83	0.009424	0.008549	1121.69	60215.6
764	2.000000	1.162532	7.37253e+06	-38889.1	1005.82	-29795.8	0.000000	0.000000	7.163255	12.6624	NaN	0.000000	0.001703	0.001809	28.081	13.5817	0.001691	8032.91	4.703130	-174.005	12.6375	1.162266	0.013030	0.012764	12.6624	8032.91	0.011848	0.011309	1119.71	69014.4
764	2.000000	1.165022	7.37253e+06	-38889.1	1005.82	-29795.8	0.000000	0.000000	7.166015	19.2307	NaN	0.000000	0.001686	0.001781	28.0816	16.5187	0.001731	9544.19	3.963649	4.925861	17.7067	1.164621	0.015520	0.015119	19.2307	9544.19	0.014009	0.013987	1374.95	73732.2
764	2.000000	1.167490	7.37253e+06	-38889.1	1005.82	-29795.8	0.000000	0.000000	7.168790	26.6755	NaN	0.000000	0.001704	0.001792	28.0812	19.6232	0.001883	10419.8	2.854150	-175.687	24.9317	1.167207	0.017989	0.017705	26.6755	10419.8	0.016069	0.016737	1593.79	73585.5
764	2.000000	1.169998	7.37253e+06	-38889.1	1005.82	-29795.8	0.000000	0.000000	7.171270	26.0144	NaN	0.000000	0.001719	0.001785	28.0815	20.9217	0.001759	11894.6	3.542500	3.346781	23.5312	1.169665	0.020497	0.020163	26.0144	11894.6	0.018856	0.020777	1252.08	75393.4
764	2.000000	1.172511	7.37253e+06	-38889.1	1005.82	-29795.8	0.000000	0.000000	7.174020	31.7985	NaN	0.000000	0.001705	0.001805	28.0811	22.929	0.001794	12782.8	3.479488	-177.19	30.5129	1.172234	0.023009	0.022733	31.7985	12782.8	0.021143	0.024371	1304.76	74810.6
764	2.000000	1.175000	7.37253e+06	-38889.1	1005.82	-29795.8	0.000000	0.000000	7.176825	39.4647	NaN	0.000000	0.001705	0.001809	28.0809	25.9776	0.001767	14702.8	5.882745	-1.383431	37.5705	1.174634	0.025499	0.025132	39.4647	14702.8	0.023485	0.028318	1393.64	79825.7
764	2.000000	1.177486	7.37253e+06	-38889.1	1005.82	-29795.8	0.000000	0.000000	7.179502	44.1314	NaN	0.000000	0.001671	0.001808	28.0802	28.943	0.001871	15467	6.276350	178.163	43.2298	1.177181	0.027984	0.027679	44.1314	15467	0.025844	0.032569	1354.99	78302.3
764	2.000000	1.180002	7.37253e+06	-38889.1	1005.82	-29795.8	0.000000	0.000000	7.182242	49.5554	NaN	0.000000	0.001686	0.001800	28.0798	29.9138	0.001823	16410.3	6.232097	-0.718812	47.2452	1.179578	0.030501	0.030077	49.5554	16410.3	0.028236	0.037167	1333.32	77769.7
764	2.000000	1.182459	7.37253e+06	-38889.1	1005.82	-29795.8	0.000000	0.000000	7.185001	56.918	NaN	0.000000	0.001655	0.001789	28.0796	33.6858	0.001807	18636.8	7.684194	175.271	54.9837	1.182165	0.032957	0.032664	56.918	18636.8	0.030667	0.042137	1350.79	82949.5
764	2.000000	1.184951	7.37253e+06	-38889.1	1005.82	-29795.8	0.000000	0.000000	7.188020	69.7581	NaN	0.000000	0.001660	0.001787	28.0801	35.3505	0.001834	19273.9	5.481135	-0.897227	68.5551	1.184569	0.035449	0.035068	69.7581	19273.9	0.032735	0.046603	1496.85	81570.9
764	2.000000	1.187456	7.37253e+06	-38889.1	1005.82	-29795.8	0.000000	0.000000	7.190928	79.5639	NaN	0.000000	0.001653	0.001793	28.0797	38.5458	0.001771	21763.1	5.750314	176.177	78.5666	1.187134	0.037954	0.037633	79.5639	21763.1	0.035212	0.052242	1522.99	86993.2
764	2.000000	1.189943	7.37253e+06	-38889.1	1005.82	-29795.8	0.000000	0.000000	7.193668	85.7275	NaN	0.000000	0.001628	0.001771	28.0796	40.8244	0.001746	23377.8	9.171121	-7.762036	82.1753	1.189636	0.040441	0.040134	85.7275	23377.8	0.037691	0.058197	1473.06	88537.4
764	2.000000	1.192471	7.37253e+06	-38889.1	1005.82	-29795.8	0.000000	0.000000	7.196866	102.019	NaN	0.000000	0.001625	0.001745	28.0798	41.877	0.001767	23698	4.353229	177.769	100.367	1.192052	0.042969	0.042550	102.019	23698	0.039741	0.063360	1610.16	86016
764	2.000000	1.194937	7.37253e+06	-38889.1	1005.82	-29795.8	0.000000	0.000000	7.199586	108.188	NaN	0.000000	0.001662	0.001748	28.0806	44.859	0.001841	24372.6	6.814851	-6.073713	105.742	1.194574	0.045436	0.045073	108.188	24372.6	0.042107	0.069587	1554.72	84413.6
764	2.000000	1.197449	7.37253e+06	-38889.1	1005.82	-29795.8	0.000000	0.000000	7.202287	112.79	NaN	0.000000	0.001657	0.001740	28.0798	47.7742	0.001816	26312.2	5.217469	174.625	112.113	1.197156	0.047948	0.047655	112.79	26312.2	0.044733	0.076831	1468.03	86728.6
764	2.000000	1.199964	7.37253e+06	-38889.1	1005.82	-29795.8	0.000000	0.000000	7.205473	129.127	NaN	0.000000	0.001655	0.001785	28.0797	49.2022	0.001818	27068	6.758420	-5.939463	125.781	1.199538	0.050462	0.050036	129.127	27068	0.046884	0.083027	1555.24	85826.2
764	2.000000	1.202467	7.37253e+06	-38889.1	1005.82	-29795.8	0.000000	0.000000	7.208162	133.646	NaN	0.000000	0.001672	0.001782	28.0799	52.1774	0.001768	29507.8	6.595040	173.25	133.479	1.202189	0.052966	0.052687	133.646	29507.8	0.049569	0.091085	1467.27	89327.8
764	2.000000	1.204914	7.37253e+06	-38889.1	1005.82	-29795.8	0.000000	0.000000	7.211177	147.474	NaN	0.000000	0.001666	0.001769	28.0803	55.0894	0.001883	29257.3	5.223632	-4.354352	145.379	1.204567	0.055412	0.055065	147.474	29257.3	0.051632	0.097523	1512.19	85596
764	2.000000	1.207496	7.37253e+06	-38889.1	1005.82	-29795.8	0.000000	0.000000	7.214070	155.023	NaN	0.000000	0.001647	0.001777	28.08	56.5471	0.001781	31754.6	5.268275	175.274	156.937	1.207143	0.057995	0.057642	155.023	31754.6	0.054333	0.106276	1458.68	88994.4
764	2.000000	1.210073	7.37253e+06	-38889.1	1005.82	-29795.8	0.000000	0.000000	7.217145	167.16	NaN	0.000000	0.001620	0.001794	28.0798	60.0926	0.001865	32226.6	10.2224	-9.625623	172.818	1.209471	0.060572	0.059970	167.16	32226.6	0.056682	0.114178	1464.03	87135.5
764	2.000000	1.212423	7.37253e+06	-38889.1	1005.82	-29795.8	0.000000	0.000000	7.220019	179.925	NaN	0.000000	0.001652	0.001789	28.0811	60.9874	0.001707	35735.2	5.479723	173.177	178.901	1.212081	0.062921	0.062579	179.925	35735.2	0.059145	0.122761	1465.66	93183.6
764	2.000000	1.214844	7.37253e+06	-38889.1	1005.82	-29795.8	0.000000	0.000000	7.222662	185.324	NaN	0.000000	0.001682	0.001771	28.0814	64.435	0.001775	36293.8	3.983000	-6.410534	181.596	1.214671	0.065342	0.065170	185.324	36293.8	0.061513	0.131288	1411.58	91515.1
764	2.000000	1.217503	7.37253e+06	-38889.1	1005.82	-29795.8	0.000000	0.000000	7.225898	199.341	NaN	0.000000	0.001670	0.001797	28.0812	67.35	0.001719	39174.8	4.114731	173.144	202.534	1.217200	0.068002	0.067699	199.341	39174.8	0.064185	0.141242	1411.34	95235.3
764	2.000000	1.219925	7.37253e+06	-38889.1	1005.82	-29795.8	0.000000	0.000000	7.228742	209.606	NaN	0.000000	0.001642	0.001768	28.0811	69.6505	0.001864	37365.6	6.119212	-8.496285	207.02	1.219681	0.070424	0.070180	209.606	37365.6	0.066217	0.149039	1406.38	88429.2
764	2.000000	1.222378	7.37253e+06	-38889.1	1005.82	-29795.8	0.000000	0.000000	7.231846	225.476	NaN	0.000000	0.001640	0.001766	28.0812	70.9951	0.001842	38548	4.874304	172.836	223.364	1.222053	0.072876	0.072552	225.476	38548	0.068489	0.157997	1427.09	88603.7
764	2.000000	1.224921	7.37253e+06	-38889.1	1005.82	-29795.8	0.000000	0.000000	7.235178	244.654	NaN	0.000000	0.001642	0.001724	28.0813	74.0714	0.001828	40513.8	9.278923	-12.6537	242.29	1.224619	0.075420	0.075117	244.654	40513.8	0.070891	0.167731	1458.61	90379.4
764	2.000000	1.227407	7.37253e+06	-38889.1	1005.82	-29795.8	0.000000	0.000000	7.238408	262.767	NaN	0.000000	0.001660	0.001736	28.0812	75.5894	0.001802	41951.7	5.216980	171.351	261.226	1.227129	0.077906	0.077628	262.767	41951.7	0.073208	0.177383	1481.35	91005.3
764	2.000000	1.229881	7.37253e+06	-38889.1	1005.82	-29795.8	0.000000	0.000000	7.241211	270.777	NaN	0.000000	0.001707	0.001745	28.0812	76.485	0.001768	43270.8	2.125815	-5.575108	265.249	1.229614	0.080379	0.080113	270.777	43270.8	0.075686	0.187984	1440.42	91181.5
764	2.000000	1.232411	7.37253e+06	-38889.1	1005.82	-29795.8	0.000000	0.000000	7.244626	292.32	NaN	0.000000	0.001676	0.001781	28.0813	79.0502	0.001805	43800.5	6.767038	170.731	289.876	1.232065	0.082909	0.082563	292.32	43800.5	0.077904	0.197718	1478.47	89997.2
764	2.000000	1.234939	7.37253e+06	-38889.1	1005.82	-29795.8	0.000000	0.000000	7.247556	302.091	NaN	0.000000	0.001702	0.001750	28.0811	81.283	0.001798	45198.6	6.396294	-9.864187	299.912	1.234623	0.085438	0.085122	302.091	45198.6	0.080425	0.209061	1444.99	90315.3
764	2.000000	1.237408	7.37253e+06	-38889.1	1005.82	-29795.8	0.000000	0.000000	7.250530	314.378	NaN	0.000000	0.001654	0.001800	28.0812	83.9091	0.001711	49032.3	3.213899	172.361	312.594	1.237152	0.087907	0.087650	314.378	49032.3	0.083098	0.221412	1419.88	95203.8
764	2.000000	1.239925	7.37253e+06	-38889.1	1005.82	-29795.8	0.000000	0.000000	7.254041	338.561	NaN	0.000000	0.001739	0.001792	28.0813	85.9648	0.001784	48186.5	8.557620	-12.2255	335.771	1.239435	0.090424	0.089933	338.561	48186.5	0.085154	0.231139	1464.75	91571.9
764	2.000000	1.242472	7.37253e+06	-38889.1	1005.82	-29795.8	0.000000	0.000000	7.257008	348.797	NaN	0.000000	0.001705	0.001825	28.0812	87.4909	0.001782	49101	5.541796	170.636	351.749	1.242052	0.092970	0.092551	348.797	49101	0.087643	0.243168	1434.38	90972.4
764	2.000000	1.244879	7.37253e+06	-38889.1	1005.82	-29795.8	0.000000	0.000000	7.259814	358.51	NaN	0.000000	0.001691	0.001736	28.0812	90.9168	0.001747	52053.3	6.446873	-11.5295	355.291	1.244596	0.095377	0.095094	358.51	52053.3	0.090212	0.255889	1401.04	94014.7
764	2.000000	1.247338	7.37253e+06	-38889.1	1005.82	-29795.8	0.000000	0.000000	7.262988	375.909	NaN	0.000000	0.001709	0.001723	28.08	93.4895	0.001780	52532.4	3.514139	171.868	372.95	1.247127	0.097836	0.097625	375.909	52532.4	0.092469	0.267317	1406.23	92829.7
764	2.000000	1.249818	7.37253e+06	-38889.1	1005.82	-29795.8	0.000000	0.000000	7.266222	394.247	NaN	0.000000	0.001627	0.001772	28.0799	94.7104	0.001814	52216	1.254244	-5.832847	386.725	1.249524	0.100317	0.100023	394.247	52216	0.094654	0.278597	1415.12	90383.4
764	2.000000	1.252365	7.37253e+06	-38889.1	1005.82	-29795.8	0.000000	0.000000	7.269292	406.988	NaN	0.000000	0.001672	0.001738	28.08	98.7383	0.001855	53236.8	7.104415	167.995	403.629	1.252094	0.102864	0.102593	406.988	53236.8	0.097130	0.291645	1395.49	90065.5
764	2.000000	1.254453	7.37253e+06	-38889.1	1005.82	-29795.8	0.000000	0.000000	7.271992	421.863	NaN	0.000000	0.001624	0.001770	28.0798	100.46	0.001839	54629.2	6.890698	168.682	423.95	1.254016	0.104952	0.104515	421.863	54629.2	0.099160	0.302553	1394.34	90739.7