File: remote_trans/data/nanoindenter/0828-1/data/Data_2025-08-06,11h17m57s/2025-07-22_16-23-58_1_164.txt
2025-07-22, 16:23:58, 1
Index	Phase	Displacement	Time	Pos X	Pos Y	Pos Z	Rot A	Rot B	Piezo Z	Force A	Force B	Gripper	Voltage A	Voltage B	Temperature	Amplitude force	Amplitude pos	Stiffness	Phase shift	Phase excitation	Force A raw	Displacement raw	HMax	HMax raw	Real Force	Real Stiffness	Contact Depth	Area	Hardness	Reduced Mod.
[#]	[#]	[um]	[s]	[um]	[um]	[um]	[m°]	[m°]	[um]	[uN]	[uN]	[V]	[V]	[V]	[°C]	[uN]	[um]	[N/m]	[°]	[°]	[uN]	[um]	[um]	[um]	[uN]	[N/m]	[um]	[um^2]	[MPa]	[MPa]
164	1.000000	0.002543	7.36664e+06	-46839.1	955.818	-29768.3	0.000000	0.000000	6.002801	-0.016874	NaN	0.000000	0.001543	0.001823	28.1257	0.048752	0.000917	53.1401	68.8243	-163.685	0.018694	0.001254	-1.118900	-1.120190	-0.016874	53.1401	-1.118662	-8.923140E+14	1.891043E-17	NaN
164	1.000000	0.012591	7.36664e+06	-46839.1	955.818	-29768.3	0.000000	0.000000	6.012852	0.037193	NaN	0.000000	0.001559	0.001785	28.0855	0.070888	0.001152	61.5586	-126.281	14.7614	-0.020289	0.011120	-1.108852	-1.110323	0.037193	61.5586	-1.109305	-6.682814E+14	-5.565505E-17	NaN
164	1.000000	0.022502	7.36664e+06	-46839.1	955.818	-29768.3	0.000000	0.000000	6.022762	0.008923	NaN	0.000000	0.001597	0.001789	28.0829	0.004489	0.001772	2.533005	33.9106	-168.093	0.028445	0.021205	-1.098941	-1.100238	0.008923	2.533005	-1.101583	-5.263962E+14	-1.695054E-17	NaN
164	1.000000	0.032484	7.36664e+06	-46839.1	955.818	-29768.3	0.000000	0.000000	6.032743	0.003131	NaN	0.000000	0.001604	0.001789	28.117	0.091692	0.001929	47.5242	-29.7174	15.8646	-0.039926	0.031118	-1.088959	-1.090326	0.003131	47.5242	-1.089008	-3.568596E+14	-8.774460E-18	NaN
164	1.000000	0.042483	7.36664e+06	-46839.1	955.818	-29768.3	0.000000	0.000000	6.042741	-0.026826	NaN	0.000000	0.001565	0.001786	28.1248	0.061430	0.002039	30.1313	-92.8633	-165.748	0.011321	0.041222	-1.078960	-1.080222	-0.026826	30.1313	-1.078293	-2.562051E+14	1.047071E-16	NaN
164	1.000000	0.052493	7.36664e+06	-46839.1	955.818	-29768.3	0.000000	0.000000	6.052752	0.009110	NaN	0.000000	0.001574	0.001755	28.0839	0.044472	0.001960	22.6868	-20.0613	12.4327	-0.024278	0.051116	-1.068950	-1.070327	0.009110	22.6868	-1.069251	-1.937004E+14	-4.702998E-17	NaN
164	1.000000	0.062502	7.36664e+06	-46839.1	955.818	-29768.3	0.000000	0.000000	6.062762	0.019940	NaN	0.000000	0.001600	0.001755	28.0825	0.077625	0.001942	39.9747	-54.1342	-167.749	-0.048079	0.061171	-1.058941	-1.060272	0.019940	39.9747	-1.059315	-1.424341E+14	-1.399931E-16	NaN
164	1.000000	0.072500	7.36664e+06	-46839.1	955.818	-29768.3	0.000000	0.000000	6.072756	-0.059889	NaN	0.000000	0.001567	0.001778	28.117	0.109989	0.002014	54.6204	-1.842554	15.1861	-0.019326	0.071161	-1.048944	-1.050282	-0.059889	54.6204	-1.048121	-1.007302E+14	5.945483E-16	NaN
164	1.000000	0.082520	7.36664e+06	-46839.1	955.819	-29768.3	0.000000	0.000000	6.082779	0.005611	NaN	0.000000	0.001596	0.001744	28.1242	0.081062	0.001884	43.0356	-127.373	-162.174	-0.001154	0.081162	-1.038923	-1.040281	0.005611	43.0356	-1.039021	-7.599785E+13	-7.383659E-17	NaN
164	1.000000	0.092510	7.36664e+06	-46839.1	955.818	-29768.3	0.000000	0.000000	6.092773	0.092861	NaN	0.000000	0.001572	0.001750	28.0858	0.165522	0.001981	83.5352	-93.4426	11.4818	-0.024145	0.091174	-1.028933	-1.030269	0.092861	83.5352	-1.029767	-5.706111E+13	-1.627397E-15	NaN
164	1.000000	0.102475	7.36664e+06	-46839.1	955.818	-29768.3	0.000000	0.000000	6.102735	0.010205	NaN	0.000000	0.001572	0.001790	28.0816	0.048493	0.002051	23.6414	65.1735	-166.482	-0.040304	0.101210	-1.018968	-1.020233	0.010205	23.6414	-1.019292	-4.124962E+13	-2.474052E-16	NaN
164	1.000000	0.112515	7.36664e+06	-46839.1	955.818	-29768.3	0.000000	0.000000	6.112776	0.040218	NaN	0.000000	0.001602	0.001779	28.1151	0.043525	0.002145	20.2865	-114.908	14.0048	0.031367	0.111161	-1.008928	-1.010282	0.040218	20.2865	-1.010415	-3.133065E+13	-1.283664E-15	NaN
164	1.000000	0.122513	7.36664e+06	-46839.1	955.819	-29768.3	0.000000	0.000000	6.122773	0.019087	NaN	0.000000	0.001572	0.001743	28.1234	0.109141	0.001989	54.8741	-124.764	-167.581	-0.034237	0.121219	-0.998930	-1.000225	0.019087	54.8741	-0.999191	-2.212443E+13	-8.627330E-16	NaN
164	1.000000	0.132513	7.36664e+06	-46839.1	955.819	-29768.3	0.000000	0.000000	6.132771	-0.007560	NaN	0.000000	0.001575	0.001780	28.0859	0.059505	0.001989	29.9235	-176.836	15.2258	0.040625	0.131189	-0.988931	-0.990254	-0.007560	29.9235	-0.988741	-1.600143E+13	4.724550E-16	NaN
164	1.000000	0.142503	7.36664e+06	-46839.1	955.818	-29768.3	0.000000	0.000000	6.142761	-0.011429	NaN	0.000000	0.001582	0.001759	28.0837	0.098260	0.001867	52.6325	169.23	-164.82	-0.010148	0.141239	-0.978940	-0.980204	-0.011429	52.6325	-0.978778	-1.174736E+13	9.728876E-16	NaN
164	1.000000	0.152549	7.36664e+06	-46839.1	955.819	-29768.3	0.000000	0.000000	6.152806	-0.035148	NaN	0.000000	0.001599	0.001772	28.118	0.091708	0.002068	44.3512	-142.65	15.5507	-0.012513	0.151198	-0.968895	-0.970245	-0.035148	44.3512	-0.968300	-8.487017E+12	4.141354E-15	NaN
164	1.000000	0.162557	7.36664e+06	-46839.1	955.818	-29768.3	0.000000	0.000000	6.162815	-0.015400	NaN	0.000000	0.001668	0.001788	28.1253	0.027374	0.001939	14.1152	78.6614	-162.272	-0.024759	0.161159	-0.958886	-0.960284	-0.015400	14.1152	-0.958068	-6.177658E+12	2.492841E-15	NaN
164	1.000000	0.172533	7.36664e+06	-46839.1	955.819	-29768.3	0.000000	0.000000	6.172793	0.031618	NaN	0.000000	0.001617	0.001751	28.0864	0.032045	0.001931	16.5921	-122.373	15.616	0.060371	0.171205	-0.948911	-0.950239	0.031618	16.5921	-0.950340	-4.859704E+12	-6.506060E-15	NaN
164	1.000000	0.182548	7.36664e+06	-46839.1	955.818	-29768.3	0.000000	0.000000	6.182809	0.048222	NaN	0.000000	0.001600	0.001764	28.0824	0.132082	0.002034	64.9348	-77.7658	-163.316	-0.007489	0.181229	-0.938896	-0.940214	0.048222	64.9348	-0.939452	-3.465376E+12	-1.391534E-14	NaN
164	1.000000	0.192562	7.36664e+06	-46839.1	955.819	-29768.3	0.000000	0.000000	6.192820	-0.016085	NaN	0.000000	0.001602	0.001773	28.1172	0.122965	0.001862	66.0303	-14.9965	13.779	-0.148437	0.191149	-0.928881	-0.930294	-0.016085	66.0303	-0.928698	-2.481018E+12	6.483159E-15	NaN
164	1.000000	0.202555	7.36664e+06	-46839.1	955.819	-29768.3	0.000000	0.000000	6.202815	0.025594	NaN	0.000000	0.001570	0.001753	28.1255	0.014437	0.001889	7.644182	58.2634	-164.586	-0.036545	0.201248	-0.918888	-0.920195	0.025594	7.644182	-0.921399	-1.977414E+12	-1.294335E-14	NaN
164	1.000000	0.212559	7.36664e+06	-46839.1	955.818	-29768.3	0.000000	0.000000	6.212820	0.053769	NaN	0.000000	0.001565	0.001728	28.0863	0.133606	0.001820	73.4165	-151.296	15.8658	0.047682	0.211177	-0.908885	-0.910267	0.053769	73.4165	-0.909434	-1.363066E+12	-3.944716E-14	NaN
164	1.000000	0.222587	7.36664e+06	-46839.1	955.819	-29768.3	0.000000	0.000000	6.222849	0.077867	NaN	0.000000	0.001628	0.001746	28.0835	0.028745	0.001956	14.6938	64.6047	-166.335	0.053017	0.221231	-0.898857	-0.900212	0.077867	14.6938	-0.902831	-1.109986E+12	-7.015096E-14	NaN
164	1.000000	0.232594	7.36664e+06	-46839.1	955.818	-29768.3	0.000000	0.000000	6.232853	0.009110	NaN	0.000000	0.001584	0.001777	28.1179	0.014636	0.002050	7.139197	121.306	12.6483	0.061973	0.231227	-0.888849	-0.890216	0.009110	7.139197	-0.889806	-7.401146E+11	-1.230861E-14	NaN
164	1.000000	0.242589	7.36664e+06	-46839.1	955.818	-29768.3	0.000000	0.000000	6.242845	-0.066876	NaN	0.000000	0.001615	0.001731	28.1268	0.070656	0.001896	37.2723	-83.8811	-165.352	-0.040589	0.241291	-0.878854	-0.880152	-0.066876	37.2723	-0.877508	-5.046748E+11	1.325139E-13	NaN
164	1.000000	0.252566	7.36664e+06	-46839.1	955.819	-29768.3	0.000000	0.000000	6.252827	0.035687	NaN	0.000000	0.001610	0.001744	28.0873	0.062984	0.001912	32.9496	162.606	14.7511	0.068172	0.251215	-0.868877	-0.870228	0.035687	32.9496	-0.869689	-3.955827E+11	-9.021373E-14	NaN
164	1.000000	0.262598	7.36664e+06	-46839.1	955.818	-29768.3	0.000000	0.000000	6.262857	0.003595	NaN	0.000000	0.001580	0.001745	28.0847	0.077193	0.001879	41.0829	-44.0719	-162.888	-0.026128	0.261268	-0.858845	-0.860176	0.003595	41.0829	-0.858911	-2.827354E+11	-1.271380E-14	NaN
164	1.000000	0.272584	7.36664e+06	-46839.1	955.818	-29768.3	0.000000	0.000000	6.272844	0.013476	NaN	0.000000	0.001566	0.001749	28.1165	0.117127	0.001998	58.6113	171.05	16.8336	0.015527	0.271225	-0.848859	-0.850218	0.013476	58.6113	-0.849031	-2.077889E+11	-6.485537E-14	NaN
164	1.000000	0.282602	7.36664e+06	-46839.1	955.818	-29768.3	0.000000	0.000000	6.282863	0.038629	NaN	0.000000	0.001523	0.001717	28.1264	0.154132	0.001916	80.4331	55.6922	-166.014	0.059127	0.281235	-0.838841	-0.840208	0.038629	80.4331	-0.839201	-1.529221E+11	-2.526088E-13	NaN
164	1.000000	0.292576	7.36664e+06	-46839.1	955.818	-29768.3	0.000000	0.000000	6.292835	-0.013507	NaN	0.000000	0.001544	0.001734	28.0874	0.055880	0.001887	29.6092	-61.6486	12.9982	-0.116155	0.291247	-0.828867	-0.830196	-0.013507	29.6092	-0.828525	-1.095949E+11	1.232427E-13	NaN
164	1.000000	0.302588	7.36664e+06	-46839.1	955.818	-29768.3	0.000000	0.000000	6.302850	0.094952	NaN	0.000000	0.001576	0.001707	28.0847	0.143691	0.002095	68.5779	129.739	-167.043	0.080369	0.301326	-0.818856	-0.820117	0.094952	68.5779	-0.819894	-8.370956E+10	-1.134305E-12	NaN
164	1.000000	0.312600	7.36664e+06	-46839.1	955.818	-29768.3	0.000000	0.000000	6.312857	-0.041718	NaN	0.000000	0.001594	0.001726	28.1175	0.079920	0.001954	40.9083	147.296	15.1997	0.027394	0.311246	-0.808844	-0.810197	-0.041718	40.9083	-0.808079	-5.787679E+10	7.208090E-13	NaN
164	1.000000	0.322607	7.36664e+06	-46839.1	955.818	-29768.3	0.000000	0.000000	6.322865	-0.017049	NaN	0.000000	0.001603	0.001758	28.1273	0.083883	0.001976	42.4462	-163.392	-165.197	0.016327	0.321351	-0.798836	-0.800092	-0.017049	42.4462	-0.798535	-4.295140E+10	3.969406E-13	NaN
164	1.000000	0.332609	7.36664e+06	-46839.1	955.818	-29768.3	0.000000	0.000000	6.332870	0.030374	NaN	0.000000	0.001590	0.001745	28.0872	0.072913	0.001984	36.7429	152.346	14.4111	0.064300	0.331241	-0.788834	-0.790202	0.030374	36.7429	-0.789454	-3.233444E+10	-9.393659E-13	NaN
164	1.000000	0.342609	7.36664e+06	-46839.1	955.819	-29768.3	0.000000	0.000000	6.342866	-0.043153	NaN	0.000000	0.001598	0.001733	28.0822	0.118387	0.001996	59.3113	-15.3602	-165.781	-0.037986	0.341323	-0.778834	-0.780120	-0.043153	59.3113	-0.778288	-2.280184E+10	1.892538E-12	NaN
164	1.000000	0.352621	7.36664e+06	-46839.1	955.817	-29768.3	0.000000	0.000000	6.352878	-0.031106	NaN	0.000000	0.001617	0.001736	28.1145	0.080579	0.002037	39.5504	-40.7745	15.4689	0.031148	0.351261	-0.768823	-0.770182	-0.031106	39.5504	-0.768233	-1.664471E+10	1.868843E-12	NaN
164	1.000000	0.362610	7.36664e+06	-46839.1	955.819	-29768.3	0.000000	0.000000	6.362869	0.007704	NaN	0.000000	0.001595	0.001703	28.125	0.062368	0.001873	33.3046	170.036	-166.273	0.081399	0.361288	-0.758834	-0.760156	0.007704	33.3046	-0.759007	-1.246792E+10	-6.178729E-13	NaN
164	1.000000	0.372636	7.36664e+06	-46839.1	955.818	-29768.3	0.000000	0.000000	6.372896	0.024229	NaN	0.000000	0.001593	0.001742	28.0855	0.039443	0.002073	19.0293	-107.716	14.4827	-0.006487	0.371360	-0.748807	-0.750083	0.024229	19.0293	-0.749762	-9.332033E+9	-2.596348E-12	NaN
164	1.000000	0.382653	7.36664e+06	-46839.1	955.818	-29768.3	0.000000	0.000000	6.382911	-0.018093	NaN	0.000000	0.001583	0.001752	28.0828	0.070651	0.001889	37.3994	-21.4619	-167.387	0.038469	0.381297	-0.738791	-0.740146	-0.018093	37.3994	-0.738428	-6.540968E+9	2.766071E-12	NaN
164	1.000000	0.392632	7.36664e+06	-46839.1	955.819	-29768.3	0.000000	0.000000	6.392890	-0.028661	NaN	0.000000	0.001627	0.001700	28.1159	0.026304	0.002010	13.086	-161.845	13.0612	0.019809	0.391255	-0.728811	-0.730189	-0.028661	13.086	-0.727169	-4.594275E+9	6.238359E-12	NaN
164	1.000000	0.402634	7.36664e+06	-46839.1	955.818	-29768.3	0.000000	0.000000	6.402892	-0.021823	NaN	0.000000	0.001619	0.001756	28.1259	0.089665	0.001999	44.8634	-111.216	-165.245	-0.035153	0.401273	-0.718809	-0.720171	-0.021823	44.8634	-0.718444	-3.493443E+9	6.246805E-12	NaN
164	1.000000	0.412631	7.36664e+06	-46839.1	955.818	-29768.3	0.000000	0.000000	6.412891	0.036335	NaN	0.000000	0.001617	0.001752	28.0856	0.070027	0.001991	35.17	-72.1305	14.3587	0.034130	0.411259	-0.708812	-0.710185	0.036335	35.17	-0.709587	-2.644926E+9	-1.373753E-11	NaN
164	1.000000	0.422642	7.36664e+06	-46839.1	955.818	-29768.3	0.000000	0.000000	6.422898	-0.062099	NaN	0.000000	0.001612	0.001774	28.0824	0.123279	0.001915	64.3783	-163.337	-166.74	-0.062441	0.421280	-0.698801	-0.700163	-0.062099	64.3783	-0.698078	-1.841955E+9	3.371364E-11	NaN
164	1.000000	0.432645	7.36664e+06	-46839.1	955.818	-29768.3	0.000000	0.000000	6.432901	-0.081567	NaN	0.000000	0.001598	0.001724	28.1152	0.064951	0.001920	33.8231	-129.014	13.6142	-0.048576	0.431299	-0.688798	-0.690144	-0.081567	33.8231	-0.686989	-1.299475E+9	6.276935E-11	NaN
164	1.000000	0.442672	7.36664e+06	-46839.1	955.819	-29768.3	0.000000	0.000000	6.442931	-0.001541	NaN	0.000000	0.001613	0.001753	28.1248	0.116595	0.002056	56.7092	20.2172	-164.914	-0.051752	0.441385	-0.678771	-0.680058	-0.001541	56.7092	-0.678751	-1.002583E+9	1.537295E-12	NaN
164	1.000000	0.452630	7.36664e+06	-46839.1	955.818	-29768.3	0.000000	0.000000	6.452890	0.010029	NaN	0.000000	0.001586	0.001725	28.0866	0.084949	0.002137	39.7498	-11.4516	13.6028	-0.030593	0.451285	-0.668813	-0.670159	0.010029	39.7498	-0.669002	-7.374452E+8	-1.359941E-11	NaN
164	1.000000	0.462678	7.36664e+06	-46839.1	955.819	-29768.3	0.000000	0.000000	6.462935	-0.056363	NaN	0.000000	0.001604	0.001722	28.0841	0.060569	0.001982	30.5572	92.8648	-164.518	-0.053711	0.461409	-0.658765	-0.660035	-0.056363	30.5572	-0.657381	-5.112070E+8	1.102538E-10	NaN
164	1.000000	0.472656	7.36664e+06	-46839.1	955.819	-29768.3	0.000000	0.000000	6.472915	0.004894	NaN	0.000000	0.001666	0.001736	28.1163	0.020338	0.001960	10.3748	-15.268	14.9883	0.037648	0.471313	-0.648787	-0.650130	0.004894	10.3748	-0.649141	-3.941458E+8	-1.241700E-11	NaN
164	1.000000	0.482712	7.36664e+06	-46839.1	955.818	-29768.3	0.000000	0.000000	6.482971	0.007570	NaN	0.000000	0.001693	0.001756	28.1282	0.019582	0.002042	9.591591	-59.5341	-165.995	-0.049251	0.481405	-0.638731	-0.640038	0.007570	9.591591	-0.639323	-2.890694E+8	-2.618752E-11	NaN
164	1.000000	0.492698	7.36664e+06	-46839.1	955.818	-29768.3	0.000000	0.000000	6.492959	0.051981	NaN	0.000000	0.001598	0.001776	28.088	0.030782	0.002086	14.7546	-61.4236	11.7712	0.048433	0.491285	-0.628745	-0.630158	0.051981	14.7546	-0.631387	-2.249442E+8	-2.310850E-10	NaN
164	1.000000	0.502668	7.36664e+06	-46839.1	955.819	-29768.3	0.000000	0.000000	6.502930	0.056672	NaN	0.000000	0.001577	0.001786	28.0827	0.055417	0.002030	27.3001	-135.211	-166.6	0.029496	0.501335	-0.618775	-0.620108	0.056672	27.3001	-0.620332	-1.585603E+8	-3.574155E-10	NaN
164	1.000000	0.512698	7.36664e+06	-46839.1	955.818	-29768.3	0.000000	0.000000	6.512957	0.019541	NaN	0.000000	0.001652	0.001744	28.1146	0.072030	0.001977	36.4409	-101.662	14.4015	0.029574	0.511417	-0.608746	-0.610027	0.019541	36.4409	-0.609148	-1.112723E+8	-1.756104E-10	NaN
164	1.000000	0.522679	7.36664e+06	-46839.1	955.818	-29768.3	0.000000	0.000000	6.522940	0.065204	NaN	0.000000	0.001696	0.001763	28.1268	0.025186	0.001882	13.3854	13.7115	-161.757	0.059337	0.521371	-0.598765	-0.600072	0.065204	13.3854	-0.602418	-8.989963E+7	-7.252996E-10	NaN
164	1.000000	0.532679	7.36664e+06	-46839.1	955.818	-29768.3	0.000000	0.000000	6.532942	0.099585	NaN	0.000000	0.001693	0.001751	28.0874	0.142765	0.001958	72.9003	-82.0428	16.5096	0.024111	0.531395	-0.588765	-0.590048	0.099585	72.9003	-0.589789	-6.022254E+7	-1.653611E-9	NaN
164	1.000000	0.542715	7.36664e+06	-46839.1	955.819	-29768.3	0.000000	0.000000	6.542973	-0.025885	NaN	0.000000	0.001630	0.001775	28.0841	0.064046	0.001837	34.873	80.6567	-164.805	0.115015	0.541348	-0.578728	-0.580095	-0.025885	34.873	-0.578171	-4.163731E+7	6.216871E-10	NaN
164	1.000000	0.552702	7.36664e+06	-46839.1	955.818	-29768.3	0.000000	0.000000	6.552963	0.039531	NaN	0.000000	0.001608	0.001757	28.1164	0.107280	0.001877	57.1618	-76.2415	18.7602	0.047797	0.551352	-0.568741	-0.570091	0.039531	57.1618	-0.569259	-3.136166E+7	-1.260489E-9	NaN
164	1.000000	0.562737	7.36664e+06	-46839.1	955.818	-29768.3	0.000000	0.000000	6.562995	-0.023359	NaN	0.000000	0.001582	0.001746	28.1296	0.042077	0.002097	20.065	-136.799	-164.597	0.046188	0.561391	-0.558706	-0.560053	-0.023359	20.065	-0.557833	-2.179691E+7	1.071673E-9	NaN
164	1.000000	0.572706	7.36664e+06	-46839.1	955.819	-29768.3	0.000000	0.000000	6.572966	0.042050	NaN	0.000000	0.001623	0.001747	28.0884	0.129949	0.001933	67.2106	67.843	14.4293	-0.011432	0.571409	-0.548738	-0.550035	0.042050	67.2106	-0.549207	-1.655653E+7	-2.539796E-9	NaN
164	1.000000	0.582681	7.36665e+06	-46839.1	955.817	-29768.3	0.000000	0.000000	6.582941	0.005955	NaN	0.000000	0.001617	0.001746	28.0827	0.101628	0.002085	48.7491	-132.303	-165.019	-0.023554	0.581409	-0.538762	-0.540034	0.005955	48.7491	-0.538853	-1.189746E+7	-5.005378E-10	NaN
164	1.000000	0.592713	7.36665e+06	-46839.1	955.819	-29768.3	0.000000	0.000000	6.592974	0.047487	NaN	0.000000	0.001611	0.001767	28.1149	0.022392	0.002115	10.5875	-48.0061	15.7256	0.060487	0.591359	-0.528730	-0.530084	0.047487	10.5875	-0.532094	-9.58638e+06	-4.953596E-9	NaN
164	1.000000	0.602707	7.36665e+06	-46839.1	955.819	-29768.3	0.000000	0.000000	6.602963	-0.080846	NaN	0.000000	0.001596	0.001750	28.1258	0.095472	0.001994	47.8708	81.2319	-165.931	-0.121514	0.601447	-0.518736	-0.519996	-0.080846	47.8708	-0.517469	-6.00334e+06	1.346687E-8	NaN
164	1.000000	0.612708	7.36665e+06	-46839.1	955.818	-29768.3	0.000000	0.000000	6.612969	0.040171	NaN	0.000000	0.001599	0.001788	28.0863	0.103936	0.001830	56.8033	-146.588	12.8906	0.073135	0.611374	-0.508735	-0.510069	0.040171	56.8033	-0.509266	-4.61514e+06	-8.704110E-9	NaN
164	1.000000	0.622733	7.36665e+06	-46839.1	955.818	-29768.3	0.000000	0.000000	6.622990	-0.039353	NaN	0.000000	0.001554	0.001727	28.0833	0.051436	0.001958	26.2724	-109.866	-162.554	-0.086088	0.621392	-0.498710	-0.500051	-0.039353	26.2724	-0.497587	-3.1721e+06	1.240587E-8	NaN
164	1.000000	0.632723	7.36665e+06	-46839.1	955.818	-29768.3	0.000000	0.000000	6.632979	-0.065588	NaN	0.000000	0.001566	0.001769	28.1151	0.036688	0.001990	18.4342	-90.247	14.8428	0.006320	0.631391	-0.488721	-0.490052	-0.065588	18.4342	-0.486052	-2.18879e+06	2.996543E-8	NaN
164	1.000000	0.642733	7.36665e+06	-46839.1	955.819	-29768.3	0.000000	0.000000	6.642990	-0.051569	NaN	0.000000	0.001573	0.001759	28.1278	0.015458	0.001920	8.051725	158.642	-159.906	-0.056202	0.641399	-0.478710	-0.480044	-0.051569	8.051725	-0.473907	-1.47972e+06	3.485019E-8	NaN
164	1.000000	0.652736	7.36665e+06	-46839.1	955.818	-29768.3	0.000000	0.000000	6.652995	0.003290	NaN	0.000000	0.001543	0.001778	28.0863	0.003521	0.001988	1.771435	-81.3038	18.7637	0.027501	0.651356	-0.468707	-0.470087	0.003290	1.771435	-0.470100	-1.30859e+06	-2.514005E-9	NaN
164	1.000000	0.662766	7.36665e+06	-46839.1	955.818	-29768.3	0.000000	0.000000	6.663022	-0.069465	NaN	0.000000	0.001545	0.001785	28.0818	0.158452	0.001937	81.7823	67.1251	-168.282	-0.073838	0.661458	-0.458677	-0.459986	-0.069465	81.7823	-0.458040	-886066	7.839752E-8	NaN
164	1.000000	0.672762	7.36665e+06	-46839.1	955.818	-29768.3	0.000000	0.000000	6.673022	0.023344	NaN	0.000000	0.001551	0.001743	28.1128	0.038545	0.001901	20.2726	77.3842	14.6757	-0.047624	0.671385	-0.448681	-0.450058	0.023344	20.2726	-0.449545	-672868	-3.469284E-8	NaN
164	1.000000	0.682736	7.36665e+06	-46839.1	955.818	-29768.3	0.000000	0.000000	6.682989	-0.151580	NaN	0.000000	0.001588	0.001756	28.1269	0.078921	0.002168	36.41	66.7863	-165.537	-0.071645	0.681495	-0.438707	-0.439948	-0.151580	36.41	-0.435585	-427582	3.545057E-7	NaN
164	1.000000	0.692756	7.36665e+06	-46839.1	955.818	-29768.3	0.000000	0.000000	6.693010	-0.140999	NaN	0.000000	0.001577	0.001753	28.0865	0.053742	0.001944	27.6431	-91.9355	15.2966	-0.124802	0.691410	-0.428687	-0.430034	-0.140999	27.6431	-0.424861	-301521	4.676256E-7	NaN
164	1.000000	0.702762	7.36665e+06	-46839.1	955.817	-29768.3	0.000000	0.000000	6.703020	-0.012851	NaN	0.000000	0.001600	0.001759	28.0829	0.056534	0.002037	27.748	-150.822	-162.985	-0.049102	0.701471	-0.418681	-0.419972	-0.012851	27.748	-0.418334	-243657	5.274040E-8	NaN
164	1.000000	0.712763	7.36665e+06	-46839.1	955.819	-29768.3	0.000000	0.000000	6.713019	-0.052591	NaN	0.000000	0.001608	0.001720	28.1136	0.086678	0.001974	43.901	63.8692	13.1714	-0.009930	0.711441	-0.408681	-0.410002	-0.052591	43.901	-0.407782	-172525	3.048297E-7	NaN
164	1.000000	0.722780	7.36665e+06	-46839.1	955.818	-29768.3	0.000000	0.000000	6.723038	-0.014852	NaN	0.000000	0.001583	0.001743	28.1276	0.115433	0.002163	53.3604	-107.748	-164.763	0.001917	0.721446	-0.398663	-0.399997	-0.014852	53.3604	-0.398454	-127042	1.169050E-7	NaN
164	1.000000	0.732807	7.36665e+06	-46839.1	955.819	-29768.3	0.000000	0.000000	6.733067	0.028869	NaN	0.000000	0.001593	0.001779	28.0876	0.067589	0.002043	33.0909	-144.04	14.6732	-0.034332	0.731417	-0.388637	-0.390027	0.028869	33.0909	-0.389291	-93977	-3.071896E-7	NaN
164	1.000000	0.742776	7.36665e+06	-46839.1	955.818	-29768.3	0.000000	0.000000	6.743033	-0.056572	NaN	0.000000	0.001573	0.001743	28.0818	0.066776	0.001933	34.5372	149.891	-163.701	-0.096260	0.741484	-0.378667	-0.379959	-0.056572	34.5372	-0.377438	-63549.2	8.902011E-7	NaN
164	1.000000	0.752768	7.36665e+06	-46839.1	955.818	-29768.3	0.000000	0.000000	6.753026	-0.010527	NaN	0.000000	0.001594	0.001773	28.1131	0.072778	0.002108	34.5318	50.9565	14.3612	0.010421	0.751456	-0.368675	-0.369987	-0.010527	34.5318	-0.368447	-47179.3	2.231308E-7	NaN
164	1.000000	0.762778	7.36665e+06	-46839.1	955.818	-29768.3	0.000000	0.000000	6.763036	-0.013591	NaN	0.000000	0.001670	0.001768	28.1266	0.012210	0.001904	6.411197	9.183541	-165.991	-0.000887	0.761470	-0.358666	-0.359973	-0.013591	6.411197	-0.357076	-32325.8	4.204345E-7	NaN
164	1.000000	0.772802	7.36665e+06	-46839.1	955.819	-29768.3	0.000000	0.000000	6.773059	-0.055419	NaN	0.000000	0.001601	0.001779	28.0873	0.041421	0.001969	21.0347	130.651	17.0351	0.066351	0.771450	-0.348641	-0.349993	-0.055419	21.0347	-0.346665	-22833.2	2.427113E-6	NaN
164	1.000000	0.782760	7.36665e+06	-46839.1	955.818	-29768.3	0.000000	0.000000	6.783016	-0.077304	NaN	0.000000	0.001682	0.001802	28.0829	0.050356	0.002172	23.1833	-132.391	-166.78	-0.059247	0.781511	-0.338683	-0.339932	-0.077304	23.1833	-0.336182	-16064	4.812242E-6	NaN
164	1.000000	0.792796	7.36665e+06	-46839.1	955.818	-29768.3	0.000000	0.000000	6.793054	-0.014982	NaN	0.000000	0.001629	0.001689	28.1139	0.118407	0.001906	62.1221	-43.7483	13.4687	0.004549	0.791414	-0.328648	-0.330030	-0.014982	62.1221	-0.328467	-12387.6	1.209442E-6	NaN
164	1.000000	0.802825	7.36665e+06	-46839.1	955.818	-29768.3	0.000000	0.000000	6.803084	0.003307	NaN	0.000000	0.001668	0.001751	28.1281	0.040846	0.002117	19.2981	-141.966	-168.527	0.058594	0.801450	-0.318618	-0.319994	0.003307	19.2981	-0.318747	-8916.37	-3.708579E-7	NaN
164	1.000000	0.812806	7.36665e+06	-46839.1	955.819	-29768.3	0.000000	0.000000	6.813065	-0.016202	NaN	0.000000	0.001579	0.001744	28.0873	0.076557	0.002078	36.8472	169.597	12.2427	-0.052465	0.811454	-0.308637	-0.309989	-0.016202	36.8472	-0.308307	-6251.61	2.591678E-6	NaN
164	1.000000	0.822806	7.36665e+06	-46839.1	955.817	-29768.3	0.000000	0.000000	6.823066	0.033393	NaN	0.000000	0.001571	0.001749	28.0817	0.073492	0.002070	35.5018	-140.547	-167.496	0.089464	0.821525	-0.298637	-0.299918	0.033393	35.5018	-0.299343	-4600.94	-7.257819E-6	NaN
164	1.000000	0.832812	7.36665e+06	-46839.1	955.818	-29768.3	0.000000	0.000000	6.833069	-0.035499	NaN	0.000000	0.001576	0.001743	28.1127	0.082946	0.001978	41.9242	-16.2968	11.7941	-0.037320	0.831460	-0.288631	-0.289984	-0.035499	41.9242	-0.287996	-3113.59	1.140122E-5	NaN
164	1.000000	0.842797	7.36665e+06	-46839.1	955.818	-29768.3	0.000000	0.000000	6.843056	0.018212	NaN	0.000000	0.001549	0.001764	28.1275	0.058198	0.002120	27.45	30.7338	-163.934	0.005928	0.841475	-0.278646	-0.279969	0.018212	27.45	-0.279144	-2291.15	-7.948793E-6	NaN
164	1.000000	0.852838	7.36665e+06	-46839.1	955.819	-29768.3	0.000000	0.000000	6.853100	0.064584	NaN	0.000000	0.001545	0.001764	28.0864	0.066726	0.002068	32.2734	92.4787	15.718	0.079548	0.851483	-0.268605	-0.269960	0.064584	32.2734	-0.270106	-1671.69	-3.863419E-5	NaN
164	1.000000	0.862817	7.36665e+06	-46839.1	955.818	-29768.3	0.000000	0.000000	6.863075	-0.040263	NaN	0.000000	0.001567	0.001770	28.084	0.118723	0.001966	60.3761	36.5298	-162.539	-0.085174	0.861515	-0.258626	-0.259929	-0.040263	60.3761	-0.258126	-1096.9	3.670585E-5	NaN
164	1.000000	0.872856	7.36665e+06	-46839.1	955.818	-29768.3	0.000000	0.000000	6.873114	-0.016195	NaN	0.000000	0.001572	0.001767	28.1123	0.092759	0.002000	46.3811	-106.019	15.5682	-0.021199	0.871468	-0.248587	-0.249975	-0.016195	46.3811	-0.248325	-774.541	2.090888E-5	NaN
164	1.000000	0.882828	7.36665e+06	-46839.1	955.818	-29768.3	0.000000	0.000000	6.883089	0.053418	NaN	0.000000	0.001582	0.001733	28.1268	0.108588	0.001992	54.4985	104.955	-165.447	0.105863	0.881530	-0.238615	-0.239913	0.053418	54.4985	-0.239350	-561.565	-9.512400E-5	NaN
164	1.000000	0.892850	7.36665e+06	-46839.1	955.819	-29768.3	0.000000	0.000000	6.893110	0.013724	NaN	0.000000	0.001562	0.001760	28.0858	0.086728	0.001992	43.5336	-56.1607	14.4958	0.022728	0.891460	-0.228593	-0.229983	0.013724	43.5336	-0.228829	-383.724	-3.576490E-5	NaN
164	1.000000	0.902862	7.36665e+06	-46839.1	955.819	-29768.3	0.000000	0.000000	6.903121	0.005132	NaN	0.000000	0.001580	0.001768	28.0809	0.070086	0.002179	32.1628	94.5779	-167.698	-0.055417	0.901568	-0.218582	-0.219875	0.005132	32.1628	-0.218701	-264.792	-1.938197E-5	NaN
164	1.000000	0.912858	7.36665e+06	-46839.1	955.818	-29768.3	0.000000	0.000000	6.913117	0.008579	NaN	0.000000	0.001564	0.001737	28.1111	0.086154	0.002149	40.0975	-58.2765	16.0127	0.046505	0.911487	-0.208585	-0.209957	0.008579	40.0975	-0.208746	-183.015	-4.687860E-5	NaN
164	1.000000	0.922873	7.36665e+06	-46839.1	955.819	-29768.3	0.000000	0.000000	6.923129	-0.087843	NaN	0.000000	0.001592	0.001726	28.1257	0.070145	0.001925	36.4319	-79.3393	-165.768	-0.017197	0.921544	-0.198570	-0.199899	-0.087843	36.4319	-0.196762	-116.504	0.000754	NaN
164	1.000000	0.932884	7.36665e+06	-46839.1	955.818	-29768.3	0.000000	0.000000	6.933144	0.037092	NaN	0.000000	0.001571	0.001728	28.0853	0.131018	0.001841	71.1841	106.955	14.8221	0.015665	0.931550	-0.188560	-0.189893	0.037092	71.1841	-0.188950	-86.3928	-0.000429	NaN
164	1.000000	0.942898	7.36665e+06	-46839.1	955.819	-29768.3	0.000000	0.000000	6.943159	0.031695	NaN	0.000000	0.001574	0.001762	28.0805	0.049241	0.001959	25.1317	-60.8569	-165.07	0.077586	0.941578	-0.178545	-0.179866	0.031695	25.1317	-0.179491	-59.8131	-0.000530	NaN
164	1.000000	0.952860	7.36665e+06	-46839.1	955.819	-29768.3	0.000000	0.000000	6.953121	0.047494	NaN	0.000000	0.001540	0.001681	28.1124	0.093903	0.001948	48.1957	55.1247	14.5134	0.017716	0.951498	-0.168583	-0.169945	0.047494	48.1957	-0.169322	-39.9791	-0.001188	NaN
164	1.000000	0.962873	7.36665e+06	-46839.1	955.818	-29768.3	0.000000	0.000000	6.963134	0.052096	NaN	0.000000	0.001547	0.001717	28.1272	0.044578	0.001905	23.3987	-15.1316	-167.52	0.026985	0.961534	-0.158570	-0.159909	0.052096	23.3987	-0.160240	-27.6852	-0.001882	NaN
164	1.000000	0.972870	7.36665e+06	-46839.1	955.818	-29768.3	0.000000	0.000000	6.973132	0.064370	NaN	0.000000	0.001528	0.001774	28.0868	0.067105	0.002036	32.9534	85.6387	12.0995	0.017127	0.971479	-0.148573	-0.149965	0.064370	32.9534	-0.150038	-18.1424	-0.003548	NaN
164	1.000000	0.982888	7.36665e+06	-46839.1	955.818	-29768.3	0.000000	0.000000	6.983147	-0.002326	NaN	0.000000	0.001600	0.001789	28.0811	0.027074	0.001889	14.3291	-1.543026	-167.185	-0.016229	0.981520	-0.138555	-0.139923	-0.002326	14.3291	-0.138433	-11.0526	0.000210	NaN
164	1.000000	0.992900	7.36665e+06	-46839.1	955.818	-29768.3	0.000000	0.000000	6.993161	0.038805	NaN	0.000000	0.001605	0.001783	28.111	0.044115	0.002068	21.3281	151.72	13.5495	0.012564	0.991524	-0.128543	-0.129919	0.038805	21.3281	-0.129908	-7.589634	-0.005113	NaN
164	1.000000	1.002866	7.36665e+06	-46839.1	955.819	-29768.3	0.000000	0.000000	7.003127	0.045654	NaN	0.000000	0.001609	0.001771	28.1262	0.154680	0.001963	78.7819	-121.918	-162.948	0.071990	1.001543	-0.118577	-0.119901	0.045654	78.7819	-0.119012	-4.614206	-0.009894	NaN
164	1.000000	1.012892	7.36665e+06	-46839.1	955.819	-29768.3	0.000000	0.000000	7.013154	0.072185	NaN	0.000000	0.001614	0.001792	28.0877	0.163696	0.002001	81.8003	91.1646	17.8862	0.124211	1.011505	-0.108552	-0.109938	0.072185	81.8003	-0.109213	-2.892385	-0.024957	NaN
164	1.000000	1.022884	7.36665e+06	-46839.1	955.818	-29768.3	0.000000	0.000000	7.023148	0.102817	NaN	0.000000	0.001591	0.001772	28.0822	0.153636	0.001983	77.4582	30.798	-166.934	0.109326	1.021638	-0.098559	-0.099805	0.102817	77.4582	-0.099554	-1.786007	-0.057568	NaN
164	1.000000	1.032929	7.36665e+06	-46839.1	955.819	-29768.3	0.000000	0.000000	7.033192	0.101177	NaN	0.000000	0.001578	0.001742	28.1122	0.048560	0.001809	26.8437	-158.139	17.7211	0.013738	1.031548	-0.088514	-0.089895	0.101177	26.8437	-0.091341	-1.161878	-0.087080	NaN
164	1.000000	1.042910	7.36665e+06	-46839.1	955.818	-29768.3	0.000000	0.000000	7.043169	-0.000105	NaN	0.000000	0.001612	0.001675	28.1291	0.096752	0.002039	47.4597	134.541	-166.237	0.023802	1.041604	-0.078533	-0.079839	-0.000105	47.4597	-0.078532	-0.568575	0.000184	NaN
164	1.000000	1.052892	7.36665e+06	-46839.1	955.819	-29768.3	0.000000	0.000000	7.053155	0.091669	NaN	0.000000	0.001544	0.001629	28.088	0.013522	0.002038	6.633442	-67.5191	14.8314	0.088027	1.051535	-0.068551	-0.069908	0.091669	6.633442	-0.078915	-0.581390	-0.157672	NaN
164	1.000000	1.062946	7.36665e+06	-46839.1	955.819	-29768.3	0.000000	0.000000	7.063210	0.129217	NaN	0.000000	0.001538	0.001707	28.0815	0.046705	0.002111	22.1257	105.257	-163.042	0.054387	1.061593	-0.058497	-0.059851	0.129217	22.1257	-0.062877	-0.217401	-0.594372	NaN
164	1.000000	1.072887	7.36665e+06	-46839.1	955.819	-29768.3	0.000000	0.000000	7.073150	0.099291	NaN	0.000000	0.001591	0.001696	28.1117	0.103387	0.002037	50.7527	152.756	12.05	0.120791	1.071501	-0.048557	-0.049943	0.099291	50.7527	-0.050024	-0.091403	-1.086293	NaN
164	1.000000	1.082921	7.36665e+06	-46839.1	955.819	-29768.3	0.000000	0.000000	7.083184	0.102778	NaN	0.000000	0.001563	0.001697	28.1281	0.040957	0.001959	20.9094	-168.4	-164.764	0.112496	1.081599	-0.038523	-0.039845	0.102778	20.9094	-0.042209	-0.052803	-1.946429	NaN
164	1.000000	1.092901	7.36665e+06	-46839.1	955.819	-29768.3	0.000000	0.000000	7.093165	0.114490	NaN	0.000000	0.001564	0.001672	28.0877	0.050313	0.001901	26.4684	83.1004	15.1446	0.206253	1.091548	-0.028542	-0.029895	0.114490	26.4684	-0.031786	-0.025841	-4.430539	NaN
164	1.000000	1.102919	7.36665e+06	-46839.1	955.82	-29768.3	0.000000	0.000000	7.103184	0.136022	NaN	0.000000	0.001549	0.001656	28.0804	0.019792	0.001992	9.937905	35.0941	-160.945	0.080047	1.101655	-0.018524	-0.019788	0.136022	9.937905	-0.028790	-0.021306	-6.384156	NaN
164	1.000000	1.112913	7.36665e+06	-46839.1	955.819	-29768.3	0.000000	0.000000	7.113179	0.161565	NaN	0.000000	0.001552	0.001639	28.112	0.045618	0.001852	24.628	9.658673	14.9801	0.146851	1.111553	-0.008530	-0.009890	0.161565	24.628	-0.013450	-0.008363	-19.3198	NaN
164	1.000000	1.122948	7.36665e+06	-46839.1	955.818	-29768.3	0.000000	0.000000	7.123238	0.765894	NaN	0.000000	0.001598	0.001652	28.1294	1.199023	0.002008	596.981	13.9219	-164.624	0.171913	1.121652	0.001505	0.000209	0.765894	596.981	0.000543	0.000410	1869.27	26945.5
164	2.000000	1.130939	7.36665e+06	-46839.1	955.818	-29768.3	0.000000	0.000000	7.131604	9.873255	NaN	0.000000	0.001558	0.001655	28.0894	10.0394	0.001601	6271.08	4.818229	11.304	9.113379	1.130600	0.009496	0.009157	9.873255	6271.08	0.008315	0.007368	1339.98	66747.4
164	2.000000	1.133414	7.36665e+06	-46839.1	955.819	-29768.3	0.000000	0.000000	7.134238	13.7468	NaN	0.000000	0.001576	0.001656	28.0805	12.6134	0.001748	7214.82	5.043199	-169.325	13.5862	1.133056	0.011971	0.011613	13.7468	7214.82	0.010542	0.009790	1404.22	66621.6
164	2.000000	1.135859	7.36665e+06	-46839.1	955.82	-29768.3	0.000000	0.000000	7.136795	16.4593	NaN	0.000000	0.001565	0.001656	28.1109	15.7411	0.001663	9466.38	4.365341	5.614031	15.381	1.135544	0.014416	0.014101	16.4593	9466.38	0.013112	0.012850	1280.92	76297.9
164	2.000000	1.138387	7.36665e+06	-46839.1	955.819	-29768.3	0.000000	0.000000	7.139523	21.3338	NaN	0.000000	0.001599	0.001676	28.1275	19.6486	0.001897	10358.4	12.5144	178.297	22.1769	1.138060	0.016944	0.016617	21.3338	10358.4	0.015399	0.015821	1348.41	75238.8
164	2.000000	1.140899	7.36665e+06	-46839.1	955.82	-29768.3	0.000000	0.000000	7.142356	29.1405	NaN	0.000000	0.001579	0.001691	28.0882	21.0172	0.001638	12828.5	6.075801	3.249465	28.8361	1.140536	0.019456	0.019093	29.1405	12828.5	0.017752	0.019133	1523.07	84734.4
164	2.000000	1.143341	7.36665e+06	-46839.1	955.82	-29768.3	0.000000	0.000000	7.144980	33.5643	NaN	0.000000	0.001560	0.001667	28.0814	23.296	0.001488	15659.5	2.351045	-176.236	33.4168	1.143045	0.021898	0.021602	33.5643	15659.5	0.020291	0.023001	1459.25	94335.8
164	2.000000	1.145844	7.36665e+06	-46839.1	955.819	-29768.3	0.000000	0.000000	7.147671	38.1557	NaN	0.000000	0.001618	0.001668	28.1104	27.5981	0.001930	14300.8	5.630189	1.665773	36.1511	1.145439	0.024400	0.023995	38.1557	14300.8	0.022399	0.026454	1442.36	80332
164	2.000000	1.148339	7.36665e+06	-46839.1	955.819	-29768.3	0.000000	0.000000	7.150400	43.8319	NaN	0.000000	0.001637	0.001669	28.128	29.6876	0.001722	17240.6	6.377654	179.021	43.0271	1.147968	0.026896	0.026525	43.8319	17240.6	0.024989	0.030996	1414.11	89469.1
164	2.000000	1.150890	7.36665e+06	-46839.1	955.818	-29768.3	0.000000	0.000000	7.153254	51.223	NaN	0.000000	0.001650	0.001651	28.088	32.0854	0.001882	17050.5	7.568986	-0.013215	51.8431	1.150416	0.029446	0.028973	51.223	17050.5	0.027193	0.035127	1458.22	83117.1
164	2.000000	1.153292	7.36665e+06	-46839.1	955.819	-29768.3	0.000000	0.000000	7.155828	55.3941	NaN	0.000000	0.001581	0.001640	28.0802	33.9458	0.001714	19800.6	4.693771	179.785	53.8655	1.153007	0.031849	0.031563	55.3941	19800.6	0.029751	0.040229	1376.98	90195.1
164	2.000000	1.155796	7.36665e+06	-46839.1	955.82	-29768.3	0.000000	0.000000	7.158717	64.7606	NaN	0.000000	0.001555	0.001675	28.1081	36.4906	0.001848	19747.5	3.494829	1.840052	64.2864	1.155449	0.034353	0.034006	64.7606	19747.5	0.031893	0.044759	1446.87	85279.6
164	2.000000	1.158285	7.36665e+06	-46839.1	955.82	-29768.3	0.000000	0.000000	7.161591	74.1179	NaN	0.000000	0.001516	0.001640	28.1272	39.7284	0.001816	21877.8	7.867825	175.832	72.5915	1.157955	0.036842	0.036512	74.1179	21877.8	0.034301	0.050131	1478.5	89274
164	2.000000	1.160784	7.36665e+06	-46839.1	955.819	-29768.3	0.000000	0.000000	7.164419	82.1183	NaN	0.000000	0.001526	0.001634	28.0876	40.7698	0.001793	22734.9	2.288234	0.736920	78.7086	1.160463	0.039341	0.039020	82.1183	22734.9	0.036632	0.055614	1476.58	88079.6
164	2.000000	1.163291	7.36665e+06	-46839.1	955.82	-29768.3	0.000000	0.000000	7.167256	90.1459	NaN	0.000000	0.001577	0.001633	28.0801	43.603	0.001795	24284.9	5.631068	177.263	88.4593	1.162955	0.041848	0.041512	90.1459	24284.9	0.039064	0.061631	1462.67	89373.9
164	2.000000	1.165847	7.36665e+06	-46839.1	955.819	-29768.3	0.000000	0.000000	7.170163	98.6657	NaN	0.000000	0.001514	0.001661	28.1101	45.7865	0.001794	25522.1	6.325689	-3.531021	101.749	1.165504	0.044404	0.044061	98.6657	25522.1	0.041505	0.067975	1451.5	89436.6
164	2.000000	1.168350	7.36665e+06	-46839.1	955.82	-29768.3	0.000000	0.000000	7.173100	109.23	NaN	0.000000	0.001605	0.001674	28.1296	49.2715	0.001906	25851.5	6.689560	176.976	109.336	1.167906	0.046907	0.046463	109.23	25851.5	0.043738	0.074045	1475.19	86798.4
164	2.000000	1.170827	7.36665e+06	-46839.1	955.819	-29768.3	0.000000	0.000000	7.176248	125.548	NaN	0.000000	0.001590	0.001690	28.0902	50.7515	0.001832	27710.3	7.270913	-4.487097	124.062	1.170353	0.049384	0.048910	125.548	27710.3	0.045986	0.080412	1561.32	89280.3
164	2.000000	1.173259	7.36665e+06	-46839.1	955.82	-29768.3	0.000000	0.000000	7.178974	132.719	NaN	0.000000	0.001592	0.001676	28.082	51.9173	0.001763	29452.8	1.197640	179.874	129.823	1.172965	0.051816	0.051522	132.719	29452.8	0.048436	0.087641	1514.36	90896.4
164	2.000000	1.175730	7.36665e+06	-46839.1	955.819	-29768.3	0.000000	0.000000	7.181968	145.431	NaN	0.000000	0.001538	0.001648	28.1107	55.0828	0.001733	31791.8	4.768216	-3.984333	141.77	1.175424	0.054287	0.053981	145.431	31791.8	0.050856	0.095078	1529.6	94199.6
164	2.000000	1.178252	7.36665e+06	-46839.1	955.819	-29768.3	0.000000	0.000000	7.184888	155.103	NaN	0.000000	0.001581	0.001626	28.1286	58.7582	0.001774	33124.2	5.825088	174.609	154.308	1.177983	0.056809	0.056540	155.103	33124.2	0.053297	0.102876	1507.66	94354.3
164	2.000000	1.180821	7.36665e+06	-46839.1	955.819	-29768.3	0.000000	0.000000	7.187859	164.897	NaN	0.000000	0.001596	0.001695	28.0891	60.8907	0.001854	32849.7	7.201910	-5.754214	163.145	1.180390	0.059378	0.058947	164.897	32849.7	0.055613	0.110548	1491.64	90267.1
164	2.000000	1.183324	7.36665e+06	-46839.1	955.819	-29768.3	0.000000	0.000000	7.190903	178.043	NaN	0.000000	0.001579	0.001686	28.0821	62.8591	0.001780	35309.5	4.804240	175.576	181.961	1.182893	0.061881	0.061450	178.043	35309.5	0.058099	0.119081	1495.14	93485.2
164	2.000000	1.185695	7.36665e+06	-46839.1	955.82	-29768.3	0.000000	0.000000	7.193902	193.32	NaN	0.000000	0.001552	0.001652	28.1117	66.4259	0.001882	35302.9	4.454096	-4.917743	187.664	1.185341	0.064252	0.063898	193.32	35302.9	0.060145	0.126329	1530.29	90746.8
164	2.000000	1.188241	7.36665e+06	-46839.1	955.818	-29768.3	0.000000	0.000000	7.196884	203.919	NaN	0.000000	0.001619	0.001611	28.1316	68.3886	0.001870	36564.1	1.877140	177.761	202.202	1.187986	0.066798	0.066543	203.919	36564.1	0.062615	0.135353	1506.57	90801.6
164	2.000000	1.190767	7.36665e+06	-46839.1	955.819	-29768.3	0.000000	0.000000	7.199942	216.876	NaN	0.000000	0.001600	0.001643	28.0902	70.6653	0.001895	37291.2	5.139820	-5.554493	213.572	1.190414	0.069324	0.068971	216.876	37291.2	0.064962	0.144199	1504	89721.8
164	2.000000	1.193264	7.36665e+06	-46839.1	955.819	-29768.3	0.000000	0.000000	7.202885	227.724	NaN	0.000000	0.001647	0.001657	28.082	72.1301	0.001836	39293.6	3.831317	174.835	225.083	1.193023	0.071821	0.071580	227.724	39293.6	0.067474	0.153966	1479.06	91492
164	2.000000	1.195733	7.36665e+06	-46839.1	955.819	-29768.3	0.000000	0.000000	7.206192	248.111	NaN	0.000000	0.001592	0.001639	28.1098	75.0851	0.001813	41422.2	6.733688	-8.304462	246.19	1.195429	0.074290	0.073986	248.111	41422.2	0.069798	0.163266	1519.68	93660.9
164	2.000000	1.198192	7.36665e+06	-46839.1	955.818	-29768.3	0.000000	0.000000	7.209173	260.814	NaN	0.000000	0.001617	0.001655	28.1297	77.6661	0.001800	43152.6	2.735797	175.703	258.437	1.197893	0.076749	0.076450	260.814	43152.6	0.072216	0.173219	1505.69	94728.8
164	2.000000	1.200789	7.36665e+06	-46839.1	955.819	-29768.3	0.000000	0.000000	7.212508	278.776	NaN	0.000000	0.001616	0.001631	28.09	78.819	0.001771	44495.1	5.442800	-6.897926	276.84	1.200293	0.079345	0.078850	278.776	44495.1	0.074646	0.183501	1519.21	94900.1
164	2.000000	1.203360	7.36665e+06	-46839.1	955.819	-29768.3	0.000000	0.000000	7.215728	294.54	NaN	0.000000	0.001621	0.001645	28.0805	80.3104	0.001719	46706.7	7.316368	171.01	297.672	1.202937	0.081917	0.081494	294.54	46706.7	0.077187	0.194547	1513.98	96747.7
164	2.000000	1.205804	7.36665e+06	-46839.1	955.819	-29768.3	0.000000	0.000000	7.218839	310.774	NaN	0.000000	0.001610	0.001673	28.1097	83.3214	0.001729	48190.6	7.982945	-9.986838	312.892	1.205323	0.084360	0.083880	310.774	48190.6	0.079524	0.204972	1516.18	97249.6
164	2.000000	1.208320	7.36665e+06	-46839.1	955.819	-29768.3	0.000000	0.000000	7.221894	323.897	NaN	0.000000	0.001608	0.001675	28.1289	87.0528	0.001747	49826.6	5.779771	171.276	328.355	1.207984	0.086876	0.086540	323.897	49826.6	0.082001	0.216304	1497.42	97881.9
164	2.000000	1.210780	7.36665e+06	-46839.1	955.82	-29768.3	0.000000	0.000000	7.225285	346.533	NaN	0.000000	0.001563	0.001664	28.0885	88.9125	0.001845	48198.5	6.075538	-8.083822	345.528	1.210428	0.089337	0.088985	346.533	48198.5	0.083944	0.225392	1537.47	92754.9
164	2.000000	1.213163	7.36665e+06	-46839.1	955.82	-29768.3	0.000000	0.000000	7.228522	367.303	NaN	0.000000	0.001569	0.001664	28.0794	90.9935	0.001827	49804.3	5.512902	172.467	361.544	1.212814	0.091720	0.091371	367.303	49804.3	0.086189	0.236105	1555.68	93645.6
164	2.000000	1.215763	7.36665e+06	-46839.1	955.82	-29768.3	0.000000	0.000000	7.231507	376.675	NaN	0.000000	0.001569	0.001611	28.1082	95.1698	0.001791	53146.8	7.463169	-10.8063	374.379	1.215465	0.094320	0.094022	376.675	53146.8	0.089004	0.249873	1507.47	97138.4
164	2.000000	1.218202	7.36665e+06	-46839.1	955.819	-29768.3	0.000000	0.000000	7.235119	405.2	NaN	0.000000	0.001588	0.001646	28.1281	97.5185	0.001842	52951.1	3.055583	173.875	402.351	1.217987	0.096758	0.096544	405.2	52951.1	0.091019	0.259949	1558.77	94886.5
164	2.000000	1.220690	7.36665e+06	-46839.1	955.82	-29768.3	0.000000	0.000000	7.238382	424.053	NaN	0.000000	0.001508	0.001590	28.0888	98.5232	0.001817	54225.6	2.874445	-5.910330	418.526	1.220399	0.099247	0.098956	424.053	54225.6	0.093382	0.272000	1559.02	94993.3
164	2.000000	1.223113	7.36665e+06	-46839.1	955.82	-29768.3	0.000000	0.000000	7.241483	440.528	NaN	0.000000	0.001579	0.001588	28.0818	99.8704	0.001708	58459.5	3.132807	173.074	434.181	1.222834	0.101670	0.101391	440.528	58459.5	0.096018	0.285752	1541.64	99915.7
164	2.000000	1.225833	7.36665e+06	-46839.1	955.819	-29768.3	0.000000	0.000000	7.244640	451.182	NaN	0.000000	0.001596	0.001676	28.1097	104.185	0.001753	59431.8	5.949336	-10.1959	453.563	1.225539	0.104389	0.104096	451.182	59431.8	0.098696	0.300040	1503.74	99129.3
164	2.000000	1.228219	7.36665e+06	-46839.1	955.819	-29768.3	0.000000	0.000000	7.248008	475.054	NaN	0.000000	0.001674	0.001653	28.1294	106.518	0.001735	61404.9	3.055806	172.612	473.217	1.228045	0.106776	0.106602	475.054	61404.9	0.100974	0.312455	1520.39	100365
164	2.000000	1.228632	7.36665e+06	-46839.1	955.819	-29768.3	0.000000	0.000000	7.248783	483.869	NaN	0.000000	0.001661	0.001617	28.0896	106.604	0.001803	59141.6	2.490657	-6.241801	476.807	1.228324	0.107189	0.106881	483.869	59141.6	0.101053	0.312889	1546.45	96598.6