File: remote_trans/data/nanoindenter/0828-1/data/Data_2025-08-06,11h17m57s/2025-07-22_16-23-58_1_73.txt
2025-07-22, 16:23:58, 1
Index	Phase	Displacement	Time	Pos X	Pos Y	Pos Z	Rot A	Rot B	Piezo Z	Force A	Force B	Gripper	Voltage A	Voltage B	Temperature	Amplitude force	Amplitude pos	Stiffness	Phase shift	Phase excitation	Force A raw	Displacement raw	HMax	HMax raw	Real Force	Real Stiffness	Contact Depth	Area	Hardness	Reduced Mod.
[#]	[#]	[um]	[s]	[um]	[um]	[um]	[m°]	[m°]	[um]	[uN]	[uN]	[V]	[V]	[V]	[°C]	[uN]	[um]	[N/m]	[°]	[°]	[uN]	[um]	[um]	[um]	[uN]	[N/m]	[um]	[um^2]	[MPa]	[MPa]
73	1.000000	0.002860	7.36576e+06	-42289.1	955.819	-29783.8	0.000000	0.000000	6.002809	0.045935	NaN	0.000000	0.001618	0.001650	28.0878	0.087269	0.000973	89.7086	174.48	-165.957	-0.017770	0.001559	-1.003966	-1.005267	0.045935	89.7086	-1.004350	-2.596133E+13	-1.769355E-15	NaN
73	1.000000	0.010779	7.36576e+06	-42289.1	955.818	-29783.8	0.000000	0.000000	6.010725	-0.016930	NaN	0.000000	0.001622	0.001671	28.088	0.108573	0.001006	107.964	-0.389958	-159.632	0.029001	0.009510	-0.996047	-0.997316	-0.016930	107.964	-0.995929	-1.999663E+13	8.466580E-16	NaN
73	1.000000	0.018809	7.36576e+06	-42289.1	955.82	-29783.8	0.000000	0.000000	6.018753	-0.061785	NaN	0.000000	0.001635	0.001665	28.0873	0.011318	0.001730	6.543710	151.719	-163.886	0.083286	0.017479	-0.988017	-0.989346	-0.061785	6.543710	-0.980935	-1.256058E+13	4.918927E-15	NaN
73	1.000000	0.026853	7.36576e+06	-42289.1	955.818	-29783.8	0.000000	0.000000	6.026799	-0.008977	NaN	0.000000	0.001611	0.001614	28.0885	0.044822	0.001843	24.3218	-38.4719	-162.506	-0.010256	0.025545	-0.979973	-0.981281	-0.008977	24.3218	-0.979696	-1.208695E+13	7.426969E-16	NaN
73	1.000000	0.034801	7.36576e+06	-42289.1	955.818	-29783.8	0.000000	0.000000	6.034747	-0.002638	NaN	0.000000	0.001606	0.001646	28.0873	0.140661	0.001921	73.2221	-167.443	-165.394	0.001222	0.033458	-0.972025	-0.973368	-0.002638	73.2221	-0.971998	-9.518961E+12	2.770941E-16	NaN
73	1.000000	0.042787	7.36576e+06	-42289.1	955.819	-29783.8	0.000000	0.000000	6.042734	-0.004449	NaN	0.000000	0.001587	0.001653	28.0861	0.119110	0.001917	62.1191	-3.558067	-162.522	0.051468	0.041496	-0.964038	-0.965330	-0.004449	62.1191	-0.963985	-7.423090E+12	5.994121E-16	NaN
73	1.000000	0.050819	7.36576e+06	-42289.1	955.819	-29783.8	0.000000	0.000000	6.050764	-0.038160	NaN	0.000000	0.001608	0.001670	28.0872	0.054020	0.002066	26.1438	161.905	-162.821	-0.111157	0.049522	-0.956006	-0.957304	-0.038160	26.1438	-0.954912	-5.600986E+12	6.813046E-15	NaN
73	1.000000	0.058832	7.36576e+06	-42289.1	955.819	-29783.8	0.000000	0.000000	6.058779	0.000340	NaN	0.000000	0.001595	0.001672	28.0872	0.091384	0.001967	46.4569	-61.1827	-166.231	-0.040045	0.057476	-0.947994	-0.949350	0.000340	46.4569	-0.947999	-4.518981E+12	-7.527269E-17	NaN
73	1.000000	0.066832	7.36576e+06	-42289.1	955.818	-29783.8	0.000000	0.000000	6.066775	-0.093115	NaN	0.000000	0.001618	0.001701	28.0866	0.083061	0.002046	40.6014	-37.4981	-165.064	-0.052530	0.065477	-0.939994	-0.941348	-0.093115	40.6014	-0.938274	-3.340767E+12	2.787239E-14	NaN
73	1.000000	0.074828	7.36576e+06	-42289.1	955.818	-29783.8	0.000000	0.000000	6.074775	-0.001630	NaN	0.000000	0.001581	0.001677	28.0867	0.081278	0.002000	40.6373	159.129	-165.903	-0.063926	0.073508	-0.931997	-0.933318	-0.001630	40.6373	-0.931967	-2.746283E+12	5.937031E-16	NaN
73	1.000000	0.082806	7.36576e+06	-42289.1	955.819	-29783.8	0.000000	0.000000	6.082752	-0.027961	NaN	0.000000	0.001602	0.001656	28.0873	0.053546	0.002073	25.8249	87.9664	-162.849	-0.106723	0.081457	-0.924020	-0.925369	-0.027961	25.8249	-0.923208	-2.091761E+12	1.336730E-14	NaN
73	1.000000	0.090807	7.36576e+06	-42289.1	955.818	-29783.8	0.000000	0.000000	6.090752	-0.059805	NaN	0.000000	0.001569	0.001674	28.0879	0.019837	0.002107	9.413004	-88.3104	-164.373	-0.016898	0.089533	-0.916018	-0.917293	-0.059805	9.413004	-0.911253	-1.442412E+12	4.146165E-14	NaN
73	1.000000	0.098828	7.36576e+06	-42289.1	955.818	-29783.8	0.000000	0.000000	6.098776	0.026422	NaN	0.000000	0.001559	0.001669	28.0868	0.114749	0.002014	56.986	169.996	-164.172	-0.030069	0.097508	-0.907998	-0.909318	0.026422	56.986	-0.908345	-1.317691E+12	-2.005148E-14	NaN
73	1.000000	0.106812	7.36576e+06	-42289.1	955.819	-29783.8	0.000000	0.000000	6.106758	-0.000576	NaN	0.000000	0.001601	0.001684	28.0866	0.045189	0.002059	21.9461	-96.2423	-163.757	0.007918	0.105513	-0.900014	-0.901312	-0.000576	21.9461	-0.899994	-1.016227E+12	5.663133E-16	NaN
73	1.000000	0.114842	7.36576e+06	-42289.1	955.818	-29783.8	0.000000	0.000000	6.114787	-0.024761	NaN	0.000000	0.001587	0.001678	28.0892	0.041594	0.002004	20.7572	-126.1	-164.075	-0.056713	0.113481	-0.891984	-0.893345	-0.024761	20.7572	-0.891089	-7.702686E+11	3.214605E-14	NaN
73	1.000000	0.122832	7.36576e+06	-42289.1	955.818	-29783.8	0.000000	0.000000	6.122778	-0.004568	NaN	0.000000	0.001561	0.001672	28.0881	0.091603	0.002034	45.0278	-111.781	-165.592	0.017260	0.121506	-0.883994	-0.885320	-0.004568	45.0278	-0.883918	-6.161532E+11	7.413697E-15	NaN
73	1.000000	0.130836	7.36576e+06	-42289.1	955.819	-29783.8	0.000000	0.000000	6.130783	0.003044	NaN	0.000000	0.001604	0.001703	28.0886	0.066355	0.002048	32.3993	179.073	-167.663	-0.092166	0.129497	-0.875990	-0.877329	0.003044	32.3993	-0.876060	-4.824159E+11	-6.310290E-15	NaN
73	1.000000	0.138834	7.36576e+06	-42289.1	955.818	-29783.8	0.000000	0.000000	6.138780	-0.029664	NaN	0.000000	0.001631	0.001700	28.0886	0.043153	0.002067	20.8775	-18.2126	-164.845	0.007910	0.137549	-0.867991	-0.869276	-0.029664	20.8775	-0.866926	-3.629503E+11	8.173080E-14	NaN
73	1.000000	0.146847	7.36576e+06	-42289.1	955.818	-29783.8	0.000000	0.000000	6.146791	-0.063939	NaN	0.000000	0.001644	0.001688	28.0875	0.100597	0.002040	49.3027	79.048	-167.434	-0.023943	0.145539	-0.859978	-0.861287	-0.063939	49.3027	-0.859006	-2.835721E+11	2.254756E-13	NaN
73	1.000000	0.154842	7.36576e+06	-42289.1	955.818	-29783.9	0.000000	0.000000	6.154787	-0.033253	NaN	0.000000	0.001639	0.001643	28.088	0.064707	0.001975	32.7667	153.869	-162.395	0.083219	0.153564	-0.851984	-0.853262	-0.033253	32.7667	-0.851223	-2.224833E+11	1.494648E-13	NaN
73	1.000000	0.162842	7.36576e+06	-42289.1	955.818	-29783.9	0.000000	0.000000	6.162789	0.026094	NaN	0.000000	0.001636	0.001599	28.0886	0.021234	0.002062	10.2972	62.899	-163.418	-0.050317	0.161555	-0.843984	-0.845271	0.026094	10.2972	-0.845885	-1.883671E+11	-1.385265E-13	NaN
73	1.000000	0.170881	7.36576e+06	-42289.1	955.818	-29783.9	0.000000	0.000000	6.170824	-0.088356	NaN	0.000000	0.001626	0.001602	28.0893	0.073254	0.002003	36.5757	154.253	-165.346	-0.011637	0.169581	-0.835945	-0.837244	-0.088356	36.5757	-0.834133	-1.305567E+11	6.767641E-13	NaN
73	1.000000	0.178828	7.36576e+06	-42289.1	955.819	-29783.9	0.000000	0.000000	6.178775	0.005311	NaN	0.000000	0.001609	0.001615	28.0884	0.088116	0.001974	44.6472	-6.266484	-166.328	0.114645	0.177537	-0.827997	-0.829288	0.005311	44.6472	-0.828087	-1.081060E+11	-4.912655E-14	NaN
73	1.000000	0.186865	7.36576e+06	-42289.1	955.82	-29783.8	0.000000	0.000000	6.186811	-0.024505	NaN	0.000000	0.001643	0.001632	28.0888	0.070344	0.001956	35.9542	-78.6255	-164.771	-0.020007	0.185483	-0.819960	-0.821343	-0.024505	35.9542	-0.819449	-8.255453E+10	2.968368E-13	NaN
73	1.000000	0.194869	7.36576e+06	-42289.1	955.819	-29783.9	0.000000	0.000000	6.194813	-0.042466	NaN	0.000000	0.001650	0.001606	28.0897	0.051768	0.001997	25.924	50.7753	-164.903	0.027519	0.193568	-0.811957	-0.813258	-0.042466	25.924	-0.810729	-6.287176E+10	6.754435E-13	NaN
73	1.000000	0.202866	7.36576e+06	-42289.1	955.818	-29783.9	0.000000	0.000000	6.202811	-0.031460	NaN	0.000000	0.001577	0.001624	28.0879	0.082593	0.002003	41.2367	88.1295	-166.435	-0.152323	0.201516	-0.803960	-0.805309	-0.031460	41.2367	-0.803388	-4.998568E+10	6.293872E-13	NaN
73	1.000000	0.210889	7.36576e+06	-42289.1	955.818	-29783.9	0.000000	0.000000	6.210836	0.021739	NaN	0.000000	0.001558	0.001577	28.0882	0.141060	0.002061	68.4316	-126.541	-161.355	-0.003875	0.209622	-0.795937	-0.797204	0.021739	68.4316	-0.796175	-3.989701E+10	-5.448736E-13	NaN
73	1.000000	0.218852	7.36576e+06	-42289.1	955.819	-29783.9	0.000000	0.000000	6.218798	0.002300	NaN	0.000000	0.001509	0.001634	28.088	0.070730	0.002014	35.1111	-166.474	-165.105	-0.047821	0.217598	-0.787974	-0.789227	0.002300	35.1111	-0.788023	-3.091956E+10	-7.440066E-14	NaN
73	1.000000	0.226873	7.36576e+06	-42289.1	955.818	-29783.9	0.000000	0.000000	6.226820	0.000919	NaN	0.000000	0.001566	0.001638	28.0883	0.053287	0.001928	27.6362	-154.144	-165.584	-0.006959	0.225560	-0.779953	-0.781265	0.000919	27.6362	-0.779977	-2.403952E+10	-3.822412E-14	NaN
73	1.000000	0.234897	7.36576e+06	-42289.1	955.818	-29783.9	0.000000	0.000000	6.234845	0.032047	NaN	0.000000	0.001546	0.001617	28.0875	0.056179	0.002161	26.0027	-107.182	-165.02	0.040248	0.233596	-0.771929	-0.773230	0.032047	26.0027	-0.772853	-1.923530E+10	-1.666063E-12	NaN
73	1.000000	0.242892	7.36576e+06	-42289.1	955.819	-29783.9	0.000000	0.000000	6.242837	-0.020123	NaN	0.000000	0.001573	0.001629	28.0894	0.018390	0.001870	9.834423	-163.602	-163.453	-0.057489	0.241607	-0.763934	-0.765218	-0.020123	9.834423	-0.762399	-1.386571E+10	1.451273E-12	NaN
73	1.000000	0.250897	7.36576e+06	-42289.1	955.818	-29783.9	0.000000	0.000000	6.250841	-0.083299	NaN	0.000000	0.001566	0.001663	28.0874	0.054652	0.001966	27.8026	-179.647	-164.42	-0.032808	0.249624	-0.755928	-0.757202	-0.083299	27.8026	-0.753681	-1.055175E+10	7.894297E-12	NaN
73	1.000000	0.258869	7.36576e+06	-42289.1	955.818	-29783.9	0.000000	0.000000	6.258816	0.013826	NaN	0.000000	0.001564	0.001663	28.088	0.067046	0.002135	31.4084	-101.079	-162.825	-0.057855	0.257587	-0.747957	-0.749239	0.013826	31.4084	-0.748287	-8.910448E+9	-1.551696E-12	NaN
73	1.000000	0.266897	7.36576e+06	-42289.1	955.819	-29783.9	0.000000	0.000000	6.266843	-0.017662	NaN	0.000000	0.001535	0.001649	28.0885	0.093230	0.002004	46.5202	-102.357	-163.051	-0.027652	0.265624	-0.739929	-0.741201	-0.017662	46.5202	-0.739644	-6.795298E+9	2.599221E-12	NaN
73	1.000000	0.274887	7.36576e+06	-42289.1	955.819	-29783.9	0.000000	0.000000	6.274834	0.007105	NaN	0.000000	0.001553	0.001674	28.0883	0.060952	0.001950	31.2499	133.969	-164.158	0.040870	0.273584	-0.731939	-0.733242	0.007105	31.2499	-0.732109	-5.364778E+9	-1.324294E-12	NaN
73	1.000000	0.282917	7.36576e+06	-42289.1	955.818	-29783.9	0.000000	0.000000	6.282864	0.014550	NaN	0.000000	0.001510	0.001685	28.0869	0.048887	0.002065	23.6718	47.1043	-164.224	-0.113735	0.281602	-0.723909	-0.725223	0.014550	23.6718	-0.724370	-4.207858E+9	-3.457790E-12	NaN
73	1.000000	0.290898	7.36576e+06	-42289.1	955.819	-29783.9	0.000000	0.000000	6.290843	-0.049670	NaN	0.000000	0.001522	0.001673	28.0874	0.114141	0.001991	57.3203	74.067	-166.358	-0.062580	0.289573	-0.715928	-0.717253	-0.049670	57.3203	-0.715278	-3.162724E+9	1.570471E-11	NaN
73	1.000000	0.298916	7.36576e+06	-42289.1	955.817	-29783.9	0.000000	0.000000	6.298862	-0.010892	NaN	0.000000	0.001565	0.001704	28.0871	0.032482	0.001974	16.4552	72.3025	-166.945	-0.013799	0.297623	-0.707910	-0.709203	-0.010892	16.4552	-0.707414	-2.470305E+9	4.409123E-12	NaN
73	1.000000	0.306917	7.36576e+06	-42289.1	955.818	-29783.9	0.000000	0.000000	6.306862	-0.033007	NaN	0.000000	0.001668	0.001695	28.0872	0.020217	0.001925	10.5	31.6762	-164.274	0.006565	0.305657	-0.699909	-0.701169	-0.033007	10.5	-0.697552	-1.811718E+9	1.821877E-11	NaN
73	1.000000	0.314903	7.36576e+06	-42289.1	955.818	-29783.9	0.000000	0.000000	6.314850	0.008914	NaN	0.000000	0.001626	0.001693	28.0871	0.040625	0.002068	19.6436	-65.8699	-164.499	-0.053342	0.313606	-0.691923	-0.693219	0.008914	19.6436	-0.692263	-1.534071E+9	-5.810457E-12	NaN
73	1.000000	0.322918	7.36576e+06	-42289.1	955.819	-29783.9	0.000000	0.000000	6.322864	-0.013602	NaN	0.000000	0.001582	0.001716	28.0883	0.085181	0.002105	40.4735	-107.585	-167.199	-0.009443	0.321615	-0.683908	-0.685211	-0.013602	40.4735	-0.683656	-1.170024E+9	1.162528E-11	NaN
73	1.000000	0.330932	7.36576e+06	-42289.1	955.819	-29783.9	0.000000	0.000000	6.330879	-0.003499	NaN	0.000000	0.001572	0.001682	28.0881	0.113494	0.002002	56.6876	22.9262	-163.073	-0.037555	0.329600	-0.675893	-0.677225	-0.003499	56.6876	-0.675847	-9.149518E+8	3.824022E-12	NaN
73	1.000000	0.338916	7.36576e+06	-42289.1	955.818	-29783.9	0.000000	0.000000	6.338864	0.019998	NaN	0.000000	0.001547	0.001683	28.0883	0.027851	0.001948	14.2967	-161.827	-164.524	-0.006662	0.337596	-0.667910	-0.669230	0.019998	14.2967	-0.668959	-7.364410E+8	-2.715519E-11	NaN
73	1.000000	0.346929	7.36576e+06	-42289.1	955.819	-29783.9	0.000000	0.000000	6.346876	-0.004130	NaN	0.000000	0.001549	0.001679	28.0867	0.095378	0.002004	47.5988	83.8217	-162.217	-0.075040	0.345635	-0.659897	-0.661191	-0.004130	47.5988	-0.659831	-5.522815E+8	7.478320E-12	NaN
73	1.000000	0.354941	7.36576e+06	-42289.1	955.819	-29783.9	0.000000	0.000000	6.354888	0.008250	NaN	0.000000	0.001516	0.001715	28.0876	0.087740	0.002055	42.706	131.058	-164.259	0.025861	0.353646	-0.651885	-0.653180	0.008250	42.706	-0.652030	-4.317788E+8	-1.910640E-11	NaN
73	1.000000	0.362958	7.36576e+06	-42289.1	955.819	-29783.9	0.000000	0.000000	6.362904	-0.012877	NaN	0.000000	0.001555	0.001681	28.0872	0.130799	0.002130	61.4204	-161.319	-165.646	0.014598	0.361626	-0.643867	-0.645199	-0.012877	61.4204	-0.643710	-3.320373E+8	3.878201E-11	NaN
73	1.000000	0.370958	7.36576e+06	-42289.1	955.819	-29783.9	0.000000	0.000000	6.370906	0.033501	NaN	0.000000	0.001541	0.001716	28.0871	0.044810	0.002002	22.3876	74.4609	-162.494	0.094860	0.369647	-0.635868	-0.637179	0.033501	22.3876	-0.636990	-2.685271E+8	-1.247583E-10	NaN
73	1.000000	0.378959	7.36576e+06	-42289.1	955.818	-29783.9	0.000000	0.000000	6.378903	-0.063927	NaN	0.000000	0.001585	0.001668	28.0883	0.164858	0.002008	82.0882	10.458	-167.399	0.002238	0.377662	-0.627866	-0.629164	-0.063927	82.0882	-0.627282	-1.975593E+8	3.235820E-10	NaN
73	1.000000	0.386949	7.36576e+06	-42289.1	955.818	-29783.9	0.000000	0.000000	6.386900	0.088810	NaN	0.000000	0.001580	0.001699	28.0884	0.096738	0.001955	49.494	84.5909	-166.13	0.028761	0.385619	-0.619876	-0.621206	0.088810	49.494	-0.621222	-1.630911E+8	-5.445402E-10	NaN
73	1.000000	0.394921	7.36576e+06	-42289.1	955.818	-29783.9	0.000000	0.000000	6.394866	-0.060728	NaN	0.000000	0.001569	0.001696	28.0884	0.048526	0.001926	25.1948	171.912	-163.129	-0.081564	0.393649	-0.611904	-0.613177	-0.060728	25.1948	-0.610097	-1.146680E+8	5.295995E-10	NaN
73	1.000000	0.402921	7.36576e+06	-42289.1	955.818	-29783.9	0.000000	0.000000	6.402866	-0.027809	NaN	0.000000	0.001589	0.001699	28.0896	0.077717	0.001940	40.0671	162.707	-163.855	-0.038823	0.401631	-0.603905	-0.605195	-0.027809	40.0671	-0.603385	-9.269718E+7	3.000021E-10	NaN
73	1.000000	0.410965	7.36576e+06	-42289.1	955.818	-29783.9	0.000000	0.000000	6.410908	-0.084864	NaN	0.000000	0.001599	0.001673	28.0899	0.023964	0.001913	12.5268	-147.002	-165.008	-0.019537	0.409652	-0.595861	-0.597174	-0.084864	12.5268	-0.590780	-6.214621E+7	1.365558E-9	NaN
73	1.000000	0.418925	7.36576e+06	-42289.1	955.818	-29783.9	0.000000	0.000000	6.418872	0.020783	NaN	0.000000	0.001562	0.001693	28.0897	0.112430	0.002006	56.0503	-63.3305	-168.021	-0.042605	0.417628	-0.587901	-0.589198	0.020783	56.0503	-0.588179	-5.722187E+7	-3.632022E-10	NaN
73	1.000000	0.426966	7.36576e+06	-42289.1	955.818	-29783.9	0.000000	0.000000	6.426912	-0.006221	NaN	0.000000	0.001635	0.001717	28.0889	0.151806	0.002023	75.0438	119.584	-163.755	-0.068810	0.425691	-0.579860	-0.581135	-0.006221	75.0438	-0.579797	-4.384602E+7	1.418809E-10	NaN
73	1.000000	0.434987	7.36576e+06	-42289.1	955.819	-29783.9	0.000000	0.000000	6.434935	0.020707	NaN	0.000000	0.001653	0.001689	28.089	0.128259	0.002003	64.0187	10.5586	-163.934	-0.084438	0.433678	-0.571838	-0.573148	0.020707	64.0187	-0.572081	-3.430694E+7	-6.035822E-10	NaN
73	1.000000	0.442934	7.36576e+06	-42289.1	955.818	-29783.9	0.000000	0.000000	6.442879	-0.050010	NaN	0.000000	0.001638	0.001707	28.0892	0.124725	0.001928	64.6828	-53.4072	-163.686	-0.044787	0.441670	-0.563892	-0.565155	-0.050010	64.6828	-0.563312	-2.595281E+7	1.926970E-9	NaN
73	1.000000	0.450993	7.36576e+06	-42289.1	955.819	-29783.9	0.000000	0.000000	6.450939	-0.017924	NaN	0.000000	0.001614	0.001686	28.088	0.133672	0.001845	72.455	85.8916	-165.251	-0.088665	0.449684	-0.555833	-0.557142	-0.017924	72.455	-0.555647	-2.033059E+7	8.816420E-10	NaN
73	1.000000	0.458971	7.36576e+06	-42289.1	955.819	-29783.9	0.000000	0.000000	6.458916	-0.026875	NaN	0.000000	0.001655	0.001648	28.0885	0.100373	0.002046	49.0552	22.7517	-165.349	0.015881	0.457626	-0.547855	-0.549200	-0.026875	49.0552	-0.547444	-1.565114E+7	1.717115E-9	NaN
73	1.000000	0.466993	7.36576e+06	-42289.1	955.817	-29783.9	0.000000	0.000000	6.466943	0.068352	NaN	0.000000	0.001540	0.001647	28.0887	0.074134	0.002093	35.4193	179.682	-164.371	0.059952	0.465695	-0.539832	-0.541131	0.068352	35.4193	-0.541280	-1.285593E+7	-5.316765E-9	NaN
73	1.000000	0.474989	7.36576e+06	-42289.1	955.818	-29783.9	0.000000	0.000000	6.474937	0.016059	NaN	0.000000	0.001540	0.001636	28.0895	0.033004	0.001944	16.9748	133.862	-162.44	-0.021888	0.473736	-0.531836	-0.533090	0.016059	16.9748	-0.532546	-9.72577e+06	-1.651218E-9	NaN
73	1.000000	0.482978	7.36576e+06	-42289.1	955.818	-29783.9	0.000000	0.000000	6.482923	-0.023618	NaN	0.000000	0.001578	0.001649	28.0901	0.054266	0.002060	26.3452	-64.3909	-160.699	-0.016890	0.481705	-0.523848	-0.525120	-0.023618	26.3452	-0.523176	-7.20701e+06	3.277140E-9	NaN
73	1.000000	0.491008	7.36576e+06	-42289.1	955.818	-29783.9	0.000000	0.000000	6.490953	-0.041930	NaN	0.000000	0.001552	0.001696	28.0907	0.022788	0.002157	10.5666	32.7715	-168.435	-0.009388	0.489692	-0.515818	-0.517134	-0.041930	10.5666	-0.512842	-5.17594e+06	8.101014E-9	NaN
73	1.000000	0.498993	7.36576e+06	-42289.1	955.819	-29783.9	0.000000	0.000000	6.498941	0.033874	NaN	0.000000	0.001599	0.001681	28.09	0.153177	0.001945	78.7486	-16.5516	-168.112	0.107531	0.497650	-0.507833	-0.509176	0.033874	78.7486	-0.508155	-4.45368e+06	-7.605773E-9	NaN
73	1.000000	0.507016	7.36576e+06	-42289.1	955.818	-29783.9	0.000000	0.000000	6.506961	-0.045194	NaN	0.000000	0.001562	0.001704	28.0906	0.105044	0.001914	54.8684	144.686	-165.059	0.001093	0.505663	-0.499809	-0.501163	-0.045194	54.8684	-0.499192	-3.33994e+06	1.353148E-8	NaN
73	1.000000	0.515043	7.36576e+06	-42289.1	955.819	-29783.9	0.000000	0.000000	6.514989	-0.020256	NaN	0.000000	0.001584	0.001662	28.09	0.183811	0.001982	92.7191	-35.5313	-162.276	-0.095155	0.513710	-0.491783	-0.493116	-0.020256	92.7191	-0.491619	-2.61826e+06	7.736474E-9	NaN
73	1.000000	0.523033	7.36576e+06	-42289.1	955.819	-29783.9	0.000000	0.000000	6.522978	-0.040666	NaN	0.000000	0.001546	0.001694	28.0883	0.026910	0.002110	12.753	119.482	-164.01	-0.043812	0.521697	-0.483793	-0.485129	-0.040666	12.753	-0.481402	-1.88428e+06	2.158188E-8	NaN
73	1.000000	0.531008	7.36576e+06	-42289.1	955.817	-29783.9	0.000000	0.000000	6.530954	-0.026945	NaN	0.000000	0.001539	0.001685	28.0868	0.104838	0.001977	53.0339	-112.243	-162.539	0.000172	0.529670	-0.475818	-0.477155	-0.026945	53.0339	-0.475437	-1.5546e+06	1.733236E-8	NaN
73	1.000000	0.539020	7.36576e+06	-42289.1	955.818	-29783.9	0.000000	0.000000	6.538969	0.053691	NaN	0.000000	0.001557	0.001691	28.0878	0.013583	0.001987	6.834351	-9.644346	-162.968	0.019676	0.537665	-0.467806	-0.469161	0.053691	6.834351	-0.473698	-1.46978e+06	-3.652962E-8	NaN
73	1.000000	0.546984	7.36576e+06	-42289.1	955.818	-29783.9	0.000000	0.000000	6.546928	-0.055220	NaN	0.000000	0.001586	0.001702	28.0875	0.037426	0.002112	17.7217	44.9056	-166.072	-0.069093	0.545756	-0.459842	-0.461070	-0.055220	17.7217	-0.457505	-870859	6.340831E-8	NaN
73	1.000000	0.555017	7.36576e+06	-42289.1	955.818	-29783.9	0.000000	0.000000	6.554965	0.034765	NaN	0.000000	0.001598	0.001732	28.0884	0.038478	0.002081	18.4877	-157.012	-163.161	0.103082	0.553750	-0.451809	-0.453076	0.034765	18.4877	-0.453219	-757977	-4.586498E-8	NaN
73	1.000000	0.563031	7.36576e+06	-42289.1	955.819	-29783.9	0.000000	0.000000	6.562976	-0.029410	NaN	0.000000	0.001540	0.001718	28.0888	0.162116	0.002001	81.0093	-5.449599	-164.236	0.020069	0.561734	-0.443795	-0.445091	-0.029410	81.0093	-0.443523	-553427	5.314082E-8	NaN
73	1.000000	0.571027	7.36576e+06	-42289.1	955.819	-29783.9	0.000000	0.000000	6.570972	-0.046209	NaN	0.000000	0.001572	0.001703	28.089	0.040316	0.002005	20.1092	96.0272	-167.524	-0.035501	0.569709	-0.435799	-0.437116	-0.046209	20.1092	-0.434075	-407085	1.135125E-7	NaN
73	1.000000	0.579023	7.36576e+06	-42289.1	955.819	-29783.9	0.000000	0.000000	6.578966	-0.095013	NaN	0.000000	0.001587	0.001777	28.0894	0.093573	0.002075	45.1011	119.648	-163.463	-0.074716	0.577708	-0.427802	-0.429118	-0.095013	45.1011	-0.426222	-315206	3.014324E-7	NaN
73	1.000000	0.587032	7.36576e+06	-42289.1	955.818	-29783.9	0.000000	0.000000	6.586978	0.000450	NaN	0.000000	0.001561	0.001730	28.0897	0.011044	0.002038	5.418639	5.782893	-169.599	-0.020083	0.585702	-0.419794	-0.421124	0.000450	5.418639	-0.419856	-256080	-1.756334E-9	NaN
73	1.000000	0.595062	7.36576e+06	-42289.1	955.818	-29783.9	0.000000	0.000000	6.595009	0.015049	NaN	0.000000	0.001553	0.001736	28.0888	0.018244	0.002034	8.971374	68.8149	-164.652	-0.004263	0.593711	-0.411764	-0.413115	0.015049	8.971374	-0.413022	-204812	-7.347617E-8	NaN
73	1.000000	0.603027	7.36576e+06	-42289.1	955.819	-29783.9	0.000000	0.000000	6.602974	-0.007424	NaN	0.000000	0.001615	0.001726	28.0878	0.022023	0.001883	11.6984	-143.312	-164.31	0.031746	0.601713	-0.403798	-0.405113	-0.007424	11.6984	-0.403322	-149056	4.980598E-8	NaN
73	1.000000	0.611074	7.36576e+06	-42289.1	955.819	-29783.9	0.000000	0.000000	6.611022	0.049976	NaN	0.000000	0.001585	0.001690	28.088	0.060117	0.001960	30.6731	22.9728	-163.655	0.032396	0.609791	-0.395752	-0.397035	0.049976	30.6731	-0.396974	-121010	-4.129909E-7	NaN
73	1.000000	0.619027	7.36576e+06	-42289.1	955.819	-29783.9	0.000000	0.000000	6.618971	-0.070813	NaN	0.000000	0.001568	0.001701	28.0884	0.037229	0.002063	18.0427	131.709	-164.72	0.058695	0.617745	-0.387799	-0.389081	-0.070813	18.0427	-0.384855	-81191.3	8.721758E-7	NaN
73	1.000000	0.627036	7.36576e+06	-42289.1	955.819	-29783.9	0.000000	0.000000	6.626980	-0.058457	NaN	0.000000	0.001579	0.001730	28.0876	0.051913	0.002099	24.7297	95.5052	-165.148	0.014418	0.625714	-0.379790	-0.381112	-0.058457	24.7297	-0.378017	-64777.4	9.024359E-7	NaN
73	1.000000	0.635048	7.36576e+06	-42289.1	955.818	-29783.9	0.000000	0.000000	6.634993	-0.036770	NaN	0.000000	0.001660	0.001726	28.0889	0.055952	0.001972	28.3678	11.87	-163.752	-0.104233	0.633774	-0.371778	-0.373052	-0.036770	28.3678	-0.370806	-51018.5	7.207208E-7	NaN
73	1.000000	0.643060	7.36576e+06	-42289.1	955.818	-29783.9	0.000000	0.000000	6.643006	-0.014484	NaN	0.000000	0.001637	0.001724	28.0896	0.174673	0.001977	88.3694	-177.654	-162.349	-0.040712	0.641740	-0.363766	-0.365085	-0.014484	88.3694	-0.363643	-40222.6	3.600933E-7	NaN
73	1.000000	0.651058	7.36576e+06	-42289.1	955.818	-29783.9	0.000000	0.000000	6.651005	-0.002834	NaN	0.000000	0.001622	0.001724	28.0891	0.017860	0.002005	8.909211	-124.109	-166.007	-0.025475	0.649744	-0.355768	-0.357082	-0.002834	8.909211	-0.355529	-30701.5	9.230229E-8	NaN
73	1.000000	0.659083	7.36576e+06	-42289.1	955.818	-29783.9	0.000000	0.000000	6.659029	-0.015245	NaN	0.000000	0.001610	0.001732	28.0901	0.112885	0.002105	53.6378	-113.898	-161.397	-0.021080	0.657767	-0.347743	-0.349058	-0.015245	53.6378	-0.347530	-23503.5	6.486301E-7	NaN
73	1.000000	0.667075	7.36576e+06	-42289.1	955.818	-29783.9	0.000000	0.000000	6.667019	-0.049679	NaN	0.000000	0.001632	0.001720	28.09	0.095602	0.002032	47.0396	-57.23	-166.163	-0.084636	0.665772	-0.339751	-0.341054	-0.049679	47.0396	-0.338959	-17634.9	2.817070E-6	NaN
73	1.000000	0.675078	7.36576e+06	-42289.1	955.818	-29783.9	0.000000	0.000000	6.675025	0.000116	NaN	0.000000	0.001645	0.001762	28.0901	0.071860	0.001991	36.1008	-175.507	-164.298	0.033744	0.673721	-0.331748	-0.333105	0.000116	36.1008	-0.331750	-13837.8	-8.387756E-9	NaN
73	1.000000	0.683051	7.36576e+06	-42289.1	955.819	-29783.9	0.000000	0.000000	6.682996	-0.046370	NaN	0.000000	0.001636	0.001708	28.0899	0.113421	0.001976	57.3997	59.385	-167.65	-0.123553	0.681793	-0.323775	-0.325032	-0.046370	57.3997	-0.323169	-10357.2	4.477059E-6	NaN
73	1.000000	0.691062	7.36576e+06	-42289.1	955.818	-29783.9	0.000000	0.000000	6.691009	0.023850	NaN	0.000000	0.001646	0.001694	28.0892	0.032791	0.002055	15.9603	-17.2305	-165.151	0.024535	0.689836	-0.315764	-0.316990	0.023850	15.9603	-0.316885	-8370.49	-2.849304E-6	NaN
73	1.000000	0.699082	7.36576e+06	-42289.1	955.818	-29783.9	0.000000	0.000000	6.699026	-0.059335	NaN	0.000000	0.001643	0.001649	28.0901	0.087897	0.001935	45.4258	-13.7084	-166.035	-0.044619	0.697785	-0.307744	-0.309041	-0.059335	45.4258	-0.306764	-5930.98	1.000432E-5	NaN
73	1.000000	0.707079	7.36576e+06	-42289.1	955.819	-29783.9	0.000000	0.000000	6.707024	-0.044783	NaN	0.000000	0.001575	0.001679	28.09	0.065636	0.001835	35.7633	115.452	-162.943	-0.084701	0.705794	-0.299747	-0.301031	-0.044783	35.7633	-0.298807	-4517.26	9.913840E-6	NaN
73	1.000000	0.715060	7.36576e+06	-42289.1	955.819	-29783.9	0.000000	0.000000	6.715004	-0.058504	NaN	0.000000	0.001557	0.001681	28.0904	0.050830	0.002036	24.9621	152.424	-163.312	-0.004137	0.713788	-0.291765	-0.293038	-0.058504	24.9621	-0.290008	-3337.47	1.752949E-5	NaN
73	1.000000	0.723100	7.36576e+06	-42289.1	955.818	-29783.9	0.000000	0.000000	6.723048	0.038174	NaN	0.000000	0.001540	0.001732	28.0917	0.033077	0.001955	16.9167	-83.002	-163.624	-0.021251	0.721814	-0.283726	-0.285011	0.038174	16.9167	-0.285418	-2848.09	-1.340327E-5	NaN
73	1.000000	0.731116	7.36576e+06	-42289.1	955.819	-29783.9	0.000000	0.000000	6.731061	-0.029334	NaN	0.000000	0.001546	0.001702	28.0915	0.101535	0.001909	53.1746	2.903433	-163.605	-0.029434	0.729778	-0.275710	-0.277047	-0.029334	53.1746	-0.275296	-2003.93	1.463801E-5	NaN
73	1.000000	0.739103	7.36576e+06	-42289.1	955.818	-29783.9	0.000000	0.000000	6.739049	0.003613	NaN	0.000000	0.001472	0.001690	28.0899	0.057922	0.002007	28.8668	66.0765	-166.057	0.050792	0.737782	-0.267723	-0.269043	0.003613	28.8668	-0.267817	-1542.88	-2.341616E-6	NaN
73	1.000000	0.747100	7.36576e+06	-42289.1	955.82	-29783.9	0.000000	0.000000	6.747047	0.003905	NaN	0.000000	0.001540	0.001675	28.0915	0.010948	0.002022	5.413437	136.665	-164.089	-0.071605	0.745777	-0.259725	-0.261048	0.003905	5.413437	-0.260266	-1183.04	-3.301039E-6	NaN
73	1.000000	0.755110	7.36576e+06	-42289.1	955.818	-29783.9	0.000000	0.000000	6.755055	-0.034324	NaN	0.000000	0.001597	0.001723	28.091	0.115468	0.001920	60.1399	99.7592	-165.632	-0.057130	0.753832	-0.251715	-0.252994	-0.034324	60.1399	-0.251287	-860.726	3.987842E-5	NaN
73	1.000000	0.763116	7.36576e+06	-42289.1	955.818	-29783.9	0.000000	0.000000	6.763062	-0.005879	NaN	0.000000	0.001577	0.001681	28.0901	0.091654	0.001966	46.6294	160.411	-161.264	-0.023767	0.761780	-0.243710	-0.245046	-0.005879	46.6294	-0.243615	-654.511	8.981606E-6	NaN
73	1.000000	0.771101	7.36576e+06	-42289.1	955.818	-29783.9	0.000000	0.000000	6.771049	0.011075	NaN	0.000000	0.001557	0.001700	28.0901	0.061522	0.002016	30.5116	79.0119	-164.688	-0.003065	0.769836	-0.235724	-0.236990	0.011075	30.5116	-0.235996	-497.608	-2.225593E-5	NaN
73	1.000000	0.779107	7.36576e+06	-42289.1	955.818	-29783.9	0.000000	0.000000	6.779053	-0.032794	NaN	0.000000	0.001568	0.001687	28.0897	0.046804	0.002083	22.4655	104.338	-166.29	-0.073640	0.777849	-0.227718	-0.228977	-0.032794	22.4655	-0.226624	-354.077	9.261892E-5	NaN
73	1.000000	0.787127	7.36576e+06	-42289.1	955.818	-29783.9	0.000000	0.000000	6.787071	-0.065334	NaN	0.000000	0.001550	0.001709	28.0898	0.080508	0.001902	42.3225	-126.801	-162.445	-0.066322	0.785788	-0.219698	-0.221037	-0.065334	42.3225	-0.218541	-263.228	0.000248	NaN
73	1.000000	0.795102	7.36576e+06	-42289.1	955.819	-29783.9	0.000000	0.000000	6.795048	-0.033505	NaN	0.000000	0.001571	0.001703	28.0891	0.132694	0.001898	69.9146	-166.093	-161.575	-0.115596	0.793790	-0.211723	-0.213036	-0.033505	69.9146	-0.211364	-201.784	0.000166	NaN
73	1.000000	0.803133	7.36576e+06	-42289.1	955.818	-29783.9	0.000000	0.000000	6.803081	0.032086	NaN	0.000000	0.001557	0.001690	28.0904	0.059593	0.001878	31.7325	-78.4943	-165.505	-0.031739	0.801815	-0.203693	-0.205011	0.032086	31.7325	-0.204451	-155.814	-0.000206	NaN
73	1.000000	0.811132	7.36576e+06	-42289.1	955.818	-29783.9	0.000000	0.000000	6.811076	-0.055838	NaN	0.000000	0.001551	0.001682	28.0901	0.066376	0.002106	31.5236	37.4245	-166.134	-0.044234	0.809757	-0.195694	-0.197069	-0.055838	31.5236	-0.194365	-106.336	0.000525	NaN
73	1.000000	0.819132	7.36576e+06	-42289.1	955.819	-29783.9	0.000000	0.000000	6.819076	-0.052421	NaN	0.000000	0.001573	0.001620	28.0897	0.068041	0.001925	35.3411	-16.7546	-162.197	-0.145595	0.817861	-0.187694	-0.188965	-0.052421	35.3411	-0.186581	-78.8402	0.000665	NaN
73	1.000000	0.827127	7.36576e+06	-42289.1	955.818	-29783.9	0.000000	0.000000	6.827076	0.058651	NaN	0.000000	0.001574	0.001618	28.0906	0.035952	0.001950	18.4416	-37.5749	-166.823	0.058200	0.825835	-0.179699	-0.180991	0.058651	18.4416	-0.182084	-66.1988	-0.000886	NaN
73	1.000000	0.835132	7.36576e+06	-42289.1	955.817	-29783.9	0.000000	0.000000	6.835077	-0.035232	NaN	0.000000	0.001584	0.001599	28.0892	0.041294	0.002024	20.4005	-16.9982	-164.351	-0.024316	0.833843	-0.171694	-0.172983	-0.035232	20.4005	-0.170399	-41.7379	0.000844	NaN
73	1.000000	0.843167	7.36576e+06	-42289.1	955.819	-29783.9	0.000000	0.000000	6.843111	-0.055859	NaN	0.000000	0.001573	0.001624	28.0884	0.023722	0.002059	11.5205	83.8578	-169.295	-0.074160	0.841851	-0.163659	-0.164975	-0.055859	11.5205	-0.160022	-27.4399	0.002036	NaN
73	1.000000	0.851150	7.36576e+06	-42289.1	955.818	-29783.9	0.000000	0.000000	6.851096	0.000280	NaN	0.000000	0.001574	0.001616	28.0883	0.049378	0.001869	26.4156	8.421467	-160.004	0.023299	0.849866	-0.155676	-0.156960	0.000280	26.4156	-0.155684	-22.9551	-1.220300E-5	NaN
73	1.000000	0.859149	7.36576e+06	-42289.1	955.818	-29783.9	0.000000	0.000000	6.859096	0.009933	NaN	0.000000	0.001571	0.001659	28.0899	0.109378	0.001907	57.3687	-104.939	-163.309	0.021877	0.857790	-0.147676	-0.149035	0.009933	57.3687	-0.147806	-16.5148	-0.000601	NaN
73	1.000000	0.867163	7.36576e+06	-42289.1	955.818	-29783.9	0.000000	0.000000	6.867109	-0.013469	NaN	0.000000	0.001566	0.001650	28.0896	0.052334	0.002049	25.5362	-100.506	-164.44	0.035434	0.865825	-0.139663	-0.141001	-0.013469	25.5362	-0.139267	-11.4599	0.001175	NaN
73	1.000000	0.875118	7.36576e+06	-42289.1	955.819	-29783.9	0.000000	0.000000	6.875065	0.013128	NaN	0.000000	0.001571	0.001625	28.0898	0.197942	0.001913	103.494	-157.613	-163.922	-0.056315	0.873806	-0.131707	-0.133020	0.013128	103.494	-0.131803	-8.258753	-0.001590	NaN
73	1.000000	0.883131	7.36576e+06	-42289.1	955.819	-29783.9	0.000000	0.000000	6.883076	-0.033007	NaN	0.000000	0.001558	0.001616	28.0906	0.181557	0.002012	90.2427	69.5737	-165.483	-0.043539	0.881870	-0.123695	-0.124956	-0.033007	90.2427	-0.123420	-5.657684	0.005834	NaN
73	1.000000	0.891192	7.36576e+06	-42289.1	955.818	-29783.9	0.000000	0.000000	6.891136	-0.075086	NaN	0.000000	0.001528	0.001660	28.0899	0.121924	0.002058	59.2327	152.505	-165.813	-0.169196	0.889828	-0.115634	-0.116998	-0.075086	59.2327	-0.114683	-3.763254	0.019952	NaN
73	1.000000	0.899199	7.36576e+06	-42289.1	955.819	-29783.9	0.000000	0.000000	6.899145	-0.012437	NaN	0.000000	0.001620	0.001642	28.0893	0.124479	0.001966	63.3042	-44.5755	-168.349	-0.072074	0.897877	-0.107627	-0.108949	-0.012437	63.3042	-0.107479	-2.657071	0.004681	NaN
73	1.000000	0.907177	7.36576e+06	-42289.1	955.818	-29783.9	0.000000	0.000000	6.907123	-0.018724	NaN	0.000000	0.001594	0.001638	28.0902	0.024266	0.001997	12.1493	176.364	-163.317	0.013379	0.905890	-0.099648	-0.100935	-0.018724	12.1493	-0.098492	-1.691284	0.011071	NaN
73	1.000000	0.915134	7.36576e+06	-42289.1	955.819	-29783.9	0.000000	0.000000	6.915081	0.024296	NaN	0.000000	0.001628	0.001671	28.0895	0.090809	0.002027	44.7959	-138.638	-164.641	0.004583	0.913865	-0.091692	-0.092961	0.024296	44.7959	-0.092099	-1.209911	-0.020081	NaN
73	1.000000	0.923187	7.36576e+06	-42289.1	955.818	-29783.9	0.000000	0.000000	6.923132	-0.052297	NaN	0.000000	0.001631	0.001631	28.0894	0.047079	0.002032	23.1679	-73.9301	-166.922	-0.069051	0.921873	-0.083638	-0.084953	-0.052297	23.1679	-0.081945	-0.691859	0.075589	NaN
73	1.000000	0.931172	7.36576e+06	-42289.1	955.818	-29783.9	0.000000	0.000000	6.931116	-0.059020	NaN	0.000000	0.001636	0.001625	28.0903	0.058472	0.001967	29.7318	-34.6218	-164.426	-0.097748	0.929846	-0.075654	-0.076979	-0.059020	29.7318	-0.074165	-0.439404	0.134318	NaN
73	1.000000	0.939183	7.36576e+06	-42289.1	955.818	-29783.9	0.000000	0.000000	6.939128	-0.023394	NaN	0.000000	0.001612	0.001644	28.0913	0.033673	0.001897	17.7476	-139.035	-161.223	0.048560	0.937849	-0.067643	-0.068977	-0.023394	17.7476	-0.066654	-0.276827	0.084507	NaN
73	1.000000	0.947194	7.36576e+06	-42289.1	955.819	-29783.9	0.000000	0.000000	6.947142	0.034981	NaN	0.000000	0.001637	0.001639	28.0905	0.038085	0.001924	19.7967	92.5565	-165.194	-0.001788	0.945877	-0.059632	-0.060949	0.034981	19.7967	-0.060957	-0.191811	-0.182374	NaN
73	1.000000	0.955186	7.36576e+06	-42289.1	955.818	-29783.9	0.000000	0.000000	6.955134	0.018521	NaN	0.000000	0.001622	0.001655	28.0919	0.069429	0.002012	34.499	79.6786	-165.082	0.000624	0.953874	-0.051640	-0.052951	0.018521	34.499	-0.052042	-0.105136	-0.176164	NaN
73	1.000000	0.963205	7.36576e+06	-42289.1	955.818	-29783.9	0.000000	0.000000	6.963150	-0.041104	NaN	0.000000	0.001638	0.001617	28.092	0.080551	0.002111	38.1529	-38.7183	-163.524	-0.006603	0.961919	-0.043621	-0.044906	-0.041104	38.1529	-0.042813	-0.055093	0.746085	NaN
73	1.000000	0.971181	7.36576e+06	-42289.1	955.819	-29783.9	0.000000	0.000000	6.971128	0.001986	NaN	0.000000	0.001559	0.001630	28.0921	0.089063	0.001990	44.7464	-90.1722	-164.612	0.001741	0.969880	-0.035644	-0.036946	0.001986	44.7464	-0.035678	-0.033535	-0.059221	NaN
73	1.000000	0.979193	7.36576e+06	-42289.1	955.819	-29783.9	0.000000	0.000000	6.979139	-0.021408	NaN	0.000000	0.001643	0.001644	28.092	0.066176	0.001953	33.8925	77.0299	-164.8	-0.089641	0.977808	-0.027633	-0.029017	-0.021408	33.8925	-0.027159	-0.019243	1.112515	NaN
73	1.000000	0.987224	7.36576e+06	-42289.1	955.819	-29783.9	0.000000	0.000000	6.987170	-0.002145	NaN	0.000000	0.001641	0.001672	28.0917	0.110172	0.001949	56.5384	-6.071061	-165.391	-0.051870	0.985900	-0.019602	-0.020926	-0.002145	56.5384	-0.019573	-0.012251	0.175065	NaN
73	1.000000	0.995175	7.36576e+06	-42289.1	955.818	-29783.9	0.000000	0.000000	6.995119	-0.070636	NaN	0.000000	0.001657	0.001666	28.0921	0.079503	0.001829	43.4643	-52.9596	-165.98	-0.014196	0.993870	-0.011651	-0.012956	-0.070636	43.4643	-0.010432	-0.006634	10.6473	NaN
73	1.000000	1.003223	7.36576e+06	-42289.1	955.818	-29783.9	0.000000	0.000000	7.003168	-0.038942	NaN	0.000000	0.001650	0.001640	28.0921	0.045251	0.002019	22.4117	22.3126	-163.104	0.014813	1.001888	-0.003603	-0.004938	-0.038942	22.4117	-0.002299	-0.001646	23.6617	NaN
73	1.000000	1.011206	7.36576e+06	-42289.1	955.819	-29783.9	0.000000	0.000000	7.011259	2.574294	NaN	0.000000	0.001632	0.001629	28.0917	3.424104	0.001832	1868.9	8.216534	-167.49	1.330623	1.009905	0.004381	0.003079	2.574294	1868.9	0.003348	0.002675	962.525	33016.9
73	2.000000	1.017782	7.36576e+06	-42289.1	955.819	-29783.9	0.000000	0.000000	7.018065	8.204660	NaN	0.000000	0.001675	0.001658	28.0914	9.084108	0.001626	5586.43	4.130184	-168.759	8.533736	1.017358	0.010956	0.010532	8.204660	5586.43	0.009854	0.009020	909.601	53740.7
73	2.000000	1.019769	7.36576e+06	-42289.1	955.819	-29783.9	0.000000	0.000000	7.020234	12.6242	NaN	0.000000	0.001643	0.001609	28.091	12.1891	0.001680	7256.06	9.029804	-176.507	11.4548	1.019402	0.012943	0.012576	12.6242	7256.06	0.011638	0.011060	1141.47	63038.2
73	2.000000	1.021732	7.36576e+06	-42289.1	955.819	-29783.9	0.000000	0.000000	7.022405	17.6924	NaN	0.000000	0.001628	0.001647	28.0919	15.1513	0.001715	8835.6	7.278793	-174.816	17.1944	1.021372	0.014906	0.014547	17.6924	8835.6	0.013404	0.013216	1338.75	70220.6
73	2.000000	1.023674	7.36576e+06	-42289.1	955.819	-29783.9	0.000000	0.000000	7.024506	21.5406	NaN	0.000000	0.001560	0.001663	28.0916	17.6654	0.001748	10103.4	4.831764	-174.376	20.9678	1.023393	0.016848	0.016568	21.5406	10103.4	0.015249	0.015619	1379.16	73861.8
73	2.000000	1.025676	7.36576e+06	-42289.1	955.82	-29783.9	0.000000	0.000000	7.026779	28.138	NaN	0.000000	0.001588	0.001621	28.0925	19.0238	0.001626	11701.1	5.122738	-176.58	27.2858	1.025374	0.018850	0.018548	28.138	11701.1	0.017047	0.018113	1553.51	79434.7
73	2.000000	1.027688	7.36576e+06	-42289.1	955.819	-29783.9	0.000000	0.000000	7.028917	31.1975	NaN	0.000000	0.001546	0.001627	28.0932	21.9981	0.001698	12956	6.525061	-177.99	30.8657	1.027355	0.020863	0.020529	31.1975	12956	0.019057	0.021081	1479.86	81525.7
73	2.000000	1.029659	7.36576e+06	-42289.1	955.819	-29783.9	0.000000	0.000000	7.031145	37.4509	NaN	0.000000	0.001560	0.001640	28.0922	23.9928	0.001851	12958.9	6.040926	-177.163	35.6908	1.029347	0.022833	0.022522	37.4509	12958.9	0.020666	0.023599	1586.96	77071.4
73	2.000000	1.031676	7.36576e+06	-42289.1	955.82	-29783.9	0.000000	0.000000	7.033225	38.9923	NaN	0.000000	0.001596	0.001604	28.0903	25.827	0.001739	14851	5.647127	179.973	37.6008	1.031346	0.024850	0.024521	38.9923	14851	0.022881	0.027273	1429.71	82160.7
73	2.000000	1.033659	7.36576e+06	-42289.1	955.818	-29783.9	0.000000	0.000000	7.035445	44.7374	NaN	0.000000	0.001560	0.001600	28.09	28.271	0.001747	16187.2	5.267910	-179.171	43.4879	1.033333	0.026834	0.026507	44.7374	16187.2	0.024761	0.030582	1462.87	84569
73	2.000000	1.035601	7.36576e+06	-42289.1	955.818	-29783.9	0.000000	0.000000	7.037632	50.7055	NaN	0.000000	0.001593	0.001593	28.0899	29.5613	0.001791	16502.2	2.517637	-176.599	48.9729	1.035283	0.028775	0.028457	50.7055	16502.2	0.026471	0.033746	1502.58	82073.8
73	2.000000	1.037628	7.36576e+06	-42289.1	955.819	-29783.9	0.000000	0.000000	7.039928	57.2695	NaN	0.000000	0.001574	0.001639	28.0909	30.9471	0.001741	17775.5	4.223681	-178.775	56.1086	1.037333	0.030802	0.030507	57.2695	17775.5	0.028386	0.037465	1528.62	83904
73	2.000000	1.039641	7.36576e+06	-42289.1	955.818	-29783.9	0.000000	0.000000	7.042117	61.5532	NaN	0.000000	0.001573	0.001648	28.0908	33.6687	0.001891	17808.2	6.258281	179.761	58.5346	1.039253	0.032815	0.032427	61.5532	17808.2	0.030223	0.041206	1493.78	80151.5
73	2.000000	1.041646	7.36576e+06	-42289.1	955.819	-29783.9	0.000000	0.000000	7.044413	68.6365	NaN	0.000000	0.001578	0.001635	28.0909	35.2039	0.001815	19392.1	6.426400	178.35	68.3436	1.041320	0.034820	0.034494	68.6365	19392.1	0.032165	0.045351	1513.44	83196
73	2.000000	1.043631	7.36576e+06	-42289.1	955.819	-29783.9	0.000000	0.000000	7.046624	74.1191	NaN	0.000000	0.001572	0.001592	28.0915	38.0511	0.001929	19725.5	7.902972	177.246	73.5654	1.043328	0.036806	0.036502	74.1191	19725.5	0.033988	0.049415	1499.93	81072.3
73	2.000000	1.045704	7.36576e+06	-42289.1	955.82	-29783.9	0.000000	0.000000	7.048841	77.6347	NaN	0.000000	0.001544	0.001613	28.0922	38.933	0.001728	22531.9	9.309877	174.749	79.6359	1.045344	0.038878	0.038518	77.6347	22531.9	0.036294	0.054802	1416.65	87937.7
73	2.000000	1.047593	7.36576e+06	-42289.1	955.819	-29783.9	0.000000	0.000000	7.051029	84.9018	NaN	0.000000	0.001577	0.001603	28.0907	41.0855	0.001868	21997.5	4.360179	178.983	82.7801	1.047328	0.040767	0.040503	84.9018	21997.5	0.037872	0.058645	1447.73	82991.2
73	2.000000	1.049642	7.36576e+06	-42289.1	955.819	-29783.9	0.000000	0.000000	7.053407	92.9066	NaN	0.000000	0.001532	0.001619	28.0921	42.6189	0.001835	23228.7	4.292258	179.676	93.5864	1.049339	0.042816	0.042514	92.9066	23228.7	0.039816	0.063555	1461.84	84182.9
73	2.000000	1.051562	7.36576e+06	-42289.1	955.819	-29783.9	0.000000	0.000000	7.055600	99.5277	NaN	0.000000	0.001581	0.001605	28.0908	43.9622	0.001756	25036.8	4.675913	177.156	96.1835	1.051282	0.044737	0.044456	99.5277	25036.8	0.041755	0.068644	1449.92	87307.7
73	2.000000	1.053598	7.36576e+06	-42289.1	955.82	-29783.9	0.000000	0.000000	7.057979	107.885	NaN	0.000000	0.001534	0.001603	28.0913	46.4683	0.001847	25153.1	4.318991	178.327	106.894	1.053318	0.046773	0.046492	107.885	25153.1	0.043556	0.073540	1467.02	84742.5
73	2.000000	1.055626	7.36576e+06	-42289.1	955.819	-29783.9	0.000000	0.000000	7.060361	116.504	NaN	0.000000	0.001524	0.001609	28.0923	47.4994	0.001834	25903.4	5.030171	177.221	116.676	1.055340	0.048801	0.048515	116.504	25903.4	0.045427	0.078805	1478.38	84304.8
73	2.000000	1.057616	7.36576e+06	-42289.1	955.819	-29783.9	0.000000	0.000000	7.062525	120.72	NaN	0.000000	0.001566	0.001615	28.0947	49.2726	0.001783	27634.1	3.263700	178.22	119.48	1.057269	0.050791	0.050443	120.72	27634.1	0.047514	0.084885	1422.15	86656.7
73	2.000000	1.059636	7.36576e+06	-42289.1	955.819	-29783.9	0.000000	0.000000	7.065096	134.155	NaN	0.000000	0.001544	0.001661	28.0924	52.1587	0.001829	28515.7	7.003809	175.244	134.545	1.059237	0.052810	0.052411	134.155	28515.7	0.049282	0.090206	1487.21	86743.9
73	2.000000	1.061611	7.36576e+06	-42289.1	955.819	-29783.9	0.000000	0.000000	7.067372	141.476	NaN	0.000000	0.001606	0.001654	28.0916	53.2897	0.001800	29597.8	5.614535	175.168	141.974	1.061371	0.054785	0.054545	141.476	29597.8	0.051200	0.096159	1471.27	87204.3
73	2.000000	1.063634	7.36576e+06	-42289.1	955.819	-29783.9	0.000000	0.000000	7.069666	148.056	NaN	0.000000	0.001637	0.001627	28.095	55.7452	0.001888	29523.6	3.145015	177.493	147.866	1.063336	0.056809	0.056510	148.056	29523.6	0.053048	0.102065	1450.6	84431.4
73	2.000000	1.065557	7.36576e+06	-42289.1	955.82	-29783.9	0.000000	0.000000	7.071986	157.738	NaN	0.000000	0.001626	0.001608	28.0939	56.2661	0.001782	31580.5	4.779901	175.798	154.667	1.065208	0.058731	0.058383	157.738	31580.5	0.054985	0.108442	1454.59	87618
73	2.000000	1.067532	7.36576e+06	-42289.1	955.82	-29783.9	0.000000	0.000000	7.074293	165.8	NaN	0.000000	0.001592	0.001610	28.0946	57.9083	0.001934	29944.7	-0.085614	-179.105	161.386	1.067254	0.060706	0.060428	165.8	29944.7	0.056554	0.113741	1457.7	81121.5
73	2.000000	1.069639	7.36576e+06	-42289.1	955.82	-29783.9	0.000000	0.000000	7.076733	173.908	NaN	0.000000	0.001555	0.001646	28.0932	60.98	0.001924	31696.8	8.628191	173.349	175.749	1.069245	0.062813	0.062419	173.908	31696.8	0.058699	0.121183	1435.09	83189.4
73	2.000000	1.071537	7.36576e+06	-42289.1	955.819	-29783.9	0.000000	0.000000	7.079108	185.499	NaN	0.000000	0.001576	0.001651	28.0939	61.653	0.001769	34857.9	3.232560	176.445	182.441	1.071287	0.064712	0.064461	185.499	34857.9	0.060721	0.128405	1444.64	88875.7
73	2.000000	1.073580	7.36576e+06	-42289.1	955.82	-29783.9	0.000000	0.000000	7.081583	196.018	NaN	0.000000	0.001541	0.001642	28.0933	64.8806	0.001907	34021.1	6.280466	173.85	197.166	1.073273	0.066754	0.066447	196.018	34021.1	0.062433	0.134676	1455.48	84698.7
73	2.000000	1.075590	7.36576e+06	-42289.1	955.819	-29783.9	0.000000	0.000000	7.083927	204.14	NaN	0.000000	0.001586	0.001650	28.0935	64.3623	0.001664	38685.3	2.715610	175.67	202.206	1.075353	0.068765	0.068527	204.14	38685.3	0.064807	0.143607	1421.52	93267.6
73	2.000000	1.077562	7.36576e+06	-42289.1	955.819	-29783.9	0.000000	0.000000	7.086633	222.01	NaN	0.000000	0.001579	0.001611	28.0931	68.0181	0.001807	37634.8	8.784449	171.382	221.468	1.077204	0.070736	0.070378	222.01	37634.8	0.066312	0.149409	1485.92	88955.9
73	2.000000	1.079587	7.36576e+06	-42289.1	955.819	-29783.9	0.000000	0.000000	7.089241	236.185	NaN	0.000000	0.001580	0.001633	28.0939	69.8464	0.001775	39357.8	5.898855	173.178	233.421	1.079191	0.072762	0.072365	236.185	39357.8	0.068261	0.157085	1503.55	90727.1
73	2.000000	1.081511	7.36576e+06	-42289.1	955.82	-29783.9	0.000000	0.000000	7.091567	245.964	NaN	0.000000	0.001579	0.001624	28.0944	71.4296	0.001799	39715.4	6.915179	171.732	241.535	1.081199	0.074685	0.074373	245.964	39715.4	0.070040	0.164252	1497.48	89531.6
73	2.000000	1.083596	7.36576e+06	-42289.1	955.82	-29783.9	0.000000	0.000000	7.094146	257.98	NaN	0.000000	0.001550	0.001662	28.0952	74.3091	0.001886	39404	8.838418	170.512	258.214	1.083209	0.076771	0.076384	257.98	39404	0.071860	0.171738	1502.18	86872.2
73	2.000000	1.085595	7.36576e+06	-42289.1	955.82	-29783.9	0.000000	0.000000	7.096507	266.795	NaN	0.000000	0.001566	0.001636	28.0945	75.252	0.001755	42882.4	5.147499	173.2	266.846	1.085234	0.078770	0.078409	266.795	42882.4	0.074103	0.181180	1472.54	92044.4
73	2.000000	1.087463	7.36576e+06	-42289.1	955.819	-29783.9	0.000000	0.000000	7.099075	283.844	NaN	0.000000	0.001557	0.001664	28.0935	77.4835	0.001756	44132.3	4.677597	172.817	277.418	1.087233	0.080637	0.080407	283.844	44132.3	0.075813	0.188536	1505.51	92860.7
73	2.000000	1.089559	7.36576e+06	-42289.1	955.82	-29783.9	0.000000	0.000000	7.101842	300.167	NaN	0.000000	0.001572	0.001643	28.0948	79.6482	0.001813	43929.3	4.977937	173.426	297.537	1.089270	0.082733	0.082445	300.167	43929.3	0.077609	0.196408	1528.28	90562.2
73	2.000000	1.091536	7.36576e+06	-42289.1	955.82	-29783.9	0.000000	0.000000	7.104257	310.807	NaN	0.000000	0.001571	0.001629	28.0943	79.901	0.001812	44103.4	1.564520	176.694	306.76	1.091226	0.084711	0.084400	310.807	44103.4	0.079425	0.204528	1519.63	89098.2
73	2.000000	1.093573	7.36576e+06	-42289.1	955.82	-29783.9	0.000000	0.000000	7.106752	321.956	NaN	0.000000	0.001581	0.001610	28.0936	83.7201	0.001794	46660.8	5.720958	172.319	321.425	1.093186	0.086748	0.086360	321.956	46660.8	0.081573	0.214324	1502.19	92085.3
73	2.000000	1.095529	7.36576e+06	-42289.1	955.82	-29783.9	0.000000	0.000000	7.109142	332.53	NaN	0.000000	0.001549	0.001629	28.0941	82.7896	0.001693	48906.9	1.062352	175.615	329.417	1.095230	0.088703	0.088404	332.53	48906.9	0.083604	0.223786	1485.93	94455.4
73	2.000000	1.097539	7.36576e+06	-42289.1	955.819	-29783.9	0.000000	0.000000	7.111621	343.911	NaN	0.000000	0.001572	0.001615	28.0931	86.5347	0.001755	49304.4	4.726209	171.983	342.506	1.097313	0.090714	0.090487	343.911	49304.4	0.085482	0.232708	1477.86	93379.8
73	2.000000	1.099627	7.36576e+06	-42289.1	955.819	-29783.9	0.000000	0.000000	7.114497	363.123	NaN	0.000000	0.001527	0.001625	28.0924	89.5398	0.001908	46939	11.2163	167.015	363.666	1.099143	0.092801	0.092318	363.123	46939	0.086999	0.240029	1512.83	87533.6
73	2.000000	1.101608	7.36576e+06	-42289.1	955.818	-29783.9	0.000000	0.000000	7.116871	372.672	NaN	0.000000	0.001528	0.001628	28.0926	89.7935	0.001727	52003.2	3.708717	173.299	376.949	1.101201	0.094782	0.094375	372.672	52003.2	0.089407	0.251873	1479.6	94670
73	2.000000	1.103472	7.36576e+06	-42289.1	955.82	-29783.9	0.000000	0.000000	7.119520	391.773	NaN	0.000000	0.001508	0.001619	28.0934	92.5693	0.001798	51495.3	7.852873	169.413	386.2	1.103146	0.096646	0.096321	391.773	51495.3	0.090940	0.259549	1509.43	92348.7
73	2.000000	1.105547	7.36576e+06	-42289.1	955.82	-29783.9	0.000000	0.000000	7.122341	409.918	NaN	0.000000	0.001569	0.001596	28.0935	92.6633	0.001713	54099.9	3.472903	173.538	408.986	1.105094	0.098721	0.098268	409.918	54099.9	0.093038	0.270233	1516.91	95082.4
73	2.000000	1.107467	7.36576e+06	-42289.1	955.821	-29783.9	0.000000	0.000000	7.124575	417.56	NaN	0.000000	0.001592	0.001643	28.0938	95.1096	0.001761	53999.7	4.935832	171.129	413.537	1.107323	0.100641	0.100497	417.56	53999.7	0.094841	0.279575	1493.55	93307.1
73	2.000000	1.109528	7.36576e+06	-42289.1	955.82	-29783.9	0.000000	0.000000	7.127430	436.876	NaN	0.000000	0.001614	0.001619	28.0939	98.2007	0.001822	53910.6	5.091580	172.122	433.884	1.109181	0.102702	0.102355	436.876	53910.6	0.096624	0.288957	1511.91	91628.5
73	2.000000	1.111552	7.36576e+06	-42289.1	955.82	-29783.9	0.000000	0.000000	7.130012	450.431	NaN	0.000000	0.001611	0.001629	28.0931	99.1068	0.001764	56175.1	2.936394	173.388	448.953	1.111226	0.104727	0.104401	450.431	56175.1	0.098713	0.300134	1500.77	93682.8
73	2.000000	1.113630	7.36576e+06	-42289.1	955.821	-29783.9	0.000000	0.000000	7.132183	452.693	NaN	0.000000	0.001611	0.001647	28.0927	101.571	0.001719	59099.6	1.868770	173.698	454.675	1.113519	0.106805	0.106693	452.693	59099.6	0.101060	0.312928	1446.63	96524
73	2.000000	1.115557	7.36576e+06	-42289.1	955.821	-29783.9	0.000000	0.000000	7.135382	483.674	NaN	0.000000	0.001625	0.001643	28.0927	102.066	0.001822	56031.1	2.460260	174.212	483.269	1.115169	0.108731	0.108343	483.674	56031.1	0.102257	0.319551	1513.61	90559.2