File: remote_trans/data/nanoindenter/0828-1/data/Data_2025-08-06,11h17m57s/2025-07-22_16-23-58_1_768.txt
2025-07-22, 16:23:58, 1
Index	Phase	Displacement	Time	Pos X	Pos Y	Pos Z	Rot A	Rot B	Piezo Z	Force A	Force B	Gripper	Voltage A	Voltage B	Temperature	Amplitude force	Amplitude pos	Stiffness	Phase shift	Phase excitation	Force A raw	Displacement raw	HMax	HMax raw	Real Force	Real Stiffness	Contact Depth	Area	Hardness	Reduced Mod.
[#]	[#]	[um]	[s]	[um]	[um]	[um]	[m°]	[m°]	[um]	[uN]	[uN]	[V]	[V]	[V]	[°C]	[uN]	[um]	[N/m]	[°]	[°]	[uN]	[um]	[um]	[um]	[uN]	[N/m]	[um]	[um^2]	[MPa]	[MPa]
768	1.000000	0.002738	7.37257e+06	-38689.1	1005.82	-29796.5	0.000000	0.000000	6.002809	0.047040	NaN	0.000000	0.001638	0.001824	28.0827	0.049718	0.001111	44.7333	103.339	-168.283	0.030865	0.001470	-1.117386	-1.118654	0.047040	44.7333	-1.118175	-8.789915E+14	-5.351635E-17	NaN
768	1.000000	0.012760	7.37257e+06	-38689.1	1005.82	-29796.5	0.000000	0.000000	6.012829	0.005540	NaN	0.000000	0.001719	0.001758	28.0826	0.062557	0.001276	49.0188	-96.4527	17.4024	0.004309	0.011296	-1.107364	-1.108828	0.005540	49.0188	-1.107449	-6.310294E+14	-8.779779E-18	NaN
768	1.000000	0.022684	7.37257e+06	-38689.1	1005.82	-29796.5	0.000000	0.000000	6.022754	0.023567	NaN	0.000000	0.001703	0.001791	28.0825	0.040111	0.001569	25.5634	25.5505	-162.368	0.041517	0.021357	-1.097440	-1.098767	0.023567	25.5634	-1.098131	-4.731317E+14	-4.981062E-17	NaN
768	1.000000	0.032665	7.37257e+06	-38689.1	1005.82	-29796.5	0.000000	0.000000	6.032734	-0.014311	NaN	0.000000	0.001704	0.001816	28.0824	0.022697	0.001988	11.416	-139.765	15.4907	-0.087707	0.031351	-1.087458	-1.088772	-0.014311	11.416	-1.086518	-3.304134E+14	4.331165E-17	NaN
768	1.000000	0.042669	7.37257e+06	-38689.1	1005.82	-29796.5	0.000000	0.000000	6.042739	0.024008	NaN	0.000000	0.001684	0.001794	28.0827	0.040990	0.001963	20.8819	-150.53	-160.428	-0.001835	0.041340	-1.077455	-1.078784	0.024008	20.8819	-1.078317	-2.563998E+14	-9.363449E-17	NaN
768	1.000000	0.052707	7.37257e+06	-38689.1	1005.82	-29796.5	0.000000	0.000000	6.052778	0.020660	NaN	0.000000	0.001669	0.001783	28.0824	0.234835	0.002111	111.25	159.21	12.8928	0.097453	0.051355	-1.067416	-1.068769	0.020660	111.25	-1.067556	-1.838015E+14	-1.124016E-16	NaN
768	1.000000	0.062675	7.37257e+06	-38689.1	1005.82	-29796.5	0.000000	0.000000	6.062743	-0.029869	NaN	0.000000	0.001731	0.001743	28.0811	0.077190	0.002036	37.9161	53.9325	-163.701	-0.113348	0.061358	-1.057449	-1.058766	-0.029869	37.9161	-1.056858	-1.320050E+14	2.262733E-16	NaN
768	1.000000	0.072708	7.37257e+06	-38689.1	1005.82	-29796.5	0.000000	0.000000	6.072779	0.042178	NaN	0.000000	0.001700	0.001761	28.081	0.043287	0.001962	22.0639	116.74	14.8827	0.088143	0.071348	-1.047416	-1.048776	0.042178	22.0639	-1.048850	-1.030265E+14	-4.093875E-16	NaN
768	1.000000	0.082714	7.37257e+06	-38689.1	1005.82	-29796.5	0.000000	0.000000	6.082782	-0.017453	NaN	0.000000	0.001688	0.001769	28.0813	0.062511	0.002019	30.9541	-131.49	-166.12	0.033604	0.081367	-1.037410	-1.038757	-0.017453	30.9541	-1.036987	-7.135987E+13	2.445810E-16	NaN
768	1.000000	0.092661	7.37257e+06	-38689.1	1005.82	-29796.5	0.000000	0.000000	6.092730	-0.009901	NaN	0.000000	0.001671	0.001757	28.0809	0.035549	0.002082	17.0779	122.435	15.8143	0.041151	0.091349	-1.027463	-1.028774	-0.009901	17.0779	-1.027028	-5.242112E+13	1.888725E-16	NaN
768	1.000000	0.102697	7.37257e+06	-38689.1	1005.82	-29796.5	0.000000	0.000000	6.102766	-0.007670	NaN	0.000000	0.001695	0.001797	28.0809	0.010938	0.001966	5.562555	-115.509	-164.634	-0.078091	0.101385	-1.017427	-1.018738	-0.007670	5.562555	-1.016393	-3.770629E+13	2.034036E-16	NaN
768	1.000000	0.112699	7.37257e+06	-38689.1	1005.82	-29796.5	0.000000	0.000000	6.112771	0.075066	NaN	0.000000	0.001720	0.001731	28.0808	0.177215	0.002009	88.2277	-15.601	16.9631	0.046687	0.111329	-1.007425	-1.008795	0.075066	88.2277	-1.008063	-2.912821E+13	-2.577086E-15	NaN
768	1.000000	0.122682	7.37257e+06	-38689.1	1005.82	-29796.5	0.000000	0.000000	6.122754	0.078607	NaN	0.000000	0.001699	0.001737	28.0809	0.064338	0.002022	31.8241	-177.733	-164.956	0.083619	0.121439	-0.997442	-0.998685	0.078607	31.8241	-0.999295	-2.219582E+13	-3.541504E-15	NaN
768	1.000000	0.132714	7.37257e+06	-38689.1	1005.82	-29796.5	0.000000	0.000000	6.132785	0.030292	NaN	0.000000	0.001733	0.001747	28.0804	0.139722	0.001989	70.2467	40.9552	10.3329	0.096655	0.131355	-0.987410	-0.988769	0.030292	70.2467	-0.987733	-1.550893E+13	-1.953217E-15	NaN
768	1.000000	0.142733	7.37257e+06	-38689.1	1005.82	-29796.5	0.000000	0.000000	6.142804	0.037019	NaN	0.000000	0.001682	0.001739	28.0817	0.200574	0.002087	96.098	115.359	-166.413	0.075638	0.141426	-0.977390	-0.978697	0.037019	96.098	-0.977679	-1.135390E+13	-3.260493E-15	NaN
768	1.000000	0.152731	7.37257e+06	-38689.1	1005.82	-29796.5	0.000000	0.000000	6.152798	-0.050035	NaN	0.000000	0.001667	0.001756	28.0807	0.068435	0.002035	33.6264	-108.077	13.5994	-0.060069	0.151338	-0.967393	-0.968786	-0.050035	33.6264	-0.966277	-7.970535E+12	6.277445E-15	NaN
768	1.000000	0.162708	7.37257e+06	-38689.1	1005.82	-29796.5	0.000000	0.000000	6.162778	-0.003918	NaN	0.000000	0.001711	0.001764	28.0807	0.050314	0.002095	24.0175	-174.128	-163.594	0.004648	0.161398	-0.957415	-0.958726	-0.003918	24.0175	-0.957293	-6.030747E+12	6.496420E-16	NaN
768	1.000000	0.172737	7.37257e+06	-38689.1	1005.82	-29796.5	0.000000	0.000000	6.172808	0.036401	NaN	0.000000	0.001689	0.001762	28.0805	0.101118	0.001957	51.6612	-134.453	16.0733	-0.030614	0.171339	-0.947387	-0.948784	0.036401	51.6612	-0.947915	-4.507243E+12	-8.076016E-15	NaN
768	1.000000	0.182737	7.37257e+06	-38689.1	1005.82	-29796.5	0.000000	0.000000	6.182808	0.023455	NaN	0.000000	0.001692	0.001736	28.0809	0.076070	0.001955	38.9136	140.604	-169.121	-0.069992	0.181448	-0.937386	-0.938676	0.023455	38.9136	-0.937838	-3.295888E+12	-7.116451E-15	NaN
768	1.000000	0.192737	7.37257e+06	-38689.1	1005.82	-29796.5	0.000000	0.000000	6.192805	-0.047699	NaN	0.000000	0.001678	0.001757	28.0818	0.016701	0.002010	8.308989	156.263	14.6202	0.026489	0.191354	-0.927386	-0.928769	-0.047699	8.308989	-0.923081	-2.083540E+12	2.289327E-14	NaN
768	1.000000	0.202744	7.37257e+06	-38689.1	1005.82	-29796.5	0.000000	0.000000	6.202811	-0.070446	NaN	0.000000	0.001672	0.001738	28.082	0.071471	0.001901	37.5944	74.8108	-167.286	-0.034798	0.201475	-0.917380	-0.918648	-0.070446	37.5944	-0.915974	-1.670504E+12	4.217020E-14	NaN
768	1.000000	0.212750	7.37257e+06	-38689.1	1005.82	-29796.5	0.000000	0.000000	6.212816	-0.082456	NaN	0.000000	0.001679	0.001747	28.0819	0.059543	0.002004	29.7067	-116.317	16.1182	-0.068625	0.211383	-0.907373	-0.908741	-0.082456	29.7067	-0.905291	-1.198283E+12	6.881179E-14	NaN
768	1.000000	0.222767	7.37257e+06	-38689.1	1005.82	-29796.5	0.000000	0.000000	6.222836	0.000639	NaN	0.000000	0.001672	0.001741	28.0821	0.179811	0.002111	85.1763	17.6258	-162.997	0.073302	0.221408	-0.897357	-0.898715	0.000639	85.1763	-0.897362	-9.363206E+11	-6.824947E-16	NaN
768	1.000000	0.232763	7.37257e+06	-38689.1	1005.82	-29796.5	0.000000	0.000000	6.232830	-0.059980	NaN	0.000000	0.001659	0.001788	28.0821	0.160232	0.001986	80.6756	15.1753	12.4804	0.004177	0.231399	-0.887361	-0.888725	-0.059980	80.6756	-0.886803	-6.740616E+11	8.898337E-14	NaN
768	1.000000	0.242759	7.37257e+06	-38689.1	1005.82	-29796.5	0.000000	0.000000	6.242825	-0.067356	NaN	0.000000	0.001680	0.001759	28.0821	0.027404	0.002077	13.1929	68.1244	-163.897	-0.062909	0.241502	-0.877365	-0.878621	-0.067356	13.1929	-0.873536	-4.459442E+11	1.510418E-13	NaN
768	1.000000	0.252760	7.37257e+06	-38689.1	1005.82	-29796.5	0.000000	0.000000	6.252828	-0.053019	NaN	0.000000	0.001692	0.001733	28.0821	0.109937	0.002130	51.6179	152.657	15.3851	-0.012378	0.251433	-0.867363	-0.868691	-0.053019	51.6179	-0.866593	-3.592075E+11	1.476010E-13	NaN
768	1.000000	0.262760	7.37257e+06	-38689.1	1005.82	-29796.5	0.000000	0.000000	6.262825	-0.098632	NaN	0.000000	0.001676	0.001759	28.082	0.068424	0.002039	33.5532	146.702	-168.574	-0.118498	0.261471	-0.857364	-0.858652	-0.098632	33.5532	-0.855159	-2.515291E+11	3.921291E-13	NaN
768	1.000000	0.272788	7.37257e+06	-38689.1	1005.82	-29796.5	0.000000	0.000000	6.272856	-0.043642	NaN	0.000000	0.001706	0.001767	28.082	0.168403	0.001981	85.0014	162.084	14.3112	-0.096512	0.271446	-0.847335	-0.848678	-0.043642	85.0014	-0.846950	-1.947314E+11	2.241119E-13	NaN
768	1.000000	0.282776	7.37257e+06	-38689.1	1005.82	-29796.5	0.000000	0.000000	6.282845	-0.006267	NaN	0.000000	0.001712	0.001772	28.0819	0.189953	0.002118	89.6962	122.731	-165.834	0.021737	0.281513	-0.837347	-0.838610	-0.006267	89.6962	-0.837295	-1.440930E+11	4.348995E-14	NaN
768	1.000000	0.292772	7.37257e+06	-38689.1	1005.82	-29796.5	0.000000	0.000000	6.292838	-0.076848	NaN	0.000000	0.001761	0.001759	28.082	0.039582	0.002092	18.9187	-41.926	14.9241	-0.086178	0.291367	-0.827352	-0.828756	-0.076848	18.9187	-0.824305	-9.606953E+10	7.999160E-13	NaN
768	1.000000	0.302769	7.37257e+06	-38689.1	1005.82	-29796.5	0.000000	0.000000	6.302836	-0.054036	NaN	0.000000	0.001749	0.001791	28.0821	0.101434	0.002006	50.5657	133.545	-162.995	-0.113453	0.301430	-0.817355	-0.818694	-0.054036	50.5657	-0.816553	-7.541616E+10	7.165028E-13	NaN
768	1.000000	0.312802	7.37257e+06	-38689.1	1005.82	-29796.5	0.000000	0.000000	6.312871	-0.017197	NaN	0.000000	0.001782	0.001787	28.0822	0.065233	0.002077	31.4099	6.364506	16.4627	-0.033248	0.311435	-0.807322	-0.808689	-0.017197	31.4099	-0.806911	-5.580348E+10	3.081664E-13	NaN
768	1.000000	0.322788	7.37257e+06	-38689.1	1005.82	-29796.5	0.000000	0.000000	6.322855	-0.045366	NaN	0.000000	0.001707	0.001746	28.0823	0.037197	0.002095	17.7555	15.6967	-162.298	-0.047872	0.321556	-0.797336	-0.798568	-0.045366	17.7555	-0.795420	-3.896570E+10	1.164253E-12	NaN
768	1.000000	0.332819	7.37257e+06	-38689.1	1005.82	-29796.5	0.000000	0.000000	6.332887	-0.022875	NaN	0.000000	0.001744	0.001794	28.0811	0.163107	0.001993	81.8537	-92.6818	12.7594	-0.043399	0.331403	-0.787305	-0.788721	-0.022875	81.8537	-0.787095	-3.003513E+10	7.616118E-13	NaN
768	1.000000	0.342798	7.37257e+06	-38689.1	1005.82	-29796.5	0.000000	0.000000	6.342865	-0.058370	NaN	0.000000	0.001760	0.001766	28.0809	0.101119	0.001915	52.7933	8.302776	-163.538	-0.033971	0.341551	-0.777326	-0.778573	-0.058370	52.7933	-0.776497	-2.155859E+10	2.707493E-12	NaN
768	1.000000	0.352829	7.37257e+06	-38689.1	1005.82	-29796.5	0.000000	0.000000	6.352898	-0.022941	NaN	0.000000	0.001764	0.001729	28.0808	0.125914	0.001967	64.0016	148.83	12.7249	0.028121	0.351468	-0.767294	-0.768656	-0.022941	64.0016	-0.767026	-1.602730E+10	1.431392E-12	NaN
768	1.000000	0.362847	7.37257e+06	-38689.1	1005.82	-29796.5	0.000000	0.000000	6.362915	-0.039080	NaN	0.000000	0.001734	0.001774	28.0811	0.065016	0.002029	32.0475	-127.445	-167.124	-0.008411	0.361498	-0.757277	-0.758625	-0.039080	32.0475	-0.756362	-1.147649E+10	3.405210E-12	NaN
768	1.000000	0.372784	7.37257e+06	-38689.1	1005.82	-29796.5	0.000000	0.000000	6.372852	-0.042919	NaN	0.000000	0.001744	0.001756	28.0809	0.069344	0.001928	35.9598	-118.241	12.3093	-0.032426	0.371448	-0.747339	-0.748676	-0.042919	35.9598	-0.746444	-8.410308E+9	5.103175E-12	NaN
768	1.000000	0.382841	7.37257e+06	-38689.1	1005.82	-29796.5	0.000000	0.000000	6.382912	0.026950	NaN	0.000000	0.001689	0.001778	28.0809	0.098929	0.001986	49.82	-177.32	-166.141	0.004292	0.381505	-0.737282	-0.738619	0.026950	49.82	-0.737688	-6.390918E+9	-4.216884E-12	NaN
768	1.000000	0.392808	7.37257e+06	-38689.1	1005.82	-29796.5	0.000000	0.000000	6.392876	-0.036401	NaN	0.000000	0.001696	0.001799	28.0811	0.090807	0.002025	44.852	-109.636	16.8262	0.003293	0.391461	-0.727316	-0.728663	-0.036401	44.852	-0.726707	-4.528172E+9	8.038703E-12	NaN
768	1.000000	0.402804	7.37257e+06	-38689.1	1005.82	-29796.5	0.000000	0.000000	6.402873	-0.004783	NaN	0.000000	0.001767	0.001775	28.0811	0.059043	0.001996	29.5831	18.3705	-160.481	0.035551	0.401510	-0.717320	-0.718614	-0.004783	29.5831	-0.717198	-3.359385E+9	1.423697E-12	NaN
768	1.000000	0.412844	7.37257e+06	-38689.1	1005.82	-29796.5	0.000000	0.000000	6.412910	-0.079326	NaN	0.000000	0.001776	0.001797	28.081	0.120934	0.002022	59.8081	122.434	16.9277	-0.015089	0.411471	-0.707280	-0.708653	-0.079326	59.8081	-0.706285	-2.384196E+9	3.327176E-11	NaN
768	1.000000	0.422845	7.37257e+06	-38689.1	1005.82	-29796.5	0.000000	0.000000	6.422916	0.041182	NaN	0.000000	0.001731	0.001813	28.0808	0.052254	0.002064	25.3181	-36.8471	-164.795	0.012886	0.421586	-0.697279	-0.698537	0.041182	25.3181	-0.698499	-1.866503E+9	-2.206346E-11	NaN
768	1.000000	0.432859	7.37257e+06	-38689.1	1005.82	-29796.5	0.000000	0.000000	6.432924	-0.091840	NaN	0.000000	0.001753	0.001840	28.0811	0.020527	0.002138	9.600566	-99.35	15.1422	-0.132783	0.431459	-0.687265	-0.688665	-0.091840	9.600566	-0.680090	-1.045777E+9	8.782013E-11	NaN
768	1.000000	0.442857	7.37257e+06	-38689.1	1005.82	-29796.5	0.000000	0.000000	6.442925	-0.039061	NaN	0.000000	0.001758	0.001775	28.081	0.135980	0.001954	69.5767	-177.358	-164.2	-0.009507	0.441522	-0.677267	-0.678602	-0.039061	69.5767	-0.676846	-9.441901E+8	4.136977E-11	NaN
768	1.000000	0.452839	7.37257e+06	-38689.1	1005.82	-29796.5	0.000000	0.000000	6.452903	-0.116771	NaN	0.000000	0.001664	0.001855	28.081	0.029970	0.001716	17.4622	23.1522	16.8909	-0.053100	0.451498	-0.667285	-0.668625	-0.116771	17.4622	-0.662270	-5.964271E+8	1.957849E-10	NaN
768	1.000000	0.462864	7.37257e+06	-38689.1	1005.82	-29796.5	0.000000	0.000000	6.462936	0.060788	NaN	0.000000	0.001695	0.001807	28.0811	0.060980	0.002041	29.8755	55.9263	-164.41	-0.012612	0.461497	-0.657260	-0.658627	0.060788	29.8755	-0.658786	-5.343648E+8	-1.137576E-10	NaN
768	1.000000	0.472849	7.37257e+06	-38689.1	1005.82	-29796.5	0.000000	0.000000	6.472917	-0.012955	NaN	0.000000	0.001670	0.001795	28.0824	0.013477	0.001890	7.130630	-80.1476	10.6308	0.049882	0.471490	-0.647275	-0.648634	-0.012955	7.130630	-0.645913	-3.559535E+8	3.639552E-11	NaN
768	1.000000	0.482851	7.37257e+06	-38689.1	1005.82	-29796.5	0.000000	0.000000	6.482918	-0.062430	NaN	0.000000	0.001675	0.001779	28.0822	0.173266	0.001933	89.6206	139.493	-168.808	-0.056310	0.481592	-0.637272	-0.638532	-0.062430	89.6206	-0.636750	-2.664957E+8	2.342609E-10	NaN
768	1.000000	0.492850	7.37257e+06	-38689.1	1005.82	-29796.5	0.000000	0.000000	6.492916	-0.087443	NaN	0.000000	0.001687	0.001771	28.0819	0.105584	0.002077	50.8341	120.284	14.5603	-0.051661	0.491484	-0.627274	-0.628639	-0.087443	50.8341	-0.625984	-1.896092E+8	4.611760E-10	NaN
768	1.000000	0.502901	7.37257e+06	-38689.1	1005.82	-29796.5	0.000000	0.000000	6.502970	-0.025795	NaN	0.000000	0.001684	0.001782	28.0821	0.070247	0.002060	34.0983	87.5852	-163.453	-0.057222	0.501603	-0.617222	-0.618521	-0.025795	34.0983	-0.616655	-1.411388E+8	1.827632E-10	NaN
768	1.000000	0.512855	7.37257e+06	-38689.1	1005.82	-29796.5	0.000000	0.000000	6.512923	-0.034774	NaN	0.000000	0.001687	0.001806	28.082	0.021714	0.002110	10.2927	-68.7254	17.5286	-0.042217	0.511518	-0.607269	-0.608605	-0.034774	10.2927	-0.604735	-9.675100E+7	3.594181E-10	NaN
768	1.000000	0.522872	7.37257e+06	-38689.1	1005.82	-29796.5	0.000000	0.000000	6.522937	-0.096613	NaN	0.000000	0.001738	0.001767	28.0819	0.070654	0.002025	34.8905	-176.551	-164.221	-0.027534	0.521558	-0.597252	-0.598565	-0.096613	34.8905	-0.595175	-7.144870E+7	1.352199E-9	NaN
768	1.000000	0.532870	7.37257e+06	-38689.1	1005.82	-29796.5	0.000000	0.000000	6.532936	-0.073465	NaN	0.000000	0.001779	0.001775	28.082	0.146486	0.001888	77.5923	76.3761	13.8523	-0.115318	0.531531	-0.587254	-0.588593	-0.073465	77.5923	-0.586544	-5.432572E+7	1.352300E-9	NaN
768	1.000000	0.542869	7.37257e+06	-38689.1	1005.82	-29796.5	0.000000	0.000000	6.542936	-0.057202	NaN	0.000000	0.001736	0.001820	28.0821	0.074347	0.001992	37.3279	137.726	-165.158	-0.063231	0.541573	-0.577254	-0.578551	-0.057202	37.3279	-0.576105	-3.899032E+7	1.467089E-9	NaN
768	1.000000	0.552906	7.37257e+06	-38689.1	1005.82	-29796.5	0.000000	0.000000	6.552972	-0.073730	NaN	0.000000	0.001746	0.001851	28.0819	0.031385	0.001929	16.2715	178.242	13.9036	-0.049723	0.551509	-0.567218	-0.568615	-0.073730	16.2715	-0.563819	-2.637548E+7	2.795395E-9	NaN
768	1.000000	0.562909	7.37257e+06	-38689.1	1005.82	-29796.5	0.000000	0.000000	6.562976	-0.063231	NaN	0.000000	0.001764	0.001786	28.082	0.079849	0.001884	42.3917	149.037	-161.55	-0.070019	0.561580	-0.557214	-0.558544	-0.063231	42.3917	-0.556096	-2.062305E+7	3.066049E-9	NaN
768	1.000000	0.572894	7.37257e+06	-38689.1	1005.82	-29796.5	0.000000	0.000000	6.572961	-0.040759	NaN	0.000000	0.001748	0.001751	28.0821	0.038199	0.002061	18.5337	58.8441	12.3879	-0.072387	0.571562	-0.547230	-0.548562	-0.040759	18.5337	-0.545581	-1.474785E+7	2.763732E-9	NaN
768	1.000000	0.582893	7.37257e+06	-38689.1	1005.82	-29796.5	0.000000	0.000000	6.582961	-0.043503	NaN	0.000000	0.001766	0.001765	28.0819	0.049244	0.001973	24.9552	-96.8878	-161.96	-0.075555	0.581597	-0.537231	-0.538527	-0.043503	24.9552	-0.535923	-1.083430E+7	4.015289E-9	NaN
768	1.000000	0.592921	7.37257e+06	-38689.1	1005.82	-29796.5	0.000000	0.000000	6.592989	-0.023406	NaN	0.000000	0.001670	0.001777	28.0822	0.075146	0.001991	37.7362	4.713570	13.8872	-0.017255	0.591542	-0.527203	-0.528582	-0.023406	37.7362	-0.526738	-8.07722e+06	2.897830E-9	NaN
768	1.000000	0.602954	7.37257e+06	-38689.1	1005.82	-29796.5	0.000000	0.000000	6.603020	-0.057597	NaN	0.000000	0.001674	0.001777	28.081	0.082039	0.002056	39.9056	31.5354	-166.754	-0.051013	0.601514	-0.517170	-0.518610	-0.057597	39.9056	-0.516088	-5.74342e+06	1.002842E-8	NaN
768	1.000000	0.612874	7.37257e+06	-38689.1	1005.82	-29796.5	0.000000	0.000000	6.612940	-0.087835	NaN	0.000000	0.001654	0.001776	28.081	0.049395	0.002003	24.6558	-155.055	14.4805	-0.093126	0.611573	-0.507250	-0.508551	-0.087835	24.6558	-0.504578	-3.97065e+06	2.212109E-8	NaN
768	1.000000	0.622894	7.37257e+06	-38689.1	1005.82	-29796.5	0.000000	0.000000	6.622956	-0.172575	NaN	0.000000	0.001669	0.001752	28.081	0.075358	0.001866	40.389	145.71	-164.569	-0.171537	0.621642	-0.497230	-0.498482	-0.172575	40.389	-0.494025	-2.82891e+06	6.100397E-8	NaN
768	1.000000	0.632930	7.37257e+06	-38689.1	1005.82	-29796.5	0.000000	0.000000	6.632996	-0.082780	NaN	0.000000	0.001657	0.001780	28.0809	0.056024	0.002002	27.9789	110.706	16.1215	-0.088529	0.631634	-0.487193	-0.488490	-0.082780	27.9789	-0.484974	-2.11414e+06	3.915558E-8	NaN
768	1.000000	0.642940	7.37257e+06	-38689.1	1005.82	-29796.5	0.000000	0.000000	6.643007	-0.054184	NaN	0.000000	0.001667	0.001743	28.0812	0.127011	0.001936	65.616	60.2713	-163.419	-0.082652	0.641680	-0.477183	-0.478444	-0.054184	65.616	-0.476564	-1.61218e+06	3.360938E-8	NaN
768	1.000000	0.652931	7.37257e+06	-38689.1	1005.82	-29796.5	0.000000	0.000000	6.652999	-0.026310	NaN	0.000000	0.001686	0.001758	28.0811	0.052509	0.002021	25.9863	166.054	9.857496	-0.073680	0.651569	-0.467193	-0.468555	-0.026310	25.9863	-0.466433	-1.16243e+06	2.263372E-8	NaN
768	1.000000	0.662912	7.37257e+06	-38689.1	1005.82	-29796.5	0.000000	0.000000	6.662984	0.064213	NaN	0.000000	0.001623	0.001756	28.081	0.150858	0.001986	75.9665	55.9084	-165.256	0.025798	0.661654	-0.457211	-0.458470	0.064213	75.9665	-0.457845	-880507	-7.292727E-8	NaN
768	1.000000	0.672944	7.37257e+06	-38689.1	1005.82	-29796.5	0.000000	0.000000	6.673011	-0.049879	NaN	0.000000	0.001649	0.001733	28.081	0.030365	0.001975	15.3761	-0.184843	12.9139	-0.026829	0.671620	-0.447180	-0.448504	-0.049879	15.3761	-0.444747	-575866	8.661555E-8	NaN
768	1.000000	0.682958	7.37257e+06	-38689.1	1005.82	-29796.5	0.000000	0.000000	6.683026	-0.037202	NaN	0.000000	0.001637	0.001746	28.0814	0.120573	0.001954	61.7119	100.511	-166.298	-0.015919	0.681620	-0.437165	-0.438504	-0.037202	61.7119	-0.436713	-443565	8.387007E-8	NaN
768	1.000000	0.692953	7.37257e+06	-38689.1	1005.82	-29796.5	0.000000	0.000000	6.693020	-0.057978	NaN	0.000000	0.001621	0.001784	28.0811	0.007513	0.001957	3.839988	143.209	15.8306	-0.083421	0.691624	-0.427170	-0.428500	-0.057978	3.839988	-0.415846	-224633	2.581010E-7	NaN
768	1.000000	0.702969	7.37257e+06	-38689.1	1005.82	-29796.5	0.000000	0.000000	6.703038	-0.012489	NaN	0.000000	0.001640	0.001781	28.0811	0.074556	0.001917	38.9009	-102.296	-160.665	0.027041	0.701603	-0.417155	-0.418521	-0.012489	38.9009	-0.416914	-232610	5.369230E-8	NaN
768	1.000000	0.712964	7.37257e+06	-38689.1	1005.82	-29796.5	0.000000	0.000000	6.713030	-0.086937	NaN	0.000000	0.001676	0.001792	28.0811	0.098470	0.002123	46.3764	-23.2683	17.771	-0.146474	0.711636	-0.407159	-0.408488	-0.086937	46.3764	-0.405753	-161426	5.385562E-7	NaN
768	1.000000	0.722943	7.37257e+06	-38689.1	1005.82	-29796.5	0.000000	0.000000	6.723009	-0.083104	NaN	0.000000	0.001699	0.001820	28.0812	0.087721	0.002024	43.3503	66.2192	-162.639	-0.089493	0.721610	-0.397181	-0.398513	-0.083104	43.3503	-0.395743	-116210	7.151249E-7	NaN
768	1.000000	0.732989	7.37257e+06	-38689.1	1005.82	-29796.5	0.000000	0.000000	6.733056	-0.041209	NaN	0.000000	0.001713	0.001779	28.081	0.029611	0.002103	14.0797	-98.577	15.0916	0.008491	0.731669	-0.387135	-0.388454	-0.041209	14.0797	-0.384940	-81418.7	5.061333E-7	NaN
768	1.000000	0.742979	7.37257e+06	-38689.1	1005.82	-29796.5	0.000000	0.000000	6.743046	-0.073317	NaN	0.000000	0.001684	0.001813	28.0824	0.055005	0.001996	27.5587	84.0838	-164.829	-0.069624	0.741672	-0.377144	-0.378452	-0.073317	27.5587	-0.375149	-58913.3	1.244498E-6	NaN
768	1.000000	0.753010	7.37257e+06	-38689.1	1005.82	-29796.5	0.000000	0.000000	6.753078	-0.032110	NaN	0.000000	0.001707	0.001805	28.0825	0.105834	0.001953	54.1985	151.128	11.6773	-0.077685	0.751542	-0.367113	-0.368582	-0.032110	54.1985	-0.366669	-44476.3	7.219643E-7	NaN
768	1.000000	0.762994	7.37257e+06	-38689.1	1005.82	-29796.5	0.000000	0.000000	6.763058	-0.128514	NaN	0.000000	0.001696	0.001817	28.0825	0.052667	0.001965	26.7964	-63.5773	-165.577	-0.067969	0.761707	-0.357129	-0.358417	-0.128514	26.7964	-0.353533	-28723.3	4.474192E-6	NaN
768	1.000000	0.772966	7.37257e+06	-38689.1	1005.82	-29796.5	0.000000	0.000000	6.773030	-0.106788	NaN	0.000000	0.001678	0.001827	28.0823	0.081092	0.002009	40.3642	-11.074	15.3351	-0.080103	0.771616	-0.347158	-0.348508	-0.106788	40.3642	-0.345174	-21721.4	4.916279E-6	NaN
768	1.000000	0.782979	7.37257e+06	-38689.1	1005.82	-29796.5	0.000000	0.000000	6.783047	-0.038086	NaN	0.000000	0.001692	0.001811	28.0823	0.071569	0.002198	32.5623	-130.52	-167.307	-0.127824	0.781651	-0.337145	-0.338473	-0.038086	32.5623	-0.336268	-16110.3	2.364082E-6	NaN
768	1.000000	0.792980	7.37257e+06	-38689.1	1005.82	-29796.5	0.000000	0.000000	6.793047	-0.057716	NaN	0.000000	0.001689	0.001810	28.0824	0.084850	0.001891	44.876	-89.9527	16.4824	-0.090557	0.791654	-0.327143	-0.328469	-0.057716	44.876	-0.326179	-11466.7	5.033413E-6	NaN
768	1.000000	0.802988	7.37257e+06	-38689.1	1005.82	-29796.5	0.000000	0.000000	6.803055	-0.071023	NaN	0.000000	0.001684	0.001817	28.0822	0.012807	0.001989	6.437522	73.8686	-165.662	-0.112721	0.801691	-0.317136	-0.318433	-0.071023	6.437522	-0.308861	-6370.8	1.114826E-5	NaN
768	1.000000	0.813018	7.37257e+06	-38689.1	1005.82	-29796.5	0.000000	0.000000	6.813084	-0.084764	NaN	0.000000	0.001678	0.001832	28.0821	0.063206	0.002078	30.4224	-112.487	12.2878	-0.046708	0.811653	-0.307105	-0.308471	-0.084764	30.4224	-0.305016	-5587.12	1.517128E-5	NaN
768	1.000000	0.823023	7.37257e+06	-38689.1	1005.82	-29796.5	0.000000	0.000000	6.823088	-0.091804	NaN	0.000000	0.001700	0.001823	28.0824	0.043476	0.002016	21.5646	160.683	-165.595	-0.127356	0.821690	-0.297101	-0.298433	-0.091804	21.5646	-0.293908	-3817.47	2.404847E-5	NaN
768	1.000000	0.833027	7.37257e+06	-38689.1	1005.82	-29796.5	0.000000	0.000000	6.833096	-0.026050	NaN	0.000000	0.001708	0.001828	28.0822	0.089014	0.001955	45.5251	119.35	17.8073	0.058068	0.831656	-0.287096	-0.288467	-0.026050	45.5251	-0.286667	-2973.82	8.759837E-6	NaN
768	1.000000	0.843026	7.37257e+06	-38689.1	1005.82	-29796.5	0.000000	0.000000	6.843094	-0.032603	NaN	0.000000	0.001655	0.001795	28.0823	0.032173	0.001947	16.5212	123.45	-163.471	-0.120048	0.841680	-0.277098	-0.278444	-0.032603	16.5212	-0.275618	-2026.53	1.608813E-5	NaN
768	1.000000	0.853035	7.37257e+06	-38689.1	1005.82	-29796.5	0.000000	0.000000	6.853101	-0.058887	NaN	0.000000	0.001678	0.001806	28.0823	0.073133	0.001990	36.7422	-153.148	14.7323	-0.032991	0.851695	-0.267089	-0.268429	-0.058887	36.7422	-0.265887	-1441.86	4.084112E-5	NaN
768	1.000000	0.863031	7.37257e+06	-38689.1	1005.82	-29796.5	0.000000	0.000000	6.863100	-0.013690	NaN	0.000000	0.001682	0.001781	28.0822	0.045527	0.002038	22.3393	-132.538	-167.655	-0.014171	0.861656	-0.257092	-0.258468	-0.013690	22.3393	-0.256633	-1040.48	1.315747E-5	NaN
768	1.000000	0.873020	7.37257e+06	-38689.1	1005.82	-29796.5	0.000000	0.000000	6.873086	-0.085543	NaN	0.000000	0.001667	0.001794	28.0822	0.149543	0.001893	79.005	7.181046	14.1461	-0.030404	0.871665	-0.247104	-0.248459	-0.085543	79.005	-0.246292	-720.306	0.000119	NaN
768	1.000000	0.883068	7.37257e+06	-38689.1	1005.82	-29796.5	0.000000	0.000000	6.883137	0.008755	NaN	0.000000	0.001707	0.001807	28.0809	0.112999	0.002089	54.0903	-55.1247	-164.722	-0.019089	0.881709	-0.237056	-0.238415	0.008755	54.0903	-0.237177	-519.279	-1.685944E-5	NaN
768	1.000000	0.892999	7.37257e+06	-38689.1	1005.82	-29796.5	0.000000	0.000000	6.893066	-0.058725	NaN	0.000000	0.001689	0.001829	28.0813	0.129283	0.002055	62.9048	-43.2373	14.571	-0.103101	0.891698	-0.227125	-0.228426	-0.058725	62.9048	-0.226424	-351.512	0.000167	NaN
768	1.000000	0.903044	7.37257e+06	-38689.1	1005.82	-29796.5	0.000000	0.000000	6.903111	-0.054161	NaN	0.000000	0.001653	0.001826	28.0809	0.093371	0.001835	50.8897	172.103	-167.464	0.042872	0.901743	-0.217080	-0.218380	-0.054161	50.8897	-0.216282	-242.165	0.000224	NaN
768	1.000000	0.913058	7.37257e+06	-38689.1	1005.82	-29796.5	0.000000	0.000000	6.913125	-0.057499	NaN	0.000000	0.001655	0.001807	28.0811	0.118093	0.002128	55.4914	155.895	15.3906	-0.061616	0.911718	-0.207066	-0.208405	-0.057499	55.4914	-0.206288	-166.938	0.000344	NaN
768	1.000000	0.923048	7.37257e+06	-38689.1	1005.82	-29796.5	0.000000	0.000000	6.923119	0.031530	NaN	0.000000	0.001701	0.001828	28.0811	0.053368	0.001895	28.166	-177.808	-164.164	-0.062872	0.921764	-0.197076	-0.198359	0.031530	28.166	-0.197915	-121.726	-0.000259	NaN
768	1.000000	0.933057	7.37257e+06	-38689.1	1005.82	-29796.5	0.000000	0.000000	6.933127	0.007324	NaN	0.000000	0.001673	0.001824	28.0812	0.068219	0.001880	36.2905	-24.8297	18.6357	0.047689	0.931686	-0.187066	-0.188438	0.007324	36.2905	-0.187218	-80.8046	-9.063308E-5	NaN
768	1.000000	0.943073	7.37257e+06	-38689.1	1005.82	-29796.5	0.000000	0.000000	6.943138	-0.098539	NaN	0.000000	0.001653	0.001826	28.081	0.162706	0.002011	80.9126	-22.1377	-164.639	-0.144756	0.941734	-0.177051	-0.178389	-0.098539	80.9126	-0.176137	-52.4207	0.001880	NaN
768	1.000000	0.953061	7.37257e+06	-38689.1	1005.82	-29796.5	0.000000	0.000000	6.953127	-0.068639	NaN	0.000000	0.001658	0.001819	28.0809	0.048186	0.001957	24.6161	71.3596	11.8883	-0.111580	0.951695	-0.167063	-0.168429	-0.068639	24.6161	-0.164972	-33.5589	0.002045	NaN
768	1.000000	0.963041	7.37257e+06	-38689.1	1005.82	-29796.5	0.000000	0.000000	6.963108	-0.056736	NaN	0.000000	0.001735	0.001845	28.0812	0.027945	0.001882	14.8466	-47.7759	-165.285	0.040444	0.961755	-0.157083	-0.158369	-0.056736	14.8466	-0.154216	-21.6006	0.002627	NaN
768	1.000000	0.973054	7.37257e+06	-38689.1	1005.82	-29796.5	0.000000	0.000000	6.973120	-0.069703	NaN	0.000000	0.001772	0.001810	28.081	0.009927	0.002060	4.817792	13.7061	15.0316	-0.080120	0.971726	-0.147070	-0.148398	-0.069703	4.817792	-0.136219	-10.035	0.006946	NaN
768	1.000000	0.983088	7.37257e+06	-38689.1	1005.82	-29796.5	0.000000	0.000000	6.983158	0.012742	NaN	0.000000	0.001763	0.001812	28.081	0.014474	0.002074	6.977650	-165.187	-163.68	0.048549	0.981788	-0.137036	-0.138336	0.012742	6.977650	-0.138406	-11.0393	-0.001154	NaN
768	1.000000	0.993068	7.37257e+06	-38689.1	1005.82	-29796.5	0.000000	0.000000	6.993137	-0.000584	NaN	0.000000	0.001717	0.001795	28.0811	0.042179	0.002040	20.6784	71.2348	13.7226	-0.022140	0.991754	-0.127056	-0.128370	-0.000584	20.6784	-0.127035	-6.669640	8.757827E-5	NaN
768	1.000000	1.003087	7.37257e+06	-38689.1	1005.82	-29796.5	0.000000	0.000000	7.003155	-0.035316	NaN	0.000000	0.001735	0.001785	28.0811	0.088142	0.002002	44.0277	-65.8293	-163.163	0.020685	1.001764	-0.117037	-0.118359	-0.035316	44.0277	-0.116435	-4.088778	0.008637	NaN
768	1.000000	1.013109	7.37257e+06	-38689.1	1005.82	-29796.5	0.000000	0.000000	7.013175	-0.070315	NaN	0.000000	0.001728	0.001810	28.0823	0.139995	0.001949	71.8254	-138.66	16.3876	-0.056813	1.011725	-0.107015	-0.108398	-0.070315	71.8254	-0.106281	-2.504689	0.028073	NaN
768	1.000000	1.023076	7.37257e+06	-38689.1	1005.82	-29796.5	0.000000	0.000000	7.023145	0.002541	NaN	0.000000	0.001741	0.001787	28.0823	0.038536	0.002036	18.9256	145.763	-162.199	-0.089159	1.021739	-0.097048	-0.098385	0.002541	18.9256	-0.097148	-1.577880	-0.001610	NaN
768	1.000000	1.033102	7.37257e+06	-38689.1	1005.82	-29796.5	0.000000	0.000000	7.033172	-0.000688	NaN	0.000000	0.001767	0.001763	28.0824	0.047796	0.002033	23.5148	96.3042	13.6444	-0.024320	1.031722	-0.087021	-0.088401	-0.000688	23.5148	-0.086999	-0.917839	0.000750	NaN
768	1.000000	1.043076	7.37257e+06	-38689.1	1005.82	-29796.5	0.000000	0.000000	7.043147	0.041437	NaN	0.000000	0.001740	0.001792	28.0823	0.044722	0.001997	22.3996	-50.4683	-165.085	-0.031027	1.041789	-0.077048	-0.078335	0.041437	22.3996	-0.078435	-0.565388	-0.073290	NaN
768	1.000000	1.053091	7.37257e+06	-38689.1	1005.82	-29796.5	0.000000	0.000000	7.053161	-0.001792	NaN	0.000000	0.001744	0.001775	28.0824	0.027769	0.001951	14.2339	134.111	12.8352	-0.013212	1.051720	-0.067032	-0.068403	-0.001792	14.2339	-0.066938	-0.281821	0.006358	NaN
768	1.000000	1.063115	7.37257e+06	-38689.1	1005.82	-29796.5	0.000000	0.000000	7.063182	-0.057930	NaN	0.000000	0.001725	0.001756	28.0822	0.042347	0.001977	21.419	179.841	-163.793	-0.059717	1.061836	-0.057009	-0.058288	-0.057930	21.419	-0.054980	-0.128607	0.450445	NaN
768	1.000000	1.073087	7.37257e+06	-38689.1	1005.82	-29796.5	0.000000	0.000000	7.073155	-0.041929	NaN	0.000000	0.001740	0.001771	28.0824	0.056516	0.002118	26.6872	0.252441	17.5883	0.089140	1.071804	-0.047036	-0.048320	-0.041929	26.6872	-0.045858	-0.068270	0.614164	NaN
768	1.000000	1.083109	7.37257e+06	-38689.1	1005.82	-29796.5	0.000000	0.000000	7.083177	-0.027916	NaN	0.000000	0.001702	0.001760	28.0822	0.028617	0.001929	14.8339	-10.2952	-165.527	-0.053029	1.081792	-0.037014	-0.038332	-0.027916	14.8339	-0.035603	-0.033365	0.836692	NaN
768	1.000000	1.093128	7.37257e+06	-38689.1	1005.82	-29796.5	0.000000	0.000000	7.093197	-0.018348	NaN	0.000000	0.001704	0.001856	28.0821	0.092964	0.001934	48.063	162.511	13.3912	-0.048404	1.091724	-0.026996	-0.028399	-0.018348	48.063	-0.026709	-0.018717	0.980266	NaN
768	1.000000	1.103105	7.37257e+06	-38689.1	1005.82	-29796.5	0.000000	0.000000	7.103173	-0.019275	NaN	0.000000	0.001669	0.001763	28.0822	0.092728	0.002008	46.1691	1.775311	-164.874	0.009653	1.101789	-0.017019	-0.018335	-0.019275	46.1691	-0.016706	-0.010324	1.867084	NaN
768	1.000000	1.113117	7.37257e+06	-38689.1	1005.82	-29796.5	0.000000	0.000000	7.113185	-0.032742	NaN	0.000000	0.001702	0.001820	28.0822	0.072360	0.001930	37.4934	80.6291	16.7485	-0.032066	1.111743	-0.007006	-0.008381	-0.032742	37.4934	-0.006351	-0.004250	7.703572	NaN
768	1.000000	1.123103	7.37257e+06	-38689.1	1005.82	-29796.5	0.000000	0.000000	7.123176	0.081894	NaN	0.000000	0.001683	0.001758	28.0823	0.266241	0.001965	135.477	53.5659	-165.36	0.037598	1.121843	0.002979	0.001719	0.081894	135.477	0.002526	0.001985	41.2615	2778.34
768	2.000000	1.132243	7.37257e+06	-38689.1	1005.82	-29796.5	0.000000	0.000000	7.132741	10.4246	NaN	0.000000	0.001707	0.001803	28.0821	9.424455	0.001756	5366.96	7.377698	9.425184	8.604346	1.131566	0.012119	0.011442	10.4246	5366.96	0.010663	0.009927	1050.11	49214
768	2.000000	1.134856	7.37257e+06	-38689.1	1005.82	-29796.5	0.000000	0.000000	7.135540	14.9427	NaN	0.000000	0.001678	0.001736	28.0825	11.5069	0.001748	6583.19	15.4235	-175.863	16.9407	1.134445	0.014733	0.014322	14.9427	6583.19	0.013030	0.012748	1172.18	53271.2
768	2.000000	1.137245	7.37257e+06	-38689.1	1005.82	-29796.5	0.000000	0.000000	7.138034	17.5012	NaN	0.000000	0.001658	0.001792	28.081	14.593	0.001739	8391.69	8.495998	3.897656	16.1728	1.136914	0.017121	0.016790	17.5012	8391.69	0.015557	0.016036	1091.39	60545.1
768	2.000000	1.139753	7.37257e+06	-38689.1	1005.82	-29796.5	0.000000	0.000000	7.140928	26.9256	NaN	0.000000	0.001623	0.001803	28.0815	17.2778	0.001771	9757.56	4.472621	-172.532	25.6877	1.139425	0.019629	0.019301	26.9256	9757.56	0.017559	0.018851	1428.33	64930.2
768	2.000000	1.142300	7.37257e+06	-38689.1	1005.82	-29796.5	0.000000	0.000000	7.143693	32.1906	NaN	0.000000	0.001615	0.001800	28.0813	19.9316	0.001762	11313.3	9.472485	1.731054	32.9889	1.141921	0.022177	0.021797	32.1906	11313.3	0.020043	0.022609	1423.76	68741.5
768	2.000000	1.144734	7.37257e+06	-38689.1	1005.82	-29796.5	0.000000	0.000000	7.146315	36.8014	NaN	0.000000	0.001624	0.001797	28.0816	22.5852	0.001735	13019	4.486510	-176.879	35.3008	1.144484	0.024610	0.024360	36.8014	13019	0.022490	0.026607	1383.14	72920.8
768	2.000000	1.147217	7.37257e+06	-38689.1	1005.82	-29796.5	0.000000	0.000000	7.149327	49.6408	NaN	0.000000	0.001626	0.001790	28.0812	25.6945	0.001810	14199	1.823864	5.539668	47.9873	1.146869	0.027094	0.026745	49.6408	14199	0.024472	0.030062	1651.31	74821.6
768	2.000000	1.149727	7.37257e+06	-38689.1	1005.82	-29796.5	0.000000	0.000000	7.152168	57.7243	NaN	0.000000	0.001688	0.001768	28.0812	28.7329	0.001860	15450.8	4.115148	-178.039	56.3526	1.149441	0.029603	0.029317	57.7243	15450.8	0.026801	0.034374	1679.31	76139.6
768	2.000000	1.152193	7.37257e+06	-38689.1	1005.82	-29796.5	0.000000	0.000000	7.154760	60.7703	NaN	0.000000	0.001672	0.001765	28.0811	29.7633	0.001839	16180.5	3.935816	3.515054	57.872	1.151793	0.032070	0.031669	60.7703	16180.5	0.029253	0.039209	1549.89	74657.1
768	2.000000	1.154726	7.37257e+06	-38689.1	1005.82	-29796.5	0.000000	0.000000	7.157609	68.4791	NaN	0.000000	0.001680	0.001756	28.0815	31.7559	0.001994	15925.2	7.484261	-179.286	67.8255	1.154374	0.034602	0.034250	68.4791	15925.2	0.031377	0.043646	1568.97	69644.2
768	2.000000	1.157179	7.37257e+06	-38689.1	1005.82	-29796.5	0.000000	0.000000	7.160414	77.0413	NaN	0.000000	0.001605	0.001765	28.081	33.1774	0.001752	18940.6	3.340516	1.144582	75.2845	1.156873	0.037056	0.036749	77.0413	18940.6	0.034005	0.049454	1557.83	77815.2
768	2.000000	1.159810	7.37257e+06	-38689.1	1005.82	-29796.5	0.000000	0.000000	7.163072	77.6761	NaN	0.000000	0.001654	0.001766	28.082	34.972	0.001748	20005.9	2.945156	-177.486	81.0815	1.159457	0.039687	0.039333	77.6761	20005.9	0.036775	0.055959	1388.09	77267.5
768	2.000000	1.162153	7.37257e+06	-38689.1	1005.82	-29796.5	0.000000	0.000000	7.165982	91.5049	NaN	0.000000	0.001613	0.001756	28.0812	36.6521	0.001772	20681.7	5.307659	-1.170202	87.2474	1.161781	0.042029	0.041657	91.5049	20681.7	0.038711	0.060739	1506.54	76670.4
768	2.000000	1.164692	7.37257e+06	-38689.1	1005.82	-29796.5	0.000000	0.000000	7.168253	84.9712	NaN	0.000000	0.001659	0.001748	28.0812	37.6808	0.001879	20052.4	4.239591	-179.971	83.2703	1.164497	0.044568	0.044373	84.9712	20052.4	0.041390	0.067670	1255.68	70427.5
768	2.000000	1.167211	7.37257e+06	-38689.1	1005.82	-29796.5	0.000000	0.000000	7.171384	99.8678	NaN	0.000000	0.001677	0.001740	28.081	39.8294	0.001954	20387	10.0322	-4.357684	101.1	1.166799	0.047087	0.046675	99.8678	20387	0.043413	0.073147	1365.31	68869.8
768	2.000000	1.169637	7.37257e+06	-38689.1	1005.82	-29796.5	0.000000	0.000000	7.174213	109.668	NaN	0.000000	0.001656	0.001778	28.0815	41.1632	0.001912	21529	4.865799	179.27	107.037	1.169339	0.049513	0.049215	109.668	21529	0.045693	0.079566	1378.33	69732
768	2.000000	1.172206	7.37257e+06	-38689.1	1005.82	-29796.5	0.000000	0.000000	7.177052	116.251	NaN	0.000000	0.001678	0.001771	28.0825	41.8066	0.001783	23442.3	2.480762	1.822346	115.02	1.171765	0.052082	0.051641	116.251	23442.3	0.048363	0.087419	1329.81	72438.6
768	2.000000	1.174737	7.37257e+06	-38689.1	1005.82	-29796.5	0.000000	0.000000	7.179747	120.219	NaN	0.000000	0.001665	0.001768	28.083	44.178	0.001825	24205.6	5.377790	178.795	122.588	1.174376	0.054613	0.054252	120.219	24205.6	0.050889	0.095179	1263.07	71683.2
768	2.000000	1.177132	7.37257e+06	-38689.1	1005.82	-29796.5	0.000000	0.000000	7.182556	130.314	NaN	0.000000	0.001686	0.001812	28.0823	46.1933	0.001798	25685.2	3.104033	-0.381692	126.984	1.176792	0.057008	0.056668	130.314	25685.2	0.053203	0.102570	1270.49	73273.4
768	2.000000	1.179660	7.37257e+06	-38689.1	1005.82	-29796.5	0.000000	0.000000	7.185667	144.496	NaN	0.000000	0.001686	0.001795	28.0827	48.825	0.001840	26532.3	4.670950	177.958	142.765	1.179382	0.059536	0.059258	144.496	26532.3	0.055451	0.110005	1313.54	73087.2
768	2.000000	1.182168	7.37257e+06	-38689.1	1005.82	-29796.5	0.000000	0.000000	7.188014	140.571	NaN	0.000000	0.001650	0.001782	28.0825	50.0482	0.001838	27224.5	5.962793	-3.479467	138.322	1.181885	0.062044	0.061762	140.571	27224.5	0.058172	0.119334	1177.96	72003.2
768	2.000000	1.184657	7.37257e+06	-38689.1	1005.82	-29796.5	0.000000	0.000000	7.191258	158.941	NaN	0.000000	0.001656	0.001757	28.0823	52.2053	0.001823	28632.9	3.619022	177.684	157.986	1.184391	0.064534	0.064268	158.941	28632.9	0.060370	0.127140	1250.13	73366.5
768	2.000000	1.187200	7.37257e+06	-38689.1	1005.82	-29796.5	0.000000	0.000000	7.194232	169.444	NaN	0.000000	0.001612	0.001755	28.0822	55.4464	0.001880	29490.4	6.497439	-4.442698	170.194	1.186800	0.067076	0.066677	169.444	29490.4	0.062767	0.135916	1246.68	73083.5
768	2.000000	1.189643	7.37257e+06	-38689.1	1005.82	-29796.5	0.000000	0.000000	7.196485	164.807	NaN	0.000000	0.001669	0.001756	28.0824	58.055	0.001879	30904.9	8.058314	172.875	162.852	1.189369	0.069520	0.069245	164.807	30904.9	0.065520	0.146343	1126.17	73809.8
768	2.000000	1.192169	7.37257e+06	-38689.1	1005.82	-29796.5	0.000000	0.000000	7.199635	180.006	NaN	0.000000	0.001696	0.001758	28.0822	58.5591	0.001873	31272.4	3.389729	-1.948784	178.639	1.191851	0.072045	0.071728	180.006	31272.4	0.067728	0.154969	1161.56	72579.2
768	2.000000	1.194606	7.37257e+06	-38689.1	1005.82	-29796.5	0.000000	0.000000	7.202722	195.812	NaN	0.000000	0.001699	0.001765	28.0823	60.8496	0.001774	34306.3	6.160076	174.286	193.956	1.194359	0.074483	0.074235	195.812	34306.3	0.070202	0.164910	1187.39	77183.4
768	2.000000	1.197106	7.37257e+06	-38689.1	1005.82	-29796.5	0.000000	0.000000	7.205519	203.043	NaN	0.000000	0.001667	0.001737	28.0823	63.3161	0.001873	33796.6	4.453955	-3.722029	197.896	1.196692	0.076982	0.076568	203.043	33796.6	0.072476	0.174307	1164.86	73958.6
768	2.000000	1.199490	7.37257e+06	-38689.1	1005.82	-29796.5	0.000000	0.000000	7.208666	221.617	NaN	0.000000	0.001641	0.001738	28.0823	64.4361	0.001765	36497.9	-0.423025	-179.705	213.033	1.199229	0.079366	0.079106	221.617	36497.9	0.074812	0.184211	1203.06	77693.2
768	2.000000	1.202070	7.37257e+06	-38689.1	1005.82	-29796.5	0.000000	0.000000	7.211928	238.207	NaN	0.000000	0.001644	0.001759	28.0822	67.7672	0.001807	37502	6.347513	-6.328024	230.31	1.201717	0.081947	0.081593	238.207	37502	0.077183	0.194528	1224.53	77684.9
768	2.000000	1.204473	7.37257e+06	-38689.1	1005.82	-29796.5	0.000000	0.000000	7.214504	242.419	NaN	0.000000	0.001640	0.001740	28.0808	69.9922	0.001789	39127.2	5.992041	173.101	233.92	1.204154	0.084349	0.084030	242.419	39127.2	0.079703	0.205781	1178.04	78804.2
768	2.000000	1.207047	7.37257e+06	-38689.1	1005.82	-29796.5	0.000000	0.000000	7.217777	259.433	NaN	0.000000	0.001708	0.001742	28.0811	73.1075	0.001840	39724.2	5.748807	-6.278957	252.673	1.206723	0.086923	0.086599	259.433	39724.2	0.082025	0.216415	1198.78	78016.2
768	2.000000	1.209545	7.37257e+06	-38689.1	1005.82	-29796.5	0.000000	0.000000	7.220610	267.595	NaN	0.000000	0.001684	0.001716	28.0809	75.4367	0.001918	39324.1	6.071043	173.77	262.462	1.209296	0.089421	0.089172	267.595	39324.1	0.084318	0.227157	1178.02	75382.3
768	2.000000	1.212128	7.37257e+06	-38689.1	1005.82	-29796.5	0.000000	0.000000	7.224025	287.821	NaN	0.000000	0.001710	0.001751	28.0811	76.2944	0.001748	43652.8	3.561285	-5.006410	282.803	1.211790	0.092005	0.091666	287.821	43652.8	0.087060	0.240324	1197.63	81355.4
768	2.000000	1.214565	7.37257e+06	-38689.1	1005.82	-29796.5	0.000000	0.000000	7.226768	295.259	NaN	0.000000	0.001718	0.001737	28.081	79.2383	0.001796	44122	3.169475	175.285	290.454	1.214367	0.094442	0.094243	295.259	44122	0.089423	0.251951	1171.89	80310.3
768	2.000000	1.217060	7.37257e+06	-38689.1	1005.82	-29796.5	0.000000	0.000000	7.230239	319.04	NaN	0.000000	0.001738	0.001798	28.0811	80.4658	0.001860	43262	1.226975	-2.296584	313.855	1.216682	0.096936	0.096558	319.04	43262	0.091405	0.261902	1218.16	77234.2
768	2.000000	1.219536	7.37257e+06	-38689.1	1005.82	-29796.5	0.000000	0.000000	7.233565	339.722	NaN	0.000000	0.001650	0.001767	28.0809	82.5811	0.001765	46797.1	2.286418	176.161	334.533	1.219245	0.099412	0.099121	339.722	46797.1	0.093968	0.275030	1235.22	81527.2
768	2.000000	1.222062	7.37257e+06	-38689.1	1005.82	-29796.5	0.000000	0.000000	7.236576	351.511	NaN	0.000000	0.001679	0.001758	28.0809	84.5445	0.001755	48185.4	3.744934	-5.608830	346.223	1.221829	0.101939	0.101705	351.511	48185.4	0.096467	0.288126	1219.99	82015.8
768	2.000000	1.224631	7.37257e+06	-38689.1	1005.82	-29796.5	0.000000	0.000000	7.239602	362.664	NaN	0.000000	0.001678	0.001734	28.081	86.6999	0.001743	49731	5.629656	171.515	363.181	1.224392	0.104507	0.104268	362.664	49731	0.099037	0.301887	1201.32	82694.7
768	2.000000	1.227245	7.37257e+06	-38689.1	1005.82	-29796.5	0.000000	0.000000	7.242861	378.346	NaN	0.000000	0.001701	0.001766	28.0812	89.9644	0.001709	52651	6.480882	-9.571371	383.672	1.226925	0.107121	0.106801	378.346	52651	0.101732	0.316638	1194.89	85486.7
768	2.000000	1.229646	7.37257e+06	-38689.1	1005.82	-29796.5	0.000000	0.000000	7.246095	398.613	NaN	0.000000	0.001684	0.001769	28.0809	92.3757	0.001654	55839.4	2.178431	174.542	399.07	1.229460	0.109522	0.109336	398.613	55839.4	0.104168	0.330259	1206.97	88774.1
768	2.000000	1.230531	7.37257e+06	-38689.1	1005.82	-29796.5	0.000000	0.000000	7.247680	415.629	NaN	0.000000	0.001638	0.001766	28.0812	92.838	0.001821	50978.1	5.209416	172.136	409.19	1.230133	0.110408	0.110010	415.629	50978.1	0.104293	0.330962	1255.82	80959.5