File: remote_trans/data/nanoindenter/0828-1/data/Data_2025-08-06,11h17m57s/2025-07-22_16-23-58_1_1199.txt
2025-07-22, 16:23:58, 1
Index	Phase	Displacement	Time	Pos X	Pos Y	Pos Z	Rot A	Rot B	Piezo Z	Force A	Force B	Gripper	Voltage A	Voltage B	Temperature	Amplitude force	Amplitude pos	Stiffness	Phase shift	Phase excitation	Force A raw	Displacement raw	HMax	HMax raw	Real Force	Real Stiffness	Contact Depth	Area	Hardness	Reduced Mod.
[#]	[#]	[um]	[s]	[um]	[um]	[um]	[m°]	[m°]	[um]	[uN]	[uN]	[V]	[V]	[V]	[°C]	[uN]	[um]	[N/m]	[°]	[°]	[uN]	[um]	[um]	[um]	[uN]	[N/m]	[um]	[um^2]	[MPa]	[MPa]
1199	1.000000	0.002612	7.37677e+06	-55639.1	1105.82	-29741	0.000000	0.000000	6.002780	-0.039527	NaN	0.000000	0.001557	0.001671	28.0794	0.052030	0.000959	54.2811	23.028	-164.065	0.008942	0.001387	-1.069999	-1.071225	-0.039527	54.2811	-1.069453	-1.949140E+14	2.027941E-16	NaN
1199	1.000000	0.010595	7.37677e+06	-55639.1	1105.82	-29741	0.000000	0.000000	6.010765	0.027171	NaN	0.000000	0.001541	0.001666	28.0795	0.076990	0.000973	79.1494	-140.882	-161.663	0.053644	0.009251	-1.062017	-1.063361	0.027171	79.1494	-1.062275	-1.560942E+14	-1.740699E-16	NaN
1199	1.000000	0.018569	7.37677e+06	-55639.1	1105.82	-29741	0.000000	0.000000	6.018739	0.013962	NaN	0.000000	0.001536	0.001695	28.0808	0.100264	0.001687	59.4371	122.032	-164.891	0.026709	0.017303	-1.054043	-1.055309	0.013962	59.4371	-1.054219	-1.216542E+14	-1.147697E-16	NaN
1199	1.000000	0.026622	7.37677e+06	-55639.1	1105.82	-29741	0.000000	0.000000	6.026790	-0.062762	NaN	0.000000	0.001552	0.001667	28.0811	0.108618	0.001779	61.0695	-134.246	-162.984	-0.108380	0.025291	-1.045989	-1.047321	-0.062762	61.0695	-1.045218	-9.207324E+13	6.816548E-16	NaN
1199	1.000000	0.034555	7.37677e+06	-55639.1	1105.82	-29741	0.000000	0.000000	6.034721	-0.097385	NaN	0.000000	0.001572	0.001701	28.0806	0.133885	0.001983	67.5113	-83.0865	-166.574	-0.086239	0.033245	-1.038057	-1.039367	-0.097385	67.5113	-1.036975	-7.133230E+13	1.365230E-15	NaN
1199	1.000000	0.042559	7.37677e+06	-55639.1	1105.82	-29741	0.000000	0.000000	6.042728	-0.028040	NaN	0.000000	0.001560	0.001706	28.0808	0.048740	0.002016	24.1816	-131.299	-160.622	-0.023407	0.041294	-1.030053	-1.031318	-0.028040	24.1816	-1.029183	-5.603919E+13	5.003618E-16	NaN
1199	1.000000	0.050581	7.37677e+06	-55639.1	1105.82	-29741	0.000000	0.000000	6.050749	-0.055389	NaN	0.000000	0.001516	0.001697	28.0808	0.068006	0.001986	34.2405	147.608	-168.896	-0.056141	0.049268	-1.022030	-1.023344	-0.055389	34.2405	-1.020817	-4.324603E+13	1.280778E-15	NaN
1199	1.000000	0.058578	7.37677e+06	-55639.1	1105.82	-29741	0.000000	0.000000	6.058747	-0.004125	NaN	0.000000	0.001545	0.001649	28.0807	0.075815	0.002172	34.8977	-178.417	-164.739	0.008644	0.057255	-1.014034	-1.015356	-0.004125	34.8977	-1.013945	-3.495261E+13	1.180080E-16	NaN
1199	1.000000	0.066533	7.37677e+06	-55639.1	1105.82	-29741	0.000000	0.000000	6.066704	0.007178	NaN	0.000000	0.001512	0.001686	28.0809	0.106278	0.001949	54.5162	-16.069	-167.522	0.018584	0.065235	-1.006078	-1.007377	0.007178	54.5162	-1.006177	-2.747415E+13	-2.612489E-16	NaN
1199	1.000000	0.074590	7.37677e+06	-55639.1	1105.82	-29741	0.000000	0.000000	6.074760	-0.009176	NaN	0.000000	0.001567	0.001697	28.0808	0.098272	0.002070	47.4725	77.4022	-165.295	-0.061957	0.073284	-0.998021	-0.999327	-0.009176	47.4725	-0.997876	-2.124109E+13	4.319791E-16	NaN
1199	1.000000	0.082576	7.37677e+06	-55639.1	1105.82	-29741	0.000000	0.000000	6.082745	-0.023834	NaN	0.000000	0.001546	0.001683	28.0808	0.062139	0.001972	31.5103	7.027859	-162.145	-0.028881	0.081299	-0.990035	-0.991313	-0.023834	31.5103	-0.989468	-1.636621E+13	1.456299E-15	NaN
1199	1.000000	0.090588	7.37677e+06	-55639.1	1105.82	-29741	0.000000	0.000000	6.090756	-0.030707	NaN	0.000000	0.001596	0.001678	28.0807	0.157055	0.001862	84.332	-95.0825	-163.308	-0.109389	0.089321	-0.982024	-0.983291	-0.030707	84.332	-0.981751	-1.288252E+13	2.383618E-15	NaN
1199	1.000000	0.098608	7.37677e+06	-55639.1	1105.82	-29741	0.000000	0.000000	6.098776	-0.047837	NaN	0.000000	0.001578	0.001699	28.0807	0.067378	0.002015	33.4423	-64.8778	-163.297	-0.122986	0.097238	-0.974004	-0.975374	-0.047837	33.4423	-0.972931	-9.798481E+12	4.882124E-15	NaN
1199	1.000000	0.106596	7.37677e+06	-55639.1	1105.82	-29741	0.000000	0.000000	6.106766	-0.004758	NaN	0.000000	0.001559	0.001699	28.0807	0.037978	0.001842	20.6121	98.4211	-163.955	0.022744	0.105300	-0.966016	-0.967311	-0.004758	20.6121	-0.965843	-7.863742E+12	6.050958E-16	NaN
1199	1.000000	0.114586	7.37677e+06	-55639.1	1105.82	-29741	0.000000	0.000000	6.114755	-0.015675	NaN	0.000000	0.001545	0.001683	28.0805	0.054614	0.002172	25.1431	-156.261	-163.576	-0.021093	0.113295	-0.958026	-0.959317	-0.015675	25.1431	-0.957558	-6.080582E+12	2.577820E-15	NaN
1199	1.000000	0.122618	7.37677e+06	-55639.1	1105.82	-29741	0.000000	0.000000	6.122790	0.045035	NaN	0.000000	0.001593	0.001685	28.0805	0.051364	0.002019	25.437	-148.915	-166.964	-0.022775	0.121310	-0.949993	-0.951302	0.045035	25.437	-0.951321	-5.010104E+12	-8.988840E-15	NaN
1199	1.000000	0.130612	7.37677e+06	-55639.1	1105.82	-29741	0.000000	0.000000	6.130782	-0.011894	NaN	0.000000	0.001573	0.001662	28.0805	0.048785	0.001968	24.7897	-127.254	-161.082	-0.023236	0.129279	-0.941999	-0.943333	-0.011894	24.7897	-0.941639	-3.708986E+12	3.206718E-15	NaN
1199	1.000000	0.138617	7.37677e+06	-55639.1	1105.82	-29741	0.000000	0.000000	6.138785	-0.054222	NaN	0.000000	0.001554	0.001660	28.0806	0.094598	0.002061	45.8924	-164.872	-162.456	-0.022657	0.137258	-0.933995	-0.935353	-0.054222	45.8924	-0.933108	-2.845434E+12	1.905576E-14	NaN
1199	1.000000	0.146609	7.37677e+06	-55639.1	1105.82	-29741	0.000000	0.000000	6.146777	-0.059660	NaN	0.000000	0.001545	0.001661	28.0806	0.108984	0.002010	54.2085	13.0586	-164.006	-0.088882	0.145271	-0.926002	-0.927340	-0.059660	54.2085	-0.925177	-2.223802E+12	2.682801E-14	NaN
1199	1.000000	0.154611	7.37677e+06	-55639.1	1105.82	-29741	0.000000	0.000000	6.154778	-0.078714	NaN	0.000000	0.001563	0.001687	28.0793	0.110700	0.001992	55.5628	-109.707	-164.15	-0.028562	0.153297	-0.918001	-0.919315	-0.078714	55.5628	-0.916938	-1.721319E+12	4.572904E-14	NaN
1199	1.000000	0.162616	7.37677e+06	-55639.1	1105.82	-29741	0.000000	0.000000	6.162786	0.004453	NaN	0.000000	0.001535	0.001650	28.0791	0.102370	0.001975	51.8305	-109.803	-163.77	-0.033951	0.161314	-0.909995	-0.911297	0.004453	51.8305	-0.910060	-1.389857E+12	-3.203859E-15	NaN
1199	1.000000	0.170637	7.37677e+06	-55639.1	1105.82	-29741	0.000000	0.000000	6.170806	-0.015752	NaN	0.000000	0.001578	0.001643	28.0792	0.061819	0.001979	31.2401	-105.725	-163.619	-0.016475	0.169356	-0.901975	-0.903256	-0.015752	31.2401	-0.901597	-1.068175E+12	1.474641E-14	NaN
1199	1.000000	0.178606	7.37677e+06	-55639.1	1105.82	-29741	0.000000	0.000000	6.178772	-0.082488	NaN	0.000000	0.001574	0.001652	28.0794	0.038736	0.001931	20.0575	-175.241	-165.138	-0.081862	0.177330	-0.894006	-0.895282	-0.082488	20.0575	-0.890921	-7.662481E+11	1.076523E-13	NaN
1199	1.000000	0.186633	7.37677e+06	-55639.1	1105.82	-29741	0.000000	0.000000	6.186804	0.025310	NaN	0.000000	0.001653	0.001707	28.0792	0.144186	0.001916	75.2355	-17.8008	-165.849	-0.016206	0.185323	-0.885978	-0.887288	0.025310	75.2355	-0.886231	-6.621533E+11	-3.822333E-14	NaN
1199	1.000000	0.194641	7.37677e+06	-55639.1	1105.82	-29741	0.000000	0.000000	6.194808	-0.045196	NaN	0.000000	0.001641	0.001685	28.0794	0.001197	0.001908	0.627564	-37.6474	-163.968	-0.020817	0.193338	-0.877971	-0.879274	-0.045196	0.627564	-0.823957	-9.503216E+10	4.755876E-13	NaN
1199	1.000000	0.202633	7.37677e+06	-55639.1	1105.82	-29741	0.000000	0.000000	6.202802	-0.013591	NaN	0.000000	0.001590	0.001660	28.0792	0.143946	0.002122	67.8435	40.9074	-164.812	-0.008573	0.201351	-0.869978	-0.871261	-0.013591	67.8435	-0.869828	-3.973001E+11	3.420769E-14	NaN
1199	1.000000	0.210658	7.37677e+06	-55639.1	1105.82	-29741	0.000000	0.000000	6.210826	-0.042340	NaN	0.000000	0.001597	0.001662	28.0793	0.060946	0.002026	30.0836	-107.958	-164.828	-0.002243	0.209332	-0.861954	-0.863280	-0.042340	30.0836	-0.860898	-3.008022E+11	1.407572E-13	NaN
1199	1.000000	0.218663	7.37677e+06	-55639.1	1105.82	-29741	0.000000	0.000000	6.218833	-0.004200	NaN	0.000000	0.001609	0.001661	28.0793	0.020125	0.001954	10.2996	27.1562	-165.234	0.047359	0.217350	-0.853949	-0.855262	-0.004200	10.2996	-0.853643	-2.399177E+11	1.750667E-14	NaN
1199	1.000000	0.226645	7.37677e+06	-55639.1	1105.82	-29741	0.000000	0.000000	6.226812	-0.046817	NaN	0.000000	0.001621	0.001651	28.0791	0.063284	0.001860	34.0183	-51.0725	-167.392	-0.013469	0.225388	-0.845967	-0.847224	-0.046817	34.0183	-0.844935	-1.828696E+11	2.560112E-13	NaN
1199	1.000000	0.234638	7.37677e+06	-55639.1	1105.82	-29741	0.000000	0.000000	6.234808	0.020687	NaN	0.000000	0.001634	0.001677	28.0796	0.022795	0.002105	10.8282	-141.749	-160.744	0.028116	0.233378	-0.837974	-0.839234	0.020687	10.8282	-0.839407	-1.539059E+11	-1.344117E-13	NaN
1199	1.000000	0.242666	7.37677e+06	-55639.1	1105.82	-29741	0.000000	0.000000	6.242835	-0.013343	NaN	0.000000	0.001596	0.001663	28.0794	0.100833	0.001951	51.6774	-77.4764	-164.029	0.018726	0.241316	-0.829945	-0.831296	-0.013343	51.6774	-0.829752	-1.138729E+11	1.171740E-13	NaN
1199	1.000000	0.250671	7.37677e+06	-55639.1	1105.82	-29741	0.000000	0.000000	6.250838	-0.081532	NaN	0.000000	0.001613	0.001682	28.0792	0.181090	0.001813	99.8802	110.804	-161.587	-0.022434	0.249382	-0.821940	-0.823229	-0.081532	99.8802	-0.821328	-8.754306E+10	9.313366E-13	NaN
1199	1.000000	0.258658	7.37677e+06	-55639.1	1105.82	-29741	0.000000	0.000000	6.258827	-0.020835	NaN	0.000000	0.001550	0.001678	28.0792	0.042706	0.001924	22.1964	-49.6443	-164.544	-0.061239	0.257404	-0.813954	-0.815207	-0.020835	22.1964	-0.813250	-6.802361E+10	3.062839E-13	NaN
1199	1.000000	0.266694	7.37677e+06	-55639.1	1105.82	-29741	0.000000	0.000000	6.266864	0.028810	NaN	0.000000	0.001550	0.001664	28.0794	0.074403	0.001972	37.7216	134.278	-164.148	0.000263	0.265395	-0.805918	-0.807216	0.028810	37.7216	-0.806491	-5.507548E+10	-5.230980E-13	NaN
1199	1.000000	0.274680	7.37677e+06	-55639.1	1105.82	-29741	0.000000	0.000000	6.274850	-0.006484	NaN	0.000000	0.001559	0.001718	28.0795	0.035449	0.001971	17.9817	137.059	-164.653	-0.055756	0.273348	-0.797932	-0.799263	-0.006484	17.9817	-0.797661	-4.179382E+10	1.551352E-13	NaN
1199	1.000000	0.282658	7.37677e+06	-55639.1	1105.82	-29741	0.000000	0.000000	6.282827	-0.014839	NaN	0.000000	0.001578	0.001690	28.0794	0.045487	0.002042	22.2728	27.6207	-164.865	-0.077796	0.281344	-0.789954	-0.791267	-0.014839	22.2728	-0.789454	-3.233486E+10	4.589295E-13	NaN
1199	1.000000	0.290699	7.37677e+06	-55639.1	1105.82	-29741	0.000000	0.000000	6.290868	-0.016350	NaN	0.000000	0.001566	0.001692	28.0807	0.028692	0.002064	13.9012	96.3043	-165.898	-0.052046	0.289365	-0.781913	-0.783247	-0.016350	13.9012	-0.781031	-2.484508E+10	6.580785E-13	NaN
1199	1.000000	0.298715	7.37677e+06	-55639.1	1105.82	-29741	0.000000	0.000000	6.298883	-0.036954	NaN	0.000000	0.001548	0.001665	28.0806	0.036052	0.001944	18.5441	-90.9726	-165.722	-0.062242	0.297402	-0.773897	-0.775209	-0.036954	18.5441	-0.772403	-1.896575E+10	1.948454E-12	NaN
1199	1.000000	0.306691	7.37677e+06	-55639.1	1105.82	-29741	0.000000	0.000000	6.306858	-0.065569	NaN	0.000000	0.001591	0.001722	28.0806	0.052442	0.001935	27.1021	71.2821	-166.243	-0.031806	0.305397	-0.765920	-0.767215	-0.065569	27.1021	-0.764106	-1.462695E+10	4.482732E-12	NaN
1199	1.000000	0.314695	7.37677e+06	-55639.1	1105.82	-29741	0.000000	0.000000	6.314864	-0.030502	NaN	0.000000	0.001574	0.001684	28.0803	0.058921	0.001989	29.6217	-75.1464	-165.807	-0.009629	0.313388	-0.757916	-0.759223	-0.030502	29.6217	-0.757144	-1.176104E+10	2.593497E-12	NaN
1199	1.000000	0.322696	7.37677e+06	-55639.1	1105.82	-29741	0.000000	0.000000	6.322866	0.028160	NaN	0.000000	0.001551	0.001673	28.0805	0.077332	0.001976	39.1446	-120.161	-162.673	0.030840	0.321410	-0.749916	-0.751202	0.028160	39.1446	-0.750456	-9.537255E+9	-2.952586E-12	NaN
1199	1.000000	0.330679	7.37677e+06	-55639.1	1105.82	-29741	0.000000	0.000000	6.330846	-0.068429	NaN	0.000000	0.001571	0.001678	28.0809	0.042987	0.001879	22.8834	19.413	-164.275	-0.012735	0.329356	-0.741933	-0.743256	-0.068429	22.8834	-0.739690	-6.805038E+9	1.005569E-11	NaN
1199	1.000000	0.338694	7.37677e+06	-55639.1	1105.82	-29741	0.000000	0.000000	6.338863	-0.015710	NaN	0.000000	0.001583	0.001738	28.0809	0.056630	0.001922	29.4657	-56.1506	-165.096	0.038383	0.337369	-0.733918	-0.735243	-0.015710	29.4657	-0.733518	-5.607310E+9	2.801663E-12	NaN
1199	1.000000	0.346725	7.37677e+06	-55639.1	1105.82	-29741	0.000000	0.000000	6.346895	-0.001597	NaN	0.000000	0.001573	0.001702	28.0806	0.051102	0.001930	26.4744	109.883	-168.736	-0.057081	0.345419	-0.725887	-0.727193	-0.001597	26.4744	-0.725841	-4.406785E+9	3.624730E-13	NaN
1199	1.000000	0.354692	7.37677e+06	-55639.1	1105.82	-29741	0.000000	0.000000	6.354862	0.009506	NaN	0.000000	0.001571	0.001719	28.0808	0.075637	0.002036	37.1541	-156.819	-165.12	0.022517	0.353439	-0.717920	-0.719172	0.009506	37.1541	-0.718112	-3.457167E+9	-2.749590E-12	NaN
1199	1.000000	0.362700	7.37677e+06	-55639.1	1105.82	-29741	0.000000	0.000000	6.362867	-0.054338	NaN	0.000000	0.001592	0.001690	28.0807	0.151066	0.002123	71.1691	141.886	-163.734	-0.064160	0.361433	-0.709912	-0.711179	-0.054338	71.1691	-0.709339	-2.624424E+9	2.070464E-11	NaN
1199	1.000000	0.370729	7.37677e+06	-55639.1	1105.82	-29741	0.000000	0.000000	6.370898	-0.008150	NaN	0.000000	0.001604	0.001687	28.0805	0.034344	0.001839	18.6749	138.877	-164.129	0.014458	0.369442	-0.701883	-0.703170	-0.008150	18.6749	-0.701556	-2.054825E+9	3.966173E-12	NaN
1199	1.000000	0.378725	7.37677e+06	-55639.1	1105.82	-29741	0.000000	0.000000	6.378894	-0.005023	NaN	0.000000	0.001598	0.001688	28.0808	0.060983	0.002006	30.4076	123.039	-163.193	-0.041403	0.377410	-0.693887	-0.695202	-0.005023	30.4076	-0.693763	-1.608190E+9	3.123583E-12	NaN
1199	1.000000	0.386724	7.37677e+06	-55639.1	1105.82	-29741	0.000000	0.000000	6.386892	-0.023097	NaN	0.000000	0.001622	0.001681	28.0808	0.068570	0.002021	33.9327	-31.69	-168.409	-0.056204	0.385386	-0.685888	-0.687226	-0.023097	33.9327	-0.685378	-1.235196E+9	1.869885E-11	NaN
1199	1.000000	0.394733	7.37677e+06	-55639.1	1105.82	-29741	0.000000	0.000000	6.394899	-0.112965	NaN	0.000000	0.001583	0.001665	28.0807	0.008088	0.001978	4.090034	153.187	-165.587	-0.085648	0.393416	-0.677878	-0.679196	-0.112965	4.090034	-0.657164	-5.077073E+8	2.224995E-10	NaN
1199	1.000000	0.402723	7.37677e+06	-55639.1	1105.82	-29741	0.000000	0.000000	6.402889	-0.092230	NaN	0.000000	0.001584	0.001691	28.0806	0.059144	0.002007	29.4718	96.0287	-167.276	-0.087711	0.401409	-0.669888	-0.671202	-0.092230	29.4718	-0.667541	-7.042608E+8	1.309600E-10	NaN
1199	1.000000	0.410756	7.37677e+06	-55639.1	1105.82	-29741	0.000000	0.000000	6.410924	-0.036632	NaN	0.000000	0.001574	0.001693	28.0805	0.088104	0.001981	44.4737	119.473	-163.48	-0.129720	0.409400	-0.661856	-0.663211	-0.036632	44.4737	-0.661238	-5.773372E+8	6.345016E-11	NaN
1199	1.000000	0.418746	7.37677e+06	-55639.1	1105.82	-29741	0.000000	0.000000	6.418914	-0.050904	NaN	0.000000	0.001597	0.001706	28.0806	0.110146	0.002054	53.6205	143.069	-163.648	-0.070791	0.417411	-0.653865	-0.655200	-0.050904	53.6205	-0.653153	-4.473613E+8	1.137869E-10	NaN
1199	1.000000	0.426723	7.37677e+06	-55639.1	1105.82	-29741	0.000000	0.000000	6.426890	-0.070404	NaN	0.000000	0.001602	0.001699	28.0797	0.120319	0.001965	61.2195	-169.899	-164.329	-0.112658	0.425469	-0.645889	-0.647143	-0.070404	61.2195	-0.645026	-3.461282E+8	2.034045E-10	NaN
1199	1.000000	0.434754	7.37677e+06	-55639.1	1105.82	-29741	0.000000	0.000000	6.434924	0.015395	NaN	0.000000	0.001576	0.001649	28.0795	0.055776	0.002044	27.2819	-7.602166	-164.564	-0.014397	0.433421	-0.637858	-0.639191	0.015395	27.2819	-0.638281	-2.797095E+8	-5.503949E-11	NaN
1199	1.000000	0.442748	7.37677e+06	-55639.1	1105.82	-29741	0.000000	0.000000	6.442917	-0.010031	NaN	0.000000	0.001578	0.001687	28.0794	0.042648	0.002004	21.2806	-27.3974	-163.915	-0.026379	0.441441	-0.629864	-0.631171	-0.010031	21.2806	-0.629510	-2.119822E+8	4.732035E-11	NaN
1199	1.000000	0.450753	7.37677e+06	-55639.1	1105.82	-29741	0.000000	0.000000	6.450922	-0.024331	NaN	0.000000	0.001576	0.001629	28.0794	0.162250	0.001974	82.1864	-2.382733	-163.647	-0.003937	0.449424	-0.621858	-0.623187	-0.024331	82.1864	-0.621636	-1.652430E+8	1.472432E-10	NaN
1199	1.000000	0.458745	7.37677e+06	-55639.1	1105.82	-29741	0.000000	0.000000	6.458911	-0.105972	NaN	0.000000	0.001566	0.001699	28.0794	0.119065	0.002115	56.3024	61.8642	-165.861	-0.003809	0.457441	-0.613866	-0.615171	-0.105972	56.3024	-0.612455	-1.235611E+8	8.576478E-10	NaN
1199	1.000000	0.466775	7.37677e+06	-55639.1	1105.82	-29741	0.000000	0.000000	6.466944	-0.020803	NaN	0.000000	0.001591	0.001656	28.0794	0.092304	0.001991	46.3536	172.36	-162.294	-0.024190	0.465447	-0.605836	-0.607165	-0.020803	46.3536	-0.605500	-9.912488E+7	2.098674E-10	NaN
1199	1.000000	0.474741	7.37677e+06	-55639.1	1105.82	-29741	0.000000	0.000000	6.474908	-0.049855	NaN	0.000000	0.001589	0.001635	28.0794	0.072474	0.001930	37.5585	178.059	-162.927	-0.098927	0.473414	-0.597871	-0.599198	-0.049855	37.5585	-0.596875	-7.540870E+7	6.611321E-10	NaN
1199	1.000000	0.482761	7.37677e+06	-55639.1	1105.82	-29741	0.000000	0.000000	6.482930	-0.010141	NaN	0.000000	0.001584	0.001686	28.0796	0.061388	0.002052	29.9183	-148.668	-162.795	-0.086252	0.481471	-0.589851	-0.591141	-0.010141	29.9183	-0.589597	-5.985612E+7	1.694239E-10	NaN
1199	1.000000	0.490769	7.37677e+06	-55639.1	1105.82	-29741	0.000000	0.000000	6.490939	0.020953	NaN	0.000000	0.001595	0.001668	28.0792	0.074132	0.002022	36.6578	127.047	-169.131	-0.036259	0.489476	-0.581843	-0.583136	0.020953	36.6578	-0.582272	-4.743268E+7	-4.417320E-10	NaN
1199	1.000000	0.498782	7.37677e+06	-55639.1	1105.82	-29741	0.000000	0.000000	6.498949	-0.057697	NaN	0.000000	0.001604	0.001672	28.0804	0.098235	0.001986	49.4587	104.617	-164.712	-0.083652	0.497429	-0.573830	-0.575183	-0.057697	49.4587	-0.572955	-3.527410E+7	1.635680E-9	NaN
1199	1.000000	0.506767	7.37677e+06	-55639.1	1105.82	-29741	0.000000	0.000000	6.506935	-0.038910	NaN	0.000000	0.001579	0.001680	28.0793	0.054215	0.002007	27.0102	-169.451	-160.889	-0.038657	0.505463	-0.565844	-0.567149	-0.038910	27.0102	-0.564764	-2.718080E+7	1.431507E-9	NaN
1199	1.000000	0.514764	7.37677e+06	-55639.1	1105.82	-29741	0.000000	0.000000	6.514935	0.027393	NaN	0.000000	0.001565	0.001676	28.0792	0.079020	0.001958	40.3599	90.0365	-168.536	-0.025020	0.513454	-0.557848	-0.559158	0.027393	40.3599	-0.558357	-2.216388E+7	-1.235946E-9	NaN
1199	1.000000	0.522803	7.37677e+06	-55639.1	1105.82	-29741	0.000000	0.000000	6.522973	0.002727	NaN	0.000000	0.001573	0.001695	28.0795	0.053758	0.001968	27.3094	86.1251	-163.549	0.050662	0.521480	-0.549809	-0.551132	0.002727	27.3094	-0.549884	-1.691778E+7	-1.612166E-10	NaN
1199	1.000000	0.530817	7.37677e+06	-55639.1	1105.82	-29741	0.000000	0.000000	6.530984	-0.070824	NaN	0.000000	0.001582	0.001683	28.0794	0.115510	0.001977	58.4208	-11.1043	-165.029	0.035060	0.529506	-0.541795	-0.543106	-0.070824	58.4208	-0.540885	-1.269507E+7	5.578859E-9	NaN
1199	1.000000	0.538801	7.37677e+06	-55639.1	1105.82	-29741	0.000000	0.000000	6.538973	0.047985	NaN	0.000000	0.001579	0.001692	28.0795	0.037745	0.002084	18.1154	-7.574724	-162.141	0.083245	0.537424	-0.533811	-0.535188	0.047985	18.1154	-0.535797	-1.079081E+7	-4.446821E-9	NaN
1199	1.000000	0.546797	7.37677e+06	-55639.1	1105.82	-29741	0.000000	0.000000	6.546968	0.027574	NaN	0.000000	0.001602	0.001695	28.0794	0.116162	0.002043	56.8501	126.705	-165.743	-0.050764	0.545505	-0.525814	-0.527107	0.027574	56.8501	-0.526178	-7.93381e+06	-3.475558E-9	NaN
1199	1.000000	0.554789	7.37677e+06	-55639.1	1105.82	-29741	0.000000	0.000000	6.554957	-0.061998	NaN	0.000000	0.001576	0.001729	28.0794	0.052115	0.002059	25.3061	30.4963	-166.569	-0.051947	0.553478	-0.517822	-0.519134	-0.061998	25.3061	-0.515985	-5.72452e+06	1.083025E-8	NaN
1199	1.000000	0.562776	7.37677e+06	-55639.1	1105.82	-29741	0.000000	0.000000	6.562946	0.002967	NaN	0.000000	0.001566	0.001712	28.0807	0.066337	0.001931	34.3456	103.925	-165.952	-0.071283	0.561517	-0.509836	-0.511095	0.002967	34.3456	-0.509900	-4.71009e+06	-6.298349E-10	NaN
1199	1.000000	0.570797	7.37677e+06	-55639.1	1105.82	-29741	0.000000	0.000000	6.570966	-0.016577	NaN	0.000000	0.001546	0.001702	28.0808	0.063001	0.001991	31.6449	-89.1928	-162.596	0.010915	0.569499	-0.501814	-0.503113	-0.016577	31.6449	-0.501422	-3.58796e+06	4.620206E-9	NaN
1199	1.000000	0.578804	7.37677e+06	-55639.1	1105.82	-29741	0.000000	0.000000	6.578974	-0.006143	NaN	0.000000	0.001593	0.001691	28.0808	0.116362	0.002005	58.0397	-73.1456	-162.448	-0.066164	0.577495	-0.493807	-0.495117	-0.006143	58.0397	-0.493728	-2.80202e+06	2.192473E-9	NaN
1199	1.000000	0.586806	7.37677e+06	-55639.1	1105.82	-29741	0.000000	0.000000	6.586975	0.004711	NaN	0.000000	0.001550	0.001702	28.0806	0.044806	0.001958	22.8817	179.704	-162.937	-0.111279	0.585503	-0.485806	-0.487108	0.004711	22.8817	-0.485961	-2.18236e+06	-2.158720E-9	NaN
1199	1.000000	0.594802	7.37677e+06	-55639.1	1105.82	-29741	0.000000	0.000000	6.594974	0.041831	NaN	0.000000	0.001553	0.001689	28.0807	0.023173	0.001969	11.7713	-30.5452	-166.906	0.118268	0.593456	-0.477810	-0.479155	0.041831	11.7713	-0.480475	-1.82883e+06	-2.287309E-8	NaN
1199	1.000000	0.602841	7.37677e+06	-55639.1	1105.82	-29741	0.000000	0.000000	6.603009	-0.050269	NaN	0.000000	0.001565	0.001718	28.0805	0.041421	0.002112	19.6111	17.5712	-165.021	0.014994	0.601502	-0.469771	-0.471110	-0.050269	19.6111	-0.467848	-1.21681e+06	4.131166E-8	NaN
1199	1.000000	0.610822	7.37677e+06	-55639.1	1105.82	-29741	0.000000	0.000000	6.610992	0.006124	NaN	0.000000	0.001567	0.001734	28.0806	0.093378	0.001976	47.2454	83.5226	-166.103	-0.023066	0.609528	-0.461789	-0.463084	0.006124	47.2454	-0.461887	-1.00352e+06	-6.102679E-9	NaN
1199	1.000000	0.618797	7.37677e+06	-55639.1	1105.82	-29741	0.000000	0.000000	6.618964	-0.056500	NaN	0.000000	0.001553	0.001716	28.0807	0.024461	0.002114	11.5714	161.007	-163.638	-0.076344	0.617516	-0.453815	-0.455096	-0.056500	11.5714	-0.450153	-686277	8.232753E-8	NaN
1199	1.000000	0.626797	7.37677e+06	-55639.1	1105.82	-29741	0.000000	0.000000	6.626965	-0.044075	NaN	0.000000	0.001531	0.001658	28.0811	0.071951	0.002063	34.8812	37.7647	-163.849	-0.038571	0.625537	-0.445815	-0.447075	-0.044075	34.8812	-0.444867	-578121	7.623878E-8	NaN
1199	1.000000	0.634842	7.37677e+06	-55639.1	1105.82	-29741	0.000000	0.000000	6.635007	-0.094035	NaN	0.000000	0.001527	0.001676	28.0807	0.076461	0.001890	40.4533	-134.47	-165.521	-0.095736	0.633526	-0.437770	-0.439085	-0.094035	40.4533	-0.436027	-433771	2.167848E-7	NaN
1199	1.000000	0.642840	7.37677e+06	-55639.1	1105.82	-29741	0.000000	0.000000	6.643011	0.023675	NaN	0.000000	0.001540	0.001686	28.0806	0.037327	0.001969	18.9541	-111.381	-163.598	0.006938	0.641470	-0.429771	-0.431142	0.023675	18.9541	-0.430708	-364821	-6.489515E-8	NaN
1199	1.000000	0.650815	7.37677e+06	-55639.1	1105.82	-29741	0.000000	0.000000	6.650985	-0.001438	NaN	0.000000	0.001523	0.001655	28.0805	0.066746	0.002004	33.3041	-114.566	-165.468	-0.069915	0.649509	-0.421796	-0.423103	-0.001438	33.3041	-0.421764	-272537	5.277736E-9	NaN
1199	1.000000	0.658815	7.37677e+06	-55639.1	1105.82	-29741	0.000000	0.000000	6.658981	-0.097524	NaN	0.000000	0.001631	0.001698	28.0806	0.155051	0.001971	78.6813	-178.244	-169.032	-0.123436	0.657521	-0.413796	-0.415091	-0.097524	78.6813	-0.412867	-203775	4.785860E-7	NaN
1199	1.000000	0.666861	7.37677e+06	-55639.1	1105.82	-29741	0.000000	0.000000	6.667026	-0.121848	NaN	0.000000	0.001630	0.001668	28.0809	0.125549	0.001985	63.2469	-128.349	-168.391	-0.075430	0.665518	-0.405751	-0.407094	-0.121848	63.2469	-0.404306	-153944	7.915066E-7	NaN
1199	1.000000	0.674846	7.37677e+06	-55639.1	1105.82	-29741	0.000000	0.000000	6.675013	-0.052109	NaN	0.000000	0.001610	0.001675	28.0807	0.056108	0.001995	28.1175	68.4671	-165.179	0.021585	0.673545	-0.397766	-0.399067	-0.052109	28.1175	-0.396376	-118654	4.391675E-7	NaN
1199	1.000000	0.682841	7.37677e+06	-55639.1	1105.82	-29741	0.000000	0.000000	6.683010	-0.030852	NaN	0.000000	0.001615	0.001686	28.0806	0.029767	0.002092	14.2318	-103.182	-165.954	-0.097455	0.681557	-0.389770	-0.391055	-0.030852	14.2318	-0.388145	-90493.4	3.409258E-7	NaN
1199	1.000000	0.690845	7.37677e+06	-55639.1	1105.82	-29741	0.000000	0.000000	6.691013	-0.046035	NaN	0.000000	0.001612	0.001663	28.0805	0.104366	0.001980	52.7234	159.587	-166.922	0.012573	0.689541	-0.381766	-0.383071	-0.046035	52.7234	-0.381112	-71752.7	6.415851E-7	NaN
1199	1.000000	0.698844	7.37677e+06	-55639.1	1105.82	-29741	0.000000	0.000000	6.699012	-0.025538	NaN	0.000000	0.001592	0.001651	28.0793	0.038816	0.002078	18.6767	16.4813	-166.215	-0.011570	0.697506	-0.373768	-0.375106	-0.025538	18.6767	-0.372742	-54400.6	4.694385E-7	NaN
1199	1.000000	0.706835	7.37677e+06	-55639.1	1105.82	-29741	0.000000	0.000000	6.707003	-0.050371	NaN	0.000000	0.001611	0.001716	28.0794	0.117590	0.002099	56.0186	124.8	-168.616	-0.213868	0.705580	-0.365777	-0.367032	-0.050371	56.0186	-0.365102	-42221.1	1.193024E-6	NaN
1199	1.000000	0.714881	7.37677e+06	-55639.1	1105.82	-29741	0.000000	0.000000	6.715049	-0.045314	NaN	0.000000	0.001621	0.001711	28.0794	0.064812	0.001949	33.2586	-121.172	-165.615	-0.066888	0.713580	-0.357731	-0.359032	-0.045314	33.2586	-0.356709	-31933.3	1.419026E-6	NaN
1199	1.000000	0.722894	7.37677e+06	-55639.1	1105.82	-29741	0.000000	0.000000	6.723066	0.064660	NaN	0.000000	0.001629	0.001721	28.0796	0.048847	0.001999	24.4395	-68.999	-162.612	0.073388	0.721553	-0.349718	-0.351058	0.064660	24.4395	-0.351702	-27021	-2.392959E-6	NaN
1199	1.000000	0.730875	7.37677e+06	-55639.1	1105.82	-29741	0.000000	0.000000	6.731041	-0.068860	NaN	0.000000	0.001656	0.001702	28.0797	0.033479	0.002036	16.4446	58.6905	-166.468	-0.044985	0.729580	-0.341737	-0.343032	-0.068860	16.4446	-0.338597	-17421.7	3.952527E-6	NaN
1199	1.000000	0.738835	7.37677e+06	-55639.1	1105.82	-29741	0.000000	0.000000	6.739003	-0.062886	NaN	0.000000	0.001609	0.001704	28.0794	0.070701	0.002016	35.0689	-80.2659	-168.395	-0.057680	0.737556	-0.333776	-0.335055	-0.062886	35.0689	-0.332431	-14159.2	4.441378E-6	NaN
1199	1.000000	0.746850	7.37677e+06	-55639.1	1105.82	-29741	0.000000	0.000000	6.747017	-0.055128	NaN	0.000000	0.001614	0.001710	28.0795	0.042197	0.002020	20.8906	134.827	-163.807	-0.028552	0.745543	-0.325762	-0.327069	-0.055128	20.8906	-0.323783	-10574.5	5.213266E-6	NaN
1199	1.000000	0.754855	7.37677e+06	-55639.1	1105.82	-29741	0.000000	0.000000	6.755023	-0.047515	NaN	0.000000	0.001611	0.001678	28.0794	0.078688	0.002041	38.557	-169.847	-163.988	-0.005327	0.753609	-0.317757	-0.319002	-0.047515	38.557	-0.316833	-8355.67	5.686508E-6	NaN
1199	1.000000	0.762862	7.37677e+06	-55639.1	1105.82	-29741	0.000000	0.000000	6.763032	0.004926	NaN	0.000000	0.001567	0.001698	28.0793	0.065048	0.001951	33.3413	178.279	-166.426	-0.043947	0.761560	-0.309749	-0.311052	0.004926	33.3413	-0.309860	-6591.51	-7.473014E-7	NaN
1199	1.000000	0.770909	7.37677e+06	-55639.1	1105.82	-29741	0.000000	0.000000	6.771075	-0.079454	NaN	0.000000	0.001590	0.001684	28.0797	0.049645	0.001998	24.8432	165.434	-165.328	-0.075502	0.769582	-0.301703	-0.303030	-0.079454	24.8432	-0.299304	-4594.94	1.729170E-5	NaN
1199	1.000000	0.778910	7.37677e+06	-55639.1	1105.82	-29741	0.000000	0.000000	6.779078	-0.036119	NaN	0.000000	0.001594	0.001658	28.0794	0.027089	0.001965	13.7841	30.2567	-164.746	-0.025132	0.777601	-0.293702	-0.295010	-0.036119	13.7841	-0.291737	-3542.47	1.019599E-5	NaN
1199	1.000000	0.786863	7.37677e+06	-55639.1	1105.82	-29741	0.000000	0.000000	6.787032	-0.003154	NaN	0.000000	0.001555	0.001679	28.0795	0.096377	0.002032	47.4242	116.492	-165.461	-0.030109	0.785582	-0.285749	-0.287029	-0.003154	47.4242	-0.285699	-2875.89	1.096612E-6	NaN
1199	1.000000	0.794880	7.37677e+06	-55639.1	1105.82	-29741	0.000000	0.000000	6.795049	0.005123	NaN	0.000000	0.001559	0.001664	28.0794	0.055954	0.002060	27.1648	89.5678	-167.721	0.030590	0.793592	-0.277732	-0.279019	0.005123	27.1648	-0.277874	-2192.13	-2.337010E-6	NaN
1199	1.000000	0.802926	7.37677e+06	-55639.1	1105.82	-29741	0.000000	0.000000	6.803094	-0.040763	NaN	0.000000	0.001560	0.001657	28.0794	0.015152	0.002097	7.226781	-96.4241	-165.406	0.033893	0.801608	-0.269686	-0.271004	-0.040763	7.226781	-0.265455	-1420.15	2.870330E-5	NaN
1199	1.000000	0.810881	7.37677e+06	-55639.1	1105.82	-29741	0.000000	0.000000	6.811052	0.032086	NaN	0.000000	0.001561	0.001696	28.0795	0.018409	0.001972	9.334368	-33.9426	-167.733	0.033771	0.809566	-0.261731	-0.263046	0.032086	9.334368	-0.264309	-1364.07	-2.352224E-5	NaN
1199	1.000000	0.818899	7.37677e+06	-55639.1	1105.82	-29741	0.000000	0.000000	6.819067	-0.027034	NaN	0.000000	0.001558	0.001685	28.0796	0.112745	0.001825	61.7897	-42.9938	-167.753	-0.037138	0.817578	-0.253713	-0.255033	-0.027034	61.7897	-0.253385	-927.325	2.915303E-5	NaN
1199	1.000000	0.826878	7.37677e+06	-55639.1	1105.82	-29741	0.000000	0.000000	6.827048	0.014623	NaN	0.000000	0.001609	0.001676	28.0796	0.105497	0.002068	51.003	-68.6545	-166.856	0.026804	0.825581	-0.245734	-0.247031	0.014623	51.003	-0.245949	-711.534	-2.055084E-5	NaN
1199	1.000000	0.834908	7.37677e+06	-55639.1	1105.82	-29741	0.000000	0.000000	6.835077	-0.025237	NaN	0.000000	0.001623	0.001734	28.0806	0.049858	0.002104	23.7011	-131.508	-162.019	-0.012757	0.833599	-0.237703	-0.239013	-0.025237	23.7011	-0.236905	-514.195	4.908047E-5	NaN
1199	1.000000	0.842899	7.37677e+06	-55639.1	1105.82	-29741	0.000000	0.000000	6.843065	-0.073976	NaN	0.000000	0.001597	0.001682	28.0806	0.002007	0.001755	1.143878	138.614	-163.867	-0.015081	0.841569	-0.229713	-0.231043	-0.073976	1.143878	-0.181209	-63.9764	0.001156	NaN
1199	1.000000	0.850910	7.37677e+06	-55639.1	1105.82	-29741	0.000000	0.000000	6.851078	-0.050909	NaN	0.000000	0.001603	0.001709	28.0806	0.058935	0.001891	31.1632	-27.2229	-166.555	-0.086892	0.849649	-0.221701	-0.222963	-0.050909	31.1632	-0.220476	-282.672	0.000180	NaN
1199	1.000000	0.858925	7.37677e+06	-55639.1	1105.82	-29741	0.000000	0.000000	6.859094	-0.019898	NaN	0.000000	0.001610	0.001685	28.0807	0.068618	0.002003	34.2525	-15.2233	-166.431	-0.019662	0.857559	-0.213686	-0.215053	-0.019898	34.2525	-0.213251	-216.443	9.193373E-5	NaN
1199	1.000000	0.866910	7.37677e+06	-55639.1	1105.82	-29741	0.000000	0.000000	6.867077	-0.069672	NaN	0.000000	0.001640	0.001673	28.0809	0.040547	0.001998	20.2954	-91.6261	-166.707	-0.032095	0.865631	-0.205702	-0.206981	-0.069672	20.2954	-0.203127	-148.24	0.000470	NaN
1199	1.000000	0.874917	7.37677e+06	-55639.1	1105.82	-29741	0.000000	0.000000	6.875086	-0.024430	NaN	0.000000	0.001624	0.001690	28.081	0.048909	0.001839	26.5909	-75.7001	-165.378	-0.062140	0.873645	-0.197695	-0.198967	-0.024430	26.5909	-0.197005	-117.59	0.000208	NaN
1199	1.000000	0.882921	7.37677e+06	-55639.1	1105.82	-29741	0.000000	0.000000	6.883088	-0.068062	NaN	0.000000	0.001632	0.001673	28.081	0.089530	0.002179	41.0913	-131.104	-169.964	-0.117945	0.881682	-0.189691	-0.190929	-0.068062	41.0913	-0.188448	-84.7365	0.000803	NaN
1199	1.000000	0.890949	7.37677e+06	-55639.1	1105.82	-29741	0.000000	0.000000	6.891116	-0.065047	NaN	0.000000	0.001606	0.001669	28.0806	0.098025	0.002035	48.1781	31.9253	-166.852	-0.009631	0.889638	-0.181663	-0.182974	-0.065047	48.1781	-0.180650	-62.5926	0.001039	NaN
1199	1.000000	0.898943	7.37677e+06	-55639.1	1105.82	-29741	0.000000	0.000000	6.899115	0.037570	NaN	0.000000	0.001607	0.001702	28.0806	0.015203	0.002022	7.517625	111.915	-161.862	0.073963	0.897584	-0.173668	-0.175028	0.037570	7.517625	-0.177417	-55.1321	-0.000681	NaN
1199	1.000000	0.906942	7.37677e+06	-55639.1	1105.82	-29741	0.000000	0.000000	6.907111	-0.020735	NaN	0.000000	0.001616	0.001648	28.0804	0.081347	0.001922	42.3256	-73.8572	-166.212	0.048540	0.905617	-0.165670	-0.166994	-0.020735	42.3256	-0.165303	-34.0108	0.000610	NaN
1199	1.000000	0.914937	7.37677e+06	-55639.1	1105.82	-29741	0.000000	0.000000	6.915104	-0.052126	NaN	0.000000	0.001622	0.001678	28.0808	0.046347	0.001999	23.1877	33.9029	-164.393	-0.078678	0.913691	-0.157675	-0.158921	-0.052126	23.1877	-0.155989	-23.2463	0.002242	NaN
1199	1.000000	0.922919	7.37677e+06	-55639.1	1105.82	-29741	0.000000	0.000000	6.923087	-0.029071	NaN	0.000000	0.001624	0.001713	28.0806	0.042118	0.002052	20.5224	-172.169	-167.129	-0.077893	0.921615	-0.149693	-0.150997	-0.029071	20.5224	-0.148630	-17.0993	0.001700	NaN
1199	1.000000	0.930966	7.37677e+06	-55639.1	1105.82	-29741	0.000000	0.000000	6.931139	0.070983	NaN	0.000000	0.001617	0.001670	28.0805	0.093452	0.001920	48.6756	-103.871	-166.271	0.016106	0.929637	-0.141646	-0.142974	0.070983	48.6756	-0.142739	-13.3109	-0.005333	NaN
1199	1.000000	0.938932	7.37677e+06	-55639.1	1105.82	-29741	0.000000	0.000000	6.939101	-0.027592	NaN	0.000000	0.001623	0.001689	28.0805	0.108153	0.002005	53.9451	-129.412	-168.362	-0.066434	0.937636	-0.133679	-0.134976	-0.027592	53.9451	-0.133296	-8.823926	0.003127	NaN
1199	1.000000	0.946937	7.37677e+06	-55639.1	1105.82	-29741	0.000000	0.000000	6.947104	-0.056543	NaN	0.000000	0.001640	0.001706	28.0804	0.133945	0.001898	70.5714	177.591	-171.995	-0.111786	0.945646	-0.125675	-0.126965	-0.056543	70.5714	-0.125074	-6.101764	0.009267	NaN
1199	1.000000	0.954952	7.37677e+06	-55639.1	1105.82	-29741	0.000000	0.000000	6.955121	-0.006919	NaN	0.000000	0.001666	0.001663	28.0807	0.113112	0.002178	51.934	166.596	-168.248	-0.073505	0.953622	-0.117660	-0.118990	-0.006919	51.934	-0.117560	-4.311082	0.001605	NaN
1199	1.000000	0.962973	7.37677e+06	-55639.1	1105.82	-29741	0.000000	0.000000	6.963140	-0.073507	NaN	0.000000	0.001626	0.001687	28.0807	0.039151	0.001899	20.62	-72.3433	-164.125	-0.136604	0.961608	-0.109639	-0.111004	-0.073507	20.62	-0.106965	-2.590690	0.028373	NaN
1199	1.000000	0.970974	7.37677e+06	-55639.1	1105.82	-29741	0.000000	0.000000	6.971139	-0.097700	NaN	0.000000	0.001504	0.001689	28.0793	0.061858	0.001968	31.4373	9.207230	-166.654	-0.022957	0.969659	-0.101638	-0.102953	-0.097700	31.4373	-0.099307	-1.763543	0.055400	NaN
1199	1.000000	0.978958	7.37677e+06	-55639.1	1105.82	-29741	0.000000	0.000000	6.979128	0.009148	NaN	0.000000	0.001536	0.001674	28.0796	0.123324	0.001836	67.1684	-19.9841	-165.995	0.067875	0.977645	-0.093654	-0.094967	0.009148	67.1684	-0.093756	-1.321201	-0.006924	NaN
1199	1.000000	0.986998	7.37677e+06	-55639.1	1105.82	-29741	0.000000	0.000000	6.987167	-0.019430	NaN	0.000000	0.001573	0.001679	28.0794	0.018500	0.001959	9.441710	83.9808	-166.429	0.007796	0.985662	-0.085613	-0.086949	-0.019430	9.441710	-0.084070	-0.780014	0.024910	NaN
1199	1.000000	0.994957	7.37677e+06	-55639.1	1105.82	-29741	0.000000	0.000000	6.995124	-0.065167	NaN	0.000000	0.001573	0.001694	28.0795	0.028197	0.002114	13.3411	136.74	-169.841	-0.129967	0.993629	-0.077654	-0.078983	-0.065167	13.3411	-0.073991	-0.434833	0.149866	NaN
1199	1.000000	1.002983	7.37677e+06	-55639.1	1105.82	-29741	0.000000	0.000000	7.003151	-0.040199	NaN	0.000000	0.001588	0.001687	28.0794	0.021694	0.002053	10.5648	-154.075	-168.367	0.002214	1.001682	-0.069628	-0.070930	-0.040199	10.5648	-0.066775	-0.278935	0.144116	NaN
1199	1.000000	1.010971	7.37677e+06	-55639.1	1105.82	-29741	0.000000	0.000000	7.011139	-0.051404	NaN	0.000000	0.001591	0.001719	28.0795	0.075481	0.001975	38.2256	81.3	-167.192	-0.037374	1.009657	-0.061641	-0.062955	-0.051404	38.2256	-0.060632	-0.187755	0.273781	NaN
1199	1.000000	1.018954	7.37677e+06	-55639.1	1105.82	-29741	0.000000	0.000000	7.019121	-0.060938	NaN	0.000000	0.001610	0.001713	28.0798	0.085643	0.002089	41	-44.7543	-169.842	0.012401	1.017619	-0.053658	-0.054993	-0.060938	41	-0.052543	-0.108835	0.559912	NaN
1199	1.000000	1.026972	7.37677e+06	-55639.1	1105.82	-29741	0.000000	0.000000	7.027141	-0.006304	NaN	0.000000	0.001568	0.001712	28.0792	0.124276	0.002040	60.9294	-95.5936	-167.37	-0.037045	1.025682	-0.045640	-0.046930	-0.006304	60.9294	-0.045562	-0.066863	0.094284	NaN
1199	1.000000	1.034993	7.37677e+06	-55639.1	1105.82	-29741	0.000000	0.000000	7.035160	-0.050852	NaN	0.000000	0.001590	0.001734	28.0795	0.085989	0.001958	43.9221	-33.6333	-164.356	-0.033223	1.033700	-0.037619	-0.038912	-0.050852	43.9221	-0.036751	-0.036092	1.408968	NaN
1199	1.000000	1.042999	7.37677e+06	-55639.1	1105.82	-29741	0.000000	0.000000	7.043169	-0.000734	NaN	0.000000	0.001571	0.001717	28.0794	0.064712	0.002031	31.8562	-56.3749	-169.853	-0.004067	1.041676	-0.029612	-0.030936	-0.000734	31.8562	-0.029595	-0.022424	0.032745	NaN
1199	1.000000	1.050986	7.37677e+06	-55639.1	1105.82	-29741	0.000000	0.000000	7.051155	-0.018343	NaN	0.000000	0.001546	0.001688	28.0795	0.100875	0.002109	47.8344	94.9589	-163.046	-0.051352	1.049714	-0.021625	-0.022898	-0.018343	47.8344	-0.021338	-0.013584	1.350345	NaN
1199	1.000000	1.059009	7.37677e+06	-55639.1	1105.82	-29741	0.000000	0.000000	7.059176	-0.066445	NaN	0.000000	0.001557	0.001682	28.0795	0.030231	0.001950	15.5027	-1.514911	-165.09	0.004456	1.057728	-0.013603	-0.014883	-0.066445	15.5027	-0.010388	-0.006609	10.0532	NaN
1199	1.000000	1.067004	7.37677e+06	-55639.1	1105.82	-29741	0.000000	0.000000	7.067173	-0.012056	NaN	0.000000	0.001592	0.001670	28.0793	0.068204	0.001951	34.9517	-138.424	-167.98	-0.055363	1.065712	-0.005608	-0.006900	-0.012056	34.9517	-0.005349	-0.003635	3.316660	NaN
1199	1.000000	1.074976	7.37677e+06	-55639.1	1105.82	-29741	0.000000	0.000000	7.075318	4.190345	NaN	0.000000	0.001551	0.001655	28.0794	4.970131	0.001707	2911.07	9.376465	-170.032	2.760104	1.073640	0.002364	0.001028	4.190345	2911.07	0.001284	0.000984	4257.35	84775.5
1199	2.000000	1.079684	7.37677e+06	-55639.1	1105.82	-29741	0.000000	0.000000	7.080194	8.258181	NaN	0.000000	0.001602	0.001697	28.0792	9.592573	0.001685	5693.75	9.999373	-176.732	8.252335	1.079329	0.007072	0.006718	8.258181	5693.75	0.005985	0.005050	1635.29	73202.7
1199	2.000000	1.081629	7.37677e+06	-55639.1	1105.82	-29741	0.000000	0.000000	7.082267	11.402	NaN	0.000000	0.001635	0.001667	28.0794	11.2699	0.001646	6848.6	10.0786	-176.941	11.3312	1.081332	0.009017	0.008720	11.402	6848.6	0.007768	0.006805	1675.52	75850.6
1199	2.000000	1.083604	7.37677e+06	-55639.1	1105.82	-29741	0.000000	0.000000	7.084342	13.7991	NaN	0.000000	0.001679	0.001693	28.0792	14.3187	0.001802	7944.14	7.179491	-176.501	13.1173	1.083296	0.010992	0.010684	13.7991	7944.14	0.009690	0.008839	1561.22	77201.6
1199	2.000000	1.085635	7.37677e+06	-55639.1	1105.82	-29741	0.000000	0.000000	7.086527	17.5425	NaN	0.000000	0.001655	0.001671	28.0805	16.2601	0.001717	9471.32	4.684210	-175.034	17.8587	1.085290	0.013024	0.012678	17.5425	9471.32	0.011635	0.011055	1586.81	82300.1
1199	2.000000	1.087603	7.37677e+06	-55639.1	1105.82	-29741	0.000000	0.000000	7.088591	19.8887	NaN	0.000000	0.001644	0.001668	28.0807	17.5411	0.001704	10294.1	4.258351	-175.995	19.908	1.087285	0.014991	0.014673	19.8887	10294.1	0.013542	0.013390	1485.35	81278
1199	2.000000	1.089596	7.37677e+06	-55639.1	1105.82	-29741	0.000000	0.000000	7.090653	21.5717	NaN	0.000000	0.001615	0.001715	28.0806	20.5833	0.001885	10916.8	8.053078	-179.396	22.224	1.089318	0.016984	0.016706	21.5717	10916.8	0.015502	0.015961	1351.55	78948.2
1199	2.000000	1.091560	7.37677e+06	-55639.1	1105.82	-29741	0.000000	0.000000	7.092933	29.2555	NaN	0.000000	0.001631	0.001687	28.0814	22.3515	0.001814	12319.2	7.859768	179.744	28.736	1.091281	0.018948	0.018670	29.2555	12319.2	0.017167	0.018284	1600.02	83236.5
1199	2.000000	1.093548	7.37677e+06	-55639.1	1105.82	-29741	0.000000	0.000000	7.095038	32.1063	NaN	0.000000	0.001619	0.001649	28.0807	24.1577	0.001732	13949.8	6.621693	178.926	31.6442	1.093238	0.020936	0.020626	32.1063	13949.8	0.019210	0.021316	1506.2	87294.6
1199	2.000000	1.095604	7.37677e+06	-55639.1	1105.82	-29741	0.000000	0.000000	7.097322	37.6341	NaN	0.000000	0.001636	0.001688	28.0806	26.2938	0.001923	13669.9	5.446913	-177.051	38.5621	1.095256	0.022992	0.022644	37.6341	13669.9	0.020928	0.024021	1566.72	80583.1
1199	2.000000	1.097576	7.37677e+06	-55639.1	1105.82	-29741	0.000000	0.000000	7.099485	42.2799	NaN	0.000000	0.001636	0.001664	28.0808	27.9233	0.001700	16424.4	7.167801	177.525	42.4779	1.097160	0.024965	0.024549	42.2799	16424.4	0.023034	0.027536	1535.45	90430.4
1199	2.000000	1.099532	7.37677e+06	-55639.1	1105.82	-29741	0.000000	0.000000	7.101608	46.3474	NaN	0.000000	0.001641	0.001662	28.0807	30.4226	0.001818	16736	3.695096	-178.784	45.7454	1.099227	0.026920	0.026615	46.3474	16736	0.024843	0.030731	1508.17	87224
1199	2.000000	1.101455	7.37677e+06	-55639.1	1105.82	-29741	0.000000	0.000000	7.103768	52.1061	NaN	0.000000	0.001632	0.001654	28.0818	31.6581	0.001750	18092.3	3.747879	179.583	49.0696	1.101236	0.028843	0.028624	52.1061	18092.3	0.026683	0.034150	1525.82	89448.7
1199	2.000000	1.103538	7.37677e+06	-55639.1	1105.82	-29741	0.000000	0.000000	7.106207	60.763	NaN	0.000000	0.001548	0.001650	28.0808	34.6726	0.001808	19177.9	5.712057	177.372	59.5535	1.103164	0.030926	0.030552	60.763	19177.9	0.028549	0.037791	1607.87	90132.2
1199	2.000000	1.105559	7.37677e+06	-55639.1	1105.82	-29741	0.000000	0.000000	7.108500	67.3495	NaN	0.000000	0.001558	0.001693	28.0806	36.2136	0.001815	19955.1	8.071518	174.671	67.3045	1.105165	0.032948	0.032553	67.3495	19955.1	0.030416	0.041611	1618.55	89376.4
1199	2.000000	1.107570	7.37677e+06	-55639.1	1105.82	-29741	0.000000	0.000000	7.110699	71.9221	NaN	0.000000	0.001562	0.001687	28.0809	38.4912	0.001858	20721.5	6.115200	176.781	72.4772	1.107252	0.034958	0.034640	71.9221	20721.5	0.032355	0.045767	1571.48	88495
1199	2.000000	1.109493	7.37677e+06	-55639.1	1105.82	-29741	0.000000	0.000000	7.112795	76.1472	NaN	0.000000	0.001549	0.001680	28.0807	39.1931	0.001802	21750.9	3.036701	179.023	72.5247	1.109241	0.036881	0.036629	76.1472	21750.9	0.034255	0.050026	1522.15	88848.7
1199	2.000000	1.111561	7.37677e+06	-55639.1	1105.82	-29741	0.000000	0.000000	7.115175	83.733	NaN	0.000000	0.001567	0.001714	28.0814	40.6275	0.001765	23021.1	5.917729	176.005	84.0807	1.111181	0.038949	0.038570	83.733	23021.1	0.036221	0.054628	1532.79	89989.5
1199	2.000000	1.113495	7.37677e+06	-55639.1	1105.82	-29741	0.000000	0.000000	7.117515	93.5883	NaN	0.000000	0.001571	0.001709	28.0809	41.1572	0.001660	24799.6	2.842698	178.528	92.0773	1.113135	0.040883	0.040524	93.5883	24799.6	0.038053	0.059093	1583.75	93207.4
1199	2.000000	1.115621	7.37677e+06	-55639.1	1105.82	-29741	0.000000	0.000000	7.119882	99.4689	NaN	0.000000	0.001566	0.001663	28.0807	45.7796	0.001805	25357.5	6.477478	174.357	102.513	1.115239	0.043009	0.042627	99.4689	25357.5	0.040067	0.064201	1549.33	91433.8
1199	2.000000	1.117566	7.37677e+06	-55639.1	1105.82	-29741	0.000000	0.000000	7.122227	109.179	NaN	0.000000	0.001610	0.001702	28.0806	46.548	0.001851	25146.3	3.965961	177.414	109.088	1.117147	0.044954	0.044535	109.179	25146.3	0.041698	0.068489	1594.09	87788
1199	2.000000	1.119497	7.37677e+06	-55639.1	1105.82	-29741	0.000000	0.000000	7.124340	113.589	NaN	0.000000	0.001624	0.001683	28.0793	50.1434	0.001852	27069.2	3.398684	176.336	111.739	1.119325	0.046885	0.046713	113.589	27069.2	0.043738	0.074046	1534.03	90886.3
1199	2.000000	1.121432	7.37677e+06	-55639.1	1105.82	-29741	0.000000	0.000000	7.126782	125.907	NaN	0.000000	0.001636	0.001696	28.0799	50.6003	0.001742	29048.1	4.442307	175.072	121.423	1.121173	0.048821	0.048561	125.907	29048.1	0.045570	0.079213	1589.47	94295.9
1199	2.000000	1.123461	7.37677e+06	-55639.1	1105.82	-29741	0.000000	0.000000	7.129178	134.851	NaN	0.000000	0.001614	0.001675	28.0794	54.2954	0.001829	29688.4	7.040330	172.261	133.331	1.123199	0.050849	0.050588	134.851	29688.4	0.047442	0.084672	1592.64	93216
1199	2.000000	1.125522	7.37677e+06	-55639.1	1105.82	-29741	0.000000	0.000000	7.131603	143.681	NaN	0.000000	0.001601	0.001720	28.0798	54.7867	0.001794	30537.2	4.312293	175.074	143.412	1.125209	0.052911	0.052597	143.681	30537.2	0.049382	0.090512	1587.43	92736.3
1199	2.000000	1.127490	7.37677e+06	-55639.1	1105.82	-29741	0.000000	0.000000	7.133966	153.295	NaN	0.000000	0.001581	0.001708	28.0794	57.5753	0.001876	30696.1	6.512246	172.755	153.272	1.127130	0.054878	0.054518	153.295	30696.1	0.051132	0.095945	1597.74	90540.7
1199	2.000000	1.129553	7.37677e+06	-55639.1	1105.82	-29741	0.000000	0.000000	7.136485	164.375	NaN	0.000000	0.001572	0.001674	28.0794	58.728	0.001747	33618.2	4.010262	174.124	167.005	1.129189	0.056941	0.056578	164.375	33618.2	0.053274	0.102801	1598.96	95796.4
1199	2.000000	1.131448	7.37677e+06	-55639.1	1105.82	-29741	0.000000	0.000000	7.138984	179.062	NaN	0.000000	0.001557	0.001688	28.0796	59.776	0.001792	33349.8	3.941957	174.757	174.9	1.131234	0.058836	0.058622	179.062	33349.8	0.054809	0.107855	1660.21	92778.6
1199	2.000000	1.133468	7.37677e+06	-55639.1	1105.82	-29741	0.000000	0.000000	7.141232	184.602	NaN	0.000000	0.001558	0.001704	28.0792	62.3078	0.001760	35409.8	5.459686	172.272	181.343	1.133100	0.060856	0.060488	184.602	35409.8	0.056946	0.115087	1604.02	95363.7
1199	2.000000	1.135495	7.37677e+06	-55639.1	1105.82	-29741	0.000000	0.000000	7.143655	194.239	NaN	0.000000	0.001555	0.001671	28.0807	64.7819	0.001744	37136.3	6.712290	171.519	191.191	1.135142	0.062883	0.062530	194.239	37136.3	0.058960	0.122107	1590.73	97096.1
1199	2.000000	1.137541	7.37677e+06	-55639.1	1105.82	-29741	0.000000	0.000000	7.146192	206.153	NaN	0.000000	0.001582	0.001679	28.0795	66.0856	0.001883	35086.7	5.359944	173.023	208.768	1.137149	0.064930	0.064537	206.153	35086.7	0.060523	0.127691	1614.47	89709
1199	2.000000	1.139451	7.37677e+06	-55639.1	1105.82	-29741	0.000000	0.000000	7.148466	215.012	NaN	0.000000	0.001593	0.001703	28.0795	67.3759	0.001742	38682.9	0.991080	176.008	212.136	1.139272	0.066839	0.066660	215.012	38682.9	0.062671	0.135559	1586.12	95990.5
1199	2.000000	1.141479	7.37677e+06	-55639.1	1105.82	-29741	0.000000	0.000000	7.150960	226.338	NaN	0.000000	0.001589	0.001703	28.0796	69.0901	0.001799	38395.6	6.168926	170.999	225.342	1.141130	0.068867	0.068518	226.338	38395.6	0.064446	0.142231	1591.34	93015.9
1199	2.000000	1.143410	7.37677e+06	-55639.1	1105.82	-29741	0.000000	0.000000	7.153559	242.582	NaN	0.000000	0.001594	0.001709	28.0793	70.8516	0.001872	37841.5	0.482274	176.746	238.669	1.143177	0.070798	0.070565	242.582	37841.5	0.065990	0.148160	1637.29	89820.6
1199	2.000000	1.145489	7.37677e+06	-55639.1	1105.82	-29741	0.000000	0.000000	7.156330	259.408	NaN	0.000000	0.001591	0.001690	28.0798	72.8409	0.001739	41886.3	6.382113	171.919	257.791	1.145024	0.072877	0.072412	259.408	41886.3	0.068232	0.156971	1652.59	96590.8
1199	2.000000	1.147489	7.37677e+06	-55639.1	1105.82	-29741	0.000000	0.000000	7.158459	262.535	NaN	0.000000	0.001591	0.001729	28.0794	75.0034	0.001792	41846.5	2.929334	173.464	261.536	1.147254	0.074877	0.074642	262.535	41846.5	0.070172	0.164789	1593.16	94182.3
1199	2.000000	1.149405	7.37677e+06	-55639.1	1105.82	-29741	0.000000	0.000000	7.161117	280.563	NaN	0.000000	0.001610	0.001721	28.0797	77.6828	0.001787	43476.6	5.039246	171.89	275.666	1.149033	0.076794	0.076421	280.563	43476.6	0.071954	0.172126	1629.99	95742.8
1199	2.000000	1.151457	7.37677e+06	-55639.1	1105.82	-29741	0.000000	0.000000	7.163713	293.798	NaN	0.000000	0.001563	0.001727	28.0794	78.9916	0.001843	42856.3	5.155306	171.954	293.302	1.151040	0.078845	0.078428	293.798	42856.3	0.073704	0.179479	1636.95	92423.2
1199	2.000000	1.153482	7.37677e+06	-55639.1	1105.82	-29741	0.000000	0.000000	7.166231	305.785	NaN	0.000000	0.001564	0.001736	28.0803	80.2695	0.001824	43998.6	3.457176	173.072	304.349	1.153154	0.080870	0.080542	305.785	43998.6	0.075657	0.187860	1627.73	92745.9
1199	2.000000	1.155437	7.37677e+06	-55639.1	1105.82	-29741	0.000000	0.000000	7.168680	317.785	NaN	0.000000	0.001558	0.001758	28.0809	82.416	0.001751	47069.1	2.565807	173.4	315.293	1.155190	0.082826	0.082578	317.785	47069.1	0.077762	0.197088	1612.4	96867.7
1199	2.000000	1.157503	7.37677e+06	-55639.1	1105.82	-29741	0.000000	0.000000	7.171227	329.468	NaN	0.000000	0.001618	0.001727	28.0806	83.3726	0.001769	47128.5	2.199152	173.769	329.189	1.157159	0.084892	0.084548	329.468	47128.5	0.079649	0.205537	1602.96	94975.5
1199	2.000000	1.159421	7.37677e+06	-55639.1	1105.82	-29741	0.000000	0.000000	7.173761	344.458	NaN	0.000000	0.001612	0.001721	28.0809	87.6242	0.001778	49292.8	6.801046	168.222	341.113	1.159295	0.086809	0.086683	344.458	49292.8	0.081568	0.214304	1607.33	97284.1
1199	2.000000	1.161466	7.37677e+06	-55639.1	1105.82	-29741	0.000000	0.000000	7.176548	362.47	NaN	0.000000	0.001571	0.001674	28.0808	87.636	0.001764	49684.8	2.786850	173.194	363.348	1.161083	0.088855	0.088471	362.47	49684.8	0.083383	0.222749	1627.26	96180.9
1199	2.000000	1.163310	7.37677e+06	-55639.1	1105.82	-29741	0.000000	0.000000	7.178783	371.99	NaN	0.000000	0.001595	0.001677	28.0806	90.73	0.001833	49489.1	6.434249	168.907	363.622	1.163126	0.090698	0.090514	371.99	49489.1	0.085061	0.230693	1612.49	94138.2
1199	2.000000	1.165605	7.37677e+06	-55639.1	1105.82	-29741	0.000000	0.000000	7.181839	390.476	NaN	0.000000	0.001608	0.001714	28.0809	92.0864	0.001784	51627.8	7.898302	169.31	395.647	1.165031	0.092994	0.092419	390.476	51627.8	0.087321	0.241599	1616.22	95964.2
1199	2.000000	1.167389	7.37677e+06	-55639.1	1105.82	-29741	0.000000	0.000000	7.184051	400.906	NaN	0.000000	0.001600	0.001732	28.0804	93.7887	0.001825	51386.1	6.907149	168.179	398.523	1.167153	0.094777	0.094541	400.906	51386.1	0.088926	0.249484	1606.94	93993.5
1199	2.000000	1.169512	7.37677e+06	-55639.1	1105.82	-29741	0.000000	0.000000	7.186757	415.072	NaN	0.000000	0.001602	0.001727	28.0808	95.9673	0.001764	54414.6	5.357781	170.044	417.001	1.169068	0.096901	0.096457	415.072	54414.6	0.091180	0.260761	1591.77	97357.1
1199	2.000000	1.171513	7.37677e+06	-55639.1	1105.82	-29741	0.000000	0.000000	7.189621	436.069	NaN	0.000000	0.001584	0.001693	28.0806	97.3801	0.001830	53201.4	10.6412	165.764	437.469	1.170906	0.098901	0.098294	436.069	53201.4	0.092753	0.268771	1622.45	93757.2
1199	2.000000	1.173369	7.37677e+06	-55639.1	1105.82	-29741	0.000000	0.000000	7.191947	447.47	NaN	0.000000	0.001568	0.001716	28.0808	99.056	0.001790	55326.7	2.679314	172.624	443.25	1.172976	0.100758	0.100364	447.47	55326.7	0.094692	0.278794	1605.02	95733.9
1199	2.000000	1.175422	7.37677e+06	-55639.1	1105.82	-29741	0.000000	0.000000	7.194584	461.67	NaN	0.000000	0.001565	0.001723	28.0807	101.871	0.001864	54666.1	6.091868	169.698	457.246	1.175057	0.102811	0.102445	461.67	54666.1	0.096477	0.288175	1602.05	93038.5
1199	2.000000	1.176958	7.37677e+06	-55639.1	1105.82	-29741	0.000000	0.000000	7.196472	470.228	NaN	0.000000	0.001608	0.001714	28.0807	102.813	0.001909	53869.2	2.357532	-7.219967	468.268	1.176620	0.104346	0.104009	470.228	53869.2	0.097799	0.295221	1592.8	90581.6