File: remote_trans/data/nanoindenter/0828-1/data/Data_2025-08-06,11h17m57s/2025-07-22_16-23-58_1_569.txt
2025-07-22, 16:23:58, 1
Index	Phase	Displacement	Time	Pos X	Pos Y	Pos Z	Rot A	Rot B	Piezo Z	Force A	Force B	Gripper	Voltage A	Voltage B	Temperature	Amplitude force	Amplitude pos	Stiffness	Phase shift	Phase excitation	Force A raw	Displacement raw	HMax	HMax raw	Real Force	Real Stiffness	Contact Depth	Area	Hardness	Reduced Mod.
[#]	[#]	[um]	[s]	[um]	[um]	[um]	[m°]	[m°]	[um]	[uN]	[uN]	[V]	[V]	[V]	[°C]	[uN]	[um]	[N/m]	[°]	[°]	[uN]	[um]	[um]	[um]	[uN]	[N/m]	[um]	[um^2]	[MPa]	[MPa]
569	1.000000	0.001924	7.37061e+06	-48639.1	1005.82	-29761.6	0.000000	0.000000	6.002729	-0.018010	NaN	0.000000	0.001552	0.001837	28.0841	0.074123	0.000990	74.838	-94.239	176.003	-0.035944	0.000690	-1.159213	-1.160447	-0.018010	74.838	-1.159032	-3.103833E+15	5.802390E-18	NaN
569	1.000000	0.011979	7.37061e+06	-48639.1	1005.82	-29761.6	0.000000	0.000000	6.012784	-0.004631	NaN	0.000000	0.001615	0.001830	28.0838	0.071457	0.001201	59.4849	92.9195	-1.586251	-0.027451	0.010558	-1.149158	-1.150579	-0.004631	59.4849	-1.149100	-2.284296E+15	2.027106E-18	NaN
569	1.000000	0.021883	7.37061e+06	-48639.1	1005.82	-29761.6	0.000000	0.000000	6.022686	-0.054782	NaN	0.000000	0.001635	0.001822	28.0838	0.080934	0.001738	46.5792	-164.483	175.079	-0.099942	0.020557	-1.139254	-1.140580	-0.054782	46.5792	-1.138372	-1.640231E+15	3.339892E-17	NaN
569	1.000000	0.031878	7.37061e+06	-48639.1	1005.82	-29761.6	0.000000	0.000000	6.032685	0.033278	NaN	0.000000	0.001623	0.001767	28.0835	0.056390	0.001791	31.4783	-23.2395	-1.962013	0.014544	0.030546	-1.129259	-1.130591	0.033278	31.4783	-1.130052	-1.268587E+15	-2.623218E-17	NaN
569	1.000000	0.041905	7.37061e+06	-48639.1	1005.82	-29761.6	0.000000	0.000000	6.042712	0.041230	NaN	0.000000	0.001617	0.001778	28.0838	0.131978	0.001949	67.726	31.2862	177.254	-0.004149	0.040560	-1.119232	-1.120577	0.041230	67.726	-1.119689	-9.210732E+14	-4.476254E-17	NaN
569	1.000000	0.051886	7.37061e+06	-48639.1	1005.82	-29761.6	0.000000	0.000000	6.052691	-0.013089	NaN	0.000000	0.001632	0.001802	28.0826	0.093620	0.001845	50.737	57.1439	-3.951255	-0.018393	0.050512	-1.109251	-1.110625	-0.013089	50.737	-1.109057	-6.631834E+14	1.973658E-17	NaN
569	1.000000	0.061886	7.37061e+06	-48639.1	1005.82	-29761.6	0.000000	0.000000	6.062691	-0.008536	NaN	0.000000	0.001620	0.001811	28.0827	0.080474	0.002090	38.4969	-128.422	-178.701	-0.017990	0.060541	-1.099251	-1.100596	-0.008536	38.4969	-1.099084	-4.872782E+14	1.751720E-17	NaN
569	1.000000	0.071903	7.37061e+06	-48639.1	1005.82	-29761.6	0.000000	0.000000	6.072710	0.037938	NaN	0.000000	0.001638	0.001859	28.0823	0.111439	0.001884	59.1464	-165.851	-5.298048	0.081291	0.070537	-1.089234	-1.090600	0.037938	59.1464	-1.089715	-3.647407E+14	-1.040141E-16	NaN
569	1.000000	0.081881	7.37061e+06	-48639.1	1005.82	-29761.6	0.000000	0.000000	6.082685	-0.032093	NaN	0.000000	0.001636	0.001808	28.0824	0.049816	0.002095	23.7818	66.8238	-179.253	-0.007847	0.080570	-1.079256	-1.080567	-0.032093	23.7818	-1.078244	-2.558193E+14	1.254526E-16	NaN
569	1.000000	0.091879	7.37061e+06	-48639.1	1005.82	-29761.6	0.000000	0.000000	6.092683	-0.046830	NaN	0.000000	0.001576	0.001772	28.0824	0.073106	0.001992	36.7085	172.384	-2.953639	-0.122604	0.090559	-1.069258	-1.070578	-0.046830	36.7085	-1.068301	-1.880890E+14	2.489804E-16	NaN
569	1.000000	0.101911	7.37061e+06	-48639.1	1005.82	-29761.6	0.000000	0.000000	6.102715	-0.032457	NaN	0.000000	0.001641	0.001807	28.0824	0.087096	0.001861	46.8031	75.1177	177.095	-0.088109	0.100554	-1.059226	-1.060583	-0.032457	46.8031	-1.058705	-1.397732E+14	2.322154E-16	NaN
569	1.000000	0.111897	7.37061e+06	-48639.1	1005.82	-29761.6	0.000000	0.000000	6.112702	0.006248	NaN	0.000000	0.001627	0.001804	28.0823	0.057491	0.002068	27.8002	-82.5503	-1.586381	0.004751	0.110553	-1.049240	-1.050584	0.006248	27.8002	-1.049409	-1.048258E+14	-5.960825E-17	NaN
569	1.000000	0.121895	7.37061e+06	-48639.1	1005.82	-29761.6	0.000000	0.000000	6.122702	0.060111	NaN	0.000000	0.001577	0.001807	28.0823	0.097824	0.002004	48.8064	-16.0659	176.618	0.038318	0.120608	-1.039242	-1.040529	0.060111	48.8064	-1.040166	-7.874127E+13	-7.633981E-16	NaN
569	1.000000	0.131910	7.37061e+06	-48639.1	1005.82	-29761.6	0.000000	0.000000	6.132717	0.019934	NaN	0.000000	0.001572	0.001818	28.0823	0.134755	0.001911	70.5133	-7.634140	-1.970599	0.009859	0.130545	-1.029227	-1.030592	0.019934	70.5133	-1.029439	-5.648446E+13	-3.529164E-16	NaN
569	1.000000	0.141923	7.37061e+06	-48639.1	1005.82	-29761.6	0.000000	0.000000	6.142733	0.103127	NaN	0.000000	0.001572	0.001845	28.0826	0.034108	0.002079	16.4031	-62.6251	178.249	0.011650	0.140543	-1.019214	-1.020594	0.103127	16.4031	-1.023929	-4.762323E+13	-2.165482E-15	NaN
569	1.000000	0.151912	7.37061e+06	-48639.1	1005.82	-29761.6	0.000000	0.000000	6.152718	0.011171	NaN	0.000000	0.001564	0.001886	28.0825	0.058050	0.001853	31.3203	-62.8208	0.058332	-0.052151	0.150551	-1.009225	-1.010586	0.011171	31.3203	-1.009492	-3.044738E+13	-3.668980E-16	NaN
569	1.000000	0.161922	7.37061e+06	-48639.1	1005.82	-29761.6	0.000000	0.000000	6.162728	0.015847	NaN	0.000000	0.001552	0.001884	28.0822	0.223443	0.002179	102.532	127.968	174.857	0.028258	0.160653	-0.999215	-1.000484	0.015847	102.532	-0.999331	-2.222078E+13	-7.131814E-16	NaN
569	1.000000	0.171907	7.37061e+06	-48639.1	1005.82	-29761.6	0.000000	0.000000	6.172711	-0.046456	NaN	0.000000	0.001538	0.001844	28.0825	0.151597	0.001957	77.4783	-156.298	2.061681	-0.002418	0.170581	-0.989230	-0.990556	-0.046456	77.4783	-0.988780	-1.602059E+13	2.899783E-15	NaN
569	1.000000	0.181942	7.37061e+06	-48639.1	1005.82	-29761.6	0.000000	0.000000	6.182750	0.056452	NaN	0.000000	0.001560	0.001831	28.0822	0.066818	0.001954	34.2024	121.584	177.024	0.023410	0.180616	-0.979195	-0.980521	0.056452	34.2024	-0.980432	-1.236619E+13	-4.565006E-15	NaN
569	1.000000	0.191928	7.37061e+06	-48639.1	1005.82	-29761.6	0.000000	0.000000	6.192734	0.013703	NaN	0.000000	0.001540	0.001814	28.0832	0.151968	0.002021	75.2099	-148.588	-2.963654	0.059053	0.190576	-0.969209	-0.970561	0.013703	75.2099	-0.969345	-8.766773E+12	-1.563108E-15	NaN
569	1.000000	0.201924	7.37061e+06	-48639.1	1005.82	-29761.6	0.000000	0.000000	6.202728	-0.037066	NaN	0.000000	0.001562	0.001830	28.0833	0.013779	0.001848	7.457557	-166.482	178.094	-0.026787	0.200575	-0.959213	-0.960562	-0.037066	7.457557	-0.955485	-5.701616E+12	6.500988E-15	NaN
569	1.000000	0.211958	7.37061e+06	-48639.1	1005.82	-29761.6	0.000000	0.000000	6.212764	0.019263	NaN	0.000000	0.001584	0.001800	28.0837	0.036559	0.001995	18.3222	-53.8556	-3.764530	-0.041480	0.210588	-0.949179	-0.950549	0.019263	18.3222	-0.949967	-4.803830E+12	-4.009934E-15	NaN
569	1.000000	0.221942	7.37061e+06	-48639.1	1005.82	-29761.6	0.000000	0.000000	6.222749	0.033255	NaN	0.000000	0.001504	0.001838	28.0833	0.053699	0.001904	28.1966	63.8966	177.409	0.076573	0.220588	-0.939195	-0.940549	0.033255	28.1966	-0.940079	-3.533508E+12	-9.411211E-15	NaN
569	1.000000	0.231972	7.37061e+06	-48639.1	1005.82	-29761.6	0.000000	0.000000	6.232780	0.077478	NaN	0.000000	0.001519	0.001826	28.0836	0.062961	0.001953	32.2303	-135.775	-1.571597	0.111812	0.230586	-0.929165	-0.930551	0.077478	32.2303	-0.930968	-2.662361E+12	-2.910122E-14	NaN
569	1.000000	0.241955	7.37061e+06	-48639.1	1005.82	-29761.6	0.000000	0.000000	6.242758	-0.071175	NaN	0.000000	0.001560	0.001828	28.0834	0.089453	0.001968	45.4533	-106.191	175.736	0.015435	0.240648	-0.919182	-0.920489	-0.071175	45.4533	-0.918008	-1.779522E+12	3.999644E-14	NaN
569	1.000000	0.251967	7.37061e+06	-48639.1	1005.82	-29761.6	0.000000	0.000000	6.252770	-0.076469	NaN	0.000000	0.001555	0.001826	28.0834	0.062783	0.001991	31.537	-171.169	-2.057937	-0.090872	0.250595	-0.909170	-0.910542	-0.076469	31.537	-0.907351	-1.277558E+12	5.985541E-14	NaN
569	1.000000	0.261958	7.37061e+06	-48639.1	1005.82	-29761.6	0.000000	0.000000	6.262765	0.023824	NaN	0.000000	0.001572	0.001866	28.0834	0.054254	0.001964	27.6279	146.325	176.802	0.002836	0.260688	-0.899179	-0.900449	0.023824	27.6279	-0.899826	-1.010902E+12	-2.356670E-14	NaN
569	1.000000	0.271969	7.37061e+06	-48639.1	1005.82	-29761.6	0.000000	0.000000	6.272777	0.067124	NaN	0.000000	0.001579	0.001842	28.0835	0.083441	0.002069	40.3248	-124.528	-0.951808	6.074715E-5	0.270645	-0.889168	-0.890492	0.067124	40.3248	-0.890417	-7.543086E+11	-8.898693E-14	NaN
569	1.000000	0.281950	7.37061e+06	-48639.1	1005.82	-29761.6	0.000000	0.000000	6.282757	0.030289	NaN	0.000000	0.001577	0.001821	28.0839	0.050591	0.002121	23.8486	-76.6282	179.84	0.117839	0.280621	-0.879187	-0.880516	0.030289	23.8486	-0.880140	-5.477660E+11	-5.529469E-14	NaN
569	1.000000	0.291965	7.37061e+06	-48639.1	1005.82	-29761.6	0.000000	0.000000	6.292771	0.026388	NaN	0.000000	0.001537	0.001862	28.0836	0.046816	0.002051	22.8242	-174.392	-2.713762	0.069849	0.290634	-0.869172	-0.870503	0.026388	22.8242	-0.870039	-3.999222E+11	-6.598281E-14	NaN
569	1.000000	0.301996	7.37061e+06	-48639.1	1005.82	-29761.6	0.000000	0.000000	6.302802	0.013687	NaN	0.000000	0.001545	0.001773	28.0832	0.049715	0.001967	25.2743	-116.506	-179.294	-0.040156	0.300689	-0.859141	-0.860448	0.013687	25.2743	-0.859547	-2.883969E+11	-4.745979E-14	NaN
569	1.000000	0.312004	7.37061e+06	-48639.1	1005.82	-29761.6	0.000000	0.000000	6.312808	-0.015903	NaN	0.000000	0.001564	0.001795	28.0833	0.135522	0.001970	68.7987	37.9012	-2.910484	-0.022050	0.310622	-0.849133	-0.850515	-0.015903	68.7987	-0.848960	-2.073254E+11	7.670755E-14	NaN
569	1.000000	0.321988	7.37061e+06	-48639.1	1005.82	-29761.6	0.000000	0.000000	6.322794	0.025416	NaN	0.000000	0.001560	0.001817	28.0834	0.046946	0.002082	22.5452	-87.8506	175.459	0.070828	0.320707	-0.839149	-0.840430	0.025416	22.5452	-0.839995	-1.567554E+11	-1.621399E-13	NaN
569	1.000000	0.331961	7.37061e+06	-48639.1	1005.82	-29761.6	0.000000	0.000000	6.332764	-0.060256	NaN	0.000000	0.001552	0.001825	28.0819	0.069357	0.002216	31.3034	52.0282	-2.908565	-0.045994	0.330631	-0.829176	-0.830506	-0.060256	31.3034	-0.827732	-1.069172E+11	5.635806E-13	NaN
569	1.000000	0.342001	7.37061e+06	-48639.1	1005.82	-29761.6	0.000000	0.000000	6.342807	0.010109	NaN	0.000000	0.001571	0.001785	28.082	0.108093	0.001972	54.8228	-160.864	179.108	-0.028243	0.340696	-0.819136	-0.820441	0.010109	54.8228	-0.819274	-8.210464E+10	-1.231289E-13	NaN
569	1.000000	0.351973	7.37061e+06	-48639.1	1005.82	-29761.6	0.000000	0.000000	6.352778	-0.005012	NaN	0.000000	0.001535	0.001774	28.0821	0.080730	0.002011	40.1432	124.272	-5.147210	-0.010471	0.350656	-0.809164	-0.810481	-0.005012	40.1432	-0.809071	-5.969826E+10	8.395212E-14	NaN
569	1.000000	0.361999	7.37061e+06	-48639.1	1005.82	-29761.6	0.000000	0.000000	6.362804	-0.004857	NaN	0.000000	0.001566	0.001806	28.0819	0.111047	0.001960	56.6524	131.23	175.371	0.015184	0.360746	-0.799138	-0.800391	-0.004857	56.6524	-0.799073	-4.368031E+10	1.112026E-13	NaN
569	1.000000	0.371997	7.37061e+06	-48639.1	1005.82	-29761.6	0.000000	0.000000	6.372801	-0.013418	NaN	0.000000	0.001586	0.001785	28.0821	0.059019	0.002012	29.3329	15.4288	-5.173362	-0.022639	0.370644	-0.789140	-0.790493	-0.013418	29.3329	-0.788797	-3.167741E+10	4.235791E-13	NaN
569	1.000000	0.381989	7.37061e+06	-48639.1	1005.82	-29761.6	0.000000	0.000000	6.382793	-0.019172	NaN	0.000000	0.001522	0.001788	28.082	0.079340	0.002049	38.7227	98.5696	177.3	0.010237	0.380661	-0.779148	-0.780476	-0.019172	38.7227	-0.778777	-2.315313E+10	8.280470E-13	NaN
569	1.000000	0.392027	7.37061e+06	-48639.1	1005.82	-29761.6	0.000000	0.000000	6.392831	-0.021733	NaN	0.000000	0.001558	0.001809	28.0823	0.084867	0.002037	41.6573	-48.8172	1.900293	0.039712	0.390691	-0.769110	-0.770446	-0.021733	41.6573	-0.768719	-1.689999E+10	1.285949E-12	NaN
569	1.000000	0.402013	7.37061e+06	-48639.1	1005.82	-29761.6	0.000000	0.000000	6.402820	0.037473	NaN	0.000000	0.001570	0.001794	28.0817	0.022214	0.002005	11.0777	-150.304	175.781	-0.022423	0.400714	-0.759124	-0.760423	0.037473	11.0777	-0.761661	-1.354863E+10	-2.765821E-12	NaN
569	1.000000	0.412019	7.37061e+06	-48639.1	1005.82	-29761.6	0.000000	0.000000	6.412824	-0.019726	NaN	0.000000	0.001558	0.001818	28.0824	0.060199	0.001937	31.0821	26.3091	1.077041	-0.024292	0.410716	-0.749118	-0.750421	-0.019726	31.0821	-0.748642	-9.010150E+9	2.189342E-12	NaN
569	1.000000	0.422059	7.37061e+06	-48639.1	1005.82	-29761.6	0.000000	0.000000	6.422868	0.069571	NaN	0.000000	0.001556	0.001836	28.082	0.070992	0.002053	34.5767	-90.178	176.182	-0.026262	0.420696	-0.739078	-0.740441	0.069571	34.5767	-0.740587	-6.999179E+9	-9.939862E-12	NaN
569	1.000000	0.432048	7.37061e+06	-48639.1	1005.82	-29761.6	0.000000	0.000000	6.432854	0.005994	NaN	0.000000	0.001558	0.001802	28.0822	0.044531	0.002072	21.4921	118.718	-4.596727	-0.029651	0.430685	-0.729088	-0.730452	0.005994	21.4921	-0.729298	-4.911745E+9	-1.220416E-12	NaN
569	1.000000	0.442050	7.37061e+06	-48639.1	1005.82	-29761.6	0.000000	0.000000	6.442855	-0.019634	NaN	0.000000	0.001544	0.001780	28.0818	0.039283	0.001933	20.3218	73.9596	173.278	-0.024196	0.440719	-0.719087	-0.720418	-0.019634	20.3218	-0.718362	-3.484430E+9	5.634765E-12	NaN
569	1.000000	0.452069	7.37061e+06	-48639.1	1005.82	-29761.6	0.000000	0.000000	6.452873	-0.016006	NaN	0.000000	0.001538	0.001745	28.0821	0.071553	0.001922	37.2296	146.145	-2.950949	-0.022011	0.450698	-0.709068	-0.710439	-0.016006	37.2296	-0.708746	-2.575929E+9	6.213803E-12	NaN
569	1.000000	0.462040	7.37061e+06	-48639.1	1005.82	-29761.6	0.000000	0.000000	6.462844	-0.035001	NaN	0.000000	0.001557	0.001779	28.0834	0.079599	0.002057	38.6938	111.969	176.577	0.059576	0.460719	-0.699097	-0.700418	-0.035001	38.6938	-0.698419	-1.861797E+9	1.879937E-11	NaN
569	1.000000	0.472069	7.37061e+06	-48639.1	1005.82	-29761.6	0.000000	0.000000	6.472874	-0.012817	NaN	0.000000	0.001555	0.001793	28.0834	0.063985	0.001953	32.7648	-120.953	-3.682191	0.103344	0.470726	-0.689068	-0.690411	-0.012817	32.7648	-0.688774	-1.374564E+9	9.324514E-12	NaN
569	1.000000	0.482058	7.37061e+06	-48639.1	1005.82	-29761.6	0.000000	0.000000	6.482864	0.020127	NaN	0.000000	0.001540	0.001784	28.0834	0.062240	0.002126	29.2808	-144.051	175.545	0.108115	0.480751	-0.679079	-0.680386	0.020127	29.2808	-0.679595	-1.029593E+9	-1.954809E-11	NaN
569	1.000000	0.492043	7.37061e+06	-48639.1	1005.82	-29761.6	0.000000	0.000000	6.492846	-0.055874	NaN	0.000000	0.001565	0.001781	28.0836	0.071061	0.002008	35.3886	141.92	-2.941145	0.019603	0.490689	-0.669094	-0.670448	-0.055874	35.3886	-0.667910	-7.124938E+8	7.842033E-11	NaN
569	1.000000	0.502084	7.37061e+06	-48639.1	1005.82	-29761.6	0.000000	0.000000	6.502890	0.016743	NaN	0.000000	0.001540	0.001764	28.0837	0.150673	0.001975	76.3032	100.265	179.825	0.010487	0.500748	-0.659053	-0.660389	0.016743	76.3032	-0.659218	-5.416937E+8	-3.090844E-11	NaN
569	1.000000	0.512082	7.37062e+06	-48639.1	1005.82	-29761.6	0.000000	0.000000	6.512887	-0.010513	NaN	0.000000	0.001536	0.001821	28.0836	0.086081	0.002050	41.9952	-48.929	-1.954726	0.047574	0.510740	-0.649055	-0.650397	-0.010513	41.9952	-0.648868	-3.907619E+8	2.690352E-11	NaN
569	1.000000	0.522083	7.37062e+06	-48639.1	1005.82	-29761.6	0.000000	0.000000	6.522890	0.021795	NaN	0.000000	0.001591	0.001823	28.0836	0.026774	0.001993	13.4369	0.556517	178.861	0.000905	0.520767	-0.639054	-0.640370	0.021795	13.4369	-0.640270	-2.978481E+8	-7.317497E-11	NaN
569	1.000000	0.532087	7.37062e+06	-48639.1	1005.82	-29761.6	0.000000	0.000000	6.532892	-0.001448	NaN	0.000000	0.001573	0.001838	28.0837	0.104073	0.002023	51.4525	94.3387	-0.561860	-0.007278	0.530771	-0.629050	-0.630366	-0.001448	51.4525	-0.629029	-2.087781E+8	6.936459E-12	NaN
569	1.000000	0.542097	7.37062e+06	-48639.1	1005.82	-29761.6	0.000000	0.000000	6.542904	0.018662	NaN	0.000000	0.001561	0.001837	28.0838	0.059888	0.002076	28.8445	114.867	178.544	-0.009778	0.540846	-0.619040	-0.620291	0.018662	28.8445	-0.619525	-1.545618E+8	-1.207399E-10	NaN
569	1.000000	0.552086	7.37062e+06	-48639.1	1005.82	-29761.6	0.000000	0.000000	6.552892	0.020768	NaN	0.000000	0.001560	0.001819	28.0841	0.086875	0.002033	42.7272	179.457	-2.294606	-0.017189	0.550771	-0.609051	-0.610366	0.020768	42.7272	-0.609416	-1.122219E+8	-1.850610E-10	NaN
569	1.000000	0.562104	7.37062e+06	-48639.1	1005.82	-29761.6	0.000000	0.000000	6.562910	0.004472	NaN	0.000000	0.001533	0.001793	28.0839	0.020810	0.002133	9.757881	68.5653	172.843	0.024254	0.560860	-0.599033	-0.600277	0.004472	9.757881	-0.599377	-8.163453E+7	-5.477669E-11	NaN
569	1.000000	0.572086	7.37062e+06	-48639.1	1005.82	-29761.6	0.000000	0.000000	6.572891	-0.006105	NaN	0.000000	0.001544	0.001826	28.084	0.034432	0.002036	16.9157	116.287	-1.340262	-0.045482	0.570716	-0.589051	-0.590421	-0.006105	16.9157	-0.588780	-5.832428E+7	1.046768E-10	NaN
569	1.000000	0.582098	7.37062e+06	-48639.1	1005.82	-29761.6	0.000000	0.000000	6.582904	0.017277	NaN	0.000000	0.001521	0.001798	28.0835	0.055241	0.002103	26.263	-14.2068	177.389	0.024534	0.580779	-0.579039	-0.580358	0.017277	26.263	-0.579533	-4.347879E+7	-3.973712E-10	NaN
569	1.000000	0.592099	7.37062e+06	-48639.1	1005.82	-29761.6	0.000000	0.000000	6.592906	0.036392	NaN	0.000000	0.001564	0.001802	28.0837	0.059867	0.002074	28.8708	61.3938	-5.902540	0.008316	0.590765	-0.569038	-0.570372	0.036392	28.8708	-0.569984	-3.209266E+7	-1.133968E-9	NaN
569	1.000000	0.602113	7.37062e+06	-48639.1	1005.82	-29761.6	0.000000	0.000000	6.602921	0.044883	NaN	0.000000	0.001553	0.001804	28.0825	0.043830	0.001914	22.898	94.5662	179.352	0.005248	0.600740	-0.559024	-0.560397	0.044883	22.898	-0.560494	-2.372503E+7	-1.891805E-9	NaN
569	1.000000	0.612117	7.37062e+06	-48639.1	1005.82	-29761.6	0.000000	0.000000	6.612921	-0.029633	NaN	0.000000	0.001570	0.001794	28.0823	0.042135	0.002031	20.7414	-110.033	-2.923458	0.048155	0.610758	-0.549020	-0.550379	-0.029633	20.7414	-0.547948	-1.590509E+7	1.863087E-9	NaN
569	1.000000	0.622112	7.37062e+06	-48639.1	1005.82	-29761.6	0.000000	0.000000	6.622919	0.019171	NaN	0.000000	0.001614	0.001780	28.0822	0.018297	0.001915	9.552599	140.519	176.297	-0.029121	0.620841	-0.539025	-0.540296	0.019171	9.552599	-0.540530	-1.255177E+7	-1.527352E-9	NaN
569	1.000000	0.632138	7.37062e+06	-48639.1	1005.82	-29761.6	0.000000	0.000000	6.632943	0.001266	NaN	0.000000	0.001638	0.001815	28.0823	0.073787	0.002036	36.2436	106.43	-3.366433	0.008881	0.630784	-0.528999	-0.530353	0.001266	36.2436	-0.529026	-8.69043e+06	-1.457272E-10	NaN
569	1.000000	0.642118	7.37062e+06	-48639.1	1005.82	-29761.6	0.000000	0.000000	6.642923	-0.007572	NaN	0.000000	0.001617	0.001762	28.0825	0.091191	0.001986	45.9068	59.6519	-179.314	0.019015	0.640800	-0.519019	-0.520337	-0.007572	45.9068	-0.518895	-6.28389e+06	1.204938E-9	NaN
569	1.000000	0.652124	7.37062e+06	-48639.1	1005.82	-29761.6	0.000000	0.000000	6.652930	0.013982	NaN	0.000000	0.001531	0.001800	28.0822	0.009404	0.001980	4.750203	-138.756	-1.189900	-0.023682	0.650740	-0.509013	-0.510397	0.013982	4.750203	-0.511221	-4.91383e+06	-2.845526E-9	NaN
569	1.000000	0.662124	7.37062e+06	-48639.1	1005.82	-29761.6	0.000000	0.000000	6.662930	0.011451	NaN	0.000000	0.001537	0.001827	28.0827	0.046622	0.002011	23.1794	-102.028	176.333	0.093998	0.660819	-0.499013	-0.500318	0.011451	23.1794	-0.499383	-3.36055e+06	-3.407600E-9	NaN
569	1.000000	0.672112	7.37062e+06	-48639.1	1005.82	-29761.6	0.000000	0.000000	6.672919	0.032385	NaN	0.000000	0.001562	0.001835	28.0826	0.107198	0.001985	53.9925	-169.798	-5.969136	0.060082	0.670794	-0.489025	-0.490343	0.032385	53.9925	-0.489475	-2.44375e+06	-1.325229E-8	NaN
569	1.000000	0.682133	7.37062e+06	-48639.1	1005.82	-29761.6	0.000000	0.000000	6.682938	0.005763	NaN	0.000000	0.001545	0.001844	28.0826	0.093352	0.001950	47.867	-151.407	176.785	-0.009134	0.680833	-0.479004	-0.480304	0.005763	47.867	-0.479094	-1.74924e+06	-3.294441E-9	NaN
569	1.000000	0.692140	7.37062e+06	-48639.1	1005.82	-29761.6	0.000000	0.000000	6.692947	0.035346	NaN	0.000000	0.001540	0.001842	28.082	0.071429	0.001935	36.9117	5.029707	-0.790267	0.075842	0.690759	-0.468997	-0.470378	0.035346	36.9117	-0.469715	-1.29245e+06	-2.734776E-8	NaN
569	1.000000	0.702141	7.37062e+06	-48639.1	1005.82	-29761.6	0.000000	0.000000	6.702947	0.008325	NaN	0.000000	0.001541	0.001821	28.0821	0.076584	0.001999	38.3137	-89.9536	178.688	-0.013810	0.700780	-0.458996	-0.460357	0.008325	38.3137	-0.459159	-918751	-9.061402E-9	NaN
569	1.000000	0.712146	7.37062e+06	-48639.1	1005.82	-29761.6	0.000000	0.000000	6.712950	-0.029714	NaN	0.000000	0.001535	0.001798	28.0822	0.103007	0.002061	49.9752	-30.8659	-1.654052	-0.008211	0.710796	-0.448991	-0.450341	-0.029714	49.9752	-0.448545	-651405	4.561483E-8	NaN
569	1.000000	0.722185	7.37062e+06	-48639.1	1005.82	-29761.6	0.000000	0.000000	6.722990	-0.021130	NaN	0.000000	0.001551	0.001788	28.0824	0.019858	0.001992	9.970974	69.1362	177.492	-0.003318	0.720836	-0.438952	-0.440301	-0.021130	9.970974	-0.437363	-453032	4.664050E-8	NaN
569	1.000000	0.732152	7.37062e+06	-48639.1	1005.82	-29761.6	0.000000	0.000000	6.732961	0.097024	NaN	0.000000	0.001535	0.001810	28.0824	0.044645	0.001908	23.4019	-143.149	-5.277929	0.034092	0.730793	-0.428985	-0.430344	0.097024	23.4019	-0.432094	-381667	-2.542101E-7	NaN
569	1.000000	0.742146	7.37062e+06	-48639.1	1005.82	-29761.6	0.000000	0.000000	6.742953	0.060335	NaN	0.000000	0.001569	0.001780	28.0836	0.039127	0.001870	20.9245	112.508	178.369	0.071837	0.740843	-0.418991	-0.420294	0.060335	20.9245	-0.421154	-267164	-2.258334E-7	NaN
569	1.000000	0.752202	7.37062e+06	-48639.1	1005.82	-29761.6	0.000000	0.000000	6.753010	0.082394	NaN	0.000000	0.001604	0.001796	28.0834	0.123952	0.001800	68.8433	131.93	-1.507427	0.093190	0.750856	-0.408935	-0.410281	0.082394	68.8433	-0.409833	-184512	-4.465525E-7	NaN
569	1.000000	0.762161	7.37062e+06	-48639.1	1005.82	-29761.6	0.000000	0.000000	6.762966	0.002339	NaN	0.000000	0.001580	0.001793	28.083	0.067497	0.002069	32.6238	-103.95	176.859	0.060496	0.760874	-0.398976	-0.400263	0.002339	32.6238	-0.399030	-129467	-1.806833E-8	NaN
569	1.000000	0.772190	7.37062e+06	-48639.1	1005.82	-29761.6	0.000000	0.000000	6.772994	-0.030558	NaN	0.000000	0.001546	0.001760	28.0832	0.045679	0.002078	21.9868	130.706	-4.506369	0.027789	0.770798	-0.388947	-0.390339	-0.030558	21.9868	-0.387905	-89781.9	3.403586E-7	NaN
569	1.000000	0.782176	7.37062e+06	-48639.1	1005.82	-29761.6	0.000000	0.000000	6.782980	-0.037870	NaN	0.000000	0.001569	0.001812	28.0833	0.086044	0.001992	43.1899	96.6747	176.794	-0.101995	0.780863	-0.378961	-0.380274	-0.037870	43.1899	-0.378303	-65392.5	5.791118E-7	NaN
569	1.000000	0.792159	7.37062e+06	-48639.1	1005.82	-29761.6	0.000000	0.000000	6.792965	0.012192	NaN	0.000000	0.001546	0.001809	28.0834	0.067504	0.002104	32.08	-60.813	-4.604496	0.066895	0.790816	-0.368978	-0.370321	0.012192	32.08	-0.369263	-48475	-2.515165E-7	NaN
569	1.000000	0.802192	7.37062e+06	-48639.1	1005.82	-29761.6	0.000000	0.000000	6.802998	0.016974	NaN	0.000000	0.001512	0.001829	28.0831	0.026187	0.001958	13.372	23.8041	175.169	0.077583	0.800872	-0.358945	-0.360265	0.016974	13.372	-0.359897	-35510.8	-4.779859E-7	NaN
569	1.000000	0.812165	7.37062e+06	-48639.1	1005.82	-29761.6	0.000000	0.000000	6.812972	0.040785	NaN	0.000000	0.001549	0.001820	28.0826	0.159584	0.002021	78.9483	-171.574	-2.149352	0.046511	0.810824	-0.348972	-0.350313	0.040785	78.9483	-0.349359	-24986.3	-1.632309E-6	NaN
569	1.000000	0.822201	7.37062e+06	-48639.1	1005.82	-29761.6	0.000000	0.000000	6.823009	0.059781	NaN	0.000000	0.001523	0.001827	28.0837	0.083584	0.001900	43.9944	-97.5705	177.087	0.088598	0.820866	-0.338936	-0.340271	0.059781	43.9944	-0.339955	-18234.9	-3.278375E-6	NaN
569	1.000000	0.832182	7.37062e+06	-48639.1	1005.82	-29761.6	0.000000	0.000000	6.832992	0.107150	NaN	0.000000	0.001543	0.001841	28.0832	0.045229	0.002094	21.6033	83.0353	0.718187	0.124656	0.830950	-0.328955	-0.330187	0.107150	21.6033	-0.332674	-14275.6	-7.505861E-6	NaN
569	1.000000	0.842219	7.37062e+06	-48639.1	1005.82	-29761.6	0.000000	0.000000	6.843023	-0.037869	NaN	0.000000	0.001558	0.001845	28.0836	0.061273	0.001939	31.5955	-170.162	177.753	0.005758	0.840850	-0.318918	-0.320287	-0.037869	31.5955	-0.318019	-8699.04	4.353181E-6	NaN
569	1.000000	0.852213	7.37062e+06	-48639.1	1005.82	-29761.6	0.000000	0.000000	6.853018	-0.021556	NaN	0.000000	0.001576	0.001851	28.0833	0.089021	0.001865	47.7359	28.0031	-2.420189	0.022364	0.850855	-0.308924	-0.310282	-0.021556	47.7359	-0.308585	-6311.15	3.415614E-6	NaN
569	1.000000	0.862210	7.37062e+06	-48639.1	1005.82	-29761.6	0.000000	0.000000	6.863012	-0.066903	NaN	0.000000	0.001582	0.001812	28.0835	0.070299	0.001877	37.4519	146.87	178.399	-0.068130	0.860841	-0.298927	-0.300296	-0.066903	37.4519	-0.297587	-4332.06	1.544371E-5	NaN
569	1.000000	0.872250	7.37062e+06	-48639.1	1005.82	-29761.6	0.000000	0.000000	6.873055	0.003519	NaN	0.000000	0.001590	0.001833	28.0818	0.089795	0.002013	44.6092	-18.1233	-0.784688	-0.002019	0.870875	-0.288887	-0.290262	0.003519	44.6092	-0.288946	-3217.43	-1.093810E-6	NaN
569	1.000000	0.882214	7.37062e+06	-48639.1	1005.82	-29761.6	0.000000	0.000000	6.883020	0.015780	NaN	0.000000	0.001555	0.001838	28.0819	0.065059	0.002001	32.5076	97.216	175.909	0.009442	0.880914	-0.278923	-0.280223	0.015780	32.5076	-0.279287	-2302.55	-6.853376E-6	NaN
569	1.000000	0.892190	7.37062e+06	-48639.1	1005.82	-29761.6	0.000000	0.000000	6.892997	0.038606	NaN	0.000000	0.001574	0.001813	28.0818	0.046011	0.001916	24.0174	-79.299	-5.537778	-0.058525	0.890861	-0.268947	-0.270276	0.038606	24.0174	-0.270152	-1674.41	-2.305667E-5	NaN
569	1.000000	0.902211	7.37062e+06	-48639.1	1005.82	-29761.6	0.000000	0.000000	6.903017	-0.004795	NaN	0.000000	0.001592	0.001782	28.082	0.101160	0.002004	50.4832	3.340092	175.121	0.078507	0.900900	-0.258926	-0.260237	-0.004795	50.4832	-0.258854	-1125.51	4.260207E-6	NaN
569	1.000000	0.912245	7.37062e+06	-48639.1	1005.82	-29761.6	0.000000	0.000000	6.913050	-0.018746	NaN	0.000000	0.001551	0.001808	28.082	0.050058	0.001998	25.0564	127.269	-1.022992	0.019155	0.910859	-0.248892	-0.250278	-0.018746	25.0564	-0.248331	-774.696	2.419835E-5	NaN
569	1.000000	0.922230	7.37062e+06	-48639.1	1005.82	-29761.6	0.000000	0.000000	6.923035	-0.032309	NaN	0.000000	0.001543	0.001829	28.0819	0.022596	0.001972	11.46	-4.550453	173.951	-0.065065	0.920951	-0.238907	-0.240186	-0.032309	11.46	-0.236792	-512.108	6.309030E-5	NaN
569	1.000000	0.932258	7.37062e+06	-48639.1	1005.82	-29761.6	0.000000	0.000000	6.933066	0.048822	NaN	0.000000	0.001602	0.001790	28.0821	0.092360	0.002000	46.1762	-158.12	-2.979934	0.101020	0.930891	-0.228879	-0.230246	0.048822	46.1762	-0.229672	-395.667	-0.000123	NaN
569	1.000000	0.942223	7.37062e+06	-48639.1	1005.82	-29761.6	0.000000	0.000000	6.943032	0.086918	NaN	0.000000	0.001550	0.001817	28.0819	0.036881	0.002106	17.5138	138.637	176.013	0.029592	0.940933	-0.218914	-0.220204	0.086918	17.5138	-0.222636	-306.012	-0.000284	NaN
569	1.000000	0.952255	7.37062e+06	-48639.1	1005.82	-29761.6	0.000000	0.000000	6.953061	-0.007268	NaN	0.000000	0.001553	0.001807	28.082	0.091010	0.002008	45.3295	-141.603	1.063317	0.010530	0.950874	-0.208881	-0.210263	-0.007268	45.3295	-0.208761	-183.122	3.968962E-5	NaN
569	1.000000	0.962246	7.37062e+06	-48639.1	1005.82	-29761.6	0.000000	0.000000	6.963050	-0.053368	NaN	0.000000	0.001565	0.001817	28.082	0.049343	0.002089	23.623	103.073	178.184	-0.043688	0.960944	-0.198891	-0.200193	-0.053368	23.623	-0.197196	-118.446	0.000451	NaN
569	1.000000	0.972236	7.37062e+06	-48639.1	1005.82	-29761.6	0.000000	0.000000	6.973041	-0.022261	NaN	0.000000	0.001557	0.001825	28.0823	0.023736	0.002074	11.4421	-0.599020	-0.716892	0.010791	0.970924	-0.188901	-0.190213	-0.022261	11.4421	-0.187442	-81.5065	0.000273	NaN
569	1.000000	0.982280	7.37062e+06	-48639.1	1005.82	-29761.6	0.000000	0.000000	6.983087	0.031556	NaN	0.000000	0.001566	0.001805	28.082	0.044004	0.002091	21.045	82.9368	178.329	0.023164	0.980939	-0.178857	-0.180198	0.031556	21.045	-0.179981	-60.9749	-0.000518	NaN
569	1.000000	0.992277	7.37062e+06	-48639.1	1005.82	-29761.6	0.000000	0.000000	6.993083	0.029095	NaN	0.000000	0.001546	0.001848	28.0821	0.053365	0.001979	26.9652	-128.463	-3.008796	0.112057	0.990918	-0.168860	-0.170219	0.029095	26.9652	-0.169669	-40.5389	-0.000718	NaN
569	1.000000	1.002284	7.37062e+06	-48639.1	1005.82	-29761.6	0.000000	0.000000	7.003090	0.000354	NaN	0.000000	0.001593	0.001823	28.082	0.017076	0.002011	8.492923	16.3418	179.656	-0.004585	1.000944	-0.158853	-0.160193	0.000354	8.492923	-0.158884	-26.1895	-1.350218E-5	NaN
569	1.000000	1.012284	7.37062e+06	-48639.1	1005.82	-29761.6	0.000000	0.000000	7.013091	0.044265	NaN	0.000000	0.001590	0.001878	28.0832	0.145293	0.001944	74.7469	-166.771	-1.851327	-0.026955	1.010942	-0.148853	-0.150195	0.044265	74.7469	-0.149297	-17.5862	-0.002517	NaN
569	1.000000	1.022255	7.37062e+06	-48639.1	1005.82	-29761.6	0.000000	0.000000	7.023060	0.003831	NaN	0.000000	0.001562	0.001832	28.0833	0.087550	0.001958	44.7049	164.723	174.055	0.010531	1.020930	-0.138882	-0.140207	0.003831	44.7049	-0.138947	-11.3018	-0.000339	NaN
569	1.000000	1.032286	7.37062e+06	-48639.1	1005.82	-29761.6	0.000000	0.000000	7.033092	0.024738	NaN	0.000000	0.001538	0.001817	28.0834	0.041784	0.001964	21.2721	15.1612	-4.520565	0.024714	1.030940	-0.128851	-0.130197	0.024738	21.2721	-0.129723	-7.527249	-0.003286	NaN
569	1.000000	1.042277	7.37062e+06	-48639.1	1005.82	-29761.6	0.000000	0.000000	7.043080	-0.067303	NaN	0.000000	0.001523	0.001860	28.0835	0.098505	0.002017	48.8372	-160.026	177.168	0.020254	1.040955	-0.118860	-0.120182	-0.067303	48.8372	-0.117826	-4.365238	0.015418	NaN
569	1.000000	1.052274	7.37062e+06	-48639.1	1005.82	-29761.6	0.000000	0.000000	7.053079	0.005829	NaN	0.000000	0.001569	0.001817	28.0836	0.034982	0.002042	17.1329	-74.134	-3.873789	-0.044476	1.050959	-0.108863	-0.110178	0.005829	17.1329	-0.109118	-2.879029	-0.002025	NaN
569	1.000000	1.062259	7.37062e+06	-48639.1	1005.82	-29761.6	0.000000	0.000000	7.063062	-0.046854	NaN	0.000000	0.001533	0.001790	28.0834	0.070335	0.001920	36.6409	-175.794	-179.967	-0.095634	1.060973	-0.098878	-0.100164	-0.046854	36.6409	-0.097919	-1.642038	0.028534	NaN
569	1.000000	1.072280	7.37062e+06	-48639.1	1005.82	-29761.6	0.000000	0.000000	7.073081	-0.111577	NaN	0.000000	0.001551	0.001833	28.0837	0.101063	0.001849	54.6532	-9.049166	-3.902605	0.001620	1.070948	-0.088857	-0.090189	-0.111577	54.6532	-0.087326	-0.934455	0.119403	NaN
569	1.000000	1.082318	7.37062e+06	-48639.1	1005.82	-29761.6	0.000000	0.000000	7.083122	-0.033034	NaN	0.000000	0.001518	0.001803	28.0836	0.030886	0.001942	15.907	-44.4225	177.871	-0.056220	1.081021	-0.078819	-0.080116	-0.033034	15.907	-0.077262	-0.527927	0.062572	NaN
569	1.000000	1.092295	7.37062e+06	-48639.1	1005.82	-29761.6	0.000000	0.000000	7.093100	0.003012	NaN	0.000000	0.001502	0.001833	28.0837	0.066408	0.001935	34.3234	37.5484	-4.235534	0.062315	1.090927	-0.068842	-0.070210	0.003012	34.3234	-0.068908	-0.318808	-0.009447	NaN
569	1.000000	1.102286	7.37062e+06	-48639.1	1005.82	-29761.6	0.000000	0.000000	7.103089	-0.060062	NaN	0.000000	0.001479	0.001811	28.0835	0.049045	0.001976	24.8152	123.63	176.518	-0.036129	1.101005	-0.058851	-0.060132	-0.060062	24.8152	-0.057036	-0.147796	0.406385	NaN
569	1.000000	1.112301	7.37062e+06	-48639.1	1005.82	-29761.6	0.000000	0.000000	7.113105	-0.029304	NaN	0.000000	0.001535	0.001815	28.0846	0.081294	0.001997	40.7133	4.317754	-2.993570	-0.017783	1.110942	-0.048836	-0.050195	-0.029304	40.7133	-0.048296	-0.081015	0.361711	NaN
569	1.000000	1.122332	7.37062e+06	-48639.1	1005.82	-29761.6	0.000000	0.000000	7.123136	-0.046084	NaN	0.000000	0.001522	0.001810	28.0837	0.096572	0.002015	47.9269	-31.902	178.223	0.003895	1.121012	-0.038805	-0.040125	-0.046084	47.9269	-0.038084	-0.039571	1.164575	NaN
569	1.000000	1.132321	7.37062e+06	-48639.1	1005.82	-29761.7	0.000000	0.000000	7.133126	0.003754	NaN	0.000000	0.001511	0.001823	28.0837	0.024719	0.002030	12.1771	122.8	1.355338	-0.004048	1.131012	-0.028816	-0.030125	0.003754	12.1771	-0.029047	-0.021657	-0.173342	NaN
569	1.000000	1.142337	7.37062e+06	-48639.1	1005.82	-29761.7	0.000000	0.000000	7.143142	-0.031641	NaN	0.000000	0.001524	0.001798	28.0829	0.012470	0.001906	6.543467	88.5286	179.448	-0.003095	1.141068	-0.018800	-0.020069	-0.031641	6.543467	-0.015173	-0.009379	3.373472	NaN
569	1.000000	1.152349	7.37062e+06	-48639.1	1005.82	-29761.7	0.000000	0.000000	7.153157	0.040246	NaN	0.000000	0.001491	0.001802	28.0824	0.016916	0.001991	8.494146	42.6421	-1.410007	0.035157	1.150929	-0.008788	-0.010208	0.040246	8.494146	-0.012341	-0.007724	-5.210777	NaN
569	1.000000	1.162285	7.37062e+06	-48639.1	1005.82	-29761.7	0.000000	0.000000	7.163206	2.819617	NaN	0.000000	0.001545	0.001777	28.0822	3.620671	0.001759	2058.47	8.023171	175.287	1.179005	1.160981	0.001148	-0.000156	2.819617	2058.47	0.000120	9.025374E-5	31241	197964
569	2.000000	1.168496	7.37062e+06	-48639.1	1005.82	-29761.7	0.000000	0.000000	7.169812	12.4191	NaN	0.000000	0.001503	0.001803	28.0824	10.5882	0.001655	6396.71	6.688632	-11.0992	11.1993	1.168158	0.007359	0.007021	12.4191	6396.71	0.005903	0.004972	2497.6	82879.3
569	2.000000	1.170948	7.37062e+06	-48639.1	1005.82	-29761.6	0.000000	0.000000	7.172489	17.9062	NaN	0.000000	0.001555	0.001771	28.0822	13.0014	0.001561	8329.39	3.738108	169.483	17.5166	1.170622	0.009811	0.009485	17.9062	8329.39	0.008198	0.007247	2470.84	89393.7
569	2.000000	1.173434	7.37062e+06	-48639.1	1005.82	-29761.7	0.000000	0.000000	7.175200	23.3428	NaN	0.000000	0.001611	0.001818	28.0826	16.6152	0.001775	9360.35	6.395767	-12.7079	23.207	1.173058	0.012297	0.011921	23.3428	9360.35	0.010427	0.009660	2416.46	87011.8
569	2.000000	1.175914	7.37062e+06	-48639.1	1005.82	-29761.7	0.000000	0.000000	7.177961	30.2063	NaN	0.000000	0.001614	0.001798	28.0823	19.8876	0.001669	11915.2	7.549146	163.43	29.8382	1.175567	0.014777	0.014430	30.2063	11915.2	0.012875	0.012556	2405.81	97152.8
569	2.000000	1.178409	7.37062e+06	-48639.1	1005.82	-29761.7	0.000000	0.000000	7.180782	38.1354	NaN	0.000000	0.001575	0.001792	28.0825	21.8894	0.001823	12009.1	1.895814	-9.746508	35.7563	1.178013	0.017272	0.016876	38.1354	12009.1	0.014890	0.015140	2518.92	89171.3
569	2.000000	1.180885	7.37062e+06	-48639.1	1005.82	-29761.7	0.000000	0.000000	7.183568	45.6861	NaN	0.000000	0.001588	0.001830	28.0819	24.9369	0.001648	15133	6.919493	162.428	44.953	1.180503	0.019748	0.019366	45.6861	15133	0.017483	0.018741	2437.77	100996
569	2.000000	1.183378	7.37062e+06	-48639.1	1005.82	-29761.7	0.000000	0.000000	7.186441	54.904	NaN	0.000000	0.001579	0.001793	28.0827	28.0699	0.001763	15919.4	7.159798	-17.4305	54.2425	1.182977	0.022241	0.021840	54.904	15919.4	0.019654	0.022002	2495.45	98055.5
569	2.000000	1.185903	7.37062e+06	-48639.1	1005.82	-29761.7	0.000000	0.000000	7.189453	66.7468	NaN	0.000000	0.001617	0.001796	28.082	31.4675	0.001831	17188.8	6.111151	162.642	66.3483	1.185491	0.024766	0.024354	66.7468	17188.8	0.021854	0.025540	2613.44	98267.5
569	2.000000	1.188378	7.37062e+06	-48639.1	1005.82	-29761.7	0.000000	0.000000	7.192262	74.8932	NaN	0.000000	0.001530	0.001846	28.082	32.969	0.001826	18058.3	6.209940	-17.0464	72.3876	1.188008	0.027241	0.026871	74.8932	18058.3	0.024130	0.029452	2542.89	96137.5
569	2.000000	1.190892	7.37062e+06	-48639.1	1005.82	-29761.7	0.000000	0.000000	7.195244	86.2583	NaN	0.000000	0.001591	0.001814	28.0821	35.9865	0.001756	20498.7	6.104465	161.61	86.4632	1.190523	0.029755	0.029386	86.2583	20498.7	0.026599	0.033990	2537.77	101584
569	2.000000	1.193373	7.37062e+06	-48639.1	1005.82	-29761.7	0.000000	0.000000	7.198118	95.8353	NaN	0.000000	0.001559	0.001864	28.0821	40.3757	0.001837	21984.5	7.530542	-21.4808	93.903	1.193010	0.032236	0.031873	95.8353	21984.5	0.028966	0.038628	2480.96	102197
569	2.000000	1.195852	7.37062e+06	-48639.1	1005.82	-29761.7	0.000000	0.000000	7.201026	106.255	NaN	0.000000	0.001546	0.001762	28.0834	42.6008	0.001810	23531.6	5.062566	160.398	104.624	1.195575	0.034715	0.034438	106.255	23531.6	0.031329	0.043543	2440.25	103031
569	2.000000	1.198331	7.37062e+06	-48639.1	1005.82	-29761.7	0.000000	0.000000	7.204098	120.661	NaN	0.000000	0.001532	0.001792	28.0835	45.189	0.001852	24398.9	5.479284	-20.0469	117.753	1.198087	0.037194	0.036950	120.661	24398.9	0.033485	0.048277	2499.33	101455
569	2.000000	1.200805	7.37062e+06	-48639.1	1005.82	-29761.7	0.000000	0.000000	7.207326	138.988	NaN	0.000000	0.001523	0.001821	28.0836	46.751	0.001648	28368.3	4.064735	159.478	136.281	1.200465	0.039668	0.039328	138.988	28368.3	0.035994	0.054086	2569.79	111446
569	2.000000	1.203311	7.37062e+06	-48639.1	1005.82	-29761.7	0.000000	0.000000	7.210475	154.645	NaN	0.000000	0.001508	0.001786	28.0833	50.639	0.001774	28551.3	4.568218	-20.8287	151.507	1.202950	0.042174	0.041813	154.645	28551.3	0.038112	0.059240	2610.46	107174
569	2.000000	1.205821	7.37062e+06	-48639.1	1005.82	-29761.7	0.000000	0.000000	7.213506	167.32	NaN	0.000000	0.001517	0.001804	28.0834	53.5293	0.001801	29726.2	4.323850	158.665	165.321	1.205573	0.044684	0.044436	167.32	29726.2	0.040462	0.065229	2565.13	106339
569	2.000000	1.208321	7.37062e+06	-48639.1	1005.82	-29761.7	0.000000	0.000000	7.216787	186.305	NaN	0.000000	0.001520	0.001775	28.0834	54.8114	0.001683	32560.9	2.826689	-19.1321	182.192	1.207972	0.047184	0.046835	186.305	32560.9	0.042893	0.071718	2597.75	111085
569	2.000000	1.210837	7.37062e+06	-48639.1	1005.82	-29761.7	0.000000	0.000000	7.219970	202.528	NaN	0.000000	0.001515	0.001817	28.0834	57.3162	0.001703	33665.4	-0.393510	163.164	201.874	1.210456	0.049700	0.049319	202.528	33665.4	0.045188	0.078122	2592.46	110045
569	2.000000	1.213275	7.37062e+06	-48639.1	1005.82	-29761.7	0.000000	0.000000	7.223096	219.28	NaN	0.000000	0.001537	0.001805	28.0834	61.7966	0.001900	32519.6	4.088899	-21.108	215.559	1.212997	0.052138	0.051860	219.28	32519.6	0.047081	0.083604	2622.84	102755
569	2.000000	1.215741	7.37062e+06	-48639.1	1005.82	-29761.7	0.000000	0.000000	7.226411	239.928	NaN	0.000000	0.001512	0.001790	28.0835	64.2656	0.001833	35062.2	5.931825	155.57	233.689	1.215508	0.054604	0.054371	239.928	35062.2	0.049472	0.090787	2642.76	106317
569	2.000000	1.218306	7.37062e+06	-48639.1	1005.82	-29761.7	0.000000	0.000000	7.229828	260.647	NaN	0.000000	0.001533	0.001808	28.0831	65.1143	0.001721	37829.5	3.893022	-21.8613	254.763	1.217927	0.057169	0.056790	260.647	37829.5	0.052001	0.098700	2640.82	110014
569	2.000000	1.220738	7.37062e+06	-48639.1	1005.82	-29761.7	0.000000	0.000000	7.232964	277.769	NaN	0.000000	0.001539	0.001797	28.0834	67.4081	0.001747	38577.1	6.056422	155.513	271.463	1.220512	0.059601	0.059375	277.769	38577.1	0.054201	0.105838	2624.48	108338
569	2.000000	1.223240	7.37062e+06	-48639.1	1005.82	-29761.7	0.000000	0.000000	7.236537	303.814	NaN	0.000000	0.001526	0.001799	28.0835	70.1051	0.001655	42367.1	3.971826	-23.0934	298.819	1.222914	0.062103	0.061777	303.814	42367.1	0.056724	0.114325	2657.46	114481
569	2.000000	1.225746	7.37062e+06	-48639.1	1005.82	-29761.7	0.000000	0.000000	7.239867	323.853	NaN	0.000000	0.001505	0.001768	28.0829	75.2457	0.001780	42264.5	6.345667	154.306	319.65	1.225420	0.064609	0.064283	323.853	42264.5	0.058862	0.121761	2659.75	110661
569	2.000000	1.228216	7.37062e+06	-48639.1	1005.82	-29761.7	0.000000	0.000000	7.243333	348.097	NaN	0.000000	0.001511	0.001766	28.0837	75.7154	0.001775	42660.3	4.435150	-23.2693	339.251	1.227889	0.067079	0.066752	348.097	42660.3	0.060959	0.129269	2692.81	108405
569	2.000000	1.230750	7.37062e+06	-48639.1	1005.82	-29761.7	0.000000	0.000000	7.246816	371.171	NaN	0.000000	0.001552	0.001803	28.0821	78.0828	0.001703	45851.9	4.914163	155.689	366.026	1.230421	0.069613	0.069284	371.171	45851.9	0.063542	0.138813	2673.88	112439
569	2.000000	1.233236	7.37062e+06	-48639.1	1005.82	-29761.7	0.000000	0.000000	7.250050	389.343	NaN	0.000000	0.001531	0.001765	28.0821	82.7231	0.001847	44795.4	5.039101	-24.5377	383.163	1.232890	0.072099	0.071753	389.343	44795.4	0.065581	0.146576	2656.25	106899
569	2.000000	1.235770	7.37062e+06	-48639.1	1005.82	-29761.7	0.000000	0.000000	7.253771	418.23	NaN	0.000000	0.001510	0.001789	28.082	84.7676	0.001730	48994.6	6.272615	153.458	416.748	1.235435	0.074633	0.074298	418.23	48994.6	0.068230	0.156964	2664.5	112985
569	2.000000	1.238247	7.37062e+06	-48639.1	1005.82	-29761.7	0.000000	0.000000	7.257413	446.569	NaN	0.000000	0.001511	0.001777	28.0824	86.664	0.001778	48746.8	7.508452	-27.4935	440.68	1.237801	0.077110	0.076664	446.569	48746.8	0.070239	0.165062	2705.46	109621
569	2.000000	1.240783	7.37062e+06	-48639.1	1005.82	-29761.7	0.000000	0.000000	7.260708	465.015	NaN	0.000000	0.001524	0.001797	28.082	89.3869	0.001803	49573.6	4.483022	154.66	462.808	1.240501	0.079646	0.079364	465.015	49573.6	0.072611	0.174871	2659.19	108309
569	2.000000	1.243336	7.37062e+06	-48639.1	1005.82	-29761.7	0.000000	0.000000	7.264489	494.891	NaN	0.000000	0.001532	0.001800	28.082	90.9801	0.001706	53336	5.302379	-26.0755	493.302	1.242845	0.082199	0.081708	494.891	53336	0.075240	0.186054	2659.94	112973
569	2.000000	1.245752	7.37062e+06	-48639.1	1005.82	-29761.7	0.000000	0.000000	7.267810	516.911	NaN	0.000000	0.001532	0.001790	28.0822	94.9023	0.001866	50861.8	2.952913	155.803	512.667	1.245548	0.084615	0.084411	516.911	50861.8	0.076992	0.193690	2668.76	105587
569	2.000000	1.248205	7.37062e+06	-48639.1	1005.82	-29761.7	0.000000	0.000000	7.271562	548.497	NaN	0.000000	0.001590	0.001798	28.082	95.9819	0.001758	54607.6	5.306934	-25.8965	541.003	1.247873	0.087068	0.086736	548.497	54607.6	0.079534	0.205020	2675.33	110187
569	2.000000	1.250783	7.37062e+06	-48639.1	1005.82	-29761.7	0.000000	0.000000	7.275302	576.763	NaN	0.000000	0.001528	0.001759	28.0817	98.7001	0.001797	54912.1	5.819391	153.652	574.937	1.250398	0.089646	0.089261	576.763	54912.1	0.081768	0.215226	2679.81	108142
569	2.000000	1.253120	7.37062e+06	-48639.1	1005.82	-29761.7	0.000000	0.000000	7.277490	573.136	NaN	0.000000	0.001554	0.001802	28.0819	101.594	0.001840	55203.4	3.945603	-25.3285	563.127	1.252778	0.091983	0.091641	573.136	55203.4	0.084196	0.226582	2529.49	105956
569	2.000000	1.255733	7.37062e+06	-48639.1	1005.82	-29761.7	0.000000	0.000000	7.281306	602.381	NaN	0.000000	0.001575	0.001748	28.0821	104.761	0.002011	52091.4	4.955866	154.538	597.093	1.255453	0.094596	0.094316	602.381	52091.4	0.085923	0.234827	2565.22	98212.2
569	2.000000	1.258209	7.37062e+06	-48639.1	1005.82	-29761.7	0.000000	0.000000	7.285090	634.173	NaN	0.000000	0.001574	0.001783	28.0819	106.077	0.001899	55863.4	5.694181	-26.9592	626.699	1.257827	0.097072	0.096690	634.173	55863.4	0.088558	0.247668	2560.58	102557
569	2.000000	1.260707	7.37062e+06	-48639.1	1005.82	-29761.7	0.000000	0.000000	7.288707	661.408	NaN	0.000000	0.001557	0.001758	28.0822	108.152	0.001834	58969.2	5.986852	152.148	656.931	1.260368	0.099571	0.099231	661.408	58969.2	0.091158	0.260653	2537.51	105528
569	2.000000	1.263207	7.37062e+06	-48639.1	1005.82	-29761.7	0.000000	0.000000	7.292361	689.486	NaN	0.000000	0.001549	0.001770	28.083	110.476	0.001871	59050.1	3.565825	-25.2988	682.979	1.262895	0.102070	0.101758	689.486	59050.1	0.093313	0.271645	2538.19	103513
569	2.000000	1.265795	7.37062e+06	-48639.1	1005.82	-29761.7	0.000000	0.000000	7.296153	718.765	NaN	0.000000	0.001579	0.001792	28.0834	113.482	0.001872	60620.9	3.763439	154.229	717.834	1.265405	0.104658	0.104268	718.765	60620.9	0.095765	0.284420	2527.13	103852