File: remote_trans/data/nanoindenter/0828-1/data/Data_2025-08-06,11h17m57s/2025-07-22_16-23-58_1_1007.txt
2025-07-22, 16:23:58, 1
Index	Phase	Displacement	Time	Pos X	Pos Y	Pos Z	Rot A	Rot B	Piezo Z	Force A	Force B	Gripper	Voltage A	Voltage B	Temperature	Amplitude force	Amplitude pos	Stiffness	Phase shift	Phase excitation	Force A raw	Displacement raw	HMax	HMax raw	Real Force	Real Stiffness	Contact Depth	Area	Hardness	Reduced Mod.
[#]	[#]	[um]	[s]	[um]	[um]	[um]	[m°]	[m°]	[um]	[uN]	[uN]	[V]	[V]	[V]	[°C]	[uN]	[um]	[N/m]	[°]	[°]	[uN]	[um]	[um]	[um]	[uN]	[N/m]	[um]	[um^2]	[MPa]	[MPa]
1007	1.000000	0.002232	7.3749e+06	-50489.1	1055.82	-29755.3	0.000000	0.000000	6.002786	0.105962	NaN	0.000000	0.001627	0.001696	28.0845	0.089141	0.001065	83.6876	-166.499	-160.544	0.028490	0.000965	-1.107622	-1.108889	0.105962	83.6876	-1.108572	-6.533065E+14	-1.621937E-16	NaN
1007	1.000000	0.012309	7.3749e+06	-50489.1	1055.82	-29755.3	0.000000	0.000000	6.012859	0.028582	NaN	0.000000	0.001597	0.001701	28.0841	0.025977	0.001167	22.2687	-41.0964	18.9117	0.018955	0.010838	-1.097545	-1.099017	0.028582	22.2687	-1.098507	-4.786650E+14	-5.971259E-17	NaN
1007	1.000000	0.022183	7.3749e+06	-50489.1	1055.82	-29755.3	0.000000	0.000000	6.022736	0.097254	NaN	0.000000	0.001632	0.001710	28.084	0.093801	0.001827	51.3533	-138.285	-166.92	0.049491	0.020876	-1.087671	-1.088979	0.097254	51.3533	-1.089091	-3.577730E+14	-2.718308E-16	NaN
1007	1.000000	0.032206	7.3749e+06	-50489.1	1055.82	-29755.3	0.000000	0.000000	6.032757	0.039143	NaN	0.000000	0.001580	0.001717	28.0844	0.038988	0.002059	18.935	49.0809	12.7758	0.072748	0.030820	-1.077648	-1.079034	0.039143	18.935	-1.079198	-2.634827E+14	-1.485588E-16	NaN
1007	1.000000	0.042188	7.3749e+06	-50489.1	1055.82	-29755.3	0.000000	0.000000	6.042740	0.075993	NaN	0.000000	0.001632	0.001700	28.0842	0.056319	0.001992	28.2712	131.506	-164.555	0.152636	0.040874	-1.067666	-1.068980	0.075993	28.2712	-1.069682	-1.962985E+14	-3.871300E-16	NaN
1007	1.000000	0.052194	7.3749e+06	-50489.1	1055.82	-29755.3	0.000000	0.000000	6.052743	0.020252	NaN	0.000000	0.001535	0.001702	28.0843	0.115584	0.001957	59.0715	110.609	12.8516	-0.001496	0.050851	-1.057661	-1.059003	0.020252	59.0715	-1.057918	-1.364077E+14	-1.484679E-16	NaN
1007	1.000000	0.062240	7.3749e+06	-50489.1	1055.82	-29755.3	0.000000	0.000000	6.062792	0.071259	NaN	0.000000	0.001528	0.001716	28.0844	0.064926	0.002049	31.6811	124.356	-163.566	0.082377	0.060922	-1.047614	-1.048933	0.071259	31.6811	-1.049301	-1.044753E+14	-6.820697E-16	NaN
1007	1.000000	0.072230	7.3749e+06	-50489.1	1055.82	-29755.3	0.000000	0.000000	6.072777	-0.049553	NaN	0.000000	0.001558	0.001670	28.0846	0.121980	0.001932	63.1222	-98.8651	12.6569	0.004957	0.070835	-1.037624	-1.039019	-0.049553	63.1222	-1.037035	-7.146572E+13	6.933782E-16	NaN
1007	1.000000	0.082209	7.3749e+06	-50489.1	1055.82	-29755.4	0.000000	0.000000	6.082758	0.022004	NaN	0.000000	0.001577	0.001702	28.0841	0.033632	0.002058	16.344	-82.6887	-166.379	0.033433	0.080903	-1.027646	-1.028951	0.022004	16.344	-1.028655	-5.513070E+13	-3.991296E-16	NaN
1007	1.000000	0.092226	7.3749e+06	-50489.1	1055.82	-29755.4	0.000000	0.000000	6.092773	-0.036050	NaN	0.000000	0.001592	0.001676	28.0844	0.052535	0.001949	26.9592	18.0988	13.1025	0.083134	0.090868	-1.017628	-1.018986	-0.036050	26.9592	-1.016625	-3.797897E+13	9.492077E-16	NaN
1007	1.000000	0.102237	7.3749e+06	-50489.1	1055.82	-29755.4	0.000000	0.000000	6.102789	0.071129	NaN	0.000000	0.001533	0.001701	28.0833	0.058287	0.001915	30.4427	76.8116	-166.551	0.100005	0.100873	-1.007617	-1.008981	0.071129	30.4427	-1.009370	-3.033186E+13	-2.345019E-15	NaN
1007	1.000000	0.112231	7.3749e+06	-50489.1	1055.82	-29755.4	0.000000	0.000000	6.112782	0.038959	NaN	0.000000	0.001498	0.001739	28.0831	0.045033	0.002070	21.752	3.370069	14.3604	0.156106	0.110861	-0.997623	-0.998993	0.038959	21.752	-0.998966	-2.197116E+13	-1.773185E-15	NaN
1007	1.000000	0.122210	7.3749e+06	-50489.1	1055.82	-29755.4	0.000000	0.000000	6.122759	-0.005291	NaN	0.000000	0.001560	0.001704	28.0832	0.054408	0.002077	26.1913	-69.4552	-164.694	0.038673	0.120895	-0.987644	-0.988959	-0.005291	26.1913	-0.987493	-1.539370E+13	3.437438E-16	NaN
1007	1.000000	0.132200	7.3749e+06	-50489.1	1055.82	-29755.4	0.000000	0.000000	6.132751	0.043263	NaN	0.000000	0.001603	0.001722	28.0831	0.049170	0.001947	25.2509	51.893	11.8703	0.044106	0.130849	-0.977654	-0.979005	0.043263	25.2509	-0.978939	-1.180648E+13	-3.664343E-15	NaN
1007	1.000000	0.142247	7.3749e+06	-50489.1	1055.82	-29755.4	0.000000	0.000000	6.142800	0.094754	NaN	0.000000	0.001547	0.001715	28.0834	0.034096	0.002017	16.9018	42.4418	-167.034	0.089266	0.140944	-0.967607	-0.968911	0.094754	16.9018	-0.971811	-9.464001E+12	-1.001203E-14	NaN
1007	1.000000	0.152222	7.3749e+06	-50489.1	1055.82	-29755.4	0.000000	0.000000	6.152775	0.103787	NaN	0.000000	0.001572	0.001708	28.0831	0.063301	0.001967	32.1791	99.7342	16.2313	0.083974	0.150906	-0.957633	-0.958948	0.103787	32.1791	-0.960052	-6.569982E+12	-1.579722E-14	NaN
1007	1.000000	0.162214	7.3749e+06	-50489.1	1055.82	-29755.4	0.000000	0.000000	6.162766	0.079178	NaN	0.000000	0.001575	0.001758	28.0831	0.052841	0.001902	27.7773	106.246	-163.602	0.100041	0.160933	-0.947640	-0.948922	0.079178	27.7773	-0.949778	-4.775641E+12	-1.657954E-14	NaN
1007	1.000000	0.172236	7.3749e+06	-50489.1	1055.82	-29755.4	0.000000	0.000000	6.172786	0.011300	NaN	0.000000	0.001551	0.001712	28.0831	0.042795	0.001892	22.6173	111.41	12.049	-0.027039	0.170844	-0.937618	-0.939010	0.011300	22.6173	-0.937993	-3.311719E+12	-3.412269E-15	NaN
1007	1.000000	0.182257	7.3749e+06	-50489.1	1055.82	-29755.4	0.000000	0.000000	6.182811	0.131051	NaN	0.000000	0.001551	0.001643	28.083	0.094386	0.001861	50.7138	94.9095	-166.526	0.099103	0.180953	-0.927598	-0.928901	0.131051	50.7138	-0.929536	-2.546424E+12	-5.146466E-14	NaN
1007	1.000000	0.192265	7.3749e+06	-50489.1	1055.82	-29755.4	0.000000	0.000000	6.192819	0.120568	NaN	0.000000	0.001515	0.001694	28.0829	0.128828	0.002160	59.6474	-97.3217	13.2391	0.194897	0.190913	-0.917589	-0.918941	0.120568	59.6474	-0.919105	-1.841279E+12	-6.548075E-14	NaN
1007	1.000000	0.202251	7.3749e+06	-50489.1	1055.82	-29755.4	0.000000	0.000000	6.202801	0.023436	NaN	0.000000	0.001522	0.001666	28.083	0.107329	0.002085	51.479	-98.7381	-164.474	0.043267	0.200930	-0.907603	-0.908925	0.023436	51.479	-0.907944	-1.301361E+12	-1.800878E-14	NaN
1007	1.000000	0.212262	7.3749e+06	-50489.1	1055.82	-29755.4	0.000000	0.000000	6.212813	0.047459	NaN	0.000000	0.001567	0.001671	28.0834	0.089922	0.001978	45.4574	-73.7449	14.9508	0.132593	0.210941	-0.897592	-0.898913	0.047459	45.4574	-0.898375	-9.662907E+11	-4.911452E-14	NaN
1007	1.000000	0.222246	7.3749e+06	-50489.1	1055.82	-29755.4	0.000000	0.000000	6.222795	-0.012374	NaN	0.000000	0.001555	0.001673	28.0832	0.103455	0.002178	47.5012	160.683	-169.316	0.004797	0.220964	-0.887608	-0.888890	-0.012374	47.5012	-0.887412	-6.869668E+11	1.801231E-14	NaN
1007	1.000000	0.232250	7.3749e+06	-50489.1	1055.82	-29755.4	0.000000	0.000000	6.232800	0.042371	NaN	0.000000	0.001577	0.001688	28.0832	0.128965	0.001958	65.8654	-5.393364	11.5536	0.028985	0.230947	-0.877604	-0.878908	0.042371	65.8654	-0.878087	-5.138483E+11	-8.245802E-14	NaN
1007	1.000000	0.242248	7.3749e+06	-50489.1	1055.82	-29755.4	0.000000	0.000000	6.242798	0.034809	NaN	0.000000	0.001550	0.001695	28.0846	0.129637	0.002064	62.8227	16.5039	-168.283	0.082050	0.240999	-0.867606	-0.868855	0.034809	62.8227	-0.868022	-3.755592E+11	-9.268623E-14	NaN
1007	1.000000	0.252281	7.3749e+06	-50489.1	1055.82	-29755.4	0.000000	0.000000	6.252832	0.041919	NaN	0.000000	0.001579	0.001729	28.0848	0.012977	0.001932	6.716352	-22.4558	12.558	0.079645	0.250891	-0.857573	-0.858963	0.041919	6.716352	-0.862254	-3.137839E+11	-1.335927E-13	NaN
1007	1.000000	0.262290	7.3749e+06	-50489.1	1055.82	-29755.4	0.000000	0.000000	6.262845	0.141077	NaN	0.000000	0.001551	0.001694	28.0846	0.053989	0.001989	27.1503	93.1457	-164.394	0.055758	0.260941	-0.847564	-0.848913	0.141077	27.1503	-0.851461	-2.241422E+11	-6.294100E-13	NaN
1007	1.000000	0.272278	7.3749e+06	-50489.1	1055.82	-29755.4	0.000000	0.000000	6.272829	0.057130	NaN	0.000000	0.001548	0.001689	28.0846	0.066992	0.002102	31.8693	70.7523	14.4705	0.079826	0.270919	-0.837576	-0.838935	0.057130	31.8693	-0.838921	-1.515895E+11	-3.768724E-13	NaN
1007	1.000000	0.282298	7.3749e+06	-50489.1	1055.82	-29755.4	0.000000	0.000000	6.282848	0.013313	NaN	0.000000	0.001529	0.001676	28.0846	0.127187	0.001925	66.0635	-169.89	-162.856	-0.042805	0.281003	-0.827556	-0.828851	0.013313	66.0635	-0.827707	-1.068328E+11	-1.246194E-13	NaN
1007	1.000000	0.292292	7.3749e+06	-50489.1	1055.82	-29755.4	0.000000	0.000000	6.292845	0.090392	NaN	0.000000	0.001488	0.001730	28.0848	0.108732	0.001887	57.622	22.0207	12.7303	0.037949	0.290937	-0.817562	-0.818918	0.090392	57.622	-0.818738	-8.074273E+10	-1.119507E-12	NaN
1007	1.000000	0.302303	7.3749e+06	-50489.1	1055.82	-29755.4	0.000000	0.000000	6.302854	0.057208	NaN	0.000000	0.001524	0.001687	28.0845	0.086917	0.002002	43.4197	-145.003	-166.288	0.038986	0.300972	-0.807551	-0.808883	0.057208	43.4197	-0.808539	-5.871569E+10	-9.743162E-13	NaN
1007	1.000000	0.312325	7.3749e+06	-50489.1	1055.82	-29755.4	0.000000	0.000000	6.312877	0.094936	NaN	0.000000	0.001537	0.001646	28.0845	0.105507	0.002063	51.1478	-165.876	16.0949	0.058772	0.310989	-0.797530	-0.798865	0.094936	51.1478	-0.798922	-4.347347E+10	-2.183778E-12	NaN
1007	1.000000	0.322310	7.3749e+06	-50489.1	1055.82	-29755.4	0.000000	0.000000	6.322860	0.035967	NaN	0.000000	0.001534	0.001668	28.0846	0.047863	0.002001	23.9161	56.368	-166.262	0.026963	0.321055	-0.787545	-0.788799	0.035967	23.9161	-0.788673	-3.155397E+10	-1.139842E-12	NaN
1007	1.000000	0.332332	7.3749e+06	-50489.1	1055.82	-29755.4	0.000000	0.000000	6.332882	0.019384	NaN	0.000000	0.001544	0.001712	28.0844	0.078130	0.001915	40.8071	168.301	12.737	0.050331	0.330963	-0.777522	-0.778891	0.019384	40.8071	-0.777879	-2.251135E+10	-8.610892E-13	NaN
1007	1.000000	0.342324	7.3749e+06	-50489.1	1055.82	-29755.4	0.000000	0.000000	6.342872	-0.019268	NaN	0.000000	0.001541	0.001734	28.0845	0.100802	0.002005	50.2833	20.9916	-164.38	-0.011824	0.340960	-0.767530	-0.768894	-0.019268	50.2833	-0.767243	-1.613682E+10	1.194027E-12	NaN
1007	1.000000	0.352308	7.3749e+06	-50489.1	1055.82	-29755.4	0.000000	0.000000	6.352859	0.051699	NaN	0.000000	0.001533	0.001769	28.0842	0.165732	0.001930	85.8763	-149.577	11.7455	0.045724	0.350962	-0.757546	-0.758893	0.051699	85.8763	-0.757998	-1.207989E+10	-4.279765E-12	NaN
1007	1.000000	0.362335	7.3749e+06	-50489.1	1055.82	-29755.4	0.000000	0.000000	6.362886	0.057817	NaN	0.000000	0.001558	0.001775	28.0848	0.033856	0.001985	17.0588	19.0181	-167.9	0.107177	0.361041	-0.747520	-0.748813	0.057817	17.0588	-0.750062	-9.420176E+9	-6.137571E-12	NaN
1007	1.000000	0.372320	7.3749e+06	-50489.1	1055.82	-29755.4	0.000000	0.000000	6.372869	0.014815	NaN	0.000000	0.001560	0.001752	28.0843	0.063726	0.002121	30.0485	175.063	12.5561	0.100725	0.370961	-0.737535	-0.738893	0.014815	30.0485	-0.737904	-6.434455E+9	-2.302384E-12	NaN
1007	1.000000	0.382334	7.3749e+06	-50489.1	1055.82	-29755.4	0.000000	0.000000	6.382886	0.067724	NaN	0.000000	0.001572	0.001752	28.0833	0.067669	0.002027	33.3853	-78.0554	-166.16	0.080671	0.380997	-0.727520	-0.728857	0.067724	33.3853	-0.729042	-4.872425E+9	-1.389954E-11	NaN
1007	1.000000	0.392343	7.3749e+06	-50489.1	1055.82	-29755.4	0.000000	0.000000	6.392894	0.033286	NaN	0.000000	0.001592	0.001768	28.0834	0.122574	0.002071	59.1731	54.6616	17.7957	0.144680	0.391021	-0.717511	-0.718833	0.033286	59.1731	-0.717933	-3.437789E+9	-9.682486E-12	NaN
1007	1.000000	0.402348	7.3749e+06	-50489.1	1055.82	-29755.4	0.000000	0.000000	6.402901	0.112431	NaN	0.000000	0.001553	0.001741	28.0836	0.066086	0.001993	33.1653	162.977	-164.534	0.058671	0.401021	-0.707506	-0.708833	0.112431	33.1653	-0.710049	-2.683582E+9	-4.189577E-11	NaN
1007	1.000000	0.412353	7.3749e+06	-50489.1	1055.82	-29755.4	0.000000	0.000000	6.412905	0.079491	NaN	0.000000	0.001567	0.001730	28.0833	0.041145	0.001961	20.9764	140.609	14.1852	0.071316	0.411055	-0.697501	-0.698799	0.079491	20.9764	-0.700344	-1.977981E+9	-4.018771E-11	NaN
1007	1.000000	0.422358	7.3749e+06	-50489.1	1055.82	-29755.4	0.000000	0.000000	6.422910	0.067139	NaN	0.000000	0.001587	0.001713	28.0833	0.079746	0.001898	42.0101	49.5677	-165.179	0.018496	0.421057	-0.687496	-0.688797	0.067139	42.0101	-0.688695	-1.371137E+9	-4.896618E-11	NaN
1007	1.000000	0.432350	7.3749e+06	-50489.1	1055.82	-29755.4	0.000000	0.000000	6.432899	0.000560	NaN	0.000000	0.001577	0.001710	28.0833	0.062179	0.001899	32.7406	-130.407	17.9619	-0.060210	0.431021	-0.677504	-0.678833	0.000560	32.7406	-0.677517	-9.643780E+8	-5.806709E-13	NaN
1007	1.000000	0.442366	7.3749e+06	-50489.1	1055.82	-29755.4	0.000000	0.000000	6.442919	0.095534	NaN	0.000000	0.001574	0.001706	28.0834	0.040377	0.002055	19.6457	-85.2769	-169.872	0.134387	0.441066	-0.667488	-0.668788	0.095534	19.6457	-0.671135	-7.887256E+8	-1.211247E-10	NaN
1007	1.000000	0.452366	7.3749e+06	-50489.1	1055.82	-29755.4	0.000000	0.000000	6.452916	0.030209	NaN	0.000000	0.001557	0.001767	28.0831	0.082884	0.002063	40.1827	-117.057	14.5009	0.048954	0.451039	-0.657488	-0.658815	0.030209	40.1827	-0.658052	-5.221415E+8	-5.785535E-11	NaN
1007	1.000000	0.462329	7.3749e+06	-50489.1	1055.82	-29755.4	0.000000	0.000000	6.462881	0.090727	NaN	0.000000	0.001550	0.001762	28.0833	0.032961	0.001977	16.673	176.052	-168.703	0.095903	0.461045	-0.647526	-0.648809	0.090727	16.673	-0.651607	-4.260507E+8	-2.129484E-10	NaN
1007	1.000000	0.472390	7.3749e+06	-50489.1	1055.82	-29755.4	0.000000	0.000000	6.472942	0.077837	NaN	0.000000	0.001547	0.001748	28.0835	0.072323	0.002093	34.5564	-79.0436	11.425	0.112902	0.471040	-0.637464	-0.638814	0.077837	34.5564	-0.639154	-2.875258E+8	-2.707126E-10	NaN
1007	1.000000	0.482360	7.3749e+06	-50489.1	1055.82	-29755.4	0.000000	0.000000	6.482912	0.077230	NaN	0.000000	0.001531	0.001770	28.0833	0.111283	0.002045	54.4148	-121.453	-166.739	0.067722	0.481048	-0.627494	-0.628806	0.077230	54.4148	-0.628559	-2.056981E+8	-3.754518E-10	NaN
1007	1.000000	0.492401	7.3749e+06	-50489.1	1055.82	-29755.4	0.000000	0.000000	6.492952	0.059857	NaN	0.000000	0.001547	0.001761	28.0832	0.145550	0.002043	71.2606	101.976	14.9487	0.123758	0.491066	-0.617453	-0.618788	0.059857	71.2606	-0.618083	-1.476673E+8	-4.053534E-10	NaN
1007	1.000000	0.502389	7.3749e+06	-50489.1	1055.82	-29755.4	0.000000	0.000000	6.502940	0.056248	NaN	0.000000	0.001555	0.001743	28.083	0.115825	0.002059	56.2482	-61.0006	-166.715	0.040649	0.501089	-0.607465	-0.608766	0.056248	56.2482	-0.608215	-1.080328E+8	-5.206597E-10	NaN
1007	1.000000	0.512390	7.3749e+06	-50489.1	1055.82	-29755.4	0.000000	0.000000	6.512940	0.037456	NaN	0.000000	0.001553	0.001745	28.0846	0.101593	0.001957	51.9011	-112.096	13.7464	0.075760	0.511090	-0.597465	-0.598764	0.037456	51.9011	-0.598006	-7.816178E+7	-4.792093E-10	NaN
1007	1.000000	0.522404	7.3749e+06	-50489.1	1055.82	-29755.4	0.000000	0.000000	6.522958	0.124838	NaN	0.000000	0.001607	0.001764	28.0845	0.047298	0.002019	23.4245	-171.621	-166.4	0.077685	0.521069	-0.587451	-0.588785	0.124838	23.4245	-0.591448	-6.347799E+7	-1.966629E-9	NaN
1007	1.000000	0.532414	7.3749e+06	-50489.1	1055.82	-29755.4	0.000000	0.000000	6.532964	0.028999	NaN	0.000000	0.001625	0.001756	28.0844	0.063878	0.001928	33.1351	125.949	12.9962	0.052490	0.531048	-0.577440	-0.578806	0.028999	33.1351	-0.578096	-4.153839E+7	-6.981175E-10	NaN
1007	1.000000	0.542379	7.3749e+06	-50489.1	1055.82	-29755.4	0.000000	0.000000	6.542929	0.028151	NaN	0.000000	0.001586	0.001773	28.0845	0.070049	0.001963	35.6824	21.9278	-162.751	0.004826	0.541094	-0.567475	-0.568760	0.028151	35.6824	-0.568067	-3.019376E+7	-9.323406E-10	NaN
1007	1.000000	0.552390	7.3749e+06	-50489.1	1055.82	-29755.4	0.000000	0.000000	6.552940	0.025047	NaN	0.000000	0.001594	0.001775	28.0846	0.078733	0.002084	37.7802	89.214	15.8675	0.043312	0.551021	-0.557464	-0.558834	0.025047	37.7802	-0.557961	-2.188619E+7	-1.144406E-9	NaN
1007	1.000000	0.562403	7.3749e+06	-50489.1	1055.82	-29755.4	0.000000	0.000000	6.562953	0.021033	NaN	0.000000	0.001542	0.001766	28.0843	0.067359	0.001910	35.2581	126.438	-166.834	0.079440	0.561123	-0.547451	-0.548732	0.021033	35.2581	-0.547899	-1.587992E+7	-1.324483E-9	NaN
1007	1.000000	0.572429	7.3749e+06	-50489.1	1055.82	-29755.4	0.000000	0.000000	6.572980	0.048311	NaN	0.000000	0.001547	0.001739	28.0843	0.104216	0.001968	52.9458	80.0402	12.4087	0.074186	0.571013	-0.537425	-0.538841	0.048311	52.9458	-0.538110	-1.161822E+7	-4.158221E-9	NaN
1007	1.000000	0.582385	7.3749e+06	-50489.1	1055.82	-29755.4	0.000000	0.000000	6.582934	-0.011464	NaN	0.000000	0.001508	0.001708	28.0845	0.039044	0.001885	20.7102	145.019	-163.033	0.053918	0.581085	-0.527469	-0.528769	-0.011464	20.7102	-0.527054	-8.15919e+06	1.405060E-9	NaN
1007	1.000000	0.592398	7.3749e+06	-50489.1	1055.82	-29755.4	0.000000	0.000000	6.592950	0.081341	NaN	0.000000	0.001559	0.001722	28.0842	0.099088	0.001989	49.8248	-91.2064	11.5669	0.024211	0.591057	-0.517456	-0.518797	0.081341	49.8248	-0.518680	-6.24084e+06	-1.303373E-8	NaN
1007	1.000000	0.602431	7.3749e+06	-50489.1	1055.82	-29755.4	0.000000	0.000000	6.602979	-0.019964	NaN	0.000000	0.001533	0.001739	28.0841	0.133751	0.002004	66.7537	-132.331	-166.481	0.046388	0.601092	-0.507423	-0.508762	-0.019964	66.7537	-0.507199	-4.31909e+06	4.622311E-9	NaN
1007	1.000000	0.612444	7.3749e+06	-50489.1	1055.82	-29755.4	0.000000	0.000000	6.612994	0.043493	NaN	0.000000	0.001514	0.001738	28.0841	0.029181	0.001799	16.2184	0.237095	10.2436	0.063744	0.611045	-0.497411	-0.498809	0.043493	16.2184	-0.499422	-3.36475e+06	-1.292604E-8	NaN
1007	1.000000	0.622442	7.3749e+06	-50489.1	1055.82	-29755.4	0.000000	0.000000	6.622991	0.024971	NaN	0.000000	0.001528	0.001709	28.084	0.061044	0.001956	31.2089	116.732	-166.929	0.059234	0.621099	-0.487413	-0.488755	0.024971	31.2089	-0.488013	-2.33141e+06	-1.071069E-8	NaN
1007	1.000000	0.632445	7.3749e+06	-50489.1	1055.82	-29755.4	0.000000	0.000000	6.632994	0.008406	NaN	0.000000	0.001527	0.001772	28.084	0.071628	0.001916	37.3929	-162.818	13.5807	-0.011683	0.631083	-0.477409	-0.478771	0.008406	37.3929	-0.477578	-1.66577e+06	-5.046592E-9	NaN
1007	1.000000	0.642450	7.3749e+06	-50489.1	1055.82	-29755.4	0.000000	0.000000	6.643001	0.051498	NaN	0.000000	0.001534	0.001738	28.0841	0.025982	0.002034	12.7713	17.3851	-167.394	0.072426	0.641136	-0.467404	-0.468718	0.051498	12.7713	-0.470429	-1.32257e+06	-3.893769E-8	NaN
1007	1.000000	0.652453	7.3749e+06	-50489.1	1055.82	-29755.4	0.000000	0.000000	6.653001	-0.014995	NaN	0.000000	0.001501	0.001745	28.0831	0.062591	0.002015	31.0591	-12.4354	13.5601	-0.016261	0.651113	-0.457402	-0.458742	-0.014995	31.0591	-0.457039	-857829	1.747975E-8	NaN
1007	1.000000	0.662457	7.3749e+06	-50489.1	1055.82	-29755.4	0.000000	0.000000	6.663007	0.019911	NaN	0.000000	0.001507	0.001775	28.0829	0.027689	0.001920	14.4209	34.3056	-168.43	-0.052131	0.661127	-0.447397	-0.448727	0.019911	14.4209	-0.448433	-649032	-3.067824E-8	NaN
1007	1.000000	0.672435	7.3749e+06	-50489.1	1055.82	-29755.4	0.000000	0.000000	6.672987	0.064868	NaN	0.000000	0.001527	0.001751	28.0828	0.034458	0.001973	17.4691	109.038	11.8155	0.051084	0.671058	-0.437419	-0.438796	0.064868	17.4691	-0.440204	-496867	-1.305540E-7	NaN
1007	1.000000	0.682458	7.3749e+06	-50489.1	1055.82	-29755.4	0.000000	0.000000	6.683011	0.121852	NaN	0.000000	0.001521	0.001730	28.0826	0.029407	0.002057	14.294	-26.3272	-166.967	0.116047	0.681107	-0.427397	-0.428748	0.121852	14.294	-0.433790	-403327	-3.021163E-7	NaN
1007	1.000000	0.692474	7.3749e+06	-50489.1	1055.82	-29755.4	0.000000	0.000000	6.693028	0.132362	NaN	0.000000	0.001536	0.001738	28.0826	0.054813	0.001946	28.1682	-109.775	11.4607	0.135404	0.691037	-0.417380	-0.418818	0.132362	28.1682	-0.420905	-264999	-4.994820E-7	NaN
1007	1.000000	0.702484	7.3749e+06	-50489.1	1055.82	-29755.4	0.000000	0.000000	6.703037	0.092070	NaN	0.000000	0.001517	0.001697	28.0825	0.098057	0.002029	48.3177	-163.972	-163.194	0.103758	0.701157	-0.407370	-0.408698	0.092070	48.3177	-0.408799	-178370	-5.161737E-7	NaN
1007	1.000000	0.712471	7.3749e+06	-50489.1	1055.82	-29755.4	0.000000	0.000000	6.713022	0.065837	NaN	0.000000	0.001513	0.001734	28.0825	0.080666	0.001992	40.4932	-55.4752	18.83	0.058656	0.711170	-0.397384	-0.398684	0.065837	40.4932	-0.398603	-127664	-5.157095E-7	NaN
1007	1.000000	0.722482	7.3749e+06	-50489.1	1055.82	-29755.4	0.000000	0.000000	6.723036	0.116545	NaN	0.000000	0.001536	0.001745	28.0828	0.057817	0.001929	29.9701	-111.079	-166.445	0.185872	0.721195	-0.387372	-0.388659	0.116545	29.9701	-0.390289	-97117.3	-1.200042E-6	NaN
1007	1.000000	0.732512	7.3749e+06	-50489.1	1055.82	-29755.4	0.000000	0.000000	6.733062	0.045072	NaN	0.000000	0.001535	0.001771	28.0826	0.015712	0.002073	7.580221	-72.3183	15.9881	0.040135	0.731118	-0.377343	-0.378736	0.045072	7.580221	-0.381802	-73408.2	-6.139936E-7	NaN
1007	1.000000	0.742490	7.3749e+06	-50489.1	1055.82	-29755.4	0.000000	0.000000	6.743041	0.042600	NaN	0.000000	0.001507	0.001761	28.0828	0.099659	0.002074	48.0564	132.341	-166.471	-0.029215	0.741205	-0.367364	-0.368649	0.042600	48.0564	-0.368029	-46529.5	-9.155583E-7	NaN
1007	1.000000	0.752478	7.3749e+06	-50489.1	1055.82	-29755.4	0.000000	0.000000	6.753031	0.107657	NaN	0.000000	0.001520	0.001745	28.0825	0.004377	0.002081	2.103542	-131.714	14.3582	0.084037	0.751141	-0.357376	-0.358713	0.107657	2.103542	-0.395760	-116277	-9.258621E-7	NaN
1007	1.000000	0.762464	7.3749e+06	-50489.1	1055.82	-29755.4	0.000000	0.000000	6.763015	0.071359	NaN	0.000000	0.001493	0.001769	28.0829	0.016560	0.001962	8.439644	-21.9568	-167.04	0.056053	0.761194	-0.347391	-0.348660	0.071359	8.439644	-0.353732	-28915.3	-2.467859E-6	NaN
1007	1.000000	0.772519	7.3749e+06	-50489.1	1055.82	-29755.4	0.000000	0.000000	6.773070	0.054234	NaN	0.000000	0.001497	0.001804	28.0826	0.016188	0.002002	8.084967	-117.103	16.4312	-0.044541	0.771194	-0.337335	-0.338660	0.054234	8.084967	-0.342366	-19771	-2.743094E-6	NaN
1007	1.000000	0.782498	7.3749e+06	-50489.1	1055.82	-29755.4	0.000000	0.000000	6.783051	0.093809	NaN	0.000000	0.001485	0.001799	28.0828	0.063993	0.002113	30.28	-17.3158	-163.015	0.125801	0.781152	-0.327356	-0.328702	0.093809	30.28	-0.329680	-12905	-7.269191E-6	NaN
1007	1.000000	0.792522	7.3749e+06	-50489.1	1055.82	-29755.4	0.000000	0.000000	6.793075	0.097775	NaN	0.000000	0.001488	0.001780	28.0839	0.167142	0.001870	89.3622	-97.9266	10.7578	0.008422	0.791140	-0.317332	-0.318714	0.097775	89.3622	-0.318153	-8738.49	-1.118904E-5	NaN
1007	1.000000	0.802511	7.3749e+06	-50489.1	1055.82	-29755.4	0.000000	0.000000	6.803063	0.064999	NaN	0.000000	0.001489	0.001785	28.0838	0.093767	0.001937	48.3967	-137.471	-166.144	0.049394	0.801184	-0.307343	-0.308670	0.064999	48.3967	-0.308350	-6260.81	-1.038181E-5	NaN
1007	1.000000	0.812518	7.3749e+06	-50489.1	1055.82	-29755.4	0.000000	0.000000	6.813069	0.040157	NaN	0.000000	0.001486	0.001783	28.0839	0.119217	0.001859	64.1133	29.1776	11.6447	0.060577	0.811094	-0.297336	-0.298760	0.040157	64.1133	-0.297806	-4364.66	-9.200463E-6	NaN
1007	1.000000	0.822517	7.3749e+06	-50489.1	1055.82	-29755.4	0.000000	0.000000	6.823066	0.008454	NaN	0.000000	0.001487	0.001769	28.0836	0.072923	0.002062	35.3706	63.9136	-163.324	0.015658	0.821175	-0.287337	-0.288680	0.008454	35.3706	-0.287517	-3062.42	-2.760521E-6	NaN
1007	1.000000	0.832510	7.3749e+06	-50489.1	1055.82	-29755.4	0.000000	0.000000	6.833062	0.084610	NaN	0.000000	0.001528	0.001789	28.0835	0.159341	0.001990	80.0842	-176.332	17.4008	-0.016755	0.831157	-0.277344	-0.278698	0.084610	80.0842	-0.278137	-2212.28	-3.824584E-5	NaN
1007	1.000000	0.842533	7.3749e+06	-50489.1	1055.82	-29755.4	0.000000	0.000000	6.843084	0.063497	NaN	0.000000	0.001500	0.001787	28.0837	0.111239	0.001989	55.9329	172.24	-164.962	0.116915	0.841236	-0.267322	-0.268619	0.063497	55.9329	-0.268173	-1562.26	-4.064429E-5	NaN
1007	1.000000	0.852524	7.3749e+06	-50489.1	1055.82	-29755.4	0.000000	0.000000	6.853072	-0.011011	NaN	0.000000	0.001465	0.001787	28.0836	0.116714	0.001869	62.4613	-161.125	14.2917	0.022313	0.851101	-0.257330	-0.258753	-0.011011	62.4613	-0.257198	-1061.5	1.037308E-5	NaN
1007	1.000000	0.862550	7.3749e+06	-50489.1	1055.82	-29755.4	0.000000	0.000000	6.863101	0.051829	NaN	0.000000	0.001468	0.001760	28.0837	0.050007	0.002007	24.9206	-7.555249	-167.492	0.011453	0.861207	-0.247304	-0.248647	0.051829	24.9206	-0.248864	-789.562	-6.564216E-5	NaN
1007	1.000000	0.872539	7.3749e+06	-50489.1	1055.82	-29755.4	0.000000	0.000000	6.873087	-0.023493	NaN	0.000000	0.001515	0.001780	28.0839	0.057490	0.002027	28.3675	132.346	10.0476	0.007965	0.871211	-0.237315	-0.238643	-0.023493	28.3675	-0.236694	-510.295	4.603823E-5	NaN
1007	1.000000	0.882557	7.3749e+06	-50489.1	1055.82	-29755.4	0.000000	0.000000	6.883107	0.014551	NaN	0.000000	0.001481	0.001796	28.0839	0.112391	0.001974	56.9289	39.7837	-166.305	0.033407	0.881227	-0.227297	-0.228627	0.014551	56.9289	-0.227489	-365.429	-3.981761E-5	NaN
1007	1.000000	0.892563	7.3749e+06	-50489.1	1055.82	-29755.4	0.000000	0.000000	6.893114	0.062117	NaN	0.000000	0.001527	0.001763	28.0836	0.064618	0.002024	31.9227	-43.7456	15.6121	0.053498	0.891216	-0.217292	-0.218638	0.062117	31.9227	-0.218751	-265.278	-0.000234	NaN
1007	1.000000	0.902538	7.3749e+06	-50489.1	1055.82	-29755.4	0.000000	0.000000	6.903089	0.056645	NaN	0.000000	0.001521	0.001817	28.0836	0.091801	0.002178	42.1553	-111.645	-166.602	0.066457	0.901228	-0.207316	-0.208626	0.056645	42.1553	-0.208324	-180.155	-0.000314	NaN
1007	1.000000	0.912516	7.3749e+06	-50489.1	1055.82	-29755.4	0.000000	0.000000	6.913068	0.079797	NaN	0.000000	0.001565	0.001729	28.0837	0.035123	0.001994	17.6137	19.7212	12.9407	0.086590	0.911222	-0.197339	-0.198632	0.079797	17.6137	-0.200737	-135.455	-0.000589	NaN
1007	1.000000	0.922561	7.3749e+06	-50489.1	1055.82	-29755.4	0.000000	0.000000	6.923112	0.039484	NaN	0.000000	0.001576	0.001724	28.0825	0.129795	0.001840	70.5315	40.1032	-166.265	0.093279	0.921253	-0.187293	-0.188601	0.039484	70.5315	-0.187713	-82.3652	-0.000479	NaN
1007	1.000000	0.932555	7.3749e+06	-50489.1	1055.82	-29755.4	0.000000	0.000000	6.933104	-0.004654	NaN	0.000000	0.001528	0.001777	28.0825	0.028411	0.001997	14.225	-152.163	11.7674	0.050148	0.931204	-0.177299	-0.178650	-0.004654	14.225	-0.177054	-54.3493	8.563689E-5	NaN
1007	1.000000	0.942564	7.3749e+06	-50489.1	1055.82	-29755.4	0.000000	0.000000	6.943114	0.015983	NaN	0.000000	0.001580	0.001761	28.0828	0.035080	0.002059	17.0348	12.6792	-167.533	0.031151	0.941248	-0.167290	-0.168606	0.015983	17.0348	-0.167994	-37.9053	-0.000422	NaN
1007	1.000000	0.952585	7.3749e+06	-50489.1	1055.82	-29755.4	0.000000	0.000000	6.953134	0.024050	NaN	0.000000	0.001605	0.001771	28.0826	0.071490	0.002078	34.4076	-34.9337	17.0989	-0.022235	0.951222	-0.157270	-0.158632	0.024050	34.4076	-0.157794	-25.0425	-0.000960	NaN
1007	1.000000	0.962585	7.3749e+06	-50489.1	1055.82	-29755.4	0.000000	0.000000	6.963136	0.054906	NaN	0.000000	0.001613	0.001820	28.0827	0.101583	0.001962	51.7716	68.8136	-165.377	-0.018804	0.961258	-0.147269	-0.148596	0.054906	51.7716	-0.148064	-16.6959	-0.003289	NaN
1007	1.000000	0.972563	7.3749e+06	-50489.1	1055.82	-29755.4	0.000000	0.000000	6.973113	0.045908	NaN	0.000000	0.001624	0.001767	28.0827	0.120014	0.001929	62.2078	90.1803	14.2449	0.093091	0.971239	-0.137292	-0.138615	0.045908	62.2078	-0.137845	-10.7734	-0.004261	NaN
1007	1.000000	0.982584	7.3749e+06	-50489.1	1055.82	-29755.4	0.000000	0.000000	6.983134	0.011492	NaN	0.000000	0.001610	0.001768	28.0828	0.057807	0.002037	28.3738	138.822	-163.357	0.089537	0.981292	-0.127270	-0.128562	0.011492	28.3738	-0.127574	-6.833961	-0.001682	NaN
1007	1.000000	0.992596	7.3749e+06	-50489.1	1055.82	-29755.4	0.000000	0.000000	6.993146	0.050440	NaN	0.000000	0.001625	0.001770	28.0826	0.079339	0.001991	39.8414	-19.889	15.3068	0.131484	0.991208	-0.117259	-0.118646	0.050440	39.8414	-0.118208	-4.444117	-0.011350	NaN
1007	1.000000	1.002571	7.3749e+06	-50489.1	1055.82	-29755.4	0.000000	0.000000	7.003122	0.031348	NaN	0.000000	0.001605	0.001803	28.0821	0.097020	0.001990	48.7537	-99.354	-163.653	0.008737	1.001310	-0.107283	-0.108545	0.031348	48.7537	-0.107765	-2.694613	-0.011634	NaN
1007	1.000000	1.012564	7.3749e+06	-50489.1	1055.82	-29755.4	0.000000	0.000000	7.013116	0.073828	NaN	0.000000	0.001604	0.001715	28.0826	0.066520	0.001936	34.3621	23.9219	12.4826	0.058398	1.011254	-0.097290	-0.098600	0.073828	34.3621	-0.098902	-1.727261	-0.042743	NaN
1007	1.000000	1.022606	7.3749e+06	-50489.1	1055.82	-29755.4	0.000000	0.000000	7.023158	0.075789	NaN	0.000000	0.001599	0.001721	28.0825	0.093706	0.001998	46.8903	127.781	-167.249	0.036709	1.021282	-0.087248	-0.088572	0.075789	46.8903	-0.088461	-0.994321	-0.076222	NaN
1007	1.000000	1.032587	7.3749e+06	-50489.1	1055.82	-29755.4	0.000000	0.000000	7.033135	-0.036405	NaN	0.000000	0.001583	0.001723	28.0824	0.060554	0.001989	30.4477	166.984	14.8117	0.033020	1.031258	-0.077267	-0.078596	-0.036405	30.4477	-0.076370	-0.500955	0.072672	NaN
1007	1.000000	1.042590	7.3749e+06	-50489.1	1055.82	-29755.4	0.000000	0.000000	7.043139	0.001583	NaN	0.000000	0.001610	0.001749	28.0823	0.029238	0.002114	13.8274	109.81	-165.261	-0.002355	1.041246	-0.067264	-0.068608	0.001583	13.8274	-0.067350	-0.289233	-0.005474	NaN
1007	1.000000	1.052613	7.3749e+06	-50489.1	1055.82	-29755.4	0.000000	0.000000	7.053162	-0.006231	NaN	0.000000	0.001598	0.001736	28.0827	0.055071	0.002044	26.9395	52.3191	13.7722	-0.013812	1.051254	-0.057241	-0.058601	-0.006231	26.9395	-0.057068	-0.148116	0.042068	NaN
1007	1.000000	1.062618	7.3749e+06	-50489.1	1055.82	-29755.4	0.000000	0.000000	7.063168	0.026837	NaN	0.000000	0.001627	0.001755	28.0837	0.081610	0.001883	43.3424	-160.644	-165.012	0.032884	1.061355	-0.047236	-0.048499	0.026837	43.3424	-0.047701	-0.077704	-0.345376	NaN
1007	1.000000	1.072627	7.3749e+06	-50489.1	1055.82	-29755.4	0.000000	0.000000	7.073179	0.059586	NaN	0.000000	0.001586	0.001755	28.0861	0.014215	0.002117	6.714082	-152.337	13.3082	0.047006	1.071218	-0.037227	-0.038636	0.059586	6.714082	-0.043883	-0.059406	-1.003033	NaN
1007	1.000000	1.082630	7.3749e+06	-50489.1	1055.82	-29755.4	0.000000	0.000000	7.083180	0.008105	NaN	0.000000	0.001647	0.001739	28.0839	0.068614	0.001925	35.6496	65.453	-163.818	0.006603	1.081290	-0.027224	-0.028564	0.008105	35.6496	-0.027394	-0.019525	-0.415122	NaN
1007	1.000000	1.092611	7.3749e+06	-50489.1	1055.82	-29755.4	0.000000	0.000000	7.093160	0.008330	NaN	0.000000	0.001600	0.001771	28.0842	0.096104	0.001972	48.729	-82.7905	13.1012	0.043667	1.091296	-0.017243	-0.018559	0.008330	48.729	-0.017372	-0.010750	-0.774857	NaN
1007	1.000000	1.102648	7.3749e+06	-50489.1	1055.82	-29755.4	0.000000	0.000000	7.103200	0.074778	NaN	0.000000	0.001627	0.001762	28.0838	0.057261	0.001988	28.7984	-33.7043	-165.316	0.100780	1.101345	-0.007206	-0.008509	0.074778	28.7984	-0.009154	-0.005902	-12.671	NaN
1007	1.000000	1.112595	7.3749e+06	-50489.1	1055.82	-29755.4	0.000000	0.000000	7.113236	2.245200	NaN	0.000000	0.001642	0.001714	28.0838	2.947274	0.001818	1621.22	9.953643	12.3093	1.051740	1.111267	0.002740	0.001413	2.245200	1621.22	0.001702	0.001315	1707.35	40845.9
1007	2.000000	1.119306	7.3749e+06	-50489.1	1055.82	-29755.4	0.000000	0.000000	7.120188	8.092351	NaN	0.000000	0.001615	0.001717	28.0839	9.058373	0.001662	5449.96	10.4174	-176.277	7.856888	1.118924	0.009452	0.009070	8.092351	5449.96	0.008339	0.007393	1094.62	57910.9
1007	2.000000	1.121791	7.3749e+06	-50489.1	1055.82	-29755.4	0.000000	0.000000	7.122836	12.0701	NaN	0.000000	0.001616	0.001758	28.0841	11.9068	0.001747	6816.78	9.328356	4.666116	11.7227	1.121413	0.011937	0.011559	12.0701	6816.78	0.010609	0.009866	1223.45	62703.2
1007	2.000000	1.124207	7.3749e+06	-50489.1	1055.82	-29755.4	0.000000	0.000000	7.125417	16.0858	NaN	0.000000	0.001589	0.001760	28.0838	14.3232	0.001772	8083.08	6.177201	-174.008	15.4399	1.123881	0.014353	0.014027	16.0858	8083.08	0.012860	0.012537	1283.09	65956.5
1007	2.000000	1.126735	7.3749e+06	-50489.1	1055.82	-29755.4	0.000000	0.000000	7.128135	20.7031	NaN	0.000000	0.001593	0.001732	28.0841	17.3224	0.001713	10114	5.034487	3.020564	19.8717	1.126330	0.016881	0.016476	20.7031	10114	0.015345	0.015749	1314.59	73633.1
1007	2.000000	1.129181	7.3749e+06	-50489.1	1055.82	-29755.4	0.000000	0.000000	7.130763	25.1302	NaN	0.000000	0.001609	0.001739	28.084	20.4849	0.001848	11084.6	4.743019	-175.598	23.9186	1.128865	0.019326	0.019011	25.1302	11084.6	0.017626	0.018948	1326.25	73571.2
1007	2.000000	1.131681	7.3749e+06	-50489.1	1055.82	-29755.4	0.000000	0.000000	7.133666	34.9224	NaN	0.000000	0.001563	0.001768	28.0839	21.912	0.001693	12941.4	6.233031	0.959125	32.6609	1.131312	0.021827	0.021458	34.9224	12941.4	0.019803	0.022234	1570.69	79295.3
1007	2.000000	1.134173	7.3749e+06	-50489.1	1055.82	-29755.4	0.000000	0.000000	7.136285	38.0268	NaN	0.000000	0.001597	0.001755	28.0839	24.3533	0.001690	14413.4	4.209580	-178.813	37.1929	1.133878	0.024319	0.024024	38.0268	14413.4	0.022340	0.026353	1442.96	81119.1
1007	2.000000	1.136679	7.3749e+06	-50489.1	1055.82	-29755.4	0.000000	0.000000	7.139029	43.8037	NaN	0.000000	0.001610	0.001753	28.0835	27.225	0.001767	15407	2.598195	2.883826	43.6257	1.136327	0.026825	0.026472	43.8037	15407	0.024692	0.030459	1438.14	80656.2
1007	2.000000	1.139160	7.3749e+06	-50489.1	1055.82	-29755.4	0.000000	0.000000	7.141888	52.9947	NaN	0.000000	0.001598	0.001733	28.0828	30.8801	0.001654	18674.7	3.512219	179.947	52.0233	1.138891	0.029306	0.029036	52.9947	18674.7	0.027178	0.035097	1509.97	91074.1
1007	2.000000	1.141659	7.3749e+06	-50489.1	1055.82	-29755.4	0.000000	0.000000	7.144659	59.6061	NaN	0.000000	0.001533	0.001727	28.0826	33.6153	0.001867	18001.8	6.770200	-1.606488	56.3689	1.141338	0.031805	0.031484	59.6061	18001.8	0.029322	0.039350	1514.78	82912.2
1007	2.000000	1.144161	7.3749e+06	-50489.1	1055.82	-29755.4	0.000000	0.000000	7.147635	71.1368	NaN	0.000000	0.001553	0.001770	28.0827	35.8365	0.001767	20277.8	3.890390	179.971	69.4378	1.143935	0.034306	0.034081	71.1368	20277.8	0.031675	0.044288	1606.25	88034.5
1007	2.000000	1.146661	7.3749e+06	-50489.1	1055.82	-29755.4	0.000000	0.000000	7.150435	78.4429	NaN	0.000000	0.001515	0.001747	28.0826	38.1267	0.001805	21126.3	4.234525	-0.485096	77.2054	1.146236	0.036807	0.036382	78.4429	21126.3	0.034022	0.049493	1584.93	86761
1007	2.000000	1.149154	7.3749e+06	-50489.1	1055.82	-29755.4	0.000000	0.000000	7.153336	88.3513	NaN	0.000000	0.001560	0.001693	28.0828	41.0317	0.001921	21357.4	4.747672	178.99	86.7839	1.148871	0.039300	0.039017	88.3513	21357.4	0.036197	0.054570	1619.06	83530.6
1007	2.000000	1.151681	7.3749e+06	-50489.1	1055.82	-29755.4	0.000000	0.000000	7.156384	101.021	NaN	0.000000	0.001557	0.001759	28.0824	41.4198	0.001642	25220.3	1.196362	0.707999	99.1377	1.151296	0.041826	0.041442	101.021	25220.3	0.038822	0.061020	1655.53	93279.7
1007	2.000000	1.154153	7.3749e+06	-50489.1	1055.82	-29755.4	0.000000	0.000000	7.159268	111.041	NaN	0.000000	0.001561	0.001745	28.0831	44.9643	0.001900	23670.1	8.148165	174.482	111.116	1.153841	0.044299	0.043987	111.041	23670.1	0.040780	0.066060	1680.91	84140.1
1007	2.000000	1.156582	7.3749e+06	-50489.1	1055.82	-29755.4	0.000000	0.000000	7.162246	124.384	NaN	0.000000	0.001549	0.001729	28.0828	47.5719	0.001738	27378.3	5.234136	-5.016740	118.809	1.156262	0.046728	0.046408	124.384	27378.3	0.043321	0.072891	1706.43	92649.1
1007	2.000000	1.159113	7.3749e+06	-50489.1	1055.82	-29755.4	0.000000	0.000000	7.165273	136.45	NaN	0.000000	0.001536	0.001711	28.0829	50.6831	0.001920	26403.6	4.181961	177.644	135.238	1.158803	0.049258	0.048949	136.45	26403.6	0.045382	0.078677	1734.31	86002.8
1007	2.000000	1.161671	7.3749e+06	-50489.1	1055.82	-29755.4	0.000000	0.000000	7.168287	147.526	NaN	0.000000	0.001576	0.001706	28.0829	51.4481	0.001662	30964.1	3.778166	-3.491333	146.695	1.161275	0.051817	0.051420	147.526	30964.1	0.048244	0.087061	1694.51	95878
1007	2.000000	1.164119	7.3749e+06	-50489.1	1055.82	-29755.4	0.000000	0.000000	7.171315	161.641	NaN	0.000000	0.001564	0.001718	28.0831	53.9498	0.001684	32029.2	4.079319	175.363	158.897	1.163807	0.054265	0.053953	161.641	32029.2	0.050480	0.093901	1721.39	95495.5
1007	2.000000	1.166647	7.3749e+06	-50489.1	1055.82	-29755.4	0.000000	0.000000	7.174418	175.632	NaN	0.000000	0.001563	0.001692	28.0828	57.0953	0.001652	34559.6	3.749692	-5.275858	173.446	1.166297	0.056793	0.056443	175.632	34559.6	0.052981	0.101851	1724.4	98937.2
1007	2.000000	1.169149	7.3749e+06	-50489.1	1055.82	-29755.4	0.000000	0.000000	7.177186	182.101	NaN	0.000000	0.001578	0.001755	28.0827	61.7094	0.001885	32732.3	5.159430	173.506	180.926	1.168978	0.059295	0.059124	182.101	32732.3	0.055122	0.108902	1672.16	90621.9
1007	2.000000	1.171657	7.3749e+06	-50489.1	1055.82	-29755.4	0.000000	0.000000	7.180639	205.081	NaN	0.000000	0.001547	0.001767	28.0836	62.335	0.001733	35972.9	2.456182	-3.434729	202.832	1.171295	0.061802	0.061441	205.081	35972.9	0.057527	0.117088	1751.51	96048.8
1007	2.000000	1.174084	7.3749e+06	-50489.1	1055.82	-29755.4	0.000000	0.000000	7.183845	224.018	NaN	0.000000	0.001545	0.001755	28.0841	64.1905	0.001709	37552.9	4.694473	173.765	222.447	1.173682	0.064230	0.063827	224.018	37552.9	0.059756	0.124934	1793.09	97067.9
1007	2.000000	1.176554	7.3749e+06	-50489.1	1055.82	-29755.4	0.000000	0.000000	7.187093	242.95	NaN	0.000000	0.001539	0.001775	28.0839	67.7482	0.001756	38576.5	3.171257	-5.380316	237.256	1.176247	0.066699	0.066392	242.95	38576.5	0.061976	0.132990	1826.83	96646.7
1007	2.000000	1.179117	7.3749e+06	-50489.1	1055.82	-29755.4	0.000000	0.000000	7.190354	259.918	NaN	0.000000	0.001531	0.001743	28.0842	70.8947	0.001887	37560.9	5.514457	172.988	259.714	1.178790	0.069262	0.068936	259.918	37560.9	0.064072	0.140815	1845.81	91450.2
1007	2.000000	1.181579	7.3749e+06	-50489.1	1055.82	-29755.4	0.000000	0.000000	7.193387	273.812	NaN	0.000000	0.001560	0.001760	28.0838	72.5619	0.001800	40318.7	6.181143	-8.901743	267.795	1.181287	0.071725	0.071433	273.812	40318.7	0.066631	0.150655	1817.48	94904.8
1007	2.000000	1.184105	7.3749e+06	-50489.1	1055.82	-29755.4	0.000000	0.000000	7.196806	295.52	NaN	0.000000	0.001564	0.001761	28.0841	73.964	0.001744	42416.6	1.772426	176.095	294.485	1.183709	0.074251	0.073855	295.52	42416.6	0.069026	0.160147	1845.3	96838.8
1007	2.000000	1.186585	7.3749e+06	-50489.1	1055.82	-29755.4	0.000000	0.000000	7.200105	315.449	NaN	0.000000	0.001545	0.001760	28.084	77.5073	0.001765	43922.2	3.797628	-6.631001	311.878	1.186203	0.076730	0.076349	315.449	43922.2	0.071344	0.169598	1859.98	97442.3
1007	2.000000	1.189122	7.37491e+06	-50489.1	1055.82	-29755.4	0.000000	0.000000	7.203272	330.771	NaN	0.000000	0.001568	0.001744	28.0839	81.1948	0.001834	44273.4	5.798281	171.539	331.383	1.188819	0.079267	0.078965	330.771	44273.4	0.073664	0.179312	1844.67	95523.9
1007	2.000000	1.191576	7.37491e+06	-50489.1	1055.82	-29755.4	0.000000	0.000000	7.206746	355.556	NaN	0.000000	0.001586	0.001749	28.0837	82.166	0.001788	45949.8	3.477581	-6.094417	350.776	1.191122	0.081722	0.081268	355.556	45949.8	0.075918	0.188993	1881.32	96568.2
1007	2.000000	1.194031	7.37491e+06	-50489.1	1055.82	-29755.4	0.000000	0.000000	7.210015	375.349	NaN	0.000000	0.001577	0.001724	28.0842	84.1689	0.001665	50548.6	4.346443	171.634	370.473	1.193783	0.084177	0.083929	375.349	50548.6	0.078608	0.200856	1868.74	103048
1007	2.000000	1.196406	7.37491e+06	-50489.1	1055.82	-29755.4	0.000000	0.000000	7.213125	393.221	NaN	0.000000	0.001551	0.001756	28.0838	87.4037	0.001716	50926.2	3.956283	-7.910633	381.439	1.196143	0.086552	0.086289	393.221	50926.2	0.080761	0.210594	1867.2	101389
1007	2.000000	1.199140	7.37491e+06	-50489.1	1055.82	-29755.4	0.000000	0.000000	7.216925	419.139	NaN	0.000000	0.001554	0.001731	28.084	92.6819	0.001899	48811.7	8.968803	167.624	418.85	1.198837	0.089286	0.088983	419.139	48811.7	0.082846	0.220233	1903.16	95028.9
1007	2.000000	1.201559	7.37491e+06	-50489.1	1055.82	-29755.4	0.000000	0.000000	7.220350	443.622	NaN	0.000000	0.001540	0.001737	28.084	93.0796	0.001857	50131	9.515149	-12.9726	438.345	1.201133	0.091704	0.091279	443.622	50131	0.085067	0.230723	1922.74	95352.8
1007	2.000000	1.204109	7.37491e+06	-50489.1	1055.82	-29755.4	0.000000	0.000000	7.223842	466.509	NaN	0.000000	0.001566	0.001758	28.0844	94.8582	0.001705	55619	5.801195	170.077	467.586	1.203663	0.094255	0.093809	466.509	55619	0.087964	0.244744	1906.11	102717
1007	2.000000	1.206506	7.37491e+06	-50489.1	1055.82	-29755.4	0.000000	0.000000	7.227232	490.676	NaN	0.000000	0.001588	0.001726	28.0828	97.6812	0.001761	55483.7	3.922896	-7.862317	485.442	1.206182	0.096652	0.096327	490.676	55483.7	0.090019	0.254925	1924.78	100400
1007	2.000000	1.209136	7.37491e+06	-50489.1	1055.82	-29755.4	0.000000	0.000000	7.230753	512.345	NaN	0.000000	0.001635	0.001706	28.083	101.342	0.001827	55477.6	6.549347	169.378	513.402	1.208772	0.099282	0.098918	512.345	55477.6	0.092355	0.266734	1920.81	98141.4
1007	2.000000	1.211591	7.37491e+06	-50489.1	1055.82	-29755.4	0.000000	0.000000	7.234216	536.84	NaN	0.000000	0.001647	0.001709	28.0829	102.487	0.001794	57112.9	5.227772	-9.280852	533.24	1.211202	0.101737	0.101347	536.84	57112.9	0.094687	0.278772	1925.73	98828.7
1007	2.000000	1.213940	7.37491e+06	-50489.1	1055.82	-29755.4	0.000000	0.000000	7.237673	563.811	NaN	0.000000	0.001532	0.001731	28.083	104.265	0.001869	55786.6	3.849510	172.097	557.448	1.213685	0.104086	0.103831	563.811	55786.6	0.096506	0.288329	1955.44	94920.3
1007	2.000000	1.216724	7.37491e+06	-50489.1	1055.82	-29755.4	0.000000	0.000000	7.241022	577.536	NaN	0.000000	0.001566	0.001665	28.0828	107.39	0.001800	59665.2	3.381159	-7.252585	584.875	1.216148	0.106870	0.106294	577.536	59665.2	0.099610	0.304996	1893.59	98706.8