File: remote_trans/data/nanoindenter/0828-1/data/Data_2025-08-06,11h17m57s/2025-07-22_16-23-58_1_566.txt
2025-07-22, 16:23:58, 1
Index	Phase	Displacement	Time	Pos X	Pos Y	Pos Z	Rot A	Rot B	Piezo Z	Force A	Force B	Gripper	Voltage A	Voltage B	Temperature	Amplitude force	Amplitude pos	Stiffness	Phase shift	Phase excitation	Force A raw	Displacement raw	HMax	HMax raw	Real Force	Real Stiffness	Contact Depth	Area	Hardness	Reduced Mod.
[#]	[#]	[um]	[s]	[um]	[um]	[um]	[m°]	[m°]	[um]	[uN]	[uN]	[V]	[V]	[V]	[°C]	[uN]	[um]	[N/m]	[°]	[°]	[uN]	[um]	[um]	[um]	[uN]	[N/m]	[um]	[um^2]	[MPa]	[MPa]
566	1.000000	0.002235	7.37058e+06	-48789.1	1005.82	-29761.2	0.000000	0.000000	6.002797	0.042247	NaN	0.000000	0.001548	0.001648	28.0833	0.055553	0.001018	54.5603	-151.119	-160.146	0.058179	0.000958	-1.051126	-1.052403	0.042247	54.5603	-1.051707	-1.125528E+14	-3.753530E-16	NaN
566	1.000000	0.010196	7.37058e+06	-48789.1	1005.82	-29761.2	0.000000	0.000000	6.010758	0.042762	NaN	0.000000	0.001540	0.001692	28.0831	0.009520	0.000935	10.1775	-29.1429	-168.782	0.084285	0.008909	-1.043165	-1.044452	0.042762	10.1775	-1.046316	-9.525466E+13	-4.489278E-16	NaN
566	1.000000	0.018178	7.37058e+06	-48789.1	1005.82	-29761.2	0.000000	0.000000	6.018735	-0.088759	NaN	0.000000	0.001561	0.001680	28.0827	0.066202	0.001811	36.5547	106.843	-163.994	-0.044227	0.016887	-1.035182	-1.036474	-0.088759	36.5547	-1.033361	-6.378088E+13	1.391622E-15	NaN
566	1.000000	0.026222	7.37058e+06	-48789.1	1005.82	-29761.2	0.000000	0.000000	6.026781	-0.015237	NaN	0.000000	0.001563	0.001692	28.0829	0.043188	0.001927	22.4068	-45.8457	-166.036	-0.031822	0.024896	-1.027139	-1.028464	-0.015237	22.4068	-1.026629	-5.177651E+13	2.942847E-16	NaN
566	1.000000	0.034184	7.37058e+06	-48789.1	1005.82	-29761.2	0.000000	0.000000	6.034745	0.031287	NaN	0.000000	0.001559	0.001675	28.0829	0.108663	0.001919	56.6254	-150.421	-165.834	-0.019457	0.032917	-1.019177	-1.020444	0.031287	56.6254	-1.019591	-4.163468E+13	-7.514606E-16	NaN
566	1.000000	0.042188	7.37058e+06	-48789.1	1005.82	-29761.2	0.000000	0.000000	6.042751	0.054001	NaN	0.000000	0.001535	0.001657	28.0829	0.116860	0.001962	59.5753	147.365	-162.796	-0.020245	0.040812	-1.011173	-1.012549	0.054001	59.5753	-1.011852	-3.275769E+13	-1.648511E-15	NaN
566	1.000000	0.050200	7.37058e+06	-48789.1	1005.82	-29761.2	0.000000	0.000000	6.050761	0.025892	NaN	0.000000	0.001552	0.001695	28.0837	0.038304	0.001910	20.0492	-135.615	-167.732	0.070128	0.048909	-1.003161	-1.004452	0.025892	20.0492	-1.004129	-2.578457E+13	-1.004162E-15	NaN
566	1.000000	0.058201	7.37058e+06	-48789.1	1005.82	-29761.2	0.000000	0.000000	6.058758	-0.079942	NaN	0.000000	0.001583	0.001667	28.0829	0.124958	0.002182	57.2563	124.806	-164.258	-0.051494	0.056900	-0.995160	-0.996461	-0.079942	57.2563	-0.994112	-1.890142E+13	4.229435E-15	NaN
566	1.000000	0.066162	7.37058e+06	-48789.1	1005.82	-29761.2	0.000000	0.000000	6.066726	0.098898	NaN	0.000000	0.001516	0.001706	28.0819	0.054731	0.002021	27.0778	81.8699	-165.761	0.027942	0.064888	-0.987199	-0.988473	0.098898	27.0778	-0.989939	-1.660672E+13	-5.955326E-15	NaN
566	1.000000	0.074212	7.37058e+06	-48789.1	1005.82	-29761.2	0.000000	0.000000	6.074774	0.056540	NaN	0.000000	0.001559	0.001684	28.0815	0.054691	0.001943	28.1525	-82.2287	-163.105	0.130976	0.072869	-0.979149	-0.980492	0.056540	28.1525	-0.980655	-1.245203E+13	-4.540655E-15	NaN
566	1.000000	0.082224	7.37058e+06	-48789.1	1005.82	-29761.2	0.000000	0.000000	6.082785	0.023770	NaN	0.000000	0.001526	0.001714	28.0815	0.039340	0.001988	19.7895	-149.918	-166.285	0.052189	0.080915	-0.971137	-0.972446	0.023770	19.7895	-0.972038	-9.530644E+12	-2.494026E-15	NaN
566	1.000000	0.090192	7.37058e+06	-48789.1	1005.82	-29761.2	0.000000	0.000000	6.090753	0.033145	NaN	0.000000	0.001551	0.001699	28.0819	0.029311	0.001944	15.0802	32.5893	-166.095	-0.068658	0.088902	-0.963169	-0.964459	0.033145	15.0802	-0.964817	-7.617455E+12	-4.351131E-15	NaN
566	1.000000	0.098206	7.37058e+06	-48789.1	1005.82	-29761.2	0.000000	0.000000	6.098766	-0.001270	NaN	0.000000	0.001572	0.001675	28.0816	0.048999	0.002074	23.6213	146.296	-168.501	0.055001	0.096904	-0.955155	-0.956457	-0.001270	23.6213	-0.955114	-5.636315E+12	2.254052E-16	NaN
566	1.000000	0.106226	7.37058e+06	-48789.1	1005.82	-29761.2	0.000000	0.000000	6.106787	0.033000	NaN	0.000000	0.001557	0.001683	28.0821	0.113820	0.002152	52.8786	-28.9563	-164.994	0.045253	0.104924	-0.947135	-0.948437	0.033000	52.8786	-0.947603	-4.463743E+12	-7.392900E-15	NaN
566	1.000000	0.114217	7.37058e+06	-48789.1	1005.82	-29761.2	0.000000	0.000000	6.114778	0.037588	NaN	0.000000	0.001550	0.001686	28.0817	0.018048	0.001978	9.125358	25.0224	-169.293	0.072918	0.112886	-0.939144	-0.940475	0.037588	9.125358	-0.942233	-3.778060E+12	-9.948912E-15	NaN
566	1.000000	0.122209	7.37058e+06	-48789.1	1005.82	-29761.2	0.000000	0.000000	6.122770	0.033089	NaN	0.000000	0.001535	0.001667	28.0817	0.017715	0.002029	8.731596	114.046	-166.204	0.056607	0.120925	-0.931152	-0.932436	0.033089	8.731596	-0.933994	-2.924846E+12	-1.131295E-14	NaN
566	1.000000	0.130207	7.37058e+06	-48789.1	1005.82	-29761.2	0.000000	0.000000	6.130766	-0.041197	NaN	0.000000	0.001541	0.001644	28.0818	0.050000	0.002060	24.2699	-99.0345	-165.86	0.146781	0.128945	-0.923153	-0.924416	-0.041197	24.2699	-0.921880	-2.007209E+12	2.052474E-14	NaN
566	1.000000	0.138228	7.37058e+06	-48789.1	1005.82	-29761.2	0.000000	0.000000	6.138790	0.057053	NaN	0.000000	0.001555	0.001668	28.0817	0.108523	0.001947	55.7514	139.492	-165.627	0.047122	0.136917	-0.915133	-0.916444	0.057053	55.7514	-0.915900	-1.666675E+12	-3.423141E-14	NaN
566	1.000000	0.146240	7.37058e+06	-48789.1	1005.82	-29761.2	0.000000	0.000000	6.146799	-0.030844	NaN	0.000000	0.001579	0.001666	28.0812	0.066953	0.001941	34.4983	65.5168	-168.057	0.026659	0.144934	-0.907121	-0.908427	-0.030844	34.4983	-0.906450	-1.242262E+12	2.482918E-14	NaN
566	1.000000	0.154220	7.37058e+06	-48789.1	1005.82	-29761.2	0.000000	0.000000	6.154782	0.051685	NaN	0.000000	0.001552	0.001670	28.0816	0.147778	0.002115	69.8853	5.310109	-166.441	-0.034971	0.152887	-0.899141	-0.900474	0.051685	69.8853	-0.899695	-1.006813E+12	-5.133556E-14	NaN
566	1.000000	0.162222	7.37058e+06	-48789.1	1005.82	-29761.2	0.000000	0.000000	6.162782	0.006538	NaN	0.000000	0.001573	0.001659	28.0816	0.070149	0.002034	34.4924	-96.9305	-163.28	-0.054648	0.160910	-0.891139	-0.892451	0.006538	34.4924	-0.891281	-7.748724E+11	-8.437205E-15	NaN
566	1.000000	0.170234	7.37058e+06	-48789.1	1005.82	-29761.2	0.000000	0.000000	6.170794	-0.013485	NaN	0.000000	0.001568	0.001676	28.0816	0.015494	0.001951	7.939920	-123.75	-169.752	-0.041417	0.168892	-0.883127	-0.884469	-0.013485	7.939920	-0.881853	-5.777842E+11	2.333941E-14	NaN
566	1.000000	0.178244	7.37058e+06	-48789.1	1005.82	-29761.2	0.000000	0.000000	6.178803	-0.012345	NaN	0.000000	0.001582	0.001706	28.0818	0.028768	0.001962	14.6599	-135.753	-167.759	-0.038152	0.176985	-0.875117	-0.876376	-0.012345	14.6599	-0.874485	-4.593269E+11	2.687731E-14	NaN
566	1.000000	0.186257	7.37058e+06	-48789.1	1005.82	-29761.2	0.000000	0.000000	6.186819	0.056683	NaN	0.000000	0.001543	0.001673	28.0812	0.116662	0.001924	60.6441	-159.934	-162.432	-0.028331	0.184868	-0.867104	-0.868493	0.056683	60.6441	-0.867805	-3.730349E+11	-1.519513E-13	NaN
566	1.000000	0.194274	7.37058e+06	-48789.1	1005.82	-29761.2	0.000000	0.000000	6.194836	0.062994	NaN	0.000000	0.001572	0.001683	28.0814	0.023953	0.001990	12.0376	-34.6872	-161.734	-0.035519	0.192980	-0.859087	-0.860381	0.062994	12.0376	-0.863012	-3.212803E+11	-1.960704E-13	NaN
566	1.000000	0.202262	7.37058e+06	-48789.1	1005.82	-29761.2	0.000000	0.000000	6.202823	0.023662	NaN	0.000000	0.001551	0.001672	28.0826	0.010257	0.002038	5.033516	107.19	-164.014	0.035485	0.200978	-0.851099	-0.852383	0.023662	5.033516	-0.854625	-2.473773E+11	-9.565292E-14	NaN
566	1.000000	0.210237	7.37058e+06	-48789.1	1005.82	-29761.2	0.000000	0.000000	6.210800	0.073294	NaN	0.000000	0.001535	0.001679	28.0824	0.046723	0.001992	23.4539	178.226	-164.779	-0.025584	0.209013	-0.843124	-0.844348	0.073294	23.4539	-0.845468	-1.859355E+11	-3.941919E-13	NaN
566	1.000000	0.218256	7.37058e+06	-48789.1	1005.82	-29761.2	0.000000	0.000000	6.218816	0.020530	NaN	0.000000	0.001590	0.001671	28.0825	0.050820	0.001985	25.6	-59.8758	-164.905	0.108901	0.216943	-0.835105	-0.836418	0.020530	25.6	-0.835707	-1.371273E+11	-1.497122E-13	NaN
566	1.000000	0.226241	7.37058e+06	-48789.1	1005.82	-29761.2	0.000000	0.000000	6.226801	0.010367	NaN	0.000000	0.001552	0.001679	28.0825	0.074800	0.001972	37.9232	-74.5708	-167.174	0.006605	0.224901	-0.827120	-0.828460	0.010367	37.9232	-0.827325	-1.055661E+11	-9.820557E-14	NaN
566	1.000000	0.234287	7.37058e+06	-48789.1	1005.82	-29761.2	0.000000	0.000000	6.234845	-0.033857	NaN	0.000000	0.001575	0.001673	28.0827	0.133966	0.002008	66.715	151.632	-168.452	0.042023	0.232926	-0.819074	-0.820435	-0.033857	66.715	-0.818694	-8.062977E+10	4.199018E-13	NaN
566	1.000000	0.242294	7.37058e+06	-48789.1	1005.82	-29761.2	0.000000	0.000000	6.242854	-0.009787	NaN	0.000000	0.001547	0.001697	28.0827	0.046432	0.002052	22.6327	79.7191	-165.155	-0.089046	0.240924	-0.811067	-0.812437	-0.009787	22.6327	-0.810743	-6.289923E+10	1.556054E-13	NaN
566	1.000000	0.250315	7.37059e+06	-48789.1	1005.82	-29761.2	0.000000	0.000000	6.250875	-0.003714	NaN	0.000000	0.001545	0.001716	28.0826	0.058234	0.001911	30.4715	-37.2796	-165.679	0.063080	0.248975	-0.803046	-0.804386	-0.003714	30.4715	-0.802954	-4.931311E+10	7.531291E-14	NaN
566	1.000000	0.258275	7.37059e+06	-48789.1	1005.82	-29761.2	0.000000	0.000000	6.258838	0.065762	NaN	0.000000	0.001598	0.001713	28.0825	0.042991	0.002012	21.3647	-121.974	-165.854	0.033866	0.256939	-0.795086	-0.796421	0.065762	21.3647	-0.797395	-4.144708E+10	-1.586644E-12	NaN
566	1.000000	0.266276	7.37059e+06	-48789.1	1005.82	-29761.2	0.000000	0.000000	6.266835	-0.019061	NaN	0.000000	0.001564	0.001694	28.0824	0.089837	0.001944	46.2069	-145.966	-167.808	-0.083221	0.264925	-0.787085	-0.788436	-0.019061	46.2069	-0.786776	-2.973641E+10	6.409946E-13	NaN
566	1.000000	0.274291	7.37059e+06	-48789.1	1005.82	-29761.2	0.000000	0.000000	6.274850	-0.033102	NaN	0.000000	0.001539	0.001712	28.0827	0.029525	0.001952	15.1275	-129.882	-162.161	0.029286	0.273003	-0.779070	-0.780358	-0.033102	15.1275	-0.777428	-2.219651E+10	1.491318E-12	NaN
566	1.000000	0.282284	7.37059e+06	-48789.1	1005.82	-29761.2	0.000000	0.000000	6.282846	0.033399	NaN	0.000000	0.001555	0.001669	28.0827	0.115795	0.002043	56.6748	95.3177	-169.574	0.025464	0.280976	-0.771076	-0.772385	0.033399	56.6748	-0.771518	-1.844805E+10	-1.810454E-12	NaN
566	1.000000	0.290288	7.37059e+06	-48789.1	1005.82	-29761.2	0.000000	0.000000	6.290847	-0.013673	NaN	0.000000	0.001571	0.001696	28.0826	0.012345	0.001953	6.321087	-126.96	-164.77	-1.012117E-5	0.288960	-0.763073	-0.764401	-0.013673	6.321087	-0.761450	-1.345967E+10	1.015876E-12	NaN
566	1.000000	0.298307	7.37059e+06	-48789.1	1005.82	-29761.2	0.000000	0.000000	6.298867	0.007009	NaN	0.000000	0.001585	0.001702	28.0827	0.058062	0.002010	28.8804	5.593447	-166.243	-0.061931	0.296994	-0.755054	-0.756367	0.007009	28.8804	-0.755236	-1.107847E+10	-6.327013E-13	NaN
566	1.000000	0.306291	7.37059e+06	-48789.1	1005.82	-29761.2	0.000000	0.000000	6.306852	0.011920	NaN	0.000000	0.001568	0.001692	28.0828	0.053026	0.002002	26.4845	73.0754	-165.02	0.058029	0.304957	-0.747070	-0.748404	0.011920	26.4845	-0.747407	-8.668135E+9	-1.375202E-12	NaN
566	1.000000	0.314307	7.37059e+06	-48789.1	1005.82	-29761.2	0.000000	0.000000	6.314866	-0.033640	NaN	0.000000	0.001597	0.001693	28.0828	0.096628	0.002141	45.1224	-161.084	-164.534	-0.017685	0.313001	-0.739054	-0.740359	-0.033640	45.1224	-0.738495	-6.554654E+9	5.132179E-12	NaN
566	1.000000	0.322286	7.37059e+06	-48789.1	1005.82	-29761.2	0.000000	0.000000	6.322848	0.070324	NaN	0.000000	0.001534	0.001681	28.0828	0.040562	0.001953	20.7719	-60.2993	-162.531	0.119671	0.321019	-0.731075	-0.732342	0.070324	20.7719	-0.733615	-5.624255E+9	-1.250378E-11	NaN
566	1.000000	0.330323	7.37059e+06	-48789.1	1005.82	-29761.2	0.000000	0.000000	6.330883	0.000632	NaN	0.000000	0.001558	0.001671	28.0828	0.073268	0.001994	36.753	26.9702	-166.376	0.011583	0.329050	-0.723038	-0.724311	0.000632	36.753	-0.723050	-4.037113E+9	-1.565916E-13	NaN
566	1.000000	0.338289	7.37059e+06	-48789.1	1005.82	-29761.2	0.000000	0.000000	6.338848	-0.018872	NaN	0.000000	0.001561	0.001691	28.0815	0.028913	0.001861	15.5358	-43.8473	-167.017	0.058578	0.337021	-0.715072	-0.716340	-0.018872	15.5358	-0.714161	-3.053659E+9	6.180087E-12	NaN
566	1.000000	0.346341	7.37059e+06	-48789.1	1005.82	-29761.2	0.000000	0.000000	6.346903	0.045474	NaN	0.000000	0.001581	0.001694	28.0813	0.111382	0.001955	56.9764	106.63	-167.57	0.160971	0.345057	-0.707020	-0.708304	0.045474	56.9764	-0.707618	-2.486228E+9	-1.829030E-11	NaN
566	1.000000	0.354303	7.37059e+06	-48789.1	1005.82	-29761.2	0.000000	0.000000	6.354861	-0.051709	NaN	0.000000	0.001598	0.001654	28.0815	0.061626	0.001978	31.1593	-43.2944	-165.229	-0.179126	0.353038	-0.699058	-0.700323	-0.051709	31.1593	-0.697813	-1.826704E+9	2.830731E-11	NaN
566	1.000000	0.362326	7.37059e+06	-48789.1	1005.82	-29761.2	0.000000	0.000000	6.362884	-0.044550	NaN	0.000000	0.001564	0.001654	28.0814	0.094376	0.002017	46.8013	-13.3216	-163.174	0.020102	0.361012	-0.691035	-0.692348	-0.044550	46.8013	-0.690321	-1.443136E+9	3.087007E-11	NaN
566	1.000000	0.370328	7.37059e+06	-48789.1	1005.82	-29761.2	0.000000	0.000000	6.370886	-0.039837	NaN	0.000000	0.001568	0.001637	28.0817	0.077940	0.001942	40.1341	-105.393	-162.206	0.017466	0.368978	-0.683033	-0.684383	-0.039837	40.1341	-0.682289	-1.120738E+9	3.554514E-11	NaN
566	1.000000	0.378320	7.37059e+06	-48789.1	1005.82	-29761.2	0.000000	0.000000	6.378882	0.033642	NaN	0.000000	0.001524	0.001678	28.0817	0.021819	0.002139	10.2018	179.635	-166.938	-0.015004	0.376981	-0.675040	-0.676380	0.033642	10.2018	-0.677514	-9.642697E+8	-3.488837E-11	NaN
566	1.000000	0.386335	7.37059e+06	-48789.1	1005.82	-29761.2	0.000000	0.000000	6.386894	-0.017920	NaN	0.000000	0.001533	0.001683	28.0816	0.020470	0.001934	10.5855	19.182	-166.202	-0.028526	0.385011	-0.667026	-0.668349	-0.017920	10.5855	-0.665757	-6.657363E+8	2.691728E-11	NaN
566	1.000000	0.394319	7.37059e+06	-48789.1	1005.82	-29761.2	0.000000	0.000000	6.394884	0.126429	NaN	0.000000	0.001532	0.001655	28.0816	0.127007	0.001952	65.0714	37.6783	-166.715	0.112744	0.393046	-0.659042	-0.660314	0.126429	65.0714	-0.660499	-5.640291E+8	-2.241531E-10	NaN
566	1.000000	0.402337	7.37059e+06	-48789.1	1005.82	-29761.2	0.000000	0.000000	6.402900	0.069427	NaN	0.000000	0.001516	0.001670	28.0816	0.034949	0.002019	17.3109	149.611	-165.415	0.028707	0.401017	-0.651024	-0.652344	0.069427	17.3109	-0.654032	-4.599401E+8	-1.509482E-10	NaN
566	1.000000	0.410367	7.37059e+06	-48789.1	1005.82	-29761.2	0.000000	0.000000	6.410927	-0.002099	NaN	0.000000	0.001540	0.001662	28.0816	0.060372	0.002056	29.3698	-127.26	-168.921	-0.027884	0.408988	-0.642994	-0.644372	-0.002099	29.3698	-0.642940	-3.240576E+8	6.476394E-12	NaN
566	1.000000	0.418355	7.37059e+06	-48789.1	1005.82	-29761.2	0.000000	0.000000	6.418912	-0.058547	NaN	0.000000	0.001568	0.001696	28.0818	0.036223	0.002056	17.6187	-159.457	-167.912	-0.059691	0.417034	-0.635006	-0.636327	-0.058547	17.6187	-0.632514	-2.330994E+8	2.511670E-10	NaN
566	1.000000	0.426331	7.37059e+06	-48789.1	1005.82	-29761.2	0.000000	0.000000	6.426892	0.039105	NaN	0.000000	0.001547	0.001674	28.082	0.064466	0.001931	33.381	129.334	-165.75	-0.033553	0.425053	-0.627030	-0.628308	0.039105	33.381	-0.627909	-2.015118E+8	-1.940583E-10	NaN
566	1.000000	0.434310	7.37059e+06	-48789.1	1005.82	-29761.2	0.000000	0.000000	6.434871	0.012199	NaN	0.000000	0.001507	0.001696	28.0818	0.104641	0.001999	52.3504	129.391	-169.065	0.023578	0.433065	-0.619050	-0.620296	0.012199	52.3504	-0.619225	-1.531030E+8	-7.967892E-11	NaN
566	1.000000	0.442393	7.37059e+06	-48789.1	1005.82	-29761.2	0.000000	0.000000	6.442951	-0.044380	NaN	0.000000	0.001549	0.001679	28.0817	0.016937	0.001926	8.793280	82.0487	-166.11	-0.008511	0.441082	-0.610968	-0.612279	-0.044380	8.793280	-0.607183	-1.045565E+8	4.244590E-10	NaN
566	1.000000	0.450362	7.37059e+06	-48789.1	1005.82	-29761.2	0.000000	0.000000	6.450925	0.075015	NaN	0.000000	0.001566	0.001665	28.0818	0.054242	0.001974	27.4737	-48.6165	-165.037	-0.009925	0.449034	-0.602999	-0.604327	0.075015	27.4737	-0.605047	-9.771281E+7	-7.677133E-10	NaN
566	1.000000	0.458353	7.37059e+06	-48789.1	1005.82	-29761.2	0.000000	0.000000	6.458913	-0.003492	NaN	0.000000	0.001556	0.001675	28.0816	0.038259	0.001978	19.3403	-161.61	-169.677	0.013695	0.457060	-0.595007	-0.596300	-0.003492	19.3403	-0.594872	-7.076480E+7	4.934348E-11	NaN
566	1.000000	0.466363	7.37059e+06	-48789.1	1005.82	-29761.2	0.000000	0.000000	6.466922	-0.016032	NaN	0.000000	0.001572	0.001676	28.0817	0.030075	0.001888	15.9288	-104.264	-163.858	-0.015027	0.465030	-0.586998	-0.588331	-0.016032	15.9288	-0.586243	-5.381035E+7	2.979289E-10	NaN
566	1.000000	0.474361	7.37059e+06	-48789.1	1005.82	-29761.2	0.000000	0.000000	6.474922	0.028750	NaN	0.000000	0.001552	0.001670	28.083	0.063750	0.002002	31.8381	-102.361	-166.262	0.034418	0.473062	-0.579000	-0.580299	0.028750	31.8381	-0.579677	-4.367873E+7	-6.582098E-10	NaN
566	1.000000	0.482371	7.37059e+06	-48789.1	1005.82	-29761.2	0.000000	0.000000	6.482933	0.050452	NaN	0.000000	0.001549	0.001695	28.0831	0.068679	0.001871	36.6981	165.921	-162.8	0.083487	0.481028	-0.570990	-0.572332	0.050452	36.6981	-0.572021	-3.424144E+7	-1.473430E-9	NaN
566	1.000000	0.490360	7.37059e+06	-48789.1	1005.82	-29761.2	0.000000	0.000000	6.490921	0.027645	NaN	0.000000	0.001549	0.001672	28.0829	0.029821	0.001872	15.9307	27.9233	-164.308	0.060147	0.489039	-0.563001	-0.564322	0.027645	15.9307	-0.564303	-2.678452E+7	-1.032124E-9	NaN
566	1.000000	0.498384	7.37059e+06	-48789.1	1005.82	-29761.2	0.000000	0.000000	6.498946	0.041980	NaN	0.000000	0.001517	0.001688	28.083	0.066797	0.002051	32.5646	-64.7236	-164.471	0.034994	0.497072	-0.554977	-0.556289	0.041980	32.5646	-0.555944	-2.052348E+7	-2.045484E-9	NaN
566	1.000000	0.506382	7.37059e+06	-48789.1	1005.82	-29761.2	0.000000	0.000000	6.506943	0.024207	NaN	0.000000	0.001567	0.001697	28.0832	0.039298	0.001979	19.8552	-80.1727	-164.362	-0.020310	0.505025	-0.546979	-0.548336	0.024207	19.8552	-0.547894	-1.587733E+7	-1.524636E-9	NaN
566	1.000000	0.514369	7.37059e+06	-48789.1	1005.82	-29761.2	0.000000	0.000000	6.514930	0.007601	NaN	0.000000	0.001516	0.001726	28.083	0.034445	0.001986	17.3477	-36.4628	-164.69	-0.010944	0.513065	-0.538991	-0.540296	0.007601	17.3477	-0.539320	-1.207614E+7	-6.294230E-10	NaN
566	1.000000	0.522385	7.37059e+06	-48789.1	1005.82	-29761.2	0.000000	0.000000	6.522947	0.047367	NaN	0.000000	0.001547	0.001716	28.0834	0.090822	0.001917	47.3812	72.8807	-167.853	0.004660	0.521110	-0.530976	-0.532251	0.047367	47.3812	-0.531726	-9.47407e+06	-4.999663E-9	NaN
566	1.000000	0.530384	7.37059e+06	-48789.1	1005.82	-29761.2	0.000000	0.000000	6.530947	0.063122	NaN	0.000000	0.001522	0.001685	28.083	0.054275	0.001951	27.8221	32.7799	-165.847	0.044363	0.529091	-0.522976	-0.524270	0.063122	27.8221	-0.524678	-7.56198e+06	-8.347280E-9	NaN
566	1.000000	0.538412	7.37059e+06	-48789.1	1005.82	-29761.2	0.000000	0.000000	6.538972	0.002762	NaN	0.000000	0.001522	0.001713	28.0829	0.003023	0.002032	1.487347	151.354	-167.462	-0.016531	0.537098	-0.514949	-0.516263	0.002762	1.487347	-0.516342	-5.79033e+06	-4.769649E-10	NaN
566	1.000000	0.546410	7.37059e+06	-48789.1	1005.82	-29761.2	0.000000	0.000000	6.546970	0.017893	NaN	0.000000	0.001540	0.001712	28.0829	0.060867	0.002001	30.4236	41.1796	-167.418	0.027012	0.545084	-0.506951	-0.508277	0.017893	30.4236	-0.507392	-4.34597e+06	-4.117258E-9	NaN
566	1.000000	0.554396	7.37059e+06	-48789.1	1005.82	-29761.2	0.000000	0.000000	6.554953	-0.060239	NaN	0.000000	0.001485	0.001733	28.083	0.101548	0.001985	51.1566	-5.407951	-165.001	-0.070332	0.553064	-0.498965	-0.500297	-0.060239	51.1566	-0.498082	-3.22296e+06	1.869059E-8	NaN
566	1.000000	0.562411	7.37059e+06	-48789.1	1005.82	-29761.2	0.000000	0.000000	6.562971	0.011789	NaN	0.000000	0.001533	0.001716	28.0831	0.106321	0.002001	53.1309	-125.381	-166.03	0.018165	0.561067	-0.490950	-0.492294	0.011789	53.1309	-0.491116	-2.57627e+06	-4.576149E-9	NaN
566	1.000000	0.570402	7.37059e+06	-48789.1	1005.82	-29761.2	0.000000	0.000000	6.570964	0.042931	NaN	0.000000	0.001536	0.001730	28.083	0.041213	0.001993	20.6765	80.2795	-165.619	-0.033111	0.569093	-0.482959	-0.484268	0.042931	20.6765	-0.484516	-2.08314e+06	-2.060869E-8	NaN
566	1.000000	0.578456	7.37059e+06	-48789.1	1005.82	-29761.2	0.000000	0.000000	6.579019	0.082358	NaN	0.000000	0.001516	0.001731	28.0831	0.042434	0.002026	20.9458	-106.918	-165.715	0.057412	0.577098	-0.474905	-0.476263	0.082358	20.9458	-0.477854	-1.68067e+06	-4.900290E-8	NaN
566	1.000000	0.586414	7.37059e+06	-48789.1	1005.82	-29761.2	0.000000	0.000000	6.586974	0.011660	NaN	0.000000	0.001530	0.001712	28.0831	0.042152	0.001953	21.5865	-71.4603	-163.031	0.014985	0.585127	-0.466947	-0.468233	0.011660	21.5865	-0.467352	-1.19747e+06	-9.737479E-9	NaN
566	1.000000	0.594425	7.37059e+06	-48789.1	1005.82	-29761.2	0.000000	0.000000	6.594988	0.077470	NaN	0.000000	0.001542	0.001666	28.083	0.029324	0.001932	15.1748	153.763	-165.432	0.008410	0.593105	-0.458936	-0.460256	0.077470	15.1748	-0.462765	-1.03243e+06	-7.503735E-8	NaN
566	1.000000	0.602424	7.37059e+06	-48789.1	1005.82	-29761.2	0.000000	0.000000	6.602987	0.073813	NaN	0.000000	0.001512	0.001650	28.0829	0.012279	0.001791	6.854945	31.0665	-167.969	0.023864	0.601054	-0.450937	-0.452307	0.073813	6.854945	-0.459013	-914417	-8.072134E-8	NaN
566	1.000000	0.610414	7.37059e+06	-48789.1	1005.82	-29761.2	0.000000	0.000000	6.610975	0.011890	NaN	0.000000	0.001561	0.001652	28.0815	0.028424	0.001812	15.6847	-60.6992	-166.595	-0.032602	0.609117	-0.442947	-0.444243	0.011890	15.6847	-0.443515	-553298	-2.148902E-8	NaN
566	1.000000	0.618422	7.37059e+06	-48789.1	1005.82	-29761.2	0.000000	0.000000	6.618981	-0.012705	NaN	0.000000	0.001513	0.001677	28.082	0.095486	0.001977	48.2912	98.5407	-159.771	-0.007448	0.617111	-0.434939	-0.436250	-0.012705	48.2912	-0.434742	-416009	3.054056E-8	NaN
566	1.000000	0.626425	7.37059e+06	-48789.1	1005.82	-29761.2	0.000000	0.000000	6.626982	-0.075084	NaN	0.000000	0.001588	0.001694	28.0821	0.026684	0.001933	13.8027	-68.7514	-163.417	-0.023645	0.625128	-0.426936	-0.428233	-0.075084	13.8027	-0.422856	-282429	2.658497E-7	NaN
566	1.000000	0.634424	7.37059e+06	-48789.1	1005.82	-29761.2	0.000000	0.000000	6.634985	0.011313	NaN	0.000000	0.001586	0.001618	28.0817	0.149778	0.002099	71.3662	-163.318	-167.336	0.038548	0.633161	-0.418937	-0.420200	0.011313	71.3662	-0.419056	-249470	-4.534612E-8	NaN
566	1.000000	0.642413	7.37059e+06	-48789.1	1005.82	-29761.2	0.000000	0.000000	6.642974	0.013663	NaN	0.000000	0.001589	0.001615	28.0816	0.031405	0.001858	16.9005	153.866	-164.349	0.067469	0.641093	-0.410948	-0.412268	0.013663	16.9005	-0.411554	-195207	-6.999480E-8	NaN
566	1.000000	0.650442	7.37059e+06	-48789.1	1005.82	-29761.2	0.000000	0.000000	6.651003	0.036779	NaN	0.000000	0.001581	0.001629	28.0816	0.094728	0.001768	53.5649	146.154	-164.231	-0.007468	0.649146	-0.402919	-0.404215	0.036779	53.5649	-0.403434	-149604	-2.458452E-7	NaN
566	1.000000	0.658456	7.37059e+06	-48789.1	1005.82	-29761.2	0.000000	0.000000	6.659015	-0.025339	NaN	0.000000	0.001592	0.001651	28.0814	0.122619	0.002080	58.939	-69.7261	-165.573	0.033629	0.657147	-0.394905	-0.396214	-0.025339	58.939	-0.394582	-111858	2.265317E-7	NaN
566	1.000000	0.666442	7.37059e+06	-48789.1	1005.82	-29761.2	0.000000	0.000000	6.667002	-0.005395	NaN	0.000000	0.001532	0.001653	28.0819	0.125038	0.001996	62.6475	-152.959	-165.255	0.013418	0.665101	-0.386918	-0.388260	-0.005395	62.6475	-0.386854	-86723.9	6.220578E-8	NaN
566	1.000000	0.674444	7.37059e+06	-48789.1	1005.82	-29761.2	0.000000	0.000000	6.675004	-0.010499	NaN	0.000000	0.001543	0.001643	28.0819	0.053216	0.002084	25.5356	-45.2946	-167.405	-0.021990	0.673104	-0.378917	-0.380257	-0.010499	25.5356	-0.378608	-66056.1	1.589440E-7	NaN
566	1.000000	0.682417	7.37059e+06	-48789.1	1005.82	-29761.2	0.000000	0.000000	6.682974	-0.077747	NaN	0.000000	0.001578	0.001626	28.0815	0.048546	0.001993	24.3605	91.9472	-163.729	-0.033234	0.681161	-0.370944	-0.372200	-0.077747	24.3605	-0.368550	-47341.3	1.642266E-6	NaN
566	1.000000	0.690470	7.37059e+06	-48789.1	1005.82	-29761.2	0.000000	0.000000	6.691031	0.010860	NaN	0.000000	0.001568	0.001648	28.0815	0.028808	0.002079	13.8585	-145.361	-167.042	-0.002389	0.689152	-0.362890	-0.364209	0.010860	13.8585	-0.363478	-40002.9	-2.714860E-7	NaN
566	1.000000	0.698464	7.37059e+06	-48789.1	1005.82	-29761.2	0.000000	0.000000	6.699023	-0.027617	NaN	0.000000	0.001574	0.001644	28.0816	0.126086	0.001996	63.1664	-3.872474	-167.14	-0.050033	0.697117	-0.354896	-0.356244	-0.027617	63.1664	-0.354569	-29733.6	9.288257E-7	NaN
566	1.000000	0.706501	7.37059e+06	-48789.1	1005.82	-29761.2	0.000000	0.000000	6.707062	0.028089	NaN	0.000000	0.001558	0.001659	28.082	0.071083	0.002045	34.7562	-160.036	-164.758	0.023190	0.705180	-0.346860	-0.348181	0.028089	34.7562	-0.347466	-23453.7	-1.197640E-6	NaN
566	1.000000	0.714460	7.37059e+06	-48789.1	1005.82	-29761.2	0.000000	0.000000	6.715019	-0.029943	NaN	0.000000	0.001593	0.001667	28.0817	0.073584	0.001986	37.0586	-177.078	-168.736	-0.015746	0.713138	-0.338901	-0.340223	-0.029943	37.0586	-0.338295	-17245.9	1.736235E-6	NaN
566	1.000000	0.722460	7.37059e+06	-48789.1	1005.82	-29761.2	0.000000	0.000000	6.723021	0.009423	NaN	0.000000	0.001601	0.001679	28.0817	0.130965	0.001947	67.2622	138.807	-165.398	-0.020387	0.721172	-0.330900	-0.332189	0.009423	67.2622	-0.331006	-13495	-6.982844E-7	NaN
566	1.000000	0.730474	7.37059e+06	-48789.1	1005.82	-29761.2	0.000000	0.000000	6.731035	0.001951	NaN	0.000000	0.001584	0.001659	28.0817	0.052704	0.002017	26.1333	155.211	-165.079	-0.005636	0.729127	-0.322886	-0.324234	0.001951	26.1333	-0.322942	-10278.1	-1.898324E-7	NaN
566	1.000000	0.738469	7.37059e+06	-48789.1	1005.82	-29761.2	0.000000	0.000000	6.739027	-0.046479	NaN	0.000000	0.001580	0.001646	28.0814	0.013960	0.001943	7.186211	41.1984	-163.871	-0.089593	0.737204	-0.314892	-0.316157	-0.046479	7.186211	-0.310041	-6632.26	7.008027E-6	NaN
566	1.000000	0.746470	7.37059e+06	-48789.1	1005.82	-29761.2	0.000000	0.000000	6.747030	0.001452	NaN	0.000000	0.001626	0.001645	28.0831	0.130202	0.002223	58.5732	37.0378	-166.125	0.013437	0.745207	-0.306891	-0.308154	0.001452	58.5732	-0.306909	-5960.39	-2.436616E-7	NaN
566	1.000000	0.754473	7.37059e+06	-48789.1	1005.82	-29761.2	0.000000	0.000000	6.755033	-0.004387	NaN	0.000000	0.001612	0.001647	28.0829	0.063219	0.002031	31.134	77.1768	-164.256	-0.084125	0.753180	-0.298888	-0.300181	-0.004387	31.134	-0.298782	-4513.31	9.719558E-7	NaN
566	1.000000	0.762511	7.37059e+06	-48789.1	1005.82	-29761.2	0.000000	0.000000	6.763072	0.028430	NaN	0.000000	0.001636	0.001666	28.0831	0.082194	0.002078	39.5623	-3.608145	-168.918	0.019091	0.761177	-0.290850	-0.292184	0.028430	39.5623	-0.291389	-3500.23	-8.122427E-6	NaN
566	1.000000	0.770492	7.37059e+06	-48789.1	1005.82	-29761.2	0.000000	0.000000	6.771052	-0.019036	NaN	0.000000	0.001597	0.001659	28.0833	0.038132	0.002059	18.5164	123.076	-166.18	-0.001694	0.769143	-0.282868	-0.284218	-0.019036	18.5164	-0.282097	-2538.56	7.498731E-6	NaN
566	1.000000	0.778494	7.37059e+06	-48789.1	1005.82	-29761.2	0.000000	0.000000	6.779052	-0.038709	NaN	0.000000	0.001594	0.001673	28.0828	0.118340	0.001930	61.3107	144.528	-168.983	-0.096154	0.777165	-0.274867	-0.276196	-0.038709	61.3107	-0.274393	-1941.84	1.993439E-5	NaN
566	1.000000	0.786493	7.37059e+06	-48789.1	1005.82	-29761.2	0.000000	0.000000	6.787055	0.050194	NaN	0.000000	0.001575	0.001646	28.0834	0.063989	0.002020	31.6745	-24.6619	-166.962	0.025484	0.785181	-0.266868	-0.268180	0.050194	31.6745	-0.268056	-1555.87	-3.226110E-5	NaN
566	1.000000	0.794493	7.37059e+06	-48789.1	1005.82	-29761.2	0.000000	0.000000	6.795053	0.011154	NaN	0.000000	0.001555	0.001649	28.0828	0.095141	0.001949	48.8123	40.1522	-168.551	0.069290	0.793173	-0.258868	-0.260188	0.011154	48.8123	-0.259040	-1132.9	-9.845787E-6	NaN
566	1.000000	0.802502	7.37059e+06	-48789.1	1005.82	-29761.2	0.000000	0.000000	6.803065	0.056068	NaN	0.000000	0.001567	0.001645	28.0831	0.065933	0.001955	33.7321	60.6902	-167.593	0.021539	0.801202	-0.250859	-0.252159	0.056068	33.7321	-0.252105	-886.124	-6.327335E-5	NaN
566	1.000000	0.810514	7.37059e+06	-48789.1	1005.82	-29761.2	0.000000	0.000000	6.811072	-0.034989	NaN	0.000000	0.001557	0.001639	28.0833	0.083718	0.001918	43.6389	-72.9899	-165.993	0.007231	0.809190	-0.242847	-0.244171	-0.034989	43.6389	-0.242246	-623.144	5.614983E-5	NaN
566	1.000000	0.818504	7.37059e+06	-48789.1	1005.82	-29761.2	0.000000	0.000000	6.819065	0.016753	NaN	0.000000	0.001529	0.001618	28.0831	0.080093	0.001916	41.7989	-70.6261	-162.633	-0.017012	0.817178	-0.234857	-0.236183	0.016753	41.7989	-0.235157	-482.746	-3.470365E-5	NaN
566	1.000000	0.826525	7.37059e+06	-48789.1	1005.82	-29761.2	0.000000	0.000000	6.827083	-0.033578	NaN	0.000000	0.001534	0.001666	28.0831	0.057817	0.002029	28.4905	-78.786	-164.542	-0.022299	0.825176	-0.226836	-0.228185	-0.033578	28.4905	-0.225952	-345.505	9.718424E-5	NaN
566	1.000000	0.834513	7.37059e+06	-48789.1	1005.82	-29761.2	0.000000	0.000000	6.835073	0.002684	NaN	0.000000	0.001586	0.001678	28.0829	0.054120	0.002021	26.7744	157.598	-170.769	-0.027194	0.833182	-0.218848	-0.220179	0.002684	26.7744	-0.218923	-266.964	-1.005297E-5	NaN
566	1.000000	0.842541	7.37059e+06	-48789.1	1005.82	-29761.2	0.000000	0.000000	6.843104	0.080579	NaN	0.000000	0.001570	0.001642	28.083	0.052522	0.001989	26.4054	-4.525281	-165.426	0.127193	0.841214	-0.210820	-0.212147	0.080579	26.4054	-0.213109	-215.307	-0.000374	NaN
566	1.000000	0.850528	7.37059e+06	-48789.1	1005.82	-29761.2	0.000000	0.000000	6.851087	-0.018400	NaN	0.000000	0.001583	0.001673	28.0829	0.027880	0.002047	13.619	42.1441	-166.865	0.059836	0.849176	-0.202833	-0.204185	-0.018400	13.619	-0.201820	-141.113	0.000130	NaN
566	1.000000	0.858525	7.37059e+06	-48789.1	1005.82	-29761.2	0.000000	0.000000	6.859085	0.011185	NaN	0.000000	0.001604	0.001671	28.0831	0.089831	0.002135	42.0738	147.56	-166.409	-0.059610	0.857260	-0.194836	-0.196101	0.011185	42.0738	-0.195036	-109.091	-0.000103	NaN
566	1.000000	0.866492	7.37059e+06	-48789.1	1005.82	-29761.2	0.000000	0.000000	6.867053	0.023183	NaN	0.000000	0.001548	0.001616	28.0832	0.024867	0.002048	12.1404	75.0344	-163.557	-0.031824	0.865202	-0.186868	-0.188159	0.023183	12.1404	-0.188301	-84.2552	-0.000275	NaN
566	1.000000	0.874520	7.37059e+06	-48789.1	1005.82	-29761.2	0.000000	0.000000	6.875080	-0.003448	NaN	0.000000	0.001594	0.001597	28.083	0.080390	0.001941	41.4262	-41.5237	-169.219	-0.016931	0.873204	-0.178841	-0.180156	-0.003448	41.4262	-0.178778	-58.1642	5.928813E-5	NaN
566	1.000000	0.882528	7.37059e+06	-48789.1	1005.82	-29761.2	0.000000	0.000000	6.883091	0.075167	NaN	0.000000	0.001583	0.001619	28.0818	0.059340	0.002088	28.4164	175.131	-165.048	0.130593	0.881197	-0.170833	-0.172164	0.075167	28.4164	-0.172817	-45.9601	-0.001635	NaN
566	1.000000	0.890552	7.37059e+06	-48789.1	1005.82	-29761.2	0.000000	0.000000	6.891114	0.054926	NaN	0.000000	0.001552	0.001624	28.0818	0.044741	0.001871	23.9072	50.9447	-163.526	0.019692	0.889217	-0.162809	-0.164144	0.054926	23.9072	-0.164532	-32.9677	-0.001666	NaN
566	1.000000	0.898565	7.37059e+06	-48789.1	1005.82	-29761.2	0.000000	0.000000	6.899124	-0.021594	NaN	0.000000	0.001533	0.001652	28.0817	0.105110	0.001869	56.253	-35.0134	-166.743	0.039499	0.897215	-0.154796	-0.156146	-0.021594	56.253	-0.154508	-21.864	0.000988	NaN
566	1.000000	0.906521	7.37059e+06	-48789.1	1005.82	-29761.2	0.000000	0.000000	6.907079	-0.047120	NaN	0.000000	0.001554	0.001655	28.082	0.069847	0.002004	34.8482	138.969	-166.042	-0.067584	0.905275	-0.146840	-0.148086	-0.047120	34.8482	-0.145826	-15.1853	0.003103	NaN
566	1.000000	0.914535	7.37059e+06	-48789.1	1005.82	-29761.2	0.000000	0.000000	6.915097	0.039342	NaN	0.000000	0.001521	0.001643	28.0816	0.066332	0.002029	32.6944	-147.723	-168.004	-0.028678	0.913249	-0.138826	-0.140112	0.039342	32.6944	-0.139728	-11.6913	-0.003365	NaN
566	1.000000	0.922559	7.37059e+06	-48789.1	1005.82	-29761.2	0.000000	0.000000	6.923121	0.049571	NaN	0.000000	0.001537	0.001650	28.0819	0.047658	0.002060	23.1293	-48.7174	-168.218	0.042380	0.921276	-0.130802	-0.132085	0.049571	23.1293	-0.132409	-8.484136	-0.005843	NaN
566	1.000000	0.930568	7.37059e+06	-48789.1	1005.82	-29761.2	0.000000	0.000000	6.931129	0.014423	NaN	0.000000	0.001573	0.001650	28.0817	0.060389	0.002104	28.7013	-84.907	-163.266	0.027394	0.929240	-0.122792	-0.124120	0.014423	28.7013	-0.123169	-5.592961	-0.002579	NaN
566	1.000000	0.938564	7.37059e+06	-48789.1	1005.82	-29761.2	0.000000	0.000000	6.939125	0.025486	NaN	0.000000	0.001583	0.001611	28.0816	0.059485	0.002012	29.5716	-50.7033	-166.704	0.091608	0.937180	-0.114797	-0.116181	0.025486	29.5716	-0.115443	-3.901564	-0.006532	NaN
566	1.000000	0.946573	7.37059e+06	-48789.1	1005.82	-29761.2	0.000000	0.000000	6.947135	0.043890	NaN	0.000000	0.001564	0.001673	28.0818	0.008747	0.002030	4.309912	134.329	-164.481	-0.009426	0.945346	-0.106788	-0.108015	0.043890	4.309912	-0.114425	-3.717454	-0.011806	NaN
566	1.000000	0.954560	7.37059e+06	-48789.1	1005.82	-29761.2	0.000000	0.000000	6.955121	0.019337	NaN	0.000000	0.001590	0.001646	28.0819	0.049248	0.001872	26.3009	151.596	-164.124	0.002390	0.953227	-0.098801	-0.100133	0.019337	26.3009	-0.099352	-1.767630	-0.010939	NaN
566	1.000000	0.962576	7.37059e+06	-48789.1	1005.82	-29761.2	0.000000	0.000000	6.963136	0.016758	NaN	0.000000	0.001588	0.001636	28.0819	0.011787	0.002006	5.875811	174.58	-167.272	-0.026304	0.961307	-0.090785	-0.092054	0.016758	5.875811	-0.092924	-1.264254	-0.013255	NaN
566	1.000000	0.970557	7.37059e+06	-48789.1	1005.82	-29761.2	0.000000	0.000000	6.971119	0.063223	NaN	0.000000	0.001579	0.001653	28.0816	0.064981	0.001977	32.8745	111.479	-165.954	0.070566	0.969213	-0.082804	-0.084148	0.063223	32.8745	-0.084247	-0.787776	-0.080255	NaN
566	1.000000	0.978607	7.37059e+06	-48789.1	1005.82	-29761.2	0.000000	0.000000	6.979167	-0.004285	NaN	0.000000	0.001602	0.001646	28.0817	0.157472	0.002074	75.9231	27.7276	-164.241	0.042517	0.977253	-0.074754	-0.076108	-0.004285	75.9231	-0.074711	-0.453986	0.009438	NaN
566	1.000000	0.986571	7.37059e+06	-48789.1	1005.82	-29761.2	0.000000	0.000000	6.987132	0.034839	NaN	0.000000	0.001562	0.001635	28.0817	0.056895	0.001940	29.3282	121.596	-168.758	0.001592	0.985232	-0.066790	-0.068129	0.034839	29.3282	-0.067681	-0.295299	-0.117979	NaN
566	1.000000	0.994606	7.37059e+06	-48789.1	1005.82	-29761.2	0.000000	0.000000	6.995168	0.059617	NaN	0.000000	0.001564	0.001665	28.0818	0.054347	0.001966	27.6492	95.7798	-165.762	0.032899	0.993266	-0.058755	-0.060094	0.059617	27.6492	-0.060372	-0.184573	-0.322999	NaN
566	1.000000	1.002590	7.37059e+06	-48789.1	1005.82	-29761.2	0.000000	0.000000	7.003151	0.026884	NaN	0.000000	0.001584	0.001595	28.0818	0.034532	0.001841	18.7615	137.264	-166.888	-0.070864	1.001262	-0.050771	-0.052098	0.026884	18.7615	-0.051845	-0.103717	-0.259208	NaN
566	1.000000	1.010582	7.37059e+06	-48789.1	1005.82	-29761.2	0.000000	0.000000	7.011141	-0.031450	NaN	0.000000	0.001586	0.001659	28.0818	0.130914	0.001851	70.7256	-134.448	-165.17	-0.056068	1.009258	-0.042778	-0.044103	-0.031450	70.7256	-0.042445	-0.053686	0.585805	NaN
566	1.000000	1.018623	7.37059e+06	-48789.1	1005.82	-29761.2	0.000000	0.000000	7.019186	0.076495	NaN	0.000000	0.001549	0.001645	28.0833	0.036321	0.002255	16.1053	141.898	-164.015	0.040586	1.017297	-0.034738	-0.036064	0.076495	16.1053	-0.038301	-0.040171	-1.904225	NaN
566	1.000000	1.026579	7.37059e+06	-48789.1	1005.82	-29761.2	0.000000	0.000000	7.027139	0.012699	NaN	0.000000	0.001579	0.001624	28.0831	0.056871	0.001885	30.1646	12.8173	-167.312	0.043731	1.025269	-0.026782	-0.028092	0.012699	30.1646	-0.027098	-0.019170	-0.662418	NaN
566	1.000000	1.034610	7.37059e+06	-48789.1	1005.82	-29761.2	0.000000	0.000000	7.035169	-0.018617	NaN	0.000000	0.001569	0.001645	28.0832	0.010859	0.001898	5.721749	147.742	-164.171	0.007670	1.033280	-0.018751	-0.020081	-0.018617	5.721749	-0.016311	-0.010076	1.847725	NaN
566	1.000000	1.042605	7.37059e+06	-48789.1	1005.82	-29761.2	0.000000	0.000000	7.043168	0.070183	NaN	0.000000	0.001543	0.001639	28.0829	0.047392	0.002084	22.7425	-20.8773	-168.029	0.042313	1.041310	-0.010756	-0.012051	0.070183	22.7425	-0.013070	-0.008143	-8.619120	NaN
566	1.000000	1.050596	7.37059e+06	-48789.1	1005.82	-29761.2	0.000000	0.000000	7.051253	2.337786	NaN	0.000000	0.001559	0.001620	28.0834	3.147835	0.001908	1649.96	10.4022	-169.667	1.065372	1.049245	-0.002765	-0.004116	2.337786	1649.96	-0.003827	-0.002667	-876.688	NaN
566	2.000000	1.057179	7.37059e+06	-48789.1	1005.82	-29761.2	0.000000	0.000000	7.058130	9.493744	NaN	0.000000	0.001639	0.001633	28.0828	9.534389	0.001595	5977.05	9.610113	-175.985	9.244087	1.056723	0.003818	0.003362	9.493744	5977.05	0.002627	0.002068	4589.92	120073
566	2.000000	1.059166	7.37059e+06	-48789.1	1005.82	-29761.2	0.000000	0.000000	7.060243	12.5759	NaN	0.000000	0.001592	0.001634	28.0829	11.5323	0.001671	6901.41	5.739456	-171.714	12.1382	1.058792	0.005805	0.005431	12.5759	6901.41	0.004438	0.003627	3467.61	104702
566	2.000000	1.061087	7.37059e+06	-48789.1	1005.82	-29761.2	0.000000	0.000000	7.062228	14.1265	NaN	0.000000	0.001579	0.001626	28.0829	13.4692	0.001686	7990.48	6.023390	-173.11	13.5007	1.060844	0.007726	0.007483	14.1265	7990.48	0.006400	0.005448	2593.05	98908.5
566	2.000000	1.063077	7.37059e+06	-48789.1	1005.82	-29761.2	0.000000	0.000000	7.064298	16.0869	NaN	0.000000	0.001581	0.001633	28.0829	16.5884	0.001993	8322.72	11.2102	-178.312	15.9737	1.062847	0.009716	0.009486	16.0869	8322.72	0.008266	0.007318	2198.38	88890.3
566	2.000000	1.065096	7.37059e+06	-48789.1	1005.82	-29761.2	0.000000	0.000000	7.066519	20.982	NaN	0.000000	0.001584	0.001638	28.0836	17.7715	0.001724	10306.3	2.298999	-173.557	21.0475	1.064781	0.011735	0.011420	20.982	10306.3	0.010208	0.009414	2228.9	97050.9
566	2.000000	1.067092	7.37059e+06	-48789.1	1005.82	-29761.2	0.000000	0.000000	7.068664	24.6126	NaN	0.000000	0.001619	0.001631	28.0831	20.6866	0.001835	11275.7	3.339484	-174.901	23.7987	1.066722	0.013731	0.013361	24.6126	11275.7	0.012094	0.011603	2121.28	95639.3
566	2.000000	1.069049	7.37059e+06	-48789.1	1005.82	-29761.2	0.000000	0.000000	7.070840	29.9353	NaN	0.000000	0.001579	0.001608	28.0832	22.5161	0.001798	12520.1	4.860275	-176.611	28.6898	1.068768	0.015688	0.015407	29.9353	12520.1	0.013895	0.013840	2162.94	97232.2
566	2.000000	1.071075	7.37059e+06	-48789.1	1005.82	-29761.2	0.000000	0.000000	7.072905	30.8886	NaN	0.000000	0.001589	0.001611	28.0829	24.021	0.001761	13642	7.145614	-179.462	30.6877	1.070737	0.017714	0.017377	30.8886	13642	0.016016	0.016664	1853.57	96550.8
566	2.000000	1.073053	7.37059e+06	-48789.1	1005.82	-29761.2	0.000000	0.000000	7.075157	37.5683	NaN	0.000000	0.001574	0.001617	28.0829	26.7106	0.001718	15544.9	4.931990	-179.48	37.5268	1.072746	0.019692	0.019385	37.5683	15544.9	0.017879	0.019319	1944.67	102182
566	2.000000	1.075084	7.37059e+06	-48789.1	1005.82	-29761.2	0.000000	0.000000	7.077466	44.3132	NaN	0.000000	0.001600	0.001651	28.0841	27.9853	0.001803	15525	8.454106	177.85	44.2358	1.074769	0.021724	0.021408	44.3132	15525	0.019583	0.021891	2024.26	95867.6
566	2.000000	1.077005	7.37059e+06	-48789.1	1005.82	-29761.2	0.000000	0.000000	7.079659	50.9356	NaN	0.000000	0.001593	0.001587	28.0832	29.4771	0.001764	16706.7	1.581764	-176.711	48.8354	1.076762	0.023644	0.023401	50.9356	16706.7	0.021358	0.024721	2060.44	97080.7
566	2.000000	1.079121	7.37059e+06	-48789.1	1005.82	-29761.2	0.000000	0.000000	7.081918	54.4103	NaN	0.000000	0.001587	0.001594	28.083	31.8635	0.001947	16366.6	8.491553	178.89	55.7717	1.078689	0.025760	0.025328	54.4103	16366.6	0.023267	0.027938	1947.52	89460.5
566	2.000000	1.081008	7.37059e+06	-48789.1	1005.82	-29761.2	0.000000	0.000000	7.084125	62.2009	NaN	0.000000	0.001592	0.001607	28.0823	32.4585	0.001667	19469	1.976854	-178.619	61.0208	1.080698	0.027647	0.027337	62.2009	19469	0.025251	0.031473	1976.3	100264
566	2.000000	1.083046	7.37059e+06	-48789.1	1005.82	-29761.2	0.000000	0.000000	7.086146	61.7726	NaN	0.000000	0.001590	0.001621	28.0817	36.8759	0.001779	20731.6	4.030507	178.596	60.758	1.082800	0.029685	0.029439	61.7726	20731.6	0.027451	0.035625	1733.96	100352
566	2.000000	1.085054	7.37059e+06	-48789.1	1005.82	-29761.2	0.000000	0.000000	7.088544	71.2567	NaN	0.000000	0.001587	0.001624	28.082	38.562	0.001900	20294	6.217741	176.384	72.2644	1.084704	0.031693	0.031343	71.2567	20294	0.029059	0.038817	1835.71	94108.9
566	2.000000	1.087001	7.37059e+06	-48789.1	1005.82	-29761.2	0.000000	0.000000	7.090913	81.5384	NaN	0.000000	0.001621	0.001582	28.0815	39.7551	0.001691	23504.2	3.382211	179.138	81.156	1.086641	0.033640	0.033280	81.5384	23504.2	0.031038	0.042923	1899.64	103651
566	2.000000	1.089040	7.37059e+06	-48789.1	1005.82	-29761.2	0.000000	0.000000	7.093230	88.2841	NaN	0.000000	0.001608	0.001622	28.0815	43.17	0.001893	22805	8.171918	174.26	87.9661	1.088689	0.035679	0.035328	88.2841	22805	0.032776	0.046693	1890.72	96421.8
566	2.000000	1.091043	7.37059e+06	-48789.1	1005.82	-29761.2	0.000000	0.000000	7.095437	93.2361	NaN	0.000000	0.001595	0.001591	28.0821	44.3863	0.001801	24648.1	5.934131	176.102	95.1689	1.090784	0.037682	0.037423	93.2361	24648.1	0.034845	0.051386	1814.43	99342.2
566	2.000000	1.093031	7.37059e+06	-48789.1	1005.82	-29761.2	0.000000	0.000000	7.097825	102.975	NaN	0.000000	0.001603	0.001577	28.0817	46.7151	0.001758	26573.7	4.586228	176.306	103.902	1.092743	0.039670	0.039382	102.975	26573.7	0.036764	0.055932	1841.06	102658
566	2.000000	1.094983	7.37059e+06	-48789.1	1005.82	-29761.2	0.000000	0.000000	7.100130	111.563	NaN	0.000000	0.001630	0.001592	28.0821	47.1121	0.001799	26187.1	2.230342	179.461	110.176	1.094609	0.041622	0.041248	111.563	26187.1	0.038427	0.060026	1858.56	97654
566	2.000000	1.097001	7.37059e+06	-48789.1	1005.82	-29761.2	0.000000	0.000000	7.102546	121.243	NaN	0.000000	0.001593	0.001609	28.0819	48.9303	0.001743	28071.8	3.107484	177.748	120.103	1.096640	0.043640	0.043279	121.243	28071.8	0.040401	0.065068	1863.32	100545
566	2.000000	1.099021	7.37059e+06	-48789.1	1005.82	-29761.2	0.000000	0.000000	7.105019	132.264	NaN	0.000000	0.001595	0.001635	28.0818	52.3457	0.001737	30142.2	8.277381	172.299	131.365	1.098652	0.045660	0.045291	132.264	30142.2	0.042369	0.070295	1881.55	103869
566	2.000000	1.100998	7.37059e+06	-48789.1	1005.82	-29761.2	0.000000	0.000000	7.107205	137.353	NaN	0.000000	0.001583	0.001631	28.082	52.8901	0.001730	30576	1.543392	178.245	137.607	1.100715	0.047637	0.047354	137.353	30576	0.044268	0.075523	1818.7	101652
566	2.000000	1.102981	7.37059e+06	-48789.1	1005.82	-29761.2	0.000000	0.000000	7.109730	150.541	NaN	0.000000	0.001605	0.001577	28.0817	56.5942	0.001856	30488.2	5.479879	174.556	147.106	1.102645	0.049620	0.049284	150.541	30488.2	0.045917	0.080211	1876.82	98353.3
566	2.000000	1.105046	7.37059e+06	-48789.1	1005.82	-29761.2	0.000000	0.000000	7.112146	159.06	NaN	0.000000	0.001585	0.001585	28.082	57.1402	0.001833	31166	4.758421	174.86	161.762	1.104712	0.051685	0.051351	159.06	31166	0.047858	0.085907	1851.55	97149.7
566	2.000000	1.106988	7.37059e+06	-48789.1	1005.82	-29761.2	0.000000	0.000000	7.114618	171.96	NaN	0.000000	0.001562	0.001584	28.0817	59.5027	0.001839	32354.6	3.894971	175.899	170.131	1.106719	0.053627	0.053358	171.96	32354.6	0.049641	0.091306	1883.34	97827.2
566	2.000000	1.109032	7.37059e+06	-48789.1	1005.82	-29761.2	0.000000	0.000000	7.117086	182.249	NaN	0.000000	0.001578	0.001590	28.0818	61.1367	0.001814	33702.1	7.698258	172.431	181.788	1.108503	0.055672	0.055142	182.249	33702.1	0.051616	0.097473	1869.73	98625
566	2.000000	1.111002	7.37059e+06	-48789.1	1005.82	-29761.2	0.000000	0.000000	7.119331	188.941	NaN	0.000000	0.001579	0.001605	28.082	62.5385	0.001726	36241.2	2.657806	175.359	188.033	1.110744	0.057641	0.057383	188.941	36241.2	0.053731	0.104294	1811.62	102529
566	2.000000	1.112950	7.37059e+06	-48789.1	1005.82	-29761.2	0.000000	0.000000	7.121987	206.171	NaN	0.000000	0.001568	0.001594	28.0817	65.025	0.001831	35513.1	2.082877	176.398	202.506	1.112756	0.059589	0.059395	206.171	35513.1	0.055235	0.109279	1886.64	98150.6
566	2.000000	1.114975	7.37059e+06	-48789.1	1005.82	-29761.2	0.000000	0.000000	7.124344	214.258	NaN	0.000000	0.001594	0.001634	28.0821	66.0999	0.001688	39156.2	4.589795	173.215	212.348	1.114619	0.061614	0.061258	214.258	39156.2	0.057510	0.117031	1830.77	104574
566	2.000000	1.117010	7.37059e+06	-48789.1	1005.82	-29761.2	0.000000	0.000000	7.126704	222.171	NaN	0.000000	0.001616	0.001669	28.0827	69.3242	0.001777	39016.9	4.224982	173.657	222.906	1.116674	0.063649	0.063313	222.171	39016.9	0.059378	0.123587	1797.68	101400
566	2.000000	1.118999	7.37059e+06	-48789.1	1005.82	-29761.2	0.000000	0.000000	7.129175	233.858	NaN	0.000000	0.001593	0.001658	28.0832	71.5946	0.001750	40913.3	5.031951	172.754	233.842	1.118686	0.065638	0.065325	233.858	40913.3	0.061351	0.130699	1789.29	103396
566	2.000000	1.120981	7.37059e+06	-48789.1	1005.82	-29761.2	0.000000	0.000000	7.131749	248.274	NaN	0.000000	0.001581	0.001626	28.0832	73.25	0.001905	38459.1	5.779016	172.536	248.101	1.120636	0.067620	0.067275	248.274	38459.1	0.062778	0.135958	1826.11	95294.9
566	2.000000	1.122935	7.37059e+06	-48789.1	1005.82	-29761.2	0.000000	0.000000	7.134273	262.138	NaN	0.000000	0.001550	0.001639	28.0829	74.2871	0.001752	42392.8	5.591139	172.362	260	1.122561	0.069574	0.069200	262.138	42392.8	0.064936	0.144102	1819.11	102030
566	2.000000	1.125000	7.37059e+06	-48789.1	1005.82	-29761.2	0.000000	0.000000	7.136818	273.806	NaN	0.000000	0.001557	0.001655	28.0831	75.1828	0.001719	43733.2	5.409830	171.321	274.457	1.124672	0.071639	0.071311	273.806	43733.2	0.066943	0.151876	1802.83	102528
566	2.000000	1.126936	7.37059e+06	-48789.1	1005.82	-29761.2	0.000000	0.000000	7.139334	287.919	NaN	0.000000	0.001554	0.001622	28.083	77.757	0.001835	42382.3	2.070848	175.252	283.514	1.126705	0.073575	0.073344	287.919	42382.3	0.068480	0.157959	1822.74	97428.2
566	2.000000	1.128961	7.37059e+06	-48789.1	1005.82	-29761.2	0.000000	0.000000	7.141753	297.501	NaN	0.000000	0.001593	0.001596	28.0832	80.7503	0.001943	41556.1	7.153638	170.144	295.667	1.128602	0.075600	0.075241	297.501	41556.1	0.070231	0.165028	1802.73	93460.6
566	2.000000	1.130995	7.37059e+06	-48789.1	1005.82	-29761.2	0.000000	0.000000	7.144313	310.282	NaN	0.000000	0.001565	0.001667	28.0832	80.912	0.001785	45327	2.859653	174.089	309.925	1.130710	0.077634	0.077349	310.282	45327	0.072500	0.174406	1779.08	99163
566	2.000000	1.132947	7.37059e+06	-48789.1	1005.82	-29761.2	0.000000	0.000000	7.146913	326.04	NaN	0.000000	0.001564	0.001653	28.083	83.0846	0.001651	50337.8	4.025173	172.175	326.171	1.132746	0.079587	0.079385	326.04	50337.8	0.074729	0.183854	1773.36	107258
566	2.000000	1.134941	7.37059e+06	-48789.1	1005.82	-29761.2	0.000000	0.000000	7.149307	335.792	NaN	0.000000	0.001546	0.001662	28.0831	83.2335	0.001763	47209.4	2.165972	174.274	332.487	1.134707	0.081580	0.081346	335.792	47209.4	0.076245	0.190416	1763.46	98843.8
566	2.000000	1.136908	7.37059e+06	-48789.1	1005.82	-29761.2	0.000000	0.000000	7.152070	355.153	NaN	0.000000	0.001540	0.001639	28.083	86.8096	0.001773	48963.2	5.886575	170.605	352.331	1.136597	0.083547	0.083236	355.153	48963.2	0.078107	0.198620	1788.11	100376
566	2.000000	1.139040	7.37059e+06	-48789.1	1005.82	-29761.2	0.000000	0.000000	7.154733	368.048	NaN	0.000000	0.001566	0.001644	28.0832	88.1261	0.001752	50295.9	5.838805	171.455	368.731	1.138590	0.085679	0.085229	368.048	50295.9	0.080191	0.207996	1769.5	100758
566	2.000000	1.140941	7.37059e+06	-48789.1	1005.82	-29761.2	0.000000	0.000000	7.157191	381.604	NaN	0.000000	0.001616	0.001598	28.083	89.5019	0.001863	48044.6	1.498276	175.448	381.271	1.140608	0.087580	0.087247	381.604	48044.6	0.081623	0.214555	1778.59	94765.2
566	2.000000	1.142936	7.37059e+06	-48789.1	1005.82	-29761.2	0.000000	0.000000	7.159945	400.047	NaN	0.000000	0.001567	0.001645	28.0828	92.07	0.001853	49690	6.065542	170.226	398.89	1.142607	0.089575	0.089246	400.047	49690	0.083537	0.223472	1790.14	96035.1
566	2.000000	1.144938	7.37059e+06	-48789.1	1005.82	-29761.2	0.000000	0.000000	7.162697	418.302	NaN	0.000000	0.001558	0.001628	28.0831	92.0387	0.001836	50124.6	4.647503	171.968	416.439	1.144543	0.091577	0.091183	418.302	50124.6	0.085318	0.231923	1803.62	95093.8
566	2.000000	1.147004	7.37059e+06	-48789.1	1005.82	-29761.2	0.000000	0.000000	7.165086	426.149	NaN	0.000000	0.001549	0.001611	28.0826	96.436	0.001853	52049.4	7.575348	168.432	427.473	1.146728	0.093643	0.093367	426.149	52049.4	0.087503	0.242484	1757.43	96571.1
566	2.000000	1.148954	7.37059e+06	-48789.1	1005.82	-29761.2	0.000000	0.000000	7.167773	444.085	NaN	0.000000	0.001579	0.001611	28.0828	98.6081	0.001856	53130.7	5.499314	170.572	445.109	1.148608	0.095593	0.095248	444.085	53130.7	0.089324	0.251460	1766.03	96801.9
566	2.000000	1.150855	7.37059e+06	-48789.1	1005.82	-29761.2	0.000000	0.000000	7.170427	462.377	NaN	0.000000	0.001559	0.001623	28.0816	99.1091	0.001706	58105.2	3.201588	172.204	458.606	1.150575	0.097494	0.097214	462.377	58105.2	0.091526	0.262514	1761.34	103612
566	2.000000	1.152921	7.37059e+06	-48789.1	1005.82	-29761.2	0.000000	0.000000	7.173090	476.916	NaN	0.000000	0.001573	0.001633	28.0818	102.599	0.001708	60063.6	5.412003	169.775	473.547	1.152522	0.099560	0.099161	476.916	60063.6	0.093605	0.273155	1745.96	104998
566	2.000000	1.154948	7.37059e+06	-48789.1	1005.82	-29761.2	0.000000	0.000000	7.175598	488.602	NaN	0.000000	0.001551	0.001621	28.0821	103.598	0.001719	60263.4	7.956544	167.289	488.071	1.154548	0.101587	0.101187	488.602	60263.4	0.095506	0.283058	1726.16	103488