File: remote_trans/data/nanoindenter/0828-1/data/Data_2025-08-06,11h17m57s/2025-07-22_16-23-58_1_364.txt
2025-07-22, 16:23:58, 1
Index	Phase	Displacement	Time	Pos X	Pos Y	Pos Z	Rot A	Rot B	Piezo Z	Force A	Force B	Gripper	Voltage A	Voltage B	Temperature	Amplitude force	Amplitude pos	Stiffness	Phase shift	Phase excitation	Force A raw	Displacement raw	HMax	HMax raw	Real Force	Real Stiffness	Contact Depth	Area	Hardness	Reduced Mod.
[#]	[#]	[um]	[s]	[um]	[um]	[um]	[m°]	[m°]	[um]	[uN]	[uN]	[V]	[V]	[V]	[°C]	[uN]	[um]	[N/m]	[°]	[°]	[uN]	[um]	[um]	[um]	[uN]	[N/m]	[um]	[um^2]	[MPa]	[MPa]
364	1.000000	0.002552	7.36862e+06	-56839.1	955.819	-29738.3	0.000000	0.000000	6.002800	0.015509	NaN	0.000000	0.001677	0.001709	28.0808	0.052726	0.001030	51.1999	-144.631	-169.064	-0.072894	0.001289	-1.095686	-1.096948	0.015509	51.1999	-1.095913	-4.417730E+14	-3.510523E-17	NaN
364	1.000000	0.012597	7.36862e+06	-56839.1	955.819	-29738.3	0.000000	0.000000	6.012845	-0.016757	NaN	0.000000	0.001663	0.001749	28.0802	0.011455	0.001283	8.931264	12.4581	14.4911	-0.055497	0.011210	-1.085640	-1.087028	-0.016757	8.931264	-1.084233	-3.078709E+14	5.442708E-17	NaN
364	1.000000	0.022514	7.36862e+06	-56839.1	955.818	-29738.3	0.000000	0.000000	6.022762	-0.010018	NaN	0.000000	0.001649	0.001721	28.0805	0.094708	0.001782	53.1367	152.705	-167.192	-0.044677	0.021201	-1.075723	-1.077037	-0.010018	53.1367	-1.075582	-2.355989E+14	4.252197E-17	NaN
364	1.000000	0.032507	7.36862e+06	-56839.1	955.818	-29738.3	0.000000	0.000000	6.032755	0.012831	NaN	0.000000	0.001679	0.001737	28.0803	0.015609	0.002016	7.741920	128.978	16.5028	0.002921	0.031123	-1.065731	-1.067114	0.012831	7.741920	-1.066974	-1.805232E+14	-7.107472E-17	NaN
364	1.000000	0.042512	7.36862e+06	-56839.1	955.819	-29738.3	0.000000	0.000000	6.042759	-0.009373	NaN	0.000000	0.001655	0.001729	28.0806	0.158040	0.001969	80.2806	-71.0671	-166.428	-0.023107	0.041183	-1.055726	-1.057054	-0.009373	80.2806	-1.055638	-1.271150E+14	7.373939E-17	NaN
364	1.000000	0.052471	7.36862e+06	-56839.1	955.818	-29738.3	0.000000	0.000000	6.052718	-0.028199	NaN	0.000000	0.001666	0.001707	28.0792	0.055694	0.002067	26.9497	102.841	14.826	-0.023554	0.051107	-1.045766	-1.047131	-0.028199	26.9497	-1.044981	-9.139983E+13	3.085233E-16	NaN
364	1.000000	0.062518	7.36862e+06	-56839.1	955.819	-29738.3	0.000000	0.000000	6.062763	-0.077126	NaN	0.000000	0.001667	0.001722	28.0791	0.108500	0.001980	54.7948	-4.325923	-167.388	-0.095821	0.061241	-1.035720	-1.036996	-0.077126	54.7948	-1.034664	-6.640618E+13	1.161429E-15	NaN
364	1.000000	0.072496	7.36862e+06	-56839.1	955.818	-29738.3	0.000000	0.000000	6.072742	-0.035751	NaN	0.000000	0.001620	0.001725	28.079	0.094279	0.002138	44.1049	105.684	13.7625	-0.059856	0.071142	-1.025741	-1.027095	-0.035751	44.1049	-1.025133	-4.943303E+13	7.232220E-16	NaN
364	1.000000	0.082509	7.36862e+06	-56839.1	955.818	-29738.3	0.000000	0.000000	6.082756	-0.011184	NaN	0.000000	0.001600	0.001716	28.0792	0.098346	0.001998	49.2293	-163.455	-165.336	0.041971	0.081248	-1.015729	-1.016989	-0.011184	49.2293	-1.015558	-3.674399E+13	3.043724E-16	NaN
364	1.000000	0.092507	7.36862e+06	-56839.1	955.818	-29738.3	0.000000	0.000000	6.092756	0.030128	NaN	0.000000	0.001647	0.001719	28.0791	0.069422	0.001955	35.5077	30.6123	15.6839	0.023929	0.091160	-1.005731	-1.007078	0.030128	35.5077	-1.006367	-2.763663E+13	-1.090147E-15	NaN
364	1.000000	0.102504	7.36862e+06	-56839.1	955.819	-29738.3	0.000000	0.000000	6.102750	-0.050431	NaN	0.000000	0.001656	0.001709	28.079	0.064131	0.002097	30.578	-167.052	-168.444	-0.098728	0.101192	-0.995733	-0.997046	-0.050431	30.578	-0.994497	-1.912787E+13	2.636494E-15	NaN
364	1.000000	0.112497	7.36862e+06	-56839.1	955.819	-29738.3	0.000000	0.000000	6.112745	-0.008787	NaN	0.000000	0.001673	0.001720	28.0792	0.033842	0.001915	17.6708	-64.0296	16.5362	-0.029561	0.111153	-0.985740	-0.987084	-0.008787	17.6708	-0.985367	-1.441160E+13	6.097226E-16	NaN
364	1.000000	0.122545	7.36862e+06	-56839.1	955.818	-29738.3	0.000000	0.000000	6.122790	-0.078343	NaN	0.000000	0.001681	0.001695	28.0793	0.051816	0.001995	25.9733	-99.5796	-164.784	-0.047778	0.121213	-0.975692	-0.977024	-0.078343	25.9733	-0.973430	-9.951539E+12	7.872456E-15	NaN
364	1.000000	0.132535	7.36862e+06	-56839.1	955.818	-29738.3	0.000000	0.000000	6.132782	-0.017377	NaN	0.000000	0.001658	0.001724	28.0796	0.038563	0.002014	19.144	111.516	15.506	-0.028950	0.131183	-0.965702	-0.967054	-0.017377	19.144	-0.965021	-7.665874E+12	2.266849E-15	NaN
364	1.000000	0.142552	7.36862e+06	-56839.1	955.818	-29738.3	0.000000	0.000000	6.142800	-0.003503	NaN	0.000000	0.001642	0.001699	28.079	0.123496	0.002023	61.0373	60.5093	-166.957	-0.017292	0.141121	-0.955685	-0.957116	-0.003503	61.0373	-0.955642	-5.729438E+12	6.114633E-16	NaN
364	1.000000	0.152510	7.36862e+06	-56839.1	955.818	-29738.3	0.000000	0.000000	6.152756	-0.057268	NaN	0.000000	0.001651	0.001718	28.0792	0.072611	0.002026	35.8332	-5.619871	16.7587	0.007939	0.151194	-0.945727	-0.947044	-0.057268	35.8332	-0.944529	-4.057240E+12	1.411495E-14	NaN
364	1.000000	0.162537	7.36862e+06	-56839.1	955.818	-29738.3	0.000000	0.000000	6.162783	-0.039346	NaN	0.000000	0.001694	0.001724	28.079	0.104146	0.001970	52.8686	-162.493	-168.79	-0.052674	0.161217	-0.935700	-0.937021	-0.039346	52.8686	-0.935142	-3.031030E+12	1.298100E-14	NaN
364	1.000000	0.172543	7.36862e+06	-56839.1	955.817	-29738.3	0.000000	0.000000	6.172791	0.009314	NaN	0.000000	0.001689	0.001744	28.079	0.132238	0.001918	68.9542	4.327298	15.1264	-0.006652	0.171173	-0.925694	-0.927065	0.009314	68.9542	-0.925796	-2.266990E+12	-4.108443E-15	NaN
364	1.000000	0.182556	7.36862e+06	-56839.1	955.819	-29738.3	0.000000	0.000000	6.182804	-0.009084	NaN	0.000000	0.001655	0.001735	28.0792	0.031716	0.001928	16.4486	-78.3306	-168.357	0.017550	0.181233	-0.915681	-0.917005	-0.009084	16.4486	-0.915267	-1.634168E+12	5.558629E-15	NaN
364	1.000000	0.192535	7.36862e+06	-56839.1	955.818	-29738.3	0.000000	0.000000	6.192783	-0.000982	NaN	0.000000	0.001673	0.001729	28.0805	0.049558	0.001915	25.8742	171.231	12.1773	-0.018559	0.191231	-0.905702	-0.907007	-0.000982	25.8742	-0.905674	-1.212610E+12	8.102000E-16	NaN
364	1.000000	0.202586	7.36862e+06	-56839.1	955.818	-29738.3	0.000000	0.000000	6.202831	-0.067175	NaN	0.000000	0.001642	0.001711	28.0803	0.102285	0.002034	50.2983	-84.4354	-162.596	-0.071296	0.201239	-0.895652	-0.896999	-0.067175	50.2983	-0.894650	-8.605303E+11	7.806288E-14	NaN
364	1.000000	0.212552	7.36862e+06	-56839.1	955.819	-29738.3	0.000000	0.000000	6.212797	-0.076369	NaN	0.000000	0.001645	0.001766	28.0805	0.059616	0.002020	29.5176	-134.964	14.4267	-0.016955	0.211212	-0.885686	-0.887025	-0.076369	29.5176	-0.883745	-6.128482E+11	1.246128E-13	NaN
364	1.000000	0.222573	7.36862e+06	-56839.1	955.818	-29738.3	0.000000	0.000000	6.222816	-0.109190	NaN	0.000000	0.001675	0.001702	28.0803	0.142868	0.002061	69.3069	171.539	-163.526	-0.090392	0.221241	-0.875665	-0.876997	-0.109190	69.3069	-0.874483	-4.592971E+11	2.377327E-13	NaN
364	1.000000	0.232610	7.36862e+06	-56839.1	955.818	-29738.3	0.000000	0.000000	6.232854	-0.073799	NaN	0.000000	0.001641	0.001699	28.0804	0.176691	0.002004	88.1804	-146.341	16.9504	-0.081888	0.231210	-0.865628	-0.867028	-0.073799	88.1804	-0.865000	-3.418148E+11	2.159046E-13	NaN
364	1.000000	0.242570	7.36862e+06	-56839.1	955.819	-29738.3	0.000000	0.000000	6.242818	0.002183	NaN	0.000000	0.001626	0.001678	28.0802	0.126069	0.001890	66.6975	-35.1629	-165.865	-0.112117	0.241304	-0.855667	-0.856933	0.002183	66.6975	-0.855692	-2.557427E+11	-8.534472E-15	NaN
364	1.000000	0.252589	7.36862e+06	-56839.1	955.818	-29738.3	0.000000	0.000000	6.252833	-0.082250	NaN	0.000000	0.001620	0.001714	28.0804	0.079400	0.001949	40.7484	126.333	13.3969	-0.079451	0.251230	-0.845649	-0.847007	-0.082250	40.7484	-0.844135	-1.783634E+11	4.611350E-13	NaN
364	1.000000	0.262618	7.36862e+06	-56839.1	955.819	-29738.3	0.000000	0.000000	6.262865	-0.002343	NaN	0.000000	0.001619	0.001753	28.0805	0.115707	0.001923	60.1733	-174.036	-169.162	-0.001100	0.261292	-0.835620	-0.836946	-0.002343	60.1733	-0.835591	-1.366311E+11	1.714851E-14	NaN
364	1.000000	0.272595	7.36862e+06	-56839.1	955.818	-29738.3	0.000000	0.000000	6.272841	-0.037166	NaN	0.000000	0.001654	0.001726	28.0803	0.091443	0.002091	43.7414	-93.2305	14.1097	0.018153	0.271268	-0.825643	-0.826970	-0.037166	43.7414	-0.825006	-9.819356E+10	3.785022E-13	NaN
364	1.000000	0.282643	7.36862e+06	-56839.1	955.82	-29738.3	0.000000	0.000000	6.282889	-0.052272	NaN	0.000000	0.001646	0.001732	28.0803	0.057452	0.001939	29.6363	102.987	-163.859	-0.024539	0.281247	-0.815594	-0.816991	-0.052272	29.6363	-0.814272	-7.022959E+10	7.443012E-13	NaN
364	1.000000	0.292575	7.36862e+06	-56839.1	955.818	-29738.3	0.000000	0.000000	6.292820	-0.049715	NaN	0.000000	0.001642	0.001730	28.0803	0.084472	0.001996	42.3154	-178.79	13.0787	0.062174	0.291225	-0.805663	-0.807012	-0.049715	42.3154	-0.804782	-5.221105E+10	9.521950E-13	NaN
364	1.000000	0.302579	7.36862e+06	-56839.1	955.819	-29738.3	0.000000	0.000000	6.302826	-0.016218	NaN	0.000000	0.001632	0.001767	28.0806	0.088093	0.001961	44.9295	-109.47	-167.171	-0.026814	0.301320	-0.795659	-0.796918	-0.016218	44.9295	-0.795388	-3.892685E+10	4.166282E-13	NaN
364	1.000000	0.312613	7.36862e+06	-56839.1	955.819	-29738.3	0.000000	0.000000	6.312860	-0.022797	NaN	0.000000	0.001624	0.001737	28.0804	0.074411	0.001974	37.688	-104.028	13.5001	-0.105845	0.311281	-0.785625	-0.786957	-0.022797	37.688	-0.785171	-2.828065E+10	8.060902E-13	NaN
364	1.000000	0.322612	7.36862e+06	-56839.1	955.818	-29738.3	0.000000	0.000000	6.322857	-0.067027	NaN	0.000000	0.001676	0.001732	28.0795	0.086380	0.001962	44.0293	171.017	-166.827	-0.051639	0.321246	-0.775625	-0.776991	-0.067027	44.0293	-0.774484	-2.024220E+10	3.311239E-12	NaN
364	1.000000	0.332592	7.36862e+06	-56839.1	955.818	-29738.3	0.000000	0.000000	6.332839	-0.009525	NaN	0.000000	0.001648	0.001782	28.0794	0.052476	0.002020	25.9782	-48.4917	13.9557	-0.034453	0.331250	-0.765646	-0.766988	-0.009525	25.9782	-0.765371	-1.521807E+10	6.258994E-13	NaN
364	1.000000	0.342620	7.36862e+06	-56839.1	955.818	-29738.3	0.000000	0.000000	6.342867	-0.015119	NaN	0.000000	0.001639	0.001793	28.0794	0.041009	0.001887	21.7309	102.414	-163.972	-0.011464	0.341359	-0.755618	-0.756878	-0.015119	21.7309	-0.755096	-1.102999E+10	1.370723E-12	NaN
364	1.000000	0.352623	7.36862e+06	-56839.1	955.819	-29738.3	0.000000	0.000000	6.352870	-0.030904	NaN	0.000000	0.001634	0.001760	28.0794	0.025111	0.001980	12.6825	56.2126	13.8534	-0.055514	0.351272	-0.745614	-0.746966	-0.030904	12.6825	-0.743787	-7.737942E+9	3.993867E-12	NaN
364	1.000000	0.362642	7.36862e+06	-56839.1	955.818	-29738.3	0.000000	0.000000	6.362890	-0.006607	NaN	0.000000	0.001688	0.001756	28.0793	0.100155	0.001942	51.5628	-48.5087	-168.474	0.009115	0.361325	-0.735595	-0.736913	-0.006607	51.5628	-0.735499	-5.966826E+9	1.107354E-12	NaN
364	1.000000	0.372629	7.36862e+06	-56839.1	955.818	-29738.3	0.000000	0.000000	6.372877	0.005414	NaN	0.000000	0.001663	0.001720	28.0794	0.081231	0.002045	39.7308	93.6374	13.5056	-0.108047	0.371253	-0.725609	-0.726985	0.005414	39.7308	-0.725711	-4.388806E+9	-1.233694E-12	NaN
364	1.000000	0.382646	7.36862e+06	-56839.1	955.818	-29738.3	0.000000	0.000000	6.382893	-0.001812	NaN	0.000000	0.001684	0.001740	28.0793	0.094255	0.001924	48.9962	-175.857	-168.2	-0.064374	0.381383	-0.715592	-0.716854	-0.001812	48.9962	-0.715564	-3.191314E+9	5.676745E-13	NaN
364	1.000000	0.392641	7.36862e+06	-56839.1	955.818	-29738.3	0.000000	0.000000	6.392889	-0.003474	NaN	0.000000	0.001667	0.001753	28.0792	0.061372	0.001978	31.0232	-177.386	12.9149	0.002576	0.391315	-0.705597	-0.706923	-0.003474	31.0232	-0.705513	-2.327016E+9	1.492853E-12	NaN
364	1.000000	0.402642	7.36862e+06	-56839.1	955.819	-29738.3	0.000000	0.000000	6.402888	-0.038468	NaN	0.000000	0.001637	0.001722	28.0791	0.011876	0.001978	6.002741	112.555	-166.252	-0.069201	0.401334	-0.695596	-0.696904	-0.038468	6.002741	-0.690790	-1.464565E+9	2.626582E-11	NaN
364	1.000000	0.412642	7.36862e+06	-56839.1	955.818	-29738.3	0.000000	0.000000	6.412890	0.005820	NaN	0.000000	0.001647	0.001721	28.0794	0.079930	0.002094	38.1623	9.411047	10.1111	-0.024506	0.411314	-0.685595	-0.686924	0.005820	38.1623	-0.685709	-1.248167E+9	-4.662514E-12	NaN
364	1.000000	0.422683	7.36862e+06	-56839.1	955.818	-29738.3	0.000000	0.000000	6.422926	-0.114699	NaN	0.000000	0.001685	0.001720	28.0792	0.056993	0.002105	27.0756	22.7686	-163.591	-0.131806	0.421368	-0.675554	-0.676869	-0.114699	27.0756	-0.672377	-8.202072E+8	1.398415E-10	NaN
364	1.000000	0.432652	7.36862e+06	-56839.1	955.818	-29738.3	0.000000	0.000000	6.432895	-0.111456	NaN	0.000000	0.001637	0.001729	28.0792	0.051186	0.002023	25.3069	-41.5495	11.6405	-0.088100	0.431257	-0.665585	-0.666980	-0.111456	25.3069	-0.662282	-5.966601E+8	1.868000E-10	NaN
364	1.000000	0.442685	7.36862e+06	-56839.1	955.819	-29738.3	0.000000	0.000000	6.442928	-0.106801	NaN	0.000000	0.001661	0.001710	28.0791	0.023343	0.002003	11.6518	88.0243	-164.321	-0.098418	0.441361	-0.655553	-0.656876	-0.106801	11.6518	-0.648678	-3.884299E+8	2.749569E-10	NaN
364	1.000000	0.452665	7.36862e+06	-56839.1	955.818	-29738.3	0.000000	0.000000	6.452914	0.023585	NaN	0.000000	0.001637	0.001731	28.0791	0.037708	0.001938	19.4571	132.405	8.818390	-0.101336	0.451355	-0.645572	-0.646882	0.023585	19.4571	-0.646481	-3.624027E+8	-6.508029E-11	NaN
364	1.000000	0.462664	7.36862e+06	-56839.1	955.818	-29738.3	0.000000	0.000000	6.462910	-0.043429	NaN	0.000000	0.001671	0.001774	28.0803	0.050641	0.002037	24.8578	125.402	-165.624	-0.068793	0.461372	-0.635574	-0.636866	-0.043429	24.8578	-0.634263	-2.463531E+8	1.762881E-10	NaN
364	1.000000	0.472719	7.36862e+06	-56839.1	955.819	-29738.3	0.000000	0.000000	6.472965	-0.050792	NaN	0.000000	0.001648	0.001728	28.08	0.087055	0.002021	43.0668	-65.0384	12.3762	-0.008765	0.471273	-0.625518	-0.626965	-0.050792	43.0668	-0.624634	-1.816819E+8	2.795629E-10	NaN
364	1.000000	0.482721	7.36862e+06	-56839.1	955.818	-29738.3	0.000000	0.000000	6.482965	-0.083733	NaN	0.000000	0.001694	0.001730	28.0804	0.040579	0.001974	20.5603	-44.9196	-165.622	-0.003436	0.481350	-0.615517	-0.616887	-0.083733	20.5603	-0.612462	-1.235909E+8	6.774988E-10	NaN
364	1.000000	0.492705	7.36862e+06	-56839.1	955.818	-29738.3	0.000000	0.000000	6.492949	-0.086642	NaN	0.000000	0.001625	0.001737	28.0804	0.102519	0.001987	51.5913	113.249	13.2961	-0.128460	0.491344	-0.605532	-0.606894	-0.086642	51.5913	-0.604273	-9.534434E+7	9.087263E-10	NaN
364	1.000000	0.502713	7.36862e+06	-56839.1	955.818	-29738.3	0.000000	0.000000	6.502958	-0.063460	NaN	0.000000	0.001646	0.001724	28.0803	0.017496	0.001997	8.761040	174.922	-170.554	0.000790	0.501374	-0.595524	-0.596863	-0.063460	8.761040	-0.590092	-6.080391E+7	1.043688E-9	NaN
364	1.000000	0.512722	7.36862e+06	-56839.1	955.818	-29738.3	0.000000	0.000000	6.512967	-0.058767	NaN	0.000000	0.001615	0.001751	28.0801	0.056506	0.002088	27.0586	-158.368	15.1719	-0.087943	0.511326	-0.585516	-0.586911	-0.058767	27.0586	-0.583887	-4.993004E+7	1.176989E-9	NaN
364	1.000000	0.522695	7.36862e+06	-56839.1	955.819	-29738.3	0.000000	0.000000	6.522943	0.001171	NaN	0.000000	0.001659	0.001767	28.0804	0.099707	0.002119	47.0524	138.681	-166.997	-0.088100	0.521455	-0.575543	-0.576783	0.001171	47.0524	-0.575561	-3.832216E+7	-3.054683E-11	NaN
364	1.000000	0.532703	7.36862e+06	-56839.1	955.818	-29738.3	0.000000	0.000000	6.532947	-0.089227	NaN	0.000000	0.001674	0.001736	28.0803	0.019076	0.001945	9.807189	-72.7274	13.2535	-0.100639	0.531324	-0.565535	-0.566913	-0.089227	9.807189	-0.558711	-2.241555E+7	3.980583E-9	NaN
364	1.000000	0.542716	7.36862e+06	-56839.1	955.818	-29738.3	0.000000	0.000000	6.542957	-0.175840	NaN	0.000000	0.001705	0.001701	28.0803	0.067112	0.001912	35.0956	166.269	-163.331	-0.212442	0.541440	-0.555521	-0.556798	-0.175840	35.0956	-0.551763	-1.796291E+7	9.789070E-9	NaN
364	1.000000	0.552711	7.36862e+06	-56839.1	955.817	-29738.3	0.000000	0.000000	6.552958	-0.029169	NaN	0.000000	0.001662	0.001690	28.0805	0.082409	0.002113	39.0012	165.424	14.6719	0.030597	0.551321	-0.545526	-0.546916	-0.029169	39.0012	-0.544965	-1.446106E+7	2.017096E-9	NaN
364	1.000000	0.562725	7.36862e+06	-56839.1	955.818	-29738.3	0.000000	0.000000	6.562972	-0.021777	NaN	0.000000	0.001690	0.001730	28.0806	0.056141	0.001999	28.0788	179.952	-164.963	-0.043706	0.561431	-0.535512	-0.536807	-0.021777	28.0788	-0.534931	-1.049611E+7	2.074808E-9	NaN
364	1.000000	0.572719	7.36862e+06	-56839.1	955.818	-29738.3	0.000000	0.000000	6.572967	-0.002030	NaN	0.000000	0.001683	0.001711	28.0804	0.062145	0.001913	32.4862	-162.637	16.8392	-0.044626	0.571344	-0.525518	-0.526893	-0.002030	32.4862	-0.525471	-7.75645e+06	2.617687E-10	NaN
364	1.000000	0.582712	7.36862e+06	-56839.1	955.818	-29738.3	0.000000	0.000000	6.582958	-0.045739	NaN	0.000000	0.001678	0.001705	28.0806	0.049406	0.001979	24.9675	38.2926	-166.337	-0.025987	0.581367	-0.515525	-0.516871	-0.045739	24.9675	-0.514151	-5.39787e+06	8.473548E-9	NaN
364	1.000000	0.592721	7.36862e+06	-56839.1	955.817	-29738.3	0.000000	0.000000	6.592966	-0.056389	NaN	0.000000	0.001680	0.001758	28.0805	0.013468	0.002017	6.677818	170.689	14.5476	-0.044031	0.591391	-0.505517	-0.506847	-0.056389	6.677818	-0.499184	-3.33908e+06	1.688758E-8	NaN
364	1.000000	0.602734	7.36862e+06	-56839.1	955.818	-29738.3	0.000000	0.000000	6.602978	-0.091908	NaN	0.000000	0.001699	0.001717	28.0792	0.070527	0.002129	33.1248	-131.775	-167.143	-0.058963	0.601380	-0.495504	-0.496857	-0.091908	33.1248	-0.493423	-2.77464e+06	3.312413E-8	NaN
364	1.000000	0.612712	7.36862e+06	-56839.1	955.817	-29738.3	0.000000	0.000000	6.612958	-0.031997	NaN	0.000000	0.001690	0.001726	28.079	0.032592	0.001984	16.427	133.876	13.0203	-0.109832	0.611397	-0.485526	-0.486841	-0.031997	16.427	-0.484065	-2.05312e+06	1.558440E-8	NaN
364	1.000000	0.622735	7.36862e+06	-56839.1	955.819	-29738.3	0.000000	0.000000	6.622981	-0.022839	NaN	0.000000	0.001702	0.001788	28.079	0.047937	0.002027	23.6547	5.460421	-168.742	-0.100014	0.621393	-0.475503	-0.476844	-0.022839	23.6547	-0.474779	-1.52195e+06	1.500625E-8	NaN
364	1.000000	0.632770	7.36863e+06	-56839.1	955.819	-29738.3	0.000000	0.000000	6.633015	-0.059355	NaN	0.000000	0.001751	0.001763	28.0793	0.118805	0.001886	62.9939	2.672520	15.3385	-0.095438	0.631384	-0.465468	-0.466853	-0.059355	62.9939	-0.464761	-1.10126e+06	5.389720E-8	NaN
364	1.000000	0.642744	7.36863e+06	-56839.1	955.818	-29738.3	0.000000	0.000000	6.642987	-0.112773	NaN	0.000000	0.001766	0.001735	28.079	0.122287	0.002024	60.4113	-24.2777	-164.064	-0.070484	0.641448	-0.455494	-0.456789	-0.112773	60.4113	-0.454094	-779773	1.446225E-7	NaN
364	1.000000	0.652741	7.36863e+06	-56839.1	955.819	-29738.3	0.000000	0.000000	6.652987	-0.044797	NaN	0.000000	0.001716	0.001732	28.0791	0.033916	0.002141	15.8391	-30.5723	15.7686	-0.030843	0.651416	-0.445497	-0.446822	-0.044797	15.8391	-0.443376	-550791	8.133178E-8	NaN
364	1.000000	0.662736	7.36863e+06	-56839.1	955.819	-29738.3	0.000000	0.000000	6.662983	-0.031471	NaN	0.000000	0.001700	0.001733	28.0791	0.017197	0.001933	8.898380	-135.608	-164.691	-0.026787	0.661464	-0.435501	-0.436774	-0.031471	8.898380	-0.432849	-391155	8.045616E-8	NaN
364	1.000000	0.672758	7.36863e+06	-56839.1	955.818	-29738.3	0.000000	0.000000	6.673003	-0.081865	NaN	0.000000	0.001730	0.001742	28.0793	0.045278	0.001962	23.0774	35.1681	10.696	-0.074409	0.671419	-0.425479	-0.426818	-0.081865	23.0774	-0.422819	-282082	2.902153E-7	NaN
364	1.000000	0.682799	7.36863e+06	-56839.1	955.818	-29738.3	0.000000	0.000000	6.683042	-0.110460	NaN	0.000000	0.001754	0.001717	28.0792	0.100528	0.002075	48.4521	-121.838	-166.942	-0.118343	0.681504	-0.415439	-0.416734	-0.110460	48.4521	-0.413729	-209606	5.269881E-7	NaN
364	1.000000	0.692781	7.36863e+06	-56839.1	955.818	-29738.3	0.000000	0.000000	6.693026	-0.045666	NaN	0.000000	0.001695	0.001736	28.0791	0.034800	0.001939	17.9437	-9.884230	11.5195	-0.052461	0.691454	-0.405457	-0.406783	-0.045666	17.9437	-0.403548	-150165	3.041021E-7	NaN
364	1.000000	0.702787	7.36863e+06	-56839.1	955.819	-29738.3	0.000000	0.000000	6.703031	-0.073856	NaN	0.000000	0.001738	0.001682	28.0793	0.022874	0.002044	11.1897	-88.8756	-167.283	-0.086009	0.701436	-0.395451	-0.396801	-0.073856	11.1897	-0.390501	-97797.6	7.551972E-7	NaN
364	1.000000	0.712807	7.36863e+06	-56839.1	955.818	-29738.3	0.000000	0.000000	6.713051	-0.105281	NaN	0.000000	0.001752	0.001736	28.0791	0.081283	0.002059	39.4771	-109.305	16.1675	-0.135544	0.711419	-0.385430	-0.386818	-0.105281	39.4771	-0.383430	-77461.8	1.359135E-6	NaN
364	1.000000	0.722804	7.36863e+06	-56839.1	955.817	-29738.3	0.000000	0.000000	6.723048	-0.089872	NaN	0.000000	0.001722	0.001714	28.0794	0.100751	0.002019	49.892	-45.4757	-167.321	-0.066720	0.721463	-0.375433	-0.376774	-0.089872	49.892	-0.374082	-56869.3	1.580334E-6	NaN
364	1.000000	0.732817	7.36863e+06	-56839.1	955.819	-29738.3	0.000000	0.000000	6.733064	-0.034907	NaN	0.000000	0.001722	0.001699	28.0803	0.057004	0.002035	28.0066	-22.1823	13.7937	-0.062013	0.731452	-0.365420	-0.366785	-0.034907	28.0066	-0.364485	-41364.6	8.438790E-7	NaN
364	1.000000	0.742795	7.36863e+06	-56839.1	955.819	-29738.3	0.000000	0.000000	6.743038	-0.095242	NaN	0.000000	0.001690	0.001727	28.0806	0.080836	0.002078	38.8956	-68.2249	-163.622	-0.100037	0.741543	-0.355443	-0.356694	-0.095242	38.8956	-0.353606	-28794.2	3.307666E-6	NaN
364	1.000000	0.752794	7.36863e+06	-56839.1	955.819	-29738.3	0.000000	0.000000	6.753040	-0.051416	NaN	0.000000	0.001678	0.001737	28.0802	0.064494	0.001951	33.0584	-149.426	16.1557	-0.108322	0.751409	-0.345444	-0.346828	-0.051416	33.0584	-0.344277	-21078.5	2.439256E-6	NaN
364	1.000000	0.762815	7.36863e+06	-56839.1	955.818	-29738.3	0.000000	0.000000	6.763060	-0.080494	NaN	0.000000	0.001656	0.001715	28.0803	0.121476	0.002038	59.6129	-62.1296	-168.282	-0.102880	0.761449	-0.335422	-0.336789	-0.080494	59.6129	-0.334409	-15134.1	5.318748E-6	NaN
364	1.000000	0.772809	7.36863e+06	-56839.1	955.818	-29738.3	0.000000	0.000000	6.773056	-0.024084	NaN	0.000000	0.001669	0.001717	28.0801	0.011119	0.001969	5.646818	29.8075	14.2034	0.040346	0.771438	-0.325429	-0.326800	-0.024084	5.646818	-0.322230	-10033.2	2.400468E-6	NaN
364	1.000000	0.782800	7.36863e+06	-56839.1	955.818	-29738.3	0.000000	0.000000	6.783047	-0.036481	NaN	0.000000	0.001656	0.001703	28.0802	0.065618	0.001973	33.2595	138.335	-165.593	-0.067303	0.781476	-0.315437	-0.316761	-0.036481	33.2595	-0.314615	-7749.23	4.707660E-6	NaN
364	1.000000	0.792805	7.36863e+06	-56839.1	955.818	-29738.3	0.000000	0.000000	6.793051	-0.035394	NaN	0.000000	0.001667	0.001702	28.08	0.071980	0.001971	36.5282	105.276	12.815	-0.071896	0.791411	-0.305433	-0.306826	-0.035394	36.5282	-0.304706	-5528.29	6.402414E-6	NaN
364	1.000000	0.802837	7.36863e+06	-56839.1	955.819	-29738.3	0.000000	0.000000	6.803085	0.001149	NaN	0.000000	0.001693	0.001720	28.0801	0.015458	0.002065	7.485303	-139.068	-168.274	-0.089008	0.801540	-0.295401	-0.296698	0.001149	7.485303	-0.295516	-4034.47	-2.846851E-7	NaN
364	1.000000	0.812840	7.36863e+06	-56839.1	955.817	-29738.3	0.000000	0.000000	6.813089	0.033489	NaN	0.000000	0.001686	0.001661	28.0803	0.079776	0.002065	38.6386	-18.0706	14.1682	0.002254	0.811447	-0.285397	-0.286791	0.033489	38.6386	-0.286047	-2910.76	-1.150524E-5	NaN
364	1.000000	0.822810	7.36863e+06	-56839.1	955.818	-29738.3	0.000000	0.000000	6.823055	-0.049043	NaN	0.000000	0.001657	0.001695	28.0802	0.081381	0.001997	40.7589	-54.8607	-168.946	-0.000141	0.821521	-0.275428	-0.276717	-0.049043	40.7589	-0.274525	-1950.8	2.514013E-5	NaN
364	1.000000	0.832853	7.36863e+06	-56839.1	955.819	-29738.3	0.000000	0.000000	6.833101	0.004775	NaN	0.000000	0.001658	0.001684	28.0801	0.009399	0.002050	4.585230	-87.4037	14.083	-0.027214	0.831508	-0.265385	-0.266729	0.004775	4.585230	-0.266166	-1456.04	-3.279744E-6	NaN
364	1.000000	0.842830	7.36863e+06	-56839.1	955.818	-29738.3	0.000000	0.000000	6.843076	-0.041490	NaN	0.000000	0.001694	0.001674	28.0798	0.104650	0.001983	52.7779	142.941	-165.405	-0.081581	0.841502	-0.255408	-0.256736	-0.041490	52.7779	-0.254818	-975.703	4.252315E-5	NaN
364	1.000000	0.852833	7.36863e+06	-56839.1	955.819	-29738.3	0.000000	0.000000	6.853083	0.035367	NaN	0.000000	0.001694	0.001685	28.0803	0.031687	0.002035	15.5692	73.2044	16.9153	0.001165	0.851532	-0.245404	-0.246705	0.035367	15.5692	-0.247108	-741.607	-4.768907E-5	NaN
364	1.000000	0.862855	7.36863e+06	-56839.1	955.818	-29738.3	0.000000	0.000000	6.863097	-0.134658	NaN	0.000000	0.001692	0.001723	28.0803	0.085113	0.002053	41.4572	-168.403	-168.837	-0.137331	0.861542	-0.235383	-0.236695	-0.134658	41.4572	-0.232947	-445.623	0.000302	NaN
364	1.000000	0.872845	7.36863e+06	-56839.1	955.817	-29738.3	0.000000	0.000000	6.873089	-0.101615	NaN	0.000000	0.001696	0.001691	28.0789	0.107126	0.001945	55.0755	-105.374	13.952	0.026065	0.871476	-0.225392	-0.226761	-0.101615	55.0755	-0.224008	-321.792	0.000316	NaN
364	1.000000	0.882862	7.36863e+06	-56839.1	955.819	-29738.3	0.000000	0.000000	6.883107	-0.071924	NaN	0.000000	0.001695	0.001672	28.0791	0.031459	0.002115	14.8717	49.8368	-165.607	-0.025591	0.881543	-0.215376	-0.216695	-0.071924	14.8717	-0.211749	-204.692	0.000351	NaN
364	1.000000	0.892874	7.36863e+06	-56839.1	955.82	-29738.3	0.000000	0.000000	6.893119	-0.047919	NaN	0.000000	0.001716	0.001706	28.0792	0.037886	0.002029	18.668	75.3689	11.2816	-0.066157	0.891522	-0.205364	-0.206715	-0.047919	18.668	-0.203439	-149.991	0.000319	NaN
364	1.000000	0.902851	7.36863e+06	-56839.1	955.818	-29738.3	0.000000	0.000000	6.903097	-0.055101	NaN	0.000000	0.001735	0.001702	28.0791	0.046708	0.002002	23.3318	-70.9516	-165.225	-0.063837	0.901538	-0.195386	-0.196699	-0.055101	23.3318	-0.193615	-103.332	0.000533	NaN
364	1.000000	0.912891	7.36863e+06	-56839.1	955.819	-29738.3	0.000000	0.000000	6.913138	-0.034654	NaN	0.000000	0.001739	0.001720	28.0791	0.096812	0.002067	46.8466	-65.2731	15.6935	-0.040002	0.911521	-0.185346	-0.186717	-0.034654	46.8466	-0.184791	-73.5552	0.000471	NaN
364	1.000000	0.922885	7.36863e+06	-56839.1	955.819	-29738.3	0.000000	0.000000	6.923131	-0.041208	NaN	0.000000	0.001712	0.001693	28.0794	0.012684	0.002005	6.327316	-152.267	-167.678	-0.155555	0.921583	-0.175353	-0.176654	-0.041208	6.327316	-0.170468	-41.8546	0.000985	NaN
364	1.000000	0.932878	7.36863e+06	-56839.1	955.818	-29738.3	0.000000	0.000000	6.933120	-0.125883	NaN	0.000000	0.001742	0.001728	28.0793	0.020446	0.002019	10.1263	45.0432	15.3107	-0.196297	0.931503	-0.165360	-0.166735	-0.125883	10.1263	-0.156036	-23.2918	0.005405	NaN
364	1.000000	0.942857	7.36863e+06	-56839.1	955.818	-29738.3	0.000000	0.000000	6.943102	-0.065702	NaN	0.000000	0.001744	0.001749	28.0791	0.074050	0.002062	35.9204	70.1545	-164.905	0.027213	0.941542	-0.155380	-0.156695	-0.065702	35.9204	-0.154008	-21.4148	0.003068	NaN
364	1.000000	0.952909	7.36863e+06	-56839.1	955.819	-29738.3	0.000000	0.000000	6.953156	-0.014817	NaN	0.000000	0.001719	0.001695	28.0792	0.087399	0.002027	43.1143	149.749	11.5199	-0.053658	0.951506	-0.145329	-0.146732	-0.014817	43.1143	-0.145071	-14.7055	0.001008	NaN
364	1.000000	0.962892	7.36863e+06	-56839.1	955.819	-29738.3	0.000000	0.000000	6.963139	-0.032437	NaN	0.000000	0.001709	0.001729	28.0793	0.063592	0.002007	31.69	-58.4829	-166.379	0.015916	0.961572	-0.135345	-0.136665	-0.032437	31.69	-0.134577	-9.337209	0.003474	NaN
364	1.000000	0.972874	7.36863e+06	-56839.1	955.818	-29738.3	0.000000	0.000000	6.973118	-0.089054	NaN	0.000000	0.001716	0.001699	28.079	0.023993	0.001915	12.527	77.2196	14.7326	-0.072280	0.971528	-0.125363	-0.126710	-0.089054	12.527	-0.120032	-4.838599	0.018405	NaN
364	1.000000	0.982896	7.36863e+06	-56839.1	955.817	-29738.3	0.000000	0.000000	6.983145	0.026840	NaN	0.000000	0.001700	0.001720	28.0791	0.044881	0.001917	23.4119	-132.204	-166.133	0.043111	0.981612	-0.115341	-0.116626	0.026840	23.4119	-0.116201	-4.043894	-0.006637	NaN
364	1.000000	0.992902	7.36863e+06	-56839.1	955.819	-29738.3	0.000000	0.000000	6.993148	-0.050668	NaN	0.000000	0.001733	0.001763	28.0792	0.034537	0.001885	18.3265	-172.555	13.6863	-0.050291	0.991542	-0.105335	-0.106696	-0.050668	18.3265	-0.103262	-2.155057	0.023511	NaN
364	1.000000	1.002934	7.36863e+06	-56839.1	955.818	-29738.3	0.000000	0.000000	7.003180	-0.051857	NaN	0.000000	0.001703	0.001729	28.0797	0.040867	0.002133	19.1619	120.228	-165.297	-0.007052	1.001568	-0.095303	-0.096670	-0.051857	19.1619	-0.093274	-1.287912	0.040264	NaN
364	1.000000	1.012897	7.36863e+06	-56839.1	955.818	-29738.3	0.000000	0.000000	7.013144	-0.020927	NaN	0.000000	0.001735	0.001757	28.0805	0.081179	0.001983	40.9416	-145.632	14.0248	-0.028026	1.011603	-0.085341	-0.086635	-0.020927	40.9416	-0.084957	-0.819689	0.025531	NaN
364	1.000000	1.022915	7.36863e+06	-56839.1	955.818	-29738.3	0.000000	0.000000	7.023160	-0.055793	NaN	0.000000	0.001729	0.001756	28.0804	0.027285	0.001975	13.8167	98.1936	-167.864	-0.114465	1.021625	-0.075323	-0.076612	-0.055793	13.8167	-0.072294	-0.392519	0.142141	NaN
364	1.000000	1.032924	7.36863e+06	-56839.1	955.819	-29738.3	0.000000	0.000000	7.033171	-0.024457	NaN	0.000000	0.001700	0.001746	28.0806	0.058334	0.002009	29.0295	-7.723887	15.6695	0.029842	1.031558	-0.065313	-0.066679	-0.024457	29.0295	-0.064681	-0.244190	0.100157	NaN
364	1.000000	1.042901	7.36863e+06	-56839.1	955.818	-29738.3	0.000000	0.000000	7.043148	-0.010563	NaN	0.000000	0.001674	0.001774	28.0802	0.079513	0.001981	40.1452	-70.5636	-167.082	-0.022930	1.041523	-0.055336	-0.056714	-0.010563	40.1452	-0.055139	-0.130002	0.081256	NaN
364	1.000000	1.052914	7.36863e+06	-56839.1	955.818	-29738.3	0.000000	0.000000	7.053158	-0.072603	NaN	0.000000	0.001702	0.001718	28.0804	0.008840	0.001866	4.737024	-40.5601	13.6602	-0.014858	1.051516	-0.045324	-0.046721	-0.072603	4.737024	-0.033829	-0.029592	2.453492	NaN
364	1.000000	1.062937	7.36863e+06	-56839.1	955.818	-29738.3	0.000000	0.000000	7.063181	-0.076946	NaN	0.000000	0.001680	0.001705	28.0803	0.034702	0.001911	18.1608	-178.296	-165.055	-0.009927	1.061640	-0.035301	-0.036597	-0.076946	18.1608	-0.032123	-0.026420	2.912474	NaN
364	1.000000	1.072918	7.36863e+06	-56839.1	955.818	-29738.3	0.000000	0.000000	7.073164	-0.050504	NaN	0.000000	0.001686	0.001746	28.0807	0.038082	0.002114	18.0181	-142.591	12.1831	-0.022946	1.071561	-0.025320	-0.026676	-0.050504	18.0181	-0.023217	-0.015170	3.329163	NaN
364	1.000000	1.082933	7.36863e+06	-56839.1	955.818	-29738.3	0.000000	0.000000	7.083178	-0.062850	NaN	0.000000	0.001705	0.001720	28.0804	0.063840	0.002088	30.5792	-68.6482	-165.245	-0.016474	1.081623	-0.015304	-0.016615	-0.062850	30.5792	-0.013763	-0.008545	7.355373	NaN
364	1.000000	1.092950	7.36863e+06	-56839.1	955.817	-29738.3	0.000000	0.000000	7.093196	-0.062511	NaN	0.000000	0.001702	0.001708	28.0808	0.058619	0.001923	30.4882	-100.363	14.0191	-0.084660	1.091548	-0.005287	-0.006689	-0.062511	30.4882	-0.003749	-0.002616	23.897	NaN
364	1.000000	1.102907	7.36863e+06	-56839.1	955.817	-29738.3	0.000000	0.000000	7.103316	3.910183	NaN	0.000000	0.001687	0.001695	28.0806	4.824915	0.001761	2739.97	9.103779	-172.154	2.360724	1.101527	0.004670	0.003290	3.910183	2739.97	0.003599	0.002891	1352.67	46560.5
364	2.000000	1.108932	7.36863e+06	-56839.1	955.819	-29738.3	0.000000	0.000000	7.109576	9.636686	NaN	0.000000	0.001679	0.001702	28.0813	10.1758	0.001669	6096.77	5.081223	8.596793	8.885922	1.108585	0.010694	0.010348	9.636686	6096.77	0.009509	0.008640	1115.3	59924.7
364	2.000000	1.111394	7.36863e+06	-56839.1	955.818	-29738.3	0.000000	0.000000	7.112153	12.4358	NaN	0.000000	0.001660	0.001688	28.0804	13.2365	0.001877	7051.96	9.930905	-174.595	12.3995	1.111113	0.013156	0.012875	12.4358	7051.96	0.011833	0.011291	1101.38	60633.6
364	2.000000	1.113911	7.36863e+06	-56839.1	955.818	-29738.3	0.000000	0.000000	7.114830	16.3216	NaN	0.000000	0.001646	0.001676	28.0805	14.9753	0.001697	8826.51	6.096463	5.735214	15.1339	1.113574	0.015673	0.015337	16.3216	8826.51	0.014287	0.014346	1137.73	67328.9
364	2.000000	1.116313	7.36863e+06	-56839.1	955.818	-29738.3	0.000000	0.000000	7.117372	19.7017	NaN	0.000000	0.001675	0.001690	28.0793	17.3781	0.001836	9466.34	11.7149	179.994	18.3807	1.116035	0.018076	0.017797	19.7017	9466.34	0.016515	0.017359	1134.96	65643.8
364	2.000000	1.118843	7.36863e+06	-56839.1	955.818	-29738.3	0.000000	0.000000	7.120158	25.9548	NaN	0.000000	0.001638	0.001714	28.0799	20.2201	0.001862	10862	9.835413	0.498356	24.1983	1.118463	0.020605	0.020226	25.9548	10862	0.018813	0.020712	1253.16	68957.1
364	2.000000	1.121337	7.36863e+06	-56839.1	955.818	-29738.3	0.000000	0.000000	7.122870	31.2312	NaN	0.000000	0.001654	0.001723	28.0791	22.3656	0.001709	13090	5.423126	-177.866	29.6788	1.121054	0.023099	0.022817	31.2312	13090	0.021310	0.024643	1267.35	76184.4
364	2.000000	1.123826	7.36863e+06	-56839.1	955.818	-29738.3	0.000000	0.000000	7.125634	37.9239	NaN	0.000000	0.001628	0.001711	28.0794	24.7835	0.001745	14204.9	7.716637	-0.238302	35.6371	1.123487	0.025588	0.025249	37.9239	14204.9	0.023586	0.028494	1330.96	76884.5
364	2.000000	1.126355	7.36863e+06	-56839.1	955.818	-29738.3	0.000000	0.000000	7.128336	42.1136	NaN	0.000000	0.001650	0.001703	28.0791	26.5381	0.001656	16023	6.032660	-179.753	44.0109	1.126144	0.028118	0.027906	42.1136	16023	0.026147	0.033135	1270.98	80421.9
364	2.000000	1.128836	7.36863e+06	-56839.1	955.819	-29738.3	0.000000	0.000000	7.131141	50.0114	NaN	0.000000	0.001606	0.001711	28.0801	29.8943	0.001840	16247.4	7.251418	-1.689864	48.9645	1.128397	0.030598	0.030159	50.0114	16247.4	0.028290	0.037273	1341.75	76888.1
364	2.000000	1.131355	7.36863e+06	-56839.1	955.82	-29738.3	0.000000	0.000000	7.133878	55.2865	NaN	0.000000	0.001681	0.001685	28.0788	32.9166	0.001855	17741	7.080099	176.774	55.0433	1.131086	0.033118	0.032848	55.2865	17741	0.030780	0.042377	1304.64	78738.4
364	2.000000	1.133829	7.36863e+06	-56839.1	955.818	-29738.3	0.000000	0.000000	7.136772	65.4918	NaN	0.000000	0.001672	0.001689	28.0797	34.0067	0.001776	19146.7	1.667604	2.927913	62.8642	1.133479	0.035592	0.035241	65.4918	19146.7	0.033026	0.047250	1386.06	80475.7
364	2.000000	1.136353	7.36863e+06	-56839.1	955.819	-29738.3	0.000000	0.000000	7.139582	72.4723	NaN	0.000000	0.001631	0.001698	28.0792	36.7148	0.001715	21409	7.102726	175.15	73.5124	1.136026	0.038115	0.037789	72.4723	21409	0.035576	0.053097	1364.91	84885.9
364	2.000000	1.138795	7.36863e+06	-56839.1	955.82	-29738.3	0.000000	0.000000	7.142434	82.4391	NaN	0.000000	0.001646	0.001741	28.0791	39.132	0.001880	20816.3	-0.370442	3.655951	79.4463	1.138477	0.040557	0.040240	82.4391	20816.3	0.037587	0.057941	1422.8	79010
364	2.000000	1.141321	7.36863e+06	-56839.1	955.819	-29738.3	0.000000	0.000000	7.145458	94.5204	NaN	0.000000	0.001618	0.001725	28.0791	41.9458	0.001881	22295.3	6.363041	177.077	95.3829	1.141022	0.043084	0.042785	94.5204	22295.3	0.039904	0.063781	1481.95	80656.8
364	2.000000	1.143802	7.36863e+06	-56839.1	955.819	-29738.3	0.000000	0.000000	7.148306	103.43	NaN	0.000000	0.001638	0.001683	28.0797	43.3829	0.001813	23929.9	2.876248	0.167923	101.515	1.143409	0.045565	0.045172	103.43	23929.9	0.042323	0.070170	1473.98	82535.1
364	2.000000	1.146282	7.36863e+06	-56839.1	955.819	-29738.3	0.000000	0.000000	7.151361	117.436	NaN	0.000000	0.001671	0.001695	28.0792	45.6226	0.001701	26828.3	4.580704	177.722	116.777	1.145913	0.048045	0.047675	117.436	26828.3	0.044762	0.076912	1526.89	88383.2
364	2.000000	1.148730	7.36863e+06	-56839.1	955.82	-29738.3	0.000000	0.000000	7.154119	124.95	NaN	0.000000	0.001645	0.001726	28.0794	49.0872	0.001829	26834.6	6.647608	-4.911973	120.701	1.148342	0.050492	0.050104	124.95	26834.6	0.047000	0.083367	1498.8	84912.5
364	2.000000	1.151329	7.36863e+06	-56839.1	955.819	-29738.3	0.000000	0.000000	7.157039	132.769	NaN	0.000000	0.001652	0.001681	28.0802	51.3045	0.001734	29582.3	3.240140	177.317	132.354	1.150923	0.053091	0.052686	132.769	29582.3	0.049725	0.091566	1449.98	89317.6
364	2.000000	1.153879	7.36863e+06	-56839.1	955.819	-29738.3	0.000000	0.000000	7.160129	145.888	NaN	0.000000	0.001667	0.001707	28.0808	53.3009	0.001775	30030.2	6.393533	-4.755895	148.711	1.153411	0.055641	0.055173	145.888	30030.2	0.051998	0.098688	1478.28	87337.2
364	2.000000	1.156229	7.36863e+06	-56839.1	955.818	-29738.3	0.000000	0.000000	7.162956	157.476	NaN	0.000000	0.001625	0.001734	28.0805	55.4926	0.001816	30560.5	5.211433	175.162	154.25	1.155960	0.057992	0.057723	157.476	30560.5	0.054127	0.105594	1491.33	85923.7
364	2.000000	1.158795	7.36863e+06	-56839.1	955.819	-29738.3	0.000000	0.000000	7.166003	169.16	NaN	0.000000	0.001629	0.001769	28.0805	58.9123	0.001810	32544.1	5.004247	-5.684470	167.278	1.158357	0.060558	0.060119	169.16	32544.1	0.056659	0.114102	1482.53	88023.5
364	2.000000	1.161354	7.36863e+06	-56839.1	955.82	-29738.3	0.000000	0.000000	7.168984	179.437	NaN	0.000000	0.001641	0.001701	28.0805	62.0925	0.001884	32950.5	6.861097	172.74	181.99	1.160928	0.063117	0.062691	179.437	32950.5	0.059032	0.122361	1466.45	86062.3
364	2.000000	1.163771	7.36863e+06	-56839.1	955.819	-29738.3	0.000000	0.000000	7.172116	196.79	NaN	0.000000	0.001610	0.001741	28.0805	62.9316	0.001760	35748.3	5.248795	-5.584932	194.457	1.163381	0.065534	0.065143	196.79	35748.3	0.061405	0.130895	1503.41	90274.8
364	2.000000	1.166297	7.36863e+06	-56839.1	955.82	-29738.3	0.000000	0.000000	7.174973	204.853	NaN	0.000000	0.001643	0.001689	28.0805	65.2458	0.001852	35225.5	3.805285	175.279	205.182	1.165882	0.068060	0.067645	204.853	35225.5	0.063698	0.139402	1469.52	86197.9
364	2.000000	1.168717	7.36863e+06	-56839.1	955.819	-29738.3	0.000000	0.000000	7.178062	221.111	NaN	0.000000	0.001562	0.001694	28.0805	66.4151	0.001729	38402	1.893800	-3.486968	216.653	1.168358	0.070480	0.070120	221.111	38402	0.066162	0.148825	1485.71	90947.2
364	2.000000	1.171298	7.36863e+06	-56839.1	955.82	-29738.3	0.000000	0.000000	7.181240	235.618	NaN	0.000000	0.001598	0.001677	28.0803	69.9738	0.001773	39455.4	1.492221	176.175	235.004	1.170974	0.073061	0.072736	235.618	39455.4	0.068582	0.158367	1487.79	90583.1
364	2.000000	1.173714	7.36863e+06	-56839.1	955.82	-29738.3	0.000000	0.000000	7.184424	254.285	NaN	0.000000	0.001610	0.001729	28.0807	72.6077	0.001860	39040.5	9.690663	-10.4952	249.609	1.173344	0.075476	0.075107	254.285	39040.5	0.070591	0.166502	1527.22	87413.6
364	2.000000	1.176097	7.36863e+06	-56839.1	955.819	-29738.3	0.000000	0.000000	7.187286	265.935	NaN	0.000000	0.001646	0.001711	28.0805	72.4424	0.001751	41377.1	2.438174	174.596	258.147	1.175950	0.077860	0.077712	265.935	41377.1	0.073040	0.176672	1505.25	89939.3
364	2.000000	1.178718	7.36863e+06	-56839.1	955.819	-29738.3	0.000000	0.000000	7.190514	280.682	NaN	0.000000	0.001644	0.001700	28.0806	74.9745	0.001675	44749.9	1.956426	-5.855972	277.404	1.178564	0.080481	0.080326	280.682	44749.9	0.075776	0.188376	1490.01	94200.2
364	2.000000	1.181321	7.36863e+06	-56839.1	955.821	-29738.3	0.000000	0.000000	7.193521	290.518	NaN	0.000000	0.001657	0.001721	28.0804	78.3496	0.001757	44594.8	3.632668	173.224	292.463	1.181180	0.083083	0.082942	290.518	44594.8	0.078197	0.199022	1459.73	91328.7
364	2.000000	1.183701	7.36863e+06	-56839.1	955.82	-29738.3	0.000000	0.000000	7.196973	316.565	NaN	0.000000	0.001639	0.001713	28.0801	80.3536	0.001826	43995.4	5.756408	-7.998551	310.811	1.183314	0.085464	0.085077	316.565	43995.4	0.080067	0.207433	1526.11	88255.5
364	2.000000	1.186244	7.36863e+06	-56839.1	955.82	-29738.3	0.000000	0.000000	7.200097	330.683	NaN	0.000000	0.001643	0.001719	28.0791	83.3858	0.001839	45350.1	6.739098	170.775	328.47	1.185940	0.088007	0.087703	330.683	45350.1	0.082538	0.218798	1511.36	88578.8
364	2.000000	1.188681	7.36863e+06	-56839.1	955.821	-29738.3	0.000000	0.000000	7.203291	349.098	NaN	0.000000	0.001604	0.001691	28.0793	85.475	0.001809	47254.9	2.668193	-5.872343	342.761	1.188422	0.090443	0.090185	349.098	47254.9	0.084903	0.229938	1518.23	90035.7
364	2.000000	1.191309	7.36863e+06	-56839.1	955.819	-29738.3	0.000000	0.000000	7.206710	368.324	NaN	0.000000	0.001664	0.001686	28.0792	89.4394	0.001848	48410.5	7.473019	169.823	369.932	1.190818	0.093071	0.092581	368.324	48410.5	0.087365	0.241812	1523.18	89944.2
364	2.000000	1.193920	7.36863e+06	-56839.1	955.82	-29738.3	0.000000	0.000000	7.209869	381.618	NaN	0.000000	0.001629	0.001706	28.0794	91.2517	0.001834	49742.5	8.916949	-10.6978	389.545	1.193292	0.095682	0.095055	381.618	49742.5	0.089929	0.254472	1499.64	90090.8
364	2.000000	1.196233	7.36863e+06	-56839.1	955.821	-29738.3	0.000000	0.000000	7.212946	400.197	NaN	0.000000	0.001653	0.001725	28.0793	92.1938	0.001779	51835.9	10.0958	166.367	399.519	1.195825	0.097996	0.097587	400.197	51835.9	0.092205	0.265969	1504.68	91830.9
364	2.000000	1.198650	7.36863e+06	-56839.1	955.82	-29738.3	0.000000	0.000000	7.216218	420.971	NaN	0.000000	0.001666	0.001691	28.0791	93.3773	0.001730	53976.7	2.258845	-5.728176	414.766	1.198314	0.100413	0.100076	420.971	53976.7	0.094564	0.278126	1513.6	93510.2
364	2.000000	1.201250	7.36863e+06	-56839.1	955.82	-29738.3	0.000000	0.000000	7.219428	435.805	NaN	0.000000	0.001662	0.001683	28.0793	97.7579	0.001650	59248.9	6.674112	168.466	436.951	1.200981	0.103013	0.102744	435.805	59248.9	0.097496	0.293600	1484.35	99902.3
364	2.000000	1.203715	7.36863e+06	-56839.1	955.82	-29738.3	0.000000	0.000000	7.222628	453.667	NaN	0.000000	0.001622	0.001694	28.0793	99.647	0.001814	54932.1	6.040743	-9.785406	449.901	1.203409	0.105478	0.105171	453.667	54932.1	0.099284	0.303222	1496.16	91142.2
364	2.000000	1.206223	7.36863e+06	-56839.1	955.821	-29738.3	0.000000	0.000000	7.225988	474.377	NaN	0.000000	0.001685	0.001676	28.0793	102.089	0.001762	57949.1	5.872243	169.86	472.656	1.205806	0.107986	0.107568	474.377	57949.1	0.101846	0.317270	1495.18	93995.2