File: remote_trans/data/nanoindenter/0828-1/data/Data_2025-08-06,11h17m57s/2025-07-22_16-23-58_1_1135.txt
2025-07-22, 16:23:58, 1
Index	Phase	Displacement	Time	Pos X	Pos Y	Pos Z	Rot A	Rot B	Piezo Z	Force A	Force B	Gripper	Voltage A	Voltage B	Temperature	Amplitude force	Amplitude pos	Stiffness	Phase shift	Phase excitation	Force A raw	Displacement raw	HMax	HMax raw	Real Force	Real Stiffness	Contact Depth	Area	Hardness	Reduced Mod.
[#]	[#]	[um]	[s]	[um]	[um]	[um]	[m°]	[m°]	[um]	[uN]	[uN]	[V]	[V]	[V]	[°C]	[uN]	[um]	[N/m]	[°]	[°]	[uN]	[um]	[um]	[um]	[uN]	[N/m]	[um]	[um^2]	[MPa]	[MPa]
1135	1.000000	0.002743	7.37615e+06	-56889.1	1055.82	-29737.3	0.000000	0.000000	6.002812	-0.013638	NaN	0.000000	0.001630	0.001720	28.08	0.079847	0.000933	85.5989	-157.015	-168.083	-0.049894	0.001473	-1.727040	-1.728310	-0.013638	85.5989	-1.726920	-1.158787E+23	1.176924E-25	NaN
1135	1.000000	0.014741	7.37615e+06	-56889.1	1055.82	-29737.3	0.000000	0.000000	6.014809	-0.052888	NaN	0.000000	0.001673	0.001706	28.08	0.086588	0.001645	52.6347	-105.452	-166.878	0.018368	0.013535	-1.715041	-1.716248	-0.052888	52.6347	-1.714288	-7.874534E+22	6.716391E-25	NaN
1135	1.000000	0.026740	7.37615e+06	-56889.1	1055.82	-29737.3	0.000000	0.000000	6.026812	0.046929	NaN	0.000000	0.001695	0.001695	28.0799	0.044454	0.001853	23.9909	172.68	-167.34	-0.009912	0.025379	-1.703042	-1.704404	0.046929	23.9909	-1.704510	-5.839060E+22	-8.037019E-25	NaN
1135	1.000000	0.038676	7.37615e+06	-56889.1	1055.82	-29737.3	0.000000	0.000000	6.038746	0.005212	NaN	0.000000	0.001673	0.001672	28.08	0.063089	0.001969	32.0426	-18.5122	-162.926	-0.043071	0.037339	-1.691106	-1.692444	0.005212	32.0426	-1.691228	-3.889619E+22	-1.339892E-25	NaN
1135	1.000000	0.050663	7.37615e+06	-56889.1	1055.82	-29737.3	0.000000	0.000000	6.050733	0.015922	NaN	0.000000	0.001654	0.001714	28.0798	0.032986	0.001912	17.2522	58.945	-167.164	0.005000	0.049374	-1.679120	-1.680408	0.015922	17.2522	-1.679812	-2.743019E+22	-5.804625E-25	NaN
1135	1.000000	0.062691	7.37615e+06	-56889.1	1055.82	-29737.3	0.000000	0.000000	6.062761	0.013293	NaN	0.000000	0.001694	0.001711	28.0808	0.031943	0.002173	14.7003	166.603	-166.354	-0.016700	0.061382	-1.667092	-1.668401	0.013293	14.7003	-1.667770	-1.897601E+22	-7.005039E-25	NaN
1135	1.000000	0.074678	7.37615e+06	-56889.1	1055.82	-29737.3	0.000000	0.000000	6.074748	0.020838	NaN	0.000000	0.001661	0.001761	28.0808	0.030417	0.002057	14.7859	138.1	-165.601	0.020731	0.073350	-1.655105	-1.656433	0.020838	14.7859	-1.656162	-1.330259E+22	-1.566454E-24	NaN
1135	1.000000	0.086698	7.37615e+06	-56889.1	1055.82	-29737.3	0.000000	0.000000	6.086767	-0.023095	NaN	0.000000	0.001624	0.001702	28.0808	0.111885	0.002096	53.3768	-43.3747	-162.789	0.060834	0.085364	-1.643084	-1.644419	-0.023095	53.3768	-1.642760	-8.826566E+21	2.616575E-24	NaN
1135	1.000000	0.098709	7.37615e+06	-56889.1	1055.82	-29737.3	0.000000	0.000000	6.098782	0.088673	NaN	0.000000	0.001644	0.001726	28.0809	0.093538	0.002061	45.3924	167.524	-165.061	0.068394	0.097400	-1.631074	-1.632383	0.088673	45.3924	-1.632539	-6.455248E+21	-1.373661E-23	NaN
1135	1.000000	0.110693	7.37615e+06	-56889.1	1055.82	-29737.3	0.000000	0.000000	6.110758	-0.105552	NaN	0.000000	0.001648	0.001736	28.081	0.112497	0.002097	53.6546	96.1056	-166.741	-0.071503	0.109460	-1.619090	-1.620323	-0.105552	53.6546	-1.617615	-4.087697E+21	2.582175E-23	NaN
1135	1.000000	0.122706	7.37615e+06	-56889.1	1055.82	-29737.3	0.000000	0.000000	6.122775	-0.003695	NaN	0.000000	0.001653	0.001720	28.081	0.124072	0.002023	61.3409	-43.3957	-165.652	0.009503	0.121394	-1.607077	-1.608389	-0.003695	61.3409	-1.607032	-2.956289E+21	1.250036E-24	NaN
1135	1.000000	0.134714	7.37615e+06	-56889.1	1055.82	-29737.3	0.000000	0.000000	6.134785	0.035256	NaN	0.000000	0.001639	0.001728	28.081	0.046662	0.002095	22.2762	155.397	-163.289	0.063284	0.133395	-1.595068	-1.596388	0.035256	22.2762	-1.596255	-2.125298E+21	-1.658893E-23	NaN
1135	1.000000	0.146689	7.37615e+06	-56889.1	1055.82	-29737.3	0.000000	0.000000	6.146758	0.001863	NaN	0.000000	0.001675	0.001709	28.0808	0.085869	0.002076	41.3589	-148.507	-164.602	-0.065153	0.145382	-1.583094	-1.584401	0.001863	41.3589	-1.583128	-1.421656E+21	-1.310450E-24	NaN
1135	1.000000	0.158704	7.37615e+06	-56889.1	1055.82	-29737.3	0.000000	0.000000	6.158771	-0.057944	NaN	0.000000	0.001587	0.001799	28.081	0.096192	0.002086	46.1103	115.926	-163.449	-0.025559	0.157437	-1.571079	-1.572346	-0.057944	46.1103	-1.570136	-9.548900E+20	6.068146E-23	NaN
1135	1.000000	0.170761	7.37615e+06	-56889.1	1055.82	-29737.3	0.000000	0.000000	6.170832	0.042075	NaN	0.000000	0.001596	0.001697	28.0811	0.066742	0.001955	34.1444	98.0437	-163.381	0.035018	0.169387	-1.559022	-1.560396	0.042075	34.1444	-1.559946	-6.988049E+20	-6.021014E-23	NaN
1135	1.000000	0.182731	7.37615e+06	-56889.1	1055.82	-29737.3	0.000000	0.000000	6.182797	-0.068215	NaN	0.000000	0.001620	0.001681	28.0813	0.085244	0.001946	43.7984	43.6851	-163.002	-0.066565	0.181418	-1.547052	-1.548365	-0.068215	43.7984	-1.545884	-4.541637E+20	1.501984E-22	NaN
1135	1.000000	0.194703	7.37615e+06	-56889.1	1055.82	-29737.3	0.000000	0.000000	6.194773	0.007603	NaN	0.000000	0.001646	0.001686	28.0813	0.055088	0.002082	26.4626	-110.606	-161.886	0.021128	0.193485	-1.535080	-1.536297	0.007603	26.4626	-1.535295	-3.282975E+20	-2.315891E-23	NaN
1135	1.000000	0.206734	7.37615e+06	-56889.1	1055.82	-29737.3	0.000000	0.000000	6.206806	0.057355	NaN	0.000000	0.001631	0.001730	28.0799	0.107089	0.002035	52.6311	-30.8389	-163.18	0.080067	0.205443	-1.523049	-1.524340	0.057355	52.6311	-1.523866	-2.312674E+20	-2.480022E-22	NaN
1135	1.000000	0.218743	7.37615e+06	-56889.1	1055.82	-29737.3	0.000000	0.000000	6.218814	0.042117	NaN	0.000000	0.001611	0.001707	28.0798	0.072938	0.002072	35.1975	131.591	-165.738	0.046013	0.217410	-1.511040	-1.512373	0.042117	35.1975	-1.511937	-1.604302E+20	-2.625240E-22	NaN
1135	1.000000	0.230732	7.37615e+06	-56889.1	1055.82	-29737.3	0.000000	0.000000	6.230800	-0.032715	NaN	0.000000	0.001593	0.001718	28.0799	0.134504	0.001909	70.4425	78.9789	-168.155	-0.080858	0.229415	-1.499051	-1.500368	-0.032715	70.4425	-1.498703	-1.069137E+20	3.059969E-22	NaN
1135	1.000000	0.242747	7.37615e+06	-56889.1	1055.82	-29737.3	0.000000	0.000000	6.242814	-0.048733	NaN	0.000000	0.001663	0.001692	28.0797	0.083492	0.001919	43.5111	-50.3384	-165.023	0.054745	0.241477	-1.487036	-1.488305	-0.048733	43.5111	-1.486196	-7.285308E+19	6.689262E-22	NaN
1135	1.000000	0.254784	7.37615e+06	-56889.1	1055.82	-29737.3	0.000000	0.000000	6.254855	0.058499	NaN	0.000000	0.001648	0.001711	28.0796	0.043058	0.001939	22.2106	126.13	-163.396	-0.005136	0.253448	-1.474999	-1.476335	0.058499	22.2106	-1.476974	-5.490338E+19	-1.065487E-21	NaN
1135	1.000000	0.266756	7.37615e+06	-56889.1	1055.82	-29737.3	0.000000	0.000000	6.266826	0.017380	NaN	0.000000	0.001665	0.001685	28.08	0.057205	0.002022	28.2931	133.938	-168.273	-0.007198	0.265465	-1.463027	-1.464318	0.017380	28.2931	-1.463487	-3.629897E+19	-4.787985E-22	NaN
1135	1.000000	0.278787	7.37616e+06	-56889.1	1055.82	-29737.3	0.000000	0.000000	6.278854	-0.058183	NaN	0.000000	0.001680	0.001690	28.0801	0.106412	0.001990	53.4706	28.2902	-164.8	-0.051744	0.277467	-1.450996	-1.452316	-0.058183	53.4706	-1.450180	-2.412910E+19	2.411332E-21	NaN
1135	1.000000	0.290792	7.37616e+06	-56889.1	1055.82	-29737.3	0.000000	0.000000	6.290859	-0.035384	NaN	0.000000	0.001664	0.001770	28.0798	0.083751	0.001964	42.6456	119.537	-164.396	-0.070516	0.289424	-1.438991	-1.440359	-0.035384	42.6456	-1.438369	-1.679229E+19	2.107184E-21	NaN
1135	1.000000	0.302784	7.37616e+06	-56889.1	1055.82	-29737.2	0.000000	0.000000	6.302851	-0.034310	NaN	0.000000	0.001657	0.001719	28.0797	0.076873	0.001984	38.7564	123.652	-162.183	-0.038138	0.301446	-1.426999	-1.428337	-0.034310	38.7564	-1.426335	-1.160588E+19	2.956275E-21	NaN
1135	1.000000	0.314775	7.37616e+06	-56889.1	1055.82	-29737.2	0.000000	0.000000	6.314845	0.025775	NaN	0.000000	0.001653	0.001724	28.0797	0.162589	0.002042	79.6045	-118.692	-164.654	-0.017595	0.313490	-1.415008	-1.416293	0.025775	79.6045	-1.415251	-8.257915E+18	-3.121192E-21	NaN
1135	1.000000	0.326818	7.37616e+06	-56889.1	1055.82	-29737.2	0.000000	0.000000	6.326889	0.043513	NaN	0.000000	0.001601	0.001687	28.0798	0.055420	0.001993	27.8025	97.781	-163.003	0.037924	0.325442	-1.402965	-1.404341	0.043513	27.8025	-1.404138	-5.870388E+18	-7.412233E-21	NaN
1135	1.000000	0.338788	7.37616e+06	-56889.1	1055.82	-29737.2	0.000000	0.000000	6.338855	-0.059304	NaN	0.000000	0.001593	0.001751	28.0809	0.060134	0.002038	29.5027	3.094243	-162.275	0.012451	0.337467	-1.390994	-1.392316	-0.059304	29.5027	-1.389487	-3.742989E+18	1.584400E-20	NaN
1135	1.000000	0.350831	7.37616e+06	-56889.1	1055.82	-29737.2	0.000000	0.000000	6.350902	0.059367	NaN	0.000000	0.001566	0.001712	28.081	0.122978	0.001910	64.3784	120.599	-165.823	0.046966	0.349479	-1.378952	-1.380304	0.059367	64.3784	-1.379644	-2.766214E+18	-2.146143E-20	NaN
1135	1.000000	0.362796	7.37616e+06	-56889.1	1055.82	-29737.2	0.000000	0.000000	6.362864	-0.033474	NaN	0.000000	0.001584	0.001714	28.0812	0.042153	0.001977	21.3214	42.6196	-167.047	0.018145	0.361541	-1.366987	-1.368242	-0.033474	21.3214	-1.365810	-1.808290E+18	1.851149E-20	NaN
1135	1.000000	0.374843	7.37616e+06	-56889.1	1055.82	-29737.2	0.000000	0.000000	6.374916	0.085933	NaN	0.000000	0.001589	0.001728	28.0809	0.045072	0.001970	22.8818	-142.993	-165.204	0.088907	0.373495	-1.354940	-1.356288	0.085933	22.8818	-1.357757	-1.411819E+18	-6.086700E-20	NaN
1135	1.000000	0.386833	7.37616e+06	-56889.1	1055.82	-29737.2	0.000000	0.000000	6.386901	-0.016194	NaN	0.000000	0.001567	0.001782	28.0809	0.080681	0.002024	39.8669	-142.206	-164.385	-0.026672	0.385496	-1.342950	-1.344286	-0.016194	39.8669	-1.342645	-8.872270E+17	1.825231E-20	NaN
1135	1.000000	0.398811	7.37616e+06	-56889.1	1055.82	-29737.2	0.000000	0.000000	6.398878	-0.053901	NaN	0.000000	0.001540	0.001721	28.0807	0.036985	0.001958	18.8885	5.677240	-165.932	-0.095742	0.397503	-1.330972	-1.332280	-0.053901	18.8885	-1.328832	-5.801876E+17	9.290263E-20	NaN
1135	1.000000	0.410812	7.37616e+06	-56889.1	1055.82	-29737.2	0.000000	0.000000	6.410881	0.006353	NaN	0.000000	0.001576	0.001727	28.0808	0.024097	0.002019	11.9339	-35.6883	-166.147	0.002841	0.409547	-1.318971	-1.320236	0.006353	11.9339	-1.319370	-4.337038E+17	-1.464840E-20	NaN
1135	1.000000	0.422815	7.37616e+06	-56889.1	1055.82	-29737.2	0.000000	0.000000	6.422884	-0.008316	NaN	0.000000	0.001575	0.001755	28.0807	0.136819	0.001981	69.0619	-55.5448	-163.8	0.025920	0.421590	-1.306968	-1.308193	-0.008316	69.0619	-1.306877	-2.953183E+17	2.815899E-20	NaN
1135	1.000000	0.434861	7.37616e+06	-56889.1	1055.82	-29737.2	0.000000	0.000000	6.434930	-0.008728	NaN	0.000000	0.001546	0.001780	28.0813	0.056345	0.001952	28.858	132.195	-166.392	-0.040899	0.433508	-1.294922	-1.296275	-0.008728	28.858	-1.294695	-2.030052E+17	4.299315E-20	NaN
1135	1.000000	0.446830	7.37616e+06	-56889.1	1055.82	-29737.2	0.000000	0.000000	6.446900	0.010029	NaN	0.000000	0.001558	0.001740	28.0809	0.018743	0.002013	9.308904	-105.496	-162.951	0.044258	0.445505	-1.282953	-1.284277	0.010029	9.308904	-1.283761	-1.449978E+17	-6.916725E-20	NaN
1135	1.000000	0.458843	7.37616e+06	-56889.1	1055.82	-29737.2	0.000000	0.000000	6.458910	-0.053894	NaN	0.000000	0.001573	0.001736	28.0809	0.067044	0.001766	37.9665	-143.122	-164.096	0.026179	0.457531	-1.270940	-1.272252	-0.053894	37.9665	-1.269875	-9.456330E+16	5.699234E-19	NaN
1135	1.000000	0.470867	7.37616e+06	-56889.1	1055.82	-29737.2	0.000000	0.000000	6.470939	0.050135	NaN	0.000000	0.001593	0.001730	28.0802	0.036082	0.001959	18.4144	57.541	-165.383	0.013850	0.469558	-1.258915	-1.260224	0.050135	18.4144	-1.260957	-7.185755E+16	-6.977064E-19	NaN
1135	1.000000	0.482864	7.37616e+06	-56889.1	1055.82	-29737.2	0.000000	0.000000	6.482934	0.010524	NaN	0.000000	0.001553	0.001735	28.0794	0.101672	0.002067	49.1999	10.8831	-168.126	-0.029053	0.481512	-1.246918	-1.248271	0.010524	49.1999	-1.247079	-4.686466E+16	-2.245518E-19	NaN
1135	1.000000	0.494870	7.37616e+06	-56889.1	1055.82	-29737.2	0.000000	0.000000	6.494938	-0.033010	NaN	0.000000	0.001555	0.001749	28.0796	0.068315	0.002047	33.3809	-157.028	-163.951	0.022953	0.493507	-1.234912	-1.236275	-0.033010	33.3809	-1.234171	-3.148834E+16	1.048316E-18	NaN
1135	1.000000	0.506883	7.37616e+06	-56889.1	1055.82	-29737.2	0.000000	0.000000	6.506952	-0.016412	NaN	0.000000	0.001563	0.001710	28.0795	0.067396	0.001994	33.7977	-62.3896	-165.219	-0.048692	0.505563	-1.222899	-1.224220	-0.016412	33.7977	-1.222535	-2.200073E+16	7.459858E-19	NaN
1135	1.000000	0.518881	7.37616e+06	-56889.1	1055.82	-29737.2	0.000000	0.000000	6.518951	0.020471	NaN	0.000000	0.001566	0.001731	28.0798	0.115882	0.001910	60.6864	-81.0319	-166.816	0.017213	0.517508	-1.210902	-1.212274	0.020471	60.6864	-1.211155	-1.549180E+16	-1.321391E-18	NaN
1135	1.000000	0.530903	7.37616e+06	-56889.1	1055.82	-29737.2	0.000000	0.000000	6.530970	-0.076182	NaN	0.000000	0.001579	0.001730	28.0797	0.004439	0.001961	2.264081	-74.373	-165.58	-0.110698	0.529544	-1.198879	-1.200239	-0.076182	2.264081	-1.173643	-4.871966E+15	1.563681E-17	NaN
1135	1.000000	0.542867	7.37616e+06	-56889.1	1055.82	-29737.2	0.000000	0.000000	6.542938	0.033700	NaN	0.000000	0.001561	0.001689	28.0797	0.074180	0.002004	37.0148	-116.724	-164.564	0.008591	0.541561	-1.186916	-1.188221	0.033700	37.0148	-1.187599	-7.493099E+15	-4.497473E-18	NaN
1135	1.000000	0.554914	7.37616e+06	-56889.1	1055.82	-29737.2	0.000000	0.000000	6.554981	-0.048536	NaN	0.000000	0.001587	0.001716	28.08	0.119353	0.002018	59.1538	154.657	-164.44	-0.088206	0.553582	-1.174869	-1.176201	-0.048536	59.1538	-1.174253	-4.964537E+15	9.776622E-18	NaN
1135	1.000000	0.566924	7.37616e+06	-56889.1	1055.82	-29737.2	0.000000	0.000000	6.566992	-0.015746	NaN	0.000000	0.001584	0.001759	28.0795	0.115942	0.002020	57.392	76.5933	-164.576	-0.005646	0.565563	-1.162859	-1.164220	-0.015746	57.392	-1.162653	-3.470822E+15	4.536737E-18	NaN
1135	1.000000	0.578914	7.37616e+06	-56889.1	1055.82	-29737.2	0.000000	0.000000	6.578984	0.021834	NaN	0.000000	0.001591	0.001731	28.0796	0.077487	0.001920	40.3545	125.657	-164.15	-0.109686	0.577638	-1.150869	-1.152145	0.021834	40.3545	-1.151275	-2.442930E+15	-8.937674E-18	NaN
1135	1.000000	0.590880	7.37616e+06	-56889.1	1055.82	-29737.2	0.000000	0.000000	6.590951	0.040496	NaN	0.000000	0.001575	0.001717	28.0795	0.058732	0.001983	29.6153	19.4979	-165.139	0.066787	0.589596	-1.138903	-1.140187	0.040496	29.6153	-1.139928	-1.720970E+15	-2.353094E-17	NaN
1135	1.000000	0.602938	7.37616e+06	-56889.1	1055.82	-29737.2	0.000000	0.000000	6.603007	0.002407	NaN	0.000000	0.001554	0.001721	28.0796	0.109120	0.001893	57.6299	27.1724	-164.356	-0.070216	0.601582	-1.126845	-1.128200	0.002407	57.6299	-1.126876	-1.150057E+15	-2.092786E-18	NaN
1135	1.000000	0.614910	7.37616e+06	-56889.1	1055.82	-29737.2	0.000000	0.000000	6.614979	-0.023307	NaN	0.000000	0.001560	0.001720	28.081	0.018046	0.002071	8.712188	90.7836	-164.551	-0.039712	0.613620	-1.114872	-1.116163	-0.023307	8.712188	-1.112866	-7.460145E+14	3.124262E-17	NaN
1135	1.000000	0.626920	7.37616e+06	-56889.1	1055.82	-29737.2	0.000000	0.000000	6.626991	0.031588	NaN	0.000000	0.001529	0.001705	28.0809	0.041657	0.001933	21.5538	-38.4839	-163.079	-0.028377	0.625600	-1.102863	-1.104182	0.031588	21.5538	-1.103962	-5.665626E+14	-5.575343E-17	NaN
1135	1.000000	0.638914	7.37616e+06	-56889.1	1055.82	-29737.2	0.000000	0.000000	6.638978	-0.116864	NaN	0.000000	0.001552	0.001711	28.0813	0.019140	0.001844	10.3788	-53.3749	-163.861	-0.065782	0.637627	-1.090869	-1.092156	-0.116864	10.3788	-1.082424	-2.911218E+14	4.014280E-16	NaN
1135	1.000000	0.650949	7.37616e+06	-56889.1	1055.82	-29737.2	0.000000	0.000000	6.651018	-0.015747	NaN	0.000000	0.001563	0.001717	28.0809	0.065964	0.001973	33.4364	-18.2716	-163.58	-0.031941	0.649629	-1.078833	-1.080153	-0.015747	33.4364	-1.078480	-2.576943E+14	6.110872E-17	NaN
1135	1.000000	0.662932	7.37616e+06	-56889.1	1055.82	-29737.2	0.000000	0.000000	6.663001	0.011665	NaN	0.000000	0.001612	0.001746	28.081	0.068963	0.002089	33.0094	-134	-165.681	0.045541	0.661608	-1.066851	-1.068175	0.011665	33.0094	-1.067116	-1.813194E+14	-6.433395E-17	NaN
1135	1.000000	0.674947	7.37616e+06	-56889.1	1055.82	-29737.2	0.000000	0.000000	6.675016	-0.007210	NaN	0.000000	0.001574	0.001716	28.0808	0.054222	0.002040	26.581	-22.9084	-162.771	0.023198	0.673623	-1.054836	-1.056160	-0.007210	26.581	-1.054632	-1.232193E+14	5.851174E-17	NaN
1135	1.000000	0.686922	7.37616e+06	-56889.1	1055.82	-29737.2	0.000000	0.000000	6.686990	-0.043528	NaN	0.000000	0.001559	0.001747	28.0807	0.165794	0.001996	83.0786	-167.441	-163.303	-0.117633	0.685678	-1.042861	-1.044105	-0.043528	83.0786	-1.042468	-8.455658E+13	5.147761E-16	NaN
1135	1.000000	0.698963	7.37616e+06	-56889.1	1055.82	-29737.2	0.000000	0.000000	6.699030	-0.039974	NaN	0.000000	0.001535	0.001726	28.0809	0.056453	0.001936	29.1569	83.0748	-164.577	-0.121785	0.697591	-1.030820	-1.032192	-0.039974	29.1569	-1.029792	-5.710578E+13	7.000008E-16	NaN
1135	1.000000	0.710972	7.37616e+06	-56889.1	1055.82	-29737.2	0.000000	0.000000	6.711040	-0.032032	NaN	0.000000	0.001549	0.001728	28.0808	0.086156	0.001955	44.0631	-110.841	-163.364	-0.025511	0.709681	-1.018811	-1.020101	-0.032032	44.0631	-1.018266	-3.995914E+13	8.016078E-16	NaN
1135	1.000000	0.722992	7.37616e+06	-56889.1	1055.82	-29737.2	0.000000	0.000000	6.723059	-0.046602	NaN	0.000000	0.001556	0.001730	28.081	0.097022	0.002077	46.7085	158.638	-164.843	-0.045702	0.721631	-1.006791	-1.008152	-0.046602	46.7085	-1.006042	-2.735982E+13	1.703294E-15	NaN
1135	1.000000	0.734938	7.37616e+06	-56889.1	1055.82	-29737.2	0.000000	0.000000	6.735006	-0.045497	NaN	0.000000	0.001603	0.001720	28.0809	0.037097	0.001992	18.6206	-125.028	-164.399	-0.095440	0.733632	-0.994845	-0.996151	-0.045497	18.6206	-0.993012	-1.826739E+13	2.490634E-15	NaN
1135	1.000000	0.746953	7.37616e+06	-56889.1	1055.82	-29737.2	0.000000	0.000000	6.747024	0.044389	NaN	0.000000	0.001568	0.001711	28.0796	0.122550	0.001921	63.787	-70.6161	-165.427	0.029134	0.745634	-0.982829	-0.984149	0.044389	63.787	-0.983351	-1.353816E+13	-3.278837E-15	NaN
1135	1.000000	0.758988	7.37616e+06	-56889.1	1055.82	-29737.2	0.000000	0.000000	6.759057	-0.000106	NaN	0.000000	0.001570	0.001717	28.0794	0.138550	0.001858	74.5834	-94.4844	-160.384	-0.012824	0.757660	-0.970795	-0.972123	-0.000106	74.5834	-0.970794	-9.169755E+12	1.157750E-17	NaN
1135	1.000000	0.770964	7.37616e+06	-56889.1	1055.82	-29737.2	0.000000	0.000000	6.771034	0.006922	NaN	0.000000	0.001591	0.001713	28.0797	0.084572	0.001881	44.9659	-56.9216	-166.441	0.071629	0.769711	-0.958818	-0.960072	0.006922	44.9659	-0.958934	-6.345924E+12	-1.090722E-15	NaN
1135	1.000000	0.782977	7.37616e+06	-56889.1	1055.82	-29737.2	0.000000	0.000000	6.783045	-0.014699	NaN	0.000000	0.001591	0.001718	28.0798	0.021178	0.001991	10.6364	-80.8915	-163.298	-0.052723	0.781612	-0.946806	-0.948171	-0.014699	10.6364	-0.945770	-4.216685E+12	3.485861E-15	NaN
1135	1.000000	0.794997	7.37616e+06	-56889.1	1055.82	-29737.2	0.000000	0.000000	6.795065	-0.014440	NaN	0.000000	0.001561	0.001698	28.0796	0.151231	0.001906	79.3275	138.858	-164.495	-0.068078	0.793696	-0.934786	-0.936087	-0.014440	79.3275	-0.934650	-2.985014E+12	4.837605E-15	NaN
1135	1.000000	0.807011	7.37616e+06	-56889.1	1055.82	-29737.2	0.000000	0.000000	6.807080	0.002913	NaN	0.000000	0.001535	0.001717	28.0799	0.017637	0.002104	8.380765	-177.445	-164.754	0.030759	0.805700	-0.922772	-0.924083	0.002913	8.380765	-0.923033	-2.080420E+12	-1.400159E-15	NaN
1135	1.000000	0.818994	7.37616e+06	-56889.1	1055.82	-29737.2	0.000000	0.000000	6.819063	0.004447	NaN	0.000000	0.001521	0.001734	28.0799	0.060723	0.001974	30.7678	138.409	-164.376	0.040757	0.817668	-0.910789	-0.912115	0.004447	30.7678	-0.910897	-1.426536E+12	-3.117378E-15	NaN
1135	1.000000	0.831016	7.37616e+06	-56889.1	1055.82	-29737.2	0.000000	0.000000	6.831084	-0.043163	NaN	0.000000	0.001555	0.001693	28.0797	0.087101	0.001950	44.6713	51.5784	-164.149	0.011373	0.829751	-0.898767	-0.900031	-0.043163	44.6713	-0.898042	-9.563285E+11	4.513361E-14	NaN
1135	1.000000	0.843039	7.37616e+06	-56889.1	1055.82	-29737.2	0.000000	0.000000	6.843106	-0.055658	NaN	0.000000	0.001536	0.001722	28.0796	0.101644	0.002119	47.9584	-125.807	-165.159	-0.064649	0.841736	-0.886744	-0.888047	-0.055658	47.9584	-0.885873	-6.548263E+11	8.499670E-14	NaN
1135	1.000000	0.855014	7.37616e+06	-56889.1	1055.82	-29737.2	0.000000	0.000000	6.855082	-0.049430	NaN	0.000000	0.001546	0.001730	28.0796	0.058578	0.002126	27.5592	172.523	-165.939	-0.039735	0.853708	-0.874768	-0.876075	-0.049430	27.5592	-0.873423	-4.443784E+11	1.112333E-13	NaN
1135	1.000000	0.866990	7.37616e+06	-56889.1	1055.82	-29737.2	0.000000	0.000000	6.867059	-0.005157	NaN	0.000000	0.001590	0.001710	28.0801	0.036996	0.002068	17.8868	92.4664	-166.384	0.033056	0.865681	-0.862793	-0.864101	-0.005157	17.8868	-0.862576	-3.169507E+11	1.627040E-14	NaN
1135	1.000000	0.879013	7.37616e+06	-56889.1	1055.82	-29737.2	0.000000	0.000000	6.879080	-0.064549	NaN	0.000000	0.001590	0.001742	28.0796	0.029653	0.002021	14.6712	76.8483	-163.639	-0.116371	0.877740	-0.850770	-0.852042	-0.064549	14.6712	-0.847470	-1.979138E+11	3.261448E-13	NaN
1135	1.000000	0.891032	7.37616e+06	-56889.1	1055.82	-29737.2	0.000000	0.000000	6.891103	0.022060	NaN	0.000000	0.001610	0.001700	28.0807	0.128670	0.001882	68.3844	155.61	-163.591	0.007066	0.889746	-0.838750	-0.840036	0.022060	68.3844	-0.838992	-1.519290E+11	-1.451964E-13	NaN
1135	1.000000	0.903024	7.37616e+06	-56889.1	1055.82	-29737.2	0.000000	0.000000	6.903090	-0.077579	NaN	0.000000	0.001614	0.001724	28.0808	0.044596	0.001965	22.6917	133.18	-165.862	-0.005031	0.901711	-0.826758	-0.828072	-0.077579	22.6917	-0.824194	-9.573784E+10	8.103275E-13	NaN
1135	1.000000	0.915037	7.37616e+06	-56889.1	1055.82	-29737.2	0.000000	0.000000	6.915107	0.026630	NaN	0.000000	0.001649	0.001747	28.0811	0.057815	0.001987	29.1035	21.0932	-165.378	0.047047	0.913741	-0.814746	-0.816042	0.026630	29.1035	-0.815432	-7.282155E+10	-3.656931E-13	NaN
1135	1.000000	0.927041	7.37616e+06	-56889.1	1055.82	-29737.2	0.000000	0.000000	6.927110	-0.014457	NaN	0.000000	0.001609	0.001753	28.0809	0.131178	0.001987	66.0315	-162.779	-165.399	0.015445	0.925742	-0.802742	-0.804041	-0.014457	66.0315	-0.802578	-4.873596E+10	2.966410E-13	NaN
1135	1.000000	0.939057	7.37616e+06	-56889.1	1055.82	-29737.2	0.000000	0.000000	6.939125	-0.021330	NaN	0.000000	0.001600	0.001783	28.0807	0.092930	0.001955	47.5404	-134.55	-165.742	-0.009839	0.937752	-0.790726	-0.792031	-0.021330	47.5404	-0.790390	-3.329476E+10	6.406498E-13	NaN
1135	1.000000	0.951045	7.37616e+06	-56889.1	1055.82	-29737.2	0.000000	0.000000	6.951113	-0.029094	NaN	0.000000	0.001668	0.001749	28.0809	0.089688	0.001932	46.4116	51.3681	-167.013	-0.046257	0.949738	-0.778738	-0.780045	-0.029094	46.4116	-0.778268	-2.278717E+10	1.276775E-12	NaN
1135	1.000000	0.963066	7.37616e+06	-56889.1	1055.82	-29737.2	0.000000	0.000000	6.963136	0.001246	NaN	0.000000	0.001590	0.001755	28.0808	0.081067	0.002045	39.6367	-84.6793	-166.587	-0.078442	0.961721	-0.766716	-0.768062	0.001246	39.6367	-0.766740	-1.588456E+10	-7.844537E-14	NaN
1135	1.000000	0.975053	7.37616e+06	-56889.1	1055.82	-29737.2	0.000000	0.000000	6.975121	-0.038181	NaN	0.000000	0.001598	0.001722	28.0807	0.012241	0.002085	5.871841	-140.952	-162.7	-0.016894	0.973760	-0.754730	-0.756023	-0.038181	5.871841	-0.749853	-9.358723E+9	4.079740E-12	NaN
1135	1.000000	0.987058	7.37616e+06	-56889.1	1055.82	-29737.2	0.000000	0.000000	6.987130	0.065265	NaN	0.000000	0.001624	0.001745	28.0807	0.018967	0.001947	9.742528	-170.45	-164.932	-0.021226	0.985727	-0.742724	-0.744056	0.065265	9.742528	-0.747749	-8.761380E+9	-7.449173E-12	NaN
1135	1.000000	0.999063	7.37616e+06	-56889.1	1055.82	-29737.2	0.000000	0.000000	6.999131	-0.026489	NaN	0.000000	0.001665	0.001690	28.0808	0.099266	0.001961	50.614	-41.2498	-164.936	0.029449	0.997774	-0.730720	-0.732009	-0.026489	50.614	-0.730327	-5.073002E+9	5.221621E-12	NaN
1135	1.000000	1.011040	7.37616e+06	-56889.1	1055.82	-29737.2	0.000000	0.000000	7.011106	-0.077741	NaN	0.000000	0.001662	0.001742	28.0809	0.037659	0.001917	19.648	-84.9581	-166.926	-0.006735	1.009801	-0.718743	-0.719981	-0.077741	19.648	-0.715775	-3.212542E+9	2.419933E-11	NaN
1135	1.000000	1.023069	7.37616e+06	-56889.1	1055.82	-29737.2	0.000000	0.000000	7.023139	0.006179	NaN	0.000000	0.001641	0.001720	28.0793	0.031614	0.001957	16.1556	-128.358	-166.179	0.032966	1.021839	-0.706714	-0.707944	0.006179	16.1556	-0.707001	-2.438431E+9	-2.533807E-12	NaN
1135	1.000000	1.035091	7.37616e+06	-56889.1	1055.82	-29737.2	0.000000	0.000000	7.035162	0.032339	NaN	0.000000	0.001651	0.001721	28.0793	0.057527	0.002245	25.6238	41.375	-166.039	-0.038504	1.033771	-0.694692	-0.696012	0.032339	25.6238	-0.695638	-1.705919E+9	-1.895687E-11	NaN
1135	1.000000	1.047113	7.37616e+06	-56889.1	1055.82	-29737.2	0.000000	0.000000	7.047184	0.036268	NaN	0.000000	0.001673	0.001723	28.0793	0.012906	0.001916	6.737167	-45.8258	-166.212	0.050186	1.045790	-0.682669	-0.683993	0.036268	6.737167	-0.686707	-1.287974E+9	-2.815895E-11	NaN
1135	1.000000	1.059099	7.37616e+06	-56889.1	1055.82	-29737.2	0.000000	0.000000	7.059169	0.009589	NaN	0.000000	0.001597	0.001770	28.0796	0.056816	0.002113	26.8907	-141.495	-163.251	0.016945	1.057814	-0.670684	-0.671969	0.009589	26.8907	-0.670951	-7.841692E+8	-1.222801E-11	NaN
1135	1.000000	1.071109	7.37616e+06	-56889.1	1055.82	-29737.2	0.000000	0.000000	7.071178	-0.014659	NaN	0.000000	0.001612	0.001704	28.0794	0.067712	0.001980	34.193	-103.322	-166.694	-0.007600	1.069720	-0.658674	-0.660063	-0.014659	34.193	-0.658352	-5.271020E+8	2.781114E-11	NaN
1135	1.000000	1.083124	7.37616e+06	-56889.1	1055.82	-29737.2	0.000000	0.000000	7.083191	-0.075813	NaN	0.000000	0.001594	0.001748	28.0795	0.031409	0.002095	14.9932	-19.204	-167.866	-0.005006	1.081779	-0.646658	-0.648004	-0.075813	14.9932	-0.642866	-3.233008E+8	2.344969E-10	NaN
1135	1.000000	1.095093	7.37616e+06	-56889.1	1055.82	-29737.2	0.000000	0.000000	7.095165	0.053569	NaN	0.000000	0.001590	0.001731	28.0799	0.066375	0.002003	33.1405	-118.034	-162.505	0.029776	1.093802	-0.634690	-0.635980	0.053569	33.1405	-0.635902	-2.594498E+8	-2.064733E-10	NaN
1135	1.000000	1.107104	7.37616e+06	-56889.1	1055.82	-29737.2	0.000000	0.000000	7.107173	0.009954	NaN	0.000000	0.001562	0.001709	28.0795	0.130139	0.001929	67.4809	-22.7951	-164.936	-0.087954	1.105776	-0.622679	-0.624007	0.009954	67.4809	-0.622790	-1.713851E+8	-5.807981E-11	NaN
1135	1.000000	1.119119	7.37616e+06	-56889.1	1055.82	-29737.2	0.000000	0.000000	7.119189	0.021151	NaN	0.000000	0.001585	0.001718	28.0797	0.087282	0.002011	43.3964	-153.325	-167.872	0.105498	1.117847	-0.610664	-0.611936	0.021151	43.3964	-0.611029	-1.181066E+8	-1.790881E-10	NaN
1135	1.000000	1.131141	7.37616e+06	-56889.1	1055.82	-29737.2	0.000000	0.000000	7.131210	-0.021505	NaN	0.000000	0.001607	0.001717	28.0794	0.042318	0.001937	21.8468	-61.3623	-166.941	0.004416	1.129824	-0.598642	-0.599958	-0.021505	21.8468	-0.597903	-7.790810E+7	2.760348E-10	NaN
1135	1.000000	1.143112	7.37616e+06	-56889.1	1055.82	-29737.2	0.000000	0.000000	7.143178	-0.079989	NaN	0.000000	0.001565	0.001756	28.0794	0.123599	0.002006	61.6129	9.583872	-166.461	-0.117195	1.141774	-0.586671	-0.588009	-0.079989	61.6129	-0.585697	-5.288533E+7	1.512491E-9	NaN
1135	1.000000	1.155155	7.37616e+06	-56889.1	1055.82	-29737.2	0.000000	0.000000	7.155224	-0.007618	NaN	0.000000	0.001603	0.001785	28.0807	0.007558	0.002042	3.701820	51.7325	-164.99	0.050988	1.153832	-0.574628	-0.575951	-0.007618	3.701820	-0.573084	-3.541949E+7	2.150730E-10	NaN
1135	1.000000	1.167136	7.37616e+06	-56889.1	1055.82	-29737.2	0.000000	0.000000	7.167204	-0.051030	NaN	0.000000	0.001583	0.001784	28.0809	0.072907	0.002048	35.5964	75.3127	-171.603	-0.017859	1.165760	-0.562646	-0.564023	-0.051030	35.5964	-0.561571	-2.455345E+7	2.078323E-9	NaN
1135	1.000000	1.179163	7.37616e+06	-56889.1	1055.82	-29737.2	0.000000	0.000000	7.179233	0.024200	NaN	0.000000	0.001611	0.001751	28.081	0.064898	0.002027	32.0194	5.219992	-170.017	0.000343	1.177808	-0.550620	-0.551974	0.024200	32.0194	-0.551187	-1.763582E+7	-1.372196E-9	NaN
1135	1.000000	1.191153	7.37616e+06	-56889.1	1055.82	-29737.2	0.000000	0.000000	7.191222	-0.024044	NaN	0.000000	0.001562	0.001739	28.0811	0.024720	0.002027	12.1928	-75.6996	-167.165	0.024988	1.189827	-0.538629	-0.539956	-0.024044	12.1928	-0.537150	-1.126755E+7	2.133919E-9	NaN
1135	1.000000	1.203147	7.37616e+06	-56889.1	1055.82	-29737.2	0.000000	0.000000	7.203216	0.008203	NaN	0.000000	0.001536	0.001734	28.0811	0.093134	0.001974	47.1847	133.491	-167.993	0.015195	1.201845	-0.526636	-0.527938	0.008203	47.1847	-0.526767	-8.08461e+06	-1.014692E-9	NaN
1135	1.000000	1.215163	7.37616e+06	-56889.1	1055.82	-29737.2	0.000000	0.000000	7.215232	0.004229	NaN	0.000000	0.001565	0.001716	28.0811	0.057278	0.002036	28.1287	163.091	-169.064	-0.049800	1.213845	-0.514620	-0.515938	0.004229	28.1287	-0.514733	-5.49938e+06	-7.690751E-10	NaN
1135	1.000000	1.227143	7.37616e+06	-56889.1	1055.82	-29737.2	0.000000	0.000000	7.227209	-0.070581	NaN	0.000000	0.001641	0.001698	28.0809	0.083048	0.002063	40.2514	100.462	-166.142	-0.068217	1.225844	-0.502640	-0.503939	-0.070581	40.2514	-0.501325	-3.57687e+06	1.973253E-8	NaN
1135	1.000000	1.239179	7.37616e+06	-56889.1	1055.82	-29737.2	0.000000	0.000000	7.239249	0.012322	NaN	0.000000	0.001621	0.001705	28.0815	0.070354	0.001929	36.472	-52.6913	-166.722	-0.052405	1.237863	-0.490604	-0.491920	0.012322	36.472	-0.490857	-2.55488e+06	-4.822809E-9	NaN
1135	1.000000	1.251161	7.37616e+06	-56889.1	1055.82	-29737.2	0.000000	0.000000	7.251231	0.017675	NaN	0.000000	0.001638	0.001703	28.0809	0.146395	0.001966	74.4709	147.121	-164.577	-0.087460	1.249841	-0.478621	-0.479942	0.017675	74.4709	-0.478799	-1.73268e+06	-1.020113E-8	NaN
1135	1.000000	1.263194	7.37616e+06	-56889.1	1055.82	-29737.2	0.000000	0.000000	7.263265	0.051305	NaN	0.000000	0.001615	0.001675	28.0809	0.047223	0.001900	24.8522	-27.9917	-167.759	0.031332	1.261934	-0.466589	-0.467848	0.051305	24.8522	-0.468137	-1.22822e+06	-4.177206E-8	NaN
1135	1.000000	1.275192	7.37616e+06	-56889.1	1055.82	-29737.2	0.000000	0.000000	7.275261	-0.007117	NaN	0.000000	0.001671	0.001733	28.0815	0.133814	0.002070	64.6405	127.972	-169.331	-0.049960	1.273902	-0.454591	-0.455881	-0.007117	64.6405	-0.454508	-790309	9.004800E-9	NaN
1135	1.000000	1.287158	7.37616e+06	-56889.1	1055.82	-29737.2	0.000000	0.000000	7.287225	-0.058505	NaN	0.000000	0.001586	0.001667	28.0811	0.043790	0.002057	21.287	-142.836	-167.644	-0.025791	1.285907	-0.442625	-0.443876	-0.058505	21.287	-0.440563	-502708	1.163804E-7	NaN
1135	1.000000	1.299188	7.37616e+06	-56889.1	1055.82	-29737.2	0.000000	0.000000	7.299256	-0.023769	NaN	0.000000	0.001578	0.001693	28.08	0.037524	0.002027	18.5083	-44.1053	-163.664	-0.005801	1.297866	-0.430595	-0.431917	-0.023769	18.5083	-0.429632	-352252	6.747761E-8	NaN
1135	1.000000	1.311185	7.37616e+06	-56889.1	1055.82	-29737.2	0.000000	0.000000	7.311252	-0.062248	NaN	0.000000	0.001562	0.001728	28.0798	0.052100	0.001948	26.7487	-82.3987	-168.564	-0.029053	1.309902	-0.418598	-0.419880	-0.062248	26.7487	-0.416852	-232143	2.681457E-7	NaN
1135	1.000000	1.323222	7.37616e+06	-56889.1	1055.82	-29737.2	0.000000	0.000000	7.323294	0.062320	NaN	0.000000	0.001642	0.001703	28.0797	0.019219	0.001970	9.757165	-29.0382	-169.271	0.020585	1.321856	-0.406561	-0.407927	0.062320	9.757165	-0.411351	-193917	-3.213748E-7	NaN
1135	1.000000	1.335216	7.37616e+06	-56889.1	1055.82	-29737.2	0.000000	0.000000	7.335284	-0.017050	NaN	0.000000	0.001630	0.001688	28.0798	0.109442	0.001961	55.8174	98.0918	-165.516	-0.034335	1.333839	-0.394567	-0.395943	-0.017050	55.8174	-0.394338	-110963	1.536531E-7	NaN
1135	1.000000	1.347208	7.37616e+06	-56889.1	1055.82	-29737.2	0.000000	0.000000	7.347275	-0.055988	NaN	0.000000	0.001572	0.001717	28.0798	0.074499	0.001944	38.3195	-64.4782	-165.193	-0.105697	1.345865	-0.382574	-0.383918	-0.055988	38.3195	-0.381479	-72628	7.708881E-7	NaN
1135	1.000000	1.359218	7.37616e+06	-56889.1	1055.82	-29737.2	0.000000	0.000000	7.359287	-0.005069	NaN	0.000000	0.001588	0.001738	28.08	0.011875	0.002079	5.712064	155.454	-166.544	-0.040322	1.357900	-0.370565	-0.371883	-0.005069	5.712064	-0.369899	-49508.2	1.023864E-7	NaN
1135	1.000000	1.371231	7.37616e+06	-56889.1	1055.82	-29737.2	0.000000	0.000000	7.371301	0.007236	NaN	0.000000	0.001558	0.001712	28.0801	0.072866	0.001995	36.5261	-138.165	-166.313	0.020355	1.369915	-0.358551	-0.359867	0.007236	36.5261	-0.358700	-34123.2	-2.120446E-7	NaN
1135	1.000000	1.383229	7.37616e+06	-56889.1	1055.82	-29737.2	0.000000	0.000000	7.383295	-0.093510	NaN	0.000000	0.001577	0.001734	28.0801	0.067203	0.002098	32.0365	-166.157	-164.343	-0.088556	1.381888	-0.346554	-0.347895	-0.093510	32.0365	-0.344364	-21140.4	4.423274E-6	NaN
1135	1.000000	1.395225	7.37616e+06	-56889.1	1055.82	-29737.2	0.000000	0.000000	7.395290	-0.086542	NaN	0.000000	0.001560	0.001709	28.0799	0.036589	0.001805	20.2742	147.153	-167.299	-0.125983	1.393898	-0.334558	-0.335885	-0.086542	20.2742	-0.331357	-13655.6	6.337448E-6	NaN
1135	1.000000	1.407262	7.37616e+06	-56889.1	1055.82	-29737.2	0.000000	0.000000	7.407333	0.033211	NaN	0.000000	0.001544	0.001695	28.0797	0.057343	0.001990	28.8159	65.4575	-166.338	-0.009286	1.405955	-0.322521	-0.323828	0.033211	28.8159	-0.323385	-10433.2	-3.183222E-6	NaN
1135	1.000000	1.419249	7.37616e+06	-56889.1	1055.82	-29737.2	0.000000	0.000000	7.419319	0.034896	NaN	0.000000	0.001584	0.001720	28.0798	0.048123	0.001898	25.3577	-171.068	-168.418	0.038797	1.417895	-0.310534	-0.311887	0.034896	25.3577	-0.311566	-6985.96	-4.995227E-6	NaN
1135	1.000000	1.431267	7.37616e+06	-56889.1	1055.82	-29737.2	0.000000	0.000000	7.431335	-0.037260	NaN	0.000000	0.001553	0.001716	28.0812	0.106159	0.002102	50.4991	-119.14	-165.832	-0.047058	1.429967	-0.298516	-0.299816	-0.037260	50.4991	-0.297963	-4388.21	8.490963E-6	NaN
1135	1.000000	1.443277	7.37616e+06	-56889.1	1055.82	-29737.2	0.000000	0.000000	7.443347	0.007151	NaN	0.000000	0.001581	0.001722	28.0809	0.056673	0.002136	26.5264	-175.007	-165.375	-0.007904	1.441963	-0.286506	-0.287820	0.007151	26.5264	-0.286708	-2978.01	-2.401416E-6	NaN
1135	1.000000	1.455268	7.37616e+06	-56889.1	1055.82	-29737.2	0.000000	0.000000	7.455339	0.024149	NaN	0.000000	0.001573	0.001730	28.0813	0.023188	0.001894	12.2412	147.951	-167.055	-0.023236	1.454025	-0.274514	-0.275758	0.024149	12.2412	-0.275994	-2053.26	-1.176107E-5	NaN
1135	1.000000	1.467266	7.37616e+06	-56889.1	1055.82	-29737.2	0.000000	0.000000	7.467337	0.026414	NaN	0.000000	0.001549	0.001697	28.0814	0.074471	0.002076	35.8808	137.174	-167.707	-0.036412	1.465929	-0.262517	-0.263853	0.026414	35.8808	-0.263069	-1305.84	-2.022781E-5	NaN
1135	1.000000	1.479265	7.37616e+06	-56889.1	1055.82	-29737.2	0.000000	0.000000	7.479333	-0.029520	NaN	0.000000	0.001595	0.001727	28.0811	0.051170	0.001997	25.6282	166.862	-166.231	-0.038699	1.477995	-0.250518	-0.251788	-0.029520	25.6282	-0.249654	-812.098	3.635038E-5	NaN
1135	1.000000	1.491291	7.37616e+06	-56889.1	1055.82	-29737.2	0.000000	0.000000	7.491361	0.016803	NaN	0.000000	0.001574	0.001724	28.0811	0.067785	0.001963	34.5248	-30.3822	-167.899	0.019500	1.489922	-0.238492	-0.239861	0.016803	34.5248	-0.238857	-551.679	-3.045829E-5	NaN
1135	1.000000	1.503273	7.37616e+06	-56889.1	1055.82	-29737.2	0.000000	0.000000	7.503343	0.026400	NaN	0.000000	0.001576	0.001714	28.081	0.017618	0.002077	8.481128	-49.8814	-166.255	0.129023	1.501998	-0.226510	-0.227785	0.026400	8.481128	-0.228845	-383.937	-6.876113E-5	NaN
1135	1.000000	1.515303	7.37616e+06	-56889.1	1055.82	-29737.2	0.000000	0.000000	7.515374	0.041479	NaN	0.000000	0.001580	0.001716	28.0811	0.030055	0.002119	14.1813	175.941	-166.144	-0.025820	1.513976	-0.214479	-0.215807	0.041479	14.1813	-0.216673	-245.694	-0.000169	NaN
1135	1.000000	1.527278	7.37616e+06	-56889.1	1055.82	-29737.2	0.000000	0.000000	7.527350	0.057727	NaN	0.000000	0.001562	0.001713	28.0814	0.018021	0.002047	8.802370	-154.267	-166.206	0.046750	1.526007	-0.202504	-0.203776	0.057727	8.802370	-0.207423	-174.184	-0.000331	NaN
1135	1.000000	1.539313	7.37616e+06	-56889.1	1055.82	-29737.2	0.000000	0.000000	7.539383	0.000582	NaN	0.000000	0.001572	0.001711	28.081	0.078559	0.001934	40.614	-151.151	-167.344	-0.044540	1.537972	-0.190470	-0.191811	0.000582	40.614	-0.190480	-91.6323	-6.350214E-6	NaN
1135	1.000000	1.551300	7.37616e+06	-56889.1	1055.82	-29737.2	0.000000	0.000000	7.551368	-0.018932	NaN	0.000000	0.001586	0.001667	28.0813	0.108405	0.001922	56.4149	-36.1499	-165.338	0.027801	1.550019	-0.178483	-0.179764	-0.018932	56.4149	-0.178231	-56.9281	0.000333	NaN
1135	1.000000	1.563333	7.37616e+06	-56889.1	1055.82	-29737.2	0.000000	0.000000	7.563406	0.068144	NaN	0.000000	0.001562	0.001692	28.0813	0.120232	0.001953	61.5592	52.2237	-166.166	0.019469	1.561976	-0.166449	-0.167807	0.068144	61.5592	-0.167280	-36.8326	-0.001850	NaN
1135	1.000000	1.575331	7.37616e+06	-56889.1	1055.82	-29737.2	0.000000	0.000000	7.575398	-0.051714	NaN	0.000000	0.001563	0.001666	28.0802	0.050971	0.002031	25.1	143.501	-165.529	-0.000362	1.574008	-0.154452	-0.155774	-0.051714	25.1	-0.152907	-20.4553	0.002528	NaN
1135	1.000000	1.587309	7.37616e+06	-56889.1	1055.82	-29737.2	0.000000	0.000000	7.587377	-0.022535	NaN	0.000000	0.001591	0.001693	28.08	0.045940	0.001955	23.4969	149.137	-165.219	0.023340	1.585947	-0.142474	-0.143835	-0.022535	23.4969	-0.141755	-12.7595	0.001766	NaN
1135	1.000000	1.599336	7.37616e+06	-56889.1	1055.82	-29737.2	0.000000	0.000000	7.599405	-0.002185	NaN	0.000000	0.001644	0.001715	28.0801	0.098137	0.001973	49.7294	-150.695	-168.804	0.023772	1.598008	-0.130447	-0.131774	-0.002185	49.7294	-0.130414	-7.763331	0.000281	NaN
1135	1.000000	1.611358	7.37616e+06	-56889.1	1055.82	-29737.2	0.000000	0.000000	7.611427	0.001168	NaN	0.000000	0.001605	0.001694	28.08	0.104512	0.002042	51.1833	25.301	-167.267	-0.014065	1.610034	-0.118425	-0.119749	0.001168	51.1833	-0.118442	-4.493018	-0.000260	NaN
1135	1.000000	1.623366	7.37616e+06	-56889.1	1055.82	-29737.2	0.000000	0.000000	7.623435	-0.016905	NaN	0.000000	0.001614	0.001712	28.0799	0.022018	0.001960	11.2348	90.4289	-169.449	0.006302	1.621983	-0.106416	-0.107800	-0.016905	11.2348	-0.105288	-2.384442	0.007090	NaN
1135	1.000000	1.635359	7.37616e+06	-56889.1	1055.82	-29737.2	0.000000	0.000000	7.635430	0.027723	NaN	0.000000	0.001598	0.001701	28.08	0.033241	0.002050	16.212	-23.2902	-166.564	0.027570	1.634041	-0.094423	-0.095741	0.027723	16.212	-0.095706	-1.463743	-0.018940	NaN
1135	1.000000	1.647348	7.37616e+06	-56889.1	1055.82	-29737.2	0.000000	0.000000	7.647416	-0.012876	NaN	0.000000	0.001589	0.001744	28.0801	0.064089	0.001830	35.0227	175.299	-166.065	-0.001890	1.646025	-0.082435	-0.083757	-0.012876	35.0227	-0.082160	-0.700326	0.018386	NaN
1135	1.000000	1.659349	7.37616e+06	-56889.1	1055.82	-29737.2	0.000000	0.000000	7.659416	-0.046824	NaN	0.000000	0.001571	0.001715	28.0804	0.015851	0.002037	7.780360	-165.936	-166.637	-0.002166	1.658070	-0.070434	-0.071713	-0.046824	7.780360	-0.065920	-0.264256	0.177191	NaN
1135	1.000000	1.671360	7.37616e+06	-56889.1	1055.82	-29737.2	0.000000	0.000000	7.671427	-0.039662	NaN	0.000000	0.001537	0.001700	28.0802	0.023532	0.001956	12.0331	108.761	-163.515	-0.001611	1.670053	-0.058423	-0.059729	-0.039662	12.0331	-0.055951	-0.137366	0.288732	NaN
1135	1.000000	1.683389	7.37616e+06	-56889.1	1055.82	-29737.2	0.000000	0.000000	7.683457	-0.031748	NaN	0.000000	0.001557	0.001709	28.0799	0.139016	0.002060	67.4953	-147.642	-164.362	-0.002868	1.682065	-0.046393	-0.047718	-0.031748	67.4953	-0.046041	-0.069151	0.459113	NaN
1135	1.000000	1.695364	7.37616e+06	-56889.1	1055.82	-29737.2	0.000000	0.000000	7.695434	0.028983	NaN	0.000000	0.001577	0.001733	28.0799	0.006697	0.002087	3.209428	-166.391	-166.257	0.012418	1.694021	-0.034419	-0.035762	0.028983	3.209428	-0.041192	-0.049160	-0.589564	NaN
1135	1.000000	1.707360	7.37616e+06	-56889.1	1055.82	-29737.2	0.000000	0.000000	7.707428	-0.035565	NaN	0.000000	0.001585	0.001690	28.0812	0.073844	0.002069	35.699	-29.4365	-167.181	-0.144515	1.706089	-0.022422	-0.023693	-0.035565	35.699	-0.021675	-0.013855	2.566987	NaN
1135	1.000000	1.719421	7.37616e+06	-56889.1	1055.82	-29737.2	0.000000	0.000000	7.719492	0.057967	NaN	0.000000	0.001583	0.001690	28.0822	0.085126	0.002048	41.5604	-120.548	-167.825	0.011563	1.718068	-0.010362	-0.011715	0.057967	41.5604	-0.011408	-0.007191	-8.061259	NaN
1135	1.000000	1.731385	7.37616e+06	-56889.1	1055.82	-29737.2	0.000000	0.000000	7.731752	7.236208	NaN	0.000000	0.001595	0.001680	28.0811	7.413019	0.001766	4196.56	11.5751	-170.674	6.399225	1.730114	0.001602	0.000331	7.236208	4196.56	0.000309	0.000232	31162.5	251610
1135	2.000000	1.735834	7.37616e+06	-56889.1	1055.82	-29737.2	0.000000	0.000000	7.736410	12.3223	NaN	0.000000	0.001576	0.001706	28.0823	11.5865	0.001557	7440.5	2.754716	-173.483	11.0806	1.735536	0.006051	0.005753	12.3223	7440.5	0.004809	0.003960	3112.06	108032
1135	2.000000	1.738835	7.37616e+06	-56889.1	1055.82	-29737.2	0.000000	0.000000	7.739615	17.2718	NaN	0.000000	0.001568	0.001720	28.0814	15.095	0.001674	9015.97	6.109216	-176.742	16.116	1.738506	0.009052	0.008723	17.2718	9015.97	0.007615	0.006650	2597.41	101015
1135	2.000000	1.741757	7.37616e+06	-56889.1	1055.82	-29737.2	0.000000	0.000000	7.742736	22.115	NaN	0.000000	0.001538	0.001717	28.0813	18.6385	0.001832	10175.4	3.647724	-175.677	20.5061	1.741425	0.011974	0.011642	22.115	10175.4	0.010344	0.009567	2311.71	95048.7
1135	2.000000	1.744807	7.37616e+06	-56889.1	1055.82	-29737.2	0.000000	0.000000	7.746057	28.6821	NaN	0.000000	0.001582	0.001701	28.0816	21.4885	0.001785	12037.9	4.951683	-177.796	28.5888	1.744467	0.015024	0.014684	28.6821	12037.9	0.013237	0.013006	2205.25	96438.1
1135	2.000000	1.747784	7.37616e+06	-56889.1	1055.82	-29737.2	0.000000	0.000000	7.749362	36.6714	NaN	0.000000	0.001572	0.001698	28.0812	24.5799	0.001864	13186.2	7.059933	179.612	36.7452	1.747468	0.018001	0.017686	36.6714	13186.2	0.015916	0.016526	2219.05	93716
1135	2.000000	1.750859	7.37616e+06	-56889.1	1055.82	-29737.2	0.000000	0.000000	7.752647	41.7592	NaN	0.000000	0.001588	0.001705	28.0811	27.4561	0.001888	14542.2	7.510583	178.636	44.3554	1.750493	0.021077	0.020711	41.7592	14542.2	0.018923	0.020878	2000.17	91952
1135	2.000000	1.753789	7.37616e+06	-56889.1	1055.82	-29737.2	0.000000	0.000000	7.755886	49.2845	NaN	0.000000	0.001653	0.001725	28.0812	30.4885	0.001915	15924	4.741467	-179.505	48.8005	1.753519	0.024006	0.023737	49.2845	15924	0.021685	0.025259	1951.15	91541.2
1135	2.000000	1.756818	7.37616e+06	-56889.1	1055.82	-29737.2	0.000000	0.000000	7.759341	59.6263	NaN	0.000000	0.001665	0.001714	28.0815	32.1585	0.001838	17500.4	2.350104	-177.922	60.2997	1.756447	0.027035	0.026664	59.6263	17500.4	0.024480	0.030076	1982.5	92195.3
1135	2.000000	1.759789	7.37616e+06	-56889.1	1055.82	-29737.2	0.000000	0.000000	7.762626	67.2605	NaN	0.000000	0.001645	0.001709	28.0806	35.3452	0.001904	18560.6	5.616713	177.826	67.5503	1.759492	0.030006	0.029710	67.2605	18560.6	0.027288	0.035310	1904.83	90242.8
1135	2.000000	1.762729	7.37616e+06	-56889.1	1055.82	-29737.2	0.000000	0.000000	7.766242	83.6887	NaN	0.000000	0.001564	0.001734	28.0803	37.5834	0.001710	21978.7	7.663109	174.357	81.5505	1.762406	0.032946	0.032623	83.6887	21978.7	0.030091	0.040932	2044.59	99253.4
1135	2.000000	1.765889	7.37616e+06	-56889.1	1055.82	-29737.2	0.000000	0.000000	7.769450	84.8766	NaN	0.000000	0.001619	0.001695	28.0801	40.4902	0.001853	21847.3	3.492348	179.698	91.9381	1.765499	0.036106	0.035716	84.8766	21847.3	0.033192	0.047620	1782.38	91469.7
1135	2.000000	1.768789	7.37616e+06	-56889.1	1055.82	-29737.2	0.000000	0.000000	7.772921	98.7427	NaN	0.000000	0.001624	0.001716	28.0799	42.0473	0.001734	24241.8	2.234239	178.71	101.001	1.768492	0.039006	0.038709	98.7427	24241.8	0.035952	0.053985	1829.08	95324
1135	2.000000	1.771708	7.37616e+06	-56889.1	1055.82	-29737.2	0.000000	0.000000	7.776417	112.753	NaN	0.000000	0.001660	0.001716	28.0797	44.8372	0.001773	25293	3.668822	176.524	110.792	1.771473	0.041926	0.041690	112.753	25293	0.038582	0.060416	1866.29	94015.4
1135	2.000000	1.774694	7.37616e+06	-56889.1	1055.82	-29737.2	0.000000	0.000000	7.779914	125.206	NaN	0.000000	0.001610	0.001665	28.0802	48.2587	0.001766	27326.8	7.695125	172.603	123.023	1.774385	0.044911	0.044603	125.206	27326.8	0.041474	0.067895	1844.13	95817.4
1135	2.000000	1.777718	7.37616e+06	-56889.1	1055.82	-29737.2	0.000000	0.000000	7.783442	137.428	NaN	0.000000	0.001547	0.001743	28.0797	51.1448	0.001742	29362	1.812220	177.511	134.553	1.777397	0.047936	0.047614	137.428	29362	0.044425	0.075964	1809.13	97332
1135	2.000000	1.780726	7.37616e+06	-56889.1	1055.82	-29737.2	0.000000	0.000000	7.786845	147.025	NaN	0.000000	0.001562	0.001665	28.0801	54.5499	0.001795	30396.5	5.242069	173.152	146.129	1.780482	0.050944	0.050699	147.025	30396.5	0.047316	0.084298	1744.11	95650.8
1135	2.000000	1.783702	7.37616e+06	-56889.1	1055.82	-29737.2	0.000000	0.000000	7.790554	164.857	NaN	0.000000	0.001571	0.001730	28.0799	57.0169	0.001728	33001.1	4.814409	173.33	162.955	1.783405	0.053919	0.053622	164.857	33001.1	0.050172	0.092947	1773.68	98897.5
1135	2.000000	1.786669	7.37616e+06	-56889.1	1055.82	-29737.2	0.000000	0.000000	7.794051	177.744	NaN	0.000000	0.001528	0.001714	28.0799	59.1577	0.001761	33600.9	3.663605	174.99	173.057	1.786449	0.056886	0.056666	177.744	33600.9	0.052919	0.101647	1748.64	96288.9
1135	2.000000	1.789733	7.37616e+06	-56889.1	1055.82	-29737.2	0.000000	0.000000	7.797897	196.73	NaN	0.000000	0.001509	0.001737	28.0797	60.6714	0.001695	35790.1	4.230243	173.971	195.18	1.789408	0.059950	0.059626	196.73	35790.1	0.055828	0.111274	1767.98	98025.6
1135	2.000000	1.792733	7.37616e+06	-56889.1	1055.82	-29737.2	0.000000	0.000000	7.801627	214.506	NaN	0.000000	0.001530	0.001741	28.0796	63.4081	0.001744	36354.4	3.931962	175.048	213.786	1.792302	0.062950	0.062520	214.506	36354.4	0.058525	0.120571	1779.08	95655.4
1135	2.000000	1.795662	7.37616e+06	-56889.1	1055.82	-29737.2	0.000000	0.000000	7.805143	228.759	NaN	0.000000	0.001528	0.001758	28.0811	66.4862	0.001738	38265.3	5.057016	172.2	225.173	1.795328	0.065879	0.065545	228.759	38265.3	0.061395	0.130859	1748.13	96644.2
1135	2.000000	1.798724	7.37616e+06	-56889.1	1055.82	-29737.2	0.000000	0.000000	7.808937	246.567	NaN	0.000000	0.001527	0.001761	28.0808	69.3037	0.001813	38235.9	5.015135	172.977	245.692	1.798343	0.068941	0.068561	246.567	38235.9	0.064104	0.140936	1749.49	93053.6
1135	2.000000	1.801607	7.37616e+06	-56889.1	1055.82	-29737.2	0.000000	0.000000	7.812612	265.791	NaN	0.000000	0.001529	0.001713	28.0809	72.4113	0.001723	42029.9	5.333290	171.743	260.301	1.801317	0.071825	0.071534	265.791	42029.9	0.067082	0.152420	1743.81	98358.4
1135	2.000000	1.804610	7.37616e+06	-56889.1	1055.82	-29737.2	0.000000	0.000000	7.816509	287.517	NaN	0.000000	0.001553	0.001707	28.0811	75.4007	0.001739	43367.9	3.671534	172.913	280.832	1.804375	0.074828	0.074592	287.517	43367.9	0.069855	0.163500	1758.51	97990.2
1135	2.000000	1.807672	7.37616e+06	-56889.1	1055.82	-29737.2	0.000000	0.000000	7.820173	302.16	NaN	0.000000	0.001580	0.001730	28.0809	78.5252	0.001835	42782.9	1.685889	175.498	300.655	1.807379	0.077890	0.077596	302.16	42782.9	0.072593	0.174794	1728.66	93493.1
1135	2.000000	1.810577	7.37616e+06	-56889.1	1055.82	-29737.2	0.000000	0.000000	7.823933	322.931	NaN	0.000000	0.001572	0.001715	28.0814	80.8695	0.001765	45813.1	4.169956	171.929	316.005	1.810310	0.080795	0.080527	322.931	45813.1	0.075508	0.187213	1724.94	96737.6
1135	2.000000	1.813790	7.37616e+06	-56889.1	1055.82	-29737.2	0.000000	0.000000	7.827861	340.315	NaN	0.000000	0.001591	0.001735	28.0809	84.1824	0.001847	45574.1	7.685409	169.075	346.286	1.813424	0.084008	0.083641	340.315	45574.1	0.078407	0.199958	1701.93	93115.3
1135	2.000000	1.816564	7.37616e+06	-56889.1	1055.82	-29737.2	0.000000	0.000000	7.831640	364.739	NaN	0.000000	0.001606	0.001697	28.0807	84.0561	0.001719	48897.2	4.377134	171.634	357.332	1.816318	0.086781	0.086535	364.739	48897.2	0.081187	0.212547	1716.04	96901.3
1135	2.000000	1.819682	7.37616e+06	-56889.1	1055.82	-29737.2	0.000000	0.000000	7.835510	383.039	NaN	0.000000	0.001601	0.001746	28.0809	85.9464	0.001763	48736.5	5.682628	170.801	382.946	1.819391	0.089899	0.089608	383.039	48736.5	0.084004	0.225675	1697.3	93731.4
1135	2.000000	1.822685	7.37616e+06	-56889.1	1055.82	-29737.2	0.000000	0.000000	7.839086	396.952	NaN	0.000000	0.001601	0.001740	28.0809	88.6284	0.001807	49039.8	2.714447	173.106	397.229	1.822407	0.092902	0.092624	396.952	49039.8	0.086831	0.239214	1659.4	91607
1135	2.000000	1.825590	7.37616e+06	-56889.1	1055.82	-29737.2	0.000000	0.000000	7.842948	420.219	NaN	0.000000	0.001592	0.001732	28.081	91.6524	0.001840	49802.3	3.388260	172.692	414.705	1.825350	0.095807	0.095567	420.219	49802.3	0.089479	0.252231	1666.01	90599.1
1135	2.000000	1.828649	7.37616e+06	-56889.1	1055.82	-29737.2	0.000000	0.000000	7.846983	443.934	NaN	0.000000	0.001563	0.001726	28.0798	95.0347	0.001801	52780.8	6.683983	170.059	440.946	1.828138	0.098867	0.098355	443.934	52780.8	0.092558	0.267772	1657.88	93189.3
1135	2.000000	1.831638	7.37616e+06	-56889.1	1055.82	-29737.2	0.000000	0.000000	7.850830	464.781	NaN	0.000000	0.001542	0.001750	28.0799	97.6633	0.001760	55496.7	1.321580	174.202	463.705	1.831359	0.101856	0.101576	464.781	55496.7	0.095574	0.283415	1639.93	95242.2