File: remote_trans/data/nanoindenter/0828-1/data/Data_2025-08-06,11h17m57s/2025-07-22_16-23-58_1_720.txt
2025-07-22, 16:23:58, 1
Index	Phase	Displacement	Time	Pos X	Pos Y	Pos Z	Rot A	Rot B	Piezo Z	Force A	Force B	Gripper	Voltage A	Voltage B	Temperature	Amplitude force	Amplitude pos	Stiffness	Phase shift	Phase excitation	Force A raw	Displacement raw	HMax	HMax raw	Real Force	Real Stiffness	Contact Depth	Area	Hardness	Reduced Mod.
[#]	[#]	[um]	[s]	[um]	[um]	[um]	[m°]	[m°]	[um]	[uN]	[uN]	[V]	[V]	[V]	[°C]	[uN]	[um]	[N/m]	[°]	[°]	[uN]	[um]	[um]	[um]	[uN]	[N/m]	[um]	[um^2]	[MPa]	[MPa]
720	1.000000	0.002414	7.3721e+06	-41089.1	1005.82	-29787.3	0.000000	0.000000	6.002806	-0.009005	NaN	0.000000	0.001550	0.001753	28.0835	0.078931	0.001041	75.8314	130.407	-162.063	0.024889	0.001113	-1.175768	-1.177068	-0.009005	75.8314	-1.175679	-5.187707E+15	1.735803E-18	NaN
720	1.000000	0.012456	7.3721e+06	-41089.1	1005.82	-29787.3	0.000000	0.000000	6.012850	0.026437	NaN	0.000000	0.001553	0.001736	28.0836	0.094719	0.001222	77.5197	-174.916	18.4071	-0.006927	0.010984	-1.165725	-1.167197	0.026437	77.5197	-1.165981	-3.846149E+15	-6.873717E-18	NaN
720	1.000000	0.022358	7.3721e+06	-41089.1	1005.82	-29787.3	0.000000	0.000000	6.022752	0.016976	NaN	0.000000	0.001586	0.001734	28.0836	0.199391	0.001677	118.923	-121.383	-162.341	0.075808	0.020998	-1.155823	-1.157183	0.016976	118.923	-1.155930	-2.820439E+15	-6.018766E-18	NaN
720	1.000000	0.032348	7.3721e+06	-41089.1	1005.82	-29787.3	0.000000	0.000000	6.032743	0.065456	NaN	0.000000	0.001608	0.001707	28.0837	0.103697	0.001889	54.9071	-10.2679	16.3777	0.109200	0.030985	-1.145834	-1.147196	0.065456	54.9071	-1.146728	-2.123004E+15	-3.083201E-17	NaN
720	1.000000	0.042377	7.3721e+06	-41089.1	1005.82	-29787.3	0.000000	0.000000	6.042774	0.110876	NaN	0.000000	0.001564	0.001728	28.0839	0.077219	0.001951	39.5705	64.5695	-162.96	0.088612	0.041017	-1.135804	-1.137164	0.110876	39.5705	-1.137906	-1.616801E+15	-6.857769E-17	NaN
720	1.000000	0.052372	7.3721e+06	-41089.1	1005.82	-29787.3	0.000000	0.000000	6.052768	0.080001	NaN	0.000000	0.001585	0.001729	28.0839	0.082023	0.001940	42.2889	125.505	15.9318	0.162380	0.050986	-1.125809	-1.127196	0.080001	42.2889	-1.127228	-1.162627E+15	-6.881063E-17	NaN
720	1.000000	0.062355	7.3721e+06	-41089.1	1005.82	-29787.3	0.000000	0.000000	6.062746	-0.037595	NaN	0.000000	0.001582	0.001720	28.0839	0.050798	0.001923	26.4095	6.214142	-163.032	0.058779	0.061066	-1.115826	-1.117116	-0.037595	26.4095	-1.114759	-7.909448E+14	4.753168E-17	NaN
720	1.000000	0.072359	7.3721e+06	-41089.1	1005.82	-29787.3	0.000000	0.000000	6.072754	0.058942	NaN	0.000000	0.001559	0.001747	28.084	0.018402	0.001967	9.353265	-8.661587	14.0998	-0.006506	0.070999	-1.105822	-1.107182	0.058942	9.353265	-1.110549	-6.944668E+14	-8.487436E-17	NaN
720	1.000000	0.082385	7.3721e+06	-41089.1	1005.82	-29787.3	0.000000	0.000000	6.082779	0.033915	NaN	0.000000	0.001566	0.001769	28.0841	0.046264	0.001981	23.3508	-17.2618	-167.829	0.038631	0.081057	-1.095796	-1.097125	0.033915	23.3508	-1.096886	-4.552602E+14	-7.449485E-17	NaN
720	1.000000	0.092372	7.3721e+06	-41089.1	1005.82	-29787.3	0.000000	0.000000	6.092766	0.020721	NaN	0.000000	0.001573	0.001721	28.0827	0.125780	0.002010	62.5707	121.288	15.1895	0.033389	0.091033	-1.085809	-1.087148	0.020721	62.5707	-1.086057	-3.257378E+14	-6.361230E-17	NaN
720	1.000000	0.102362	7.3721e+06	-41089.1	1005.82	-29787.3	0.000000	0.000000	6.102758	0.060378	NaN	0.000000	0.001580	0.001703	28.0826	0.019368	0.001989	9.737322	-96.091	-165.144	0.063336	0.101076	-1.075819	-1.077106	0.060378	9.737322	-1.080469	-2.740467E+14	-2.203201E-16	NaN
720	1.000000	0.112416	7.3721e+06	-41089.1	1005.82	-29787.3	0.000000	0.000000	6.112812	0.089749	NaN	0.000000	0.001618	0.001744	28.0828	0.071837	0.002079	34.5551	88.0913	14.3267	0.004824	0.110977	-1.065766	-1.067204	0.089749	34.5551	-1.067714	-1.847013E+14	-4.859160E-16	NaN
720	1.000000	0.122377	7.3721e+06	-41089.1	1005.82	-29787.3	0.000000	0.000000	6.122773	0.074553	NaN	0.000000	0.001580	0.001740	28.0826	0.049581	0.001999	24.8005	173.005	-164.82	0.064318	0.121051	-1.055804	-1.057130	0.074553	24.8005	-1.058059	-1.370029E+14	-5.441724E-16	NaN
720	1.000000	0.132384	7.3721e+06	-41089.1	1005.82	-29787.3	0.000000	0.000000	6.132779	0.052283	NaN	0.000000	0.001578	0.001686	28.0826	0.106364	0.002024	52.5428	99.1495	17.6635	0.069430	0.131029	-1.045797	-1.047152	0.052283	52.5428	-1.046544	-9.592844E+13	-5.450250E-16	NaN
720	1.000000	0.142384	7.3721e+06	-41089.1	1005.82	-29787.3	0.000000	0.000000	6.142776	-0.021542	NaN	0.000000	0.001530	0.001721	28.0824	0.084236	0.001802	46.7502	100.72	-165.623	-0.008832	0.141041	-1.035797	-1.037141	-0.021542	46.7502	-1.035452	-6.804596E+13	3.165739E-16	NaN
720	1.000000	0.152382	7.3721e+06	-41089.1	1005.82	-29787.3	0.000000	0.000000	6.152775	0.013358	NaN	0.000000	0.001574	0.001735	28.0827	0.082304	0.001957	42.0542	131.529	14.7366	-0.004883	0.150969	-1.025799	-1.027213	0.013358	42.0542	-1.026038	-5.083718E+13	-2.627641E-16	NaN
720	1.000000	0.162404	7.3721e+06	-41089.1	1005.82	-29787.3	0.000000	0.000000	6.162799	0.051360	NaN	0.000000	0.001629	0.001751	28.0826	0.133162	0.002001	66.5497	170.552	-168.36	0.100988	0.161072	-1.015777	-1.017110	0.051360	66.5497	-1.016356	-3.766353E+13	-1.363653E-15	NaN
720	1.000000	0.172414	7.3721e+06	-41089.1	1005.82	-29787.3	0.000000	0.000000	6.172808	0.025509	NaN	0.000000	0.001638	0.001741	28.0825	0.103965	0.001957	53.1339	33.5558	16.7182	0.031690	0.171074	-1.005767	-1.007108	0.025509	53.1339	-1.006127	-2.743194E+13	-9.298925E-16	NaN
720	1.000000	0.182420	7.3721e+06	-41089.1	1005.82	-29787.3	0.000000	0.000000	6.182815	0.050903	NaN	0.000000	0.001604	0.001735	28.0828	0.042110	0.002067	20.3711	130.332	-164.793	0.060593	0.181065	-0.995761	-0.997117	0.050903	20.3711	-0.997635	-2.108271E+13	-2.414454E-15	NaN
720	1.000000	0.192407	7.3721e+06	-41089.1	1005.82	-29787.3	0.000000	0.000000	6.192803	0.074055	NaN	0.000000	0.001655	0.001739	28.0825	0.124392	0.001967	63.2242	50.475	17.8808	0.081297	0.191059	-0.985774	-0.987122	0.074055	63.2242	-0.986653	-1.499786E+13	-4.937735E-15	NaN
720	1.000000	0.202416	7.3721e+06	-41089.1	1005.82	-29787.3	0.000000	0.000000	6.202812	0.077565	NaN	0.000000	0.001640	0.001751	28.0824	0.076882	0.002072	37.1026	11.57	-166.234	0.074360	0.201143	-0.975766	-0.977038	0.077565	37.1026	-0.977334	-1.123272E+13	-6.905236E-15	NaN
720	1.000000	0.212421	7.3721e+06	-41089.1	1005.82	-29787.3	0.000000	0.000000	6.212814	0.008052	NaN	0.000000	0.001626	0.001767	28.0825	0.043076	0.002064	20.8748	79.8913	15.512	0.061799	0.211070	-0.965760	-0.967112	0.008052	20.8748	-0.966049	-7.914367E+12	-1.017399E-15	NaN
720	1.000000	0.222420	7.3721e+06	-41089.1	1005.82	-29787.3	0.000000	0.000000	6.222815	0.044552	NaN	0.000000	0.001652	0.001741	28.0833	0.077025	0.001918	40.155	96.8042	-167.47	0.070414	0.221059	-0.955761	-0.957123	0.044552	40.155	-0.956593	-5.901195E+12	-7.549618E-15	NaN
720	1.000000	0.232420	7.3721e+06	-41089.1	1005.82	-29787.3	0.000000	0.000000	6.232815	0.050029	NaN	0.000000	0.001621	0.001723	28.0833	0.071766	0.001889	37.9849	-166.343	15.445	-0.018252	0.231107	-0.945761	-0.947074	0.050029	37.9849	-0.946749	-4.346919E+12	-1.150896E-14	NaN
720	1.000000	0.242450	7.3721e+06	-41089.1	1005.82	-29787.3	0.000000	0.000000	6.242844	0.049528	NaN	0.000000	0.001645	0.001759	28.0848	0.136679	0.001971	69.3292	129.719	-164.991	0.028856	0.241147	-0.935732	-0.937034	0.049528	69.3292	-0.936267	-3.138891E+12	-1.577894E-14	NaN
720	1.000000	0.252434	7.3721e+06	-41089.1	1005.82	-29787.3	0.000000	0.000000	6.252831	0.096928	NaN	0.000000	0.001589	0.001778	28.0839	0.095796	0.002080	46.0467	162.457	16.0277	-0.054635	0.251069	-0.925748	-0.927112	0.096928	46.0467	-0.927326	-2.377442E+12	-4.077002E-14	NaN
720	1.000000	0.262431	7.3721e+06	-41089.1	1005.82	-29787.3	0.000000	0.000000	6.262826	0.057988	NaN	0.000000	0.001630	0.001740	28.0838	0.084276	0.002031	41.4959	37.021	-166.318	0.072830	0.261126	-0.915751	-0.917055	0.057988	41.4959	-0.916799	-1.713874E+12	-3.383432E-14	NaN
720	1.000000	0.272428	7.3721e+06	-41089.1	1005.82	-29787.3	0.000000	0.000000	6.272824	0.087602	NaN	0.000000	0.001650	0.001772	28.0835	0.118631	0.001993	59.5313	120.346	16.8062	0.205893	0.271057	-0.905754	-0.907125	0.087602	59.5313	-0.906857	-1.258089E+12	-6.963085E-14	NaN
720	1.000000	0.282456	7.3721e+06	-41089.1	1005.82	-29787.3	0.000000	0.000000	6.282851	0.053112	NaN	0.000000	0.001652	0.001759	28.0838	0.033616	0.002007	16.7506	-150.411	-163.794	0.091738	0.281186	-0.895726	-0.896995	0.053112	16.7506	-0.898104	-9.581656E+11	-5.543060E-14	NaN
720	1.000000	0.292438	7.3721e+06	-41089.1	1005.82	-29787.3	0.000000	0.000000	6.292834	0.074390	NaN	0.000000	0.001647	0.001736	28.0837	0.021103	0.001943	10.8631	-111.385	13.8701	0.188158	0.291129	-0.885744	-0.887052	0.074390	10.8631	-0.890880	-7.652529E+11	-9.721029E-14	NaN
720	1.000000	0.302442	7.3721e+06	-41089.1	1005.82	-29787.3	0.000000	0.000000	6.302836	0.033610	NaN	0.000000	0.001621	0.001757	28.0839	0.051969	0.002024	25.6737	-90.5285	-163.777	0.083659	0.301074	-0.875739	-0.877107	0.033610	25.6737	-0.876721	-4.924480E+11	-6.825173E-14	NaN
720	1.000000	0.312448	7.3721e+06	-41089.1	1005.82	-29787.3	0.000000	0.000000	6.312842	0.040323	NaN	0.000000	0.001637	0.001789	28.0836	0.120539	0.001989	60.6012	-29.6464	12.5514	-0.008940	0.311071	-0.865734	-0.867111	0.040323	60.6012	-0.866233	-3.551989E+11	-1.135223E-13	NaN
720	1.000000	0.322466	7.3721e+06	-41089.1	1005.82	-29787.3	0.000000	0.000000	6.322864	0.106654	NaN	0.000000	0.001610	0.001808	28.084	0.016849	0.002025	8.318852	122.873	-163.96	0.142220	0.321121	-0.855715	-0.857060	0.106654	8.318852	-0.865330	-3.453509E+11	-3.088267E-13	NaN
720	1.000000	0.332440	7.3721e+06	-41089.1	1005.82	-29787.3	0.000000	0.000000	6.332832	-0.026237	NaN	0.000000	0.001617	0.001732	28.0833	0.188387	0.002027	92.9259	132.736	19.2651	-0.016935	0.331120	-0.845741	-0.847061	-0.026237	92.9259	-0.845530	-1.862924E+11	1.408386E-13	NaN
720	1.000000	0.342457	7.3721e+06	-41089.1	1005.82	-29787.3	0.000000	0.000000	6.342849	-0.004384	NaN	0.000000	0.001582	0.001762	28.0837	0.090590	0.001942	46.6586	-40.3061	-165.937	0.116875	0.341184	-0.835725	-0.836997	-0.004384	46.6586	-0.835654	-1.369022E+11	3.202339E-14	NaN
720	1.000000	0.352502	7.3721e+06	-41089.1	1005.82	-29787.3	0.000000	0.000000	6.352898	0.078035	NaN	0.000000	0.001559	0.001743	28.0833	0.086667	0.002010	43.1127	7.324995	15.2633	0.097321	0.351144	-0.825680	-0.827037	0.078035	43.1127	-0.827037	-1.046221E+11	-7.458796E-13	NaN
720	1.000000	0.362442	7.3721e+06	-41089.1	1005.82	-29787.3	0.000000	0.000000	6.362839	0.102647	NaN	0.000000	0.001578	0.001719	28.0824	0.091979	0.002024	45.434	157.56	-163.604	0.033145	0.361141	-0.815739	-0.817041	0.102647	45.434	-0.817434	-7.751921E+10	-1.324154E-12	NaN
720	1.000000	0.372507	7.3721e+06	-41089.1	1005.82	-29787.3	0.000000	0.000000	6.372901	0.011194	NaN	0.000000	0.001583	0.001702	28.0819	0.083606	0.002067	40.4509	27.7611	13.9755	0.036022	0.371140	-0.805674	-0.807042	0.011194	40.4509	-0.805882	-5.403666E+10	-2.071553E-13	NaN
720	1.000000	0.382477	7.3721e+06	-41089.1	1005.82	-29787.4	0.000000	0.000000	6.382872	0.049473	NaN	0.000000	0.001576	0.001706	28.0823	0.051053	0.002028	25.1761	-162.034	-169.186	0.058591	0.381227	-0.795704	-0.796955	0.049473	25.1761	-0.797178	-4.116757E+10	-1.201747E-12	NaN
720	1.000000	0.392519	7.3721e+06	-41089.1	1005.82	-29787.4	0.000000	0.000000	6.392914	0.054798	NaN	0.000000	0.001578	0.001722	28.0822	0.142736	0.002039	70.0094	-29.3853	18.0055	0.079664	0.391170	-0.785662	-0.787012	0.054798	70.0094	-0.786249	-2.925081E+10	-1.873371E-12	NaN
720	1.000000	0.402504	7.3721e+06	-41089.1	1005.82	-29787.4	0.000000	0.000000	6.402898	0.025500	NaN	0.000000	0.001566	0.001717	28.0822	0.030633	0.001925	15.913	105.64	-162.549	0.022880	0.401147	-0.775678	-0.777035	0.025500	15.913	-0.776879	-2.181841E+10	-1.168731E-12	NaN
720	1.000000	0.412546	7.3721e+06	-41089.1	1005.82	-29787.4	0.000000	0.000000	6.412940	0.029714	NaN	0.000000	0.001569	0.001739	28.082	0.052345	0.002031	25.7699	61.5664	13.8347	0.068582	0.411130	-0.765635	-0.767052	0.029714	25.7699	-0.766500	-1.576581E+10	-1.884683E-12	NaN
720	1.000000	0.422510	7.3721e+06	-41089.1	1005.82	-29787.4	0.000000	0.000000	6.422903	0.003907	NaN	0.000000	0.001552	0.001708	28.0821	0.084782	0.001939	43.7306	164.748	-168.256	-0.006163	0.421210	-0.755671	-0.756971	0.003907	43.7306	-0.755738	-1.125430E+10	-3.471892E-13	NaN
720	1.000000	0.432523	7.3721e+06	-41089.1	1005.82	-29787.4	0.000000	0.000000	6.432915	-0.026752	NaN	0.000000	0.001586	0.001699	28.0823	0.118211	0.002024	58.3913	87.2154	13.4755	0.007206	0.431123	-0.745658	-0.747058	-0.026752	58.3913	-0.745314	-8.117601E+9	3.295564E-12	NaN
720	1.000000	0.442519	7.3721e+06	-41089.1	1005.82	-29787.4	0.000000	0.000000	6.442914	0.056064	NaN	0.000000	0.001551	0.001772	28.0822	0.113480	0.002108	53.8452	176.003	-167.51	0.018059	0.441222	-0.735662	-0.736959	0.056064	53.8452	-0.736443	-6.146135E+9	-9.121757E-12	NaN
720	1.000000	0.452515	7.3721e+06	-41089.1	1005.82	-29787.4	0.000000	0.000000	6.452913	0.115669	NaN	0.000000	0.001576	0.001808	28.0822	0.074364	0.002034	36.5598	-155.876	16.2983	0.089597	0.451147	-0.725666	-0.727034	0.115669	36.5598	-0.728039	-4.721477E+9	-2.449858E-11	NaN
720	1.000000	0.462515	7.3721e+06	-41089.1	1005.82	-29787.4	0.000000	0.000000	6.462909	0.031468	NaN	0.000000	0.001575	0.001758	28.0823	0.034738	0.001984	17.5114	86.8523	-164.854	-0.004874	0.461194	-0.715666	-0.716988	0.031468	17.5114	-0.717014	-3.339985E+9	-9.421672E-12	NaN
720	1.000000	0.472524	7.3721e+06	-41089.1	1005.82	-29787.4	0.000000	0.000000	6.472918	0.024527	NaN	0.000000	0.001563	0.001735	28.0822	0.071217	0.001989	35.797	-39.0642	13.8589	0.045007	0.471160	-0.705657	-0.707021	0.024527	35.797	-0.706171	-2.375699E+9	-1.032430E-11	NaN
720	1.000000	0.482549	7.3721e+06	-41089.1	1005.82	-29787.4	0.000000	0.000000	6.482945	0.087967	NaN	0.000000	0.001590	0.001715	28.082	0.063840	0.002018	31.643	-95.9366	-164.533	0.071822	0.481260	-0.695633	-0.696921	0.087967	31.643	-0.697718	-1.821206E+9	-4.830158E-11	NaN
720	1.000000	0.492527	7.3721e+06	-41089.1	1005.82	-29787.4	0.000000	0.000000	6.492923	0.079354	NaN	0.000000	0.001562	0.001742	28.0821	0.013840	0.002034	6.804818	-60.0177	15.3169	0.075329	0.491209	-0.685654	-0.686972	0.079354	6.804818	-0.694400	-1.640744E+9	-4.836440E-11	NaN
720	1.000000	0.502554	7.3721e+06	-41089.1	1005.82	-29787.4	0.000000	0.000000	6.502950	0.075524	NaN	0.000000	0.001574	0.001718	28.0835	0.065485	0.001996	32.8001	-2.407439	-164.4	0.046703	0.501245	-0.675627	-0.676936	0.075524	32.8001	-0.677354	-9.594414E+8	-7.871671E-11	NaN
720	1.000000	0.512546	7.3721e+06	-41089.1	1005.82	-29787.4	0.000000	0.000000	6.512941	0.047445	NaN	0.000000	0.001641	0.001733	28.0833	0.078728	0.002047	38.4544	-149.199	15.8035	0.031843	0.511172	-0.665635	-0.667009	0.047445	38.4544	-0.666560	-6.828175E+8	-6.948432E-11	NaN
720	1.000000	0.522557	7.3721e+06	-41089.1	1005.82	-29787.4	0.000000	0.000000	6.522950	0.006287	NaN	0.000000	0.001607	0.001739	28.0832	0.158645	0.001963	80.809	162.976	-161.9	0.018343	0.521203	-0.655625	-0.656978	0.006287	80.809	-0.655683	-4.845372E+8	-1.297567E-11	NaN
720	1.000000	0.532570	7.3721e+06	-41089.1	1005.82	-29787.4	0.000000	0.000000	6.532965	0.050133	NaN	0.000000	0.001587	0.001712	28.0834	0.054230	0.002037	26.6262	-155.286	16.7067	0.061424	0.531211	-0.645611	-0.646971	0.050133	26.6262	-0.647024	-3.686615E+8	-1.359868E-10	NaN
720	1.000000	0.542575	7.3721e+06	-41089.1	1005.82	-29787.4	0.000000	0.000000	6.542970	0.055899	NaN	0.000000	0.001545	0.001740	28.0834	0.075457	0.001949	38.7235	-149.765	-167.216	0.088753	0.541244	-0.635606	-0.636937	0.055899	38.7235	-0.636689	-2.659837E+8	-2.101611E-10	NaN
720	1.000000	0.552586	7.3721e+06	-41089.1	1005.82	-29787.4	0.000000	0.000000	6.552983	0.091655	NaN	0.000000	0.001562	0.001755	28.0834	0.105008	0.002013	52.1744	-126.302	12.5674	0.103966	0.551186	-0.625595	-0.626996	0.091655	52.1744	-0.626913	-1.952623E+8	-4.693919E-10	NaN
720	1.000000	0.562559	7.3721e+06	-41089.1	1005.82	-29787.4	0.000000	0.000000	6.562951	-0.009623	NaN	0.000000	0.001556	0.001700	28.0833	0.072483	0.002011	36.0364	139.908	-166.369	-0.028785	0.561320	-0.615623	-0.616861	-0.009623	36.0364	-0.615422	-1.357369E+8	7.089768E-11	NaN
720	1.000000	0.572590	7.3721e+06	-41089.1	1005.82	-29787.4	0.000000	0.000000	6.572987	0.091873	NaN	0.000000	0.001603	0.001719	28.0835	0.105306	0.001969	53.471	52.6056	16.8658	0.066125	0.571220	-0.605591	-0.606962	0.091873	53.471	-0.606880	-1.035560E+8	-8.871806E-10	NaN
720	1.000000	0.582592	7.3721e+06	-41089.1	1005.82	-29787.4	0.000000	0.000000	6.582985	-0.007748	NaN	0.000000	0.001592	0.001737	28.0835	0.045771	0.002003	22.8509	-5.345074	-163.87	-0.003460	0.581261	-0.595589	-0.596920	-0.007748	22.8509	-0.595335	-7.181137E+7	1.078942E-10	NaN
720	1.000000	0.592572	7.3721e+06	-41089.1	1005.82	-29787.4	0.000000	0.000000	6.592966	0.027378	NaN	0.000000	0.001540	0.001739	28.0835	0.046379	0.001916	24.1999	-70.688	12.1587	0.007766	0.591237	-0.585609	-0.586944	0.027378	24.1999	-0.586457	-5.417738E+7	-5.053452E-10	NaN
720	1.000000	0.602624	7.3721e+06	-41089.1	1005.82	-29787.4	0.000000	0.000000	6.603021	0.092776	NaN	0.000000	0.001514	0.001733	28.0833	0.042129	0.001888	22.313	41.1862	-163.553	0.078324	0.601292	-0.575557	-0.576890	0.092776	22.313	-0.578676	-4.231017E+7	-2.192767E-9	NaN
720	1.000000	0.612601	7.3721e+06	-41089.1	1005.82	-29787.4	0.000000	0.000000	6.612997	0.083154	NaN	0.000000	0.001576	0.001732	28.0837	0.082670	0.001993	41.4869	6.776561	15.216	0.120163	0.611202	-0.565581	-0.566979	0.083154	41.4869	-0.567084	-2.926394E+7	-2.841517E-9	NaN
720	1.000000	0.622569	7.3721e+06	-41089.1	1005.82	-29787.4	0.000000	0.000000	6.622966	0.117963	NaN	0.000000	0.001570	0.001744	28.0835	0.010298	0.002062	4.993167	98.5385	-165.923	0.075506	0.621282	-0.555613	-0.556899	0.117963	4.993167	-0.573331	-3.569858E+7	-3.304416E-9	NaN
720	1.000000	0.632565	7.3721e+06	-41089.1	1005.82	-29787.4	0.000000	0.000000	6.632960	0.061781	NaN	0.000000	0.001563	0.001725	28.0826	0.107346	0.001985	54.0653	135.43	15.1252	0.093427	0.631210	-0.545616	-0.546971	0.061781	54.0653	-0.546473	-1.517390E+7	-4.071528E-9	NaN
720	1.000000	0.642618	7.3721e+06	-41089.1	1005.82	-29787.4	0.000000	0.000000	6.643010	0.005208	NaN	0.000000	0.001569	0.001730	28.0823	0.040010	0.002037	19.6436	59.7785	-164.351	-0.003594	0.641277	-0.535564	-0.536904	0.005208	19.6436	-0.535763	-1.077889E+7	-4.831464E-10	NaN
720	1.000000	0.652607	7.3721e+06	-41089.1	1005.82	-29787.4	0.000000	0.000000	6.653001	0.031375	NaN	0.000000	0.001578	0.001754	28.0826	0.016658	0.001982	8.406371	67.9773	13.3722	0.036673	0.651255	-0.525575	-0.526927	0.031375	8.406371	-0.528374	-8.51113e+06	-3.686376E-9	NaN
720	1.000000	0.662630	7.3721e+06	-41089.1	1005.82	-29787.4	0.000000	0.000000	6.663023	-0.005952	NaN	0.000000	0.001574	0.001731	28.0822	0.053424	0.002087	25.5974	-177.904	-164.138	-0.016073	0.661341	-0.515551	-0.516840	-0.005952	25.5974	-0.515377	-5.61405e+06	1.060126E-9	NaN
720	1.000000	0.672642	7.3721e+06	-41089.1	1005.82	-29787.4	0.000000	0.000000	6.673037	0.045919	NaN	0.000000	0.001606	0.001729	28.0824	0.075259	0.001867	40.3073	162.872	14.6868	0.070597	0.671280	-0.505539	-0.506901	0.045919	40.3073	-0.506394	-4.20891e+06	-1.090989E-8	NaN
720	1.000000	0.682606	7.3721e+06	-41089.1	1005.82	-29787.4	0.000000	0.000000	6.683002	0.075022	NaN	0.000000	0.001556	0.001737	28.0825	0.091613	0.001994	45.9376	-172.428	-164.535	0.059689	0.681338	-0.495575	-0.496844	0.075022	45.9376	-0.496800	-3.0929e+06	-2.425635E-8	NaN
720	1.000000	0.692594	7.3721e+06	-41089.1	1005.82	-29787.4	0.000000	0.000000	6.692990	0.084491	NaN	0.000000	0.001538	0.001712	28.0825	0.056890	0.002102	27.0629	31.8159	16.9992	0.068614	0.691316	-0.485588	-0.486865	0.084491	27.0629	-0.487929	-2.32515e+06	-3.633802E-8	NaN
720	1.000000	0.702637	7.3721e+06	-41089.1	1005.82	-29787.4	0.000000	0.000000	6.703029	-0.007621	NaN	0.000000	0.001571	0.001723	28.0822	0.068944	0.002088	33.0221	40.5406	-163.967	0.044207	0.701287	-0.475545	-0.476895	-0.007621	33.0221	-0.475371	-1.55133e+06	4.912746E-9	NaN
720	1.000000	0.712647	7.3721e+06	-41089.1	1005.82	-29787.4	0.000000	0.000000	6.713039	-0.007571	NaN	0.000000	0.001554	0.001779	28.0822	0.017261	0.001976	8.736655	170.313	14.7835	-0.030441	0.711287	-0.465534	-0.466895	-0.007571	8.736655	-0.464884	-1.10567e+06	6.847666E-9	NaN
720	1.000000	0.722640	7.3721e+06	-41089.1	1005.82	-29787.4	0.000000	0.000000	6.723034	0.012113	NaN	0.000000	0.001544	0.001752	28.0824	0.044196	0.002059	21.4634	13.1279	-166.504	0.067704	0.721376	-0.455541	-0.456806	0.012113	21.4634	-0.455964	-828477	-1.462030E-8	NaN
720	1.000000	0.732632	7.3721e+06	-41089.1	1005.82	-29787.4	0.000000	0.000000	6.733024	-0.022634	NaN	0.000000	0.001558	0.001720	28.0822	0.064233	0.002040	31.4851	-73.274	15.2855	0.030790	0.731274	-0.445549	-0.446907	-0.022634	31.4851	-0.445010	-580811	3.896908E-8	NaN
720	1.000000	0.742610	7.3721e+06	-41089.1	1005.82	-29787.4	0.000000	0.000000	6.743005	0.062234	NaN	0.000000	0.001544	0.001743	28.0822	0.083308	0.001962	42.4519	-136.499	-163.854	0.077143	0.741346	-0.435571	-0.436835	0.062234	42.4519	-0.436671	-442956	-1.404963E-7	NaN
720	1.000000	0.752669	7.3721e+06	-41089.1	1005.82	-29787.4	0.000000	0.000000	6.753064	0.047167	NaN	0.000000	0.001552	0.001735	28.0822	0.056172	0.002080	27.0051	-52.8649	14.9462	0.057091	0.751248	-0.425512	-0.426934	0.047167	27.0051	-0.426822	-321427	-1.467431E-7	NaN
720	1.000000	0.762637	7.3721e+06	-41089.1	1005.82	-29787.4	0.000000	0.000000	6.763031	0.008162	NaN	0.000000	0.001512	0.001713	28.0823	0.103574	0.001934	53.545	-98.7058	-164.783	0.103223	0.761374	-0.415544	-0.416807	0.008162	53.545	-0.415658	-223255	-3.655835E-8	NaN
720	1.000000	0.772650	7.3721e+06	-41089.1	1005.82	-29787.4	0.000000	0.000000	6.773044	0.023454	NaN	0.000000	0.001536	0.001700	28.0834	0.120356	0.001888	63.7339	143.823	17.5087	0.059127	0.771277	-0.405531	-0.406904	0.023454	63.7339	-0.405807	-161710	-1.450389E-7	NaN
720	1.000000	0.782678	7.3721e+06	-41089.1	1005.82	-29787.4	0.000000	0.000000	6.783070	-0.018106	NaN	0.000000	0.001489	0.001737	28.0836	0.013475	0.002125	6.341938	13.5667	-166.755	0.018437	0.781326	-0.395503	-0.396856	-0.018106	6.341938	-0.393362	-107457	1.684948E-7	NaN
720	1.000000	0.792656	7.3721e+06	-41089.1	1005.82	-29787.4	0.000000	0.000000	6.793052	0.079172	NaN	0.000000	0.001526	0.001721	28.0837	0.046741	0.002018	23.1653	-57.6319	14.7346	0.067367	0.791315	-0.385525	-0.386866	0.079172	23.1653	-0.388088	-90325.6	-8.765181E-7	NaN
720	1.000000	0.802658	7.3721e+06	-41089.1	1005.82	-29787.4	0.000000	0.000000	6.803052	0.034598	NaN	0.000000	0.001548	0.001695	28.0834	0.086596	0.001966	44.0422	-102.39	-166.89	0.015786	0.801340	-0.375523	-0.376842	0.034598	44.0422	-0.376112	-60821.9	-5.688375E-7	NaN
720	1.000000	0.812688	7.3721e+06	-41089.1	1005.82	-29787.4	0.000000	0.000000	6.813083	0.059665	NaN	0.000000	0.001568	0.001700	28.0835	0.089201	0.001937	46.049	-15.0057	14.1156	0.067559	0.811319	-0.365493	-0.366862	0.059665	46.049	-0.366465	-44176	-1.350613E-6	NaN
720	1.000000	0.822661	7.3721e+06	-41089.1	1005.82	-29787.4	0.000000	0.000000	6.823055	0.044300	NaN	0.000000	0.001536	0.001729	28.0836	0.024416	0.001952	12.5083	-84.0441	-165.182	0.079620	0.821354	-0.355521	-0.356827	0.044300	12.5083	-0.358177	-33533.7	-1.321071E-6	NaN
720	1.000000	0.832676	7.3721e+06	-41089.1	1005.82	-29787.4	0.000000	0.000000	6.833068	-0.004595	NaN	0.000000	0.001558	0.001736	28.0838	0.037638	0.002048	18.3742	-62.4565	13.675	-0.014385	0.831290	-0.345506	-0.346891	-0.004595	18.3742	-0.345318	-21826.5	2.105387E-7	NaN
720	1.000000	0.842690	7.3721e+06	-41089.1	1005.82	-29787.4	0.000000	0.000000	6.843085	0.050803	NaN	0.000000	0.001550	0.001741	28.0837	0.073035	0.001902	38.3946	-148.664	-165.231	0.021174	0.841429	-0.335491	-0.336753	0.050803	38.3946	-0.336484	-16227.7	-3.130649E-6	NaN
720	1.000000	0.852698	7.3721e+06	-41089.1	1005.82	-29787.4	0.000000	0.000000	6.853094	0.091365	NaN	0.000000	0.001541	0.001760	28.0838	0.137670	0.002090	65.8764	120.361	16.3753	0.018769	0.851330	-0.325484	-0.326851	0.091365	65.8764	-0.326524	-11601.1	-7.875582E-6	NaN
720	1.000000	0.862711	7.3721e+06	-41089.1	1005.82	-29787.4	0.000000	0.000000	6.863103	-0.014057	NaN	0.000000	0.001563	0.001770	28.0839	0.088171	0.001974	44.6657	78.0875	-164.515	-0.082477	0.861401	-0.315470	-0.316781	-0.014057	44.6657	-0.315234	-7914.15	1.776220E-6	NaN
720	1.000000	0.872706	7.3721e+06	-41089.1	1005.82	-29787.4	0.000000	0.000000	6.873102	0.074525	NaN	0.000000	0.001563	0.001726	28.0837	0.032938	0.001994	16.5183	81.3555	17.9137	0.042794	0.871289	-0.305475	-0.306893	0.074525	16.5183	-0.308859	-6370.32	-1.169881E-5	NaN
720	1.000000	0.882693	7.3721e+06	-41089.1	1005.82	-29787.4	0.000000	0.000000	6.883091	0.126057	NaN	0.000000	0.001565	0.001739	28.0838	0.061427	0.001967	31.2209	106.952	-164.352	0.147641	0.881374	-0.295488	-0.296807	0.126057	31.2209	-0.298516	-4472.39	-2.818568E-5	NaN
720	1.000000	0.892706	7.3721e+06	-41089.1	1005.82	-29787.4	0.000000	0.000000	6.893101	0.071189	NaN	0.000000	0.001538	0.001739	28.0833	0.055826	0.001996	27.9631	-0.736487	17.2834	0.085581	0.891394	-0.285476	-0.286788	0.071189	27.9631	-0.287385	-3048.52	-2.335203E-5	NaN
720	1.000000	0.902691	7.3721e+06	-41089.1	1005.82	-29787.4	0.000000	0.000000	6.903084	0.017004	NaN	0.000000	0.001512	0.001741	28.084	0.041009	0.001956	20.9633	8.314408	-161.295	0.111645	0.901398	-0.275491	-0.276784	0.017004	20.9633	-0.276099	-2060.81	-8.251375E-6	NaN
720	1.000000	0.912690	7.3721e+06	-41089.1	1005.82	-29787.4	0.000000	0.000000	6.913085	0.047430	NaN	0.000000	0.001509	0.001720	28.0824	0.071782	0.002024	35.4595	59.4759	15.6595	0.033220	0.911365	-0.265491	-0.266816	0.047430	35.4595	-0.266494	-1472.91	-3.220173E-5	NaN
720	1.000000	0.922731	7.3721e+06	-41089.1	1005.82	-29787.4	0.000000	0.000000	6.923129	0.121564	NaN	0.000000	0.001531	0.001721	28.0827	0.081825	0.001902	43.0195	-64.5361	-165.018	0.133443	0.921399	-0.255450	-0.256782	0.121564	43.0195	-0.257570	-1075.54	-0.000113	NaN
720	1.000000	0.932735	7.3721e+06	-41089.1	1005.82	-29787.4	0.000000	0.000000	6.933130	0.045270	NaN	0.000000	0.001555	0.001716	28.0826	0.113497	0.002079	54.6048	-162.716	15.7757	0.112125	0.931358	-0.245446	-0.246823	0.045270	54.6048	-0.246068	-714.555	-6.335452E-5	NaN
720	1.000000	0.942733	7.3721e+06	-41089.1	1005.82	-29787.4	0.000000	0.000000	6.943126	0.015780	NaN	0.000000	0.001561	0.001692	28.0833	0.093463	0.002114	44.2213	-101.055	-165.409	0.082771	0.941417	-0.235448	-0.236765	0.015780	44.2213	-0.235716	-492.594	-3.203411E-5	NaN
720	1.000000	0.952753	7.3721e+06	-41089.1	1005.82	-29787.4	0.000000	0.000000	6.953151	0.115797	NaN	0.000000	0.001542	0.001757	28.0823	0.090996	0.002064	44.0894	41.2098	14.9259	0.062538	0.951413	-0.225428	-0.226768	0.115797	44.0894	-0.227398	-364.22	-0.000318	NaN
720	1.000000	0.962728	7.3721e+06	-41089.1	1005.82	-29787.4	0.000000	0.000000	6.963125	0.100965	NaN	0.000000	0.001557	0.001758	28.0827	0.006959	0.001985	3.506308	50.911	-161.056	0.069654	0.961386	-0.215453	-0.216795	0.100965	3.506308	-0.237050	-516.892	-0.000195	NaN
720	1.000000	0.972769	7.3721e+06	-41089.1	1005.82	-29787.4	0.000000	0.000000	6.973167	0.113672	NaN	0.000000	0.001575	0.001741	28.0828	0.054613	0.001942	28.1287	44.4716	15.7012	0.081559	0.971394	-0.205412	-0.206788	0.113672	28.1287	-0.208443	-180.958	-0.000628	NaN
720	1.000000	0.982763	7.3721e+06	-41089.1	1005.82	-29787.4	0.000000	0.000000	6.983157	0.019986	NaN	0.000000	0.001561	0.001736	28.0822	0.149239	0.002106	70.8646	-162.71	-164.752	-0.004290	0.981464	-0.195418	-0.196717	0.019986	70.8646	-0.195629	-111.59	-0.000179	NaN
720	1.000000	0.992724	7.3721e+06	-41089.1	1005.82	-29787.4	0.000000	0.000000	6.993120	0.081800	NaN	0.000000	0.001577	0.001737	28.0825	0.097696	0.002056	47.5144	82.4917	14.1742	0.054153	0.991322	-0.185457	-0.186859	0.081800	47.5144	-0.186748	-79.3514	-0.001031	NaN
720	1.000000	1.002751	7.3721e+06	-41089.1	1005.82	-29787.4	0.000000	0.000000	7.003144	0.016840	NaN	0.000000	0.001604	0.001750	28.0825	0.065429	0.001896	34.5025	108.845	-162.652	0.036048	1.001447	-0.175431	-0.176734	0.016840	34.5025	-0.175797	-51.7199	-0.000326	NaN
720	1.000000	1.012750	7.3721e+06	-41089.1	1005.82	-29787.4	0.000000	0.000000	7.013145	0.055160	NaN	0.000000	0.001579	0.001744	28.0828	0.027165	0.001960	13.8622	55.6228	16.4964	0.106678	1.011398	-0.165431	-0.166784	0.055160	13.8622	-0.168416	-38.5528	-0.001431	NaN
720	1.000000	1.022755	7.3721e+06	-41089.1	1005.82	-29787.4	0.000000	0.000000	7.023152	0.102325	NaN	0.000000	0.001555	0.001744	28.0824	0.071735	0.001916	37.4423	-70.9152	-165.777	0.187636	1.021395	-0.155426	-0.156787	0.102325	37.4423	-0.157476	-24.7165	-0.004140	NaN
720	1.000000	1.032753	7.3721e+06	-41089.1	1005.82	-29787.4	0.000000	0.000000	7.033149	0.084053	NaN	0.000000	0.001558	0.001754	28.0824	0.152585	0.001824	83.6648	96.3736	16.4369	0.047380	1.031408	-0.145429	-0.146773	0.084053	83.6648	-0.146182	-15.417	-0.005452	NaN
720	1.000000	1.042791	7.3721e+06	-41089.1	1005.82	-29787.4	0.000000	0.000000	7.043185	0.048069	NaN	0.000000	0.001599	0.001707	28.0837	0.165267	0.001979	83.5001	-55.8471	-166.175	-0.027444	1.041510	-0.135391	-0.136672	0.048069	83.5001	-0.135822	-9.862089	-0.004874	NaN
720	1.000000	1.052741	7.3721e+06	-41089.1	1005.82	-29787.4	0.000000	0.000000	7.053135	0.021729	NaN	0.000000	0.001592	0.001721	28.0847	0.027340	0.002086	13.1042	60.4134	13.9749	0.140698	1.051421	-0.125440	-0.126760	0.021729	13.1042	-0.126684	-6.564607	-0.003310	NaN
720	1.000000	1.062774	7.3721e+06	-41089.1	1005.82	-29787.4	0.000000	0.000000	7.063167	0.006067	NaN	0.000000	0.001557	0.001718	28.0837	0.057338	0.002092	27.408	-23.7766	-167.794	0.101823	1.061489	-0.115407	-0.116692	0.006067	27.408	-0.115573	-3.925587	-0.001546	NaN
720	1.000000	1.072777	7.3721e+06	-41089.1	1005.82	-29787.4	0.000000	0.000000	7.073173	0.071593	NaN	0.000000	0.001592	0.001743	28.0837	0.045425	0.002109	21.5388	159.934	16.2658	0.023602	1.071383	-0.105404	-0.106798	0.071593	21.5388	-0.107897	-2.712137	-0.026397	NaN
720	1.000000	1.082756	7.3721e+06	-41089.1	1005.82	-29787.4	0.000000	0.000000	7.083151	0.058313	NaN	0.000000	0.001666	0.001761	28.0839	0.072618	0.001968	36.8953	162.103	-164.834	0.060215	1.081447	-0.095426	-0.096735	0.058313	36.8953	-0.096611	-1.534457	-0.038002	NaN
720	1.000000	1.092787	7.3721e+06	-41089.1	1005.82	-29787.4	0.000000	0.000000	7.093183	0.062824	NaN	0.000000	0.001617	0.001743	28.0837	0.067981	0.001970	34.5047	27.5371	17.046	-2.376367E-5	1.091425	-0.085394	-0.086756	0.062824	34.5047	-0.086760	-0.905793	-0.069358	NaN
720	1.000000	1.102767	7.3721e+06	-41089.1	1005.82	-29787.4	0.000000	0.000000	7.103161	0.020823	NaN	0.000000	0.001616	0.001742	28.0836	0.099588	0.001878	53.0275	-82.5431	-160.572	0.008421	1.101470	-0.075414	-0.076711	0.020823	53.0275	-0.075709	-0.481735	-0.043224	NaN
720	1.000000	1.112753	7.3721e+06	-41089.1	1005.82	-29787.4	0.000000	0.000000	7.113146	-0.004863	NaN	0.000000	0.001633	0.001721	28.0837	0.110977	0.001895	58.5679	-135.962	17.9169	-0.011487	1.111481	-0.065428	-0.066700	-0.004863	58.5679	-0.065366	-0.255101	0.019065	NaN
720	1.000000	1.122818	7.3721e+06	-41089.1	1005.82	-29787.4	0.000000	0.000000	7.123216	0.126862	NaN	0.000000	0.001593	0.001736	28.084	0.118582	0.002101	56.4444	136.994	-166.727	0.068300	1.121460	-0.055363	-0.056721	0.126862	56.4444	-0.057049	-0.147930	-0.857584	NaN
720	1.000000	1.132799	7.3721e+06	-41089.1	1005.82	-29787.4	0.000000	0.000000	7.133193	0.045683	NaN	0.000000	0.001582	0.001687	28.0839	0.118739	0.002127	55.8321	-165.729	11.8387	0.049574	1.131447	-0.045383	-0.046735	0.045683	55.8321	-0.045996	-0.068936	-0.662681	NaN
720	1.000000	1.142801	7.3721e+06	-41089.1	1005.82	-29787.4	0.000000	0.000000	7.143195	0.037136	NaN	0.000000	0.001586	0.001720	28.0837	0.043927	0.002002	21.9428	150.632	-166.81	0.020852	1.141464	-0.035381	-0.036717	0.037136	21.9428	-0.036650	-0.035843	-1.036069	NaN
720	1.000000	1.152804	7.3721e+06	-41089.1	1005.82	-29787.4	0.000000	0.000000	7.153195	-0.050776	NaN	0.000000	0.001573	0.001702	28.084	0.013600	0.001995	6.815557	80.7334	16.7486	0.013827	1.151391	-0.025377	-0.026790	-0.050776	6.815557	-0.019790	-0.012407	4.092518	NaN
720	1.000000	1.162819	7.3721e+06	-41089.1	1005.82	-29787.4	0.000000	0.000000	7.163215	0.077936	NaN	0.000000	0.001586	0.001734	28.0839	0.106220	0.002033	52.2515	-102.955	-164.448	0.014649	1.161489	-0.015362	-0.016692	0.077936	52.2515	-0.016481	-0.010182	-7.654285	NaN
720	1.000000	1.172757	7.3721e+06	-41089.1	1005.82	-29787.4	0.000000	0.000000	7.173153	0.082565	NaN	0.000000	0.001561	0.001750	28.0839	0.194620	0.001988	97.907	-27.9319	15.3161	-0.015825	1.171429	-0.005424	-0.006752	0.082565	97.907	-0.006057	-0.004071	-20.2813	NaN
720	2.000000	1.182258	7.3721e+06	-41089.1	1005.82	-29787.4	0.000000	0.000000	7.183010	8.740848	NaN	0.000000	0.001573	0.001712	28.0827	8.379690	0.001554	5393.38	7.390077	-171.916	8.003353	1.181386	0.004077	0.003205	8.740848	5393.38	0.002861	0.002264	3861.39	103569
720	2.000000	1.184911	7.3721e+06	-41089.1	1005.82	-29787.4	0.000000	0.000000	7.185765	11.2141	NaN	0.000000	0.001651	0.001690	28.0831	10.3548	0.001564	6619	3.393754	11.0692	11.1252	1.184566	0.006730	0.006385	11.2141	6619	0.005459	0.004556	2461.29	89591.1
720	2.000000	1.187389	7.3721e+06	-41089.1	1005.82	-29787.4	0.000000	0.000000	7.188411	15.3069	NaN	0.000000	0.001617	0.001722	28.0827	14.3287	0.001837	7801.11	5.073133	-172.927	14.8546	1.187122	0.009208	0.008941	15.3069	7801.11	0.007736	0.006772	2260.27	86609.5
720	2.000000	1.189890	7.3721e+06	-41089.1	1005.82	-29787.4	0.000000	0.000000	7.191122	20.4345	NaN	0.000000	0.001649	0.001729	28.0831	16.3592	0.001720	9513.92	4.723253	6.353387	19.8591	1.189599	0.011708	0.011418	20.4345	9513.92	0.010097	0.009290	2199.65	90183.5
720	2.000000	1.192300	7.3721e+06	-41089.1	1005.82	-29787.4	0.000000	0.000000	7.193821	27.4593	NaN	0.000000	0.001574	0.001734	28.0828	18.9441	0.001758	10774.6	8.365940	-178.392	25.9162	1.192046	0.014118	0.013865	27.4593	10774.6	0.012207	0.011739	2339.21	90857.9
720	2.000000	1.194867	7.3721e+06	-41089.1	1005.82	-29787.4	0.000000	0.000000	7.196583	32.2081	NaN	0.000000	0.001555	0.001718	28.0835	21.7292	0.001744	12462.2	3.706182	4.178372	30.8587	1.194495	0.016685	0.016314	32.2081	12462.2	0.014747	0.014949	2154.48	93123.2
720	2.000000	1.197331	7.3721e+06	-41089.1	1005.82	-29787.4	0.000000	0.000000	7.199367	39.9872	NaN	0.000000	0.001572	0.001723	28.0826	24.6526	0.001767	13953.4	3.467252	-175.778	39.2587	1.197068	0.019150	0.018886	39.9872	13953.4	0.017001	0.018046	2215.79	94897.9
720	2.000000	1.199798	7.3721e+06	-41089.1	1005.82	-29787.4	0.000000	0.000000	7.202118	46.9017	NaN	0.000000	0.001588	0.001721	28.0832	26.8974	0.001890	14235	5.293751	2.175635	43.4879	1.199469	0.021616	0.021288	46.9017	14235	0.019145	0.021217	2210.6	89287.8
720	2.000000	1.202310	7.3721e+06	-41089.1	1005.82	-29787.4	0.000000	0.000000	7.204836	51.9156	NaN	0.000000	0.001563	0.001752	28.0827	29.0731	0.001842	15781.8	4.674899	-177.973	51.0982	1.201959	0.024129	0.023777	51.9156	15781.8	0.021661	0.025221	2058.46	90793.1
720	2.000000	1.204824	7.3721e+06	-41089.1	1005.82	-29787.4	0.000000	0.000000	7.207801	62.8794	NaN	0.000000	0.001540	0.001751	28.0838	31.7925	0.001716	18526.3	4.925273	-0.145316	60.9235	1.204473	0.026643	0.026292	62.8794	18526.3	0.024097	0.029394	2139.18	98725.7
720	2.000000	1.207285	7.3721e+06	-41089.1	1005.82	-29787.4	0.000000	0.000000	7.210676	72.9644	NaN	0.000000	0.001562	0.001713	28.0828	34.5986	0.001734	19951.3	1.636452	-177.732	69.9436	1.206987	0.029103	0.028806	72.9644	19951.3	0.026361	0.033538	2175.61	99535.9
720	2.000000	1.209854	7.3721e+06	-41089.1	1005.82	-29787.4	0.000000	0.000000	7.213473	78.5076	NaN	0.000000	0.001541	0.001746	28.0837	36.3356	0.001706	21294	2.897181	1.888495	79.7046	1.209588	0.031673	0.031407	78.5076	21294	0.028908	0.038510	2038.6	99138.2
720	2.000000	1.212205	7.3721e+06	-41089.1	1005.82	-29787.4	0.000000	0.000000	7.216427	93.1579	NaN	0.000000	0.001563	0.001729	28.0828	39.4778	0.001822	21669.8	6.002633	177.811	89.9764	1.211973	0.034024	0.033791	93.1579	21669.8	0.030800	0.042418	2196.19	96128.7
720	2.000000	1.214743	7.3721e+06	-41089.1	1005.82	-29787.4	0.000000	0.000000	7.219402	103.806	NaN	0.000000	0.001521	0.001735	28.0841	42.2861	0.001774	23835.7	5.018853	-2.785400	99.9092	1.214335	0.036561	0.036153	103.806	23835.7	0.033295	0.047851	2169.37	99553.5
720	2.000000	1.217293	7.3721e+06	-41089.1	1005.82	-29787.4	0.000000	0.000000	7.222337	113.183	NaN	0.000000	0.001572	0.001709	28.0836	44.8104	0.001721	26038.9	7.483013	174.478	111.899	1.216957	0.039112	0.038776	113.183	26038.9	0.035852	0.053747	2105.83	102617
720	2.000000	1.219761	7.3721e+06	-41089.1	1005.82	-29787.4	0.000000	0.000000	7.225248	123.961	NaN	0.000000	0.001568	0.001733	28.0841	46.6638	0.001701	27437.9	6.042477	-4.754731	120.327	1.219438	0.041579	0.041257	123.961	27437.9	0.038191	0.059436	2085.61	102825
720	2.000000	1.222263	7.3721e+06	-41089.1	1005.82	-29787.4	0.000000	0.000000	7.228121	133	NaN	0.000000	0.001545	0.001737	28.0839	49.0685	0.001759	27896.4	3.942076	177.017	130.857	1.222047	0.044081	0.043866	133	27896.4	0.040506	0.065342	2035.46	99707.1
720	2.000000	1.224808	7.3721e+06	-41089.1	1005.82	-29787.4	0.000000	0.000000	7.231127	144.209	NaN	0.000000	0.001577	0.001725	28.0847	51.5194	0.001811	28444.6	4.536664	-3.043076	144.253	1.224419	0.046626	0.046238	144.209	28444.6	0.042824	0.071530	2016.06	97169.2
720	2.000000	1.227260	7.3721e+06	-41089.1	1005.82	-29787.4	0.000000	0.000000	7.233960	153.467	NaN	0.000000	0.001571	0.001703	28.0839	53.2457	0.001817	29307.8	-1.529747	-177.425	151.829	1.227033	0.049079	0.048851	153.467	29307.8	0.045151	0.078018	1967.08	95865
720	2.000000	1.229830	7.3721e+06	-41089.1	1005.82	-29787.4	0.000000	0.000000	7.237213	170.092	NaN	0.000000	0.001552	0.001769	28.0839	55.0118	0.001775	30984.7	-0.110169	0.723701	169.412	1.229552	0.051649	0.051371	170.092	30984.7	0.047532	0.084938	2002.56	97134
720	2.000000	1.232245	7.3721e+06	-41089.1	1005.82	-29787.4	0.000000	0.000000	7.240103	181.655	NaN	0.000000	0.001597	0.001783	28.0838	58.3158	0.001790	32583.9	9.945516	170.377	182.555	1.232028	0.054064	0.053847	181.655	32583.9	0.049883	0.092050	1973.42	98121.4
720	2.000000	1.234786	7.3721e+06	-41089.1	1005.82	-29787.4	0.000000	0.000000	7.243232	195.955	NaN	0.000000	0.001570	0.001759	28.0841	60.7565	0.001779	34161.5	4.023489	-4.464322	194.505	1.234450	0.056605	0.056268	195.955	34161.5	0.052303	0.099663	1966.17	98865
720	2.000000	1.237236	7.3721e+06	-41089.1	1005.82	-29787.4	0.000000	0.000000	7.246202	208.627	NaN	0.000000	0.001582	0.001755	28.0837	64.8777	0.001955	33193.5	5.564701	174.566	207.341	1.236973	0.059054	0.058792	208.627	33193.5	0.054341	0.106300	1962.61	93016.1
720	2.000000	1.239773	7.3721e+06	-41089.1	1005.82	-29787.4	0.000000	0.000000	7.249579	229.044	NaN	0.000000	0.001572	0.001762	28.0836	65.6823	0.001876	35011.6	4.047450	-3.637727	228.579	1.239376	0.061592	0.061195	229.044	35011.6	0.056685	0.114191	2005.79	94660.5
720	2.000000	1.242256	7.3721e+06	-41089.1	1005.82	-29787.4	0.000000	0.000000	7.252589	241.862	NaN	0.000000	0.001595	0.001767	28.0838	67.4724	0.001715	39339.7	4.579336	173.984	241.648	1.241910	0.064075	0.063728	241.862	39339.7	0.059464	0.123893	1952.19	102113
720	2.000000	1.244682	7.3721e+06	-41089.1	1005.82	-29787.4	0.000000	0.000000	7.255863	262.508	NaN	0.000000	0.001601	0.001727	28.0836	70.672	0.001853	38133.8	8.241208	-8.675666	257.008	1.244296	0.066501	0.066115	262.508	38133.8	0.061338	0.130649	2009.26	96389.7
720	2.000000	1.247274	7.3721e+06	-41089.1	1005.82	-29787.4	0.000000	0.000000	7.259173	279.982	NaN	0.000000	0.001588	0.001714	28.0835	72.8873	0.001799	40520.9	6.505214	172.523	281.724	1.246989	0.069093	0.068807	279.982	40520.9	0.063911	0.140203	1996.97	98872.1
720	2.000000	1.249747	7.3721e+06	-41089.1	1005.82	-29787.4	0.000000	0.000000	7.262310	296.118	NaN	0.000000	0.001585	0.001736	28.0824	74.2218	0.001715	43280.4	6.447445	-8.022181	292.106	1.249385	0.071566	0.071204	296.118	43280.4	0.066435	0.149888	1975.6	102137
720	2.000000	1.252211	7.3721e+06	-41089.1	1005.82	-29787.4	0.000000	0.000000	7.265708	318.847	NaN	0.000000	0.001573	0.001744	28.0822	77.5628	0.001769	43855.5	7.205244	170.859	317.173	1.251838	0.074030	0.073657	318.847	43855.5	0.068577	0.158348	2013.58	100691
720	2.000000	1.254748	7.3721e+06	-41089.1	1005.82	-29787.4	0.000000	0.000000	7.268731	330.699	NaN	0.000000	0.001583	0.001768	28.0823	79.9197	0.001800	44405.5	2.758181	-4.056369	330.538	1.254315	0.076566	0.076133	330.699	44405.5	0.070981	0.168101	1967.26	98952.1
720	2.000000	1.257183	7.3721e+06	-41089.1	1005.82	-29787.4	0.000000	0.000000	7.272064	352.519	NaN	0.000000	0.001588	0.001744	28.0823	82.7112	0.001709	48391.1	1.718931	176.005	350.393	1.256909	0.079002	0.078728	352.519	48391.1	0.073539	0.178779	1971.81	104563
720	2.000000	1.259749	7.3721e+06	-41089.1	1005.82	-29787.4	0.000000	0.000000	7.275438	372.2	NaN	0.000000	0.001606	0.001702	28.0824	85.5117	0.001837	46560.8	4.485785	-6.200066	368.694	1.259377	0.081567	0.081195	372.2	46560.8	0.075572	0.187490	1985.17	98243.6
720	2.000000	1.262215	7.3721e+06	-41089.1	1005.82	-29787.4	0.000000	0.000000	7.278564	388.259	NaN	0.000000	0.001629	0.001741	28.0823	87.1605	0.001827	47718.3	2.640648	175.232	387.216	1.261825	0.084034	0.083644	388.259	47718.3	0.077931	0.197840	1962.48	98016.9
720	2.000000	1.264697	7.3721e+06	-41089.1	1005.82	-29787.4	0.000000	0.000000	7.282001	411.494	NaN	0.000000	0.001579	0.001734	28.0825	89.8068	0.001690	53150.4	3.147276	-5.804084	408.666	1.264259	0.086516	0.086078	411.494	53150.4	0.080710	0.210361	1956.14	105876
720	2.000000	1.267229	7.3721e+06	-41089.1	1005.82	-29787.4	0.000000	0.000000	7.284922	420.957	NaN	0.000000	0.001610	0.001708	28.0822	94.2736	0.001816	51918.6	7.803682	168.756	419.859	1.267021	0.089047	0.088840	420.957	51918.6	0.082966	0.220797	1906.54	100948
720	2.000000	1.269639	7.3721e+06	-41089.1	1005.82	-29787.4	0.000000	0.000000	7.288540	450.361	NaN	0.000000	0.001621	0.001672	28.0824	93.8913	0.001792	52385.3	0.740582	-3.593606	443.659	1.269341	0.091457	0.091160	450.361	52385.3	0.085010	0.230447	1954.29	99700.4
720	2.000000	1.272087	7.3721e+06	-41089.1	1005.82	-29787.4	0.000000	0.000000	7.291409	460.602	NaN	0.000000	0.001615	0.001651	28.0821	97.4688	0.001935	50373.3	4.694284	172.317	453.731	1.271949	0.093906	0.093767	460.602	50373.3	0.087048	0.240269	1917.03	93891.3
720	2.000000	1.274620	7.3721e+06	-41089.1	1005.82	-29787.4	0.000000	0.000000	7.294991	486.12	NaN	0.000000	0.001595	0.001693	28.0824	98.7604	0.001808	54637.9	3.850768	-7.303579	479.061	1.274301	0.096439	0.096120	486.12	54637.9	0.089766	0.253662	1916.41	99115.1
720	2.000000	1.277225	7.3721e+06	-41089.1	1005.82	-29787.4	0.000000	0.000000	7.298224	501.397	NaN	0.000000	0.001637	0.001703	28.0827	101.881	0.001819	56022.6	2.507986	173.587	500.35	1.277062	0.099044	0.098881	501.397	56022.6	0.092331	0.266611	1880.63	99128.2
720	2.000000	1.279770	7.3721e+06	-41089.1	1005.82	-29787.4	0.000000	0.000000	7.302017	531.778	NaN	0.000000	0.001637	0.001734	28.0824	103.834	0.001844	56321.5	3.858380	-7.065017	531.047	1.279360	0.101589	0.101179	531.778	56321.5	0.094507	0.277832	1914.03	97623.9
720	2.000000	1.280604	7.3721e+06	-41089.1	1005.82	-29787.4	0.000000	0.000000	7.303236	541.159	NaN	0.000000	0.001588	0.001709	28.0829	104.793	0.001736	60359.2	2.690434	-6.610907	533.045	1.280382	0.102422	0.102201	541.159	60359.2	0.095698	0.284065	1905.05	103468