File: remote_trans/data/nanoindenter/0828-1/data/Data_2025-08-06,11h17m57s/2025-07-22_16-23-58_1_341.txt
2025-07-22, 16:23:58, 1
Index	Phase	Displacement	Time	Pos X	Pos Y	Pos Z	Rot A	Rot B	Piezo Z	Force A	Force B	Gripper	Voltage A	Voltage B	Temperature	Amplitude force	Amplitude pos	Stiffness	Phase shift	Phase excitation	Force A raw	Displacement raw	HMax	HMax raw	Real Force	Real Stiffness	Contact Depth	Area	Hardness	Reduced Mod.
[#]	[#]	[um]	[s]	[um]	[um]	[um]	[m°]	[m°]	[um]	[uN]	[uN]	[V]	[V]	[V]	[°C]	[uN]	[um]	[N/m]	[°]	[°]	[uN]	[um]	[um]	[um]	[uN]	[N/m]	[um]	[um^2]	[MPa]	[MPa]
341	1.000000	0.002270	7.3684e+06	-55689.1	955.818	-29741.2	0.000000	0.000000	6.002807	-0.018891	NaN	0.000000	0.001539	0.001671	28.0787	0.108235	0.000960	112.769	-12.3607	-157.183	0.002418	0.000999	-1.095657	-1.096927	-0.018891	112.769	-1.095531	-4.365906E+14	4.326902E-17	NaN
341	1.000000	0.012342	7.3684e+06	-55689.1	955.818	-29741.2	0.000000	0.000000	6.012878	-0.040436	NaN	0.000000	0.001498	0.001705	28.0775	0.127317	0.001061	119.956	49.5433	18.4774	-0.026349	0.010887	-1.085584	-1.087039	-0.040436	119.956	-1.085331	-3.185074E+14	1.269554E-16	NaN
341	1.000000	0.022205	7.3684e+06	-55689.1	955.819	-29741.2	0.000000	0.000000	6.022742	-0.020012	NaN	0.000000	0.001504	0.001635	28.0772	0.027886	0.001658	16.8233	175.424	-167.127	0.012308	0.020913	-1.075721	-1.077013	-0.020012	16.8233	-1.074829	-2.301779E+14	8.694310E-17	NaN
341	1.000000	0.032219	7.3684e+06	-55689.1	955.818	-29741.2	0.000000	0.000000	6.032755	-0.028950	NaN	0.000000	0.001474	0.001656	28.0774	0.086433	0.001660	52.081	129.023	11.9979	-0.045507	0.030792	-1.065708	-1.067134	-0.028950	52.081	-1.065291	-1.713630E+14	1.689385E-16	NaN
341	1.000000	0.042194	7.3684e+06	-55689.1	955.819	-29741.2	0.000000	0.000000	6.042731	-0.020715	NaN	0.000000	0.001513	0.001679	28.0775	0.091407	0.002081	43.9339	-14.4627	-164.488	0.035491	0.040849	-1.055732	-1.057077	-0.020715	43.9339	-1.055379	-1.260998E+14	1.642718E-16	NaN
341	1.000000	0.052221	7.3684e+06	-55689.1	955.818	-29741.2	0.000000	0.000000	6.052759	0.000160	NaN	0.000000	0.001502	0.001631	28.0776	0.067585	0.001963	34.4265	102.142	13.9359	0.026597	0.050829	-1.045705	-1.047097	0.000160	34.4265	-1.045709	-9.348070E+13	-1.714335E-18	NaN
341	1.000000	0.062206	7.3684e+06	-55689.1	955.819	-29741.2	0.000000	0.000000	6.062744	-0.010352	NaN	0.000000	0.001497	0.001663	28.0777	0.072114	0.001946	37.0629	40.7165	-163.301	-0.026688	0.060893	-1.035720	-1.037033	-0.010352	37.0629	-1.035511	-6.817032E+13	1.518484E-16	NaN
341	1.000000	0.072202	7.3684e+06	-55689.1	955.818	-29741.2	0.000000	0.000000	6.072735	-0.101701	NaN	0.000000	0.001478	0.001676	28.0777	0.094306	0.002034	46.3604	-166.302	16.0395	-0.117451	0.070823	-1.025725	-1.027103	-0.101701	46.3604	-1.024079	-4.784508E+13	2.125635E-15	NaN
341	1.000000	0.082223	7.3684e+06	-55689.1	955.818	-29741.2	0.000000	0.000000	6.082761	-0.001971	NaN	0.000000	0.001506	0.001651	28.0778	0.025606	0.001904	13.4491	-19.1945	-163.62	0.039108	0.080903	-1.015703	-1.017023	-0.001971	13.4491	-1.015593	-3.678376E+13	5.358949E-17	NaN
341	1.000000	0.092229	7.3684e+06	-55689.1	955.819	-29741.2	0.000000	0.000000	6.092767	0.005672	NaN	0.000000	0.001508	0.001692	28.0773	0.020169	0.002061	9.787532	84.0429	18.3052	0.050139	0.090879	-1.005697	-1.007047	0.005672	9.787532	-1.006132	-2.743561E+13	-2.067382E-16	NaN
341	1.000000	0.102220	7.3684e+06	-55689.1	955.818	-29741.2	0.000000	0.000000	6.102759	0.039343	NaN	0.000000	0.001583	0.001709	28.0775	0.137963	0.002098	65.7612	64.0616	-165.352	0.043114	0.100876	-0.995706	-0.997050	0.039343	65.7612	-0.996155	-2.013725E+13	-1.953763E-15	NaN
341	1.000000	0.112220	7.3684e+06	-55689.1	955.819	-29741.2	0.000000	0.000000	6.112758	-0.004122	NaN	0.000000	0.001604	0.001710	28.0778	0.033703	0.002031	16.5982	144.489	17.0436	-0.003456	0.110948	-0.985706	-0.986978	-0.004122	16.5982	-0.985520	-1.447993E+13	2.846435E-16	NaN
341	1.000000	0.122235	7.3684e+06	-55689.1	955.818	-29741.2	0.000000	0.000000	6.122773	0.014534	NaN	0.000000	0.001599	0.001721	28.0775	0.125782	0.001963	64.0791	5.809243	-164.172	0.026675	0.120906	-0.975691	-0.977020	0.014534	64.0791	-0.975862	-1.073129E+13	-1.354338E-15	NaN
341	1.000000	0.132238	7.3684e+06	-55689.1	955.82	-29741.2	0.000000	0.000000	6.132775	-0.001700	NaN	0.000000	0.001593	0.001673	28.0775	0.128703	0.001923	66.9178	4.491034	16.9245	0.031940	0.130897	-0.965689	-0.967029	-0.001700	66.9178	-0.965670	-7.821648E+12	2.173336E-16	NaN
341	1.000000	0.142264	7.3684e+06	-55689.1	955.818	-29741.2	0.000000	0.000000	6.142803	0.007986	NaN	0.000000	0.001599	0.001696	28.0775	0.071360	0.001990	35.8579	-154.844	-165.027	0.029167	0.140894	-0.955662	-0.957032	0.007986	35.8579	-0.955829	-5.762771E+12	-1.385857E-15	NaN
341	1.000000	0.152291	7.3684e+06	-55689.1	955.819	-29741.2	0.000000	0.000000	6.152828	-0.017526	NaN	0.000000	0.001601	0.001759	28.0788	0.063660	0.001964	32.4162	-166.307	16.5564	-0.058665	0.150927	-0.945635	-0.947000	-0.017526	32.4162	-0.945230	-4.146538E+12	4.226539E-15	NaN
341	1.000000	0.162245	7.3684e+06	-55689.1	955.819	-29741.2	0.000000	0.000000	6.162783	-0.009247	NaN	0.000000	0.001602	0.001724	28.0787	0.190241	0.001959	97.13	-170.482	-166.093	0.006763	0.160949	-0.935681	-0.936978	-0.009247	97.13	-0.935610	-3.075380E+12	3.006784E-15	NaN
341	1.000000	0.172268	7.3684e+06	-55689.1	955.819	-29741.2	0.000000	0.000000	6.172806	0.015452	NaN	0.000000	0.001547	0.001697	28.0786	0.153038	0.001944	78.7322	7.183714	18.4923	0.044143	0.170942	-0.925659	-0.926984	0.015452	78.7322	-0.925806	-2.267693E+12	-6.813848E-15	NaN
341	1.000000	0.182273	7.3684e+06	-55689.1	955.818	-29741.2	0.000000	0.000000	6.182813	0.060963	NaN	0.000000	0.001598	0.001701	28.0786	0.098075	0.002127	46.1184	135.679	-164.427	-0.028094	0.180940	-0.915653	-0.916986	0.060963	46.1184	-0.916645	-1.705697E+12	-3.574056E-14	NaN
341	1.000000	0.192254	7.3684e+06	-55689.1	955.817	-29741.2	0.000000	0.000000	6.192791	-0.010849	NaN	0.000000	0.001516	0.001695	28.0789	0.062699	0.001853	33.8355	-145.644	13.3807	-0.127569	0.190899	-0.905673	-0.907027	-0.010849	33.8355	-0.905432	-1.203537E+12	9.014308E-15	NaN
341	1.000000	0.202243	7.3684e+06	-55689.1	955.818	-29741.2	0.000000	0.000000	6.202783	0.072422	NaN	0.000000	0.001538	0.001721	28.0787	0.143877	0.001900	75.7119	-21.9923	-161.005	0.035573	0.200967	-0.895684	-0.896959	0.072422	75.7119	-0.896401	-9.087286E+11	-7.969622E-14	NaN
341	1.000000	0.212283	7.3684e+06	-55689.1	955.818	-29741.2	0.000000	0.000000	6.212820	-0.019614	NaN	0.000000	0.001546	0.001760	28.0787	0.028316	0.001980	14.3027	-132.772	14.9277	0.016678	0.210915	-0.885644	-0.887011	-0.019614	14.3027	-0.884615	-6.296725E+11	3.114961E-14	NaN
341	1.000000	0.222271	7.3684e+06	-55689.1	955.819	-29741.2	0.000000	0.000000	6.222808	-0.017851	NaN	0.000000	0.001511	0.001713	28.0786	0.088625	0.002133	41.5404	111.569	-164.93	-0.033508	0.220926	-0.875655	-0.877000	-0.017851	41.5404	-0.875333	-4.716168E+11	3.785043E-14	NaN
341	1.000000	0.232275	7.3684e+06	-55689.1	955.818	-29741.2	0.000000	0.000000	6.232813	-0.005568	NaN	0.000000	0.001547	0.001723	28.0787	0.117505	0.002060	57.053	67.3893	14.5102	0.094545	0.230909	-0.865651	-0.867018	-0.005568	57.053	-0.865578	-3.480270E+11	1.599896E-14	NaN
341	1.000000	0.242318	7.3684e+06	-55689.1	955.819	-29741.2	0.000000	0.000000	6.242854	-0.050234	NaN	0.000000	0.001530	0.001709	28.0784	0.075523	0.002040	37.0249	-76.3024	-167.782	-0.026585	0.240952	-0.855608	-0.856975	-0.050234	37.0249	-0.854591	-2.471146E+11	2.032812E-13	NaN
341	1.000000	0.252298	7.3684e+06	-55689.1	955.818	-29741.2	0.000000	0.000000	6.252835	-0.023338	NaN	0.000000	0.001547	0.001715	28.0783	0.060080	0.001978	30.3714	-8.277514	13.2649	-0.030158	0.250991	-0.845628	-0.846936	-0.023338	30.3714	-0.845052	-1.835366E+11	1.271584E-13	NaN
341	1.000000	0.262292	7.3684e+06	-55689.1	955.818	-29741.2	0.000000	0.000000	6.262829	-0.019161	NaN	0.000000	0.001537	0.001705	28.0787	0.055026	0.001963	28.0345	-31.9904	-166.055	0.033479	0.261008	-0.835635	-0.836918	-0.019161	28.0345	-0.835122	-1.346484E+11	1.423003E-13	NaN
341	1.000000	0.272329	7.3684e+06	-55689.1	955.818	-29741.2	0.000000	0.000000	6.272867	0.002309	NaN	0.000000	0.001508	0.001675	28.0788	0.073975	0.002089	35.4087	-20.5582	16.5272	0.009118	0.270922	-0.825597	-0.827005	0.002309	35.4087	-0.825646	-1.001765E+11	-2.305078E-14	NaN
341	1.000000	0.282288	7.3684e+06	-55689.1	955.818	-29741.2	0.000000	0.000000	6.282823	-0.075518	NaN	0.000000	0.001503	0.001710	28.0773	0.034437	0.001988	17.3209	90.4833	-163.649	-0.052995	0.280998	-0.815638	-0.816928	-0.075518	17.3209	-0.812368	-6.617569E+10	1.141175E-12	NaN
341	1.000000	0.292318	7.3684e+06	-55689.1	955.819	-29741.2	0.000000	0.000000	6.292857	0.021109	NaN	0.000000	0.001505	0.001702	28.0775	0.119878	0.001976	60.6575	-98.9789	16.3729	-0.014149	0.290949	-0.805608	-0.806978	0.021109	60.6575	-0.805869	-5.401573E+10	-3.907925E-13	NaN
341	1.000000	0.302323	7.3684e+06	-55689.1	955.818	-29741.2	0.000000	0.000000	6.302863	0.063021	NaN	0.000000	0.001501	0.001722	28.0775	0.105438	0.001981	53.2166	179.652	-162.249	0.099645	0.300987	-0.795604	-0.796939	0.063021	53.2166	-0.796492	-4.029370E+10	-1.564044E-12	NaN
341	1.000000	0.312307	7.3684e+06	-55689.1	955.819	-29741.2	0.000000	0.000000	6.312844	-0.025299	NaN	0.000000	0.001531	0.001672	28.0774	0.188806	0.002121	89.0225	27.5401	13.4953	-0.028468	0.310997	-0.785619	-0.786929	-0.025299	89.0225	-0.785406	-2.848918E+10	8.880290E-13	NaN
341	1.000000	0.322310	7.3684e+06	-55689.1	955.818	-29741.2	0.000000	0.000000	6.322845	-0.054791	NaN	0.000000	0.001526	0.001692	28.0778	0.077950	0.002017	38.6442	170.635	-164.984	-0.101067	0.320994	-0.775617	-0.776932	-0.054791	38.6442	-0.774553	-2.028646E+10	2.700880E-12	NaN
341	1.000000	0.332336	7.3684e+06	-55689.1	955.819	-29741.2	0.000000	0.000000	6.332873	-0.019848	NaN	0.000000	0.001492	0.001706	28.0775	0.054755	0.001821	30.0748	-166.258	15.9017	0.041613	0.330975	-0.765590	-0.766951	-0.019848	30.0748	-0.765095	-1.508725E+10	1.315518E-12	NaN
341	1.000000	0.342339	7.3684e+06	-55689.1	955.818	-29741.2	0.000000	0.000000	6.342874	-0.059038	NaN	0.000000	0.001524	0.001704	28.0779	0.061643	0.001909	32.2959	-68.4202	-166.37	-0.011108	0.341017	-0.755588	-0.756909	-0.059038	32.2959	-0.754217	-1.073033E+10	5.501937E-12	NaN
341	1.000000	0.352328	7.3684e+06	-55689.1	955.819	-29741.2	0.000000	0.000000	6.352866	0.008801	NaN	0.000000	0.001543	0.001696	28.0777	0.140598	0.001959	71.764	-80.0159	15.0863	0.013453	0.350968	-0.745598	-0.746958	0.008801	71.764	-0.745690	-8.213856E+9	-1.071467E-12	NaN
341	1.000000	0.362325	7.3684e+06	-55689.1	955.819	-29741.2	0.000000	0.000000	6.362862	-0.005875	NaN	0.000000	0.001508	0.001680	28.0779	0.049328	0.002036	24.2332	-96.0265	-167.252	-0.014256	0.361030	-0.735601	-0.736896	-0.005875	24.2332	-0.735420	-5.951966E+9	9.870881E-13	NaN
341	1.000000	0.372355	7.3684e+06	-55689.1	955.818	-29741.2	0.000000	0.000000	6.372893	0.006511	NaN	0.000000	0.001525	0.001699	28.0777	0.017335	0.002103	8.243816	37.3945	15.0886	-0.122120	0.370965	-0.725572	-0.726961	0.006511	8.243816	-0.726164	-4.451639E+9	-1.462591E-12	NaN
341	1.000000	0.382343	7.3684e+06	-55689.1	955.818	-29741.2	0.000000	0.000000	6.382879	-0.027332	NaN	0.000000	0.001478	0.001691	28.078	0.065671	0.002157	30.4517	-89.5722	-164.358	-0.128202	0.381003	-0.715584	-0.716923	-0.027332	30.4517	-0.714911	-3.126451E+9	8.742214E-12	NaN
341	1.000000	0.392339	7.3684e+06	-55689.1	955.819	-29741.2	0.000000	0.000000	6.392876	-0.012054	NaN	0.000000	0.001496	0.001723	28.0776	0.066455	0.002036	32.6375	-178.753	17.8145	0.015991	0.390996	-0.705588	-0.706931	-0.012054	32.6375	-0.705311	-2.312289E+9	5.212943E-12	NaN
341	1.000000	0.402364	7.3684e+06	-55689.1	955.818	-29741.2	0.000000	0.000000	6.402903	0.029565	NaN	0.000000	0.001483	0.001696	28.0778	0.035372	0.002015	17.5585	87.1533	-166.365	0.082034	0.401070	-0.695562	-0.696857	0.029565	17.5585	-0.696825	-1.770806E+9	-1.669572E-11	NaN
341	1.000000	0.412400	7.3684e+06	-55689.1	955.819	-29741.2	0.000000	0.000000	6.412938	0.003887	NaN	0.000000	0.001471	0.001733	28.0778	0.046488	0.002035	22.8469	166.706	15.1446	0.050359	0.411037	-0.685526	-0.686890	0.003887	22.8469	-0.685654	-1.245981E+9	-3.119314E-12	NaN
341	1.000000	0.422369	7.3684e+06	-55689.1	955.818	-29741.2	0.000000	0.000000	6.422907	0.001244	NaN	0.000000	0.001491	0.001698	28.0788	0.133833	0.002133	62.7482	143.571	-162.553	0.046578	0.421003	-0.675557	-0.676924	0.001244	62.7482	-0.675572	-9.070626E+8	-1.371990E-12	NaN
341	1.000000	0.432355	7.3684e+06	-55689.1	955.818	-29741.2	0.000000	0.000000	6.432894	0.030283	NaN	0.000000	0.001488	0.001702	28.0788	0.007898	0.002020	3.909166	-141.028	14.3953	0.024249	0.431040	-0.665571	-0.666887	0.030283	3.909166	-0.671381	-7.948624E+8	-3.809904E-11	NaN
341	1.000000	0.442362	7.3684e+06	-55689.1	955.819	-29741.2	0.000000	0.000000	6.442900	0.014252	NaN	0.000000	0.001504	0.001705	28.079	0.061193	0.002013	30.3985	-168.022	-166.206	0.014847	0.441089	-0.655564	-0.656837	0.014252	30.3985	-0.655916	-4.881088E+8	-2.919832E-11	NaN
341	1.000000	0.452405	7.3684e+06	-55689.1	955.819	-29741.2	0.000000	0.000000	6.452941	-0.056989	NaN	0.000000	0.001515	0.001708	28.0792	0.048568	0.001990	24.4056	105.838	12.8117	-0.024573	0.451034	-0.645521	-0.646892	-0.056989	24.4056	-0.643770	-3.326640E+8	1.713121E-10	NaN
341	1.000000	0.462406	7.3684e+06	-55689.1	955.819	-29741.2	0.000000	0.000000	6.462944	-0.002437	NaN	0.000000	0.001566	0.001744	28.0787	0.139695	0.002027	68.9239	-86.5578	-165.882	-0.020718	0.461027	-0.635520	-0.636899	-0.002437	68.9239	-0.635493	-2.561200E+8	9.516105E-12	NaN
341	1.000000	0.472394	7.3684e+06	-55689.1	955.818	-29741.2	0.000000	0.000000	6.472931	-0.030075	NaN	0.000000	0.001571	0.001704	28.0789	0.033434	0.002109	15.8555	151.253	13.9965	-0.078798	0.470970	-0.625532	-0.626956	-0.030075	15.8555	-0.624109	-1.786928E+8	1.683035E-10	NaN
341	1.000000	0.482360	7.3684e+06	-55689.1	955.819	-29741.2	0.000000	0.000000	6.482899	0.040079	NaN	0.000000	0.001561	0.001632	28.079	0.151452	0.001935	78.2807	-76.4392	-164.554	0.025142	0.481069	-0.615566	-0.616858	0.040079	78.2807	-0.615950	-1.380257E+8	-2.903734E-10	NaN
341	1.000000	0.492374	7.3684e+06	-55689.1	955.819	-29741.2	0.000000	0.000000	6.492913	0.027746	NaN	0.000000	0.001525	0.001681	28.079	0.088327	0.001921	45.9893	-54.4859	15.9838	0.060319	0.491045	-0.605552	-0.606881	0.027746	45.9893	-0.606005	-1.007236E+8	-2.754661E-10	NaN
341	1.000000	0.502370	7.3684e+06	-55689.1	955.818	-29741.2	0.000000	0.000000	6.502907	-0.006926	NaN	0.000000	0.001517	0.001685	28.079	0.080304	0.001914	41.956	80.0431	-166.56	-0.031060	0.501107	-0.595557	-0.596820	-0.006926	41.956	-0.595433	-7.203550E+7	9.615314E-11	NaN
341	1.000000	0.512421	7.3684e+06	-55689.1	955.818	-29741.2	0.000000	0.000000	6.512960	0.019088	NaN	0.000000	0.001537	0.001749	28.0789	0.035233	0.002085	16.9009	46.0285	16.6796	0.017283	0.511077	-0.585505	-0.586849	0.019088	16.9009	-0.586352	-5.399646E+7	-3.535028E-10	NaN
341	1.000000	0.522399	7.3684e+06	-55689.1	955.817	-29741.2	0.000000	0.000000	6.522935	-0.046527	NaN	0.000000	0.001533	0.001747	28.079	0.064740	0.001842	35.155	-177.261	-163.635	0.023439	0.521123	-0.575527	-0.576804	-0.046527	35.155	-0.574534	-3.709083E+7	1.254405E-9	NaN
341	1.000000	0.532422	7.3684e+06	-55689.1	955.819	-29741.2	0.000000	0.000000	6.532959	-0.014211	NaN	0.000000	0.001528	0.001744	28.0788	0.102608	0.001908	53.7724	89.8968	14.1377	0.008502	0.531061	-0.565505	-0.566865	-0.014211	53.7724	-0.565306	-2.765427E+7	5.138772E-10	NaN
341	1.000000	0.542432	7.3684e+06	-55689.1	955.818	-29741.2	0.000000	0.000000	6.542971	0.020988	NaN	0.000000	0.001509	0.001716	28.0788	0.034801	0.002095	16.6139	32.3285	-163.735	0.003947	0.541117	-0.555494	-0.556809	0.020988	16.6139	-0.556442	-2.085169E+7	-1.006537E-9	NaN
341	1.000000	0.552436	7.3684e+06	-55689.1	955.818	-29741.2	0.000000	0.000000	6.552974	0.007256	NaN	0.000000	0.001527	0.001667	28.0784	0.027114	0.001985	13.6624	-73.3542	17.407	0.010375	0.551060	-0.545491	-0.546866	0.007256	13.6624	-0.545889	-1.489361E+7	-4.871776E-10	NaN
341	1.000000	0.562451	7.3684e+06	-55689.1	955.819	-29741.2	0.000000	0.000000	6.562988	-0.000392	NaN	0.000000	0.001504	0.001708	28.0779	0.068508	0.002026	33.8206	-8.952836	-163.158	0.020210	0.561138	-0.535476	-0.536789	-0.000392	33.8206	-0.535467	-1.067752E+7	3.674327E-11	NaN
341	1.000000	0.572436	7.3684e+06	-55689.1	955.817	-29741.2	0.000000	0.000000	6.572974	0.002791	NaN	0.000000	0.001502	0.001720	28.0776	0.115332	0.002123	54.3291	-169.427	15.5505	-0.073875	0.571044	-0.525490	-0.526882	0.002791	54.3291	-0.525529	-7.77073e+06	-3.591498E-10	NaN
341	1.000000	0.582439	7.3684e+06	-55689.1	955.818	-29741.2	0.000000	0.000000	6.582976	-0.023374	NaN	0.000000	0.001492	0.001738	28.0778	0.027863	0.002114	13.1825	123.819	-165.416	-0.026945	0.581173	-0.515487	-0.516754	-0.023374	13.1825	-0.514157	-5.39883e+06	4.329411E-9	NaN
341	1.000000	0.592434	7.3684e+06	-55689.1	955.819	-29741.2	0.000000	0.000000	6.592973	0.026406	NaN	0.000000	0.001512	0.001697	28.0777	0.056347	0.001992	28.2832	123.216	17.7581	0.030552	0.591060	-0.505492	-0.506867	0.026406	28.2832	-0.506192	-4.18178e+06	-6.314645E-9	NaN
341	1.000000	0.602445	7.3684e+06	-55689.1	955.819	-29741.2	0.000000	0.000000	6.602984	0.032615	NaN	0.000000	0.001539	0.001710	28.0779	0.036747	0.001847	19.9007	78.7566	-160.349	0.056307	0.601124	-0.495482	-0.496803	0.032615	19.9007	-0.496711	-3.08402e+06	-1.057554E-8	NaN
341	1.000000	0.612466	7.3684e+06	-55689.1	955.818	-29741.2	0.000000	0.000000	6.613006	0.044317	NaN	0.000000	0.001533	0.001693	28.0778	0.053282	0.002052	25.9702	10.4793	13.0097	-0.036445	0.611084	-0.485460	-0.486842	0.044317	25.9702	-0.486740	-2.23782e+06	-1.980363E-8	NaN
341	1.000000	0.622431	7.3684e+06	-55689.1	955.818	-29741.2	0.000000	0.000000	6.622971	0.056576	NaN	0.000000	0.001491	0.001680	28.0775	0.061810	0.002102	29.411	22.17	-164.956	0.088491	0.621088	-0.475495	-0.476838	0.056576	29.411	-0.476938	-1.63172e+06	-3.467234E-8	NaN
341	1.000000	0.632469	7.3684e+06	-55689.1	955.817	-29741.2	0.000000	0.000000	6.633008	0.043342	NaN	0.000000	0.001504	0.001699	28.0777	0.042155	0.001987	21.2181	67.6307	12.6668	0.049281	0.631076	-0.465457	-0.466850	0.043342	21.2181	-0.466990	-1.18351e+06	-3.662182E-8	NaN
341	1.000000	0.642455	7.3684e+06	-55689.1	955.818	-29741.2	0.000000	0.000000	6.642996	0.062749	NaN	0.000000	0.001519	0.001691	28.0775	0.005636	0.002007	2.808214	-171.75	-166.544	0.031818	0.641211	-0.455471	-0.456715	0.062749	2.808214	-0.472230	-1.40176e+06	-4.476453E-8	NaN
341	1.000000	0.652457	7.3684e+06	-55689.1	955.819	-29741.2	0.000000	0.000000	6.652997	0.061815	NaN	0.000000	0.001490	0.001694	28.0777	0.045466	0.001931	23.5424	89.5444	15.9968	0.041643	0.651111	-0.445469	-0.446816	0.061815	23.5424	-0.447438	-628434	-9.836348E-8	NaN
341	1.000000	0.662458	7.3684e+06	-55689.1	955.82	-29741.2	0.000000	0.000000	6.662997	0.024745	NaN	0.000000	0.001540	0.001692	28.0774	0.069013	0.001900	36.3309	-113.467	-164.681	0.011030	0.661169	-0.435468	-0.436757	0.024745	36.3309	-0.435979	-433094	-5.713476E-8	NaN
341	1.000000	0.672490	7.3684e+06	-55689.1	955.817	-29741.2	0.000000	0.000000	6.673030	0.052807	NaN	0.000000	0.001500	0.001703	28.0779	0.051874	0.002086	24.8624	-83.3841	13.4319	0.037345	0.671118	-0.425436	-0.426809	0.052807	24.8624	-0.427029	-323606	-1.631833E-7	NaN
341	1.000000	0.682472	7.3684e+06	-55689.1	955.819	-29741.2	0.000000	0.000000	6.683014	0.089005	NaN	0.000000	0.001476	0.001693	28.0774	0.071701	0.001980	36.2156	-62.9299	-163.34	0.050612	0.681222	-0.415454	-0.416704	0.089005	36.2156	-0.417297	-235543	-3.778735E-7	NaN
341	1.000000	0.692522	7.3684e+06	-55689.1	955.818	-29741.2	0.000000	0.000000	6.693061	0.033537	NaN	0.000000	0.001460	0.001709	28.0789	0.050116	0.002112	23.7276	140.939	14.8499	0.077714	0.691135	-0.405405	-0.406791	0.033537	23.7276	-0.406465	-165236	-2.029663E-7	NaN
341	1.000000	0.702494	7.3684e+06	-55689.1	955.818	-29741.2	0.000000	0.000000	6.703033	0.039861	NaN	0.000000	0.001483	0.001697	28.0787	0.058006	0.002031	28.5672	-11.1064	-162.692	0.124683	0.701188	-0.395433	-0.396738	0.039861	28.5672	-0.396479	-119058	-3.348047E-7	NaN
341	1.000000	0.712475	7.3684e+06	-55689.1	955.818	-29741.2	0.000000	0.000000	6.713017	0.089128	NaN	0.000000	0.001469	0.001731	28.0788	0.106182	0.001882	56.4291	-175.484	13.1564	0.048937	0.711127	-0.385451	-0.386799	0.089128	56.4291	-0.386635	-86101.9	-1.035142E-6	NaN
341	1.000000	0.722475	7.3684e+06	-55689.1	955.818	-29741.2	0.000000	0.000000	6.723018	0.135090	NaN	0.000000	0.001496	0.001704	28.0786	0.088466	0.001957	45.2023	-153.208	-164.208	0.074335	0.721174	-0.375452	-0.376752	0.135090	45.2023	-0.377693	-64086.9	-2.107925E-6	NaN
341	1.000000	0.732516	7.3684e+06	-55689.1	955.819	-29741.2	0.000000	0.000000	6.733060	0.155365	NaN	0.000000	0.001509	0.001671	28.0788	0.035538	0.001968	18.0596	104.202	10.9132	0.132326	0.731123	-0.365410	-0.366803	0.155365	18.0596	-0.371862	-52837.3	-2.940434E-6	NaN
341	1.000000	0.742498	7.3684e+06	-55689.1	955.819	-29741.2	0.000000	0.000000	6.743040	0.114743	NaN	0.000000	0.001540	0.001662	28.0789	0.065262	0.001947	33.5169	105.838	-166.743	0.114303	0.741198	-0.355429	-0.356729	0.114743	33.5169	-0.357996	-33332.5	-3.442377E-6	NaN
341	1.000000	0.752525	7.3684e+06	-55689.1	955.819	-29741.2	0.000000	0.000000	6.753069	0.160748	NaN	0.000000	0.001521	0.001692	28.0787	0.076077	0.002040	37.3014	150.929	15.1961	0.159452	0.751166	-0.345401	-0.346760	0.160748	37.3014	-0.348633	-24387.1	-6.591491E-6	NaN
341	1.000000	0.762519	7.3684e+06	-55689.1	955.819	-29741.2	0.000000	0.000000	6.763060	0.076818	NaN	0.000000	0.001537	0.001721	28.0787	0.062686	0.002053	30.5342	-13.3057	-162.99	0.108856	0.761225	-0.335407	-0.336702	0.076818	30.5342	-0.337294	-16675.9	-4.606533E-6	NaN
341	1.000000	0.772492	7.3684e+06	-55689.1	955.819	-29741.2	0.000000	0.000000	6.773035	0.140741	NaN	0.000000	0.001531	0.001674	28.0789	0.054192	0.002038	26.5952	-128.991	15.6828	0.057120	0.771171	-0.325435	-0.326755	0.140741	26.5952	-0.329404	-12785.5	-1.100788E-5	NaN
341	1.000000	0.782493	7.3684e+06	-55689.1	955.819	-29741.2	0.000000	0.000000	6.783038	0.180050	NaN	0.000000	0.001531	0.001711	28.0789	0.026600	0.002084	12.7657	21.7168	-164.155	0.206875	0.781237	-0.315433	-0.316689	0.180050	12.7657	-0.326011	-11402	-1.579119E-5	NaN
341	1.000000	0.792531	7.3684e+06	-55689.1	955.819	-29741.2	0.000000	0.000000	6.793076	0.171412	NaN	0.000000	0.001512	0.001687	28.0789	0.060150	0.002098	28.6665	-160.277	16.6059	0.184200	0.791198	-0.305395	-0.306729	0.171412	28.6665	-0.309880	-6596	-2.598727E-5	NaN
341	1.000000	0.802524	7.3684e+06	-55689.1	955.818	-29741.2	0.000000	0.000000	6.803067	0.120715	NaN	0.000000	0.001539	0.001689	28.0786	0.075795	0.001809	41.8942	-174.249	-164.061	0.171481	0.801212	-0.295402	-0.296714	0.120715	41.8942	-0.297563	-4328.44	-2.788881E-5	NaN
341	1.000000	0.812563	7.3684e+06	-55689.1	955.819	-29741.2	0.000000	0.000000	6.813107	0.161872	NaN	0.000000	0.001504	0.001668	28.0787	0.040002	0.001919	20.846	99.1201	15.6008	0.106887	0.811183	-0.285364	-0.286743	0.161872	20.846	-0.291188	-3476.07	-4.656765E-5	NaN
341	1.000000	0.822529	7.3684e+06	-55689.1	955.818	-29741.2	0.000000	0.000000	6.823076	0.229507	NaN	0.000000	0.001490	0.001669	28.0787	0.057949	0.002027	28.5928	158.358	-164.783	0.207550	0.821201	-0.275397	-0.276725	0.229507	28.5928	-0.281417	-2479.36	-9.256711E-5	NaN
341	1.000000	0.832543	7.3684e+06	-55689.1	955.819	-29741.2	0.000000	0.000000	6.833088	0.161486	NaN	0.000000	0.001504	0.001716	28.0774	0.048021	0.002048	23.45	2.539697	17.0478	0.137458	0.831195	-0.265383	-0.266732	0.161486	23.45	-0.270548	-1697.74	-9.511789E-5	NaN
341	1.000000	0.842571	7.3684e+06	-55689.1	955.818	-29741.2	0.000000	0.000000	6.843116	0.168246	NaN	0.000000	0.001539	0.001655	28.0774	0.142589	0.001963	72.6257	-177.868	-164.722	0.183642	0.841245	-0.255355	-0.256681	0.168246	72.6257	-0.257092	-1057.54	-0.000159	NaN
341	1.000000	0.852558	7.3684e+06	-55689.1	955.819	-29741.2	0.000000	0.000000	6.853106	0.244564	NaN	0.000000	0.001576	0.001674	28.0778	0.036567	0.001957	18.6859	-53.39	14.9678	0.216895	0.851184	-0.245368	-0.246743	0.244564	18.6859	-0.255184	-988.434	-0.000247	NaN
341	1.000000	0.862531	7.3684e+06	-55689.1	955.819	-29741.2	0.000000	0.000000	6.863076	0.176449	NaN	0.000000	0.001546	0.001624	28.0775	0.054021	0.001950	27.7052	-172.996	-165.437	0.249315	0.861258	-0.235396	-0.236669	0.176449	27.7052	-0.240172	-578.422	-0.000305	NaN
341	1.000000	0.872586	7.3684e+06	-55689.1	955.819	-29741.2	0.000000	0.000000	6.873134	0.236416	NaN	0.000000	0.001512	0.001719	28.0775	0.053530	0.001925	27.8103	-21.969	16.129	0.176974	0.871200	-0.225340	-0.226727	0.236416	27.8103	-0.231716	-426.175	-0.000555	NaN
341	1.000000	0.882552	7.3684e+06	-55689.1	955.818	-29741.2	0.000000	0.000000	6.883098	0.200847	NaN	0.000000	0.001530	0.001775	28.0774	0.050966	0.002152	23.6807	-30.6945	-163.351	0.214026	0.881297	-0.215374	-0.216629	0.200847	23.6807	-0.221735	-296.055	-0.000678	NaN
341	1.000000	0.892552	7.3684e+06	-55689.1	955.818	-29741.2	0.000000	0.000000	6.893097	0.176824	NaN	0.000000	0.001505	0.001699	28.0777	0.052457	0.001960	26.7609	142.902	16.9288	0.151391	0.891226	-0.205375	-0.206701	0.176824	26.7609	-0.210330	-194.164	-0.000911	NaN
341	1.000000	0.902558	7.3684e+06	-55689.1	955.819	-29741.2	0.000000	0.000000	6.903100	0.120829	NaN	0.000000	0.001516	0.001654	28.0772	0.059068	0.001991	29.667	47.5932	-164.707	0.218956	0.901268	-0.195369	-0.196659	0.120829	29.667	-0.198423	-124.096	-0.000974	NaN
341	1.000000	0.912587	7.3684e+06	-55689.1	955.817	-29741.2	0.000000	0.000000	6.913131	0.153056	NaN	0.000000	0.001541	0.001676	28.0775	0.009604	0.001954	4.913800	-86.3573	15.2315	0.171618	0.911254	-0.185339	-0.186673	0.153056	4.913800	-0.208700	-182.706	-0.000838	NaN
341	1.000000	0.922589	7.3684e+06	-55689.1	955.818	-29741.2	0.000000	0.000000	6.923136	0.221155	NaN	0.000000	0.001572	0.001710	28.0776	0.115063	0.001935	59.4787	53.2249	-164.655	0.188718	0.921230	-0.175337	-0.176696	0.221155	59.4787	-0.178126	-56.6923	-0.003901	NaN
341	1.000000	0.932574	7.3684e+06	-55689.1	955.818	-29741.2	0.000000	0.000000	6.933119	0.170334	NaN	0.000000	0.001542	0.001677	28.0776	0.048313	0.002033	23.767	146.523	13.2928	0.175315	0.931211	-0.165352	-0.166715	0.170334	23.767	-0.170727	-42.2893	-0.004028	NaN
341	1.000000	0.942592	7.3684e+06	-55689.1	955.818	-29741.2	0.000000	0.000000	6.943135	0.113002	NaN	0.000000	0.001539	0.001730	28.0777	0.042086	0.002095	20.0866	-116.291	-166.457	0.173717	0.941282	-0.155334	-0.156644	0.113002	20.0866	-0.159553	-26.9182	-0.004198	NaN
341	1.000000	0.952570	7.3684e+06	-55689.1	955.819	-29741.2	0.000000	0.000000	6.953119	0.255749	NaN	0.000000	0.001516	0.001717	28.0774	0.160381	0.001917	83.6614	-6.105113	12.0744	0.212218	0.951206	-0.145356	-0.146720	0.255749	83.6614	-0.147649	-16.4052	-0.015589	NaN
341	1.000000	0.962598	7.3684e+06	-55689.1	955.817	-29741.2	0.000000	0.000000	6.963143	0.174133	NaN	0.000000	0.001492	0.001714	28.0782	0.026165	0.002027	12.9074	-127.575	-165.807	0.212002	0.961286	-0.135329	-0.136640	0.174133	12.9074	-0.145447	-14.9427	-0.011653	NaN
341	1.000000	0.972580	7.3684e+06	-55689.1	955.817	-29741.2	0.000000	0.000000	6.973126	0.214176	NaN	0.000000	0.001530	0.001714	28.0788	0.052521	0.001953	26.8913	132.095	15.5383	0.179315	0.971202	-0.125346	-0.126724	0.214176	26.8913	-0.131320	-8.083279	-0.026496	NaN
341	1.000000	0.982604	7.3684e+06	-55689.1	955.818	-29741.2	0.000000	0.000000	6.983149	0.166135	NaN	0.000000	0.001494	0.001704	28.0787	0.017598	0.002071	8.496271	-114.482	-166.027	0.240711	0.981234	-0.115322	-0.116692	0.166135	8.496271	-0.129988	-7.616790	-0.021812	NaN
341	1.000000	0.992625	7.3684e+06	-55689.1	955.818	-29741.2	0.000000	0.000000	6.993171	0.194989	NaN	0.000000	0.001500	0.001712	28.0787	0.044868	0.001974	22.7314	-78.5027	15.9079	0.245898	0.991221	-0.105301	-0.106706	0.194989	22.7314	-0.111735	-3.268140	-0.059664	NaN
341	1.000000	1.002606	7.3684e+06	-55689.1	955.818	-29741.2	0.000000	0.000000	7.003151	0.179344	NaN	0.000000	0.001483	0.001696	28.079	0.052155	0.001992	26.1814	157.355	-162.088	0.113556	1.001314	-0.095320	-0.096612	0.179344	26.1814	-0.100458	-1.870306	-0.095890	NaN
341	1.000000	1.012609	7.3684e+06	-55689.1	955.818	-29741.2	0.000000	0.000000	7.013153	0.165327	NaN	0.000000	0.001500	0.001681	28.0787	0.047425	0.002008	23.6143	61.1906	15.8297	0.202751	1.011301	-0.085317	-0.086625	0.165327	23.6143	-0.090568	-1.114627	-0.148325	NaN
341	1.000000	1.022615	7.3684e+06	-55689.1	955.817	-29741.2	0.000000	0.000000	7.023159	0.164479	NaN	0.000000	0.001532	0.001752	28.0788	0.083270	0.001988	41.8886	-125.365	-163.455	0.161009	1.021309	-0.075312	-0.076618	0.164479	41.8886	-0.078257	-0.559546	-0.293952	NaN
341	1.000000	1.032633	7.3684e+06	-55689.1	955.818	-29741.2	0.000000	0.000000	7.033181	0.237933	NaN	0.000000	0.001508	0.001715	28.0787	0.099692	0.002035	48.9897	54.0072	14.7948	0.180230	1.031273	-0.065293	-0.066654	0.237933	48.9897	-0.068936	-0.319351	-0.745050	NaN
341	1.000000	1.042646	7.3684e+06	-55689.1	955.819	-29741.2	0.000000	0.000000	7.043190	0.161044	NaN	0.000000	0.001556	0.001734	28.079	0.138708	0.001980	70.0559	169.679	-169.092	0.210924	1.041286	-0.055281	-0.056640	0.161044	70.0559	-0.057005	-0.147491	-1.091891	NaN
341	1.000000	1.052622	7.3684e+06	-55689.1	955.819	-29741.2	0.000000	0.000000	7.053171	0.274373	NaN	0.000000	0.001554	0.001731	28.0787	0.087964	0.001943	45.27	-106.616	17.4436	0.246813	1.051254	-0.045304	-0.046672	0.274373	45.27	-0.049850	-0.090302	-3.038380	NaN
341	1.000000	1.062632	7.3684e+06	-55689.1	955.82	-29741.2	0.000000	0.000000	7.063179	0.220712	NaN	0.000000	0.001565	0.001705	28.0787	0.067400	0.002126	31.7081	-160.471	-166.531	0.184543	1.061316	-0.035294	-0.036611	0.220712	31.7081	-0.040514	-0.046880	-4.708023	NaN
341	1.000000	1.072642	7.3684e+06	-55689.1	955.819	-29741.2	0.000000	0.000000	7.073187	0.182067	NaN	0.000000	0.001557	0.001741	28.0787	0.031423	0.002169	14.4866	125.837	17.0019	0.136250	1.071286	-0.025284	-0.026640	0.182067	14.4866	-0.034710	-0.031402	-5.797866	NaN
341	1.000000	1.082687	7.3684e+06	-55689.1	955.819	-29741.2	0.000000	0.000000	7.083235	0.256798	NaN	0.000000	0.001542	0.001735	28.0788	0.016032	0.001972	8.128875	111.455	-166.691	0.222345	1.081296	-0.015239	-0.016630	0.256798	8.128875	-0.038932	-0.041975	-6.117838	NaN
341	1.000000	1.092656	7.3684e+06	-55689.1	955.818	-29741.2	0.000000	0.000000	7.093203	0.205858	NaN	0.000000	0.001476	0.001719	28.0786	0.095853	0.002010	47.6798	82.6944	13.3322	0.256112	1.091231	-0.005270	-0.006695	0.205858	47.6798	-0.008508	-0.005528	-37.2385	NaN
341	1.000000	1.102628	7.3684e+06	-55689.1	955.818	-29741.2	0.000000	0.000000	7.103339	4.210418	NaN	0.000000	0.001546	0.001716	28.0814	4.792317	0.001671	2868.03	12.4245	-169.701	2.955815	1.101291	0.004701	0.003365	4.210418	2868.03	0.003600	0.002892	1456.11	48729.4
341	2.000000	1.107800	7.3684e+06	-55689.1	955.818	-29741.2	0.000000	0.000000	7.108726	9.446023	NaN	0.000000	0.001537	0.001742	28.0781	9.630032	0.001610	5981.33	7.408793	7.796845	8.504028	1.107513	0.009874	0.009587	9.446023	5981.33	0.008689	0.007761	1217.15	62032.5
341	2.000000	1.110328	7.3684e+06	-55689.1	955.819	-29741.2	0.000000	0.000000	7.111374	12.3461	NaN	0.000000	0.001549	0.001745	28.0782	13.3462	0.001830	7293.77	10.4254	-175.582	12.5389	1.110013	0.012402	0.012087	12.3461	7293.77	0.011132	0.010467	1179.5	65134.4
341	2.000000	1.112826	7.3684e+06	-55689.1	955.819	-29741.2	0.000000	0.000000	7.114038	16.3841	NaN	0.000000	0.001519	0.001752	28.0777	15.1674	0.001694	8951.27	2.542181	8.426514	15.3829	1.112459	0.014900	0.014533	16.3841	8951.27	0.013527	0.013371	1225.36	70725.7
341	2.000000	1.115283	7.3684e+06	-55689.1	955.818	-29741.2	0.000000	0.000000	7.116685	21.0271	NaN	0.000000	0.001597	0.001702	28.0775	17.5197	0.001769	9902.91	4.423567	-172.906	20.8152	1.114926	0.017356	0.017000	21.0271	9902.91	0.015764	0.016317	1288.64	70829.1
341	2.000000	1.117764	7.3684e+06	-55689.1	955.82	-29741.2	0.000000	0.000000	7.119356	25.6422	NaN	0.000000	0.001605	0.001739	28.078	20.3588	0.001768	11516.3	5.399569	4.160188	24.7109	1.117365	0.019837	0.019439	25.6422	11516.3	0.018167	0.019744	1298.75	74881.1
341	2.000000	1.120269	7.3684e+06	-55689.1	955.819	-29741.2	0.000000	0.000000	7.122106	31.5791	NaN	0.000000	0.001606	0.001700	28.0777	23.6594	0.001885	12548.7	8.518675	-179.568	31.055	1.119949	0.022343	0.022023	31.5791	12548.7	0.020455	0.023263	1357.5	75169.6
341	2.000000	1.122791	7.3684e+06	-55689.1	955.818	-29741.2	0.000000	0.000000	7.124850	36.9726	NaN	0.000000	0.001606	0.001723	28.0775	25.0577	0.001820	13767.8	4.893743	3.681608	36.1716	1.122374	0.024865	0.024447	36.9726	13767.8	0.022851	0.027222	1358.19	76239.4
341	2.000000	1.125209	7.3684e+06	-55689.1	955.82	-29741.2	0.000000	0.000000	7.127508	42.8261	NaN	0.000000	0.001568	0.001715	28.0776	27.6411	0.001719	16075.6	6.980375	178.528	40.389	1.124945	0.027282	0.027019	42.8261	16075.6	0.025284	0.031535	1358.06	82707.7
341	2.000000	1.127716	7.3684e+06	-55689.1	955.819	-29741.2	0.000000	0.000000	7.130284	49.349	NaN	0.000000	0.001547	0.001660	28.0785	30.252	0.001735	17436.6	5.418723	-0.058993	47.792	1.127458	0.029790	0.029531	49.349	17436.6	0.027667	0.036047	1369.01	83907.2
341	2.000000	1.130208	7.3684e+06	-55689.1	955.819	-29741.2	0.000000	0.000000	7.133084	56.8581	NaN	0.000000	0.001545	0.001712	28.078	33.6974	0.001897	17765.7	6.613489	179.044	55.3311	1.129931	0.032281	0.032005	56.8581	17765.7	0.029881	0.040497	1403.99	80657
341	2.000000	1.132745	7.3684e+06	-55689.1	955.819	-29741.2	0.000000	0.000000	7.136017	66.4746	NaN	0.000000	0.001507	0.001697	28.0783	34.9399	0.001842	18971.8	4.902884	1.542011	65.3983	1.132325	0.034818	0.034398	66.4746	18971.8	0.032190	0.045406	1464.01	81343.9
341	2.000000	1.135198	7.3684e+06	-55689.1	955.819	-29741.2	0.000000	0.000000	7.138820	74.9758	NaN	0.000000	0.001484	0.001728	28.0776	37.3861	0.001866	20034.2	7.662949	177.517	72.5864	1.134852	0.037272	0.036926	74.9758	20034.2	0.034465	0.050508	1484.45	81445.4
341	2.000000	1.137682	7.3684e+06	-55689.1	955.818	-29741.2	0.000000	0.000000	7.141709	84.8193	NaN	0.000000	0.001522	0.001718	28.0782	39.7162	0.001838	21604.2	7.658540	-3.881528	82.7705	1.137407	0.039756	0.039480	84.8193	21604.2	0.036811	0.056047	1513.35	83374.8
341	2.000000	1.140228	7.3684e+06	-55689.1	955.819	-29741.2	0.000000	0.000000	7.144597	93.1405	NaN	0.000000	0.001535	0.001699	28.0788	42.2798	0.001753	24124.7	5.942925	176.58	92.4566	1.139951	0.042302	0.042024	93.1405	24124.7	0.039406	0.062502	1490.19	88163.3
341	2.000000	1.142713	7.3684e+06	-55689.1	955.819	-29741.2	0.000000	0.000000	7.147581	105.243	NaN	0.000000	0.001534	0.001681	28.0799	44.2376	0.001833	24129.1	7.464487	-3.963016	103.622	1.142365	0.044787	0.044439	105.243	24129.1	0.041516	0.068004	1547.59	84536.8
341	2.000000	1.145202	7.3684e+06	-55689.1	955.819	-29741.2	0.000000	0.000000	7.150485	115.338	NaN	0.000000	0.001543	0.001735	28.0788	47.2229	0.001805	26156	5.659094	176.742	114.709	1.144835	0.047276	0.046909	115.338	26156	0.043969	0.074686	1544.31	87443.1
341	2.000000	1.147690	7.3684e+06	-55689.1	955.82	-29741.2	0.000000	0.000000	7.153362	124.81	NaN	0.000000	0.001535	0.001742	28.0791	49.4227	0.001720	28738.2	5.097173	-4.082844	122.753	1.147429	0.049763	0.049503	124.81	28738.2	0.046506	0.081921	1523.54	91735.2
341	2.000000	1.150226	7.3684e+06	-55689.1	955.82	-29741.2	0.000000	0.000000	7.156305	134.7	NaN	0.000000	0.001568	0.001714	28.0786	52.1807	0.001780	29315.3	2.990955	177.551	135.06	1.149884	0.052300	0.051957	134.7	29315.3	0.048854	0.088903	1515.14	89827.6
341	2.000000	1.152734	7.3684e+06	-55689.1	955.819	-29741.2	0.000000	0.000000	7.159355	147.874	NaN	0.000000	0.001582	0.001706	28.0793	53.4454	0.001717	31129.1	2.703256	-1.730367	146.662	1.152330	0.054808	0.054403	147.874	31129.1	0.051245	0.096301	1535.55	91648.6
341	2.000000	1.155212	7.3684e+06	-55689.1	955.819	-29741.2	0.000000	0.000000	7.162161	155.859	NaN	0.000000	0.001551	0.001719	28.0785	56.4162	0.001737	32479.9	5.806092	174.647	156.713	1.154833	0.057285	0.056907	155.859	32479.9	0.053686	0.104147	1496.52	91952.8
341	2.000000	1.157656	7.3684e+06	-55689.1	955.82	-29741.2	0.000000	0.000000	7.165301	172.775	NaN	0.000000	0.001559	0.001692	28.0789	58.3538	0.001754	33271.5	5.545708	-4.692840	169.569	1.157256	0.059729	0.059329	172.775	33271.5	0.055835	0.111297	1552.37	91117.7
341	2.000000	1.160214	7.3684e+06	-55689.1	955.819	-29741.2	0.000000	0.000000	7.168152	179.889	NaN	0.000000	0.001578	0.001701	28.0784	62.8641	0.001895	33177.7	5.472820	174.281	179.479	1.159899	0.062288	0.061972	179.889	33177.7	0.058221	0.119507	1505.26	87684.5
341	2.000000	1.162667	7.3684e+06	-55689.1	955.82	-29741.2	0.000000	0.000000	7.171237	195.238	NaN	0.000000	0.001530	0.001714	28.0787	63.0622	0.001776	35516	3.530615	-3.761151	192.581	1.162374	0.064741	0.064448	195.238	35516	0.060618	0.128034	1524.88	90684.7
341	2.000000	1.165175	7.3684e+06	-55689.1	955.819	-29741.2	0.000000	0.000000	7.174306	208.887	NaN	0.000000	0.001545	0.001677	28.0789	65.4674	0.001866	35079.3	6.618668	173.439	207.62	1.164771	0.067249	0.066845	208.887	35079.3	0.062783	0.135976	1536.2	86914.6
341	2.000000	1.167667	7.3684e+06	-55689.1	955.82	-29741.2	0.000000	0.000000	7.177274	220.464	NaN	0.000000	0.001507	0.001699	28.0789	67.6524	0.001773	38147.5	4.784835	-5.805293	217.575	1.167299	0.069740	0.069373	220.464	38147.5	0.065406	0.145904	1511.02	91244.4
341	2.000000	1.170156	7.3684e+06	-55689.1	955.82	-29741.2	0.000000	0.000000	7.180066	227.808	NaN	0.000000	0.001545	0.001726	28.0784	70.7007	0.001797	39343.1	4.665013	173.644	227.64	1.170018	0.072230	0.072092	227.808	39343.1	0.067887	0.155600	1464.06	91124.8
341	2.000000	1.172697	7.3684e+06	-55689.1	955.819	-29741.2	0.000000	0.000000	7.183512	249.817	NaN	0.000000	0.001555	0.001737	28.0778	72.0544	0.001811	39798.1	2.924066	-4.061242	248.858	1.172331	0.074770	0.074404	249.817	39798.1	0.070062	0.164342	1520.1	89693.4
341	2.000000	1.175172	7.3684e+06	-55689.1	955.82	-29741.2	0.000000	0.000000	7.186786	269.235	NaN	0.000000	0.001548	0.001643	28.077	73.427	0.001816	40430.1	2.854338	176.044	267.32	1.174766	0.077246	0.076840	269.235	40430.1	0.072251	0.173367	1552.98	88714.7
341	2.000000	1.177619	7.3684e+06	-55689.1	955.819	-29741.2	0.000000	0.000000	7.189771	282.315	NaN	0.000000	0.001565	0.001707	28.0774	75.2702	0.001769	42549.3	1.490423	-2.934717	276.393	1.177245	0.079693	0.079318	282.315	42549.3	0.074716	0.183801	1535.98	90675.8
341	2.000000	1.180159	7.3684e+06	-55689.1	955.82	-29741.2	0.000000	0.000000	7.192759	293.219	NaN	0.000000	0.001574	0.001695	28.0773	79.4322	0.001861	42687.6	3.740373	174.236	292.93	1.179989	0.082232	0.082063	293.219	42687.6	0.077081	0.194077	1510.83	88529.5
341	2.000000	1.182698	7.3684e+06	-55689.1	955.819	-29741.2	0.000000	0.000000	7.195966	309.458	NaN	0.000000	0.001543	0.001701	28.0772	81.0541	0.001850	43822.1	5.876058	-7.311814	308.314	1.182209	0.084772	0.084283	309.458	43822.1	0.079475	0.204754	1511.37	88481
341	2.000000	1.185093	7.3684e+06	-55689.1	955.819	-29741.2	0.000000	0.000000	7.199338	333.196	NaN	0.000000	0.001547	0.001700	28.0772	82.7845	0.001770	46776.5	5.451048	172.104	328.849	1.184814	0.087167	0.086888	333.196	46776.5	0.081825	0.215487	1546.25	92064.1
341	2.000000	1.187647	7.3684e+06	-55689.1	955.819	-29741.2	0.000000	0.000000	7.202449	346.733	NaN	0.000000	0.001551	0.001722	28.0773	85.2434	0.001739	49011	4.676590	-7.326940	343.006	1.187242	0.089720	0.089316	346.733	49011	0.084415	0.227617	1523.32	93856.6
341	2.000000	1.190138	7.3684e+06	-55689.1	955.819	-29741.2	0.000000	0.000000	7.205213	353.377	NaN	0.000000	0.001547	0.001706	28.0771	89.1872	0.001885	47323.7	4.377882	172.834	351.114	1.190041	0.092212	0.092114	353.377	47323.7	0.086611	0.238147	1483.86	88599.1
341	2.000000	1.192682	7.3684e+06	-55689.1	955.819	-29741.2	0.000000	0.000000	7.208812	379.026	NaN	0.000000	0.001570	0.001730	28.0772	90.8177	0.001888	48106.5	7.487432	-9.599208	377.407	1.192184	0.094756	0.094258	379.026	48106.5	0.088847	0.249093	1521.63	88063.6
341	2.000000	1.195144	7.3684e+06	-55689.1	955.82	-29741.2	0.000000	0.000000	7.211968	395.884	NaN	0.000000	0.001548	0.001750	28.0773	92.294	0.001783	51762	6.034003	170.966	394.606	1.194765	0.097218	0.096839	395.884	51762	0.091482	0.262288	1509.35	92341.1
341	2.000000	1.197617	7.3684e+06	-55689.1	955.819	-29741.2	0.000000	0.000000	7.214959	408.475	NaN	0.000000	0.001531	0.001747	28.0773	95.3713	0.001848	51603	4.480305	-7.687076	405.449	1.197317	0.099691	0.099390	408.475	51603	0.093754	0.273925	1491.19	90080.9
341	2.000000	1.200138	7.3684e+06	-55689.1	955.82	-29741.2	0.000000	0.000000	7.218386	430.52	NaN	0.000000	0.001549	0.001685	28.0772	98.0756	0.001831	53553.9	5.630302	170.947	428.115	1.199794	0.102211	0.101868	430.52	53553.9	0.096182	0.286617	1502.07	91393
341	2.000000	1.202596	7.3684e+06	-55689.1	955.819	-29741.2	0.000000	0.000000	7.221474	445.801	NaN	0.000000	0.001557	0.001740	28.0775	98.2701	0.001849	53137.4	0.927113	-4.065750	439.789	1.202257	0.104670	0.104331	445.801	53137.4	0.098378	0.298327	1494.34	88884.8
341	2.000000	1.204605	7.3684e+06	-55689.1	955.82	-29741.2	0.000000	0.000000	7.224311	465.944	NaN	0.000000	0.001563	0.001767	28.0773	99.714	0.001908	52256.7	3.736711	-6.114167	461.621	1.204228	0.106679	0.106302	465.944	52256.7	0.099991	0.307071	1517.38	86157.9