File: remote_trans/data/nanoindenter/0828-1/data/Data_2025-08-06,11h17m57s/2025-07-22_16-23-58_1_437.txt
2025-07-22, 16:23:58, 1
Index	Phase	Displacement	Time	Pos X	Pos Y	Pos Z	Rot A	Rot B	Piezo Z	Force A	Force B	Gripper	Voltage A	Voltage B	Temperature	Amplitude force	Amplitude pos	Stiffness	Phase shift	Phase excitation	Force A raw	Displacement raw	HMax	HMax raw	Real Force	Real Stiffness	Contact Depth	Area	Hardness	Reduced Mod.
[#]	[#]	[um]	[s]	[um]	[um]	[um]	[m°]	[m°]	[um]	[uN]	[uN]	[V]	[V]	[V]	[°C]	[uN]	[um]	[N/m]	[°]	[°]	[uN]	[um]	[um]	[um]	[uN]	[N/m]	[um]	[um^2]	[MPa]	[MPa]
437	1.000000	0.002211	7.36933e+06	-55239.1	1005.82	-29742.1	0.000000	0.000000	6.002795	0.039774	NaN	0.000000	0.001610	0.001708	28.0802	0.075959	0.001061	71.578	55.7796	-166.899	-0.019784	0.000998	-1.070398	-1.071610	0.039774	71.578	-1.070814	-2.032968E+14	-1.956467E-16	NaN
437	1.000000	0.010163	7.36933e+06	-55239.1	1005.82	-29742.1	0.000000	0.000000	6.010747	0.027241	NaN	0.000000	0.001623	0.001769	28.081	0.122086	0.001030	118.567	-54.3698	-161.302	-0.044721	0.008873	-1.062445	-1.063736	0.027241	118.567	-1.062618	-1.577600E+14	-1.726714E-16	NaN
437	1.000000	0.018162	7.36933e+06	-55239.1	1005.82	-29742.1	0.000000	0.000000	6.018743	-0.026453	NaN	0.000000	0.001652	0.001714	28.0811	0.048666	0.001748	27.8411	103.76	-170.202	-0.095591	0.016887	-1.054447	-1.055721	-0.026453	27.8411	-1.053734	-1.198419E+14	2.207351E-16	NaN
437	1.000000	0.026208	7.36933e+06	-55239.1	1005.82	-29742.1	0.000000	0.000000	6.026792	0.035837	NaN	0.000000	0.001620	0.001748	28.0809	0.080975	0.001886	42.9407	-127.814	-164.926	0.009883	0.024815	-1.046400	-1.047794	0.035837	42.9407	-1.047026	-9.737239E+13	-3.680397E-16	NaN
437	1.000000	0.034167	7.36933e+06	-55239.1	1005.82	-29742.1	0.000000	0.000000	6.034752	0.053353	NaN	0.000000	0.001627	0.001713	28.0813	0.158654	0.001850	85.7638	-69.4464	-164.887	-0.044970	0.032896	-1.038442	-1.039712	0.053353	85.7638	-1.038908	-7.573321E+13	-7.044836E-16	NaN
437	1.000000	0.042178	7.36933e+06	-55239.1	1005.82	-29742.1	0.000000	0.000000	6.042762	0.027366	NaN	0.000000	0.001627	0.001723	28.0815	0.088583	0.001904	46.5131	129.669	-160.985	0.017302	0.040872	-1.030430	-1.031737	0.027366	46.5131	-1.030871	-5.904765E+13	-4.634558E-16	NaN
437	1.000000	0.050169	7.36933e+06	-55239.1	1005.82	-29742.1	0.000000	0.000000	6.050750	-0.038117	NaN	0.000000	0.001607	0.001717	28.0812	0.035480	0.001998	17.7594	-86.3863	-164.649	0.029570	0.048869	-1.022440	-1.023740	-0.038117	17.7594	-1.020830	-4.326329E+13	8.810500E-16	NaN
437	1.000000	0.058178	7.36933e+06	-55239.1	1005.82	-29742.1	0.000000	0.000000	6.058760	-0.006846	NaN	0.000000	0.001612	0.001709	28.0813	0.182894	0.001927	94.9066	-124.323	-165.159	-0.045602	0.056869	-1.014431	-1.015739	-0.006846	94.9066	-1.014377	-3.542335E+13	1.932732E-16	NaN
437	1.000000	0.066172	7.36933e+06	-55239.1	1005.82	-29742.1	0.000000	0.000000	6.066757	0.052922	NaN	0.000000	0.001631	0.001721	28.0809	0.056796	0.002067	27.4757	157.325	-165.732	0.014867	0.064850	-1.006436	-1.007758	0.052922	27.4757	-1.007881	-2.896399E+13	-1.827152E-15	NaN
437	1.000000	0.074176	7.36933e+06	-55239.1	1005.82	-29742.1	0.000000	0.000000	6.074759	0.002635	NaN	0.000000	0.001596	0.001690	28.0809	0.083124	0.001966	42.2778	-106.634	-164.698	0.099791	0.072908	-0.998433	-0.999701	0.002635	42.2778	-0.998479	-2.164190E+13	-1.217511E-16	NaN
437	1.000000	0.082191	7.36933e+06	-55239.1	1005.82	-29742.1	0.000000	0.000000	6.082773	0.001242	NaN	0.000000	0.001610	0.001706	28.081	0.027645	0.002049	13.4885	-23.9943	-167.209	0.010291	0.080893	-0.990418	-0.991716	0.001242	13.4885	-0.990487	-1.689149E+13	-7.354833E-17	NaN
437	1.000000	0.090162	7.36933e+06	-55239.1	1005.82	-29742.1	0.000000	0.000000	6.090743	-0.021282	NaN	0.000000	0.001579	0.001746	28.0809	0.015966	0.001883	8.477965	-37.4546	-166.309	-0.000512	0.088874	-0.982447	-0.983735	-0.021282	8.477965	-0.980564	-1.241683E+13	1.713975E-15	NaN
437	1.000000	0.098142	7.36933e+06	-55239.1	1005.82	-29742.1	0.000000	0.000000	6.098725	0.009196	NaN	0.000000	0.001593	0.001714	28.0813	0.113913	0.002074	54.9171	-118.093	-162.625	0.066725	0.096869	-0.974467	-0.975740	0.009196	54.9171	-0.974592	-1.031693E+13	-8.913393E-16	NaN
437	1.000000	0.106186	7.36933e+06	-55239.1	1005.82	-29742.1	0.000000	0.000000	6.106769	0.016076	NaN	0.000000	0.001566	0.001694	28.081	0.011696	0.001950	5.997320	-68.5365	-165.711	0.127880	0.104907	-0.966423	-0.967702	0.016076	5.997320	-0.968433	-8.522064E+12	-1.886349E-15	NaN
437	1.000000	0.114161	7.36933e+06	-55239.1	1005.82	-29742.1	0.000000	0.000000	6.114744	0.010592	NaN	0.000000	0.001590	0.001694	28.0811	0.126503	0.002067	61.2058	-92.8127	-163.632	-0.001221	0.112917	-0.958448	-0.959692	0.010592	61.2058	-0.958578	-6.276118E+12	-1.687634E-15	NaN
437	1.000000	0.122175	7.36933e+06	-55239.1	1005.82	-29742.1	0.000000	0.000000	6.122757	-0.006344	NaN	0.000000	0.001619	0.001680	28.0811	0.027152	0.001931	14.0616	44.0498	-165.458	-0.007125	0.120889	-0.950433	-0.951719	-0.006344	14.0616	-0.950095	-4.822924E+12	1.315291E-15	NaN
437	1.000000	0.130195	7.36933e+06	-55239.1	1005.82	-29742.1	0.000000	0.000000	6.130778	0.023606	NaN	0.000000	0.001617	0.001696	28.081	0.050638	0.002054	24.6596	-141.828	-162.983	-0.004639	0.128905	-0.942414	-0.943704	0.023606	24.6596	-0.943132	-3.885005E+12	-6.076155E-15	NaN
437	1.000000	0.138184	7.36933e+06	-55239.1	1005.82	-29742.1	0.000000	0.000000	6.138766	-0.007156	NaN	0.000000	0.001621	0.001692	28.0813	0.030841	0.001924	16.0294	10.2628	-164.663	-0.014515	0.136890	-0.934424	-0.935719	-0.007156	16.0294	-0.934089	-2.933500E+12	2.439395E-15	NaN
437	1.000000	0.146189	7.36933e+06	-55239.1	1005.82	-29742.1	0.000000	0.000000	6.146773	0.052440	NaN	0.000000	0.001600	0.001707	28.0797	0.113163	0.002143	52.8102	120.634	-164.259	0.027774	0.144894	-0.926420	-0.927715	0.052440	52.8102	-0.927165	-2.365516E+12	-2.216851E-14	NaN
437	1.000000	0.154212	7.36933e+06	-55239.1	1005.82	-29742.1	0.000000	0.000000	6.154799	0.122148	NaN	0.000000	0.001605	0.001708	28.08	0.026791	0.002115	12.6664	-33.512	-165.318	0.094481	0.152921	-0.918397	-0.919688	0.122148	12.6664	-0.925629	-2.255297E+12	-5.416030E-14	NaN
437	1.000000	0.162191	7.36933e+06	-55239.1	1005.82	-29742.1	0.000000	0.000000	6.162774	0.025214	NaN	0.000000	0.001597	0.001722	28.0798	0.020012	0.001995	10.0326	-167.22	-165.559	0.041297	0.160922	-0.910418	-0.911687	0.025214	10.0326	-0.912303	-1.490276E+12	-1.691875E-14	NaN
437	1.000000	0.170202	7.36933e+06	-55239.1	1005.82	-29742.1	0.000000	0.000000	6.170788	0.090369	NaN	0.000000	0.001594	0.001737	28.0799	0.045712	0.002069	22.0934	-47.1963	-163.362	-0.028695	0.168898	-0.902407	-0.903711	0.090369	22.0934	-0.905474	-1.205118E+12	-7.498741E-14	NaN
437	1.000000	0.178231	7.36933e+06	-55239.1	1005.82	-29742.1	0.000000	0.000000	6.178811	-0.049903	NaN	0.000000	0.001600	0.001699	28.08	0.025837	0.002019	12.7948	-175.633	-166.872	-0.085784	0.176939	-0.894378	-0.895670	-0.049903	12.7948	-0.891453	-7.790230E+11	6.405890E-14	NaN
437	1.000000	0.186192	7.36933e+06	-55239.1	1005.82	-29742.1	0.000000	0.000000	6.186776	0.052672	NaN	0.000000	0.001598	0.001706	28.0799	0.086676	0.002018	42.9449	-108.809	-165.366	-0.009794	0.184900	-0.886417	-0.887709	0.052672	42.9449	-0.887337	-6.853539E+11	-7.685305E-14	NaN
437	1.000000	0.194242	7.36933e+06	-55239.1	1005.82	-29742.1	0.000000	0.000000	6.194826	0.039416	NaN	0.000000	0.001600	0.001687	28.08	0.086753	0.002174	39.9109	132.441	-163.675	0.036167	0.192908	-0.878366	-0.879700	0.039416	39.9109	-0.879107	-5.304347E+11	-7.430862E-14	NaN
437	1.000000	0.202217	7.36933e+06	-55239.1	1005.82	-29742.1	0.000000	0.000000	6.202798	-0.030732	NaN	0.000000	0.001597	0.001706	28.0799	0.129579	0.001999	64.806	162.589	-165.242	-0.104147	0.200911	-0.870391	-0.871698	-0.030732	64.806	-0.870036	-3.998779E+11	7.685226E-14	NaN
437	1.000000	0.210238	7.36933e+06	-55239.1	1005.82	-29742.1	0.000000	0.000000	6.210822	0.024912	NaN	0.000000	0.001600	0.001721	28.0797	0.080715	0.002013	40.0907	-18.1733	-165.848	0.033388	0.208893	-0.862371	-0.863716	0.024912	40.0907	-0.862837	-3.195305E+11	-7.796429E-14	NaN
437	1.000000	0.218238	7.36933e+06	-55239.1	1005.82	-29742.1	0.000000	0.000000	6.218821	0.035083	NaN	0.000000	0.001612	0.001672	28.0796	0.043400	0.002053	21.1354	172	-165.506	0.022249	0.216937	-0.854371	-0.855672	0.035083	21.1354	-0.855616	-2.551385E+11	-1.375045E-13	NaN
437	1.000000	0.226239	7.36933e+06	-55239.1	1005.82	-29742.1	0.000000	0.000000	6.226820	-0.037858	NaN	0.000000	0.001620	0.001695	28.08	0.035424	0.002092	16.9322	-144.939	-164.396	0.017385	0.224895	-0.846370	-0.847713	-0.037858	16.9322	-0.844693	-1.814943E+11	2.085900E-13	NaN
437	1.000000	0.234261	7.36933e+06	-55239.1	1005.82	-29742.1	0.000000	0.000000	6.234844	0.009715	NaN	0.000000	0.001628	0.001697	28.0799	0.085458	0.001943	43.9753	147.652	-167.317	0.050631	0.232888	-0.838347	-0.839721	0.009715	43.9753	-0.838513	-1.496741E+11	-6.490825E-14	NaN
437	1.000000	0.242230	7.36933e+06	-55239.1	1005.82	-29742.1	0.000000	0.000000	6.242813	0.015009	NaN	0.000000	0.001612	0.001698	28.0798	0.107277	0.001954	54.8974	-169.385	-161.917	-0.047690	0.240934	-0.830379	-0.831675	0.015009	54.8974	-0.830584	-1.168681E+11	-1.284227E-13	NaN
437	1.000000	0.250227	7.36933e+06	-55239.1	1005.82	-29742.1	0.000000	0.000000	6.250809	0.008408	NaN	0.000000	0.001630	0.001740	28.08	0.072497	0.001969	36.8142	-69.7969	-162.471	-0.017168	0.248900	-0.822382	-0.823709	0.008408	36.8142	-0.822553	-9.095610E+10	-9.243982E-14	NaN
437	1.000000	0.258244	7.36933e+06	-55239.1	1005.82	-29742.1	0.000000	0.000000	6.258826	-0.014478	NaN	0.000000	0.001614	0.001745	28.0797	0.051424	0.002013	25.5515	-94.2208	-165.589	0.072578	0.256915	-0.814364	-0.815693	-0.014478	25.5515	-0.813939	-6.950462E+10	2.082996E-13	NaN
437	1.000000	0.266259	7.36933e+06	-55239.1	1005.82	-29742.1	0.000000	0.000000	6.266843	0.034547	NaN	0.000000	0.001655	0.001738	28.0799	0.097875	0.001931	50.6804	-137.601	-166.866	0.052175	0.264994	-0.806350	-0.807614	0.034547	50.6804	-0.806861	-5.571632E+10	-6.200492E-13	NaN
437	1.000000	0.274246	7.36933e+06	-55239.1	1005.82	-29742.1	0.000000	0.000000	6.274829	0.018985	NaN	0.000000	0.001630	0.001721	28.08	0.116651	0.001979	58.938	-108.03	-166.232	0.012904	0.272930	-0.798363	-0.799679	0.018985	58.938	-0.798604	-4.304441E+10	-4.410609E-13	NaN
437	1.000000	0.282274	7.36933e+06	-55239.1	1005.82	-29742.1	0.000000	0.000000	6.282857	0.005617	NaN	0.000000	0.001619	0.001720	28.081	0.082453	0.002102	39.2192	165.688	-165.315	0.013878	0.280996	-0.790335	-0.791613	0.005617	39.2192	-0.790442	-3.334920E+10	-1.684428E-13	NaN
437	1.000000	0.290281	7.36933e+06	-55239.1	1005.82	-29742.1	0.000000	0.000000	6.290859	-0.089516	NaN	0.000000	0.001622	0.001708	28.0811	0.104211	0.002015	51.7124	-126.699	-163.307	-0.100420	0.288960	-0.782328	-0.783648	-0.089516	51.7124	-0.781030	-2.484421E+10	3.603100E-12	NaN
437	1.000000	0.298256	7.36933e+06	-55239.1	1005.82	-29742.1	0.000000	0.000000	6.298839	0.022485	NaN	0.000000	0.001639	0.001733	28.0813	0.084032	0.001990	42.2173	-163.93	-163.734	-0.054657	0.296936	-0.774353	-0.775673	0.022485	42.2173	-0.774752	-2.041311E+10	-1.101484E-12	NaN
437	1.000000	0.306264	7.36933e+06	-55239.1	1005.82	-29742.1	0.000000	0.000000	6.306846	0.005054	NaN	0.000000	0.001604	0.001687	28.0814	0.143696	0.001999	71.8842	-117.447	-166.763	-0.016885	0.304972	-0.766345	-0.767636	0.005054	71.8842	-0.766398	-1.571524E+10	-3.216243E-13	NaN
437	1.000000	0.314264	7.36933e+06	-55239.1	1005.82	-29742.1	0.000000	0.000000	6.314847	0.008516	NaN	0.000000	0.001608	0.001720	28.081	0.076666	0.001968	38.9551	152.429	-163.993	-0.011815	0.312922	-0.758344	-0.759687	0.008516	38.9551	-0.758508	-1.227459E+10	-6.938103E-13	NaN
437	1.000000	0.322301	7.36933e+06	-55239.1	1005.82	-29742.1	0.000000	0.000000	6.322884	0.011039	NaN	0.000000	0.001607	0.001719	28.0811	0.091517	0.002003	45.6861	29.4495	-163.948	0.024397	0.321011	-0.750307	-0.751597	0.011039	45.6861	-0.750489	-9.547119E+9	-1.156222E-12	NaN
437	1.000000	0.330310	7.36933e+06	-55239.1	1005.82	-29742.1	0.000000	0.000000	6.330895	0.062797	NaN	0.000000	0.001611	0.001751	28.081	0.118258	0.002120	55.7758	-165.344	-166.591	-0.015629	0.329000	-0.742298	-0.743609	0.062797	55.7758	-0.743143	-7.583324E+9	-8.280912E-12	NaN
437	1.000000	0.338312	7.36933e+06	-55239.1	1005.82	-29742.1	0.000000	0.000000	6.338895	0.024180	NaN	0.000000	0.001587	0.001751	28.0811	0.117029	0.002102	55.6744	64.6069	-165.964	0.021221	0.337011	-0.734297	-0.735598	0.024180	55.6744	-0.734623	-5.805034E+9	-4.165395E-12	NaN
437	1.000000	0.346318	7.36933e+06	-55239.1	1005.82	-29742.1	0.000000	0.000000	6.346900	-0.013847	NaN	0.000000	0.001587	0.001770	28.0812	0.092198	0.001939	47.5594	-77.1477	-165.382	-0.027214	0.344936	-0.726290	-0.727672	-0.013847	47.5594	-0.726072	-4.438811E+9	3.119537E-12	NaN
437	1.000000	0.354267	7.36933e+06	-55239.1	1005.82	-29742.1	0.000000	0.000000	6.354849	-0.010432	NaN	0.000000	0.001605	0.001714	28.0808	0.089610	0.002050	43.7204	-123.859	-163.644	-0.090587	0.352982	-0.718342	-0.719626	-0.010432	43.7204	-0.718163	-3.462702E+9	3.012739E-12	NaN
437	1.000000	0.362289	7.36933e+06	-55239.1	1005.82	-29742.1	0.000000	0.000000	6.362872	0.022648	NaN	0.000000	0.001604	0.001716	28.0811	0.116693	0.001960	59.5407	96.6279	-166.39	-0.015266	0.361015	-0.710320	-0.711594	0.022648	59.5407	-0.710605	-2.730886E+9	-8.293126E-12	NaN
437	1.000000	0.370287	7.36933e+06	-55239.1	1005.82	-29742.1	0.000000	0.000000	6.370871	0.053069	NaN	0.000000	0.001608	0.001737	28.081	0.045941	0.001964	23.3879	-129.127	-164.628	0.110993	0.369027	-0.702322	-0.703582	0.053069	23.3879	-0.704024	-2.220630E+9	-2.389809E-11	NaN
437	1.000000	0.378290	7.36933e+06	-55239.1	1005.82	-29742.1	0.000000	0.000000	6.378875	0.072680	NaN	0.000000	0.001600	0.001722	28.0809	0.052213	0.001877	27.8246	38.0226	-170.892	0.050866	0.377037	-0.694319	-0.695572	0.072680	27.8246	-0.696278	-1.740578E+9	-4.175624E-11	NaN
437	1.000000	0.386347	7.36933e+06	-55239.1	1005.82	-29742.1	0.000000	0.000000	6.386930	0.010225	NaN	0.000000	0.001606	0.001745	28.081	0.063126	0.002059	30.66	128.864	-164.053	-0.012880	0.384971	-0.686261	-0.687638	0.010225	30.66	-0.686511	-1.280074E+9	-7.987570E-12	NaN
437	1.000000	0.394303	7.36933e+06	-55239.1	1005.82	-29742.1	0.000000	0.000000	6.394888	0.052028	NaN	0.000000	0.001589	0.001742	28.081	0.063894	0.001958	32.637	47.6898	-167.671	-0.001102	0.392961	-0.678306	-0.679648	0.052028	32.637	-0.679501	-1.026561E+9	-5.068218E-11	NaN
437	1.000000	0.402329	7.36933e+06	-55239.1	1005.82	-29742.1	0.000000	0.000000	6.402912	0.012272	NaN	0.000000	0.001560	0.001730	28.0811	0.046857	0.002124	22.0638	-129.63	-161.114	0.095701	0.400996	-0.670280	-0.671613	0.012272	22.0638	-0.670697	-7.779076E+8	-1.577512E-11	NaN
437	1.000000	0.410313	7.36933e+06	-55239.1	1005.82	-29742.1	0.000000	0.000000	6.410896	0.012336	NaN	0.000000	0.001584	0.001741	28.081	0.041187	0.002044	20.1458	90.9774	-166.052	-0.063504	0.408979	-0.662295	-0.663630	0.012336	20.1458	-0.662755	-6.056131E+8	-2.036890E-11	NaN
437	1.000000	0.418295	7.36933e+06	-55239.1	1005.82	-29742.1	0.000000	0.000000	6.418882	0.099282	NaN	0.000000	0.001586	0.001740	28.0801	0.018239	0.002021	9.026479	58.4783	-163.824	0.132463	0.417008	-0.654313	-0.655601	0.099282	9.026479	-0.662562	-6.019565E+8	-1.649330E-10	NaN
437	1.000000	0.426321	7.36933e+06	-55239.1	1005.82	-29742.1	0.000000	0.000000	6.426903	-0.008276	NaN	0.000000	0.001581	0.001727	28.08	0.065545	0.002138	30.6559	108.388	-165.428	0.089306	0.425041	-0.646288	-0.647568	-0.008276	30.6559	-0.646085	-3.579016E+8	2.312377E-11	NaN
437	1.000000	0.434304	7.36933e+06	-55239.1	1005.82	-29742.1	0.000000	0.000000	6.434889	0.075103	NaN	0.000000	0.001584	0.001714	28.0798	0.101796	0.001966	51.7814	-71.8482	-162.265	0.019304	0.433070	-0.638305	-0.639538	0.075103	51.7814	-0.639393	-2.897072E+8	-2.592362E-10	NaN
437	1.000000	0.442316	7.36933e+06	-55239.1	1005.82	-29742.1	0.000000	0.000000	6.442899	0.002717	NaN	0.000000	0.001586	0.001683	28.08	0.061118	0.002049	29.826	86.6545	-163.17	0.026928	0.441007	-0.630292	-0.631602	0.002717	29.826	-0.630361	-2.177592E+8	-1.247628E-11	NaN
437	1.000000	0.450331	7.36933e+06	-55239.1	1005.82	-29742.1	0.000000	0.000000	6.450916	0.042747	NaN	0.000000	0.001616	0.001766	28.0799	0.089954	0.002087	43.1053	-134.903	-165.98	0.040916	0.449027	-0.622277	-0.623582	0.042747	43.1053	-0.623021	-1.726445E+8	-2.476020E-10	NaN
437	1.000000	0.458311	7.36933e+06	-55239.1	1005.82	-29742.1	0.000000	0.000000	6.458896	0.069841	NaN	0.000000	0.001598	0.001739	28.0799	0.118093	0.002049	57.6412	-120.846	-164.564	0.051572	0.457019	-0.614298	-0.615590	0.069841	57.6412	-0.615207	-1.348130E+8	-5.180555E-10	NaN
437	1.000000	0.466341	7.36934e+06	-55239.1	1005.82	-29742.1	0.000000	0.000000	6.466924	0.010887	NaN	0.000000	0.001591	0.001746	28.08	0.100002	0.001944	51.4459	176.869	-163.797	0.006588	0.465028	-0.606268	-0.607580	0.010887	51.4459	-0.606426	-1.020790E+8	-1.066492E-10	NaN
437	1.000000	0.474331	7.36934e+06	-55239.1	1005.82	-29742.1	0.000000	0.000000	6.474914	0.010913	NaN	0.000000	0.001593	0.001704	28.0798	0.086284	0.002060	41.8813	47.7757	-167.172	0.031473	0.473029	-0.598278	-0.599580	0.010913	41.8813	-0.598473	-7.932942E+7	-1.375703E-10	NaN
437	1.000000	0.482355	7.36934e+06	-55239.1	1005.82	-29742.1	0.000000	0.000000	6.482938	0.032003	NaN	0.000000	0.001580	0.001755	28.0798	0.053396	0.001892	28.2188	166.636	-163.273	0.088033	0.481026	-0.590254	-0.591583	0.032003	28.2188	-0.591105	-6.279075E+7	-5.096845E-10	NaN
437	1.000000	0.490372	7.36934e+06	-55239.1	1005.82	-29742.1	0.000000	0.000000	6.490957	0.069843	NaN	0.000000	0.001605	0.001706	28.0797	0.047619	0.001910	24.9359	-177.76	-161.778	0.032635	0.489014	-0.582237	-0.583595	0.069843	24.9359	-0.584338	-5.065006E+7	-1.378935E-9	NaN
437	1.000000	0.498364	7.36934e+06	-55239.1	1005.82	-29742.1	0.000000	0.000000	6.498945	-0.050493	NaN	0.000000	0.001598	0.001695	28.0799	0.045847	0.002018	22.7237	-108.018	-165.523	-0.065401	0.497038	-0.574244	-0.575571	-0.050493	22.7237	-0.572578	-3.485332E+7	1.448733E-9	NaN
437	1.000000	0.506349	7.36934e+06	-55239.1	1005.82	-29742.1	0.000000	0.000000	6.506935	0.096182	NaN	0.000000	0.001578	0.001705	28.0797	0.067062	0.001985	33.7834	-119.643	-167.493	0.054582	0.504991	-0.566260	-0.567618	0.096182	33.7834	-0.568395	-3.051122E+7	-3.152348E-9	NaN
437	1.000000	0.514340	7.36934e+06	-55239.1	1005.82	-29742.1	0.000000	0.000000	6.514921	-0.025898	NaN	0.000000	0.001585	0.001697	28.0798	0.054544	0.002127	25.6427	34.9432	-162.49	0.043395	0.513062	-0.558269	-0.559547	-0.025898	25.6427	-0.557512	-2.157494E+7	1.200381E-9	NaN
437	1.000000	0.522377	7.36934e+06	-55239.1	1005.82	-29742.1	0.000000	0.000000	6.522958	-0.019986	NaN	0.000000	0.001583	0.001748	28.0798	0.070922	0.001965	36.0942	76.9677	-166.007	0.000147	0.521026	-0.550232	-0.551582	-0.019986	36.0942	-0.549817	-1.688163E+7	1.183911E-9	NaN
437	1.000000	0.530374	7.36934e+06	-55239.1	1005.82	-29742.1	0.000000	0.000000	6.530956	-0.006059	NaN	0.000000	0.001618	0.001692	28.0798	0.006828	0.002019	3.381831	169.009	-165.45	-0.034380	0.529066	-0.542235	-0.543542	-0.006059	3.381831	-0.540891	-1.269729E+7	4.771984E-10	NaN
437	1.000000	0.538383	7.36934e+06	-55239.1	1005.82	-29742.1	0.000000	0.000000	6.538964	-0.032054	NaN	0.000000	0.001627	0.001730	28.0798	0.109690	0.002045	53.6433	-128.252	-166.172	-0.006268	0.537088	-0.534226	-0.535521	-0.032054	53.6433	-0.533777	-1.011628E+7	3.168568E-9	NaN
437	1.000000	0.546362	7.36934e+06	-55239.1	1005.82	-29742.1	0.000000	0.000000	6.546945	0.009831	NaN	0.000000	0.001599	0.001716	28.0797	0.100946	0.001965	51.3667	168.729	-167.174	-0.018319	0.545050	-0.526247	-0.527559	0.009831	51.3667	-0.526390	-7.98786e+06	-1.230709E-9	NaN
437	1.000000	0.554365	7.36934e+06	-55239.1	1005.82	-29742.1	0.000000	0.000000	6.554948	0.016869	NaN	0.000000	0.001611	0.001697	28.0808	0.068595	0.002063	33.2445	-110.241	-165.351	0.063886	0.553109	-0.518243	-0.519500	0.016869	33.2445	-0.518624	-6.22954e+06	-2.707876E-9	NaN
437	1.000000	0.562364	7.36934e+06	-55239.1	1005.82	-29742.1	0.000000	0.000000	6.562947	0.008624	NaN	0.000000	0.001624	0.001678	28.081	0.133709	0.001999	66.9042	-90.111	-164.294	0.045227	0.561050	-0.510244	-0.511559	0.008624	66.9042	-0.510341	-4.7771e+06	-1.805216E-9	NaN
437	1.000000	0.570368	7.36934e+06	-55239.1	1005.82	-29742.1	0.000000	0.000000	6.570954	0.088587	NaN	0.000000	0.001676	0.001653	28.0813	0.178581	0.002032	87.8809	-56.397	-165.632	0.104073	0.569080	-0.502240	-0.503528	0.088587	87.8809	-0.502997	-3.77409e+06	-2.347237E-8	NaN
437	1.000000	0.578382	7.36934e+06	-55239.1	1005.82	-29742.1	0.000000	0.000000	6.578966	0.026319	NaN	0.000000	0.001676	0.001704	28.0811	0.035487	0.002091	16.9684	-83.7428	-166.577	0.057456	0.577086	-0.494226	-0.495523	0.026319	16.9684	-0.495390	-2.9558e+06	-8.904179E-9	NaN
437	1.000000	0.586367	7.36934e+06	-55239.1	1005.82	-29742.1	0.000000	0.000000	6.586949	-0.007931	NaN	0.000000	0.001671	0.001717	28.0812	0.037246	0.002040	18.2581	-60.5957	-164.905	-0.016334	0.585074	-0.486241	-0.487535	-0.007931	18.2581	-0.485916	-2.17919e+06	3.639349E-9	NaN
437	1.000000	0.594388	7.36934e+06	-55239.1	1005.82	-29742.1	0.000000	0.000000	6.594972	0.029767	NaN	0.000000	0.001661	0.001713	28.0814	0.082350	0.001855	44.3909	96.2475	-163.492	-0.039288	0.593092	-0.478220	-0.479517	0.029767	44.3909	-0.478723	-1.72842e+06	-1.722217E-8	NaN
437	1.000000	0.602414	7.36934e+06	-55239.1	1005.82	-29742.1	0.000000	0.000000	6.602996	-0.027836	NaN	0.000000	0.001670	0.001684	28.0812	0.078206	0.002096	37.3158	-54.5073	-163.733	0.006545	0.601142	-0.470194	-0.471467	-0.027836	37.3158	-0.469635	-1.2891e+06	2.159371E-8	NaN
437	1.000000	0.610361	7.36934e+06	-55239.1	1005.82	-29742.1	0.000000	0.000000	6.610944	0.008524	NaN	0.000000	0.001649	0.001679	28.0815	0.109949	0.002010	54.7095	153.921	-161.483	0.020783	0.609061	-0.462247	-0.463547	0.008524	54.7095	-0.462364	-1.01914e+06	-8.363835E-9	NaN
437	1.000000	0.618408	7.36934e+06	-55239.1	1005.82	-29742.1	0.000000	0.000000	6.618989	-0.028172	NaN	0.000000	0.001677	0.001722	28.0813	0.025689	0.002017	12.7386	-93.6221	-169.075	-6.107208E-6	0.617166	-0.454201	-0.455442	-0.028172	12.7386	-0.452542	-741536	3.799131E-8	NaN
437	1.000000	0.626382	7.36934e+06	-55239.1	1005.82	-29742.1	0.000000	0.000000	6.626966	0.060206	NaN	0.000000	0.001674	0.001719	28.0812	0.076232	0.001925	39.603	50.4151	-163.798	-0.060000	0.625161	-0.446227	-0.447448	0.060206	39.603	-0.447367	-626984	-9.602487E-8	NaN
437	1.000000	0.634410	7.36934e+06	-55239.1	1005.82	-29742.1	0.000000	0.000000	6.634994	0.041234	NaN	0.000000	0.001610	0.001695	28.081	0.090976	0.001872	48.6056	-116.052	-164.509	0.075917	0.633098	-0.438199	-0.439511	0.041234	48.6056	-0.438835	-475243	-8.676486E-8	NaN
437	1.000000	0.642426	7.36934e+06	-55239.1	1005.82	-29742.1	0.000000	0.000000	6.643008	-0.004109	NaN	0.000000	0.001591	0.001726	28.0812	0.055242	0.001946	28.3925	-74.7839	-162.98	-0.022577	0.641161	-0.430183	-0.431447	-0.004109	28.3925	-0.430074	-357367	1.149840E-8	NaN
437	1.000000	0.650410	7.36934e+06	-55239.1	1005.82	-29742.1	0.000000	0.000000	6.650995	0.062349	NaN	0.000000	0.001620	0.001752	28.0813	0.061772	0.002133	28.9625	131.942	-165.804	0.005105	0.649117	-0.422198	-0.423492	0.062349	28.9625	-0.423813	-291385	-2.139758E-7	NaN
437	1.000000	0.658422	7.36934e+06	-55239.1	1005.82	-29742.1	0.000000	0.000000	6.659004	-0.020087	NaN	0.000000	0.001658	0.001699	28.0811	0.064283	0.002038	31.5424	-162.062	-163.597	-0.001663	0.657099	-0.414186	-0.415509	-0.020087	31.5424	-0.413709	-209466	9.589547E-8	NaN
437	1.000000	0.666392	7.36934e+06	-55239.1	1005.82	-29742.1	0.000000	0.000000	6.666972	-0.059602	NaN	0.000000	0.001625	0.001698	28.081	0.050621	0.001913	26.468	-118.863	-165.986	0.014092	0.665157	-0.406216	-0.407451	-0.059602	26.468	-0.404527	-155066	3.843621E-7	NaN
437	1.000000	0.674439	7.36934e+06	-55239.1	1005.82	-29742.1	0.000000	0.000000	6.675024	0.050165	NaN	0.000000	0.001643	0.001660	28.0813	0.019476	0.001986	9.808674	7.805521	-163.576	0.063212	0.673163	-0.398169	-0.399446	0.050165	9.808674	-0.402005	-142752	-3.514115E-7	NaN
437	1.000000	0.682409	7.36934e+06	-55239.1	1005.82	-29742.1	0.000000	0.000000	6.682989	-0.041589	NaN	0.000000	0.001682	0.001689	28.0814	0.106990	0.002027	52.7856	-158.783	-164.709	-0.054741	0.681111	-0.390200	-0.391498	-0.041589	52.7856	-0.389609	-94967.4	4.379278E-7	NaN
437	1.000000	0.690404	7.36934e+06	-55239.1	1005.82	-29742.1	0.000000	0.000000	6.690988	0.050741	NaN	0.000000	0.001655	0.001679	28.0809	0.050784	0.002022	25.1124	100.446	-166.702	0.097846	0.689128	-0.382205	-0.383481	0.050741	25.1124	-0.383721	-78207.9	-6.488011E-7	NaN
437	1.000000	0.698443	7.36934e+06	-55239.1	1005.82	-29742.1	0.000000	0.000000	6.699022	-0.075818	NaN	0.000000	0.001631	0.001696	28.0803	0.085272	0.001939	43.9849	-56.2322	-166.054	0.010248	0.697120	-0.374166	-0.375489	-0.075818	43.9849	-0.372873	-54636.1	1.387687E-6	NaN
437	1.000000	0.706442	7.36934e+06	-55239.1	1005.82	-29742.1	0.000000	0.000000	6.707026	0.032454	NaN	0.000000	0.001636	0.001723	28.0797	0.088548	0.001958	45.2292	-109.093	-166.724	0.029903	0.705166	-0.366166	-0.367443	0.032454	45.2292	-0.366704	-44528.6	-7.288367E-7	NaN
437	1.000000	0.714445	7.36934e+06	-55239.1	1005.82	-29742.1	0.000000	0.000000	6.715029	0.048176	NaN	0.000000	0.001642	0.001698	28.08	0.103604	0.002115	48.9764	141.469	-167.355	0.084793	0.713128	-0.358164	-0.359480	0.048176	48.9764	-0.358902	-34352.9	-1.402380E-6	NaN
437	1.000000	0.722480	7.36934e+06	-55239.1	1005.82	-29742.1	0.000000	0.000000	6.723063	0.017734	NaN	0.000000	0.001688	0.001681	28.0801	0.122210	0.001944	62.8803	167.2	-163.386	0.013797	0.721121	-0.350129	-0.351488	0.017734	62.8803	-0.350340	-25818.9	-6.868571E-7	NaN
437	1.000000	0.730457	7.36934e+06	-55239.1	1005.82	-29742.1	0.000000	0.000000	6.731041	0.030866	NaN	0.000000	0.001692	0.001701	28.0799	0.172026	0.001938	88.7707	-152.597	-167.426	-0.090330	0.729123	-0.342151	-0.343486	0.030866	88.7707	-0.342412	-19801.3	-1.558791E-6	NaN
437	1.000000	0.738444	7.36934e+06	-55239.1	1005.82	-29742.1	0.000000	0.000000	6.739024	-0.048742	NaN	0.000000	0.001671	0.001685	28.08	0.090121	0.002001	45.0374	-161.384	-163.601	0.016196	0.737125	-0.334165	-0.335483	-0.048742	45.0374	-0.333353	-14605.7	3.337194E-6	NaN
437	1.000000	0.746426	7.36934e+06	-55239.1	1005.82	-29742.1	0.000000	0.000000	6.747008	-0.019079	NaN	0.000000	0.001577	0.001712	28.0799	0.077272	0.002015	38.3557	134.049	-164.671	-0.109246	0.745173	-0.326182	-0.327435	-0.019079	38.3557	-0.325809	-11324.4	1.684773E-6	NaN
437	1.000000	0.754475	7.36934e+06	-55239.1	1005.82	-29742.1	0.000000	0.000000	6.755054	-0.099338	NaN	0.000000	0.001600	0.001721	28.0801	0.013320	0.001991	6.690253	98.9608	-165.343	-0.106793	0.753165	-0.318133	-0.319444	-0.099338	6.690253	-0.306997	-5978.31	1.661632E-5	NaN
437	1.000000	0.762466	7.36934e+06	-55239.1	1005.82	-29742.1	0.000000	0.000000	6.763048	-0.011192	NaN	0.000000	0.001638	0.001741	28.0801	0.051954	0.001959	26.5252	-137.686	-164.895	-0.023049	0.761212	-0.310143	-0.311397	-0.011192	26.5252	-0.309827	-6584	1.699802E-6	NaN
437	1.000000	0.770475	7.36934e+06	-55239.1	1005.82	-29742.1	0.000000	0.000000	6.771056	-0.046654	NaN	0.000000	0.001609	0.001687	28.0801	0.121230	0.002050	59.1406	158.811	-165.745	-0.056429	0.769123	-0.302133	-0.303486	-0.046654	59.1406	-0.301542	-4961.08	9.404106E-6	NaN
437	1.000000	0.778471	7.36934e+06	-55239.1	1005.82	-29742.1	0.000000	0.000000	6.779052	-0.035141	NaN	0.000000	0.001608	0.001763	28.0801	0.029993	0.001967	15.2508	153.309	-161.47	-0.010090	0.777147	-0.294138	-0.295461	-0.035141	15.2508	-0.292410	-3625.54	9.692572E-6	NaN
437	1.000000	0.786488	7.36934e+06	-55239.1	1005.82	-29742.1	0.000000	0.000000	6.787070	-0.022628	NaN	0.000000	0.001641	0.001671	28.0798	0.070089	0.001957	35.8162	-69.3589	-165.625	-0.020414	0.785119	-0.286120	-0.287489	-0.022628	35.8162	-0.285647	-2870.68	7.882565E-6	NaN
437	1.000000	0.794469	7.36934e+06	-55239.1	1005.82	-29742.1	0.000000	0.000000	6.795053	0.037564	NaN	0.000000	0.001647	0.001709	28.08	0.108242	0.001920	56.374	86.0748	-164.597	-0.006134	0.793171	-0.278140	-0.279437	0.037564	56.374	-0.278639	-2251.3	-1.668569E-5	NaN
437	1.000000	0.802461	7.36934e+06	-55239.1	1005.82	-29742.1	0.000000	0.000000	6.803042	-0.019012	NaN	0.000000	0.001622	0.001671	28.0798	0.067627	0.002091	32.3373	42.0616	-169.274	-0.005945	0.801143	-0.270148	-0.271466	-0.019012	32.3373	-0.269707	-1648.52	1.153285E-5	NaN
437	1.000000	0.810510	7.36934e+06	-55239.1	1005.82	-29742.1	0.000000	0.000000	6.811093	0.018890	NaN	0.000000	0.001629	0.001723	28.08	0.052942	0.001903	27.8136	166.782	-167.013	0.041431	0.809187	-0.262099	-0.263421	0.018890	27.8136	-0.262608	-1284.84	-1.470206E-5	NaN
437	1.000000	0.818496	7.36934e+06	-55239.1	1005.82	-29742.1	0.000000	0.000000	6.819076	-0.045311	NaN	0.000000	0.001631	0.001718	28.08	0.065946	0.002046	32.2341	-46.5015	-165.397	-0.087467	0.817199	-0.254113	-0.255410	-0.045311	32.2341	-0.253059	-916.645	4.943123E-5	NaN
437	1.000000	0.826496	7.36934e+06	-55239.1	1005.82	-29742.1	0.000000	0.000000	6.827081	0.062137	NaN	0.000000	0.001636	0.001721	28.08	0.064516	0.001982	32.5476	43.9341	-166.916	0.054805	0.825163	-0.246113	-0.247446	0.062137	32.5476	-0.247545	-753.273	-8.248989E-5	NaN
437	1.000000	0.834478	7.36934e+06	-55239.1	1005.82	-29742.1	0.000000	0.000000	6.835063	0.055436	NaN	0.000000	0.001609	0.001695	28.0813	0.080721	0.001891	42.6858	59.6757	-166.303	0.026997	0.833216	-0.238130	-0.239392	0.055436	42.6858	-0.239104	-556.615	-9.959400E-5	NaN
437	1.000000	0.842494	7.36934e+06	-55239.1	1005.82	-29742.1	0.000000	0.000000	6.843076	-0.000691	NaN	0.000000	0.001609	0.001706	28.0812	0.062582	0.002015	31.0597	-139.886	-164.403	-0.067291	0.841219	-0.230115	-0.231389	-0.000691	31.0597	-0.230098	-401.851	1.719528E-6	NaN
437	1.000000	0.850533	7.36934e+06	-55239.1	1005.82	-29742.1	0.000000	0.000000	6.851116	0.009574	NaN	0.000000	0.001626	0.001740	28.0812	0.073137	0.002180	33.5416	109.02	-168.268	-0.064146	0.849200	-0.222076	-0.223409	0.009574	33.5416	-0.222290	-302.147	-3.168737E-5	NaN
437	1.000000	0.858503	7.36934e+06	-55239.1	1005.82	-29742.1	0.000000	0.000000	6.859086	0.017835	NaN	0.000000	0.001659	0.001718	28.081	0.042695	0.002001	21.3348	104.504	-167.884	0.011556	0.857217	-0.214106	-0.215392	0.017835	21.3348	-0.214733	-228.672	-7.799257E-5	NaN
437	1.000000	0.866534	7.36934e+06	-55239.1	1005.82	-29742.1	0.000000	0.000000	6.867121	0.107172	NaN	0.000000	0.001664	0.001724	28.081	0.103455	0.002012	51.4291	113.247	-162.827	0.005258	0.865189	-0.206074	-0.207420	0.107172	51.4291	-0.207637	-175.587	-0.000610	NaN
437	1.000000	0.874517	7.36934e+06	-55239.1	1005.82	-29742.1	0.000000	0.000000	6.875099	-0.011011	NaN	0.000000	0.001654	0.001706	28.081	0.062070	0.001903	32.6145	42.0393	-164.72	-0.063390	0.873216	-0.198091	-0.199392	-0.011011	32.6145	-0.197838	-121.37	9.072404E-5	NaN
437	1.000000	0.882520	7.36934e+06	-55239.1	1005.82	-29742.1	0.000000	0.000000	6.883103	0.013016	NaN	0.000000	0.001661	0.001708	28.081	0.056358	0.001989	28.3346	143.92	-166.5	-0.053893	0.881197	-0.190089	-0.191412	0.013016	28.3346	-0.190433	-91.4671	-0.000142	NaN
437	1.000000	0.890527	7.36934e+06	-55239.1	1005.82	-29742.1	0.000000	0.000000	6.891110	0.024443	NaN	0.000000	0.001690	0.001702	28.0808	0.054491	0.001965	27.7318	-74.7599	-166.512	0.015209	0.889231	-0.182082	-0.183378	0.024443	27.7318	-0.182743	-67.9221	-0.000360	NaN
437	1.000000	0.898516	7.36934e+06	-55239.1	1005.82	-29742.1	0.000000	0.000000	6.899099	0.019873	NaN	0.000000	0.001739	0.001706	28.0809	0.034929	0.001960	17.8215	-48.4038	-165.06	-0.014657	0.897218	-0.174092	-0.175390	0.019873	17.8215	-0.174929	-49.9753	-0.000398	NaN
437	1.000000	0.906515	7.36934e+06	-55239.1	1005.82	-29742.1	0.000000	0.000000	6.907098	0.017461	NaN	0.000000	0.001711	0.001706	28.0809	0.117636	0.002096	56.1343	49.0253	-164.682	-0.003069	0.905197	-0.166094	-0.167412	0.017461	56.1343	-0.166327	-35.4468	-0.000493	NaN
437	1.000000	0.914525	7.36934e+06	-55239.1	1005.82	-29742.1	0.000000	0.000000	6.915107	-0.015359	NaN	0.000000	0.001711	0.001656	28.0812	0.036518	0.002056	17.7655	-71.3802	-166.211	-0.016345	0.913221	-0.158084	-0.159388	-0.015359	17.7655	-0.157435	-24.6756	0.000622	NaN
437	1.000000	0.922519	7.36934e+06	-55239.1	1005.82	-29742.1	0.000000	0.000000	6.923101	0.006860	NaN	0.000000	0.001748	0.001686	28.081	0.050955	0.001986	25.6567	52.7275	-168.146	0.011159	0.921160	-0.150090	-0.151449	0.006860	25.6567	-0.150290	-18.3358	-0.000374	NaN
437	1.000000	0.930547	7.36934e+06	-55239.1	1005.82	-29742.1	0.000000	0.000000	6.931131	0.030933	NaN	0.000000	0.001731	0.001708	28.081	0.045407	0.002065	21.9849	-150.811	-166.466	0.051253	0.929229	-0.142061	-0.143380	0.030933	21.9849	-0.143117	-13.5279	-0.002287	NaN
437	1.000000	0.938536	7.36934e+06	-55239.1	1005.82	-29742.1	0.000000	0.000000	6.939121	0.069381	NaN	0.000000	0.001703	0.001700	28.0809	0.116373	0.002045	56.9018	-166.988	-165.65	0.069092	0.937202	-0.134073	-0.135406	0.069381	56.9018	-0.134987	-9.507114	-0.007298	NaN
437	1.000000	0.946493	7.36934e+06	-55239.1	1005.82	-29742.1	0.000000	0.000000	6.947076	0.003158	NaN	0.000000	0.001668	0.001697	28.0812	0.130405	0.001860	70.128	140.529	-167.65	-0.009810	0.945212	-0.126115	-0.127397	0.003158	70.128	-0.126149	-6.407371	-0.000493	NaN
437	1.000000	0.954543	7.36934e+06	-55239.1	1005.82	-29742.1	0.000000	0.000000	6.955125	-0.013033	NaN	0.000000	0.001629	0.001700	28.081	0.022446	0.001894	11.851	-112.455	-162.442	-0.006434	0.953249	-0.118066	-0.119360	-0.013033	11.851	-0.117241	-4.246972	0.003069	NaN
437	1.000000	0.962552	7.36934e+06	-55239.1	1005.82	-29742.1	0.000000	0.000000	6.963135	0.026811	NaN	0.000000	0.001655	0.001686	28.081	0.077748	0.002009	38.7006	128.8	-162.351	-0.039234	0.961240	-0.110057	-0.111369	0.026811	38.7006	-0.110577	-3.090411	-0.008675	NaN
437	1.000000	0.970533	7.36934e+06	-55239.1	1005.82	-29742.1	0.000000	0.000000	6.971117	0.029124	NaN	0.000000	0.001610	0.001716	28.08	0.023562	0.001927	12.2297	175.274	-165.672	0.050621	0.969251	-0.102076	-0.103358	0.029124	12.2297	-0.103862	-2.220812	-0.013114	NaN
437	1.000000	0.978543	7.36934e+06	-55239.1	1005.82	-29742.1	0.000000	0.000000	6.979127	0.028599	NaN	0.000000	0.001639	0.001692	28.0796	0.090234	0.002001	45.0918	-117.066	-163.268	0.037524	0.977303	-0.094066	-0.095305	0.028599	45.0918	-0.094541	-1.377051	-0.020769	NaN
437	1.000000	0.986570	7.36934e+06	-55239.1	1005.82	-29742.1	0.000000	0.000000	6.987154	0.046441	NaN	0.000000	0.001657	0.001730	28.08	0.113087	0.001986	56.9501	104.322	-165.266	0.070940	0.985258	-0.086039	-0.087351	0.046441	56.9501	-0.086650	-0.900351	-0.051581	NaN
437	1.000000	0.994543	7.36934e+06	-55239.1	1005.82	-29742.1	0.000000	0.000000	6.995124	-0.026937	NaN	0.000000	0.001663	0.001672	28.0795	0.040961	0.002009	20.3906	23.9615	-163.06	-0.007000	0.993219	-0.078066	-0.079389	-0.026937	20.3906	-0.077075	-0.522180	0.051586	NaN
437	1.000000	1.002559	7.36934e+06	-55239.1	1005.82	-29742.1	0.000000	0.000000	7.003143	0.034163	NaN	0.000000	0.001647	0.001717	28.0797	0.056044	0.001892	29.6142	66.6156	-160.975	-0.034262	1.001228	-0.070049	-0.071380	0.034163	29.6142	-0.070915	-0.360840	-0.094675	NaN
437	1.000000	1.010582	7.36934e+06	-55239.1	1005.82	-29742.1	0.000000	0.000000	7.011164	-0.010520	NaN	0.000000	0.001637	0.001718	28.0797	0.060884	0.001899	32.0668	19.5414	-168.369	0.009967	1.009269	-0.062027	-0.063340	-0.010520	32.0668	-0.061781	-0.202438	0.051964	NaN
437	1.000000	1.018580	7.36934e+06	-55239.1	1005.82	-29742.1	0.000000	0.000000	7.019161	-0.033278	NaN	0.000000	0.001666	0.001724	28.0795	0.064890	0.001935	33.5351	21.9164	-166.266	0.050207	1.017209	-0.054028	-0.055400	-0.033278	33.5351	-0.053284	-0.114524	0.290575	NaN
437	1.000000	1.026566	7.36934e+06	-55239.1	1005.82	-29742.1	0.000000	0.000000	7.027148	-0.016963	NaN	0.000000	0.001653	0.001739	28.0799	0.031904	0.002048	15.5759	76.8545	-165.558	-0.044411	1.025295	-0.046043	-0.047314	-0.016963	15.5759	-0.045226	-0.065298	0.259772	NaN
437	1.000000	1.034603	7.36934e+06	-55239.1	1005.82	-29742.1	0.000000	0.000000	7.035186	0.023623	NaN	0.000000	0.001622	0.001737	28.0801	0.018893	0.002080	9.083654	146.15	-163.161	-0.075434	1.033286	-0.038006	-0.039323	0.023623	9.083654	-0.039956	-0.045083	-0.523991	NaN
437	1.000000	1.042559	7.36934e+06	-55239.1	1005.82	-29742.1	0.000000	0.000000	7.043147	0.129488	NaN	0.000000	0.001633	0.001763	28.0798	0.022109	0.001989	11.115	4.028162	-164.622	0.004313	1.041281	-0.030049	-0.031328	0.129488	11.115	-0.038787	-0.041552	-3.116290	NaN
437	1.000000	1.050581	7.36934e+06	-55239.1	1005.82	-29742.1	0.000000	0.000000	7.051162	-0.038067	NaN	0.000000	0.001615	0.001709	28.08	0.031263	0.002059	15.1802	-146.375	-165.742	-0.020958	1.049250	-0.022028	-0.023358	-0.038067	15.1802	-0.020147	-0.012670	3.004583	NaN
437	1.000000	1.058590	7.36934e+06	-55239.1	1005.82	-29742.1	0.000000	0.000000	7.059172	0.006251	NaN	0.000000	0.001679	0.001698	28.0796	0.019506	0.002089	9.336126	-61.339	-163.93	0.003185	1.057283	-0.014019	-0.015325	0.006251	9.336126	-0.014521	-0.008990	-0.695328	NaN
437	1.000000	1.066621	7.36934e+06	-55239.1	1005.82	-29742.1	0.000000	0.000000	7.067206	0.063282	NaN	0.000000	0.001682	0.001688	28.0798	0.157392	0.001836	85.7242	21.4184	-165.118	-0.015566	1.065221	-0.005987	-0.007388	0.063282	85.7242	-0.006541	-0.004365	-14.4982	NaN
437	1.000000	1.074605	7.36934e+06	-55239.1	1005.82	-29742.1	0.000000	0.000000	7.075228	0.982152	NaN	0.000000	0.001715	0.001673	28.0795	1.612508	0.001884	856.075	4.157143	-161.651	0.323725	1.073280	0.001996	0.000672	0.982152	856.075	0.001136	0.000868	1131.77	26550.6
437	2.000000	1.082001	7.36934e+06	-55239.1	1005.82	-29742.1	0.000000	0.000000	7.082956	9.064037	NaN	0.000000	0.001686	0.001757	28.0797	9.368811	0.001728	5420.97	8.695734	-168.82	8.734455	1.081193	0.009392	0.008585	9.064037	5420.97	0.008138	0.007185	1261.52	58430.1
437	2.000000	1.084141	7.36934e+06	-55239.1	1005.82	-29742.1	0.000000	0.000000	7.085167	10.7643	NaN	0.000000	0.001729	0.001731	28.0796	10.985	0.001447	7593.14	5.920547	-172.301	10.6068	1.083850	0.011533	0.011242	10.7643	7593.14	0.010469	0.009708	1108.82	70409.6
437	2.000000	1.086112	7.36934e+06	-55239.1	1005.82	-29742.1	0.000000	0.000000	7.087273	14.0625	NaN	0.000000	0.001728	0.001711	28.0798	14.2278	0.001667	8534.31	2.361097	-169.176	13.8596	1.085786	0.013504	0.013177	14.0625	8534.31	0.012268	0.011812	1190.49	71741.9
437	2.000000	1.088119	7.36934e+06	-55239.1	1005.82	-29742.1	0.000000	0.000000	7.089442	18.0009	NaN	0.000000	0.001675	0.001701	28.0813	17.1019	0.001737	9843.3	7.534668	-176.723	16.2942	1.087767	0.015510	0.015159	18.0009	9843.3	0.014139	0.014154	1271.81	75592.2
437	2.000000	1.090106	7.36934e+06	-55239.1	1005.82	-29742.1	0.000000	0.000000	7.091498	19.6877	NaN	0.000000	0.001623	0.001706	28.081	19.3712	0.001905	10170.9	10.9105	-178.237	20.2912	1.089774	0.017497	0.017166	19.6877	10170.9	0.016045	0.016705	1178.57	71897.1
437	2.000000	1.092031	7.36934e+06	-55239.1	1005.82	-29742.1	0.000000	0.000000	7.093651	25.2442	NaN	0.000000	0.001615	0.001719	28.0818	21.4505	0.001865	11498.8	5.258410	-174.53	24.2973	1.091714	0.019422	0.019105	25.2442	11498.8	0.017775	0.019166	1317.11	75884.9
437	2.000000	1.094065	7.36934e+06	-55239.1	1005.82	-29742.1	0.000000	0.000000	7.095932	31.2348	NaN	0.000000	0.001647	0.001724	28.081	22.7656	0.001668	13644.5	8.096854	-178.306	32.0219	1.093750	0.021456	0.021141	31.2348	13644.5	0.019740	0.022135	1411.12	83790.2
437	2.000000	1.096032	7.36934e+06	-55239.1	1005.82	-29742.1	0.000000	0.000000	7.098130	36.8523	NaN	0.000000	0.001624	0.001737	28.0809	26.146	0.001929	13553.8	12.2598	177.358	36.0736	1.095771	0.023423	0.023163	36.8523	13553.8	0.021384	0.024764	1488.15	78690.9
437	2.000000	1.098031	7.36934e+06	-55239.1	1005.82	-29742.1	0.000000	0.000000	7.100351	42.2376	NaN	0.000000	0.001611	0.001735	28.0811	28.1599	0.001844	15273.1	7.797126	-179.584	40.0914	1.097698	0.025423	0.025089	42.2376	15273.1	0.023349	0.028080	1504.2	83273
437	2.000000	1.100041	7.36934e+06	-55239.1	1005.82	-29742.1	0.000000	0.000000	7.102539	46.5716	NaN	0.000000	0.001584	0.001740	28.0809	29.6702	0.001661	17864.8	9.146591	176.251	47.0969	1.099765	0.027433	0.027156	46.5716	17864.8	0.025477	0.031890	1460.39	91399.6
437	2.000000	1.102038	7.36934e+06	-55239.1	1005.82	-29742.1	0.000000	0.000000	7.104918	55.8592	NaN	0.000000	0.001610	0.001707	28.0823	31.6211	0.001843	17154.9	-0.925533	-171.978	56.7605	1.101740	0.029430	0.029131	55.8592	17154.9	0.026987	0.034731	1608.35	84101.7
437	2.000000	1.104021	7.36934e+06	-55239.1	1005.82	-29742.1	0.000000	0.000000	7.107366	67.1597	NaN	0.000000	0.001591	0.001696	28.081	32.8784	0.001616	20350.7	3.059893	-178.074	66.0243	1.103641	0.031412	0.031033	67.1597	20350.7	0.028937	0.038569	1741.27	94674.1
437	2.000000	1.106003	7.36934e+06	-55239.1	1005.82	-29742.1	0.000000	0.000000	7.109668	74.9482	NaN	0.000000	0.001626	0.001695	28.081	36.0645	0.001749	20614.4	3.450932	-178.961	72.4165	1.105627	0.033394	0.033018	74.9482	20614.4	0.030667	0.042138	1778.64	91750.4
437	2.000000	1.108039	7.36934e+06	-55239.1	1005.82	-29742.1	0.000000	0.000000	7.112152	85.8306	NaN	0.000000	0.001607	0.001747	28.081	38.5113	0.001804	21350.1	4.012498	-178.801	85.6698	1.107716	0.035430	0.035107	85.8306	21350.1	0.032415	0.045898	1870.04	91049.8
437	2.000000	1.110006	7.36934e+06	-55239.1	1005.82	-29742.1	0.000000	0.000000	7.114341	91.2447	NaN	0.000000	0.001618	0.001719	28.0811	39.3252	0.001681	23394.8	0.412206	-176.181	89.9436	1.109644	0.037397	0.037035	91.2447	23394.8	0.034472	0.050523	1806	95092.9
437	2.000000	1.111972	7.36934e+06	-55239.1	1005.82	-29742.1	0.000000	0.000000	7.116600	98.3495	NaN	0.000000	0.001641	0.001696	28.0825	42.1846	0.001726	24443.3	0.069292	-177.09	96.4337	1.111718	0.039363	0.039109	98.3495	24443.3	0.036346	0.054926	1790.59	95289.5
437	2.000000	1.113970	7.36934e+06	-55239.1	1005.82	-29742.1	0.000000	0.000000	7.119128	111.239	NaN	0.000000	0.001640	0.001689	28.081	43.1038	0.001654	26059.3	2.674299	179.872	107.891	1.113607	0.041361	0.040999	111.239	26059.3	0.038160	0.059359	1874.01	97722.2
437	2.000000	1.115974	7.36934e+06	-55239.1	1005.82	-29742.1	0.000000	0.000000	7.121454	119.054	NaN	0.000000	0.001634	0.001720	28.081	46.7572	0.001812	25810.8	7.627279	174.796	115.672	1.115592	0.043366	0.042983	119.054	25810.8	0.039906	0.063786	1866.45	93370.6
437	2.000000	1.118010	7.36934e+06	-55239.1	1005.82	-29742.1	0.000000	0.000000	7.123787	126.282	NaN	0.000000	0.001595	0.001705	28.0809	48.0251	0.001852	25929.5	3.186902	179.623	124.14	1.117645	0.045402	0.045037	126.282	25929.5	0.041749	0.068626	1840.15	90432.1
437	2.000000	1.119987	7.36934e+06	-55239.1	1005.82	-29742.1	0.000000	0.000000	7.126279	138.808	NaN	0.000000	0.001611	0.001696	28.0809	49.7149	0.001840	27013.6	3.692726	178.958	137.847	1.119665	0.047378	0.047056	138.808	27013.6	0.043524	0.073453	1889.75	91064.6
437	2.000000	1.121999	7.36934e+06	-55239.1	1005.82	-29742.1	0.000000	0.000000	7.128557	145.264	NaN	0.000000	0.001623	0.001742	28.0807	52.0145	0.001806	28801.3	5.699508	175.451	145.309	1.121733	0.049390	0.049125	145.264	28801.3	0.045608	0.079322	1831.33	93430.4
437	2.000000	1.123953	7.36934e+06	-55239.1	1005.82	-29742.1	0.000000	0.000000	7.131277	163.887	NaN	0.000000	0.001638	0.001739	28.0797	52.1872	0.001758	29688.8	1.981777	179.641	160.535	1.123562	0.051344	0.050953	163.887	29688.8	0.047204	0.083968	1951.79	93607.3
437	2.000000	1.125942	7.36934e+06	-55239.1	1005.82	-29742.1	0.000000	0.000000	7.133434	167.965	NaN	0.000000	0.001600	0.001717	28.0796	55.7381	0.001953	28538.5	5.638233	176.538	166.056	1.125634	0.053334	0.053025	167.965	28538.5	0.048919	0.089102	1885.08	87349.5
437	2.000000	1.127963	7.36934e+06	-55239.1	1005.82	-29742.1	0.000000	0.000000	7.135787	176.041	NaN	0.000000	0.001659	0.001711	28.0796	56.7335	0.001735	32705.2	8.320863	173.015	173.887	1.127632	0.055354	0.055023	176.041	32705.2	0.051317	0.096527	1823.74	96175.6
437	2.000000	1.129970	7.36934e+06	-55239.1	1005.82	-29742.1	0.000000	0.000000	7.138369	189.996	NaN	0.000000	0.001632	0.001690	28.0798	57.4972	0.001721	33402.4	5.025701	175.809	188.658	1.129631	0.057362	0.057022	189.996	33402.4	0.053096	0.102221	1858.67	95450.8
437	2.000000	1.132002	7.36934e+06	-55239.1	1005.82	-29742.1	0.000000	0.000000	7.140710	197.524	NaN	0.000000	0.001647	0.001701	28.0799	61.033	0.001869	32654.8	7.760684	172.453	197.45	1.131642	0.059393	0.059034	197.524	32654.8	0.054857	0.108013	1828.7	90778.2
437	2.000000	1.134052	7.36934e+06	-55239.1	1005.82	-29742.1	0.000000	0.000000	7.143289	210.392	NaN	0.000000	0.001621	0.001722	28.0797	61.9174	0.001819	34039.1	7.746079	172.309	213.055	1.133694	0.061443	0.061085	210.392	34039.1	0.056807	0.114610	1835.73	91863
437	2.000000	1.135978	7.36934e+06	-55239.1	1005.82	-29742.1	0.000000	0.000000	7.145322	212.986	NaN	0.000000	0.001638	0.001718	28.0799	64.0706	0.001821	35188.8	3.114495	176.746	212.469	1.135742	0.063369	0.063133	212.986	35188.8	0.058830	0.121646	1750.87	92178.3
437	2.000000	1.137915	7.36934e+06	-55239.1	1005.82	-29742.1	0.000000	0.000000	7.148023	231.552	NaN	0.000000	0.001646	0.001687	28.08	64.7148	0.001709	37859.1	2.591840	177.304	225.33	1.137595	0.065306	0.064986	231.552	37859.1	0.060719	0.128399	1803.37	96530
437	2.000000	1.139933	7.36934e+06	-55239.1	1005.82	-29742.1	0.000000	0.000000	7.150521	243.224	NaN	0.000000	0.001645	0.001710	28.0799	66.9195	0.001766	37895.5	4.466882	175.187	239.771	1.139561	0.067324	0.066952	243.224	37895.5	0.062510	0.134964	1802.14	94243.6
437	2.000000	1.141957	7.36934e+06	-55239.1	1005.82	-29742.1	0.000000	0.000000	7.153108	256.914	NaN	0.000000	0.001653	0.001677	28.0797	69.899	0.001813	38558	6.141363	172.832	253.768	1.141621	0.069348	0.069013	256.914	38558	0.064351	0.141870	1810.91	93528
437	2.000000	1.144007	7.36934e+06	-55239.1	1005.82	-29742.1	0.000000	0.000000	7.155484	264.839	NaN	0.000000	0.001655	0.001715	28.0796	70.105	0.001834	38220.8	2.764869	176.857	266.131	1.143654	0.071399	0.071045	264.839	38220.8	0.066202	0.148982	1777.66	90470.3
437	2.000000	1.145915	7.36934e+06	-55239.1	1005.82	-29742.1	0.000000	0.000000	7.157778	274.221	NaN	0.000000	0.001643	0.001668	28.0799	73.6405	0.001911	38539.3	7.518081	171.587	270.359	1.145637	0.073306	0.073028	274.221	38539.3	0.067970	0.155927	1758.65	89169.6
437	2.000000	1.147924	7.36934e+06	-55239.1	1005.82	-29742.1	0.000000	0.000000	7.160421	289.625	NaN	0.000000	0.001647	0.001708	28.0793	73.5137	0.001787	41147.2	4.558399	175.306	286.565	1.147479	0.075316	0.074870	289.625	41147.2	0.070037	0.164237	1763.46	92763.7
437	2.000000	1.149982	7.36934e+06	-55239.1	1005.82	-29742.1	0.000000	0.000000	7.162757	296.41	NaN	0.000000	0.001674	0.001726	28.0794	74.2613	0.001711	43395.1	2.253701	175.982	295.953	1.149642	0.077373	0.077033	296.41	43395.1	0.072250	0.173361	1709.79	95222.2
437	2.000000	1.151883	7.36934e+06	-55239.1	1005.82	-29742.1	0.000000	0.000000	7.165321	312.505	NaN	0.000000	0.001643	0.001664	28.0793	77.479	0.001831	42322.4	5.099038	173.812	307.885	1.151639	0.079274	0.079030	312.505	42322.4	0.073736	0.179617	1739.84	91236.7
437	2.000000	1.154002	7.36934e+06	-55239.1	1005.82	-29742.1	0.000000	0.000000	7.167760	320.283	NaN	0.000000	0.001660	0.001700	28.0795	77.5364	0.001661	46683.7	2.758613	175.081	320.526	1.153742	0.081393	0.081133	320.283	46683.7	0.076248	0.190428	1681.91	97740.2
437	2.000000	1.156001	7.36934e+06	-55239.1	1005.82	-29742.1	0.000000	0.000000	7.170554	339.623	NaN	0.000000	0.001637	0.001730	28.081	80.9454	0.001832	44177.7	3.871309	174.698	338.959	1.155646	0.083392	0.083037	339.623	44177.7	0.077627	0.196488	1728.47	91055.9
437	2.000000	1.157876	7.36934e+06	-55239.1	1005.82	-29742.1	0.000000	0.000000	7.173012	353.795	NaN	0.000000	0.001655	0.001688	28.0806	83.7655	0.001932	43360.4	7.252239	171.67	346.782	1.157492	0.085267	0.084884	353.795	43360.4	0.079147	0.203276	1740.47	87866.5
437	2.000000	1.159952	7.36934e+06	-55239.1	1005.82	-29742.1	0.000000	0.000000	7.175609	366.454	NaN	0.000000	0.001631	0.001707	28.081	83.3007	0.001659	50204.5	2.603129	174.591	365.147	1.159612	0.087343	0.087003	366.454	50204.5	0.081869	0.215691	1698.97	98764.1
437	2.000000	1.161870	7.36934e+06	-55239.1	1005.82	-29742.1	0.000000	0.000000	7.177967	377.154	NaN	0.000000	0.001634	0.001711	28.0806	86.7577	0.001826	47518.7	5.327855	172.365	373.231	1.161664	0.089261	0.089055	377.154	47518.7	0.083309	0.222399	1695.84	92060
437	2.000000	1.163928	7.36934e+06	-55239.1	1005.82	-29742.1	0.000000	0.000000	7.180927	399.085	NaN	0.000000	0.001627	0.001708	28.0807	87.9085	0.001843	47701.2	7.460769	170.49	398.912	1.163572	0.091319	0.090964	399.085	47701.2	0.085044	0.230612	1730.54	90753
437	2.000000	1.165967	7.36934e+06	-55239.1	1005.82	-29742.1	0.000000	0.000000	7.183628	415.154	NaN	0.000000	0.001640	0.001666	28.0808	89.8373	0.001709	52555.7	6.542028	170.341	416.857	1.165606	0.093359	0.092997	415.154	52555.7	0.087434	0.242150	1714.45	97577.7
437	2.000000	1.167769	7.36934e+06	-55239.1	1005.82	-29742.1	0.000000	0.000000	7.185733	422.531	NaN	0.000000	0.001636	0.001699	28.0806	92.4726	0.001831	50516.9	7.334045	170.077	411.94	1.167426	0.095160	0.094817	422.531	50516.9	0.088887	0.249293	1694.92	92439
437	2.000000	1.169914	7.36934e+06	-55239.1	1005.82	-29742.1	0.000000	0.000000	7.188687	442.189	NaN	0.000000	0.001665	0.001656	28.081	93.5671	0.001883	49685.4	4.996583	173.026	440.344	1.169636	0.097305	0.097028	442.189	49685.4	0.090630	0.257991	1713.97	89371.7
437	2.000000	1.171856	7.36934e+06	-55239.1	1005.82	-29742.1	0.000000	0.000000	7.191322	459.036	NaN	0.000000	0.001637	0.001708	28.0807	95.3983	0.001728	55201.8	5.850903	171.245	452.393	1.171474	0.099247	0.098865	459.036	55201.8	0.093011	0.270091	1699.56	97044.6
437	2.000000	1.173918	7.36934e+06	-55239.1	1005.82	-29742.1	0.000000	0.000000	7.193818	469.587	NaN	0.000000	0.001594	0.001677	28.0809	96.2923	0.001788	53849.9	4.922678	171.827	467.979	1.173623	0.101309	0.101015	469.587	53849.9	0.094769	0.279198	1681.91	93111.2
437	2.000000	1.175903	7.36934e+06	-55239.1	1005.82	-29742.1	0.000000	0.000000	7.196381	483.635	NaN	0.000000	0.001651	0.001720	28.0808	98.55	0.001822	54093.2	0.592395	176.56	480.91	1.175594	0.103294	0.102986	483.635	54093.2	0.096589	0.288769	1674.81	91968.7
437	2.000000	1.178014	7.36934e+06	-55239.1	1005.82	-29742.1	0.000000	0.000000	7.199029	496.694	NaN	0.000000	0.001635	0.001694	28.0806	101.969	0.001815	56170.5	6.123400	170.662	498.338	1.177739	0.105405	0.105130	496.694	56170.5	0.098774	0.300461	1653.11	93624.2
437	2.000000	1.179944	7.36934e+06	-55239.1	1005.82	-29742.1	0.000000	0.000000	7.201974	521.388	NaN	0.000000	0.001638	0.001717	28.081	102.425	0.001753	58423.9	3.839385	172.887	520.587	1.179552	0.107335	0.106944	521.388	58423.9	0.100642	0.310630	1678.48	95772.8
437	2.000000	1.180449	7.36934e+06	-55239.1	1005.82	-29742.1	0.000000	0.000000	7.202502	521.936	NaN	0.000000	0.001624	0.001738	28.0815	103.271	0.001755	58836.8	4.831853	-8.460049	520.94	1.180095	0.107840	0.107487	521.936	58836.8	0.101187	0.313628	1664.19	95987.5