File: remote_trans/data/nanoindenter/0828-1/data/Data_2025-08-06,11h17m57s/2025-07-22_16-23-58_1_1172.txt
2025-07-22, 16:23:58, 1
Index	Phase	Displacement	Time	Pos X	Pos Y	Pos Z	Rot A	Rot B	Piezo Z	Force A	Force B	Gripper	Voltage A	Voltage B	Temperature	Amplitude force	Amplitude pos	Stiffness	Phase shift	Phase excitation	Force A raw	Displacement raw	HMax	HMax raw	Real Force	Real Stiffness	Contact Depth	Area	Hardness	Reduced Mod.
[#]	[#]	[um]	[s]	[um]	[um]	[um]	[m°]	[m°]	[um]	[uN]	[uN]	[V]	[V]	[V]	[°C]	[uN]	[um]	[N/m]	[°]	[°]	[uN]	[um]	[um]	[um]	[uN]	[N/m]	[um]	[um^2]	[MPa]	[MPa]
1172	1.000000	0.002762	7.37651e+06	-56989.1	1105.82	-29737.5	0.000000	0.000000	6.002775	-0.019646	NaN	0.000000	0.001627	0.001758	28.0807	0.068150	0.000842	80.9686	-134.458	-161.511	0.073707	0.001558	-1.075512	-1.076716	-0.019646	80.9686	-1.075330	-2.337712E+14	8.403964E-17	NaN
1172	1.000000	0.010712	7.37651e+06	-56989.1	1105.82	-29737.5	0.000000	0.000000	6.010727	0.021780	NaN	0.000000	0.001618	0.001753	28.0803	0.054832	0.000952	57.6134	108.612	-167.469	0.008720	0.009394	-1.067562	-1.068880	0.021780	57.6134	-1.067845	-1.854545E+14	-1.174404E-16	NaN
1172	1.000000	0.018739	7.37651e+06	-56989.1	1105.82	-29737.5	0.000000	0.000000	6.018752	-0.005374	NaN	0.000000	0.001648	0.001776	28.0802	0.044248	0.001742	25.4052	-60.2094	-164.386	-0.002677	0.017447	-1.059535	-1.060827	-0.005374	25.4052	-1.059376	-1.427046E+14	3.765537E-17	NaN
1172	1.000000	0.026772	7.37651e+06	-56989.1	1105.82	-29737.5	0.000000	0.000000	6.026787	0.044304	NaN	0.000000	0.001633	0.001779	28.0806	0.019929	0.001853	10.7565	82.6376	-164.032	0.012508	0.025447	-1.051502	-1.052827	0.044304	10.7565	-1.054591	-1.230639E+14	-3.600049E-16	NaN
1172	1.000000	0.034733	7.37651e+06	-56989.1	1105.82	-29737.5	0.000000	0.000000	6.034748	0.036876	NaN	0.000000	0.001613	0.001768	28.0802	0.102882	0.002001	51.42	26.4038	-166.162	0.006104	0.033404	-1.043541	-1.044870	0.036876	51.42	-1.044078	-8.888040E+13	-4.148998E-16	NaN
1172	1.000000	0.042737	7.37651e+06	-56989.1	1105.82	-29737.5	0.000000	0.000000	6.042753	0.052340	NaN	0.000000	0.001634	0.001731	28.0804	0.117625	0.002020	58.225	92.6883	-168.548	0.102921	0.041435	-1.035537	-1.036839	0.052340	58.225	-1.036211	-6.966529E+13	-7.513077E-16	NaN
1172	1.000000	0.050751	7.37651e+06	-56989.1	1105.82	-29737.5	0.000000	0.000000	6.050767	0.075984	NaN	0.000000	0.001643	0.001772	28.0806	0.104391	0.002046	51.0108	-29.3241	-165.733	0.131597	0.049406	-1.027523	-1.028868	0.075984	51.0108	-1.028640	-5.510511E+13	-1.378885E-15	NaN
1172	1.000000	0.058695	7.37651e+06	-56989.1	1105.82	-29737.5	0.000000	0.000000	6.058711	0.065010	NaN	0.000000	0.001659	0.001758	28.0801	0.099544	0.001968	50.5767	138.825	-164.544	0.106886	0.057399	-1.019579	-1.020875	0.065010	50.5767	-1.020543	-4.288029E+13	-1.516086E-15	NaN
1172	1.000000	0.066748	7.37651e+06	-56989.1	1105.82	-29737.5	0.000000	0.000000	6.066762	0.006045	NaN	0.000000	0.001629	0.001715	28.08	0.066681	0.002089	31.9164	-21.7869	-163.749	0.003353	0.065428	-1.011526	-1.012846	0.006045	31.9164	-1.011668	-3.257110E+13	-1.856062E-16	NaN
1172	1.000000	0.074760	7.37651e+06	-56989.1	1105.82	-29737.5	0.000000	0.000000	6.074772	-0.017726	NaN	0.000000	0.001609	0.001715	28.0802	0.104725	0.001997	52.4374	123.953	-165.906	0.029063	0.073459	-1.003514	-1.004815	-0.017726	52.4374	-1.003261	-2.509976E+13	7.062098E-16	NaN
1172	1.000000	0.082734	7.37651e+06	-56989.1	1105.82	-29737.5	0.000000	0.000000	6.082751	0.063668	NaN	0.000000	0.001599	0.001713	28.0805	0.090198	0.002033	44.3698	65.3403	-165.521	0.010828	0.081435	-0.995540	-0.996839	0.063668	44.3698	-0.996616	-2.042695E+13	-3.116860E-15	NaN
1172	1.000000	0.090717	7.37651e+06	-56989.1	1105.82	-29737.5	0.000000	0.000000	6.090729	-0.048182	NaN	0.000000	0.001638	0.001735	28.0805	0.070910	0.002027	34.9785	155.631	-166.069	-0.009850	0.089443	-0.987557	-0.988831	-0.048182	34.9785	-0.986524	-1.493793E+13	3.225465E-15	NaN
1172	1.000000	0.098732	7.37651e+06	-56989.1	1105.82	-29737.5	0.000000	0.000000	6.098744	-0.054617	NaN	0.000000	0.001618	0.001705	28.0817	0.060761	0.001849	32.8621	-79.2576	-165.265	0.053283	0.097397	-0.979542	-0.980877	-0.054617	32.8621	-0.978295	-1.157285E+13	4.719398E-15	NaN
1172	1.000000	0.106771	7.37651e+06	-56989.1	1105.82	-29737.5	0.000000	0.000000	6.106788	0.099729	NaN	0.000000	0.001616	0.001729	28.0815	0.151641	0.002001	75.7644	-46.2328	-168.611	0.074229	0.105448	-0.971503	-0.972826	0.099729	75.7644	-0.972491	-9.665588E+12	-1.031799E-14	NaN
1172	1.000000	0.114734	7.37651e+06	-56989.1	1105.82	-29737.5	0.000000	0.000000	6.114747	-0.007173	NaN	0.000000	0.001620	0.001733	28.0814	0.073908	0.002035	36.3191	143.705	-166.769	0.090099	0.113428	-0.963540	-0.964846	-0.007173	36.3191	-0.963392	-7.287827E+12	9.842403E-16	NaN
1172	1.000000	0.122729	7.37651e+06	-56989.1	1105.82	-29737.5	0.000000	0.000000	6.122743	-0.000896	NaN	0.000000	0.001633	0.001716	28.0815	0.086358	0.001943	44.4524	-8.115297	-169.003	-0.023798	0.121487	-0.955545	-0.956787	-0.000896	44.4524	-0.955529	-5.709434E+12	1.569765E-16	NaN
1172	1.000000	0.130810	7.37651e+06	-56989.1	1105.82	-29737.5	0.000000	0.000000	6.130824	0.014399	NaN	0.000000	0.001606	0.001733	28.0816	0.141121	0.002086	67.6413	-83.7355	-166.372	0.076861	0.129477	-0.947464	-0.948797	0.014399	67.6413	-0.947624	-4.466594E+12	-3.223753E-15	NaN
1172	1.000000	0.138775	7.37651e+06	-56989.1	1105.82	-29737.5	0.000000	0.000000	6.138789	0.014809	NaN	0.000000	0.001638	0.001730	28.0816	0.052897	0.001949	27.1404	167.941	-166.901	0.075480	0.137420	-0.939499	-0.940854	0.014809	27.1404	-0.939908	-3.514778E+12	-4.213327E-15	NaN
1172	1.000000	0.146753	7.37651e+06	-56989.1	1105.82	-29737.5	0.000000	0.000000	6.146769	0.076414	NaN	0.000000	0.001625	0.001740	28.0815	0.105536	0.002027	52.0551	47.2642	-167.695	-0.053372	0.145428	-0.931521	-0.932845	0.076414	52.0551	-0.932622	-2.802764E+12	-2.726391E-14	NaN
1172	1.000000	0.154761	7.37651e+06	-56989.1	1105.82	-29737.5	0.000000	0.000000	6.154775	0.015301	NaN	0.000000	0.001628	0.001752	28.0815	0.095261	0.001958	48.643	-119.907	-163.925	0.048770	0.153438	-0.923513	-0.924836	0.015301	48.643	-0.923749	-2.127245E+12	-7.192656E-15	NaN
1172	1.000000	0.162771	7.37651e+06	-56989.1	1105.82	-29737.5	0.000000	0.000000	6.162782	-0.061141	NaN	0.000000	0.001656	0.001747	28.0813	0.020734	0.001950	10.6304	-137.352	-167.237	-0.103305	0.161446	-0.915503	-0.916827	-0.061141	10.6304	-0.911189	-1.439545E+12	4.247269E-14	NaN
1172	1.000000	0.170786	7.37651e+06	-56989.1	1105.82	-29737.5	0.000000	0.000000	6.170801	0.025512	NaN	0.000000	0.001623	0.001714	28.0816	0.089206	0.001894	47.1114	-63.4701	-163.768	-0.006913	0.169475	-0.907488	-0.908799	0.025512	47.1114	-0.907894	-1.299318E+12	-1.963460E-14	NaN
1172	1.000000	0.178809	7.37651e+06	-56989.1	1105.82	-29737.5	0.000000	0.000000	6.178824	0.025855	NaN	0.000000	0.001571	0.001717	28.0815	0.035984	0.002008	17.9246	-151.585	-162.501	0.031433	0.177501	-0.899465	-0.900773	0.025855	17.9246	-0.900546	-1.033832E+12	-2.500923E-14	NaN
1172	1.000000	0.186790	7.37651e+06	-56989.1	1105.82	-29737.5	0.000000	0.000000	6.186804	-0.001274	NaN	0.000000	0.001620	0.001734	28.0814	0.059356	0.002054	28.8987	-156.673	-164.966	0.028708	0.185487	-0.891484	-0.892787	-0.001274	28.8987	-0.891451	-7.789795E+11	1.635579E-15	NaN
1172	1.000000	0.194804	7.37651e+06	-56989.1	1105.82	-29737.5	0.000000	0.000000	6.194817	-0.014728	NaN	0.000000	0.001647	0.001762	28.0813	0.077083	0.002012	38.314	-129.228	-164.548	-0.037373	0.193440	-0.883470	-0.884834	-0.014728	38.314	-0.883182	-6.021940E+11	2.445647E-14	NaN
1172	1.000000	0.202784	7.37651e+06	-56989.1	1105.82	-29737.5	0.000000	0.000000	6.202798	0.015019	NaN	0.000000	0.001645	0.001743	28.0813	0.088597	0.002174	40.7512	-147.5	-162.962	-0.038006	0.201513	-0.875490	-0.876761	0.015019	40.7512	-0.875766	-4.780250E+11	-3.141956E-14	NaN
1172	1.000000	0.210845	7.37651e+06	-56989.1	1105.82	-29737.5	0.000000	0.000000	6.210855	-0.080874	NaN	0.000000	0.001627	0.001742	28.0816	0.108815	0.002005	54.2643	-124.276	-165.395	-0.042123	0.209486	-0.867429	-0.868788	-0.080874	54.2643	-0.866312	-3.560730E+11	2.271279E-13	NaN
1172	1.000000	0.218818	7.37651e+06	-56989.1	1105.82	-29737.5	0.000000	0.000000	6.218832	0.015288	NaN	0.000000	0.001643	0.001711	28.0815	0.078698	0.001897	41.4762	-73.5756	-166.02	0.026920	0.217528	-0.859456	-0.860746	0.015288	41.4762	-0.859733	-2.900703E+11	-5.270615E-14	NaN
1172	1.000000	0.226823	7.37651e+06	-56989.1	1105.82	-29737.5	0.000000	0.000000	6.226838	0.014986	NaN	0.000000	0.001655	0.001753	28.0818	0.064183	0.002037	31.5021	-81.0175	-159.212	-0.020133	0.225493	-0.851451	-0.852781	0.014986	31.5021	-0.851807	-2.265744E+11	-6.614163E-14	NaN
1172	1.000000	0.234825	7.37651e+06	-56989.1	1105.82	-29737.5	0.000000	0.000000	6.234837	-0.022302	NaN	0.000000	0.001635	0.001758	28.0805	0.087877	0.002022	43.4693	-59.9878	-166.307	-0.057402	0.233476	-0.843449	-0.844798	-0.022302	43.4693	-0.843064	-1.725065E+11	1.292839E-13	NaN
1172	1.000000	0.242789	7.37651e+06	-56989.1	1105.82	-29737.5	0.000000	0.000000	6.242805	0.045168	NaN	0.000000	0.001632	0.001730	28.0802	0.053864	0.001936	27.8173	-150.48	-166.998	0.065761	0.241453	-0.835485	-0.836821	0.045168	27.8173	-0.836702	-1.414534E+11	-3.193105E-13	NaN
1172	1.000000	0.250792	7.37651e+06	-56989.1	1105.82	-29737.5	0.000000	0.000000	6.250807	0.021293	NaN	0.000000	0.001661	0.001743	28.0804	0.115969	0.002131	54.4313	-137.623	-161.949	0.001548	0.249445	-0.827482	-0.828829	0.021293	54.4313	-0.827775	-1.070604E+11	-1.988919E-13	NaN
1172	1.000000	0.258805	7.37651e+06	-56989.1	1105.82	-29737.5	0.000000	0.000000	6.258820	0.043761	NaN	0.000000	0.001676	0.001750	28.0802	0.030954	0.001942	15.9372	-60.6679	-166.946	0.003419	0.257477	-0.819469	-0.820797	0.043761	15.9372	-0.821528	-8.809172E+10	-4.967677E-13	NaN
1172	1.000000	0.266849	7.37651e+06	-56989.1	1105.82	-29737.5	0.000000	0.000000	6.266863	0.005126	NaN	0.000000	0.001640	0.001756	28.0804	0.148810	0.002051	72.5463	-117.567	-164.408	0.024532	0.265505	-0.811425	-0.812769	0.005126	72.5463	-0.811478	-6.436127E+10	-7.964640E-14	NaN
1172	1.000000	0.274830	7.37651e+06	-56989.1	1105.82	-29737.5	0.000000	0.000000	6.274843	-0.005022	NaN	0.000000	0.001672	0.001736	28.0805	0.063855	0.002089	30.573	24.7908	-166.542	0.028963	0.273510	-0.803444	-0.804764	-0.005022	30.573	-0.803321	-4.988174E+10	1.006857E-13	NaN
1172	1.000000	0.282819	7.37651e+06	-56989.1	1105.82	-29737.5	0.000000	0.000000	6.282834	0.027637	NaN	0.000000	0.001675	0.001735	28.0807	0.032857	0.001953	16.8207	-20.366	-163.791	-0.022566	0.281520	-0.795455	-0.796754	0.027637	16.8207	-0.796687	-4.054061E+10	-6.817107E-13	NaN
1172	1.000000	0.290833	7.37651e+06	-56989.1	1105.82	-29737.5	0.000000	0.000000	6.290850	0.065104	NaN	0.000000	0.001686	0.001758	28.0801	0.087557	0.002016	43.4253	-29.1818	-165.577	-0.020425	0.289534	-0.787441	-0.788740	0.065104	43.4253	-0.788565	-3.144795E+10	-2.070212E-12	NaN
1172	1.000000	0.298856	7.37651e+06	-56989.1	1105.82	-29737.5	0.000000	0.000000	6.298872	0.046801	NaN	0.000000	0.001639	0.001742	28.0802	0.092710	0.002053	45.1583	128.064	-165.52	0.005197	0.297465	-0.779418	-0.780809	0.046801	45.1583	-0.780195	-2.420365E+10	-1.933624E-12	NaN
1172	1.000000	0.306851	7.37651e+06	-56989.1	1105.82	-29737.5	0.000000	0.000000	6.306867	0.037505	NaN	0.000000	0.001676	0.001770	28.0802	0.017378	0.002181	7.967651	160.612	-165.317	0.076771	0.305464	-0.771422	-0.772810	0.037505	7.967651	-0.774953	-2.054174E+10	-1.825798E-12	NaN
1172	1.000000	0.314819	7.37651e+06	-56989.1	1105.82	-29737.5	0.000000	0.000000	6.314828	-0.105049	NaN	0.000000	0.001644	0.001722	28.0804	0.094042	0.001910	49.2274	-14.5981	-166.098	-0.048064	0.313496	-0.763455	-0.764778	-0.105049	49.2274	-0.761854	-1.363107E+10	7.706593E-12	NaN
1172	1.000000	0.322871	7.37651e+06	-56989.1	1105.82	-29737.5	0.000000	0.000000	6.322883	-0.036287	NaN	0.000000	0.001653	0.001757	28.0801	0.093388	0.002151	43.4192	-73.5518	-165.441	0.030743	0.321600	-0.755403	-0.756674	-0.036287	43.4192	-0.754776	-1.091998E+10	3.322980E-12	NaN
1172	1.000000	0.330836	7.37651e+06	-56989.1	1105.82	-29737.5	0.000000	0.000000	6.330851	0.053343	NaN	0.000000	0.001617	0.001733	28.0802	0.041039	0.002001	20.511	54.0838	-163.313	0.021359	0.329522	-0.747438	-0.748752	0.053343	20.511	-0.749389	-9.223588E+9	-5.783271E-12	NaN
1172	1.000000	0.338869	7.37651e+06	-56989.1	1105.82	-29737.5	0.000000	0.000000	6.338886	0.066015	NaN	0.000000	0.001678	0.001729	28.0802	0.064793	0.001870	34.6452	-88.9955	-167.538	-0.002072	0.337493	-0.739405	-0.740781	0.066015	34.6452	-0.740834	-7.053600E+9	-9.358980E-12	NaN
1172	1.000000	0.346845	7.37651e+06	-56989.1	1105.82	-29737.5	0.000000	0.000000	6.346859	-0.000238	NaN	0.000000	0.001644	0.001723	28.0804	0.090793	0.001975	45.9691	176.908	-162.55	-0.006409	0.345526	-0.731429	-0.732748	-0.000238	45.9691	-0.731425	-5.250799E+9	4.524789E-14	NaN
1172	1.000000	0.354873	7.37651e+06	-56989.1	1105.82	-29737.5	0.000000	0.000000	6.354887	0.016081	NaN	0.000000	0.001694	0.001737	28.0802	0.050539	0.001989	25.4126	116.636	-162.377	0.024149	0.353574	-0.723401	-0.724700	0.016081	25.4126	-0.723876	-4.143071E+9	-3.881343E-12	NaN
1172	1.000000	0.362868	7.37651e+06	-56989.1	1105.82	-29737.5	0.000000	0.000000	6.362884	0.056770	NaN	0.000000	0.001677	0.001732	28.0804	0.109400	0.001903	57.499	-137.719	-165.031	-0.006567	0.361548	-0.715406	-0.716726	0.056770	57.499	-0.716147	-3.250236E+9	-1.746652E-11	NaN
1172	1.000000	0.370895	7.37651e+06	-56989.1	1105.82	-29737.5	0.000000	0.000000	6.370910	0.028809	NaN	0.000000	0.001669	0.001707	28.0817	0.055983	0.001997	28.0395	-168.711	-167.384	-0.022588	0.369560	-0.707379	-0.708714	0.028809	28.0395	-0.708150	-2.528099E+9	-1.139541E-11	NaN
1172	1.000000	0.378842	7.37651e+06	-56989.1	1105.82	-29737.5	0.000000	0.000000	6.378857	0.045928	NaN	0.000000	0.001649	0.001767	28.0816	0.108817	0.001831	59.4271	-64.9407	-169.346	-0.024045	0.377543	-0.699432	-0.700731	0.045928	59.4271	-0.700012	-1.957468E+9	-2.346287E-11	NaN
1172	1.000000	0.386886	7.37651e+06	-56989.1	1105.82	-29737.5	0.000000	0.000000	6.386900	4.641164E-5	NaN	0.000000	0.001667	0.001728	28.0818	0.062838	0.001983	31.6913	-95.6315	-163.24	0.045495	0.385579	-0.691388	-0.692695	4.641164E-5	31.6913	-0.691389	-1.492430E+9	-3.109803E-14	NaN
1172	1.000000	0.394883	7.37651e+06	-56989.1	1105.82	-29737.5	0.000000	0.000000	6.394897	0.025463	NaN	0.000000	0.001654	0.001738	28.0816	0.133160	0.001952	68.2213	109.209	-167.101	0.065819	0.393596	-0.683391	-0.684678	0.025463	68.2213	-0.683671	-1.170599E+9	-2.175238E-11	NaN
1172	1.000000	0.402908	7.37651e+06	-56989.1	1105.82	-29737.5	0.000000	0.000000	6.402920	-0.027093	NaN	0.000000	0.001630	0.001730	28.0816	0.058006	0.002162	26.8309	3.075382	-161.57	-0.045279	0.401518	-0.675366	-0.676756	-0.027093	26.8309	-0.674609	-8.799609E+8	3.078855E-11	NaN
1172	1.000000	0.410885	7.37651e+06	-56989.1	1105.82	-29737.5	0.000000	0.000000	6.410897	-0.029994	NaN	0.000000	0.001624	0.001763	28.0815	0.034967	0.002226	15.7076	-169.819	-164.794	0.022068	0.409556	-0.667389	-0.668718	-0.029994	15.7076	-0.665957	-6.699570E+8	4.477066E-11	NaN
1172	1.000000	0.418873	7.37651e+06	-56989.1	1105.82	-29737.5	0.000000	0.000000	6.418887	-0.004618	NaN	0.000000	0.001648	0.001762	28.0818	0.076627	0.001841	41.6302	-23.5768	-162.307	0.018603	0.417602	-0.659401	-0.660672	-0.004618	41.6302	-0.659317	-5.433972E+8	8.497486E-12	NaN
1172	1.000000	0.426929	7.37651e+06	-56989.1	1105.82	-29737.5	0.000000	0.000000	6.426943	0.007272	NaN	0.000000	0.001727	0.001771	28.0817	0.042864	0.002100	20.4076	-99.8256	-164.096	-0.041180	0.425581	-0.651345	-0.652693	0.007272	20.4076	-0.651612	-4.261253E+8	-1.706633E-11	NaN
1172	1.000000	0.434886	7.37651e+06	-56989.1	1105.82	-29737.5	0.000000	0.000000	6.434898	-0.030603	NaN	0.000000	0.001666	0.001746	28.0815	0.071593	0.002034	35.1939	166.857	-169.014	-0.012945	0.433587	-0.643388	-0.644687	-0.030603	35.1939	-0.642736	-3.219744E+8	9.504948E-11	NaN
1172	1.000000	0.442921	7.37651e+06	-56989.1	1105.82	-29737.5	0.000000	0.000000	6.442938	0.077970	NaN	0.000000	0.001710	0.001725	28.0818	0.035520	0.001932	18.3893	-177.902	-163.897	0.068798	0.441576	-0.635353	-0.636698	0.077970	18.3893	-0.638533	-2.819425E+8	-2.765456E-10	NaN
1172	1.000000	0.450871	7.37651e+06	-56989.1	1105.82	-29737.5	0.000000	0.000000	6.450886	0.028501	NaN	0.000000	0.001764	0.001743	28.0816	0.085029	0.002020	42.098	-105.659	-161.797	0.074230	0.449608	-0.627403	-0.628666	0.028501	42.098	-0.627911	-2.015258E+8	-1.414243E-10	NaN
1172	1.000000	0.458904	7.37651e+06	-56989.1	1105.82	-29737.5	0.000000	0.000000	6.458920	0.062520	NaN	0.000000	0.001728	0.001770	28.0823	0.019914	0.001997	9.969565	-147.041	-167.77	0.020762	0.457575	-0.619370	-0.620699	0.062520	9.969565	-0.624073	-1.784903E+8	-3.502718E-10	NaN
1172	1.000000	0.466910	7.37651e+06	-56989.1	1105.82	-29737.5	0.000000	0.000000	6.466924	0.003124	NaN	0.000000	0.001695	0.001801	28.082	0.024821	0.001920	12.9286	-82.5032	-161.625	-0.010466	0.465577	-0.611364	-0.612697	0.003124	12.9286	-0.611545	-1.200519E+8	-2.602281E-11	NaN
1172	1.000000	0.474908	7.37651e+06	-56989.1	1105.82	-29737.5	0.000000	0.000000	6.474925	0.085050	NaN	0.000000	0.001698	0.001780	28.0819	0.068055	0.002049	33.2071	14.8993	-163.038	0.068510	0.473578	-0.603366	-0.604696	0.085050	33.2071	-0.605287	-9.845890E+7	-8.638143E-10	NaN
1172	1.000000	0.482903	7.37651e+06	-56989.1	1105.82	-29737.5	0.000000	0.000000	6.482919	0.069088	NaN	0.000000	0.001733	0.001776	28.0823	0.075666	0.001857	40.7523	74.1713	-168.545	0.015920	0.481578	-0.595371	-0.596696	0.069088	40.7523	-0.596643	-7.485438E+7	-9.229629E-10	NaN
1172	1.000000	0.490908	7.37651e+06	-56989.1	1105.82	-29737.5	0.000000	0.000000	6.490921	-0.020626	NaN	0.000000	0.001720	0.001782	28.0818	0.063242	0.001987	31.8358	4.026244	-166.429	-0.039006	0.489596	-0.587366	-0.588678	-0.020626	31.8358	-0.586880	-5.490867E+7	3.756448E-10	NaN
1172	1.000000	0.498944	7.37652e+06	-56989.1	1105.82	-29737.5	0.000000	0.000000	6.498959	0.034558	NaN	0.000000	0.001720	0.001769	28.082	0.116330	0.001935	60.1327	-104.978	-164.11	0.047445	0.497663	-0.579330	-0.580611	0.034558	60.1327	-0.579761	-4.379576E+7	-7.890674E-10	NaN
1172	1.000000	0.506918	7.37652e+06	-56989.1	1105.82	-29737.5	0.000000	0.000000	6.506930	-0.037358	NaN	0.000000	0.001720	0.001766	28.0808	0.043509	0.002046	21.2635	-140.285	-168.475	0.000936	0.505591	-0.571356	-0.572683	-0.037358	21.2635	-0.570039	-3.214894E+7	1.162037E-9	NaN
1172	1.000000	0.514913	7.37652e+06	-56989.1	1105.82	-29737.5	0.000000	0.000000	6.514930	0.060493	NaN	0.000000	0.001670	0.001760	28.0807	0.066097	0.002034	32.5027	-3.061047	-165.431	0.036182	0.513575	-0.563361	-0.564699	0.060493	32.5027	-0.564756	-2.717426E+7	-2.226125E-9	NaN
1172	1.000000	0.522946	7.37652e+06	-56989.1	1105.82	-29737.5	0.000000	0.000000	6.522959	-0.009430	NaN	0.000000	0.001663	0.001682	28.0806	0.068586	0.001872	36.6465	-39.8099	-164.512	-0.055286	0.521615	-0.555328	-0.556659	-0.009430	36.6465	-0.555135	-2.000131E+7	4.714459E-10	NaN
1172	1.000000	0.530930	7.37652e+06	-56989.1	1105.82	-29737.5	0.000000	0.000000	6.530945	0.026166	NaN	0.000000	0.001660	0.001727	28.0805	0.055039	0.001920	28.6641	-57.2605	-165.856	-0.034384	0.529603	-0.547344	-0.548671	0.026166	28.6641	-0.548029	-1.594579E+7	-1.640952E-9	NaN
1172	1.000000	0.538950	7.37652e+06	-56989.1	1105.82	-29737.5	0.000000	0.000000	6.538963	-0.005887	NaN	0.000000	0.001694	0.001719	28.0808	0.118558	0.002010	58.9937	159.83	-165.759	0.047427	0.537580	-0.539324	-0.540694	-0.005887	58.9937	-0.539249	-1.204873E+7	4.886396E-10	NaN
1172	1.000000	0.546955	7.37652e+06	-56989.1	1105.82	-29737.5	0.000000	0.000000	6.546969	0.010021	NaN	0.000000	0.001647	0.001722	28.0807	0.112765	0.001992	56.6077	144.862	-162.6	0.055487	0.545587	-0.531319	-0.532687	0.010021	56.6077	-0.531452	-9.3916e+06	-1.067039E-9	NaN
1172	1.000000	0.554930	7.37652e+06	-56989.1	1105.82	-29737.5	0.000000	0.000000	6.554945	0.032334	NaN	0.000000	0.001643	0.001707	28.0808	0.022575	0.002053	10.9978	-107.306	-160.99	0.036703	0.553593	-0.523344	-0.524681	0.032334	10.9978	-0.525549	-7.77581e+06	-4.158231E-9	NaN
1172	1.000000	0.562907	7.37652e+06	-56989.1	1105.82	-29737.5	0.000000	0.000000	6.562920	-0.023931	NaN	0.000000	0.001613	0.001738	28.0807	0.090445	0.001960	46.1402	81.5626	-162.903	-0.016217	0.561667	-0.515367	-0.516607	-0.023931	46.1402	-0.514978	-5.5427e+06	4.317610E-9	NaN
1172	1.000000	0.570950	7.37652e+06	-56989.1	1105.82	-29737.5	0.000000	0.000000	6.570963	-0.005780	NaN	0.000000	0.001597	0.001716	28.0805	0.113107	0.001910	59.2168	87.0329	-164.185	0.019906	0.569666	-0.507324	-0.508608	-0.005780	59.2168	-0.507251	-4.32634e+06	1.335918E-9	NaN
1172	1.000000	0.578959	7.37652e+06	-56989.1	1105.82	-29737.5	0.000000	0.000000	6.578974	0.038919	NaN	0.000000	0.001612	0.001714	28.0807	0.120955	0.001982	61.0269	-174.814	-163.882	-0.016247	0.577647	-0.499315	-0.500627	0.038919	61.0269	-0.499794	-3.40517e+06	-1.142952E-8	NaN
1172	1.000000	0.586956	7.37652e+06	-56989.1	1105.82	-29737.5	0.000000	0.000000	6.586970	0.006729	NaN	0.000000	0.001594	0.001681	28.0808	0.121434	0.001887	64.3597	76.4844	-164.516	0.075715	0.585618	-0.491318	-0.492656	0.006729	64.3597	-0.491396	-2.59957e+06	-2.588425E-9	NaN
1172	1.000000	0.594956	7.37652e+06	-56989.1	1105.82	-29737.5	0.000000	0.000000	6.594971	0.014016	NaN	0.000000	0.001587	0.001709	28.0808	0.060727	0.001866	32.5434	36.794	-165.428	-0.054385	0.593583	-0.483318	-0.484691	0.014016	32.5434	-0.483641	-2.02523e+06	-6.920779E-9	NaN
1172	1.000000	0.602999	7.37652e+06	-56989.1	1105.82	-29737.5	0.000000	0.000000	6.603014	0.021090	NaN	0.000000	0.001629	0.001710	28.0805	0.064875	0.002248	28.8587	-60.7964	-164.498	0.067593	0.601697	-0.475275	-0.476577	0.021090	28.8587	-0.475823	-1.57409e+06	-1.339824E-8	NaN
1172	1.000000	0.610956	7.37652e+06	-56989.1	1105.82	-29737.5	0.000000	0.000000	6.610969	-0.023546	NaN	0.000000	0.001624	0.001697	28.0806	0.063315	0.002185	28.9789	176.422	-166.229	-0.074431	0.609661	-0.467318	-0.468613	-0.023546	28.9789	-0.466708	-1.1728e+06	2.007645E-8	NaN
1172	1.000000	0.618934	7.37652e+06	-56989.1	1105.82	-29737.5	0.000000	0.000000	6.618947	-0.009021	NaN	0.000000	0.001618	0.001725	28.0805	0.115335	0.001997	57.7644	130.591	-165.336	-0.026685	0.617734	-0.459340	-0.460540	-0.009021	57.7644	-0.459223	-920657	9.798487E-9	NaN
1172	1.000000	0.626973	7.37652e+06	-56989.1	1105.82	-29737.5	0.000000	0.000000	6.626988	0.039929	NaN	0.000000	0.001610	0.001707	28.0807	0.072878	0.002262	32.2187	108.911	-167.805	0.055547	0.625716	-0.451301	-0.452558	0.039929	32.2187	-0.452231	-734093	-5.439279E-8	NaN
1172	1.000000	0.634976	7.37652e+06	-56989.1	1105.82	-29737.5	0.000000	0.000000	6.634988	-0.039969	NaN	0.000000	0.001593	0.001709	28.0805	0.087461	0.001971	44.37	-34.8425	-164.437	-0.075330	0.633685	-0.443298	-0.444589	-0.039969	44.37	-0.442622	-537477	7.436405E-8	NaN
1172	1.000000	0.642987	7.37652e+06	-56989.1	1105.82	-29737.5	0.000000	0.000000	6.642999	-0.031933	NaN	0.000000	0.001630	0.001697	28.0815	0.099692	0.001995	49.9709	178.542	-161.564	-0.034951	0.641727	-0.435287	-0.436547	-0.031933	49.9709	-0.434808	-416906	7.659614E-8	NaN
1172	1.000000	0.650998	7.37652e+06	-56989.1	1105.82	-29737.5	0.000000	0.000000	6.651013	0.036409	NaN	0.000000	0.001622	0.001731	28.0823	0.013270	0.002037	6.515760	60.6901	-164.186	-0.021305	0.649611	-0.427276	-0.428663	0.036409	6.515760	-0.431467	-373950	-9.736261E-8	NaN
1172	1.000000	0.658964	7.37652e+06	-56989.1	1105.82	-29737.5	0.000000	0.000000	6.658979	0.042512	NaN	0.000000	0.001628	0.001693	28.0818	0.111553	0.001927	57.877	-46.4838	-164.152	0.076364	0.657668	-0.419310	-0.420606	0.042512	57.877	-0.419861	-256119	-1.659871E-7	NaN
1172	1.000000	0.666975	7.37652e+06	-56989.1	1105.82	-29737.5	0.000000	0.000000	6.666989	0.014548	NaN	0.000000	0.001635	0.001754	28.0819	0.065151	0.002093	31.1225	-73.8904	-164.13	0.028056	0.665647	-0.411299	-0.412627	0.014548	31.1225	-0.411649	-195817	-7.429263E-8	NaN
1172	1.000000	0.675001	7.37652e+06	-56989.1	1105.82	-29737.5	0.000000	0.000000	6.675015	0.021817	NaN	0.000000	0.001612	0.001736	28.0821	0.036616	0.002056	17.8131	5.595387	-164.483	0.070673	0.673709	-0.403273	-0.404565	0.021817	17.8131	-0.404192	-153368	-1.422533E-7	NaN
1172	1.000000	0.683020	7.37652e+06	-56989.1	1105.82	-29737.5	0.000000	0.000000	6.683035	0.021950	NaN	0.000000	0.001646	0.001699	28.0821	0.064140	0.001999	32.0802	-97.4212	-167.726	0.009208	0.681761	-0.395254	-0.396512	0.021950	32.0802	-0.395767	-116302	-1.887338E-7	NaN
1172	1.000000	0.691005	7.37652e+06	-56989.1	1105.82	-29737.5	0.000000	0.000000	6.691017	-0.041647	NaN	0.000000	0.001610	0.001729	28.0828	0.059194	0.001991	29.7354	47.7406	-164.165	-0.053924	0.689684	-0.387269	-0.388590	-0.041647	29.7354	-0.386218	-84925.6	4.903990E-7	NaN
1172	1.000000	0.698991	7.37652e+06	-56989.1	1105.82	-29737.5	0.000000	0.000000	6.699005	0.014678	NaN	0.000000	0.001626	0.001721	28.0826	0.044124	0.001949	22.6427	68.2318	-164.407	-0.029439	0.697703	-0.379283	-0.380571	0.014678	22.6427	-0.379770	-68640.8	-2.138365E-7	NaN
1172	1.000000	0.707001	7.37652e+06	-56989.1	1105.82	-29737.5	0.000000	0.000000	6.707014	-0.031640	NaN	0.000000	0.001647	0.001709	28.0821	0.156393	0.002100	74.4651	-22.7083	-162.838	-5.559252E-5	0.705675	-0.371273	-0.372599	-0.031640	74.4651	-0.370954	-51270.1	6.171318E-7	NaN
1172	1.000000	0.714986	7.37652e+06	-56989.1	1105.82	-29737.5	0.000000	0.000000	6.715000	0.016783	NaN	0.000000	0.001656	0.001748	28.0821	0.003082	0.002077	1.483402	-85.8038	-162.676	0.074170	0.713674	-0.363288	-0.364600	0.016783	1.483402	-0.371773	-52681.5	-3.185723E-7	NaN
1172	1.000000	0.723010	7.37652e+06	-56989.1	1105.82	-29737.5	0.000000	0.000000	6.723022	-0.035489	NaN	0.000000	0.001597	0.001727	28.0816	0.117238	0.001887	62.1361	-19.9589	-164.736	-0.060469	0.721696	-0.355264	-0.356578	-0.035489	62.1361	-0.354836	-29999.8	1.182961E-6	NaN
1172	1.000000	0.731029	7.37652e+06	-56989.1	1105.82	-29737.5	0.000000	0.000000	6.731042	-0.004543	NaN	0.000000	0.001642	0.001729	28.0823	0.090531	0.002035	44.4936	119.171	-167.779	-0.023825	0.729699	-0.347245	-0.348575	-0.004543	44.4936	-0.347169	-23221.2	1.956365E-7	NaN
1172	1.000000	0.739049	7.37652e+06	-56989.1	1105.82	-29737.5	0.000000	0.000000	6.739063	-0.002641	NaN	0.000000	0.001639	0.001780	28.0818	0.076236	0.001970	38.7077	-40.8173	-166.108	-0.030775	0.737656	-0.339225	-0.340618	-0.002641	38.7077	-0.339174	-17762.5	1.486688E-7	NaN
1172	1.000000	0.747017	7.37652e+06	-56989.1	1105.82	-29737.5	0.000000	0.000000	6.747033	0.071029	NaN	0.000000	0.001645	0.001725	28.0818	0.047681	0.002079	22.9331	54.7492	-165.853	-0.000765	0.745766	-0.331257	-0.332508	0.071029	22.9331	-0.333580	-14717.7	-4.826132E-6	NaN
1172	1.000000	0.755034	7.37652e+06	-56989.1	1105.82	-29737.5	0.000000	0.000000	6.755050	0.048139	NaN	0.000000	0.001610	0.001745	28.0818	0.103670	0.001991	52.0666	-55.6109	-164.152	0.053953	0.753665	-0.323240	-0.324609	0.048139	52.0666	-0.323933	-10628.4	-4.529236E-6	NaN
1172	1.000000	0.763027	7.37652e+06	-56989.1	1105.82	-29737.5	0.000000	0.000000	6.763038	-0.067721	NaN	0.000000	0.001593	0.001754	28.0818	0.109480	0.001904	57.4873	-139.38	-165.262	-0.016670	0.761674	-0.315247	-0.316600	-0.067721	57.4873	-0.314363	-7683.29	8.814028E-6	NaN
1172	1.000000	0.771056	7.37652e+06	-56989.1	1105.82	-29737.5	0.000000	0.000000	6.771071	0.038453	NaN	0.000000	0.001600	0.001718	28.0822	0.055757	0.001844	30.232	7.590183	-166.006	0.020388	0.769684	-0.307218	-0.308590	0.038453	30.232	-0.308172	-6222.79	-6.179360E-6	NaN
1172	1.000000	0.779040	7.37652e+06	-56989.1	1105.82	-29737.5	0.000000	0.000000	6.779051	-0.078645	NaN	0.000000	0.001639	0.001747	28.0812	0.055135	0.002025	27.2212	117.957	-159.707	-0.142180	0.777678	-0.299234	-0.300596	-0.078645	27.2212	-0.297067	-4255.31	1.848169E-5	NaN
1172	1.000000	0.787015	7.37652e+06	-56989.1	1105.82	-29737.5	0.000000	0.000000	6.787029	0.010869	NaN	0.000000	0.001670	0.001710	28.0809	0.022632	0.001931	11.7188	137.064	-162.713	0.022283	0.785730	-0.291259	-0.292544	0.010869	11.7188	-0.291954	-3569.12	-3.045371E-6	NaN
1172	1.000000	0.795042	7.37652e+06	-56989.1	1105.82	-29737.5	0.000000	0.000000	6.795058	0.061167	NaN	0.000000	0.001638	0.001713	28.0807	0.048505	0.002029	23.9077	-171.716	-164.697	-0.029098	0.793781	-0.283232	-0.284493	0.061167	23.9077	-0.285151	-2821.88	-2.167603E-5	NaN
1172	1.000000	0.803079	7.37652e+06	-56989.1	1105.82	-29737.5	0.000000	0.000000	6.803090	-0.073517	NaN	0.000000	0.001626	0.001712	28.0807	0.064577	0.002116	30.5142	-45.5053	-160.382	-0.026830	0.801758	-0.275195	-0.276516	-0.073517	30.5142	-0.273388	-1874.89	3.921113E-5	NaN
1172	1.000000	0.811050	7.37652e+06	-56989.1	1105.82	-29737.5	0.000000	0.000000	6.811064	0.005482	NaN	0.000000	0.001591	0.001722	28.0809	0.014366	0.001963	7.316594	-143.063	-166.224	0.013042	0.809725	-0.267224	-0.268549	0.005482	7.316594	-0.267786	-1541.19	-3.556999E-6	NaN
1172	1.000000	0.819063	7.37652e+06	-56989.1	1105.82	-29737.5	0.000000	0.000000	6.819075	-0.046113	NaN	0.000000	0.001619	0.001754	28.0806	0.071892	0.001950	36.8595	66.4848	-167.154	-0.020921	0.817742	-0.259211	-0.260532	-0.046113	36.8595	-0.258272	-1102.61	4.182181E-5	NaN
1172	1.000000	0.827061	7.37652e+06	-56989.1	1105.82	-29737.5	0.000000	0.000000	6.827075	0.028169	NaN	0.000000	0.001639	0.001716	28.0809	0.044794	0.002069	21.647	-19.9807	-165.188	0.066506	0.825722	-0.251213	-0.252552	0.028169	21.647	-0.252189	-888.775	-3.169441E-5	NaN
1172	1.000000	0.835063	7.37652e+06	-56989.1	1105.82	-29737.5	0.000000	0.000000	6.835077	0.004303	NaN	0.000000	0.001609	0.001728	28.0806	0.059616	0.002092	28.5024	-15.0829	-165.834	0.042561	0.833707	-0.243211	-0.244567	0.004303	28.5024	-0.243324	-647.721	-6.643501E-6	NaN
1172	1.000000	0.843061	7.37652e+06	-56989.1	1105.82	-29737.5	0.000000	0.000000	6.843078	0.069338	NaN	0.000000	0.001576	0.001727	28.0808	0.073796	0.001943	37.9844	148.351	-166.139	0.002551	0.841820	-0.235213	-0.236454	0.069338	37.9844	-0.236582	-508.239	-0.000136	NaN
1172	1.000000	0.851040	7.37652e+06	-56989.1	1105.82	-29737.5	0.000000	0.000000	6.851053	-0.012452	NaN	0.000000	0.001616	0.001719	28.0805	0.075449	0.001893	39.855	-132.801	-164.365	-0.030861	0.849723	-0.227234	-0.228551	-0.012452	39.855	-0.227000	-358.974	3.468789E-5	NaN
1172	1.000000	0.859101	7.37652e+06	-56989.1	1105.82	-29737.5	0.000000	0.000000	6.859114	-0.014573	NaN	0.000000	0.001620	0.001734	28.0805	0.007251	0.002046	3.544117	7.557576	-168.256	-0.005548	0.857749	-0.219173	-0.220525	-0.014573	3.544117	-0.216089	-240.449	6.060877E-5	NaN
1172	1.000000	0.867083	7.37652e+06	-56989.1	1105.82	-29737.5	0.000000	0.000000	6.867097	0.001375	NaN	0.000000	0.001623	0.001740	28.0804	0.158995	0.002192	72.5424	164.174	-163.386	-0.062824	0.865750	-0.211191	-0.212524	0.001375	72.5424	-0.211205	-200.595	-6.852794E-6	NaN
1172	1.000000	0.875083	7.37652e+06	-56989.1	1105.82	-29737.5	0.000000	0.000000	6.875097	0.015732	NaN	0.000000	0.001631	0.001756	28.0806	0.100919	0.001997	50.5235	38.0708	-167.68	-0.064291	0.873785	-0.203191	-0.204489	0.015732	50.5235	-0.203425	-149.911	-0.000105	NaN
1172	1.000000	0.883072	7.37652e+06	-56989.1	1105.82	-29737.5	0.000000	0.000000	6.883089	0.077077	NaN	0.000000	0.001600	0.001801	28.0809	0.047189	0.002052	22.9966	-144.867	-164.153	0.033072	0.881773	-0.195202	-0.196501	0.077077	22.9966	-0.197716	-120.807	-0.000638	NaN
1172	1.000000	0.891058	7.37652e+06	-56989.1	1105.82	-29737.5	0.000000	0.000000	6.891074	0.078962	NaN	0.000000	0.001607	0.001788	28.0804	0.126801	0.001983	63.9432	-163.628	-167.271	0.069229	0.889788	-0.187216	-0.188486	0.078962	63.9432	-0.188143	-83.7429	-0.000943	NaN
1172	1.000000	0.899096	7.37652e+06	-56989.1	1105.82	-29737.5	0.000000	0.000000	6.899111	0.029669	NaN	0.000000	0.001633	0.001725	28.0807	0.097473	0.002046	47.6366	-164.021	-167.303	0.032283	0.897802	-0.179178	-0.180472	0.029669	47.6366	-0.179645	-60.1759	-0.000493	NaN
1172	1.000000	0.907087	7.37652e+06	-56989.1	1105.82	-29737.5	0.000000	0.000000	6.907101	0.011564	NaN	0.000000	0.001651	0.001693	28.0806	0.110536	0.001960	56.3998	178.592	-162.663	0.072207	0.905818	-0.171187	-0.172456	0.011564	56.3998	-0.171341	-43.3369	-0.000267	NaN
1172	1.000000	0.915073	7.37652e+06	-56989.1	1105.82	-29737.5	0.000000	0.000000	6.915084	-0.061607	NaN	0.000000	0.001630	0.001694	28.0809	0.041843	0.002026	20.6568	-108.584	-166.145	0.028871	0.913738	-0.163201	-0.164536	-0.061607	20.6568	-0.160965	-28.5172	0.002160	NaN
1172	1.000000	0.923088	7.37652e+06	-56989.1	1105.82	-29737.5	0.000000	0.000000	6.923102	-0.000138	NaN	0.000000	0.001606	0.001728	28.082	0.032252	0.002082	15.4919	174.359	-166.3	-0.015702	0.921819	-0.155186	-0.156455	-0.000138	15.4919	-0.155179	-22.4805	6.151335E-6	NaN
1172	1.000000	0.931098	7.37652e+06	-56989.1	1105.82	-29737.5	0.000000	0.000000	6.931115	0.086022	NaN	0.000000	0.001609	0.001702	28.0819	0.170919	0.002015	84.843	19.3869	-163.07	0.047888	0.929861	-0.147176	-0.148412	0.086022	84.843	-0.147937	-16.6061	-0.005180	NaN
1172	1.000000	0.939087	7.37652e+06	-56989.1	1105.82	-29737.5	0.000000	0.000000	6.939100	-0.018389	NaN	0.000000	0.001613	0.001710	28.0824	0.042903	0.001878	22.8389	-113.898	-164.71	0.017472	0.937809	-0.139187	-0.140465	-0.018389	22.8389	-0.138583	-11.1246	0.001653	NaN
1172	1.000000	0.947111	7.37652e+06	-56989.1	1105.82	-29737.5	0.000000	0.000000	6.947126	0.024534	NaN	0.000000	0.001630	0.001742	28.0819	0.068527	0.002117	32.3717	107.692	-164.234	0.074242	0.945785	-0.131163	-0.132488	0.024534	32.3717	-0.131731	-8.232553	-0.002980	NaN
1172	1.000000	0.955147	7.37652e+06	-56989.1	1105.82	-29737.5	0.000000	0.000000	6.955159	-0.039679	NaN	0.000000	0.001615	0.001743	28.0819	0.088147	0.002144	41.1168	166.434	-166.216	0.025643	0.953777	-0.123127	-0.124497	-0.039679	41.1168	-0.122403	-5.399513	0.007349	NaN
1172	1.000000	0.963118	7.37652e+06	-56989.1	1105.82	-29737.5	0.000000	0.000000	6.963130	-0.036236	NaN	0.000000	0.001599	0.001769	28.0821	0.022193	0.001965	11.296	165.823	-167.252	0.007709	0.961788	-0.115156	-0.116486	-0.036236	11.296	-0.112750	-3.431536	0.010560	NaN
1172	1.000000	0.971118	7.37652e+06	-56989.1	1105.82	-29737.5	0.000000	0.000000	6.971134	0.055270	NaN	0.000000	0.001511	0.001768	28.0823	0.044196	0.002024	21.8364	-4.341956	-164.144	0.132099	0.969864	-0.107155	-0.108410	0.055270	21.8364	-0.109054	-2.869971	-0.019258	NaN
1172	1.000000	0.979132	7.37652e+06	-56989.1	1105.82	-29737.5	0.000000	0.000000	6.979144	-0.033190	NaN	0.000000	0.001535	0.001768	28.0827	0.058663	0.001890	31.0394	78.0867	-164.387	0.023134	0.977795	-0.099142	-0.100479	-0.033190	31.0394	-0.098340	-1.678088	0.019778	NaN
1172	1.000000	0.987142	7.37652e+06	-56989.1	1105.82	-29737.5	0.000000	0.000000	6.987157	0.032107	NaN	0.000000	0.001604	0.001750	28.0819	0.050411	0.002079	24.2497	50.9069	-165.632	0.041095	0.985801	-0.091131	-0.092473	0.032107	24.2497	-0.092125	-1.211572	-0.026500	NaN
1172	1.000000	0.995128	7.37652e+06	-56989.1	1105.82	-29737.5	0.000000	0.000000	6.995141	0.001164	NaN	0.000000	0.001616	0.001756	28.082	0.075027	0.001988	37.7426	115.103	-164.442	0.026777	0.993831	-0.083146	-0.084443	0.001164	37.7426	-0.083169	-0.741498	-0.001570	NaN
1172	1.000000	1.003149	7.37652e+06	-56989.1	1105.82	-29737.5	0.000000	0.000000	7.003160	-0.045970	NaN	0.000000	0.001674	0.001733	28.0821	0.106456	0.001959	54.3371	34.9034	-166.243	-0.077320	1.001742	-0.075125	-0.076532	-0.045970	54.3371	-0.074491	-0.448044	0.102603	NaN
1172	1.000000	1.011152	7.37652e+06	-56989.1	1105.82	-29737.5	0.000000	0.000000	7.011167	0.041692	NaN	0.000000	0.001586	0.001745	28.082	0.044903	0.002040	22.0113	123.97	-167.931	-0.008663	1.009807	-0.067122	-0.068467	0.041692	22.0113	-0.068542	-0.311634	-0.133785	NaN
1172	1.000000	1.019140	7.37652e+06	-56989.1	1105.82	-29737.5	0.000000	0.000000	7.019151	-0.061127	NaN	0.000000	0.001545	0.001730	28.0821	0.016173	0.002015	8.028302	-141.492	-166.213	-0.081102	1.017839	-0.059134	-0.060435	-0.061127	8.028302	-0.053423	-0.115623	0.528671	NaN
1172	1.000000	1.027131	7.37652e+06	-56989.1	1105.82	-29737.5	0.000000	0.000000	7.027145	0.016643	NaN	0.000000	0.001545	0.001723	28.082	0.038612	0.001930	20.0051	-45.5732	-166.226	-0.047685	1.025827	-0.051143	-0.052447	0.016643	20.0051	-0.051767	-0.103156	-0.161342	NaN
1172	1.000000	1.035163	7.37652e+06	-56989.1	1105.82	-29737.5	0.000000	0.000000	7.035175	-0.032633	NaN	0.000000	0.001527	0.001719	28.0822	0.046119	0.001876	24.5847	-132.859	-163.539	0.052323	1.033782	-0.043111	-0.044492	-0.032633	24.5847	-0.042116	-0.052457	0.622082	NaN
1172	1.000000	1.043134	7.37652e+06	-56989.1	1105.82	-29737.5	0.000000	0.000000	7.043147	-0.025953	NaN	0.000000	0.001510	0.001742	28.082	0.043724	0.002130	20.5321	126.002	-167.836	0.027288	1.041772	-0.035140	-0.036502	-0.025953	20.5321	-0.034192	-0.030322	0.855903	NaN
1172	1.000000	1.051132	7.37652e+06	-56989.1	1105.82	-29737.5	0.000000	0.000000	7.051143	-0.063104	NaN	0.000000	0.001548	0.001728	28.0816	0.152165	0.001929	78.8964	-7.411984	-166.949	-0.110561	1.049859	-0.027142	-0.028415	-0.063104	78.8964	-0.026542	-0.018526	3.406219	NaN
1172	1.000000	1.059180	7.37652e+06	-56989.1	1105.82	-29737.5	0.000000	0.000000	7.059194	0.020599	NaN	0.000000	0.001545	0.001731	28.0807	0.049154	0.002061	23.8478	-133.387	-166.683	0.086135	1.057877	-0.019094	-0.020397	0.020599	23.8478	-0.019742	-0.012372	-1.664946	NaN
1172	1.000000	1.067139	7.37652e+06	-56989.1	1105.82	-29737.5	0.000000	0.000000	7.067149	-0.069992	NaN	0.000000	0.001548	0.001717	28.0805	0.012358	0.002030	6.089265	-17.5642	-167.687	-0.036052	1.065888	-0.011135	-0.012386	-0.069992	6.089265	-0.002515	-0.001793	39.0391	NaN
1172	1.000000	1.075131	7.37652e+06	-56989.1	1105.82	-29737.5	0.000000	0.000000	7.075265	2.926051	NaN	0.000000	0.001540	0.001765	28.0805	3.729891	0.001787	2087.33	5.476450	-162.826	1.925777	1.073833	-0.003142	-0.004441	2.926051	2087.33	-0.004194	-0.002904	-1007.59	NaN
1172	2.000000	1.081697	7.37652e+06	-56989.1	1105.82	-29737.5	0.000000	0.000000	7.082091	9.263654	NaN	0.000000	0.001527	0.001745	28.081	9.393383	0.001691	5554.23	9.241009	-173.145	9.337258	1.081283	0.003423	0.003009	9.263654	5554.23	0.002172	0.001694	5467.84	123286
1172	2.000000	1.083699	7.37652e+06	-56989.1	1105.82	-29737.5	0.000000	0.000000	7.084244	12.9233	NaN	0.000000	0.001545	0.001765	28.0808	10.8043	0.001493	7236.33	3.625293	-170.005	12.841	1.083325	0.005425	0.005051	12.9233	7236.33	0.004085	0.003314	3899.8	114848
1172	2.000000	1.085670	7.37652e+06	-56989.1	1105.82	-29737.5	0.000000	0.000000	7.086275	14.3758	NaN	0.000000	0.001561	0.001740	28.0807	13.6557	0.001762	7752.08	5.152439	-172.368	13.8844	1.085427	0.007396	0.007153	14.3758	7752.08	0.006005	0.005070	2835.6	99471.3
1172	2.000000	1.087654	7.37652e+06	-56989.1	1105.82	-29737.5	0.000000	0.000000	7.088449	18.9739	NaN	0.000000	0.001548	0.001750	28.0806	15.6678	0.001679	9333.38	7.581563	-175.231	17.8111	1.087325	0.009380	0.009051	18.9739	9333.38	0.007856	0.006894	2752.05	102698
1172	2.000000	1.089656	7.37652e+06	-56989.1	1105.82	-29737.5	0.000000	0.000000	7.090596	22.5047	NaN	0.000000	0.001549	0.001756	28.0814	18.1119	0.001678	10796.9	7.423646	-179.115	22.5192	1.089367	0.011383	0.011093	22.5047	10796.9	0.009819	0.008981	2505.74	104089
1172	2.000000	1.091595	7.37652e+06	-56989.1	1105.82	-29737.5	0.000000	0.000000	7.092757	27.9083	NaN	0.000000	0.001571	0.001746	28.0809	20.4831	0.001728	11855.6	5.689923	-176.568	26.3082	1.091297	0.013321	0.013023	27.9083	11855.6	0.011555	0.010962	2545.96	103456
1172	2.000000	1.093597	7.37652e+06	-56989.1	1105.82	-29737.5	0.000000	0.000000	7.094851	30.1338	NaN	0.000000	0.001557	0.001731	28.0808	22.1488	0.001814	12210.2	8.384587	-178.804	29.6534	1.093277	0.015323	0.015003	30.1338	12210.2	0.013472	0.013302	2265.38	96725.5
1172	2.000000	1.095604	7.37652e+06	-56989.1	1105.82	-29737.5	0.000000	0.000000	7.097027	34.2441	NaN	0.000000	0.001558	0.001731	28.0802	24.6672	0.001914	12886.6	8.628598	179.435	32.6907	1.095244	0.017330	0.016970	34.2441	12886.6	0.015337	0.015738	2175.88	93850.4
1172	2.000000	1.097661	7.37652e+06	-56989.1	1105.82	-29737.5	0.000000	0.000000	7.099283	39.0958	NaN	0.000000	0.001556	0.001733	28.0807	26.1214	0.001787	14614.7	6.816632	-179.716	40.7505	1.097289	0.019387	0.019015	39.0958	14614.7	0.017381	0.018593	2102.73	97924.6
1172	2.000000	1.099603	7.37652e+06	-56989.1	1105.82	-29737.5	0.000000	0.000000	7.101369	42.594	NaN	0.000000	0.001573	0.001696	28.0813	26.9227	0.001693	15905.3	4.786273	-177.932	42.3671	1.099272	0.021329	0.020998	42.594	15905.3	0.019321	0.021486	1982.42	99138
1172	2.000000	1.101575	7.37652e+06	-56989.1	1105.82	-29737.5	0.000000	0.000000	7.103505	46.5972	NaN	0.000000	0.001533	0.001690	28.0807	29.1695	0.001816	16058.8	3.689119	-177.934	43.9331	1.101312	0.023301	0.023038	46.5972	16058.8	0.021125	0.024340	1914.41	94042.7
1172	2.000000	1.103571	7.37652e+06	-56989.1	1105.82	-29737.5	0.000000	0.000000	7.105829	54.5455	NaN	0.000000	0.001547	0.001699	28.0808	29.585	0.001759	16823.3	-0.709725	-172.651	52.7748	1.103250	0.025297	0.024976	54.5455	16823.3	0.022865	0.027246	2001.95	93117.8
1172	2.000000	1.105598	7.37652e+06	-56989.1	1105.82	-29737.5	0.000000	0.000000	7.107907	55.7875	NaN	0.000000	0.001581	0.001660	28.0809	32.9477	0.001850	17807.1	7.087472	179.058	56.2983	1.105317	0.027324	0.027043	55.7875	17807.1	0.024974	0.030969	1801.4	92449.1
1172	2.000000	1.107594	7.37652e+06	-56989.1	1105.82	-29737.5	0.000000	0.000000	7.110247	64.1484	NaN	0.000000	0.001581	0.001699	28.081	34.8567	0.001820	19155.4	7.097426	178.308	63.9169	1.107276	0.029320	0.029002	64.1484	19155.4	0.026809	0.034389	1865.39	94375.1
1172	2.000000	1.109556	7.37652e+06	-56989.1	1105.82	-29737.5	0.000000	0.000000	7.112552	72.478	NaN	0.000000	0.001582	0.001688	28.0821	35.584	0.001748	20357.6	2.897597	-178.088	69.4115	1.109249	0.031282	0.030975	72.478	20357.6	0.028612	0.037916	1911.54	95518.9
1172	2.000000	1.111598	7.37652e+06	-56989.1	1105.82	-29737.5	0.000000	0.000000	7.114831	78.2659	NaN	0.000000	0.001576	0.001720	28.0822	38.5035	0.001837	20956.9	3.542647	-179.445	77.9185	1.111286	0.033324	0.033012	78.2659	20956.9	0.030523	0.041834	1870.88	93613.1
1172	2.000000	1.113550	7.37652e+06	-56989.1	1105.82	-29737.5	0.000000	0.000000	7.116989	83.2675	NaN	0.000000	0.001541	0.001703	28.0823	39.7072	0.001813	21903.6	4.311738	179.348	82.5816	1.113254	0.035276	0.034980	83.2675	21903.6	0.032425	0.045919	1813.35	93388.2
1172	2.000000	1.115536	7.37652e+06	-56989.1	1105.82	-29737.5	0.000000	0.000000	7.119457	94.9664	NaN	0.000000	0.001573	0.001716	28.082	42.1773	0.001826	23094.7	7.272564	176.476	93.6373	1.115220	0.037262	0.036946	94.9664	23094.7	0.034178	0.049850	1905.05	94504.7
1172	2.000000	1.117627	7.37652e+06	-56989.1	1105.82	-29737.5	0.000000	0.000000	7.121797	101.029	NaN	0.000000	0.001582	0.001689	28.082	44.2017	0.001869	23651.7	5.348699	178.371	102.907	1.117253	0.039353	0.038979	101.029	23651.7	0.036149	0.054456	1855.25	92600.9
1172	2.000000	1.119612	7.37652e+06	-56989.1	1105.82	-29737.5	0.000000	0.000000	7.124248	112.371	NaN	0.000000	0.001570	0.001793	28.0827	46.284	0.001882	24598.4	8.737905	174.723	114.024	1.119274	0.041338	0.041000	112.371	24598.4	0.037911	0.058742	1912.95	92726.7
1172	2.000000	1.121552	7.37652e+06	-56989.1	1105.82	-29737.5	0.000000	0.000000	7.126496	119.851	NaN	0.000000	0.001542	0.001777	28.082	47.0522	0.001744	26980.8	3.091571	178.926	116.962	1.121235	0.043278	0.042961	119.851	26980.8	0.039946	0.063889	1875.93	97524.6
1172	2.000000	1.123557	7.37652e+06	-56989.1	1105.82	-29737.5	0.000000	0.000000	7.128931	130.278	NaN	0.000000	0.001564	0.001789	28.0821	48.4247	0.001734	27920.3	5.617623	176.057	128.349	1.123225	0.045283	0.044951	130.278	27920.3	0.041784	0.068720	1895.79	97308.9
1172	2.000000	1.125533	7.37652e+06	-56989.1	1105.82	-29737.5	0.000000	0.000000	7.131296	139.753	NaN	0.000000	0.001566	0.001778	28.082	51.3103	0.001784	28759.2	4.308917	177.295	137.498	1.125228	0.047259	0.046954	139.753	28759.2	0.043614	0.073702	1896.2	96785.8
1172	2.000000	1.127553	7.37652e+06	-56989.1	1105.82	-29737.5	0.000000	0.000000	7.133616	147.044	NaN	0.000000	0.001570	0.001772	28.082	53.5364	0.001761	30393.1	5.440410	175.918	143.919	1.127321	0.049279	0.049047	147.044	30393.1	0.045650	0.079444	1850.91	98518.4
1172	2.000000	1.129489	7.37652e+06	-56989.1	1105.82	-29737.5	0.000000	0.000000	7.135987	157.605	NaN	0.000000	0.001549	0.001795	28.0821	55.9982	0.001829	30624.5	7.337299	173.328	155.179	1.129201	0.051215	0.050927	157.605	30624.5	0.047355	0.084413	1867.07	96302.5
1172	2.000000	1.131540	7.37652e+06	-56989.1	1105.82	-29737.5	0.000000	0.000000	7.138308	164.162	NaN	0.000000	0.001570	0.001799	28.0822	58.2873	0.001899	30696.5	5.111164	175.565	162.307	1.131266	0.053266	0.052992	164.162	30696.5	0.049255	0.090125	1821.51	93420
1172	2.000000	1.133579	7.37652e+06	-56989.1	1105.82	-29737.5	0.000000	0.000000	7.140943	178.65	NaN	0.000000	0.001540	0.001805	28.0822	58.4875	0.001850	31611.3	3.547087	177.566	178.893	1.133214	0.055305	0.054940	178.65	31611.3	0.051067	0.095739	1866.01	93340.7
1172	2.000000	1.135453	7.37652e+06	-56989.1	1105.82	-29737.5	0.000000	0.000000	7.143284	190.019	NaN	0.000000	0.001562	0.001789	28.0818	60.515	0.001780	33994	3.449295	176.452	184.781	1.135232	0.057179	0.056958	190.019	33994	0.052986	0.101867	1865.36	97310.3
1172	2.000000	1.137577	7.37652e+06	-56989.1	1105.82	-29737.5	0.000000	0.000000	7.145822	200.053	NaN	0.000000	0.001579	0.001780	28.0819	63.2158	0.001839	34380.3	5.591953	175.054	201.217	1.137181	0.059303	0.058908	200.053	34380.3	0.054939	0.108289	1847.39	95453.1
1172	2.000000	1.139539	7.37652e+06	-56989.1	1105.82	-29737.5	0.000000	0.000000	7.148184	209.788	NaN	0.000000	0.001576	0.001720	28.0821	63.6796	0.001764	36099.8	5.210254	174.15	208.387	1.139358	0.061265	0.061084	209.788	36099.8	0.056907	0.114950	1825.03	97279.7
1172	2.000000	1.141472	7.37652e+06	-56989.1	1105.82	-29737.5	0.000000	0.000000	7.150650	222.738	NaN	0.000000	0.001575	0.001730	28.0819	65.7421	0.001723	38144.6	2.538701	176.291	218.475	1.141217	0.063198	0.062943	222.738	38144.6	0.058819	0.121606	1831.64	99937.7
1172	2.000000	1.143537	7.37652e+06	-56989.1	1105.82	-29737.5	0.000000	0.000000	7.152602	219.999	NaN	0.000000	0.001596	0.001704	28.0803	66.4712	0.001774	37459.2	0.429130	178.443	218.289	1.143346	0.065263	0.065072	219.999	37459.2	0.060858	0.128904	1706.68	95323
1172	2.000000	1.145507	7.37652e+06	-56989.1	1105.82	-29737.5	0.000000	0.000000	7.155646	246.096	NaN	0.000000	0.001600	0.001738	28.0805	70.0924	0.001769	39615.2	3.414693	175.483	244.24	1.145055	0.067233	0.066781	246.096	39615.2	0.062574	0.135200	1820.24	98434.4
1172	2.000000	1.147537	7.37652e+06	-56989.1	1105.82	-29737.5	0.000000	0.000000	7.157890	251.302	NaN	0.000000	0.001614	0.001718	28.0805	73.0078	0.001784	40915	7.460800	171.072	248.832	1.147375	0.069263	0.069101	251.302	40915	0.064656	0.143033	1756.95	98841
1172	2.000000	1.149520	7.37652e+06	-56989.1	1105.82	-29737.5	0.000000	0.000000	7.160512	266.833	NaN	0.000000	0.001591	0.001750	28.0806	75.4457	0.001917	39357.3	8.401497	170.779	266.874	1.149177	0.071246	0.070903	266.833	39357.3	0.066161	0.148825	1792.94	93209.7
1172	2.000000	1.151500	7.37652e+06	-56989.1	1105.82	-29737.5	0.000000	0.000000	7.163036	280.073	NaN	0.000000	0.001566	0.001710	28.0804	76.2817	0.001782	42813.5	5.987312	172.739	277.092	1.151231	0.073226	0.072957	280.073	42813.5	0.068319	0.157318	1780.29	98619.9
1172	2.000000	1.153555	7.37652e+06	-56989.1	1105.82	-29737.5	0.000000	0.000000	7.165700	294.869	NaN	0.000000	0.001565	0.001726	28.0804	77.4769	0.001722	44993.6	6.901845	171.82	298.31	1.153164	0.075281	0.074890	294.869	44993.6	0.070366	0.165579	1780.83	101023
1172	2.000000	1.155560	7.37652e+06	-56989.1	1105.82	-29737.5	0.000000	0.000000	7.168378	311.218	NaN	0.000000	0.001576	0.001755	28.0804	79.9909	0.001725	46377.2	5.850430	172.222	311.775	1.155210	0.077286	0.076936	311.218	46377.2	0.072253	0.173372	1795.09	101763
1172	2.000000	1.157588	7.37652e+06	-56989.1	1105.82	-29737.5	0.000000	0.000000	7.171043	326.703	NaN	0.000000	0.001593	0.001717	28.0808	81.9955	0.001786	45916.8	5.457349	173.829	326.978	1.157102	0.079314	0.078828	326.703	45916.8	0.073977	0.180642	1808.56	98704.1
1172	2.000000	1.159492	7.37652e+06	-56989.1	1105.82	-29737.5	0.000000	0.000000	7.173457	339.092	NaN	0.000000	0.001645	0.001752	28.0807	84.642	0.001828	46305.8	6.288755	171.582	337.045	1.159235	0.081218	0.080961	339.092	46305.8	0.075726	0.188156	1802.19	97532.7
1172	2.000000	1.161475	7.37652e+06	-56989.1	1105.82	-29737.5	0.000000	0.000000	7.176054	354.012	NaN	0.000000	0.001614	0.001794	28.0808	86.2397	0.001840	46881.6	2.841817	174.996	350.866	1.161144	0.083201	0.082870	354.012	46881.6	0.077538	0.196095	1805.3	96725.7
1172	2.000000	1.163552	7.37652e+06	-56989.1	1105.82	-29737.5	0.000000	0.000000	7.178545	364.078	NaN	0.000000	0.001636	0.001761	28.0808	87.7787	0.001843	47630.1	7.630084	170.093	365.329	1.163119	0.085278	0.084845	364.078	47630.1	0.079546	0.205071	1775.38	96095.5
1172	2.000000	1.165519	7.37652e+06	-56989.1	1105.82	-29737.5	0.000000	0.000000	7.181305	383.361	NaN	0.000000	0.001605	0.001796	28.0805	90.0169	0.001852	48595.6	6.184921	172.256	383.735	1.165093	0.087245	0.086819	383.361	48595.6	0.081328	0.213198	1798.15	96156.5
1172	2.000000	1.167484	7.37652e+06	-56989.1	1105.82	-29737.5	0.000000	0.000000	7.183725	394.408	NaN	0.000000	0.001596	0.001769	28.0808	92.2799	0.002001	46122.7	7.783746	171.319	391.01	1.167044	0.089210	0.088770	394.408	46122.7	0.082797	0.220004	1792.73	89840.5
1172	2.000000	1.169388	7.37652e+06	-56989.1	1105.82	-29737.5	0.000000	0.000000	7.186491	415.354	NaN	0.000000	0.001614	0.001776	28.0808	91.6228	0.001884	48638.6	2.480159	175.568	408.653	1.169024	0.091114	0.090750	415.354	48638.6	0.084710	0.229018	1813.63	92858
1172	2.000000	1.171543	7.37652e+06	-56989.1	1105.82	-29737.5	0.000000	0.000000	7.189075	425.799	NaN	0.000000	0.001592	0.001699	28.0806	93.2747	0.001752	53234	0.020836	177.309	427.361	1.171194	0.093269	0.092920	425.799	53234	0.087270	0.241348	1764.26	99001.2
1172	2.000000	1.173548	7.37652e+06	-56989.1	1105.82	-29737.5	0.000000	0.000000	7.191988	447.852	NaN	0.000000	0.001560	0.001726	28.0805	95.1789	0.001845	51600.6	3.905659	173.529	449.935	1.173218	0.095274	0.094945	447.852	51600.6	0.088765	0.248689	1800.85	94536.6
1172	2.000000	1.175410	7.37652e+06	-56989.1	1105.82	-29737.5	0.000000	0.000000	7.194423	461.786	NaN	0.000000	0.001587	0.001718	28.0804	97.5107	0.001755	55565.8	4.222688	172.033	456.576	1.175148	0.097136	0.096874	461.786	55565.8	0.090903	0.259365	1780.45	99684
1172	2.000000	1.177536	7.37652e+06	-56989.1	1105.82	-29737.5	0.000000	0.000000	7.197487	484.585	NaN	0.000000	0.001612	0.001735	28.0817	99.449	0.001780	55874.7	4.138979	173.048	483.119	1.177110	0.099262	0.098836	484.585	55874.7	0.092757	0.268791	1802.83	98464.8
1172	2.000000	1.179525	7.37652e+06	-56989.1	1105.82	-29737.5	0.000000	0.000000	7.200005	497.441	NaN	0.000000	0.001573	0.001747	28.0817	101.691	0.001781	57082.7	4.517851	172.418	499.026	1.179211	0.101251	0.100937	497.441	57082.7	0.094715	0.278916	1783.48	98750.9