File: remote_trans/data/nanoindenter/0828-1/data/Data_2025-08-06,11h17m57s/2025-07-22_16-23-58_1_634.txt
2025-07-22, 16:23:58, 1
Index	Phase	Displacement	Time	Pos X	Pos Y	Pos Z	Rot A	Rot B	Piezo Z	Force A	Force B	Gripper	Voltage A	Voltage B	Temperature	Amplitude force	Amplitude pos	Stiffness	Phase shift	Phase excitation	Force A raw	Displacement raw	HMax	HMax raw	Real Force	Real Stiffness	Contact Depth	Area	Hardness	Reduced Mod.
[#]	[#]	[um]	[s]	[um]	[um]	[um]	[m°]	[m°]	[um]	[uN]	[uN]	[V]	[V]	[V]	[°C]	[uN]	[um]	[N/m]	[°]	[°]	[uN]	[um]	[um]	[um]	[uN]	[N/m]	[um]	[um^2]	[MPa]	[MPa]
634	1.000000	0.002652	7.37125e+06	-45389.1	1005.82	-29772.6	0.000000	0.000000	6.002836	0.062166	NaN	0.000000	0.001569	0.001734	28.0845	0.168188	0.001036	162.294	-158.258	-164.659	0.126006	0.001351	-1.119063	-1.120364	0.062166	162.294	-1.119350	-9.114854E+14	-6.820340E-17	NaN
634	1.000000	0.012664	7.37125e+06	-45389.1	1005.82	-29772.6	0.000000	0.000000	6.012844	-0.028225	NaN	0.000000	0.001613	0.001715	28.0841	0.085910	0.001283	66.9456	56.1733	15.4748	-0.038800	0.011275	-1.109050	-1.110440	-0.028225	66.9456	-1.108734	-6.565969E+14	4.298610E-17	NaN
634	1.000000	0.022565	7.37125e+06	-45389.1	1005.82	-29772.6	0.000000	0.000000	6.022749	0.079512	NaN	0.000000	0.001550	0.001707	28.084	0.070917	0.001841	38.5157	-119.66	-163.442	0.036400	0.021246	-1.099150	-1.100469	0.079512	38.5157	-1.100698	-5.121946E+14	-1.552376E-16	NaN
634	1.000000	0.032545	7.37125e+06	-45389.1	1005.82	-29772.6	0.000000	0.000000	6.032727	0.043056	NaN	0.000000	0.001612	0.001703	28.0836	0.049731	0.001842	26.9912	-60.5625	15.0593	0.051269	0.031179	-1.089170	-1.090535	0.043056	26.9912	-1.090366	-3.721614E+14	-1.156907E-16	NaN
634	1.000000	0.042527	7.37125e+06	-45389.1	1005.82	-29772.6	0.000000	0.000000	6.042711	0.088564	NaN	0.000000	0.001588	0.001697	28.0846	0.123463	0.001940	63.6362	-162.213	-164.919	0.035656	0.041337	-1.079188	-1.080377	0.088564	63.6362	-1.080232	-2.720410E+14	-3.255541E-16	NaN
634	1.000000	0.052574	7.37125e+06	-45389.1	1005.82	-29772.6	0.000000	0.000000	6.052754	-0.028436	NaN	0.000000	0.001594	0.001701	28.0842	0.039930	0.001835	21.7557	-76.9279	17.7773	-0.049539	0.051182	-1.069141	-1.070532	-0.028436	21.7557	-1.068161	-1.872734E+14	1.518408E-16	NaN
634	1.000000	0.062565	7.37125e+06	-45389.1	1005.82	-29772.6	0.000000	0.000000	6.062745	-0.036884	NaN	0.000000	0.001547	0.001693	28.0842	0.099172	0.002028	48.9045	140.469	-164.141	-0.033917	0.061281	-1.059149	-1.060434	-0.036884	48.9045	-1.058584	-1.392474E+14	2.648836E-16	NaN
634	1.000000	0.072591	7.37125e+06	-45389.1	1005.82	-29772.6	0.000000	0.000000	6.072770	-0.038047	NaN	0.000000	0.001610	0.001702	28.0841	0.014880	0.001885	7.895616	87.0497	15.2501	-0.040237	0.071185	-1.049124	-1.050529	-0.038047	7.895616	-1.045510	-9.290822E+13	4.095115E-16	NaN
634	1.000000	0.082572	7.37125e+06	-45389.1	1005.82	-29772.6	0.000000	0.000000	6.082751	-0.043372	NaN	0.000000	0.001609	0.001703	28.0844	0.083905	0.002112	39.7364	121.96	-169.124	-0.067376	0.081262	-1.039142	-1.040453	-0.043372	39.7364	-1.038324	-7.437520E+13	5.831560E-16	NaN
634	1.000000	0.092577	7.37125e+06	-45389.1	1005.82	-29772.6	0.000000	0.000000	6.092758	-0.002556	NaN	0.000000	0.001554	0.001716	28.0841	0.046178	0.001949	23.6914	22.1209	16.4506	-0.091687	0.091249	-1.029137	-1.030465	-0.002556	23.6914	-1.029056	-5.581971E+13	4.579421E-17	NaN
634	1.000000	0.102601	7.37125e+06	-45389.1	1005.82	-29772.6	0.000000	0.000000	6.102782	-0.001071	NaN	0.000000	0.001586	0.001719	28.0841	0.120243	0.002052	58.5883	63.9001	-166.973	0.005761	0.101291	-1.019114	-1.020423	-0.001071	58.5883	-1.019100	-4.100546E+13	2.612139E-17	NaN
634	1.000000	0.112590	7.37125e+06	-45389.1	1005.82	-29772.6	0.000000	0.000000	6.112771	0.006651	NaN	0.000000	0.001625	0.001730	28.0845	0.049960	0.001949	25.6318	13.6027	13.5329	-0.037598	0.111275	-1.009125	-1.010440	0.006651	25.6318	-1.009319	-3.028453E+13	-2.196169E-16	NaN
634	1.000000	0.122588	7.37125e+06	-45389.1	1005.82	-29772.6	0.000000	0.000000	6.122768	-0.019769	NaN	0.000000	0.001598	0.001668	28.0842	0.077593	0.002057	37.7155	73.3922	-164.757	0.079999	0.121283	-0.999127	-1.000431	-0.019769	37.7155	-0.998733	-2.181305E+13	9.062766E-16	NaN
634	1.000000	0.132597	7.37125e+06	-45389.1	1005.82	-29772.6	0.000000	0.000000	6.132779	0.015687	NaN	0.000000	0.001594	0.001670	28.0829	0.076420	0.002116	36.1193	1.021693	11.8716	0.036287	0.131247	-0.989118	-0.990468	0.015687	36.1193	-0.989443	-1.635366E+13	-9.592532E-16	NaN
634	1.000000	0.142580	7.37125e+06	-45389.1	1005.82	-29772.6	0.000000	0.000000	6.142761	-0.002926	NaN	0.000000	0.001632	0.001694	28.0828	0.051711	0.001965	26.317	-50.739	-166.922	-0.000359	0.141261	-0.979134	-0.980454	-0.002926	26.317	-0.979051	-1.184744E+13	2.469995E-16	NaN
634	1.000000	0.152598	7.37125e+06	-45389.1	1005.82	-29772.6	0.000000	0.000000	6.152780	0.017342	NaN	0.000000	0.001593	0.001725	28.0829	0.075331	0.002183	34.5024	100.001	16.6622	-0.037778	0.151228	-0.969116	-0.970486	0.017342	34.5024	-0.969493	-8.807169E+12	-1.969078E-15	NaN
634	1.000000	0.162617	7.37125e+06	-45389.1	1005.82	-29772.6	0.000000	0.000000	6.162800	0.042081	NaN	0.000000	0.001581	0.001732	28.0827	0.023028	0.001973	11.6743	113.426	-164.765	0.086173	0.161302	-0.959098	-0.960413	0.042081	11.6743	-0.961801	-6.936636E+12	-6.066446E-15	NaN
634	1.000000	0.172662	7.37125e+06	-45389.1	1005.82	-29772.6	0.000000	0.000000	6.172846	0.062514	NaN	0.000000	0.001637	0.001712	28.083	0.052029	0.001977	26.3118	74.9194	15.6879	0.022638	0.171244	-0.949052	-0.950471	0.062514	26.3118	-0.950834	-4.934896E+12	-1.266779E-14	NaN
634	1.000000	0.182642	7.37125e+06	-45389.1	1005.82	-29772.6	0.000000	0.000000	6.182824	0.019209	NaN	0.000000	0.001615	0.001679	28.083	0.062586	0.002018	31.0096	112.634	-169.027	0.022456	0.181339	-0.939073	-0.940375	0.019209	31.0096	-0.939537	-3.474535E+12	-5.528467E-15	NaN
634	1.000000	0.192622	7.37125e+06	-45389.1	1005.82	-29772.6	0.000000	0.000000	6.192803	0.003792	NaN	0.000000	0.001598	0.001685	28.0828	0.122128	0.001936	63.0727	-53.9499	17.3214	0.007501	0.191319	-0.929093	-0.930395	0.003792	63.0727	-0.929138	-2.515123E+12	-1.507589E-15	NaN
634	1.000000	0.202609	7.37125e+06	-45389.1	1005.82	-29772.6	0.000000	0.000000	6.202792	0.044782	NaN	0.000000	0.001581	0.001697	28.0828	0.112842	0.001911	59.0628	67.5102	-164.252	0.079890	0.201348	-0.919106	-0.920367	0.044782	59.0628	-0.919675	-1.874186E+12	-2.389429E-14	NaN
634	1.000000	0.212621	7.37125e+06	-45389.1	1005.82	-29772.6	0.000000	0.000000	6.212801	-0.016358	NaN	0.000000	0.001594	0.001693	28.0828	0.096791	0.001969	49.1478	-48.0492	16.4451	0.009331	0.211292	-0.909094	-0.910423	-0.016358	49.1478	-0.908844	-1.338282E+12	1.222313E-14	NaN
634	1.000000	0.222638	7.37125e+06	-45389.1	1005.82	-29772.6	0.000000	0.000000	6.222820	0.021947	NaN	0.000000	0.001606	0.001747	28.0828	0.113138	0.002045	55.3281	75.825	-165.482	0.021309	0.221335	-0.899077	-0.900380	0.021947	55.3281	-0.899374	-9.968088E+11	-2.201772E-14	NaN
634	1.000000	0.232649	7.37125e+06	-45389.1	1005.82	-29772.6	0.000000	0.000000	6.232829	-0.003430	NaN	0.000000	0.001606	0.001791	28.0825	0.048861	0.001821	26.8265	-176.698	14.589	0.001199	0.231328	-0.889066	-0.890387	-0.003430	26.8265	-0.888970	-7.210975E+11	4.756112E-15	NaN
634	1.000000	0.242644	7.37125e+06	-45389.1	1005.82	-29772.6	0.000000	0.000000	6.242825	0.002226	NaN	0.000000	0.001623	0.001780	28.0827	0.122130	0.002041	59.8508	-151.938	-164.801	-0.013297	0.241377	-0.879070	-0.880338	0.002226	59.8508	-0.879098	-5.302899E+11	-4.197007E-15	NaN
634	1.000000	0.252652	7.37125e+06	-45389.1	1005.82	-29772.6	0.000000	0.000000	6.252834	0.021013	NaN	0.000000	0.001630	0.001773	28.0829	0.126714	0.001981	63.9607	-19.1607	13.3792	-0.007120	0.251261	-0.869062	-0.870454	0.021013	63.9607	-0.869309	-3.909236E+11	-5.375276E-14	NaN
634	1.000000	0.262646	7.37125e+06	-45389.1	1005.82	-29772.6	0.000000	0.000000	6.262827	-0.008621	NaN	0.000000	0.001644	0.001725	28.0832	0.039723	0.002046	19.4189	17.9213	-167.356	-0.025873	0.261275	-0.859069	-0.860440	-0.008621	19.4189	-0.858736	-2.811949E+11	3.065802E-14	NaN
634	1.000000	0.272647	7.37125e+06	-45389.1	1005.82	-29772.6	0.000000	0.000000	6.272829	0.011353	NaN	0.000000	0.001606	0.001749	28.0841	0.087299	0.001832	47.6461	74.7926	14.4513	0.012477	0.271346	-0.849068	-0.850369	0.011353	47.6461	-0.849246	-2.091852E+11	-5.427331E-14	NaN
634	1.000000	0.282653	7.37125e+06	-45389.1	1005.82	-29772.6	0.000000	0.000000	6.282837	0.067219	NaN	0.000000	0.001590	0.001766	28.0841	0.080622	0.002106	38.279	77.9189	-161.698	0.039432	0.281380	-0.839062	-0.840334	0.067219	38.279	-0.840379	-1.586442E+11	-4.237117E-13	NaN
634	1.000000	0.292668	7.37125e+06	-45389.1	1005.82	-29772.6	0.000000	0.000000	6.292848	-0.012907	NaN	0.000000	0.001630	0.001725	28.0844	0.080685	0.002088	38.6473	-85.6419	12.7763	0.013377	0.291319	-0.829047	-0.830396	-0.012907	38.6473	-0.828796	-1.105268E+11	1.167781E-13	NaN
634	1.000000	0.302696	7.37125e+06	-45389.1	1005.82	-29772.6	0.000000	0.000000	6.302877	-0.008547	NaN	0.000000	0.001593	0.001762	28.0841	0.040868	0.001999	20.4442	-44.8021	-164.199	0.013293	0.301413	-0.819018	-0.820302	-0.008547	20.4442	-0.818705	-8.065811E+10	1.059690E-13	NaN
634	1.000000	0.312679	7.37125e+06	-45389.1	1005.82	-29772.6	0.000000	0.000000	6.312862	0.035613	NaN	0.000000	0.001622	0.001751	28.0843	0.026834	0.001937	13.8509	79.5705	16.6312	0.021284	0.311414	-0.809035	-0.810301	0.035613	13.8509	-0.810964	-6.333561E+10	-5.622879E-13	NaN
634	1.000000	0.322690	7.37125e+06	-45389.1	1005.82	-29772.6	0.000000	0.000000	6.322872	0.027419	NaN	0.000000	0.001641	0.001743	28.084	0.135540	0.002110	64.2269	-165.946	-163.573	0.015987	0.321350	-0.799025	-0.800365	0.027419	64.2269	-0.799345	-4.405249E+10	-6.224240E-13	NaN
634	1.000000	0.332654	7.37125e+06	-45389.1	1005.82	-29772.6	0.000000	0.000000	6.332833	-0.052037	NaN	0.000000	0.001637	0.001762	28.0843	0.058045	0.001873	30.992	-68.5065	16.319	-0.061830	0.331354	-0.789061	-0.790360	-0.052037	30.992	-0.787802	-3.070615E+10	1.694676E-12	NaN
634	1.000000	0.342687	7.37125e+06	-45389.1	1005.82	-29772.6	0.000000	0.000000	6.342870	0.032117	NaN	0.000000	0.001569	0.001767	28.0839	0.029443	0.001896	15.525	-75.6423	-164.623	0.032215	0.341377	-0.779027	-0.780338	0.032117	15.525	-0.780579	-2.449624E+10	-1.311112E-12	NaN
634	1.000000	0.352708	7.37125e+06	-45389.1	1005.82	-29772.6	0.000000	0.000000	6.352890	0.027698	NaN	0.000000	0.001604	0.001735	28.0841	0.120202	0.001862	64.5717	30.1953	15.0243	0.113768	0.351397	-0.769006	-0.770317	0.027698	64.5717	-0.769328	-1.722540E+10	-1.607981E-12	NaN
634	1.000000	0.362705	7.37125e+06	-45389.1	1005.82	-29772.6	0.000000	0.000000	6.362885	-0.032376	NaN	0.000000	0.001623	0.001787	28.0842	0.079959	0.002081	38.4256	-151.768	-165.345	-0.034929	0.361389	-0.759009	-0.760326	-0.032376	38.4256	-0.758377	-1.222438E+10	2.648509E-12	NaN
634	1.000000	0.372674	7.37125e+06	-45389.1	1005.82	-29772.6	0.000000	0.000000	6.372855	0.011848	NaN	0.000000	0.001630	0.001795	28.0843	0.041891	0.001967	21.3001	153.693	17.6348	0.070055	0.371375	-0.749041	-0.750339	0.011848	21.3001	-0.749458	-9.243739E+9	-1.281708E-12	NaN
634	1.000000	0.382689	7.37125e+06	-45389.1	1005.82	-29772.6	0.000000	0.000000	6.382870	0.016168	NaN	0.000000	0.001548	0.001780	28.0841	0.011764	0.001921	6.123478	-9.616788	-166.079	0.040469	0.381382	-0.739026	-0.740333	0.016168	6.123478	-0.741006	-7.091864E+9	-2.279726E-12	NaN
634	1.000000	0.392717	7.37125e+06	-45389.1	1005.82	-29772.6	0.000000	0.000000	6.392894	-0.080422	NaN	0.000000	0.001591	0.001729	28.0841	0.068474	0.001922	35.6302	49.4488	17.5728	-0.069211	0.391371	-0.728998	-0.730344	-0.080422	35.6302	-0.727305	-4.614021E+9	1.742989E-11	NaN
634	1.000000	0.402716	7.37125e+06	-45389.1	1005.82	-29772.6	0.000000	0.000000	6.402898	0.014337	NaN	0.000000	0.001574	0.001751	28.0831	0.144281	0.001955	73.8121	-157.007	-164.541	0.009508	0.401415	-0.718998	-0.720299	0.014337	73.8121	-0.719144	-3.571086E+9	-4.014725E-12	NaN
634	1.000000	0.412706	7.37125e+06	-45389.1	1005.82	-29772.6	0.000000	0.000000	6.412885	-0.042123	NaN	0.000000	0.001630	0.001747	28.0829	0.043369	0.002018	21.4927	168.95	16.8349	-0.004466	0.411347	-0.709009	-0.710368	-0.042123	21.4927	-0.707539	-2.480029E+9	1.698507E-11	NaN
634	1.000000	0.422740	7.37125e+06	-45389.1	1005.82	-29772.6	0.000000	0.000000	6.422922	0.037353	NaN	0.000000	0.001610	0.001762	28.083	0.151878	0.001962	77.4119	-57.8912	-167.954	0.054559	0.421430	-0.698975	-0.700285	0.037353	77.4119	-0.699337	-1.916366E+9	-1.949159E-11	NaN
634	1.000000	0.432726	7.37125e+06	-45389.1	1005.82	-29772.6	0.000000	0.000000	6.432909	0.045641	NaN	0.000000	0.001595	0.001760	28.0831	0.128101	0.002141	59.8426	100.509	15.2249	-0.023198	0.431366	-0.688989	-0.690349	0.045641	59.8426	-0.689561	-1.409007E+9	-3.239255E-11	NaN
634	1.000000	0.442715	7.37125e+06	-45389.1	1005.82	-29772.6	0.000000	0.000000	6.442896	0.010150	NaN	0.000000	0.001606	0.001769	28.0832	0.060905	0.001974	30.8496	108.169	-165.176	-0.002738	0.441454	-0.679000	-0.680260	0.010150	30.8496	-0.679247	-1.018368E+9	-9.967134E-12	NaN
634	1.000000	0.452733	7.37125e+06	-45389.1	1005.82	-29772.6	0.000000	0.000000	6.452915	0.027303	NaN	0.000000	0.001634	0.001765	28.0829	0.040987	0.002046	20.034	34.4792	15.9874	0.015038	0.451408	-0.668982	-0.670306	0.027303	20.034	-0.670004	-7.611041E+8	-3.587267E-11	NaN
634	1.000000	0.462757	7.37125e+06	-45389.1	1005.82	-29772.6	0.000000	0.000000	6.462938	0.001827	NaN	0.000000	0.001663	0.001787	28.0828	0.049480	0.002042	24.2328	69.4671	-166.927	0.057255	0.461469	-0.658958	-0.660245	0.001827	24.2328	-0.659014	-5.382251E+8	-3.394008E-12	NaN
634	1.000000	0.472743	7.37125e+06	-45389.1	1005.82	-29772.6	0.000000	0.000000	6.472924	-0.017873	NaN	0.000000	0.001613	0.001770	28.083	0.040899	0.002022	20.2294	-124.171	17.6506	0.006710	0.471347	-0.648971	-0.650368	-0.017873	20.2294	-0.648309	-3.839265E+8	4.655299E-11	NaN
634	1.000000	0.482727	7.37125e+06	-45389.1	1005.82	-29772.6	0.000000	0.000000	6.482906	-0.041542	NaN	0.000000	0.001629	0.001758	28.0832	0.040246	0.001952	20.6196	10.6976	-167.121	0.081726	0.481496	-0.638988	-0.640219	-0.041542	20.6196	-0.637477	-2.726865E+8	1.523452E-10	NaN
634	1.000000	0.492752	7.37125e+06	-45389.1	1005.82	-29772.6	0.000000	0.000000	6.492934	0.033887	NaN	0.000000	0.001646	0.001762	28.0829	0.069967	0.002043	34.2545	57.0702	12.5816	0.018535	0.491382	-0.628963	-0.630333	0.033887	34.2545	-0.629705	-2.132918E+8	-1.588772E-10	NaN
634	1.000000	0.502764	7.37125e+06	-45389.1	1005.82	-29772.6	0.000000	0.000000	6.502944	-0.027709	NaN	0.000000	0.001638	0.001768	28.083	0.034607	0.002105	16.4373	-44.5434	-168.246	-0.088173	0.501390	-0.618951	-0.620325	-0.027709	16.4373	-0.617687	-1.458250E+8	1.900180E-10	NaN
634	1.000000	0.512782	7.37126e+06	-45389.1	1005.82	-29772.6	0.000000	0.000000	6.512966	0.063980	NaN	0.000000	0.001643	0.001776	28.083	0.057370	0.001964	29.2178	31.924	13.675	0.060056	0.511413	-0.608933	-0.610302	0.063980	29.2178	-0.610575	-1.164190E+8	-5.495707E-10	NaN
634	1.000000	0.522759	7.37126e+06	-45389.1	1005.82	-29772.6	0.000000	0.000000	6.522938	-0.043055	NaN	0.000000	0.001621	0.001771	28.0829	0.027599	0.002087	13.2256	129.896	-168.21	-0.046162	0.521436	-0.598955	-0.600279	-0.043055	13.2256	-0.596514	-7.454861E+7	5.775426E-10	NaN
634	1.000000	0.532789	7.37126e+06	-45389.1	1005.82	-29772.6	0.000000	0.000000	6.532969	-0.017293	NaN	0.000000	0.001614	0.001794	28.0826	0.104838	0.001991	52.6679	-151.228	15.7467	0.016484	0.531410	-0.588925	-0.590304	-0.017293	52.6679	-0.588679	-5.813737E+7	2.974438E-10	NaN
634	1.000000	0.542772	7.37126e+06	-45389.1	1005.82	-29772.6	0.000000	0.000000	6.542957	0.099397	NaN	0.000000	0.001608	0.001756	28.0842	0.058160	0.002051	28.355	-72.635	-167.457	0.023605	0.541475	-0.578943	-0.580240	0.099397	28.355	-0.581572	-4.638937E+7	-2.142662E-9	NaN
634	1.000000	0.552772	7.37126e+06	-45389.1	1005.82	-29772.6	0.000000	0.000000	6.552952	-0.034345	NaN	0.000000	0.001612	0.001775	28.0842	0.089056	0.002049	43.4607	61.7312	13.1428	-0.056285	0.551406	-0.568943	-0.570309	-0.034345	43.4607	-0.568350	-3.046694E+7	1.127285E-9	NaN
634	1.000000	0.562809	7.37126e+06	-45389.1	1005.82	-29772.6	0.000000	0.000000	6.562991	0.033178	NaN	0.000000	0.001572	0.001745	28.084	0.096625	0.002041	47.3323	100.962	-162.394	0.009482	0.561457	-0.558906	-0.560258	0.033178	47.3323	-0.559432	-2.293593E+7	-1.446559E-9	NaN
634	1.000000	0.572801	7.37126e+06	-45389.1	1005.82	-29772.6	0.000000	0.000000	6.572979	-0.065836	NaN	0.000000	0.001582	0.001782	28.084	0.009970	0.001923	5.185405	136.754	15.6619	0.021972	0.571422	-0.548914	-0.550293	-0.065836	5.185405	-0.539392	-1.210386E+7	5.439236E-9	NaN
634	1.000000	0.582779	7.37126e+06	-45389.1	1005.82	-29772.6	0.000000	0.000000	6.582960	-0.000521	NaN	0.000000	0.001590	0.001759	28.0839	0.025924	0.001886	13.7491	61.3643	-165.196	0.039049	0.581455	-0.538936	-0.540260	-0.000521	13.7491	-0.538907	-1.191802E+7	4.374984E-11	NaN
634	1.000000	0.592796	7.37126e+06	-45389.1	1005.82	-29772.6	0.000000	0.000000	6.592976	-0.017931	NaN	0.000000	0.001638	0.001790	28.0838	0.068436	0.001941	35.2575	-87.6755	14.0784	0.018900	0.591447	-0.528918	-0.530267	-0.017931	35.2575	-0.528537	-8.55569e+06	2.095807E-9	NaN
634	1.000000	0.602804	7.37126e+06	-45389.1	1005.82	-29772.6	0.000000	0.000000	6.602985	0.002640	NaN	0.000000	0.001621	0.001752	28.0837	0.027181	0.002083	13.0474	14.1082	-163.393	-0.136581	0.601473	-0.518910	-0.520241	0.002640	13.0474	-0.519062	-6.31763e+06	-4.178319E-10	NaN
634	1.000000	0.612842	7.37126e+06	-45389.1	1005.82	-29772.6	0.000000	0.000000	6.613024	0.010838	NaN	0.000000	0.001568	0.001759	28.0838	0.089994	0.002048	43.9416	21.2805	16.1185	0.012470	0.611478	-0.508872	-0.510237	0.010838	43.9416	-0.509057	-4.58442e+06	-2.364132E-9	NaN
634	1.000000	0.622803	7.37126e+06	-45389.1	1005.82	-29772.6	0.000000	0.000000	6.622982	-0.056250	NaN	0.000000	0.001591	0.001775	28.0839	0.069623	0.001980	35.1647	71.4306	-163.151	-0.027628	0.621522	-0.498912	-0.500193	-0.056250	35.1647	-0.497712	-3.18486e+06	1.766177E-8	NaN
634	1.000000	0.632810	7.37126e+06	-45389.1	1005.82	-29772.6	0.000000	0.000000	6.632991	0.008766	NaN	0.000000	0.001633	0.001816	28.0841	0.147181	0.002095	70.2468	-17.981	18.242	-0.048400	0.631503	-0.488905	-0.490212	0.008766	70.2468	-0.488998	-2.40654e+06	-3.642743E-9	NaN
634	1.000000	0.642818	7.37126e+06	-45389.1	1005.82	-29772.6	0.000000	0.000000	6.643000	0.009765	NaN	0.000000	0.001609	0.001778	28.0842	0.121485	0.001936	62.742	-174.325	-165.403	0.028116	0.641552	-0.478896	-0.480162	0.009765	62.742	-0.479013	-1.74466e+06	-5.596968E-9	NaN
634	1.000000	0.652830	7.37126e+06	-45389.1	1005.82	-29772.6	0.000000	0.000000	6.653013	0.057267	NaN	0.000000	0.001553	0.001771	28.0842	0.040670	0.001975	20.5903	123.608	11.6814	0.059130	0.651473	-0.468885	-0.470241	0.057267	20.5903	-0.470971	-1.34592e+06	-4.254853E-8	NaN
634	1.000000	0.662851	7.37126e+06	-45389.1	1005.82	-29772.6	0.000000	0.000000	6.663033	0.012507	NaN	0.000000	0.001578	0.001775	28.0841	0.028108	0.001995	14.0891	88.9503	-162.767	0.032219	0.661511	-0.458863	-0.460204	0.012507	14.0891	-0.459529	-929826	-1.345138E-8	NaN
634	1.000000	0.672832	7.37126e+06	-45389.1	1005.82	-29772.6	0.000000	0.000000	6.673013	-0.011745	NaN	0.000000	0.001594	0.001772	28.0835	0.063485	0.002140	29.6617	-130.427	15.6522	0.020773	0.671456	-0.448882	-0.450259	-0.011745	29.6617	-0.448585	-652258	1.800627E-8	NaN
634	1.000000	0.682840	7.37126e+06	-45389.1	1005.82	-29772.6	0.000000	0.000000	6.683021	0.008999	NaN	0.000000	0.001566	0.001769	28.0828	0.095448	0.001951	48.9302	-71.608	-164.074	0.027492	0.681513	-0.438875	-0.440201	0.008999	48.9302	-0.439013	-478002	-1.882656E-8	NaN
634	1.000000	0.692847	7.37126e+06	-45389.1	1005.82	-29772.6	0.000000	0.000000	6.693027	-0.029012	NaN	0.000000	0.001584	0.001818	28.0831	0.118020	0.002056	57.3897	-120.384	10.8926	0.032343	0.691515	-0.428868	-0.430200	-0.029012	57.3897	-0.428489	-339373	8.548677E-8	NaN
634	1.000000	0.702846	7.37126e+06	-45389.1	1005.82	-29772.6	0.000000	0.000000	6.703025	-0.034048	NaN	0.000000	0.001625	0.001751	28.0828	0.060550	0.002101	28.8191	-21.9804	-163.434	-0.016484	0.701555	-0.418869	-0.420159	-0.034048	28.8191	-0.417983	-240878	1.413489E-7	NaN
634	1.000000	0.712849	7.37126e+06	-45389.1	1005.82	-29772.6	0.000000	0.000000	6.713032	0.040187	NaN	0.000000	0.001619	0.001726	28.0827	0.066727	0.001942	34.3628	-76.3772	14.7837	-0.019706	0.711497	-0.408866	-0.410217	0.040187	34.3628	-0.409743	-183967	-2.184440E-7	NaN
634	1.000000	0.722857	7.37126e+06	-45389.1	1005.82	-29772.6	0.000000	0.000000	6.723035	-0.064776	NaN	0.000000	0.001610	0.001725	28.0827	0.103532	0.002019	51.2794	86.886	-165.327	-0.008774	0.721521	-0.398858	-0.400193	-0.064776	51.2794	-0.397910	-124791	5.190761E-7	NaN
634	1.000000	0.732862	7.37126e+06	-45389.1	1005.82	-29772.6	0.000000	0.000000	6.733045	0.044774	NaN	0.000000	0.001618	0.001799	28.083	0.014546	0.002022	7.192856	-42.1073	16.7684	-0.014550	0.731523	-0.388853	-0.390192	0.044774	7.192856	-0.393521	-108021	-4.144942E-7	NaN
634	1.000000	0.742879	7.37126e+06	-45389.1	1005.82	-29772.6	0.000000	0.000000	6.743057	-0.066413	NaN	0.000000	0.001649	0.001799	28.0828	0.076064	0.002050	37.1121	144.503	-165.789	0.016952	0.741568	-0.378835	-0.380147	-0.066413	37.1121	-0.377493	-63664.8	1.043164E-6	NaN
634	1.000000	0.752874	7.37126e+06	-45389.1	1005.82	-29772.6	0.000000	0.000000	6.753057	0.045525	NaN	0.000000	0.001622	0.001837	28.0829	0.068552	0.002177	31.496	26.5435	15.2673	-0.013851	0.751493	-0.368840	-0.370221	0.045525	31.496	-0.369924	-49549.5	-9.187815E-7	NaN
634	1.000000	0.762894	7.37126e+06	-45389.1	1005.82	-29772.6	0.000000	0.000000	6.763075	-0.009296	NaN	0.000000	0.001587	0.001788	28.0829	0.052880	0.002011	26.299	-121.947	-166.173	-0.039509	0.761545	-0.358821	-0.360169	-0.009296	26.299	-0.358556	-33959.4	2.737354E-7	NaN
634	1.000000	0.772896	7.37126e+06	-45389.1	1005.82	-29772.6	0.000000	0.000000	6.773076	-0.024405	NaN	0.000000	0.001595	0.001815	28.0834	0.064230	0.002020	31.7938	-159.537	13.1653	0.025440	0.771526	-0.348818	-0.350188	-0.024405	31.7938	-0.348243	-24070.6	1.013906E-6	NaN
634	1.000000	0.782876	7.37126e+06	-45389.1	1005.82	-29772.6	0.000000	0.000000	6.783056	-0.036302	NaN	0.000000	0.001632	0.001799	28.0828	0.064476	0.001926	33.4819	29.3945	-165.661	-0.064642	0.781603	-0.338838	-0.340112	-0.036302	33.4819	-0.338025	-17090.5	2.124123E-6	NaN
634	1.000000	0.792909	7.37126e+06	-45389.1	1005.82	-29772.6	0.000000	0.000000	6.793090	0.003972	NaN	0.000000	0.001666	0.001793	28.0829	0.026454	0.002057	12.8594	-81.2983	14.347	-0.010446	0.791528	-0.328806	-0.330187	0.003972	12.8594	-0.329037	-12628.4	-3.145096E-7	NaN
634	1.000000	0.802924	7.37126e+06	-45389.1	1005.82	-29772.6	0.000000	0.000000	6.803105	-0.005303	NaN	0.000000	0.001647	0.001791	28.083	0.052045	0.002004	25.9652	-146.753	-167.524	0.009949	0.801547	-0.318791	-0.320168	-0.005303	25.9652	-0.318637	-8883.35	5.969548E-7	NaN
634	1.000000	0.812890	7.37126e+06	-45389.1	1005.82	-29772.6	0.000000	0.000000	6.813071	-0.010849	NaN	0.000000	0.001619	0.001759	28.0841	0.098339	0.002008	48.9793	-36.4763	17.4168	-0.035026	0.811521	-0.308825	-0.310194	-0.010849	48.9793	-0.308659	-6326.97	1.714775E-6	NaN
634	1.000000	0.822876	7.37126e+06	-45389.1	1005.82	-29772.6	0.000000	0.000000	6.823058	0.032564	NaN	0.000000	0.001596	0.001777	28.0839	0.013941	0.002090	6.671268	-15.9677	-166.889	0.000754	0.821606	-0.298839	-0.300109	0.032564	6.671268	-0.302499	-5126.44	-6.352099E-6	NaN
634	1.000000	0.832916	7.37126e+06	-45389.1	1005.82	-29772.6	0.000000	0.000000	6.833100	0.086268	NaN	0.000000	0.001615	0.001738	28.0842	0.101985	0.002018	50.5476	29.0623	16.8269	0.044024	0.831541	-0.288799	-0.290174	0.086268	50.5476	-0.290079	-3345.68	-2.578487E-5	NaN
634	1.000000	0.842900	7.37126e+06	-45389.1	1005.82	-29772.6	0.000000	0.000000	6.843081	0.023207	NaN	0.000000	0.001618	0.001737	28.0842	0.022891	0.001929	11.8681	-1.757554	-165.796	0.058702	0.841557	-0.278815	-0.280157	0.023207	11.8681	-0.280282	-2383.52	-9.736293E-6	NaN
634	1.000000	0.852900	7.37126e+06	-45389.1	1005.82	-29772.6	0.000000	0.000000	6.853081	-0.010040	NaN	0.000000	0.001657	0.001753	28.0843	0.107205	0.002060	52.0504	126.653	15.4743	0.055873	0.851564	-0.268815	-0.270151	-0.010040	52.0504	-0.268670	-1589.7	6.315719E-6	NaN
634	1.000000	0.862900	7.37126e+06	-45389.1	1005.82	-29772.6	0.000000	0.000000	6.863080	-0.016807	NaN	0.000000	0.001604	0.001749	28.0841	0.099875	0.002200	45.3956	-165.889	-169.775	0.005920	0.861601	-0.258815	-0.260113	-0.016807	45.3956	-0.258537	-1112.96	1.510076E-5	NaN
634	1.000000	0.872934	7.37126e+06	-45389.1	1005.82	-29772.6	0.000000	0.000000	6.873116	0.040951	NaN	0.000000	0.001613	0.001743	28.0844	0.068343	0.001986	34.4142	3.334750	13.7298	0.152455	0.871566	-0.248781	-0.250149	0.040951	34.4142	-0.249673	-812.673	-5.039057E-5	NaN
634	1.000000	0.882902	7.37126e+06	-45389.1	1005.82	-29772.6	0.000000	0.000000	6.883079	-0.081562	NaN	0.000000	0.001596	0.001787	28.084	0.066205	0.002096	31.5799	-105.066	-165.411	-0.048194	0.881608	-0.238813	-0.240107	-0.081562	31.5799	-0.236876	-513.659	0.000159	NaN
634	1.000000	0.892907	7.37126e+06	-45389.1	1005.82	-29772.6	0.000000	0.000000	6.893087	-0.014482	NaN	0.000000	0.001626	0.001764	28.0842	0.052547	0.002023	25.9688	88.4438	11.7971	0.052852	0.891599	-0.228808	-0.230116	-0.014482	25.9688	-0.228390	-377.632	3.834833E-5	NaN
634	1.000000	0.902892	7.37126e+06	-45389.1	1005.82	-29772.6	0.000000	0.000000	6.903074	0.020480	NaN	0.000000	0.001608	0.001755	28.0842	0.134330	0.002047	65.639	-77.2047	-163.34	0.028298	0.901590	-0.218823	-0.220124	0.020480	65.639	-0.219057	-268.282	-7.633780E-5	NaN
634	1.000000	0.912951	7.37126e+06	-45389.1	1005.82	-29772.6	0.000000	0.000000	6.913130	-0.042896	NaN	0.000000	0.001645	0.001781	28.0841	0.071559	0.001973	36.2774	94.4017	19.207	-0.019464	0.911500	-0.208764	-0.210215	-0.042896	36.2774	-0.207877	-177.17	0.000242	NaN
634	1.000000	0.922942	7.37126e+06	-45389.1	1005.82	-29772.6	0.000000	0.000000	6.923122	-0.018632	NaN	0.000000	0.001638	0.001724	28.0842	0.092795	0.001932	48.0234	-24.6839	-166.82	-0.016298	0.921649	-0.198773	-0.200066	-0.018632	48.0234	-0.198482	-124.371	0.000150	NaN
634	1.000000	0.932956	7.37126e+06	-45389.1	1005.82	-29772.6	0.000000	0.000000	6.933138	0.015060	NaN	0.000000	0.001628	0.001712	28.0842	0.092660	0.002095	44.2346	-87.6476	14.2822	0.150074	0.931588	-0.188759	-0.190126	0.015060	44.2346	-0.189014	-86.6047	-0.000174	NaN
634	1.000000	0.942968	7.37126e+06	-45389.1	1005.82	-29772.6	0.000000	0.000000	6.943149	-0.000780	NaN	0.000000	0.001633	0.001716	28.0842	0.116148	0.002063	56.3113	160.856	-166.397	0.023546	0.941648	-0.178746	-0.180067	-0.000780	56.3113	-0.178736	-58.0679	1.344013E-5	NaN
634	1.000000	0.952985	7.37126e+06	-45389.1	1005.82	-29772.6	0.000000	0.000000	6.953164	-0.057288	NaN	0.000000	0.001604	0.001724	28.0829	0.111222	0.002113	52.6358	143.231	17.2164	-0.093592	0.951565	-0.168729	-0.170150	-0.057288	52.6358	-0.167913	-37.7827	0.001516	NaN
634	1.000000	0.962935	7.37126e+06	-45389.1	1005.82	-29772.6	0.000000	0.000000	6.963119	0.087187	NaN	0.000000	0.001616	0.001756	28.083	0.021865	0.001946	11.237	-68.8358	-167.301	0.067417	0.961586	-0.158780	-0.160129	0.087187	11.237	-0.164599	-33.0572	-0.002637	NaN
634	1.000000	0.972973	7.37126e+06	-45389.1	1005.82	-29772.6	0.000000	0.000000	6.973151	-0.078557	NaN	0.000000	0.001585	0.001776	28.0833	0.036588	0.001994	18.3516	110.075	13.8297	-0.076976	0.971559	-0.148741	-0.150156	-0.078557	18.3516	-0.145531	-14.9961	0.005238	NaN
634	1.000000	0.982930	7.37126e+06	-45389.1	1005.82	-29772.6	0.000000	0.000000	6.983112	0.018158	NaN	0.000000	0.001543	0.001787	28.0832	0.031692	0.002020	15.6884	56.7853	-164.024	0.023714	0.981666	-0.138785	-0.140048	0.018158	15.6884	-0.139653	-11.6531	-0.001558	NaN
634	1.000000	0.992938	7.37126e+06	-45389.1	1005.82	-29772.6	0.000000	0.000000	6.993118	-0.021873	NaN	0.000000	0.001605	0.001718	28.0829	0.031552	0.002158	14.6178	-159.869	14.5499	0.075348	0.991660	-0.128776	-0.130054	-0.021873	14.6178	-0.127654	-6.858807	0.003189	NaN
634	1.000000	1.002954	7.37126e+06	-45389.1	1005.82	-29772.6	0.000000	0.000000	7.003137	0.051516	NaN	0.000000	0.001573	0.001755	28.0829	0.139151	0.002068	67.282	-16.1003	-161.649	0.096206	1.001605	-0.118761	-0.120110	0.051516	67.282	-0.119335	-4.684299	-0.010998	NaN
634	1.000000	1.012943	7.37126e+06	-45389.1	1005.82	-29772.6	0.000000	0.000000	7.013122	-0.033418	NaN	0.000000	0.001626	0.001726	28.0829	0.055343	0.002030	27.2603	-29.148	15.6561	-0.046715	1.011564	-0.108772	-0.110150	-0.033418	27.2603	-0.107852	-2.706196	0.012349	NaN
634	1.000000	1.022997	7.37126e+06	-45389.1	1005.82	-29772.6	0.000000	0.000000	7.023176	-0.032917	NaN	0.000000	0.001620	0.001723	28.083	0.126473	0.002071	61.0583	-0.567176	-161.9	-0.027520	1.021663	-0.098718	-0.100051	-0.032917	61.0583	-0.098314	-1.675822	0.019642	NaN
634	1.000000	1.032945	7.37126e+06	-45389.1	1005.82	-29772.6	0.000000	0.000000	7.033126	-0.003429	NaN	0.000000	0.001610	0.001741	28.0827	0.039116	0.002010	19.459	-172.455	15.3478	0.011471	1.031634	-0.088770	-0.090081	-0.003429	19.459	-0.088637	-1.003958	0.003415	NaN
634	1.000000	1.042975	7.37126e+06	-45389.1	1005.82	-29772.6	0.000000	0.000000	7.043155	-0.020639	NaN	0.000000	0.001604	0.001719	28.0827	0.039532	0.002133	18.5343	-163.543	-165.065	0.007104	1.041651	-0.078739	-0.080063	-0.020639	18.5343	-0.077904	-0.548160	0.037652	NaN
634	1.000000	1.052956	7.37126e+06	-45389.1	1005.82	-29772.6	0.000000	0.000000	7.053138	0.017000	NaN	0.000000	0.001589	0.001749	28.0829	0.060537	0.001977	30.6284	101.66	15.492	-0.008913	1.051592	-0.068758	-0.070123	0.017000	30.6284	-0.069175	-0.324128	-0.052449	NaN
634	1.000000	1.063025	7.37126e+06	-45389.1	1005.82	-29772.6	0.000000	0.000000	7.063207	0.035458	NaN	0.000000	0.001612	0.001738	28.0825	0.015862	0.001972	8.044308	59.1281	-163.076	0.035468	1.061663	-0.058690	-0.060052	0.035458	8.044308	-0.061996	-0.205296	-0.172718	NaN
634	1.000000	1.072974	7.37126e+06	-45389.1	1005.82	-29772.6	0.000000	0.000000	7.073154	-0.023276	NaN	0.000000	0.001628	0.001715	28.0825	0.077567	0.002021	38.3728	-159.488	11.6281	0.023601	1.071627	-0.048741	-0.050088	-0.023276	38.3728	-0.048286	-0.080958	0.287505	NaN
634	1.000000	1.082984	7.37126e+06	-45389.1	1005.82	-29772.6	0.000000	0.000000	7.083165	-0.002191	NaN	0.000000	0.001579	0.001713	28.0836	0.083193	0.002094	39.7236	-3.533929	-163.501	0.047257	1.081717	-0.038731	-0.039998	-0.002191	39.7236	-0.038689	-0.041272	0.053080	NaN
634	1.000000	1.092996	7.37126e+06	-45389.1	1005.82	-29772.6	0.000000	0.000000	7.093175	-0.041114	NaN	0.000000	0.001588	0.001715	28.0841	0.027336	0.001987	13.7556	179.65	13.4242	0.073183	1.091665	-0.028718	-0.030050	-0.041114	13.7556	-0.026477	-0.018452	2.228157	NaN
634	1.000000	1.103012	7.37126e+06	-45389.1	1005.82	-29772.6	0.000000	0.000000	7.103192	-0.043298	NaN	0.000000	0.001598	0.001714	28.084	0.037882	0.001988	19.0566	-29.3387	-168.822	-0.074795	1.101672	-0.018702	-0.020043	-0.043298	19.0566	-0.016998	-0.010509	4.119945	NaN
634	1.000000	1.113031	7.37126e+06	-45389.1	1005.82	-29772.6	0.000000	0.000000	7.113211	-0.031818	NaN	0.000000	0.001593	0.001716	28.0839	0.078996	0.002124	37.1917	141.068	17.8219	8.877601E-5	1.111640	-0.008683	-0.010075	-0.031818	37.1917	-0.008042	-0.005256	6.053437	NaN
634	1.000000	1.122944	7.37126e+06	-45389.1	1005.82	-29772.6	0.000000	0.000000	7.123259	3.266469	NaN	0.000000	0.001591	0.001722	28.0846	3.785685	0.001681	2252.05	3.633940	-164.786	1.677009	1.121694	0.001229	-2.058424E-5	3.266469	2252.05	0.000141	0.000106	30811.8	199835
634	2.000000	1.129141	7.37126e+06	-45389.1	1005.82	-29772.6	0.000000	0.000000	7.129793	11.4624	NaN	0.000000	0.001611	0.001732	28.084	9.034303	0.001671	5404.95	7.819501	8.797376	10.9505	1.128711	0.007427	0.006996	11.4624	5404.95	0.005836	0.004909	2334.85	70478.4
634	2.000000	1.131565	7.37126e+06	-45389.1	1005.82	-29772.6	0.000000	0.000000	7.132285	13.1264	NaN	0.000000	0.001602	0.001703	28.0843	11.0905	0.001660	6682.98	3.778765	-169.194	12.3238	1.131286	0.009850	0.009572	13.1264	6682.98	0.008377	0.007433	1766.05	70822.6
634	2.000000	1.134063	7.37126e+06	-45389.1	1005.82	-29772.6	0.000000	0.000000	7.134943	17.0155	NaN	0.000000	0.001593	0.001684	28.0837	14.5897	0.001877	7773.16	9.518995	4.031334	16.7467	1.133650	0.012348	0.011935	17.0155	7773.16	0.010706	0.009977	1705.45	71099.7
634	2.000000	1.136565	7.37126e+06	-45389.1	1005.82	-29772.6	0.000000	0.000000	7.137599	20.7581	NaN	0.000000	0.001613	0.001713	28.085	16.5853	0.001779	9321.76	7.730579	-174.841	21.2682	1.136219	0.014850	0.014504	20.7581	9321.76	0.013180	0.012934	1604.87	74885.4
634	2.000000	1.139041	7.37126e+06	-45389.1	1005.82	-29772.6	0.000000	0.000000	7.140253	25.0699	NaN	0.000000	0.001602	0.001721	28.0842	18.1784	0.001788	10166	5.570326	6.641082	23.9953	1.138622	0.017327	0.016908	25.0699	10166	0.015477	0.015927	1574.07	73596.8
634	2.000000	1.141513	7.37126e+06	-45389.1	1005.82	-29772.6	0.000000	0.000000	7.142845	28.0048	NaN	0.000000	0.001648	0.001748	28.0845	21.2313	0.001810	11730	9.202146	179.205	27.1615	1.141207	0.019798	0.019493	28.0048	11730	0.018007	0.019507	1435.62	76731.8
634	2.000000	1.144028	7.37126e+06	-45389.1	1005.82	-29772.6	0.000000	0.000000	7.145528	32.0837	NaN	0.000000	0.001557	0.001733	28.0839	23.7277	0.001848	12839.3	6.842191	1.945387	31.185	1.143710	0.022314	0.021995	32.0837	12839.3	0.020439	0.023238	1380.68	76951.6
634	2.000000	1.146507	7.37126e+06	-45389.1	1005.82	-29772.6	0.000000	0.000000	7.148315	39.5878	NaN	0.000000	0.001587	0.001712	28.0836	26.2059	0.001912	13704.4	4.353503	-175.275	38.626	1.146206	0.024792	0.024491	39.5878	13704.4	0.022626	0.026838	1475.08	76429.6
634	2.000000	1.148997	7.37126e+06	-45389.1	1005.82	-29772.6	0.000000	0.000000	7.151133	47.555	NaN	0.000000	0.001606	0.001730	28.0834	28.1128	0.001768	15904.3	4.491623	1.243514	44.4397	1.148596	0.027282	0.026881	47.555	15904.3	0.025040	0.031088	1529.7	82412.5
634	2.000000	1.151474	7.37126e+06	-45389.1	1005.82	-29772.6	0.000000	0.000000	7.153898	54.5719	NaN	0.000000	0.001576	0.001723	28.0824	29.9735	0.001682	17821.8	7.211606	178.301	53.0596	1.151187	0.029760	0.029473	54.5719	17821.8	0.027463	0.035649	1530.8	86238
634	2.000000	1.154011	7.37126e+06	-45389.1	1005.82	-29772.6	0.000000	0.000000	7.156785	63.0917	NaN	0.000000	0.001599	0.001732	28.0827	32.2759	0.001724	18725.5	8.360349	-2.482268	64.1207	1.153625	0.032296	0.031910	63.0917	18725.5	0.029769	0.040267	1566.83	85257.5
634	2.000000	1.156477	7.37126e+06	-45389.1	1005.82	-29772.6	0.000000	0.000000	7.159465	68.2847	NaN	0.000000	0.001589	0.001771	28.0829	35.3131	0.001787	19757.2	4.412673	-179.192	66.2926	1.156111	0.034762	0.034396	68.2847	19757.2	0.032170	0.045362	1505.34	84752.8
634	2.000000	1.159017	7.37126e+06	-45389.1	1005.82	-29772.6	0.000000	0.000000	7.162342	76.4702	NaN	0.000000	0.001604	0.001774	28.0825	37.7394	0.001795	21029.3	4.681160	0.301626	75.3851	1.158646	0.037303	0.036931	76.4702	21029.3	0.034575	0.050762	1506.46	85276.8
634	2.000000	1.161465	7.37126e+06	-45389.1	1005.82	-29772.6	0.000000	0.000000	7.165168	85.6922	NaN	0.000000	0.001592	0.001794	28.0825	40.0563	0.001795	22311.5	5.588986	178.161	83.8955	1.161147	0.039750	0.039432	85.6922	22311.5	0.036869	0.056188	1525.09	85996.2
634	2.000000	1.163976	7.37126e+06	-45389.1	1005.82	-29772.6	0.000000	0.000000	7.168017	93.911	NaN	0.000000	0.001586	0.001756	28.0826	42.9883	0.001663	25842.5	2.642282	-0.253972	91.8221	1.163597	0.042261	0.041882	93.911	25842.5	0.039536	0.062834	1494.58	94191
634	2.000000	1.166516	7.37126e+06	-45389.1	1005.82	-29772.6	0.000000	0.000000	7.170806	99.9639	NaN	0.000000	0.001552	0.001732	28.0827	46.7095	0.001948	23973.3	8.536226	176.128	100.524	1.166067	0.044802	0.044352	99.9639	23973.3	0.041674	0.068427	1460.89	83731.4
634	2.000000	1.168963	7.37126e+06	-45389.1	1005.82	-29772.6	0.000000	0.000000	7.173860	114.742	NaN	0.000000	0.001560	0.001718	28.0825	47.7281	0.001866	25574.6	6.107835	-2.055027	113.643	1.168548	0.047248	0.046834	114.742	25574.6	0.043883	0.074448	1541.24	85635.8
634	2.000000	1.171426	7.37126e+06	-45389.1	1005.82	-29772.6	0.000000	0.000000	7.176516	119.419	NaN	0.000000	0.001605	0.001770	28.0825	49.8408	0.001857	26833.5	6.367383	176.746	117.946	1.171139	0.049711	0.049424	119.419	26833.5	0.046373	0.081533	1464.67	85858.4
634	2.000000	1.173921	7.37126e+06	-45389.1	1005.82	-29772.6	0.000000	0.000000	7.179499	131.311	NaN	0.000000	0.001577	0.001724	28.0827	51.5788	0.001867	27619.2	2.222630	-0.039552	127.294	1.173546	0.052206	0.051831	131.311	27619.2	0.048640	0.088256	1487.84	84940
634	2.000000	1.176439	7.37126e+06	-45389.1	1005.82	-29772.6	0.000000	0.000000	7.182317	138.596	NaN	0.000000	0.001595	0.001755	28.0825	53.9936	0.001740	31034.1	4.643690	176.12	136.539	1.176132	0.054724	0.054417	138.596	31034.1	0.051375	0.096710	1433.11	91175.4
634	2.000000	1.178941	7.37126e+06	-45389.1	1005.82	-29772.6	0.000000	0.000000	7.185438	153.667	NaN	0.000000	0.001651	0.001691	28.0825	55.4117	0.001761	31469.8	1.712568	-0.007655	149.912	1.178584	0.057226	0.056869	153.667	31469.8	0.053564	0.103746	1481.18	89265.1
634	2.000000	1.181497	7.37126e+06	-45389.1	1005.82	-29772.6	0.000000	0.000000	7.188363	162.631	NaN	0.000000	0.001629	0.001733	28.0828	58.6953	0.001882	31180.3	10.729	170.632	163.328	1.181127	0.059782	0.059412	162.631	31180.3	0.055870	0.111417	1459.66	85344.8
634	2.000000	1.183946	7.37126e+06	-45389.1	1005.82	-29772.6	0.000000	0.000000	7.191240	173.042	NaN	0.000000	0.001643	0.001733	28.0827	60.8448	0.001842	33026.9	4.598869	-4.476766	171.23	1.183612	0.062231	0.061897	173.042	33026.9	0.058301	0.119788	1444.58	87183.7
634	2.000000	1.186424	7.37126e+06	-45389.1	1005.82	-29772.6	0.000000	0.000000	7.194297	187.112	NaN	0.000000	0.001617	0.001770	28.0838	63.0577	0.001783	35365.3	6.020798	173.771	186.251	1.186060	0.064709	0.064345	187.112	35365.3	0.060741	0.128480	1456.36	90143.4
634	2.000000	1.188944	7.37126e+06	-45389.1	1005.82	-29772.6	0.000000	0.000000	7.197346	199.997	NaN	0.000000	0.001605	0.001715	28.084	63.8665	0.001737	36778.3	6.180085	-6.372354	195.471	1.188551	0.067229	0.066836	199.997	36778.3	0.063151	0.137350	1456.12	90667.5
634	2.000000	1.191490	7.37126e+06	-45389.1	1005.82	-29772.6	0.000000	0.000000	7.200321	210.448	NaN	0.000000	0.001609	0.001748	28.0842	66.647	0.001836	36306.4	3.312043	176.542	212.967	1.191195	0.069775	0.069481	210.448	36306.4	0.065428	0.145987	1441.55	86815.9
634	2.000000	1.193983	7.37126e+06	-45389.1	1005.82	-29772.6	0.000000	0.000000	7.203550	228.332	NaN	0.000000	0.001674	0.001710	28.0839	69.9682	0.001755	39861.6	6.648142	-7.700468	227.642	1.193500	0.072269	0.071785	228.332	39861.6	0.067972	0.155938	1464.25	92225.9
634	2.000000	1.196409	7.37126e+06	-45389.1	1005.82	-29772.6	0.000000	0.000000	7.206701	245.962	NaN	0.000000	0.001704	0.001733	28.0839	72.4849	0.001844	39300.4	1.820944	178.032	242.89	1.196067	0.074694	0.074352	245.962	39300.4	0.070000	0.164089	1498.95	88639.9
634	2.000000	1.198972	7.37126e+06	-45389.1	1005.82	-29772.6	0.000000	0.000000	7.209603	254.206	NaN	0.000000	0.001696	0.001742	28.084	75.8177	0.001786	42446.7	8.583231	-9.930550	252.222	1.198676	0.077258	0.076962	254.206	42446.7	0.072766	0.175521	1448.3	92566.1
634	2.000000	1.201436	7.37126e+06	-45389.1	1005.82	-29772.6	0.000000	0.000000	7.212784	271.661	NaN	0.000000	0.001656	0.001757	28.0842	76.3425	0.001702	44849.6	6.284070	171.595	271.001	1.201211	0.079721	0.079496	271.661	44849.6	0.075178	0.185788	1462.21	95065.6
634	2.000000	1.203892	7.37126e+06	-45389.1	1005.82	-29772.6	0.000000	0.000000	7.216060	291.606	NaN	0.000000	0.001678	0.001740	28.0838	78.4167	0.001577	49735	2.785654	-5.441353	288.818	1.203515	0.082177	0.081800	291.606	49735	0.077780	0.197167	1478.98	102334
634	2.000000	1.206401	7.37126e+06	-45389.1	1005.82	-29772.6	0.000000	0.000000	7.219123	305.097	NaN	0.000000	0.001707	0.001768	28.0841	82.509	0.001785	46213.9	3.160592	174.691	301.955	1.206083	0.084686	0.084369	305.097	46213.9	0.079735	0.205926	1481.58	93044.3
634	2.000000	1.208967	7.37126e+06	-45389.1	1005.82	-29772.6	0.000000	0.000000	7.222327	320.608	NaN	0.000000	0.001699	0.001746	28.084	84.7713	0.001865	45456.6	5.776698	-7.339540	318.205	1.208483	0.087253	0.086768	320.608	45456.6	0.081963	0.216126	1483.43	89334
634	2.000000	1.211341	7.37126e+06	-45389.1	1005.82	-29772.6	0.000000	0.000000	7.225528	340.738	NaN	0.000000	0.001680	0.001762	28.0842	86.0576	0.001779	48383.9	4.508243	172.852	334.854	1.211017	0.089626	0.089302	340.738	48383.9	0.084344	0.227284	1499.17	92723.6
634	2.000000	1.213827	7.37126e+06	-45389.1	1005.82	-29772.6	0.000000	0.000000	7.228589	354.722	NaN	0.000000	0.001696	0.001742	28.0839	88.6881	0.001828	48516.1	4.680094	-6.753536	348.122	1.213447	0.092112	0.091732	354.722	48516.1	0.086628	0.238230	1488.99	90815.8
634	2.000000	1.216372	7.37126e+06	-45389.1	1005.82	-29772.6	0.000000	0.000000	7.231930	374.074	NaN	0.000000	0.001695	0.001732	28.084	91.1951	0.001886	48341.8	3.664134	174.133	372.203	1.216086	0.094658	0.094371	374.074	48341.8	0.088854	0.249129	1501.53	88487.8
634	2.000000	1.218913	7.37126e+06	-45389.1	1005.82	-29772.6	0.000000	0.000000	7.235221	392.333	NaN	0.000000	0.001686	0.001763	28.0831	92.7627	0.001827	50773.9	4.981377	-7.799287	391.101	1.218467	0.097198	0.096752	392.333	50773.9	0.091403	0.261889	1498.09	90647.3
634	2.000000	1.221391	7.37126e+06	-45389.1	1005.82	-29772.6	0.000000	0.000000	7.238326	407.566	NaN	0.000000	0.001564	0.001779	28.0828	93.8683	0.001661	56525.7	2.494924	174.487	406.341	1.221096	0.099676	0.099381	407.566	56525.7	0.094269	0.276592	1473.53	98197.4
634	2.000000	1.223978	7.37126e+06	-45389.1	1005.82	-29772.6	0.000000	0.000000	7.241330	417.717	NaN	0.000000	0.001619	0.001751	28.0827	98.0312	0.001765	55552	2.173206	-5.904603	420.15	1.223825	0.102263	0.102110	417.717	55552	0.096624	0.288956	1445.61	94418.4
634	2.000000	1.226547	7.37126e+06	-45389.1	1005.82	-29772.6	0.000000	0.000000	7.244824	440.209	NaN	0.000000	0.001657	0.001771	28.0826	101.946	0.001769	57635.8	4.062468	171.791	447.864	1.226146	0.104832	0.104431	440.209	57635.8	0.099104	0.302247	1456.45	95782