File: remote_trans/data/nanoindenter/0828-1/data/Data_2025-08-06,11h17m57s/2025-07-22_16-23-58_1_1151.txt
2025-07-22, 16:23:58, 1
Index	Phase	Displacement	Time	Pos X	Pos Y	Pos Z	Rot A	Rot B	Piezo Z	Force A	Force B	Gripper	Voltage A	Voltage B	Temperature	Amplitude force	Amplitude pos	Stiffness	Phase shift	Phase excitation	Force A raw	Displacement raw	HMax	HMax raw	Real Force	Real Stiffness	Contact Depth	Area	Hardness	Reduced Mod.
[#]	[#]	[um]	[s]	[um]	[um]	[um]	[m°]	[m°]	[um]	[uN]	[uN]	[V]	[V]	[V]	[°C]	[uN]	[um]	[N/m]	[°]	[°]	[uN]	[um]	[um]	[um]	[uN]	[N/m]	[um]	[um^2]	[MPa]	[MPa]
1151	1.000000	0.002674	7.37632e+06	-57689.1	1055.82	-29736.7	0.000000	0.000000	6.002810	-0.004799	NaN	0.000000	0.001549	0.001676	28.0815	0.076228	0.000849	89.7964	-78.4851	-161.343	0.011311	0.001435	-0.933772	-0.935011	-0.004799	89.7964	-0.933732	-2.901102E+12	1.654090E-15	NaN
1151	1.000000	0.010627	7.37632e+06	-57689.1	1055.82	-29736.7	0.000000	0.000000	6.010761	-0.049645	NaN	0.000000	0.001564	0.001671	28.0816	0.037778	0.000908	41.627	-175.389	-167.705	-0.061300	0.009303	-0.925819	-0.927143	-0.049645	41.627	-0.924924	-2.206396E+12	2.250062E-14	NaN
1151	1.000000	0.018611	7.37632e+06	-57689.1	1055.82	-29736.7	0.000000	0.000000	6.018748	0.015621	NaN	0.000000	0.001583	0.001670	28.0815	0.106498	0.001687	63.132	140.113	-160.676	0.011928	0.017266	-0.917835	-0.919180	0.015621	63.132	-0.918021	-1.780255E+12	-8.774487E-15	NaN
1151	1.000000	0.026640	7.37632e+06	-57689.1	1055.82	-29736.7	0.000000	0.000000	6.026776	-0.000961	NaN	0.000000	0.001588	0.001687	28.0819	0.070032	0.001903	36.8052	-3.720250	-166.407	-0.016267	0.025362	-0.909806	-0.911084	-0.000961	36.8052	-0.909786	-1.378082E+12	6.976244E-16	NaN
1151	1.000000	0.034635	7.37632e+06	-57689.1	1055.82	-29736.7	0.000000	0.000000	6.034772	0.031521	NaN	0.000000	0.001573	0.001683	28.0816	0.032126	0.001935	16.6034	-123.255	-164.603	0.002335	0.033322	-0.901811	-0.903124	0.031521	16.6034	-0.903235	-1.124026E+12	-2.804319E-14	NaN
1151	1.000000	0.042622	7.37632e+06	-57689.1	1055.82	-29736.7	0.000000	0.000000	6.042759	0.004250	NaN	0.000000	0.001604	0.001662	28.0819	0.096293	0.001941	49.6165	38.279	-164.283	0.093522	0.041320	-0.893823	-0.895126	0.004250	49.6165	-0.893888	-8.403577E+11	-5.057558E-15	NaN
1151	1.000000	0.050620	7.37632e+06	-57689.1	1055.82	-29736.7	0.000000	0.000000	6.050759	0.059529	NaN	0.000000	0.001574	0.001651	28.0802	0.035883	0.001967	18.2464	-37.3306	-168.36	-0.017960	0.049311	-0.885825	-0.887135	0.059529	18.2464	-0.888272	-7.056018E+11	-8.436581E-14	NaN
1151	1.000000	0.058611	7.37632e+06	-57689.1	1055.82	-29736.7	0.000000	0.000000	6.058747	-0.000251	NaN	0.000000	0.001567	0.001670	28.0803	0.084028	0.002002	41.9738	-111.854	-163.371	-0.086390	0.057294	-0.877835	-0.879151	-0.000251	41.9738	-0.877831	-5.097643E+11	4.924609E-16	NaN
1151	1.000000	0.066628	7.37632e+06	-57689.1	1055.82	-29736.7	0.000000	0.000000	6.066764	-0.013455	NaN	0.000000	0.001615	0.001701	28.0802	0.036764	0.001913	19.218	-168.525	-163.304	0.037435	0.065308	-0.869818	-0.871137	-0.013455	19.218	-0.869293	-3.907310E+11	3.443506E-14	NaN
1151	1.000000	0.074621	7.37632e+06	-57689.1	1055.82	-29736.7	0.000000	0.000000	6.074761	0.093869	NaN	0.000000	0.001628	0.001689	28.0804	0.015663	0.001900	8.242202	142.541	-163.829	0.062197	0.073334	-0.861825	-0.863112	0.093869	8.242202	-0.870366	-4.040170E+11	-2.323394E-13	NaN
1151	1.000000	0.082618	7.37632e+06	-57689.1	1055.82	-29736.7	0.000000	0.000000	6.082755	0.037037	NaN	0.000000	0.001595	0.001693	28.0804	0.084396	0.002007	42.0555	133.766	-163.787	-0.008434	0.081305	-0.853828	-0.855141	0.037037	42.0555	-0.854489	-2.463288E+11	-1.503560E-13	NaN
1151	1.000000	0.090625	7.37632e+06	-57689.1	1055.82	-29736.7	0.000000	0.000000	6.090761	-0.005929	NaN	0.000000	0.001630	0.001692	28.0804	0.112135	0.001955	57.3598	71.8589	-165.914	0.057446	0.089318	-0.845821	-0.847128	-0.005929	57.3598	-0.845743	-1.875373E+11	3.161566E-14	NaN
1151	1.000000	0.098626	7.37632e+06	-57689.1	1055.82	-29736.7	0.000000	0.000000	6.098765	0.051903	NaN	0.000000	0.001643	0.001714	28.0803	0.036937	0.002005	18.4188	120.053	-163.691	0.125827	0.097304	-0.837820	-0.839142	0.051903	18.4188	-0.839933	-1.564543E+11	-3.317486E-13	NaN
1151	1.000000	0.106631	7.37632e+06	-57689.1	1055.82	-29736.7	0.000000	0.000000	6.106765	-0.041301	NaN	0.000000	0.001627	0.001671	28.0802	0.015507	0.002049	7.566287	163.194	-159.455	-0.009334	0.105383	-0.829815	-0.831063	-0.041301	7.566287	-0.825721	-1.004122E+11	4.113098E-13	NaN
1151	1.000000	0.114639	7.37632e+06	-57689.1	1055.82	-29736.7	0.000000	0.000000	6.114773	-0.060768	NaN	0.000000	0.001597	0.001714	28.0802	0.015803	0.002016	7.837461	27.9442	-166.462	-0.030807	0.113289	-0.821807	-0.823157	-0.060768	7.837461	-0.815992	-7.410556E+10	8.200157E-13	NaN
1151	1.000000	0.122633	7.37632e+06	-57689.1	1055.82	-29736.7	0.000000	0.000000	6.122772	0.065135	NaN	0.000000	0.001612	0.001726	28.0802	0.037669	0.002001	18.8261	73.4463	-165.906	0.047885	0.121362	-0.813813	-0.815084	0.065135	18.8261	-0.816408	-7.507423E+10	-8.676119E-13	NaN
1151	1.000000	0.130625	7.37632e+06	-57689.1	1055.82	-29736.7	0.000000	0.000000	6.130762	0.018584	NaN	0.000000	0.001658	0.001717	28.0801	0.106468	0.001983	53.6877	-144.503	-166.239	-0.076265	0.129361	-0.805821	-0.807085	0.018584	53.6877	-0.806081	-5.437380E+10	-3.417908E-13	NaN
1151	1.000000	0.138655	7.37632e+06	-57689.1	1055.82	-29736.7	0.000000	0.000000	6.138790	-0.043898	NaN	0.000000	0.001674	0.001732	28.0804	0.039824	0.001890	21.0667	-146.592	-163.804	-0.143852	0.137308	-0.797790	-0.799138	-0.043898	21.0667	-0.796228	-3.996216E+10	1.098481E-12	NaN
1151	1.000000	0.146660	7.37632e+06	-57689.1	1055.82	-29736.7	0.000000	0.000000	6.146796	-0.004761	NaN	0.000000	0.001654	0.001695	28.0802	0.040328	0.002149	18.7703	-117.059	-163.947	0.083949	0.145281	-0.789786	-0.791164	-0.004761	18.7703	-0.789595	-3.247780E+10	1.466078E-13	NaN
1151	1.000000	0.154666	7.37632e+06	-57689.1	1055.82	-29736.7	0.000000	0.000000	6.154804	0.040436	NaN	0.000000	0.001624	0.001695	28.0803	0.068967	0.001993	34.5991	-79.0603	-164.012	-0.022816	0.153337	-0.781780	-0.783109	0.040436	34.5991	-0.782657	-2.614152E+10	-1.546822E-12	NaN
1151	1.000000	0.162621	7.37632e+06	-57689.1	1055.82	-29736.7	0.000000	0.000000	6.162759	0.048025	NaN	0.000000	0.001637	0.001717	28.0803	0.122854	0.001949	63.0373	-84.22	-165.874	0.013871	0.161329	-0.773825	-0.775117	0.048025	63.0373	-0.774396	-2.018684E+10	-2.379025E-12	NaN
1151	1.000000	0.170654	7.37632e+06	-57689.1	1055.82	-29736.7	0.000000	0.000000	6.170788	-0.058275	NaN	0.000000	0.001638	0.001651	28.0803	0.042503	0.001967	21.6057	-159.68	-160.611	0.040714	0.169371	-0.765792	-0.767075	-0.058275	21.6057	-0.763769	-1.447324E+10	4.026398E-12	NaN
1151	1.000000	0.178700	7.37632e+06	-57689.1	1055.82	-29736.7	0.000000	0.000000	6.178837	0.012151	NaN	0.000000	0.001646	0.001713	28.0808	0.041513	0.001938	21.4187	-171.176	-163.935	0.042069	0.177351	-0.757746	-0.759095	0.012151	21.4187	-0.758171	-1.214560E+10	-1.000476E-12	NaN
1151	1.000000	0.186687	7.37632e+06	-57689.1	1055.82	-29736.7	0.000000	0.000000	6.186825	0.039827	NaN	0.000000	0.001652	0.001741	28.0819	0.038816	0.001971	19.6972	-93.0933	-165.642	0.067663	0.185357	-0.749759	-0.751089	0.039827	19.6972	-0.751275	-9.785441E+9	-4.069982E-12	NaN
1151	1.000000	0.194677	7.37632e+06	-57689.1	1055.82	-29736.7	0.000000	0.000000	6.194812	-0.029334	NaN	0.000000	0.001642	0.001688	28.0819	0.079193	0.002028	39.0423	74.2949	-162.322	0.024128	0.193321	-0.741769	-0.743124	-0.029334	39.0423	-0.741206	-7.136405E+9	4.110445E-12	NaN
1151	1.000000	0.202635	7.37632e+06	-57689.1	1055.82	-29736.7	0.000000	0.000000	6.202774	0.069393	NaN	0.000000	0.001668	0.001705	28.0818	0.028156	0.001989	14.1583	-10.5543	-165.064	0.065020	0.201387	-0.733811	-0.735059	0.069393	14.1583	-0.737486	-6.350646E+9	-1.092690E-11	NaN
1151	1.000000	0.210646	7.37632e+06	-57689.1	1055.82	-29736.7	0.000000	0.000000	6.210783	0.017009	NaN	0.000000	0.001598	0.001683	28.0818	0.086254	0.002059	41.8858	137.534	-166.963	0.010555	0.209365	-0.725800	-0.727081	0.017009	41.8858	-0.726105	-4.443375E+9	-3.827935E-12	NaN
1151	1.000000	0.218675	7.37632e+06	-57689.1	1055.82	-29736.7	0.000000	0.000000	6.218816	0.091567	NaN	0.000000	0.001574	0.001680	28.0818	0.033273	0.001872	17.7696	140.826	-169.4	0.030822	0.217367	-0.717770	-0.719079	0.091567	17.7696	-0.721635	-3.861638E+9	-2.371195E-11	NaN
1151	1.000000	0.226674	7.37632e+06	-57689.1	1055.82	-29736.7	0.000000	0.000000	6.226814	0.092692	NaN	0.000000	0.001546	0.001670	28.0817	0.067404	0.001884	35.7805	-75.6963	-166.258	0.063329	0.225415	-0.709772	-0.711030	0.092692	35.7805	-0.711715	-2.827840E+9	-3.277838E-11	NaN
1151	1.000000	0.234679	7.37632e+06	-57689.1	1055.82	-29736.7	0.000000	0.000000	6.234815	0.000144	NaN	0.000000	0.001584	0.001705	28.082	0.065958	0.001959	33.6731	59.2367	-166.263	0.037185	0.233350	-0.701767	-0.703096	0.000144	33.6731	-0.701770	-2.068736E+9	-6.959744E-14	NaN
1151	1.000000	0.242679	7.37632e+06	-57689.1	1055.82	-29736.7	0.000000	0.000000	6.242817	0.055808	NaN	0.000000	0.001564	0.001687	28.0818	0.057387	0.001992	28.8152	166.708	-166.549	0.157719	0.241367	-0.693767	-0.695079	0.055808	28.8152	-0.695219	-1.683585E+9	-3.314818E-11	NaN
1151	1.000000	0.250681	7.37632e+06	-57689.1	1055.82	-29736.7	0.000000	0.000000	6.250816	-0.026511	NaN	0.000000	0.001580	0.001683	28.0817	0.066797	0.002104	31.7524	-24.5304	-165.689	-0.044206	0.249396	-0.685765	-0.687050	-0.026511	31.7524	-0.685139	-1.225940E+9	2.162520E-11	NaN
1151	1.000000	0.258703	7.37632e+06	-57689.1	1055.82	-29736.7	0.000000	0.000000	6.258841	0.027477	NaN	0.000000	0.001572	0.001672	28.0817	0.130728	0.001904	68.6449	-117.937	-162.225	-0.000114	0.257356	-0.677743	-0.679090	0.027477	68.6449	-0.678043	-9.804738E+8	-2.802464E-11	NaN
1151	1.000000	0.266705	7.37632e+06	-57689.1	1055.82	-29736.7	0.000000	0.000000	6.266841	-0.008369	NaN	0.000000	0.001546	0.001664	28.0817	0.003119	0.001872	1.666230	104.903	-163.285	0.040958	0.265389	-0.669741	-0.671057	-0.008369	1.666230	-0.665973	-6.703032E+8	1.248611E-11	NaN
1151	1.000000	0.274683	7.37632e+06	-57689.1	1055.82	-29736.7	0.000000	0.000000	6.274821	0.053135	NaN	0.000000	0.001558	0.001675	28.0819	0.069090	0.002057	33.5813	-44.9147	-166.63	0.032771	0.273412	-0.661763	-0.663034	0.053135	33.5813	-0.662950	-6.093497E+8	-8.720014E-11	NaN
1151	1.000000	0.282674	7.37632e+06	-57689.1	1055.82	-29736.7	0.000000	0.000000	6.282810	-0.011116	NaN	0.000000	0.001530	0.001655	28.0817	0.129676	0.001992	65.1111	-42.1041	-162.427	-0.031508	0.281437	-0.653772	-0.655009	-0.011116	65.1111	-0.653644	-4.543364E+8	2.446702E-11	NaN
1151	1.000000	0.290725	7.37632e+06	-57689.1	1055.82	-29736.7	0.000000	0.000000	6.290863	0.035259	NaN	0.000000	0.001553	0.001654	28.082	0.099796	0.001941	51.4022	-46.0847	-168.644	0.014571	0.289384	-0.645721	-0.647062	0.035259	51.4022	-0.646235	-3.595994E+8	-9.805213E-11	NaN
1151	1.000000	0.298718	7.37632e+06	-57689.1	1055.82	-29736.7	0.000000	0.000000	6.298853	-0.034908	NaN	0.000000	0.001580	0.001644	28.0817	0.058439	0.002060	28.3723	-3.770295	-166.441	0.003065	0.297383	-0.637728	-0.639063	-0.034908	28.3723	-0.636805	-2.669593E+8	1.307603E-10	NaN
1151	1.000000	0.306707	7.37632e+06	-57689.1	1055.82	-29736.7	0.000000	0.000000	6.306843	-0.011688	NaN	0.000000	0.001545	0.001677	28.0823	0.039318	0.002113	18.6061	-85.7431	-165.387	-0.018690	0.305408	-0.629739	-0.631038	-0.011688	18.6061	-0.629268	-2.103630E+8	5.556114E-11	NaN
1151	1.000000	0.314718	7.37632e+06	-57689.1	1055.82	-29736.7	0.000000	0.000000	6.314854	0.008514	NaN	0.000000	0.001546	0.001672	28.0816	0.133019	0.001931	68.9006	-114.453	-164.474	0.045070	0.313427	-0.621728	-0.623019	0.008514	68.9006	-0.621821	-1.662107E+8	-5.122349E-11	NaN
1151	1.000000	0.322718	7.37632e+06	-57689.1	1055.82	-29736.7	0.000000	0.000000	6.322854	-0.015009	NaN	0.000000	0.001578	0.001670	28.0805	0.106529	0.001982	53.7615	-85.4651	-163.541	0.014135	0.321460	-0.613728	-0.614986	-0.015009	53.7615	-0.613519	-1.277956E+8	1.174433E-10	NaN
1151	1.000000	0.330723	7.37632e+06	-57689.1	1055.82	-29736.7	0.000000	0.000000	6.330861	0.034604	NaN	0.000000	0.001555	0.001670	28.0805	0.092177	0.002198	41.93	32.3051	-163.189	-0.040808	0.329425	-0.605723	-0.607021	0.034604	41.93	-0.606342	-1.018055E+8	-3.398990E-10	NaN
1151	1.000000	0.338714	7.37632e+06	-57689.1	1055.82	-29736.7	0.000000	0.000000	6.338853	0.084508	NaN	0.000000	0.001575	0.001672	28.0801	0.053513	0.001838	29.1154	-13.9029	-161.077	0.075083	0.337441	-0.597732	-0.599005	0.084508	29.1154	-0.599909	-8.302467E+7	-1.017862E-9	NaN
1151	1.000000	0.346724	7.37632e+06	-57689.1	1055.82	-29736.7	0.000000	0.000000	6.346863	0.077948	NaN	0.000000	0.001572	0.001667	28.0806	0.087462	0.002111	41.438	137.758	-162.431	0.009705	0.345424	-0.589722	-0.591021	0.077948	41.438	-0.591133	-6.284690E+7	-1.240287E-9	NaN
1151	1.000000	0.354722	7.37632e+06	-57689.1	1055.82	-29736.7	0.000000	0.000000	6.354860	0.034866	NaN	0.000000	0.001554	0.001698	28.0803	0.047194	0.002191	21.5402	-98.3248	-169.414	0.013743	0.353408	-0.581724	-0.583037	0.034866	21.5402	-0.582938	-4.844700E+7	-7.196638E-10	NaN
1151	1.000000	0.362706	7.37632e+06	-57689.1	1055.82	-29736.7	0.000000	0.000000	6.362845	0.068245	NaN	0.000000	0.001661	0.001660	28.0803	0.022560	0.001990	11.3348	-89.9836	-167.049	0.013051	0.361454	-0.573740	-0.574992	0.068245	11.3348	-0.578255	-4.174884E+7	-1.634646E-9	NaN
1151	1.000000	0.370726	7.37632e+06	-57689.1	1055.82	-29736.7	0.000000	0.000000	6.370863	0.023181	NaN	0.000000	0.001643	0.001684	28.0802	0.100738	0.001896	53.1424	71.9443	-160.577	0.039699	0.369454	-0.565720	-0.566991	0.023181	53.1424	-0.566047	-2.831435E+7	-8.187123E-10	NaN
1151	1.000000	0.378732	7.37632e+06	-57689.1	1055.82	-29736.7	0.000000	0.000000	6.378869	0.030537	NaN	0.000000	0.001639	0.001656	28.08	0.078841	0.002012	39.1762	170.899	-162.684	0.045544	0.377448	-0.557714	-0.558998	0.030537	39.1762	-0.558299	-2.212285E+7	-1.380324E-9	NaN
1151	1.000000	0.386765	7.37632e+06	-57689.1	1055.82	-29736.7	0.000000	0.000000	6.386901	-0.018041	NaN	0.000000	0.001671	0.001664	28.0805	0.074554	0.001943	38.3687	40.9337	-165.867	-0.078724	0.385413	-0.549680	-0.551033	-0.018041	38.3687	-0.549328	-1.662055E+7	1.085459E-9	NaN
1151	1.000000	0.394764	7.37632e+06	-57689.1	1055.82	-29736.7	0.000000	0.000000	6.394900	-0.001910	NaN	0.000000	0.001699	0.001624	28.0805	0.103168	0.001988	51.9055	57.7896	-163.76	-0.014016	0.393464	-0.541682	-0.542982	-0.001910	51.9055	-0.541655	-1.301080E+7	1.467775E-10	NaN
1151	1.000000	0.402762	7.37632e+06	-57689.1	1055.82	-29736.7	0.000000	0.000000	6.402900	0.038951	NaN	0.000000	0.001678	0.001672	28.0805	0.060094	0.002040	29.4583	166.825	-164.561	0.068631	0.401417	-0.533684	-0.535029	0.038951	29.4583	-0.534676	-1.041097E+7	-3.741342E-9	NaN
1151	1.000000	0.410753	7.37632e+06	-57689.1	1055.82	-29736.7	0.000000	0.000000	6.410893	0.077967	NaN	0.000000	0.001618	0.001678	28.0805	0.064449	0.002055	31.3658	-36.3599	-163.684	0.041603	0.409481	-0.525693	-0.526965	0.077967	31.3658	-0.527557	-8.29163e+06	-9.403077E-9	NaN
1151	1.000000	0.418774	7.37632e+06	-57689.1	1055.82	-29736.7	0.000000	0.000000	6.418909	-0.024441	NaN	0.000000	0.001617	0.001673	28.0805	0.047016	0.002083	22.5671	73.7532	-167.268	-0.080493	0.417443	-0.517672	-0.519002	-0.024441	22.5671	-0.516860	-5.8873e+06	4.151446E-9	NaN
1151	1.000000	0.426735	7.37632e+06	-57689.1	1055.82	-29736.7	0.000000	0.000000	6.426868	-0.068684	NaN	0.000000	0.001645	0.001647	28.0805	0.122278	0.002047	59.743	-88.9484	-164.359	-0.053625	0.425445	-0.509711	-0.511001	-0.068684	59.743	-0.508849	-4.55384e+06	1.508262E-8	NaN
1151	1.000000	0.434771	7.37632e+06	-57689.1	1055.82	-29736.7	0.000000	0.000000	6.434908	0.024049	NaN	0.000000	0.001621	0.001669	28.0802	0.117892	0.002006	58.7611	117.457	-164.407	0.024255	0.433445	-0.501675	-0.503001	0.024049	58.7611	-0.501982	-3.65314e+06	-6.583233E-9	NaN
1151	1.000000	0.442780	7.37632e+06	-57689.1	1055.82	-29736.7	0.000000	0.000000	6.442917	0.020548	NaN	0.000000	0.001659	0.001673	28.0803	0.028516	0.001924	14.8229	38.2735	-162.585	0.002446	0.441481	-0.493666	-0.494965	0.020548	14.8229	-0.494706	-2.89154e+06	-7.106121E-9	NaN
1151	1.000000	0.450799	7.37632e+06	-57689.1	1055.82	-29736.7	0.000000	0.000000	6.450934	-0.013734	NaN	0.000000	0.001647	0.001676	28.0806	0.024133	0.002033	11.8688	106.221	-168.001	-0.039995	0.449450	-0.485647	-0.486996	-0.013734	11.8688	-0.484779	-2.1009e+06	6.537411E-9	NaN
1151	1.000000	0.458780	7.37632e+06	-57689.1	1055.82	-29736.7	0.000000	0.000000	6.458918	0.047056	NaN	0.000000	0.001646	0.001674	28.0819	0.091890	0.001968	46.702	172.575	-165.756	0.006214	0.457462	-0.477666	-0.478984	0.047056	46.702	-0.478422	-1.71172e+06	-2.749061E-8	NaN
1151	1.000000	0.466769	7.37632e+06	-57689.1	1055.82	-29736.7	0.000000	0.000000	6.466908	0.061294	NaN	0.000000	0.001623	0.001637	28.0819	0.113414	0.002002	56.6466	123.123	-164.41	-0.009270	0.465484	-0.469677	-0.470962	0.061294	56.6466	-0.470488	-1.32511e+06	-4.625561E-8	NaN
1151	1.000000	0.474801	7.37632e+06	-57689.1	1055.82	-29736.7	0.000000	0.000000	6.474937	0.004001	NaN	0.000000	0.001621	0.001608	28.0819	0.040298	0.002049	19.6659	155.576	-162.485	-0.062455	0.473475	-0.461645	-0.462971	0.004001	19.6659	-0.461798	-1.00064e+06	-3.998129E-9	NaN
1151	1.000000	0.482769	7.37632e+06	-57689.1	1055.82	-29736.7	0.000000	0.000000	6.482903	-0.043902	NaN	0.000000	0.001611	0.001634	28.0818	0.110257	0.002052	53.7297	119.565	-166.137	-0.070316	0.481488	-0.453677	-0.454957	-0.043902	53.7297	-0.453064	-754185	5.821128E-8	NaN
1151	1.000000	0.490787	7.37632e+06	-57689.1	1055.82	-29736.7	0.000000	0.000000	6.490924	0.023670	NaN	0.000000	0.001603	0.001654	28.0821	0.035608	0.002020	17.6248	-114.883	-165.062	0.019881	0.489416	-0.445659	-0.447030	0.023670	17.6248	-0.446667	-612891	-3.862105E-8	NaN
1151	1.000000	0.498839	7.37632e+06	-57689.1	1055.82	-29736.7	0.000000	0.000000	6.498976	0.033650	NaN	0.000000	0.001596	0.001639	28.0821	0.095338	0.001962	48.5801	-59.7139	-166.815	0.053333	0.497494	-0.437607	-0.438951	0.033650	48.5801	-0.438127	-464426	-7.245428E-8	NaN
1151	1.000000	0.506819	7.37632e+06	-57689.1	1055.82	-29736.7	0.000000	0.000000	6.506954	-0.037119	NaN	0.000000	0.001565	0.001652	28.0818	0.064873	0.002069	31.3586	-127.222	-163.893	-0.034841	0.505532	-0.429627	-0.430913	-0.037119	31.3586	-0.428739	-342155	1.084845E-7	NaN
1151	1.000000	0.514782	7.37632e+06	-57689.1	1055.82	-29736.7	0.000000	0.000000	6.514919	0.024465	NaN	0.000000	0.001515	0.001641	28.0818	0.053594	0.002168	24.7259	-8.938441	-168.027	0.034731	0.513485	-0.421664	-0.422961	0.024465	24.7259	-0.422406	-278312	-8.790466E-8	NaN
1151	1.000000	0.522788	7.37632e+06	-57689.1	1055.82	-29736.7	0.000000	0.000000	6.522922	-0.047239	NaN	0.000000	0.001558	0.001649	28.0817	0.106228	0.002018	52.649	-25.4226	-162.81	-0.038867	0.521492	-0.413658	-0.414954	-0.047239	52.649	-0.412985	-204567	2.309193E-7	NaN
1151	1.000000	0.530808	7.37632e+06	-57689.1	1055.82	-29736.7	0.000000	0.000000	6.530945	0.026251	NaN	0.000000	0.001594	0.001615	28.0819	0.115403	0.002053	56.2086	103.511	-162.523	0.030063	0.529541	-0.405638	-0.406905	0.026251	56.2086	-0.405988	-162673	-1.613710E-7	NaN
1151	1.000000	0.538835	7.37632e+06	-57689.1	1055.82	-29736.7	0.000000	0.000000	6.538973	0.041473	NaN	0.000000	0.001534	0.001628	28.0816	0.108478	0.001955	55.4852	-13.7037	-170.272	0.107663	0.537491	-0.397611	-0.398955	0.041473	55.4852	-0.398172	-125868	-3.294941E-7	NaN
1151	1.000000	0.546814	7.37632e+06	-57689.1	1055.82	-29736.7	0.000000	0.000000	6.546949	-0.025341	NaN	0.000000	0.001557	0.001654	28.082	0.079334	0.002167	36.6156	-29.3661	-162.082	-0.011817	0.545522	-0.389632	-0.390924	-0.025341	36.6156	-0.389113	-93427.5	2.712387E-7	NaN
1151	1.000000	0.554838	7.37632e+06	-57689.1	1055.82	-29736.7	0.000000	0.000000	6.554977	0.067544	NaN	0.000000	0.001553	0.001680	28.0821	0.090735	0.002118	42.8415	62.399	-166.082	-0.043782	0.553500	-0.381607	-0.382946	0.067544	42.8415	-0.382790	-75842	-8.905887E-7	NaN
1151	1.000000	0.562829	7.37632e+06	-57689.1	1055.82	-29736.7	0.000000	0.000000	6.562963	-0.043592	NaN	0.000000	0.001511	0.001685	28.0815	0.053909	0.002029	26.5711	68.3077	-167.948	-0.073073	0.561509	-0.373617	-0.374937	-0.043592	26.5711	-0.372387	-53763.1	8.108075E-7	NaN
1151	1.000000	0.570833	7.37632e+06	-57689.1	1055.82	-29736.7	0.000000	0.000000	6.570968	-0.036406	NaN	0.000000	0.001553	0.001634	28.0819	0.023005	0.001987	11.5757	-31.4569	-164.097	-0.005586	0.569483	-0.365613	-0.366963	-0.036406	11.5757	-0.363254	-39706	9.168806E-7	NaN
1151	1.000000	0.578850	7.37632e+06	-57689.1	1055.82	-29736.7	0.000000	0.000000	6.578985	-0.035322	NaN	0.000000	0.001548	0.001679	28.0816	0.183973	0.001935	95.0989	-165.051	-162.661	-0.049347	0.577509	-0.357596	-0.358937	-0.035322	95.0989	-0.357317	-32586.7	1.083935E-6	NaN
1151	1.000000	0.586840	7.37632e+06	-57689.1	1055.82	-29736.7	0.000000	0.000000	6.586979	0.066329	NaN	0.000000	0.001542	0.001675	28.0818	0.078323	0.002140	36.5941	157.961	-165.838	0.048035	0.585483	-0.349606	-0.350963	0.066329	36.5941	-0.350966	-26364.1	-2.515877E-6	NaN
1151	1.000000	0.594823	7.37632e+06	-57689.1	1055.82	-29736.7	0.000000	0.000000	6.594957	-0.052845	NaN	0.000000	0.001564	0.001704	28.0805	0.132841	0.001980	67.078	80.8317	-165.603	-0.013104	0.593589	-0.341623	-0.342857	-0.052845	67.078	-0.341032	-18905.9	2.795138E-6	NaN
1151	1.000000	0.602833	7.37632e+06	-57689.1	1055.82	-29736.7	0.000000	0.000000	6.602970	0.019287	NaN	0.000000	0.001598	0.001686	28.0804	0.072711	0.001958	37.1309	-102.91	-162.947	0.009652	0.601505	-0.333613	-0.334941	0.019287	37.1309	-0.334003	-14928.5	-1.291947E-6	NaN
1151	1.000000	0.610876	7.37632e+06	-57689.1	1055.82	-29736.7	0.000000	0.000000	6.611010	-0.050808	NaN	0.000000	0.001594	0.001703	28.0809	0.065337	0.002116	30.8826	-15.6997	-165.382	0.014899	0.609518	-0.325570	-0.326927	-0.050808	30.8826	-0.324336	-10774.3	4.715687E-6	NaN
1151	1.000000	0.618866	7.37632e+06	-57689.1	1055.82	-29736.7	0.000000	0.000000	6.619003	0.010085	NaN	0.000000	0.001562	0.001666	28.0805	0.049846	0.001982	25.1523	-20.8027	-165.118	0.054666	0.617544	-0.317580	-0.318902	0.010085	25.1523	-0.317880	-8658.12	-1.164841E-6	NaN
1151	1.000000	0.626870	7.37632e+06	-57689.1	1055.82	-29736.7	0.000000	0.000000	6.627007	0.026580	NaN	0.000000	0.001536	0.001663	28.0809	0.025535	0.002089	12.2225	-36.6325	-167.152	0.001529	0.625514	-0.309576	-0.310932	0.026580	12.2225	-0.311207	-6900.98	-3.851560E-6	NaN
1151	1.000000	0.634826	7.37632e+06	-57689.1	1055.82	-29736.7	0.000000	0.000000	6.634962	-0.014158	NaN	0.000000	0.001608	0.001680	28.0806	0.046622	0.002067	22.561	-6.703784	-161.781	0.083881	0.633570	-0.301619	-0.302876	-0.014158	22.561	-0.301149	-4894.76	2.892423E-6	NaN
1151	1.000000	0.642858	7.37632e+06	-57689.1	1055.82	-29736.7	0.000000	0.000000	6.642994	-0.002952	NaN	0.000000	0.001651	0.001690	28.0806	0.057168	0.001881	30.3864	169.66	-165.381	0.007388	0.641521	-0.293588	-0.294925	-0.002952	30.3864	-0.293515	-3766.15	7.839552E-7	NaN
1151	1.000000	0.650871	7.37632e+06	-57689.1	1055.82	-29736.7	0.000000	0.000000	6.651008	0.029961	NaN	0.000000	0.001633	0.001664	28.0808	0.093511	0.001976	47.3242	155.275	-164.513	-0.009528	0.649552	-0.285575	-0.286894	0.029961	47.3242	-0.286050	-2911.01	-1.029230E-5	NaN
1151	1.000000	0.658864	7.37632e+06	-57689.1	1055.82	-29736.7	0.000000	0.000000	6.658999	-0.034850	NaN	0.000000	0.001589	0.001671	28.0806	0.096966	0.001920	50.4956	-18.6975	-165.97	0.030901	0.657545	-0.277582	-0.278901	-0.034850	50.4956	-0.277065	-2131.27	1.635176E-5	NaN
1151	1.000000	0.666869	7.37632e+06	-57689.1	1055.82	-29736.7	0.000000	0.000000	6.667007	0.039310	NaN	0.000000	0.001601	0.001650	28.0807	0.042358	0.001989	21.2955	166.793	-161.759	0.137591	0.665560	-0.269576	-0.270886	0.039310	21.2955	-0.270961	-1722.45	-2.282218E-5	NaN
1151	1.000000	0.674834	7.37632e+06	-57689.1	1055.82	-29736.7	0.000000	0.000000	6.674969	-0.027336	NaN	0.000000	0.001610	0.001665	28.0806	0.071063	0.001979	35.9021	-20.9744	-163.976	-0.046701	0.673560	-0.261612	-0.262886	-0.027336	35.9021	-0.261041	-1215.8	2.248422E-5	NaN
1151	1.000000	0.682867	7.37632e+06	-57689.1	1055.82	-29736.7	0.000000	0.000000	6.683004	0.009705	NaN	0.000000	0.001580	0.001655	28.0805	0.050856	0.001942	26.184	-89.8766	-163.309	-0.021376	0.681549	-0.253579	-0.254897	0.009705	26.184	-0.253857	-942.983	-1.029166E-5	NaN
1151	1.000000	0.690879	7.37632e+06	-57689.1	1055.82	-29736.7	0.000000	0.000000	6.691018	0.058822	NaN	0.000000	0.001558	0.001668	28.0808	0.098640	0.002028	48.6414	158.768	-166.137	0.010494	0.689637	-0.245567	-0.246809	0.058822	48.6414	-0.246474	-724.997	-8.113361E-5	NaN
1151	1.000000	0.698903	7.37632e+06	-57689.1	1055.82	-29736.7	0.000000	0.000000	6.699040	0.019051	NaN	0.000000	0.001598	0.001694	28.0807	0.038126	0.002056	18.5483	106.758	-164.788	-0.009085	0.697592	-0.237542	-0.238854	0.019051	18.5483	-0.238313	-540.972	-3.521573E-5	NaN
1151	1.000000	0.706879	7.37632e+06	-57689.1	1055.82	-29736.7	0.000000	0.000000	6.707017	0.052638	NaN	0.000000	0.001549	0.001691	28.0808	0.008345	0.001983	4.207988	119.262	-163.186	-0.042197	0.705570	-0.229567	-0.230876	0.052638	4.207988	-0.238948	-553.503	-9.509905E-5	NaN
1151	1.000000	0.714880	7.37632e+06	-57689.1	1055.82	-29736.7	0.000000	0.000000	6.715014	-0.039004	NaN	0.000000	0.001595	0.001712	28.0805	0.020382	0.002033	10.0247	70.5213	-165.398	-0.060482	0.713639	-0.221566	-0.222807	-0.039004	10.0247	-0.218648	-264.271	0.000148	NaN
1151	1.000000	0.722910	7.37632e+06	-57689.1	1055.82	-29736.7	0.000000	0.000000	6.723047	0.000582	NaN	0.000000	0.001601	0.001685	28.0806	0.025033	0.002064	12.131	118.228	-164.553	0.017582	0.721634	-0.213536	-0.214812	0.000582	12.131	-0.213572	-219.036	-2.656316E-6	NaN
1151	1.000000	0.730896	7.37632e+06	-57689.1	1055.82	-29736.7	0.000000	0.000000	6.731033	0.028627	NaN	0.000000	0.001569	0.001709	28.0818	0.059687	0.002056	29.0325	152.071	-164.961	0.028408	0.729585	-0.205550	-0.206861	0.028627	29.0325	-0.206290	-166.946	-0.000171	NaN
1151	1.000000	0.738913	7.37632e+06	-57689.1	1055.82	-29736.7	0.000000	0.000000	6.739049	0.016095	NaN	0.000000	0.001579	0.001719	28.0818	0.052845	0.001983	26.6551	17.3934	-165.293	0.026380	0.737573	-0.197533	-0.198873	0.016095	26.6551	-0.197986	-122.054	-0.000132	NaN
1151	1.000000	0.746907	7.37632e+06	-57689.1	1055.82	-29736.7	0.000000	0.000000	6.747048	0.098692	NaN	0.000000	0.001580	0.001668	28.0818	0.039047	0.001976	19.7643	68.8085	-164.252	0.074076	0.745606	-0.189539	-0.190839	0.098692	19.7643	-0.193284	-102.031	-0.000967	NaN
1151	1.000000	0.754893	7.37632e+06	-57689.1	1055.82	-29736.7	0.000000	0.000000	6.755030	0.023705	NaN	0.000000	0.001535	0.001704	28.0818	0.065839	0.002021	32.5774	-147.075	-162.852	-0.003404	0.753571	-0.181553	-0.182874	0.023705	32.5774	-0.182098	-66.2362	-0.000358	NaN
1151	1.000000	0.762902	7.37632e+06	-57689.1	1055.82	-29736.7	0.000000	0.000000	6.763039	0.014151	NaN	0.000000	0.001543	0.001706	28.0819	0.102600	0.002039	50.3237	160.035	-165.538	-0.008086	0.761592	-0.173544	-0.174854	0.014151	50.3237	-0.173755	-47.7039	-0.000297	NaN
1151	1.000000	0.770920	7.37632e+06	-57689.1	1055.82	-29736.7	0.000000	0.000000	6.771057	0.025169	NaN	0.000000	0.001587	0.001709	28.0816	0.106672	0.002097	50.8767	154.22	-166.57	-0.037130	0.769624	-0.165526	-0.166822	0.025169	50.8767	-0.165897	-34.8374	-0.000722	NaN
1151	1.000000	0.778892	7.37632e+06	-57689.1	1055.82	-29736.7	0.000000	0.000000	6.779028	-0.009973	NaN	0.000000	0.001596	0.001704	28.0817	0.047700	0.001953	24.4293	-54.0776	-163.986	0.070134	0.777612	-0.157553	-0.158834	-0.009973	24.4293	-0.157247	-24.4851	0.000407	NaN
1151	1.000000	0.786940	7.37632e+06	-57689.1	1055.82	-29736.7	0.000000	0.000000	6.787077	0.019811	NaN	0.000000	0.001597	0.001681	28.0814	0.034979	0.001948	17.9593	164.059	-164.509	-0.098210	0.785623	-0.149506	-0.150823	0.019811	17.9593	-0.150333	-18.3686	-0.001079	NaN
1151	1.000000	0.794915	7.37632e+06	-57689.1	1055.82	-29736.7	0.000000	0.000000	6.795051	0.003617	NaN	0.000000	0.001594	0.001656	28.0817	0.051206	0.001949	26.269	-51.0492	-166.493	0.006879	0.793638	-0.141531	-0.142808	0.003617	26.269	-0.141635	-12.6938	-0.000285	NaN
1151	1.000000	0.802929	7.37632e+06	-57689.1	1055.82	-29736.7	0.000000	0.000000	6.803062	-0.063908	NaN	0.000000	0.001614	0.001699	28.0817	0.071943	0.002178	33.0392	-104.707	-169.172	0.009310	0.801635	-0.133517	-0.134811	-0.063908	33.0392	-0.132066	-8.356100	0.007648	NaN
1151	1.000000	0.810906	7.37632e+06	-57689.1	1055.82	-29736.7	0.000000	0.000000	6.811040	-0.045517	NaN	0.000000	0.001622	0.001660	28.0816	0.069088	0.002018	34.2392	-112.269	-166.688	-0.014434	0.809639	-0.125540	-0.126807	-0.045517	34.2392	-0.124543	-5.955877	0.007642	NaN
1151	1.000000	0.818943	7.37632e+06	-57689.1	1055.82	-29736.7	0.000000	0.000000	6.819078	-0.030364	NaN	0.000000	0.001583	0.001687	28.0821	0.010601	0.001993	5.317873	-65.5577	-162.777	0.004560	0.817600	-0.117503	-0.118846	-0.030364	5.317873	-0.113221	-3.509794	0.008651	NaN
1151	1.000000	0.826949	7.37632e+06	-57689.1	1055.82	-29736.7	0.000000	0.000000	6.827084	-0.025048	NaN	0.000000	0.001575	0.001668	28.0817	0.016955	0.002078	8.157233	-61.0987	-162.384	0.044066	0.825609	-0.109497	-0.110837	-0.025048	8.157233	-0.107194	-2.620009	0.009560	NaN
1151	1.000000	0.834960	7.37632e+06	-57689.1	1055.82	-29736.7	0.000000	0.000000	6.835096	-0.016470	NaN	0.000000	0.001564	0.001664	28.0817	0.011713	0.002029	5.772266	-139.036	-166.752	0.021634	0.833650	-0.101485	-0.102796	-0.016470	5.772266	-0.099345	-1.767004	0.009321	NaN
1151	1.000000	0.842957	7.37632e+06	-57689.1	1055.82	-29736.7	0.000000	0.000000	6.843092	-0.036262	NaN	0.000000	0.001592	0.001671	28.0818	0.084803	0.001994	42.5245	169.339	-168.19	0.038106	0.841641	-0.093489	-0.094805	-0.036262	42.5245	-0.092850	-1.259248	0.028796	NaN
1151	1.000000	0.850927	7.37632e+06	-57689.1	1055.82	-29736.7	0.000000	0.000000	6.851063	-0.027196	NaN	0.000000	0.001558	0.001671	28.0816	0.110410	0.001822	60.6019	31.3823	-161.301	-0.051406	0.849661	-0.085518	-0.086784	-0.027196	60.6019	-0.085182	-0.829998	0.032767	NaN
1151	1.000000	0.858965	7.37632e+06	-57689.1	1055.82	-29736.7	0.000000	0.000000	6.859101	-0.002596	NaN	0.000000	0.001565	0.001689	28.0823	0.092734	0.002026	45.7667	-140.117	-163.44	-0.014673	0.857633	-0.077481	-0.078813	-0.002596	45.7667	-0.077439	-0.533440	0.004866	NaN
1151	1.000000	0.866943	7.37632e+06	-57689.1	1055.82	-29736.7	0.000000	0.000000	6.867078	-0.026714	NaN	0.000000	0.001578	0.001673	28.0805	0.011538	0.001958	5.892334	166.147	-166.199	0.011169	0.865631	-0.069503	-0.070815	-0.026714	5.892334	-0.066103	-0.267337	0.099927	NaN
1151	1.000000	0.874954	7.37632e+06	-57689.1	1055.82	-29736.7	0.000000	0.000000	6.875090	-0.025446	NaN	0.000000	0.001598	0.001667	28.0807	0.046977	0.002036	23.0724	80.5516	-162.752	-0.022079	0.873647	-0.061491	-0.062799	-0.025446	23.0724	-0.060664	-0.188153	0.135242	NaN
1151	1.000000	0.882955	7.37632e+06	-57689.1	1055.82	-29736.7	0.000000	0.000000	6.883091	-0.012932	NaN	0.000000	0.001579	0.001667	28.0806	0.052969	0.002011	26.3375	-14.763	-164.181	0.068304	0.881678	-0.053490	-0.054768	-0.012932	26.3375	-0.053122	-0.113257	0.114182	NaN
1151	1.000000	0.890938	7.37632e+06	-57689.1	1055.82	-29736.7	0.000000	0.000000	6.891075	0.032417	NaN	0.000000	0.001549	0.001647	28.0805	0.048381	0.001948	24.8353	-60.428	-167.195	-0.076057	0.889625	-0.045508	-0.046821	0.032417	24.8353	-0.046487	-0.071358	-0.454295	NaN
1151	1.000000	0.898964	7.37632e+06	-57689.1	1055.82	-29736.7	0.000000	0.000000	6.899099	-0.023345	NaN	0.000000	0.001541	0.001652	28.0806	0.037603	0.002143	17.5485	126.305	-164.25	-0.095224	0.897630	-0.037482	-0.038815	-0.023345	17.5485	-0.036484	-0.035437	0.658773	NaN
1151	1.000000	0.906960	7.37632e+06	-57689.1	1055.82	-29736.7	0.000000	0.000000	6.907095	-0.016604	NaN	0.000000	0.001611	0.001670	28.0804	0.174059	0.001982	87.811	169.866	-165.811	0.075138	0.905623	-0.029486	-0.030823	-0.016604	87.811	-0.029344	-0.022069	0.752395	NaN
1151	1.000000	0.914959	7.37632e+06	-57689.1	1055.82	-29736.7	0.000000	0.000000	6.915097	0.034050	NaN	0.000000	0.001580	0.001706	28.0809	0.041468	0.001946	21.3125	153.6	-164.431	0.033979	0.913629	-0.021487	-0.022816	0.034050	21.3125	-0.022685	-0.014701	-2.316117	NaN
1151	1.000000	0.922972	7.37632e+06	-57689.1	1055.82	-29736.7	0.000000	0.000000	6.923109	0.005479	NaN	0.000000	0.001580	0.001681	28.0805	0.061087	0.001806	33.8249	-57.5953	-166.096	-0.063812	0.921634	-0.013473	-0.014812	0.005479	33.8249	-0.013595	-0.008447	-0.648616	NaN
1151	1.000000	0.930958	7.37632e+06	-57689.1	1055.82	-29736.7	0.000000	0.000000	6.931119	0.605417	NaN	0.000000	0.001551	0.001673	28.0805	1.032841	0.001803	572.952	8.693234	-168.8	0.109162	0.929621	-0.005488	-0.006825	0.605417	572.952	-0.006281	-0.004207	-143.894	NaN
1151	1.000000	0.938817	7.37632e+06	-57689.1	1055.82	-29736.7	0.000000	0.000000	6.939289	8.157480	NaN	0.000000	0.001546	0.001653	28.0807	7.719678	0.001666	4632.66	7.233876	-167.034	5.907084	0.937622	0.002371	0.001176	8.157480	4632.66	0.001051	0.000802	10177.2	149500
1151	2.000000	0.941547	7.37632e+06	-57689.1	1055.82	-29736.7	0.000000	0.000000	6.942104	10.2273	NaN	0.000000	0.001521	0.001699	28.0804	11.1355	0.001741	6397.07	8.127730	-173.111	9.552099	0.941140	0.005101	0.004694	10.2273	6397.07	0.003902	0.003153	3243.16	104078
1151	2.000000	0.943486	7.37632e+06	-57689.1	1055.82	-29736.7	0.000000	0.000000	6.944162	13.1221	NaN	0.000000	0.001567	0.001675	28.0815	12.7945	0.001672	7652.78	3.722846	-171.218	12.5176	0.943168	0.007040	0.006722	13.1221	7652.78	0.005754	0.004832	2715.55	100582
1151	2.000000	0.945421	7.37632e+06	-57689.1	1055.82	-29736.7	0.000000	0.000000	6.946178	15.0743	NaN	0.000000	0.001546	0.001685	28.0806	15.9196	0.001852	8594.51	8.720020	-174.775	14.1131	0.945219	0.008975	0.008773	15.0743	8594.51	0.007660	0.006695	2251.64	95967.5
1151	2.000000	0.947491	7.37632e+06	-57689.1	1055.82	-29736.7	0.000000	0.000000	6.948467	20.4285	NaN	0.000000	0.001568	0.001686	28.0807	17.5391	0.001748	10031.6	5.039046	-174.694	20.5987	0.947140	0.011045	0.010694	20.4285	10031.6	0.009517	0.008650	2361.65	98544.4
1151	2.000000	0.949438	7.37632e+06	-57689.1	1055.82	-29736.7	0.000000	0.000000	6.950519	22.9713	NaN	0.000000	0.001572	0.001640	28.0805	20.2142	0.001840	10986.2	6.086555	-176.173	21.4026	0.949157	0.012992	0.012711	22.9713	10986.2	0.011424	0.010807	2125.55	96552.7
1151	2.000000	0.951444	7.37632e+06	-57689.1	1055.82	-29736.7	0.000000	0.000000	6.952710	27.4792	NaN	0.000000	0.001545	0.001668	28.0805	21.8272	0.001886	11573.2	7.215345	-176.462	26.887	0.951129	0.014998	0.014683	27.4792	11573.2	0.013217	0.012981	2116.94	92807
1151	2.000000	0.953445	7.37632e+06	-57689.1	1055.82	-29736.7	0.000000	0.000000	6.954874	31.4149	NaN	0.000000	0.001551	0.001730	28.081	23.3986	0.001785	13106.6	4.704890	-176.148	30.6273	0.953142	0.016999	0.016696	31.4149	13106.6	0.015201	0.015555	2019.61	96012.7
1151	2.000000	0.955419	7.37632e+06	-57689.1	1055.82	-29736.7	0.000000	0.000000	6.957021	35.6374	NaN	0.000000	0.001541	0.001731	28.0816	25.6932	0.001894	13567.5	7.779579	-178.601	35.072	0.955137	0.018973	0.018691	35.6374	13567.5	0.017003	0.018049	1974.44	92266
1151	2.000000	0.957454	7.37632e+06	-57689.1	1055.82	-29736.7	0.000000	0.000000	6.959285	41.1724	NaN	0.000000	0.001569	0.001695	28.082	26.5863	0.001636	16247.9	3.824191	-177.824	40.6516	0.957125	0.021008	0.020679	41.1724	16247.9	0.019108	0.021160	1945.79	102051
1151	2.000000	0.959411	7.37632e+06	-57689.1	1055.82	-29736.7	0.000000	0.000000	6.961427	45.6848	NaN	0.000000	0.001563	0.001694	28.0819	28.5577	0.001751	16311	6.028619	-178.676	45.0037	0.959084	0.022966	0.022638	45.6848	16311	0.020865	0.023920	1909.93	96355.8
1151	2.000000	0.961423	7.37632e+06	-57689.1	1055.82	-29736.7	0.000000	0.000000	6.963737	52.9394	NaN	0.000000	0.001599	0.001694	28.0818	30.775	0.001872	16437.5	2.782875	-175.692	52.4545	0.961113	0.024977	0.024668	52.9394	16437.5	0.022561	0.026728	1980.69	91860
1151	2.000000	0.963434	7.37632e+06	-57689.1	1055.82	-29736.7	0.000000	0.000000	6.965904	56.7374	NaN	0.000000	0.001559	0.001725	28.0823	32.4265	0.001745	18578	8.419815	176.838	56.0795	0.963030	0.026988	0.026584	56.7374	18578	0.024697	0.030467	1862.25	97242.7
1151	2.000000	0.965417	7.37632e+06	-57689.1	1055.82	-29736.7	0.000000	0.000000	6.968060	60.9361	NaN	0.000000	0.001586	0.001722	28.082	34.8931	0.001840	18961.9	3.027183	-177.998	59.6081	0.965097	0.028971	0.028651	60.9361	18961.9	0.026561	0.033916	1796.68	94070.3
1151	2.000000	0.967402	7.37632e+06	-57689.1	1055.82	-29736.7	0.000000	0.000000	6.970283	66.7195	NaN	0.000000	0.001549	0.001735	28.0818	35.4945	0.001745	20342.4	3.615738	-178.774	65.1702	0.967102	0.030956	0.030656	66.7195	20342.4	0.028496	0.037685	1770.47	95739.9
1151	2.000000	0.969396	7.37632e+06	-57689.1	1055.82	-29736.7	0.000000	0.000000	6.972617	74.9636	NaN	0.000000	0.001554	0.001737	28.0818	37.1524	0.001718	21628.3	1.102269	-177.289	73.3632	0.969067	0.032950	0.032621	74.9636	21628.3	0.030351	0.041473	1807.51	97030.9
1151	2.000000	0.971409	7.37632e+06	-57689.1	1055.82	-29736.7	0.000000	0.000000	6.974827	79.765	NaN	0.000000	0.001561	0.001720	28.0815	40.1991	0.001842	21818.6	8.659482	175.586	78.7038	0.971077	0.034963	0.034631	79.765	21818.6	0.032221	0.045474	1754.08	93480
1151	2.000000	0.973373	7.37632e+06	-57689.1	1055.82	-29736.7	0.000000	0.000000	6.976927	83.0626	NaN	0.000000	0.001553	0.001756	28.0819	42.2193	0.001896	22270.8	6.098768	178.751	82.2961	0.973094	0.036927	0.036648	83.0626	22270.8	0.034130	0.049740	1669.95	91234.4
1151	2.000000	0.975373	7.37632e+06	-57689.1	1055.82	-29736.7	0.000000	0.000000	6.979311	92.4007	NaN	0.000000	0.001542	0.001697	28.0817	43.9872	0.001806	24354.9	4.768930	178.384	92.6344	0.975111	0.038927	0.038665	92.4007	24354.9	0.036081	0.054294	1701.87	95495.9
1151	2.000000	0.977361	7.37632e+06	-57689.1	1055.82	-29736.7	0.000000	0.000000	6.981652	100.997	NaN	0.000000	0.001569	0.001739	28.0819	44.5475	0.001729	25767.6	4.112107	178.115	98.6446	0.977086	0.040915	0.040640	100.997	25767.6	0.037975	0.058900	1714.72	97004
1151	2.000000	0.979401	7.37632e+06	-57689.1	1055.82	-29736.7	0.000000	0.000000	6.983976	107.89	NaN	0.000000	0.001545	0.001745	28.0816	47.5254	0.001867	25452	6.835634	176.441	105.466	0.979040	0.042955	0.042594	107.89	25452	0.039776	0.063450	1700.4	92316.5
1151	2.000000	0.981354	7.37632e+06	-57689.1	1055.82	-29736.7	0.000000	0.000000	6.986370	118.593	NaN	0.000000	0.001547	0.001744	28.0817	48.6116	0.001598	30423.5	3.566850	176.821	115.983	0.981120	0.044908	0.044674	118.593	30423.5	0.041984	0.069257	1712.35	105621
1151	2.000000	0.983333	7.37632e+06	-57689.1	1055.82	-29736.7	0.000000	0.000000	6.988683	126.729	NaN	0.000000	0.001544	0.001725	28.0822	49.4405	0.001731	28563.4	4.148033	178.312	122.536	0.983003	0.046887	0.046557	126.729	28563.4	0.043559	0.073550	1723.02	96225.7
1151	2.000000	0.985415	7.37632e+06	-57689.1	1055.82	-29736.7	0.000000	0.000000	6.991174	136.664	NaN	0.000000	0.001533	0.001702	28.0818	52.6723	0.001819	28951.8	4.944516	177.298	139.048	0.985069	0.048969	0.048623	136.664	28951.8	0.045429	0.078809	1734.11	94223.8
1151	2.000000	0.987349	7.37632e+06	-57689.1	1055.82	-29736.7	0.000000	0.000000	6.993629	149.315	NaN	0.000000	0.001574	0.001707	28.0818	53.1964	0.001732	30722.6	2.285802	178.461	147.081	0.987101	0.050903	0.050655	149.315	30722.6	0.047258	0.084126	1774.89	96775.6
1151	2.000000	0.989340	7.37632e+06	-57689.1	1055.82	-29736.7	0.000000	0.000000	6.995959	157.564	NaN	0.000000	0.001543	0.001727	28.0805	55.69	0.001784	31211.5	6.988430	173.911	154.771	0.988982	0.052894	0.052536	157.564	31211.5	0.049108	0.089675	1757.05	95225.2
1151	2.000000	0.991471	7.37632e+06	-57689.1	1055.82	-29736.7	0.000000	0.000000	6.998125	158.418	NaN	0.000000	0.001561	0.001722	28.0804	57.4359	0.001712	33550.2	2.020581	178.348	159.383	0.991163	0.055025	0.054717	158.418	33550.2	0.051484	0.097054	1632.27	98392.5
1151	2.000000	0.993301	7.37632e+06	-57689.1	1055.82	-29736.7	0.000000	0.000000	7.000707	176.671	NaN	0.000000	0.001532	0.001711	28.0804	58.6009	0.001699	34498.6	2.825554	177.195	172.905	0.993020	0.056855	0.056574	176.671	34498.6	0.053014	0.101958	1732.78	98710.6
1151	2.000000	0.995390	7.37632e+06	-57689.1	1055.82	-29736.7	0.000000	0.000000	7.003125	184.696	NaN	0.000000	0.001532	0.001730	28.0804	62.922	0.001804	34879	5.377165	174.993	185.173	0.995043	0.058944	0.058597	184.696	34879	0.054972	0.108400	1703.84	96788.5
1151	2.000000	0.997349	7.37632e+06	-57689.1	1055.82	-29736.7	0.000000	0.000000	7.005527	195.436	NaN	0.000000	0.001553	0.001724	28.0806	63.8749	0.001731	36894.9	5.367339	174.045	194.505	0.997019	0.060903	0.060573	195.436	36894.9	0.056931	0.115032	1698.97	99387
1151	2.000000	0.999346	7.37632e+06	-57689.1	1055.82	-29736.7	0.000000	0.000000	7.007961	206.074	NaN	0.000000	0.001550	0.001763	28.0805	66.1018	0.001805	36623.5	5.902074	174.496	205.797	0.998945	0.062900	0.062499	206.074	36623.5	0.058680	0.121117	1701.44	96145.7
1151	2.000000	1.001382	7.37632e+06	-57689.1	1055.82	-29736.7	0.000000	0.000000	7.010303	213.519	NaN	0.000000	0.001561	0.001726	28.0808	67.9127	0.001813	37463.1	5.203746	174.854	211.573	1.001077	0.064936	0.064631	213.519	37463.1	0.060661	0.128190	1665.64	95598.2
1151	2.000000	1.003344	7.37632e+06	-57689.1	1055.82	-29736.7	0.000000	0.000000	7.012832	227.28	NaN	0.000000	0.001537	0.001718	28.0806	69.526	0.001709	40687.8	4.145582	175.128	226.797	1.003001	0.066899	0.066555	227.28	40687.8	0.062709	0.135702	1674.86	100912
1151	2.000000	1.005328	7.37632e+06	-57689.1	1055.82	-29736.7	0.000000	0.000000	7.015317	239.467	NaN	0.000000	0.001522	0.001733	28.0806	72.541	0.001834	39553.6	7.659387	171.755	238.354	1.005029	0.068882	0.068583	239.467	39553.6	0.064342	0.141835	1688.35	95954.9
1151	2.000000	1.007282	7.37632e+06	-57689.1	1055.82	-29736.7	0.000000	0.000000	7.017561	246.51	NaN	0.000000	0.001563	0.001719	28.0804	72.1935	0.001684	42871.4	3.336172	174.942	242.859	1.006991	0.070836	0.070545	246.51	42871.4	0.066524	0.150234	1640.84	101055
1151	2.000000	1.009331	7.37632e+06	-57689.1	1055.82	-29736.7	0.000000	0.000000	7.020136	259.276	NaN	0.000000	0.001572	0.001738	28.0804	74.7561	0.001845	40519	5.447546	174.244	257.728	1.008957	0.072886	0.072511	259.276	40519	0.068086	0.156391	1657.87	93610.8
1151	2.000000	1.011325	7.37632e+06	-57689.1	1055.82	-29736.7	0.000000	0.000000	7.022613	271.024	NaN	0.000000	0.001534	0.001745	28.0806	76.5551	0.001825	41956.8	1.326787	177.493	267.972	1.011073	0.074879	0.074628	271.024	41956.8	0.070035	0.164229	1650.28	94591.3
1151	2.000000	1.013247	7.37632e+06	-57689.1	1055.82	-29736.7	0.000000	0.000000	7.024979	281.814	NaN	0.000000	0.001572	0.001687	28.0809	77.865	0.001745	44630.1	3.552029	174.704	276.239	1.012991	0.076802	0.076545	281.814	44630.1	0.072066	0.172593	1632.83	98149.8
1151	2.000000	1.015484	7.37632e+06	-57689.1	1055.82	-29736.7	0.000000	0.000000	7.027364	285.404	NaN	0.000000	0.001561	0.001734	28.0804	81.1149	0.001768	45888.9	6.042246	172.206	293.092	1.015158	0.079038	0.078713	285.404	45888.9	0.074374	0.182334	1565.28	98185.4
1151	2.000000	1.017273	7.37632e+06	-57689.1	1055.82	-29736.7	0.000000	0.000000	7.029971	305.31	NaN	0.000000	0.001612	0.001707	28.0805	81.0303	0.001971	41110.9	0.742258	178.571	300.593	1.017007	0.080827	0.080561	305.31	41110.9	0.075257	0.186128	1640.32	87061.3
1151	2.000000	1.019256	7.37632e+06	-57689.1	1055.82	-29736.7	0.000000	0.000000	7.032487	318.261	NaN	0.000000	0.001626	0.001720	28.0805	83.2493	0.001827	45570.4	5.671742	172.478	314.204	1.018948	0.082810	0.082502	318.261	45570.4	0.077572	0.196248	1621.73	93984
1151	2.000000	1.021268	7.37632e+06	-57689.1	1055.82	-29736.7	0.000000	0.000000	7.035175	334.679	NaN	0.000000	0.001604	0.001700	28.0806	84.4388	0.001806	46744.6	2.225707	175.919	329.23	1.021022	0.084822	0.084577	334.679	46744.6	0.079452	0.204649	1635.38	94406
1151	2.000000	1.023246	7.37632e+06	-57689.1	1055.82	-29736.7	0.000000	0.000000	7.037246	336.941	NaN	0.000000	0.001602	0.001718	28.0811	85.8385	0.001821	47144.4	0.039415	177.774	331.17	1.023041	0.086800	0.086595	336.941	47144.4	0.081440	0.213711	1576.62	93172.9
1151	2.000000	1.025301	7.37632e+06	-57689.1	1055.82	-29736.7	0.000000	0.000000	7.040018	354.368	NaN	0.000000	0.001602	0.001699	28.0817	88.3298	0.001863	47415.9	3.562350	174.061	351.729	1.024992	0.088855	0.088546	354.368	47415.9	0.083250	0.222124	1595.36	91917.7
1151	2.000000	1.027282	7.37632e+06	-57689.1	1055.82	-29736.7	0.000000	0.000000	7.042485	366.189	NaN	0.000000	0.001592	0.001718	28.0819	88.9148	0.001700	52290	5.420027	171.481	361.665	1.026935	0.090836	0.090489	366.189	52290	0.085584	0.233196	1570.31	98930.9
1151	2.000000	1.029345	7.37632e+06	-57689.1	1055.82	-29736.7	0.000000	0.000000	7.045226	382.667	NaN	0.000000	0.001607	0.001712	28.0818	91.0365	0.001827	49831.8	5.267084	172.971	381.604	1.028956	0.092899	0.092510	382.667	49831.8	0.087139	0.240712	1589.73	92796.2
1151	2.000000	1.031278	7.37632e+06	-57689.1	1055.82	-29736.7	0.000000	0.000000	7.047625	393.98	NaN	0.000000	0.001621	0.001717	28.0816	93.2757	0.001854	50310.5	4.948093	173.148	390.245	1.030857	0.094832	0.094411	393.98	50310.5	0.088959	0.249649	1578.13	91995.4
1151	2.000000	1.033350	7.37632e+06	-57689.1	1055.82	-29736.7	0.000000	0.000000	7.050300	408.645	NaN	0.000000	0.001625	0.001709	28.0817	94.556	0.001716	55116.9	6.926497	170.399	408.141	1.032936	0.096904	0.096490	408.645	55116.9	0.091343	0.261587	1562.18	98457.8
1151	2.000000	1.035356	7.37632e+06	-57689.1	1055.82	-29736.7	0.000000	0.000000	7.052637	416.683	NaN	0.000000	0.001604	0.001712	28.0817	98.1766	0.001808	54304.9	4.053805	173.418	418.357	1.034916	0.098910	0.098470	416.683	54304.9	0.093155	0.270836	1538.51	95336.5
1151	2.000000	1.037298	7.37632e+06	-57689.1	1055.82	-29736.7	0.000000	0.000000	7.055292	434.02	NaN	0.000000	0.001649	0.001711	28.0822	99.1984	0.001795	55276.6	6.182752	170.881	432.298	1.036962	0.100852	0.100516	434.02	55276.6	0.094964	0.280213	1548.89	95404.9
1151	2.000000	1.038311	7.37632e+06	-57689.1	1055.82	-29736.7	0.000000	0.000000	7.056574	440.557	NaN	0.000000	0.001564	0.001724	28.0818	101.816	0.001755	58013	7.479557	168.923	439.315	1.037963	0.101865	0.101517	440.557	58013	0.096169	0.286550	1537.45	99014.4