File: remote_trans/data/nanoindenter/0828-1/data/Data_2025-08-06,11h17m57s/2025-07-22_16-23-58_1_794.txt
2025-07-22, 16:23:58, 1
Index	Phase	Displacement	Time	Pos X	Pos Y	Pos Z	Rot A	Rot B	Piezo Z	Force A	Force B	Gripper	Voltage A	Voltage B	Temperature	Amplitude force	Amplitude pos	Stiffness	Phase shift	Phase excitation	Force A raw	Displacement raw	HMax	HMax raw	Real Force	Real Stiffness	Contact Depth	Area	Hardness	Reduced Mod.
[#]	[#]	[um]	[s]	[um]	[um]	[um]	[m°]	[m°]	[um]	[uN]	[uN]	[V]	[V]	[V]	[°C]	[uN]	[um]	[N/m]	[°]	[°]	[uN]	[um]	[um]	[um]	[uN]	[N/m]	[um]	[um^2]	[MPa]	[MPa]
794	1.000000	0.002318	7.37282e+06	-39839.1	1055.82	-29792.3	0.000000	0.000000	6.002775	-0.054119	NaN	0.000000	0.001622	0.001706	28.0817	0.027957	0.000961	29.0836	132.948	-173.654	-0.056818	0.001078	-1.103497	-1.104737	-0.054119	29.0836	-1.102102	-5.349095E+14	1.011748E-16	NaN
794	1.000000	0.012412	7.37282e+06	-39839.1	1055.82	-29792.3	0.000000	0.000000	6.012873	0.020804	NaN	0.000000	0.001628	0.001739	28.0819	0.014181	0.001202	11.7959	-70.1856	19.2369	-0.040219	0.010956	-1.093403	-1.094859	0.020804	11.7959	-1.094726	-4.258581E+14	-4.885219E-17	NaN
794	1.000000	0.022301	7.37282e+06	-39839.1	1055.82	-29792.3	0.000000	0.000000	6.022758	-0.055648	NaN	0.000000	0.001596	0.001717	28.0821	0.145142	0.001864	77.8481	-84.8073	-168.293	-0.037998	0.020993	-1.083514	-1.084822	-0.055648	77.8481	-1.082978	-2.961539E+14	1.879025E-16	NaN
794	1.000000	0.032334	7.37282e+06	-39839.1	1055.82	-29792.3	0.000000	0.000000	6.032791	-0.056181	NaN	0.000000	0.001643	0.001749	28.0835	0.103803	0.001878	55.2669	32.9099	11.1731	0.024239	0.030847	-1.073482	-1.074968	-0.056181	55.2669	-1.072719	-2.156357E+14	2.605349E-16	NaN
794	1.000000	0.042265	7.37282e+06	-39839.1	1055.82	-29792.3	0.000000	0.000000	6.042723	-0.035745	NaN	0.000000	0.001629	0.001705	28.0835	0.047497	0.001916	24.7878	12.8993	-168.644	-0.040953	0.040977	-1.063550	-1.064838	-0.035745	24.7878	-1.062468	-1.570337E+14	2.276247E-16	NaN
794	1.000000	0.052292	7.37282e+06	-39839.1	1055.82	-29792.3	0.000000	0.000000	6.052750	-0.041988	NaN	0.000000	0.001642	0.001706	28.0832	0.161835	0.001976	81.89	-35.7587	13.5696	0.049253	0.050965	-1.053523	-1.054850	-0.041988	81.89	-1.053139	-1.176536E+14	3.568745E-16	NaN
794	1.000000	0.062299	7.37282e+06	-39839.1	1055.82	-29792.3	0.000000	0.000000	6.062757	-0.034938	NaN	0.000000	0.001631	0.001738	28.0833	0.057066	0.002045	27.9068	-77.782	-164.415	-0.027622	0.060972	-1.043516	-1.044843	-0.034938	27.9068	-1.042577	-8.484354E+13	4.117884E-16	NaN
794	1.000000	0.072296	7.37282e+06	-39839.1	1055.82	-29792.3	0.000000	0.000000	6.072755	-0.021645	NaN	0.000000	0.001606	0.001745	28.0831	0.013337	0.002009	6.638443	106.41	16.7982	0.021337	0.070967	-1.033519	-1.034848	-0.021645	6.638443	-1.031073	-5.941792E+13	3.642920E-16	NaN
794	1.000000	0.082256	7.37282e+06	-39839.1	1055.82	-29792.3	0.000000	0.000000	6.082713	-0.082644	NaN	0.000000	0.001673	0.001691	28.0832	0.083039	0.001948	42.6253	-118.583	-168.899	-0.116788	0.080969	-1.023559	-1.024846	-0.082644	42.6253	-1.022105	-4.500592E+13	1.836301E-15	NaN
794	1.000000	0.092309	7.37282e+06	-39839.1	1055.82	-29792.3	0.000000	0.000000	6.092768	-0.014130	NaN	0.000000	0.001700	0.001720	28.0831	0.129470	0.001889	68.5531	-69.0184	14.4118	0.026209	0.090898	-1.013506	-1.014917	-0.014130	68.5531	-1.013352	-3.431547E+13	4.117814E-16	NaN
794	1.000000	0.102300	7.37282e+06	-39839.1	1055.82	-29792.3	0.000000	0.000000	6.102756	-0.095858	NaN	0.000000	0.001710	0.001694	28.0831	0.011599	0.002168	5.350321	107.745	-164.382	-0.037148	0.100986	-1.003515	-1.004829	-0.095858	5.350321	-0.990078	-1.667875E+13	5.747315E-15	NaN
794	1.000000	0.112321	7.37282e+06	-39839.1	1055.82	-29792.3	0.000000	0.000000	6.112779	-0.040478	NaN	0.000000	0.001672	0.001692	28.0833	0.040617	0.001907	21.2944	94.5509	16.358	-0.016641	0.110972	-0.993494	-0.994843	-0.040478	21.2944	-0.992069	-1.774071E+13	2.281626E-15	NaN
794	1.000000	0.122322	7.37282e+06	-39839.1	1055.82	-29792.3	0.000000	0.000000	6.122780	-0.048358	NaN	0.000000	0.001720	0.001686	28.0834	0.041633	0.002087	19.9444	86.8464	-167.015	-0.021679	0.121043	-0.983493	-0.984772	-0.048358	19.9444	-0.981675	-1.285198E+13	3.762704E-15	NaN
794	1.000000	0.132316	7.37282e+06	-39839.1	1055.82	-29792.3	0.000000	0.000000	6.132774	-0.059125	NaN	0.000000	0.001698	0.001702	28.0833	0.142344	0.001983	71.7714	100.503	15.5818	-0.006155	0.130955	-0.973499	-0.974861	-0.059125	71.7714	-0.972881	-9.783390E+12	6.043421E-15	NaN
794	1.000000	0.142332	7.37282e+06	-39839.1	1055.82	-29792.3	0.000000	0.000000	6.142790	-0.022564	NaN	0.000000	0.001688	0.001730	28.0831	0.109430	0.001920	56.9949	-75.6634	-165.013	-0.000965	0.141036	-0.963484	-0.964780	-0.022564	56.9949	-0.963187	-7.241491E+12	3.115980E-15	NaN
794	1.000000	0.152367	7.37282e+06	-39839.1	1055.82	-29792.3	0.000000	0.000000	6.152823	-0.094189	NaN	0.000000	0.001705	0.001721	28.0835	0.074441	0.002034	36.5947	2.081481	15.2821	-0.013446	0.150950	-0.953448	-0.954865	-0.094189	36.5947	-0.951518	-5.040742E+12	1.868553E-14	NaN
794	1.000000	0.162315	7.37282e+06	-39839.1	1055.82	-29792.3	0.000000	0.000000	6.162777	0.052936	NaN	0.000000	0.001697	0.001749	28.0818	0.048481	0.002037	23.7996	151.327	-162.418	-0.075064	0.161012	-0.943500	-0.944804	0.052936	23.7996	-0.945168	-4.138652E+12	-1.279066E-14	NaN
794	1.000000	0.172349	7.37282e+06	-39839.1	1055.82	-29792.3	0.000000	0.000000	6.172808	-0.026737	NaN	0.000000	0.001692	0.001751	28.0821	0.088332	0.002009	43.9766	-137.453	14.2118	-0.004829	0.170931	-0.933466	-0.934885	-0.026737	43.9766	-0.933010	-2.836723E+12	9.425226E-15	NaN
794	1.000000	0.182355	7.37282e+06	-39839.1	1055.82	-29792.3	0.000000	0.000000	6.182811	-0.099766	NaN	0.000000	0.001676	0.001733	28.0819	0.107423	0.002139	50.2111	35.434	-164.62	-0.037119	0.181015	-0.923460	-0.924801	-0.099766	50.2111	-0.921970	-2.012801E+12	4.956596E-14	NaN
794	1.000000	0.192333	7.37282e+06	-39839.1	1055.82	-29792.3	0.000000	0.000000	6.192792	-0.011866	NaN	0.000000	0.001692	0.001714	28.0822	0.029857	0.002012	14.8401	87.9874	14.3757	0.032756	0.190940	-0.913483	-0.914875	-0.011866	14.8401	-0.912883	-1.517400E+12	7.820180E-15	NaN
794	1.000000	0.202324	7.37282e+06	-39839.1	1055.82	-29792.3	0.000000	0.000000	6.202784	0.002117	NaN	0.000000	0.001657	0.001730	28.0818	0.058543	0.002015	29.0556	129.456	-166.361	0.027118	0.201019	-0.903491	-0.904797	0.002117	29.0556	-0.903546	-1.134938E+12	-1.864877E-15	NaN
794	1.000000	0.212337	7.37282e+06	-39839.1	1055.82	-29792.3	0.000000	0.000000	6.212794	-0.061554	NaN	0.000000	0.001661	0.001709	28.0818	0.065563	0.002048	32.0165	-37.6379	10.5651	-0.054653	0.211028	-0.893478	-0.894787	-0.061554	32.0165	-0.892037	-7.933123E+11	7.759068E-14	NaN
794	1.000000	0.222391	7.37282e+06	-39839.1	1055.82	-29792.3	0.000000	0.000000	6.222849	-0.040158	NaN	0.000000	0.001655	0.001739	28.0816	0.067035	0.001980	33.8596	-111.745	-168.495	-0.083561	0.221048	-0.883425	-0.884767	-0.040158	33.8596	-0.882535	-5.901857E+11	6.804311E-14	NaN
794	1.000000	0.232349	7.37282e+06	-39839.1	1055.82	-29792.3	0.000000	0.000000	6.232809	0.003124	NaN	0.000000	0.001700	0.001706	28.082	0.086187	0.002039	42.2743	84.7244	11.9004	0.008174	0.231008	-0.873466	-0.874808	0.003124	42.2743	-0.873521	-4.457415E+11	-7.007793E-15	NaN
794	1.000000	0.242363	7.37282e+06	-39839.1	1055.82	-29792.3	0.000000	0.000000	6.242819	-0.086951	NaN	0.000000	0.001707	0.001701	28.0818	0.088757	0.001926	46.0751	119.38	-162.731	-0.002797	0.241091	-0.863452	-0.864725	-0.086951	46.0751	-0.862037	-3.116637E+11	2.789895E-13	NaN
794	1.000000	0.252380	7.37282e+06	-39839.1	1055.82	-29792.3	0.000000	0.000000	6.252838	-0.029298	NaN	0.000000	0.001719	0.001750	28.0818	0.055754	0.002034	27.4168	125.88	8.316755	-0.090473	0.251041	-0.853435	-0.854774	-0.029298	27.4168	-0.852634	-2.324887E+11	1.260190E-13	NaN
794	1.000000	0.262384	7.37282e+06	-39839.1	1055.82	-29792.3	0.000000	0.000000	6.262842	-0.033633	NaN	0.000000	0.001709	0.001701	28.0818	0.036551	0.002141	17.0756	61.2559	-165.886	-0.067103	0.261078	-0.843431	-0.844737	-0.033633	17.0756	-0.841954	-1.666346E+11	2.018370E-13	NaN
794	1.000000	0.272385	7.37282e+06	-39839.1	1055.82	-29792.3	0.000000	0.000000	6.272845	0.001211	NaN	0.000000	0.001718	0.001706	28.0821	0.083959	0.001926	43.5962	115.841	15.6406	0.074642	0.271024	-0.833430	-0.834791	0.001211	43.5962	-0.833451	-1.278064E+11	-9.473908E-15	NaN
794	1.000000	0.282403	7.37282e+06	-39839.1	1055.82	-29792.3	0.000000	0.000000	6.282862	-0.017569	NaN	0.000000	0.001661	0.001703	28.0817	0.025796	0.001952	13.2169	-179.83	-166.244	-0.088820	0.281065	-0.823412	-0.824750	-0.017569	13.2169	-0.822415	-9.056494E+10	1.939909E-13	NaN
794	1.000000	0.292362	7.37282e+06	-39839.1	1055.82	-29792.3	0.000000	0.000000	6.292822	0.014909	NaN	0.000000	0.001696	0.001705	28.0817	0.116762	0.002085	56.0053	-102.772	12.6283	-0.014814	0.291033	-0.813454	-0.814782	0.014909	56.0053	-0.813653	-6.888600E+10	-2.164229E-13	NaN
794	1.000000	0.302400	7.37282e+06	-39839.1	1055.82	-29792.3	0.000000	0.000000	6.302860	0.021232	NaN	0.000000	0.001664	0.001685	28.083	0.084183	0.002009	41.9109	178.05	-167.119	0.120046	0.301119	-0.803415	-0.804696	0.021232	41.9109	-0.803795	-5.062648E+10	-4.193906E-13	NaN
794	1.000000	0.312384	7.37282e+06	-39839.1	1055.82	-29792.3	0.000000	0.000000	6.312844	-0.010777	NaN	0.000000	0.001709	0.001750	28.0834	0.061655	0.002068	29.8064	139.979	14.3229	-0.044290	0.311040	-0.793431	-0.794775	-0.010777	29.8064	-0.793160	-3.630727E+10	2.968412E-13	NaN
794	1.000000	0.322422	7.37282e+06	-39839.1	1055.82	-29792.3	0.000000	0.000000	6.322879	-0.064127	NaN	0.000000	0.001726	0.001703	28.0831	0.014404	0.002000	7.202803	53.657	-163.155	-0.047901	0.321086	-0.783394	-0.784729	-0.064127	7.202803	-0.776716	-2.170734E+10	2.954145E-12	NaN
794	1.000000	0.332447	7.37282e+06	-39839.1	1055.82	-29792.3	0.000000	0.000000	6.332907	0.009349	NaN	0.000000	0.001647	0.001688	28.0832	0.094351	0.002001	47.1488	-73.3486	16.2783	-0.054466	0.330996	-0.773368	-0.774819	0.009349	47.1488	-0.773517	-1.963908E+10	-4.760338E-13	NaN
794	1.000000	0.342387	7.37282e+06	-39839.1	1055.82	-29792.3	0.000000	0.000000	6.342845	-0.044327	NaN	0.000000	0.001692	0.001716	28.0835	0.141616	0.002002	70.72	-75.4129	-165.991	-0.020688	0.341084	-0.763429	-0.764731	-0.044327	70.72	-0.762958	-1.411063E+10	3.141374E-12	NaN
794	1.000000	0.352429	7.37282e+06	-39839.1	1055.82	-29792.3	0.000000	0.000000	6.352884	-0.094050	NaN	0.000000	0.001699	0.001705	28.0833	0.109659	0.002105	52.0827	77.2792	14.9595	-0.033242	0.351041	-0.753387	-0.754774	-0.094050	52.0827	-0.752032	-1.002032E+10	9.385953E-12	NaN
794	1.000000	0.362423	7.37282e+06	-39839.1	1055.82	-29792.3	0.000000	0.000000	6.362882	-0.019810	NaN	0.000000	0.001686	0.001707	28.0831	0.033271	0.002078	16.01	160.268	-168.048	0.013717	0.361147	-0.743392	-0.744668	-0.019810	16.01	-0.742464	-7.423657E+9	2.668500E-12	NaN
794	1.000000	0.372445	7.37282e+06	-39839.1	1055.82	-29792.3	0.000000	0.000000	6.372902	-0.062986	NaN	0.000000	0.001726	0.001712	28.0831	0.045340	0.001715	26.4336	-39.1385	14.0554	-0.047308	0.371045	-0.733371	-0.734770	-0.062986	26.4336	-0.731584	-5.277024E+9	1.193582E-11	NaN
794	1.000000	0.382444	7.37282e+06	-39839.1	1055.82	-29792.3	0.000000	0.000000	6.382902	-0.027254	NaN	0.000000	0.001701	0.001714	28.0832	0.094841	0.001989	47.6939	67.6776	-165.085	-0.026523	0.381117	-0.723371	-0.724698	-0.027254	47.6939	-0.722943	-4.023484E+9	6.773803E-12	NaN
794	1.000000	0.392415	7.37282e+06	-39839.1	1055.82	-29792.3	0.000000	0.000000	6.392871	-0.073804	NaN	0.000000	0.001689	0.001693	28.0832	0.037178	0.001981	18.7717	-123.337	14.2872	-0.020193	0.391113	-0.713401	-0.714702	-0.073804	18.7717	-0.710452	-2.717787E+9	2.715582E-11	NaN
794	1.000000	0.402434	7.37282e+06	-39839.1	1055.82	-29792.3	0.000000	0.000000	6.402893	-0.022008	NaN	0.000000	0.001716	0.001698	28.0831	0.046445	0.001992	23.3215	129.856	-162.887	-0.090463	0.401147	-0.703381	-0.704668	-0.022008	23.3215	-0.702673	-2.128315E+9	1.034065E-11	NaN
794	1.000000	0.412438	7.37282e+06	-39839.1	1055.82	-29792.3	0.000000	0.000000	6.412898	-0.008644	NaN	0.000000	0.001731	0.001665	28.0831	0.066927	0.002045	32.7267	-3.486241	12.3801	0.001230	0.411075	-0.693377	-0.694740	-0.008644	32.7267	-0.693179	-1.578905E+9	5.474386E-12	NaN
794	1.000000	0.422440	7.37282e+06	-39839.1	1055.82	-29792.3	0.000000	0.000000	6.422901	0.013794	NaN	0.000000	0.001709	0.001739	28.0829	0.043613	0.001913	22.7983	-48.3978	-166.857	-0.000466	0.421162	-0.683375	-0.684653	0.013794	22.7983	-0.683829	-1.176415E+9	-1.172579E-11	NaN
794	1.000000	0.432435	7.37282e+06	-39839.1	1055.82	-29792.3	0.000000	0.000000	6.432894	-0.029984	NaN	0.000000	0.001733	0.001694	28.0827	0.060142	0.002003	30.0202	3.210850	13.78	-0.029089	0.431074	-0.673380	-0.674741	-0.029984	30.0202	-0.672631	-8.267855E+8	3.626520E-11	NaN
794	1.000000	0.442455	7.37282e+06	-39839.1	1055.82	-29792.3	0.000000	0.000000	6.442913	-0.047785	NaN	0.000000	0.001720	0.001698	28.0818	0.069438	0.002058	33.7381	-23.5389	-164.549	-0.041174	0.441160	-0.663360	-0.664655	-0.047785	33.7381	-0.662298	-5.969532E+8	8.004879E-11	NaN
794	1.000000	0.452439	7.37282e+06	-39839.1	1055.82	-29792.3	0.000000	0.000000	6.452896	-0.071968	NaN	0.000000	0.001737	0.001716	28.0817	0.027520	0.001936	14.2151	145.683	7.647087	-0.119602	0.451116	-0.653376	-0.654699	-0.071968	14.2151	-0.649579	-3.996345E+8	1.800834E-10	NaN
794	1.000000	0.462448	7.37282e+06	-39839.1	1055.82	-29792.3	0.000000	0.000000	6.462906	-0.028941	NaN	0.000000	0.001714	0.001694	28.0819	0.046247	0.001931	23.9515	106.222	-167.143	-0.051398	0.461161	-0.643368	-0.644654	-0.028941	23.9515	-0.642461	-3.191970E+8	9.066742E-11	NaN
794	1.000000	0.472468	7.37282e+06	-39839.1	1055.82	-29792.3	0.000000	0.000000	6.472926	-0.028496	NaN	0.000000	0.001687	0.001660	28.0817	0.015448	0.001915	8.068978	137.44	17.8322	0.025318	0.471119	-0.633347	-0.634696	-0.028496	8.068978	-0.630699	-2.200991E+8	1.294698E-10	NaN
794	1.000000	0.482466	7.37282e+06	-39839.1	1055.82	-29792.3	0.000000	0.000000	6.482926	0.005341	NaN	0.000000	0.001700	0.001681	28.0819	0.046775	0.001879	24.8954	158.385	-167.206	0.019500	0.481131	-0.623349	-0.624684	0.005341	24.8954	-0.623510	-1.753368E+8	-3.046417E-11	NaN
794	1.000000	0.492453	7.37282e+06	-39839.1	1055.82	-29792.3	0.000000	0.000000	6.492913	0.003347	NaN	0.000000	0.001714	0.001700	28.0819	0.031357	0.001993	15.7327	-27.3746	15.2084	-0.084007	0.491149	-0.613362	-0.614666	0.003347	15.7327	-0.613522	-1.278092E+8	-2.618711E-11	NaN
794	1.000000	0.502484	7.37282e+06	-39839.1	1055.82	-29792.3	0.000000	0.000000	6.502945	0.029091	NaN	0.000000	0.001677	0.001703	28.0819	0.093975	0.002039	46.0991	134.26	-168.075	0.037950	0.501184	-0.603331	-0.604631	0.029091	46.0991	-0.603805	-9.393988E+7	-3.096818E-10	NaN
794	1.000000	0.512480	7.37282e+06	-39839.1	1055.82	-29792.3	0.000000	0.000000	6.512937	-0.066641	NaN	0.000000	0.001719	0.001702	28.0816	0.045067	0.002060	21.8752	59.5151	14.4713	0.009790	0.511094	-0.593335	-0.594721	-0.066641	21.8752	-0.591051	-6.268305E+7	1.063142E-9	NaN
794	1.000000	0.522491	7.37282e+06	-39839.1	1055.82	-29792.3	0.000000	0.000000	6.522949	-0.043522	NaN	0.000000	0.001740	0.001683	28.0817	0.167547	0.001977	84.7571	85.6535	-168.498	-0.003601	0.521210	-0.583324	-0.584605	-0.043522	84.7571	-0.582939	-4.844863E+7	8.983101E-10	NaN
794	1.000000	0.532482	7.37282e+06	-39839.1	1055.82	-29792.3	0.000000	0.000000	6.532938	-0.088598	NaN	0.000000	0.001665	0.001698	28.0819	0.005803	0.002016	2.879255	163.442	14.3006	-0.049199	0.531157	-0.573333	-0.574658	-0.088598	2.879255	-0.550255	-1.711919E+7	5.175389E-9	NaN
794	1.000000	0.542472	7.37282e+06	-39839.1	1055.82	-29792.3	0.000000	0.000000	6.542929	-0.084309	NaN	0.000000	0.001662	0.001680	28.0818	0.083822	0.002041	41.0755	-158.495	-164.566	0.034790	0.541216	-0.563343	-0.564599	-0.084309	41.0755	-0.561803	-2.473562E+7	3.408418E-9	NaN
794	1.000000	0.552509	7.37282e+06	-39839.1	1055.82	-29792.3	0.000000	0.000000	6.552967	-0.035692	NaN	0.000000	0.001668	0.001708	28.0819	0.030219	0.001902	15.8873	-17.8979	14.3178	0.009031	0.551170	-0.553306	-0.554646	-0.035692	15.8873	-0.551622	-1.788191E+7	1.995961E-9	NaN
794	1.000000	0.562525	7.37282e+06	-39839.1	1055.82	-29792.3	0.000000	0.000000	6.562985	-0.005239	NaN	0.000000	0.001651	0.001719	28.082	0.038409	0.001942	19.7796	-129.267	-167.535	-0.059878	0.561183	-0.543290	-0.544633	-0.005239	19.7796	-0.543091	-1.362133E+7	3.845833E-10	NaN
794	1.000000	0.572502	7.37282e+06	-39839.1	1055.82	-29792.3	0.000000	0.000000	6.572960	-0.053321	NaN	0.000000	0.001654	0.001711	28.0834	0.068675	0.002007	34.2209	-152.534	14.2964	-0.036136	0.571122	-0.533313	-0.534693	-0.053321	34.2209	-0.532144	-9.60174e+06	5.553255E-9	NaN
794	1.000000	0.582522	7.37282e+06	-39839.1	1055.82	-29792.3	0.000000	0.000000	6.582983	0.018336	NaN	0.000000	0.001630	0.001719	28.0831	0.031185	0.002052	15.197	101.382	-167.545	0.125897	0.581212	-0.523293	-0.524603	0.018336	15.197	-0.524198	-7.44669e+06	-2.462248E-9	NaN
794	1.000000	0.592544	7.37282e+06	-39839.1	1055.82	-29792.3	0.000000	0.000000	6.593001	-0.062999	NaN	0.000000	0.001640	0.001698	28.0831	0.085639	0.001890	45.3185	133.208	14.265	-0.020015	0.591109	-0.513271	-0.514706	-0.062999	45.3185	-0.512228	-5.07513e+06	1.241327E-8	NaN
794	1.000000	0.602503	7.37282e+06	-39839.1	1055.82	-29792.3	0.000000	0.000000	6.602962	-0.007418	NaN	0.000000	0.001642	0.001685	28.0831	0.022009	0.002054	10.717	18.1342	-165.829	-0.030313	0.601243	-0.503312	-0.504572	-0.007418	10.717	-0.502793	-3.74954e+06	1.978411E-9	NaN
794	1.000000	0.612537	7.37282e+06	-39839.1	1055.82	-29792.3	0.000000	0.000000	6.612996	-0.012956	NaN	0.000000	0.001621	0.001707	28.0838	0.038313	0.002105	18.197	-27.8613	12.5707	0.018833	0.611153	-0.493278	-0.494663	-0.012956	18.197	-0.492744	-2.71478e+06	4.772503E-9	NaN
794	1.000000	0.622515	7.37282e+06	-39839.1	1055.82	-29792.3	0.000000	0.000000	6.622972	-0.051788	NaN	0.000000	0.001639	0.001681	28.083	0.038762	0.002088	18.5627	86.1973	-166.357	-0.006601	0.621194	-0.483301	-0.484622	-0.051788	18.5627	-0.481208	-1.87257e+06	2.765580E-8	NaN
794	1.000000	0.632535	7.37282e+06	-39839.1	1055.82	-29792.3	0.000000	0.000000	6.632995	0.005055	NaN	0.000000	0.001597	0.001692	28.0834	0.056650	0.002116	26.7672	54.2735	15.5964	0.008823	0.631201	-0.473280	-0.474614	0.005055	26.7672	-0.473422	-1.45674e+06	-3.470115E-9	NaN
794	1.000000	0.642509	7.37282e+06	-39839.1	1055.82	-29792.3	0.000000	0.000000	6.642969	-0.007136	NaN	0.000000	0.001615	0.001674	28.0829	0.084463	0.001984	42.5645	-75.7562	-162.331	0.035125	0.641240	-0.463306	-0.464575	-0.007136	42.5645	-0.463180	-1.04639e+06	6.819761E-9	NaN
794	1.000000	0.652550	7.37282e+06	-39839.1	1055.82	-29792.3	0.000000	0.000000	6.653007	-0.070406	NaN	0.000000	0.001652	0.001703	28.0832	0.108787	0.001984	54.8329	116.791	12.9827	-0.059202	0.651171	-0.453265	-0.454645	-0.070406	54.8329	-0.452302	-735789	9.568733E-8	NaN
794	1.000000	0.662561	7.37282e+06	-39839.1	1055.82	-29792.3	0.000000	0.000000	6.663021	0.006514	NaN	0.000000	0.001635	0.001675	28.0829	0.051021	0.002177	23.4321	175.359	-168.936	-0.034186	0.661283	-0.443255	-0.444533	0.006514	23.4321	-0.443463	-552359	-1.179373E-8	NaN
794	1.000000	0.672575	7.37282e+06	-39839.1	1055.82	-29792.3	0.000000	0.000000	6.673029	-0.124979	NaN	0.000000	0.001660	0.001700	28.0829	0.067988	0.001865	36.4549	77.0303	13.9827	-0.074137	0.671195	-0.433241	-0.434620	-0.124979	36.4549	-0.430669	-364360	3.430083E-7	NaN
794	1.000000	0.682552	7.37282e+06	-39839.1	1055.82	-29792.3	0.000000	0.000000	6.683012	0.007263	NaN	0.000000	0.001662	0.001697	28.0831	0.112626	0.002014	55.9335	49.6042	-166.734	0.043566	0.681237	-0.423263	-0.424578	0.007263	55.9335	-0.423360	-287113	-2.529604E-8	NaN
794	1.000000	0.692567	7.37282e+06	-39839.1	1055.82	-29792.3	0.000000	0.000000	6.693027	0.002399	NaN	0.000000	0.001623	0.001710	28.0832	0.145485	0.001988	73.1926	-120.505	15.7144	-0.064888	0.691229	-0.413248	-0.414586	0.002399	73.1926	-0.413273	-206501	-1.161704E-8	NaN
794	1.000000	0.702561	7.37282e+06	-39839.1	1055.82	-29792.3	0.000000	0.000000	6.703018	-0.046229	NaN	0.000000	0.001596	0.001714	28.0828	0.048313	0.001896	25.4856	-139.527	-164.878	-0.070055	0.701205	-0.403255	-0.404610	-0.046229	25.4856	-0.401894	-142233	3.250225E-7	NaN
794	1.000000	0.712586	7.37282e+06	-39839.1	1055.82	-29792.3	0.000000	0.000000	6.713046	0.009561	NaN	0.000000	0.001626	0.001678	28.0818	0.096333	0.002094	46.003	69.1233	12.6125	-0.008546	0.711115	-0.393229	-0.394700	0.009561	46.003	-0.393385	-107538	-8.890445E-8	NaN
794	1.000000	0.722552	7.37282e+06	-39839.1	1055.82	-29792.3	0.000000	0.000000	6.723010	-0.040208	NaN	0.000000	0.001616	0.001705	28.0819	0.051617	0.002045	25.2462	88.6771	-163.64	-0.055642	0.721253	-0.383263	-0.384562	-0.040208	25.2462	-0.382069	-74057.7	5.429263E-7	NaN
794	1.000000	0.732590	7.37282e+06	-39839.1	1055.82	-29792.3	0.000000	0.000000	6.733049	-0.032171	NaN	0.000000	0.001629	0.001672	28.0818	0.047771	0.002048	23.3241	18.8278	13.6015	-0.106522	0.731240	-0.373225	-0.374575	-0.032171	23.3241	-0.372190	-53414.4	6.022841E-7	NaN
794	1.000000	0.742580	7.37282e+06	-39839.1	1055.82	-29792.3	0.000000	0.000000	6.743040	-0.012584	NaN	0.000000	0.001651	0.001665	28.0819	0.066045	0.002003	32.9695	-107.524	-165.993	-0.002157	0.741276	-0.363235	-0.364539	-0.012584	32.9695	-0.362949	-39304.7	3.201623E-7	NaN
794	1.000000	0.752562	7.37282e+06	-39839.1	1055.82	-29792.3	0.000000	0.000000	6.753019	-0.060649	NaN	0.000000	0.001619	0.001688	28.0819	0.052759	0.002037	25.9062	-177.037	11.1825	-0.011411	0.751234	-0.353254	-0.354582	-0.060649	25.9062	-0.351498	-26837	2.259909E-6	NaN
794	1.000000	0.762575	7.37282e+06	-39839.1	1055.82	-29792.3	0.000000	0.000000	6.763035	0.004700	NaN	0.000000	0.001626	0.001667	28.082	0.068631	0.001956	35.0807	-72.6003	-168.078	-0.030898	0.761259	-0.343240	-0.344556	0.004700	35.0807	-0.343341	-20427.5	-2.301056E-7	NaN
794	1.000000	0.772583	7.37282e+06	-39839.1	1055.82	-29792.3	0.000000	0.000000	6.773041	-0.034035	NaN	0.000000	0.001618	0.001701	28.0819	0.071681	0.001957	36.6232	-68.9133	15.8322	-0.096632	0.771263	-0.333232	-0.334553	-0.034035	36.6232	-0.332535	-14208.7	2.395341E-6	NaN
794	1.000000	0.782573	7.37282e+06	-39839.1	1055.82	-29792.3	0.000000	0.000000	6.783032	-0.016078	NaN	0.000000	0.001599	0.001705	28.0819	0.126591	0.001999	63.3298	86.9875	-163.524	-0.092758	0.781224	-0.323242	-0.324591	-0.016078	63.3298	-0.323052	-10316.3	1.558526E-6	NaN
794	1.000000	0.792603	7.37283e+06	-39839.1	1055.82	-29792.3	0.000000	0.000000	6.793064	0.037443	NaN	0.000000	0.001629	0.001687	28.0821	0.098920	0.002028	48.7789	-174.768	15.5348	-0.009905	0.791188	-0.313212	-0.314627	0.037443	48.7789	-0.313788	-7534.54	-4.969481E-6	NaN
794	1.000000	0.802601	7.37283e+06	-39839.1	1055.82	-29792.3	0.000000	0.000000	6.803059	-0.053507	NaN	0.000000	0.001715	0.001698	28.0816	0.054159	0.002209	24.5217	130.697	-167.371	-0.072422	0.801300	-0.303214	-0.304515	-0.053507	24.5217	-0.301577	-4967.13	1.077217E-5	NaN
794	1.000000	0.812583	7.37283e+06	-39839.1	1055.82	-29792.3	0.000000	0.000000	6.813042	-0.007240	NaN	0.000000	0.001683	0.001668	28.0819	0.081971	0.002096	39.0994	-12.7797	12.7718	-0.019661	0.811271	-0.293232	-0.294545	-0.007240	39.0994	-0.293094	-3711.94	1.950509E-6	NaN
794	1.000000	0.822645	7.37283e+06	-39839.1	1055.82	-29792.3	0.000000	0.000000	6.823103	-0.037141	NaN	0.000000	0.001673	0.001707	28.0819	0.057037	0.002059	27.7025	-84.9801	-165.948	-0.075974	0.821264	-0.283170	-0.284551	-0.037141	27.7025	-0.282165	-2544.48	1.459674E-5	NaN
794	1.000000	0.832607	7.37283e+06	-39839.1	1055.82	-29792.3	0.000000	0.000000	6.833064	-0.056298	NaN	0.000000	0.001658	0.001682	28.0821	0.038393	0.001980	19.3929	14.316	12.9231	-0.015062	0.831267	-0.273208	-0.274548	-0.056298	19.3929	-0.271031	-1726.67	3.260500E-5	NaN
794	1.000000	0.842605	7.37283e+06	-39839.1	1055.82	-29792.3	0.000000	0.000000	6.843062	-0.074963	NaN	0.000000	0.001704	0.001685	28.0822	0.016472	0.001974	8.342393	-83.6184	-167.996	-0.045535	0.841330	-0.263210	-0.264485	-0.074963	8.342393	-0.256471	-1034.52	7.246128E-5	NaN
794	1.000000	0.852584	7.37283e+06	-39839.1	1055.82	-29792.3	0.000000	0.000000	6.853043	-0.020219	NaN	0.000000	0.001697	0.001714	28.0832	0.105676	0.002000	52.8305	68.4805	13.8033	-0.046912	0.851264	-0.253231	-0.254551	-0.020219	52.8305	-0.252944	-912.928	2.214779E-5	NaN
794	1.000000	0.862634	7.37283e+06	-39839.1	1055.82	-29792.3	0.000000	0.000000	6.863094	-0.000371	NaN	0.000000	0.001719	0.001719	28.0832	0.064285	0.002072	31.0248	-177.481	-166.506	0.010774	0.861339	-0.243181	-0.244476	-0.000371	31.0248	-0.243172	-644.195	5.766727E-7	NaN
794	1.000000	0.872627	7.37283e+06	-39839.1	1055.82	-29792.3	0.000000	0.000000	6.873088	0.035326	NaN	0.000000	0.001695	0.001708	28.0832	0.040828	0.002129	19.175	-148.524	14.5296	-0.000937	0.871251	-0.233188	-0.234564	0.035326	19.175	-0.234570	-472.601	-7.474753E-5	NaN
794	1.000000	0.882618	7.37283e+06	-39839.1	1055.82	-29792.3	0.000000	0.000000	6.883074	-0.089241	NaN	0.000000	0.001738	0.001679	28.0833	0.091305	0.001917	47.6282	44.8814	-167.832	-0.108935	0.881369	-0.223197	-0.224446	-0.089241	47.6282	-0.221792	-296.671	0.000301	NaN
794	1.000000	0.892668	7.37283e+06	-39839.1	1055.82	-29792.4	0.000000	0.000000	6.893127	0.004262	NaN	0.000000	0.001702	0.001697	28.0832	0.094557	0.001979	47.7887	-150.345	12.2966	0.033356	0.891287	-0.213148	-0.214528	0.004262	47.7887	-0.213215	-216.153	-1.971711E-5	NaN
794	1.000000	0.902623	7.37283e+06	-39839.1	1055.82	-29792.4	0.000000	0.000000	6.903079	-0.086688	NaN	0.000000	0.001658	0.001709	28.0833	0.092791	0.002066	44.9177	42.8244	-163.769	-0.060739	0.901353	-0.203193	-0.204462	-0.086688	44.9177	-0.201745	-140.715	0.000616	NaN
794	1.000000	0.912652	7.37283e+06	-39839.1	1055.82	-29792.4	0.000000	0.000000	6.913110	-0.049244	NaN	0.000000	0.001619	0.001717	28.0832	0.040444	0.002031	19.9093	-21.2308	13.3642	0.006723	0.911289	-0.193163	-0.194526	-0.049244	19.9093	-0.191308	-94.5913	0.000521	NaN
794	1.000000	0.922630	7.37283e+06	-39839.1	1055.82	-29792.4	0.000000	0.000000	6.923090	-0.000360	NaN	0.000000	0.001656	0.001711	28.0832	0.084335	0.002061	40.9239	59.4268	-168.076	0.010995	0.921298	-0.183185	-0.184517	-0.000360	40.9239	-0.183178	-69.0842	5.207530E-6	NaN
794	1.000000	0.932642	7.37283e+06	-39839.1	1055.82	-29792.4	0.000000	0.000000	6.933100	-0.055529	NaN	0.000000	0.001612	0.001731	28.0831	0.025777	0.001949	13.2227	141.24	15.3478	-0.090829	0.931337	-0.173173	-0.174479	-0.055529	13.2227	-0.170023	-41.1164	0.001351	NaN
794	1.000000	0.942674	7.37283e+06	-39839.1	1055.82	-29792.4	0.000000	0.000000	6.943130	-0.073396	NaN	0.000000	0.001616	0.001767	28.0834	0.158428	0.001943	81.5305	128.506	-164.489	-0.059998	0.941381	-0.163141	-0.164434	-0.073396	81.5305	-0.162466	-30.3166	0.002421	NaN
794	1.000000	0.952658	7.37283e+06	-39839.1	1055.82	-29792.4	0.000000	0.000000	6.953116	-0.042729	NaN	0.000000	0.001607	0.001780	28.0832	0.044881	0.002030	22.1121	93.8531	13.4815	-0.069013	0.951330	-0.153158	-0.154485	-0.042729	22.1121	-0.151708	-19.4575	0.002196	NaN
794	1.000000	0.962678	7.37283e+06	-39839.1	1055.82	-29792.4	0.000000	0.000000	6.963134	-0.085728	NaN	0.000000	0.001589	0.001740	28.0832	0.125885	0.002040	61.7197	-177.694	-165.6	-0.123845	0.961354	-0.143137	-0.144461	-0.085728	61.7197	-0.142096	-12.948	0.006621	NaN
794	1.000000	0.972675	7.37283e+06	-39839.1	1055.82	-29792.4	0.000000	0.000000	6.973133	-0.043478	NaN	0.000000	0.001590	0.001753	28.0832	0.004445	0.002023	2.197484	-8.459194	11.3259	-0.046127	0.971252	-0.133140	-0.134564	-0.043478	2.197484	-0.118301	-4.463529	0.009741	NaN
794	1.000000	0.982668	7.37283e+06	-39839.1	1055.82	-29792.4	0.000000	0.000000	6.983126	-0.044043	NaN	0.000000	0.001587	0.001749	28.082	0.044361	0.002000	22.1846	169.061	-169.481	-0.107782	0.981408	-0.123147	-0.124407	-0.044043	22.1846	-0.121658	-5.217129	0.008442	NaN
794	1.000000	0.992711	7.37283e+06	-39839.1	1055.82	-29792.4	0.000000	0.000000	6.993165	-0.141344	NaN	0.000000	0.001607	0.001774	28.0818	0.084779	0.002117	40.0457	132.025	15.5335	-0.050216	0.991298	-0.113104	-0.114517	-0.141344	40.0457	-0.110457	-3.072524	0.046003	NaN
794	1.000000	1.002680	7.37283e+06	-39839.1	1055.82	-29792.4	0.000000	0.000000	7.003141	0.014977	NaN	0.000000	0.001639	0.001758	28.0819	0.110953	0.001958	56.6602	5.963760	-167.946	0.092026	1.001343	-0.103135	-0.104472	0.014977	56.6602	-0.103333	-2.162780	-0.006925	NaN
794	1.000000	1.012667	7.37283e+06	-39839.1	1055.82	-29792.4	0.000000	0.000000	7.013123	-0.102115	NaN	0.000000	0.001634	0.001742	28.082	0.029768	0.001953	15.2386	177.199	13.3962	-0.158903	1.011323	-0.093148	-0.094492	-0.102115	15.2386	-0.088122	-0.976133	0.104612	NaN
794	1.000000	1.022689	7.37283e+06	-39839.1	1055.82	-29792.4	0.000000	0.000000	7.023148	-0.001394	NaN	0.000000	0.001637	0.001720	28.0819	0.118918	0.001967	60.4697	136.06	-169.029	-0.015224	1.021382	-0.083127	-0.084433	-0.001394	60.4697	-0.083109	-0.738999	0.001886	NaN
794	1.000000	1.032670	7.37283e+06	-39839.1	1055.82	-29792.4	0.000000	0.000000	7.033128	-0.041529	NaN	0.000000	0.001660	0.001740	28.0818	0.042169	0.002089	20.1821	-161.347	15.882	-0.054421	1.031345	-0.073145	-0.074470	-0.041529	20.1821	-0.071602	-0.376331	0.110351	NaN
794	1.000000	1.042684	7.37283e+06	-39839.1	1055.82	-29792.4	0.000000	0.000000	7.043139	-0.115375	NaN	0.000000	0.001665	0.001704	28.0819	0.108145	0.002186	49.4743	7.059473	-165.798	-0.040201	1.041373	-0.063131	-0.064442	-0.115375	49.4743	-0.061382	-0.197225	0.584993	NaN
794	1.000000	1.052715	7.37283e+06	-39839.1	1055.82	-29792.4	0.000000	0.000000	7.053173	-0.048914	NaN	0.000000	0.001655	0.001726	28.082	0.063942	0.001941	32.946	133.199	12.944	-0.043895	1.051337	-0.053100	-0.054478	-0.048914	32.946	-0.051987	-0.104734	0.467035	NaN
794	1.000000	1.062717	7.37283e+06	-39839.1	1055.82	-29792.4	0.000000	0.000000	7.063176	-0.038591	NaN	0.000000	0.001626	0.001691	28.0819	0.042794	0.001798	23.8015	82.9004	-169.594	-0.031726	1.061418	-0.043098	-0.044397	-0.038591	23.8015	-0.041882	-0.051601	0.747876	NaN
794	1.000000	1.072695	7.37283e+06	-39839.1	1055.82	-29792.4	0.000000	0.000000	7.073152	-0.055390	NaN	0.000000	0.001643	0.001658	28.0817	0.084485	0.002022	41.7771	150.848	11.0951	-0.093805	1.071345	-0.033120	-0.034470	-0.055390	41.7771	-0.032126	-0.026425	2.096150	NaN
794	1.000000	1.082730	7.37283e+06	-39839.1	1055.82	-29792.4	0.000000	0.000000	7.083187	-0.052172	NaN	0.000000	0.001622	0.001723	28.0819	0.083725	0.002048	40.8786	36.8832	-168.25	-0.051190	1.081398	-0.023085	-0.024417	-0.052172	40.8786	-0.022128	-0.014228	3.666928	NaN
794	1.000000	1.092694	7.37283e+06	-39839.1	1055.82	-29792.4	0.000000	0.000000	7.093154	0.009148	NaN	0.000000	0.001654	0.001695	28.0817	0.075797	0.001937	39.1279	150.564	9.375879	-0.076230	1.091337	-0.013122	-0.014479	0.009148	39.1279	-0.013297	-0.008274	-1.105686	NaN
794	1.000000	1.102721	7.37283e+06	-39839.1	1055.82	-29792.4	0.000000	0.000000	7.103219	0.927437	NaN	0.000000	0.001631	0.001696	28.0817	1.516115	0.002012	753.709	6.331411	-165.856	0.353729	1.101398	-0.003094	-0.004417	0.927437	753.709	-0.004017	-0.002790	-332.412	NaN
794	2.000000	1.111768	7.37283e+06	-39839.1	1055.82	-29792.4	0.000000	0.000000	7.112538	7.535592	NaN	0.000000	0.001647	0.001716	28.0817	7.258436	0.001885	3849.95	11.3418	9.971895	7.929340	1.111247	0.005953	0.005432	7.535592	3849.95	0.004485	0.003668	2054.16	58074.7
794	2.000000	1.114317	7.37283e+06	-39839.1	1055.82	-29792.4	0.000000	0.000000	7.115336	13.6203	NaN	0.000000	0.001658	0.001719	28.0832	10.6601	0.001743	6114.8	4.771051	-173.709	12.9488	1.113938	0.008501	0.008123	13.6203	6114.8	0.006831	0.005867	2321.45	72936
794	2.000000	1.116825	7.37283e+06	-39839.1	1055.82	-29792.4	0.000000	0.000000	7.117918	15.4012	NaN	0.000000	0.001669	0.001725	28.0833	12.6139	0.001704	7403.92	7.196880	6.136353	14.7124	1.116508	0.011010	0.010693	15.4012	7403.92	0.009450	0.008577	1795.71	73042.6
794	2.000000	1.119216	7.37283e+06	-39839.1	1055.82	-29792.4	0.000000	0.000000	7.120455	18.9778	NaN	0.000000	0.001637	0.001714	28.0831	15.1443	0.001690	8959.95	0.517942	-171.039	17.1639	1.118980	0.013400	0.013165	18.9778	8959.95	0.011812	0.011265	1684.6	77126.6
794	2.000000	1.121693	7.37283e+06	-39839.1	1055.82	-29792.4	0.000000	0.000000	7.123224	26.0565	NaN	0.000000	0.001626	0.001691	28.0833	18.3814	0.001796	10234.6	5.748566	3.457054	23.6	1.121396	0.015878	0.015581	26.0565	10234.6	0.013968	0.013934	1869.94	79213.5
794	2.000000	1.124258	7.37283e+06	-39839.1	1055.82	-29792.4	0.000000	0.000000	7.125925	29.3787	NaN	0.000000	0.001657	0.001718	28.0834	21.1736	0.001769	11965.9	8.100226	179.943	29.3605	1.123894	0.018443	0.018078	29.3787	11965.9	0.016601	0.017481	1680.64	82687.6
794	2.000000	1.126710	7.37283e+06	-39839.1	1055.82	-29792.4	0.000000	0.000000	7.128753	38.5228	NaN	0.000000	0.001631	0.001703	28.0832	22.8779	0.001850	12364	4.176466	4.760126	35.6053	1.126318	0.020895	0.020503	38.5228	12364	0.018558	0.020327	1895.16	79231.3
794	2.000000	1.129247	7.37283e+06	-39839.1	1055.82	-29792.4	0.000000	0.000000	7.131534	44.4642	NaN	0.000000	0.001618	0.001718	28.083	26.3103	0.001831	14366.3	8.865761	178.048	44.4079	1.128915	0.023432	0.023100	44.4642	14366.3	0.021111	0.024318	1828.45	84169.3
794	2.000000	1.131691	7.37283e+06	-39839.1	1055.82	-29792.4	0.000000	0.000000	7.134290	52.0629	NaN	0.000000	0.001664	0.001686	28.0832	28.5156	0.001740	16390.8	6.565356	-1.063019	50.432	1.131375	0.025875	0.025560	52.0629	16390.8	0.023493	0.028331	1837.64	88969.4
794	2.000000	1.134170	7.37283e+06	-39839.1	1055.82	-29792.4	0.000000	0.000000	7.137163	61.6553	NaN	0.000000	0.001645	0.001711	28.0832	30.7343	0.001747	17588.4	2.469144	-177.923	60.5232	1.133856	0.028355	0.028041	61.6553	17588.4	0.025726	0.032349	1905.93	89344.5
794	2.000000	1.136728	7.37283e+06	-39839.1	1055.82	-29792.4	0.000000	0.000000	7.140126	71.516	NaN	0.000000	0.001654	0.001703	28.0828	33.6618	0.001821	18482.6	4.445487	-0.690244	68.5677	1.136336	0.030912	0.030520	71.516	18482.6	0.028010	0.036721	1947.56	88121
794	2.000000	1.139210	7.37283e+06	-39839.1	1055.82	-29792.4	0.000000	0.000000	7.142990	80.8037	NaN	0.000000	0.001634	0.001697	28.0829	35.2558	0.001770	19920.8	4.120655	-179.862	80.6984	1.138958	0.033394	0.033143	80.8037	19920.8	0.030352	0.041477	1948.16	89366.9
794	2.000000	1.141650	7.37283e+06	-39839.1	1055.82	-29792.4	0.000000	0.000000	7.145685	87.0018	NaN	0.000000	0.001638	0.001692	28.0831	37.1619	0.001796	20690.4	2.255010	0.816291	82.1181	1.141322	0.035835	0.035506	87.0018	20690.4	0.032681	0.046485	1871.61	87676.8
794	2.000000	1.144144	7.37283e+06	-39839.1	1055.82	-29792.4	0.000000	0.000000	7.148852	103.366	NaN	0.000000	0.001569	0.001749	28.083	39.3129	0.001668	23573.4	2.401657	179.509	100.789	1.143843	0.038329	0.038028	103.366	23573.4	0.035041	0.051841	1993.93	94593.1
794	2.000000	1.146659	7.37283e+06	-39839.1	1055.82	-29792.4	0.000000	0.000000	7.151561	108.107	NaN	0.000000	0.001643	0.001778	28.0825	42.4848	0.001795	23669.8	6.663739	-4.427235	105.213	1.146426	0.040844	0.040610	108.107	23669.8	0.037418	0.057527	1879.24	90164.1
794	2.000000	1.149222	7.37283e+06	-39839.1	1055.82	-29792.4	0.000000	0.000000	7.154471	116.535	NaN	0.000000	0.001601	0.001688	28.0816	45.2769	0.001831	24726.3	7.748898	173.982	118.327	1.148897	0.043407	0.043082	116.535	24726.3	0.039872	0.063699	1829.46	89508.8
794	2.000000	1.151654	7.37283e+06	-39839.1	1055.82	-29792.4	0.000000	0.000000	7.157432	129.414	NaN	0.000000	0.001645	0.001691	28.0821	48.7217	0.001696	28731.6	8.299472	-8.139405	126.948	1.151404	0.045839	0.045589	129.414	28731.6	0.042461	0.070542	1834.57	98834.6
794	2.000000	1.154140	7.37283e+06	-39839.1	1055.82	-29792.4	0.000000	0.000000	7.160487	143.272	NaN	0.000000	0.001638	0.001622	28.0818	51.7402	0.001827	28322.3	4.775479	175.748	140.279	1.153829	0.048324	0.048013	143.272	28322.3	0.044530	0.076260	1878.74	93703
794	2.000000	1.156627	7.37283e+06	-39839.1	1055.82	-29792.4	0.000000	0.000000	7.163764	162.48	NaN	0.000000	0.001609	0.001672	28.0818	53.6037	0.001760	30448	5.123731	-5.818419	157.942	1.156357	0.050812	0.050542	162.48	30448	0.046809	0.082807	1962.15	96671.5
794	2.000000	1.159133	7.37283e+06	-39839.1	1055.82	-29792.4	0.000000	0.000000	7.166520	168.591	NaN	0.000000	0.001644	0.001702	28.0818	55.4127	0.001846	30010.1	4.665925	175.758	167.651	1.158782	0.053317	0.052967	168.591	30010.1	0.049104	0.089664	1880.26	91565.6
794	2.000000	1.161683	7.37283e+06	-39839.1	1055.82	-29792.4	0.000000	0.000000	7.169705	184.021	NaN	0.000000	0.001638	0.001713	28.0819	57.0718	0.001775	32150.7	3.169161	-4.018825	181.914	1.161393	0.055867	0.055578	184.021	32150.7	0.051575	0.097342	1890.45	94148.2
794	2.000000	1.164160	7.37283e+06	-39839.1	1055.82	-29792.4	0.000000	0.000000	7.172658	195.614	NaN	0.000000	0.001640	0.001722	28.0819	59.0517	0.001657	35632.1	0.049969	177.868	194.725	1.163997	0.058344	0.058182	195.614	35632.1	0.054227	0.105925	1846.71	100026
794	2.000000	1.166764	7.37283e+06	-39839.1	1055.82	-29792.4	0.000000	0.000000	7.176064	215.133	NaN	0.000000	0.001646	0.001708	28.0819	61.8277	0.001796	34418	6.444125	-6.683955	216.82	1.166357	0.060949	0.060542	215.133	34418	0.056261	0.112742	1908.18	93651.7
794	2.000000	1.169129	7.37283e+06	-39839.1	1055.82	-29792.4	0.000000	0.000000	7.179064	230.589	NaN	0.000000	0.001639	0.001696	28.0817	63.2851	0.001750	36159	4.379596	174.029	226.747	1.168795	0.063314	0.062980	230.589	36159	0.058531	0.120593	1912.12	95132.5
794	2.000000	1.171671	7.37283e+06	-39839.1	1055.82	-29792.4	0.000000	0.000000	7.181994	240.026	NaN	0.000000	0.001647	0.001727	28.0818	64.6215	0.001724	37481.5	4.542306	-5.389812	239.218	1.171338	0.065855	0.065523	240.026	37481.5	0.061052	0.129609	1851.93	95120.1
794	2.000000	1.174220	7.37283e+06	-39839.1	1055.82	-29792.4	0.000000	0.000000	7.185028	251.82	NaN	0.000000	0.001646	0.001706	28.0818	69.5832	0.001718	40501.9	7.947513	168.829	252.414	1.173973	0.068404	0.068157	251.82	40501.9	0.063741	0.139565	1804.32	99051.5
794	2.000000	1.176718	7.37283e+06	-39839.1	1055.82	-29792.4	0.000000	0.000000	7.188408	273.293	NaN	0.000000	0.001605	0.001713	28.0817	70.3674	0.001671	42106.6	5.629193	-8.345875	272.212	1.176393	0.070903	0.070577	273.293	42106.6	0.066035	0.148333	1842.44	99886
794	2.000000	1.179124	7.37283e+06	-39839.1	1055.82	-29792.4	0.000000	0.000000	7.191251	283.914	NaN	0.000000	0.001635	0.001705	28.0817	73.9766	0.001902	38902.6	7.700583	170.342	282.6	1.178885	0.073309	0.073070	283.914	38902.6	0.067836	0.155395	1827.04	90164
794	2.000000	1.181669	7.37283e+06	-39839.1	1055.82	-29792.4	0.000000	0.000000	7.194516	301.454	NaN	0.000000	0.001657	0.001738	28.0831	76.1265	0.001773	42933.6	7.686530	-9.652202	299.561	1.181230	0.075853	0.075415	301.454	42933.6	0.070587	0.166485	1810.69	96135.2
794	2.000000	1.184158	7.37283e+06	-39839.1	1055.82	-29792.4	0.000000	0.000000	7.197786	320.434	NaN	0.000000	0.001656	0.001722	28.083	78.6653	0.001770	44437.5	4.893037	172.171	319.362	1.183895	0.078343	0.078079	320.434	44437.5	0.072935	0.176232	1818.25	96712.2
794	2.000000	1.186608	7.37283e+06	-39839.1	1055.82	-29792.4	0.000000	0.000000	7.200934	337.413	NaN	0.000000	0.001730	0.001679	28.0828	79.4577	0.001724	46082.9	0.789236	-3.887742	330.908	1.186332	0.080793	0.080517	337.413	46082.9	0.075302	0.186321	1810.92	97539.8
794	2.000000	1.189093	7.37283e+06	-39839.1	1055.82	-29792.4	0.000000	0.000000	7.204075	353.384	NaN	0.000000	0.001612	0.001687	28.0828	81.5572	0.001707	47764.8	5.032075	171.692	351.84	1.188853	0.083278	0.083038	353.384	47764.8	0.077729	0.196943	1794.35	98335.6
794	2.000000	1.191612	7.37283e+06	-39839.1	1055.82	-29792.4	0.000000	0.000000	7.207433	373.811	NaN	0.000000	0.001668	0.001698	28.083	85.1459	0.001823	46697.3	2.965271	-5.796105	370.427	1.191336	0.085797	0.085521	373.811	46697.3	0.079793	0.206191	1812.94	93957.2
794	2.000000	1.194124	7.37283e+06	-39839.1	1055.82	-29792.4	0.000000	0.000000	7.210799	394.595	NaN	0.000000	0.001620	0.001725	28.083	88.4576	0.001766	50097.7	4.874903	171.82	392.48	1.193859	0.088308	0.088044	394.595	50097.7	0.082401	0.218159	1808.75	97995
794	2.000000	1.196653	7.37283e+06	-39839.1	1055.82	-29792.4	0.000000	0.000000	7.214125	413.98	NaN	0.000000	0.001657	0.001723	28.0829	90.16	0.001856	48577.3	9.986776	-12.4669	411.64	1.196256	0.090838	0.090441	413.98	48577.3	0.084446	0.227767	1817.56	92995.4
794	2.000000	1.199190	7.37283e+06	-39839.1	1055.82	-29792.4	0.000000	0.000000	7.217519	434.821	NaN	0.000000	0.001655	0.001709	28.0829	92.4292	0.001771	52195.2	5.206218	171.029	436.693	1.198688	0.093375	0.092873	434.821	52195.2	0.087127	0.240654	1806.83	97209.2
794	2.000000	1.201673	7.37283e+06	-39839.1	1055.82	-29792.4	0.000000	0.000000	7.220913	457.007	NaN	0.000000	0.001610	0.001727	28.0831	96.3216	0.001850	52054.8	7.325718	-10.4369	456.853	1.201152	0.095858	0.095337	457.007	52054.8	0.089274	0.251210	1819.22	94888.9
794	2.000000	1.204087	7.37283e+06	-39839.1	1055.82	-29792.4	0.000000	0.000000	7.224134	476.639	NaN	0.000000	0.001662	0.001718	28.0829	97.209	0.001768	54982.1	0.095239	175.597	474.259	1.203892	0.098272	0.098076	476.639	54982.1	0.091770	0.263752	1807.15	97813.1
794	2.000000	1.206622	7.37283e+06	-39839.1	1055.82	-29792.4	0.000000	0.000000	7.227750	502.941	NaN	0.000000	0.001626	0.001713	28.0829	100.126	0.001755	57050.5	5.945718	-10.2325	499.578	1.206278	0.100807	0.100462	502.941	57050.5	0.094195	0.276211	1820.86	99177.3
794	2.000000	1.209130	7.37283e+06	-39839.1	1055.82	-29792.4	0.000000	0.000000	7.231344	529.388	NaN	0.000000	0.001617	0.001729	28.0828	102.503	0.001862	55052.4	5.210235	170.477	528.271	1.208685	0.103315	0.102870	529.388	55052.4	0.096103	0.286197	1849.73	94019.2
794	2.000000	1.210054	7.37283e+06	-39839.1	1055.82	-29792.4	0.000000	0.000000	7.232897	544.688	NaN	0.000000	0.001630	0.001704	28.0829	104.541	0.001906	54856.9	6.527764	170.228	539.223	1.209644	0.104239	0.103829	544.688	54856.9	0.096792	0.289847	1879.22	93093.6