File: remote_trans/data/nanoindenter/0828-1/data/Data_2025-08-06,11h17m57s/2025-07-22_16-23-58_1_521.txt
2025-07-22, 16:23:58, 1
Index	Phase	Displacement	Time	Pos X	Pos Y	Pos Z	Rot A	Rot B	Piezo Z	Force A	Force B	Gripper	Voltage A	Voltage B	Temperature	Amplitude force	Amplitude pos	Stiffness	Phase shift	Phase excitation	Force A raw	Displacement raw	HMax	HMax raw	Real Force	Real Stiffness	Contact Depth	Area	Hardness	Reduced Mod.
[#]	[#]	[um]	[s]	[um]	[um]	[um]	[m°]	[m°]	[um]	[uN]	[uN]	[V]	[V]	[V]	[°C]	[uN]	[um]	[N/m]	[°]	[°]	[uN]	[um]	[um]	[um]	[uN]	[N/m]	[um]	[um^2]	[MPa]	[MPa]
521	1.000000	0.002293	7.37015e+06	-51039.1	1005.82	-29753.6	0.000000	0.000000	6.002812	0.073924	NaN	0.000000	0.001604	0.001707	28.0834	0.132302	0.001042	126.949	114.409	-162.92	-0.065379	0.000978	-1.133839	-1.135155	0.073924	126.949	-1.134276	-1.445343E+15	-5.114646E-17	NaN
521	1.000000	0.012335	7.37015e+06	-51039.1	1005.82	-29753.6	0.000000	0.000000	6.012855	0.108921	NaN	0.000000	0.001640	0.001749	28.0833	0.051981	0.001208	43.0138	14.7258	13.6215	-0.000333	0.010905	-1.123797	-1.125228	0.108921	43.0138	-1.125696	-1.108897E+15	-9.822499E-17	NaN
521	1.000000	0.022214	7.37015e+06	-51039.1	1005.82	-29753.6	0.000000	0.000000	6.022730	0.006482	NaN	0.000000	0.001624	0.001658	28.0831	0.034444	0.001764	19.5229	-111.501	-164.217	0.026460	0.020949	-1.113919	-1.115183	0.006482	19.5229	-1.114168	-7.766306E+14	-8.346124E-18	NaN
521	1.000000	0.032211	7.37015e+06	-51039.1	1005.82	-29753.6	0.000000	0.000000	6.032728	0.048365	NaN	0.000000	0.001617	0.001696	28.0832	0.094180	0.001848	50.9644	-66.1866	10.6325	-0.047600	0.030928	-1.103922	-1.105205	0.048365	50.9644	-1.104633	-5.784439E+14	-8.361237E-17	NaN
521	1.000000	0.042233	7.37015e+06	-51039.1	1005.82	-29753.6	0.000000	0.000000	6.042751	0.082605	NaN	0.000000	0.001601	0.001719	28.0838	0.078283	0.002029	38.5761	-159.111	-166.705	0.024249	0.040884	-1.093900	-1.095248	0.082605	38.5761	-1.095506	-4.362516E+14	-1.893521E-16	NaN
521	1.000000	0.052206	7.37015e+06	-51039.1	1005.82	-29753.6	0.000000	0.000000	6.052721	-0.011636	NaN	0.000000	0.001583	0.001747	28.0831	0.088957	0.001983	44.8617	89.1255	11.6415	0.009897	0.050869	-1.083926	-1.085263	-0.011636	44.8617	-1.083732	-3.031361E+14	3.838636E-17	NaN
521	1.000000	0.062267	7.37015e+06	-51039.1	1005.82	-29753.6	0.000000	0.000000	6.062786	0.078675	NaN	0.000000	0.001533	0.001728	28.0832	0.073931	0.001921	38.4761	-21.7777	-164.524	0.089652	0.060964	-1.073866	-1.075168	0.078675	38.4761	-1.075399	-2.342717E+14	-3.358264E-16	NaN
521	1.000000	0.072258	7.37015e+06	-51039.1	1005.82	-29753.6	0.000000	0.000000	6.072776	0.070226	NaN	0.000000	0.001595	0.001734	28.0829	0.080102	0.002119	37.8004	-60.6977	15.6144	0.131248	0.070846	-1.063875	-1.065287	0.070226	37.8004	-1.065268	-1.712436E+14	-4.100933E-16	NaN
521	1.000000	0.082250	7.37015e+06	-51039.1	1005.82	-29753.6	0.000000	0.000000	6.082764	-0.023751	NaN	0.000000	0.001616	0.001737	28.0831	0.025794	0.002041	12.6377	34.088	-169.808	0.014788	0.080913	-1.053883	-1.055219	-0.023751	12.6377	-1.052473	-1.152546E+14	2.060713E-16	NaN
521	1.000000	0.092228	7.37015e+06	-51039.1	1005.82	-29753.6	0.000000	0.000000	6.092745	0.033980	NaN	0.000000	0.001555	0.001734	28.0832	0.050193	0.001926	26.058	-14.4486	14.7435	0.021680	0.090926	-1.043905	-1.045206	0.033980	26.058	-1.044883	-9.112104E+13	-3.729152E-16	NaN
521	1.000000	0.102255	7.37015e+06	-51039.1	1005.82	-29753.6	0.000000	0.000000	6.102771	0.017895	NaN	0.000000	0.001607	0.001729	28.0831	0.062701	0.001854	33.8132	-81.829	-166.503	0.045159	0.100958	-1.033878	-1.035175	0.017895	33.8132	-1.034275	-6.561104E+13	-2.727493E-16	NaN
521	1.000000	0.112245	7.37015e+06	-51039.1	1005.82	-29753.6	0.000000	0.000000	6.112763	0.054809	NaN	0.000000	0.001627	0.001730	28.0821	0.090247	0.001985	45.4665	59.1581	15.6136	0.023623	0.110886	-1.023888	-1.025246	0.054809	45.4665	-1.024792	-4.891256E+13	-1.120548E-15	NaN
521	1.000000	0.122256	7.37015e+06	-51039.1	1005.82	-29753.6	0.000000	0.000000	6.122772	-0.007314	NaN	0.000000	0.001619	0.001697	28.0818	0.083641	0.001942	43.0594	85.0795	-166.824	0.078267	0.120919	-1.013876	-1.015214	-0.007314	43.0594	-1.013749	-3.474033E+13	2.105428E-16	NaN
521	1.000000	0.132260	7.37015e+06	-51039.1	1005.82	-29753.6	0.000000	0.000000	6.132778	0.061492	NaN	0.000000	0.001599	0.001710	28.0817	0.049651	0.002031	24.4436	-98.9213	16.1496	0.130257	0.130904	-1.003873	-1.005229	0.061492	24.4436	-1.005759	-2.712080E+13	-2.267345E-15	NaN
521	1.000000	0.142269	7.37015e+06	-51039.1	1005.82	-29753.6	0.000000	0.000000	6.142788	0.083563	NaN	0.000000	0.001596	0.001713	28.0819	0.097607	0.002131	45.7946	95.0061	-164.361	0.064101	0.140943	-0.993863	-0.995190	0.083563	45.7946	-0.995232	-1.956893E+13	-4.270166E-15	NaN
521	1.000000	0.152298	7.37015e+06	-51039.1	1005.82	-29753.6	0.000000	0.000000	6.152815	0.050908	NaN	0.000000	0.001598	0.001710	28.0821	0.023042	0.001905	12.0985	52.0673	14.1357	0.000203	0.150908	-0.983835	-0.985224	0.050908	12.0985	-0.986991	-1.515588E+13	-3.358981E-15	NaN
521	1.000000	0.162288	7.37015e+06	-51039.1	1005.82	-29753.6	0.000000	0.000000	6.162804	0.026823	NaN	0.000000	0.001603	0.001698	28.0818	0.071245	0.002023	35.218	-47.7879	-166.527	0.035610	0.160976	-0.973845	-0.975156	0.026823	35.218	-0.974416	-1.026058E+13	-2.614199E-15	NaN
521	1.000000	0.172274	7.37015e+06	-51039.1	1005.82	-29753.6	0.000000	0.000000	6.172792	0.062295	NaN	0.000000	0.001593	0.001690	28.0818	0.054216	0.001929	28.0999	-83.9505	17.8063	0.022947	0.170922	-0.963859	-0.965211	0.062295	28.0999	-0.965522	-7.785800E+12	-8.001091E-15	NaN
521	1.000000	0.182276	7.37015e+06	-51039.1	1005.82	-29753.6	0.000000	0.000000	6.182795	0.065742	NaN	0.000000	0.001595	0.001688	28.0823	0.047793	0.002042	23.4088	167.542	-167.177	0.129154	0.181002	-0.953856	-0.955131	0.065742	23.4088	-0.955962	-5.786707E+12	-1.136082E-14	NaN
521	1.000000	0.192261	7.37015e+06	-51039.1	1005.82	-29753.6	0.000000	0.000000	6.192779	0.075477	NaN	0.000000	0.001602	0.001686	28.082	0.032046	0.002082	15.393	-117.823	15.9082	0.118213	0.190875	-0.943872	-0.945258	0.075477	15.393	-0.947549	-4.456320E+12	-1.693712E-14	NaN
521	1.000000	0.202263	7.37015e+06	-51039.1	1005.82	-29753.6	0.000000	0.000000	6.202783	0.132583	NaN	0.000000	0.001625	0.001705	28.0821	0.055381	0.001957	28.2922	140.546	-164.417	0.082353	0.200940	-0.933870	-0.935193	0.132583	28.2922	-0.937385	-3.249750E+12	-4.079801E-14	NaN
521	1.000000	0.212300	7.37015e+06	-51039.1	1005.82	-29753.6	0.000000	0.000000	6.212818	0.059204	NaN	0.000000	0.001640	0.001717	28.0818	0.099057	0.001995	49.6456	4.176989	13.3097	0.049575	0.210908	-0.923832	-0.925225	0.059204	49.6456	-0.924727	-2.192892E+12	-2.699801E-14	NaN
521	1.000000	0.222321	7.37015e+06	-51039.1	1005.82	-29753.6	0.000000	0.000000	6.222837	0.017064	NaN	0.000000	0.001575	0.001704	28.082	0.094657	0.002038	46.4466	-145.439	-164.584	0.089115	0.220956	-0.913812	-0.915176	0.017064	46.4466	-0.914088	-1.575319E+12	-1.083217E-14	NaN
521	1.000000	0.232271	7.37015e+06	-51039.1	1005.82	-29753.6	0.000000	0.000000	6.232789	0.048839	NaN	0.000000	0.001584	0.001726	28.0816	0.004931	0.002061	2.392825	-170.358	12.1855	-0.017264	0.230962	-0.903861	-0.905170	0.048839	2.392825	-0.919169	-1.844967E+12	-2.647174E-14	NaN
521	1.000000	0.242305	7.37015e+06	-51039.1	1005.82	-29753.6	0.000000	0.000000	6.242823	0.049584	NaN	0.000000	0.001602	0.001713	28.0817	0.070966	0.001955	36.2995	-69.1937	-168.571	0.023242	0.241020	-0.893827	-0.895112	0.049584	36.2995	-0.894852	-8.659510E+11	-5.725930E-14	NaN
521	1.000000	0.252306	7.37015e+06	-51039.1	1005.82	-29753.6	0.000000	0.000000	6.252825	0.077308	NaN	0.000000	0.001646	0.001729	28.0829	0.132012	0.001881	70.1838	-50.7019	16.6474	0.024763	0.250969	-0.883827	-0.885164	0.077308	70.1838	-0.884653	-6.304093E+11	-1.226319E-13	NaN
521	1.000000	0.262339	7.37015e+06	-51039.1	1005.82	-29753.6	0.000000	0.000000	6.262857	0.055908	NaN	0.000000	0.001642	0.001706	28.0829	0.061452	0.001928	31.879	112.452	-162.786	0.109146	0.261006	-0.873793	-0.875126	0.055908	31.879	-0.875109	-4.683334E+11	-1.193758E-13	NaN
521	1.000000	0.272333	7.37015e+06	-51039.1	1005.82	-29753.6	0.000000	0.000000	6.272852	0.089916	NaN	0.000000	0.001624	0.001699	28.0829	0.066540	0.002017	32.9943	126.798	11.0802	0.057579	0.270948	-0.863800	-0.865185	0.089916	32.9943	-0.865844	-3.509174E+11	-2.562299E-13	NaN
521	1.000000	0.282307	7.37015e+06	-51039.1	1005.82	-29753.6	0.000000	0.000000	6.282825	0.072038	NaN	0.000000	0.001620	0.001701	28.083	0.053827	0.001869	28.797	86.0075	-166.731	0.043091	0.281007	-0.853826	-0.855126	0.072038	28.797	-0.855702	-2.558248E+11	-2.815899E-13	NaN
521	1.000000	0.292345	7.37015e+06	-51039.1	1005.82	-29753.6	0.000000	0.000000	6.292863	0.054402	NaN	0.000000	0.001599	0.001718	28.0835	0.053274	0.002153	24.7442	-164.151	14.4237	-0.004919	0.290970	-0.843787	-0.845162	0.054402	24.7442	-0.845436	-1.857513E+11	-2.928750E-13	NaN
521	1.000000	0.302320	7.37015e+06	-51039.1	1005.82	-29753.6	0.000000	0.000000	6.302835	-0.012239	NaN	0.000000	0.001561	0.001706	28.0833	0.050941	0.002070	24.6033	-61.677	-165.18	0.040972	0.301010	-0.833813	-0.835122	-0.012239	24.6033	-0.833440	-1.277622E+11	9.579150E-14	NaN
521	1.000000	0.312334	7.37015e+06	-51039.1	1005.82	-29753.6	0.000000	0.000000	6.312851	0.042327	NaN	0.000000	0.001590	0.001733	28.0832	0.049239	0.001921	25.6375	18.402	15.9047	0.123050	0.310978	-0.823799	-0.825154	0.042327	25.6375	-0.825037	-9.828975E+10	-4.306343E-13	NaN
521	1.000000	0.322342	7.37015e+06	-51039.1	1005.82	-29753.6	0.000000	0.000000	6.322861	0.083551	NaN	0.000000	0.001604	0.001688	28.0834	0.040003	0.001891	21.1569	177.823	-168.534	0.078785	0.321021	-0.813791	-0.815112	0.083551	21.1569	-0.816752	-7.588730E+10	-1.100985E-12	NaN
521	1.000000	0.332349	7.37015e+06	-51039.1	1005.82	-29753.6	0.000000	0.000000	6.332868	0.073937	NaN	0.000000	0.001618	0.001676	28.0832	0.047901	0.002057	23.2833	161.263	14.7439	0.078523	0.331007	-0.803783	-0.805125	0.073937	23.2833	-0.806165	-5.451742E+10	-1.356213E-12	NaN
521	1.000000	0.342333	7.37015e+06	-51039.1	1005.82	-29753.6	0.000000	0.000000	6.342847	-0.020269	NaN	0.000000	0.001632	0.001685	28.0831	0.029794	0.001962	15.1826	-47.0086	-166.613	-0.059705	0.341013	-0.793800	-0.795119	-0.020269	15.1826	-0.792798	-3.589949E+10	5.645966E-13	NaN
521	1.000000	0.352360	7.37015e+06	-51039.1	1005.82	-29753.6	0.000000	0.000000	6.352876	0.020730	NaN	0.000000	0.001661	0.001681	28.083	0.029979	0.002098	14.2865	-64.3206	10.9971	-0.013524	0.350989	-0.783772	-0.785143	0.020730	14.2865	-0.784861	-2.800740E+10	-7.401622E-13	NaN
521	1.000000	0.362356	7.37015e+06	-51039.1	1005.82	-29753.6	0.000000	0.000000	6.362870	-0.015881	NaN	0.000000	0.001672	0.001692	28.0833	0.013477	0.002031	6.636303	-168.841	-170.034	0.052417	0.360991	-0.773777	-0.775141	-0.015881	6.636303	-0.771982	-1.871778E+10	8.484655E-13	NaN
521	1.000000	0.372385	7.37015e+06	-51039.1	1005.82	-29753.6	0.000000	0.000000	6.372902	0.034557	NaN	0.000000	0.001625	0.001723	28.083	0.067436	0.001955	34.4902	157.185	13.8544	0.099211	0.371011	-0.763748	-0.765122	0.034557	34.4902	-0.764499	-1.480815E+10	-2.333662E-12	NaN
521	1.000000	0.382377	7.37015e+06	-51039.1	1005.82	-29753.6	0.000000	0.000000	6.382891	-0.031262	NaN	0.000000	0.001739	0.001714	28.0831	0.065295	0.001928	33.862	-120.691	-164.548	0.063734	0.381044	-0.753755	-0.755088	-0.031262	33.862	-0.753063	-1.034926E+10	3.020654E-12	NaN
521	1.000000	0.392378	7.37015e+06	-51039.1	1005.82	-29753.6	0.000000	0.000000	6.392894	0.021198	NaN	0.000000	0.001740	0.001716	28.0819	0.092007	0.002014	45.693	103.148	14.0781	0.088163	0.391019	-0.743755	-0.745113	0.021198	45.693	-0.744102	-7.814969E+9	-2.712458E-12	NaN
521	1.000000	0.402398	7.37015e+06	-51039.1	1005.82	-29753.6	0.000000	0.000000	6.402916	0.066207	NaN	0.000000	0.001689	0.001699	28.0821	0.032511	0.001911	17.0129	110.062	-160.153	0.011604	0.401062	-0.733735	-0.735071	0.066207	17.0129	-0.736653	-6.186823E+9	-1.070123E-11	NaN
521	1.000000	0.412415	7.37015e+06	-51039.1	1005.82	-29753.6	0.000000	0.000000	6.412931	0.020155	NaN	0.000000	0.001714	0.001660	28.082	0.143875	0.001827	78.7613	-154.963	13.869	-0.005738	0.410999	-0.723717	-0.725134	0.020155	78.7613	-0.723909	-4.147449E+9	-4.859585E-12	NaN
521	1.000000	0.422406	7.37015e+06	-51039.1	1005.82	-29753.6	0.000000	0.000000	6.422923	0.025503	NaN	0.000000	0.001721	0.001751	28.082	0.145280	0.001981	73.3266	132.055	-165.686	-0.046314	0.421083	-0.713726	-0.715049	0.025503	73.3266	-0.713987	-3.037047E+9	-8.397323E-12	NaN
521	1.000000	0.432377	7.37015e+06	-51039.1	1005.82	-29753.6	0.000000	0.000000	6.432892	0.009041	NaN	0.000000	0.001691	0.001684	28.0822	0.080737	0.001979	40.7973	70.3286	10.6825	0.071872	0.431032	-0.703756	-0.705101	0.009041	40.7973	-0.703922	-2.213539E+9	-4.084589E-12	NaN
521	1.000000	0.442397	7.37015e+06	-51039.1	1005.82	-29753.6	0.000000	0.000000	6.442914	0.038782	NaN	0.000000	0.001694	0.001694	28.0819	0.025296	0.001976	12.8006	44.3268	-166.962	0.071753	0.441131	-0.693735	-0.695002	0.038782	12.8006	-0.696008	-1.725849E+9	-2.247131E-11	NaN
521	1.000000	0.452392	7.37015e+06	-51039.1	1005.82	-29753.6	0.000000	0.000000	6.452907	-0.022515	NaN	0.000000	0.001703	0.001720	28.082	0.022881	0.002027	11.291	-23.2798	11.5634	-0.087968	0.451013	-0.683740	-0.685120	-0.022515	11.291	-0.682245	-1.119193E+9	2.011687E-11	NaN
521	1.000000	0.462407	7.37015e+06	-51039.1	1005.82	-29753.6	0.000000	0.000000	6.462925	0.078134	NaN	0.000000	0.001696	0.001730	28.082	0.106297	0.001931	55.057	-139.895	-168.247	0.037935	0.461084	-0.673726	-0.675049	0.078134	55.057	-0.674790	-8.849908E+8	-8.828800E-11	NaN
521	1.000000	0.472403	7.37015e+06	-51039.1	1005.82	-29753.6	0.000000	0.000000	6.472923	0.094971	NaN	0.000000	0.001719	0.001713	28.082	0.091187	0.001898	48.0537	-126.552	11.1658	0.062417	0.471062	-0.663729	-0.665071	0.094971	48.0537	-0.665212	-6.543951E+8	-1.451286E-10	NaN
521	1.000000	0.482417	7.37015e+06	-51039.1	1005.82	-29753.6	0.000000	0.000000	6.482935	0.063811	NaN	0.000000	0.001702	0.001733	28.082	0.047692	0.002044	23.3308	151.798	-163.995	0.035374	0.481164	-0.653715	-0.654969	0.063811	23.3308	-0.655767	-4.858181E+8	-1.313477E-10	NaN
521	1.000000	0.492408	7.37015e+06	-51039.1	1005.82	-29753.6	0.000000	0.000000	6.492927	0.106469	NaN	0.000000	0.001706	0.001698	28.082	0.055222	0.001922	28.734	-90.5949	10.2976	0.090948	0.491085	-0.643725	-0.645048	0.106469	28.734	-0.646504	-3.626627E+8	-2.935769E-10	NaN
521	1.000000	0.502440	7.37015e+06	-51039.1	1005.82	-29753.6	0.000000	0.000000	6.502960	0.120242	NaN	0.000000	0.001705	0.001681	28.0819	0.129881	0.001979	65.6326	56.9156	-168.481	0.135164	0.501094	-0.633693	-0.635039	0.120242	65.6326	-0.635067	-2.526896E+8	-4.758474E-10	NaN
521	1.000000	0.512440	7.37015e+06	-51039.1	1005.82	-29753.6	0.000000	0.000000	6.512960	0.099890	NaN	0.000000	0.001650	0.001713	28.082	0.052645	0.002065	25.4939	-87.1801	12.3832	0.066071	0.511066	-0.623692	-0.625067	0.099890	25.4939	-0.626631	-1.935293E+8	-5.161495E-10	NaN
521	1.000000	0.522442	7.37015e+06	-51039.1	1005.82	-29753.6	0.000000	0.000000	6.522960	0.069754	NaN	0.000000	0.001631	0.001741	28.0831	0.074187	0.001971	37.6482	-114.928	-163.986	0.108220	0.521146	-0.613690	-0.614986	0.069754	37.6482	-0.615080	-1.342732E+8	-5.194942E-10	NaN
521	1.000000	0.532410	7.37015e+06	-51039.1	1005.82	-29753.6	0.000000	0.000000	6.532925	-0.006601	NaN	0.000000	0.001589	0.001760	28.0833	0.047384	0.001856	25.5245	136.784	13.0091	0.035309	0.531101	-0.603723	-0.605031	-0.006601	25.5245	-0.603529	-9.312146E+7	7.088929E-11	NaN
521	1.000000	0.542426	7.37015e+06	-51039.1	1005.82	-29753.6	0.000000	0.000000	6.542944	0.070114	NaN	0.000000	0.001659	0.001720	28.0835	0.143215	0.002049	69.8862	163.308	-170.017	0.091997	0.541114	-0.593707	-0.595019	0.070114	69.8862	-0.594459	-6.984366E+7	-1.003871E-9	NaN
521	1.000000	0.552471	7.37015e+06	-51039.1	1005.82	-29753.6	0.000000	0.000000	6.552985	-0.038767	NaN	0.000000	0.001642	0.001709	28.0833	0.096953	0.001920	50.5092	37.2739	14.0887	0.025749	0.551070	-0.583662	-0.585062	-0.038767	50.5092	-0.583086	-4.867557E+7	7.964324E-10	NaN
521	1.000000	0.562449	7.37015e+06	-51039.1	1005.82	-29753.6	0.000000	0.000000	6.562966	0.031316	NaN	0.000000	0.001628	0.001764	28.0834	0.036761	0.002095	17.5457	51.551	-167.018	0.058515	0.561145	-0.573683	-0.574988	0.031316	17.5457	-0.575022	-3.767045E+7	-8.313118E-10	NaN
521	1.000000	0.572462	7.37015e+06	-51039.1	1005.82	-29753.6	0.000000	0.000000	6.572974	-0.075836	NaN	0.000000	0.001667	0.001710	28.0833	0.062570	0.002027	30.8756	108.495	11.4206	-0.009043	0.571069	-0.563670	-0.565063	-0.075836	30.8756	-0.561828	-2.475529E+7	3.063426E-9	NaN
521	1.000000	0.582466	7.37015e+06	-51039.1	1005.82	-29753.6	0.000000	0.000000	6.582984	0.073303	NaN	0.000000	0.001623	0.001743	28.0834	0.141070	0.002163	65.2064	-58.1994	-165.378	0.078587	0.581132	-0.553667	-0.555000	0.073303	65.2064	-0.554510	-1.960661E+7	-3.738694E-9	NaN
521	1.000000	0.592432	7.37015e+06	-51039.1	1005.82	-29753.6	0.000000	0.000000	6.592948	0.015020	NaN	0.000000	0.001638	0.001742	28.0832	0.032065	0.001907	16.8127	-94.6974	12.6061	0.066139	0.591086	-0.543700	-0.545047	0.015020	16.8127	-0.544370	-1.418894E+7	-1.058542E-9	NaN
521	1.000000	0.602453	7.37015e+06	-51039.1	1005.82	-29753.6	0.000000	0.000000	6.602969	0.017104	NaN	0.000000	0.001660	0.001737	28.0832	0.179558	0.001905	94.2535	-4.349982	-168.149	-0.019232	0.601176	-0.533679	-0.534957	0.017104	94.2535	-0.533816	-1.012863E+7	-1.688709E-9	NaN
521	1.000000	0.612472	7.37015e+06	-51039.1	1005.82	-29753.6	0.000000	0.000000	6.612985	-0.056464	NaN	0.000000	0.001647	0.001741	28.0835	0.050127	0.001991	25.1816	-26.8212	12.4952	-0.100819	0.611132	-0.523661	-0.525000	-0.056464	25.1816	-0.521979	-6.93612e+06	8.140592E-9	NaN
521	1.000000	0.622477	7.37015e+06	-51039.1	1005.82	-29753.6	0.000000	0.000000	6.622998	0.137378	NaN	0.000000	0.001623	0.001745	28.0832	0.057909	0.002028	28.56	-127.569	-167.959	0.069894	0.621129	-0.513656	-0.515003	0.137378	28.56	-0.517263	-5.96386e+06	-2.303502E-8	NaN
521	1.000000	0.632469	7.37015e+06	-51039.1	1005.82	-29753.6	0.000000	0.000000	6.632985	-0.004511	NaN	0.000000	0.001630	0.001729	28.0828	0.055856	0.001963	28.4514	110.348	12.0994	-0.017118	0.631142	-0.503663	-0.504990	-0.004511	28.4514	-0.503544	-3.84105e+06	1.174521E-9	NaN
521	1.000000	0.642485	7.37015e+06	-51039.1	1005.82	-29753.6	0.000000	0.000000	6.642999	-0.024394	NaN	0.000000	0.001647	0.001727	28.0834	0.075002	0.002118	35.4081	28.1033	-165.482	0.029279	0.641187	-0.493648	-0.494946	-0.024394	35.4081	-0.493131	-2.74877e+06	8.874689E-9	NaN
521	1.000000	0.652485	7.37015e+06	-51039.1	1005.82	-29753.6	0.000000	0.000000	6.653004	0.074496	NaN	0.000000	0.001658	0.001703	28.0831	0.075777	0.002007	37.7527	-150.428	13.5145	0.035725	0.651126	-0.483647	-0.485007	0.074496	37.7527	-0.485127	-2.12455e+06	-3.506437E-8	NaN
521	1.000000	0.662497	7.37015e+06	-51039.1	1005.82	-29753.6	0.000000	0.000000	6.663015	0.071874	NaN	0.000000	0.001645	0.001701	28.0819	0.144640	0.002026	71.3764	95.7016	-167.314	0.014187	0.661136	-0.473636	-0.474996	0.071874	71.3764	-0.474391	-1.50301e+06	-4.781970E-8	NaN
521	1.000000	0.672488	7.37015e+06	-51039.1	1005.82	-29753.6	0.000000	0.000000	6.673002	-0.035869	NaN	0.000000	0.001642	0.001711	28.0819	0.027280	0.002085	13.0847	12.4405	14.3802	-7.660186E-5	0.671152	-0.463644	-0.464980	-0.035869	13.0847	-0.461589	-993889	3.608960E-8	NaN
521	1.000000	0.682493	7.37015e+06	-51039.1	1005.82	-29753.6	0.000000	0.000000	6.683012	0.069342	NaN	0.000000	0.001647	0.001720	28.0825	0.021734	0.002123	10.2366	174.093	-164.188	0.087209	0.681216	-0.453639	-0.454917	0.069342	10.2366	-0.458720	-905777	-7.655475E-8	NaN
521	1.000000	0.692489	7.37015e+06	-51039.1	1005.82	-29753.6	0.000000	0.000000	6.693008	0.072803	NaN	0.000000	0.001657	0.001782	28.082	0.065431	0.001984	32.9744	-36.4427	13.5161	0.063362	0.691124	-0.443643	-0.445009	0.072803	32.9744	-0.445299	-586284	-1.241763E-7	NaN
521	1.000000	0.702509	7.37015e+06	-51039.1	1005.82	-29753.6	0.000000	0.000000	6.703024	0.000963	NaN	0.000000	0.001635	0.001816	28.0822	0.026471	0.001766	14.9872	-164.93	-167.822	-0.033007	0.701256	-0.433624	-0.434876	0.000963	14.9872	-0.433672	-401779	-2.397967E-9	NaN
521	1.000000	0.712502	7.37015e+06	-51039.1	1005.82	-29753.6	0.000000	0.000000	6.713018	0.012325	NaN	0.000000	0.001617	0.001804	28.0819	0.043837	0.001918	22.852	133.52	17.0951	0.074063	0.711129	-0.423630	-0.425003	0.012325	22.852	-0.424035	-293499	-4.199305E-8	NaN
521	1.000000	0.722521	7.37015e+06	-51039.1	1005.82	-29753.6	0.000000	0.000000	6.723038	0.043988	NaN	0.000000	0.001668	0.001811	28.0821	0.057030	0.002055	27.7559	120.461	-166.28	0.027475	0.721242	-0.413611	-0.414890	0.043988	27.7559	-0.414800	-217077	-2.026358E-7	NaN
521	1.000000	0.732527	7.37015e+06	-51039.1	1005.82	-29753.6	0.000000	0.000000	6.733043	0.027308	NaN	0.000000	0.001657	0.001799	28.0818	0.048133	0.001994	24.1443	34.1723	14.4745	0.038680	0.731152	-0.403606	-0.404981	0.027308	24.1443	-0.404454	-154695	-1.765262E-7	NaN
521	1.000000	0.742528	7.37015e+06	-51039.1	1005.82	-29753.6	0.000000	0.000000	6.743048	0.102943	NaN	0.000000	0.001646	0.001829	28.082	0.022863	0.002004	11.4111	23.5216	-168.009	0.109753	0.741231	-0.393605	-0.394901	0.102943	11.4111	-0.400371	-135294	-7.608841E-7	NaN
521	1.000000	0.752526	7.37015e+06	-51039.1	1005.82	-29753.6	0.000000	0.000000	6.753042	0.012095	NaN	0.000000	0.001672	0.001749	28.0819	0.139082	0.002118	65.6754	-174.185	13.7651	-0.028444	0.751189	-0.383607	-0.384944	0.012095	65.6754	-0.383745	-78271	-1.545217E-7	NaN
521	1.000000	0.762571	7.37015e+06	-51039.1	1005.82	-29753.6	0.000000	0.000000	6.763091	0.115195	NaN	0.000000	0.001644	0.001744	28.0821	0.117990	0.001991	59.2698	-108.065	-164.908	0.065491	0.761261	-0.373562	-0.374871	0.115195	59.2698	-0.375020	-58661.5	-1.963730E-6	NaN
521	1.000000	0.772556	7.37015e+06	-51039.1	1005.82	-29753.6	0.000000	0.000000	6.773073	0.029485	NaN	0.000000	0.001642	0.001765	28.082	0.065788	0.002057	31.9885	-169.444	13.6262	0.050507	0.771192	-0.363577	-0.364940	0.029485	31.9885	-0.364268	-41066.7	-7.179669E-7	NaN
521	1.000000	0.782542	7.37015e+06	-51039.1	1005.82	-29753.6	0.000000	0.000000	6.783058	0.027056	NaN	0.000000	0.001629	0.001721	28.082	0.077807	0.002103	36.9976	48.1325	-169.275	0.039211	0.781249	-0.353591	-0.354884	0.027056	36.9976	-0.354139	-29310.9	-9.230680E-7	NaN
521	1.000000	0.792559	7.37015e+06	-51039.1	1005.82	-29753.6	0.000000	0.000000	6.793078	0.087549	NaN	0.000000	0.001659	0.001728	28.0823	0.030497	0.001978	15.4165	95.7944	16.5785	0.020871	0.791192	-0.343573	-0.344940	0.087549	15.4165	-0.347832	-23742.6	-3.687446E-6	NaN
521	1.000000	0.802551	7.37015e+06	-51039.1	1005.82	-29753.6	0.000000	0.000000	6.803067	0.005139	NaN	0.000000	0.001669	0.001771	28.0831	0.056227	0.001872	30.0391	174.459	-162.166	0.041687	0.801168	-0.333581	-0.334964	0.005139	30.0391	-0.333710	-14781.9	-3.476490E-7	NaN
521	1.000000	0.812543	7.37015e+06	-51039.1	1005.82	-29753.6	0.000000	0.000000	6.813063	0.113607	NaN	0.000000	0.001670	0.001743	28.0831	0.110269	0.002156	51.1348	154.923	12.4566	0.074339	0.811217	-0.323589	-0.324915	0.113607	51.1348	-0.325256	-11114.4	-1.022153E-5	NaN
521	1.000000	0.822533	7.37015e+06	-51039.1	1005.82	-29753.6	0.000000	0.000000	6.823051	0.054300	NaN	0.000000	0.001628	0.001732	28.0831	0.083781	0.001990	42.108	144.268	-167.748	0.047571	0.821224	-0.313599	-0.314909	0.054300	42.108	-0.314566	-7736.56	-7.018599E-6	NaN
521	1.000000	0.832563	7.37015e+06	-51039.1	1005.82	-29753.6	0.000000	0.000000	6.833077	-0.014514	NaN	0.000000	0.001649	0.001714	28.0833	0.024454	0.001988	12.2998	-177.241	13.4807	-0.014334	0.831219	-0.303570	-0.304913	-0.014514	12.2998	-0.302685	-5159.06	2.813345E-6	NaN
521	1.000000	0.842547	7.37015e+06	-51039.1	1005.82	-29753.6	0.000000	0.000000	6.843064	0.042956	NaN	0.000000	0.001631	0.001709	28.0831	0.040476	0.002100	19.2717	-177.212	-166.475	0.000851	0.841262	-0.293585	-0.294870	0.042956	19.2717	-0.295257	-3998.78	-1.074224E-5	NaN
521	1.000000	0.852578	7.37015e+06	-51039.1	1005.82	-29753.6	0.000000	0.000000	6.853093	-0.009542	NaN	0.000000	0.001633	0.001691	28.0836	0.019830	0.002031	9.764488	-31.9038	12.3142	0.019447	0.851212	-0.283554	-0.284921	-0.009542	9.764488	-0.282821	-2603.1	3.665787E-6	NaN
521	1.000000	0.862561	7.37015e+06	-51039.1	1005.82	-29753.6	0.000000	0.000000	6.863076	-0.011629	NaN	0.000000	0.001655	0.001729	28.0832	0.028365	0.001984	14.2946	-175.343	-164.423	0.042096	0.861312	-0.273571	-0.274821	-0.011629	14.2946	-0.272961	-1847.17	6.295631E-6	NaN
521	1.000000	0.872580	7.37015e+06	-51039.1	1005.82	-29753.6	0.000000	0.000000	6.873095	-0.007174	NaN	0.000000	0.001623	0.001717	28.0832	0.010537	0.002090	5.040830	-130.123	11.3742	-0.028432	0.871248	-0.263553	-0.264885	-0.007174	5.040830	-0.262485	-1279.3	5.607779E-6	NaN
521	1.000000	0.882563	7.37015e+06	-51039.1	1005.82	-29753.6	0.000000	0.000000	6.883081	0.064866	NaN	0.000000	0.001642	0.001710	28.083	0.095363	0.002031	46.9429	34.8809	-167.313	0.088763	0.881261	-0.253570	-0.254871	0.064866	46.9429	-0.254606	-968.396	-6.698277E-5	NaN
521	1.000000	0.892579	7.37015e+06	-51039.1	1005.82	-29753.6	0.000000	0.000000	6.893098	0.074433	NaN	0.000000	0.001660	0.001714	28.0829	0.106972	0.002031	52.6817	62.1636	16.8468	0.102946	0.891236	-0.243553	-0.244896	0.074433	52.6817	-0.244613	-678.324	-0.000110	NaN
521	1.000000	0.902583	7.37015e+06	-51039.1	1005.82	-29753.6	0.000000	0.000000	6.903099	0.013746	NaN	0.000000	0.001660	0.001685	28.0834	0.106684	0.001978	53.9338	96.7317	-163.424	-0.008396	0.901308	-0.233550	-0.234825	0.013746	53.9338	-0.233741	-458.628	-2.997259E-5	NaN
521	1.000000	0.912570	7.37015e+06	-51039.1	1005.82	-29753.6	0.000000	0.000000	6.913086	0.032270	NaN	0.000000	0.001651	0.001713	28.0831	0.050477	0.001910	26.4318	51.7148	16.3649	0.041404	0.911261	-0.223563	-0.224872	0.032270	26.4318	-0.224479	-327.38	-9.856932E-5	NaN
521	1.000000	0.922595	7.37015e+06	-51039.1	1005.82	-29753.6	0.000000	0.000000	6.923110	-0.001147	NaN	0.000000	0.001669	0.001706	28.0831	0.113151	0.001999	56.6173	-168.144	-164.227	-0.014550	0.921283	-0.213537	-0.214849	-0.001147	56.6173	-0.213522	-218.636	5.248239E-6	NaN
521	1.000000	0.932574	7.37015e+06	-51039.1	1005.82	-29753.6	0.000000	0.000000	6.933091	0.026638	NaN	0.000000	0.001673	0.001707	28.0821	0.102138	0.001951	52.3565	113.495	11.9033	0.007377	0.931258	-0.203558	-0.204874	0.026638	52.3565	-0.203940	-152.845	-0.000174	NaN
521	1.000000	0.942617	7.37015e+06	-51039.1	1005.82	-29753.6	0.000000	0.000000	6.943139	0.167410	NaN	0.000000	0.001665	0.001818	28.0819	0.014891	0.001848	8.060091	178.632	-167.769	0.152703	0.941263	-0.193516	-0.194869	0.167410	8.060091	-0.209094	-185.409	-0.000903	NaN
521	1.000000	0.952615	7.37015e+06	-51039.1	1005.82	-29753.6	0.000000	0.000000	6.953133	0.051067	NaN	0.000000	0.001651	0.001818	28.0821	0.048098	0.001954	24.6208	-147.864	12.9908	0.023656	0.951251	-0.183517	-0.184881	0.051067	24.6208	-0.185073	-74.363	-0.000687	NaN
521	1.000000	0.962603	7.37015e+06	-51039.1	1005.82	-29753.6	0.000000	0.000000	6.963120	0.017311	NaN	0.000000	0.001647	0.001829	28.0818	0.042228	0.001983	21.2952	87.4811	-169.41	-0.035355	0.961367	-0.173529	-0.174766	0.017311	21.2952	-0.174139	-48.4359	-0.000357	NaN
521	1.000000	0.972602	7.37015e+06	-51039.1	1005.82	-29753.6	0.000000	0.000000	6.973121	0.086746	NaN	0.000000	0.001683	0.001823	28.0826	0.080613	0.002010	40.1137	94.2441	18.9633	0.003240	0.971226	-0.163530	-0.164907	0.086746	40.1137	-0.165152	-33.8048	-0.002566	NaN
521	1.000000	0.982620	7.37015e+06	-51039.1	1005.82	-29753.6	0.000000	0.000000	6.983137	0.029234	NaN	0.000000	0.001629	0.001808	28.0818	0.070585	0.002093	33.7203	-165.934	-166.012	-0.062067	0.981377	-0.153512	-0.154755	0.029234	33.7203	-0.154163	-21.5525	-0.001356	NaN
521	1.000000	0.992578	7.37015e+06	-51039.1	1005.82	-29753.6	0.000000	0.000000	6.993096	0.042165	NaN	0.000000	0.001623	0.001839	28.0831	0.103015	0.002008	51.2977	87.3679	14.3991	0.010728	0.991277	-0.143554	-0.144856	0.042165	51.2977	-0.144171	-14.1516	-0.002980	NaN
521	1.000000	1.002604	7.37015e+06	-51039.1	1005.82	-29753.6	0.000000	0.000000	7.003118	-0.034597	NaN	0.000000	0.001634	0.001825	28.0821	0.014304	0.002011	7.111869	-46.1795	-166.52	-0.031794	1.001349	-0.133529	-0.134784	-0.034597	7.111869	-0.129880	-7.580294	0.004564	NaN
521	1.000000	1.012625	7.37015e+06	-51039.1	1005.82	-29753.6	0.000000	0.000000	7.013144	0.084179	NaN	0.000000	0.001663	0.001786	28.0826	0.054501	0.001843	29.571	49.0313	11.9533	0.151957	1.011200	-0.123508	-0.124933	0.084179	29.571	-0.125643	-6.261748	-0.013443	NaN
521	1.000000	1.022644	7.37015e+06	-51039.1	1005.82	-29753.6	0.000000	0.000000	7.023161	0.055840	NaN	0.000000	0.001629	0.001749	28.0818	0.040134	0.001999	20.0753	115.791	-164.103	0.045990	1.021364	-0.113489	-0.114769	0.055840	20.0753	-0.115575	-3.925939	-0.014223	NaN
521	1.000000	1.032637	7.37015e+06	-51039.1	1005.82	-29753.6	0.000000	0.000000	7.033152	-0.006672	NaN	0.000000	0.001591	0.001796	28.0819	0.097357	0.001976	49.2742	143.375	12.3501	0.051878	1.031270	-0.103495	-0.104863	-0.006672	49.2742	-0.103394	-2.169378	0.003076	NaN
521	1.000000	1.042658	7.37015e+06	-51039.1	1005.82	-29753.6	0.000000	0.000000	7.043173	-0.014334	NaN	0.000000	0.001644	0.001797	28.0819	0.101560	0.001974	51.4533	5.885287	-164.9	-0.028170	1.041310	-0.093475	-0.094823	-0.014334	51.4533	-0.093266	-1.287370	0.011134	NaN
521	1.000000	1.052660	7.37015e+06	-51039.1	1005.82	-29753.7	0.000000	0.000000	7.053174	-0.036932	NaN	0.000000	0.001641	0.001798	28.082	0.050001	0.001992	25.1036	58.7323	10.1878	-0.071800	1.051277	-0.083472	-0.084856	-0.036932	25.1036	-0.082369	-0.708690	0.052113	NaN
521	1.000000	1.062620	7.37015e+06	-51039.1	1005.82	-29753.7	0.000000	0.000000	7.063137	0.035594	NaN	0.000000	0.001644	0.001754	28.0817	0.083482	0.002047	40.7872	-131.372	-165.223	0.102175	1.061285	-0.073512	-0.074848	0.035594	40.7872	-0.074167	-0.439440	-0.080998	NaN
521	1.000000	1.072636	7.37015e+06	-51039.1	1005.82	-29753.7	0.000000	0.000000	7.073155	0.096360	NaN	0.000000	0.001630	0.001786	28.0829	0.046900	0.001962	23.9019	-160.09	14.8247	0.141692	1.071303	-0.063497	-0.064829	0.096360	23.9019	-0.066521	-0.274495	-0.351044	NaN
521	1.000000	1.082635	7.37015e+06	-51039.1	1005.82	-29753.7	0.000000	0.000000	7.083152	0.017736	NaN	0.000000	0.001628	0.001773	28.0832	0.107407	0.001925	55.7929	-12.8443	-162.467	0.006552	1.081365	-0.053497	-0.054768	0.017736	55.7929	-0.053736	-0.118125	-0.150148	NaN
521	1.000000	1.092688	7.37015e+06	-51039.1	1005.82	-29753.7	0.000000	0.000000	7.093207	0.072339	NaN	0.000000	0.001689	0.001785	28.083	0.059694	0.001999	29.869	85.7305	15.157	0.075060	1.091297	-0.043444	-0.044835	0.072339	29.869	-0.045261	-0.065458	-1.105116	NaN
521	1.000000	1.102681	7.37015e+06	-51039.1	1005.82	-29753.7	0.000000	0.000000	7.103198	0.045669	NaN	0.000000	0.001630	0.001768	28.0829	0.087217	0.001995	43.7264	146.631	-166.098	0.050888	1.101342	-0.033452	-0.034791	0.045669	43.7264	-0.034235	-0.030411	-1.501732	NaN
521	1.000000	1.112680	7.37015e+06	-51039.1	1005.82	-29753.7	0.000000	0.000000	7.113197	0.040600	NaN	0.000000	0.001647	0.001812	28.0829	0.139263	0.001914	72.7499	-119.019	11.3628	0.079432	1.111329	-0.023453	-0.024804	0.040600	72.7499	-0.023871	-0.015769	-2.574576	NaN
521	1.000000	1.122677	7.37015e+06	-51039.1	1005.82	-29753.7	0.000000	0.000000	7.123196	0.075361	NaN	0.000000	0.001609	0.001795	28.0831	0.040319	0.001969	20.4724	109.801	-171.331	0.048720	1.121408	-0.013455	-0.014724	0.075361	20.4724	-0.016216	-0.010017	-7.523575	NaN
521	1.000000	1.132675	7.37015e+06	-51039.1	1005.82	-29753.7	0.000000	0.000000	7.133297	2.602507	NaN	0.000000	0.001631	0.001787	28.083	2.704970	0.001932	1399.87	20.4336	9.514390	2.707527	1.131358	-0.003458	-0.004775	2.602507	1399.87	-0.004852	-0.003323	-783.073	NaN
521	1.000000	1.142572	7.37015e+06	-51039.1	1005.82	-29753.7	0.000000	0.000000	7.143388	7.317765	NaN	0.000000	0.001623	0.001813	28.083	7.006640	0.001650	4247.65	12.3924	-173.58	6.134996	1.141323	0.006439	0.005190	7.317765	4247.65	0.005147	0.004268	1714.52	59402.4
521	2.000000	1.145776	7.37015e+06	-51039.1	1005.82	-29753.7	0.000000	0.000000	7.146749	11.1184	NaN	0.000000	0.001635	0.001815	28.0832	10.5317	0.001729	6090.47	6.769605	5.066915	9.406934	1.145407	0.009644	0.009274	11.1184	6090.47	0.008275	0.007326	1517.56	65009.4
521	2.000000	1.148311	7.37015e+06	-51039.1	1005.82	-29753.7	0.000000	0.000000	7.149383	13.5226	NaN	0.000000	0.001627	0.001862	28.083	13.2596	0.001846	7181.18	9.189618	-175.781	13.2699	1.148024	0.012179	0.011892	13.5226	7181.18	0.010767	0.010046	1346.06	65459.5
521	2.000000	1.150789	7.37015e+06	-51039.1	1005.82	-29753.7	0.000000	0.000000	7.152142	20.372	NaN	0.000000	0.001651	0.001799	28.0828	15.9787	0.001719	9294.36	9.714090	1.921557	19.5634	1.150310	0.014657	0.014177	20.372	9294.36	0.013013	0.012726	1600.85	75275
521	2.000000	1.153263	7.37015e+06	-51039.1	1005.82	-29753.7	0.000000	0.000000	7.154740	23.3806	NaN	0.000000	0.001649	0.001814	28.0831	18.1464	0.001713	10591.7	7.585671	-177.89	23.8619	1.152943	0.017130	0.016810	23.3806	10591.7	0.015475	0.015924	1468.29	76686.4
521	2.000000	1.155753	7.37015e+06	-51039.1	1005.82	-29753.7	0.000000	0.000000	7.157484	29.5412	NaN	0.000000	0.001633	0.001761	28.0831	20.6821	0.001666	12417.4	4.662543	3.381081	28.5035	1.155401	0.019621	0.019268	29.5412	12417.4	0.017836	0.019256	1534.13	81756.6
521	2.000000	1.158222	7.37015e+06	-51039.1	1005.82	-29753.7	0.000000	0.000000	7.160197	35.4999	NaN	0.000000	0.001627	0.001783	28.0827	24.0549	0.001730	13903.9	7.632415	178.25	34.203	1.157988	0.022089	0.021855	35.4999	13903.9	0.020174	0.022817	1555.87	84097.4
521	2.000000	1.160767	7.37015e+06	-51039.1	1005.82	-29753.7	0.000000	0.000000	7.163041	42.7454	NaN	0.000000	0.001664	0.001741	28.0817	26.2304	0.001576	16642.6	6.579889	-2.900156	41.1879	1.160443	0.024635	0.024311	42.7454	16642.6	0.022708	0.026978	1584.44	92573.7
521	2.000000	1.163231	7.37015e+06	-51039.1	1005.82	-29753.7	0.000000	0.000000	7.165807	50.1011	NaN	0.000000	0.001684	0.001811	28.0818	28.8038	0.001635	17620.8	5.994536	178.09	50.267	1.162927	0.027098	0.026794	50.1011	17620.8	0.024966	0.030953	1618.6	91504.8
521	2.000000	1.165695	7.37015e+06	-51039.1	1005.82	-29753.7	0.000000	0.000000	7.168556	57.0509	NaN	0.000000	0.001643	0.001795	28.0817	31.3786	0.001770	17731.3	3.105213	1.729359	55.2003	1.165389	0.029562	0.029256	57.0509	17731.3	0.027149	0.035041	1628.11	86541.4
521	2.000000	1.168190	7.37015e+06	-51039.1	1005.82	-29753.7	0.000000	0.000000	7.171384	65.143	NaN	0.000000	0.001644	0.001772	28.0818	34.9294	0.001751	19946.8	6.254130	176.129	62.6868	1.167879	0.032058	0.031747	65.143	19946.8	0.029608	0.039936	1631.2	91194
521	2.000000	1.170672	7.37015e+06	-51039.1	1005.82	-29753.7	0.000000	0.000000	7.174312	75.9768	NaN	0.000000	0.001625	0.001811	28.0818	36.5854	0.001751	20898.9	7.440320	-3.896767	72.5759	1.170299	0.034539	0.034166	75.9768	20898.9	0.031813	0.044585	1704.09	90428
521	2.000000	1.173226	7.37015e+06	-51039.1	1005.82	-29753.7	0.000000	0.000000	7.177191	83.8925	NaN	0.000000	0.001585	0.001810	28.0825	38.3026	0.001758	21793.4	2.270603	-179.614	84.196	1.172909	0.037093	0.036776	83.8925	21793.4	0.034206	0.049914	1680.74	89122.7
521	2.000000	1.175664	7.37015e+06	-51039.1	1005.82	-29753.7	0.000000	0.000000	7.180037	93.7968	NaN	0.000000	0.001571	0.001809	28.082	42.0604	0.001758	23921	8.893972	-7.148894	91.752	1.175326	0.039532	0.039193	93.7968	23921	0.036591	0.055515	1689.56	92756.8
521	2.000000	1.178161	7.37015e+06	-51039.1	1005.82	-29753.7	0.000000	0.000000	7.182905	102.814	NaN	0.000000	0.001612	0.001809	28.0823	45.033	0.001789	25177	7.442350	174.291	100.384	1.177869	0.042029	0.041737	102.814	25177	0.038966	0.061383	1674.96	92843.8
521	2.000000	1.180667	7.37015e+06	-51039.1	1005.82	-29753.7	0.000000	0.000000	7.185821	112.81	NaN	0.000000	0.001600	0.001807	28.0819	46.7155	0.001656	28215.9	5.720209	-5.831667	109.022	1.180439	0.044534	0.044307	112.81	28215.9	0.041536	0.068057	1657.56	98816.3
521	2.000000	1.183136	7.37015e+06	-51039.1	1005.82	-29753.7	0.000000	0.000000	7.188856	126.58	NaN	0.000000	0.001613	0.001828	28.0822	48.9189	0.001811	27017.1	1.695889	178.998	123.097	1.182894	0.047003	0.046762	126.58	27017.1	0.043489	0.073356	1725.54	91136.5
521	2.000000	1.185669	7.37015e+06	-51039.1	1005.82	-29753.7	0.000000	0.000000	7.191900	138.991	NaN	0.000000	0.001616	0.001822	28.0818	51.7419	0.001738	29763.3	5.542234	-5.839699	136.623	1.185275	0.049536	0.049142	138.991	29763.3	0.046034	0.080549	1725.54	95812.7
521	2.000000	1.188233	7.37015e+06	-51039.1	1005.82	-29753.7	0.000000	0.000000	7.194955	150.921	NaN	0.000000	0.001633	0.001758	28.082	54.799	0.001835	29865.3	7.607428	172.22	151.784	1.187882	0.052101	0.051750	150.921	29865.3	0.048311	0.087263	1729.5	92368.5
521	2.000000	1.190721	7.37015e+06	-51039.1	1005.82	-29753.7	0.000000	0.000000	7.197931	162.793	NaN	0.000000	0.001623	0.001785	28.0821	57.7663	0.001825	31656	9.284234	-9.326462	161.972	1.190325	0.054588	0.054192	162.793	31656	0.050731	0.094687	1719.28	93990.6
521	2.000000	1.193181	7.37015e+06	-51039.1	1005.82	-29753.7	0.000000	0.000000	7.201157	181.422	NaN	0.000000	0.001642	0.001780	28.0833	57.91	0.001656	34959.4	3.822107	176.186	182.933	1.192814	0.057049	0.056682	181.422	34959.4	0.053157	0.102419	1771.37	99803.7
521	2.000000	1.195726	7.37015e+06	-51039.1	1005.82	-29753.7	0.000000	0.000000	7.204156	192.464	NaN	0.000000	0.001619	0.001786	28.0833	62.2235	0.001742	35716.4	4.855765	-6.252506	193.693	1.195337	0.059594	0.059205	192.464	35716.4	0.055552	0.110344	1744.21	98235
521	2.000000	1.198196	7.37015e+06	-51039.1	1005.82	-29753.7	0.000000	0.000000	7.207142	204.993	NaN	0.000000	0.001621	0.001798	28.0835	66.6728	0.001917	34778.5	6.789854	171.97	204.99	1.197926	0.062064	0.061793	204.993	34778.5	0.057643	0.117493	1744.72	92699.6
521	2.000000	1.200762	7.37015e+06	-51039.1	1005.82	-29753.7	0.000000	0.000000	7.210381	221.391	NaN	0.000000	0.001609	0.001772	28.0835	67.2675	0.001804	37297.4	4.808091	-6.135523	221.817	1.200272	0.064629	0.064140	221.391	37297.4	0.060177	0.126445	1750.89	95829.9
521	2.000000	1.203075	7.37015e+06	-51039.1	1005.82	-29753.7	0.000000	0.000000	7.213330	236.835	NaN	0.000000	0.001649	0.001800	28.0834	69.4331	0.001776	39087.2	6.351133	170.926	231.863	1.202823	0.066943	0.066691	236.835	39087.2	0.062398	0.134548	1760.22	97357.4
521	2.000000	1.205695	7.37015e+06	-51039.1	1005.82	-29753.7	0.000000	0.000000	7.216562	251.717	NaN	0.000000	0.001617	0.001778	28.083	73.4422	0.001892	38816.3	4.640247	-6.768850	249.948	1.205301	0.069563	0.069169	251.717	38816.3	0.064699	0.143197	1757.84	93717.4
521	2.000000	1.208187	7.37015e+06	-51039.1	1005.82	-29753.7	0.000000	0.000000	7.219807	270.039	NaN	0.000000	0.001629	0.001789	28.0834	74.7406	0.001783	41916.5	3.887018	173.957	270.681	1.207838	0.072054	0.071706	270.039	41916.5	0.067222	0.152973	1765.28	97915.4
521	2.000000	1.210617	7.37015e+06	-51039.1	1005.82	-29753.7	0.000000	0.000000	7.222853	285.027	NaN	0.000000	0.001643	0.001765	28.0833	76.7196	0.001712	44814.4	5.924859	-9.088525	279.257	1.210302	0.074484	0.074170	285.027	44814.4	0.069714	0.162926	1749.42	101437
521	2.000000	1.213066	7.37015e+06	-51039.1	1005.82	-29753.7	0.000000	0.000000	7.225995	301.858	NaN	0.000000	0.001613	0.001808	28.0836	78.3364	0.001650	47488.2	3.257710	172.869	297.236	1.212845	0.076933	0.076713	301.858	47488.2	0.072166	0.173010	1744.75	104309
521	2.000000	1.215572	7.37015e+06	-51039.1	1005.82	-29753.7	0.000000	0.000000	7.229248	320.027	NaN	0.000000	0.001600	0.001796	28.0833	81.7152	0.001743	46869.1	3.043152	-7.016915	314.607	1.215366	0.079440	0.079234	320.027	46869.1	0.074319	0.182098	1757.44	100348
521	2.000000	1.218159	7.37015e+06	-51039.1	1005.82	-29753.7	0.000000	0.000000	7.232574	337.996	NaN	0.000000	0.001556	0.001791	28.0837	85.8514	0.001868	45951.7	3.355838	172.742	338.484	1.217922	0.082027	0.081790	337.996	45951.7	0.076510	0.191575	1764.3	95919.3
521	2.000000	1.220611	7.37015e+06	-51039.1	1005.82	-29753.7	0.000000	0.000000	7.236096	364.008	NaN	0.000000	0.001567	0.001796	28.0835	86.6275	0.001856	46675.4	5.477282	-8.308289	358.418	1.220150	0.084479	0.084018	364.008	46675.4	0.078630	0.200954	1811.4	95129
521	2.000000	1.223149	7.37015e+06	-51039.1	1005.82	-29753.7	0.000000	0.000000	7.239363	381.759	NaN	0.000000	0.001584	0.001777	28.0838	89.0149	0.001748	50937.2	5.111692	170.966	383.172	1.222825	0.087016	0.086693	381.759	50937.2	0.081395	0.213506	1788.05	100717
521	2.000000	1.225566	7.37015e+06	-51039.1	1005.82	-29753.7	0.000000	0.000000	7.242512	399.533	NaN	0.000000	0.001617	0.001819	28.0835	92.7442	0.001868	49656.9	5.271433	-8.918859	394.224	1.225193	0.089434	0.089061	399.533	49656.9	0.083399	0.222825	1793.03	96110.4
521	2.000000	1.228125	7.37015e+06	-51039.1	1005.82	-29753.7	0.000000	0.000000	7.245899	419.676	NaN	0.000000	0.001573	0.001789	28.0825	94.2197	0.001755	53686.7	2.090522	173.81	417.595	1.227780	0.091992	0.091648	419.676	53686.7	0.086129	0.235818	1779.66	101007
521	2.000000	1.230610	7.37015e+06	-51039.1	1005.82	-29753.7	0.000000	0.000000	7.249309	442.177	NaN	0.000000	0.001616	0.001756	28.0823	95.7929	0.001664	57584	5.713799	-10.3716	436.359	1.230172	0.094477	0.094040	442.177	57584	0.088718	0.248456	1779.7	105548
521	2.000000	1.233164	7.37015e+06	-51039.1	1005.82	-29753.7	0.000000	0.000000	7.252830	465.681	NaN	0.000000	0.001608	0.001758	28.0824	98.8316	0.001713	57691.3	8.035725	167.922	464.729	1.232754	0.097032	0.096621	465.681	57691.3	0.090978	0.259741	1792.86	103422
521	2.000000	1.235393	7.37015e+06	-51039.1	1005.82	-29753.7	0.000000	0.000000	7.255538	477.344	NaN	0.000000	0.001633	0.001776	28.0824	101.08	0.001752	57705.4	6.019967	-10.8072	462.059	1.235210	0.099260	0.099077	477.344	57705.4	0.093056	0.270324	1765.82	101402
521	2.000000	1.238098	7.37015e+06	-51039.1	1005.82	-29753.7	0.000000	0.000000	7.259397	505.382	NaN	0.000000	0.001592	0.001841	28.0824	104.137	0.001760	59171.1	3.833650	171.853	503.906	1.237707	0.101966	0.101575	505.382	59171.1	0.095560	0.283339	1783.66	101562
521	2.000000	1.240558	7.37015e+06	-51039.1	1005.82	-29753.7	0.000000	0.000000	7.262679	525.383	NaN	0.000000	0.001606	0.001779	28.0823	106.225	0.001812	58638.3	5.019074	-9.592354	518.613	1.240338	0.104425	0.104206	525.383	58638.3	0.097705	0.294718	1782.66	98685.1
521	2.000000	1.242064	7.37015e+06	-51039.1	1005.82	-29753.7	0.000000	0.000000	7.264210	526.008	NaN	0.000000	0.001606	0.001792	28.0824	108.226	0.001859	58201.6	2.166681	172.675	521.705	1.241875	0.105931	0.105743	526.008	58201.6	0.099153	0.302514	1738.79	96679.8