File: remote_trans/data/nanoindenter/0828-1/data/Data_2025-08-06,11h17m57s/2025-07-22_16-23-58_1_146.txt
2025-07-22, 16:23:58, 1
Index	Phase	Displacement	Time	Pos X	Pos Y	Pos Z	Rot A	Rot B	Piezo Z	Force A	Force B	Gripper	Voltage A	Voltage B	Temperature	Amplitude force	Amplitude pos	Stiffness	Phase shift	Phase excitation	Force A raw	Displacement raw	HMax	HMax raw	Real Force	Real Stiffness	Contact Depth	Area	Hardness	Reduced Mod.
[#]	[#]	[um]	[s]	[um]	[um]	[um]	[m°]	[m°]	[um]	[uN]	[uN]	[V]	[V]	[V]	[°C]	[uN]	[um]	[N/m]	[°]	[°]	[uN]	[um]	[um]	[um]	[uN]	[N/m]	[um]	[um^2]	[MPa]	[MPa]
146	1.000000	0.002204	7.36647e+06	-45939.1	955.819	-29771.2	0.000000	0.000000	6.002808	-0.005115	NaN	0.000000	0.001615	0.001705	28.1233	0.011654	0.000950	12.2612	-122.415	-163.027	-0.006880	0.000871	-1.061834	-1.063167	-0.005115	12.2612	-1.061521	-1.524978E+14	3.354182E-17	NaN
146	1.000000	0.010225	7.36647e+06	-45939.1	955.819	-29771.2	0.000000	0.000000	6.010829	-0.009443	NaN	0.000000	0.001611	0.001716	28.1235	0.047224	0.000898	52.5735	-160.765	-161.288	0.066302	0.008850	-1.053813	-1.055188	-0.009443	52.5735	-1.053678	-1.196331E+14	7.893572E-17	NaN
146	1.000000	0.018171	7.36647e+06	-45939.1	955.82	-29771.2	0.000000	0.000000	6.018774	-0.031204	NaN	0.000000	0.001596	0.001695	28.1229	0.104614	0.001635	63.9819	139.282	-166.553	0.013620	0.016917	-1.045867	-1.047121	-0.031204	63.9819	-1.045501	-9.288166E+13	3.359558E-16	NaN
146	1.000000	0.026213	7.36647e+06	-45939.1	955.819	-29771.2	0.000000	0.000000	6.026817	-0.011469	NaN	0.000000	0.001597	0.001715	28.1247	0.075307	0.001711	44.0252	-141.495	-161.278	-0.016043	0.024858	-1.037825	-1.039179	-0.011469	44.0252	-1.037629	-7.279253E+13	1.575582E-16	NaN
146	1.000000	0.034152	7.36647e+06	-45939.1	955.82	-29771.2	0.000000	0.000000	6.034754	-0.061914	NaN	0.000000	0.001590	0.001734	28.124	0.099672	0.001873	53.2163	112.951	-164.146	-0.058928	0.032857	-1.029885	-1.031181	-0.061914	53.2163	-1.029013	-5.574449E+13	1.110677E-15	NaN
146	1.000000	0.042159	7.36647e+06	-45939.1	955.818	-29771.2	0.000000	0.000000	6.042765	0.039125	NaN	0.000000	0.001533	0.001753	28.1243	0.116079	0.001858	62.4718	64.738	-168.187	-0.000882	0.040876	-1.021879	-1.023161	0.039125	62.4718	-1.022348	-4.534678E+13	-8.627973E-16	NaN
146	1.000000	0.050135	7.36647e+06	-45939.1	955.819	-29771.2	0.000000	0.000000	6.050741	0.014049	NaN	0.000000	0.001523	0.001721	28.1236	0.021147	0.001976	10.7007	33.7038	-163.231	0.016164	0.048799	-1.013902	-1.015239	0.014049	10.7007	-1.014887	-3.598746E+13	-3.903840E-16	NaN
146	1.000000	0.058163	7.36647e+06	-45939.1	955.818	-29771.2	0.000000	0.000000	6.058767	-0.001905	NaN	0.000000	0.001545	0.001710	28.1241	0.038411	0.001980	19.4036	166.163	-163.936	-0.000883	0.056850	-1.005875	-1.007187	-0.001905	19.4036	-1.005801	-2.715603E+13	7.013852E-17	NaN
146	1.000000	0.066164	7.36647e+06	-45939.1	955.819	-29771.2	0.000000	0.000000	6.066770	0.054802	NaN	0.000000	0.001536	0.001722	28.1237	0.007385	0.002007	3.680415	23.9428	-165.075	0.049353	0.064842	-0.997874	-0.999196	0.054802	3.680415	-1.009042	-3.002524E+13	-1.825207E-15	NaN
146	1.000000	0.074130	7.36647e+06	-45939.1	955.819	-29771.2	0.000000	0.000000	6.074735	0.002985	NaN	0.000000	0.001549	0.001717	28.1225	0.028094	0.001986	14.1432	-167.393	-166.401	0.073937	0.072882	-0.989907	-0.991156	0.002985	14.1432	-0.990066	-1.667235E+13	-1.790563E-16	NaN
146	1.000000	0.082137	7.36647e+06	-45939.1	955.819	-29771.2	0.000000	0.000000	6.082745	0.059923	NaN	0.000000	0.001499	0.001757	28.1215	0.031711	0.001954	16.2262	-25.0349	-165.076	0.021762	0.080824	-0.981900	-0.983214	0.059923	16.2262	-0.984670	-1.410336E+13	-4.248840E-15	NaN
146	1.000000	0.090152	7.36647e+06	-45939.1	955.819	-29771.2	0.000000	0.000000	6.090752	-0.104658	NaN	0.000000	0.001560	0.001746	28.1215	0.044457	0.001939	22.9245	-124.339	-168.419	-0.023880	0.088875	-0.973886	-0.975163	-0.104658	22.9245	-0.970462	-9.075828E+12	1.153147E-14	NaN
146	1.000000	0.098151	7.36647e+06	-45939.1	955.819	-29771.2	0.000000	0.000000	6.098756	0.004344	NaN	0.000000	0.001516	0.001714	28.1216	0.028588	0.001919	14.9008	105.13	-167.166	0.105851	0.096870	-0.965887	-0.967168	0.004344	14.9008	-0.966105	-7.928135E+12	-5.478651E-16	NaN
146	1.000000	0.106181	7.36647e+06	-45939.1	955.818	-29771.2	0.000000	0.000000	6.106786	0.017180	NaN	0.000000	0.001525	0.001679	28.123	0.164810	0.002060	80.0092	179.786	-167.103	0.049874	0.104868	-0.957857	-0.959170	0.017180	80.0092	-0.958018	-6.168003E+12	-2.785342E-15	NaN
146	1.000000	0.114156	7.36647e+06	-45939.1	955.819	-29771.2	0.000000	0.000000	6.114761	-0.008896	NaN	0.000000	0.001542	0.001689	28.1231	0.071681	0.002092	34.2664	76.7484	-165.767	-0.027722	0.112882	-0.949881	-0.951156	-0.008896	34.2664	-0.949687	-4.762132E+12	1.868115E-15	NaN
146	1.000000	0.122175	7.36647e+06	-45939.1	955.819	-29771.2	0.000000	0.000000	6.122780	0.013733	NaN	0.000000	0.001501	0.001715	28.1225	0.012719	0.002181	5.831864	166.503	-163.272	-0.001117	0.120900	-0.941863	-0.943137	0.013733	5.831864	-0.943629	-3.945452E+12	-3.480820E-15	NaN
146	1.000000	0.130170	7.36647e+06	-45939.1	955.818	-29771.2	0.000000	0.000000	6.130775	0.005350	NaN	0.000000	0.001541	0.001735	28.1224	0.090402	0.002048	44.1413	176.334	-166.074	0.030465	0.128931	-0.933868	-0.935107	0.005350	44.1413	-0.933958	-2.921589E+12	-1.831163E-15	NaN
146	1.000000	0.138187	7.36647e+06	-45939.1	955.819	-29771.2	0.000000	0.000000	6.138792	0.017506	NaN	0.000000	0.001551	0.001723	28.1228	0.072947	0.002021	36.0893	-123.949	-163.775	0.061950	0.136853	-0.925851	-0.927185	0.017506	36.0893	-0.926215	-2.296697E+12	-7.622395E-15	NaN
146	1.000000	0.146189	7.36647e+06	-45939.1	955.819	-29771.2	0.000000	0.000000	6.146794	0.018913	NaN	0.000000	0.001556	0.001700	28.1217	0.069228	0.001959	35.3383	37.3526	-165.278	0.054856	0.144870	-0.917849	-0.919168	0.018913	35.3383	-0.918250	-1.793001E+12	-1.054844E-14	NaN
146	1.000000	0.154184	7.36647e+06	-45939.1	955.819	-29771.2	0.000000	0.000000	6.154787	-0.027753	NaN	0.000000	0.001579	0.001735	28.1217	0.043784	0.002046	21.3979	-49.6957	-162.098	-0.005377	0.152856	-0.909854	-0.911182	-0.027753	21.3979	-0.908881	-1.339843E+12	2.071328E-14	NaN
146	1.000000	0.162198	7.36647e+06	-45939.1	955.819	-29771.2	0.000000	0.000000	6.162803	0.012690	NaN	0.000000	0.001583	0.001726	28.1212	0.057403	0.002002	28.6786	-58.371	-163.776	-0.013723	0.160885	-0.901840	-0.903153	0.012690	28.6786	-0.902172	-1.087451E+12	-1.166952E-14	NaN
146	1.000000	0.170196	7.36647e+06	-45939.1	955.819	-29771.2	0.000000	0.000000	6.170798	-0.067022	NaN	0.000000	0.001557	0.001732	28.1226	0.044717	0.001969	22.7085	114.469	-167.67	-0.075280	0.168928	-0.893841	-0.895110	-0.067022	22.7085	-0.891628	-7.832844E+11	8.556587E-14	NaN
146	1.000000	0.178214	7.36647e+06	-45939.1	955.819	-29771.2	0.000000	0.000000	6.178821	0.065604	NaN	0.000000	0.001578	0.001755	28.1215	0.055912	0.001989	28.115	71.7767	-165.73	0.076529	0.176957	-0.885824	-0.887080	0.065604	28.115	-0.887574	-6.904338E+11	-9.501805E-14	NaN
146	1.000000	0.186202	7.36647e+06	-45939.1	955.819	-29771.2	0.000000	0.000000	6.186805	-0.024674	NaN	0.000000	0.001602	0.001744	28.123	0.066041	0.001918	34.4401	-89.325	-162.954	-0.083490	0.184954	-0.877836	-0.879084	-0.024674	34.4401	-0.877299	-5.013920E+11	4.921069E-14	NaN
146	1.000000	0.194201	7.36647e+06	-45939.1	955.819	-29771.2	0.000000	0.000000	6.194805	-0.026326	NaN	0.000000	0.001551	0.001744	28.1226	0.031546	0.002014	15.6598	91.4001	-163.199	-0.034007	0.192893	-0.869837	-0.871144	-0.026326	15.6598	-0.868576	-3.820992E+11	6.889943E-14	NaN
146	1.000000	0.202215	7.36647e+06	-45939.1	955.819	-29771.2	0.000000	0.000000	6.202818	-0.026972	NaN	0.000000	0.001539	0.001692	28.1228	0.091160	0.001914	47.6352	168.894	-163.965	-0.023237	0.200821	-0.861823	-0.863217	-0.026972	47.6352	-0.861398	-3.055238E+11	8.828096E-14	NaN
146	1.000000	0.210206	7.36647e+06	-45939.1	955.819	-29771.2	0.000000	0.000000	6.210811	0.008451	NaN	0.000000	0.001579	0.001730	28.1229	0.036735	0.002096	17.5289	171.86	-166.005	0.020136	0.208915	-0.853832	-0.855123	0.008451	17.5289	-0.854193	-2.440704E+11	-3.462438E-14	NaN
146	1.000000	0.218207	7.36647e+06	-45939.1	955.818	-29771.2	0.000000	0.000000	6.218810	-0.032060	NaN	0.000000	0.001603	0.001728	28.1235	0.036858	0.001871	19.6987	-167.916	-168.107	-0.021336	0.216869	-0.845831	-0.847169	-0.032060	19.6987	-0.844610	-1.810276E+11	1.770973E-13	NaN
146	1.000000	0.226220	7.36647e+06	-45939.1	955.819	-29771.2	0.000000	0.000000	6.226824	0.005368	NaN	0.000000	0.001548	0.001712	28.1223	0.054430	0.001972	27.5978	-164.204	-162.638	-0.052837	0.224916	-0.837818	-0.839122	0.005368	27.5978	-0.837964	-1.471330E+11	-3.648632E-14	NaN
146	1.000000	0.234232	7.36647e+06	-45939.1	955.818	-29771.2	0.000000	0.000000	6.234838	0.032342	NaN	0.000000	0.001587	0.001715	28.1225	0.034727	0.002009	17.2868	-157.202	-163.955	-0.002269	0.232936	-0.829805	-0.831102	0.032342	17.2868	-0.831209	-1.191698E+11	-2.713907E-13	NaN
146	1.000000	0.242241	7.36647e+06	-45939.1	955.819	-29771.2	0.000000	0.000000	6.242844	-0.038496	NaN	0.000000	0.001586	0.001737	28.1226	0.033491	0.002132	15.7087	-91.9454	-166.1	0.001020	0.240879	-0.821797	-0.823159	-0.038496	15.7087	-0.819959	-8.387999E+10	4.589387E-13	NaN
146	1.000000	0.250244	7.36647e+06	-45939.1	955.819	-29771.2	0.000000	0.000000	6.250849	0.014155	NaN	0.000000	0.001563	0.001746	28.1226	0.101465	0.001931	52.5506	77.6282	-163.845	-0.047850	0.248923	-0.813794	-0.815115	0.014155	52.5506	-0.813996	-6.962686E+10	-2.032914E-13	NaN
146	1.000000	0.258219	7.36647e+06	-45939.1	955.819	-29771.2	0.000000	0.000000	6.258823	-0.011377	NaN	0.000000	0.001569	0.001747	28.122	0.035368	0.002188	16.1649	37.791	-168.128	-0.141604	0.256976	-0.805819	-0.807062	-0.011377	16.1649	-0.805291	-5.304911E+10	2.144641E-13	NaN
146	1.000000	0.266210	7.36647e+06	-45939.1	955.819	-29771.2	0.000000	0.000000	6.266815	0.019619	NaN	0.000000	0.001562	0.001725	28.1233	0.019322	0.001997	9.673737	-65.5186	-169.047	-0.043787	0.264932	-0.797828	-0.799106	0.019619	9.673737	-0.799349	-4.405784E+10	-4.452929E-13	NaN
146	1.000000	0.274258	7.36647e+06	-45939.1	955.819	-29771.2	0.000000	0.000000	6.274862	-0.023420	NaN	0.000000	0.001559	0.001733	28.1238	0.043062	0.001829	23.5425	101.087	-165.097	0.019503	0.272952	-0.789780	-0.791086	-0.023420	23.5425	-0.789034	-3.191237E+10	7.338815E-13	NaN
146	1.000000	0.282251	7.36647e+06	-45939.1	955.819	-29771.2	0.000000	0.000000	6.282853	-0.054820	NaN	0.000000	0.001524	0.001719	28.1229	0.087263	0.001954	44.6687	-82.7338	-166.913	-0.025645	0.280929	-0.781787	-0.783108	-0.054820	44.6687	-0.780866	-2.471746E+10	2.217849E-12	NaN
146	1.000000	0.290248	7.36647e+06	-45939.1	955.818	-29771.2	0.000000	0.000000	6.290850	-0.052090	NaN	0.000000	0.001585	0.001719	28.1232	0.051878	0.002004	25.8887	-164.449	-164.448	-0.054405	0.288951	-0.773790	-0.775087	-0.052090	25.8887	-0.772281	-1.889377E+10	2.757004E-12	NaN
146	1.000000	0.298244	7.36647e+06	-45939.1	955.819	-29771.2	0.000000	0.000000	6.298850	0.021813	NaN	0.000000	0.001586	0.001714	28.1228	0.091239	0.001927	47.3379	-145.852	-164.924	0.016556	0.296868	-0.765793	-0.767169	0.021813	47.3379	-0.766139	-1.558843E+10	-1.399329E-12	NaN
146	1.000000	0.306243	7.36647e+06	-45939.1	955.819	-29771.2	0.000000	0.000000	6.306846	-0.041098	NaN	0.000000	0.001587	0.001725	28.1217	0.039609	0.002009	19.7165	-88.8915	-164.337	0.028345	0.304939	-0.757794	-0.759098	-0.041098	19.7165	-0.756231	-1.142936E+10	3.595813E-12	NaN
146	1.000000	0.314257	7.36647e+06	-45939.1	955.817	-29771.2	0.000000	0.000000	6.314859	-0.068367	NaN	0.000000	0.001589	0.001720	28.1219	0.027284	0.001977	13.8012	116.992	-165.792	-0.057826	0.312959	-0.749781	-0.751079	-0.068367	13.8012	-0.746066	-8.311094E+9	8.225963E-12	NaN
146	1.000000	0.322273	7.36647e+06	-45939.1	955.819	-29771.2	0.000000	0.000000	6.322881	0.081930	NaN	0.000000	0.001568	0.001723	28.1216	0.077759	0.001983	39.2218	-85.5164	-166.714	0.075877	0.320939	-0.741765	-0.743099	0.081930	39.2218	-0.743331	-7.628264E+9	-1.074026E-11	NaN
146	1.000000	0.330281	7.36647e+06	-45939.1	955.819	-29771.2	0.000000	0.000000	6.330887	0.030759	NaN	0.000000	0.001582	0.001703	28.122	0.165641	0.002108	78.5682	130.371	-164.307	-0.011865	0.328908	-0.733756	-0.735129	0.030759	78.5682	-0.734050	-5.701646E+9	-5.394689E-12	NaN
146	1.000000	0.338250	7.36647e+06	-45939.1	955.82	-29771.2	0.000000	0.000000	6.338851	-0.073284	NaN	0.000000	0.001539	0.001733	28.1217	0.037639	0.002067	18.2123	-37.0695	-164.04	0.021314	0.336973	-0.725788	-0.727065	-0.073284	18.2123	-0.722770	-4.001741E+9	1.831311E-11	NaN
146	1.000000	0.346235	7.36647e+06	-45939.1	955.818	-29771.2	0.000000	0.000000	6.346839	-0.004448	NaN	0.000000	0.001529	0.001739	28.1224	0.079685	0.001897	42.0106	163.648	-163.946	0.004849	0.344912	-0.717803	-0.719126	-0.004448	42.0106	-0.717723	-3.415260E+9	1.302294E-12	NaN
146	1.000000	0.354284	7.36647e+06	-45939.1	955.819	-29771.2	0.000000	0.000000	6.354887	-0.038330	NaN	0.000000	0.001533	0.001741	28.1217	0.013484	0.001922	7.016667	45.2796	-162.992	-0.058364	0.352955	-0.709754	-0.711083	-0.038330	7.016667	-0.705656	-2.337565E+9	1.639736E-11	NaN
146	1.000000	0.362307	7.36647e+06	-45939.1	955.818	-29771.2	0.000000	0.000000	6.362910	-0.049731	NaN	0.000000	0.001524	0.001717	28.1214	0.099045	0.002034	48.6955	178.306	-162.808	-0.031172	0.361021	-0.701731	-0.703017	-0.049731	48.6955	-0.700965	-2.016999E+9	2.465569E-11	NaN
146	1.000000	0.370251	7.36647e+06	-45939.1	955.818	-29771.2	0.000000	0.000000	6.370854	-0.039290	NaN	0.000000	0.001532	0.001694	28.1214	0.045201	0.002005	22.545	66.7133	-165.655	-0.049216	0.368968	-0.693786	-0.695070	-0.039290	22.545	-0.692479	-1.544536E+9	2.543830E-11	NaN
146	1.000000	0.378289	7.36647e+06	-45939.1	955.818	-29771.2	0.000000	0.000000	6.378894	0.001349	NaN	0.000000	0.001536	0.001705	28.1215	0.020884	0.002056	10.1593	120.411	-164.035	0.041452	0.376942	-0.685749	-0.687096	0.001349	10.1593	-0.685848	-1.253640E+9	-1.076285E-12	NaN
146	1.000000	0.386292	7.36647e+06	-45939.1	955.818	-29771.2	0.000000	0.000000	6.386897	0.029600	NaN	0.000000	0.001558	0.001709	28.1203	0.039854	0.001976	20.1644	-10.4262	-163.495	-0.030663	0.384938	-0.677746	-0.679100	0.029600	20.1644	-0.678847	-1.005631E+9	-2.943433E-11	NaN
146	1.000000	0.394284	7.36647e+06	-45939.1	955.819	-29771.2	0.000000	0.000000	6.394891	0.047865	NaN	0.000000	0.001518	0.001738	28.1207	0.017834	0.002110	8.451232	-5.518590	-168.053	0.010331	0.392954	-0.669754	-0.671083	0.047865	8.451232	-0.674001	-8.632705E+8	-5.544615E-11	NaN
146	1.000000	0.402333	7.36647e+06	-45939.1	955.819	-29771.2	0.000000	0.000000	6.402934	-0.074912	NaN	0.000000	0.001541	0.001685	28.1205	0.068656	0.002009	34.1741	54.105	-161.927	-0.007689	0.400996	-0.661705	-0.663042	-0.074912	34.1741	-0.660061	-5.562960E+8	1.346628E-10	NaN
146	1.000000	0.410290	7.36647e+06	-45939.1	955.819	-29771.2	0.000000	0.000000	6.410894	-0.010453	NaN	0.000000	0.001569	0.001727	28.1202	0.017053	0.001887	9.036699	178.786	-162.814	0.024165	0.408985	-0.653748	-0.655053	-0.010453	9.036699	-0.652881	-4.435275E+8	2.356801E-11	NaN
146	1.000000	0.418286	7.36647e+06	-45939.1	955.82	-29771.2	0.000000	0.000000	6.418891	-0.007842	NaN	0.000000	0.001596	0.001729	28.1208	0.100452	0.002046	49.0985	-16.2206	-165.789	-0.037534	0.416969	-0.645752	-0.647068	-0.007842	49.0985	-0.645632	-3.528108E+8	2.222859E-11	NaN
146	1.000000	0.426291	7.36647e+06	-45939.1	955.819	-29771.2	0.000000	0.000000	6.426897	0.032890	NaN	0.000000	0.001580	0.001681	28.1216	0.122964	0.001937	63.48	38.8529	-166.101	0.010839	0.424987	-0.637747	-0.639051	0.032890	63.48	-0.638135	-2.784200E+8	-1.181297E-10	NaN
146	1.000000	0.434311	7.36647e+06	-45939.1	955.819	-29771.2	0.000000	0.000000	6.434915	-0.020443	NaN	0.000000	0.001536	0.001741	28.1216	0.050606	0.001904	26.5848	104.258	-165.292	-0.059127	0.433000	-0.629726	-0.631038	-0.020443	26.5848	-0.629150	-2.095780E+8	9.754263E-11	NaN
146	1.000000	0.442284	7.36647e+06	-45939.1	955.818	-29771.2	0.000000	0.000000	6.442888	-0.008159	NaN	0.000000	0.001525	0.001702	28.1215	0.048179	0.001954	24.6551	-30.2176	-167.196	0.044471	0.440986	-0.621754	-0.623051	-0.008159	24.6551	-0.621506	-1.645612E+8	4.958200E-11	NaN
146	1.000000	0.450343	7.36647e+06	-45939.1	955.818	-29771.2	0.000000	0.000000	6.450948	0.017306	NaN	0.000000	0.001564	0.001742	28.1213	0.097947	0.001888	51.8663	-41.5628	-166.793	0.034685	0.448986	-0.613695	-0.615052	0.017306	51.8663	-0.613945	-1.295344E+8	-1.336023E-10	NaN
146	1.000000	0.458312	7.36647e+06	-45939.1	955.818	-29771.2	0.000000	0.000000	6.458919	0.050871	NaN	0.000000	0.001542	0.001744	28.1217	0.084429	0.002041	41.3568	140.601	-160.474	0.048876	0.457027	-0.605725	-0.607011	0.050871	41.3568	-0.606648	-1.027984E+8	-4.948658E-10	NaN
146	1.000000	0.466326	7.36647e+06	-45939.1	955.817	-29771.2	0.000000	0.000000	6.466931	0.005767	NaN	0.000000	0.001555	0.001694	28.1201	0.130125	0.001962	66.333	96.1097	-167.204	-0.003947	0.465020	-0.597712	-0.599018	0.005767	66.333	-0.597777	-7.759711E+7	-7.431722E-11	NaN
146	1.000000	0.474304	7.36647e+06	-45939.1	955.818	-29771.2	0.000000	0.000000	6.474909	0.009517	NaN	0.000000	0.001582	0.001758	28.1206	0.042384	0.001955	21.6802	-97.7835	-166.284	-0.000300	0.473004	-0.589734	-0.591034	0.009517	21.6802	-0.590063	-6.074923E+7	-1.566535E-10	NaN
146	1.000000	0.482318	7.36647e+06	-45939.1	955.819	-29771.2	0.000000	0.000000	6.482924	0.035553	NaN	0.000000	0.001572	0.001698	28.1205	0.055063	0.002118	25.9948	1.749439	-167.18	-0.029474	0.481017	-0.581720	-0.583021	0.035553	25.9948	-0.582745	-4.815164E+7	-7.383630E-10	NaN
146	1.000000	0.490325	7.36647e+06	-45939.1	955.819	-29771.2	0.000000	0.000000	6.490931	0.049105	NaN	0.000000	0.001614	0.001731	28.1211	0.026820	0.002023	13.2605	-78.7214	-167.597	0.050483	0.489091	-0.573713	-0.574947	0.049105	13.2605	-0.576490	-3.947085E+7	-1.244074E-9	NaN
146	1.000000	0.498342	7.36647e+06	-45939.1	955.818	-29771.2	0.000000	0.000000	6.498944	-0.051055	NaN	0.000000	0.001604	0.001750	28.1213	0.038285	0.001818	21.0584	30.6682	-163.342	-0.050376	0.497015	-0.565696	-0.567023	-0.051055	21.0584	-0.563878	-2.642449E+7	1.932119E-9	NaN
146	1.000000	0.506338	7.36647e+06	-45939.1	955.819	-29771.2	0.000000	0.000000	6.506943	0.001328	NaN	0.000000	0.001548	0.001764	28.1218	0.088624	0.001938	45.7345	-81.4712	-164.736	0.034030	0.505016	-0.557699	-0.559022	0.001328	45.7345	-0.557721	-2.171938E+7	-6.114332E-11	NaN
146	1.000000	0.514323	7.36647e+06	-45939.1	955.819	-29771.2	0.000000	0.000000	6.514929	0.020726	NaN	0.000000	0.001550	0.001757	28.1223	0.030671	0.002051	14.9573	-178.931	-163.387	-0.002000	0.513019	-0.549715	-0.551019	0.020726	14.9573	-0.550754	-1.739387E+7	-1.191550E-9	NaN
146	1.000000	0.522350	7.36647e+06	-45939.1	955.818	-29771.2	0.000000	0.000000	6.522955	0.004713	NaN	0.000000	0.001529	0.001748	28.122	0.063005	0.002011	31.3247	14.4819	-166.653	-0.004643	0.521053	-0.541687	-0.542984	0.004713	31.3247	-0.541800	-1.307142E+7	-3.605616E-10	NaN
146	1.000000	0.530354	7.36647e+06	-45939.1	955.818	-29771.2	0.000000	0.000000	6.530957	-0.035179	NaN	0.000000	0.001527	0.001773	28.122	0.073803	0.001944	37.9628	88.9278	-164.546	-0.015499	0.529043	-0.533684	-0.534995	-0.035179	37.9628	-0.532989	-9.86443e+06	3.566251E-9	NaN
146	1.000000	0.538358	7.36647e+06	-45939.1	955.818	-29771.2	0.000000	0.000000	6.538959	-0.076757	NaN	0.000000	0.001518	0.001778	28.1218	0.043744	0.002070	21.129	53.7947	-162.466	-0.000145	0.537005	-0.525680	-0.527033	-0.076757	21.129	-0.522956	-7.15638e+06	1.072570E-8	NaN
146	1.000000	0.546357	7.36647e+06	-45939.1	955.818	-29771.2	0.000000	0.000000	6.546964	0.062716	NaN	0.000000	0.001542	0.001746	28.121	0.099227	0.001912	51.889	56.1941	-171.105	0.067408	0.545050	-0.517681	-0.518988	0.062716	51.889	-0.518587	-6.22228e+06	-1.007922E-8	NaN
146	1.000000	0.554368	7.36647e+06	-45939.1	955.818	-29771.2	0.000000	0.000000	6.554974	0.040931	NaN	0.000000	0.001540	0.001754	28.1213	0.137511	0.001930	71.2421	-121.426	-163.731	0.031307	0.553025	-0.509670	-0.511012	0.040931	71.2421	-0.510101	-4.74045e+06	-8.634354E-9	NaN
146	1.000000	0.562368	7.36647e+06	-45939.1	955.819	-29771.2	0.000000	0.000000	6.562971	-0.034796	NaN	0.000000	0.001549	0.001752	28.1208	0.111487	0.002067	53.9487	124.192	-159.413	-0.015499	0.561061	-0.501670	-0.502976	-0.034796	53.9487	-0.501186	-3.56096e+06	9.771464E-9	NaN
146	1.000000	0.570362	7.36647e+06	-45939.1	955.818	-29771.2	0.000000	0.000000	6.570970	0.069783	NaN	0.000000	0.001542	0.001755	28.1205	0.063886	0.001970	32.4253	-120.401	-167.573	0.037637	0.569064	-0.493675	-0.494974	0.069783	32.4253	-0.495289	-2.9463e+06	-2.368494E-8	NaN
146	1.000000	0.578410	7.36647e+06	-45939.1	955.818	-29771.2	0.000000	0.000000	6.579013	-0.037071	NaN	0.000000	0.001548	0.001735	28.1206	0.067254	0.001975	34.0522	-157.077	-164.966	0.020335	0.577074	-0.485628	-0.486963	-0.037071	34.0522	-0.484812	-2.10308e+06	1.762698E-8	NaN
146	1.000000	0.586376	7.36647e+06	-45939.1	955.818	-29771.2	0.000000	0.000000	6.586977	-0.082119	NaN	0.000000	0.001566	0.001752	28.1216	0.054991	0.001969	27.9266	-105.501	-165.525	-0.012356	0.585014	-0.477662	-0.479023	-0.082119	27.9266	-0.475456	-1.55559e+06	5.278957E-8	NaN
146	1.000000	0.594334	7.36647e+06	-45939.1	955.819	-29771.2	0.000000	0.000000	6.594940	0.030966	NaN	0.000000	0.001570	0.001766	28.1217	0.064354	0.002022	31.832	-86.6051	-168.184	0.038415	0.593042	-0.469704	-0.470996	0.030966	31.832	-0.470434	-1.32278e+06	-2.341013E-8	NaN
146	1.000000	0.602370	7.36647e+06	-45939.1	955.819	-29771.2	0.000000	0.000000	6.602972	-0.052489	NaN	0.000000	0.001552	0.001738	28.1217	0.063420	0.001928	32.8894	-158.328	-164.709	-0.010088	0.601041	-0.461668	-0.462997	-0.052489	32.8894	-0.460471	-958602	5.475527E-8	NaN
146	1.000000	0.610371	7.36647e+06	-45939.1	955.818	-29771.2	0.000000	0.000000	6.610976	-0.000956	NaN	0.000000	0.001558	0.001735	28.1214	0.077414	0.002085	37.1238	168.186	-167.22	0.003769	0.609064	-0.453667	-0.454974	-0.000956	37.1238	-0.453647	-768573	1.243363E-9	NaN
146	1.000000	0.618355	7.36647e+06	-45939.1	955.819	-29771.2	0.000000	0.000000	6.618958	-0.031146	NaN	0.000000	0.001528	0.001769	28.1216	0.100421	0.002122	47.3336	-127.184	-165.875	0.029998	0.617054	-0.445683	-0.446983	-0.031146	47.3336	-0.445190	-584205	5.331349E-8	NaN
146	1.000000	0.626361	7.36647e+06	-45939.1	955.819	-29771.2	0.000000	0.000000	6.626965	-0.026006	NaN	0.000000	0.001551	0.001776	28.1193	0.038595	0.001987	19.4216	-171.111	-164.693	-0.083225	0.625107	-0.437676	-0.438931	-0.026006	19.4216	-0.436672	-442972	5.870707E-8	NaN
146	1.000000	0.634395	7.36647e+06	-45939.1	955.818	-29771.2	0.000000	0.000000	6.634998	-0.035624	NaN	0.000000	0.001552	0.001746	28.1195	0.071034	0.002050	34.6483	-10.8079	-166.819	-0.060897	0.633095	-0.429643	-0.430942	-0.035624	34.6483	-0.428872	-343637	1.036675E-7	NaN
146	1.000000	0.642373	7.36647e+06	-45939.1	955.819	-29771.2	0.000000	0.000000	6.642979	0.037458	NaN	0.000000	0.001527	0.001728	28.1194	0.081578	0.002023	40.3271	-5.477150	-166.493	-0.057586	0.641095	-0.421665	-0.422942	0.037458	40.3271	-0.422362	-277908	-1.347870E-7	NaN
146	1.000000	0.650418	7.36647e+06	-45939.1	955.818	-29771.2	0.000000	0.000000	6.651024	0.020455	NaN	0.000000	0.001550	0.001692	28.1188	0.060208	0.002127	28.3083	158.886	-166.497	-0.004541	0.649071	-0.413620	-0.414966	0.020455	28.3083	-0.414161	-212591	-9.621781E-8	NaN
146	1.000000	0.658383	7.36647e+06	-45939.1	955.818	-29771.2	0.000000	0.000000	6.658986	-0.027165	NaN	0.000000	0.001604	0.001728	28.1188	0.068899	0.001994	34.5512	10.6196	-169.387	-0.027390	0.657065	-0.405655	-0.406973	-0.027165	34.5512	-0.405065	-157825	1.721192E-7	NaN
146	1.000000	0.666428	7.36647e+06	-45939.1	955.818	-29771.2	0.000000	0.000000	6.667034	0.042308	NaN	0.000000	0.001546	0.001713	28.1204	0.025534	0.002002	12.7526	-20.6824	-165.404	-0.016247	0.665058	-0.397610	-0.398979	0.042308	12.7526	-0.400098	-134088	-3.155209E-7	NaN
146	1.000000	0.674427	7.36647e+06	-45939.1	955.819	-29771.2	0.000000	0.000000	6.675030	-0.031781	NaN	0.000000	0.001538	0.001700	28.1203	0.168446	0.002072	81.2901	-176.291	-165.671	-0.064227	0.673095	-0.389611	-0.390943	-0.031781	81.2901	-0.389318	-94060.6	3.378755E-7	NaN
146	1.000000	0.682410	7.36647e+06	-45939.1	955.819	-29771.2	0.000000	0.000000	6.683014	-0.028885	NaN	0.000000	0.001524	0.001732	28.1201	0.072752	0.001980	36.748	-141.693	-161.558	0.024454	0.681015	-0.381627	-0.383022	-0.028885	36.748	-0.381038	-71578.6	4.035384E-7	NaN
146	1.000000	0.690407	7.36647e+06	-45939.1	955.818	-29771.2	0.000000	0.000000	6.691012	0.010869	NaN	0.000000	0.001564	0.001710	28.1203	0.075107	0.001984	37.8485	-150.842	-164.475	-0.035183	0.689141	-0.373631	-0.374897	0.010869	37.8485	-0.373846	-56426.4	-1.926300E-7	NaN
146	1.000000	0.698428	7.36647e+06	-45939.1	955.818	-29771.2	0.000000	0.000000	6.699033	0.007470	NaN	0.000000	0.001539	0.001736	28.1199	0.131255	0.001893	69.3494	109.957	-165.1	-0.051514	0.697152	-0.365610	-0.366886	0.007470	69.3494	-0.365691	-43054.3	-1.734977E-7	NaN
146	1.000000	0.706454	7.36647e+06	-45939.1	955.819	-29771.2	0.000000	0.000000	6.707058	-0.003939	NaN	0.000000	0.001560	0.001707	28.1185	0.022361	0.002002	11.1712	122.283	-165.851	0.049196	0.705130	-0.357584	-0.358908	-0.003939	11.1712	-0.357319	-32589.4	1.208585E-7	NaN
146	1.000000	0.714416	7.36647e+06	-45939.1	955.818	-29771.2	0.000000	0.000000	6.715020	-0.026882	NaN	0.000000	0.001549	0.001713	28.1187	0.021983	0.002125	10.3434	-15.0542	-165.724	-0.064671	0.713113	-0.349622	-0.350925	-0.026882	10.3434	-0.347673	-23616	1.138290E-6	NaN
146	1.000000	0.722421	7.36647e+06	-45939.1	955.819	-29771.2	0.000000	0.000000	6.723026	-0.006796	NaN	0.000000	0.001561	0.001746	28.1194	0.086522	0.002015	42.932	92.3654	-167.036	-0.058156	0.721115	-0.341616	-0.342923	-0.006796	42.932	-0.341498	-19203.4	3.539128E-7	NaN
146	1.000000	0.730458	7.36647e+06	-45939.1	955.819	-29771.2	0.000000	0.000000	6.731061	-0.040409	NaN	0.000000	0.001574	0.001747	28.1188	0.021923	0.001896	11.5654	-170.876	-163.761	-0.079851	0.729131	-0.333579	-0.334907	-0.040409	11.5654	-0.330959	-13473.9	2.999078E-6	NaN
146	1.000000	0.738424	7.36647e+06	-45939.1	955.818	-29771.2	0.000000	0.000000	6.739027	-0.028474	NaN	0.000000	0.001571	0.001727	28.119	0.052721	0.001976	26.6847	43.1093	-165.517	-0.103906	0.737164	-0.325614	-0.326874	-0.028474	26.6847	-0.324814	-10949.7	2.600443E-6	NaN
146	1.000000	0.746430	7.36647e+06	-45939.1	955.818	-29771.2	0.000000	0.000000	6.747032	-0.072895	NaN	0.000000	0.001582	0.001776	28.1199	0.058600	0.001981	29.5739	154.37	-163.767	-0.098876	0.745145	-0.317608	-0.318893	-0.072895	29.5739	-0.315759	-8056.57	9.047914E-6	NaN
146	1.000000	0.754435	7.36647e+06	-45939.1	955.818	-29771.2	0.000000	0.000000	6.755039	-0.023366	NaN	0.000000	0.001568	0.001751	28.1199	0.034057	0.002103	16.1948	-155.815	-167.766	-0.031055	0.753149	-0.309603	-0.310889	-0.023366	16.1948	-0.308521	-6297.32	3.710423E-6	NaN
146	1.000000	0.762444	7.36647e+06	-45939.1	955.818	-29771.2	0.000000	0.000000	6.763049	-0.002802	NaN	0.000000	0.001586	0.001729	28.1213	0.065834	0.002135	30.8421	-59.6429	-164.505	0.009606	0.761153	-0.301593	-0.302884	-0.002802	30.8421	-0.301525	-4958.26	5.651757E-7	NaN
146	1.000000	0.770432	7.36647e+06	-45939.1	955.818	-29771.2	0.000000	0.000000	6.771036	-0.028573	NaN	0.000000	0.001548	0.001737	28.1209	0.115306	0.002027	56.8964	128.085	-163.319	-0.004082	0.769166	-0.293605	-0.294871	-0.028573	56.8964	-0.293229	-3729.26	7.661787E-6	NaN
146	1.000000	0.778472	7.36647e+06	-45939.1	955.818	-29771.2	0.000000	0.000000	6.779075	-0.046338	NaN	0.000000	0.001554	0.001734	28.1206	0.037611	0.002022	18.6011	-134.013	-167.641	-0.040383	0.777147	-0.285566	-0.286890	-0.046338	18.6011	-0.283697	-2683.35	1.726858E-5	NaN
146	1.000000	0.786426	7.36647e+06	-45939.1	955.818	-29771.2	0.000000	0.000000	6.787031	0.010956	NaN	0.000000	0.001604	0.001758	28.1201	0.039637	0.001944	20.3911	74.1795	-164.639	0.050639	0.785109	-0.277612	-0.278929	0.010956	20.3911	-0.278015	-2202.95	-4.973283E-6	NaN
146	1.000000	0.794464	7.36647e+06	-45939.1	955.818	-29771.2	0.000000	0.000000	6.795069	0.001634	NaN	0.000000	0.001552	0.001732	28.1198	0.145582	0.002071	70.3109	-176.797	-166.973	-0.063285	0.793128	-0.269574	-0.270910	0.001634	70.3109	-0.269591	-1641.82	-9.951229E-7	NaN
146	1.000000	0.802482	7.36647e+06	-45939.1	955.818	-29771.2	0.000000	0.000000	6.803086	-0.029959	NaN	0.000000	0.001567	0.001749	28.1195	0.147952	0.001950	75.8802	117.683	-163.007	-0.071365	0.801154	-0.261555	-0.262884	-0.029959	75.8802	-0.261259	-1225.2	2.445253E-5	NaN
146	1.000000	0.810479	7.36647e+06	-45939.1	955.817	-29771.2	0.000000	0.000000	6.811081	-0.047147	NaN	0.000000	0.001534	0.001712	28.1199	0.022778	0.002030	11.2187	-36.3549	-164.665	0.032192	0.809127	-0.253559	-0.254910	-0.047147	11.2187	-0.250407	-834.184	5.651839E-5	NaN
146	1.000000	0.818464	7.36647e+06	-45939.1	955.819	-29771.2	0.000000	0.000000	6.819071	0.057117	NaN	0.000000	0.001556	0.001681	28.1198	0.037897	0.002033	18.6422	-61.9446	-164.045	0.088715	0.817139	-0.245574	-0.246899	0.057117	18.6422	-0.247871	-762.103	-7.494636E-5	NaN
146	1.000000	0.826463	7.36647e+06	-45939.1	955.818	-29771.2	0.000000	0.000000	6.827065	-0.063052	NaN	0.000000	0.001564	0.001732	28.1213	0.040328	0.001994	20.2268	96.8232	-166.594	0.045431	0.825165	-0.237575	-0.238873	-0.063052	20.2268	-0.235237	-484.143	0.000130	NaN
146	1.000000	0.834463	7.36647e+06	-45939.1	955.819	-29771.2	0.000000	0.000000	6.835067	-0.023694	NaN	0.000000	0.001580	0.001748	28.1209	0.117775	0.002004	58.7656	-47.928	-165.478	-0.026852	0.833120	-0.229574	-0.230917	-0.023694	58.7656	-0.229272	-389.956	6.076046E-5	NaN
146	1.000000	0.842463	7.36647e+06	-45939.1	955.818	-29771.2	0.000000	0.000000	6.843069	0.034184	NaN	0.000000	0.001533	0.001716	28.1213	0.082385	0.001881	43.8024	-151.736	-165.431	0.054715	0.841165	-0.221574	-0.222873	0.034184	43.8024	-0.222160	-300.707	-0.000114	NaN
146	1.000000	0.850498	7.36647e+06	-45939.1	955.818	-29771.2	0.000000	0.000000	6.851100	-0.048826	NaN	0.000000	0.001525	0.001719	28.1206	0.014354	0.002014	7.127154	-143.562	-166.351	-0.083989	0.849206	-0.213540	-0.214831	-0.048826	7.127154	-0.208402	-180.68	0.000270	NaN
146	1.000000	0.858482	7.36647e+06	-45939.1	955.818	-29771.2	0.000000	0.000000	6.859084	-0.073619	NaN	0.000000	0.001568	0.001722	28.1203	0.041159	0.002015	20.4236	-98.5343	-164.149	-0.056217	0.857220	-0.205556	-0.206818	-0.073619	20.4236	-0.202852	-146.713	0.000502	NaN
146	1.000000	0.866475	7.36647e+06	-45939.1	955.819	-29771.2	0.000000	0.000000	6.867080	-0.008984	NaN	0.000000	0.001520	0.001729	28.1191	0.018721	0.002053	9.117672	170.216	-164.078	0.006313	0.865204	-0.197562	-0.198834	-0.008984	9.117672	-0.196823	-116.779	7.693304E-5	NaN
146	1.000000	0.874451	7.36647e+06	-45939.1	955.82	-29771.2	0.000000	0.000000	6.875055	-0.008486	NaN	0.000000	0.001559	0.001714	28.1194	0.095839	0.002006	47.784	-4.183224	-166.642	-0.026126	0.873244	-0.189587	-0.190793	-0.008486	47.784	-0.189453	-88.0834	9.633793E-5	NaN
146	1.000000	0.882495	7.36647e+06	-45939.1	955.818	-29771.2	0.000000	0.000000	6.883098	-0.044148	NaN	0.000000	0.001578	0.001730	28.1193	0.031792	0.002038	15.6013	175.202	-163.841	-0.057935	0.881208	-0.181542	-0.182830	-0.044148	15.6013	-0.179420	-59.6476	0.000740	NaN
146	1.000000	0.890481	7.36647e+06	-45939.1	955.818	-29771.2	0.000000	0.000000	6.891083	-0.075915	NaN	0.000000	0.001550	0.001710	28.1194	0.115244	0.002069	55.704	-5.519382	-160.973	-0.070135	0.889215	-0.173556	-0.174823	-0.075915	55.704	-0.172534	-45.4467	0.001670	NaN
146	1.000000	0.898497	7.36647e+06	-45939.1	955.819	-29771.2	0.000000	0.000000	6.899101	-0.014715	NaN	0.000000	0.001522	0.001745	28.118	0.016110	0.002022	7.968430	-175.137	-166.883	0.008310	0.897187	-0.165540	-0.166851	-0.014715	7.968430	-0.164155	-32.4683	0.000453	NaN
146	1.000000	0.906509	7.36647e+06	-45939.1	955.818	-29771.2	0.000000	0.000000	6.907113	-0.007365	NaN	0.000000	0.001537	0.001710	28.1197	0.170365	0.001958	86.9907	106.436	-165.358	0.010868	0.905161	-0.157529	-0.158877	-0.007365	86.9907	-0.157465	-24.7059	0.000298	NaN
146	1.000000	0.914494	7.36647e+06	-45939.1	955.818	-29771.2	0.000000	0.000000	6.915098	-0.020373	NaN	0.000000	0.001557	0.001738	28.1194	0.061986	0.001772	34.9798	-147.899	-164.433	-0.073193	0.913198	-0.149544	-0.150839	-0.020373	34.9798	-0.149107	-17.4461	0.001168	NaN
146	1.000000	0.922501	7.36647e+06	-45939.1	955.819	-29771.2	0.000000	0.000000	6.923103	-0.054191	NaN	0.000000	0.001575	0.001724	28.1183	0.084989	0.002128	39.9311	-122.7	-163.773	-0.072552	0.921182	-0.141537	-0.142856	-0.054191	39.9311	-0.140519	-12.0979	0.004479	NaN
146	1.000000	0.930485	7.36647e+06	-45939.1	955.819	-29771.2	0.000000	0.000000	6.931089	-0.024586	NaN	0.000000	0.001537	0.001763	28.1183	0.022432	0.002030	11.0488	-34.3658	-162.946	0.020785	0.929208	-0.133552	-0.134830	-0.024586	11.0488	-0.131883	-8.288476	0.002966	NaN
146	1.000000	0.938496	7.36647e+06	-45939.1	955.818	-29771.2	0.000000	0.000000	6.939099	-0.045271	NaN	0.000000	0.001539	0.001752	28.1193	0.084055	0.002063	40.7509	151.544	-167.288	-0.043902	0.937189	-0.125542	-0.126849	-0.045271	40.7509	-0.124709	-6.001047	0.007544	NaN
146	1.000000	0.946523	7.36647e+06	-45939.1	955.819	-29771.2	0.000000	0.000000	6.947126	-0.054186	NaN	0.000000	0.001582	0.001746	28.118	0.063784	0.001994	31.9902	-172.321	-165.79	-0.010871	0.945172	-0.117515	-0.118866	-0.054186	31.9902	-0.116244	-4.052147	0.013372	NaN
146	1.000000	0.954524	7.36647e+06	-45939.1	955.818	-29771.2	0.000000	0.000000	6.955127	-0.035690	NaN	0.000000	0.001531	0.001712	28.1179	0.120705	0.001938	62.2954	-165.806	-166.236	-0.035372	0.953224	-0.109514	-0.110814	-0.035690	62.2954	-0.109084	-2.874195	0.012417	NaN
146	1.000000	0.962515	7.36647e+06	-45939.1	955.818	-29771.2	0.000000	0.000000	6.963121	0.044565	NaN	0.000000	0.001558	0.001763	28.1184	0.009335	0.001965	4.751719	-48.4755	-166.108	0.044504	0.961199	-0.101523	-0.102839	0.044565	4.751719	-0.108557	-2.801181	-0.015909	NaN
146	1.000000	0.970556	7.36647e+06	-45939.1	955.817	-29771.2	0.000000	0.000000	6.971159	-0.018177	NaN	0.000000	0.001571	0.001765	28.1176	0.045348	0.002068	21.9276	118.285	-163.11	-0.014637	0.969195	-0.093482	-0.094843	-0.018177	21.9276	-0.092860	-1.259981	0.014426	NaN
146	1.000000	0.978539	7.36647e+06	-45939.1	955.817	-29771.2	0.000000	0.000000	6.979142	-0.024786	NaN	0.000000	0.001546	0.001711	28.1178	0.062604	0.001909	32.7882	-67.2365	-164.323	0.043386	0.977208	-0.085499	-0.086830	-0.024786	32.7882	-0.084932	-0.818532	0.030281	NaN
146	1.000000	0.986539	7.36647e+06	-45939.1	955.815	-29771.2	0.000000	0.000000	6.987142	-0.021177	NaN	0.000000	0.001536	0.001747	28.1192	0.048354	0.001892	25.5548	-29.5827	-162.904	-0.008960	0.985200	-0.077499	-0.078838	-0.021177	25.5548	-0.076878	-0.516156	0.041029	NaN
146	1.000000	0.994540	7.36647e+06	-45939.1	955.815	-29771.2	0.000000	0.000000	6.995144	-0.011458	NaN	0.000000	0.001540	0.001717	28.1186	0.086437	0.001996	43.3077	-98.3167	-166.459	0.004528	0.993187	-0.069498	-0.070850	-0.011458	43.3077	-0.069299	-0.326640	0.035079	NaN
146	1.000000	1.002539	7.36647e+06	-45939.1	955.816	-29771.2	0.000000	0.000000	7.003141	-0.060980	NaN	0.000000	0.001540	0.001695	28.1186	0.074372	0.001829	40.657	116.316	-167.528	-0.024254	1.001214	-0.061499	-0.062824	-0.060980	40.657	-0.060374	-0.184592	0.330348	NaN
146	1.000000	1.010565	7.36647e+06	-45939.1	955.815	-29771.2	0.000000	0.000000	7.011171	0.040190	NaN	0.000000	0.001615	0.001684	28.1186	0.049679	0.001939	25.6147	54.6999	-158.715	0.023151	1.009229	-0.053473	-0.054809	0.040190	25.6147	-0.054650	-0.125741	-0.319629	NaN
146	1.000000	1.018559	7.36647e+06	-45939.1	955.815	-29771.2	0.000000	0.000000	7.019163	-0.008925	NaN	0.000000	0.001594	0.001651	28.1189	0.170867	0.001890	90.3919	-64.7864	-165.256	0.004827	1.017264	-0.045479	-0.046774	-0.008925	90.3919	-0.045405	-0.066126	0.134977	NaN
146	1.000000	1.026558	7.36647e+06	-45939.1	955.816	-29771.2	0.000000	0.000000	7.027160	-0.051689	NaN	0.000000	0.001598	0.001652	28.1181	0.050917	0.002048	24.8662	26.8793	-166.8	-0.060375	1.025242	-0.037480	-0.038796	-0.051689	24.8662	-0.035921	-0.034097	1.515944	NaN
146	1.000000	1.034576	7.36647e+06	-45939.1	955.815	-29771.2	0.000000	0.000000	7.035182	0.015429	NaN	0.000000	0.001580	0.001706	28.118	0.066844	0.001983	33.7139	130.127	-163.873	-0.009057	1.033230	-0.029461	-0.030808	0.015429	33.7139	-0.029805	-0.022727	-0.678878	NaN
146	1.000000	1.042544	7.36647e+06	-45939.1	955.816	-29771.2	0.000000	0.000000	7.043148	-0.023615	NaN	0.000000	0.001502	0.001721	28.1179	0.079702	0.002038	39.1152	5.074525	-162.929	-0.086284	1.041277	-0.021493	-0.022761	-0.023615	39.1152	-0.021041	-0.013350	1.768955	NaN
146	1.000000	1.050550	7.36647e+06	-45939.1	955.816	-29771.2	0.000000	0.000000	7.051154	-0.004337	NaN	0.000000	0.001550	0.001679	28.1185	0.048161	0.002017	23.8762	151.917	-163.643	0.020203	1.049205	-0.013488	-0.014832	-0.004337	23.8762	-0.013352	-0.008306	0.522156	NaN
146	1.000000	1.058559	7.36647e+06	-45939.1	955.815	-29771.2	0.000000	0.000000	7.059165	0.044378	NaN	0.000000	0.001569	0.001688	28.1187	0.086454	0.001998	43.2618	-93.8099	-165.614	0.033695	1.057250	-0.005479	-0.006788	0.044378	43.2618	-0.006248	-0.004188	-10.5971	NaN
146	1.000000	1.066549	7.36647e+06	-45939.1	955.815	-29771.2	0.000000	0.000000	7.067185	0.767464	NaN	0.000000	0.001563	0.001676	28.12	1.208244	0.002118	570.472	14.0554	-163.528	0.188278	1.065281	0.002511	0.001243	0.767464	570.472	0.001502	0.001156	663.747	15327.8
146	2.000000	1.074045	7.36647e+06	-45939.1	955.815	-29771.2	0.000000	0.000000	7.074983	8.103855	NaN	0.000000	0.001578	0.001667	28.1191	8.083906	0.001766	4577.88	11.8007	-171.444	7.465400	1.073122	0.010007	0.009085	8.103855	4577.88	0.008680	0.007751	1045.58	47508.3
146	2.000000	1.076190	7.36647e+06	-45939.1	955.816	-29771.2	0.000000	0.000000	7.077236	10.7133	NaN	0.000000	0.001581	0.001693	28.1196	10.8224	0.001617	6691.17	3.987965	-171.595	9.645134	1.075943	0.012153	0.011905	10.7133	6691.17	0.010952	0.010259	1044.32	60357.3
146	2.000000	1.078188	7.36647e+06	-45939.1	955.815	-29771.2	0.000000	0.000000	7.079382	14.3279	NaN	0.000000	0.001547	0.001647	28.1195	12.1377	0.001642	7392.99	2.369072	-168.172	13.8363	1.077837	0.014151	0.013799	14.3279	7392.99	0.012697	0.012336	1161.49	60814.9
146	2.000000	1.080158	7.36647e+06	-45939.1	955.816	-29771.2	0.000000	0.000000	7.081429	16.1918	NaN	0.000000	0.001552	0.001637	28.1196	15.1189	0.001715	8814.49	7.327683	-174.991	16.6101	1.079922	0.016121	0.015885	16.1918	8814.49	0.014743	0.014944	1083.49	65877.2
146	2.000000	1.082210	7.36647e+06	-45939.1	955.815	-29771.2	0.000000	0.000000	7.083720	22.028	NaN	0.000000	0.001566	0.001674	28.1185	17.5212	0.001665	10525.6	7.607532	-176.316	22.4108	1.081809	0.018172	0.017772	22.028	10525.6	0.016603	0.017482	1260.03	72731.9
146	2.000000	1.084105	7.36647e+06	-45939.1	955.816	-29771.2	0.000000	0.000000	7.085766	25.7145	NaN	0.000000	0.001596	0.001649	28.1183	19.7199	0.001607	12268	4.863673	-177.044	24.3187	1.083770	0.020067	0.019732	25.7145	12268	0.018495	0.020232	1270.98	78799.9
146	2.000000	1.086158	7.36647e+06	-45939.1	955.814	-29771.2	0.000000	0.000000	7.087949	28.8691	NaN	0.000000	0.001582	0.001658	28.1185	22.1908	0.001736	12784.5	6.215684	-177.782	28.6579	1.085805	0.022120	0.021767	28.8691	12784.5	0.020426	0.023216	1243.48	76658.5
146	2.000000	1.088103	7.36647e+06	-45939.1	955.815	-29771.2	0.000000	0.000000	7.090179	35.7889	NaN	0.000000	0.001576	0.001725	28.1183	23.8426	0.001788	13337.4	5.396002	-177.027	34.1633	1.087821	0.024066	0.023783	35.7889	13337.4	0.022053	0.025872	1383.32	75758.6
146	2.000000	1.090115	7.36647e+06	-45939.1	955.814	-29771.2	0.000000	0.000000	7.092385	40.4947	NaN	0.000000	0.001590	0.001718	28.1179	26.6997	0.001883	14178.7	4.245602	-176.429	38.7331	1.089828	0.026078	0.025790	40.4947	14178.7	0.023936	0.029108	1391.2	75928.6
146	2.000000	1.092118	7.36647e+06	-45939.1	955.814	-29771.2	0.000000	0.000000	7.094662	47.1769	NaN	0.000000	0.001602	0.001707	28.1183	28.3951	0.001764	16100.8	5.016358	-178.179	45.7639	1.091789	0.028081	0.027752	47.1769	16100.8	0.025883	0.032642	1445.3	81420.6
146	2.000000	1.094085	7.36647e+06	-45939.1	955.814	-29771.2	0.000000	0.000000	7.096965	55.3561	NaN	0.000000	0.001599	0.001710	28.119	29.6644	0.001735	17097.2	4.200145	-177.7	54.4295	1.093818	0.030047	0.029780	55.3561	17097.2	0.027619	0.035953	1539.68	82381.9
146	2.000000	1.096106	7.36647e+06	-45939.1	955.814	-29771.2	0.000000	0.000000	7.099082	57.68	NaN	0.000000	0.001620	0.001703	28.1192	32.8437	0.001813	18114.1	2.374081	-176.417	56.8835	1.095757	0.032068	0.031719	57.68	18114.1	0.029680	0.040083	1439.02	82662.9
146	2.000000	1.098094	7.36647e+06	-45939.1	955.814	-29771.2	0.000000	0.000000	7.101447	66.8525	NaN	0.000000	0.001584	0.001736	28.1177	33.9416	0.001780	19072.4	5.627315	179.609	65.6528	1.097733	0.034057	0.033696	66.8525	19072.4	0.031428	0.043755	1527.89	83303.7
146	2.000000	1.100056	7.36647e+06	-45939.1	955.814	-29771.2	0.000000	0.000000	7.103839	77.3191	NaN	0.000000	0.001610	0.001720	28.1176	36.6995	0.001817	20195.9	10.4178	174.532	75.3555	1.099734	0.036018	0.035697	77.3191	20195.9	0.033146	0.047518	1627.16	84646.1
146	2.000000	1.102116	7.36647e+06	-45939.1	955.814	-29771.2	0.000000	0.000000	7.106141	83.2228	NaN	0.000000	0.001587	0.001738	28.1166	37.4782	0.001740	21533.7	4.249176	-179.865	84.0885	1.101857	0.038078	0.037819	83.2228	21533.7	0.035179	0.052164	1595.4	86140
146	2.000000	1.104051	7.36647e+06	-45939.1	955.814	-29771.2	0.000000	0.000000	7.108444	92.1578	NaN	0.000000	0.001619	0.001690	28.1168	38.9757	0.001604	24302.7	5.782171	176.221	89.3392	1.103735	0.040013	0.039698	92.1578	24302.7	0.037169	0.056917	1619.16	93069.6
146	2.000000	1.106058	7.36647e+06	-45939.1	955.816	-29771.2	0.000000	0.000000	7.110749	99.4099	NaN	0.000000	0.001614	0.001708	28.1163	42.2343	0.001682	25105.7	3.606624	178.746	98.2699	1.105797	0.042020	0.041759	99.4099	25105.7	0.039051	0.061598	1613.85	92419.2
146	2.000000	1.108020	7.36647e+06	-45939.1	955.815	-29771.2	0.000000	0.000000	7.113183	110.894	NaN	0.000000	0.001608	0.001708	28.1166	43.4167	0.001699	25555.4	2.839155	179.324	107.976	1.107687	0.043982	0.043650	110.894	25555.4	0.040728	0.065923	1682.18	90936.5
146	2.000000	1.110047	7.36647e+06	-45939.1	955.815	-29771.2	0.000000	0.000000	7.115527	118.61	NaN	0.000000	0.001598	0.001728	28.116	47.001	0.001817	25872.2	5.830295	176.496	117.692	1.109727	0.046009	0.045689	118.61	25872.2	0.042571	0.070841	1674.32	88810.7
146	2.000000	1.112094	7.36647e+06	-45939.1	955.814	-29771.2	0.000000	0.000000	7.118058	130.353	NaN	0.000000	0.001619	0.001690	28.1174	48.5118	0.001722	28176.3	2.433663	179.724	129.313	1.111759	0.048057	0.047721	130.353	28176.3	0.044587	0.076419	1705.76	93122.8
146	2.000000	1.114130	7.36647e+06	-45939.1	955.816	-29771.2	0.000000	0.000000	7.120381	137.353	NaN	0.000000	0.001614	0.001678	28.1183	51.1789	0.001753	29199.6	8.437140	173.496	137.837	1.113731	0.050092	0.049693	137.353	29199.6	0.046564	0.082090	1673.2	93111.8
146	2.000000	1.116058	7.36647e+06	-45939.1	955.815	-29771.3	0.000000	0.000000	7.122817	149.697	NaN	0.000000	0.001611	0.001722	28.1173	53.8281	0.001717	31346.9	4.046386	176.418	148.073	1.115831	0.052020	0.051793	149.697	31346.9	0.048439	0.087649	1707.92	96737.7
146	2.000000	1.118027	7.36647e+06	-45939.1	955.815	-29771.2	0.000000	0.000000	7.125355	163.549	NaN	0.000000	0.001602	0.001690	28.118	54.5045	0.001782	30587.7	4.033505	177.104	161.153	1.117778	0.053989	0.053740	163.549	30587.7	0.049979	0.092349	1771	91961.4
146	2.000000	1.120050	7.36647e+06	-45939.1	955.815	-29771.2	0.000000	0.000000	7.127738	172.31	NaN	0.000000	0.001614	0.001675	28.1172	56.2973	0.001605	35071.8	1.479810	178.83	170.83	1.119670	0.056012	0.055632	172.31	35071.8	0.052328	0.099743	1727.53	101459
146	2.000000	1.122024	7.36647e+06	-45939.1	955.815	-29771.2	0.000000	0.000000	7.130137	182.63	NaN	0.000000	0.001622	0.001731	28.1162	60.2912	0.001823	33080.3	6.661290	173.688	179.436	1.121784	0.057987	0.057746	182.63	33080.3	0.053846	0.104670	1744.81	93418.1
146	2.000000	1.124042	7.36647e+06	-45939.1	955.813	-29771.2	0.000000	0.000000	7.132643	194.521	NaN	0.000000	0.001595	0.001661	28.1161	61.8992	0.001758	35216.5	6.843772	173.184	192.913	1.123709	0.060004	0.059671	194.521	35216.5	0.055862	0.111388	1746.33	96404.9
146	2.000000	1.126140	7.36647e+06	-45939.1	955.814	-29771.3	0.000000	0.000000	7.135121	203.765	NaN	0.000000	0.001602	0.001703	28.1159	64.8676	0.001880	34509.1	6.553184	173.955	208.499	1.125767	0.062102	0.061729	203.765	34509.1	0.057673	0.117598	1732.73	91940.6
146	2.000000	1.127993	7.36647e+06	-45939.1	955.815	-29771.2	0.000000	0.000000	7.137715	221.771	NaN	0.000000	0.001616	0.001696	28.1166	65.1389	0.001768	36840.9	4.212484	175.317	217.048	1.127659	0.063956	0.063621	221.771	36840.9	0.059441	0.123811	1791.21	95658.6
146	2.000000	1.130029	7.36647e+06	-45939.1	955.815	-29771.3	0.000000	0.000000	7.140163	231.812	NaN	0.000000	0.001570	0.001718	28.1165	67.9395	0.001863	36466.7	4.406195	175.564	230.324	1.129725	0.065992	0.065687	231.812	36466.7	0.061224	0.130234	1779.97	92322.6
146	2.000000	1.132076	7.36647e+06	-45939.1	955.816	-29771.3	0.000000	0.000000	7.142912	248.882	NaN	0.000000	0.001622	0.001692	28.1188	69.4707	0.001922	36151.9	5.338177	175.162	247.94	1.131732	0.068038	0.067694	248.882	36151.9	0.062875	0.136319	1825.74	89459.5
146	2.000000	1.133958	7.36647e+06	-45939.1	955.815	-29771.3	0.000000	0.000000	7.145326	261.811	NaN	0.000000	0.001548	0.001738	28.1184	69.6392	0.001769	39370	5.463466	173.471	256.382	1.133669	0.069920	0.069631	261.811	39370	0.064933	0.144089	1817.01	94759.5
146	2.000000	1.136063	7.36647e+06	-45939.1	955.814	-29771.3	0.000000	0.000000	7.148001	275.698	NaN	0.000000	0.001588	0.001729	28.1185	73.569	0.001734	42434.7	6.150278	172.5	276.836	1.135692	0.072025	0.071654	275.698	42434.7	0.067153	0.152699	1805.5	99214.9
146	2.000000	1.138052	7.36647e+06	-45939.1	955.813	-29771.3	0.000000	0.000000	7.150635	291.367	NaN	0.000000	0.001603	0.001686	28.119	74.3952	0.001741	42728.1	6.675548	172.155	291.297	1.137624	0.074015	0.073586	291.367	42728.1	0.068900	0.159643	1825.12	97704
146	2.000000	1.140082	7.36647e+06	-45939.1	955.814	-29771.3	0.000000	0.000000	7.153140	302.941	NaN	0.000000	0.001582	0.001709	28.1184	78.2452	0.001978	39561.7	5.825918	173.289	304.883	1.139778	0.076044	0.075741	302.941	39561.7	0.070301	0.165315	1832.5	88898
146	2.000000	1.142242	7.36647e+06	-45939.1	955.813	-29771.3	0.000000	0.000000	7.155555	309.143	NaN	0.000000	0.001599	0.001735	28.1172	79.9019	0.001836	43515.4	7.073062	171.619	319.584	1.141767	0.078204	0.077730	309.143	43515.4	0.072876	0.175983	1756.66	94772.2
146	2.000000	1.144004	7.36647e+06	-45939.1	955.814	-29771.3	0.000000	0.000000	7.158520	338.4	NaN	0.000000	0.001551	0.001726	28.1174	79.857	0.001799	44379.2	5.298447	173.384	337.122	1.143664	0.079967	0.079626	338.4	44379.2	0.074248	0.181795	1861.43	95095.9
146	2.000000	1.145966	7.36647e+06	-45939.1	955.812	-29771.3	0.000000	0.000000	7.160939	349.502	NaN	0.000000	0.001562	0.001712	28.1174	83.7436	0.001922	43564.3	5.967019	172.726	345.625	1.145734	0.081929	0.081696	349.502	43564.3	0.075912	0.188964	1849.57	91561.8
146	2.000000	1.147952	7.36647e+06	-45939.1	955.814	-29771.3	0.000000	0.000000	7.163550	364.723	NaN	0.000000	0.001583	0.001691	28.1173	82.8835	0.001706	48574.8	2.917749	174.496	361.146	1.147674	0.083914	0.083636	364.723	48574.8	0.078283	0.199404	1829.07	99384.2
146	2.000000	1.150024	7.36647e+06	-45939.1	955.814	-29771.3	0.000000	0.000000	7.166382	383.204	NaN	0.000000	0.001603	0.001702	28.1173	86.3193	0.001848	46699.4	6.444219	171.846	381.996	1.149665	0.085986	0.085627	383.204	46699.4	0.079832	0.206367	1856.9	93921.2
146	2.000000	1.152070	7.36647e+06	-45939.1	955.814	-29771.3	0.000000	0.000000	7.169003	397.201	NaN	0.000000	0.001545	0.001693	28.1186	86.9702	0.001815	47928.1	2.554450	175.697	398.279	1.151678	0.088033	0.087640	397.201	47928.1	0.081817	0.215452	1843.57	94338.4
146	2.000000	1.154087	7.36647e+06	-45939.1	955.813	-29771.3	0.000000	0.000000	7.171453	407.735	NaN	0.000000	0.001545	0.001663	28.1183	88.926	0.001709	52040.3	5.125806	172.105	412.505	1.153717	0.090049	0.089679	407.735	52040.3	0.084173	0.226473	1800.37	99909.2
146	2.000000	1.156095	7.36647e+06	-45939.1	955.813	-29771.3	0.000000	0.000000	7.174274	427.513	NaN	0.000000	0.001556	0.001657	28.1176	90.898	0.001771	51323.9	3.848256	173.398	431.097	1.155775	0.092057	0.091738	427.513	51323.9	0.085810	0.234279	1824.8	96878.2
146	2.000000	1.158061	7.36647e+06	-45939.1	955.814	-29771.3	0.000000	0.000000	7.177148	449.604	NaN	0.000000	0.001554	0.001690	28.1179	93.0462	0.001804	51571.8	8.573835	168.721	453.111	1.157741	0.094023	0.093703	449.604	51571.8	0.087485	0.242398	1854.82	95702.1
146	2.000000	1.159907	7.36647e+06	-45939.1	955.814	-29771.3	0.000000	0.000000	7.179736	467.662	NaN	0.000000	0.001562	0.001696	28.1177	94.4019	0.001760	53625	6.254345	170.782	460.875	1.159668	0.095869	0.095630	467.662	53625	0.089328	0.251480	1859.64	97698.6
146	2.000000	1.162041	7.36647e+06	-45939.1	955.813	-29771.3	0.000000	0.000000	7.182794	490.134	NaN	0.000000	0.001573	0.001672	28.1173	97.2561	0.001752	55519.1	7.327371	169.219	489.529	1.161760	0.098003	0.097722	490.134	55519.1	0.091382	0.261785	1872.28	99138.9
146	2.000000	1.164020	7.36647e+06	-45939.1	955.814	-29771.3	0.000000	0.000000	7.185386	505.048	NaN	0.000000	0.001587	0.001671	28.1173	97.1945	0.001741	55827.2	1.880105	175.214	504.25	1.163707	0.099982	0.099669	505.048	55827.2	0.093197	0.271050	1863.3	97970.3
146	2.000000	1.166016	7.36647e+06	-45939.1	955.814	-29771.3	0.000000	0.000000	7.187974	519.432	NaN	0.000000	0.001594	0.001698	28.1163	102.367	0.001839	55678.2	9.702928	167.222	518.867	1.165736	0.101978	0.101698	519.432	55678.2	0.094981	0.280307	1853.08	96081.9
146	2.000000	1.168227	7.36647e+06	-45939.1	955.815	-29771.3	0.000000	0.000000	7.190533	527.887	NaN	0.000000	0.001576	0.001711	28.1154	102.431	0.001746	58654.4	6.433721	170.136	541.026	1.167781	0.104190	0.103743	527.887	58654.4	0.097440	0.293297	1799.84	98951
146	2.000000	1.170025	7.36647e+06	-45939.1	955.815	-29771.3	0.000000	0.000000	7.193614	559.114	NaN	0.000000	0.001598	0.001706	28.1155	104.638	0.001705	61367.4	6.086279	171	559.414	1.169578	0.105987	0.105540	559.114	61367.4	0.099154	0.302520	1848.19	101937
146	2.000000	1.171962	7.36647e+06	-45939.1	955.815	-29771.3	0.000000	0.000000	7.196430	580.482	NaN	0.000000	0.001634	0.001703	28.1168	106.456	0.001795	59304.2	0.981581	175.857	576.945	1.171576	0.107924	0.107538	580.482	59304.2	0.100583	0.310309	1870.66	97266.1
146	2.000000	1.172438	7.36647e+06	-45939.1	955.815	-29771.3	0.000000	0.000000	7.197196	587.548	NaN	0.000000	0.001622	0.001722	28.126	109.149	0.001933	56459.7	6.975964	-10.0814	582.118	1.172108	0.108400	0.108070	587.548	56459.7	0.100596	0.310377	1893.01	92590.6