File: remote_trans/data/nanoindenter/0828-1/data/Data_2025-08-06,11h17m57s/2025-07-22_16-23-58_1_238.txt
2025-07-22, 16:23:58, 1
Index	Phase	Displacement	Time	Pos X	Pos Y	Pos Z	Rot A	Rot B	Piezo Z	Force A	Force B	Gripper	Voltage A	Voltage B	Temperature	Amplitude force	Amplitude pos	Stiffness	Phase shift	Phase excitation	Force A raw	Displacement raw	HMax	HMax raw	Real Force	Real Stiffness	Contact Depth	Area	Hardness	Reduced Mod.
[#]	[#]	[um]	[s]	[um]	[um]	[um]	[m°]	[m°]	[um]	[uN]	[uN]	[V]	[V]	[V]	[°C]	[uN]	[um]	[N/m]	[°]	[°]	[uN]	[um]	[um]	[um]	[uN]	[N/m]	[um]	[um^2]	[MPa]	[MPa]
238	1.000000	0.002309	7.36737e+06	-50539.1	955.819	-29755.7	0.000000	0.000000	6.002835	-0.010324	NaN	0.000000	0.001520	0.001666	28.0807	0.057596	0.000935	61.5696	133.782	-169.167	0.006646	0.001021	-1.071609	-1.072897	-0.010324	61.5696	-1.071483	-2.075453E+14	4.974158E-17	NaN
238	1.000000	0.010234	7.36737e+06	-50539.1	955.818	-29755.7	0.000000	0.000000	6.010761	0.001328	NaN	0.000000	0.001553	0.001680	28.0803	0.085654	0.001086	78.8425	-16.9148	-168.064	0.030712	0.008906	-1.063683	-1.065012	0.001328	78.8425	-1.063696	-1.631132E+14	-8.144235E-18	NaN
238	1.000000	0.018252	7.36737e+06	-50539.1	955.819	-29755.7	0.000000	0.000000	6.018778	-0.004425	NaN	0.000000	0.001564	0.001664	28.0806	0.070271	0.001771	39.6742	171.353	-165.889	-0.070284	0.016988	-1.055666	-1.056929	-0.004425	39.6742	-1.055582	-1.268964E+14	3.487395E-17	NaN
238	1.000000	0.026274	7.36737e+06	-50539.1	955.818	-29755.7	0.000000	0.000000	6.026799	-0.017819	NaN	0.000000	0.001566	0.001654	28.0806	0.045793	0.001748	26.1904	3.437698	-166.454	0.020798	0.024943	-1.047644	-1.048974	-0.017819	26.1904	-1.047134	-9.769757E+13	1.823902E-16	NaN
238	1.000000	0.034232	7.36737e+06	-50539.1	955.818	-29755.7	0.000000	0.000000	6.034758	-0.020325	NaN	0.000000	0.001579	0.001666	28.0802	0.102052	0.001915	53.2796	57.4932	-166.061	0.012108	0.032975	-1.039685	-1.040943	-0.020325	53.2796	-1.039399	-7.689367E+13	2.643230E-16	NaN
238	1.000000	0.042264	7.36737e+06	-50539.1	955.819	-29755.7	0.000000	0.000000	6.042792	0.028266	NaN	0.000000	0.001578	0.001599	28.0806	0.067254	0.001924	34.9549	-86.274	-162.442	-0.020977	0.040943	-1.031653	-1.032974	0.028266	34.9549	-1.032260	-6.164205E+13	-4.585467E-16	NaN
238	1.000000	0.050224	7.36737e+06	-50539.1	955.819	-29755.7	0.000000	0.000000	6.050752	0.019571	NaN	0.000000	0.001569	0.001632	28.0802	0.030647	0.002000	15.3222	-17.4251	-167.39	0.047904	0.048904	-1.023693	-1.025014	0.019571	15.3222	-1.024651	-4.870021E+13	-4.018597E-16	NaN
238	1.000000	0.058222	7.36737e+06	-50539.1	955.818	-29755.7	0.000000	0.000000	6.058749	0.010977	NaN	0.000000	0.001564	0.001656	28.0803	0.072703	0.001856	39.1815	162.398	-161.686	0.005700	0.056925	-1.015696	-1.016992	0.010977	39.1815	-1.015906	-3.714199E+13	-2.955352E-16	NaN
238	1.000000	0.066248	7.36737e+06	-50539.1	955.819	-29755.7	0.000000	0.000000	6.066775	0.009264	NaN	0.000000	0.001545	0.001586	28.0789	0.049424	0.001968	25.1186	-132.184	-163.728	0.041260	0.064906	-1.007669	-1.009012	0.009264	25.1186	-1.007946	-2.902258E+13	-3.192036E-16	NaN
238	1.000000	0.074234	7.36737e+06	-50539.1	955.818	-29755.7	0.000000	0.000000	6.074758	-0.052392	NaN	0.000000	0.001562	0.001614	28.079	0.084174	0.001960	42.9464	8.517146	-166.424	-0.066011	0.072944	-0.999684	-1.000973	-0.052392	42.9464	-0.998769	-2.183690E+13	2.399221E-15	NaN
238	1.000000	0.082260	7.36737e+06	-50539.1	955.818	-29755.7	0.000000	0.000000	6.082785	-0.040636	NaN	0.000000	0.001571	0.001605	28.0791	0.058685	0.002073	28.3119	-163.706	-165.659	-0.085890	0.080942	-0.991658	-0.992975	-0.040636	28.3119	-0.990581	-1.694116E+13	2.398671E-15	NaN
238	1.000000	0.090252	7.36737e+06	-50539.1	955.817	-29755.7	0.000000	0.000000	6.090782	0.072577	NaN	0.000000	0.001556	0.001618	28.0784	0.019444	0.002095	9.281946	-65.6938	-166.778	0.040123	0.088969	-0.983665	-0.984948	0.072577	9.281946	-0.989530	-1.639752E+13	-4.426106E-15	NaN
238	1.000000	0.098242	7.36737e+06	-50539.1	955.818	-29755.7	0.000000	0.000000	6.098766	-0.042572	NaN	0.000000	0.001576	0.001577	28.0783	0.072132	0.002003	36.0128	-137.288	-167.88	-0.025995	0.096997	-0.975676	-0.976920	-0.042572	36.0128	-0.974789	-1.038019E+13	4.101320E-15	NaN
238	1.000000	0.106254	7.36737e+06	-50539.1	955.819	-29755.7	0.000000	0.000000	6.106781	0.010494	NaN	0.000000	0.001582	0.001569	28.0786	0.044592	0.002044	21.8202	90.8324	-165.792	-0.038300	0.104908	-0.967664	-0.969010	0.010494	21.8202	-0.968025	-8.414755E+12	-1.247105E-15	NaN
238	1.000000	0.114249	7.36737e+06	-50539.1	955.818	-29755.7	0.000000	0.000000	6.114777	0.043650	NaN	0.000000	0.001557	0.001621	28.0787	0.039776	0.001993	19.9566	-85.6575	-163.171	0.073990	0.112963	-0.959669	-0.960954	0.043650	19.9566	-0.961309	-6.831520E+12	-6.389497E-15	NaN
238	1.000000	0.122240	7.36737e+06	-50539.1	955.818	-29755.7	0.000000	0.000000	6.122769	0.048546	NaN	0.000000	0.001574	0.001620	28.0789	0.156898	0.002018	77.7333	-54.1216	-162.44	0.056847	0.120961	-0.951678	-0.952957	0.048546	77.7333	-0.952146	-5.140067E+12	-9.444657E-15	NaN
238	1.000000	0.130262	7.36737e+06	-50539.1	955.819	-29755.7	0.000000	0.000000	6.130790	0.027938	NaN	0.000000	0.001565	0.001586	28.0788	0.041822	0.002064	20.2601	68.39	-167.829	0.010459	0.128987	-0.943656	-0.944930	0.027938	20.2601	-0.944690	-4.077619E+12	-6.851623E-15	NaN
238	1.000000	0.138265	7.36737e+06	-50539.1	955.818	-29755.7	0.000000	0.000000	6.138792	0.017399	NaN	0.000000	0.001591	0.001563	28.0789	0.056327	0.001964	28.6772	-147.288	-163.819	0.108586	0.136892	-0.935653	-0.937026	0.017399	28.6772	-0.936108	-3.123364E+12	-5.570713E-15	NaN
238	1.000000	0.146247	7.36737e+06	-50539.1	955.818	-29755.7	0.000000	0.000000	6.146773	-0.011489	NaN	0.000000	0.001559	0.001603	28.0787	0.025045	0.001969	12.72	-113.447	-166.459	0.018305	0.144938	-0.927670	-0.928980	-0.011489	12.72	-0.926993	-2.352947E+12	4.882634E-15	NaN
238	1.000000	0.154268	7.36737e+06	-50539.1	955.817	-29755.7	0.000000	0.000000	6.154793	-0.046665	NaN	0.000000	0.001577	0.001581	28.0787	0.059758	0.002059	29.0245	134.233	-166.028	-0.000811	0.153005	-0.919649	-0.920913	-0.046665	29.0245	-0.918444	-1.803814E+12	2.586998E-14	NaN
238	1.000000	0.162256	7.36737e+06	-50539.1	955.818	-29755.7	0.000000	0.000000	6.162783	0.008743	NaN	0.000000	0.001580	0.001593	28.0787	0.066419	0.001840	36.1003	178.489	-164.941	-0.007205	0.160954	-0.911661	-0.912964	0.008743	36.1003	-0.911843	-1.469108E+12	-5.951477E-15	NaN
238	1.000000	0.170288	7.36737e+06	-50539.1	955.819	-29755.7	0.000000	0.000000	6.170817	0.059244	NaN	0.000000	0.001585	0.001547	28.0789	0.064862	0.001941	33.4175	-122.626	-163.308	0.110385	0.168957	-0.903630	-0.904961	0.059244	33.4175	-0.904960	-1.185978E+12	-4.995332E-14	NaN
238	1.000000	0.178265	7.36737e+06	-50539.1	955.819	-29755.7	0.000000	0.000000	6.178793	0.014989	NaN	0.000000	0.001572	0.001570	28.079	0.096092	0.001887	50.9185	63.6221	-163.678	0.064044	0.176969	-0.895652	-0.896949	0.014989	50.9185	-0.895873	-8.939146E+11	-1.676760E-14	NaN
238	1.000000	0.186289	7.36737e+06	-50539.1	955.819	-29755.7	0.000000	0.000000	6.186814	-0.028918	NaN	0.000000	0.001554	0.001590	28.079	0.028837	0.001927	14.967	-0.769510	-169.408	0.012299	0.184930	-0.887629	-0.888987	-0.028918	14.967	-0.886180	-6.611077E+11	4.374117E-14	NaN
238	1.000000	0.194263	7.36737e+06	-50539.1	955.818	-29755.7	0.000000	0.000000	6.194791	0.025348	NaN	0.000000	0.001586	0.001592	28.079	0.074455	0.002134	34.8949	-104.653	-161.34	0.044280	0.192945	-0.879654	-0.880973	0.025348	34.8949	-0.880199	-5.487844E+11	-4.619000E-14	NaN
238	1.000000	0.202314	7.36737e+06	-50539.1	955.818	-29755.7	0.000000	0.000000	6.202843	0.043981	NaN	0.000000	0.001578	0.001599	28.08	0.045723	0.001964	23.277	-168.892	-169.102	0.064500	0.200943	-0.871604	-0.872975	0.043981	23.277	-0.873021	-4.388421E+11	-1.002211E-13	NaN
238	1.000000	0.210276	7.36737e+06	-50539.1	955.82	-29755.7	0.000000	0.000000	6.210800	-0.075013	NaN	0.000000	0.001565	0.001545	28.0803	0.007345	0.001930	3.805879	131.483	-169.076	-0.000863	0.209028	-0.863641	-0.864890	-0.075013	3.805879	-0.848859	-2.066741E+11	3.629544E-13	NaN
238	1.000000	0.218315	7.36737e+06	-50539.1	955.819	-29755.7	0.000000	0.000000	6.218844	0.048560	NaN	0.000000	0.001538	0.001607	28.08	0.053746	0.002081	25.8259	171.959	-164.875	-0.053529	0.217002	-0.855602	-0.856916	0.048560	25.8259	-0.857013	-2.664918E+11	-1.822207E-13	NaN
238	1.000000	0.226283	7.36737e+06	-50539.1	955.819	-29755.7	0.000000	0.000000	6.226811	0.041949	NaN	0.000000	0.001568	0.001608	28.0799	0.080329	0.001965	40.874	-107.073	-164.716	-0.008253	0.224996	-0.847635	-0.848921	0.041949	40.874	-0.848404	-2.037651E+11	-2.058705E-13	NaN
238	1.000000	0.234297	7.36738e+06	-50539.1	955.819	-29755.7	0.000000	0.000000	6.234820	-0.086866	NaN	0.000000	0.001580	0.001605	28.0801	0.050486	0.001928	26.1805	-95.2087	-165.993	0.008950	0.232988	-0.839621	-0.840930	-0.086866	26.1805	-0.837133	-1.433651E+11	6.059047E-13	NaN
238	1.000000	0.242274	7.36738e+06	-50539.1	955.818	-29755.7	0.000000	0.000000	6.242803	0.061322	NaN	0.000000	0.001563	0.001657	28.0798	0.110128	0.001916	57.4733	-118.114	-165.493	-0.042678	0.241017	-0.831643	-0.832901	0.061322	57.4733	-0.832444	-1.238522E+11	-4.951191E-13	NaN
238	1.000000	0.250333	7.36738e+06	-50539.1	955.819	-29755.7	0.000000	0.000000	6.250859	-0.011150	NaN	0.000000	0.001557	0.001673	28.0801	0.059692	0.002000	29.8391	177.97	-163.677	-0.041861	0.248964	-0.823585	-0.824954	-0.011150	29.8391	-0.823305	-9.311524E+10	1.197447E-13	NaN
238	1.000000	0.258291	7.36738e+06	-50539.1	955.819	-29755.7	0.000000	0.000000	6.258818	-0.008971	NaN	0.000000	0.001556	0.001597	28.0797	0.058927	0.002065	28.536	-170.151	-167.719	0.039408	0.256979	-0.815626	-0.816939	-0.008971	28.536	-0.815390	-7.272690E+10	1.233582E-13	NaN
238	1.000000	0.266312	7.36738e+06	-50539.1	955.818	-29755.7	0.000000	0.000000	6.266838	-0.013047	NaN	0.000000	0.001586	0.001641	28.0798	0.100690	0.001901	52.9716	177.868	-167.835	-0.025314	0.265012	-0.807605	-0.808906	-0.013047	52.9716	-0.807421	-5.669897E+10	2.301097E-13	NaN
238	1.000000	0.274307	7.36738e+06	-50539.1	955.818	-29755.7	0.000000	0.000000	6.274834	0.014706	NaN	0.000000	0.001547	0.001578	28.0797	0.090043	0.001957	46.0142	15.4713	-168.12	0.052170	0.273027	-0.799610	-0.800890	0.014706	46.0142	-0.799850	-4.475352E+10	-3.285994E-13	NaN
238	1.000000	0.282305	7.36738e+06	-50539.1	955.818	-29755.7	0.000000	0.000000	6.282832	0.010149	NaN	0.000000	0.001572	0.001608	28.0798	0.067912	0.001992	34.0903	-139.783	-166.904	0.028695	0.281004	-0.791612	-0.792913	0.010149	34.0903	-0.791836	-3.483488E+10	-2.913566E-13	NaN
238	1.000000	0.290315	7.36738e+06	-50539.1	955.818	-29755.7	0.000000	0.000000	6.290842	0.006999	NaN	0.000000	0.001548	0.001589	28.0801	0.014366	0.001932	7.435455	-132.174	-167.079	-0.080202	0.289070	-0.783603	-0.784847	0.006999	7.435455	-0.784309	-2.752799E+10	-2.542581E-13	NaN
238	1.000000	0.298333	7.36738e+06	-50539.1	955.818	-29755.7	0.000000	0.000000	6.298859	-0.034597	NaN	0.000000	0.001560	0.001563	28.0796	0.039869	0.002022	19.7208	45.387	-168.632	0.001180	0.297033	-0.775584	-0.776885	-0.034597	19.7208	-0.774268	-2.010637E+10	1.720721E-12	NaN
238	1.000000	0.306323	7.36738e+06	-50539.1	955.818	-29755.7	0.000000	0.000000	6.306849	-0.006223	NaN	0.000000	0.001592	0.001563	28.0798	0.072144	0.002025	35.6324	10.1704	-167.478	0.059103	0.305067	-0.767595	-0.768850	-0.006223	35.6324	-0.767464	-1.624893E+10	3.829739E-13	NaN
238	1.000000	0.314331	7.36738e+06	-50539.1	955.818	-29755.7	0.000000	0.000000	6.314859	0.034722	NaN	0.000000	0.001538	0.001596	28.0797	0.068068	0.002021	33.686	-117.024	-163.881	0.080929	0.313038	-0.759587	-0.760879	0.034722	33.686	-0.760360	-1.300775E+10	-2.669361E-12	NaN
238	1.000000	0.322347	7.36738e+06	-50539.1	955.819	-29755.7	0.000000	0.000000	6.322873	-0.018253	NaN	0.000000	0.001524	0.001593	28.0796	0.070351	0.002193	32.0748	-153.89	-163.69	0.067331	0.321008	-0.751570	-0.752909	-0.018253	32.0748	-0.751144	-9.745108E+9	1.873026E-12	NaN
238	1.000000	0.330348	7.36738e+06	-50539.1	955.818	-29755.7	0.000000	0.000000	6.330872	-0.065154	NaN	0.000000	0.001547	0.001611	28.0798	0.029735	0.002111	14.0874	138.213	-165.33	-0.016165	0.329037	-0.743570	-0.744880	-0.065154	14.0874	-0.740101	-6.893429E+9	9.451664E-12	NaN
238	1.000000	0.338340	7.36738e+06	-50539.1	955.819	-29755.7	0.000000	0.000000	6.338870	0.073656	NaN	0.000000	0.001564	0.001579	28.0782	0.033279	0.002035	16.3527	113.311	-165.398	0.063728	0.337044	-0.735578	-0.736874	0.073656	16.3527	-0.738956	-6.650171E+9	-1.107574E-11	NaN
238	1.000000	0.346332	7.36738e+06	-50539.1	955.818	-29755.7	0.000000	0.000000	6.346859	0.017012	NaN	0.000000	0.001606	0.001595	28.0786	0.041356	0.002008	20.5912	156.265	-166.782	-0.010128	0.345053	-0.727586	-0.728864	0.017012	20.5912	-0.728206	-4.746249E+9	-3.584387E-12	NaN
238	1.000000	0.354364	7.36738e+06	-50539.1	955.819	-29755.7	0.000000	0.000000	6.354891	0.014765	NaN	0.000000	0.001564	0.001589	28.0784	0.093732	0.001878	49.9128	-49.3302	-163.369	-0.048505	0.353048	-0.719553	-0.720869	0.014765	49.9128	-0.719775	-3.642576E+9	-4.053474E-12	NaN
238	1.000000	0.362363	7.36738e+06	-50539.1	955.818	-29755.7	0.000000	0.000000	6.362890	-0.010161	NaN	0.000000	0.001573	0.001609	28.0783	0.034830	0.001955	17.8191	38.4512	-166.007	-0.046955	0.361030	-0.711554	-0.712888	-0.010161	17.8191	-0.711127	-2.776018E+9	3.660336E-12	NaN
238	1.000000	0.370354	7.36738e+06	-50539.1	955.82	-29755.7	0.000000	0.000000	6.370882	0.046190	NaN	0.000000	0.001564	0.001598	28.0784	0.167060	0.001974	84.6088	-132.879	-162.54	0.057279	0.369080	-0.703564	-0.704837	0.046190	84.6088	-0.703974	-2.217118E+9	-2.083324E-11	NaN
238	1.000000	0.378368	7.36738e+06	-50539.1	955.819	-29755.7	0.000000	0.000000	6.378894	-0.013430	NaN	0.000000	0.001589	0.001594	28.0782	0.052718	0.001968	26.7858	-168.309	-165.333	-0.011524	0.377095	-0.695550	-0.696823	-0.013430	26.7858	-0.695174	-1.681184E+9	7.988326E-12	NaN
238	1.000000	0.386362	7.36738e+06	-50539.1	955.818	-29755.7	0.000000	0.000000	6.386889	0.008497	NaN	0.000000	0.001584	0.001606	28.0785	0.057022	0.002029	28.0973	75.3675	-167.66	-0.027248	0.385052	-0.687556	-0.688865	0.008497	28.0973	-0.687782	-1.332322E+9	-6.377560E-12	NaN
238	1.000000	0.394364	7.36738e+06	-50539.1	955.819	-29755.7	0.000000	0.000000	6.394891	0.023236	NaN	0.000000	0.001535	0.001614	28.0784	0.041031	0.002014	20.3724	-143.302	-166.48	0.056751	0.393037	-0.679554	-0.680881	0.023236	20.3724	-0.680409	-1.056342E+9	-2.199704E-11	NaN
238	1.000000	0.402381	7.36738e+06	-50539.1	955.819	-29755.7	0.000000	0.000000	6.402906	-0.041685	NaN	0.000000	0.001586	0.001600	28.0785	0.066874	0.002051	32.6129	-142.422	-167.425	-0.063378	0.400993	-0.671536	-0.672925	-0.041685	32.6129	-0.670578	-7.749951E+8	5.378730E-11	NaN
238	1.000000	0.410379	7.36738e+06	-50539.1	955.818	-29755.7	0.000000	0.000000	6.410905	-0.026070	NaN	0.000000	0.001569	0.001611	28.0784	0.049580	0.001963	25.2637	-120.581	-167.715	0.032518	0.409038	-0.663538	-0.664879	-0.026070	25.2637	-0.662764	-6.058002E+8	4.303459E-11	NaN
238	1.000000	0.418375	7.36738e+06	-50539.1	955.818	-29755.7	0.000000	0.000000	6.418901	-0.007929	NaN	0.000000	0.001589	0.001617	28.0785	0.045827	0.001936	23.6732	-144.623	-164.937	-0.083856	0.417068	-0.655543	-0.656849	-0.007929	23.6732	-0.655292	-4.785884E+8	1.656781E-11	NaN
238	1.000000	0.426391	7.36738e+06	-50539.1	955.819	-29755.7	0.000000	0.000000	6.426919	0.039423	NaN	0.000000	0.001566	0.001586	28.0786	0.027933	0.002118	13.1903	33.6941	-162.785	0.032085	0.425095	-0.647527	-0.648822	0.039423	13.1903	-0.649769	-4.020350E+8	-9.805910E-11	NaN
238	1.000000	0.434359	7.36738e+06	-50539.1	955.819	-29755.7	0.000000	0.000000	6.434887	0.023312	NaN	0.000000	0.001568	0.001585	28.0785	0.068290	0.002072	32.9652	-167.589	-166.556	0.038267	0.433057	-0.639558	-0.640861	0.023312	32.9652	-0.640089	-2.961460E+8	-7.871672E-11	NaN
238	1.000000	0.442376	7.36738e+06	-50539.1	955.817	-29755.7	0.000000	0.000000	6.442905	0.052908	NaN	0.000000	0.001647	0.001625	28.0786	0.126158	0.001870	67.4768	70.6525	-166.716	0.075963	0.441089	-0.631542	-0.632829	0.052908	67.4768	-0.632130	-2.302871E+8	-2.297463E-10	NaN
238	1.000000	0.450407	7.36738e+06	-50539.1	955.818	-29755.7	0.000000	0.000000	6.450934	0.021454	NaN	0.000000	0.001683	0.001597	28.0781	0.034210	0.002053	16.6645	39.217	-161.668	-0.008332	0.449042	-0.623511	-0.624875	0.021454	16.6645	-0.624477	-1.807808E+8	-1.186733E-10	NaN
238	1.000000	0.458376	7.36738e+06	-50539.1	955.819	-29755.7	0.000000	0.000000	6.458904	0.027859	NaN	0.000000	0.001639	0.001597	28.0785	0.100229	0.001855	54.0187	108.2	-165.088	0.069143	0.457100	-0.615542	-0.616818	0.027859	54.0187	-0.615929	-1.379304E+8	-2.019786E-10	NaN
238	1.000000	0.466435	7.36738e+06	-50539.1	955.818	-29755.7	0.000000	0.000000	6.466961	-0.013464	NaN	0.000000	0.001651	0.001591	28.0782	0.069675	0.001873	37.1971	133.485	-165.015	0.001588	0.465086	-0.607483	-0.608831	-0.013464	37.1971	-0.607211	-1.046497E+8	1.286618E-10	NaN
238	1.000000	0.474421	7.36738e+06	-50539.1	955.818	-29755.7	0.000000	0.000000	6.474947	-0.010331	NaN	0.000000	0.001643	0.001586	28.0794	0.058908	0.002107	27.9594	69.5198	-162.328	-0.072458	0.473104	-0.599497	-0.600814	-0.010331	27.9594	-0.599220	-8.122911E+7	1.271826E-10	NaN
238	1.000000	0.482407	7.36738e+06	-50539.1	955.818	-29755.7	0.000000	0.000000	6.482934	-0.011418	NaN	0.000000	0.001533	0.001594	28.0797	0.084853	0.001935	43.856	-152.327	-162.501	0.009364	0.481149	-0.591510	-0.592769	-0.011418	43.856	-0.591315	-6.321119E+7	1.806368E-10	NaN
238	1.000000	0.490413	7.36738e+06	-50539.1	955.819	-29755.7	0.000000	0.000000	6.490940	0.021623	NaN	0.000000	0.001570	0.001595	28.0793	0.069351	0.001968	35.2436	7.293837	-162.871	-0.019911	0.489099	-0.583505	-0.584818	0.021623	35.2436	-0.583965	-5.005355E+7	-4.320052E-10	NaN
238	1.000000	0.498427	7.36738e+06	-50539.1	955.818	-29755.7	0.000000	0.000000	6.498952	-0.046004	NaN	0.000000	0.001563	0.001632	28.0801	0.089952	0.001954	46.0363	-33.4145	-165.487	-0.065825	0.497086	-0.575491	-0.576832	-0.046004	46.0363	-0.574741	-3.733573E+7	1.232182E-9	NaN
238	1.000000	0.506443	7.36738e+06	-50539.1	955.819	-29755.7	0.000000	0.000000	6.506971	0.050122	NaN	0.000000	0.001584	0.001620	28.0795	0.007316	0.001969	3.716408	-5.900521	-170.486	-0.067672	0.505138	-0.567475	-0.568779	0.050122	3.716408	-0.577590	-4.087544E+7	-1.226221E-9	NaN
238	1.000000	0.514416	7.36738e+06	-50539.1	955.819	-29755.7	0.000000	0.000000	6.514940	-0.042812	NaN	0.000000	0.001581	0.001607	28.0798	0.100073	0.002056	48.6758	46.5727	-164.813	0.039341	0.513116	-0.559502	-0.560802	-0.042812	48.6758	-0.558842	-2.250932E+7	1.901965E-9	NaN
238	1.000000	0.522449	7.36738e+06	-50539.1	955.818	-29755.7	0.000000	0.000000	6.522974	-0.021307	NaN	0.000000	0.001586	0.001613	28.0794	0.102238	0.002080	49.1514	38.9441	-164.734	-0.021906	0.521157	-0.551469	-0.552761	-0.021307	49.1514	-0.551144	-1.761167E+7	1.209812E-9	NaN
238	1.000000	0.530391	7.36738e+06	-50539.1	955.819	-29755.7	0.000000	0.000000	6.530920	0.059223	NaN	0.000000	0.001562	0.001595	28.0793	0.016884	0.002023	8.345793	-68.8041	-165.783	0.030549	0.529154	-0.543527	-0.544763	0.059223	8.345793	-0.548849	-1.636874E+7	-3.618084E-9	NaN
238	1.000000	0.538427	7.36738e+06	-50539.1	955.819	-29755.7	0.000000	0.000000	6.538953	-0.003585	NaN	0.000000	0.001596	0.001591	28.0794	0.098289	0.002105	46.6853	-178.532	-167.144	-0.053267	0.537100	-0.535491	-0.536818	-0.003585	46.6853	-0.535433	-1.066603E+7	3.361110E-10	NaN
238	1.000000	0.546387	7.36738e+06	-50539.1	955.819	-29755.7	0.000000	0.000000	6.546913	0.000379	NaN	0.000000	0.001608	0.001583	28.0797	0.145560	0.001963	74.1434	-70.1906	-164.817	-0.031648	0.545081	-0.527531	-0.528837	0.000379	74.1434	-0.527535	-8.28579e+06	-4.576665E-11	NaN
238	1.000000	0.554457	7.36738e+06	-50539.1	955.819	-29755.7	0.000000	0.000000	6.554984	0.027699	NaN	0.000000	0.001563	0.001588	28.0796	0.080150	0.001943	41.2452	-84.3486	-166.506	-0.020372	0.553125	-0.519461	-0.520793	0.027699	41.2452	-0.519965	-6.50288e+06	-4.259506E-9	NaN
238	1.000000	0.562452	7.36738e+06	-50539.1	955.819	-29755.7	0.000000	0.000000	6.562979	0.016892	NaN	0.000000	0.001555	0.001585	28.0794	0.030801	0.001919	16.0528	43.2397	-166.765	-0.056343	0.561142	-0.511466	-0.512775	0.016892	16.0528	-0.512255	-5.07948e+06	-3.325458E-9	NaN
238	1.000000	0.570430	7.36738e+06	-50539.1	955.818	-29755.7	0.000000	0.000000	6.570955	-0.038050	NaN	0.000000	0.001578	0.001600	28.0796	0.055545	0.001929	28.8021	86.1634	-170.855	-0.047299	0.569143	-0.503487	-0.504774	-0.038050	28.8021	-0.502497	-3.71399e+06	1.024513E-8	NaN
238	1.000000	0.578454	7.36738e+06	-50539.1	955.818	-29755.7	0.000000	0.000000	6.578980	-0.009378	NaN	0.000000	0.001582	0.001621	28.0796	0.104709	0.002169	48.271	-127.583	-165.933	0.017147	0.577136	-0.495464	-0.496781	-0.009378	48.271	-0.495318	-2.949e+06	3.180093E-9	NaN
238	1.000000	0.586456	7.36738e+06	-50539.1	955.819	-29755.7	0.000000	0.000000	6.586985	0.069208	NaN	0.000000	0.001572	0.001593	28.0795	0.051702	0.001983	26.079	73.8747	-165.851	0.057014	0.585144	-0.487462	-0.488774	0.069208	26.079	-0.489452	-2.44198e+06	-2.834118E-8	NaN
238	1.000000	0.594440	7.36738e+06	-50539.1	955.819	-29755.7	0.000000	0.000000	6.594969	0.051295	NaN	0.000000	0.001549	0.001652	28.0797	0.067906	0.001918	35.4049	-136.518	-165.335	0.029663	0.593097	-0.479478	-0.480821	0.051295	35.4049	-0.480564	-1.83411e+06	-2.796707E-8	NaN
238	1.000000	0.602460	7.36738e+06	-50539.1	955.819	-29755.7	0.000000	0.000000	6.602986	-0.011294	NaN	0.000000	0.001590	0.001632	28.0796	0.031505	0.002114	14.901	145.199	-167.527	0.032303	0.601146	-0.471458	-0.472772	-0.011294	14.901	-0.470890	-1.3424e+06	8.412945E-9	NaN
238	1.000000	0.610453	7.36738e+06	-50539.1	955.819	-29755.7	0.000000	0.000000	6.610981	0.030550	NaN	0.000000	0.001536	0.001635	28.0784	0.102698	0.001930	53.1987	89.3497	-164.226	-0.074996	0.609167	-0.463465	-0.464750	0.030550	53.1987	-0.463896	-1.07088e+06	-2.852751E-8	NaN
238	1.000000	0.618475	7.36738e+06	-50539.1	955.819	-29755.7	0.000000	0.000000	6.619002	0.008987	NaN	0.000000	0.001568	0.001610	28.0783	0.058520	0.001987	29.4451	47.2338	-162.128	-0.005848	0.617147	-0.455443	-0.456771	0.008987	29.4451	-0.455672	-820665	-1.095060E-8	NaN
238	1.000000	0.626481	7.36738e+06	-50539.1	955.818	-29755.7	0.000000	0.000000	6.627005	-0.051977	NaN	0.000000	0.001537	0.001632	28.0782	0.083710	0.002039	41.0493	113.174	-166.613	0.020045	0.625155	-0.447437	-0.448763	-0.051977	41.0493	-0.446487	-609334	8.530092E-8	NaN
238	1.000000	0.634487	7.36738e+06	-50539.1	955.819	-29755.7	0.000000	0.000000	6.635012	-0.033087	NaN	0.000000	0.001522	0.001602	28.0783	0.075133	0.002027	37.0691	-139.72	-164.988	0.040998	0.633179	-0.439431	-0.440739	-0.033087	37.0691	-0.438761	-474112	6.978703E-8	NaN
238	1.000000	0.642452	7.36738e+06	-50539.1	955.819	-29755.7	0.000000	0.000000	6.642978	-0.033652	NaN	0.000000	0.001559	0.001617	28.0782	0.065713	0.002150	30.5672	-177.36	-162.466	-0.091785	0.641212	-0.431465	-0.432705	-0.033652	30.5672	-0.430640	-364006	9.244916E-8	NaN
238	1.000000	0.650488	7.36738e+06	-50539.1	955.818	-29755.7	0.000000	0.000000	6.651013	-0.027811	NaN	0.000000	0.001567	0.001653	28.0783	0.104171	0.002137	48.751	-131.619	-165.919	0.086909	0.649200	-0.423430	-0.424718	-0.027811	48.751	-0.423002	-283773	9.800313E-8	NaN
238	1.000000	0.658473	7.36738e+06	-50539.1	955.819	-29755.7	0.000000	0.000000	6.659001	0.021789	NaN	0.000000	0.001564	0.001630	28.0783	0.049276	0.002070	23.8044	161.018	-163.922	-0.019144	0.657204	-0.415444	-0.416714	0.021789	23.8044	-0.416131	-226731	-9.610020E-8	NaN
238	1.000000	0.666486	7.36738e+06	-50539.1	955.82	-29755.7	0.000000	0.000000	6.667011	-0.045596	NaN	0.000000	0.001530	0.001630	28.0782	0.042721	0.002065	20.6913	-137.116	-163.858	-0.010545	0.665177	-0.407431	-0.408741	-0.045596	20.6913	-0.405779	-161561	2.822226E-7	NaN
238	1.000000	0.674469	7.36738e+06	-50539.1	955.819	-29755.7	0.000000	0.000000	6.674994	-0.053073	NaN	0.000000	0.001524	0.001646	28.0783	0.137416	0.002034	67.5672	-31.8206	-165.266	-0.042105	0.673182	-0.399449	-0.400735	-0.053073	67.5672	-0.398859	-128744	4.122379E-7	NaN
238	1.000000	0.682510	7.36738e+06	-50539.1	955.819	-29755.7	0.000000	0.000000	6.683035	-0.050707	NaN	0.000000	0.001565	0.001668	28.0781	0.056803	0.001985	28.6107	177.252	-165.203	-0.065736	0.681207	-0.391408	-0.392710	-0.050707	28.6107	-0.390078	-96447	5.257490E-7	NaN
238	1.000000	0.690490	7.36738e+06	-50539.1	955.819	-29755.7	0.000000	0.000000	6.691017	0.022573	NaN	0.000000	0.001554	0.001642	28.0783	0.084195	0.001930	43.6335	137.899	-166.926	-0.001021	0.689167	-0.383428	-0.384751	0.022573	43.6335	-0.383816	-78454.2	-2.877240E-7	NaN
238	1.000000	0.698497	7.36738e+06	-50539.1	955.818	-29755.7	0.000000	0.000000	6.699026	0.058952	NaN	0.000000	0.001580	0.001655	28.0781	0.067946	0.002032	33.4365	-1.643659	-165.461	0.006137	0.697197	-0.375421	-0.376720	0.058952	33.4365	-0.376743	-62104.9	-9.492357E-7	NaN
238	1.000000	0.706508	7.36738e+06	-50539.1	955.819	-29755.7	0.000000	0.000000	6.707034	-0.008937	NaN	0.000000	0.001596	0.001648	28.0786	0.106285	0.002053	51.7717	83.1469	-163.806	-0.062195	0.705179	-0.367410	-0.368739	-0.008937	51.7717	-0.367280	-45387.8	1.969123E-7	NaN
238	1.000000	0.714510	7.36738e+06	-50539.1	955.819	-29755.7	0.000000	0.000000	6.715037	-0.004480	NaN	0.000000	0.001561	0.001637	28.0785	0.147017	0.001966	74.7939	-160.298	-167.034	0.029422	0.713203	-0.359407	-0.360715	-0.004480	74.7939	-0.359362	-34884	1.284174E-7	NaN
238	1.000000	0.722532	7.36738e+06	-50539.1	955.819	-29755.7	0.000000	0.000000	6.723059	-0.002064	NaN	0.000000	0.001543	0.001612	28.0783	0.043467	0.001996	21.7751	2.031228	-164.523	0.097294	0.721240	-0.351385	-0.352677	-0.002064	21.7751	-0.351314	-26673	7.738051E-8	NaN
238	1.000000	0.730502	7.36738e+06	-50539.1	955.818	-29755.7	0.000000	0.000000	6.731028	-0.013892	NaN	0.000000	0.001549	0.001637	28.0786	0.081043	0.002007	40.3743	26.0903	-165.047	-0.077332	0.729189	-0.343415	-0.344728	-0.013892	40.3743	-0.343157	-20302.3	6.842659E-7	NaN
238	1.000000	0.738529	7.36738e+06	-50539.1	955.819	-29755.7	0.000000	0.000000	6.739056	0.011513	NaN	0.000000	0.001562	0.001621	28.0785	0.148016	0.002059	71.8949	-36.3093	-164.771	0.089651	0.737213	-0.335389	-0.336705	0.011513	71.8949	-0.335509	-15704.4	-7.331047E-7	NaN
238	1.000000	0.746494	7.36738e+06	-50539.1	955.818	-29755.7	0.000000	0.000000	6.747018	-0.064890	NaN	0.000000	0.001546	0.001621	28.0799	0.068345	0.001895	36.0615	119.152	-165.556	-0.059584	0.745248	-0.327424	-0.328669	-0.064890	36.0615	-0.326074	-11426.2	5.679090E-6	NaN
238	1.000000	0.754535	7.36738e+06	-50539.1	955.819	-29755.7	0.000000	0.000000	6.755059	-0.046399	NaN	0.000000	0.001536	0.001634	28.08	0.062614	0.001946	32.1802	-52.603	-165.936	-0.034709	0.753249	-0.319383	-0.320669	-0.046399	32.1802	-0.318302	-8782.77	5.282902E-6	NaN
238	1.000000	0.762514	7.36738e+06	-50539.1	955.818	-29755.7	0.000000	0.000000	6.763042	0.037988	NaN	0.000000	0.001550	0.001621	28.0796	0.081269	0.002031	40.0066	-17.7389	-162.617	-0.019659	0.761209	-0.311403	-0.312708	0.037988	40.0066	-0.312115	-7117.78	-5.337062E-6	NaN
238	1.000000	0.770534	7.36738e+06	-50539.1	955.818	-29755.7	0.000000	0.000000	6.771059	-0.054001	NaN	0.000000	0.001544	0.001620	28.0797	0.098794	0.002021	48.8909	142.438	-165.335	0.005404	0.769200	-0.303383	-0.304718	-0.054001	48.8909	-0.302555	-5136.17	1.051390E-5	NaN
238	1.000000	0.778514	7.36738e+06	-50539.1	955.818	-29755.7	0.000000	0.000000	6.779039	-0.056539	NaN	0.000000	0.001562	0.001646	28.0794	0.094592	0.002037	46.4436	161.328	-165.388	0.049604	0.777241	-0.295403	-0.296676	-0.056539	46.4436	-0.294490	-3894.69	1.451688E-5	NaN
238	1.000000	0.786525	7.36738e+06	-50539.1	955.82	-29755.7	0.000000	0.000000	6.787049	-0.041537	NaN	0.000000	0.001591	0.001633	28.0796	0.059037	0.002103	28.0683	9.936245	-166.91	-0.039657	0.785217	-0.287393	-0.288701	-0.041537	28.0683	-0.286283	-2934.6	1.415422E-5	NaN
238	1.000000	0.794555	7.36738e+06	-50539.1	955.819	-29755.7	0.000000	0.000000	6.795080	-0.026121	NaN	0.000000	0.001576	0.001647	28.0797	0.108632	0.002024	53.6649	60.7101	-169.192	0.067989	0.793250	-0.279363	-0.280667	-0.026121	53.6649	-0.278998	-2279.54	1.145886E-5	NaN
238	1.000000	0.802547	7.36738e+06	-50539.1	955.818	-29755.7	0.000000	0.000000	6.803075	0.023768	NaN	0.000000	0.001582	0.001632	28.0797	0.048401	0.001929	25.0853	176.874	-162.73	0.055170	0.801260	-0.271371	-0.272658	0.023768	25.0853	-0.272081	-1791.25	-1.326916E-5	NaN
238	1.000000	0.810549	7.36738e+06	-50539.1	955.819	-29755.7	0.000000	0.000000	6.811075	0.001233	NaN	0.000000	0.001541	0.001665	28.0799	0.011677	0.001932	6.044890	-88.3629	-162.272	0.027714	0.809266	-0.263369	-0.264651	0.001233	6.044890	-0.263522	-1326.83	-9.291602E-7	NaN
238	1.000000	0.818564	7.36738e+06	-50539.1	955.818	-29755.7	0.000000	0.000000	6.819092	0.030078	NaN	0.000000	0.001547	0.001635	28.0796	0.025001	0.002057	12.1528	137.639	-167.388	0.049859	0.817226	-0.255353	-0.256692	0.030078	12.1528	-0.257209	-1061.93	-2.832360E-5	NaN
238	1.000000	0.826533	7.36738e+06	-50539.1	955.818	-29755.7	0.000000	0.000000	6.827060	-0.009166	NaN	0.000000	0.001549	0.001626	28.0795	0.034602	0.002016	17.1617	172.371	-164.492	-0.084401	0.825269	-0.247384	-0.248649	-0.009166	17.1617	-0.246984	-738.328	1.241439E-5	NaN
238	1.000000	0.834541	7.36738e+06	-50539.1	955.819	-29755.7	0.000000	0.000000	6.835066	-0.038123	NaN	0.000000	0.001552	0.001611	28.0797	0.036060	0.002005	17.9815	-54.4669	-164.654	-0.033387	0.833254	-0.239377	-0.240664	-0.038123	17.9815	-0.237787	-530.82	7.181936E-5	NaN
238	1.000000	0.842534	7.36738e+06	-50539.1	955.818	-29755.7	0.000000	0.000000	6.843062	0.027217	NaN	0.000000	0.001541	0.001611	28.0797	0.087021	0.002023	43.0128	129.955	-166.176	-0.036322	0.841284	-0.231384	-0.232634	0.027217	43.0128	-0.231858	-428.379	-6.353404E-5	NaN
238	1.000000	0.850566	7.36738e+06	-50539.1	955.819	-29755.7	0.000000	0.000000	6.851092	-0.003787	NaN	0.000000	0.001539	0.001622	28.0797	0.107984	0.001862	57.9966	-165.417	-166.743	-0.138570	0.849261	-0.223352	-0.224657	-0.003787	57.9966	-0.223303	-313.579	1.207769E-5	NaN
238	1.000000	0.858539	7.36738e+06	-50539.1	955.82	-29755.7	0.000000	0.000000	6.859065	0.003388	NaN	0.000000	0.001554	0.001655	28.0796	0.081307	0.001877	43.3087	13.3734	-164.629	0.004533	0.857234	-0.215379	-0.216684	0.003388	43.3087	-0.215438	-234.721	-1.443267E-5	NaN
238	1.000000	0.866575	7.36738e+06	-50539.1	955.819	-29755.7	0.000000	0.000000	6.867101	-0.018615	NaN	0.000000	0.001549	0.001625	28.0796	0.023477	0.001985	11.8283	-77.468	-164.869	-0.029359	0.865255	-0.207343	-0.208663	-0.018615	11.8283	-0.206162	-166.15	0.000112	NaN
238	1.000000	0.874545	7.36738e+06	-50539.1	955.818	-29755.7	0.000000	0.000000	6.875072	0.026614	NaN	0.000000	0.001529	0.001642	28.0796	0.149203	0.001944	76.7619	158.797	-165.463	0.005886	0.873285	-0.199373	-0.200632	0.026614	76.7619	-0.199633	-129.917	-0.000205	NaN
238	1.000000	0.882587	7.36738e+06	-50539.1	955.818	-29755.7	0.000000	0.000000	6.883111	-0.062797	NaN	0.000000	0.001546	0.001639	28.0787	0.051087	0.002162	23.6334	25.5824	-167.953	-0.088930	0.881302	-0.191330	-0.192615	-0.062797	23.6334	-0.189338	-87.6909	0.000716	NaN
238	1.000000	0.890580	7.36738e+06	-50539.1	955.818	-29755.7	0.000000	0.000000	6.891107	0.009309	NaN	0.000000	0.001622	0.001618	28.0787	0.056314	0.001970	28.588	123.873	-170.863	-0.018865	0.889248	-0.183338	-0.184670	0.009309	28.588	-0.183582	-70.1787	-0.000133	NaN
238	1.000000	0.898577	7.36738e+06	-50539.1	955.818	-29755.7	0.000000	0.000000	6.899105	0.034424	NaN	0.000000	0.001581	0.001619	28.0785	0.108912	0.001971	55.244	138.251	-163.377	-0.010512	0.897211	-0.175340	-0.176707	0.034424	55.244	-0.175808	-51.7428	-0.000665	NaN
238	1.000000	0.906584	7.36738e+06	-50539.1	955.82	-29755.7	0.000000	0.000000	6.907111	0.008289	NaN	0.000000	0.001594	0.001583	28.0786	0.073456	0.001949	37.6857	-8.814888	-167.255	-0.031301	0.905282	-0.167334	-0.168636	0.008289	37.6857	-0.167499	-37.1589	-0.000223	NaN
238	1.000000	0.914596	7.36738e+06	-50539.1	955.818	-29755.7	0.000000	0.000000	6.915125	0.042538	NaN	0.000000	0.001645	0.001609	28.0786	0.021212	0.002122	9.997441	116.652	-166.318	0.004696	0.913279	-0.159321	-0.160639	0.042538	9.997441	-0.162512	-30.3736	-0.001400	NaN
238	1.000000	0.922594	7.36738e+06	-50539.1	955.818	-29755.7	0.000000	0.000000	6.923123	0.059990	NaN	0.000000	0.001618	0.001634	28.0784	0.091247	0.001873	48.72	96.107	-166.308	0.050223	0.921291	-0.151323	-0.152627	0.059990	48.72	-0.152247	-19.9002	-0.003015	NaN
238	1.000000	0.930591	7.36738e+06	-50539.1	955.819	-29755.7	0.000000	0.000000	6.931118	0.029392	NaN	0.000000	0.001556	0.001608	28.0786	0.094201	0.001981	47.5464	-160.282	-162.194	0.039797	0.929291	-0.143327	-0.144627	0.029392	47.5464	-0.143791	-13.9238	-0.002111	NaN
238	1.000000	0.938594	7.36738e+06	-50539.1	955.818	-29755.7	0.000000	0.000000	6.939120	-0.007235	NaN	0.000000	0.001543	0.001632	28.0787	0.106316	0.001952	54.4747	22.211	-169.363	-0.033849	0.937267	-0.135324	-0.136650	-0.007235	54.4747	-0.135224	-9.606620	0.000753	NaN
238	1.000000	0.946586	7.36738e+06	-50539.1	955.819	-29755.7	0.000000	0.000000	6.947111	-0.036879	NaN	0.000000	0.001587	0.001637	28.0786	0.033784	0.002045	16.5168	36.3286	-166.511	-0.029682	0.945289	-0.127332	-0.128629	-0.036879	16.5168	-0.125657	-6.265835	0.005886	NaN
238	1.000000	0.954599	7.36738e+06	-50539.1	955.818	-29755.7	0.000000	0.000000	6.955124	-0.045982	NaN	0.000000	0.001603	0.001618	28.0786	0.052979	0.001982	26.7234	-10.4773	-169.146	-0.052820	0.953262	-0.119319	-0.120655	-0.045982	26.7234	-0.118028	-4.406781	0.010434	NaN
238	1.000000	0.962614	7.36738e+06	-50539.1	955.818	-29755.7	0.000000	0.000000	6.963143	0.048464	NaN	0.000000	0.001641	0.001617	28.0784	0.097930	0.001962	49.9039	25.2883	-162.505	-0.009132	0.961283	-0.111304	-0.112634	0.048464	49.9039	-0.112032	-3.315258	-0.014618	NaN
238	1.000000	0.970610	7.36738e+06	-50539.1	955.818	-29755.7	0.000000	0.000000	6.971135	-0.051039	NaN	0.000000	0.001627	0.001620	28.0785	0.123536	0.001918	64.4037	-169.536	-166.821	-0.045571	0.969234	-0.103308	-0.104684	-0.051039	64.4037	-0.102713	-2.096474	0.024345	NaN
238	1.000000	0.978629	7.36738e+06	-50539.1	955.819	-29755.7	0.000000	0.000000	6.979155	-0.011962	NaN	0.000000	0.001641	0.001656	28.0786	0.054898	0.001963	27.9713	8.897561	-165.723	-0.086948	0.977356	-0.095289	-0.096562	-0.011962	27.9713	-0.094968	-1.408296	0.008494	NaN
238	1.000000	0.986621	7.36738e+06	-50539.1	955.819	-29755.7	0.000000	0.000000	6.987148	0.011573	NaN	0.000000	0.001605	0.001637	28.0786	0.044202	0.002108	20.9656	160.449	-163.873	-0.038586	0.985284	-0.087297	-0.088634	0.011573	20.9656	-0.087711	-0.954388	-0.012126	NaN
238	1.000000	0.994635	7.36738e+06	-50539.1	955.819	-29755.7	0.000000	0.000000	6.995162	0.004712	NaN	0.000000	0.001596	0.001672	28.0786	0.032358	0.002131	15.1842	101.036	-166.98	-0.053397	0.993305	-0.079283	-0.080612	0.004712	15.1842	-0.079516	-0.601938	-0.007828	NaN
238	1.000000	1.002630	7.36738e+06	-50539.1	955.819	-29755.7	0.000000	0.000000	7.003154	-0.060782	NaN	0.000000	0.001549	0.001670	28.0785	0.087958	0.002144	41.027	-7.950898	-167.548	-0.026266	1.001262	-0.071288	-0.072656	-0.060782	41.027	-0.070176	-0.344837	0.176263	NaN
238	1.000000	1.010644	7.36738e+06	-50539.1	955.818	-29755.7	0.000000	0.000000	7.011172	0.026545	NaN	0.000000	0.001592	0.001693	28.0785	0.129449	0.002120	61.0465	109.481	-163.086	0.019424	1.009298	-0.063274	-0.064619	0.026545	61.0465	-0.063600	-0.227797	-0.116528	NaN
238	1.000000	1.018622	7.36738e+06	-50539.1	955.818	-29755.7	0.000000	0.000000	7.019148	-0.017927	NaN	0.000000	0.001574	0.001669	28.0796	0.109352	0.001987	55.0225	75.288	-165.999	-0.007108	1.017299	-0.055295	-0.056618	-0.017927	55.0225	-0.055051	-0.129227	0.138725	NaN
238	1.000000	1.026625	7.36738e+06	-50539.1	955.817	-29755.7	0.000000	0.000000	7.027155	0.061564	NaN	0.000000	0.001549	0.001686	28.0798	0.037347	0.002117	17.643	-169.802	-165.575	0.007629	1.025284	-0.047292	-0.048634	0.061564	17.643	-0.049909	-0.090676	-0.678945	NaN
238	1.000000	1.034660	7.36738e+06	-50539.1	955.818	-29755.7	0.000000	0.000000	7.035187	0.009680	NaN	0.000000	0.001573	0.001686	28.0798	0.065126	0.002120	30.7127	-4.542067	-166.931	0.036698	1.033290	-0.039258	-0.040628	0.009680	30.7127	-0.039494	-0.043653	-0.221757	NaN
238	1.000000	1.042634	7.36738e+06	-50539.1	955.818	-29755.7	0.000000	0.000000	7.043162	0.040607	NaN	0.000000	0.001559	0.001644	28.0796	0.075664	0.001889	40.0473	165.45	-165.879	-0.031848	1.041367	-0.031284	-0.032551	0.040607	40.0473	-0.032044	-0.026282	-1.545010	NaN
238	1.000000	1.050631	7.36738e+06	-50539.1	955.819	-29755.7	0.000000	0.000000	7.051155	-0.077042	NaN	0.000000	0.001553	0.001610	28.0796	0.041489	0.001815	22.8631	-140.919	-163.917	-0.058602	1.049312	-0.023286	-0.024605	-0.077042	22.8631	-0.020759	-0.013132	5.866880	NaN
238	1.000000	1.058651	7.36738e+06	-50539.1	955.819	-29755.7	0.000000	0.000000	7.059180	0.058713	NaN	0.000000	0.001551	0.001669	28.0798	0.111044	0.002016	55.0779	75.0645	-166.809	-0.004603	1.057304	-0.015267	-0.016614	0.058713	55.0779	-0.016066	-0.009924	-5.916195	NaN
238	1.000000	1.066633	7.36738e+06	-50539.1	955.818	-29755.7	0.000000	0.000000	7.067156	-0.088962	NaN	0.000000	0.001550	0.001642	28.0799	0.108972	0.002017	54.0333	-130.376	-166.003	-0.102032	1.065365	-0.007285	-0.008553	-0.088962	54.0333	-0.006050	-0.004067	21.8751	NaN
238	1.000000	1.074628	7.36738e+06	-50539.1	955.818	-29755.7	0.000000	0.000000	7.075191	0.871799	NaN	0.000000	0.001532	0.001636	28.0797	1.366599	0.001861	734.522	7.952455	-163.331	0.184255	1.073257	0.000711	-0.000660	0.871799	734.522	-0.000179	-0.000134	-6524.11	NaN
238	2.000000	1.081179	7.36738e+06	-50539.1	955.818	-29755.7	0.000000	0.000000	7.082161	11.063	NaN	0.000000	0.001565	0.001636	28.0796	10.2338	0.001541	6640.99	5.299631	-171.757	10.7315	1.080772	0.007261	0.006855	11.063	6640.99	0.006012	0.005076	2179.45	85161.4
238	2.000000	1.083200	7.36738e+06	-50539.1	955.819	-29755.7	0.000000	0.000000	7.084344	15.0222	NaN	0.000000	0.001579	0.001629	28.0796	12.0599	0.001431	8429.02	4.973375	-174.779	13.9592	1.082812	0.009282	0.008895	15.0222	8429.02	0.007946	0.006987	2150.13	92133.2
238	2.000000	1.085126	7.36738e+06	-50539.1	955.818	-29755.7	0.000000	0.000000	7.086401	18.1844	NaN	0.000000	0.001520	0.001621	28.0797	14.8682	0.001584	9385.65	5.548460	-175.712	17.3067	1.084809	0.011209	0.010891	18.1844	9385.65	0.009756	0.008911	2040.65	90839
238	2.000000	1.087221	7.36738e+06	-50539.1	955.817	-29755.7	0.000000	0.000000	7.088669	22.4232	NaN	0.000000	0.001544	0.001676	28.0798	17.2812	0.001634	10577	8.131061	-174.866	23.6362	1.086826	0.013303	0.012908	22.4232	10577	0.011713	0.011148	2011.42	91524.5
238	2.000000	1.089106	7.36738e+06	-50539.1	955.819	-29755.7	0.000000	0.000000	7.090721	26.4702	NaN	0.000000	0.001591	0.001655	28.0799	19.5205	0.001724	11322.8	6.010432	-176.111	24.6828	1.088730	0.015189	0.014812	26.4702	11322.8	0.013435	0.013255	1997	89854
238	2.000000	1.091126	7.36738e+06	-50539.1	955.819	-29755.7	0.000000	0.000000	7.092789	27.6363	NaN	0.000000	0.001608	0.001645	28.0797	22.4437	0.001824	12305.2	8.127011	-179.625	26.6546	1.090877	0.017208	0.016959	27.6363	12305.2	0.015524	0.015990	1728.31	88906
238	2.000000	1.093093	7.36738e+06	-50539.1	955.818	-29755.7	0.000000	0.000000	7.095055	34.898	NaN	0.000000	0.001583	0.001643	28.0797	24.4491	0.001712	14279.6	10.9182	177.36	34.7957	1.092842	0.019176	0.018924	34.898	14279.6	0.017343	0.018537	1882.58	95822.2
238	2.000000	1.095066	7.36738e+06	-50539.1	955.819	-29755.7	0.000000	0.000000	7.097180	38.6002	NaN	0.000000	0.001558	0.001646	28.0797	25.4695	0.001703	14951.6	2.548975	-174.36	37.9391	1.094820	0.021148	0.020902	38.6002	14951.6	0.019212	0.021319	1810.62	93557.8
238	2.000000	1.097168	7.36738e+06	-50539.1	955.819	-29755.7	0.000000	0.000000	7.099542	44.9065	NaN	0.000000	0.001539	0.001644	28.0796	28.771	0.001773	16223.4	9.188224	178.708	45.4357	1.096735	0.023251	0.022818	44.9065	16223.4	0.021175	0.024422	1838.79	94847.7
238	2.000000	1.099096	7.36738e+06	-50539.1	955.82	-29755.7	0.000000	0.000000	7.101711	50.7909	NaN	0.000000	0.001566	0.001653	28.0789	30.6655	0.001828	16771.4	4.662000	-178.068	50.409	1.098782	0.025179	0.024865	50.7909	16771.4	0.022907	0.027318	1859.24	92707.9
238	2.000000	1.101125	7.36738e+06	-50539.1	955.819	-29755.7	0.000000	0.000000	7.103961	56.1529	NaN	0.000000	0.001528	0.001645	28.0784	33.7451	0.001884	17912.9	8.630859	177.478	56.5648	1.100780	0.027207	0.026863	56.1529	17912.9	0.024856	0.030755	1825.82	93321.7
238	2.000000	1.103043	7.36738e+06	-50539.1	955.82	-29755.7	0.000000	0.000000	7.105982	58.6595	NaN	0.000000	0.001546	0.001641	28.0786	34.0977	0.001760	19373.4	4.636778	179.912	55.6573	1.102677	0.029125	0.028760	58.6595	19373.4	0.026854	0.034476	1701.48	95328.8
238	2.000000	1.105048	7.36738e+06	-50539.1	955.819	-29755.7	0.000000	0.000000	7.108248	65.0056	NaN	0.000000	0.001575	0.001623	28.0785	37.403	0.001876	19942.4	7.833409	176.464	63.8518	1.104739	0.031130	0.030822	65.0056	19942.4	0.028686	0.038063	1707.83	93389.2
238	2.000000	1.107098	7.36738e+06	-50539.1	955.82	-29755.7	0.000000	0.000000	7.110551	71.1614	NaN	0.000000	0.001554	0.001644	28.0785	38.5426	0.001794	21485.7	5.094723	179.228	69.8422	1.106727	0.033181	0.032810	71.1614	21485.7	0.030697	0.042200	1686.3	95558.1
238	2.000000	1.109126	7.36738e+06	-50539.1	955.82	-29755.7	0.000000	0.000000	7.112788	76.2635	NaN	0.000000	0.001508	0.001656	28.0785	40.2651	0.001731	23262.4	6.053596	177.691	78.0628	1.108752	0.035208	0.034835	76.2635	23262.4	0.032749	0.046635	1635.33	98417.1
238	2.000000	1.111071	7.36738e+06	-50539.1	955.82	-29755.7	0.000000	0.000000	7.114961	81.7969	NaN	0.000000	0.001546	0.001660	28.0787	43.3059	0.001848	23436.2	5.657897	177.684	81.4981	1.110793	0.037153	0.036875	81.7969	23436.2	0.034535	0.050670	1614.32	95123.2
238	2.000000	1.113076	7.36738e+06	-50539.1	955.82	-29755.7	0.000000	0.000000	7.117444	93.4091	NaN	0.000000	0.001566	0.001659	28.0793	44.3605	0.001765	25140.5	4.588990	178.012	92.9114	1.112754	0.039159	0.038836	93.4091	25140.5	0.036372	0.054989	1698.68	97950.8
238	2.000000	1.115006	7.36738e+06	-50539.1	955.82	-29755.7	0.000000	0.000000	7.119727	101.998	NaN	0.000000	0.001536	0.001643	28.0788	47.4757	0.001869	25400.8	5.287804	176.851	99.8208	1.114710	0.041088	0.040792	101.998	25400.8	0.038076	0.059151	1724.36	95419.7
238	2.000000	1.117122	7.36738e+06	-50539.1	955.82	-29755.7	0.000000	0.000000	7.122353	114.382	NaN	0.000000	0.001511	0.001653	28.0787	49.823	0.001834	27163.8	9.024475	174.591	114.303	1.116672	0.043205	0.042754	114.382	27163.8	0.040047	0.064149	1783.07	97987.2
238	2.000000	1.119047	7.36738e+06	-50539.1	955.82	-29755.7	0.000000	0.000000	7.124631	122.978	NaN	0.000000	0.001531	0.001608	28.0787	51.1314	0.001803	28356.1	6.659745	174.478	121.822	1.118708	0.045130	0.044790	122.978	28356.1	0.041877	0.068969	1783.09	98649.2
238	2.000000	1.120968	7.36738e+06	-50539.1	955.819	-29755.7	0.000000	0.000000	7.127169	137.986	NaN	0.000000	0.001545	0.001627	28.0786	53.3626	0.001783	29924.3	4.536022	176.391	133.905	1.120816	0.047051	0.046899	137.986	29924.3	0.043592	0.073641	1873.76	100748
238	2.000000	1.123120	7.36738e+06	-50539.1	955.82	-29755.7	0.000000	0.000000	7.129756	148.579	NaN	0.000000	0.001552	0.001636	28.079	54.918	0.001788	30719.4	9.216126	171.731	150.737	1.122594	0.049202	0.048676	148.579	30719.4	0.045575	0.079227	1875.37	99712.6
238	2.000000	1.125065	7.36738e+06	-50539.1	955.819	-29755.7	0.000000	0.000000	7.132200	160.72	NaN	0.000000	0.001573	0.001645	28.0789	57.2928	0.001800	31822.2	7.013403	173.647	160.295	1.124703	0.051147	0.050785	160.72	31822.2	0.047359	0.084426	1903.68	100061
238	2.000000	1.127084	7.36738e+06	-50539.1	955.819	-29755.7	0.000000	0.000000	7.134810	175.095	NaN	0.000000	0.001585	0.001663	28.0787	59.5457	0.001801	33056.5	6.659198	174.766	174.311	1.126638	0.053166	0.052720	175.095	33056.5	0.049193	0.089936	1946.89	100708
238	2.000000	1.129023	7.36738e+06	-50539.1	955.819	-29755.7	0.000000	0.000000	7.137440	191.867	NaN	0.000000	0.001572	0.001654	28.0786	60.453	0.001853	32632.6	3.716569	177.213	190.703	1.128658	0.055106	0.054740	191.867	32632.6	0.050696	0.094576	2028.7	96947
238	2.000000	1.130997	7.36738e+06	-50539.1	955.821	-29755.7	0.000000	0.000000	7.139806	201.408	NaN	0.000000	0.001574	0.001634	28.0786	62.9467	0.001786	35238.6	2.748545	177.363	199.247	1.130737	0.057080	0.056819	201.408	35238.6	0.052793	0.101241	1989.38	101184
238	2.000000	1.132948	7.36738e+06	-50539.1	955.82	-29755.7	0.000000	0.000000	7.142601	221.931	NaN	0.000000	0.001559	0.001658	28.0794	64.7058	0.001806	35828.2	6.801310	172.853	216.143	1.132636	0.059030	0.058719	221.931	35828.2	0.054385	0.106446	2084.93	100331
238	2.000000	1.135019	7.36738e+06	-50539.1	955.818	-29755.7	0.000000	0.000000	7.144760	224.07	NaN	0.000000	0.001562	0.001628	28.0799	66.0014	0.001661	39731.1	2.042283	176.622	223.192	1.134745	0.061102	0.060827	224.07	39731.1	0.056872	0.114831	1951.3	107121
238	2.000000	1.137060	7.36738e+06	-50539.1	955.82	-29755.7	0.000000	0.000000	7.147810	248.618	NaN	0.000000	0.001552	0.001645	28.0798	69.2829	0.001763	39294.6	5.550259	175.073	248.547	1.136583	0.063143	0.062666	248.618	39294.6	0.058397	0.120124	2069.68	103584
238	2.000000	1.138984	7.36738e+06	-50539.1	955.82	-29755.7	0.000000	0.000000	7.150363	263.93	NaN	0.000000	0.001602	0.001665	28.0799	71.2916	0.001694	42084.2	7.307463	171.543	261.251	1.138557	0.065066	0.064640	263.93	42084.2	0.060362	0.127111	2076.38	107845
238	2.000000	1.141017	7.36738e+06	-50539.1	955.82	-29755.7	0.000000	0.000000	7.152999	278.58	NaN	0.000000	0.001621	0.001623	28.0798	74.8442	0.001900	39384.8	6.783683	172.55	276.315	1.140598	0.067099	0.066680	278.58	39384.8	0.061794	0.132320	2105.35	98921.2
238	2.000000	1.143014	7.36738e+06	-50539.1	955.82	-29755.7	0.000000	0.000000	7.155929	301.271	NaN	0.000000	0.001595	0.001630	28.0801	74.588	0.001709	43646.6	5.040978	173.565	301.263	1.142643	0.069096	0.068725	301.271	43646.6	0.063919	0.140235	2148.33	106487
238	2.000000	1.144919	7.36738e+06	-50539.1	955.82	-29755.7	0.000000	0.000000	7.158187	309.847	NaN	0.000000	0.001594	0.001653	28.0798	78.7697	0.001795	43880.8	5.971106	172.429	304.652	1.144626	0.071001	0.070708	309.847	43880.8	0.065705	0.147058	2106.98	104545
238	2.000000	1.147026	7.36738e+06	-50539.1	955.82	-29755.7	0.000000	0.000000	7.161186	331.535	NaN	0.000000	0.001609	0.001640	28.0799	80.1135	0.001884	42529.3	2.819856	176.427	328.515	1.146615	0.073109	0.072697	331.535	42529.3	0.067262	0.153129	2165.07	99296.2
238	2.000000	1.149024	7.36738e+06	-50539.1	955.82	-29755.7	0.000000	0.000000	7.164056	352.741	NaN	0.000000	0.001621	0.001664	28.0803	82.2573	0.001808	45497.3	6.101919	171.543	350.811	1.148632	0.075106	0.074714	352.741	45497.3	0.069292	0.161218	2187.97	103526
238	2.000000	1.151064	7.36738e+06	-50539.1	955.82	-29755.7	0.000000	0.000000	7.166821	370.363	NaN	0.000000	0.001630	0.001635	28.0797	84.4798	0.001794	47097.4	8.185793	170.113	373.553	1.150603	0.077146	0.076686	370.363	47097.4	0.071249	0.169204	2188.86	104608
238	2.000000	1.152971	7.36738e+06	-50539.1	955.82	-29755.7	0.000000	0.000000	7.169463	388.255	NaN	0.000000	0.001594	0.001662	28.08	84.9934	0.001842	46151.6	5.223681	173.277	385.203	1.152633	0.079053	0.078715	388.255	46151.6	0.072744	0.175429	2213.18	100672
238	2.000000	1.154960	7.36738e+06	-50539.1	955.82	-29755.7	0.000000	0.000000	7.172049	402.765	NaN	0.000000	0.001559	0.001647	28.0796	88.1394	0.001866	47236.6	5.406755	171.999	399.588	1.154692	0.081042	0.080775	402.765	47236.6	0.074647	0.183504	2194.86	100746
238	2.000000	1.157034	7.36738e+06	-50539.1	955.82	-29755.7	0.000000	0.000000	7.174977	423.531	NaN	0.000000	0.001579	0.001659	28.08	90.1676	0.001765	51095.9	5.485604	172.318	423.185	1.156619	0.083117	0.082701	423.531	51095.9	0.076900	0.193284	2191.24	106185
238	2.000000	1.158998	7.36738e+06	-50539.1	955.819	-29755.7	0.000000	0.000000	7.177709	442.2	NaN	0.000000	0.001586	0.001654	28.0799	91.822	0.001805	50859.7	7.988234	168.465	442.46	1.158696	0.085081	0.084779	442.2	50859.7	0.078560	0.200641	2203.93	103738
238	2.000000	1.160995	7.36738e+06	-50539.1	955.82	-29755.7	0.000000	0.000000	7.180458	460.516	NaN	0.000000	0.001618	0.001674	28.0796	93.8174	0.001817	51639.1	5.535832	171.334	457.726	1.160672	0.087077	0.086755	460.516	51639.1	0.080388	0.208895	2204.53	103226
238	2.000000	1.162994	7.36738e+06	-50539.1	955.82	-29755.7	0.000000	0.000000	7.183484	485.476	NaN	0.000000	0.001583	0.001669	28.0798	93.9832	0.001751	53671	5.924732	170.8	484.04	1.162667	0.089076	0.088750	485.476	53671	0.082292	0.217654	2230.49	105107
238	2.000000	1.164958	7.36738e+06	-50539.1	955.82	-29755.7	0.000000	0.000000	7.186321	506.708	NaN	0.000000	0.001607	0.001662	28.0798	97.4725	0.001778	54825	8.945869	167.437	503.877	1.164664	0.091040	0.090746	506.708	54825	0.084108	0.226167	2240.42	105326
238	2.000000	1.166996	7.36738e+06	-50539.1	955.82	-29755.7	0.000000	0.000000	7.189234	527.968	NaN	0.000000	0.001618	0.001654	28.0798	98.7984	0.001773	55708.8	5.621258	171.137	524.348	1.166571	0.093079	0.092653	527.968	55708.8	0.085971	0.235053	2246.16	104982
238	2.000000	1.168971	7.36738e+06	-50539.1	955.82	-29755.7	0.000000	0.000000	7.192194	551.923	NaN	0.000000	0.001587	0.001623	28.0788	99.571	0.001725	57734.4	2.389304	173.881	548.381	1.168574	0.095053	0.094657	551.923	57734.4	0.087884	0.244349	2258.75	106709
238	2.000000	1.171023	7.36738e+06	-50539.1	955.82	-29755.7	0.000000	0.000000	7.194918	568.263	NaN	0.000000	0.001545	0.001652	28.0786	103.142	0.001733	59525.4	5.704202	170.162	566.874	1.170735	0.097106	0.096817	568.263	59525.4	0.089946	0.254557	2232.36	107791
238	2.000000	1.172924	7.36738e+06	-50539.1	955.819	-29755.7	0.000000	0.000000	7.197489	584.558	NaN	0.000000	0.001606	0.001641	28.0785	103.862	0.001782	58298.9	7.793146	168.271	580.237	1.172583	0.099006	0.098665	584.558	58298.9	0.091486	0.262311	2228.5	103998
238	2.000000	1.174878	7.36738e+06	-50539.1	955.819	-29755.7	0.000000	0.000000	7.200511	610.547	NaN	0.000000	0.001601	0.001629	28.0785	107.091	0.001807	59267.8	6.827186	169.285	603.854	1.174601	0.100960	0.100683	610.547	59267.8	0.093234	0.271240	2250.95	103972
238	2.000000	1.176978	7.36738e+06	-50539.1	955.82	-29755.7	0.000000	0.000000	7.203965	643.474	NaN	0.000000	0.001583	0.001643	28.0789	108.411	0.001817	59678.1	1.776267	174.784	640.696	1.176606	0.103060	0.102688	643.474	59678.1	0.094973	0.280264	2295.95	102992
238	2.000000	1.178910	7.36738e+06	-50539.1	955.819	-29755.7	0.000000	0.000000	7.206705	663.112	NaN	0.000000	0.001610	0.001605	28.0787	109.731	0.001615	67961.9	3.881920	171.459	657.249	1.178640	0.104992	0.104722	663.112	67961.9	0.097675	0.294553	2251.25	114408