File: remote_trans/data/nanoindenter/0828-1/data/Data_2025-08-06,11h17m57s/2025-07-22_16-23-58_1_570.txt
2025-07-22, 16:23:58, 1
Index	Phase	Displacement	Time	Pos X	Pos Y	Pos Z	Rot A	Rot B	Piezo Z	Force A	Force B	Gripper	Voltage A	Voltage B	Temperature	Amplitude force	Amplitude pos	Stiffness	Phase shift	Phase excitation	Force A raw	Displacement raw	HMax	HMax raw	Real Force	Real Stiffness	Contact Depth	Area	Hardness	Reduced Mod.
[#]	[#]	[um]	[s]	[um]	[um]	[um]	[m°]	[m°]	[um]	[uN]	[uN]	[V]	[V]	[V]	[°C]	[uN]	[um]	[N/m]	[°]	[°]	[uN]	[um]	[um]	[um]	[uN]	[N/m]	[um]	[um^2]	[MPa]	[MPa]
570	1.000000	0.002656	7.37062e+06	-48589.1	1005.82	-29761.9	0.000000	0.000000	6.002827	0.041203	NaN	0.000000	0.001543	0.001787	28.0811	0.075081	0.000884	84.943	-72.6591	-167.215	-0.014576	0.001405	-1.054096	-1.055347	0.041203	84.943	-1.054460	-1.225632E+14	-3.361779E-16	NaN
570	1.000000	0.010607	7.37062e+06	-48589.1	1005.82	-29761.9	0.000000	0.000000	6.010777	-0.009436	NaN	0.000000	0.001533	0.001806	28.0806	0.050956	0.000944	54.005	135.771	-156.12	0.013124	0.009269	-1.046144	-1.047483	-0.009436	54.005	-1.046013	-9.436694E+13	9.999556E-17	NaN
570	1.000000	0.018600	7.37062e+06	-48589.1	1005.82	-29761.9	0.000000	0.000000	6.018768	-0.046624	NaN	0.000000	0.001572	0.001821	28.0805	0.108376	0.001664	65.1107	139.28	-165.307	-0.053503	0.017259	-1.038151	-1.039492	-0.046624	65.1107	-1.037614	-7.275906E+13	6.408053E-16	NaN
570	1.000000	0.026603	7.37062e+06	-48589.1	1005.82	-29761.9	0.000000	0.000000	6.026770	-0.052607	NaN	0.000000	0.001576	0.001821	28.0805	0.016760	0.001893	8.853921	-164.45	-167.657	-0.142649	0.025272	-1.030149	-1.031479	-0.052607	8.853921	-1.025693	-5.029664E+13	1.045927E-15	NaN
570	1.000000	0.034567	7.37062e+06	-48589.1	1005.82	-29761.9	0.000000	0.000000	6.034737	0.015101	NaN	0.000000	0.001542	0.001810	28.0805	0.042635	0.001807	23.5973	-35.2267	-163.852	-0.022519	0.033353	-1.022185	-1.023398	0.015101	23.5973	-1.022665	-4.579348E+13	-3.297723E-16	NaN
570	1.000000	0.042562	7.37062e+06	-48589.1	1005.82	-29761.9	0.000000	0.000000	6.042732	0.010643	NaN	0.000000	0.001566	0.001816	28.081	0.106383	0.001899	56.0185	-94.7861	-165.908	-0.013739	0.041228	-1.014190	-1.015523	0.010643	56.0185	-1.014332	-3.537440E+13	-3.008792E-16	NaN
570	1.000000	0.050590	7.37062e+06	-48589.1	1005.82	-29761.9	0.000000	0.000000	6.050759	-0.018469	NaN	0.000000	0.001531	0.001830	28.0806	0.081696	0.002001	40.8257	145.011	-162.127	0.045443	0.049272	-1.006161	-1.007480	-0.018469	40.8257	-1.005822	-2.717358E+13	6.796653E-16	NaN
570	1.000000	0.058566	7.37062e+06	-48589.1	1005.82	-29761.9	0.000000	0.000000	6.058735	-0.013474	NaN	0.000000	0.001573	0.001795	28.0805	0.027572	0.001959	14.0728	-73.9415	-166.749	0.049353	0.057247	-0.998186	-0.999505	-0.013474	14.0728	-0.997468	-2.097378E+13	6.424181E-16	NaN
570	1.000000	0.066605	7.37062e+06	-48589.1	1005.82	-29761.9	0.000000	0.000000	6.066770	-0.121966	NaN	0.000000	0.001556	0.001821	28.0807	0.110858	0.001948	56.9145	96.6174	-168.071	-0.096592	0.065292	-0.990146	-0.991460	-0.121966	56.9145	-0.988539	-1.590142E+13	7.670155E-15	NaN
570	1.000000	0.074579	7.37062e+06	-48589.1	1005.82	-29761.9	0.000000	0.000000	6.074747	-0.049987	NaN	0.000000	0.001533	0.001827	28.0807	0.084383	0.002059	40.9807	102.074	-162.566	-0.049284	0.073270	-0.982172	-0.983482	-0.049987	40.9807	-0.981257	-1.268677E+13	3.940050E-15	NaN
570	1.000000	0.082643	7.37062e+06	-48589.1	1005.82	-29761.9	0.000000	0.000000	6.082812	-0.021375	NaN	0.000000	0.001536	0.001819	28.0821	0.019653	0.001906	10.3133	-143.779	-166.447	0.020000	0.081262	-0.974109	-0.975490	-0.021375	10.3133	-0.972554	-9.684688E+12	2.207068E-15	NaN
570	1.000000	0.090588	7.37062e+06	-48589.1	1005.82	-29761.9	0.000000	0.000000	6.090757	-0.014996	NaN	0.000000	0.001507	0.001806	28.082	0.032943	0.002009	16.396	-3.681313	-166.389	-0.008805	0.089235	-0.966164	-0.967517	-0.014996	16.396	-0.965478	-7.775215E+12	1.928743E-15	NaN
570	1.000000	0.098618	7.37062e+06	-48589.1	1005.82	-29761.9	0.000000	0.000000	6.098788	0.006339	NaN	0.000000	0.001567	0.001812	28.0821	0.037194	0.001939	19.1853	-56.9632	-166.021	0.056896	0.097307	-0.958133	-0.959445	0.006339	19.1853	-0.958381	-6.238003E+12	-1.016164E-15	NaN
570	1.000000	0.106562	7.37062e+06	-48589.1	1005.82	-29761.9	0.000000	0.000000	6.106732	0.001859	NaN	0.000000	0.001566	0.001835	28.0819	0.027481	0.002075	13.2469	32.8549	-163.369	0.040859	0.105312	-0.950190	-0.951440	0.001859	13.2469	-0.950295	-4.852980E+12	-3.831354E-16	NaN
570	1.000000	0.114613	7.37062e+06	-48589.1	1005.82	-29761.9	0.000000	0.000000	6.114780	-0.077753	NaN	0.000000	0.001549	0.001829	28.0819	0.146398	0.002147	68.185	-35.7305	-163.745	0.025904	0.113297	-0.942138	-0.943454	-0.077753	68.185	-0.941283	-3.668155E+12	2.119663E-14	NaN
570	1.000000	0.122600	7.37062e+06	-48589.1	1005.82	-29761.9	0.000000	0.000000	6.122769	-0.006426	NaN	0.000000	0.001560	0.001857	28.0821	0.089121	0.002000	44.5527	-16.9242	-164.982	-0.036253	0.121261	-0.934152	-0.935490	-0.006426	44.5527	-0.934044	-2.929348E+12	2.193629E-15	NaN
570	1.000000	0.130619	7.37062e+06	-48589.1	1005.82	-29761.9	0.000000	0.000000	6.130789	0.010386	NaN	0.000000	0.001550	0.001852	28.0821	0.059087	0.001974	29.9403	143.156	-165.931	0.044973	0.129327	-0.926133	-0.927424	0.010386	29.9403	-0.926393	-2.309455E+12	-4.497334E-15	NaN
570	1.000000	0.138600	7.37062e+06	-48589.1	1005.82	-29761.9	0.000000	0.000000	6.138769	-0.019193	NaN	0.000000	0.001546	0.001805	28.0823	0.025221	0.002114	11.9294	-52.1891	-165.208	-0.020314	0.137305	-0.918151	-0.919447	-0.019193	11.9294	-0.916945	-1.721673E+12	1.114815E-14	NaN
570	1.000000	0.146619	7.37062e+06	-48589.1	1005.82	-29761.9	0.000000	0.000000	6.146793	0.103416	NaN	0.000000	0.001573	0.001787	28.0823	0.035929	0.002043	17.5896	130.362	-165.031	0.065108	0.145282	-0.910132	-0.911469	0.103416	17.5896	-0.914542	-1.597726E+12	-6.472706E-14	NaN
570	1.000000	0.154599	7.37062e+06	-48589.1	1005.82	-29761.9	0.000000	0.000000	6.154767	-0.042125	NaN	0.000000	0.001531	0.001804	28.0822	0.132386	0.001936	68.3769	-93.0567	-165.168	0.030679	0.153345	-0.902152	-0.903406	-0.042125	68.3769	-0.901690	-1.071286E+12	3.932206E-14	NaN
570	1.000000	0.162634	7.37062e+06	-48589.1	1005.82	-29761.9	0.000000	0.000000	6.162804	0.018345	NaN	0.000000	0.001566	0.001811	28.0821	0.043373	0.002069	20.9664	82.1672	-166.254	-0.074704	0.161377	-0.894118	-0.895374	0.018345	20.9664	-0.894774	-8.638573E+11	-2.123570E-14	NaN
570	1.000000	0.170609	7.37062e+06	-48589.1	1005.82	-29761.9	0.000000	0.000000	6.170778	-0.029051	NaN	0.000000	0.001538	0.001797	28.0822	0.134902	0.002030	66.4387	29.7438	-166.787	0.038014	0.169280	-0.886142	-0.887472	-0.029051	66.4387	-0.885814	-6.536256E+11	4.444663E-14	NaN
570	1.000000	0.178610	7.37062e+06	-48589.1	1005.82	-29761.9	0.000000	0.000000	6.178779	-0.000612	NaN	0.000000	0.001562	0.001778	28.0823	0.035215	0.001947	18.0878	49.5012	-166.413	0.038565	0.177315	-0.878142	-0.879437	-0.000612	18.0878	-0.878117	-5.143253E+11	1.189031E-15	NaN
570	1.000000	0.186630	7.37062e+06	-48589.1	1005.82	-29761.9	0.000000	0.000000	6.186800	0.002752	NaN	0.000000	0.001574	0.001804	28.0825	0.025636	0.002012	12.7445	11.1779	-163.4	0.060292	0.185346	-0.870122	-0.871406	0.002752	12.7445	-0.870284	-4.029779E+11	-6.828139E-15	NaN
570	1.000000	0.194615	7.37062e+06	-48589.1	1005.82	-29761.9	0.000000	0.000000	6.194786	0.028124	NaN	0.000000	0.001560	0.001789	28.0825	0.128701	0.002017	63.8135	141.154	-164.88	0.021549	0.193375	-0.862137	-0.863377	0.028124	63.8135	-0.862467	-3.158732E+11	-8.903621E-14	NaN
570	1.000000	0.202637	7.37062e+06	-48589.1	1005.82	-29761.9	0.000000	0.000000	6.202801	-0.132207	NaN	0.000000	0.001545	0.001817	28.0819	0.051084	0.001985	25.7311	92.4058	-162.908	-0.059175	0.201346	-0.854115	-0.855405	-0.132207	25.7311	-0.850261	-2.159125E+11	6.123160E-13	NaN
570	1.000000	0.210630	7.37062e+06	-48589.1	1005.82	-29761.9	0.000000	0.000000	6.210799	-0.022076	NaN	0.000000	0.001594	0.001768	28.0821	0.050421	0.001991	25.3218	-37.1318	-161.643	-0.019712	0.209334	-0.846122	-0.847418	-0.022076	25.3218	-0.845468	-1.859335E+11	1.187282E-13	NaN
570	1.000000	0.218665	7.37062e+06	-48589.1	1005.82	-29761.9	0.000000	0.000000	6.218835	-0.003620	NaN	0.000000	0.001551	0.001799	28.0817	0.035868	0.002012	17.8291	-44.8501	-166.062	0.035473	0.217308	-0.838087	-0.839444	-0.003620	17.8291	-0.837934	-1.469969E+11	2.462693E-14	NaN
570	1.000000	0.226667	7.37062e+06	-48589.1	1005.82	-29761.9	0.000000	0.000000	6.226838	0.030839	NaN	0.000000	0.001610	0.001813	28.0818	0.004574	0.002097	2.181015	-94.062	-163.233	0.045869	0.225363	-0.830084	-0.831389	0.030839	2.181015	-0.840689	-1.601869E+11	-1.925188E-13	NaN
570	1.000000	0.234648	7.37062e+06	-48589.1	1005.82	-29761.9	0.000000	0.000000	6.234818	0.018971	NaN	0.000000	0.001584	0.001796	28.0812	0.110492	0.002073	53.2893	-23.2079	-165.507	0.002996	0.233371	-0.822104	-0.823381	0.018971	53.2893	-0.822371	-9.044000E+10	-2.097687E-13	NaN
570	1.000000	0.242668	7.37062e+06	-48589.1	1005.82	-29761.9	0.000000	0.000000	6.242839	0.025284	NaN	0.000000	0.001578	0.001813	28.0808	0.064927	0.001925	33.7214	-6.496281	-165.445	-0.002663	0.241303	-0.814084	-0.815449	0.025284	33.7214	-0.814646	-7.105560E+10	-3.558316E-13	NaN
570	1.000000	0.250666	7.37062e+06	-48589.1	1005.82	-29761.9	0.000000	0.000000	6.250835	-0.033938	NaN	0.000000	0.001564	0.001787	28.0811	0.088920	0.001961	45.3455	-14.5194	-164.341	0.020693	0.249334	-0.806085	-0.807418	-0.033938	45.3455	-0.805524	-5.343611E+10	6.351221E-13	NaN
570	1.000000	0.258664	7.37062e+06	-48589.1	1005.82	-29761.9	0.000000	0.000000	6.258831	-0.053470	NaN	0.000000	0.001575	0.001792	28.0809	0.065946	0.002086	31.6164	-62.7858	-164.973	-0.019631	0.257355	-0.798088	-0.799396	-0.053470	31.6164	-0.796819	-4.070843E+10	1.313495E-12	NaN
570	1.000000	0.266652	7.37062e+06	-48589.1	1005.82	-29761.9	0.000000	0.000000	6.266823	0.023939	NaN	0.000000	0.001625	0.001794	28.0808	0.020166	0.002177	9.262816	78.3017	-164.439	-0.051890	0.265378	-0.790100	-0.791374	0.023939	9.262816	-0.792038	-3.505575E+10	-6.828886E-13	NaN
570	1.000000	0.274653	7.37062e+06	-48589.1	1005.82	-29761.9	0.000000	0.000000	6.274819	-0.069536	NaN	0.000000	0.001588	0.001828	28.0811	0.079347	0.002130	37.2567	-113.991	-164.525	0.044611	0.273359	-0.782099	-0.783393	-0.069536	37.2567	-0.780699	-2.458863E+10	2.827954E-12	NaN
570	1.000000	0.282692	7.37062e+06	-48589.1	1005.82	-29761.9	0.000000	0.000000	6.282862	-0.010814	NaN	0.000000	0.001593	0.001816	28.0808	0.071356	0.001969	36.2486	-4.985896	-162.523	-0.029189	0.281331	-0.774059	-0.775420	-0.010814	36.2486	-0.773836	-1.983581E+10	5.451985E-13	NaN
570	1.000000	0.290650	7.37062e+06	-48589.1	1005.82	-29761.9	0.000000	0.000000	6.290817	-0.063751	NaN	0.000000	0.001582	0.001797	28.081	0.031033	0.002032	15.2711	41.7225	-164.287	-0.083370	0.289405	-0.766102	-0.767347	-0.063751	15.2711	-0.762971	-1.411613E+10	4.516186E-12	NaN
570	1.000000	0.298676	7.37062e+06	-48589.1	1005.82	-29761.9	0.000000	0.000000	6.298842	-0.087916	NaN	0.000000	0.001589	0.001792	28.0809	0.188925	0.001947	97.0121	-147.288	-167.619	-0.117734	0.297393	-0.758076	-0.759358	-0.087916	97.0121	-0.757396	-1.185444E+10	7.416314E-12	NaN
570	1.000000	0.306673	7.37062e+06	-48589.1	1005.82	-29761.9	0.000000	0.000000	6.306841	-0.050116	NaN	0.000000	0.001589	0.001777	28.0811	0.131706	0.002049	64.2866	-177.184	-164.35	-0.016498	0.305389	-0.750078	-0.751363	-0.050116	64.2866	-0.749494	-9.253917E+9	5.415609E-12	NaN
570	1.000000	0.314700	7.37062e+06	-48589.1	1005.82	-29761.9	0.000000	0.000000	6.314869	-0.037613	NaN	0.000000	0.001585	0.001790	28.0811	0.068257	0.002076	32.8756	135.814	-162.671	-0.093051	0.313334	-0.742051	-0.743417	-0.037613	32.8756	-0.741193	-7.133565E+9	5.272688E-12	NaN
570	1.000000	0.322692	7.37062e+06	-48589.1	1005.82	-29761.9	0.000000	0.000000	6.322861	-0.028526	NaN	0.000000	0.001567	0.001799	28.0811	0.050826	0.001975	25.7284	-161.913	-166.668	0.028445	0.321393	-0.734059	-0.735359	-0.028526	25.7284	-0.733228	-5.556408E+9	5.133976E-12	NaN
570	1.000000	0.330710	7.37062e+06	-48589.1	1005.82	-29761.9	0.000000	0.000000	6.330879	-0.025294	NaN	0.000000	0.001574	0.001806	28.081	0.080244	0.001875	42.8063	104.319	-164.922	-0.061595	0.329363	-0.726042	-0.727389	-0.025294	42.8063	-0.725599	-4.373341E+9	5.783754E-12	NaN
570	1.000000	0.338700	7.37062e+06	-48589.1	1005.82	-29761.9	0.000000	0.000000	6.338867	-0.057575	NaN	0.000000	0.001599	0.001818	28.0809	0.027605	0.002099	13.1499	-114.379	-162.396	-0.090720	0.337460	-0.718052	-0.719291	-0.057575	13.1499	-0.714768	-3.112468E+9	1.849804E-11	NaN
570	1.000000	0.346697	7.37062e+06	-48589.1	1005.82	-29761.9	0.000000	0.000000	6.346866	-0.023496	NaN	0.000000	0.001598	0.001783	28.081	0.007350	0.001899	3.870501	19.7077	-167.37	-0.048366	0.345420	-0.710054	-0.711332	-0.023496	3.870501	-0.705502	-2.326211E+9	1.010049E-11	NaN
570	1.000000	0.354690	7.37062e+06	-48589.1	1005.82	-29761.9	0.000000	0.000000	6.354860	0.002853	NaN	0.000000	0.001543	0.001795	28.0811	0.077530	0.001909	40.616	125.68	-166.501	-0.015009	0.353374	-0.702062	-0.703378	0.002853	40.616	-0.702114	-2.091229E+9	-1.364323E-12	NaN
570	1.000000	0.362686	7.37062e+06	-48589.1	1005.82	-29761.9	0.000000	0.000000	6.362858	0.063103	NaN	0.000000	0.001568	0.001810	28.0821	0.104723	0.001846	56.7233	-56.5005	-160.691	0.116723	0.361397	-0.694066	-0.695355	0.063103	56.7233	-0.694900	-1.666759E+9	-3.785945E-11	NaN
570	1.000000	0.370722	7.37062e+06	-48589.1	1005.82	-29761.9	0.000000	0.000000	6.370886	-0.141249	NaN	0.000000	0.001584	0.001787	28.0821	0.147948	0.001978	74.7801	-101.297	-165.921	-0.139383	0.369416	-0.686030	-0.687335	-0.141249	74.7801	-0.684613	-1.205838E+9	1.171377E-10	NaN
570	1.000000	0.378716	7.37062e+06	-48589.1	1005.82	-29761.9	0.000000	0.000000	6.378884	-0.034138	NaN	0.000000	0.001593	0.001797	28.0821	0.074452	0.002038	36.5333	139.629	-166.828	-0.030628	0.377434	-0.678036	-0.679318	-0.034138	36.5333	-0.677335	-9.588553E+8	3.560244E-11	NaN
570	1.000000	0.386706	7.37062e+06	-48589.1	1005.82	-29761.9	0.000000	0.000000	6.386874	-0.033119	NaN	0.000000	0.001580	0.001782	28.082	0.093117	0.001967	47.3348	28.1946	-169.083	-0.089334	0.385379	-0.670046	-0.671373	-0.033119	47.3348	-0.669521	-7.496095E+8	4.418110E-11	NaN
570	1.000000	0.394716	7.37062e+06	-48589.1	1005.82	-29761.9	0.000000	0.000000	6.394884	-0.030361	NaN	0.000000	0.001595	0.001805	28.0823	0.031118	0.001965	15.8361	121.629	-168.284	-0.047051	0.393349	-0.662036	-0.663403	-0.030361	15.8361	-0.660598	-5.657936E+8	5.366152E-11	NaN
570	1.000000	0.402727	7.37062e+06	-48589.1	1005.82	-29761.9	0.000000	0.000000	6.402897	0.015699	NaN	0.000000	0.001557	0.001762	28.0823	0.034804	0.001967	17.6979	131.579	-161.111	0.019756	0.401429	-0.654025	-0.655322	0.015699	17.6979	-0.654690	-4.695913E+8	-3.343041E-11	NaN
570	1.000000	0.410752	7.37062e+06	-48589.1	1005.82	-29761.9	0.000000	0.000000	6.410923	0.045913	NaN	0.000000	0.001584	0.001777	28.0824	0.043473	0.002053	21.1796	-13.7147	-163.102	0.077664	0.409406	-0.646000	-0.647346	0.045913	21.1796	-0.647626	-3.757393E+8	-1.221931E-10	NaN
570	1.000000	0.418733	7.37062e+06	-48589.1	1005.82	-29761.9	0.000000	0.000000	6.418901	-0.049932	NaN	0.000000	0.001517	0.001763	28.0821	0.055104	0.002026	27.2026	-11.1188	-165.547	-0.013358	0.417422	-0.638018	-0.639330	-0.049932	27.2026	-0.636642	-2.655847E+8	1.880095E-10	NaN
570	1.000000	0.426726	7.37062e+06	-48589.1	1005.82	-29761.9	0.000000	0.000000	6.426895	-0.028701	NaN	0.000000	0.001524	0.001762	28.0821	0.130828	0.001915	68.3135	-170.182	-167.487	0.005049	0.425463	-0.630025	-0.631288	-0.028701	68.3135	-0.629710	-2.133269E+8	1.345410E-10	NaN
570	1.000000	0.434745	7.37062e+06	-48589.1	1005.82	-29761.9	0.000000	0.000000	6.434914	-0.023890	NaN	0.000000	0.001610	0.001739	28.0823	0.075221	0.001965	38.2787	-87.1393	-165.416	0.003174	0.433492	-0.622007	-0.623260	-0.023890	38.2787	-0.621539	-1.647337E+8	1.450236E-10	NaN
570	1.000000	0.442729	7.37062e+06	-48589.1	1005.82	-29761.9	0.000000	0.000000	6.442899	-0.004139	NaN	0.000000	0.001596	0.001768	28.0823	0.083530	0.002023	41.281	18.8536	-162.665	-0.011186	0.441430	-0.614022	-0.615321	-0.004139	41.281	-0.613947	-1.295420E+8	3.194918E-11	NaN
570	1.000000	0.450741	7.37062e+06	-48589.1	1005.82	-29761.9	0.000000	0.000000	6.450911	-0.010661	NaN	0.000000	0.001607	0.001775	28.0823	0.044671	0.001992	22.4304	-164.605	-164.103	-0.042792	0.449430	-0.606010	-0.607321	-0.010661	22.4304	-0.605654	-9.961030E+7	1.070291E-10	NaN
570	1.000000	0.458737	7.37062e+06	-48589.1	1005.82	-29761.9	0.000000	0.000000	6.458904	-0.073437	NaN	0.000000	0.001582	0.001754	28.0822	0.118853	0.002021	58.8125	140.17	-166.453	-0.082499	0.457450	-0.598014	-0.599302	-0.073437	58.8125	-0.597078	-7.589412E+7	9.676273E-10	NaN
570	1.000000	0.466761	7.37062e+06	-48589.1	1005.82	-29761.9	0.000000	0.000000	6.466928	-0.070880	NaN	0.000000	0.001621	0.001792	28.0823	0.101424	0.002009	50.4824	152.647	-166.692	-0.085694	0.465463	-0.589991	-0.591289	-0.070880	50.4824	-0.588938	-5.861617E+7	1.209219E-9	NaN
570	1.000000	0.474785	7.37062e+06	-48589.1	1005.82	-29761.9	0.000000	0.000000	6.474954	-0.003776	NaN	0.000000	0.001653	0.001774	28.0824	0.124518	0.002022	61.5895	-94.2137	-163.822	0.038888	0.473447	-0.581967	-0.583305	-0.003776	61.5895	-0.581921	-4.690674E+7	8.050658E-11	NaN
570	1.000000	0.482780	7.37062e+06	-48589.1	1005.82	-29761.9	0.000000	0.000000	6.482948	-0.025955	NaN	0.000000	0.001614	0.001799	28.0822	0.066601	0.002072	32.139	-76.7294	-166.508	-0.037423	0.481451	-0.573972	-0.575301	-0.025955	32.139	-0.573366	-3.573856E+7	7.262404E-10	NaN
570	1.000000	0.490744	7.37063e+06	-48589.1	1005.82	-29761.9	0.000000	0.000000	6.490914	0.009436	NaN	0.000000	0.001661	0.001790	28.0817	0.041806	0.001864	22.4238	-163.92	-164.303	-0.042873	0.489406	-0.566007	-0.567346	0.009436	22.4238	-0.566323	-2.856366E+7	-3.303553E-10	NaN
570	1.000000	0.498801	7.37063e+06	-48589.1	1005.82	-29761.9	0.000000	0.000000	6.498968	-0.058762	NaN	0.000000	0.001615	0.001800	28.0809	0.065830	0.002111	31.1821	155.997	-163.812	-0.064780	0.497402	-0.557951	-0.559350	-0.058762	31.1821	-0.556537	-2.091550E+7	2.809519E-9	NaN
570	1.000000	0.506780	7.37063e+06	-48589.1	1005.82	-29761.9	0.000000	0.000000	6.506947	-0.058666	NaN	0.000000	0.001615	0.001817	28.0808	0.060195	0.002003	30.0484	34.2641	-165.956	-0.058603	0.505441	-0.549972	-0.551310	-0.058666	30.0484	-0.548507	-1.619128E+7	3.623322E-9	NaN
570	1.000000	0.514764	7.37063e+06	-48589.1	1005.82	-29761.9	0.000000	0.000000	6.514933	-0.038264	NaN	0.000000	0.001626	0.001795	28.0807	0.093940	0.001969	47.7011	-161.771	-164.555	-0.062228	0.513411	-0.541987	-0.543340	-0.038264	47.7011	-0.541386	-1.289951E+7	2.966328E-9	NaN
570	1.000000	0.522763	7.37063e+06	-48589.1	1005.82	-29761.9	0.000000	0.000000	6.522931	-0.029705	NaN	0.000000	0.001622	0.001811	28.0804	0.066300	0.001892	35.0397	-151.367	-165.584	-0.055584	0.521499	-0.533989	-0.535253	-0.029705	35.0397	-0.533353	-9.98003e+06	2.976434E-9	NaN
570	1.000000	0.530761	7.37063e+06	-48589.1	1005.82	-29761.9	0.000000	0.000000	6.530931	-0.004864	NaN	0.000000	0.001568	0.001809	28.0804	0.097834	0.001791	54.6394	165.864	-166.187	-0.025250	0.529467	-0.525991	-0.527285	-0.004864	54.6394	-0.525924	-7.86955e+06	6.180861E-10	NaN
570	1.000000	0.538773	7.37063e+06	-48589.1	1005.82	-29761.9	0.000000	0.000000	6.538943	0.002903	NaN	0.000000	0.001595	0.001801	28.0807	0.059954	0.001922	31.1963	-104.436	-163.935	-0.022919	0.537493	-0.517978	-0.519259	0.002903	31.1963	-0.518048	-6.11573e+06	-4.747510E-10	NaN
570	1.000000	0.546825	7.37063e+06	-48589.1	1005.82	-29761.9	0.000000	0.000000	6.546995	0.024964	NaN	0.000000	0.001627	0.001773	28.0807	0.102259	0.002148	47.6071	33.8018	-166.17	-0.023369	0.545457	-0.509927	-0.511295	0.024964	47.6071	-0.510320	-4.77395e+06	-5.229157E-9	NaN
570	1.000000	0.554837	7.37063e+06	-48589.1	1005.82	-29761.9	0.000000	0.000000	6.555005	-0.029605	NaN	0.000000	0.001624	0.001775	28.0807	0.088548	0.002049	43.2045	69.6036	-167.37	-0.081801	0.553523	-0.501915	-0.503228	-0.029605	43.2045	-0.501401	-3.58557e+06	8.256722E-9	NaN
570	1.000000	0.562794	7.37063e+06	-48589.1	1005.82	-29761.9	0.000000	0.000000	6.562964	-0.008364	NaN	0.000000	0.001553	0.001797	28.0804	0.071272	0.002003	35.5849	-145.02	-163.782	-0.064781	0.561518	-0.493957	-0.495234	-0.008364	35.5849	-0.493781	-2.8068e+06	2.979812E-9	NaN
570	1.000000	0.570800	7.37063e+06	-48589.1	1005.82	-29761.9	0.000000	0.000000	6.570970	0.028176	NaN	0.000000	0.001568	0.001800	28.0804	0.081243	0.002069	39.2597	-9.959200	-163.822	-0.046726	0.569515	-0.485952	-0.487237	0.028176	39.2597	-0.486490	-2.2199e+06	-1.269225E-8	NaN
570	1.000000	0.578805	7.37063e+06	-48589.1	1005.82	-29761.9	0.000000	0.000000	6.578975	-0.004755	NaN	0.000000	0.001532	0.001783	28.0805	0.053307	0.002005	26.5828	64.2414	-165.348	0.025628	0.577486	-0.477947	-0.479265	-0.004755	26.5828	-0.477812	-1.67841e+06	2.833068E-9	NaN
570	1.000000	0.586783	7.37063e+06	-48589.1	1005.82	-29761.9	0.000000	0.000000	6.586953	0.005466	NaN	0.000000	0.001528	0.001762	28.0804	0.084045	0.002074	40.5277	179.874	-165.73	-0.026840	0.585502	-0.469968	-0.471249	0.005466	40.5277	-0.470070	-1.30733e+06	-4.181021E-9	NaN
570	1.000000	0.594845	7.37063e+06	-48589.1	1005.82	-29761.9	0.000000	0.000000	6.595012	-0.074625	NaN	0.000000	0.001565	0.001727	28.0806	0.038999	0.002037	19.1412	116.759	-166.766	-0.085017	0.593541	-0.461907	-0.463210	-0.074625	19.1412	-0.458983	-913525	8.168874E-8	NaN
570	1.000000	0.602808	7.37063e+06	-48589.1	1005.82	-29761.9	0.000000	0.000000	6.602977	-0.010109	NaN	0.000000	0.001537	0.001771	28.0808	0.081495	0.002078	39.2207	-129.534	-167.439	-0.055049	0.601501	-0.453944	-0.455251	-0.010109	39.2207	-0.453751	-771152	1.310911E-8	NaN
570	1.000000	0.610832	7.37063e+06	-48589.1	1005.82	-29761.9	0.000000	0.000000	6.611000	-0.050412	NaN	0.000000	0.001646	0.001780	28.0805	0.085293	0.001971	43.2789	34.3528	-164.286	-0.053581	0.609514	-0.445920	-0.447238	-0.050412	43.2789	-0.445046	-581489	8.669487E-8	NaN
570	1.000000	0.618801	7.37063e+06	-48589.1	1005.82	-29761.9	0.000000	0.000000	6.618969	-0.028718	NaN	0.000000	0.001612	0.001758	28.0807	0.194650	0.001881	103.472	-120.404	-165.549	-0.035471	0.617538	-0.437951	-0.439214	-0.028718	103.472	-0.437743	-458666	6.261259E-8	NaN
570	1.000000	0.626808	7.37063e+06	-48589.1	1005.82	-29761.9	0.000000	0.000000	6.626976	-0.056366	NaN	0.000000	0.001641	0.001784	28.0806	0.067517	0.001936	34.8726	48.2225	-169.43	-0.066224	0.625572	-0.429943	-0.431180	-0.056366	34.8726	-0.428731	-342064	1.647809E-7	NaN
570	1.000000	0.634834	7.37063e+06	-48589.1	1005.82	-29761.9	0.000000	0.000000	6.635003	-0.029853	NaN	0.000000	0.001641	0.001804	28.0818	0.071450	0.001956	36.532	146.217	-163.704	-0.033449	0.633525	-0.421917	-0.423227	-0.029853	36.532	-0.421304	-268480	1.111915E-7	NaN
570	1.000000	0.642815	7.37063e+06	-48589.1	1005.82	-29761.9	0.000000	0.000000	6.642985	-0.010296	NaN	0.000000	0.001632	0.001777	28.0819	0.074618	0.002010	37.1239	-14.179	-163.237	0.029959	0.641518	-0.413936	-0.415233	-0.010296	37.1239	-0.413728	-209601	4.912134E-8	NaN
570	1.000000	0.650840	7.37063e+06	-48589.1	1005.82	-29761.9	0.000000	0.000000	6.651006	-0.070135	NaN	0.000000	0.001632	0.001762	28.082	0.110217	0.001986	55.4937	113.767	-165.565	-0.059986	0.649540	-0.405912	-0.407212	-0.070135	55.4937	-0.404964	-157304	4.458557E-7	NaN
570	1.000000	0.658845	7.37063e+06	-48589.1	1005.82	-29761.9	0.000000	0.000000	6.659013	-0.051335	NaN	0.000000	0.001656	0.001789	28.082	0.016414	0.002086	7.869273	34.0202	-164.7	-0.019035	0.657477	-0.397906	-0.399274	-0.051335	7.869273	-0.393014	-106233	4.832283E-7	NaN
570	1.000000	0.666859	7.37063e+06	-48589.1	1005.82	-29761.9	0.000000	0.000000	6.667023	-0.122371	NaN	0.000000	0.001624	0.001752	28.0817	0.077566	0.001959	39.5909	-103.358	-163.007	-0.040478	0.665524	-0.389893	-0.391227	-0.122371	39.5909	-0.387575	-88810.2	1.377897E-6	NaN
570	1.000000	0.674861	7.37063e+06	-48589.1	1005.82	-29761.9	0.000000	0.000000	6.675033	0.072120	NaN	0.000000	0.001592	0.001821	28.0818	0.067881	0.001967	34.5043	-71.7772	-165.762	0.085897	0.673541	-0.381891	-0.383211	0.072120	34.5043	-0.383459	-77535	-9.301642E-7	NaN
570	1.000000	0.682841	7.37063e+06	-48589.1	1005.82	-29761.9	0.000000	0.000000	6.683008	-0.060620	NaN	0.000000	0.001594	0.001814	28.0818	0.088144	0.001906	46.249	46.7201	-162.985	-0.023542	0.681554	-0.373911	-0.375198	-0.060620	46.249	-0.372928	-54735.3	1.107507E-6	NaN
570	1.000000	0.690838	7.37063e+06	-48589.1	1005.82	-29761.9	0.000000	0.000000	6.691005	-0.065787	NaN	0.000000	0.001606	0.001798	28.0819	0.084235	0.001861	45.266	122.329	-165.488	-0.094757	0.689503	-0.365914	-0.367248	-0.065787	45.266	-0.364824	-41832.1	1.572650E-6	NaN
570	1.000000	0.698836	7.37063e+06	-48589.1	1005.82	-29761.9	0.000000	0.000000	6.699005	-0.016385	NaN	0.000000	0.001608	0.001795	28.0822	0.109960	0.001957	56.1759	-172.144	-162.095	0.015824	0.697606	-0.357915	-0.359145	-0.016385	56.1759	-0.357697	-33001.5	4.964997E-7	NaN
570	1.000000	0.706847	7.37063e+06	-48589.1	1005.82	-29761.9	0.000000	0.000000	6.707014	-0.067753	NaN	0.000000	0.001610	0.001800	28.082	0.066563	0.001804	36.9069	154.331	-166.147	-0.002420	0.705532	-0.349905	-0.351219	-0.067753	36.9069	-0.348528	-24301.3	2.788030E-6	NaN
570	1.000000	0.714880	7.37063e+06	-48589.1	1005.82	-29761.9	0.000000	0.000000	6.715049	-0.012454	NaN	0.000000	0.001568	0.001831	28.0818	0.064734	0.002035	31.806	-17.2765	-162.21	0.002646	0.713604	-0.341871	-0.343148	-0.012454	31.806	-0.341578	-19255.1	6.467821E-7	NaN
570	1.000000	0.722858	7.37063e+06	-48589.1	1005.82	-29761.9	0.000000	0.000000	6.723029	0.038779	NaN	0.000000	0.001510	0.001774	28.0819	0.045956	0.002177	21.113	-72.3391	-163.038	0.095110	0.721564	-0.333894	-0.335187	0.038779	21.113	-0.335271	-15579.5	-2.489088E-6	NaN
570	1.000000	0.730873	7.37063e+06	-48589.1	1005.82	-29761.9	0.000000	0.000000	6.731043	0.020852	NaN	0.000000	0.001548	0.001793	28.082	0.081059	0.002085	38.8848	-73.325	-165.191	-0.012492	0.729525	-0.325879	-0.327227	0.020852	38.8848	-0.326281	-11506.5	-1.812239E-6	NaN
570	1.000000	0.738879	7.37063e+06	-48589.1	1005.82	-29761.9	0.000000	0.000000	6.739048	-0.007584	NaN	0.000000	0.001550	0.001762	28.082	0.035762	0.002071	17.2685	158.186	-161.055	0.039438	0.737599	-0.317873	-0.319153	-0.007584	17.2685	-0.317544	-8559.74	8.860383E-7	NaN
570	1.000000	0.746869	7.37063e+06	-48589.1	1005.82	-29761.9	0.000000	0.000000	6.747040	0.016197	NaN	0.000000	0.001520	0.001779	28.0824	0.025945	0.002103	12.3368	124.101	-163.714	0.008409	0.745589	-0.309882	-0.311163	0.016197	12.3368	-0.310867	-6821.56	-2.374424E-6	NaN
570	1.000000	0.754868	7.37063e+06	-48589.1	1005.82	-29761.9	0.000000	0.000000	6.755036	-0.039749	NaN	0.000000	0.001531	0.001763	28.0819	0.061338	0.001937	31.6637	-164.923	-163.262	0.100638	0.753552	-0.301884	-0.303199	-0.039749	31.6637	-0.300943	-4860.31	8.178314E-6	NaN
570	1.000000	0.762896	7.37063e+06	-48589.1	1005.82	-29761.9	0.000000	0.000000	6.763065	-0.023060	NaN	0.000000	0.001517	0.001788	28.082	0.090682	0.002012	45.0643	66.5303	-166.104	0.024246	0.761604	-0.293856	-0.295147	-0.023060	45.0643	-0.293472	-3760.6	6.132006E-6	NaN
570	1.000000	0.770884	7.37063e+06	-48589.1	1005.82	-29761.9	0.000000	0.000000	6.771052	-0.043993	NaN	0.000000	0.001539	0.001780	28.0807	0.095588	0.001991	48.0146	130.519	-162.017	-0.068701	0.769527	-0.285868	-0.287224	-0.043993	48.0146	-0.285180	-2824.74	1.557431E-5	NaN
570	1.000000	0.778880	7.37063e+06	-48589.1	1005.82	-29761.9	0.000000	0.000000	6.779050	0.012786	NaN	0.000000	0.001555	0.001752	28.0806	0.106241	0.002010	52.8607	103.743	-164.326	-0.065913	0.777584	-0.277872	-0.279168	0.012786	52.8607	-0.278053	-2205.88	-5.796164E-6	NaN
570	1.000000	0.786889	7.37063e+06	-48589.1	1005.82	-29761.9	0.000000	0.000000	6.787060	0.031392	NaN	0.000000	0.001513	0.001788	28.0807	0.098145	0.001937	50.6806	-130.498	-164.217	0.003998	0.785528	-0.269863	-0.271223	0.031392	50.6806	-0.270327	-1684.68	-1.863360E-5	NaN
570	1.000000	0.794865	7.37063e+06	-48589.1	1005.82	-29761.9	0.000000	0.000000	6.795033	-0.032976	NaN	0.000000	0.001519	0.001775	28.0807	0.020633	0.002007	10.2812	71.4132	-163.538	0.056459	0.793582	-0.261887	-0.263170	-0.032976	10.2812	-0.259481	-1150.71	2.865713E-5	NaN
570	1.000000	0.802893	7.37063e+06	-48589.1	1005.82	-29761.9	0.000000	0.000000	6.803062	-0.008049	NaN	0.000000	0.001577	0.001816	28.0809	0.091624	0.001893	48.3978	-41.2643	-168.771	0.039138	0.801597	-0.253859	-0.255155	-0.008049	48.3978	-0.253734	-938.887	8.573313E-6	NaN
570	1.000000	0.810876	7.37063e+06	-48589.1	1005.82	-29761.9	0.000000	0.000000	6.811046	0.013771	NaN	0.000000	0.001558	0.001771	28.0805	0.002857	0.001950	1.465487	126.508	-164.873	-0.047792	0.809636	-0.245876	-0.247115	0.013771	1.465487	-0.252924	-912.265	-1.509510E-5	NaN
570	1.000000	0.818879	7.37063e+06	-48589.1	1005.82	-29761.9	0.000000	0.000000	6.819050	0.028974	NaN	0.000000	0.001563	0.001820	28.0808	0.039895	0.002042	19.5342	12.2749	-164.657	0.088516	0.817617	-0.237873	-0.239134	0.028974	19.5342	-0.238985	-554.23	-5.227741E-5	NaN
570	1.000000	0.826877	7.37063e+06	-48589.1	1005.82	-29761.9	0.000000	0.000000	6.827044	-0.075871	NaN	0.000000	0.001531	0.001799	28.0805	0.050007	0.001943	25.7422	-67.5111	-164.129	-0.069841	0.825568	-0.229875	-0.231184	-0.075871	25.7422	-0.227664	-367.775	0.000206	NaN
570	1.000000	0.834897	7.37063e+06	-48589.1	1005.82	-29761.9	0.000000	0.000000	6.835066	-0.018243	NaN	0.000000	0.001522	0.001779	28.0802	0.044159	0.002048	21.5591	14.1822	-164.411	-0.092756	0.833606	-0.221855	-0.223146	-0.018243	21.5591	-0.221220	-290.513	6.279637E-5	NaN
570	1.000000	0.842925	7.37063e+06	-48589.1	1005.82	-29761.9	0.000000	0.000000	6.843096	0.027257	NaN	0.000000	0.001554	0.001790	28.0807	0.097128	0.001795	54.1037	28.4966	-165.844	0.023294	0.841619	-0.213827	-0.215133	0.027257	54.1037	-0.214205	-224.241	-0.000122	NaN
570	1.000000	0.850910	7.37063e+06	-48589.1	1005.82	-29761.9	0.000000	0.000000	6.851079	-0.020156	NaN	0.000000	0.001538	0.001794	28.0806	0.061976	0.002022	30.6518	-138.502	-164.801	-0.013486	0.849601	-0.205842	-0.207150	-0.020156	30.6518	-0.205349	-161.155	0.000125	NaN
570	1.000000	0.858901	7.37063e+06	-48589.1	1005.82	-29761.9	0.000000	0.000000	6.859069	-0.059530	NaN	0.000000	0.001538	0.001802	28.0809	0.090330	0.002005	45.0538	-120.883	-163.803	-0.081421	0.857553	-0.197850	-0.199199	-0.059530	45.0538	-0.196859	-116.938	0.000509	NaN
570	1.000000	0.866930	7.37063e+06	-48589.1	1005.82	-29761.9	0.000000	0.000000	6.867098	-0.032563	NaN	0.000000	0.001524	0.001799	28.0806	0.052903	0.001934	27.3579	103.319	-162.257	0.008832	0.865567	-0.189822	-0.191185	-0.032563	27.3579	-0.188929	-86.323	0.000377	NaN
570	1.000000	0.874913	7.37063e+06	-48589.1	1005.82	-29761.9	0.000000	0.000000	6.875081	-0.041538	NaN	0.000000	0.001550	0.001778	28.0807	0.052639	0.002067	25.4656	10.7031	-163.169	-0.049452	0.873639	-0.181839	-0.183113	-0.041538	25.4656	-0.180616	-62.5077	0.000665	NaN
570	1.000000	0.882917	7.37063e+06	-48589.1	1005.82	-29761.9	0.000000	0.000000	6.883085	-0.042217	NaN	0.000000	0.001537	0.001765	28.0805	0.045778	0.001983	23.0884	-143.522	-166.827	-0.017647	0.881641	-0.173835	-0.175110	-0.042217	23.0884	-0.172463	-45.3188	0.000932	NaN
570	1.000000	0.890919	7.37063e+06	-48589.1	1005.82	-29761.9	0.000000	0.000000	6.891089	0.012281	NaN	0.000000	0.001498	0.001791	28.0807	0.105061	0.002002	52.4779	-67.6349	-164.778	-0.000256	0.889649	-0.165833	-0.167102	0.012281	52.4779	-0.166008	-34.994	-0.000351	NaN
570	1.000000	0.898939	7.37063e+06	-48589.1	1005.82	-29761.9	0.000000	0.000000	6.899111	0.052111	NaN	0.000000	0.001537	0.001779	28.0805	0.086154	0.002041	42.2118	-129.458	-165.676	0.020437	0.897603	-0.157813	-0.159149	0.052111	42.2118	-0.158739	-26.034	-0.002002	NaN
570	1.000000	0.906912	7.37063e+06	-48589.1	1005.82	-29761.9	0.000000	0.000000	6.907081	-0.026232	NaN	0.000000	0.001501	0.001804	28.0818	0.150534	0.002044	73.631	177.682	-163.114	-0.047041	0.905651	-0.149840	-0.151100	-0.026232	73.631	-0.149572	-17.7911	0.001474	NaN
570	1.000000	0.914909	7.37063e+06	-48589.1	1005.82	-29761.9	0.000000	0.000000	6.915080	0.010522	NaN	0.000000	0.001519	0.001806	28.0819	0.058097	0.002028	28.6534	-58.3619	-163.129	-0.068425	0.913630	-0.141842	-0.143122	0.010522	28.6534	-0.142118	-12.9603	-0.000812	NaN
570	1.000000	0.922949	7.37063e+06	-48589.1	1005.82	-29761.9	0.000000	0.000000	6.923116	-0.044009	NaN	0.000000	0.001541	0.001796	28.0816	0.181613	0.002067	87.8687	68.5957	-165.823	-0.048204	0.921656	-0.133803	-0.135096	-0.044009	87.8687	-0.133427	-8.875411	0.004959	NaN
570	1.000000	0.930941	7.37063e+06	-48589.1	1005.82	-29761.9	0.000000	0.000000	6.931109	-0.046442	NaN	0.000000	0.001502	0.001791	28.0818	0.051524	0.001921	26.8199	46.4529	-163.754	0.014351	0.929676	-0.125811	-0.127075	-0.046442	26.8199	-0.124512	-5.947374	0.007809	NaN
570	1.000000	0.938967	7.37063e+06	-48589.1	1005.82	-29761.9	0.000000	0.000000	6.939136	-0.010502	NaN	0.000000	0.001517	0.001779	28.0817	0.060150	0.001854	32.4507	-171.878	-164.556	-0.039801	0.937608	-0.117785	-0.119144	-0.010502	32.4507	-0.117542	-4.307414	0.002438	NaN
570	1.000000	0.946995	7.37063e+06	-48589.1	1005.82	-29761.9	0.000000	0.000000	6.947164	-0.002049	NaN	0.000000	0.001538	0.001773	28.0817	0.022734	0.002025	11.2244	-151.277	-167.731	0.003601	0.945664	-0.109757	-0.111088	-0.002049	11.2244	-0.109620	-2.950253	0.000694	NaN
570	1.000000	0.954953	7.37063e+06	-48589.1	1005.82	-29761.9	0.000000	0.000000	6.955122	-0.010791	NaN	0.000000	0.001484	0.001769	28.0819	0.027078	0.002036	13.2994	164.361	-166.464	-0.049741	0.953673	-0.101799	-0.103079	-0.010791	13.2994	-0.101190	-1.941212	0.005559	NaN
570	1.000000	0.962961	7.37063e+06	-48589.1	1005.82	-29761.9	0.000000	0.000000	6.963130	-0.023036	NaN	0.000000	0.001547	0.001746	28.0818	0.113419	0.001955	58.0276	-66.1026	-163.974	-0.027675	0.961614	-0.093790	-0.095137	-0.023036	58.0276	-0.093493	-1.302933	0.017680	NaN
570	1.000000	0.970960	7.37063e+06	-48589.1	1005.82	-29761.9	0.000000	0.000000	6.971132	0.057387	NaN	0.000000	0.001570	0.001770	28.0818	0.091623	0.001876	48.8295	107.273	-166.698	0.014115	0.969664	-0.085792	-0.087088	0.057387	48.8295	-0.086673	-0.901486	-0.063658	NaN
570	1.000000	0.978980	7.37063e+06	-48589.1	1005.82	-29761.9	0.000000	0.000000	6.979152	0.056547	NaN	0.000000	0.001572	0.001755	28.0817	0.033881	0.001840	18.4151	15.1291	-163.029	0.116920	0.977641	-0.077772	-0.079111	0.056547	18.4151	-0.080075	-0.621663	-0.090961	NaN
570	1.000000	0.986941	7.37063e+06	-48589.1	1005.82	-29761.9	0.000000	0.000000	6.987109	-0.050016	NaN	0.000000	0.001525	0.001777	28.0818	0.036191	0.002088	17.3342	-99.1364	-163.918	-0.026149	0.985622	-0.069811	-0.071130	-0.050016	17.3342	-0.067647	-0.294664	0.169738	NaN
570	1.000000	0.994978	7.37063e+06	-48589.1	1005.82	-29761.9	0.000000	0.000000	6.995146	-0.038584	NaN	0.000000	0.001501	0.001755	28.0818	0.089177	0.002045	43.6021	145.835	-164.313	-0.067494	0.993723	-0.061774	-0.063029	-0.038584	43.6021	-0.061110	-0.193741	0.199155	NaN
570	1.000000	1.002947	7.37063e+06	-48589.1	1005.82	-29761.9	0.000000	0.000000	7.003117	0.006290	NaN	0.000000	0.001519	0.001779	28.0816	0.020771	0.002014	10.3133	-54.0928	-165.898	0.023368	1.001673	-0.053805	-0.055079	0.006290	10.3133	-0.054263	-0.122462	-0.051366	NaN
570	1.000000	1.010993	7.37063e+06	-48589.1	1005.82	-29761.9	0.000000	0.000000	7.011163	-0.005619	NaN	0.000000	0.001570	0.001797	28.0818	0.051961	0.001973	26.3341	128.958	-166.3	-0.076393	1.009706	-0.045758	-0.047046	-0.005619	26.3341	-0.045598	-0.067033	0.083818	NaN
570	1.000000	1.018967	7.37063e+06	-48589.1	1005.82	-29761.9	0.000000	0.000000	7.019137	0.005997	NaN	0.000000	0.001564	0.001802	28.0818	0.073109	0.001957	37.3614	157.495	-165.021	-0.023558	1.017690	-0.037784	-0.039062	0.005997	37.3614	-0.037905	-0.039084	-0.153437	NaN
570	1.000000	1.026953	7.37063e+06	-48589.1	1005.82	-29761.9	0.000000	0.000000	7.027122	-0.017649	NaN	0.000000	0.001516	0.001806	28.0822	0.095663	0.002027	47.1979	-101.338	-167.654	-0.127702	1.025674	-0.029799	-0.031078	-0.017649	47.1979	-0.029518	-0.022315	0.790909	NaN
570	1.000000	1.035010	7.37063e+06	-48589.1	1005.82	-29761.9	0.000000	0.000000	7.035176	-0.089798	NaN	0.000000	0.001521	0.001855	28.0817	0.105446	0.002143	49.2155	156.419	-166.217	-0.055273	1.033680	-0.021741	-0.023072	-0.089798	49.2155	-0.020373	-0.012838	6.994629	NaN
570	1.000000	1.043006	7.37063e+06	-48589.1	1005.82	-29761.9	0.000000	0.000000	7.043176	0.005670	NaN	0.000000	0.001556	0.001812	28.0804	0.039776	0.002015	19.7396	-98.1446	-167.546	0.011256	1.041647	-0.013746	-0.015105	0.005670	19.7396	-0.013961	-0.008661	-0.654706	NaN
570	1.000000	1.050985	7.37063e+06	-48589.1	1005.82	-29761.9	0.000000	0.000000	7.051153	-0.030866	NaN	0.000000	0.001565	0.001858	28.0808	0.042251	0.001912	22.1023	59.597	-166.774	0.047123	1.049679	-0.005767	-0.007073	-0.030866	22.1023	-0.004719	-0.003240	9.527794	NaN
570	1.000000	1.058989	7.37063e+06	-48589.1	1005.82	-29761.9	0.000000	0.000000	7.059159	0.003026	NaN	0.000000	0.001524	0.001841	28.0802	0.065498	0.002052	31.9125	135.102	-163.856	-0.113339	1.057693	0.002237	0.000941	0.003026	31.9125	0.002166	0.001690	1.790551	709.281
570	1.000000	1.067002	7.37063e+06	-48589.1	1005.82	-29761.9	0.000000	0.000000	7.067280	2.646649	NaN	0.000000	0.001546	0.001805	28.0804	3.625284	0.001887	1921.06	8.709591	-168.856	1.252884	1.065685	0.010250	0.008933	2.646649	1921.06	0.009217	0.008324	317.948	19237.4
570	2.000000	1.072560	7.37063e+06	-48589.1	1005.82	-29761.9	0.000000	0.000000	7.073037	7.481683	NaN	0.000000	0.001556	0.001792	28.0802	8.522291	0.001676	5086.3	9.042593	-171.669	7.684836	1.072230	0.015808	0.015479	7.481683	5086.3	0.014705	0.014894	502.34	38078
570	2.000000	1.074511	7.37063e+06	-48589.1	1005.82	-29761.9	0.000000	0.000000	7.075129	10.8962	NaN	0.000000	0.001560	0.001792	28.0804	11.4313	0.001799	6353.04	9.393795	-176.099	10.1096	1.074189	0.017760	0.017437	10.8962	6353.04	0.016473	0.017301	629.815	44129.1
570	2.000000	1.076482	7.37063e+06	-48589.1	1005.82	-29761.9	0.000000	0.000000	7.077199	13.322	NaN	0.000000	0.001579	0.001791	28.0805	12.677	0.001574	8052.01	5.563916	-173.67	12.5292	1.076226	0.019730	0.019474	13.322	8052.01	0.018489	0.020224	658.726	51730.3
570	2.000000	1.078488	7.37063e+06	-48589.1	1005.82	-29761.9	0.000000	0.000000	7.079287	15.3109	NaN	0.000000	0.001577	0.001809	28.0802	15.1125	0.001799	8400.5	5.094099	-173.17	14.8751	1.078238	0.021737	0.021487	15.3109	8400.5	0.020370	0.023126	662.053	50469
570	2.000000	1.080514	7.37063e+06	-48589.1	1005.82	-29761.9	0.000000	0.000000	7.081488	19.5755	NaN	0.000000	0.001531	0.001808	28.0806	17.1482	0.001941	8834.63	5.892914	-173.186	18.7797	1.080142	0.023762	0.023390	19.5755	8834.63	0.022100	0.025950	754.346	50106.1
570	2.000000	1.082494	7.37063e+06	-48589.1	1005.82	-29761.9	0.000000	0.000000	7.083607	22.942	NaN	0.000000	0.001532	0.001821	28.0804	18.4262	0.001688	10915.6	3.604372	-173.628	23.2286	1.082152	0.025742	0.025401	22.942	10915.6	0.024166	0.029515	777.294	58049.6
570	2.000000	1.084501	7.37063e+06	-48589.1	1005.82	-29761.9	0.000000	0.000000	7.085714	25.3886	NaN	0.000000	0.001501	0.001810	28.0806	20.6256	0.001755	11753.8	4.462008	-174.529	26.0049	1.084172	0.027749	0.027420	25.3886	11753.8	0.026129	0.033101	766.998	59024.1
570	2.000000	1.086432	7.37063e+06	-48589.1	1005.82	-29761.9	0.000000	0.000000	7.088065	35.5885	NaN	0.000000	0.001514	0.001818	28.0807	22.2508	0.001690	13168.3	4.161353	-176.228	32.8918	1.086094	0.029680	0.029343	35.5885	13168.3	0.027653	0.036020	988.021	63391.4
570	2.000000	1.088424	7.37063e+06	-48589.1	1005.82	-29761.9	0.000000	0.000000	7.090016	34.5876	NaN	0.000000	0.001546	0.001755	28.0804	24.5046	0.001645	14900.7	4.946454	-178.027	32.9915	1.088136	0.031672	0.031385	34.5876	14900.7	0.029931	0.040601	851.885	67563.4
570	2.000000	1.090549	7.37063e+06	-48589.1	1005.82	-29761.9	0.000000	0.000000	7.092588	45.4613	NaN	0.000000	0.001536	0.001793	28.0806	27.1678	0.001871	14522.9	7.347837	-177.226	46.3256	1.090037	0.033797	0.033285	45.4613	14522.9	0.031450	0.043802	1037.88	63398.4
570	2.000000	1.092435	7.37063e+06	-48589.1	1005.82	-29761.9	0.000000	0.000000	7.094636	49.3996	NaN	0.000000	0.001538	0.001810	28.0804	28.9638	0.001741	16639.4	5.942228	-179.643	49.6548	1.092188	0.035684	0.035436	49.3996	16639.4	0.033457	0.048214	1024.59	69234.9
570	2.000000	1.094417	7.37063e+06	-48589.1	1005.82	-29761.9	0.000000	0.000000	7.096853	55.1216	NaN	0.000000	0.001559	0.001816	28.0808	31.5513	0.001843	17115.4	1.617678	-175.797	53.1548	1.094167	0.037665	0.037415	55.1216	17115.4	0.035249	0.052328	1053.38	68358.4
570	2.000000	1.096411	7.37063e+06	-48589.1	1005.82	-29761.9	0.000000	0.000000	7.099087	60.9467	NaN	0.000000	0.001550	0.001779	28.0806	33.0753	0.001696	19496.8	5.379296	179.021	59.2062	1.096174	0.039659	0.039422	60.9467	19496.8	0.037315	0.057273	1064.14	74432.3
570	2.000000	1.098416	7.37063e+06	-48589.1	1005.82	-29761.9	0.000000	0.000000	7.101425	69.0651	NaN	0.000000	0.001559	0.001757	28.0817	34.6698	0.001784	19431.4	5.941883	178.658	67.6302	1.098051	0.041664	0.041299	69.0651	19431.4	0.038998	0.061465	1123.65	71608.4
570	2.000000	1.100439	7.37063e+06	-48589.1	1005.82	-29761.9	0.000000	0.000000	7.103750	76.4133	NaN	0.000000	0.001557	0.001737	28.0819	37.0883	0.001730	21439.7	8.795438	176.175	76.8087	1.100067	0.043687	0.043315	76.4133	21439.7	0.041014	0.066676	1146.05	75859.3
570	2.000000	1.102435	7.37063e+06	-48589.1	1005.82	-29761.9	0.000000	0.000000	7.106125	85.6095	NaN	0.000000	0.001540	0.001763	28.0817	38.135	0.001907	19994.8	2.683598	-177.503	85.5271	1.102088	0.045684	0.045337	85.6095	19994.8	0.042472	0.070574	1213.05	68764.9
570	2.000000	1.104452	7.37063e+06	-48589.1	1005.82	-29761.9	0.000000	0.000000	7.108329	90.1672	NaN	0.000000	0.001548	0.001769	28.0828	41.0851	0.001908	21531.5	7.785132	176.799	90.8427	1.104156	0.047701	0.047404	90.1672	21531.5	0.044560	0.076343	1181.08	71197.3
570	2.000000	1.106381	7.37063e+06	-48589.1	1005.82	-29761.9	0.000000	0.000000	7.110600	98.4878	NaN	0.000000	0.001539	0.001785	28.0817	41.5472	0.001875	22154.8	5.512023	178.904	97.7368	1.106104	0.049629	0.049352	98.4878	22154.8	0.046295	0.081307	1211.32	70986.9
570	2.000000	1.108392	7.37063e+06	-48589.1	1005.82	-29761.9	0.000000	0.000000	7.112881	105.054	NaN	0.000000	0.001510	0.001793	28.0817	43.8212	0.001788	24514.7	5.791390	176.549	103.219	1.108095	0.051640	0.051343	105.054	24514.7	0.048426	0.087610	1199.1	75669.8
570	2.000000	1.110467	7.37063e+06	-48589.1	1005.82	-29761.9	0.000000	0.000000	7.115259	112.416	NaN	0.000000	0.001527	0.001757	28.0818	45.5557	0.001752	26004.9	2.789891	179.419	114.085	1.110137	0.053715	0.053386	112.416	26004.9	0.050473	0.093881	1197.43	77542.5
570	2.000000	1.112424	7.37063e+06	-48589.1	1005.82	-29761.9	0.000000	0.000000	7.117614	122.097	NaN	0.000000	0.001517	0.001740	28.0817	46.9226	0.001726	27183.6	3.335619	178.078	121.672	1.112133	0.055672	0.055382	122.097	27183.6	0.052304	0.099666	1225.06	78669.5
570	2.000000	1.114380	7.37063e+06	-48589.1	1005.82	-29761.9	0.000000	0.000000	7.120121	135.483	NaN	0.000000	0.001577	0.001740	28.0828	48.9305	0.001729	28293.7	8.223442	174.094	135.11	1.114033	0.057629	0.057281	135.483	28293.7	0.054037	0.105300	1286.64	79661.7
570	2.000000	1.116373	7.37063e+06	-48589.1	1005.82	-29761.9	0.000000	0.000000	7.122663	148.847	NaN	0.000000	0.001567	0.001769	28.0819	50.2902	0.001906	26389.8	5.910998	176.802	147.385	1.116060	0.059622	0.059308	148.847	26389.8	0.055391	0.109803	1355.58	72761.7
570	2.000000	1.118380	7.37063e+06	-48589.1	1005.82	-29761.9	0.000000	0.000000	7.124894	154.296	NaN	0.000000	0.001540	0.001770	28.0818	53.6219	0.001871	28663.2	9.339846	173.016	151.857	1.117949	0.061629	0.061198	154.296	28663.2	0.057591	0.117313	1315.25	76458.3
570	2.000000	1.120385	7.37063e+06	-48589.1	1005.82	-29761.9	0.000000	0.000000	7.127171	160.928	NaN	0.000000	0.001566	0.001735	28.0818	54.5924	0.001687	32353.8	5.702824	175.556	158.749	1.120025	0.063633	0.063273	160.928	32353.8	0.059903	0.125460	1282.71	83453.8
570	2.000000	1.122461	7.37063e+06	-48589.1	1005.82	-29761.9	0.000000	0.000000	7.129770	173.638	NaN	0.000000	0.001536	0.001759	28.0819	56.3813	0.001743	32346.1	5.181175	175.557	176.573	1.122132	0.065709	0.065381	173.638	32346.1	0.061683	0.131913	1316.31	81367.7
570	2.000000	1.124450	7.37063e+06	-48589.1	1005.82	-29761.9	0.000000	0.000000	7.132109	182.151	NaN	0.000000	0.001515	0.001773	28.0823	58.8278	0.001832	32111.5	4.047287	176.521	183.793	1.124070	0.067699	0.067319	182.151	32111.5	0.063444	0.138449	1315.65	78847.8
570	2.000000	1.126374	7.37063e+06	-48589.1	1005.82	-29761.9	0.000000	0.000000	7.134589	195.656	NaN	0.000000	0.001512	0.001773	28.0818	58.0496	0.001700	34140.9	0.510735	-179.518	193.071	1.126022	0.069623	0.069271	195.656	34140.9	0.065325	0.145591	1343.88	81748.8
570	2.000000	1.128348	7.37063e+06	-48589.1	1005.82	-29761.9	0.000000	0.000000	7.137031	207.058	NaN	0.000000	0.001496	0.001759	28.0818	62.0708	0.001804	34415.5	5.131175	175.471	202.488	1.127955	0.071596	0.071204	207.058	34415.5	0.067084	0.152427	1358.4	80537.1
570	2.000000	1.130405	7.37063e+06	-48589.1	1005.82	-29761.9	0.000000	0.000000	7.139638	220.431	NaN	0.000000	0.001510	0.001774	28.0817	64.1067	0.001799	35631.3	4.301331	176.148	219.518	1.129982	0.073653	0.073230	220.431	35631.3	0.069013	0.160098	1376.85	81360.3
570	2.000000	1.132291	7.37063e+06	-48589.1	1005.82	-29761.9	0.000000	0.000000	7.141839	228.097	NaN	0.000000	0.001568	0.001786	28.0805	66.4012	0.001795	36992.6	7.067018	171.728	223.191	1.132096	0.075539	0.075344	228.097	36992.6	0.070915	0.167829	1359.1	82500.3
570	2.000000	1.134438	7.37063e+06	-48589.1	1005.82	-29761.9	0.000000	0.000000	7.144460	239.613	NaN	0.000000	0.001513	0.001807	28.0809	69.0132	0.001753	39365	4.302574	174.809	242.891	1.134097	0.077686	0.077345	239.613	39365	0.073121	0.177016	1353.63	85482.6
570	2.000000	1.136379	7.37063e+06	-48589.1	1005.82	-29761.9	0.000000	0.000000	7.146947	252.91	NaN	0.000000	0.001511	0.001790	28.0804	68.9867	0.001778	38809.5	1.559226	177.273	250.924	1.136037	0.079627	0.079285	252.91	38809.5	0.074740	0.183901	1375.25	82683.6
570	2.000000	1.138384	7.37063e+06	-48589.1	1005.82	-29761.9	0.000000	0.000000	7.149556	267.58	NaN	0.000000	0.001498	0.001793	28.0806	72.4917	0.001691	42861.9	5.650535	172.818	267.964	1.138010	0.081632	0.081258	267.58	42861.9	0.076950	0.193504	1382.81	89022.4
570	2.000000	1.140400	7.37063e+06	-48589.1	1005.82	-29761.9	0.000000	0.000000	7.152240	283.848	NaN	0.000000	0.001536	0.001785	28.0805	74.8692	0.001830	40904.4	6.771917	172.426	283.756	1.140055	0.083648	0.083303	283.848	40904.4	0.078443	0.200121	1418.39	83540.6
570	2.000000	1.142398	7.37063e+06	-48589.1	1005.82	-29761.9	0.000000	0.000000	7.154755	296.417	NaN	0.000000	0.001531	0.001753	28.0804	75.9261	0.001726	43991	5.691815	172.718	296.666	1.142054	0.085646	0.085302	296.417	43991	0.080593	0.209827	1412.67	87741.6
570	2.000000	1.144422	7.37063e+06	-48589.1	1005.82	-29761.9	0.000000	0.000000	7.157474	313.315	NaN	0.000000	0.001566	0.001784	28.0806	76.8348	0.001757	43729.3	0.894847	177.844	316.298	1.144058	0.087670	0.087306	313.315	43729.3	0.082297	0.217675	1439.37	85633
570	2.000000	1.146440	7.37063e+06	-48589.1	1005.82	-29761.9	0.000000	0.000000	7.160116	328.488	NaN	0.000000	0.001544	0.001771	28.0803	79.142	0.001739	45514.8	7.789463	170.501	331.658	1.145985	0.089688	0.089233	328.488	45514.8	0.084276	0.226958	1447.35	87287.7
570	2.000000	1.148361	7.37063e+06	-48589.1	1005.82	-29761.9	0.000000	0.000000	7.162795	346.938	NaN	0.000000	0.001498	0.001832	28.081	81.7992	0.001816	45043.7	6.092732	172.007	345.852	1.148054	0.091609	0.091302	346.938	45043.7	0.085832	0.234388	1480.19	85003.9
570	2.000000	1.150350	7.37063e+06	-48589.1	1005.82	-29761.9	0.000000	0.000000	7.165244	358.113	NaN	0.000000	0.001503	0.001796	28.0805	83.6525	0.001797	46556.7	4.458204	173.906	356.175	1.149950	0.093599	0.093198	358.113	46556.7	0.087830	0.244085	1467.16	86096.3
570	2.000000	1.152299	7.37063e+06	-48589.1	1005.82	-29761.9	0.000000	0.000000	7.167917	375.727	NaN	0.000000	0.001530	0.001781	28.0805	84.7732	0.001645	51523.7	3.546998	173.516	372.075	1.151947	0.095547	0.095195	375.727	51523.7	0.090078	0.255219	1472.18	93180.2
570	2.000000	1.154339	7.37063e+06	-48589.1	1005.82	-29761.9	0.000000	0.000000	7.170435	387.367	NaN	0.000000	0.001520	0.001796	28.0807	89.8025	0.001845	48669.7	7.024870	170.286	383.984	1.154010	0.097587	0.097258	387.367	48669.7	0.091618	0.262978	1473	86710.6
570	2.000000	1.156399	7.37063e+06	-48589.1	1005.82	-29761.9	0.000000	0.000000	7.173086	401.713	NaN	0.000000	0.001516	0.001818	28.0804	89.1786	0.001781	50074.5	5.050184	172.606	403.092	1.155950	0.099648	0.099199	401.713	50074.5	0.093631	0.273288	1469.93	87514.5
570	2.000000	1.158344	7.37063e+06	-48589.1	1005.82	-29761.9	0.000000	0.000000	7.175785	420.049	NaN	0.000000	0.001557	0.001797	28.0809	92.3604	0.001775	52044.7	6.590047	171.091	420.247	1.157954	0.101593	0.101203	420.049	52044.7	0.095539	0.283231	1483.06	89346.7
570	2.000000	1.160314	7.37063e+06	-48589.1	1005.82	-29761.9	0.000000	0.000000	7.178496	438.086	NaN	0.000000	0.001541	0.001828	28.0803	93.1665	0.001750	53228.8	3.485318	174.175	433.926	1.159898	0.103563	0.103146	438.086	53228.8	0.097390	0.293032	1495.01	89838.5
570	2.000000	1.162304	7.37063e+06	-48589.1	1005.82	-29761.9	0.000000	0.000000	7.180935	449.008	NaN	0.000000	0.001539	0.001817	28.0805	95.7187	0.001790	53487.7	2.729701	174.718	449.32	1.162011	0.105552	0.105259	449.008	53487.7	0.099256	0.303074	1481.51	88767.3
570	2.000000	1.164307	7.37063e+06	-48589.1	1005.82	-29761.9	0.000000	0.000000	7.183627	465.765	NaN	0.000000	0.001555	0.001798	28.0804	99.0313	0.001818	54474.5	8.344281	168.429	462.334	1.164099	0.107555	0.107348	465.765	54474.5	0.101142	0.313382	1486.25	88905.7
570	2.000000	1.166231	7.37063e+06	-48589.1	1005.82	-29761.9	0.000000	0.000000	7.186584	490.879	NaN	0.000000	0.001550	0.001821	28.0817	98.0236	0.001660	59059.3	1.645727	174.918	484.708	1.165982	0.109480	0.109230	490.879	59059.3	0.103246	0.325071	1510.07	94639.4
570	2.000000	1.168303	7.37063e+06	-48589.1	1005.82	-29761.9	0.000000	0.000000	7.188860	495.839	NaN	0.000000	0.001568	0.001806	28.0818	102.657	0.001831	56056.4	4.589808	171.682	493.589	1.168009	0.111552	0.111258	495.839	56056.4	0.104917	0.334502	1482.32	88552.1
570	2.000000	1.170384	7.37063e+06	-48589.1	1005.82	-29761.9	0.000000	0.000000	7.192077	523.488	NaN	0.000000	0.001558	0.001808	28.0817	105.004	0.001852	56700.3	5.793115	171.121	525.366	1.170060	0.113632	0.113309	523.488	56700.3	0.106708	0.344744	1518.48	88228.7