File: remote_trans/data/nanoindenter/0828-1/data/Data_2025-08-06,11h17m57s/2025-07-22_16-23-58_1_470.txt
2025-07-22, 16:23:58, 1
Index	Phase	Displacement	Time	Pos X	Pos Y	Pos Z	Rot A	Rot B	Piezo Z	Force A	Force B	Gripper	Voltage A	Voltage B	Temperature	Amplitude force	Amplitude pos	Stiffness	Phase shift	Phase excitation	Force A raw	Displacement raw	HMax	HMax raw	Real Force	Real Stiffness	Contact Depth	Area	Hardness	Reduced Mod.
[#]	[#]	[um]	[s]	[um]	[um]	[um]	[m°]	[m°]	[um]	[uN]	[uN]	[V]	[V]	[V]	[°C]	[uN]	[um]	[N/m]	[°]	[°]	[uN]	[um]	[um]	[um]	[uN]	[N/m]	[um]	[um^2]	[MPa]	[MPa]
470	1.000000	0.002664	7.36965e+06	-53589.1	1005.82	-29745.9	0.000000	0.000000	6.002791	0.027358	NaN	0.000000	0.001592	0.001738	28.0826	0.089029	0.000870	102.36	156.005	-162.898	0.068188	0.001433	-1.049643	-1.050874	0.027358	102.36	-1.049843	-1.062445E+14	-2.574968E-16	NaN
470	1.000000	0.010660	7.36965e+06	-53589.1	1005.82	-29745.9	0.000000	0.000000	6.010784	-0.019767	NaN	0.000000	0.001556	0.001748	28.0825	0.091666	0.000997	91.9511	38.8799	-173.905	0.024421	0.009311	-1.041647	-1.042996	-0.019767	91.9511	-1.041486	-8.202603E+13	2.409799E-16	NaN
470	1.000000	0.018637	7.36965e+06	-53589.1	1005.82	-29745.9	0.000000	0.000000	6.018762	0.001506	NaN	0.000000	0.001569	0.001713	28.0826	0.140806	0.001811	77.7396	-54.1999	-166.539	-0.036416	0.017347	-1.033670	-1.034960	0.001506	77.7396	-1.033685	-6.442323E+13	-2.337038E-17	NaN
470	1.000000	0.026629	7.36965e+06	-53589.1	1005.82	-29745.9	0.000000	0.000000	6.026756	0.046351	NaN	0.000000	0.001586	0.001756	28.0826	0.110566	0.001863	59.3381	-103.164	-163.333	0.016065	0.025323	-1.025678	-1.026984	0.046351	59.3381	-1.026263	-5.119398E+13	-9.054054E-16	NaN
470	1.000000	0.034603	7.36965e+06	-53589.1	1005.82	-29745.9	0.000000	0.000000	6.034730	0.047200	NaN	0.000000	0.001582	0.001727	28.0826	0.061514	0.001989	30.9267	36.2783	-169.546	0.095967	0.033296	-1.017704	-1.019011	0.047200	30.9267	-1.018849	-4.068803E+13	-1.160051E-15	NaN
470	1.000000	0.042614	7.36965e+06	-53589.1	1005.82	-29745.9	0.000000	0.000000	6.042743	0.098182	NaN	0.000000	0.001567	0.001754	28.0825	0.162607	0.001930	84.2603	-87.3235	-160.103	0.135367	0.041367	-1.009693	-1.010940	0.098182	84.2603	-1.010567	-3.147813E+13	-3.119045E-15	NaN
470	1.000000	0.050604	7.36965e+06	-53589.1	1005.82	-29745.9	0.000000	0.000000	6.050734	0.106059	NaN	0.000000	0.001548	0.001752	28.0826	0.069330	0.002021	34.3113	155.116	-164.525	0.044511	0.049307	-1.001703	-1.003000	0.106059	34.3113	-1.004021	-2.569832E+13	-4.127074E-15	NaN
470	1.000000	0.058619	7.36965e+06	-53589.1	1005.82	-29745.9	0.000000	0.000000	6.058745	0.014560	NaN	0.000000	0.001559	0.001727	28.0835	0.115840	0.001962	59.027	-130.419	-164.486	0.017934	0.057336	-0.993688	-0.994971	0.014560	59.027	-0.993873	-1.876143E+13	-7.760604E-16	NaN
470	1.000000	0.066629	7.36965e+06	-53589.1	1005.82	-29745.9	0.000000	0.000000	6.066755	0.024380	NaN	0.000000	0.001583	0.001687	28.0816	0.106807	0.002091	51.0756	-5.537245	-168.534	0.023753	0.065329	-0.985678	-0.986978	0.024380	51.0756	-0.986036	-1.471372E+13	-1.656979E-15	NaN
470	1.000000	0.074618	7.36965e+06	-53589.1	1005.82	-29745.9	0.000000	0.000000	6.074747	0.097465	NaN	0.000000	0.001558	0.001702	28.0812	0.117309	0.001959	59.8864	58.9679	-166.035	0.052019	0.073368	-0.977689	-0.978939	0.097465	59.8864	-0.978910	-1.179569E+13	-8.262785E-15	NaN
470	1.000000	0.082665	7.36965e+06	-53589.1	1005.82	-29745.9	0.000000	0.000000	6.082790	0.013253	NaN	0.000000	0.001588	0.001721	28.0816	0.036511	0.001963	18.5979	-173.275	-168.067	0.142924	0.081346	-0.969642	-0.970961	0.013253	18.5979	-0.970177	-8.995945E+12	-1.473226E-15	NaN
470	1.000000	0.090645	7.36965e+06	-53589.1	1005.82	-29745.9	0.000000	0.000000	6.090774	0.102372	NaN	0.000000	0.001572	0.001770	28.0816	0.080016	0.002142	37.3509	-25.3498	-164.627	0.107354	0.089279	-0.961662	-0.963028	0.102372	37.3509	-0.963718	-7.361938E+12	-1.390553E-14	NaN
470	1.000000	0.098653	7.36965e+06	-53589.1	1005.82	-29745.9	0.000000	0.000000	6.098780	0.045400	NaN	0.000000	0.001565	0.001728	28.0818	0.127563	0.002061	61.891	19.2282	-167.744	0.057692	0.097353	-0.953654	-0.954954	0.045400	61.891	-0.954204	-5.479327E+12	-8.285754E-15	NaN
470	1.000000	0.106612	7.36965e+06	-53589.1	1005.82	-29745.9	0.000000	0.000000	6.106741	0.079815	NaN	0.000000	0.001566	0.001721	28.0817	0.075827	0.001948	38.9331	-32.0564	-163.8	0.040459	0.105348	-0.945695	-0.946959	0.079815	38.9331	-0.947232	-4.412647E+12	-1.808780E-14	NaN
470	1.000000	0.114649	7.36965e+06	-53589.1	1005.82	-29745.9	0.000000	0.000000	6.114776	0.052396	NaN	0.000000	0.001559	0.001712	28.0819	0.041150	0.002166	18.9989	150.222	-165.676	0.049687	0.113313	-0.937658	-0.938994	0.052396	18.9989	-0.939727	-3.495026E+12	-1.499160E-14	NaN
470	1.000000	0.122633	7.36965e+06	-53589.1	1005.82	-29745.9	0.000000	0.000000	6.122758	0.005631	NaN	0.000000	0.001550	0.001735	28.0817	0.055504	0.002008	27.6397	59.3258	-170.014	-0.044346	0.121297	-0.929674	-0.931010	0.005631	27.6397	-0.929827	-2.569575E+12	-2.191337E-15	NaN
470	1.000000	0.130675	7.36965e+06	-53589.1	1005.82	-29745.9	0.000000	0.000000	6.130802	0.036443	NaN	0.000000	0.001518	0.001734	28.0816	0.051232	0.001776	28.8457	-145.2	-169.328	0.017392	0.129380	-0.921632	-0.922927	0.036443	28.8457	-0.922579	-2.051292E+12	-1.776575E-14	NaN
470	1.000000	0.138654	7.36965e+06	-53589.1	1005.82	-29745.9	0.000000	0.000000	6.138780	0.023868	NaN	0.000000	0.001572	0.001744	28.0817	0.142580	0.001881	75.8016	-166.753	-163.154	-0.003585	0.137321	-0.913653	-0.914986	0.023868	75.8016	-0.913889	-1.565641E+12	-1.524471E-14	NaN
470	1.000000	0.146680	7.36965e+06	-53589.1	1005.82	-29745.9	0.000000	0.000000	6.146805	-0.002499	NaN	0.000000	0.001524	0.001721	28.0817	0.047846	0.002034	23.5213	147.548	-162.643	0.018118	0.145360	-0.905627	-0.906947	-0.002499	23.5213	-0.905548	-1.207871E+12	2.068626E-15	NaN
470	1.000000	0.154656	7.36965e+06	-53589.1	1005.82	-29745.9	0.000000	0.000000	6.154784	0.073485	NaN	0.000000	0.001544	0.001737	28.0819	0.059038	0.001964	30.0592	69.9837	-167.666	0.063939	0.153377	-0.897651	-0.898930	0.073485	30.0592	-0.899484	-1.000226E+12	-7.346820E-14	NaN
470	1.000000	0.162670	7.36965e+06	-53589.1	1005.82	-29745.9	0.000000	0.000000	6.162796	0.017266	NaN	0.000000	0.001549	0.001745	28.082	0.016162	0.002040	7.922641	43.138	-163.913	0.102182	0.161363	-0.889637	-0.890944	0.017266	7.922641	-0.891271	-7.746378E+11	-2.228926E-14	NaN
470	1.000000	0.170692	7.36965e+06	-53589.1	1005.82	-29745.9	0.000000	0.000000	6.170817	0.007039	NaN	0.000000	0.001495	0.001701	28.0821	0.046042	0.001962	23.4635	-141.153	-165.704	0.061397	0.169335	-0.881615	-0.882972	0.007039	23.4635	-0.881840	-5.775562E+11	-1.218809E-14	NaN
470	1.000000	0.178669	7.36965e+06	-53589.1	1005.82	-29745.9	0.000000	0.000000	6.178797	0.088903	NaN	0.000000	0.001567	0.001707	28.0817	0.055547	0.001942	28.6092	-96.2185	-166.447	0.061963	0.177347	-0.873639	-0.874960	0.088903	28.6092	-0.875969	-4.810525E+11	-1.848092E-13	NaN
470	1.000000	0.186669	7.36965e+06	-53589.1	1005.82	-29745.9	0.000000	0.000000	6.186793	-0.024761	NaN	0.000000	0.001542	0.001748	28.0816	0.047327	0.001994	23.7403	-39.5225	-164.271	-0.036688	0.185394	-0.865638	-0.866913	-0.024761	23.7403	-0.864856	-3.402807E+11	7.276640E-14	NaN
470	1.000000	0.194703	7.36965e+06	-53589.1	1005.82	-29745.9	0.000000	0.000000	6.194828	-0.012042	NaN	0.000000	0.001559	0.001746	28.0818	0.023178	0.002003	11.5718	98.512	-164.211	-0.024140	0.193352	-0.857604	-0.858955	-0.012042	11.5718	-0.856823	-2.649233E+11	4.545620E-14	NaN
470	1.000000	0.202686	7.36965e+06	-53589.1	1005.82	-29745.9	0.000000	0.000000	6.202814	0.070336	NaN	0.000000	0.001556	0.001738	28.0829	0.114133	0.002051	55.6514	-162.362	-167.673	0.000393	0.201325	-0.849621	-0.850982	0.070336	55.6514	-0.850569	-2.179939E+11	-3.226527E-13	NaN
470	1.000000	0.210668	7.36965e+06	-53589.1	1005.82	-29745.9	0.000000	0.000000	6.210794	0.034761	NaN	0.000000	0.001564	0.001725	28.0831	0.061893	0.002120	29.2015	74.3837	-163.761	0.036831	0.209351	-0.841639	-0.842956	0.034761	29.2015	-0.842532	-1.696649E+11	-2.048795E-13	NaN
470	1.000000	0.218693	7.36965e+06	-53589.1	1005.82	-29745.9	0.000000	0.000000	6.218820	0.043070	NaN	0.000000	0.001538	0.001724	28.0826	0.010562	0.001919	5.503434	-6.546542	-165.699	0.052782	0.217397	-0.833614	-0.834910	0.043070	5.503434	-0.839483	-1.542735E+11	-2.791786E-13	NaN
470	1.000000	0.226726	7.36965e+06	-53589.1	1005.82	-29745.9	0.000000	0.000000	6.226853	0.050544	NaN	0.000000	0.001517	0.001697	28.0828	0.027542	0.002061	13.3604	-26.5754	-164.898	-0.006665	0.225354	-0.825581	-0.826953	0.050544	13.3604	-0.828418	-1.092305E+11	-4.627314E-13	NaN
470	1.000000	0.234687	7.36965e+06	-53589.1	1005.82	-29745.9	0.000000	0.000000	6.234814	0.038169	NaN	0.000000	0.001532	0.001709	28.0827	0.069912	0.001945	35.9404	-139.847	-167.215	0.034049	0.233379	-0.817620	-0.818928	0.038169	35.9404	-0.818416	-7.993402E+10	-4.775078E-13	NaN
470	1.000000	0.242680	7.36965e+06	-53589.1	1005.82	-29745.9	0.000000	0.000000	6.242806	0.010353	NaN	0.000000	0.001546	0.001685	28.0826	0.064736	0.002044	31.6706	-72.4215	-165.298	-0.066945	0.241387	-0.809627	-0.810920	0.010353	31.6706	-0.809872	-6.121220E+10	-1.691404E-13	NaN
470	1.000000	0.250679	7.36965e+06	-53589.1	1005.82	-29745.9	0.000000	0.000000	6.250804	0.003355	NaN	0.000000	0.001495	0.001683	28.0829	0.048147	0.002186	22.0263	69.2662	-164.409	-0.016153	0.249344	-0.801629	-0.802963	0.003355	22.0263	-0.801743	-4.748083E+10	-7.066863E-14	NaN
470	1.000000	0.258734	7.36965e+06	-53589.1	1005.82	-29745.9	0.000000	0.000000	6.258862	0.054499	NaN	0.000000	0.001541	0.001704	28.0827	0.106337	0.001876	56.6687	-155.305	-168.03	0.022734	0.257403	-0.793573	-0.794904	0.054499	56.6687	-0.794294	-3.761820E+10	-1.448735E-12	NaN
470	1.000000	0.266725	7.36965e+06	-53589.1	1005.82	-29745.9	0.000000	0.000000	6.266850	-0.004818	NaN	0.000000	0.001541	0.001683	28.0829	0.067610	0.001914	35.3222	-27.5567	-167.755	-0.006538	0.265367	-0.785582	-0.786940	-0.004818	35.3222	-0.785480	-2.855539E+10	1.687209E-13	NaN
470	1.000000	0.274718	7.36965e+06	-53589.1	1005.82	-29745.9	0.000000	0.000000	6.274844	0.024598	NaN	0.000000	0.001501	0.001707	28.0826	0.043074	0.002102	20.4902	20.8768	-165.51	-0.016776	0.273396	-0.777589	-0.778911	0.024598	20.4902	-0.778490	-2.294593E+10	-1.072018E-12	NaN
470	1.000000	0.282691	7.36965e+06	-53589.1	1005.82	-29745.9	0.000000	0.000000	6.282818	0.052680	NaN	0.000000	0.001553	0.001712	28.0828	0.077917	0.001920	40.5765	-133.159	-168.883	-0.033392	0.281353	-0.769616	-0.770954	0.052680	40.5765	-0.770590	-1.791931E+10	-2.939822E-12	NaN
470	1.000000	0.290715	7.36965e+06	-53589.1	1005.82	-29745.9	0.000000	0.000000	6.290840	-0.004504	NaN	0.000000	0.001569	0.001702	28.0827	0.095914	0.002044	46.9271	88.6155	-165.35	-0.082320	0.289424	-0.761592	-0.762883	-0.004504	46.9271	-0.761520	-1.348900E+10	3.339145E-13	NaN
470	1.000000	0.298684	7.36965e+06	-53589.1	1005.82	-29745.9	0.000000	0.000000	6.298812	0.048436	NaN	0.000000	0.001511	0.001707	28.0826	0.167083	0.001946	85.8574	-104.22	-166.986	0.082780	0.297440	-0.753623	-0.754867	0.048436	85.8574	-0.754046	-1.067297E+10	-4.538214E-12	NaN
470	1.000000	0.306753	7.36965e+06	-53589.1	1005.82	-29745.9	0.000000	0.000000	6.306879	0.000219	NaN	0.000000	0.001540	0.001746	28.0827	0.023561	0.001950	12.0847	29.7427	-168.803	0.061148	0.305407	-0.745554	-0.746901	0.000219	12.0847	-0.745567	-8.182225E+9	-2.673092E-14	NaN
470	1.000000	0.314745	7.36965e+06	-53589.1	1005.82	-29745.9	0.000000	0.000000	6.314872	0.036381	NaN	0.000000	0.001544	0.001694	28.0826	0.057565	0.002205	26.1005	-176.751	-163.461	-0.102628	0.313416	-0.737562	-0.738891	0.036381	26.1005	-0.738607	-6.577916E+9	-5.530760E-12	NaN
470	1.000000	0.322733	7.36965e+06	-53589.1	1005.82	-29745.9	0.000000	0.000000	6.322860	0.025107	NaN	0.000000	0.001517	0.001683	28.0827	0.059807	0.001865	32.0658	-27.551	-165.952	0.039960	0.321413	-0.729574	-0.730894	0.025107	32.0658	-0.730161	-5.046626E+9	-4.975034E-12	NaN
470	1.000000	0.330741	7.36965e+06	-53589.1	1005.82	-29745.9	0.000000	0.000000	6.330867	0.027165	NaN	0.000000	0.001539	0.001690	28.0828	0.055758	0.002051	27.186	-162.887	-165.833	0.049794	0.329457	-0.721566	-0.722850	0.027165	27.186	-0.722316	-3.945054E+9	-6.885873E-12	NaN
470	1.000000	0.338735	7.36965e+06	-53589.1	1005.82	-29745.9	0.000000	0.000000	6.338860	0.018196	NaN	0.000000	0.001548	0.001743	28.0812	0.030541	0.002032	15.0264	17.2946	-163.445	0.036094	0.337431	-0.713572	-0.714876	0.018196	15.0264	-0.714481	-3.084518E+9	-5.899090E-12	NaN
470	1.000000	0.346737	7.36965e+06	-53589.1	1005.82	-29745.9	0.000000	0.000000	6.346864	0.040631	NaN	0.000000	0.001565	0.001754	28.0814	0.056799	0.001969	28.8411	32.895	-159.785	0.014645	0.345394	-0.705570	-0.706913	0.040631	28.8411	-0.706627	-2.409950E+9	-1.685982E-11	NaN
470	1.000000	0.354755	7.36965e+06	-53589.1	1005.82	-29745.9	0.000000	0.000000	6.354880	0.011072	NaN	0.000000	0.001532	0.001714	28.0813	0.053768	0.002038	26.3865	148.636	-168.631	-0.024641	0.353536	-0.697552	-0.698771	0.011072	26.3865	-0.697867	-1.829793E+9	-6.051149E-12	NaN
470	1.000000	0.362751	7.36965e+06	-53589.1	1005.82	-29745.9	0.000000	0.000000	6.362878	0.031356	NaN	0.000000	0.001552	0.001752	28.0813	0.147659	0.001902	77.6509	-11.8436	-162.368	0.010000	0.361463	-0.689556	-0.690844	0.031356	77.6509	-0.689859	-1.422288E+9	-2.204645E-11	NaN
470	1.000000	0.370764	7.36965e+06	-53589.1	1005.82	-29745.9	0.000000	0.000000	6.370890	0.020996	NaN	0.000000	0.001600	0.001701	28.0813	0.027325	0.001921	14.2232	-87.9994	-165.35	0.068857	0.369475	-0.681543	-0.682832	0.020996	14.2232	-0.682650	-1.133552E+9	-1.852253E-11	NaN
470	1.000000	0.378759	7.36965e+06	-53589.1	1005.82	-29745.9	0.000000	0.000000	6.378882	-0.036166	NaN	0.000000	0.001595	0.001729	28.0813	0.104637	0.002049	51.0696	-175.88	-166.349	-0.028953	0.377506	-0.673548	-0.674801	-0.036166	51.0696	-0.673017	-8.369150E+8	4.321327E-11	NaN
470	1.000000	0.386770	7.36965e+06	-53589.1	1005.82	-29745.9	0.000000	0.000000	6.386898	0.064125	NaN	0.000000	0.001599	0.001745	28.0812	0.090389	0.002023	44.672	36.1485	-168.687	0.049315	0.385395	-0.665537	-0.666912	0.064125	44.672	-0.666613	-6.839594E+8	-9.375571E-11	NaN
470	1.000000	0.394798	7.36965e+06	-53589.1	1005.82	-29745.9	0.000000	0.000000	6.394923	0.002750	NaN	0.000000	0.001577	0.001768	28.0812	0.069939	0.002061	33.9308	-68.2098	-168.266	-0.029308	0.393402	-0.657509	-0.658905	0.002750	33.9308	-0.657570	-5.142559E+8	-5.348441E-12	NaN
470	1.000000	0.402761	7.36965e+06	-53589.1	1005.82	-29745.9	0.000000	0.000000	6.402888	0.030858	NaN	0.000000	0.001550	0.001765	28.0807	0.086443	0.002058	42.0079	-114.556	-166.454	-0.048607	0.401484	-0.649546	-0.650824	0.030858	42.0079	-0.650097	-4.062201E+8	-7.596472E-11	NaN
470	1.000000	0.410760	7.36965e+06	-53589.1	1005.82	-29745.9	0.000000	0.000000	6.410884	-0.024522	NaN	0.000000	0.001540	0.001776	28.0811	0.020677	0.002020	10.2349	116.136	-164.951	-0.000539	0.409499	-0.641547	-0.642808	-0.024522	10.2349	-0.639750	-2.929955E+8	8.369575E-11	NaN
470	1.000000	0.418801	7.36965e+06	-53589.1	1005.82	-29745.9	0.000000	0.000000	6.418925	-0.018831	NaN	0.000000	0.001493	0.001775	28.0813	0.034648	0.002121	16.3368	-13.1133	-167.013	-0.030750	0.417472	-0.633506	-0.634835	-0.018831	16.3368	-0.632642	-2.340425E+8	8.045849E-11	NaN
470	1.000000	0.426787	7.36965e+06	-53589.1	1005.82	-29745.9	0.000000	0.000000	6.426911	-0.039800	NaN	0.000000	0.001511	0.001763	28.0812	0.132883	0.002118	62.7503	108.76	-166.234	0.073356	0.425463	-0.625520	-0.626844	-0.039800	62.7503	-0.625044	-1.840571E+8	2.162391E-10	NaN
470	1.000000	0.434777	7.36965e+06	-53589.1	1005.82	-29745.9	0.000000	0.000000	6.434905	0.074550	NaN	0.000000	0.001569	0.001732	28.0814	0.036282	0.002015	18.0059	-40.3249	-164.79	0.015103	0.433471	-0.617530	-0.618836	0.074550	18.0059	-0.620636	-1.600926E+8	-4.656682E-10	NaN
470	1.000000	0.442780	7.36965e+06	-53589.1	1005.82	-29745.9	0.000000	0.000000	6.442906	0.023367	NaN	0.000000	0.001558	0.001736	28.0814	0.101772	0.002099	48.4829	-24.8643	-167.651	0.042008	0.441463	-0.609527	-0.610844	0.023367	48.4829	-0.609888	-1.139139E+8	-2.051323E-10	NaN
470	1.000000	0.450770	7.36965e+06	-53589.1	1005.82	-29745.9	0.000000	0.000000	6.450896	0.002122	NaN	0.000000	0.001578	0.001732	28.0814	0.070966	0.001948	36.436	69.2037	-167.745	-0.030934	0.449481	-0.601537	-0.602826	0.002122	36.436	-0.601580	-8.754343E+7	-2.423619E-11	NaN
470	1.000000	0.458777	7.36965e+06	-53589.1	1005.82	-29745.9	0.000000	0.000000	6.458901	-0.015502	NaN	0.000000	0.001558	0.001725	28.0818	0.055862	0.001766	31.6384	-102.42	-165.626	0.021819	0.457466	-0.593530	-0.594841	-0.015502	31.6384	-0.593163	-6.702926E+7	2.312765E-10	NaN
470	1.000000	0.466809	7.36965e+06	-53589.1	1005.82	-29745.9	0.000000	0.000000	6.466939	0.095616	NaN	0.000000	0.001553	0.001714	28.0816	0.041813	0.002010	20.8026	57.4086	-163.419	0.091040	0.465512	-0.585498	-0.586795	0.095616	20.8026	-0.588945	-5.862984E+7	-1.630834E-9	NaN
470	1.000000	0.474796	7.36965e+06	-53589.1	1005.82	-29745.9	0.000000	0.000000	6.474923	0.040583	NaN	0.000000	0.001586	0.001729	28.0831	0.021747	0.002120	10.2603	-174.679	-163.464	0.040412	0.473521	-0.577511	-0.578786	0.040583	10.2603	-0.580478	-4.480436E+7	-9.057831E-10	NaN
470	1.000000	0.482791	7.36966e+06	-53589.1	1005.82	-29745.9	0.000000	0.000000	6.482917	0.017152	NaN	0.000000	0.001602	0.001732	28.0829	0.056891	0.002012	28.2806	174.718	-166.826	-0.014126	0.481480	-0.569516	-0.570827	0.017152	28.2806	-0.569971	-3.207928E+7	-5.346779E-10	NaN
470	1.000000	0.490816	7.36966e+06	-53589.1	1005.82	-29745.9	0.000000	0.000000	6.490941	-0.017598	NaN	0.000000	0.001576	0.001762	28.0829	0.125866	0.002033	61.9102	0.737722	-166.704	-0.032545	0.489479	-0.561491	-0.562828	-0.017598	61.9102	-0.561278	-2.432486E+7	7.234707E-10	NaN
470	1.000000	0.498824	7.36966e+06	-53589.1	1005.82	-29745.9	0.000000	0.000000	6.498949	0.005115	NaN	0.000000	0.001594	0.001744	28.0828	0.080040	0.002055	38.9558	-100.699	-167.391	-0.032360	0.497495	-0.553483	-0.554812	0.005115	38.9558	-0.553582	-1.903499E+7	-2.687148E-10	NaN
470	1.000000	0.506808	7.36966e+06	-53589.1	1005.82	-29745.9	0.000000	0.000000	6.506930	-0.068918	NaN	0.000000	0.001586	0.001705	28.0828	0.020344	0.002017	10.0862	-109.268	-165.359	0.037591	0.505510	-0.545499	-0.546797	-0.068918	10.0862	-0.540375	-1.248971E+7	5.517962E-9	NaN
470	1.000000	0.514820	7.36966e+06	-53589.1	1005.82	-29745.9	0.000000	0.000000	6.514949	0.085915	NaN	0.000000	0.001548	0.001717	28.0828	0.096980	0.002022	47.9736	118.13	-166.404	0.078851	0.513496	-0.537487	-0.538811	0.085915	47.9736	-0.538830	-1.188855E+7	-7.226733E-9	NaN
470	1.000000	0.522839	7.36966e+06	-53589.1	1005.82	-29745.9	0.000000	0.000000	6.522964	-0.005601	NaN	0.000000	0.001594	0.001741	28.083	0.060969	0.002187	27.8836	-64.5897	-165.303	0.036191	0.521512	-0.529468	-0.530795	-0.005601	27.8836	-0.529317	-8.77187e+06	6.385104E-10	NaN
470	1.000000	0.530811	7.36966e+06	-53589.1	1005.82	-29745.9	0.000000	0.000000	6.530940	0.109165	NaN	0.000000	0.001595	0.001744	28.0832	0.115528	0.001965	58.7937	-179.451	-165.301	0.072062	0.529527	-0.521496	-0.522780	0.109165	58.7937	-0.522889	-7.14113e+06	-1.528677E-8	NaN
470	1.000000	0.538819	7.36966e+06	-53589.1	1005.82	-29745.9	0.000000	0.000000	6.538945	0.022676	NaN	0.000000	0.001600	0.001763	28.0831	0.085552	0.001952	43.8223	89.1085	-167.586	-0.012955	0.537479	-0.513488	-0.514828	0.022676	43.8223	-0.513876	-5.35038e+06	-4.238176E-9	NaN
470	1.000000	0.546842	7.36966e+06	-53589.1	1005.82	-29745.9	0.000000	0.000000	6.546970	0.075151	NaN	0.000000	0.001631	0.001733	28.0829	0.064057	0.002186	29.2969	78.3926	-165.361	0.088988	0.545528	-0.505465	-0.506779	0.075151	29.2969	-0.507389	-4.34546e+06	-1.729422E-8	NaN
470	1.000000	0.554844	7.36966e+06	-53589.1	1005.82	-29745.9	0.000000	0.000000	6.554969	-0.002896	NaN	0.000000	0.001599	0.001750	28.0828	0.121529	0.001994	60.9337	-143.511	-162.073	0.029525	0.553503	-0.497463	-0.498804	-0.002896	60.9337	-0.497427	-3.15584e+06	9.176252E-10	NaN
470	1.000000	0.562841	7.36966e+06	-53589.1	1005.82	-29745.9	0.000000	0.000000	6.562967	0.039609	NaN	0.000000	0.001586	0.001737	28.0829	0.133376	0.001965	67.8844	79.2197	-165.528	-0.020706	0.561545	-0.489467	-0.490762	0.039609	67.8844	-0.489904	-2.47772e+06	-1.598584E-8	NaN
470	1.000000	0.570856	7.36966e+06	-53589.1	1005.82	-29745.9	0.000000	0.000000	6.570984	0.056425	NaN	0.000000	0.001632	0.001750	28.0829	0.135017	0.002080	64.8969	-150.661	-167.434	0.077045	0.569554	-0.481451	-0.482753	0.056425	64.8969	-0.482103	-1.92733e+06	-2.927632E-8	NaN
470	1.000000	0.578843	7.36966e+06	-53589.1	1005.82	-29745.9	0.000000	0.000000	6.578969	0.026136	NaN	0.000000	0.001574	0.001710	28.0828	0.022244	0.002018	11.0248	-46.8236	-166.164	0.083157	0.577562	-0.473464	-0.474745	0.026136	11.0248	-0.475242	-1.54486e+06	-1.691772E-8	NaN
470	1.000000	0.586847	7.36966e+06	-53589.1	1005.82	-29745.9	0.000000	0.000000	6.586974	0.036473	NaN	0.000000	0.001610	0.001738	28.083	0.140309	0.002069	67.8241	134.517	-167.602	0.004425	0.585574	-0.465460	-0.466733	0.036473	67.8241	-0.465863	-1.14121e+06	-3.195968E-8	NaN
470	1.000000	0.594888	7.36966e+06	-53589.1	1005.82	-29745.9	0.000000	0.000000	6.595012	-0.028740	NaN	0.000000	0.001600	0.001734	28.0825	0.050467	0.001931	26.1287	-40.9143	-164.659	-0.044995	0.593554	-0.457419	-0.458754	-0.028740	26.1287	-0.456594	-845548	3.399035E-8	NaN
470	1.000000	0.602854	7.36966e+06	-53589.1	1005.82	-29745.9	0.000000	0.000000	6.602980	0.017677	NaN	0.000000	0.001588	0.001721	28.0838	0.079712	0.001956	40.7436	-27.6946	-167.367	-0.054808	0.601491	-0.449453	-0.450816	0.017677	40.7436	-0.449778	-677984	-2.607281E-8	NaN
470	1.000000	0.610839	7.36966e+06	-53589.1	1005.82	-29745.9	0.000000	0.000000	6.610967	0.059846	NaN	0.000000	0.001598	0.001744	28.0814	0.050582	0.001877	26.9529	-37.8246	-165.171	0.054250	0.609549	-0.441468	-0.442758	0.059846	26.9529	-0.443133	-546469	-1.095133E-7	NaN
470	1.000000	0.618881	7.36966e+06	-53589.1	1005.82	-29745.9	0.000000	0.000000	6.619008	0.030000	NaN	0.000000	0.001594	0.001741	28.0815	0.117750	0.002120	55.5381	73.2049	-166.309	0.028833	0.617531	-0.433426	-0.434776	0.030000	55.5381	-0.433831	-403862	-7.428227E-8	NaN
470	1.000000	0.626863	7.36966e+06	-53589.1	1005.82	-29745.9	0.000000	0.000000	6.626987	-0.039875	NaN	0.000000	0.001570	0.001728	28.0816	0.087224	0.002001	43.5797	-52.0414	-166.561	0.019849	0.625512	-0.425444	-0.426795	-0.039875	43.5797	-0.424758	-300504	1.326937E-7	NaN
470	1.000000	0.634855	7.36966e+06	-53589.1	1005.82	-29745.9	0.000000	0.000000	6.634976	-0.094237	NaN	0.000000	0.001597	0.001691	28.0816	0.064904	0.001945	33.3678	63.7727	-168.492	-0.031909	0.633541	-0.417452	-0.418766	-0.094237	33.3678	-0.415334	-220901	4.266005E-7	NaN
470	1.000000	0.642855	7.36966e+06	-53589.1	1005.82	-29745.9	0.000000	0.000000	6.642981	0.028802	NaN	0.000000	0.001593	0.001709	28.0821	0.029363	0.002002	14.67	143.253	-165.809	0.054724	0.641547	-0.409453	-0.410760	0.028802	14.67	-0.410925	-191229	-1.506136E-7	NaN
470	1.000000	0.650849	7.36966e+06	-53589.1	1005.82	-29745.9	0.000000	0.000000	6.650973	-0.020316	NaN	0.000000	0.001613	0.001708	28.0819	0.053637	0.001870	28.6813	-173.772	-164.192	-0.119148	0.649630	-0.401459	-0.402677	-0.020316	28.6813	-0.400927	-137789	1.474440E-7	NaN
470	1.000000	0.658865	7.36966e+06	-53589.1	1005.82	-29745.9	0.000000	0.000000	6.658992	0.047640	NaN	0.000000	0.001602	0.001716	28.0822	0.029030	0.001951	14.8827	-162.399	-168.497	0.017617	0.657579	-0.393442	-0.394728	0.047640	14.8827	-0.395843	-116592	-4.086073E-7	NaN
470	1.000000	0.666902	7.36966e+06	-53589.1	1005.82	-29745.9	0.000000	0.000000	6.667026	-0.032925	NaN	0.000000	0.001585	0.001729	28.0818	0.021888	0.002052	10.6661	51.9621	-167.701	-0.050782	0.665569	-0.385405	-0.386738	-0.032925	10.6661	-0.383090	-76597.1	4.298435E-7	NaN
470	1.000000	0.674879	7.36966e+06	-53589.1	1005.82	-29745.9	0.000000	0.000000	6.675005	0.039498	NaN	0.000000	0.001587	0.001722	28.0817	0.030829	0.002120	14.5415	-24.0943	-168.283	-0.033155	0.673557	-0.377429	-0.378750	0.039498	14.5415	-0.379466	-67954.9	-5.812422E-7	NaN
470	1.000000	0.682845	7.36966e+06	-53589.1	1005.82	-29745.9	0.000000	0.000000	6.682967	-0.071869	NaN	0.000000	0.001576	0.001725	28.0822	0.089504	0.002088	42.8725	-147.167	-168.602	-0.114981	0.681615	-0.369462	-0.370692	-0.071869	42.8725	-0.368205	-46802.7	1.535570E-6	NaN
470	1.000000	0.690866	7.36966e+06	-53589.1	1005.82	-29745.9	0.000000	0.000000	6.690992	0.025097	NaN	0.000000	0.001600	0.001733	28.0818	0.094483	0.001937	48.7723	-168.108	-165.942	0.037317	0.689590	-0.361441	-0.362717	0.025097	48.7723	-0.361827	-37866.2	-6.627816E-7	NaN
470	1.000000	0.698910	7.36966e+06	-53589.1	1005.82	-29745.9	0.000000	0.000000	6.699033	-0.050611	NaN	0.000000	0.001579	0.001749	28.0819	0.037640	0.001982	18.9882	-27.9924	-167.072	-0.041369	0.697619	-0.353397	-0.354688	-0.050611	18.9882	-0.351398	-26747.4	1.892187E-6	NaN
470	1.000000	0.706887	7.36966e+06	-53589.1	1005.82	-29745.9	0.000000	0.000000	6.707011	-0.039013	NaN	0.000000	0.001574	0.001760	28.0818	0.040236	0.001940	20.7445	23.1928	-165.675	-0.015499	0.705596	-0.345420	-0.346711	-0.039013	20.7445	-0.344010	-20890.4	1.867513E-6	NaN
470	1.000000	0.714902	7.36966e+06	-53589.1	1005.82	-29745.9	0.000000	0.000000	6.715027	-0.023222	NaN	0.000000	0.001565	0.001726	28.0818	0.026819	0.001910	14.0447	-164.2	-164.785	0.024019	0.713661	-0.337405	-0.338646	-0.023222	14.0447	-0.336165	-16054.5	1.446467E-6	NaN
470	1.000000	0.722892	7.36966e+06	-53589.1	1005.82	-29745.9	0.000000	0.000000	6.723017	-0.017385	NaN	0.000000	0.001583	0.001730	28.0818	0.030327	0.002146	14.1302	-122.236	-165.694	-0.008896	0.721621	-0.329415	-0.330686	-0.017385	14.1302	-0.328492	-12398.1	1.402264E-6	NaN
470	1.000000	0.730919	7.36966e+06	-53589.1	1005.82	-29745.9	0.000000	0.000000	6.731045	0.017102	NaN	0.000000	0.001594	0.001730	28.0818	0.080218	0.002176	36.8587	97.7504	-166.294	-0.098613	0.729591	-0.321388	-0.322716	0.017102	36.8587	-0.321736	-9866.82	-1.733256E-6	NaN
470	1.000000	0.738895	7.36966e+06	-53589.1	1005.82	-29745.9	0.000000	0.000000	6.739016	-0.081553	NaN	0.000000	0.001599	0.001705	28.082	0.052214	0.001996	26.157	123.557	-168.449	-0.019232	0.737614	-0.313412	-0.314693	-0.081553	26.157	-0.311074	-6869.84	1.187110E-5	NaN
470	1.000000	0.746930	7.36966e+06	-53589.1	1005.82	-29745.9	0.000000	0.000000	6.747055	-0.005008	NaN	0.000000	0.001568	0.001709	28.0831	0.043177	0.002065	20.9051	55.7251	-164.691	0.007930	0.745645	-0.305377	-0.306662	-0.005008	20.9051	-0.305197	-5621.86	8.908305E-7	NaN
470	1.000000	0.754900	7.36966e+06	-53589.1	1005.82	-29745.9	0.000000	0.000000	6.755025	-0.001349	NaN	0.000000	0.001600	0.001718	28.0831	0.105294	0.002060	51.1086	-175.966	-168.938	0.026453	0.753617	-0.297407	-0.298690	-0.001349	51.1086	-0.297387	-4302.41	3.134814E-7	NaN
470	1.000000	0.762955	7.36966e+06	-53589.1	1005.82	-29745.9	0.000000	0.000000	6.763079	-0.038771	NaN	0.000000	0.001565	0.001733	28.0829	0.051295	0.001893	27.0993	176.448	-165.203	-0.057168	0.761581	-0.289352	-0.290727	-0.038771	27.0993	-0.288279	-3144.11	1.233124E-5	NaN
470	1.000000	0.770899	7.36966e+06	-53589.1	1005.82	-29745.9	0.000000	0.000000	6.771024	-0.019339	NaN	0.000000	0.001552	0.001714	28.0828	0.020468	0.001833	11.169	-75.9874	-167.642	0.027246	0.769638	-0.281408	-0.282669	-0.019339	11.169	-0.280109	-2369.29	8.162541E-6	NaN
470	1.000000	0.778933	7.36966e+06	-53589.1	1005.82	-29745.9	0.000000	0.000000	6.779058	0.011431	NaN	0.000000	0.001592	0.001707	28.083	0.114837	0.001946	59.0195	86.6089	-167.526	0.040206	0.777669	-0.273374	-0.274638	0.011431	59.0195	-0.273519	-1883.52	-6.069181E-6	NaN
470	1.000000	0.786943	7.36966e+06	-53589.1	1005.82	-29745.9	0.000000	0.000000	6.787067	-0.030897	NaN	0.000000	0.001572	0.001707	28.0827	0.065305	0.002087	31.2942	170.899	-164.717	-0.089944	0.785709	-0.265364	-0.266599	-0.030897	31.2942	-0.264624	-1379.25	2.240145E-5	NaN
470	1.000000	0.794944	7.36966e+06	-53589.1	1005.82	-29745.9	0.000000	0.000000	6.795073	0.088597	NaN	0.000000	0.001531	0.001709	28.0829	0.018175	0.002046	8.885213	-148.362	-167.652	0.048596	0.793612	-0.257363	-0.258695	0.088597	8.885213	-0.264841	-1389.84	-6.374603E-5	NaN
470	1.000000	0.802943	7.36966e+06	-53589.1	1005.82	-29745.9	0.000000	0.000000	6.803069	0.028543	NaN	0.000000	0.001537	0.001732	28.0826	0.065336	0.002037	32.0687	-154.88	-167.295	0.102926	0.801571	-0.249364	-0.250736	0.028543	32.0687	-0.250032	-823.109	-3.467747E-5	NaN
470	1.000000	0.810968	7.36966e+06	-53589.1	1005.82	-29745.9	0.000000	0.000000	6.811095	0.057984	NaN	0.000000	0.001519	0.001707	28.0828	0.010814	0.001933	5.594330	12.4073	-164.748	0.100189	0.809671	-0.241339	-0.242636	0.057984	5.594330	-0.249113	-796.606	-7.278908E-5	NaN
470	1.000000	0.818937	7.36966e+06	-53589.1	1005.82	-29745.9	0.000000	0.000000	6.819062	0.013307	NaN	0.000000	0.001568	0.001753	28.0826	0.051150	0.001905	26.8562	-158.296	-166.879	0.107429	0.817669	-0.233370	-0.234638	0.013307	26.8562	-0.233742	-458.649	-2.901350E-5	NaN
470	1.000000	0.826959	7.36966e+06	-53589.1	1005.82	-29745.9	0.000000	0.000000	6.827085	0.023585	NaN	0.000000	0.001564	0.001720	28.0827	0.047431	0.001961	24.19	-143.308	-168.37	-0.026309	0.825640	-0.225348	-0.226667	0.023585	24.19	-0.226080	-347.113	-6.794755E-5	NaN
470	1.000000	0.834954	7.36966e+06	-53589.1	1005.82	-29745.9	0.000000	0.000000	6.835079	0.005037	NaN	0.000000	0.001573	0.001742	28.0828	0.068856	0.001896	36.3096	94.8612	-168.008	0.015248	0.833642	-0.217353	-0.218666	0.005037	36.3096	-0.217457	-252.913	-1.991401E-5	NaN
470	1.000000	0.842936	7.36966e+06	-53589.1	1005.82	-29745.9	0.000000	0.000000	6.843061	0.004837	NaN	0.000000	0.001587	0.001723	28.0826	0.061276	0.002084	29.4059	23.2403	-166.54	0.007422	0.841637	-0.209371	-0.210670	0.004837	29.4059	-0.209495	-188.206	-2.570039E-5	NaN
470	1.000000	0.850970	7.36966e+06	-53589.1	1005.82	-29745.9	0.000000	0.000000	6.851096	0.014369	NaN	0.000000	0.001603	0.001770	28.0831	0.046970	0.001949	24.1041	0.156115	-165.344	0.055334	0.849652	-0.201337	-0.202655	0.014369	24.1041	-0.201784	-140.921	-0.000102	NaN
470	1.000000	0.858994	7.36966e+06	-53589.1	1005.82	-29745.9	0.000000	0.000000	6.859119	-0.017252	NaN	0.000000	0.001588	0.001758	28.0825	0.168099	0.002132	78.8353	145.311	-166.54	-0.107257	0.857678	-0.193313	-0.194629	-0.017252	78.8353	-0.193149	-101.505	0.000170	NaN
470	1.000000	0.866930	7.36966e+06	-53589.1	1005.82	-29745.9	0.000000	0.000000	6.867056	0.036813	NaN	0.000000	0.001586	0.001753	28.0828	0.047101	0.001937	24.3168	159.444	-165.484	0.020968	0.865658	-0.185377	-0.186649	0.036813	24.3168	-0.186513	-78.631	-0.000468	NaN
470	1.000000	0.874962	7.36966e+06	-53589.1	1005.82	-29745.9	0.000000	0.000000	6.875087	-0.002374	NaN	0.000000	0.001581	0.001760	28.0827	0.025279	0.002010	12.5784	-91.0821	-167.05	-0.023711	0.873686	-0.177345	-0.178621	-0.002374	12.5784	-0.177203	-54.6706	4.342978E-5	NaN
470	1.000000	0.882968	7.36966e+06	-53589.1	1005.82	-29745.9	0.000000	0.000000	6.883094	0.035028	NaN	0.000000	0.001565	0.001759	28.0815	0.041254	0.002056	20.0622	-124.447	-166.973	0.061716	0.881659	-0.169339	-0.170648	0.035028	20.0622	-0.170649	-42.1573	-0.000831	NaN
470	1.000000	0.890959	7.36966e+06	-53589.1	1005.82	-29745.9	0.000000	0.000000	6.891085	0.030452	NaN	0.000000	0.001554	0.001744	28.0821	0.008537	0.001912	4.465641	4.328628	-166.814	-0.037455	0.889683	-0.161348	-0.162625	0.030452	4.465641	-0.166463	-35.6409	-0.000854	NaN
470	1.000000	0.899004	7.36966e+06	-53589.1	1005.82	-29745.9	0.000000	0.000000	6.899127	-0.059546	NaN	0.000000	0.001543	0.001738	28.0814	0.063270	0.002050	30.8572	-155.008	-166.368	-0.028345	0.897703	-0.153303	-0.154604	-0.059546	30.8572	-0.151856	-19.5776	0.003042	NaN
470	1.000000	0.907001	7.36966e+06	-53589.1	1005.82	-29745.9	0.000000	0.000000	6.907124	-0.038463	NaN	0.000000	0.001542	0.001771	28.0815	0.110455	0.002030	54.4047	151.718	-169.541	0.068398	0.905684	-0.145306	-0.146623	-0.038463	54.4047	-0.144776	-14.5218	0.002649	NaN
470	1.000000	0.914984	7.36966e+06	-53589.1	1005.82	-29745.9	0.000000	0.000000	6.915110	0.021329	NaN	0.000000	0.001538	0.001789	28.0816	0.038973	0.002040	19.1088	66.3963	-164.051	0.096465	0.913675	-0.137324	-0.138632	0.021329	19.1088	-0.138161	-10.9223	-0.001953	NaN
470	1.000000	0.923000	7.36966e+06	-53589.1	1005.82	-29745.9	0.000000	0.000000	6.923126	0.006619	NaN	0.000000	0.001558	0.001778	28.0816	0.122116	0.002022	60.3869	92.4077	-170.832	-0.046761	0.921618	-0.129307	-0.130689	0.006619	60.3869	-0.129389	-7.415266	-0.000893	NaN
470	1.000000	0.930967	7.36966e+06	-53589.1	1005.82	-29745.9	0.000000	0.000000	6.931093	0.021462	NaN	0.000000	0.001518	0.001800	28.0819	0.107429	0.001995	53.8419	-85.9295	-166.168	0.081361	0.929664	-0.121340	-0.122643	0.021462	53.8419	-0.121639	-5.212626	-0.004117	NaN
470	1.000000	0.939014	7.36966e+06	-53589.1	1005.82	-29745.9	0.000000	0.000000	6.939141	0.053877	NaN	0.000000	0.001560	0.001781	28.0816	0.061488	0.001943	31.6538	-34.5311	-165.691	0.040899	0.937660	-0.113294	-0.114647	0.053877	31.6538	-0.114570	-3.743130	-0.014394	NaN
470	1.000000	0.946958	7.36966e+06	-53589.1	1005.82	-29745.9	0.000000	0.000000	6.947084	0.019692	NaN	0.000000	0.001561	0.001802	28.0819	0.109716	0.002185	50.2088	-98.3104	-166.131	0.051380	0.945694	-0.105349	-0.106613	0.019692	50.2088	-0.105643	-2.426810	-0.008115	NaN
470	1.000000	0.955031	7.36966e+06	-53589.1	1005.82	-29745.9	0.000000	0.000000	6.955155	-0.024440	NaN	0.000000	0.001552	0.001787	28.0816	0.061533	0.001985	30.9996	146.618	-167.891	-0.039386	0.953741	-0.097276	-0.098566	-0.024440	30.9996	-0.096685	-1.540339	0.015867	NaN
470	1.000000	0.963023	7.36966e+06	-53589.1	1005.82	-29745.9	0.000000	0.000000	6.963150	0.042232	NaN	0.000000	0.001552	0.001791	28.0815	0.062532	0.002051	30.4909	-85.0414	-166.63	0.027599	0.961706	-0.089284	-0.090601	0.042232	30.4909	-0.090323	-1.099966	-0.038394	NaN
470	1.000000	0.971004	7.36966e+06	-53589.1	1005.82	-29745.9	0.000000	0.000000	6.971130	0.017287	NaN	0.000000	0.001588	0.001784	28.0814	0.034663	0.001974	17.5587	-14.8366	-167.18	0.029555	0.969662	-0.081303	-0.082645	0.017287	17.5587	-0.082042	-0.695656	-0.024850	NaN
470	1.000000	0.979006	7.36966e+06	-53589.1	1005.82	-29745.9	0.000000	0.000000	6.979130	-0.013951	NaN	0.000000	0.001607	0.001783	28.0814	0.051639	0.002014	25.6355	76.6404	-167.919	-0.008127	0.977694	-0.073301	-0.074613	-0.013951	25.6355	-0.072893	-0.407018	0.034276	NaN
470	1.000000	0.987021	7.36966e+06	-53589.1	1005.82	-29745.9	0.000000	0.000000	6.987147	0.002845	NaN	0.000000	0.001572	0.001821	28.0818	0.043421	0.002025	21.4403	56.413	-161.463	-0.010635	0.985688	-0.065286	-0.066619	0.002845	21.4403	-0.065385	-0.255417	-0.011139	NaN
470	1.000000	0.995024	7.36966e+06	-53589.1	1005.82	-29745.9	0.000000	0.000000	6.995152	0.050912	NaN	0.000000	0.001561	0.001801	28.0815	0.086079	0.001984	43.3894	76.2555	-168.275	-0.028422	0.993729	-0.057283	-0.058578	0.050912	43.3894	-0.058163	-0.159400	-0.319401	NaN
470	1.000000	1.003056	7.36966e+06	-53589.1	1005.82	-29745.9	0.000000	0.000000	7.003180	-0.027603	NaN	0.000000	0.001554	0.001801	28.0815	0.099313	0.002085	47.6339	40.5161	-164.568	0.053268	1.001741	-0.049251	-0.050566	-0.027603	47.6339	-0.048816	-0.084016	0.328544	NaN
470	1.000000	1.011032	7.36966e+06	-53589.1	1005.82	-29745.9	0.000000	0.000000	7.011157	-0.025448	NaN	0.000000	0.001580	0.001790	28.0814	0.131107	0.002068	63.3845	-150.141	-164.282	-0.084372	1.009741	-0.041275	-0.042567	-0.025448	63.3845	-0.040973	-0.048413	0.525650	NaN
470	1.000000	1.019019	7.36966e+06	-53589.1	1005.82	-29745.9	0.000000	0.000000	7.019145	0.011839	NaN	0.000000	0.001536	0.001773	28.0827	0.082365	0.002051	40.1605	-129.88	-165.211	0.114079	1.017764	-0.033288	-0.034543	0.011839	40.1605	-0.033509	-0.028965	-0.408746	NaN
470	1.000000	1.027017	7.36966e+06	-53589.1	1005.82	-29745.9	0.000000	0.000000	7.027142	-0.006548	NaN	0.000000	0.001570	0.001752	28.0828	0.043663	0.002042	21.3876	-151.986	-165.871	0.037823	1.025752	-0.025290	-0.026555	-0.006548	21.3876	-0.025061	-0.016932	0.386708	NaN
470	1.000000	1.035019	7.36966e+06	-53589.1	1005.82	-29745.9	0.000000	0.000000	7.035142	-0.041506	NaN	0.000000	0.001539	0.001777	28.083	0.093147	0.002037	45.7181	167.723	-166.846	-0.044599	1.033683	-0.017288	-0.018624	-0.041506	45.7181	-0.016607	-0.010261	4.044844	NaN
470	1.000000	1.043035	7.36966e+06	-53589.1	1005.82	-29745.9	0.000000	0.000000	7.043159	-0.032591	NaN	0.000000	0.001560	0.001793	28.0832	0.091810	0.001987	46.1991	-107.88	-168.835	-0.005246	1.041721	-0.009272	-0.010586	-0.032591	46.1991	-0.008743	-0.005664	5.753884	NaN
470	1.000000	1.051017	7.36966e+06	-53589.1	1005.82	-29745.9	0.000000	0.000000	7.051183	0.993830	NaN	0.000000	0.001569	0.001757	28.0829	1.456081	0.001980	735.546	4.344188	-165.911	0.336076	1.049727	-0.001290	-0.002580	0.993830	735.546	-0.002304	-0.001649	-602.824	NaN
470	1.000000	1.058928	7.36966e+06	-53589.1	1005.82	-29745.9	0.000000	0.000000	7.059354	7.318074	NaN	0.000000	0.001584	0.001742	28.0828	8.043355	0.001762	4564.43	15.0967	-176.188	6.141271	1.057704	0.006621	0.005397	7.318074	4564.43	0.005419	0.004519	1619.51	62037.3
470	2.000000	1.061642	7.36966e+06	-53589.1	1005.82	-29745.9	0.000000	0.000000	7.062182	10.0869	NaN	0.000000	0.001580	0.001764	28.0828	10.7175	0.001743	6149.94	6.309072	-172.249	9.297594	1.061271	0.009335	0.008964	10.0869	6149.94	0.008105	0.007151	1410.66	66446.9
470	2.000000	1.063598	7.36966e+06	-53589.1	1005.82	-29745.9	0.000000	0.000000	7.064212	11.906	NaN	0.000000	0.001560	0.001767	28.0829	12.3758	0.001814	6822.9	7.395092	-173.963	11.6213	1.063274	0.011291	0.010967	11.906	6822.9	0.009982	0.009161	1299.6	65127.4
470	2.000000	1.065607	7.36966e+06	-53589.1	1005.82	-29746	0.000000	0.000000	7.066402	16.2814	NaN	0.000000	0.001578	0.001766	28.0832	14.8322	0.001786	8306.58	9.270275	-176.331	16.7884	1.065283	0.013300	0.012975	16.2814	8306.58	0.011830	0.011287	1442.49	71434.1
470	2.000000	1.067578	7.36966e+06	-53589.1	1005.82	-29745.9	0.000000	0.000000	7.068540	20.3351	NaN	0.000000	0.001548	0.001827	28.0827	16.1574	0.001582	10211.6	3.196178	-174.161	19.8848	1.067243	0.015271	0.014936	20.3351	10211.6	0.013777	0.013690	1485.45	79739.2
470	2.000000	1.069537	7.36966e+06	-53589.1	1005.82	-29745.9	0.000000	0.000000	7.070616	23.1765	NaN	0.000000	0.001539	0.001822	28.0828	19.0375	0.001832	10392.2	8.443192	-179.537	21.8729	1.069242	0.017230	0.016935	23.1765	10392.2	0.015558	0.016036	1445.25	74977.2
470	2.000000	1.071608	7.36966e+06	-53589.1	1005.82	-29745.9	0.000000	0.000000	7.072971	30.0857	NaN	0.000000	0.001528	0.001821	28.0829	21.4233	0.001880	11394.6	8.718297	-179.433	29.6718	1.071269	0.019301	0.018961	30.0857	11394.6	0.017321	0.018506	1625.74	76527.3
470	2.000000	1.073582	7.36966e+06	-53589.1	1005.82	-29746	0.000000	0.000000	7.075203	36.353	NaN	0.000000	0.001557	0.001808	28.0828	22.9764	0.001735	13241.6	7.454296	-178.876	37.9013	1.073185	0.021275	0.020878	36.353	13241.6	0.019216	0.021326	1704.67	82844.4
470	2.000000	1.075531	7.36966e+06	-53589.1	1005.82	-29746	0.000000	0.000000	7.077312	40.268	NaN	0.000000	0.001555	0.001801	28.0832	26.0524	0.001730	15060.7	7.971198	178.438	40.2477	1.075230	0.023224	0.022923	40.268	15060.7	0.021218	0.024493	1644.05	87921.3
470	2.000000	1.077546	7.36966e+06	-53589.1	1005.82	-29746	0.000000	0.000000	7.079679	48.8142	NaN	0.000000	0.001526	0.001825	28.0827	27.0099	0.001903	14191.6	10.1704	178.987	49.6092	1.077150	0.025239	0.024842	48.8142	14191.6	0.022659	0.026894	1815.04	79063.1
470	2.000000	1.079596	7.36966e+06	-53589.1	1005.82	-29746	0.000000	0.000000	7.081915	53.3277	NaN	0.000000	0.001559	0.001788	28.083	29.8103	0.001841	16194.5	7.880985	178.062	54.2709	1.079214	0.027289	0.026907	53.3277	16194.5	0.024819	0.030688	1737.75	84461.4
470	2.000000	1.081494	7.36966e+06	-53589.1	1005.82	-29746	0.000000	0.000000	7.084096	60.2158	NaN	0.000000	0.001577	0.001754	28.0828	31.6129	0.001813	17438.3	5.266287	179.576	57.8547	1.081246	0.029187	0.028939	60.2158	17438.3	0.026597	0.033986	1771.8	86423.2
470	2.000000	1.083536	7.36966e+06	-53589.1	1005.82	-29746	0.000000	0.000000	7.086326	64.7963	NaN	0.000000	0.001558	0.001784	28.0816	33.4026	0.001687	19805.4	9.673983	174.058	65.0977	1.083085	0.031229	0.030778	64.7963	19805.4	0.028775	0.038243	1694.32	92529.1
470	2.000000	1.085485	7.36966e+06	-53589.1	1005.82	-29746	0.000000	0.000000	7.088389	67.5684	NaN	0.000000	0.001583	0.001778	28.0818	36.2314	0.001750	20698.4	5.618319	176.156	64.8235	1.085235	0.033178	0.032928	67.5684	20698.4	0.030729	0.042269	1598.54	91981.3
470	2.000000	1.087451	7.36966e+06	-53589.1	1005.82	-29746	0.000000	0.000000	7.090833	79.1845	NaN	0.000000	0.001587	0.001734	28.0815	36.8414	0.001799	20478.9	3.333566	179.793	76.202	1.087154	0.035143	0.034847	79.1845	20478.9	0.032243	0.045522	1739.47	87693.8
470	2.000000	1.089496	7.36966e+06	-53589.1	1005.82	-29746	0.000000	0.000000	7.092870	78.9742	NaN	0.000000	0.001603	0.001764	28.0819	39.1751	0.001872	20923.5	1.562080	-179.334	77.5632	1.089337	0.037189	0.037030	78.9742	20923.5	0.034358	0.050262	1571.24	85268.1
470	2.000000	1.091599	7.36966e+06	-53589.1	1005.82	-29746	0.000000	0.000000	7.095426	90.0033	NaN	0.000000	0.001607	0.001765	28.0815	40.7099	0.001524	26704.9	0.926645	179.85	94.4766	1.091168	0.039292	0.038860	90.0033	26704.9	0.036764	0.055934	1609.11	103164
470	2.000000	1.093505	7.36966e+06	-53589.1	1005.82	-29746	0.000000	0.000000	7.097819	101.843	NaN	0.000000	0.001578	0.001760	28.0816	42.3724	0.001767	23980.8	4.676294	176.924	100.399	1.093194	0.041198	0.040887	101.843	23980.8	0.038013	0.058994	1726.33	90205.3
470	2.000000	1.095467	7.36966e+06	-53589.1	1005.82	-29746	0.000000	0.000000	7.099705	99.9961	NaN	0.000000	0.001585	0.001736	28.0814	44.9842	0.001816	24769.4	3.872027	177.59	98.3352	1.095260	0.043160	0.042953	99.9961	24769.4	0.040132	0.064371	1553.44	89195.6
470	2.000000	1.097454	7.36966e+06	-53589.1	1005.82	-29746	0.000000	0.000000	7.102204	112.423	NaN	0.000000	0.001595	0.001751	28.0815	45.9804	0.001726	26633.4	4.303726	176.668	110.493	1.097141	0.045147	0.044834	112.423	26633.4	0.041981	0.069249	1623.46	92468
470	2.000000	1.099480	7.36966e+06	-53589.1	1005.82	-29746	0.000000	0.000000	7.104145	110.388	NaN	0.000000	0.001595	0.001781	28.0819	48.4979	0.001884	25747.8	3.337499	178.489	107.844	1.099143	0.047173	0.046836	110.388	25747.8	0.043957	0.074654	1478.66	86096.7
470	2.000000	1.101516	7.36966e+06	-53589.1	1005.82	-29746	0.000000	0.000000	7.106697	122.926	NaN	0.000000	0.001596	0.001790	28.0817	50.3025	0.001881	26748.6	5.139734	176.148	122.496	1.101122	0.049209	0.048815	122.926	26748.6	0.045762	0.079766	1541.07	86529.5
470	2.000000	1.103546	7.36966e+06	-53589.1	1005.82	-29746	0.000000	0.000000	7.109308	137.029	NaN	0.000000	0.001561	0.001734	28.0818	51.7437	0.001777	29113.8	9.205325	172.409	138.862	1.103042	0.051239	0.050735	137.029	29113.8	0.047709	0.085464	1603.35	90987
470	2.000000	1.105441	7.36966e+06	-53589.1	1005.82	-29746	0.000000	0.000000	7.111435	142.688	NaN	0.000000	0.001563	0.001737	28.0818	53.912	0.001724	31278.3	2.770871	176.87	140.732	1.105130	0.053134	0.052823	142.688	31278.3	0.049712	0.091525	1559	94459.6
470	2.000000	1.107433	7.36966e+06	-53589.1	1005.82	-29746	0.000000	0.000000	7.113937	155.069	NaN	0.000000	0.001581	0.001759	28.0817	55.0428	0.001687	32634	3.308705	175.368	153.264	1.107144	0.055126	0.054837	155.069	32634	0.051563	0.097304	1593.66	95582.5
470	2.000000	1.109480	7.36966e+06	-53589.1	1005.82	-29746	0.000000	0.000000	7.115945	154.144	NaN	0.000000	0.001560	0.001725	28.0819	58.8402	0.001679	35049.5	5.955270	172.25	153.267	1.109191	0.057173	0.056884	154.144	35049.5	0.053874	0.104763	1471.35	98935.1
470	2.000000	1.111520	7.36966e+06	-53589.1	1005.82	-29746	0.000000	0.000000	7.118742	172.539	NaN	0.000000	0.001561	0.001727	28.0814	62.1153	0.001820	34124.3	7.964759	171.772	171.64	1.111160	0.059213	0.058853	172.539	34124.3	0.055420	0.109901	1569.96	94045.2
470	2.000000	1.113464	7.36966e+06	-53589.1	1005.82	-29746	0.000000	0.000000	7.120855	176.652	NaN	0.000000	0.001557	0.001722	28.0818	62.8447	0.001834	34266.4	3.835400	175.005	176.353	1.113211	0.061157	0.060904	176.652	34266.4	0.057290	0.116272	1519.3	91813
470	2.000000	1.115519	7.36966e+06	-53589.1	1005.82	-29746	0.000000	0.000000	7.123638	194.361	NaN	0.000000	0.001561	0.001718	28.0819	65.5224	0.001820	36005.4	8.777723	171.021	195.1	1.115088	0.063212	0.062781	194.361	36005.4	0.059163	0.122824	1582.43	93864
470	2.000000	1.117600	7.36966e+06	-53589.1	1005.82	-29746	0.000000	0.000000	7.125732	194.673	NaN	0.000000	0.001551	0.001764	28.0828	66.0372	0.001675	39432.9	5.472326	172.698	202.15	1.117247	0.065293	0.064940	194.673	39432.9	0.061590	0.131572	1479.59	99323.1
470	2.000000	1.119418	7.36966e+06	-53589.1	1005.82	-29746	0.000000	0.000000	7.128100	208.032	NaN	0.000000	0.001563	0.001745	28.0831	68.3149	0.001698	40239.6	1.230207	176.153	204.912	1.119123	0.067111	0.066816	208.032	40239.6	0.063234	0.137659	1511.21	99088.9
470	2.000000	1.121501	7.36966e+06	-53589.1	1005.82	-29746	0.000000	0.000000	7.130538	216.657	NaN	0.000000	0.001544	0.001725	28.0828	71.5064	0.001755	40755.9	5.501817	172.427	215.109	1.121156	0.069194	0.068849	216.657	40755.9	0.065207	0.145139	1492.75	97739.7
470	2.000000	1.123422	7.36966e+06	-53589.1	1005.82	-29746	0.000000	0.000000	7.133331	237.85	NaN	0.000000	0.001569	0.001715	28.0831	72.9449	0.001729	42178.3	4.031333	172.978	235.63	1.123084	0.071115	0.070777	237.85	42178.3	0.066886	0.151652	1568.4	98955.3
470	2.000000	1.125424	7.36966e+06	-53589.1	1005.82	-29746	0.000000	0.000000	7.135431	240.268	NaN	0.000000	0.001565	0.001723	28.083	77.2057	0.001788	43190	6.154621	170.418	238.234	1.125319	0.073117	0.073012	240.268	43190	0.068944	0.159820	1503.37	98705.4
470	2.000000	1.127514	7.36966e+06	-53589.1	1005.82	-29746	0.000000	0.000000	7.138065	253.476	NaN	0.000000	0.001574	0.001729	28.083	77.4013	0.001742	44434.8	1.202579	175.751	255.451	1.127103	0.075207	0.074795	253.476	44434.8	0.070928	0.167885	1509.82	99081.1
470	2.000000	1.129464	7.36966e+06	-53589.1	1005.82	-29746	0.000000	0.000000	7.140929	275.717	NaN	0.000000	0.001608	0.001741	28.0829	81.2389	0.001796	45235.4	9.202673	167.952	276.581	1.129124	0.077156	0.076817	275.717	45235.4	0.072585	0.174763	1577.67	98861.5
470	2.000000	1.131550	7.36966e+06	-53589.1	1005.82	-29746	0.000000	0.000000	7.143420	285.555	NaN	0.000000	0.001585	0.001668	28.0828	82.1768	0.001861	44155.7	4.488857	173.432	287.803	1.131102	0.079243	0.078795	285.555	44155.7	0.074392	0.182413	1565.43	94456.6
470	2.000000	1.133482	7.36966e+06	-53589.1	1005.82	-29746	0.000000	0.000000	7.145920	299.332	NaN	0.000000	0.001604	0.001755	28.0827	83.5684	0.001834	45569.1	3.944806	173.302	300.926	1.133113	0.081175	0.080806	299.332	45569.1	0.076249	0.190432	1571.85	95405.4
470	2.000000	1.135524	7.36966e+06	-53589.1	1005.82	-29746	0.000000	0.000000	7.148507	312.593	NaN	0.000000	0.001647	0.001770	28.0828	87.2153	0.001784	48897	5.871521	169.819	314.276	1.135254	0.083217	0.082947	312.593	48897	0.078422	0.200027	1562.75	99887.5
470	2.000000	1.137372	7.36966e+06	-53589.1	1005.82	-29746	0.000000	0.000000	7.151185	332.782	NaN	0.000000	0.001649	0.001770	28.0828	87.1159	0.001834	47510	4.970333	172.048	328.394	1.137085	0.085065	0.084778	332.782	47510	0.079811	0.206273	1613.31	95573.6
470	2.000000	1.139420	7.36966e+06	-53589.1	1005.82	-29746	0.000000	0.000000	7.153860	348.024	NaN	0.000000	0.001649	0.001758	28.0827	90.398	0.001772	51025.4	4.564575	171.479	345.56	1.139074	0.087113	0.086767	348.024	51025.4	0.081997	0.216287	1609.09	100241
470	2.000000	1.141534	7.36966e+06	-53589.1	1005.82	-29746	0.000000	0.000000	7.156259	354.943	NaN	0.000000	0.001624	0.001743	28.0828	92.6773	0.001681	55116.4	6.832614	168.996	358.91	1.141177	0.089227	0.088870	354.943	55116.4	0.084397	0.227535	1559.95	105567
470	2.000000	1.143331	7.36966e+06	-53589.1	1005.82	-29746	0.000000	0.000000	7.158949	376.676	NaN	0.000000	0.001654	0.001710	28.0826	93.3622	0.001705	54769.3	2.324359	172.81	370.132	1.143090	0.091024	0.090783	376.676	54769.3	0.085866	0.234548	1605.96	103322
470	2.000000	1.145450	7.36966e+06	-53589.1	1005.82	-29746	0.000000	0.000000	7.161748	393.217	NaN	0.000000	0.001623	0.001737	28.0825	95.6483	0.001731	55244.8	2.354037	173.36	391.909	1.145130	0.093143	0.092823	393.217	55244.8	0.087804	0.243961	1611.8	102189
470	2.000000	1.147416	7.36966e+06	-53589.1	1005.82	-29746	0.000000	0.000000	7.164254	406.323	NaN	0.000000	0.001642	0.001776	28.0826	97.8271	0.001883	51946.1	8.879231	167.133	404.926	1.147046	0.095109	0.094739	406.323	51946.1	0.089242	0.251053	1618.47	94720.3
470	2.000000	1.149459	7.36966e+06	-53589.1	1005.82	-29746	0.000000	0.000000	7.166862	420.044	NaN	0.000000	0.001560	0.001770	28.0824	99.0746	0.001833	54042.2	3.044603	172.138	419.941	1.149139	0.097152	0.096832	420.044	54042.2	0.091323	0.261485	1606.38	96556.8
470	2.000000	1.151404	7.36966e+06	-53589.1	1005.82	-29746	0.000000	0.000000	7.169716	442.174	NaN	0.000000	0.001556	0.001762	28.0827	100.586	0.001710	58828.3	6.065435	168.814	438.038	1.151181	0.099097	0.098874	442.174	58828.3	0.093459	0.272402	1623.24	102980
470	2.000000	1.153428	7.36966e+06	-53589.1	1005.82	-29746	0.000000	0.000000	7.171881	445.581	NaN	0.000000	0.001578	0.001783	28.0815	101.495	0.001787	56800.1	6.685376	168.828	443.076	1.153029	0.101121	0.100722	445.581	56800.1	0.095237	0.281647	1582.06	97784.4
470	2.000000	1.155396	7.36966e+06	-53589.1	1005.82	-29746	0.000000	0.000000	7.174598	463.786	NaN	0.000000	0.001547	0.001760	28.0813	104.589	0.001856	56347.7	4.198709	171.071	461.508	1.155184	0.103089	0.102877	463.786	56347.7	0.096916	0.290507	1596.47	95514.8
470	2.000000	1.157511	7.36966e+06	-53589.1	1005.82	-29746	0.000000	0.000000	7.177113	473.535	NaN	0.000000	0.001537	0.001792	28.0814	106.589	0.001813	58790.7	7.469842	167.546	477.92	1.157104	0.105204	0.104797	473.535	58790.7	0.099163	0.302567	1565.06	97649.7
470	2.000000	1.158306	7.36966e+06	-53589.1	1005.82	-29746	0.000000	0.000000	7.178478	487.403	NaN	0.000000	0.001565	0.001791	28.0817	107.723	0.001818	59265.3	2.227010	172.903	480.73	1.158092	0.105999	0.105785	487.403	59265.3	0.099831	0.306195	1591.8	97853