File: remote_trans/data/nanoindenter/0828-1/data/Data_2025-08-06,11h17m57s/2025-07-22_16-23-58_1_1022.txt
2025-07-22, 16:23:58, 1
Index	Phase	Displacement	Time	Pos X	Pos Y	Pos Z	Rot A	Rot B	Piezo Z	Force A	Force B	Gripper	Voltage A	Voltage B	Temperature	Amplitude force	Amplitude pos	Stiffness	Phase shift	Phase excitation	Force A raw	Displacement raw	HMax	HMax raw	Real Force	Real Stiffness	Contact Depth	Area	Hardness	Reduced Mod.
[#]	[#]	[um]	[s]	[um]	[um]	[um]	[m°]	[m°]	[um]	[uN]	[uN]	[V]	[V]	[V]	[°C]	[uN]	[um]	[N/m]	[°]	[°]	[uN]	[um]	[um]	[um]	[uN]	[N/m]	[um]	[um^2]	[MPa]	[MPa]
1022	1.000000	0.002251	7.37504e+06	-51239.1	1055.82	-29752.8	0.000000	0.000000	6.002742	-0.034115	NaN	0.000000	0.001655	0.001746	28.0855	0.088740	0.001063	83.4644	-143.749	177.259	-0.107577	0.000912	-1.110114	-1.111453	-0.034115	83.4644	-1.109808	-6.787486E+14	5.026142E-17	NaN
1022	1.000000	0.012292	7.37504e+06	-51239.1	1055.82	-29752.8	0.000000	0.000000	6.012784	-0.043207	NaN	0.000000	0.001672	0.001725	28.0853	0.072099	0.001179	61.1291	-171.03	2.402566	-0.090387	0.010876	-1.100073	-1.101489	-0.043207	61.1291	-1.099543	-4.942274E+14	8.742283E-17	NaN
1022	1.000000	0.022202	7.37504e+06	-51239.1	1055.82	-29752.8	0.000000	0.000000	6.022696	0.035017	NaN	0.000000	0.001624	0.001729	28.0859	0.055488	0.001612	34.4143	-62.2939	178.265	0.008420	0.020867	-1.090163	-1.091498	0.035017	34.4143	-1.090927	-3.786625E+14	-9.247499E-17	NaN
1022	1.000000	0.032182	7.37504e+06	-51239.1	1055.82	-29752.8	0.000000	0.000000	6.032673	-0.037307	NaN	0.000000	0.001600	0.001696	28.0845	0.076219	0.001944	39.2021	-10.0824	0.769660	-0.033437	0.030824	-1.080183	-1.081541	-0.037307	39.2021	-1.079469	-2.657013E+14	1.404080E-16	NaN
1022	1.000000	0.042180	7.37504e+06	-51239.1	1055.82	-29752.8	0.000000	0.000000	6.042675	0.034791	NaN	0.000000	0.001628	0.001740	28.0843	0.141973	0.001779	79.8192	-6.885883	176.277	0.082588	0.040882	-1.070185	-1.071483	0.034791	79.8192	-1.070512	-2.014012E+14	-1.727443E-16	NaN
1022	1.000000	0.052201	7.37504e+06	-51239.1	1055.82	-29752.8	0.000000	0.000000	6.052694	-0.008947	NaN	0.000000	0.001616	0.001716	28.0844	0.064317	0.001918	33.5417	-154.696	-2.085534	0.000456	0.050836	-1.060164	-1.061529	-0.008947	33.5417	-1.059964	-1.453222E+14	6.156521E-17	NaN
1022	1.000000	0.062217	7.37504e+06	-51239.1	1055.82	-29752.8	0.000000	0.000000	6.062709	-0.031038	NaN	0.000000	0.001569	0.001761	28.0843	0.089360	0.001952	45.7858	109.695	176.173	-0.090961	0.060887	-1.050148	-1.051478	-0.031038	45.7858	-1.049639	-1.055758E+14	2.939888E-16	NaN
1022	1.000000	0.072181	7.37504e+06	-51239.1	1055.82	-29752.8	0.000000	0.000000	6.072673	-0.027592	NaN	0.000000	0.001578	0.001700	28.084	0.022514	0.002017	11.1595	-170.943	-5.494402	-0.012646	0.070857	-1.040183	-1.041508	-0.027592	11.1595	-1.038329	-7.438721E+13	3.709302E-16	NaN
1022	1.000000	0.082202	7.37504e+06	-51239.1	1055.82	-29752.8	0.000000	0.000000	6.082695	-0.005717	NaN	0.000000	0.001608	0.001707	28.0839	0.059203	0.002045	28.9532	-52.2365	178.905	0.076134	0.080867	-1.030163	-1.031498	-0.005717	28.9532	-1.030014	-5.750101E+13	9.942924E-17	NaN
1022	1.000000	0.092230	7.37504e+06	-51239.1	1055.82	-29752.8	0.000000	0.000000	6.092721	-0.033550	NaN	0.000000	0.001605	0.001736	28.0843	0.017313	0.002047	8.458942	50.0273	-3.256397	-0.018207	0.090837	-1.020135	-1.021528	-0.033550	8.458942	-1.017161	-3.861425E+13	8.688606E-16	NaN
1022	1.000000	0.102243	7.37504e+06	-51239.1	1055.82	-29752.8	0.000000	0.000000	6.102733	-0.086185	NaN	0.000000	0.001661	0.001706	28.0841	0.081574	0.001977	41.269	149.349	177.167	-0.030984	0.100839	-1.010122	-1.011526	-0.086185	41.269	-1.008555	-2.957586E+13	2.914038E-15	NaN
1022	1.000000	0.112189	7.37505e+06	-51239.1	1055.82	-29752.8	0.000000	0.000000	6.112678	-0.095769	NaN	0.000000	0.001647	0.001716	28.0842	0.061497	0.002050	30.0041	87.4241	-2.728166	-0.019547	0.110783	-1.000176	-1.001582	-0.095769	30.0041	-0.997782	-2.117918E+13	4.521838E-15	NaN
1022	1.000000	0.122232	7.37505e+06	-51239.1	1055.82	-29752.8	0.000000	0.000000	6.122726	0.016891	NaN	0.000000	0.001593	0.001759	28.0841	0.045309	0.001965	23.0634	164.034	176.882	0.027869	0.120895	-0.990133	-0.991470	0.016891	23.0634	-0.990682	-1.699418E+13	-9.939007E-16	NaN
1022	1.000000	0.132232	7.37505e+06	-51239.1	1055.82	-29752.8	0.000000	0.000000	6.132725	-0.023129	NaN	0.000000	0.001630	0.001719	28.0843	0.058984	0.001933	30.5195	138.62	-2.229584	-0.069420	0.130854	-0.980132	-0.981511	-0.023129	30.5195	-0.979564	-1.203754E+13	1.921390E-15	NaN
1022	1.000000	0.142260	7.37505e+06	-51239.1	1055.82	-29752.8	0.000000	0.000000	6.142752	-0.027950	NaN	0.000000	0.001652	0.001715	28.0843	0.057456	0.002000	28.7308	117.422	179.428	0.014752	0.140924	-0.970105	-0.971441	-0.027950	28.7308	-0.969376	-8.775022E+12	3.185129E-15	NaN
1022	1.000000	0.152233	7.37505e+06	-51239.1	1055.82	-29752.8	0.000000	0.000000	6.152725	-0.030759	NaN	0.000000	0.001658	0.001710	28.084	0.099654	0.001950	51.1162	118.476	-3.277072	0.044930	0.150826	-0.960132	-0.961539	-0.030759	51.1162	-0.959680	-6.494725E+12	4.736015E-15	NaN
1022	1.000000	0.162244	7.37505e+06	-51239.1	1055.82	-29752.9	0.000000	0.000000	6.162738	0.011718	NaN	0.000000	0.001630	0.001743	28.085	0.077799	0.001935	40.2119	-154.127	175.069	-0.045734	0.160925	-0.950121	-0.951439	0.011718	40.2119	-0.950339	-4.859641E+12	-2.411215E-15	NaN
1022	1.000000	0.172226	7.37505e+06	-51239.1	1055.82	-29752.9	0.000000	0.000000	6.172717	-0.041202	NaN	0.000000	0.001650	0.001725	28.0853	0.018382	0.002048	8.973666	164.387	-1.842038	-0.100170	0.170896	-0.940139	-0.941469	-0.041202	8.973666	-0.936695	-3.180910E+12	1.295295E-14	NaN
1022	1.000000	0.182243	7.37505e+06	-51239.1	1055.82	-29752.9	0.000000	0.000000	6.182736	-0.018524	NaN	0.000000	0.001653	0.001699	28.0852	0.062906	0.002111	29.7989	-127.088	177.855	0.042043	0.180909	-0.930122	-0.931455	-0.018524	29.7989	-0.929656	-2.555928E+12	7.247309E-15	NaN
1022	1.000000	0.192265	7.37505e+06	-51239.1	1055.82	-29752.9	0.000000	0.000000	6.192757	-0.028529	NaN	0.000000	0.001653	0.001725	28.0852	0.059780	0.001967	30.3918	102.83	-2.104066	0.018148	0.190872	-0.920100	-0.921493	-0.028529	30.3918	-0.919396	-1.858019E+12	1.535472E-14	NaN
1022	1.000000	0.202235	7.37505e+06	-51239.1	1055.82	-29752.9	0.000000	0.000000	6.202727	-0.033499	NaN	0.000000	0.001642	0.001750	28.0855	0.067310	0.002037	33.0518	151.173	-179.473	0.025785	0.200925	-0.910130	-0.911440	-0.033499	33.0518	-0.909370	-1.360346E+12	2.462533E-14	NaN
1022	1.000000	0.212248	7.37505e+06	-51239.1	1055.82	-29752.9	0.000000	0.000000	6.212739	-0.040521	NaN	0.000000	0.001624	0.001735	28.0851	0.053811	0.001990	27.0392	-101.059	-4.544305	-0.016643	0.210938	-0.900117	-0.901427	-0.040521	27.0392	-0.898993	-9.850672E+11	4.113485E-14	NaN
1022	1.000000	0.222242	7.37505e+06	-51239.1	1055.82	-29752.9	0.000000	0.000000	6.222732	-0.077687	NaN	0.000000	0.001637	0.001782	28.0849	0.104716	0.002091	50.0734	116.668	173.052	-0.052219	0.220981	-0.890122	-0.891384	-0.077687	50.0734	-0.888959	-7.208434E+11	1.077726E-13	NaN
1022	1.000000	0.232226	7.37505e+06	-51239.1	1055.82	-29752.9	0.000000	0.000000	6.232719	-0.004098	NaN	0.000000	0.001619	0.001741	28.0852	0.091228	0.002129	42.8549	72.4668	-1.366782	0.001108	0.230910	-0.880138	-0.881455	-0.004098	42.8549	-0.880067	-5.465265E+11	7.497421E-15	NaN
1022	1.000000	0.242279	7.37505e+06	-51239.1	1055.82	-29752.9	0.000000	0.000000	6.242770	-0.060071	NaN	0.000000	0.001679	0.001755	28.0853	0.051265	0.002038	25.1495	-8.600333	177.618	-0.090300	0.240971	-0.870086	-0.871394	-0.060071	25.1495	-0.868295	-3.787648E+11	1.585959E-13	NaN
1022	1.000000	0.252227	7.37505e+06	-51239.1	1055.82	-29752.9	0.000000	0.000000	6.252717	-0.087911	NaN	0.000000	0.001663	0.001739	28.0851	0.086975	0.001980	43.9373	-32.0362	-1.001502	-0.117508	0.250929	-0.860138	-0.861436	-0.087911	43.9373	-0.858637	-2.803329E+11	3.135937E-13	NaN
1022	1.000000	0.262296	7.37505e+06	-51239.1	1055.82	-29752.9	0.000000	0.000000	6.262788	-0.023525	NaN	0.000000	0.001696	0.001743	28.0851	0.031525	0.002018	15.6182	125.825	175.462	0.017851	0.260946	-0.850069	-0.851419	-0.023525	15.6182	-0.848939	-2.071922E+11	1.135437E-13	NaN
1022	1.000000	0.272269	7.37505e+06	-51239.1	1055.82	-29752.9	0.000000	0.000000	6.272763	0.006791	NaN	0.000000	0.001649	0.001771	28.0855	0.037722	0.002115	17.8395	80.196	-1.477040	-0.069484	0.270944	-0.840096	-0.841421	0.006791	17.8395	-0.840381	-1.586567E+11	-4.280541E-14	NaN
1022	1.000000	0.282281	7.37505e+06	-51239.1	1055.82	-29752.9	0.000000	0.000000	6.282772	-0.051791	NaN	0.000000	0.001607	0.001737	28.0853	0.097955	0.001898	51.6006	-21.3734	-178.347	-0.024105	0.280954	-0.830084	-0.831410	-0.051791	51.6006	-0.829331	-1.123885E+11	4.608210E-13	NaN
1022	1.000000	0.292292	7.37505e+06	-51239.1	1055.82	-29752.9	0.000000	0.000000	6.292786	0.023843	NaN	0.000000	0.001614	0.001751	28.0853	0.150220	0.001998	75.1818	-54.7049	-4.028222	0.028876	0.290938	-0.820073	-0.821427	0.023843	75.1818	-0.820310	-8.480499E+10	-2.811537E-13	NaN
1022	1.000000	0.302265	7.37505e+06	-51239.1	1055.82	-29752.9	0.000000	0.000000	6.302758	0.005914	NaN	0.000000	0.001609	0.001751	28.0838	0.014313	0.001907	7.504783	-140.86	179.882	0.073339	0.301025	-0.810100	-0.811340	0.005914	7.504783	-0.810691	-6.279840E+10	-9.418031E-14	NaN
1022	1.000000	0.312331	7.37505e+06	-51239.1	1055.82	-29752.9	0.000000	0.000000	6.312822	-0.055436	NaN	0.000000	0.001548	0.001713	28.0841	0.024663	0.001881	13.1115	-121.535	-0.986902	-0.007331	0.310939	-0.800034	-0.801426	-0.055436	13.1115	-0.796863	-4.076395E+10	1.359929E-12	NaN
1022	1.000000	0.322289	7.37505e+06	-51239.1	1055.82	-29752.9	0.000000	0.000000	6.322782	-0.009643	NaN	0.000000	0.001541	0.001726	28.0837	0.131837	0.002046	64.4373	155.259	178.826	0.000358	0.320979	-0.790076	-0.791386	-0.009643	64.4373	-0.789964	-3.285436E+10	2.935030E-13	NaN
1022	1.000000	0.332314	7.37505e+06	-51239.1	1055.82	-29752.9	0.000000	0.000000	6.332809	0.034315	NaN	0.000000	0.001569	0.001762	28.0838	0.068622	0.002022	33.9431	80.0756	-2.577783	0.010558	0.330989	-0.780051	-0.781376	0.034315	33.9431	-0.780809	-2.467333E+10	-1.390789E-12	NaN
1022	1.000000	0.342311	7.37505e+06	-51239.1	1055.82	-29752.9	0.000000	0.000000	6.342804	0.010388	NaN	0.000000	0.001581	0.001752	28.0837	0.070183	0.002047	34.2803	-137.421	177.858	0.087534	0.340988	-0.770054	-0.771377	0.010388	34.2803	-0.770282	-1.774734E+10	-5.853474E-13	NaN
1022	1.000000	0.352344	7.37505e+06	-51239.1	1055.82	-29752.9	0.000000	0.000000	6.352836	-0.036721	NaN	0.000000	0.001599	0.001742	28.0841	0.146834	0.002120	69.2726	-104.339	-5.088224	-0.052271	0.350943	-0.760021	-0.761422	-0.036721	69.2726	-0.759623	-1.271085E+10	2.888959E-12	NaN
1022	1.000000	0.362262	7.37505e+06	-51239.1	1055.82	-29752.9	0.000000	0.000000	6.362755	0.005118	NaN	0.000000	0.001634	0.001725	28.0837	0.155252	0.001932	80.3505	35.9372	175.015	0.007589	0.360961	-0.750103	-0.751404	0.005118	80.3505	-0.750151	-9.446497E+9	-5.418274E-13	NaN
1022	1.000000	0.372332	7.37505e+06	-51239.1	1055.82	-29752.9	0.000000	0.000000	6.372822	-0.063243	NaN	0.000000	0.001607	0.001734	28.0839	0.039375	0.002107	18.6867	-82.9065	0.453260	-0.078071	0.370941	-0.740033	-0.741424	-0.063243	18.6867	-0.737495	-6.352323E+9	9.955882E-12	NaN
1022	1.000000	0.382339	7.37505e+06	-51239.1	1055.82	-29752.9	0.000000	0.000000	6.382830	-0.063022	NaN	0.000000	0.001609	0.001719	28.0839	0.110220	0.002108	52.2761	96.0215	177.592	-0.000865	0.380998	-0.730026	-0.731367	-0.063022	52.2761	-0.729122	-4.884673E+9	1.290206E-11	NaN
1022	1.000000	0.392316	7.37505e+06	-51239.1	1055.82	-29752.9	0.000000	0.000000	6.392812	0.071298	NaN	0.000000	0.001573	0.001696	28.0841	0.053267	0.001980	26.9068	94.5844	-0.751162	0.039247	0.390999	-0.720049	-0.721366	0.071298	26.9068	-0.722036	-3.910595E+9	-1.823203E-11	NaN
1022	1.000000	0.402305	7.37505e+06	-51239.1	1055.82	-29752.9	0.000000	0.000000	6.402797	-0.022626	NaN	0.000000	0.001599	0.001744	28.0838	0.109259	0.002008	54.4199	144.996	-179.557	-0.038184	0.401022	-0.710060	-0.711343	-0.022626	54.4199	-0.709748	-2.658321E+9	8.511208E-12	NaN
1022	1.000000	0.412350	7.37505e+06	-51239.1	1055.82	-29752.9	0.000000	0.000000	6.412840	-0.070776	NaN	0.000000	0.001614	0.001714	28.0839	0.058848	0.001773	33.1921	112.133	0.868650	-0.092679	0.411036	-0.700015	-0.701329	-0.070776	33.1921	-0.698416	-1.861639E+9	3.801791E-11	NaN
1022	1.000000	0.422349	7.37505e+06	-51239.1	1055.82	-29752.9	0.000000	0.000000	6.422839	-0.067910	NaN	0.000000	0.001589	0.001734	28.084	0.034203	0.002015	16.9767	-75.2969	177.894	-0.005944	0.421025	-0.690016	-0.691340	-0.067910	16.9767	-0.687016	-1.300565E+9	5.221558E-11	NaN
1022	1.000000	0.432351	7.37505e+06	-51239.1	1055.82	-29752.9	0.000000	0.000000	6.432844	-0.025369	NaN	0.000000	0.001630	0.001724	28.084	0.017738	0.001918	9.246220	83.2357	-1.628481	0.000992	0.430978	-0.680013	-0.681386	-0.025369	9.246220	-0.677956	-9.777874E+8	2.594553E-11	NaN
1022	1.000000	0.442346	7.37505e+06	-51239.1	1055.82	-29752.9	0.000000	0.000000	6.442841	0.041450	NaN	0.000000	0.001604	0.001718	28.0854	0.028720	0.001893	15.1746	156.204	179.166	0.050147	0.441021	-0.670019	-0.671344	0.041450	15.1746	-0.672068	-8.122428E+8	-5.103113E-11	NaN
1022	1.000000	0.452383	7.37505e+06	-51239.1	1055.82	-29752.9	0.000000	0.000000	6.452877	0.020895	NaN	0.000000	0.001601	0.001744	28.0854	0.060683	0.002069	29.3319	-114.471	-3.673343	0.009318	0.450964	-0.659982	-0.661401	0.020895	29.3319	-0.660516	-5.643336E+8	-3.702682E-11	NaN
1022	1.000000	0.462369	7.37505e+06	-51239.1	1055.82	-29752.9	0.000000	0.000000	6.462863	0.008514	NaN	0.000000	0.001592	0.001728	28.0855	0.105323	0.002175	48.4199	8.249913	173.873	0.016468	0.461008	-0.649996	-0.651357	0.008514	48.4199	-0.650128	-4.066177E+8	-2.093887E-11	NaN
1022	1.000000	0.472369	7.37505e+06	-51239.1	1055.82	-29752.9	0.000000	0.000000	6.472858	-0.100365	NaN	0.000000	0.001593	0.001710	28.0853	0.081825	0.001854	44.1408	-30.4286	-2.298480	0.058150	0.470977	-0.639996	-0.641388	-0.100365	44.1408	-0.638291	-2.797916E+8	3.587146E-10	NaN
1022	1.000000	0.482364	7.37505e+06	-51239.1	1055.82	-29752.9	0.000000	0.000000	6.482858	0.028705	NaN	0.000000	0.001615	0.001712	28.0852	0.050062	0.002087	23.9882	179.011	175.706	-0.062485	0.481030	-0.630001	-0.631335	0.028705	23.9882	-0.630898	-2.214925E+8	-1.295961E-10	NaN
1022	1.000000	0.492373	7.37505e+06	-51239.1	1055.82	-29752.9	0.000000	0.000000	6.492863	-0.078052	NaN	0.000000	0.001659	0.001672	28.0853	0.037035	0.002074	17.8575	165.299	-2.719250	-0.048363	0.491015	-0.619992	-0.621350	-0.078052	17.8575	-0.616714	-1.414040E+8	5.519819E-10	NaN
1022	1.000000	0.502372	7.37505e+06	-51239.1	1055.82	-29752.9	0.000000	0.000000	6.502866	0.004938	NaN	0.000000	0.001635	0.001678	28.0853	0.009128	0.002020	4.519605	-113.877	174.673	0.060589	0.501076	-0.609993	-0.611289	0.004938	4.519605	-0.610812	-1.172970E+8	-4.210143E-11	NaN
1022	1.000000	0.512374	7.37505e+06	-51239.1	1055.82	-29752.9	0.000000	0.000000	6.512867	-0.013074	NaN	0.000000	0.001622	0.001696	28.0848	0.074156	0.002077	35.7095	129.999	-3.336319	-0.047345	0.511025	-0.599991	-0.601340	-0.013074	35.7095	-0.599716	-8.251923E+7	1.584369E-10	NaN
1022	1.000000	0.522412	7.37505e+06	-51239.1	1055.82	-29752.9	0.000000	0.000000	6.522906	0.013731	NaN	0.000000	0.001632	0.001676	28.0849	0.055120	0.001993	27.6547	-139.824	174.47	-0.028649	0.521129	-0.589953	-0.591236	0.013731	27.6547	-0.590325	-6.125596E+7	-2.241610E-10	NaN
1022	1.000000	0.532399	7.37505e+06	-51239.1	1055.82	-29752.9	0.000000	0.000000	6.532891	-0.023423	NaN	0.000000	0.001609	0.001696	28.0852	0.092638	0.001998	46.3658	-76.4903	-6.013918	-0.016945	0.531025	-0.579966	-0.581340	-0.023423	46.3658	-0.579587	-4.355421E+7	5.377946E-10	NaN
1022	1.000000	0.542401	7.37505e+06	-51239.1	1055.82	-29752.9	0.000000	0.000000	6.542896	0.061025	NaN	0.000000	0.001637	0.001659	28.0849	0.089159	0.002040	43.7157	53.6843	178.365	0.061288	0.541111	-0.569964	-0.571254	0.061025	43.7157	-0.571011	-3.315918E+7	-1.840379E-9	NaN
1022	1.000000	0.552399	7.37505e+06	-51239.1	1055.82	-29752.9	0.000000	0.000000	6.552889	-0.074049	NaN	0.000000	0.001630	0.001703	28.0848	0.073192	0.001995	36.6925	-152.817	-3.577101	0.029320	0.550996	-0.559966	-0.561369	-0.074049	36.6925	-0.558452	-2.223128E+7	3.330842E-9	NaN
1022	1.000000	0.562381	7.37505e+06	-51239.1	1055.82	-29752.9	0.000000	0.000000	6.562873	-0.015463	NaN	0.000000	0.001642	0.001681	28.0849	0.096738	0.002035	47.5329	-50.9117	176.758	-0.006041	0.561076	-0.549984	-0.551289	-0.015463	47.5329	-0.549740	-1.684052E+7	9.182078E-10	NaN
1022	1.000000	0.572414	7.37505e+06	-51239.1	1055.82	-29752.9	0.000000	0.000000	6.572908	0.006184	NaN	0.000000	0.001642	0.001727	28.084	0.046638	0.001878	24.8336	-48.5685	-5.597557	0.085586	0.571065	-0.539951	-0.541300	0.006184	24.8336	-0.540137	-1.239544E+7	-4.988965E-10	NaN
1022	1.000000	0.582390	7.37505e+06	-51239.1	1055.82	-29752.9	0.000000	0.000000	6.582883	0.000771	NaN	0.000000	0.001604	0.001705	28.0837	0.043483	0.002001	21.7309	179.222	175.967	-0.009505	0.581117	-0.529975	-0.531248	0.000771	21.7309	-0.530001	-8.96591e+06	-8.598265E-11	NaN
1022	1.000000	0.592402	7.37505e+06	-51239.1	1055.82	-29752.9	0.000000	0.000000	6.592895	-0.000281	NaN	0.000000	0.001633	0.001729	28.0837	0.063007	0.002080	30.2936	-35.3966	-1.558347	0.024593	0.591123	-0.519963	-0.521242	-0.000281	30.2936	-0.519956	-6.50103e+06	4.327083E-11	NaN
1022	1.000000	0.602438	7.37505e+06	-51239.1	1055.82	-29752.9	0.000000	0.000000	6.602930	-0.022059	NaN	0.000000	0.001628	0.001689	28.0838	0.057470	0.001895	30.3268	-107.804	176.796	0.005522	0.601210	-0.509927	-0.511154	-0.022059	30.3268	-0.509381	-4.63233e+06	4.761998E-9	NaN
1022	1.000000	0.612423	7.37505e+06	-51239.1	1055.82	-29752.9	0.000000	0.000000	6.612917	0.028059	NaN	0.000000	0.001699	0.001667	28.0839	0.066564	0.001883	35.3503	-170.999	-0.446379	0.024636	0.611100	-0.499942	-0.501265	0.028059	35.3503	-0.500537	-3.48747e+06	-8.045583E-9	NaN
1022	1.000000	0.622420	7.37505e+06	-51239.1	1055.82	-29752.9	0.000000	0.000000	6.622916	0.065994	NaN	0.000000	0.001645	0.001645	28.0839	0.058784	0.001870	31.4344	104.379	177.236	0.039401	0.621090	-0.489945	-0.491275	0.065994	31.4344	-0.491519	-2.60988e+06	-2.528617E-8	NaN
1022	1.000000	0.632416	7.37505e+06	-51239.1	1055.82	-29752.9	0.000000	0.000000	6.632908	-0.011821	NaN	0.000000	0.001667	0.001680	28.0842	0.176659	0.001965	89.909	-83.3776	-2.342768	0.049446	0.631082	-0.479949	-0.481283	-0.011821	89.909	-0.479851	-1.79242e+06	6.594912E-9	NaN
1022	1.000000	0.642425	7.37505e+06	-51239.1	1055.82	-29752.9	0.000000	0.000000	6.642916	-0.044499	NaN	0.000000	0.001652	0.001674	28.0845	0.077703	0.001999	38.8715	129.63	176.893	-0.054218	0.641106	-0.469940	-0.471259	-0.044499	38.8715	-0.469082	-1.26627e+06	3.514167E-8	NaN
1022	1.000000	0.652457	7.37505e+06	-51239.1	1055.82	-29752.9	0.000000	0.000000	6.652948	-0.060514	NaN	0.000000	0.001626	0.001664	28.0843	0.113772	0.001963	57.9458	53.8567	-3.138646	-0.049013	0.651136	-0.459907	-0.461229	-0.060514	57.9458	-0.459124	-917720	6.593994E-8	NaN
1022	1.000000	0.662438	7.37505e+06	-51239.1	1055.82	-29752.9	0.000000	0.000000	6.662934	0.059034	NaN	0.000000	0.001655	0.001646	28.084	0.035352	0.001998	17.6945	169.159	175.203	-0.086867	0.661137	-0.449927	-0.451228	0.059034	17.6945	-0.452429	-738821	-7.990346E-8	NaN
1022	1.000000	0.672454	7.37505e+06	-51239.1	1055.82	-29752.9	0.000000	0.000000	6.672946	-0.020503	NaN	0.000000	0.001646	0.001631	28.0845	0.041759	0.002081	20.0698	117.774	-4.445106	-0.018937	0.671079	-0.439911	-0.441286	-0.020503	20.0698	-0.439145	-480056	4.270910E-8	NaN
1022	1.000000	0.682481	7.37505e+06	-51239.1	1055.82	-29752.9	0.000000	0.000000	6.682972	-0.047776	NaN	0.000000	0.001613	0.001644	28.0846	0.080955	0.001965	41.2028	14.1923	176.667	-0.055019	0.681162	-0.429884	-0.431203	-0.047776	41.2028	-0.429014	-345234	1.383870E-7	NaN
1022	1.000000	0.692462	7.37505e+06	-51239.1	1055.82	-29752.9	0.000000	0.000000	6.692952	-0.069538	NaN	0.000000	0.001591	0.001617	28.0842	0.078091	0.001780	43.8755	179.784	0.563775	-0.069804	0.691088	-0.419903	-0.421277	-0.069538	43.8755	-0.418714	-246705	2.818662E-7	NaN
1022	1.000000	0.702458	7.37505e+06	-51239.1	1055.82	-29752.9	0.000000	0.000000	6.702950	-0.011682	NaN	0.000000	0.001621	0.001710	28.0842	0.077791	0.001961	39.6627	-88.691	174.871	-0.096623	0.701163	-0.409907	-0.411202	-0.011682	39.6627	-0.409686	-183629	6.361869E-8	NaN
1022	1.000000	0.712482	7.37505e+06	-51239.1	1055.82	-29752.9	0.000000	0.000000	6.712977	0.032331	NaN	0.000000	0.001641	0.001685	28.0854	0.069281	0.001986	34.8868	-164.479	-5.087837	-0.015526	0.711092	-0.399883	-0.401272	0.032331	34.8868	-0.400578	-136217	-2.373492E-7	NaN
1022	1.000000	0.722447	7.37505e+06	-51239.1	1055.82	-29752.9	0.000000	0.000000	6.722941	0.002901	NaN	0.000000	0.001571	0.001729	28.0854	0.131706	0.001963	67.0899	129.965	172.057	-0.019477	0.721210	-0.389918	-0.391155	0.002901	67.0899	-0.389950	-96040.2	-3.020533E-8	NaN
1022	1.000000	0.732497	7.37505e+06	-51239.1	1055.82	-29752.9	0.000000	0.000000	6.732989	-0.033122	NaN	0.000000	0.001608	0.001654	28.0853	0.110308	0.002088	52.8358	-128.966	-6.275064	0.002460	0.731162	-0.379868	-0.381203	-0.033122	52.8358	-0.379397	-67801.9	4.885059E-7	NaN
1022	1.000000	0.742482	7.37505e+06	-51239.1	1055.82	-29752.9	0.000000	0.000000	6.742974	-0.040399	NaN	0.000000	0.001612	0.001693	28.0853	0.039871	0.002105	18.9367	164.272	176.305	-0.002991	0.741149	-0.369883	-0.371216	-0.040399	18.9367	-0.368283	-46923.1	8.609622E-7	NaN
1022	1.000000	0.752471	7.37505e+06	-51239.1	1055.82	-29752.9	0.000000	0.000000	6.752964	-0.004229	NaN	0.000000	0.001603	0.001637	28.0854	0.104725	0.002002	52.3177	153.87	-4.082968	-0.023345	0.751126	-0.359894	-0.361239	-0.004229	52.3177	-0.359834	-35435.8	1.193448E-7	NaN
1022	1.000000	0.762489	7.37505e+06	-51239.1	1055.82	-29752.9	0.000000	0.000000	6.762979	-0.083935	NaN	0.000000	0.001595	0.001681	28.0853	0.107139	0.001873	57.1957	-15.3836	176.078	-0.054035	0.761164	-0.349876	-0.351201	-0.083935	57.1957	-0.348775	-24503.3	3.425455E-6	NaN
1022	1.000000	0.772483	7.37505e+06	-51239.1	1055.82	-29752.9	0.000000	0.000000	6.772974	-0.043963	NaN	0.000000	0.001606	0.001696	28.0852	0.037466	0.002078	18.0337	-53.0889	-5.270271	-0.020292	0.771161	-0.339882	-0.341204	-0.043963	18.0337	-0.338053	-17106.8	2.569922E-6	NaN
1022	1.000000	0.782494	7.37505e+06	-51239.1	1055.82	-29752.9	0.000000	0.000000	6.782985	-0.036372	NaN	0.000000	0.001575	0.001699	28.0852	0.108749	0.002055	52.9093	58.2871	178.294	0.009886	0.781079	-0.329871	-0.331286	-0.036372	52.9093	-0.329356	-12764.8	2.849429E-6	NaN
1022	1.000000	0.792502	7.37505e+06	-51239.1	1055.82	-29752.9	0.000000	0.000000	6.792995	-0.010376	NaN	0.000000	0.001661	0.001688	28.0856	0.075692	0.001900	39.8442	173.698	-4.034098	-0.058044	0.791091	-0.319863	-0.321274	-0.010376	39.8442	-0.319667	-9199.07	1.127961E-6	NaN
1022	1.000000	0.802498	7.37505e+06	-51239.1	1055.82	-29752.9	0.000000	0.000000	6.802992	0.036260	NaN	0.000000	0.001627	0.001670	28.0851	0.054820	0.001912	28.6781	-73.9364	174.563	0.035286	0.801171	-0.309867	-0.311194	0.036260	28.6781	-0.310816	-6809.6	-5.324789E-6	NaN
1022	1.000000	0.812488	7.37505e+06	-51239.1	1055.82	-29752.9	0.000000	0.000000	6.812980	-0.041659	NaN	0.000000	0.001590	0.001677	28.0852	0.059563	0.001957	30.4308	10.5163	-4.068193	-0.034920	0.811149	-0.299877	-0.301216	-0.041659	30.4308	-0.298850	-4523.89	9.208644E-6	NaN
1022	1.000000	0.822489	7.37505e+06	-51239.1	1055.82	-29752.9	0.000000	0.000000	6.822979	-0.082756	NaN	0.000000	0.001592	0.001690	28.085	0.102110	0.002134	47.8528	99.5514	178.138	-0.140772	0.821167	-0.289876	-0.291198	-0.082756	47.8528	-0.288579	-3176.89	2.604927E-5	NaN
1022	1.000000	0.832530	7.37505e+06	-51239.1	1055.82	-29752.9	0.000000	0.000000	6.833023	-0.004316	NaN	0.000000	0.001642	0.001719	28.0853	0.096826	0.001929	50.2073	-150.275	-4.171271	-0.032930	0.831193	-0.279835	-0.281172	-0.004316	50.2073	-0.279770	-2341.57	1.843198E-6	NaN
1022	1.000000	0.842526	7.37505e+06	-51239.1	1055.82	-29752.9	0.000000	0.000000	6.843021	0.042886	NaN	0.000000	0.001648	0.001658	28.0849	0.065969	0.001984	33.2586	159.979	176.603	-0.071194	0.841205	-0.269839	-0.271160	0.042886	33.2586	-0.270806	-1713.12	-2.503399E-5	NaN
1022	1.000000	0.852531	7.37505e+06	-51239.1	1055.82	-29752.9	0.000000	0.000000	6.853021	-0.089096	NaN	0.000000	0.001666	0.001668	28.084	0.105529	0.002095	50.3745	-31.4454	-2.750436	-0.139232	0.851140	-0.259834	-0.261225	-0.089096	50.3745	-0.258507	-1111.79	8.013726E-5	NaN
1022	1.000000	0.862545	7.37505e+06	-51239.1	1055.82	-29752.9	0.000000	0.000000	6.863037	-0.033375	NaN	0.000000	0.001641	0.001693	28.0841	0.064046	0.002093	30.5935	76.0099	178.183	-0.079644	0.861179	-0.249820	-0.251186	-0.033375	30.5935	-0.249002	-793.457	4.206221E-5	NaN
1022	1.000000	0.872503	7.37505e+06	-51239.1	1055.82	-29752.9	0.000000	0.000000	6.872996	0.003132	NaN	0.000000	0.001663	0.001664	28.0842	0.092322	0.001963	47.0265	-52.5687	-3.862077	-0.083331	0.871240	-0.239862	-0.241125	0.003132	47.0265	-0.239912	-573.029	-5.466364E-6	NaN
1022	1.000000	0.882530	7.37505e+06	-51239.1	1055.82	-29752.9	0.000000	0.000000	6.883025	0.036927	NaN	0.000000	0.001675	0.001707	28.0841	0.052197	0.002093	24.9385	-114.841	177.106	-0.045192	0.881210	-0.229835	-0.231155	0.036927	24.9385	-0.230945	-414.414	-8.910621E-5	NaN
1022	1.000000	0.892538	7.37505e+06	-51239.1	1055.82	-29752.9	0.000000	0.000000	6.893029	-0.040241	NaN	0.000000	0.001701	0.001667	28.0841	0.129785	0.002031	63.8915	46.4112	-2.121150	-0.015649	0.891188	-0.219827	-0.221177	-0.040241	63.8915	-0.219355	-271.245	0.000148	NaN
1022	1.000000	0.902530	7.37505e+06	-51239.1	1055.82	-29752.9	0.000000	0.000000	6.903022	-0.026651	NaN	0.000000	0.001664	0.001676	28.0841	0.115425	0.001950	59.1921	-111.135	173.774	0.018652	0.901217	-0.209835	-0.211148	-0.026651	59.1921	-0.209497	-188.223	0.000142	NaN
1022	1.000000	0.912550	7.37505e+06	-51239.1	1055.82	-29752.9	0.000000	0.000000	6.913042	-0.025759	NaN	0.000000	0.001674	0.001720	28.0841	0.004276	0.001972	2.168520	22.838	-6.275374	-0.121904	0.911210	-0.199815	-0.201155	-0.025759	2.168520	-0.190906	-93.1433	0.000277	NaN
1022	1.000000	0.922550	7.37505e+06	-51239.1	1055.82	-29752.9	0.000000	0.000000	6.923044	0.013561	NaN	0.000000	0.001660	0.001677	28.0843	0.094684	0.001966	48.165	-88.2731	175.484	-0.103491	0.921253	-0.189815	-0.191112	0.013561	48.165	-0.190026	-90.0462	-0.000151	NaN
1022	1.000000	0.932545	7.37505e+06	-51239.1	1055.82	-29752.9	0.000000	0.000000	6.933039	0.035747	NaN	0.000000	0.001691	0.001736	28.0841	0.138361	0.001940	71.3348	83.7159	-5.709941	-0.044795	0.931245	-0.179820	-0.181120	0.035747	71.3348	-0.180196	-61.4898	-0.000581	NaN
1022	1.000000	0.942583	7.37505e+06	-51239.1	1055.82	-29752.9	0.000000	0.000000	6.943075	-0.014176	NaN	0.000000	0.001694	0.001689	28.0843	0.049758	0.002022	24.6071	62.8747	172.874	-0.120356	0.941291	-0.169782	-0.171074	-0.014176	24.6071	-0.169350	-40.0242	0.000354	NaN
1022	1.000000	0.952539	7.37505e+06	-51239.1	1055.82	-29752.9	0.000000	0.000000	6.953032	-0.009388	NaN	0.000000	0.001671	0.001707	28.084	0.047601	0.002045	23.2726	-143.417	-7.588851	-0.022665	0.951192	-0.159826	-0.161173	-0.009388	23.2726	-0.159523	-26.885	0.000349	NaN
1022	1.000000	0.962565	7.37505e+06	-51239.1	1055.82	-29752.9	0.000000	0.000000	6.963059	0.003364	NaN	0.000000	0.001677	0.001715	28.0841	0.180294	0.001894	95.19	-65.0463	174.244	-0.055665	0.961219	-0.149800	-0.151146	0.003364	95.19	-0.149826	-17.9818	-0.000187	NaN
1022	1.000000	0.972589	7.37505e+06	-51239.1	1055.82	-29752.9	0.000000	0.000000	6.973083	0.020290	NaN	0.000000	0.001660	0.001677	28.0843	0.053395	0.001965	27.1753	177.389	-3.051377	-0.024496	0.971204	-0.139776	-0.141161	0.020290	27.1753	-0.140335	-12.0023	-0.001690	NaN
1022	1.000000	0.982568	7.37505e+06	-51239.1	1055.82	-29752.9	0.000000	0.000000	6.983060	-0.038651	NaN	0.000000	0.001675	0.001687	28.0855	0.075582	0.002036	37.1267	-123.99	177.491	-0.007739	0.981260	-0.129797	-0.131105	-0.038651	37.1267	-0.129016	-7.292325	0.005300	NaN
1022	1.000000	0.992575	7.37505e+06	-51239.1	1055.82	-29752.9	0.000000	0.000000	6.993070	0.036563	NaN	0.000000	0.001705	0.001681	28.0854	0.068423	0.001956	34.9795	-171.976	-8.445534	0.098363	0.991158	-0.119790	-0.121207	0.036563	34.9795	-0.120574	-4.961894	-0.007369	NaN
1022	1.000000	1.002580	7.37505e+06	-51239.1	1055.82	-29752.9	0.000000	0.000000	7.003073	0.003747	NaN	0.000000	0.001692	0.001655	28.0853	0.078326	0.001930	40.5932	-37.8006	174.202	0.023272	1.001298	-0.109785	-0.111067	0.003747	40.5932	-0.109854	-2.983973	-0.001256	NaN
1022	1.000000	1.012592	7.37505e+06	-51239.1	1055.82	-29752.9	0.000000	0.000000	7.013086	0.015545	NaN	0.000000	0.001714	0.001682	28.0856	0.117540	0.002002	58.7218	51.0104	-2.060497	-0.041620	1.011251	-0.099773	-0.101114	0.015545	58.7218	-0.099971	-1.824476	-0.008520	NaN
1022	1.000000	1.022563	7.37505e+06	-51239.1	1055.82	-29752.9	0.000000	0.000000	7.023056	-0.000320	NaN	0.000000	0.001735	0.001685	28.0853	0.072207	0.001973	36.6055	70.4014	176.901	-0.026842	1.021310	-0.089802	-0.091055	-0.000320	36.6055	-0.089796	-1.069114	0.000300	NaN
1022	1.000000	1.032572	7.37505e+06	-51239.1	1055.82	-29752.9	0.000000	0.000000	7.033065	-0.005189	NaN	0.000000	0.001736	0.001659	28.0854	0.143406	0.001975	72.6128	48.4831	-4.400251	0.024067	1.031226	-0.079793	-0.081139	-0.005189	72.6128	-0.079739	-0.609757	0.008510	NaN
1022	1.000000	1.042580	7.37505e+06	-51239.1	1055.82	-29752.9	0.000000	0.000000	7.043073	-0.011352	NaN	0.000000	0.001699	0.001681	28.0854	0.060121	0.002060	29.1821	26.9953	177.645	-0.085440	1.041271	-0.069785	-0.071094	-0.011352	29.1821	-0.069493	-0.330591	0.034339	NaN
1022	1.000000	1.052582	7.37505e+06	-51239.1	1055.82	-29752.9	0.000000	0.000000	7.053074	-0.030779	NaN	0.000000	0.001745	0.001685	28.0858	0.110595	0.001968	56.1973	-72.4627	-3.184225	-0.018455	1.051236	-0.059783	-0.061129	-0.030779	56.1973	-0.059372	-0.172759	0.178163	NaN
1022	1.000000	1.062606	7.37505e+06	-51239.1	1055.82	-29752.9	0.000000	0.000000	7.063098	-0.021548	NaN	0.000000	0.001676	0.001676	28.0852	0.053284	0.002021	26.3681	33.4519	175.538	-0.048949	1.061303	-0.049759	-0.051062	-0.021548	26.3681	-0.049146	-0.085976	0.250627	NaN
1022	1.000000	1.072604	7.37505e+06	-51239.1	1055.82	-29752.9	0.000000	0.000000	7.073096	-0.024137	NaN	0.000000	0.001682	0.001699	28.0854	0.101729	0.002023	50.2939	64.1509	-1.789574	-0.030252	1.071306	-0.039761	-0.041059	-0.024137	50.2939	-0.039401	-0.043368	0.556570	NaN
1022	1.000000	1.082585	7.37505e+06	-51239.1	1055.82	-29752.9	0.000000	0.000000	7.083075	-0.063267	NaN	0.000000	0.001661	0.001700	28.085	0.029260	0.002126	13.7615	-151.19	174.696	-0.032704	1.081345	-0.029780	-0.031020	-0.063267	13.7615	-0.026332	-0.018289	3.459211	NaN
1022	1.000000	1.092594	7.37505e+06	-51239.1	1055.82	-29752.9	0.000000	0.000000	7.093084	-0.089891	NaN	0.000000	0.001632	0.001728	28.0853	0.118930	0.001997	59.5577	163.879	-6.054755	-0.018525	1.091265	-0.019770	-0.021100	-0.089891	59.5577	-0.018639	-0.011594	7.753083	NaN
1022	1.000000	1.102644	7.37505e+06	-51239.1	1055.82	-29752.9	0.000000	0.000000	7.103136	-0.007511	NaN	0.000000	0.001675	0.001729	28.085	0.099348	0.002164	45.8997	-114.984	177.633	-0.024243	1.101303	-0.009721	-0.011062	-0.007511	45.8997	-0.009599	-0.006157	1.219762	NaN
1022	1.000000	1.112569	7.37505e+06	-51239.1	1055.82	-29752.9	0.000000	0.000000	7.113152	2.163739	NaN	0.000000	0.001693	0.001716	28.0854	3.044440	0.001859	1637.75	10.893	-7.384515	0.725703	1.111275	0.000204	-0.001090	2.163739	1637.75	-0.000786	-0.000579	-3737.81	NaN
1022	2.000000	1.119270	7.37505e+06	-51239.1	1055.82	-29752.9	0.000000	0.000000	7.120146	9.311468	NaN	0.000000	0.001649	0.001717	28.0842	9.302082	0.001704	5458.63	4.797644	170.74	9.161047	1.119006	0.006905	0.006641	9.311468	5458.63	0.005625	0.004711	1976.44	72659
1022	2.000000	1.121780	7.37505e+06	-51239.1	1055.82	-29752.9	0.000000	0.000000	7.122852	14.0865	NaN	0.000000	0.001672	0.001734	28.0843	12.2778	0.001661	7393.96	9.922413	-15.4188	13.131	1.121311	0.009415	0.008946	14.0865	7393.96	0.007986	0.007028	2004.28	80580.1
1022	2.000000	1.124213	7.37505e+06	-51239.1	1055.82	-29752.9	0.000000	0.000000	7.125486	18.9602	NaN	0.000000	0.001594	0.001708	28.0841	14.9684	0.001778	8417.52	7.612641	165.675	18.7193	1.123926	0.011848	0.011561	18.9602	8417.52	0.010159	0.009358	2026	79497.9
1022	2.000000	1.126701	7.37505e+06	-51239.1	1055.82	-29752.9	0.000000	0.000000	7.128098	21.9895	NaN	0.000000	0.001640	0.001717	28.0846	17.9004	0.001929	9278.08	7.945297	-15.0026	21.4452	1.126427	0.014336	0.014062	21.9895	9278.08	0.012559	0.012166	1807.46	76852.4
1022	2.000000	1.129176	7.37505e+06	-51239.1	1055.82	-29752.9	0.000000	0.000000	7.130812	27.7816	NaN	0.000000	0.001592	0.001706	28.0845	20.39	0.001653	12337.9	7.711051	161.259	26.5704	1.128883	0.016811	0.016518	27.7816	12337.9	0.015122	0.015449	1798.28	90691
1022	2.000000	1.131715	7.37505e+06	-51239.1	1055.82	-29752.9	0.000000	0.000000	7.133680	35.8045	NaN	0.000000	0.001608	0.001721	28.0845	21.7532	0.001651	13177.8	3.612881	-13.9575	35.6679	1.131333	0.019350	0.018968	35.8045	13177.8	0.017312	0.018493	1936.07	88533.4
1022	2.000000	1.134198	7.37505e+06	-51239.1	1055.82	-29752.9	0.000000	0.000000	7.136400	41.5475	NaN	0.000000	0.001606	0.001763	28.0841	24.5533	0.001678	14636.4	5.833980	161.49	41.6123	1.133868	0.021833	0.021503	41.5475	14636.4	0.019704	0.022080	1881.71	89993.8
1022	2.000000	1.136640	7.37505e+06	-51239.1	1055.82	-29752.9	0.000000	0.000000	7.139119	48.2827	NaN	0.000000	0.001641	0.001738	28.0846	27.5919	0.001677	16453.3	5.653335	-19.4615	46.7081	1.136309	0.024275	0.023944	48.2827	16453.3	0.022074	0.025907	1863.67	93392.9
1022	2.000000	1.139186	7.37505e+06	-51239.1	1055.82	-29752.9	0.000000	0.000000	7.141898	53.9538	NaN	0.000000	0.001633	0.001742	28.0846	31.1946	0.001814	17198.3	6.966475	160.306	54.1112	1.138804	0.026821	0.026439	53.9538	17198.3	0.024468	0.030056	1795.14	90635.1
1022	2.000000	1.141706	7.37505e+06	-51239.1	1055.82	-29752.9	0.000000	0.000000	7.144657	59.7784	NaN	0.000000	0.001587	0.001716	28.0846	33.1655	0.001832	18107.1	9.285816	-22.1182	60.8896	1.141285	0.029341	0.028920	59.7784	18107.1	0.026865	0.034495	1732.95	89072
1022	2.000000	1.144151	7.37505e+06	-51239.1	1055.82	-29752.9	0.000000	0.000000	7.147448	68.2017	NaN	0.000000	0.001649	0.001725	28.0841	35.4032	0.001756	20156.1	6.118872	158.197	67.4114	1.143848	0.031786	0.031483	68.2017	20156.1	0.029248	0.039199	1739.87	93012.4
1022	2.000000	1.146615	7.37505e+06	-51239.1	1055.82	-29752.9	0.000000	0.000000	7.150199	75.1515	NaN	0.000000	0.001624	0.001707	28.0842	38.1222	0.001848	20625	5.645097	-21.462	72.3246	1.146329	0.034250	0.033964	75.1515	20625	0.031517	0.043947	1710.05	89888.3
1022	2.000000	1.149211	7.37505e+06	-51239.1	1055.82	-29752.9	0.000000	0.000000	7.153048	81.3043	NaN	0.000000	0.001631	0.001691	28.0843	40.5469	0.001757	23073	3.665201	159.893	83.1322	1.148858	0.036846	0.036493	81.3043	23073	0.034203	0.049907	1629.11	94361.6
1022	2.000000	1.151683	7.37505e+06	-51239.1	1055.82	-29752.9	0.000000	0.000000	7.156022	93.532	NaN	0.000000	0.001600	0.001666	28.085	43.371	0.001849	23462.3	10.0446	-25.8041	93.4436	1.151302	0.039318	0.038937	93.532	23462.3	0.036328	0.054883	1704.21	91500.7
1022	2.000000	1.154107	7.37505e+06	-51239.1	1055.82	-29752.9	0.000000	0.000000	7.158896	104.469	NaN	0.000000	0.001643	0.001676	28.0855	45.3129	0.001845	24560.3	6.476737	156.608	102.411	1.153772	0.041742	0.041407	104.469	24560.3	0.038552	0.060340	1731.34	91349.2
1022	2.000000	1.156613	7.37505e+06	-51239.1	1055.82	-29752.9	0.000000	0.000000	7.161854	115.459	NaN	0.000000	0.001612	0.001707	28.0856	47.8934	0.002013	23793.8	6.461675	-22.217	113.567	1.156356	0.044248	0.043991	115.459	23793.8	0.040608	0.065610	1759.77	84869.5
1022	2.000000	1.159137	7.37505e+06	-51239.1	1055.82	-29752.9	0.000000	0.000000	7.164811	125.995	NaN	0.000000	0.001628	0.001686	28.0856	49.1799	0.001713	28717.6	8.541915	153.254	126.342	1.158894	0.046772	0.046529	125.995	28717.6	0.043481	0.073334	1718.1	96887.8
1022	2.000000	1.161655	7.37505e+06	-51239.1	1055.82	-29752.9	0.000000	0.000000	7.167793	137.273	NaN	0.000000	0.001625	0.001678	28.086	50.5901	0.001754	28838.3	4.986738	-22.8695	134.913	1.161328	0.049290	0.048963	137.273	28838.3	0.045720	0.079644	1723.58	93361.1
1022	2.000000	1.164169	7.37505e+06	-51239.1	1055.82	-29752.9	0.000000	0.000000	7.170799	149.232	NaN	0.000000	0.001652	0.001718	28.0855	54.7322	0.001821	30064.3	8.417193	152.81	150.885	1.163839	0.051804	0.051474	149.232	30064.3	0.048081	0.086573	1723.76	93353.7
1022	2.000000	1.166595	7.37505e+06	-51239.1	1055.82	-29752.9	0.000000	0.000000	7.173701	160.807	NaN	0.000000	0.001742	0.001702	28.0857	56.7254	0.001789	31702.4	9.132828	-27.9739	159.211	1.166131	0.054230	0.053766	160.807	31702.4	0.050426	0.093734	1715.56	94605.5
1022	2.000000	1.169117	7.37505e+06	-51239.1	1055.82	-29752.9	0.000000	0.000000	7.176772	174.145	NaN	0.000000	0.001714	0.001667	28.0857	59.5747	0.001945	30634.5	6.262087	155.82	174.604	1.168779	0.056752	0.056414	174.145	30634.5	0.052488	0.100260	1736.94	88393.5
1022	2.000000	1.171617	7.37505e+06	-51239.1	1055.82	-29752.9	0.000000	0.000000	7.179867	188.607	NaN	0.000000	0.001764	0.001672	28.0856	60.1668	0.001772	33962.5	4.924820	-23.8763	185.534	1.171239	0.059252	0.058874	188.607	33962.5	0.055087	0.108784	1733.77	94078.4
1022	2.000000	1.174136	7.37505e+06	-51239.1	1055.82	-29752.9	0.000000	0.000000	7.182861	200.173	NaN	0.000000	0.001763	0.001654	28.0856	62.6969	0.001638	38278.8	5.863846	153.208	201.304	1.173759	0.061771	0.061394	200.173	38278.8	0.057849	0.118210	1693.37	101720
1022	2.000000	1.176677	7.37505e+06	-51239.1	1055.82	-29752.9	0.000000	0.000000	7.185778	209.297	NaN	0.000000	0.001745	0.001656	28.0857	65.5146	0.001737	37709.9	-0.142767	-20.4187	212.055	1.176474	0.064312	0.064109	209.297	37709.9	0.060150	0.126346	1656.54	96927.8
1022	2.000000	1.179112	7.37505e+06	-51239.1	1055.82	-29752.9	0.000000	0.000000	7.189016	228.857	NaN	0.000000	0.001686	0.001703	28.0856	69.5051	0.001769	39282.5	2.697353	156.789	228.969	1.178813	0.066747	0.066448	228.857	39282.5	0.062377	0.134471	1701.91	97872.2
1022	2.000000	1.181618	7.37505e+06	-51239.1	1055.82	-29752.9	0.000000	0.000000	7.192243	246.366	NaN	0.000000	0.001657	0.001688	28.0855	70.407	0.001697	41485.7	1.578398	-22.7378	243.712	1.181324	0.069253	0.068959	246.366	41485.7	0.064799	0.143577	1715.91	100030
1022	2.000000	1.184083	7.37505e+06	-51239.1	1055.82	-29752.9	0.000000	0.000000	7.195109	256.132	NaN	0.000000	0.001684	0.001687	28.0855	73.7886	0.001905	38731.2	3.848959	155.782	254.623	1.183826	0.071718	0.071461	256.132	38731.2	0.066758	0.151150	1694.55	91018.5
1022	2.000000	1.186555	7.37505e+06	-51239.1	1055.82	-29752.9	0.000000	0.000000	7.198383	275.647	NaN	0.000000	0.001701	0.001702	28.0844	75.9169	0.001745	43514.2	4.315311	-26.1404	270.969	1.186209	0.074190	0.073844	275.647	43514.2	0.069439	0.161812	1703.5	98832.4
1022	2.000000	1.189117	7.37505e+06	-51239.1	1055.82	-29752.9	0.000000	0.000000	7.200913	274.853	NaN	0.000000	0.001684	0.001707	28.0842	78.9634	0.001844	42818.2	1.403153	156.761	275.074	1.189096	0.076752	0.076731	274.853	42818.2	0.071938	0.172059	1597.44	94311.1
1022	2.000000	1.191556	7.37505e+06	-51239.1	1055.82	-29752.9	0.000000	0.000000	7.204694	307.491	NaN	0.000000	0.001645	0.001687	28.0843	81.8175	0.001855	44102.7	8.700406	-30.0618	302.515	1.191162	0.079191	0.078797	307.491	44102.7	0.073962	0.180576	1702.84	94821.9
1022	2.000000	1.194021	7.37505e+06	-51239.1	1055.82	-29752.9	0.000000	0.000000	7.207717	321.046	NaN	0.000000	0.001694	0.001696	28.0842	82.982	0.001833	45261.4	2.420850	155.6	316.083	1.193781	0.081656	0.081416	321.046	45261.4	0.076336	0.190814	1682.51	94666.4
1022	2.000000	1.196591	7.37505e+06	-51239.1	1055.82	-29752.9	0.000000	0.000000	7.211412	348.413	NaN	0.000000	0.001631	0.001741	28.0844	84.7664	0.001782	47561	8.284004	-30.1966	344.809	1.196237	0.084226	0.083872	348.413	47561	0.078732	0.201411	1729.86	96824
1022	2.000000	1.199082	7.37505e+06	-51239.1	1055.82	-29752.9	0.000000	0.000000	7.214426	361.129	NaN	0.000000	0.001672	0.001736	28.0841	88.0913	0.001804	48832.8	4.094402	153.883	360.531	1.198821	0.086717	0.086456	361.129	48832.8	0.081170	0.212471	1699.66	96790.8
1022	2.000000	1.201578	7.37505e+06	-51239.1	1055.82	-29752.9	0.000000	0.000000	7.217669	379.28	NaN	0.000000	0.001656	0.001746	28.0841	88.7409	0.001749	50738.8	0.352549	-22.7885	372.855	1.201279	0.089213	0.088914	379.28	50738.8	0.083607	0.223800	1694.73	97990.3
1022	2.000000	1.204262	7.37505e+06	-51239.1	1055.82	-29752.9	0.000000	0.000000	7.221047	396.149	NaN	0.000000	0.001683	0.001729	28.0842	92.7559	0.001753	52913.2	5.824118	151.877	406.342	1.203722	0.091897	0.091357	396.149	52913.2	0.086282	0.236557	1674.65	99396.2
1022	2.000000	1.206550	7.37505e+06	-51239.1	1055.82	-29752.9	0.000000	0.000000	7.224339	420.565	NaN	0.000000	0.001650	0.001697	28.084	94.1489	0.001820	51727.7	3.026888	-25.3562	415.727	1.206122	0.094185	0.093757	420.565	51727.7	0.088088	0.245350	1714.14	95412
1022	2.000000	1.209070	7.37505e+06	-51239.1	1055.82	-29752.9	0.000000	0.000000	7.227775	442.853	NaN	0.000000	0.001657	0.001675	28.084	96.9508	0.001732	55981.9	3.485206	153.578	439.831	1.208752	0.096705	0.096387	442.853	55981.9	0.090772	0.258705	1711.81	100559
1022	2.000000	1.211472	7.37505e+06	-51239.1	1055.82	-29752.9	0.000000	0.000000	7.230990	462.628	NaN	0.000000	0.001641	0.001686	28.084	99.0583	0.001801	55013.8	4.033102	-26.9914	454.609	1.211262	0.099107	0.098897	462.628	55013.8	0.092800	0.269010	1719.74	96908.2
1022	2.000000	1.213982	7.37505e+06	-51239.1	1055.82	-29752.9	0.000000	0.000000	7.234336	482.939	NaN	0.000000	0.001624	0.001697	28.0846	101.028	0.001717	58843.3	3.633899	153.083	477.632	1.213686	0.101617	0.101322	482.939	58843.3	0.095462	0.282825	1707.55	101091
1022	2.000000	1.216583	7.37505e+06	-51239.1	1055.82	-29752.9	0.000000	0.000000	7.237896	506.256	NaN	0.000000	0.001649	0.001698	28.0843	103.387	0.001726	59913	4.226385	-27.8813	503.789	1.216244	0.104218	0.103879	506.256	59913	0.097881	0.295658	1712.3	100670