File: remote_trans/data/nanoindenter/0828-1/data/Data_2025-08-06,11h17m57s/2025-07-22_16-23-58_1_285.txt
2025-07-22, 16:23:58, 1
Index	Phase	Displacement	Time	Pos X	Pos Y	Pos Z	Rot A	Rot B	Piezo Z	Force A	Force B	Gripper	Voltage A	Voltage B	Temperature	Amplitude force	Amplitude pos	Stiffness	Phase shift	Phase excitation	Force A raw	Displacement raw	HMax	HMax raw	Real Force	Real Stiffness	Contact Depth	Area	Hardness	Reduced Mod.
[#]	[#]	[um]	[s]	[um]	[um]	[um]	[m°]	[m°]	[um]	[uN]	[uN]	[V]	[V]	[V]	[°C]	[uN]	[um]	[N/m]	[°]	[°]	[uN]	[um]	[um]	[um]	[uN]	[N/m]	[um]	[um^2]	[MPa]	[MPa]
285	1.000000	0.002395	7.36784e+06	-52889.1	955.818	-29748.3	0.000000	0.000000	6.002825	0.076811	NaN	0.000000	0.001570	0.001735	28.0799	0.101451	0.000928	109.269	-113.438	-172.099	0.115170	0.001145	-1.067200	-1.068450	0.076811	109.269	-1.067727	-1.847774E+14	-4.156923E-16	NaN
285	1.000000	0.010349	7.36784e+06	-52889.1	955.819	-29748.3	0.000000	0.000000	6.010775	-0.009376	NaN	0.000000	0.001579	0.001725	28.079	0.065803	0.001046	62.9056	139.939	-167.796	-0.027710	0.009051	-1.059246	-1.060544	-0.009376	62.9056	-1.059134	-1.416392E+14	6.619887E-17	NaN
285	1.000000	0.018349	7.36784e+06	-52889.1	955.82	-29748.3	0.000000	0.000000	6.018774	-0.029514	NaN	0.000000	0.001569	0.001738	28.0792	0.032850	0.001844	17.8119	-173.577	-168.025	-0.046818	0.017009	-1.051246	-1.052585	-0.029514	17.8119	-1.050003	-1.067720E+14	2.764172E-16	NaN
285	1.000000	0.026337	7.36784e+06	-52889.1	955.817	-29748.3	0.000000	0.000000	6.026763	-0.005533	NaN	0.000000	0.001556	0.001732	28.0796	0.039235	0.001831	21.4319	-149.998	-168.536	-0.012935	0.025058	-1.043258	-1.044536	-0.005533	21.4319	-1.043064	-8.613323E+13	6.423953E-17	NaN
285	1.000000	0.034317	7.36784e+06	-52889.1	955.82	-29748.3	0.000000	0.000000	6.034744	0.028244	NaN	0.000000	0.001547	0.001750	28.0793	0.044143	0.001922	22.9704	40.3288	-167.492	0.033211	0.033020	-1.035278	-1.036575	0.028244	22.9704	-1.036200	-6.964154E+13	-4.055582E-16	NaN
285	1.000000	0.042329	7.36784e+06	-52889.1	955.819	-29748.3	0.000000	0.000000	6.042754	-0.023376	NaN	0.000000	0.001533	0.001714	28.0797	0.082339	0.002019	40.7911	-154.578	-161.635	0.059552	0.040978	-1.027266	-1.028617	-0.023376	40.7911	-1.026836	-5.211025E+13	4.485820E-16	NaN
285	1.000000	0.050347	7.36784e+06	-52889.1	955.819	-29748.3	0.000000	0.000000	6.050775	0.055765	NaN	0.000000	0.001588	0.001765	28.0794	0.122050	0.001955	62.445	24.2599	-169.093	-0.004422	0.049023	-1.019248	-1.020572	0.055765	62.445	-1.019918	-4.205760E+13	-1.325930E-15	NaN
285	1.000000	0.058313	7.36784e+06	-52889.1	955.819	-29748.3	0.000000	0.000000	6.058742	0.064353	NaN	0.000000	0.001610	0.001745	28.0793	0.104968	0.002003	52.4127	-76.2602	-164.304	0.083540	0.057010	-1.011282	-1.012585	0.064353	52.4127	-1.012203	-3.311514E+13	-1.943316E-15	NaN
285	1.000000	0.066309	7.36784e+06	-52889.1	955.819	-29748.3	0.000000	0.000000	6.066737	0.039136	NaN	0.000000	0.001598	0.001743	28.0784	0.131022	0.001987	65.9251	46.6372	-163.42	-0.009422	0.065048	-1.003285	-1.004547	0.039136	65.9251	-1.003731	-2.546789E+13	-1.536667E-15	NaN
285	1.000000	0.074319	7.36784e+06	-52889.1	955.818	-29748.3	0.000000	0.000000	6.074747	0.034791	NaN	0.000000	0.001562	0.001718	28.0781	0.087572	0.001941	45.1276	129.076	-166.031	0.091488	0.072997	-0.995276	-0.996598	0.034791	45.1276	-0.995854	-1.994999E+13	-1.743904E-15	NaN
285	1.000000	0.082350	7.36784e+06	-52889.1	955.818	-29748.3	0.000000	0.000000	6.082776	0.006703	NaN	0.000000	0.001590	0.001724	28.0782	0.086322	0.001982	43.5561	-77.875	-164.683	-0.043281	0.081042	-0.987245	-0.988552	0.006703	43.5561	-0.987361	-1.533074E+13	-4.372519E-16	NaN
285	1.000000	0.090336	7.36784e+06	-52889.1	955.818	-29748.3	0.000000	0.000000	6.090759	-0.080065	NaN	0.000000	0.001607	0.001757	28.078	0.041477	0.001916	21.6498	90.6342	-168.29	-0.017493	0.088986	-0.979259	-0.980609	-0.080065	21.6498	-0.976485	-1.094090E+13	7.317935E-15	NaN
285	1.000000	0.098351	7.36784e+06	-52889.1	955.819	-29748.3	0.000000	0.000000	6.098776	-0.040573	NaN	0.000000	0.001582	0.001726	28.0785	0.148575	0.001995	74.466	-172.106	-166.584	-0.002215	0.097053	-0.971244	-0.972542	-0.040573	74.466	-0.970835	-9.181573E+12	4.418956E-15	NaN
285	1.000000	0.106372	7.36784e+06	-52889.1	955.818	-29748.3	0.000000	0.000000	6.106800	0.064193	NaN	0.000000	0.001656	0.001764	28.0793	0.069435	0.001881	36.9085	-65.0098	-164.811	-0.011488	0.105076	-0.963223	-0.964519	0.064193	36.9085	-0.964528	-7.549296E+12	-8.503135E-15	NaN
285	1.000000	0.114349	7.36784e+06	-52889.1	955.819	-29748.3	0.000000	0.000000	6.114775	0.004064	NaN	0.000000	0.001626	0.001756	28.0787	0.141858	0.001939	73.1549	14.5906	-167.955	-0.034407	0.112998	-0.955246	-0.956597	0.004064	73.1549	-0.955288	-5.666740E+12	-7.171624E-16	NaN
285	1.000000	0.122355	7.36784e+06	-52889.1	955.819	-29748.3	0.000000	0.000000	6.122781	-0.020277	NaN	0.000000	0.001678	0.001765	28.0787	0.017408	0.001900	9.161729	79.0348	-164.37	-0.049600	0.121014	-0.947240	-0.948581	-0.020277	9.161729	-0.945580	-4.191873E+12	4.837301E-15	NaN
285	1.000000	0.130343	7.36784e+06	-52889.1	955.817	-29748.3	0.000000	0.000000	6.130772	0.055207	NaN	0.000000	0.001688	0.001783	28.0782	0.013331	0.002014	6.619555	90.2261	-166.069	0.072898	0.129078	-0.939252	-0.940517	0.055207	6.619555	-0.945507	-4.182397E+12	-1.319995E-14	NaN
285	1.000000	0.138356	7.36784e+06	-52889.1	955.819	-29748.3	0.000000	0.000000	6.138783	0.019033	NaN	0.000000	0.001696	0.001735	28.0784	0.094937	0.002046	46.3958	145.941	-172.297	0.041438	0.137078	-0.931239	-0.932517	0.019033	46.3958	-0.931547	-2.710649E+12	-7.021656E-15	NaN
285	1.000000	0.146368	7.36784e+06	-52889.1	955.818	-29748.3	0.000000	0.000000	6.146796	0.066112	NaN	0.000000	0.001724	0.001723	28.0782	0.105340	0.001982	53.1578	159.474	-165.701	0.009728	0.145075	-0.923227	-0.924519	0.066112	53.1578	-0.924160	-2.154617E+12	-3.068404E-14	NaN
285	1.000000	0.154366	7.36784e+06	-52889.1	955.818	-29748.3	0.000000	0.000000	6.154790	-0.047698	NaN	0.000000	0.001606	0.001729	28.078	0.043634	0.001989	21.9359	127.538	-168.261	-0.019677	0.153039	-0.915229	-0.916556	-0.047698	21.9359	-0.913598	-1.551525E+12	3.074256E-14	NaN
285	1.000000	0.162371	7.36784e+06	-52889.1	955.818	-29748.3	0.000000	0.000000	6.162797	-0.005975	NaN	0.000000	0.001540	0.001709	28.0781	0.076393	0.002028	37.6768	89.0628	-166.802	0.056629	0.161067	-0.907224	-0.908527	-0.005975	37.6768	-0.907105	-1.267812E+12	4.712894E-15	NaN
285	1.000000	0.170352	7.36784e+06	-52889.1	955.817	-29748.3	0.000000	0.000000	6.170780	0.043428	NaN	0.000000	0.001551	0.001683	28.0779	0.115484	0.002031	56.8638	-57.8858	-164.76	0.050818	0.169090	-0.899243	-0.900505	0.043428	56.8638	-0.899816	-1.010593E+12	-4.297247E-14	NaN
285	1.000000	0.178374	7.36784e+06	-52889.1	955.818	-29748.3	0.000000	0.000000	6.178799	-0.030854	NaN	0.000000	0.001522	0.001723	28.0781	0.027271	0.001955	13.9486	-33.2091	-166.048	-0.024739	0.177082	-0.891221	-0.892513	-0.030854	13.9486	-0.889562	-7.344994E+11	4.200655E-14	NaN
285	1.000000	0.186381	7.36784e+06	-52889.1	955.819	-29748.3	0.000000	0.000000	6.186805	-0.054114	NaN	0.000000	0.001572	0.001675	28.0782	0.092929	0.001889	49.1849	130.583	-163.494	-0.000260	0.185023	-0.883214	-0.884572	-0.054114	49.1849	-0.882388	-5.874995E+11	9.210923E-14	NaN
285	1.000000	0.194377	7.36784e+06	-52889.1	955.818	-29748.3	0.000000	0.000000	6.194803	-0.007299	NaN	0.000000	0.001564	0.001682	28.078	0.039532	0.001913	20.6694	60.2233	-166.56	0.032277	0.193069	-0.875217	-0.876526	-0.007299	20.6694	-0.874953	-4.660604E+11	1.566096E-14	NaN
285	1.000000	0.202363	7.36784e+06	-52889.1	955.818	-29748.3	0.000000	0.000000	6.202790	0.024150	NaN	0.000000	0.001578	0.001662	28.0792	0.084950	0.002112	40.2296	13.1914	-163.817	0.043355	0.201078	-0.867232	-0.868517	0.024150	40.2296	-0.867682	-3.716024E+11	-6.498783E-14	NaN
285	1.000000	0.210408	7.36784e+06	-52889.1	955.818	-29748.3	0.000000	0.000000	6.210833	-0.045491	NaN	0.000000	0.001564	0.001674	28.0792	0.047680	0.002046	23.3082	-102.577	-164.233	0.010334	0.209076	-0.859187	-0.860519	-0.045491	23.3082	-0.857723	-2.724565E+11	1.669672E-13	NaN
285	1.000000	0.218383	7.36784e+06	-52889.1	955.818	-29748.3	0.000000	0.000000	6.218811	0.029284	NaN	0.000000	0.001550	0.001684	28.0793	0.112633	0.001900	59.2761	48.7858	-168.061	-0.043955	0.217089	-0.851211	-0.852505	0.029284	59.2761	-0.851582	-2.249881E+11	-1.301561E-13	NaN
285	1.000000	0.226424	7.36784e+06	-52889.1	955.818	-29748.3	0.000000	0.000000	6.226848	-0.036965	NaN	0.000000	0.001542	0.001696	28.0791	0.108512	0.002029	53.4858	119.8	-164.242	-0.063003	0.225098	-0.843171	-0.844497	-0.036965	53.4858	-0.842653	-1.703065E+11	2.170493E-13	NaN
285	1.000000	0.234397	7.36784e+06	-52889.1	955.818	-29748.3	0.000000	0.000000	6.234825	0.039595	NaN	0.000000	0.001549	0.001671	28.079	0.079787	0.001985	40.1888	153.113	-166.314	0.060752	0.233133	-0.835197	-0.836462	0.039595	40.1888	-0.835936	-1.381132E+11	-2.866818E-13	NaN
285	1.000000	0.242430	7.36784e+06	-52889.1	955.818	-29748.3	0.000000	0.000000	6.242855	-0.039146	NaN	0.000000	0.001601	0.001684	28.079	0.043068	0.002017	21.3489	-96.8297	-164.841	0.001564	0.241117	-0.827165	-0.828478	-0.039146	21.3489	-0.825790	-1.006260E+11	3.890293E-13	NaN
285	1.000000	0.250402	7.36784e+06	-52889.1	955.818	-29748.3	0.000000	0.000000	6.250826	-0.037631	NaN	0.000000	0.001606	0.001661	28.079	0.059434	0.002041	29.1231	-91.436	-162.829	-0.016277	0.249108	-0.819193	-0.820487	-0.037631	29.1231	-0.818224	-7.945594E+10	4.736095E-13	NaN
285	1.000000	0.258388	7.36784e+06	-52889.1	955.818	-29748.3	0.000000	0.000000	6.258812	-0.066486	NaN	0.000000	0.001573	0.001660	28.0797	0.072866	0.001937	37.6139	120.46	-167.323	-0.003381	0.257104	-0.811206	-0.812491	-0.066486	37.6139	-0.809881	-6.122827E+10	1.085872E-12	NaN
285	1.000000	0.266414	7.36784e+06	-52889.1	955.818	-29748.3	0.000000	0.000000	6.266842	0.051988	NaN	0.000000	0.001607	0.001716	28.0797	0.031037	0.002025	15.3237	30.1643	-167.573	0.081563	0.265062	-0.803181	-0.804533	0.051988	15.3237	-0.805726	-5.377411E+10	-9.667800E-13	NaN
285	1.000000	0.274414	7.36784e+06	-52889.1	955.818	-29748.3	0.000000	0.000000	6.274841	0.017777	NaN	0.000000	0.001617	0.001718	28.0793	0.084195	0.001957	43.0252	168.105	-162.319	-0.042042	0.273087	-0.795180	-0.796507	0.017777	43.0252	-0.795490	-3.905153E+10	-4.552104E-13	NaN
285	1.000000	0.282419	7.36784e+06	-52889.1	955.819	-29748.3	0.000000	0.000000	6.282843	-0.068294	NaN	0.000000	0.001624	0.001694	28.0791	0.088462	0.001959	45.1466	-71.3365	-166.052	-0.089984	0.281136	-0.787176	-0.788458	-0.068294	45.1466	-0.786041	-2.906102E+10	2.350016E-12	NaN
285	1.000000	0.290418	7.36784e+06	-52889.1	955.819	-29748.3	0.000000	0.000000	6.290845	0.017218	NaN	0.000000	0.001654	0.001720	28.0793	0.085883	0.001908	45.002	21.3289	-163.358	0.001467	0.289113	-0.779177	-0.780482	0.017218	45.002	-0.779464	-2.365614E+10	-7.278504E-13	NaN
285	1.000000	0.298406	7.36784e+06	-52889.1	955.819	-29748.3	0.000000	0.000000	6.298832	-0.016147	NaN	0.000000	0.001651	0.001713	28.0792	0.033495	0.001991	16.8218	110.821	-164.311	-0.003622	0.297082	-0.771189	-0.772513	-0.016147	16.8218	-0.770469	-1.785172E+10	9.045198E-13	NaN
285	1.000000	0.306477	7.36784e+06	-52889.1	955.82	-29748.3	0.000000	0.000000	6.306903	0.008397	NaN	0.000000	0.001657	0.001706	28.0792	0.067673	0.001973	34.2954	-171.923	-165.507	0.006070	0.305091	-0.763118	-0.764504	0.008397	34.2954	-0.763302	-1.426308E+10	-5.887068E-13	NaN
285	1.000000	0.314479	7.36784e+06	-52889.1	955.817	-29748.3	0.000000	0.000000	6.314903	-0.057248	NaN	0.000000	0.001618	0.001682	28.0796	0.029617	0.001953	15.1672	138.015	-167.794	0.024777	0.313111	-0.755116	-0.756483	-0.057248	15.1672	-0.752285	-1.010010E+10	5.668109E-12	NaN
285	1.000000	0.322444	7.36784e+06	-52889.1	955.819	-29748.3	0.000000	0.000000	6.322871	0.011954	NaN	0.000000	0.001533	0.001718	28.0791	0.119074	0.002098	56.7437	79.98	-162.63	-0.074630	0.321139	-0.747151	-0.748456	0.011954	56.7437	-0.747309	-8.641448E+9	-1.383331E-12	NaN
285	1.000000	0.330416	7.36784e+06	-52889.1	955.819	-29748.3	0.000000	0.000000	6.330841	-0.016087	NaN	0.000000	0.001589	0.001733	28.0793	0.051649	0.002081	24.8215	-165.435	-165.396	0.004856	0.329110	-0.739179	-0.740485	-0.016087	24.8215	-0.738693	-6.595551E+9	2.439007E-12	NaN
285	1.000000	0.338451	7.36784e+06	-52889.1	955.819	-29748.3	0.000000	0.000000	6.338879	0.051325	NaN	0.000000	0.001555	0.001715	28.078	0.026761	0.002022	13.2342	167.353	-160.815	0.063809	0.337145	-0.731144	-0.732450	0.051325	13.2342	-0.734053	-5.702121E+9	-9.001112E-12	NaN
285	1.000000	0.346453	7.36784e+06	-52889.1	955.818	-29748.3	0.000000	0.000000	6.346879	-0.003651	NaN	0.000000	0.001591	0.001730	28.078	0.052790	0.002204	23.9471	-163.025	-163.63	0.079392	0.345137	-0.723142	-0.724457	-0.003651	23.9471	-0.723027	-4.034184E+9	9.050440E-13	NaN
285	1.000000	0.354439	7.36784e+06	-52889.1	955.818	-29748.3	0.000000	0.000000	6.354860	-0.114195	NaN	0.000000	0.001595	0.001716	28.0783	0.056460	0.001984	28.4553	-156.075	-161.329	-0.106219	0.353180	-0.715156	-0.716415	-0.114195	28.4553	-0.712146	-2.866409E+9	3.983895E-11	NaN
285	1.000000	0.362457	7.36784e+06	-52889.1	955.818	-29748.3	0.000000	0.000000	6.362883	-0.006325	NaN	0.000000	0.001576	0.001705	28.0781	0.035861	0.002045	17.5382	19.6369	-165.394	-0.023524	0.361112	-0.707138	-0.708483	-0.006325	17.5382	-0.706868	-2.428263E+9	2.604599E-12	NaN
285	1.000000	0.370481	7.36784e+06	-52889.1	955.819	-29748.3	0.000000	0.000000	6.370907	0.011159	NaN	0.000000	0.001562	0.001711	28.0783	0.063222	0.001942	32.5547	41.1624	-168.254	-0.027219	0.369172	-0.699114	-0.700423	0.011159	32.5547	-0.699371	-1.918419E+9	-5.816709E-12	NaN
285	1.000000	0.378459	7.36784e+06	-52889.1	955.818	-29748.3	0.000000	0.000000	6.378886	0.012872	NaN	0.000000	0.001569	0.001728	28.0781	0.019362	0.001889	10.2509	-65.4567	-164.775	-0.034470	0.377170	-0.691136	-0.692424	0.012872	10.2509	-0.692078	-1.525134E+9	-8.439734E-12	NaN
285	1.000000	0.386456	7.36784e+06	-52889.1	955.818	-29748.3	0.000000	0.000000	6.386882	-0.023531	NaN	0.000000	0.001595	0.001741	28.0781	0.086694	0.001957	44.2943	-173.747	-162.964	0.029155	0.385166	-0.683139	-0.684429	-0.023531	44.2943	-0.682740	-1.136779E+9	2.070002E-11	NaN
285	1.000000	0.394488	7.36784e+06	-52889.1	955.818	-29748.3	0.000000	0.000000	6.394913	-0.028947	NaN	0.000000	0.001568	0.001697	28.0782	0.026513	0.002159	12.2791	139.435	-165.378	-0.059064	0.393161	-0.675106	-0.676434	-0.028947	12.2791	-0.673338	-8.454258E+8	3.423958E-11	NaN
285	1.000000	0.402494	7.36784e+06	-52889.1	955.818	-29748.3	0.000000	0.000000	6.402919	-0.021171	NaN	0.000000	0.001634	0.001682	28.078	0.045332	0.002089	21.6998	-55.9177	-164.77	-0.033386	0.401163	-0.667101	-0.668432	-0.021171	21.6998	-0.666369	-6.787188E+8	3.119331E-11	NaN
285	1.000000	0.410476	7.36784e+06	-52889.1	955.817	-29748.3	0.000000	0.000000	6.410901	-0.019964	NaN	0.000000	0.001561	0.001682	28.0786	0.057416	0.001878	30.5682	162.202	-166.148	-0.016027	0.409131	-0.659119	-0.660463	-0.019964	30.5682	-0.658629	-5.317278E+8	3.754567E-11	NaN
285	1.000000	0.418465	7.36784e+06	-52889.1	955.819	-29748.3	0.000000	0.000000	6.418893	0.038142	NaN	0.000000	0.001574	0.001682	28.0781	0.085964	0.001870	45.9816	157.34	-161.844	0.039670	0.417154	-0.651130	-0.652441	0.038142	45.9816	-0.651752	-4.280101E+8	-8.911463E-11	NaN
285	1.000000	0.426507	7.36784e+06	-52889.1	955.818	-29748.3	0.000000	0.000000	6.426935	0.042790	NaN	0.000000	0.001569	0.001732	28.0782	0.040164	0.002152	18.6617	-159.207	-168.867	0.048514	0.425174	-0.643088	-0.644421	0.042790	18.6617	-0.644808	-3.437466E+8	-1.244824E-10	NaN
285	1.000000	0.434472	7.36784e+06	-52889.1	955.819	-29748.3	0.000000	0.000000	6.434895	-0.066681	NaN	0.000000	0.001538	0.001675	28.0784	0.065459	0.002030	32.2482	-83.4297	-166.397	-0.032151	0.433137	-0.635123	-0.636458	-0.066681	32.2482	-0.633572	-2.410318E+8	2.766465E-10	NaN
285	1.000000	0.442499	7.36784e+06	-52889.1	955.818	-29748.3	0.000000	0.000000	6.442927	0.061475	NaN	0.000000	0.001573	0.001665	28.0782	0.123909	0.002026	61.1523	-110.783	-164.765	0.041966	0.441156	-0.627096	-0.628439	0.061475	61.1523	-0.627850	-2.011400E+8	-3.056347E-10	NaN
285	1.000000	0.450522	7.36784e+06	-52889.1	955.819	-29748.3	0.000000	0.000000	6.450948	-0.012674	NaN	0.000000	0.001576	0.001666	28.0788	0.035202	0.001971	17.8571	7.855862	-163.256	0.101762	0.449185	-0.619072	-0.620410	-0.012674	17.8571	-0.618540	-1.498187E+8	8.459233E-11	NaN
285	1.000000	0.458464	7.36784e+06	-52889.1	955.818	-29748.3	0.000000	0.000000	6.458892	0.057736	NaN	0.000000	0.001587	0.001671	28.0783	0.053777	0.002073	25.9365	106.66	-164.441	0.056515	0.457171	-0.611131	-0.612424	0.057736	25.9365	-0.612801	-1.249233E+8	-4.621696E-10	NaN
285	1.000000	0.466463	7.36784e+06	-52889.1	955.818	-29748.3	0.000000	0.000000	6.466892	0.060163	NaN	0.000000	0.001543	0.001661	28.0784	0.102693	0.002020	50.834	83.034	-165.861	0.062545	0.465182	-0.603132	-0.604412	0.060163	50.834	-0.604020	-9.458210E+7	-6.360898E-10	NaN
285	1.000000	0.474483	7.36784e+06	-52889.1	955.819	-29748.3	0.000000	0.000000	6.474908	-0.032764	NaN	0.000000	0.001574	0.001680	28.0796	0.072172	0.002060	35.0327	-51.8621	-164.622	-0.054993	0.473242	-0.595112	-0.596353	-0.032764	35.0327	-0.594411	-6.973622E+7	4.698291E-10	NaN
285	1.000000	0.482494	7.36784e+06	-52889.1	955.819	-29748.3	0.000000	0.000000	6.482920	-0.006065	NaN	0.000000	0.001602	0.001693	28.0795	0.067051	0.002015	33.2743	177.762	-164.171	-0.037273	0.481198	-0.587101	-0.588397	-0.006065	33.2743	-0.586964	-5.505565E+7	1.101571E-10	NaN
285	1.000000	0.490481	7.36784e+06	-52889.1	955.818	-29748.3	0.000000	0.000000	6.490906	-0.018645	NaN	0.000000	0.001561	0.001674	28.0795	0.110072	0.001879	58.567	-138.585	-164.167	0.034191	0.489223	-0.579114	-0.580371	-0.018645	58.567	-0.578875	-4.257968E+7	4.378893E-10	NaN
285	1.000000	0.498496	7.36784e+06	-52889.1	955.818	-29748.3	0.000000	0.000000	6.498924	0.035238	NaN	0.000000	0.001547	0.001681	28.0796	0.088941	0.002070	42.9563	-97.996	-165.974	-0.035298	0.497179	-0.571098	-0.572415	0.035238	42.9563	-0.571714	-3.390836E+7	-1.039204E-9	NaN
285	1.000000	0.506493	7.36784e+06	-52889.1	955.818	-29748.3	0.000000	0.000000	6.506917	-0.040956	NaN	0.000000	0.001623	0.001718	28.0796	0.098266	0.002037	48.2522	8.458705	-170.337	-0.026167	0.505180	-0.563102	-0.564415	-0.040956	48.2522	-0.562466	-2.526281E+7	1.621187E-9	NaN
285	1.000000	0.514552	7.36784e+06	-52889.1	955.819	-29748.3	0.000000	0.000000	6.514976	-0.048864	NaN	0.000000	0.001610	0.001673	28.0797	0.033486	0.001848	18.1161	-120.36	-164.967	-0.054745	0.513185	-0.555043	-0.556410	-0.048864	18.1161	-0.553020	-1.869722E+7	2.613423E-9	NaN
285	1.000000	0.522492	7.36784e+06	-52889.1	955.818	-29748.3	0.000000	0.000000	6.522918	-0.007425	NaN	0.000000	0.001632	0.001676	28.0794	0.028871	0.001982	14.569	135.912	-163.95	0.074726	0.521198	-0.547102	-0.548397	-0.007425	14.569	-0.546720	-1.529389E+7	4.855000E-10	NaN
285	1.000000	0.530535	7.36784e+06	-52889.1	955.819	-29748.3	0.000000	0.000000	6.530962	0.026008	NaN	0.000000	0.001610	0.001718	28.0792	0.062220	0.001999	31.118	-80.606	-168.267	0.056682	0.529259	-0.539060	-0.540336	0.026008	31.118	-0.539687	-1.221848E+7	-2.128590E-9	NaN
285	1.000000	0.538511	7.36784e+06	-52889.1	955.819	-29748.3	0.000000	0.000000	6.538940	0.066237	NaN	0.000000	0.001589	0.001674	28.0794	0.057999	0.001949	29.7561	-77.2278	-165.789	-0.050598	0.537194	-0.531084	-0.532401	0.066237	29.7561	-0.532753	-9.7905e+06	-6.765465E-9	NaN
285	1.000000	0.546512	7.36784e+06	-52889.1	955.819	-29748.3	0.000000	0.000000	6.546939	0.027090	NaN	0.000000	0.001598	0.001676	28.0794	0.106227	0.001984	53.5325	-86.0318	-164.015	0.054474	0.545254	-0.523083	-0.524341	0.027090	53.5325	-0.523463	-7.27349e+06	-3.724493E-9	NaN
285	1.000000	0.554554	7.36784e+06	-52889.1	955.818	-29748.3	0.000000	0.000000	6.554980	0.011472	NaN	0.000000	0.001573	0.001731	28.0794	0.025143	0.001957	12.8496	59.7646	-164.824	-0.002769	0.553226	-0.515041	-0.516368	0.011472	12.8496	-0.515711	-5.67446e+06	-2.021634E-9	NaN
285	1.000000	0.562535	7.36784e+06	-52889.1	955.819	-29748.3	0.000000	0.000000	6.562963	0.043368	NaN	0.000000	0.001602	0.001685	28.0793	0.055307	0.001941	28.501	-141.759	-168.187	0.064163	0.561215	-0.507060	-0.508379	0.043368	28.501	-0.508201	-4.46018e+06	-9.723358E-9	NaN
285	1.000000	0.570544	7.36785e+06	-52889.1	955.818	-29748.3	0.000000	0.000000	6.570972	0.053656	NaN	0.000000	0.001574	0.001706	28.0792	0.027222	0.002072	13.137	25.044	-166.756	-0.019453	0.569252	-0.499051	-0.500342	0.053656	13.137	-0.502114	-3.6687e+06	-1.462534E-8	NaN
285	1.000000	0.578527	7.36785e+06	-52889.1	955.819	-29748.3	0.000000	0.000000	6.578953	-0.009649	NaN	0.000000	0.001617	0.001728	28.0793	0.052320	0.001956	26.7518	-49.8395	-168.265	0.046906	0.577228	-0.491068	-0.492367	-0.009649	26.7518	-0.490797	-2.54994e+06	3.784129E-9	NaN
285	1.000000	0.586538	7.36785e+06	-52889.1	955.818	-29748.3	0.000000	0.000000	6.586965	0.011469	NaN	0.000000	0.001568	0.001760	28.0793	0.085826	0.001972	43.5288	47.4004	-164.274	0.052309	0.585259	-0.483057	-0.484336	0.011469	43.5288	-0.483254	-2.0002e+06	-5.734057E-9	NaN
285	1.000000	0.594540	7.36785e+06	-52889.1	955.818	-29748.3	0.000000	0.000000	6.594964	-0.046402	NaN	0.000000	0.001553	0.001696	28.0795	0.036185	0.001966	18.4028	-149.322	-162.767	-0.012386	0.593197	-0.475055	-0.476398	-0.046402	18.4028	-0.473164	-1.44466e+06	3.211931E-8	NaN
285	1.000000	0.602541	7.36785e+06	-52889.1	955.818	-29748.3	0.000000	0.000000	6.602967	-0.006096	NaN	0.000000	0.001605	0.001674	28.0795	0.038104	0.002055	18.5452	-57.099	-167.42	0.029593	0.601253	-0.467053	-0.468342	-0.006096	18.5452	-0.466807	-1.17655e+06	5.181437E-9	NaN
285	1.000000	0.610559	7.36785e+06	-52889.1	955.819	-29748.3	0.000000	0.000000	6.610985	-0.014294	NaN	0.000000	0.001602	0.001638	28.0779	0.011440	0.002006	5.703079	-30.7127	-167.175	-0.015933	0.609183	-0.459035	-0.460412	-0.014294	5.703079	-0.457156	-861062	1.660018E-8	NaN
285	1.000000	0.618549	7.36785e+06	-52889.1	955.818	-29748.3	0.000000	0.000000	6.618978	0.048996	NaN	0.000000	0.001592	0.001630	28.0782	0.101495	0.001896	53.5337	124.302	-164.439	0.004769	0.617281	-0.451045	-0.452314	0.048996	53.5337	-0.451732	-722316	-6.783174E-8	NaN
285	1.000000	0.626551	7.36785e+06	-52889.1	955.819	-29748.3	0.000000	0.000000	6.626977	-0.000398	NaN	0.000000	0.001596	0.001655	28.0781	0.068791	0.002077	33.1281	-126.843	-164.876	0.006497	0.625219	-0.443044	-0.444376	-0.000398	33.1281	-0.443035	-544732	7.309513E-10	NaN
285	1.000000	0.634552	7.36785e+06	-52889.1	955.819	-29748.3	0.000000	0.000000	6.634980	0.032358	NaN	0.000000	0.001597	0.001658	28.0781	0.077734	0.001991	39.0437	-36.9045	-166.475	-0.055249	0.633269	-0.435043	-0.436325	0.032358	39.0437	-0.435664	-428686	-7.548263E-8	NaN
285	1.000000	0.642594	7.36785e+06	-52889.1	955.819	-29748.3	0.000000	0.000000	6.643018	-0.047209	NaN	0.000000	0.001629	0.001612	28.0785	0.047690	0.002154	22.1391	151.097	-165.357	-0.045014	0.641217	-0.427001	-0.428378	-0.047209	22.1391	-0.425402	-306881	1.538331E-7	NaN
285	1.000000	0.650579	7.36785e+06	-52889.1	955.819	-29748.3	0.000000	0.000000	6.651005	-0.005120	NaN	0.000000	0.001610	0.001635	28.0781	0.031663	0.002130	14.8654	-123.131	-165.183	-0.016376	0.649282	-0.419015	-0.420312	-0.005120	14.8654	-0.418757	-247050	2.072374E-8	NaN
285	1.000000	0.658577	7.36785e+06	-52889.1	955.819	-29748.3	0.000000	0.000000	6.659001	-0.053359	NaN	0.000000	0.001613	0.001608	28.0783	0.070383	0.001964	35.8425	-65.9261	-165.42	0.006858	0.657256	-0.411018	-0.412339	-0.053359	35.8425	-0.409901	-184925	2.885427E-7	NaN
285	1.000000	0.666612	7.36785e+06	-52889.1	955.817	-29748.3	0.000000	0.000000	6.667038	-0.010476	NaN	0.000000	0.001641	0.001616	28.078	0.045846	0.001866	24.5726	-126.078	-164.747	-0.036444	0.665264	-0.402983	-0.404331	-0.010476	24.5726	-0.402663	-145868	7.181654E-8	NaN
285	1.000000	0.674580	7.36785e+06	-52889.1	955.819	-29748.3	0.000000	0.000000	6.675006	-0.018296	NaN	0.000000	0.001668	0.001614	28.0779	0.021224	0.001961	10.821	-69.2997	-164.531	-0.017207	0.673261	-0.395015	-0.396334	-0.018296	10.821	-0.393747	-108825	1.681208E-7	NaN
285	1.000000	0.682597	7.36785e+06	-52889.1	955.818	-29748.3	0.000000	0.000000	6.683025	0.032637	NaN	0.000000	0.001676	0.001590	28.0782	0.036662	0.001961	18.6993	72.8776	-167.222	0.002879	0.681354	-0.386997	-0.388241	0.032637	18.6993	-0.388306	-90977.7	-3.587323E-7	NaN
285	1.000000	0.690595	7.36785e+06	-52889.1	955.818	-29748.3	0.000000	0.000000	6.691020	-0.035889	NaN	0.000000	0.001637	0.001642	28.0779	0.076940	0.001908	40.3204	-38.8367	-166.116	-0.028349	0.689278	-0.379000	-0.380317	-0.035889	40.3204	-0.378332	-65455.8	5.482903E-7	NaN
285	1.000000	0.698601	7.36785e+06	-52889.1	955.819	-29748.3	0.000000	0.000000	6.699029	0.029302	NaN	0.000000	0.001668	0.001595	28.0786	0.032996	0.002239	14.7348	20.1218	-165.312	0.021391	0.697289	-0.370994	-0.372306	0.029302	14.7348	-0.372485	-53938.8	-5.432537E-7	NaN
285	1.000000	0.706609	7.36785e+06	-52889.1	955.819	-29748.3	0.000000	0.000000	6.707033	-0.063655	NaN	0.000000	0.001641	0.001638	28.0782	0.079864	0.001869	42.7361	173.46	-164.297	-0.083616	0.705291	-0.362986	-0.364304	-0.063655	42.7361	-0.361869	-37918.3	1.678746E-6	NaN
285	1.000000	0.714584	7.36785e+06	-52889.1	955.819	-29748.3	0.000000	0.000000	6.715008	-0.062450	NaN	0.000000	0.001629	0.001610	28.0783	0.025089	0.001901	13.1996	-174.123	-166.709	0.015650	0.713307	-0.355011	-0.356288	-0.062450	13.1996	-0.351462	-26805.2	2.329763E-6	NaN
285	1.000000	0.722602	7.36785e+06	-52889.1	955.819	-29748.3	0.000000	0.000000	6.723028	0.005757	NaN	0.000000	0.001589	0.001631	28.0782	0.070122	0.001978	35.4489	141.239	-164.281	-0.086531	0.721326	-0.346993	-0.348269	0.005757	35.4489	-0.347115	-23179.6	-2.483572E-7	NaN
285	1.000000	0.730637	7.36785e+06	-52889.1	955.819	-29748.3	0.000000	0.000000	6.731063	0.001089	NaN	0.000000	0.001580	0.001633	28.078	0.099389	0.001920	51.7765	30.5921	-161.846	-0.029882	0.729269	-0.338958	-0.340325	0.001089	51.7765	-0.338974	-17643.8	-6.169779E-8	NaN
285	1.000000	0.738643	7.36785e+06	-52889.1	955.818	-29748.3	0.000000	0.000000	6.739068	-0.036661	NaN	0.000000	0.001578	0.001637	28.0785	0.105110	0.002062	50.9846	-89.9061	-164.882	0.016370	0.737356	-0.330952	-0.332238	-0.036661	50.9846	-0.330412	-13227.9	2.771459E-6	NaN
285	1.000000	0.746634	7.36785e+06	-52889.1	955.818	-29748.3	0.000000	0.000000	6.747062	0.053949	NaN	0.000000	0.001587	0.001621	28.0795	0.033160	0.002045	16.2175	25.7015	-163.988	-0.004035	0.745319	-0.322961	-0.324276	0.053949	16.2175	-0.325456	-11190.1	-4.821125E-6	NaN
285	1.000000	0.754609	7.36785e+06	-52889.1	955.818	-29748.3	0.000000	0.000000	6.755034	-0.044780	NaN	0.000000	0.001606	0.001606	28.0795	0.022560	0.001868	12.0749	135.728	-167.25	-0.054401	0.753250	-0.314986	-0.316345	-0.044780	12.0749	-0.312204	-7139.32	6.272304E-6	NaN
285	1.000000	0.762625	7.36785e+06	-52889.1	955.818	-29748.3	0.000000	0.000000	6.763047	-0.099213	NaN	0.000000	0.001668	0.001613	28.0795	0.054176	0.002071	26.1605	-102.929	-166.581	-0.073552	0.761301	-0.306970	-0.308294	-0.099213	26.1605	-0.304126	-5419.75	1.830593E-5	NaN
285	1.000000	0.770632	7.36785e+06	-52889.1	955.818	-29748.3	0.000000	0.000000	6.771059	0.013711	NaN	0.000000	0.001647	0.001673	28.0795	0.099387	0.001932	51.4457	-1.307949	-168.461	-0.039208	0.769308	-0.298962	-0.300287	0.013711	51.4457	-0.299162	-4572.58	-2.998561E-6	NaN
285	1.000000	0.778624	7.36785e+06	-52889.1	955.818	-29748.3	0.000000	0.000000	6.779048	-0.040952	NaN	0.000000	0.001613	0.001661	28.0796	0.049817	0.002032	24.522	8.529035	-168.664	-0.046304	0.777391	-0.290971	-0.292204	-0.040952	24.522	-0.289719	-3304.34	1.239325E-5	NaN
285	1.000000	0.786651	7.36785e+06	-52889.1	955.817	-29748.3	0.000000	0.000000	6.787077	-0.016899	NaN	0.000000	0.001635	0.001685	28.0795	0.068357	0.001955	34.9601	28.1355	-164.067	0.026440	0.785332	-0.282944	-0.284263	-0.016899	34.9601	-0.282581	-2581.51	6.546197E-6	NaN
285	1.000000	0.794651	7.36785e+06	-52889.1	955.818	-29748.3	0.000000	0.000000	6.795078	0.012489	NaN	0.000000	0.001624	0.001641	28.0796	0.021345	0.002016	10.5901	168.758	-166.856	-0.007187	0.793301	-0.274944	-0.276294	0.012489	10.5901	-0.275828	-2041.46	-6.117900E-6	NaN
285	1.000000	0.802625	7.36785e+06	-52889.1	955.818	-29748.3	0.000000	0.000000	6.803051	0.009448	NaN	0.000000	0.001630	0.001640	28.0799	0.053051	0.001945	27.2782	-68.5406	-165.931	-0.026541	0.801309	-0.266970	-0.268286	0.009448	27.2782	-0.267230	-1511.45	-6.251257E-6	NaN
285	1.000000	0.810662	7.36785e+06	-52889.1	955.818	-29748.3	0.000000	0.000000	6.811086	-0.051916	NaN	0.000000	0.001607	0.001642	28.0795	0.088951	0.001867	47.6338	84.3461	-162.124	-0.056553	0.809334	-0.258933	-0.260261	-0.051916	47.6338	-0.258116	-1096.52	4.734591E-5	NaN
285	1.000000	0.818656	7.36785e+06	-52889.1	955.818	-29748.3	0.000000	0.000000	6.819082	0.014388	NaN	0.000000	0.001621	0.001688	28.0795	0.082054	0.002096	39.1387	56.1333	-164.546	0.038460	0.817329	-0.250939	-0.252266	0.014388	39.1387	-0.251215	-858.514	-1.675969E-5	NaN
285	1.000000	0.826657	7.36785e+06	-52889.1	955.818	-29748.3	0.000000	0.000000	6.827083	-0.020285	NaN	0.000000	0.001614	0.001660	28.0795	0.023674	0.002015	11.7469	84.1423	-165.971	0.046787	0.825321	-0.242937	-0.244274	-0.020285	11.7469	-0.241642	-609.793	3.326590E-5	NaN
285	1.000000	0.834669	7.36785e+06	-52889.1	955.819	-29748.3	0.000000	0.000000	6.835096	0.019976	NaN	0.000000	0.001594	0.001656	28.0797	0.050021	0.001927	25.954	79.4739	-168.585	0.024053	0.833320	-0.234926	-0.236275	0.019976	25.954	-0.235503	-488.818	-4.086654E-5	NaN
285	1.000000	0.842658	7.36785e+06	-52889.1	955.817	-29748.3	0.000000	0.000000	6.843085	0.023808	NaN	0.000000	0.001609	0.001650	28.0794	0.029389	0.002022	14.5374	147.031	-165.164	-0.063707	0.841355	-0.226937	-0.228240	0.023808	14.5374	-0.228165	-374.554	-6.356381E-5	NaN
285	1.000000	0.850664	7.36785e+06	-52889.1	955.817	-29748.3	0.000000	0.000000	6.851090	-0.009558	NaN	0.000000	0.001652	0.001652	28.0796	0.143792	0.002031	70.8077	-52.5668	-163.674	0.013323	0.849354	-0.218931	-0.220240	-0.009558	70.8077	-0.218829	-266.046	3.592537E-5	NaN
285	1.000000	0.858672	7.36785e+06	-52889.1	955.819	-29748.3	0.000000	0.000000	6.859098	-0.001977	NaN	0.000000	0.001656	0.001634	28.0793	0.098492	0.002044	48.1956	148.404	-161.305	0.040328	0.857388	-0.210923	-0.212207	-0.001977	48.1956	-0.210892	-198.272	9.971573E-6	NaN
285	1.000000	0.866676	7.36785e+06	-52889.1	955.818	-29748.3	0.000000	0.000000	6.867099	-0.061975	NaN	0.000000	0.001645	0.001638	28.0794	0.005368	0.002000	2.683530	-40.6784	-162.549	-0.073126	0.865337	-0.202919	-0.204258	-0.061975	2.683530	-0.185598	-75.8941	0.000817	NaN
285	1.000000	0.874704	7.36785e+06	-52889.1	955.819	-29748.3	0.000000	0.000000	6.875131	0.011043	NaN	0.000000	0.001635	0.001642	28.0795	0.089409	0.002107	42.4371	-101.674	-164.959	0.066694	0.873368	-0.194891	-0.196227	0.011043	42.4371	-0.195086	-109.301	-0.000101	NaN
285	1.000000	0.882674	7.36785e+06	-52889.1	955.818	-29748.3	0.000000	0.000000	6.883096	-0.112899	NaN	0.000000	0.001659	0.001639	28.0784	0.129942	0.001983	65.5329	-29.5974	-167.89	-0.020092	0.881376	-0.186921	-0.188219	-0.112899	65.5329	-0.185629	-75.9837	0.001486	NaN
285	1.000000	0.890679	7.36785e+06	-52889.1	955.817	-29748.3	0.000000	0.000000	6.891109	0.097911	NaN	0.000000	0.001632	0.001639	28.0792	0.080141	0.001885	42.5254	-2.837727	-169.475	0.129470	0.889381	-0.178916	-0.180214	0.097911	42.5254	-0.180643	-62.5742	-0.001565	NaN
285	1.000000	0.898701	7.36785e+06	-52889.1	955.819	-29748.3	0.000000	0.000000	6.899127	-0.014612	NaN	0.000000	0.001649	0.001623	28.0781	0.052451	0.002012	26.0635	71.6637	-167.255	0.012510	0.897388	-0.170894	-0.172207	-0.014612	26.0635	-0.170473	-41.8624	0.000349	NaN
285	1.000000	0.906691	7.36785e+06	-52889.1	955.819	-29748.3	0.000000	0.000000	6.907116	-0.014273	NaN	0.000000	0.001658	0.001605	28.0782	0.039821	0.002051	19.4189	-150.571	-164.713	-0.045011	0.905398	-0.162904	-0.164197	-0.014273	19.4189	-0.162353	-30.1771	0.000473	NaN
285	1.000000	0.914665	7.36785e+06	-52889.1	955.819	-29748.3	0.000000	0.000000	6.915090	-0.026104	NaN	0.000000	0.001631	0.001623	28.0784	0.073588	0.001936	38.0186	42.5771	-162.876	-0.016843	0.913391	-0.154930	-0.156204	-0.026104	38.0186	-0.154415	-21.7794	0.001199	NaN
285	1.000000	0.922723	7.36785e+06	-52889.1	955.819	-29748.3	0.000000	0.000000	6.923150	0.007563	NaN	0.000000	0.001606	0.001659	28.0781	0.017322	0.001978	8.755385	-151.783	-164.473	-0.000477	0.921428	-0.146872	-0.148167	0.007563	8.755385	-0.147519	-16.3158	-0.000464	NaN
285	1.000000	0.930695	7.36785e+06	-52889.1	955.819	-29748.3	0.000000	0.000000	6.931121	-0.025912	NaN	0.000000	0.001632	0.001635	28.0784	0.164979	0.002022	81.578	155.448	-163.152	0.005845	0.929410	-0.138899	-0.140185	-0.025912	81.578	-0.138661	-11.1626	0.002321	NaN
285	1.000000	0.938707	7.36785e+06	-52889.1	955.819	-29748.3	0.000000	0.000000	6.939131	-0.040947	NaN	0.000000	0.001596	0.001637	28.0781	0.117688	0.001834	64.1798	144.504	-163.229	-0.031693	0.937389	-0.130888	-0.132205	-0.040947	64.1798	-0.130410	-7.761829	0.005275	NaN
285	1.000000	0.946685	7.36785e+06	-52889.1	955.818	-29748.3	0.000000	0.000000	6.947110	-0.038356	NaN	0.000000	0.001622	0.001603	28.0783	0.026324	0.002019	13.0375	-153.133	-165.293	0.061127	0.945364	-0.122909	-0.124231	-0.038356	13.0375	-0.120703	-4.991718	0.007684	NaN
285	1.000000	0.954681	7.36785e+06	-52889.1	955.818	-29748.3	0.000000	0.000000	6.955109	0.048081	NaN	0.000000	0.001631	0.001684	28.0781	0.042311	0.002126	19.9061	-134.692	-164.281	0.075895	0.953397	-0.114914	-0.116198	0.048081	19.9061	-0.116726	-4.145233	-0.011599	NaN
285	1.000000	0.962684	7.36785e+06	-52889.1	955.818	-29748.3	0.000000	0.000000	6.963107	-0.069824	NaN	0.000000	0.001626	0.001664	28.0782	0.106289	0.001954	54.4044	-94.1618	-166.487	0.017592	0.961416	-0.106911	-0.108178	-0.069824	54.4044	-0.105949	-2.463872	0.028339	NaN
285	1.000000	0.970734	7.36785e+06	-52889.1	955.819	-29748.3	0.000000	0.000000	6.971158	-0.074305	NaN	0.000000	0.001645	0.001681	28.0786	0.100742	0.001985	50.7547	-145.426	-164.696	-0.006441	0.969419	-0.098860	-0.100175	-0.074305	50.7547	-0.097762	-1.628815	0.045619	NaN
285	1.000000	0.978725	7.36785e+06	-52889.1	955.818	-29748.3	0.000000	0.000000	6.979151	-0.003554	NaN	0.000000	0.001652	0.001650	28.0781	0.027294	0.001891	14.4341	120.702	-167.717	-0.120866	0.977371	-0.090870	-0.092224	-0.003554	14.4341	-0.090685	-1.121654	0.003169	NaN
285	1.000000	0.986739	7.36785e+06	-52889.1	955.817	-29748.3	0.000000	0.000000	6.987165	-0.009257	NaN	0.000000	0.001591	0.001634	28.0784	0.026888	0.002066	13.0139	165.467	-163.528	0.046571	0.985450	-0.082856	-0.084145	-0.009257	13.0139	-0.082323	-0.706832	0.013096	NaN
285	1.000000	0.994727	7.36785e+06	-52889.1	955.817	-29748.3	0.000000	0.000000	6.995152	-0.030888	NaN	0.000000	0.001611	0.001653	28.0783	0.092833	0.002021	45.9445	-136.8	-162.149	-0.073078	0.993388	-0.074868	-0.076207	-0.030888	45.9445	-0.074364	-0.444651	0.069465	NaN
285	1.000000	1.002734	7.36785e+06	-52889.1	955.817	-29748.3	0.000000	0.000000	7.003161	0.019035	NaN	0.000000	0.001622	0.001656	28.0782	0.053876	0.002011	26.7863	111.17	-164.591	-0.047521	1.001392	-0.066861	-0.068203	0.019035	26.7863	-0.067394	-0.290025	-0.065632	NaN
285	1.000000	1.010717	7.36785e+06	-52889.1	955.818	-29748.3	0.000000	0.000000	7.011143	-0.011949	NaN	0.000000	0.001625	0.001628	28.0784	0.090009	0.002075	43.3759	-74.7502	-164.95	0.086769	1.009399	-0.058878	-0.060196	-0.011949	43.3759	-0.058671	-0.164901	0.072463	NaN
285	1.000000	1.018734	7.36785e+06	-52889.1	955.819	-29748.3	0.000000	0.000000	7.019158	-0.048764	NaN	0.000000	0.001622	0.001642	28.0792	0.106567	0.002020	52.7681	-17.5112	-163.976	0.047581	1.017402	-0.050861	-0.052193	-0.048764	52.7681	-0.050168	-0.092325	0.528175	NaN
285	1.000000	1.026715	7.36785e+06	-52889.1	955.819	-29748.3	0.000000	0.000000	7.027138	-0.082305	NaN	0.000000	0.001627	0.001647	28.0796	0.061743	0.002091	29.5328	97.5567	-168.136	-0.053856	1.025423	-0.042880	-0.044172	-0.082305	29.5328	-0.040790	-0.047793	1.722118	NaN
285	1.000000	1.034732	7.36785e+06	-52889.1	955.818	-29748.3	0.000000	0.000000	7.035155	-0.062921	NaN	0.000000	0.001623	0.001634	28.0792	0.081221	0.001978	41.0632	84.14	-164.378	-0.017975	1.033483	-0.034863	-0.036112	-0.062921	41.0632	-0.033714	-0.029365	2.142721	NaN
285	1.000000	1.042749	7.36785e+06	-52889.1	955.819	-29748.3	0.000000	0.000000	7.043172	-0.081601	NaN	0.000000	0.001648	0.001641	28.0791	0.077920	0.002030	38.3931	171.734	-163.829	-0.120506	1.041407	-0.026845	-0.028188	-0.081601	38.3931	-0.025251	-0.017128	4.764265	NaN
285	1.000000	1.050747	7.36785e+06	-52889.1	955.818	-29748.3	0.000000	0.000000	7.051173	0.005910	NaN	0.000000	0.001616	0.001667	28.0792	0.110635	0.002076	53.2839	93.678	-166.628	0.037740	1.049439	-0.018848	-0.020156	0.005910	53.2839	-0.018931	-0.011796	-0.501024	NaN
285	1.000000	1.058757	7.36785e+06	-52889.1	955.818	-29748.3	0.000000	0.000000	7.059181	-0.039852	NaN	0.000000	0.001652	0.001632	28.0793	0.083656	0.001914	43.7103	145.876	-163.81	-0.015418	1.057437	-0.010838	-0.012158	-0.039852	43.7103	-0.010155	-0.006476	6.154039	NaN
285	1.000000	1.066764	7.36785e+06	-52889.1	955.817	-29748.3	0.000000	0.000000	7.067187	-0.082387	NaN	0.000000	0.001668	0.001646	28.0797	0.068045	0.002069	32.8899	154.736	-163.675	-0.058270	1.065456	-0.002831	-0.004139	-0.082387	32.8899	-0.000952	-0.000699	117.893	NaN
285	1.000000	1.074754	7.36785e+06	-52889.1	955.818	-29748.3	0.000000	0.000000	7.075313	3.217988	NaN	0.000000	0.001655	0.001641	28.0793	4.046404	0.001899	2130.57	13.3143	-172.004	2.099487	1.073386	0.005159	0.003791	3.217988	2130.57	0.004027	0.003262	986.394	34080.2
285	2.000000	1.080426	7.36785e+06	-52889.1	955.818	-29748.3	0.000000	0.000000	7.081161	7.515657	NaN	0.000000	0.001603	0.001637	28.0795	9.041122	0.001812	4988.97	13.035	-174.946	7.688421	1.080083	0.010831	0.010489	7.515657	4988.97	0.009701	0.008851	849.14	48449.6
285	2.000000	1.082368	7.36785e+06	-52889.1	955.817	-29748.3	0.000000	0.000000	7.083209	10.0829	NaN	0.000000	0.001644	0.001625	28.0795	10.7329	0.001773	6055.21	6.914192	-171.117	9.846187	1.082071	0.012773	0.012476	10.0829	6055.21	0.011524	0.010925	922.906	52928.3
285	2.000000	1.084366	7.36785e+06	-52889.1	955.818	-29748.3	0.000000	0.000000	7.085325	12.9505	NaN	0.000000	0.001628	0.001660	28.0794	13.4342	0.001812	7413.09	9.320362	-175.251	13.6616	1.084016	0.014771	0.014422	12.9505	7413.09	0.013461	0.013287	974.641	58755.9
285	2.000000	1.086370	7.36785e+06	-52889.1	955.818	-29748.3	0.000000	0.000000	7.087485	16.7628	NaN	0.000000	0.001629	0.001647	28.0797	15.5838	0.001735	8980.07	10.9683	-178.75	16.5736	1.086062	0.016775	0.016467	16.7628	8980.07	0.015375	0.015789	1061.7	65295.1
285	2.000000	1.088299	7.36785e+06	-52889.1	955.818	-29748.3	0.000000	0.000000	7.089568	20.4963	NaN	0.000000	0.001659	0.001654	28.0796	17.3052	0.001639	10558.4	8.744580	-177.828	20.2606	1.087972	0.018704	0.018377	20.4963	10558.4	0.017248	0.018401	1113.89	71113.7
285	2.000000	1.090273	7.36785e+06	-52889.1	955.818	-29748.3	0.000000	0.000000	7.091725	24.933	NaN	0.000000	0.001649	0.001655	28.0795	20.1455	0.001875	10742.7	7.215153	-176.403	22.8774	1.089994	0.020678	0.020399	24.933	10742.7	0.018938	0.020900	1192.94	67890.6
285	2.000000	1.092299	7.36785e+06	-52889.1	955.818	-29748.3	0.000000	0.000000	7.093953	29.8634	NaN	0.000000	0.001633	0.001651	28.0797	21.5127	0.001745	12330.4	6.869767	-177.289	29.0352	1.092010	0.022704	0.022415	29.8634	12330.4	0.020888	0.023956	1246.57	72784.5
285	2.000000	1.094338	7.36785e+06	-52889.1	955.818	-29748.3	0.000000	0.000000	7.096109	32.6931	NaN	0.000000	0.001655	0.001673	28.0794	24.6862	0.001757	14047.6	2.876033	-176.003	32.7643	1.094014	0.024743	0.024419	32.6931	14047.6	0.022997	0.027473	1190.01	77432.2
285	2.000000	1.096327	7.36785e+06	-52889.1	955.819	-29748.3	0.000000	0.000000	7.098448	41.2238	NaN	0.000000	0.001611	0.001637	28.0798	27.1865	0.001877	14487.8	7.185700	-179.575	40.8681	1.095938	0.026732	0.026343	41.2238	14487.8	0.024598	0.030288	1361.06	76057.4
285	2.000000	1.098270	7.36785e+06	-52889.1	955.819	-29748.3	0.000000	0.000000	7.100539	44.8053	NaN	0.000000	0.001644	0.001674	28.0785	28.9558	0.001866	15516.3	6.598080	179.978	42.9162	1.097960	0.028675	0.028365	44.8053	15516.3	0.026509	0.033819	1324.87	77087.5
285	2.000000	1.100292	7.36785e+06	-52889.1	955.819	-29748.3	0.000000	0.000000	7.102812	50.903	NaN	0.000000	0.001675	0.001677	28.0782	30.8339	0.001759	17529.1	4.290221	-178.831	51.0572	1.100040	0.030698	0.030445	50.903	17529.1	0.028520	0.037731	1349.09	82448.5
285	2.000000	1.102283	7.36785e+06	-52889.1	955.819	-29748.3	0.000000	0.000000	7.105027	56.346	NaN	0.000000	0.001618	0.001705	28.0784	31.8535	0.001769	18008	6.132200	179.621	55.3482	1.102008	0.032689	0.032413	56.346	18008	0.030342	0.041455	1359.2	80806.9
285	2.000000	1.104234	7.36785e+06	-52889.1	955.819	-29748.3	0.000000	0.000000	7.107230	62.4682	NaN	0.000000	0.001592	0.001643	28.0784	35.1842	0.001778	19792.9	6.965100	175.974	60.3819	1.103964	0.034639	0.034369	62.4682	19792.9	0.032272	0.045585	1370.37	84697.7
285	2.000000	1.106260	7.36785e+06	-52889.1	955.819	-29748.3	0.000000	0.000000	7.109646	71.9661	NaN	0.000000	0.001537	0.001684	28.0794	36.1985	0.001724	20991.9	2.979230	-179.159	69.8436	1.105959	0.036665	0.036364	71.9661	20991.9	0.034094	0.049658	1449.24	86066.1
285	2.000000	1.108319	7.36785e+06	-52889.1	955.819	-29748.3	0.000000	0.000000	7.111876	76.1286	NaN	0.000000	0.001572	0.001666	28.078	38.3869	0.001819	21105.3	2.830112	-179.159	79.0474	1.108020	0.038724	0.038425	76.1286	21105.3	0.036019	0.054144	1406.03	82868.3
285	2.000000	1.110238	7.36785e+06	-52889.1	955.819	-29748.3	0.000000	0.000000	7.114137	84.4382	NaN	0.000000	0.001532	0.001639	28.0782	40.895	0.001806	22638.7	5.380567	177.888	83.3627	1.109990	0.040643	0.040395	84.4382	22638.7	0.037845	0.058579	1441.45	85458.5
285	2.000000	1.112261	7.36785e+06	-52889.1	955.819	-29748.3	0.000000	0.000000	7.116426	90.8949	NaN	0.000000	0.001559	0.001640	28.0782	41.6346	0.001794	23209	5.556522	177.661	90.3392	1.111970	0.042666	0.042375	90.8949	23209	0.039729	0.063330	1435.27	84260.9
285	2.000000	1.114201	7.36785e+06	-52889.1	955.819	-29748.3	0.000000	0.000000	7.118665	98.1712	NaN	0.000000	0.001601	0.001617	28.0781	44.6354	0.001764	25303	4.437040	177.074	95.3984	1.113992	0.044607	0.044397	98.1712	25303	0.041697	0.068487	1433.43	88337
285	2.000000	1.116303	7.36785e+06	-52889.1	955.819	-29748.3	0.000000	0.000000	7.121193	108.537	NaN	0.000000	0.001588	0.001630	28.0788	46.4932	0.001809	25696.3	6.261048	177.297	108.76	1.115889	0.046708	0.046295	108.537	25696.3	0.043540	0.073497	1476.77	86598.3
285	2.000000	1.118213	7.36785e+06	-52889.1	955.817	-29748.3	0.000000	0.000000	7.123569	119.85	NaN	0.000000	0.001590	0.001657	28.0781	48.7666	0.001911	25516.5	7.199351	175.036	117.089	1.117866	0.048619	0.048271	119.85	25516.5	0.045096	0.077860	1539.31	83548.4
285	2.000000	1.120246	7.36785e+06	-52889.1	955.818	-29748.3	0.000000	0.000000	7.125921	127.622	NaN	0.000000	0.001585	0.001661	28.078	50.0188	0.001736	28811.9	4.005163	177.337	126.574	1.119917	0.050651	0.050322	127.622	28811.9	0.047329	0.084337	1513.24	90643.3
285	2.000000	1.122235	7.36785e+06	-52889.1	955.818	-29748.3	0.000000	0.000000	7.128302	137.145	NaN	0.000000	0.001615	0.001647	28.0782	51.0781	0.001792	28496.6	2.813951	177.79	136.193	1.121990	0.052640	0.052395	137.145	28496.6	0.049031	0.089441	1533.35	87055.9
285	2.000000	1.124252	7.36785e+06	-52889.1	955.818	-29748.3	0.000000	0.000000	7.130789	148.577	NaN	0.000000	0.001584	0.001647	28.078	54.1008	0.001790	30227.3	5.358398	175.074	148.615	1.123870	0.054657	0.054275	148.577	30227.3	0.050971	0.095438	1556.8	89394.7
285	2.000000	1.126305	7.36785e+06	-52889.1	955.818	-29748.3	0.000000	0.000000	7.133009	152.638	NaN	0.000000	0.001597	0.001637	28.0784	55.0972	0.001695	32498.2	1.596677	178.345	151.963	1.126036	0.056710	0.056441	152.638	32498.2	0.053187	0.102518	1488.89	92732.6
285	2.000000	1.128225	7.36785e+06	-52889.1	955.819	-29748.3	0.000000	0.000000	7.135519	166.995	NaN	0.000000	0.001635	0.001671	28.0781	57.4238	0.001760	32625.2	4.803016	174.833	165.054	1.128042	0.058630	0.058447	166.995	32625.2	0.054791	0.107795	1549.19	90787.9
285	2.000000	1.130215	7.36785e+06	-52889.1	955.819	-29748.3	0.000000	0.000000	7.137980	178.436	NaN	0.000000	0.001626	0.001642	28.0781	59.5061	0.001779	33447.3	6.626241	173.988	177.919	1.129893	0.060620	0.060298	178.436	33447.3	0.056619	0.113965	1565.72	90520.9
285	2.000000	1.132205	7.36785e+06	-52889.1	955.818	-29748.3	0.000000	0.000000	7.140711	196.461	NaN	0.000000	0.001601	0.001647	28.0785	59.358	0.001713	34654.3	6.877531	172.877	193.018	1.131837	0.062610	0.062242	196.461	34654.3	0.058358	0.119986	1637.37	91404.1
285	2.000000	1.134265	7.36785e+06	-52889.1	955.818	-29748.3	0.000000	0.000000	7.142899	199.553	NaN	0.000000	0.001612	0.001685	28.0793	62.2089	0.001861	33427.9	4.291817	176.392	199.687	1.133917	0.064670	0.064322	199.553	33427.9	0.060193	0.126501	1577.48	85868.7
285	2.000000	1.136263	7.36785e+06	-52889.1	955.817	-29748.3	0.000000	0.000000	7.145437	212.704	NaN	0.000000	0.001623	0.001682	28.0795	64.4074	0.001800	35778.5	6.844515	172.982	213.403	1.135926	0.066668	0.066331	212.704	35778.5	0.062209	0.133848	1589.14	89348.8
285	2.000000	1.138263	7.36785e+06	-52889.1	955.818	-29748.3	0.000000	0.000000	7.147850	222.73	NaN	0.000000	0.001533	0.001675	28.0797	66.4442	0.001880	35333.8	7.339353	172.331	223.905	1.137939	0.068668	0.068344	222.73	35333.8	0.063940	0.140316	1587.35	86180.9
285	2.000000	1.140205	7.36785e+06	-52889.1	955.818	-29748.3	0.000000	0.000000	7.150272	234.409	NaN	0.000000	0.001531	0.001674	28.0794	67.5016	0.001786	37800	1.040322	177.48	232.239	1.139982	0.070610	0.070387	234.409	37800	0.065959	0.148039	1583.42	89758.6
285	2.000000	1.142212	7.36785e+06	-52889.1	955.817	-29748.3	0.000000	0.000000	7.152945	250.576	NaN	0.000000	0.001563	0.001680	28.0794	69.1604	0.001817	38060	6.394614	173.426	249.863	1.141853	0.072617	0.072259	250.576	38060	0.067680	0.154777	1618.95	88387
285	2.000000	1.144229	7.36785e+06	-52889.1	955.818	-29748.3	0.000000	0.000000	7.155516	264.067	NaN	0.000000	0.001555	0.001717	28.0794	70.7197	0.001750	40411.9	5.419845	173.438	262.953	1.143863	0.074634	0.074268	264.067	40411.9	0.069733	0.163004	1620.01	91449.9
285	2.000000	1.146236	7.36785e+06	-52889.1	955.818	-29748.3	0.000000	0.000000	7.158048	276.816	NaN	0.000000	0.001550	0.001685	28.0797	72.901	0.001815	40167.4	6.911922	172.54	276.357	1.145826	0.076641	0.076231	276.816	40167.4	0.071473	0.170130	1627.08	88972.7
285	2.000000	1.148153	7.36785e+06	-52889.1	955.817	-29748.3	0.000000	0.000000	7.160312	285.288	NaN	0.000000	0.001565	0.001712	28.0795	74.3485	0.001720	43233.5	3.775379	173.976	282.553	1.147987	0.078558	0.078392	285.288	43233.5	0.073609	0.179076	1593.11	93341.4
285	2.000000	1.150228	7.36785e+06	-52889.1	955.819	-29748.3	0.000000	0.000000	7.163025	300.785	NaN	0.000000	0.001561	0.001678	28.0798	77.754	0.001738	44747.2	7.997770	170.845	301.603	1.149831	0.080633	0.080236	300.785	44747.2	0.075592	0.187576	1603.53	94395.1
285	2.000000	1.152148	7.36785e+06	-52889.1	955.818	-29748.3	0.000000	0.000000	7.165552	315.54	NaN	0.000000	0.001552	0.001710	28.0793	76.8408	0.001678	45782.1	-0.073307	177.923	311.872	1.151836	0.082553	0.082241	315.54	45782.1	0.077384	0.195416	1614.71	94621.4
285	2.000000	1.154195	7.36785e+06	-52889.1	955.819	-29748.3	0.000000	0.000000	7.168193	329.98	NaN	0.000000	0.001572	0.001750	28.0793	80.9724	0.001810	44725.6	4.152904	174.356	328.78	1.153841	0.084600	0.084246	329.98	44725.6	0.079066	0.202912	1626.22	90714.2
285	2.000000	1.156265	7.36785e+06	-52889.1	955.818	-29748.3	0.000000	0.000000	7.170854	344.371	NaN	0.000000	0.001563	0.001708	28.0791	83.2045	0.001805	46093.7	5.635292	172.382	346.608	1.155826	0.086670	0.086231	344.371	46093.7	0.081066	0.211995	1624.43	91464.4
285	2.000000	1.158155	7.36785e+06	-52889.1	955.818	-29748.3	0.000000	0.000000	7.173188	355.136	NaN	0.000000	0.001577	0.001719	28.0791	84.7885	0.001819	46616.6	4.131579	173.467	351.552	1.157898	0.088560	0.088303	355.136	46616.6	0.082847	0.220237	1612.52	90754.6
285	2.000000	1.160114	7.36785e+06	-52889.1	955.818	-29748.3	0.000000	0.000000	7.175825	371.646	NaN	0.000000	0.001581	0.001695	28.0795	86.9516	0.001898	45812.2	1.428402	176.398	367.128	1.159871	0.090519	0.090276	371.646	45812.2	0.084434	0.227711	1632.1	87712.7
285	2.000000	1.162225	7.36785e+06	-52889.1	955.818	-29748.3	0.000000	0.000000	7.178179	377.525	NaN	0.000000	0.001542	0.001701	28.0789	87.9224	0.001835	47904.4	3.066284	174.19	378.136	1.162048	0.092631	0.092454	377.525	47904.4	0.086720	0.238675	1581.75	89587
285	2.000000	1.164200	7.36785e+06	-52889.1	955.818	-29748.3	0.000000	0.000000	7.181165	402.1	NaN	0.000000	0.001588	0.001685	28.0795	90.742	0.001846	49156.1	4.191253	172.985	401.945	1.163992	0.094606	0.094397	402.1	49156.1	0.088471	0.247235	1626.39	90322.3
285	2.000000	1.166238	7.36785e+06	-52889.1	955.819	-29748.3	0.000000	0.000000	7.184203	426.44	NaN	0.000000	0.001562	0.001704	28.0789	92.7756	0.001892	49024.7	6.381582	171.431	427.995	1.165751	0.096643	0.096156	426.44	49024.7	0.090119	0.255425	1669.53	88625
285	2.000000	1.168158	7.36785e+06	-52889.1	955.819	-29748.3	0.000000	0.000000	7.186721	440.97	NaN	0.000000	0.001582	0.001662	28.078	93.197	0.001841	50621.6	4.329287	173.382	438.072	1.167786	0.098564	0.098191	440.97	50621.6	0.092030	0.265076	1663.56	89830.6
285	2.000000	1.170156	7.36785e+06	-52889.1	955.819	-29748.3	0.000000	0.000000	7.188926	446.012	NaN	0.000000	0.001579	0.001688	28.0783	96.389	0.001797	53644.3	4.741032	171.59	443.425	1.170030	0.100561	0.100435	446.012	53644.3	0.094325	0.276887	1610.81	93142
285	2.000000	1.172120	7.36785e+06	-52889.1	955.819	-29748.3	0.000000	0.000000	7.191927	471.22	NaN	0.000000	0.001551	0.001644	28.0779	96.3621	0.001744	55240.7	6.933486	169.328	467.356	1.171906	0.102525	0.102311	471.22	55240.7	0.096128	0.286330	1645.73	94319
285	2.000000	1.173989	7.36785e+06	-52889.1	955.819	-29748.3	0.000000	0.000000	7.194520	488.831	NaN	0.000000	0.001560	0.001673	28.0781	98.5936	0.001792	55034	4.686423	171.788	477.44	1.173736	0.104394	0.104141	488.831	55034	0.097732	0.294860	1657.84	92596.9
285	2.000000	1.176143	7.36785e+06	-52889.1	955.818	-29748.3	0.000000	0.000000	7.197426	507.099	NaN	0.000000	0.001529	0.001685	28.0777	100.13	0.001767	56654.7	3.137388	173.823	503.528	1.175788	0.106548	0.106193	507.099	56654.7	0.099835	0.306222	1655.99	93538.6
285	2.000000	1.178123	7.36785e+06	-52889.1	955.82	-29748.3	0.000000	0.000000	7.199817	517.106	NaN	0.000000	0.001510	0.001647	28.0777	102.198	0.001720	59424.9	4.343011	171.082	512.631	1.177968	0.108528	0.108374	517.106	59424.9	0.102002	0.318133	1625.44	96258.2