File: remote_trans/data/nanoindenter/0828-1/data/Data_2025-08-06,11h17m57s/2025-07-22_16-23-58_1_430.txt
2025-07-22, 16:23:58, 1
Index	Phase	Displacement	Time	Pos X	Pos Y	Pos Z	Rot A	Rot B	Piezo Z	Force A	Force B	Gripper	Voltage A	Voltage B	Temperature	Amplitude force	Amplitude pos	Stiffness	Phase shift	Phase excitation	Force A raw	Displacement raw	HMax	HMax raw	Real Force	Real Stiffness	Contact Depth	Area	Hardness	Reduced Mod.
[#]	[#]	[um]	[s]	[um]	[um]	[um]	[m°]	[m°]	[um]	[uN]	[uN]	[V]	[V]	[V]	[°C]	[uN]	[um]	[N/m]	[°]	[°]	[uN]	[um]	[um]	[um]	[uN]	[N/m]	[um]	[um^2]	[MPa]	[MPa]
430	1.000000	0.002650	7.36926e+06	-55589.1	1005.82	-29741.2	0.000000	0.000000	6.002829	-0.044002	NaN	0.000000	0.001724	0.001731	28.082	0.109968	0.000970	113.412	-65.7426	-169.31	0.023183	0.001341	-1.177522	-1.178831	-0.044002	113.412	-1.177231	-5.442114E+15	8.085446E-18	NaN
430	1.000000	0.012663	7.36926e+06	-55589.1	1005.82	-29741.2	0.000000	0.000000	6.012843	-0.039026	NaN	0.000000	0.001689	0.001725	28.0817	0.129738	0.001128	114.998	-0.933329	15.8611	-0.004110	0.011227	-1.167509	-1.168945	-0.039026	114.998	-1.167254	-4.000268E+15	9.755740E-18	NaN
430	1.000000	0.022573	7.36926e+06	-55589.1	1005.82	-29741.2	0.000000	0.000000	6.022754	-0.003996	NaN	0.000000	0.001648	0.001712	28.0819	0.054712	0.001845	29.6573	-56.9832	-165.729	-0.010330	0.021218	-1.157599	-1.158954	-0.003996	29.6573	-1.157498	-2.960274E+15	1.349769E-18	NaN
430	1.000000	0.032604	7.36926e+06	-55589.1	1005.82	-29741.2	0.000000	0.000000	6.032787	0.071406	NaN	0.000000	0.001700	0.001731	28.0818	0.085244	0.001897	44.939	22.8881	15.0612	0.089963	0.031200	-1.147568	-1.148972	0.071406	44.939	-1.148760	-2.260457E+15	-3.158923E-17	NaN
430	1.000000	0.042596	7.36926e+06	-55589.1	1005.82	-29741.2	0.000000	0.000000	6.042777	-0.003188	NaN	0.000000	0.001703	0.001712	28.0821	0.097879	0.002072	47.2366	153.14	-167.065	0.079617	0.041247	-1.137575	-1.138924	-0.003188	47.2366	-1.137525	-1.597883E+15	1.995079E-18	NaN
430	1.000000	0.052570	7.36926e+06	-55589.1	1005.82	-29741.2	0.000000	0.000000	6.052755	0.088855	NaN	0.000000	0.001718	0.001692	28.0819	0.096640	0.001989	48.5853	147.632	16.7563	0.155380	0.051221	-1.127602	-1.128951	0.088855	48.5853	-1.128973	-1.227018E+15	-7.241504E-17	NaN
430	1.000000	0.062595	7.36926e+06	-55589.1	1005.82	-29741.2	0.000000	0.000000	6.062773	-0.068875	NaN	0.000000	0.001781	0.001727	28.0819	0.052036	0.002039	25.5165	81.0195	-166.33	0.008273	0.061204	-1.117577	-1.118968	-0.068875	25.5165	-1.115553	-8.105906E+14	8.496861E-17	NaN
430	1.000000	0.072596	7.36926e+06	-55589.1	1005.82	-29741.2	0.000000	0.000000	6.072775	-0.039115	NaN	0.000000	0.001751	0.001786	28.0818	0.093746	0.001955	47.9564	-158.538	16.2728	-0.063727	0.071285	-1.107576	-1.108886	-0.039115	47.9564	-1.106964	-6.216533E+14	6.292140E-17	NaN
430	1.000000	0.082597	7.36926e+06	-55589.1	1005.82	-29741.2	0.000000	0.000000	6.082777	-0.022046	NaN	0.000000	0.001809	0.001710	28.082	0.057706	0.002101	27.4625	130.644	-162.571	-0.057898	0.081253	-1.097574	-1.098919	-0.022046	27.4625	-1.096972	-4.564812E+14	4.829583E-17	NaN
430	1.000000	0.092575	7.36926e+06	-55589.1	1005.82	-29741.2	0.000000	0.000000	6.092759	0.059484	NaN	0.000000	0.001807	0.001754	28.0817	0.101039	0.002089	48.3704	104.451	16.6483	0.032314	0.091219	-1.087597	-1.088953	0.059484	48.3704	-1.088519	-3.515000E+14	-1.692304E-16	NaN
430	1.000000	0.102580	7.36926e+06	-55589.1	1005.82	-29741.2	0.000000	0.000000	6.102761	-0.001378	NaN	0.000000	0.001791	0.001735	28.0818	0.072094	0.001951	36.9499	-160.288	-163.096	0.044060	0.101286	-1.077592	-1.078886	-0.001378	36.9499	-1.077564	-2.504966E+14	5.500787E-18	NaN
430	1.000000	0.112577	7.36926e+06	-55589.1	1005.82	-29741.2	0.000000	0.000000	6.112758	0.001378	NaN	0.000000	0.001796	0.001701	28.0817	0.050822	0.002111	24.0732	-94.5611	11.2232	0.064021	0.111219	-1.067595	-1.068952	0.001378	24.0732	-1.067638	-1.842699E+14	-7.476639E-18	NaN
430	1.000000	0.122575	7.36926e+06	-55589.1	1005.82	-29741.2	0.000000	0.000000	6.122754	-0.037977	NaN	0.000000	0.001773	0.001748	28.0817	0.051211	0.002031	25.219	-74.6939	-164.088	-0.053395	0.121296	-1.057597	-1.058876	-0.037977	25.219	-1.056468	-1.304222E+14	2.911864E-16	NaN
430	1.000000	0.132613	7.36926e+06	-55589.1	1005.82	-29741.2	0.000000	0.000000	6.132796	0.063155	NaN	0.000000	0.001794	0.001708	28.0803	0.070415	0.001848	38.0981	173.75	16.1454	0.059646	0.131254	-1.047559	-1.048918	0.063155	38.0981	-1.048802	-1.028756E+14	-6.138961E-16	NaN
430	1.000000	0.142617	7.36926e+06	-55589.1	1005.82	-29741.2	0.000000	0.000000	6.142797	-0.020404	NaN	0.000000	0.001784	0.001765	28.0803	0.107915	0.001996	54.0689	-140.122	-163.846	-0.011018	0.141335	-1.037555	-1.038837	-0.020404	54.0689	-1.037272	-7.199131E+13	2.834199E-16	NaN
430	1.000000	0.152638	7.36926e+06	-55589.1	1005.82	-29741.2	0.000000	0.000000	6.152821	0.034285	NaN	0.000000	0.001813	0.001691	28.0805	0.049344	0.001973	25.0053	139.791	17.1573	-0.060359	0.151239	-1.027533	-1.028933	0.034285	25.0053	-1.028562	-5.497124E+13	-6.236895E-16	NaN
430	1.000000	0.162604	7.36926e+06	-55589.1	1005.82	-29741.2	0.000000	0.000000	6.162785	0.005051	NaN	0.000000	0.001775	0.001725	28.0803	0.089920	0.001920	46.8326	-153.309	-165.19	-0.015174	0.161296	-1.017568	-1.018876	0.005051	46.8326	-1.017649	-3.920287E+13	-1.288536E-16	NaN
430	1.000000	0.172601	7.36926e+06	-55589.1	1005.82	-29741.2	0.000000	0.000000	6.172784	0.048401	NaN	0.000000	0.001693	0.001742	28.0803	0.119763	0.001941	61.7145	94.1614	14.6703	-0.036676	0.171323	-1.007571	-1.008848	0.048401	61.7145	-1.008159	-2.921499E+13	-1.656710E-15	NaN
430	1.000000	0.182598	7.36926e+06	-55589.1	1005.82	-29741.2	0.000000	0.000000	6.182777	-0.050651	NaN	0.000000	0.001727	0.001723	28.0804	0.076360	0.001938	39.3918	90.6561	-164.26	0.008868	0.181331	-0.997574	-0.998840	-0.050651	39.3918	-0.996610	-2.042299E+13	2.480108E-15	NaN
430	1.000000	0.192625	7.36926e+06	-55589.1	1005.82	-29741.2	0.000000	0.000000	6.192805	-0.001594	NaN	0.000000	0.001739	0.001753	28.0804	0.124814	0.001856	67.2457	-5.276221	13.666	-0.023166	0.191316	-0.987547	-0.988856	-0.001594	67.2457	-0.987529	-1.541121E+13	1.034524E-16	NaN
430	1.000000	0.202621	7.36926e+06	-55589.1	1005.82	-29741.2	0.000000	0.000000	6.202801	-0.017914	NaN	0.000000	0.001789	0.001716	28.0803	0.088489	0.002118	41.7878	84.1688	-165.099	-0.078997	0.201286	-0.977551	-0.978886	-0.017914	41.7878	-0.977230	-1.119655E+13	1.599920E-15	NaN
430	1.000000	0.212641	7.36926e+06	-55589.1	1005.82	-29741.2	0.000000	0.000000	6.212819	-0.050309	NaN	0.000000	0.001708	0.001713	28.0803	0.056412	0.002036	27.7101	-4.513791	16.0981	-0.006024	0.211311	-0.967531	-0.968861	-0.050309	27.7101	-0.966170	-7.943961E+12	6.333013E-15	NaN
430	1.000000	0.222615	7.36926e+06	-55589.1	1005.82	-29741.2	0.000000	0.000000	6.222799	0.066508	NaN	0.000000	0.001768	0.001707	28.0805	0.069124	0.002018	34.2487	82.3587	-164.137	0.080025	0.221400	-0.957557	-0.958772	0.066508	34.2487	-0.959013	-6.361583E+12	-1.045464E-14	NaN
430	1.000000	0.232651	7.36926e+06	-55589.1	1005.82	-29741.2	0.000000	0.000000	6.232828	-0.089525	NaN	0.000000	0.001736	0.001747	28.0803	0.072740	0.001973	36.8599	16.6777	18.1183	-0.049939	0.231279	-0.947521	-0.948892	-0.089525	36.8599	-0.945699	-4.207457E+12	2.127762E-14	NaN
430	1.000000	0.242655	7.36926e+06	-55589.1	1005.82	-29741.2	0.000000	0.000000	6.242833	-0.056282	NaN	0.000000	0.001730	0.001737	28.0804	0.067693	0.002057	32.909	17.9438	-162.363	-0.023458	0.241333	-0.937517	-0.938839	-0.056282	32.909	-0.936234	-3.135658E+12	1.794913E-14	NaN
430	1.000000	0.252658	7.36926e+06	-55589.1	1005.82	-29741.2	0.000000	0.000000	6.252841	0.041639	NaN	0.000000	0.001738	0.001724	28.0803	0.083492	0.002025	41.234	109.551	14.4496	0.034392	0.251303	-0.927514	-0.928869	0.041639	41.234	-0.928271	-2.448276E+12	-1.700732E-14	NaN
430	1.000000	0.262668	7.36926e+06	-55589.1	1005.82	-29741.2	0.000000	0.000000	6.262847	-0.033918	NaN	0.000000	0.001716	0.001725	28.0808	0.052957	0.001978	26.7737	169.382	-164.66	0.034944	0.261379	-0.917504	-0.918793	-0.033918	26.7737	-0.916554	-1.700896E+12	1.994117E-14	NaN
430	1.000000	0.272649	7.36926e+06	-55589.1	1005.82	-29741.2	0.000000	0.000000	6.272831	0.042475	NaN	0.000000	0.001719	0.001723	28.0816	0.049832	0.001870	26.649	139.276	17.5844	0.092573	0.271235	-0.907523	-0.908937	0.042475	26.649	-0.908718	-1.333067E+12	-3.186291E-14	NaN
430	1.000000	0.282655	7.36926e+06	-55589.1	1005.82	-29741.2	0.000000	0.000000	6.282835	-0.012776	NaN	0.000000	0.001726	0.001730	28.082	0.069869	0.002015	34.6671	132.226	-164.041	-0.004709	0.281418	-0.897517	-0.898754	-0.012776	34.6671	-0.897241	-9.327802E+11	1.369716E-14	NaN
430	1.000000	0.292690	7.36926e+06	-55589.1	1005.82	-29741.2	0.000000	0.000000	6.292872	0.041268	NaN	0.000000	0.001751	0.001720	28.0819	0.097015	0.002009	48.2995	61.7578	12.2669	0.022182	0.291298	-0.887482	-0.888874	0.041268	48.2995	-0.888123	-7.023263E+11	-5.875854E-14	NaN
430	1.000000	0.302718	7.36926e+06	-55589.1	1005.82	-29741.2	0.000000	0.000000	6.302901	0.043887	NaN	0.000000	0.001698	0.001728	28.0824	0.035948	0.002118	16.9725	-113.381	-165.106	0.018071	0.301340	-0.877453	-0.878832	0.043887	16.9725	-0.879393	-5.351757E+11	-8.200527E-14	NaN
430	1.000000	0.312674	7.36926e+06	-55589.1	1005.82	-29741.2	0.000000	0.000000	6.312857	0.039607	NaN	0.000000	0.001756	0.001760	28.0817	0.083118	0.002044	40.6694	-163.65	15.5132	0.005709	0.311345	-0.867498	-0.868827	0.039607	40.6694	-0.868228	-3.779811E+11	-1.047862E-13	NaN
430	1.000000	0.322680	7.36926e+06	-55589.1	1005.82	-29741.2	0.000000	0.000000	6.322859	-0.050379	NaN	0.000000	0.001714	0.001714	28.0818	0.052048	0.001968	26.4504	-156.357	-164.685	-0.069032	0.321379	-0.857492	-0.858793	-0.050379	26.4504	-0.856063	-2.587213E+11	1.947215E-13	NaN
430	1.000000	0.332675	7.36926e+06	-55589.1	1005.82	-29741.2	0.000000	0.000000	6.332854	-0.045936	NaN	0.000000	0.001744	0.001715	28.0818	0.065057	0.001952	33.3228	-19.4052	16.5558	0.027048	0.331399	-0.847497	-0.848773	-0.045936	33.3228	-0.846463	-1.917967E+11	2.395026E-13	NaN
430	1.000000	0.342652	7.36926e+06	-55589.1	1005.82	-29741.2	0.000000	0.000000	6.342834	0.027074	NaN	0.000000	0.001652	0.001721	28.0821	0.097011	0.002098	46.2396	-83.5171	-161.028	-0.032440	0.341396	-0.837520	-0.838776	0.027074	46.2396	-0.837959	-1.471117E+11	-1.840387E-13	NaN
430	1.000000	0.352686	7.36926e+06	-55589.1	1005.82	-29741.2	0.000000	0.000000	6.352867	0.000528	NaN	0.000000	0.001637	0.001730	28.0818	0.014663	0.001879	7.803681	7.235512	15.2498	0.082500	0.351356	-0.827486	-0.828816	0.000528	7.803681	-0.827536	-1.062647E+11	-4.964407E-15	NaN
430	1.000000	0.362703	7.36926e+06	-55589.1	1005.82	-29741.2	0.000000	0.000000	6.362883	-0.022996	NaN	0.000000	0.001657	0.001712	28.0819	0.081922	0.002064	39.682	-48.2193	-163.478	0.023521	0.361395	-0.817469	-0.818777	-0.022996	39.682	-0.817034	-7.655785E+10	3.003770E-13	NaN
430	1.000000	0.372684	7.36926e+06	-55589.1	1005.82	-29741.2	0.000000	0.000000	6.372864	-0.029836	NaN	0.000000	0.001643	0.001721	28.0817	0.076924	0.001946	39.5283	-96.3852	13.8252	0.022753	0.371344	-0.807488	-0.808828	-0.029836	39.5283	-0.806922	-5.582141E+10	5.344872E-13	NaN
430	1.000000	0.382690	7.36927e+06	-55589.1	1005.82	-29741.2	0.000000	0.000000	6.382871	-0.001295	NaN	0.000000	0.001669	0.001738	28.082	0.049273	0.001911	25.7843	161.115	-165.148	0.047252	0.381397	-0.797482	-0.798775	-0.001295	25.7843	-0.797444	-4.151154E+10	3.118412E-14	NaN
430	1.000000	0.392710	7.36927e+06	-55589.1	1005.82	-29741.2	0.000000	0.000000	6.392890	-0.023483	NaN	0.000000	0.001644	0.001760	28.0818	0.084339	0.002067	40.8037	-114.199	13.3955	0.003674	0.391326	-0.787462	-0.788846	-0.023483	40.8037	-0.787030	-2.997381E+10	7.834553E-13	NaN
430	1.000000	0.402710	7.36927e+06	-55589.1	1005.82	-29741.2	0.000000	0.000000	6.402889	-0.042022	NaN	0.000000	0.001646	0.001762	28.0816	0.032714	0.001926	16.988	-10.4074	-166.484	-0.079527	0.401358	-0.777462	-0.778814	-0.042022	16.988	-0.775607	-2.096633E+10	2.004272E-12	NaN
430	1.000000	0.412757	7.36927e+06	-55589.1	1005.82	-29741.2	0.000000	0.000000	6.412938	0.003956	NaN	0.000000	0.001644	0.001735	28.0806	0.053208	0.002107	25.2486	164.184	15.431	-0.012359	0.411337	-0.767415	-0.768835	0.003956	25.2486	-0.767533	-1.628387E+10	-2.429431E-13	NaN
430	1.000000	0.422729	7.36927e+06	-55589.1	1005.82	-29741.2	0.000000	0.000000	6.422911	0.026597	NaN	0.000000	0.001661	0.001739	28.0805	0.113857	0.002074	54.9067	41.251	-165.412	-0.070589	0.421396	-0.757443	-0.758776	0.026597	54.9067	-0.757807	-1.200772E+10	-2.214951E-12	NaN
430	1.000000	0.432733	7.36927e+06	-55589.1	1005.82	-29741.2	0.000000	0.000000	6.432914	-0.001822	NaN	0.000000	0.001699	0.001713	28.0803	0.023625	0.002061	11.4625	-92.1306	12.9695	0.015126	0.431360	-0.747439	-0.748812	-0.001822	11.4625	-0.747320	-8.644356E+9	2.108124E-13	NaN
430	1.000000	0.442740	7.36927e+06	-55589.1	1005.82	-29741.2	0.000000	0.000000	6.442924	0.062899	NaN	0.000000	0.001668	0.001700	28.0804	0.014928	0.002042	7.310475	158.736	-162.73	0.063743	0.441396	-0.737432	-0.738776	0.062899	7.310475	-0.743885	-7.761744E+9	-8.103701E-12	NaN
430	1.000000	0.452728	7.36927e+06	-55589.1	1005.82	-29741.2	0.000000	0.000000	6.452909	-0.000742	NaN	0.000000	0.001624	0.001696	28.0806	0.080236	0.002058	38.9947	-99.0759	14.7669	0.031409	0.451373	-0.727444	-0.728798	-0.000742	38.9947	-0.727430	-4.632069E+9	1.601248E-13	NaN
430	1.000000	0.462732	7.36927e+06	-55589.1	1005.82	-29741.2	0.000000	0.000000	6.462911	-0.053712	NaN	0.000000	0.001678	0.001737	28.0805	0.071267	0.001872	38.0617	144.352	-163.361	-0.051239	0.461432	-0.717440	-0.718740	-0.053712	38.0617	-0.716381	-3.274284E+9	1.640419E-11	NaN
430	1.000000	0.472724	7.36927e+06	-55589.1	1005.82	-29741.2	0.000000	0.000000	6.472903	-0.046361	NaN	0.000000	0.001669	0.001685	28.0804	0.099630	0.001863	53.4881	-111.936	13.7746	0.045329	0.471402	-0.707448	-0.708770	-0.046361	53.4881	-0.706798	-2.422937E+9	1.913406E-11	NaN
430	1.000000	0.482758	7.36927e+06	-55589.1	1005.82	-29741.2	0.000000	0.000000	6.482940	0.016732	NaN	0.000000	0.001656	0.001715	28.0805	0.084964	0.002041	41.6336	143.293	-164.425	-0.006198	0.481457	-0.697414	-0.698715	0.016732	41.6336	-0.697715	-1.821067E+9	-9.188124E-12	NaN
430	1.000000	0.492758	7.36927e+06	-55589.1	1005.82	-29741.2	0.000000	0.000000	6.492940	0.009129	NaN	0.000000	0.001693	0.001696	28.0804	0.054873	0.002085	26.3234	-134.09	11.485	-0.060352	0.491381	-0.687413	-0.688790	0.009129	26.3234	-0.687674	-1.327767E+9	-6.875402E-12	NaN
430	1.000000	0.502755	7.36927e+06	-55589.1	1005.82	-29741.2	0.000000	0.000000	6.502933	-0.059888	NaN	0.000000	0.001638	0.001704	28.0805	0.154926	0.001957	79.179	157.773	-163.227	-0.020678	0.501429	-0.677417	-0.678743	-0.059888	79.179	-0.676850	-9.443129E+8	6.341966E-11	NaN
430	1.000000	0.512737	7.36927e+06	-55589.1	1005.82	-29741.2	0.000000	0.000000	6.512916	-0.045924	NaN	0.000000	0.001640	0.001707	28.0805	0.055991	0.002043	27.4124	54.5346	11.6721	-0.003661	0.511371	-0.667435	-0.668801	-0.045924	27.4124	-0.666178	-6.746433E+8	6.807179E-11	NaN
430	1.000000	0.522772	7.36927e+06	-55589.1	1005.82	-29741.2	0.000000	0.000000	6.522955	0.049379	NaN	0.000000	0.001667	0.001735	28.0807	0.044745	0.002044	21.8963	34.9005	-160.052	-0.033907	0.521446	-0.657400	-0.658726	0.049379	21.8963	-0.659091	-5.395329E+8	-9.152188E-11	NaN
430	1.000000	0.532768	7.36927e+06	-55589.1	1005.82	-29741.2	0.000000	0.000000	6.532949	0.004090	NaN	0.000000	0.001627	0.001741	28.0812	0.074749	0.001941	38.5082	26.7992	15.2475	0.128374	0.531431	-0.647404	-0.648741	0.004090	38.5082	-0.647484	-3.740567E+8	-1.093493E-11	NaN
430	1.000000	0.542775	7.36927e+06	-55589.1	1005.82	-29741.2	0.000000	0.000000	6.542955	-0.029500	NaN	0.000000	0.001670	0.001718	28.0819	0.090536	0.001960	46.1986	133.095	-164.055	-0.032772	0.541512	-0.637397	-0.638660	-0.029500	46.1986	-0.636918	-2.679152E+8	1.101099E-10	NaN
430	1.000000	0.552773	7.36927e+06	-55589.1	1005.82	-29741.2	0.000000	0.000000	6.552952	-0.034731	NaN	0.000000	0.001627	0.001663	28.0819	0.064265	0.002038	31.5411	-28.9171	15.2737	-0.014477	0.551397	-0.627399	-0.628774	-0.034731	31.5411	-0.626573	-1.931787E+8	1.797892E-10	NaN
430	1.000000	0.562765	7.36927e+06	-55589.1	1005.82	-29741.2	0.000000	0.000000	6.562946	0.018526	NaN	0.000000	0.001625	0.001675	28.0814	0.093683	0.001893	49.4994	-120.971	-166.397	0.006110	0.561423	-0.617407	-0.618749	0.018526	49.4994	-0.617688	-1.458313E+8	-1.270359E-10	NaN
430	1.000000	0.572805	7.36927e+06	-55589.1	1005.82	-29741.2	0.000000	0.000000	6.572985	-0.021894	NaN	0.000000	0.001646	0.001742	28.0816	0.055369	0.001961	28.2358	129.339	12.8278	-0.032251	0.571434	-0.607367	-0.608737	-0.021894	28.2358	-0.606785	-1.032460E+8	2.120600E-10	NaN
430	1.000000	0.582812	7.36927e+06	-55589.1	1005.82	-29741.2	0.000000	0.000000	6.582995	0.043727	NaN	0.000000	0.001623	0.001670	28.0816	0.123866	0.002023	61.2277	-146.695	-165.702	0.131872	0.581481	-0.597360	-0.598691	0.043727	61.2277	-0.597896	-7.788868E+7	-5.614003E-10	NaN
430	1.000000	0.592821	7.36927e+06	-55589.1	1005.82	-29741.2	0.000000	0.000000	6.593001	-0.008389	NaN	0.000000	0.001615	0.001664	28.0818	0.069978	0.001964	35.6277	70.702	11.4879	0.041956	0.591441	-0.587351	-0.588731	-0.008389	35.6277	-0.587175	-5.542533E+7	1.513493E-10	NaN
430	1.000000	0.602794	7.36927e+06	-55589.1	1005.82	-29741.2	0.000000	0.000000	6.602971	-0.071550	NaN	0.000000	0.001604	0.001681	28.0816	0.042128	0.002034	20.7103	-154.078	-164.96	-0.117208	0.601496	-0.577378	-0.578676	-0.071550	20.7103	-0.574787	-3.739045E+7	1.913582E-9	NaN
430	1.000000	0.612786	7.36927e+06	-55589.1	1005.82	-29741.2	0.000000	0.000000	6.612966	-0.018822	NaN	0.000000	0.001658	0.001706	28.0817	0.046775	0.001979	23.6383	101.958	13.7892	-0.026643	0.611434	-0.567386	-0.568738	-0.018822	23.6383	-0.566789	-2.899026E+7	6.492508E-10	NaN
430	1.000000	0.622808	7.36927e+06	-55589.1	1005.82	-29741.2	0.000000	0.000000	6.622988	-0.010462	NaN	0.000000	0.001676	0.001732	28.0816	0.090003	0.002001	44.9764	-82.5174	-161.503	0.016659	0.621534	-0.557364	-0.558638	-0.010462	44.9764	-0.557189	-2.135452E+7	4.899379E-10	NaN
430	1.000000	0.632798	7.36927e+06	-55589.1	1005.82	-29741.2	0.000000	0.000000	6.632976	-0.081588	NaN	0.000000	0.001651	0.001706	28.0818	0.078710	0.001876	41.9654	-153.971	17.1534	-0.074436	0.631415	-0.547374	-0.548757	-0.081588	41.9654	-0.545915	-1.490619E+7	5.473401E-9	NaN
430	1.000000	0.642812	7.36927e+06	-55589.1	1005.82	-29741.2	0.000000	0.000000	6.642992	-0.021522	NaN	0.000000	0.001615	0.001684	28.0816	0.073132	0.002029	36.0421	2.122285	-162.279	-0.097013	0.641498	-0.537360	-0.538674	-0.021522	36.0421	-0.536912	-1.118224E+7	1.924641E-9	NaN
430	1.000000	0.652799	7.36927e+06	-55589.1	1005.82	-29741.2	0.000000	0.000000	6.652978	-0.043834	NaN	0.000000	0.001648	0.001668	28.0816	0.127648	0.002049	62.2855	148.604	15.583	-0.087118	0.651492	-0.527373	-0.528680	-0.043834	62.2855	-0.526845	-8.10498e+06	5.408290E-9	NaN
430	1.000000	0.662831	7.36927e+06	-55589.1	1005.82	-29741.2	0.000000	0.000000	6.663013	0.017840	NaN	0.000000	0.001670	0.001674	28.0815	0.106505	0.001867	57.0604	-63.7122	-164.226	0.128879	0.661523	-0.517341	-0.518649	0.017840	57.0604	-0.517575	-6.0238e+06	-2.961527E-9	NaN
430	1.000000	0.672838	7.36927e+06	-55589.1	1005.82	-29741.2	0.000000	0.000000	6.673016	-0.070664	NaN	0.000000	0.001639	0.001707	28.0816	0.040929	0.002150	19.0338	40.697	15.0954	0.032400	0.671465	-0.507334	-0.508706	-0.070664	19.0338	-0.504549	-3.96702e+06	1.781298E-8	NaN
430	1.000000	0.682816	7.36927e+06	-55589.1	1005.82	-29741.2	0.000000	0.000000	6.683000	0.070405	NaN	0.000000	0.001670	0.001662	28.0802	0.119598	0.001883	63.5104	132.433	-165.076	0.080260	0.681514	-0.497355	-0.498658	0.070405	63.5104	-0.498187	-3.23384e+06	-2.177134E-8	NaN
430	1.000000	0.692843	7.36927e+06	-55589.1	1005.82	-29741.2	0.000000	0.000000	6.693024	0.005704	NaN	0.000000	0.001653	0.001681	28.0802	0.032849	0.001993	16.4791	164.05	10.4237	0.071252	0.691501	-0.487329	-0.488671	0.005704	16.4791	-0.487589	-2.29978e+06	-2.480374E-9	NaN
430	1.000000	0.702832	7.36927e+06	-55589.1	1005.82	-29741.2	0.000000	0.000000	6.703013	0.004123	NaN	0.000000	0.001638	0.001663	28.0803	0.142602	0.001993	71.5349	-78.9343	-163.678	0.103967	0.701614	-0.477340	-0.478558	0.004123	71.5349	-0.477383	-1.65532e+06	-2.490593E-9	NaN
430	1.000000	0.712847	7.36927e+06	-55589.1	1005.82	-29741.2	0.000000	0.000000	6.713027	-0.011576	NaN	0.000000	0.001668	0.001711	28.0803	0.033337	0.001975	16.8768	-98.2325	16.2066	0.044829	0.711475	-0.467325	-0.468697	-0.011576	16.8768	-0.466810	-1.17668e+06	9.837787E-9	NaN
430	1.000000	0.722835	7.36927e+06	-55589.1	1005.82	-29741.2	0.000000	0.000000	6.723016	-0.006991	NaN	0.000000	0.001601	0.001686	28.0803	0.018863	0.002058	9.164211	-142.419	-163.569	0.000887	0.721551	-0.457337	-0.458621	-0.006991	9.164211	-0.456765	-850229	8.222587E-9	NaN
430	1.000000	0.732835	7.36927e+06	-55589.1	1005.82	-29741.2	0.000000	0.000000	6.733016	0.000862	NaN	0.000000	0.001630	0.001686	28.0803	0.031253	0.001889	16.5449	-58.581	17.7806	-0.110054	0.731548	-0.447337	-0.448624	0.000862	16.5449	-0.447376	-627159	-1.374065E-9	NaN
430	1.000000	0.742874	7.36927e+06	-55589.1	1005.82	-29741.2	0.000000	0.000000	6.743055	-0.001610	NaN	0.000000	0.001636	0.001670	28.0804	0.041470	0.002139	19.387	96.8742	-167.024	-0.013539	0.741555	-0.437298	-0.438617	-0.001610	19.387	-0.437236	-451164	3.568431E-9	NaN
430	1.000000	0.752862	7.36927e+06	-55589.1	1005.82	-29741.2	0.000000	0.000000	6.753043	0.003260	NaN	0.000000	0.001641	0.001691	28.0803	0.085969	0.001895	45.3706	-41.8286	16.6126	-0.004095	0.751565	-0.427310	-0.428606	0.003260	45.3706	-0.427364	-327158	-9.965869E-9	NaN
430	1.000000	0.762870	7.36927e+06	-55589.1	1005.82	-29741.2	0.000000	0.000000	6.763054	0.076243	NaN	0.000000	0.001617	0.001676	28.0806	0.064155	0.002142	29.9485	143.867	-167.886	0.026471	0.761614	-0.417302	-0.418557	0.076243	29.9485	-0.419211	-250743	-3.040688E-7	NaN
430	1.000000	0.772851	7.36927e+06	-55589.1	1005.82	-29741.2	0.000000	0.000000	6.773029	-0.061529	NaN	0.000000	0.001633	0.001653	28.0804	0.043422	0.001951	22.2581	-28.8675	14.048	0.009597	0.771557	-0.407321	-0.408615	-0.061529	22.2581	-0.405248	-158773	3.875276E-7	NaN
430	1.000000	0.782882	7.36927e+06	-55589.1	1005.82	-29741.2	0.000000	0.000000	6.783067	0.091487	NaN	0.000000	0.001640	0.001689	28.0806	0.053122	0.001937	27.428	6.698200	-165.075	0.086215	0.781569	-0.397290	-0.398603	0.091487	27.428	-0.399791	-132745	-6.891967E-7	NaN
430	1.000000	0.792891	7.36927e+06	-55589.1	1005.82	-29741.2	0.000000	0.000000	6.793073	0.025668	NaN	0.000000	0.001599	0.001663	28.0802	0.066016	0.002050	32.1959	11.0301	13.1535	-0.022293	0.791497	-0.387281	-0.388675	0.025668	32.1959	-0.387879	-89704.8	-2.861395E-7	NaN
430	1.000000	0.802874	7.36927e+06	-55589.1	1005.82	-29741.2	0.000000	0.000000	6.803056	0.021107	NaN	0.000000	0.001617	0.001667	28.0804	0.064523	0.001921	33.5859	-83.1506	-168.362	0.090902	0.801555	-0.377298	-0.378617	0.021107	33.5859	-0.377769	-64247.6	-3.285318E-7	NaN
430	1.000000	0.812924	7.36927e+06	-55589.1	1005.82	-29741.2	0.000000	0.000000	6.813104	-0.017083	NaN	0.000000	0.001622	0.001689	28.0808	0.028405	0.002020	14.0597	17.737	15.2204	-0.035048	0.811543	-0.367248	-0.368629	-0.017083	14.0597	-0.366336	-43987.6	3.883481E-7	NaN
430	1.000000	0.822890	7.36927e+06	-55589.1	1005.82	-29741.2	0.000000	0.000000	6.823071	0.008207	NaN	0.000000	0.001618	0.001686	28.0815	0.176522	0.002189	80.6273	55.9828	-163.46	0.077607	0.821606	-0.357282	-0.358566	0.008207	80.6273	-0.357359	-32632	-2.515133E-7	NaN
430	1.000000	0.832861	7.36927e+06	-55589.1	1005.82	-29741.2	0.000000	0.000000	6.833043	0.048506	NaN	0.000000	0.001649	0.001658	28.0815	0.044344	0.001964	22.5775	-85.3373	14.1915	0.047906	0.831550	-0.347311	-0.348622	0.048506	22.5775	-0.348923	-24624.1	-1.969842E-6	NaN
430	1.000000	0.842909	7.36927e+06	-55589.1	1005.82	-29741.2	0.000000	0.000000	6.843090	0.004938	NaN	0.000000	0.001660	0.001676	28.0814	0.059527	0.002045	29.1053	35.9213	-164.451	0.000940	0.841524	-0.337263	-0.338648	0.004938	29.1053	-0.337390	-16729.9	-2.951395E-7	NaN
430	1.000000	0.852915	7.36927e+06	-55589.1	1005.82	-29741.2	0.000000	0.000000	6.853097	0.004803	NaN	0.000000	0.001655	0.001651	28.0817	0.057130	0.002079	27.4732	108.879	15.6282	-0.055967	0.851550	-0.327256	-0.328622	0.004803	27.4732	-0.327388	-11944.5	-4.020863E-7	NaN
430	1.000000	0.862889	7.36927e+06	-55589.1	1005.82	-29741.2	0.000000	0.000000	6.863075	0.111298	NaN	0.000000	0.001645	0.001646	28.0816	0.076640	0.002088	36.7048	-72.2492	-161.09	0.041593	0.861625	-0.317283	-0.318547	0.111298	36.7048	-0.319557	-9164.67	-1.214421E-5	NaN
430	1.000000	0.872906	7.36927e+06	-55589.1	1005.82	-29741.2	0.000000	0.000000	6.873090	0.071330	NaN	0.000000	0.001646	0.001688	28.0816	0.165841	0.002012	82.4176	161.497	12.7645	0.029504	0.871520	-0.307266	-0.308652	0.071330	82.4176	-0.307915	-6168.53	-1.156347E-5	NaN
430	1.000000	0.882941	7.36927e+06	-55589.1	1005.82	-29741.2	0.000000	0.000000	6.883122	-0.004213	NaN	0.000000	0.001619	0.001656	28.0816	0.054220	0.001901	28.5163	30.5105	-168.647	-0.043678	0.881625	-0.297231	-0.298547	-0.004213	28.5163	-0.297120	-4263.1	9.882640E-7	NaN
430	1.000000	0.892908	7.36927e+06	-55589.1	1005.82	-29741.2	0.000000	0.000000	6.893090	0.013352	NaN	0.000000	0.001683	0.001633	28.0816	0.047540	0.001879	25.2966	139.572	12.7975	0.042699	0.891557	-0.287264	-0.288615	0.013352	25.2966	-0.287659	-3077.57	-4.338474E-6	NaN
430	1.000000	0.902917	7.36927e+06	-55589.1	1005.82	-29741.2	0.000000	0.000000	6.903097	-0.023115	NaN	0.000000	0.001650	0.001660	28.0817	0.095615	0.001995	47.9297	163.033	-163.779	0.013474	0.901639	-0.277254	-0.278533	-0.023115	47.9297	-0.276893	-2118.56	1.091060E-5	NaN
430	1.000000	0.912931	7.36927e+06	-55589.1	1005.82	-29741.2	0.000000	0.000000	6.913112	0.013924	NaN	0.000000	0.001646	0.001682	28.0815	0.014486	0.002107	6.875097	152.39	12.8919	0.048390	0.911531	-0.267241	-0.268641	0.013924	6.875097	-0.268760	-1594.72	-8.731531E-6	NaN
430	1.000000	0.922891	7.36927e+06	-55589.1	1005.82	-29741.2	0.000000	0.000000	6.923073	0.033750	NaN	0.000000	0.001686	0.001634	28.0818	0.051291	0.001936	26.4941	-55.2188	-164.803	0.071317	0.921625	-0.257281	-0.258547	0.033750	26.4941	-0.258237	-1101.21	-3.064827E-5	NaN
430	1.000000	0.932951	7.36927e+06	-55589.1	1005.82	-29741.2	0.000000	0.000000	6.933132	0.000841	NaN	0.000000	0.001657	0.001638	28.0815	0.057863	0.002122	27.2664	-178.233	14.1974	-0.044205	0.931565	-0.247221	-0.248607	0.000841	27.2664	-0.247244	-745.216	-1.128897E-6	NaN
430	1.000000	0.942965	7.36927e+06	-55589.1	1005.82	-29741.2	0.000000	0.000000	6.943144	-0.028217	NaN	0.000000	0.001626	0.001626	28.0817	0.041430	0.002072	19.9943	-47.4995	-163.398	-0.075472	0.941641	-0.237207	-0.238531	-0.028217	19.9943	-0.236149	-500.352	5.639439E-5	NaN
430	1.000000	0.952948	7.36927e+06	-55589.1	1005.82	-29741.2	0.000000	0.000000	6.953130	0.031960	NaN	0.000000	0.001644	0.001685	28.0805	0.094024	0.001970	47.7304	-107.832	16.7035	-0.002855	0.951513	-0.227224	-0.228658	0.031960	47.7304	-0.227726	-368.607	-8.670519E-5	NaN
430	1.000000	0.962923	7.36927e+06	-55589.1	1005.82	-29741.2	0.000000	0.000000	6.963100	-0.106729	NaN	0.000000	0.001640	0.001675	28.0805	0.098870	0.002103	47.0229	-76.0836	-163.586	0.002304	0.961642	-0.217249	-0.218530	-0.106729	47.0229	-0.215546	-235.667	0.000453	NaN
430	1.000000	0.972959	7.36927e+06	-55589.1	1005.82	-29741.2	0.000000	0.000000	6.973139	-0.031395	NaN	0.000000	0.001631	0.001686	28.0805	0.029756	0.001980	15.0299	42.8969	12.1805	0.066420	0.971564	-0.207212	-0.208607	-0.031395	15.0299	-0.205646	-162.962	0.000193	NaN
430	1.000000	0.982930	7.36927e+06	-55589.1	1005.82	-29741.2	0.000000	0.000000	6.983112	0.014687	NaN	0.000000	0.001583	0.001677	28.0802	0.015927	0.001985	8.025385	-32.3771	-168.573	0.038737	0.981657	-0.197242	-0.198515	0.014687	8.025385	-0.198614	-124.997	-0.000117	NaN
430	1.000000	0.992943	7.36927e+06	-55589.1	1005.82	-29741.2	0.000000	0.000000	6.993124	0.007604	NaN	0.000000	0.001631	0.001719	28.0805	0.013625	0.002095	6.502139	-90.048	16.312	-0.023327	0.991649	-0.187229	-0.188523	0.007604	6.502139	-0.188106	-83.625	-9.093029E-5	NaN
430	1.000000	1.002949	7.36927e+06	-55589.1	1005.82	-29741.2	0.000000	0.000000	7.003133	0.065077	NaN	0.000000	0.001608	0.001706	28.0801	0.140569	0.002043	68.7909	-160.957	-164.146	0.091542	1.001687	-0.177223	-0.178485	0.065077	68.7909	-0.177932	-56.2624	-0.001157	NaN
430	1.000000	1.012987	7.36927e+06	-55589.1	1005.82	-29741.2	0.000000	0.000000	7.013167	-0.031279	NaN	0.000000	0.001595	0.001687	28.0804	0.074770	0.002084	35.8749	-71.5862	13.1434	0.076900	1.011645	-0.167185	-0.168527	-0.031279	35.8749	-0.166531	-35.7391	0.000875	NaN
430	1.000000	1.022952	7.36927e+06	-55589.1	1005.82	-29741.2	0.000000	0.000000	7.023132	-0.013090	NaN	0.000000	0.001628	0.001675	28.0804	0.043610	0.001951	22.3514	-95.0408	-165.241	-0.013841	1.021697	-0.157220	-0.158475	-0.013090	22.3514	-0.156781	-24.019	0.000545	NaN
430	1.000000	1.032987	7.36927e+06	-55589.1	1005.82	-29741.2	0.000000	0.000000	7.033167	-0.040028	NaN	0.000000	0.001636	0.001703	28.0806	0.030111	0.001909	15.7702	73.2139	15.3751	0.024282	1.031709	-0.147184	-0.148463	-0.040028	15.7702	-0.145281	-14.8375	0.002698	NaN
430	1.000000	1.042982	7.36927e+06	-55589.1	1005.82	-29741.2	0.000000	0.000000	7.043162	-0.024877	NaN	0.000000	0.001644	0.001690	28.0801	0.054360	0.002066	26.3123	-60.5932	-163.639	0.032095	1.041664	-0.137190	-0.138508	-0.024877	26.3123	-0.136481	-10.1505	0.002451	NaN
430	1.000000	1.052947	7.36927e+06	-55589.1	1005.82	-29741.2	0.000000	0.000000	7.053129	0.012751	NaN	0.000000	0.001658	0.001670	28.0802	0.080523	0.002080	38.7184	144.142	11.4134	-0.014908	1.051610	-0.127224	-0.128562	0.012751	38.7184	-0.127471	-6.802507	-0.001874	NaN
430	1.000000	1.062984	7.36927e+06	-55589.1	1005.82	-29741.2	0.000000	0.000000	7.063166	0.026850	NaN	0.000000	0.001615	0.001713	28.0801	0.118722	0.001960	60.5863	-52.2444	-164.788	-0.000473	1.061674	-0.117188	-0.118498	0.026850	60.5863	-0.117520	-4.303050	-0.006240	NaN
430	1.000000	1.072980	7.36927e+06	-55589.1	1005.82	-29741.2	0.000000	0.000000	7.073161	0.003608	NaN	0.000000	0.001603	0.001727	28.0802	0.009192	0.002089	4.400269	-70.5168	16.0555	-0.045887	1.071598	-0.107192	-0.108574	0.003608	4.400269	-0.107807	-2.700187	-0.001336	NaN
430	1.000000	1.082992	7.36927e+06	-55589.1	1005.82	-29741.2	0.000000	0.000000	7.083172	-0.016713	NaN	0.000000	0.001638	0.001690	28.0802	0.081263	0.001992	40.7947	-81.5626	-167.718	0.008871	1.081659	-0.097180	-0.098513	-0.016713	40.7947	-0.096873	-1.555469	0.010745	NaN
430	1.000000	1.092988	7.36927e+06	-55589.1	1005.82	-29741.2	0.000000	0.000000	7.093171	0.057307	NaN	0.000000	0.001617	0.001662	28.0813	0.017674	0.001939	9.115813	-26.4131	16.5642	0.073449	1.091679	-0.087184	-0.088493	0.057307	9.115813	-0.091899	-1.197082	-0.047872	NaN
430	1.000000	1.102993	7.36927e+06	-55589.1	1005.82	-29741.2	0.000000	0.000000	7.103176	0.038965	NaN	0.000000	0.001627	0.001703	28.0815	0.006217	0.002059	3.019158	-171.789	-165.47	-0.024594	1.101672	-0.077179	-0.078500	0.038965	3.019158	-0.086858	-0.910724	-0.042785	NaN
430	1.000000	1.113006	7.36927e+06	-55589.1	1005.82	-29741.2	0.000000	0.000000	7.113188	0.031132	NaN	0.000000	0.001646	0.001690	28.0814	0.034222	0.002102	16.2828	-120.102	13.4023	0.056296	1.111657	-0.067166	-0.068515	0.031132	16.2828	-0.068600	-0.312752	-0.099543	NaN
430	1.000000	1.123011	7.36927e+06	-55589.1	1005.82	-29741.2	0.000000	0.000000	7.123192	0.008525	NaN	0.000000	0.001693	0.001693	28.0815	0.085313	0.001987	42.9308	-105.359	-164.492	-0.003122	1.121713	-0.057161	-0.058459	0.008525	42.9308	-0.057310	-0.150544	-0.056627	NaN
430	1.000000	1.133037	7.36927e+06	-55589.1	1005.82	-29741.2	0.000000	0.000000	7.133219	0.048452	NaN	0.000000	0.001710	0.001688	28.0815	0.161407	0.002011	80.2632	146.501	13.1462	-0.008198	1.131646	-0.047135	-0.048526	0.048452	80.2632	-0.047588	-0.077093	-0.628483	NaN
430	1.000000	1.143021	7.36927e+06	-55589.1	1005.82	-29741.2	0.000000	0.000000	7.143200	-0.040703	NaN	0.000000	0.001726	0.001685	28.0816	0.020788	0.001994	10.4244	41.3601	-165.249	-0.118668	1.141735	-0.037151	-0.038437	-0.040703	10.4244	-0.034223	-0.030386	1.339561	NaN
430	1.000000	1.153026	7.36927e+06	-55589.1	1005.82	-29741.2	0.000000	0.000000	7.153205	-0.055652	NaN	0.000000	0.001731	0.001690	28.0816	0.065646	0.001951	33.6473	70.114	9.936284	-0.014210	1.151724	-0.027146	-0.028448	-0.055652	33.6473	-0.025905	-0.017819	3.123137	NaN
430	1.000000	1.163049	7.36927e+06	-55589.1	1005.82	-29741.2	0.000000	0.000000	7.163234	0.089569	NaN	0.000000	0.001706	0.001699	28.0815	0.111830	0.001923	58.1611	106.792	-167.317	0.014397	1.161694	-0.017123	-0.018478	0.089569	58.1611	-0.018278	-0.011349	-7.892377	NaN
430	1.000000	1.173034	7.36927e+06	-55589.1	1005.82	-29741.2	0.000000	0.000000	7.173215	0.025569	NaN	0.000000	0.001658	0.001701	28.0817	0.082793	0.002054	40.3014	74.2054	12.0376	0.023865	1.171677	-0.007138	-0.008495	0.025569	40.3014	-0.007614	-0.005005	-5.108836	NaN
430	1.000000	1.183031	7.36927e+06	-55589.1	1005.82	-29741.2	0.000000	0.000000	7.183255	1.041199	NaN	0.000000	0.001644	0.001693	28.0819	1.630842	0.001974	826.306	6.142397	-167.486	0.344613	1.181757	0.002859	0.001585	1.041199	826.306	0.001914	0.001485	700.967	19588.3
430	2.000000	1.191969	7.36927e+06	-55589.1	1005.82	-29741.2	0.000000	0.000000	7.192568	10.1803	NaN	0.000000	0.001624	0.001692	28.0817	10.1391	0.001634	6205.79	9.377348	3.831059	9.111144	1.191502	0.011797	0.011331	10.1803	6205.79	0.010567	0.009818	1036.9	57221.4
430	2.000000	1.194487	7.36927e+06	-55589.1	1005.82	-29741.2	0.000000	0.000000	7.195183	12.5148	NaN	0.000000	0.001629	0.001661	28.0819	12.6721	0.001795	7058.15	7.695324	-174.412	12.0752	1.194195	0.014315	0.014024	12.5148	7058.15	0.012986	0.012692	986.03	57239.5
430	2.000000	1.196961	7.36927e+06	-55589.1	1005.82	-29741.2	0.000000	0.000000	7.197753	14.862	NaN	0.000000	0.001655	0.001700	28.0815	14.0449	0.001756	7997.83	5.373386	7.216973	13.3067	1.196616	0.016789	0.016444	14.862	7997.83	0.015395	0.015816	939.658	58102.1
430	2.000000	1.199490	7.36927e+06	-55589.1	1005.82	-29741.2	0.000000	0.000000	7.200455	19.0503	NaN	0.000000	0.001646	0.001689	28.0816	16.8466	0.001752	9616.15	9.223193	-176.555	19.462	1.199114	0.019318	0.018943	19.0503	9616.15	0.017832	0.019250	989.626	63322.7
430	2.000000	1.201974	7.36927e+06	-55589.1	1005.82	-29741.2	0.000000	0.000000	7.203089	22.7046	NaN	0.000000	0.001626	0.001679	28.0805	20.3269	0.001633	12448.2	4.613601	2.997013	21.3302	1.201566	0.021802	0.021394	22.7046	12448.2	0.020434	0.023229	977.411	74621.2
430	2.000000	1.204471	7.36927e+06	-55589.1	1005.82	-29741.2	0.000000	0.000000	7.205854	29.2274	NaN	0.000000	0.001657	0.001665	28.0806	23.243	0.001797	12930.9	9.293699	178.838	28.771	1.204087	0.024299	0.023915	29.2274	12930.9	0.022604	0.026801	1090.54	72165.3
430	2.000000	1.206917	7.36927e+06	-55589.1	1005.82	-29741.2	0.000000	0.000000	7.208478	33.5565	NaN	0.000000	0.001633	0.001666	28.0808	25.5244	0.001780	14343.5	6.391291	0.529755	30.4488	1.206571	0.026745	0.026399	33.5565	14343.5	0.024990	0.030998	1082.55	74432.7
430	2.000000	1.209420	7.36927e+06	-55589.1	1005.82	-29741.2	0.000000	0.000000	7.211327	41.9682	NaN	0.000000	0.001638	0.001650	28.0807	27.4455	0.001729	15877.3	6.222366	179.934	39.577	1.209092	0.029248	0.028920	41.9682	15877.3	0.027265	0.035266	1190.05	77245.3
430	2.000000	1.211915	7.36927e+06	-55589.1	1005.82	-29741.2	0.000000	0.000000	7.214076	48.151	NaN	0.000000	0.001620	0.001651	28.0804	30.5092	0.001811	16842.8	5.338824	1.061353	46.4085	1.211624	0.031743	0.031452	48.151	16842.8	0.029599	0.039916	1206.31	77022
430	2.000000	1.214381	7.36927e+06	-55589.1	1005.82	-29741.2	0.000000	0.000000	7.216938	57.7616	NaN	0.000000	0.001657	0.001659	28.0806	33.769	0.001893	17838.7	5.610586	179.164	56.292	1.214173	0.034209	0.034001	57.7616	17838.7	0.031780	0.044515	1297.59	77247.8
430	2.000000	1.216910	7.36927e+06	-55589.1	1005.82	-29741.2	0.000000	0.000000	7.219832	66.6438	NaN	0.000000	0.001682	0.001692	28.0806	35.3307	0.001785	19796.3	2.565309	1.383761	62.5347	1.216550	0.036738	0.036378	66.6438	19796.3	0.034213	0.049930	1334.76	80943
430	2.000000	1.219424	7.36927e+06	-55589.1	1005.82	-29741.2	0.000000	0.000000	7.222906	80.2447	NaN	0.000000	0.001609	0.001718	28.0807	37.8165	0.001803	20970.3	9.094859	175.079	79.3716	1.219095	0.039252	0.038923	80.2447	20970.3	0.036382	0.055012	1458.67	81686
430	2.000000	1.221922	7.36927e+06	-55589.1	1005.82	-29741.2	0.000000	0.000000	7.225707	87.6076	NaN	0.000000	0.001650	0.001714	28.0805	39.6584	0.001668	23776.1	6.733496	-4.587541	86.7698	1.221554	0.041750	0.041382	87.6076	23776.1	0.038987	0.061436	1426	87639.7
430	2.000000	1.224418	7.36927e+06	-55589.1	1005.82	-29741.2	0.000000	0.000000	7.228776	101.548	NaN	0.000000	0.001650	0.001672	28.0812	43.6706	0.001817	24031.5	6.786112	175.272	102.141	1.224072	0.044246	0.043900	101.548	24031.5	0.041076	0.066840	1519.28	84925
430	2.000000	1.226910	7.36927e+06	-55589.1	1005.82	-29741.2	0.000000	0.000000	7.231907	117.067	NaN	0.000000	0.001685	0.001684	28.0808	44.9971	0.001746	25772	4.723932	-2.842277	114.931	1.226412	0.046738	0.046240	117.067	25772	0.043332	0.072922	1605.38	87195.3
430	2.000000	1.229415	7.36927e+06	-55589.1	1005.82	-29741.2	0.000000	0.000000	7.234797	126.43	NaN	0.000000	0.001649	0.001705	28.0809	47.5117	0.001804	26341.4	6.416061	174.869	126.769	1.229088	0.049243	0.048916	126.43	26341.4	0.045643	0.079424	1591.83	85395.8
430	2.000000	1.231899	7.36927e+06	-55589.1	1005.82	-29741.2	0.000000	0.000000	7.238108	146.541	NaN	0.000000	0.001646	0.001673	28.0803	50.3743	0.001690	29805.9	8.171508	-8.226741	143.147	1.231448	0.051727	0.051276	146.541	29805.9	0.048040	0.086450	1695.1	92617.3
430	2.000000	1.234388	7.36927e+06	-55589.1	1005.82	-29741.2	0.000000	0.000000	7.240862	152.966	NaN	0.000000	0.001630	0.001707	28.0827	53.5987	0.001834	29228.1	1.923098	177.844	150.644	1.234202	0.054217	0.054031	152.966	29228.1	0.050291	0.093316	1639.23	87417.1
430	2.000000	1.236907	7.36927e+06	-55589.1	1005.82	-29741.2	0.000000	0.000000	7.244351	176.537	NaN	0.000000	0.001605	0.001667	28.0817	55.1057	0.001755	31406	1.145054	-0.621242	176.041	1.236603	0.056735	0.056431	176.537	31406	0.052520	0.100360	1759.04	90574.5
430	2.000000	1.239378	7.36927e+06	-55589.1	1005.82	-29741.2	0.000000	0.000000	7.247448	191.78	NaN	0.000000	0.001596	0.001652	28.082	57.8194	0.001809	31969.7	5.152964	175.342	189.517	1.238999	0.059206	0.058828	191.78	31969.7	0.054707	0.107515	1783.76	89079.3
430	2.000000	1.241854	7.36927e+06	-55589.1	1005.82	-29741.2	0.000000	0.000000	7.250455	204.68	NaN	0.000000	0.001624	0.001661	28.0817	60.7493	0.001783	34077.7	7.399981	-8.691542	200.667	1.241592	0.061682	0.061420	204.68	34077.7	0.057177	0.115881	1766.29	91461.2
430	2.000000	1.244356	7.36927e+06	-55589.1	1005.82	-29741.2	0.000000	0.000000	7.253886	227.261	NaN	0.000000	0.001610	0.001661	28.0822	63.0755	0.001851	34074.6	3.853628	174.907	225.333	1.244006	0.064184	0.063834	227.261	34074.6	0.059182	0.122891	1849.28	88806.3
430	2.000000	1.246904	7.36927e+06	-55589.1	1005.82	-29741.2	0.000000	0.000000	7.257220	246.361	NaN	0.000000	0.001646	0.001662	28.0816	65.2896	0.001743	37451.3	5.883030	-7.746097	244.713	1.246495	0.066732	0.066323	246.361	37451.3	0.061798	0.132336	1861.64	94059.3
430	2.000000	1.249386	7.36927e+06	-55589.1	1005.82	-29741.2	0.000000	0.000000	7.260282	260.463	NaN	0.000000	0.001668	0.001683	28.0819	66.9715	0.001735	38597.1	3.449688	174.314	259.994	1.249053	0.069214	0.068881	260.463	38597.1	0.064153	0.141121	1845.67	93871.2
430	2.000000	1.251946	7.36927e+06	-55589.1	1005.82	-29741.2	0.000000	0.000000	7.263675	280.699	NaN	0.000000	0.001613	0.001669	28.0817	69.4945	0.001705	40767	6.853556	-8.854225	283.484	1.251457	0.071774	0.071286	280.699	40767	0.066610	0.150573	1864.2	95986.2
430	2.000000	1.254358	7.36927e+06	-55589.1	1005.82	-29741.2	0.000000	0.000000	7.266627	293.847	NaN	0.000000	0.001638	0.001669	28.0821	71.2389	0.001754	40621.9	0.410375	177.483	292.455	1.254174	0.074186	0.074002	293.847	40621.9	0.068761	0.159083	1847.13	93051.3
430	2.000000	1.256893	7.36927e+06	-55589.1	1005.82	-29741.2	0.000000	0.000000	7.270444	325.011	NaN	0.000000	0.001657	0.001661	28.0816	74.6862	0.001864	40065.9	9.969666	-12.3268	323.439	1.256450	0.076721	0.076279	325.011	40065.9	0.070637	0.166689	1949.8	89659
430	2.000000	1.259300	7.36927e+06	-55589.1	1005.82	-29741.2	0.000000	0.000000	7.273453	339.625	NaN	0.000000	0.001639	0.001663	28.0819	76.1944	0.001877	40604.1	3.658812	173.767	336.29	1.259004	0.079128	0.078832	339.625	40604.1	0.072855	0.175896	1930.83	88453.5
430	2.000000	1.261806	7.36927e+06	-55589.1	1005.82	-29741.2	0.000000	0.000000	7.276772	359.406	NaN	0.000000	0.001623	0.001665	28.0817	79.141	0.001894	41776.1	3.823163	-6.507731	355.456	1.261517	0.081634	0.081345	359.406	41776.1	0.075181	0.185801	1934.36	88547.6
430	2.000000	1.264342	7.36927e+06	-55589.1	1005.82	-29741.2	0.000000	0.000000	7.280164	380.21	NaN	0.000000	0.001660	0.001703	28.0819	80.9413	0.001837	44058.3	3.354793	173.344	377.919	1.264049	0.084170	0.083877	380.21	44058.3	0.077698	0.196803	1931.93	90737.1
430	2.000000	1.266786	7.36927e+06	-55589.1	1005.82	-29741.2	0.000000	0.000000	7.283536	402.751	NaN	0.000000	0.001653	0.001648	28.0817	82.1503	0.001795	45764.8	5.702837	-8.892199	397.513	1.266468	0.086614	0.086296	402.751	45764.8	0.080014	0.207192	1943.85	91858.2
430	2.000000	1.269325	7.36927e+06	-55589.1	1005.82	-29741.2	0.000000	0.000000	7.286683	417.532	NaN	0.000000	0.001651	0.001683	28.0804	83.7938	0.001772	47293.1	2.711907	173.946	415.247	1.268899	0.089153	0.088727	417.532	47293.1	0.082532	0.218769	1908.56	92380.1
430	2.000000	1.271803	7.36927e+06	-55589.1	1005.82	-29741.2	0.000000	0.000000	7.289689	430.399	NaN	0.000000	0.001702	0.001661	28.0804	87.14	0.001787	48771.8	2.917300	-7.012911	425.485	1.271470	0.091631	0.091298	430.399	48771.8	0.085012	0.230459	1867.57	92820.6
430	2.000000	1.274352	7.36927e+06	-55589.1	1005.82	-29741.2	0.000000	0.000000	7.293428	459.299	NaN	0.000000	0.001696	0.001644	28.0803	91.3582	0.001930	47333.2	6.160199	170.146	457.911	1.274064	0.094180	0.093892	459.299	47333.2	0.086903	0.239562	1917.25	88354.8
430	2.000000	1.276769	7.36927e+06	-55589.1	1005.82	-29741.2	0.000000	0.000000	7.297056	488.728	NaN	0.000000	0.001667	0.001684	28.0802	93.0205	0.001855	50142.5	6.509717	-9.747139	480.466	1.276281	0.096597	0.096109	488.728	50142.5	0.089287	0.251277	1944.97	91390.8
430	2.000000	1.279424	7.36927e+06	-55589.1	1005.82	-29741.2	0.000000	0.000000	7.300435	506.354	NaN	0.000000	0.001690	0.001650	28.0804	95.067	0.001862	51065.2	7.568894	169.758	509.096	1.278818	0.099252	0.098646	506.354	51065.2	0.091815	0.263982	1918.14	90805.2
430	2.000000	1.281833	7.36927e+06	-55589.1	1005.82	-29741.2	0.000000	0.000000	7.303520	522.79	NaN	0.000000	0.001674	0.001644	28.0803	98.8404	0.001866	52964.5	6.476257	-11.1147	520.376	1.281441	0.101661	0.101270	522.79	52964.5	0.094258	0.276536	1890.5	92019.9
430	2.000000	1.284223	7.36927e+06	-55589.1	1005.82	-29741.2	0.000000	0.000000	7.306648	540.737	NaN	0.000000	0.001694	0.001655	28.0801	100.635	0.001787	56313.9	7.416597	166.702	534.335	1.284009	0.104051	0.103837	540.737	56313.9	0.096849	0.290151	1863.64	95516
430	2.000000	1.286851	7.36927e+06	-55589.1	1005.82	-29741.2	0.000000	0.000000	7.309846	554.561	NaN	0.000000	0.001678	0.001628	28.0801	102.223	0.001837	55634.7	5.977910	-11.5478	550.77	1.286673	0.106679	0.106501	554.561	55634.7	0.099203	0.302785	1831.53	92374.3
430	2.000000	1.289196	7.36927e+06	-55589.1	1005.82	-29741.2	0.000000	0.000000	7.313685	590.885	NaN	0.000000	0.001699	0.001620	28.0802	102.336	0.001777	57579.9	2.691780	172.263	584.009	1.288924	0.109024	0.108752	590.885	57579.9	0.101327	0.314403	1879.39	93821.2
430	2.000000	1.290386	7.36927e+06	-55589.1	1005.82	-29741.2	0.000000	0.000000	7.315315	601.587	NaN	0.000000	0.001723	0.001613	28.0801	105.575	0.001895	55704.2	5.707328	169.802	602.581	1.290028	0.110214	0.109856	601.587	55704.2	0.102114	0.318759	1887.28	90142.6