File: remote_trans/data/nanoindenter/0828-1/data/Data_2025-08-06,11h17m57s/2025-07-22_16-23-58_1_362.txt
2025-07-22, 16:23:58, 1
Index	Phase	Displacement	Time	Pos X	Pos Y	Pos Z	Rot A	Rot B	Piezo Z	Force A	Force B	Gripper	Voltage A	Voltage B	Temperature	Amplitude force	Amplitude pos	Stiffness	Phase shift	Phase excitation	Force A raw	Displacement raw	HMax	HMax raw	Real Force	Real Stiffness	Contact Depth	Area	Hardness	Reduced Mod.
[#]	[#]	[um]	[s]	[um]	[um]	[um]	[m°]	[m°]	[um]	[uN]	[uN]	[V]	[V]	[V]	[°C]	[uN]	[um]	[N/m]	[°]	[°]	[uN]	[um]	[um]	[um]	[uN]	[N/m]	[um]	[um^2]	[MPa]	[MPa]
362	1.000000	0.002455	7.3686e+06	-56739.1	955.819	-29738.5	0.000000	0.000000	6.002794	0.041340	NaN	0.000000	0.001559	0.001703	28.0808	0.073127	0.001024	71.428	104.05	-164.009	0.053892	0.001228	-1.040738	-1.041965	0.041340	71.428	-1.041173	-8.123322E+13	-5.089046E-16	NaN
362	1.000000	0.010409	7.3686e+06	-56739.1	955.818	-29738.5	0.000000	0.000000	6.010747	0.031435	NaN	0.000000	0.001552	0.001659	28.0806	0.128271	0.000916	140.059	106.829	-165.793	0.041011	0.009154	-1.032785	-1.034039	0.031435	140.059	-1.032953	-6.298035E+13	-4.991220E-16	NaN
362	1.000000	0.018408	7.3686e+06	-56739.1	955.819	-29738.5	0.000000	0.000000	6.018748	0.076370	NaN	0.000000	0.001504	0.001714	28.0805	0.067648	0.001603	42.2111	72.6007	-160.962	0.139259	0.017088	-1.024786	-1.026106	0.076370	42.2111	-1.026143	-5.100320E+13	-1.497358E-15	NaN
362	1.000000	0.026438	7.3686e+06	-56739.1	955.818	-29738.5	0.000000	0.000000	6.026776	0.021021	NaN	0.000000	0.001528	0.001692	28.0805	0.078201	0.001796	43.5354	94.8834	-165.348	0.026628	0.025067	-1.016755	-1.018126	0.021021	43.5354	-1.017117	-3.856261E+13	-5.451018E-16	NaN
362	1.000000	0.034429	7.3686e+06	-56739.1	955.819	-29738.5	0.000000	0.000000	6.034766	-0.000531	NaN	0.000000	0.001558	0.001728	28.0807	0.020170	0.001866	10.809	-11.3284	-164.98	-0.018306	0.033121	-1.008765	-1.010073	-0.000531	10.809	-1.008728	-2.973437E+13	1.785092E-17	NaN
362	1.000000	0.042429	7.3686e+06	-56739.1	955.818	-29738.5	0.000000	0.000000	6.042766	0.005519	NaN	0.000000	0.001560	0.001704	28.0803	0.095458	0.002090	45.6748	143.089	-162.913	0.051982	0.041078	-1.000765	-1.002116	0.005519	45.6748	-1.000855	-2.329603E+13	-2.368965E-16	NaN
362	1.000000	0.050422	7.3686e+06	-56739.1	955.819	-29738.5	0.000000	0.000000	6.050761	0.052915	NaN	0.000000	0.001574	0.001691	28.0803	0.119198	0.002103	56.6753	123.916	-166.027	-0.041049	0.049093	-0.992772	-0.994101	0.052915	56.6753	-0.993472	-1.852969E+13	-2.855697E-15	NaN
362	1.000000	0.058423	7.3686e+06	-56739.1	955.82	-29738.5	0.000000	0.000000	6.058762	0.043169	NaN	0.000000	0.001546	0.001739	28.0801	0.042871	0.001893	22.646	11.2395	-166.324	0.038367	0.057088	-0.984771	-0.986106	0.043169	22.646	-0.986201	-1.478899E+13	-2.918978E-15	NaN
362	1.000000	0.066452	7.3686e+06	-56739.1	955.82	-29738.5	0.000000	0.000000	6.066790	0.045901	NaN	0.000000	0.001539	0.001707	28.0802	0.058301	0.002022	28.8316	86.1342	-163.913	0.020175	0.065073	-0.976742	-0.978121	0.045901	28.8316	-0.977936	-1.144474E+13	-4.010666E-15	NaN
362	1.000000	0.074407	7.3686e+06	-56739.1	955.818	-29738.5	0.000000	0.000000	6.074747	0.075958	NaN	0.000000	0.001595	0.001709	28.0803	0.102715	0.001940	52.934	-97.5236	-163.608	0.029306	0.073142	-0.968786	-0.970051	0.075958	52.934	-0.969863	-8.908657E+12	-8.526276E-15	NaN
362	1.000000	0.082435	7.3686e+06	-56739.1	955.819	-29738.5	0.000000	0.000000	6.082773	0.014207	NaN	0.000000	0.001618	0.001706	28.0801	0.086091	0.001930	44.5996	94.3902	-160.655	0.070372	0.081069	-0.960758	-0.962125	0.014207	44.5996	-0.960997	-6.765720E+12	-2.099876E-15	NaN
362	1.000000	0.090421	7.3686e+06	-56739.1	955.819	-29738.5	0.000000	0.000000	6.090757	-0.021388	NaN	0.000000	0.001589	0.001699	28.0804	0.070787	0.001852	38.2153	-101.741	-165.057	-0.015089	0.089133	-0.952773	-0.954061	-0.021388	38.2153	-0.952353	-5.173286E+12	4.134264E-15	NaN
362	1.000000	0.098416	7.3686e+06	-56739.1	955.819	-29738.5	0.000000	0.000000	6.098753	-0.002932	NaN	0.000000	0.001609	0.001719	28.0803	0.040270	0.002061	19.5366	-44.8152	-162.186	0.063423	0.097110	-0.944778	-0.946084	-0.002932	19.5366	-0.944665	-4.074477E+12	7.197077E-16	NaN
362	1.000000	0.106423	7.3686e+06	-56739.1	955.819	-29738.5	0.000000	0.000000	6.106762	0.051263	NaN	0.000000	0.001589	0.001703	28.0802	0.051762	0.002074	24.9633	8.486102	-161.77	0.068622	0.105149	-0.936771	-0.938045	0.051263	24.9633	-0.938311	-3.344677E+12	-1.532668E-14	NaN
362	1.000000	0.114476	7.3686e+06	-56739.1	955.819	-29738.5	0.000000	0.000000	6.114816	0.076769	NaN	0.000000	0.001585	0.001737	28.0802	0.027415	0.002083	13.159	-54.015	-164.614	0.061537	0.113092	-0.928718	-0.930101	0.076769	13.159	-0.933093	-2.844102E+12	-2.699234E-14	NaN
362	1.000000	0.122413	7.3686e+06	-56739.1	955.818	-29738.5	0.000000	0.000000	6.122753	0.061161	NaN	0.000000	0.001598	0.001731	28.0804	0.044745	0.001917	23.3359	-167.544	-163.705	-0.045364	0.121139	-0.920781	-0.922055	0.061161	23.3359	-0.922746	-2.061978E+12	-2.966144E-14	NaN
362	1.000000	0.130434	7.3686e+06	-56739.1	955.819	-29738.5	0.000000	0.000000	6.130777	0.140070	NaN	0.000000	0.001559	0.001736	28.0805	0.019655	0.001921	10.2314	105.973	-164.939	0.165789	0.129160	-0.912760	-0.914034	0.140070	10.2314	-0.923027	-2.080077E+12	-6.733886E-14	NaN
362	1.000000	0.138426	7.3686e+06	-56739.1	955.818	-29738.5	0.000000	0.000000	6.138766	0.073710	NaN	0.000000	0.001577	0.001720	28.0818	0.045798	0.002109	21.7182	-69.5546	-161.667	0.095184	0.137159	-0.904768	-0.906035	0.073710	21.7182	-0.907314	-1.276076E+12	-5.776269E-14	NaN
362	1.000000	0.146452	7.3686e+06	-56739.1	955.819	-29738.5	0.000000	0.000000	6.146790	0.022827	NaN	0.000000	0.001533	0.001717	28.0816	0.036512	0.001992	18.3325	55.5843	-165.186	0.035036	0.145120	-0.896742	-0.898073	0.022827	18.3325	-0.897676	-9.455034E+11	-2.414305E-14	NaN
362	1.000000	0.154483	7.3686e+06	-56739.1	955.819	-29738.5	0.000000	0.000000	6.154819	-0.021948	NaN	0.000000	0.001537	0.001723	28.0817	0.074898	0.001922	38.9739	50.5378	-165.539	-0.011365	0.153131	-0.888711	-0.890063	-0.021948	38.9739	-0.888289	-7.059629E+11	3.108945E-14	NaN
362	1.000000	0.162459	7.3686e+06	-56739.1	955.82	-29738.5	0.000000	0.000000	6.162801	0.107950	NaN	0.000000	0.001589	0.001739	28.0815	0.059903	0.002198	27.2554	125.941	-161.932	0.147860	0.161157	-0.880735	-0.882036	0.107950	27.2554	-0.883705	-6.120845E+11	-1.763640E-13	NaN
362	1.000000	0.170470	7.3686e+06	-56739.1	955.819	-29738.5	0.000000	0.000000	6.170807	0.007033	NaN	0.000000	0.001551	0.001683	28.0818	0.117385	0.001973	59.5003	113.239	-162.899	-0.002218	0.169197	-0.872724	-0.873997	0.007033	59.5003	-0.872813	-4.360117E+11	-1.613092E-14	NaN
362	1.000000	0.178438	7.3686e+06	-56739.1	955.818	-29738.5	0.000000	0.000000	6.178776	0.019776	NaN	0.000000	0.001598	0.001722	28.0817	0.082676	0.001925	42.9527	108.015	-166.638	-0.013865	0.177159	-0.864755	-0.866035	0.019776	42.9527	-0.865101	-3.428876E+11	-5.767491E-14	NaN
362	1.000000	0.186492	7.3686e+06	-56739.1	955.819	-29738.5	0.000000	0.000000	6.186827	-0.026260	NaN	0.000000	0.001570	0.001743	28.0817	0.097738	0.002134	45.8098	6.159970	-163.922	-0.043230	0.185124	-0.856702	-0.858070	-0.026260	45.8098	-0.856272	-2.604123E+11	1.008405E-13	NaN
362	1.000000	0.194462	7.3686e+06	-56739.1	955.819	-29738.5	0.000000	0.000000	6.194798	-0.008277	NaN	0.000000	0.001530	0.001714	28.0821	0.041609	0.001950	21.3408	33.7821	-166.473	-0.010554	0.193191	-0.848732	-0.850003	-0.008277	21.3408	-0.848441	-2.040000E+11	4.057362E-14	NaN
362	1.000000	0.202492	7.3686e+06	-56739.1	955.819	-29738.5	0.000000	0.000000	6.202830	0.028403	NaN	0.000000	0.001579	0.001714	28.0817	0.055218	0.002038	27.0896	-99.1073	-167.819	-0.009880	0.201135	-0.840702	-0.842059	0.028403	27.0896	-0.841488	-1.642309E+11	-1.729456E-13	NaN
362	1.000000	0.210479	7.3686e+06	-56739.1	955.819	-29738.5	0.000000	0.000000	6.210816	-0.019393	NaN	0.000000	0.001507	0.001743	28.0817	0.029369	0.002021	14.5318	-122.031	-164.487	-0.051861	0.209223	-0.832714	-0.833971	-0.019393	14.5318	-0.831714	-1.210623E+11	1.601909E-13	NaN
362	1.000000	0.218518	7.3686e+06	-56739.1	955.819	-29738.5	0.000000	0.000000	6.218856	0.024504	NaN	0.000000	0.001581	0.001707	28.0816	0.068880	0.001897	36.3016	-6.591931	-167.216	0.085256	0.217199	-0.824675	-0.825994	0.024504	36.3016	-0.825182	-9.873418E+10	-2.481795E-13	NaN
362	1.000000	0.226485	7.3686e+06	-56739.1	955.819	-29738.5	0.000000	0.000000	6.226823	0.020937	NaN	0.000000	0.001603	0.001747	28.0815	0.096493	0.002130	45.3068	57.9187	-162.52	0.072213	0.225193	-0.816708	-0.818001	0.020937	45.3068	-0.817055	-7.660780E+10	-2.732985E-13	NaN
362	1.000000	0.234485	7.3686e+06	-56739.1	955.819	-29738.5	0.000000	0.000000	6.234821	-0.017014	NaN	0.000000	0.001634	0.001734	28.0815	0.071527	0.002117	33.7879	16.0181	-161.642	-0.036290	0.233185	-0.808709	-0.810009	-0.017014	33.7879	-0.808331	-5.833462E+10	2.916661E-13	NaN
362	1.000000	0.242479	7.3686e+06	-56739.1	955.819	-29738.5	0.000000	0.000000	6.242817	0.029747	NaN	0.000000	0.001578	0.001711	28.0815	0.013111	0.001814	7.227392	-164.715	-165.376	0.047128	0.241211	-0.800715	-0.801982	0.029747	7.227392	-0.803802	-5.063643E+10	-5.874606E-13	NaN
362	1.000000	0.250487	7.3686e+06	-56739.1	955.82	-29738.5	0.000000	0.000000	6.250824	-0.003352	NaN	0.000000	0.001572	0.001720	28.0814	0.075416	0.001927	39.1392	-15.1597	-163.594	0.030380	0.249156	-0.792707	-0.794038	-0.003352	39.1392	-0.792643	-3.572514E+10	9.382025E-14	NaN
362	1.000000	0.258484	7.3686e+06	-56739.1	955.819	-29738.5	0.000000	0.000000	6.258821	0.023008	NaN	0.000000	0.001591	0.001704	28.0812	0.089234	0.002055	43.4208	-110.806	-163.401	0.043489	0.257206	-0.784710	-0.785988	0.023008	43.4208	-0.785108	-2.822467E+10	-8.151637E-13	NaN
362	1.000000	0.266508	7.3686e+06	-56739.1	955.818	-29738.5	0.000000	0.000000	6.266847	0.034640	NaN	0.000000	0.001631	0.001674	28.0813	0.041326	0.002005	20.6151	149.813	-165.467	-0.004029	0.265131	-0.776686	-0.778062	0.034640	20.6151	-0.777946	-2.255886E+10	-1.535551E-12	NaN
362	1.000000	0.274481	7.3686e+06	-56739.1	955.819	-29738.5	0.000000	0.000000	6.274818	0.013078	NaN	0.000000	0.001627	0.001714	28.0801	0.136636	0.001968	69.442	121.625	-166.675	-0.021845	0.273240	-0.768713	-0.769954	0.013078	69.442	-0.768854	-1.697186E+10	-7.705591E-13	NaN
362	1.000000	0.282526	7.3686e+06	-56739.1	955.819	-29738.5	0.000000	0.000000	6.282866	0.081646	NaN	0.000000	0.001635	0.001701	28.0803	0.004224	0.001970	2.144607	-168.831	-165.212	0.048768	0.281202	-0.760668	-0.761992	0.081646	2.144607	-0.789221	-3.209980E+10	-2.543503E-12	NaN
362	1.000000	0.290533	7.3686e+06	-56739.1	955.819	-29738.5	0.000000	0.000000	6.290869	-0.007540	NaN	0.000000	0.001621	0.001719	28.0802	0.045640	0.002096	21.7727	86.8024	-166.784	0.041049	0.289224	-0.752661	-0.753969	-0.007540	21.7727	-0.752401	-1.013694E+10	7.438200E-13	NaN
362	1.000000	0.298490	7.3686e+06	-56739.1	955.818	-29738.5	0.000000	0.000000	6.298827	0.005687	NaN	0.000000	0.001627	0.001695	28.0803	0.058816	0.002076	28.327	98.0557	-165.181	0.057764	0.297214	-0.744704	-0.745980	0.005687	28.327	-0.744854	-8.001322E+9	-7.108062E-13	NaN
362	1.000000	0.306513	7.3686e+06	-56739.1	955.819	-29738.5	0.000000	0.000000	6.306846	-0.100027	NaN	0.000000	0.001593	0.001692	28.0803	0.073259	0.002033	36.0321	172.391	-165.258	-0.038623	0.305203	-0.736681	-0.737990	-0.100027	36.0321	-0.734599	-5.800609E+9	1.724421E-11	NaN
362	1.000000	0.314524	7.3686e+06	-56739.1	955.82	-29738.5	0.000000	0.000000	6.314860	-0.014038	NaN	0.000000	0.001636	0.001699	28.0804	0.007732	0.001886	4.099430	-162.303	-163.715	-0.030887	0.313217	-0.728670	-0.729977	-0.014038	4.099430	-0.726102	-4.442969E+9	3.159549E-12	NaN
362	1.000000	0.322538	7.3686e+06	-56739.1	955.819	-29738.5	0.000000	0.000000	6.322874	-0.024723	NaN	0.000000	0.001617	0.001718	28.0803	0.144165	0.002025	71.2035	-120.456	-163.571	0.060986	0.321263	-0.720656	-0.721931	-0.024723	71.2035	-0.720396	-3.714234E+9	6.656420E-12	NaN
362	1.000000	0.330554	7.3686e+06	-56739.1	955.818	-29738.5	0.000000	0.000000	6.330889	-0.048764	NaN	0.000000	0.001620	0.001709	28.0802	0.118086	0.001901	62.1341	45.9231	-164.885	-0.000370	0.329234	-0.712639	-0.713960	-0.048764	62.1341	-0.712051	-2.857812E+9	1.706354E-11	NaN
362	1.000000	0.338520	7.3686e+06	-56739.1	955.819	-29738.5	0.000000	0.000000	6.338861	0.086276	NaN	0.000000	0.001620	0.001726	28.0801	0.073872	0.002063	35.8153	179.865	-164.403	-0.036151	0.337249	-0.704673	-0.705944	0.086276	35.8153	-0.706480	-2.398869E+9	-3.596521E-11	NaN
362	1.000000	0.346508	7.3686e+06	-56739.1	955.819	-29738.5	0.000000	0.000000	6.346847	0.045305	NaN	0.000000	0.001568	0.001744	28.0802	0.061909	0.002002	30.9244	-34.0941	-163.174	-0.044129	0.345193	-0.696686	-0.698001	0.045305	30.9244	-0.697785	-1.825053E+9	-2.482399E-11	NaN
362	1.000000	0.354562	7.3686e+06	-56739.1	955.818	-29738.5	0.000000	0.000000	6.354896	-0.068054	NaN	0.000000	0.001571	0.001732	28.0803	0.028689	0.001904	15.07	-47.4157	-163.719	-0.035293	0.353199	-0.688632	-0.689994	-0.068054	15.07	-0.685245	-1.230039E+9	5.532660E-11	NaN
362	1.000000	0.362542	7.3686e+06	-56739.1	955.819	-29738.5	0.000000	0.000000	6.362881	0.055972	NaN	0.000000	0.001584	0.001702	28.0803	0.073169	0.002074	35.2762	45.4784	-165.439	0.042932	0.361183	-0.680652	-0.682010	0.055972	35.2762	-0.681842	-1.105089E+9	-5.064957E-11	NaN
362	1.000000	0.370547	7.3686e+06	-56739.1	955.819	-29738.5	0.000000	0.000000	6.370883	-0.007555	NaN	0.000000	0.001606	0.001721	28.0801	0.059136	0.001994	29.6603	-104.234	-166.305	-0.023155	0.369273	-0.672647	-0.673921	-0.007555	29.6603	-0.672456	-8.222442E+8	9.188286E-12	NaN
362	1.000000	0.378575	7.3686e+06	-56739.1	955.818	-29738.5	0.000000	0.000000	6.378913	0.029751	NaN	0.000000	0.001637	0.001729	28.0802	0.130354	0.002118	61.5348	62.9559	-163.81	0.056272	0.377240	-0.664619	-0.665954	0.029751	61.5348	-0.664982	-6.496693E+8	-4.579387E-11	NaN
362	1.000000	0.386532	7.3686e+06	-56739.1	955.818	-29738.5	0.000000	0.000000	6.386870	0.028412	NaN	0.000000	0.001622	0.001760	28.08	0.004820	0.002004	2.405129	-144.542	-166.602	0.073561	0.385295	-0.656661	-0.657899	0.028412	2.405129	-0.665521	-6.608145E+8	-4.299524E-11	NaN
362	1.000000	0.394544	7.3686e+06	-56739.1	955.819	-29738.5	0.000000	0.000000	6.394880	-0.030981	NaN	0.000000	0.001608	0.001706	28.0801	0.035971	0.002023	17.7774	48.2827	-164.805	-0.050044	0.393246	-0.648649	-0.649948	-0.030981	17.7774	-0.647342	-3.723905E+8	8.319358E-11	NaN
362	1.000000	0.402571	7.3686e+06	-56739.1	955.818	-29738.5	0.000000	0.000000	6.402911	0.053963	NaN	0.000000	0.001623	0.001722	28.08	0.047397	0.002009	23.5947	-172.989	-164.029	0.025324	0.401225	-0.640622	-0.641968	0.053963	23.5947	-0.642338	-3.179515E+8	-1.697215E-10	NaN
362	1.000000	0.410529	7.36861e+06	-56739.1	955.818	-29738.5	0.000000	0.000000	6.410868	0.034003	NaN	0.000000	0.001640	0.001745	28.0809	0.045605	0.002067	22.0659	-31.5047	-164.71	-0.020633	0.409311	-0.632664	-0.633883	0.034003	22.0659	-0.633820	-2.429265E+8	-1.399708E-10	NaN
362	1.000000	0.418568	7.36861e+06	-56739.1	955.818	-29738.5	0.000000	0.000000	6.418905	0.002066	NaN	0.000000	0.001640	0.001716	28.0814	0.065903	0.001972	33.4209	31.4621	-165.701	0.065006	0.417264	-0.624626	-0.625930	0.002066	33.4209	-0.624672	-1.819035E+8	-1.136034E-11	NaN
362	1.000000	0.426568	7.36861e+06	-56739.1	955.818	-29738.5	0.000000	0.000000	6.426908	0.087324	NaN	0.000000	0.001561	0.001751	28.0813	0.052954	0.001959	27.0315	107.784	-167.267	0.024772	0.425224	-0.616626	-0.617970	0.087324	27.0315	-0.619049	-1.522508E+8	-5.735518E-10	NaN
362	1.000000	0.434573	7.36861e+06	-56739.1	955.819	-29738.5	0.000000	0.000000	6.434911	0.018122	NaN	0.000000	0.001534	0.001751	28.081	0.049371	0.002043	24.1617	-75.6096	-164.248	0.037381	0.433303	-0.608621	-0.609891	0.018122	24.1617	-0.609183	-1.113976E+8	-1.626804E-10	NaN
362	1.000000	0.442586	7.36861e+06	-56739.1	955.819	-29738.5	0.000000	0.000000	6.442924	0.041199	NaN	0.000000	0.001494	0.001753	28.0811	0.043797	0.002084	21.0187	125.445	-168.447	0.069376	0.441315	-0.600608	-0.601879	0.041199	21.0187	-0.602078	-8.893611E+7	-4.632411E-10	NaN
362	1.000000	0.450596	7.36861e+06	-56739.1	955.818	-29738.5	0.000000	0.000000	6.450935	0.051689	NaN	0.000000	0.001452	0.001733	28.0811	0.102175	0.002019	50.5956	125.277	-166.219	0.036539	0.449275	-0.592598	-0.593918	0.051689	50.5956	-0.593364	-6.745912E+7	-7.662329E-10	NaN
362	1.000000	0.458606	7.36861e+06	-56739.1	955.819	-29738.5	0.000000	0.000000	6.458944	0.015038	NaN	0.000000	0.001484	0.001732	28.0815	0.035587	0.002106	16.8959	113.772	-165.244	0.029984	0.457313	-0.584588	-0.585880	0.015038	16.8959	-0.585255	-5.214786E+7	-2.883724E-10	NaN
362	1.000000	0.466566	7.36861e+06	-56739.1	955.818	-29738.5	0.000000	0.000000	6.466903	0.000926	NaN	0.000000	0.001495	0.001747	28.0813	0.071263	0.002061	34.5701	100.088	-164.715	-0.042724	0.465294	-0.576628	-0.577900	0.000926	34.5701	-0.576648	-3.966946E+7	-2.333545E-11	NaN
362	1.000000	0.474569	7.36861e+06	-56739.1	955.818	-29738.5	0.000000	0.000000	6.474904	-0.037909	NaN	0.000000	0.001586	0.001728	28.0814	0.045588	0.001946	23.4209	-125.73	-164.612	-0.080052	0.473274	-0.568625	-0.569919	-0.037909	23.4209	-0.567411	-2.957025E+7	1.282005E-9	NaN
362	1.000000	0.482596	7.36861e+06	-56739.1	955.817	-29738.5	0.000000	0.000000	6.482936	0.063190	NaN	0.000000	0.001586	0.001747	28.0812	0.072462	0.002087	34.7201	-3.449632	-164.101	0.000155	0.481317	-0.560597	-0.561876	0.063190	34.7201	-0.561962	-2.486117E+7	-2.541724E-9	NaN
362	1.000000	0.490612	7.36861e+06	-56739.1	955.818	-29738.5	0.000000	0.000000	6.490949	0.006203	NaN	0.000000	0.001515	0.001739	28.0811	0.101737	0.002085	48.8027	63.5266	-164.963	0.003729	0.489314	-0.552582	-0.553880	0.006203	48.8027	-0.552678	-1.849422E+7	-3.353788E-10	NaN
362	1.000000	0.498585	7.36861e+06	-56739.1	955.818	-29738.5	0.000000	0.000000	6.498927	0.100523	NaN	0.000000	0.001502	0.001729	28.0813	0.022896	0.002047	11.1833	45.8428	-163.519	-0.000539	0.497316	-0.544608	-0.545878	0.100523	11.1833	-0.551350	-1.772764E+7	-5.670437E-9	NaN
362	1.000000	0.506579	7.36861e+06	-56739.1	955.82	-29738.5	0.000000	0.000000	6.506916	0.021820	NaN	0.000000	0.001534	0.001726	28.0811	0.085185	0.001899	44.8666	-84.1824	-166.458	0.015465	0.505306	-0.536615	-0.537888	0.021820	44.8666	-0.536980	-1.120637E+7	-1.947133E-9	NaN
362	1.000000	0.514590	7.36861e+06	-56739.1	955.818	-29738.5	0.000000	0.000000	6.514927	-0.002268	NaN	0.000000	0.001533	0.001723	28.0814	0.041290	0.001957	21.0997	110.059	-163.884	-0.031665	0.513305	-0.528604	-0.529889	-0.002268	21.0997	-0.528523	-8.55198e+06	2.652044E-10	NaN
362	1.000000	0.522621	7.36861e+06	-56739.1	955.819	-29738.5	0.000000	0.000000	6.522958	0.012385	NaN	0.000000	0.001529	0.001737	28.0813	0.040918	0.001947	21.0181	-120.663	-164.3	0.057015	0.521275	-0.520573	-0.521919	0.012385	21.0181	-0.521015	-6.72527e+06	-1.841609E-9	NaN
362	1.000000	0.530602	7.36861e+06	-56739.1	955.819	-29738.5	0.000000	0.000000	6.530939	0.006310	NaN	0.000000	0.001522	0.001730	28.0812	0.059641	0.002039	29.2521	135.404	-165.352	0.026987	0.529294	-0.512592	-0.513900	0.006310	29.2521	-0.512754	-5.16132e+06	-1.222615E-9	NaN
362	1.000000	0.538620	7.36861e+06	-56739.1	955.818	-29738.5	0.000000	0.000000	6.538956	-0.015647	NaN	0.000000	0.001536	0.001743	28.0811	0.086126	0.002034	42.347	-137.819	-164.785	-0.019982	0.537301	-0.504574	-0.505893	-0.015647	42.347	-0.504297	-3.935e+06	3.976317E-9	NaN
362	1.000000	0.546619	7.36861e+06	-56739.1	955.82	-29738.5	0.000000	0.000000	6.546954	-0.041380	NaN	0.000000	0.001505	0.001710	28.0801	0.123520	0.001956	63.1548	-136.768	-165.227	-0.017261	0.545324	-0.496575	-0.497869	-0.041380	63.1548	-0.496084	-3.02249e+06	1.369082E-8	NaN
362	1.000000	0.554604	7.36861e+06	-56739.1	955.819	-29738.5	0.000000	0.000000	6.554940	-0.004124	NaN	0.000000	0.001506	0.001693	28.0798	0.093456	0.002064	45.27	-133.01	-162.06	-0.045470	0.553297	-0.488590	-0.489896	-0.004124	45.27	-0.488522	-2.36993e+06	1.739984E-9	NaN
362	1.000000	0.562640	7.36861e+06	-56739.1	955.818	-29738.5	0.000000	0.000000	6.562979	0.045552	NaN	0.000000	0.001561	0.001770	28.0799	0.063197	0.001838	34.383	4.965715	-165.488	0.031012	0.561272	-0.480554	-0.481922	0.045552	34.383	-0.481547	-1.89315e+06	-2.406173E-8	NaN
362	1.000000	0.570622	7.36861e+06	-56739.1	955.819	-29738.5	0.000000	0.000000	6.570960	0.021893	NaN	0.000000	0.001537	0.001690	28.0798	0.077062	0.001849	41.6873	157.611	-165.936	-0.010216	0.569305	-0.472572	-0.473889	0.021893	41.6873	-0.472966	-1.43546e+06	-1.525174E-8	NaN
362	1.000000	0.578657	7.36861e+06	-56739.1	955.819	-29738.5	0.000000	0.000000	6.578997	0.064811	NaN	0.000000	0.001521	0.001734	28.0799	0.025495	0.001924	13.2481	44.4846	-166.079	0.057556	0.577366	-0.464537	-0.465828	0.064811	13.2481	-0.468206	-1.23094e+06	-5.265173E-8	NaN
362	1.000000	0.586625	7.36861e+06	-56739.1	955.818	-29738.5	0.000000	0.000000	6.586962	0.000913	NaN	0.000000	0.001510	0.001729	28.0798	0.084443	0.002131	39.6206	32.1218	-165.31	-0.018709	0.585282	-0.456569	-0.457912	0.000913	39.6206	-0.456586	-845326	-1.080337E-9	NaN
362	1.000000	0.594628	7.36861e+06	-56739.1	955.819	-29738.5	0.000000	0.000000	6.594966	0.019950	NaN	0.000000	0.001542	0.001733	28.08	0.087930	0.002167	40.5802	2.764999	-164.236	0.045441	0.593261	-0.448566	-0.449933	0.019950	40.5802	-0.448935	-659687	-3.024089E-8	NaN
362	1.000000	0.602646	7.36861e+06	-56739.1	955.818	-29738.5	0.000000	0.000000	6.602982	-0.016818	NaN	0.000000	0.001558	0.001750	28.0799	0.098255	0.001871	52.5148	71.631	-166.941	-0.018045	0.601344	-0.440548	-0.441850	-0.016818	52.5148	-0.440308	-498546	3.373469E-8	NaN
362	1.000000	0.610666	7.36861e+06	-56739.1	955.819	-29738.5	0.000000	0.000000	6.611006	0.064957	NaN	0.000000	0.001560	0.001747	28.08	0.027831	0.001913	14.5502	-68.1278	-165.843	0.074545	0.609346	-0.432527	-0.433847	0.064957	14.5502	-0.435876	-431643	-1.504875E-7	NaN
362	1.000000	0.618679	7.36861e+06	-56739.1	955.818	-29738.5	0.000000	0.000000	6.619017	0.039396	NaN	0.000000	0.001598	0.001726	28.08	0.095798	0.002092	45.787	-51.6506	-163.056	0.034412	0.617365	-0.424515	-0.425828	0.039396	45.787	-0.425161	-304478	-1.293895E-7	NaN
362	1.000000	0.626639	7.36861e+06	-56739.1	955.819	-29738.5	0.000000	0.000000	6.626979	0.084632	NaN	0.000000	0.001630	0.001705	28.0799	0.057406	0.002057	27.9138	-178.1	-166.394	0.076488	0.625391	-0.416555	-0.417803	0.084632	27.9138	-0.418829	-247630	-3.417689E-7	NaN
362	1.000000	0.634645	7.36861e+06	-56739.1	955.819	-29738.5	0.000000	0.000000	6.634980	-0.029299	NaN	0.000000	0.001596	0.001729	28.08	0.123037	0.001982	62.0847	103.003	-163.127	-0.061839	0.633377	-0.408549	-0.409817	-0.029299	62.0847	-0.408195	-174876	1.675394E-7	NaN
362	1.000000	0.642641	7.36861e+06	-56739.1	955.819	-29738.5	0.000000	0.000000	6.642979	0.022456	NaN	0.000000	0.001574	0.001721	28.0801	0.026524	0.001954	13.5745	93.7362	-166.027	-0.006980	0.641338	-0.400552	-0.401856	0.022456	13.5745	-0.401793	-141762	-1.584047E-7	NaN
362	1.000000	0.650673	7.36861e+06	-56739.1	955.819	-29738.5	0.000000	0.000000	6.651009	-0.031591	NaN	0.000000	0.001557	0.001702	28.08	0.108041	0.002083	51.8751	178.236	-166.725	-0.001465	0.649391	-0.392521	-0.393803	-0.031591	51.8751	-0.392064	-102963	3.068156E-7	NaN
362	1.000000	0.658690	7.36861e+06	-56739.1	955.818	-29738.5	0.000000	0.000000	6.659029	0.031248	NaN	0.000000	0.001564	0.001732	28.0798	0.075770	0.001938	39.0996	43.7296	-164.569	-0.033397	0.657320	-0.384503	-0.385874	0.031248	39.0996	-0.385103	-81857.6	-3.817354E-7	NaN
362	1.000000	0.666676	7.36861e+06	-56739.1	955.819	-29738.5	0.000000	0.000000	6.667013	-0.006843	NaN	0.000000	0.001567	0.001735	28.08	0.051271	0.001982	25.8704	89.3842	-166.442	0.101622	0.665374	-0.376518	-0.377820	-0.006843	25.8704	-0.376320	-61240.2	1.117387E-7	NaN
362	1.000000	0.674677	7.36861e+06	-56739.1	955.818	-29738.5	0.000000	0.000000	6.675014	0.003661	NaN	0.000000	0.001583	0.001742	28.0801	0.055643	0.001970	28.251	114.262	-162.441	-0.070037	0.673372	-0.368517	-0.369822	0.003661	28.251	-0.368614	-47442	-7.715890E-8	NaN
362	1.000000	0.682702	7.36861e+06	-56739.1	955.819	-29738.5	0.000000	0.000000	6.683036	-0.056860	NaN	0.000000	0.001633	0.001741	28.0805	0.023665	0.002096	11.2926	-173.322	-163.177	-0.046725	0.681360	-0.360492	-0.361833	-0.056860	11.2926	-0.356716	-31940.1	1.780190E-6	NaN
362	1.000000	0.690677	7.36861e+06	-56739.1	955.818	-29738.5	0.000000	0.000000	6.691014	-0.004084	NaN	0.000000	0.001569	0.001714	28.0812	0.039498	0.002018	19.5733	-55.3236	-163.728	0.041084	0.689349	-0.352517	-0.353845	-0.004084	19.5733	-0.352360	-27620.9	1.478559E-7	NaN
362	1.000000	0.698697	7.36861e+06	-56739.1	955.818	-29738.5	0.000000	0.000000	6.699033	-0.012225	NaN	0.000000	0.001583	0.001767	28.0812	0.056073	0.001941	28.8928	13.9279	-171.516	-0.039456	0.697405	-0.344497	-0.345788	-0.012225	28.8928	-0.344180	-21009.9	5.818580E-7	NaN
362	1.000000	0.706695	7.36861e+06	-56739.1	955.819	-29738.5	0.000000	0.000000	6.707035	0.058329	NaN	0.000000	0.001575	0.001768	28.0815	0.033464	0.002071	16.1593	-21.5849	-165.408	0.019256	0.705433	-0.336498	-0.337761	0.058329	16.1593	-0.339206	-17781.6	-3.280282E-6	NaN
362	1.000000	0.714689	7.36861e+06	-56739.1	955.819	-29738.5	0.000000	0.000000	6.715028	0.054394	NaN	0.000000	0.001539	0.001717	28.0812	0.124100	0.002111	58.8009	177.147	-163.705	0.008933	0.713411	-0.328505	-0.329783	0.054394	58.8009	-0.329199	-12697.5	-4.283885E-6	NaN
362	1.000000	0.722681	7.36861e+06	-56739.1	955.818	-29738.5	0.000000	0.000000	6.723019	0.030918	NaN	0.000000	0.001546	0.001764	28.0827	0.036062	0.002047	17.6157	157.906	-165.63	0.061825	0.721324	-0.320513	-0.321870	0.030918	17.6157	-0.321829	-9898.06	-3.123594E-6	NaN
362	1.000000	0.730691	7.36861e+06	-56739.1	955.819	-29738.5	0.000000	0.000000	6.731028	-0.012007	NaN	0.000000	0.001568	0.001732	28.0814	0.098704	0.002084	47.358	107.662	-166.993	-0.041005	0.729405	-0.312502	-0.313789	-0.012007	47.358	-0.312312	-7165.59	1.675652E-6	NaN
362	1.000000	0.738730	7.36861e+06	-56739.1	955.819	-29738.5	0.000000	0.000000	6.739067	0.003998	NaN	0.000000	0.001554	0.001747	28.0815	0.043750	0.001894	23.101	-144.233	-168.531	0.048060	0.737378	-0.304464	-0.305815	0.003998	23.101	-0.304593	-5507.06	-7.259734E-7	NaN
362	1.000000	0.746687	7.36861e+06	-56739.1	955.819	-29738.5	0.000000	0.000000	6.747026	0.048750	NaN	0.000000	0.001564	0.001695	28.0815	0.068719	0.002068	33.2289	25.5212	-164.311	0.082656	0.745433	-0.296507	-0.297760	0.048750	33.2289	-0.297608	-4335.05	-1.124565E-5	NaN
362	1.000000	0.754702	7.36861e+06	-56739.1	955.82	-29738.5	0.000000	0.000000	6.755041	0.051686	NaN	0.000000	0.001593	0.001726	28.0813	0.068347	0.002074	32.9484	149.444	-168.233	0.070011	0.753422	-0.288492	-0.289772	0.051686	32.9484	-0.289668	-3298.61	-1.566901E-5	NaN
362	1.000000	0.762702	7.36861e+06	-56739.1	955.818	-29738.5	0.000000	0.000000	6.763042	0.056147	NaN	0.000000	0.001557	0.001734	28.0814	0.142837	0.002013	70.9579	77.5889	-166.664	0.015463	0.761417	-0.280491	-0.281776	0.056147	70.9579	-0.281085	-2450.92	-2.290844E-5	NaN
362	1.000000	0.770733	7.36861e+06	-56739.1	955.819	-29738.5	0.000000	0.000000	6.771073	0.071759	NaN	0.000000	0.001556	0.001738	28.0815	0.045061	0.001959	22.9966	-177.057	-167.247	-0.049158	0.769412	-0.272460	-0.273782	0.071759	22.9966	-0.274801	-1969.62	-3.643310E-5	NaN
362	1.000000	0.778725	7.36861e+06	-56739.1	955.818	-29738.5	0.000000	0.000000	6.779061	-0.001428	NaN	0.000000	0.001578	0.001750	28.0812	0.058281	0.001951	29.872	-22.6495	-166.346	0.090523	0.777417	-0.264469	-0.265777	-0.001428	29.872	-0.264433	-1370.05	1.042639E-6	NaN
362	1.000000	0.786713	7.36861e+06	-56739.1	955.818	-29738.5	0.000000	0.000000	6.787053	0.074549	NaN	0.000000	0.001558	0.001730	28.0814	0.085490	0.002069	41.32	136.475	-165.069	0.067532	0.785419	-0.256480	-0.257775	0.074549	41.32	-0.257834	-1085.63	-6.866936E-5	NaN
362	1.000000	0.794720	7.36861e+06	-56739.1	955.82	-29738.5	0.000000	0.000000	6.795058	0.035926	NaN	0.000000	0.001608	0.001740	28.0815	0.034090	0.001925	17.7084	-137.026	-167.434	0.011053	0.793397	-0.248474	-0.249796	0.035926	17.7084	-0.249996	-822.056	-4.370261E-5	NaN
362	1.000000	0.802734	7.36861e+06	-56739.1	955.82	-29738.5	0.000000	0.000000	6.803074	0.057379	NaN	0.000000	0.001576	0.001728	28.0816	0.049924	0.001979	25.2253	95.1467	-164.58	0.088827	0.801390	-0.240460	-0.241804	0.057379	25.2253	-0.242166	-621.355	-9.234542E-5	NaN
362	1.000000	0.810740	7.36861e+06	-56739.1	955.818	-29738.5	0.000000	0.000000	6.811078	0.008524	NaN	0.000000	0.001587	0.001729	28.0816	0.092366	0.002112	43.7319	120.966	-166.293	0.065348	0.809423	-0.232453	-0.233771	0.008524	43.7319	-0.232600	-440.055	-1.936990E-5	NaN
362	1.000000	0.818732	7.36861e+06	-56739.1	955.817	-29738.5	0.000000	0.000000	6.819071	0.043486	NaN	0.000000	0.001573	0.001734	28.0811	0.043494	0.002056	21.1584	36.7856	-166.924	0.003774	0.817421	-0.224461	-0.225773	0.043486	21.1584	-0.226003	-346.141	-0.000126	NaN
362	1.000000	0.826727	7.36861e+06	-56739.1	955.818	-29738.5	0.000000	0.000000	6.827067	0.079967	NaN	0.000000	0.001565	0.001726	28.0802	0.038188	0.002101	18.1782	52.1498	-164.151	0.056196	0.825417	-0.216467	-0.217777	0.079967	18.1782	-0.219766	-275.386	-0.000290	NaN
362	1.000000	0.834721	7.36861e+06	-56739.1	955.819	-29738.5	0.000000	0.000000	6.835060	0.049849	NaN	0.000000	0.001560	0.001737	28.0802	0.039420	0.001913	20.6083	141.777	-164.981	0.004699	0.833423	-0.208473	-0.209771	0.049849	20.6083	-0.210287	-193.849	-0.000257	NaN
362	1.000000	0.842772	7.36861e+06	-56739.1	955.818	-29738.5	0.000000	0.000000	6.843109	0.016905	NaN	0.000000	0.001567	0.001734	28.0804	0.014194	0.001992	7.126402	30.6023	-164.282	-0.023586	0.841473	-0.200422	-0.201721	0.016905	7.126402	-0.202201	-143.157	-0.000118	NaN
362	1.000000	0.850751	7.36861e+06	-56739.1	955.818	-29738.5	0.000000	0.000000	6.851090	0.032646	NaN	0.000000	0.001576	0.001709	28.0803	0.057272	0.002083	27.4893	157.232	-167.358	0.029424	0.849453	-0.192443	-0.193740	0.032646	27.4893	-0.193333	-102.224	-0.000319	NaN
362	1.000000	0.858734	7.36861e+06	-56739.1	955.818	-29738.5	0.000000	0.000000	6.859073	0.043173	NaN	0.000000	0.001530	0.001746	28.0803	0.075892	0.002005	37.8512	124.678	-166.73	0.053164	0.857433	-0.184460	-0.185761	0.043173	37.8512	-0.185315	-75.0666	-0.000575	NaN
362	1.000000	0.866726	7.36861e+06	-56739.1	955.819	-29738.5	0.000000	0.000000	6.867066	0.067705	NaN	0.000000	0.001570	0.001731	28.0803	0.044176	0.001957	22.5714	134.645	-164.715	0.004137	0.865429	-0.176468	-0.177765	0.067705	22.5714	-0.178717	-58.0254	-0.001167	NaN
362	1.000000	0.874754	7.36861e+06	-56739.1	955.817	-29738.5	0.000000	0.000000	6.875093	0.059437	NaN	0.000000	0.001585	0.001730	28.0803	0.082284	0.001998	41.191	-179.636	-166.504	-0.038629	0.873396	-0.168440	-0.169798	0.059437	41.191	-0.169522	-40.3007	-0.001475	NaN
362	1.000000	0.882765	7.36861e+06	-56739.1	955.818	-29738.5	0.000000	0.000000	6.883105	0.066414	NaN	0.000000	0.001581	0.001737	28.0801	0.056217	0.001965	28.6111	-88.5646	-167.927	-0.075267	0.881444	-0.160429	-0.161750	0.066414	28.6111	-0.162170	-29.9528	-0.002217	NaN
362	1.000000	0.890778	7.36861e+06	-56739.1	955.819	-29738.5	0.000000	0.000000	6.891118	0.075111	NaN	0.000000	0.001553	0.001724	28.0802	0.060763	0.002010	30.2259	-128.287	-165.438	0.056882	0.889446	-0.152416	-0.153748	0.075111	30.2259	-0.154280	-21.6576	-0.003468	NaN
362	1.000000	0.898792	7.36861e+06	-56739.1	955.817	-29738.5	0.000000	0.000000	6.899129	0.004212	NaN	0.000000	0.001565	0.001705	28.0802	0.055298	0.001945	28.4264	-105.822	-168.186	-0.011033	0.897447	-0.144402	-0.145746	0.004212	28.4264	-0.144513	-14.36	-0.000293	NaN
362	1.000000	0.906774	7.36861e+06	-56739.1	955.82	-29738.5	0.000000	0.000000	6.907113	0.065742	NaN	0.000000	0.001560	0.001753	28.0801	0.067337	0.001924	35.0038	105.218	-166.338	0.038051	0.905499	-0.136420	-0.137695	0.065742	35.0038	-0.137829	-10.7657	-0.006107	NaN
362	1.000000	0.914759	7.36861e+06	-56739.1	955.819	-29738.5	0.000000	0.000000	6.915097	0.036695	NaN	0.000000	0.001547	0.001753	28.0802	0.036431	0.002172	16.774	-151.431	-163.441	0.016128	0.913459	-0.128435	-0.129735	0.036695	16.774	-0.130076	-7.646787	-0.004799	NaN
362	1.000000	0.922792	7.36861e+06	-56739.1	955.818	-29738.5	0.000000	0.000000	6.923130	0.025190	NaN	0.000000	0.001541	0.001715	28.0801	0.100761	0.001974	51.0546	-9.512723	-165.87	-0.063375	0.921468	-0.120402	-0.121726	0.025190	51.0546	-0.120772	-5.007770	-0.005030	NaN
362	1.000000	0.930784	7.36861e+06	-56739.1	955.818	-29738.5	0.000000	0.000000	6.931124	0.059218	NaN	0.000000	0.001539	0.001713	28.0803	0.047939	0.001996	24.0123	-66.6307	-166.215	0.012918	0.929475	-0.112409	-0.113719	0.059218	24.0123	-0.114259	-3.688138	-0.016056	NaN
362	1.000000	0.938771	7.36861e+06	-56739.1	955.819	-29738.5	0.000000	0.000000	6.939107	-0.015946	NaN	0.000000	0.001567	0.001716	28.0804	0.117306	0.001877	62.5042	-76.698	-162.9	0.077585	0.937479	-0.104423	-0.105714	-0.015946	62.5042	-0.104232	-2.262254	0.007049	NaN
362	1.000000	0.946805	7.36861e+06	-56739.1	955.817	-29738.5	0.000000	0.000000	6.947140	-0.048882	NaN	0.000000	0.001541	0.001711	28.0801	0.025863	0.002007	12.8838	-139.526	-166.354	0.026679	0.945479	-0.096389	-0.097715	-0.048882	12.8838	-0.093543	-1.306405	0.037418	NaN
362	1.000000	0.954767	7.36861e+06	-56739.1	955.819	-29738.5	0.000000	0.000000	6.955102	-0.045830	NaN	0.000000	0.001567	0.001715	28.0804	0.161084	0.002047	78.6786	151.93	-162.351	-0.011613	0.953494	-0.088427	-0.089700	-0.045830	78.6786	-0.087990	-0.969092	0.047292	NaN
362	1.000000	0.962813	7.36861e+06	-56739.1	955.818	-29738.5	0.000000	0.000000	6.963152	0.038862	NaN	0.000000	0.001576	0.001736	28.0815	0.083008	0.001907	43.5336	58.3576	-165.346	0.014821	0.961438	-0.080381	-0.081756	0.038862	43.5336	-0.081050	-0.657433	-0.059111	NaN
362	1.000000	0.970791	7.36861e+06	-56739.1	955.819	-29738.5	0.000000	0.000000	6.971130	0.040473	NaN	0.000000	0.001570	0.001733	28.0814	0.125502	0.002102	59.7098	69.3458	-163.437	-0.071003	0.969450	-0.072403	-0.073743	0.040473	59.7098	-0.072911	-0.407462	-0.099330	NaN
362	1.000000	0.978809	7.36861e+06	-56739.1	955.819	-29738.5	0.000000	0.000000	6.979144	-0.047627	NaN	0.000000	0.001592	0.001728	28.0815	0.014208	0.001996	7.118881	100.467	-166.366	0.016059	0.977511	-0.064385	-0.065683	-0.047627	7.118881	-0.059367	-0.172705	0.275771	NaN
362	1.000000	0.986799	7.36861e+06	-56739.1	955.818	-29738.5	0.000000	0.000000	6.987137	0.009776	NaN	0.000000	0.001581	0.001772	28.0812	0.081371	0.002043	39.8305	-125.615	-168.25	-0.052591	0.985474	-0.056394	-0.057720	0.009776	39.8305	-0.056578	-0.143314	-0.068215	NaN
362	1.000000	0.994786	7.36861e+06	-56739.1	955.818	-29738.5	0.000000	0.000000	6.995123	0.005712	NaN	0.000000	0.001589	0.001742	28.0818	0.048579	0.002070	23.466	-45.7348	-165.259	-0.036845	0.993455	-0.048408	-0.049738	0.005712	23.466	-0.048590	-0.082700	-0.069074	NaN
362	1.000000	1.002811	7.36861e+06	-56739.1	955.818	-29738.5	0.000000	0.000000	7.003147	-0.010548	NaN	0.000000	0.001659	0.001703	28.0814	0.118047	0.001979	59.6487	-141.028	-165.001	0.013594	1.001471	-0.040383	-0.041723	-0.010548	59.6487	-0.040250	-0.046021	0.229199	NaN
362	1.000000	1.010812	7.36861e+06	-56739.1	955.818	-29738.5	0.000000	0.000000	7.011151	0.056069	NaN	0.000000	0.001654	0.001696	28.081	0.111108	0.002056	54.0474	-108.445	-167.9	0.024778	1.009509	-0.032382	-0.033685	0.056069	54.0474	-0.033160	-0.028298	-1.981371	NaN
362	1.000000	1.018813	7.36861e+06	-56739.1	955.817	-29738.5	0.000000	0.000000	7.019152	0.044154	NaN	0.000000	0.001617	0.001781	28.0812	0.043749	0.002118	20.6527	-64.9039	-167.349	-0.035921	1.017532	-0.024381	-0.025662	0.044154	20.6527	-0.025984	-0.017906	-2.465949	NaN
362	1.000000	1.026841	7.36861e+06	-56739.1	955.818	-29738.5	0.000000	0.000000	7.027179	0.013494	NaN	0.000000	0.001604	0.001765	28.0812	0.056745	0.001984	28.5957	-97.6536	-166.708	-0.021550	1.025479	-0.016353	-0.017715	0.013494	28.5957	-0.016706	-0.010324	-1.307075	NaN
362	1.000000	1.034836	7.36861e+06	-56739.1	955.817	-29738.5	0.000000	0.000000	7.035173	0.003824	NaN	0.000000	0.001677	0.001702	28.0815	0.017614	0.001902	9.263255	-135.632	-166.694	-0.039660	1.033497	-0.008358	-0.009697	0.003824	9.263255	-0.008667	-0.005621	-0.680413	NaN
362	1.000000	1.042833	7.36861e+06	-56739.1	955.817	-29738.5	0.000000	0.000000	7.043169	-0.026155	NaN	0.000000	0.001625	0.001703	28.0813	0.161058	0.002036	79.0908	-25.2698	-162.235	-0.065370	1.041541	-0.000361	-0.001653	-0.026155	79.0908	-0.000113	-8.410794E-5	310.972	NaN
362	1.000000	1.050759	7.36861e+06	-56739.1	955.818	-29738.6	0.000000	0.000000	7.051389	7.122139	NaN	0.000000	0.001622	0.001748	28.0814	7.604233	0.001840	4132.87	12.6929	-172.156	6.142443	1.049451	0.007565	0.006258	7.122139	4132.87	0.006272	0.005325	1337.53	51745.4
362	2.000000	1.053532	7.36861e+06	-56739.1	955.817	-29738.5	0.000000	0.000000	7.054304	10.5726	NaN	0.000000	0.001586	0.001697	28.0815	10.1744	0.001673	6082.45	6.658031	-171.97	10.744	1.053208	0.010339	0.010014	10.5726	6082.45	0.009035	0.008129	1300.68	61637.5
362	2.000000	1.055525	7.36861e+06	-56739.1	955.818	-29738.6	0.000000	0.000000	7.056476	14.9105	NaN	0.000000	0.001587	0.001714	28.0813	12.9088	0.001695	7614.37	8.749189	-175.77	14.6589	1.055199	0.012332	0.012006	14.9105	7614.37	0.010863	0.010156	1468.11	69030.4
362	2.000000	1.057455	7.36861e+06	-56739.1	955.818	-29738.6	0.000000	0.000000	7.058506	17.3539	NaN	0.000000	0.001582	0.001735	28.0813	14.4804	0.001792	8078.93	7.234096	-174.838	16.1239	1.057179	0.014261	0.013985	17.3539	8078.93	0.012650	0.012278	1413.41	66613.4
362	2.000000	1.059457	7.36861e+06	-56739.1	955.819	-29738.6	0.000000	0.000000	7.060652	20.8674	NaN	0.000000	0.001583	0.001678	28.0813	17.7698	0.001825	9735.74	9.240041	179.301	19.376	1.059152	0.016263	0.015958	20.8674	9735.74	0.014655	0.014829	1407.25	73045.5
362	2.000000	1.061387	7.36861e+06	-56739.1	955.818	-29738.6	0.000000	0.000000	7.062796	26.0548	NaN	0.000000	0.001586	0.001729	28.0818	18.4721	0.001771	10428.5	0.875157	-170.567	23.6228	1.061094	0.018193	0.017900	26.0548	10428.5	0.016320	0.017085	1524.97	72892.4
362	2.000000	1.063510	7.36861e+06	-56739.1	955.819	-29738.6	0.000000	0.000000	7.065047	29.1769	NaN	0.000000	0.001596	0.001715	28.0812	22.02	0.001737	12677.1	6.247174	-179.182	31.2763	1.063123	0.020316	0.019929	29.1769	12677.1	0.018590	0.020374	1432.04	81143
362	2.000000	1.065494	7.36861e+06	-56739.1	955.817	-29738.6	0.000000	0.000000	7.067228	33.9654	NaN	0.000000	0.001612	0.001700	28.0796	23.6295	0.001878	12580.8	7.669977	-176.912	35.0721	1.065087	0.022300	0.021893	33.9654	12580.8	0.020275	0.022977	1478.24	75829.2
362	2.000000	1.067412	7.36861e+06	-56739.1	955.819	-29738.6	0.000000	0.000000	7.069433	40.927	NaN	0.000000	0.001615	0.001705	28.0797	25.4967	0.001802	14151	4.846921	-177.82	40.0633	1.067069	0.024218	0.023875	40.927	14151	0.022049	0.025865	1582.31	80389.7
362	2.000000	1.069390	7.36861e+06	-56739.1	955.818	-29738.6	0.000000	0.000000	7.071556	44.4577	NaN	0.000000	0.001610	0.001715	28.0798	27.8479	0.001896	14686.3	4.788138	-177.386	42.1953	1.069034	0.026196	0.025841	44.4577	14686.3	0.023926	0.029090	1528.29	78670.8
362	2.000000	1.071384	7.36861e+06	-56739.1	955.818	-29738.6	0.000000	0.000000	7.073860	51.9801	NaN	0.000000	0.001615	0.001714	28.08	28.9894	0.001856	15623	3.395717	-177.639	49.8783	1.071113	0.028191	0.027920	51.9801	15623	0.025695	0.032293	1609.65	79430
362	2.000000	1.073416	7.36861e+06	-56739.1	955.818	-29738.6	0.000000	0.000000	7.076082	56.6033	NaN	0.000000	0.001606	0.001699	28.0804	31.4716	0.001807	17419.2	4.635777	179.913	55.3114	1.073084	0.030222	0.029890	56.6033	17419.2	0.027785	0.036278	1560.28	83556.7
362	2.000000	1.075424	7.36861e+06	-56739.1	955.818	-29738.6	0.000000	0.000000	7.078232	60.0564	NaN	0.000000	0.001599	0.001734	28.08	33.1655	0.001772	18716.5	4.580371	179.139	59.9608	1.075167	0.032230	0.031973	60.0564	18716.5	0.029824	0.040379	1487.31	85098.1
362	2.000000	1.077388	7.36861e+06	-56739.1	955.818	-29738.6	0.000000	0.000000	7.080540	68.4071	NaN	0.000000	0.001614	0.001764	28.0799	34.8978	0.001687	20684.5	6.463334	176.557	67.8247	1.077132	0.034195	0.033938	68.4071	20684.5	0.031714	0.044372	1541.68	89714.7
362	2.000000	1.079396	7.36861e+06	-56739.1	955.818	-29738.6	0.000000	0.000000	7.082882	76.5295	NaN	0.000000	0.001593	0.001749	28.08	37.0402	0.001700	21793.2	5.125780	177.626	75.1299	1.079078	0.036202	0.035884	76.5295	21793.2	0.033569	0.048466	1579.04	90443.1
362	2.000000	1.081340	7.36861e+06	-56739.1	955.817	-29738.6	0.000000	0.000000	7.085197	85.5664	NaN	0.000000	0.001572	0.001777	28.0801	37.9343	0.001740	21807.5	5.770205	177.867	83.0104	1.080986	0.038146	0.037792	85.5664	21807.5	0.035203	0.052220	1638.58	87189
362	2.000000	1.083395	7.36861e+06	-56739.1	955.818	-29738.6	0.000000	0.000000	7.087449	90.3528	NaN	0.000000	0.001644	0.001754	28.0801	41.4054	0.001797	23038.9	5.306014	176.97	90.93	1.083085	0.040201	0.039891	90.3528	23038.9	0.037260	0.057138	1581.3	88058.3
362	2.000000	1.085416	7.36861e+06	-56739.1	955.819	-29738.6	0.000000	0.000000	7.089916	101.209	NaN	0.000000	0.001587	0.001736	28.0803	43.6627	0.001812	24102.1	5.470406	177.102	100.103	1.085052	0.042222	0.041858	101.209	24102.1	0.039072	0.061653	1641.59	88685
362	2.000000	1.087364	7.36861e+06	-56739.1	955.818	-29738.6	0.000000	0.000000	7.092316	112.159	NaN	0.000000	0.001603	0.001712	28.0801	44.669	0.001798	24845.8	0.521161	-178.404	110.256	1.087016	0.044171	0.043822	112.159	24845.8	0.040785	0.066073	1697.51	88311.2
362	2.000000	1.089374	7.36861e+06	-56739.1	955.818	-29738.6	0.000000	0.000000	7.094623	119.379	NaN	0.000000	0.001670	0.001748	28.0801	47.6448	0.001769	26928.1	4.480117	176.76	117.915	1.089093	0.046180	0.045899	119.379	26928.1	0.042855	0.071616	1666.94	91933.6
362	2.000000	1.091338	7.36861e+06	-56739.1	955.818	-29738.6	0.000000	0.000000	7.097001	129.471	NaN	0.000000	0.001648	0.001741	28.0801	48.104	0.001798	26755	1.075119	-179.67	126.036	1.091050	0.048144	0.047857	129.471	26755	0.044515	0.076215	1698.75	88543.4
362	2.000000	1.093308	7.36861e+06	-56739.1	955.818	-29738.6	0.000000	0.000000	7.099269	136.704	NaN	0.000000	0.001654	0.001730	28.0804	50.2284	0.001865	26935.3	0.357861	-179.082	133.078	1.093090	0.050114	0.049896	136.704	26935.3	0.046308	0.081344	1680.57	86284.6
362	2.000000	1.095387	7.36861e+06	-56739.1	955.818	-29738.6	0.000000	0.000000	7.101785	147.315	NaN	0.000000	0.001668	0.001738	28.0803	53.1998	0.001825	29147	7.630198	173.761	146.75	1.095012	0.052194	0.051819	147.315	29147	0.048403	0.087541	1682.82	90003.9
362	2.000000	1.097331	7.36861e+06	-56739.1	955.819	-29738.6	0.000000	0.000000	7.104191	158.557	NaN	0.000000	0.001643	0.001710	28.0812	54.142	0.001710	31657.1	5.794169	173.843	155.592	1.097034	0.054137	0.053840	158.557	31657.1	0.050381	0.093593	1694.11	94541.5
362	2.000000	1.099348	7.36861e+06	-56739.1	955.819	-29738.6	0.000000	0.000000	7.106700	170.494	NaN	0.000000	0.001653	0.001712	28.0815	56.608	0.001800	31440.8	4.441238	176.184	169.412	1.099021	0.056154	0.055827	170.494	31440.8	0.052087	0.098974	1722.61	91307.2
362	2.000000	1.101354	7.36861e+06	-56739.1	955.818	-29738.6	0.000000	0.000000	7.109101	180.109	NaN	0.000000	0.001620	0.001721	28.0816	58.291	0.001909	30541.1	9.640920	171.609	180.175	1.100981	0.058161	0.057788	180.109	30541.1	0.053738	0.104315	1726.58	86394.1
362	2.000000	1.103373	7.36861e+06	-56739.1	955.818	-29738.6	0.000000	0.000000	7.111558	190.73	NaN	0.000000	0.001615	0.001729	28.0816	61.1728	0.001756	34834.7	6.384852	172.471	189.181	1.102999	0.060180	0.059806	190.73	34834.7	0.056073	0.112105	1701.35	95054.3
362	2.000000	1.105391	7.36861e+06	-56739.1	955.818	-29738.6	0.000000	0.000000	7.113985	200.699	NaN	0.000000	0.001635	0.001741	28.0814	62.9436	0.001759	35784.9	3.326652	175.84	200.081	1.105006	0.062197	0.061812	200.699	35784.9	0.057991	0.118703	1690.76	94894.7
362	2.000000	1.107310	7.36861e+06	-56739.1	955.819	-29738.6	0.000000	0.000000	7.116547	216.32	NaN	0.000000	0.001618	0.001742	28.0814	64.2414	0.001745	36816.1	3.698561	174.739	213.1	1.107005	0.064116	0.063811	216.32	36816.1	0.059710	0.124769	1733.77	95226.4
362	2.000000	1.109313	7.36861e+06	-56739.1	955.818	-29738.6	0.000000	0.000000	7.118956	226.204	NaN	0.000000	0.001623	0.001703	28.0818	67.3927	0.001754	38423	4.427339	174.319	222.703	1.108950	0.066119	0.065756	226.204	38423	0.061704	0.131988	1713.82	96626.7
362	2.000000	1.111330	7.36861e+06	-56739.1	955.818	-29738.6	0.000000	0.000000	7.121419	237.016	NaN	0.000000	0.001565	0.001731	28.0814	68.6664	0.001798	38182.9	5.292569	172.712	234.764	1.110970	0.068136	0.067776	237.016	38182.9	0.063481	0.138586	1710.25	93709.3
362	2.000000	1.113323	7.36861e+06	-56739.1	955.818	-29738.6	0.000000	0.000000	7.123709	244.231	NaN	0.000000	0.001598	0.001737	28.0819	70.1821	0.001689	41564.6	0.697305	176.482	240.844	1.113037	0.070130	0.069844	244.231	41564.6	0.065723	0.147125	1660.03	99004.3
362	2.000000	1.115376	7.36861e+06	-56739.1	955.818	-29738.6	0.000000	0.000000	7.126343	258.362	NaN	0.000000	0.001553	0.001688	28.0814	73.4059	0.001884	38969.2	4.578228	174.031	256.405	1.115044	0.072183	0.071851	258.362	38969.2	0.067210	0.152925	1689.47	91044.8
362	2.000000	1.117339	7.36861e+06	-56739.1	955.819	-29738.6	0.000000	0.000000	7.128825	270.979	NaN	0.000000	0.001633	0.001729	28.0814	75.0448	0.001785	42033.9	5.983072	171.338	269.169	1.117030	0.074146	0.073836	270.979	42033.9	0.069311	0.161295	1680.03	95623.2
362	2.000000	1.119366	7.36861e+06	-56739.1	955.818	-29738.6	0.000000	0.000000	7.131440	285.277	NaN	0.000000	0.001607	0.001705	28.0818	77.3268	0.001817	42555.5	5.258471	172.304	283.185	1.118971	0.076172	0.075777	285.277	42555.5	0.071144	0.168774	1690.29	94640.2
362	2.000000	1.121307	7.36861e+06	-56739.1	955.818	-29738.6	0.000000	0.000000	7.134038	301.24	NaN	0.000000	0.001572	0.001716	28.0814	78.4621	0.001722	45569.1	6.654528	170.691	297.994	1.121031	0.078113	0.077837	301.24	45569.1	0.073155	0.177160	1700.39	98914.8
362	2.000000	1.123367	7.36861e+06	-56739.1	955.819	-29738.6	0.000000	0.000000	7.136593	313.271	NaN	0.000000	0.001576	0.001729	28.0815	81.2057	0.001908	42550.3	10.4723	167.66	312.261	1.122810	0.080174	0.079616	313.271	42550.3	0.074652	0.183524	1706.98	90746.4
362	2.000000	1.125399	7.36861e+06	-56739.1	955.818	-29738.6	0.000000	0.000000	7.139108	325.014	NaN	0.000000	0.001567	0.001727	28.0814	82.0097	0.001828	44870.1	3.460359	173.558	325.383	1.125132	0.082205	0.081938	325.014	44870.1	0.076773	0.192724	1686.42	93381.9
362	2.000000	1.127294	7.36861e+06	-56739.1	955.817	-29738.6	0.000000	0.000000	7.141734	342.775	NaN	0.000000	0.001599	0.001745	28.0815	82.8022	0.001752	47274	2.465125	173.91	339.824	1.127051	0.084101	0.083858	342.775	47274	0.078663	0.201100	1704.49	96313.8
362	2.000000	1.129320	7.36861e+06	-56739.1	955.818	-29738.6	0.000000	0.000000	7.143954	347.502	NaN	0.000000	0.001602	0.001738	28.0816	85.9179	0.001745	49244.5	-0.015971	175.811	344.951	1.129040	0.086126	0.085846	347.502	49244.5	0.080833	0.210928	1647.5	97963.4
362	2.000000	1.131237	7.36861e+06	-56739.1	955.818	-29738.6	0.000000	0.000000	7.147127	378.018	NaN	0.000000	0.001585	0.001719	28.0802	87.4184	0.001919	45559.4	6.301383	170.752	372.498	1.130958	0.088043	0.087765	378.018	45559.4	0.081820	0.215467	1754.41	89672.9
362	2.000000	1.133241	7.36861e+06	-56739.1	955.818	-29738.6	0.000000	0.000000	7.149614	389.765	NaN	0.000000	0.001577	0.001709	28.0806	90.6404	0.001858	48771.2	4.524435	172.153	386.241	1.132872	0.090047	0.089678	389.765	48771.2	0.084053	0.225906	1725.34	93750.3
362	2.000000	1.135346	7.36861e+06	-56739.1	955.816	-29738.6	0.000000	0.000000	7.152472	408.076	NaN	0.000000	0.001573	0.001649	28.0803	92.011	0.001697	54221.8	7.111330	169.471	407.611	1.134947	0.092153	0.091753	408.076	54221.8	0.086508	0.237648	1717.15	101620
362	2.000000	1.137293	7.36861e+06	-56739.1	955.817	-29738.6	0.000000	0.000000	7.155122	425.145	NaN	0.000000	0.001600	0.001701	28.0804	93.1047	0.001716	54260.2	3.160459	172.842	422.396	1.137001	0.094100	0.093807	425.145	54260.2	0.088223	0.246017	1728.11	99947.4
362	2.000000	1.139375	7.36861e+06	-56739.1	955.818	-29738.6	0.000000	0.000000	7.157188	424.769	NaN	0.000000	0.001593	0.001731	28.0803	96.988	0.001784	54367	1.688732	173.571	426.809	1.139210	0.096181	0.096016	424.769	54367	0.090321	0.256438	1656.42	98088.3
362	2.000000	1.141278	7.36861e+06	-56739.1	955.817	-29738.6	0.000000	0.000000	7.160117	449.712	NaN	0.000000	0.001632	0.001761	28.0802	98.2713	0.001761	55799.8	5.891077	168.986	447.046	1.141042	0.098085	0.097848	449.712	55799.8	0.092040	0.265126	1696.22	99010.2
362	2.000000	1.143315	7.36861e+06	-56739.1	955.818	-29738.6	0.000000	0.000000	7.163092	472.51	NaN	0.000000	0.001619	0.001745	28.0805	99.7994	0.001751	57009.9	3.343201	171.993	470.871	1.142967	0.100121	0.099773	472.51	57009.9	0.093905	0.274704	1720.07	99378.1
362	2.000000	1.145283	7.36861e+06	-56739.1	955.818	-29738.6	0.000000	0.000000	7.165938	493.847	NaN	0.000000	0.001622	0.001714	28.0803	102.353	0.001821	56213.8	4.240518	171.327	490.311	1.144933	0.102089	0.101740	493.847	56213.8	0.095500	0.283025	1744.89	96539.3
362	2.000000	1.147303	7.36861e+06	-56739.1	955.818	-29738.6	0.000000	0.000000	7.168545	508.125	NaN	0.000000	0.001605	0.001767	28.0805	104.377	0.001735	60143.1	9.160783	165.482	505.71	1.147085	0.104109	0.103892	508.125	60143.1	0.097773	0.295079	1721.99	101156
362	2.000000	1.149305	7.36861e+06	-56739.1	955.818	-29738.6	0.000000	0.000000	7.170798	514.206	NaN	0.000000	0.001619	0.001754	28.0803	106.354	0.001799	59115	4.083383	170.671	513.434	1.149083	0.106112	0.105889	514.206	59115	0.099588	0.304874	1686.62	97816.2
362	2.000000	1.150221	7.36861e+06	-56739.1	955.817	-29738.6	0.000000	0.000000	7.172606	535.906	NaN	0.000000	0.001627	0.001740	28.0806	106.873	0.001886	56669.1	3.748580	171.854	529.574	1.149839	0.107027	0.106645	535.906	56669.1	0.099934	0.306761	1746.98	93480.1