File: remote_trans/data/nanoindenter/0828-1/data/Data_2025-08-06,11h17m57s/2025-07-22_16-23-58_1_385.txt
2025-07-22, 16:23:58, 1
Index	Phase	Displacement	Time	Pos X	Pos Y	Pos Z	Rot A	Rot B	Piezo Z	Force A	Force B	Gripper	Voltage A	Voltage B	Temperature	Amplitude force	Amplitude pos	Stiffness	Phase shift	Phase excitation	Force A raw	Displacement raw	HMax	HMax raw	Real Force	Real Stiffness	Contact Depth	Area	Hardness	Reduced Mod.
[#]	[#]	[um]	[s]	[um]	[um]	[um]	[m°]	[m°]	[um]	[uN]	[uN]	[V]	[V]	[V]	[°C]	[uN]	[um]	[N/m]	[°]	[°]	[uN]	[um]	[um]	[um]	[uN]	[N/m]	[um]	[um^2]	[MPa]	[MPa]
385	1.000000	0.002479	7.36883e+06	-57839.1	1005.82	-29739.9	0.000000	0.000000	6.002784	0.029146	NaN	0.000000	0.001618	0.001646	28.0786	0.030765	0.000951	32.3438	48.0251	-165.202	0.060071	0.001242	-1.293745	-1.294983	0.029146	32.3438	-1.294421	-2.012970E+17	-1.447896E-19	NaN
385	1.000000	0.012562	7.36883e+06	-57839.1	1005.82	-29739.9	0.000000	0.000000	6.012866	0.003606	NaN	0.000000	0.001600	0.001585	28.0785	0.031622	0.001322	23.9254	-177.246	26.2537	-0.025311	0.011177	-1.283662	-1.285047	0.003606	23.9254	-1.283775	-1.450611E+17	-2.485968E-20	NaN
385	1.000000	0.022439	7.36883e+06	-57839.1	1005.82	-29739.9	0.000000	0.000000	6.022740	-0.054578	NaN	0.000000	0.001633	0.001602	28.0788	0.155218	0.001649	94.1208	-2.005407	-164.577	-0.022020	0.021180	-1.273785	-1.275044	-0.054578	94.1208	-1.273350	-1.052411E+17	5.185999E-19	NaN
385	1.000000	0.032447	7.36883e+06	-57839.1	1005.82	-29739.9	0.000000	0.000000	6.032751	0.015795	NaN	0.000000	0.001603	0.001617	28.0787	0.116889	0.001967	59.4341	-133.896	8.079633	0.039665	0.031102	-1.263777	-1.265123	0.015795	59.4341	-1.263977	-7.885880E+16	-2.002975E-19	NaN
385	1.000000	0.042425	7.36883e+06	-57839.1	1005.82	-29739.9	0.000000	0.000000	6.042730	0.036812	NaN	0.000000	0.001596	0.001647	28.0788	0.079217	0.001765	44.8885	110.498	-166.144	0.088517	0.041112	-1.253799	-1.255113	0.036812	44.8885	-1.254414	-5.874355E+16	-6.266630E-19	NaN
385	1.000000	0.052482	7.36883e+06	-57839.1	1005.82	-29739.9	0.000000	0.000000	6.052786	0.008754	NaN	0.000000	0.001605	0.001608	28.0792	0.018988	0.001827	10.3924	-76.7761	13.8707	0.141174	0.051118	-1.243742	-1.245106	0.008754	10.3924	-1.244374	-4.311759E+16	-2.030167E-19	NaN
385	1.000000	0.062442	7.36883e+06	-57839.1	1005.82	-29739.9	0.000000	0.000000	6.062747	0.040065	NaN	0.000000	0.001602	0.001603	28.0784	0.070967	0.002132	33.2859	-141.14	-166.284	0.049558	0.061154	-1.233782	-1.235070	0.040065	33.2859	-1.234685	-3.199088E+16	-1.252386E-18	NaN
385	1.000000	0.072445	7.36883e+06	-57839.1	1005.82	-29739.9	0.000000	0.000000	6.072749	0.008230	NaN	0.000000	0.001569	0.001579	28.0791	0.055714	0.002077	26.8237	-110.822	15.2785	0.074598	0.071086	-1.223779	-1.225138	0.008230	26.8237	-1.224009	-2.302301E+16	-3.574813E-19	NaN
385	1.000000	0.082417	7.36883e+06	-57839.1	1005.82	-29739.9	0.000000	0.000000	6.082723	0.039399	NaN	0.000000	0.001596	0.001629	28.0787	0.147757	0.001844	80.1363	167.395	-163.476	0.042156	0.081122	-1.213807	-1.215102	0.039399	80.1363	-1.214176	-1.700359E+16	-2.317081E-18	NaN
385	1.000000	0.092460	7.36883e+06	-57839.1	1005.82	-29739.9	0.000000	0.000000	6.092765	0.036267	NaN	0.000000	0.001604	0.001646	28.0793	0.095497	0.001995	47.8612	69.8692	11.1739	0.069545	0.091139	-1.203765	-1.205085	0.036267	47.8612	-1.204333	-1.255354E+16	-2.888983E-18	NaN
385	1.000000	0.102479	7.36883e+06	-57839.1	1005.82	-29739.9	0.000000	0.000000	6.102781	-0.022467	NaN	0.000000	0.001539	0.001589	28.079	0.049735	0.002140	23.2424	65.1301	-167.494	-0.027870	0.101129	-1.193745	-1.195095	-0.022467	23.2424	-1.193020	-8.856858E+15	2.536721E-18	NaN
385	1.000000	0.112477	7.36883e+06	-57839.1	1005.82	-29739.9	0.000000	0.000000	6.112782	0.037308	NaN	0.000000	0.001560	0.001577	28.0802	0.107991	0.002021	53.4451	139.316	13.506	0.098037	0.111097	-1.183747	-1.185127	0.037308	53.4451	-1.184271	-6.762093E+15	-5.517280E-18	NaN
385	1.000000	0.122440	7.36883e+06	-57839.1	1005.82	-29739.9	0.000000	0.000000	6.122743	0.003062	NaN	0.000000	0.001528	0.001602	28.0802	0.041420	0.001979	20.9319	-108.798	-166.011	-0.019237	0.121159	-1.173785	-1.175065	0.003062	20.9319	-1.173894	-4.909845E+15	-6.236231E-19	NaN
385	1.000000	0.132478	7.36883e+06	-57839.1	1005.82	-29739.9	0.000000	0.000000	6.132785	0.096369	NaN	0.000000	0.001565	0.001577	28.0816	0.123110	0.001805	68.2039	-169.97	14.7128	0.022505	0.131132	-1.163746	-1.165092	0.096369	68.2039	-1.164806	-3.709215E+15	-2.598096E-17	NaN
385	1.000000	0.142492	7.36883e+06	-57839.1	1005.82	-29739.9	0.000000	0.000000	6.142798	0.045759	NaN	0.000000	0.001565	0.001620	28.0801	0.105279	0.001998	52.6926	86.5896	-164.42	0.064574	0.141160	-1.153732	-1.155064	0.045759	52.6926	-1.154383	-2.688931E+15	-1.701763E-17	NaN
385	1.000000	0.152483	7.36883e+06	-57839.1	1005.82	-29739.9	0.000000	0.000000	6.152789	0.057912	NaN	0.000000	0.001548	0.001596	28.0799	0.044273	0.001990	22.2492	-106.204	14.2541	0.025461	0.151101	-1.143741	-1.145124	0.057912	22.2492	-1.145693	-2.056270E+15	-2.816354E-17	NaN
385	1.000000	0.162466	7.36883e+06	-57839.1	1005.82	-29739.9	0.000000	0.000000	6.162769	0.003764	NaN	0.000000	0.001531	0.001612	28.0799	0.020722	0.001946	10.6464	-112.138	-162.97	-0.089522	0.161178	-1.133759	-1.135046	0.003764	10.6464	-1.134024	-1.434142E+15	-2.624794E-18	NaN
385	1.000000	0.172505	7.36883e+06	-57839.1	1005.82	-29739.9	0.000000	0.000000	6.172807	-0.023352	NaN	0.000000	0.001522	0.001608	28.0801	0.091456	0.001914	47.7806	-111.519	15.2788	0.063981	0.171100	-1.123720	-1.125124	-0.023352	47.7806	-1.123353	-1.031474E+15	2.263928E-17	NaN
385	1.000000	0.182502	7.36883e+06	-57839.1	1005.82	-29739.9	0.000000	0.000000	6.182803	-0.049053	NaN	0.000000	0.001487	0.001597	28.0802	0.097297	0.001863	52.2314	141.613	-164.749	0.080130	0.181186	-1.113723	-1.115038	-0.049053	52.2314	-1.113018	-7.495327E+14	6.544477E-17	NaN
385	1.000000	0.192511	7.36883e+06	-57839.1	1005.82	-29739.9	0.000000	0.000000	6.192812	-0.043273	NaN	0.000000	0.001546	0.001595	28.0798	0.063489	0.001940	32.7299	47.1338	11.6035	-0.115383	0.191122	-1.103714	-1.105102	-0.043273	32.7299	-1.102722	-5.452648E+14	7.936148E-17	NaN
385	1.000000	0.202493	7.36883e+06	-57839.1	1005.82	-29739.9	0.000000	0.000000	6.202796	-0.008080	NaN	0.000000	0.001518	0.001617	28.0802	0.115237	0.002032	56.7154	-150.95	-165.624	-0.058049	0.201238	-1.093731	-1.094986	-0.008080	56.7154	-1.093624	-4.115990E+14	1.963149E-17	NaN
385	1.000000	0.212480	7.36883e+06	-57839.1	1005.82	-29739.9	0.000000	0.000000	6.212783	-0.008497	NaN	0.000000	0.001535	0.001603	28.08	0.035818	0.002172	16.4917	111.283	10.2073	0.044302	0.211163	-1.083744	-1.085062	-0.008497	16.4917	-1.083358	-2.996491E+14	2.835725E-17	NaN
385	1.000000	0.222507	7.36883e+06	-57839.1	1005.82	-29739.9	0.000000	0.000000	6.222814	0.082093	NaN	0.000000	0.001528	0.001582	28.08	0.076271	0.001892	40.3094	163.991	-165.103	-0.012470	0.221178	-1.073717	-1.075046	0.082093	40.3094	-1.075244	-2.331528E+14	-3.521010E-16	NaN
385	1.000000	0.232520	7.36883e+06	-57839.1	1005.82	-29739.9	0.000000	0.000000	6.232827	0.085350	NaN	0.000000	0.001526	0.001631	28.0801	0.123432	0.002087	59.1437	170.253	13.3132	0.032811	0.231216	-1.063704	-1.065009	0.085350	59.1437	-1.064786	-1.687099E+14	-5.058992E-16	NaN
385	1.000000	0.242532	7.36883e+06	-57839.1	1005.82	-29739.9	0.000000	0.000000	6.242837	0.038537	NaN	0.000000	0.001539	0.001646	28.0789	0.069472	0.001994	34.8345	25.448	-166.309	0.086614	0.241167	-1.053692	-1.055057	0.038537	34.8345	-1.054522	-1.227993E+14	-3.138184E-16	NaN
385	1.000000	0.252530	7.36883e+06	-57839.1	1005.82	-29739.9	0.000000	0.000000	6.252834	0.013496	NaN	0.000000	0.001580	0.001623	28.0789	0.060297	0.001893	31.8573	115.522	11.2367	-0.035317	0.251182	-1.043694	-1.045043	0.013496	31.8573	-1.044012	-8.869724E+13	-1.521581E-16	NaN
385	1.000000	0.262535	7.36883e+06	-57839.1	1005.82	-29739.9	0.000000	0.000000	6.262839	0.010415	NaN	0.000000	0.001572	0.001613	28.0786	0.144621	0.001851	78.13	-13.4479	-165.297	0.081716	0.261246	-1.033689	-1.034978	0.010415	78.13	-1.033789	-6.463218E+13	-1.611422E-16	NaN
385	1.000000	0.272523	7.36883e+06	-57839.1	1005.82	-29739.9	0.000000	0.000000	6.272829	0.055773	NaN	0.000000	0.001586	0.001642	28.0787	0.081397	0.001946	41.8273	59.6021	14.3894	0.047945	0.271202	-1.023701	-1.025022	0.055773	41.8273	-1.024701	-4.877590E+13	-1.143456E-15	NaN
385	1.000000	0.282530	7.36883e+06	-57839.1	1005.82	-29739.9	0.000000	0.000000	6.282832	-0.044366	NaN	0.000000	0.001567	0.001565	28.0789	0.056492	0.001942	29.0872	96.3716	-167.542	-0.088146	0.281243	-1.013694	-1.014982	-0.044366	29.0872	-1.012550	-3.347392E+13	1.325394E-15	NaN
385	1.000000	0.292574	7.36883e+06	-57839.1	1005.82	-29739.9	0.000000	0.000000	6.292878	0.006745	NaN	0.000000	0.001598	0.001610	28.0788	0.031716	0.002046	15.5039	144.139	13.8836	-0.029133	0.291212	-1.003650	-1.005012	0.006745	15.5039	-1.003976	-2.566258E+13	-2.628497E-16	NaN
385	1.000000	0.302541	7.36883e+06	-57839.1	1005.82	-29739.9	0.000000	0.000000	6.302843	-0.023290	NaN	0.000000	0.001609	0.001604	28.0789	0.074725	0.001899	39.3437	-2.859328	-164.518	0.014513	0.301167	-0.993684	-0.995057	-0.023290	39.3437	-0.993240	-1.839674E+13	1.265988E-15	NaN
385	1.000000	0.312552	7.36883e+06	-57839.1	1005.82	-29739.9	0.000000	0.000000	6.312859	0.062914	NaN	0.000000	0.001604	0.001551	28.0787	0.037715	0.002012	18.7447	178.554	15.0881	0.081889	0.311196	-0.983672	-0.985028	0.062914	18.7447	-0.986189	-1.478369E+13	-4.255616E-15	NaN
385	1.000000	0.322558	7.36883e+06	-57839.1	1005.82	-29739.9	0.000000	0.000000	6.322861	-0.003094	NaN	0.000000	0.001604	0.001585	28.0789	0.063162	0.002151	29.3589	-147.541	-167.662	0.026536	0.321259	-0.973666	-0.974965	-0.003094	29.3589	-0.973587	-1.000010E+13	3.093801E-16	NaN
385	1.000000	0.332544	7.36883e+06	-57839.1	1005.82	-29739.9	0.000000	0.000000	6.332848	0.010777	NaN	0.000000	0.001575	0.001609	28.0788	0.134406	0.001955	68.7516	35.3713	12.6612	0.077425	0.331262	-0.963680	-0.964962	0.010777	68.7516	-0.963798	-7.380217E+12	-1.460192E-15	NaN
385	1.000000	0.342563	7.36883e+06	-57839.1	1005.82	-29739.9	0.000000	0.000000	6.342867	0.008573	NaN	0.000000	0.001577	0.001628	28.079	0.017450	0.001931	9.034529	-164.875	-166.34	0.028751	0.341250	-0.953661	-0.954974	0.008573	9.034529	-0.954373	-5.508023E+12	-1.556482E-15	NaN
385	1.000000	0.352574	7.36883e+06	-57839.1	1005.82	-29739.9	0.000000	0.000000	6.352876	-0.041305	NaN	0.000000	0.001560	0.001605	28.0789	0.075897	0.001988	38.1849	-172.989	14.2	-0.020553	0.351171	-0.943650	-0.945053	-0.041305	38.1849	-0.942839	-3.849755E+12	1.072928E-14	NaN
385	1.000000	0.362603	7.36883e+06	-57839.1	1005.82	-29739.9	0.000000	0.000000	6.362909	0.057111	NaN	0.000000	0.001613	0.001598	28.0788	0.040440	0.002031	19.908	-60.7991	-166.696	0.087716	0.361224	-0.933621	-0.935000	0.057111	19.908	-0.935773	-3.091037E+12	-1.847646E-14	NaN
385	1.000000	0.372593	7.36883e+06	-57839.1	1005.82	-29739.9	0.000000	0.000000	6.372899	0.057731	NaN	0.000000	0.001571	0.001623	28.0787	0.035941	0.002039	17.6312	-128.385	17.5495	0.020392	0.371195	-0.923631	-0.925030	0.057731	17.6312	-0.926087	-2.287611E+12	-2.523618E-14	NaN
385	1.000000	0.382616	7.36883e+06	-57839.1	1005.82	-29739.9	0.000000	0.000000	6.382923	0.070991	NaN	0.000000	0.001610	0.001628	28.0801	0.070774	0.001954	36.2149	174.874	-164.726	0.087812	0.381312	-0.913608	-0.914912	0.070991	36.2149	-0.915078	-1.624602E+12	-4.369731E-14	NaN
385	1.000000	0.392586	7.36883e+06	-57839.1	1005.82	-29739.9	0.000000	0.000000	6.392892	0.069696	NaN	0.000000	0.001611	0.001632	28.0803	0.134054	0.002063	64.985	-177.466	14.9205	0.068448	0.391250	-0.903638	-0.904974	0.069696	64.985	-0.904443	-1.167062E+12	-5.971931E-14	NaN
385	1.000000	0.402606	7.36883e+06	-57839.1	1005.82	-29739.9	0.000000	0.000000	6.402909	-0.010873	NaN	0.000000	0.001676	0.001609	28.0801	0.025377	0.001959	12.951	-173.071	-164.267	0.037089	0.401295	-0.893619	-0.894929	-0.010873	12.951	-0.892989	-8.171795E+11	1.330500E-14	NaN
385	1.000000	0.412624	7.36883e+06	-57839.1	1005.82	-29739.9	0.000000	0.000000	6.412929	0.023229	NaN	0.000000	0.001622	0.001617	28.0799	0.134167	0.001988	67.474	114.202	16.0753	0.091119	0.411225	-0.883600	-0.884999	0.023229	67.474	-0.883858	-6.150077E+11	-3.776966E-14	NaN
385	1.000000	0.422600	7.36883e+06	-57839.1	1005.82	-29739.9	0.000000	0.000000	6.422903	-0.011771	NaN	0.000000	0.001621	0.001617	28.0799	0.010841	0.001875	5.780658	140.43	-162.636	-0.014093	0.421302	-0.873624	-0.874922	-0.011771	5.780658	-0.872097	-4.263945E+11	2.760524E-14	NaN
385	1.000000	0.432632	7.36883e+06	-57839.1	1005.82	-29739.9	0.000000	0.000000	6.432936	-0.004334	NaN	0.000000	0.001609	0.001596	28.08	0.035351	0.002036	17.3662	-160.438	14.8345	0.022647	0.431258	-0.863592	-0.864966	-0.004334	17.3662	-0.863405	-3.252390E+11	1.332622E-14	NaN
385	1.000000	0.442600	7.36883e+06	-57839.1	1005.82	-29739.9	0.000000	0.000000	6.442905	0.030043	NaN	0.000000	0.001636	0.001652	28.08	0.051003	0.001985	25.6914	164.092	-163.666	-0.026605	0.441307	-0.853624	-0.854917	0.030043	25.6914	-0.854501	-2.464226E+11	-1.219150E-13	NaN
385	1.000000	0.452600	7.36883e+06	-57839.1	1005.82	-29739.9	0.000000	0.000000	6.452908	0.106901	NaN	0.000000	0.001630	0.001607	28.08	0.067609	0.002060	32.8168	172.181	12.8242	0.063456	0.451197	-0.843624	-0.845027	0.106901	32.8168	-0.846067	-1.894424E+11	-5.642927E-13	NaN
385	1.000000	0.462602	7.36883e+06	-57839.1	1005.82	-29739.9	0.000000	0.000000	6.462908	0.059775	NaN	0.000000	0.001646	0.001658	28.08	0.147660	0.001976	74.741	-136.287	-162.689	0.082207	0.461348	-0.833623	-0.834876	0.059775	74.741	-0.834222	-1.309208E+11	-4.565760E-13	NaN
385	1.000000	0.472625	7.36883e+06	-57839.1	1005.82	-29739.9	0.000000	0.000000	6.472928	-0.011620	NaN	0.000000	0.001656	0.001616	28.0798	0.102207	0.002003	51.0309	179.511	14.957	0.037232	0.471280	-0.823600	-0.824945	-0.011620	51.0309	-0.823429	-9.347701E+10	1.243074E-13	NaN
385	1.000000	0.482623	7.36883e+06	-57839.1	1005.82	-29739.9	0.000000	0.000000	6.482928	0.049278	NaN	0.000000	0.001613	0.001605	28.0799	0.092929	0.002119	43.8525	57.8066	-167.998	-0.009185	0.481311	-0.813602	-0.814914	0.049278	43.8525	-0.814444	-7.060967E+10	-6.978952E-13	NaN
385	1.000000	0.492618	7.36883e+06	-57839.1	1005.82	-29739.9	0.000000	0.000000	6.492921	-0.005667	NaN	0.000000	0.001632	0.001611	28.0801	0.035636	0.001958	18.2017	115.496	18.7807	0.068903	0.491261	-0.803606	-0.804963	-0.005667	18.2017	-0.803373	-4.996229E+10	1.134177E-13	NaN
385	1.000000	0.502645	7.36883e+06	-57839.1	1005.82	-29739.9	0.000000	0.000000	6.502948	-0.015684	NaN	0.000000	0.001607	0.001639	28.0801	0.062609	0.002041	30.682	-13.4941	-162.942	-0.060107	0.501305	-0.793579	-0.794919	-0.015684	30.682	-0.793196	-3.634834E+10	4.315010E-13	NaN
385	1.000000	0.512630	7.36883e+06	-57839.1	1005.82	-29739.9	0.000000	0.000000	6.512934	0.019210	NaN	0.000000	0.001622	0.001614	28.0799	0.083093	0.002126	39.0881	-141.023	18.6387	0.024926	0.511271	-0.783595	-0.784954	0.019210	39.0881	-0.783963	-2.723216E+10	-7.054135E-13	NaN
385	1.000000	0.522680	7.36883e+06	-57839.1	1005.82	-29739.9	0.000000	0.000000	6.522983	-0.015184	NaN	0.000000	0.001602	0.001612	28.0789	0.035378	0.001935	18.2868	-119.812	-161.52	0.087259	0.521321	-0.773544	-0.774904	-0.015184	18.2868	-0.772922	-1.927633E+10	7.876781E-13	NaN
385	1.000000	0.532647	7.36883e+06	-57839.1	1005.82	-29739.9	0.000000	0.000000	6.532952	0.045762	NaN	0.000000	0.001627	0.001565	28.0793	0.120723	0.001935	62.4049	38.6734	16.8349	0.036392	0.531324	-0.763577	-0.764901	0.045762	62.4049	-0.764127	-1.463674E+10	-3.126502E-12	NaN
385	1.000000	0.542666	7.36883e+06	-57839.1	1005.82	-29739.9	0.000000	0.000000	6.542971	0.038883	NaN	0.000000	0.001624	0.001578	28.0789	0.111851	0.002065	54.1681	4.628384	-162.879	-0.015926	0.541351	-0.753558	-0.754873	0.038883	54.1681	-0.754096	-1.068991E+10	-3.637397E-12	NaN
385	1.000000	0.552667	7.36883e+06	-57839.1	1005.82	-29739.9	0.000000	0.000000	6.552971	0.007535	NaN	0.000000	0.001623	0.001637	28.0788	0.075668	0.001889	40.0498	-72.0953	13.1478	-0.069310	0.551373	-0.743557	-0.744851	0.007535	40.0498	-0.743698	-7.716536E+9	-9.765384E-13	NaN
385	1.000000	0.562678	7.36883e+06	-57839.1	1005.82	-29739.9	0.000000	0.000000	6.562982	0.002487	NaN	0.000000	0.001608	0.001612	28.0786	0.076276	0.002019	37.7734	46.4491	-163.412	0.009638	0.561356	-0.733546	-0.734868	0.002487	37.7734	-0.733596	-5.620910E+9	-4.425394E-13	NaN
385	1.000000	0.572671	7.36883e+06	-57839.1	1005.82	-29739.9	0.000000	0.000000	6.572973	-0.032300	NaN	0.000000	0.001539	0.001620	28.079	0.069449	0.002122	32.7347	133.298	15.7898	-0.001629	0.571289	-0.723554	-0.724936	-0.032300	32.7347	-0.722814	-4.007199E+9	8.060478E-12	NaN
385	1.000000	0.582657	7.36883e+06	-57839.1	1005.82	-29739.9	0.000000	0.000000	6.582961	0.032869	NaN	0.000000	0.001570	0.001586	28.0787	0.115272	0.002081	55.4029	-158.151	-163.02	0.009437	0.581416	-0.713568	-0.714808	0.032869	55.4029	-0.714013	-3.039493E+9	-1.081387E-11	NaN
385	1.000000	0.592671	7.36883e+06	-57839.1	1005.82	-29739.9	0.000000	0.000000	6.592975	0.007409	NaN	0.000000	0.001567	0.001652	28.0789	0.094214	0.001988	47.3881	79.3608	14.106	-0.009937	0.591295	-0.703553	-0.704929	0.007409	47.3881	-0.703670	-2.196062E+9	-3.373558E-12	NaN
385	1.000000	0.602693	7.36883e+06	-57839.1	1005.82	-29739.9	0.000000	0.000000	6.602996	-0.012683	NaN	0.000000	0.001571	0.001628	28.0784	0.020104	0.002090	9.619838	59.4246	-163.792	0.057423	0.601372	-0.693531	-0.694852	-0.012683	9.619838	-0.692542	-1.547609E+9	8.195346E-12	NaN
385	1.000000	0.612673	7.36883e+06	-57839.1	1005.82	-29739.9	0.000000	0.000000	6.612975	-0.025670	NaN	0.000000	0.001572	0.001668	28.0788	0.140383	0.002019	69.5315	132.806	18.2886	0.030064	0.611348	-0.683552	-0.684876	-0.025670	69.5315	-0.683275	-1.156075E+9	2.220468E-11	NaN
385	1.000000	0.622693	7.36883e+06	-57839.1	1005.82	-29739.9	0.000000	0.000000	6.622995	-0.037784	NaN	0.000000	0.001545	0.001680	28.0784	0.108476	0.001948	55.6975	-147.395	-164.17	0.005527	0.621418	-0.673531	-0.674806	-0.037784	55.6975	-0.673022	-8.370484E+8	4.513978E-11	NaN
385	1.000000	0.632699	7.36883e+06	-57839.1	1005.82	-29739.9	0.000000	0.000000	6.633003	0.005167	NaN	0.000000	0.001549	0.001688	28.0786	0.040995	0.002143	19.1301	32.1858	14.976	-0.024886	0.631391	-0.663525	-0.664833	0.005167	19.1301	-0.663728	-6.244835E+8	-8.273633E-12	NaN
385	1.000000	0.642714	7.36883e+06	-57839.1	1005.82	-29739.9	0.000000	0.000000	6.643016	-0.044279	NaN	0.000000	0.001593	0.001675	28.0786	0.043411	0.001850	23.4638	-124.864	-161.944	-0.017212	0.641390	-0.653510	-0.654835	-0.044279	23.4638	-0.652095	-4.326619E+8	1.023401E-10	NaN
385	1.000000	0.652716	7.36883e+06	-57839.1	1005.82	-29739.9	0.000000	0.000000	6.653018	-0.028878	NaN	0.000000	0.001605	0.001631	28.0798	0.083485	0.001999	41.7649	118.776	12.6401	0.046523	0.651326	-0.643508	-0.644898	-0.028878	41.7649	-0.642990	-3.245673E+8	8.897399E-11	NaN
385	1.000000	0.662701	7.36883e+06	-57839.1	1005.82	-29739.9	0.000000	0.000000	6.663009	0.105707	NaN	0.000000	0.001623	0.001653	28.0797	0.011202	0.001962	5.710851	10.7111	-165.136	0.098093	0.661381	-0.633523	-0.634844	0.105707	5.710851	-0.647405	-3.731329E+8	-2.832968E-10	NaN
385	1.000000	0.672709	7.36883e+06	-57839.1	1005.82	-29739.9	0.000000	0.000000	6.673013	0.029314	NaN	0.000000	0.001598	0.001679	28.0799	0.034266	0.001896	18.0757	90.632	15.6112	0.090587	0.671368	-0.623515	-0.624856	0.029314	18.0757	-0.624732	-1.822463E+8	-1.608481E-10	NaN
385	1.000000	0.682717	7.36883e+06	-57839.1	1005.82	-29739.9	0.000000	0.000000	6.683021	0.015932	NaN	0.000000	0.001637	0.001691	28.0801	0.069933	0.002101	33.2889	91.7661	-167.937	0.076680	0.681404	-0.613507	-0.614820	0.015932	33.2889	-0.613866	-1.292106E+8	-1.233016E-10	NaN
385	1.000000	0.692724	7.36883e+06	-57839.1	1005.82	-29739.9	0.000000	0.000000	6.693026	-0.025653	NaN	0.000000	0.001651	0.001717	28.0798	0.025398	0.002091	12.1434	-15.0142	15.8286	-0.040856	0.691330	-0.603500	-0.604894	-0.025653	12.1434	-0.601916	-8.848032E+7	2.899261E-10	NaN
385	1.000000	0.702711	7.36883e+06	-57839.1	1005.82	-29739.9	0.000000	0.000000	6.703017	0.061473	NaN	0.000000	0.001614	0.001692	28.0801	0.109933	0.001976	55.6265	-127.825	-163.297	0.056457	0.701400	-0.593513	-0.594824	0.061473	55.6265	-0.594342	-6.958408E+7	-8.834292E-10	NaN
385	1.000000	0.712718	7.36883e+06	-57839.1	1005.82	-29739.9	0.000000	0.000000	6.713024	0.060476	NaN	0.000000	0.001638	0.001643	28.0798	0.035445	0.001979	17.9084	-176.994	17.6594	0.128288	0.711362	-0.583506	-0.584862	0.060476	17.9084	-0.586039	-5.346227E+7	-1.131198E-9	NaN
385	1.000000	0.722742	7.36883e+06	-57839.1	1005.82	-29739.9	0.000000	0.000000	6.723047	0.039658	NaN	0.000000	0.001627	0.001684	28.0799	0.019453	0.002049	9.495806	101.518	-162.45	0.062827	0.721382	-0.573483	-0.574842	0.039658	9.495806	-0.576615	-3.962756E+7	-1.000765E-9	NaN
385	1.000000	0.732728	7.36883e+06	-57839.1	1005.82	-29739.9	0.000000	0.000000	6.733031	-0.013253	NaN	0.000000	0.001631	0.001686	28.0797	0.074188	0.001886	39.3441	-108.999	15.4595	0.066546	0.731403	-0.563497	-0.564821	-0.013253	39.3441	-0.563244	-2.589680E+7	5.117570E-10	NaN
385	1.000000	0.742760	7.36883e+06	-57839.1	1005.82	-29739.9	0.000000	0.000000	6.743065	0.032404	NaN	0.000000	0.001683	0.001660	28.0798	0.065134	0.001989	32.7509	-139.741	-163.816	0.077288	0.741396	-0.553464	-0.554828	0.032404	32.7509	-0.554206	-1.941775E+7	-1.668790E-9	NaN
385	1.000000	0.752719	7.36883e+06	-57839.1	1005.82	-29739.9	0.000000	0.000000	6.753026	0.079289	NaN	0.000000	0.001676	0.001650	28.0799	0.066831	0.001940	34.4526	80.3255	13.8	0.070125	0.751363	-0.543505	-0.544861	0.079289	34.4526	-0.545231	-1.458411E+7	-5.436643E-9	NaN
385	1.000000	0.762739	7.36883e+06	-57839.1	1005.82	-29739.9	0.000000	0.000000	6.763041	-0.028296	NaN	0.000000	0.001653	0.001639	28.0801	0.061211	0.002054	29.8057	-12.8662	-166.866	0.034565	0.761471	-0.533486	-0.534754	-0.028296	29.8057	-0.532774	-9.79689e+06	2.888287E-9	NaN
385	1.000000	0.772732	7.36883e+06	-57839.1	1005.82	-29739.9	0.000000	0.000000	6.773039	0.089878	NaN	0.000000	0.001592	0.001699	28.08	0.087904	0.002111	41.6313	36.1199	15.1289	0.055950	0.771344	-0.523492	-0.524880	0.089878	41.6313	-0.525111	-7.66755e+06	-1.172189E-8	NaN
385	1.000000	0.782788	7.36883e+06	-57839.1	1005.82	-29739.9	0.000000	0.000000	6.783095	0.075758	NaN	0.000000	0.001589	0.001659	28.08	0.082543	0.002075	39.7771	-40.2863	-163.17	0.031493	0.781431	-0.513436	-0.514794	0.075758	39.7771	-0.514865	-5.52267e+06	-1.371765E-8	NaN
385	1.000000	0.792761	7.36883e+06	-57839.1	1005.82	-29739.9	0.000000	0.000000	6.793063	-0.041238	NaN	0.000000	0.001612	0.001652	28.0789	0.022100	0.002011	10.9892	174.664	14.2762	0.046785	0.791410	-0.503464	-0.504814	-0.041238	10.9892	-0.500649	-3.50004e+06	1.178212E-8	NaN
385	1.000000	0.802782	7.36883e+06	-57839.1	1005.82	-29739.9	0.000000	0.000000	6.803084	-0.036312	NaN	0.000000	0.001605	0.001687	28.079	0.076989	0.001978	38.9185	-100.662	-162.664	0.011251	0.801445	-0.493443	-0.494779	-0.036312	38.9185	-0.492743	-2.71465e+06	1.337648E-8	NaN
385	1.000000	0.812774	7.36883e+06	-57839.1	1005.82	-29739.9	0.000000	0.000000	6.813081	0.082635	NaN	0.000000	0.001602	0.001688	28.0788	0.066707	0.001948	34.2461	-94.7257	15.0116	-0.049268	0.811421	-0.483451	-0.484803	0.082635	34.2461	-0.485260	-2.1337e+06	-3.872878E-8	NaN
385	1.000000	0.822759	7.36883e+06	-57839.1	1005.82	-29739.9	0.000000	0.000000	6.823061	-0.022038	NaN	0.000000	0.001623	0.001683	28.0789	0.055263	0.001936	28.5453	-94.4019	-163.325	-0.018244	0.821452	-0.473466	-0.474772	-0.022038	28.5453	-0.472887	-1.43179e+06	1.539180E-8	NaN
385	1.000000	0.832792	7.36883e+06	-57839.1	1005.82	-29739.9	0.000000	0.000000	6.833097	0.034885	NaN	0.000000	0.001623	0.001609	28.0788	0.029588	0.002088	14.1735	166.469	15.013	-0.030051	0.831450	-0.463432	-0.464774	0.034885	14.1735	-0.465278	-1.11982e+06	-3.115240E-8	NaN
385	1.000000	0.842767	7.36883e+06	-57839.1	1005.82	-29739.9	0.000000	0.000000	6.843073	0.045753	NaN	0.000000	0.001618	0.001653	28.0786	0.072489	0.001842	39.3531	15.9323	-163.498	0.039442	0.841490	-0.453457	-0.454734	0.045753	39.3531	-0.454329	-785731	-5.823011E-8	NaN
385	1.000000	0.852811	7.36883e+06	-57839.1	1005.82	-29739.9	0.000000	0.000000	6.853115	0.016434	NaN	0.000000	0.001629	0.001655	28.0785	0.034963	0.001931	18.1024	10.6058	14.6218	0.035933	0.851439	-0.443413	-0.444786	0.016434	18.1024	-0.444094	-563788	-2.914973E-8	NaN
385	1.000000	0.862767	7.36883e+06	-57839.1	1005.82	-29739.9	0.000000	0.000000	6.863070	-0.021443	NaN	0.000000	0.001613	0.001664	28.0787	0.075637	0.002155	35.1056	77.7909	-163.774	0.086450	0.861510	-0.433457	-0.434714	-0.021443	35.1056	-0.432999	-393070	5.455271E-8	NaN
385	1.000000	0.872822	7.36883e+06	-57839.1	1005.82	-29739.9	0.000000	0.000000	6.873127	0.035958	NaN	0.000000	0.001645	0.001642	28.0788	0.010989	0.002025	5.427655	32.0355	14.0412	0.046168	0.871445	-0.423403	-0.424779	0.035958	5.427655	-0.428371	-338078	-1.063605E-7	NaN
385	1.000000	0.882785	7.36883e+06	-57839.1	1005.82	-29739.9	0.000000	0.000000	6.883091	0.050364	NaN	0.000000	0.001594	0.001637	28.0787	0.004602	0.001952	2.357031	-147.054	-163.027	0.023152	0.881459	-0.413439	-0.414765	0.050364	2.357031	-0.429465	-350339	-1.437568E-7	NaN
385	1.000000	0.892788	7.36883e+06	-57839.1	1005.82	-29739.9	0.000000	0.000000	6.893091	-0.021101	NaN	0.000000	0.001604	0.001652	28.0786	0.020221	0.002027	9.973975	-81.5223	13.5058	0.066948	0.891404	-0.403436	-0.404821	-0.021101	9.973975	-0.401849	-142023	1.485760E-7	NaN
385	1.000000	0.902785	7.36883e+06	-57839.1	1005.82	-29739.9	0.000000	0.000000	6.903087	-0.024750	NaN	0.000000	0.001643	0.001631	28.0785	0.044594	0.002082	21.4188	-32.7976	-165.252	0.028692	0.901483	-0.393439	-0.394741	-0.024750	21.4188	-0.392573	-104702	2.363831E-7	NaN
385	1.000000	0.912815	7.36883e+06	-57839.1	1005.82	-29739.9	0.000000	0.000000	6.913118	-0.017522	NaN	0.000000	0.001600	0.001667	28.0787	0.036594	0.001958	18.6925	-105.469	16.7157	-0.060162	0.911474	-0.383409	-0.384750	-0.017522	18.6925	-0.382706	-75633.3	2.316721E-7	NaN
385	1.000000	0.922839	7.36883e+06	-57839.1	1005.82	-29739.9	0.000000	0.000000	6.923144	0.044663	NaN	0.000000	0.001629	0.001668	28.0789	0.214667	0.001939	110.734	72.2541	-167.356	-0.122620	0.921521	-0.373385	-0.374703	0.044663	110.734	-0.373688	-56130.7	-7.956901E-7	NaN
385	1.000000	0.932780	7.36883e+06	-57839.1	1005.82	-29739.9	0.000000	0.000000	6.933086	0.058573	NaN	0.000000	0.001611	0.001654	28.0798	0.114016	0.001899	60.0398	119.309	14.2919	0.000787	0.931462	-0.363444	-0.364762	0.058573	60.0398	-0.364176	-40941.1	-1.430665E-6	NaN
385	1.000000	0.942808	7.36883e+06	-57839.1	1005.82	-29739.9	0.000000	0.000000	6.943112	0.017126	NaN	0.000000	0.001579	0.001669	28.0803	0.030049	0.001930	15.5664	43.0266	-163.217	-0.066097	0.941490	-0.353416	-0.354734	0.017126	15.5664	-0.354241	-29410.9	-5.822951E-7	NaN
385	1.000000	0.952830	7.36883e+06	-57839.1	1005.82	-29739.9	0.000000	0.000000	6.953134	0.031135	NaN	0.000000	0.001610	0.001649	28.0799	0.074829	0.001952	38.3266	-39.5319	16.2515	0.032248	0.951483	-0.343395	-0.344741	0.031135	38.3266	-0.344004	-20886.4	-1.490681E-6	NaN
385	1.000000	0.962814	7.36883e+06	-57839.1	1005.82	-29739.9	0.000000	0.000000	6.963119	0.022811	NaN	0.000000	0.001631	0.001634	28.0798	0.071227	0.002020	35.2598	160.467	-166.712	-0.022080	0.961583	-0.333410	-0.334641	0.022811	35.2598	-0.333895	-14874.4	-1.533571E-6	NaN
385	1.000000	0.972852	7.36883e+06	-57839.1	1005.82	-29739.9	0.000000	0.000000	6.973153	-0.052118	NaN	0.000000	0.001674	0.001688	28.0799	0.011190	0.001904	5.875880	20.4937	15.9614	-0.047818	0.971471	-0.323372	-0.324753	-0.052118	5.875880	-0.316720	-8323.71	6.261406E-6	NaN
385	1.000000	0.982852	7.36883e+06	-57839.1	1005.82	-29739.9	0.000000	0.000000	6.983156	0.009205	NaN	0.000000	0.001652	0.001662	28.08	0.004666	0.002041	2.285580	-50.6587	-162.57	-0.010729	0.981524	-0.313373	-0.314701	0.009205	2.285580	-0.316393	-8231.93	-1.118249E-6	NaN
385	1.000000	0.992810	7.36883e+06	-57839.1	1005.82	-29739.9	0.000000	0.000000	6.993119	0.121618	NaN	0.000000	0.001637	0.001649	28.0797	0.119922	0.001960	61.177	98.2688	14.7918	0.073812	0.991473	-0.303414	-0.304752	0.121618	61.177	-0.304905	-5566.06	-2.184999E-5	NaN
385	1.000000	1.002868	7.36883e+06	-57839.1	1005.82	-29739.9	0.000000	0.000000	7.003174	0.071940	NaN	0.000000	0.001581	0.001635	28.0797	0.078501	0.002157	36.3916	-40.1198	-163.732	0.013369	1.001539	-0.293357	-0.294685	0.071940	36.3916	-0.294839	-3941.75	-1.825072E-5	NaN
385	1.000000	1.012829	7.36883e+06	-57839.1	1005.82	-29739.9	0.000000	0.000000	7.013134	0.027405	NaN	0.000000	0.001629	0.001645	28.0798	0.045486	0.001832	24.8252	-148.58	15.8922	0.025465	1.011515	-0.283395	-0.284710	0.027405	24.8252	-0.284223	-2732.66	-1.002864E-5	NaN
385	1.000000	1.022829	7.36883e+06	-57839.1	1005.82	-29739.9	0.000000	0.000000	7.023136	0.085583	NaN	0.000000	0.001644	0.001657	28.0801	0.011844	0.001921	6.165485	-100.564	-164.502	0.077267	1.021514	-0.273396	-0.274710	0.085583	6.165485	-0.283806	-2693.49	-3.177420E-5	NaN
385	1.000000	1.032881	7.36883e+06	-57839.1	1005.82	-29739.9	0.000000	0.000000	7.033183	-0.045358	NaN	0.000000	0.001582	0.001656	28.0798	0.111442	0.001851	60.1958	32.6883	12.3849	-0.117637	1.031493	-0.263343	-0.264732	-0.045358	60.1958	-0.262778	-1292.55	3.509193E-5	NaN
385	1.000000	1.042866	7.36883e+06	-57839.1	1005.82	-29739.9	0.000000	0.000000	7.043170	0.006543	NaN	0.000000	0.001618	0.001681	28.0798	0.024505	0.002080	11.7803	-135.548	-164.249	0.003076	1.041512	-0.253358	-0.254712	0.006543	11.7803	-0.253775	-940.255	-6.959184E-6	NaN
385	1.000000	1.052835	7.36883e+06	-57839.1	1005.82	-29739.9	0.000000	0.000000	7.053138	-0.005179	NaN	0.000000	0.001603	0.001659	28.0798	0.080747	0.002100	38.4509	136.168	18.5245	-0.089051	1.051531	-0.243389	-0.244693	-0.005179	38.4509	-0.243288	-646.883	8.006117E-6	NaN
385	1.000000	1.062842	7.36883e+06	-57839.1	1005.82	-29739.9	0.000000	0.000000	7.063143	-0.063379	NaN	0.000000	0.001607	0.001656	28.0787	0.136681	0.001922	71.1112	75.7817	-166.64	-0.082325	1.061548	-0.233383	-0.234676	-0.063379	71.1112	-0.232714	-441.885	0.000143	NaN
385	1.000000	1.072863	7.36883e+06	-57839.1	1005.82	-29739.9	0.000000	0.000000	7.073167	0.008421	NaN	0.000000	0.001641	0.001664	28.0787	0.120216	0.002081	57.7551	-83.9677	15.7213	0.077110	1.071494	-0.223361	-0.224730	0.008421	57.7551	-0.223471	-315.515	-2.669060E-5	NaN
385	1.000000	1.082901	7.36883e+06	-57839.1	1005.82	-29739.9	0.000000	0.000000	7.083204	-0.014068	NaN	0.000000	0.001617	0.001664	28.0785	0.095083	0.001897	50.1128	26.4474	-165.508	-0.056704	1.081571	-0.213323	-0.214653	-0.014068	50.1128	-0.213112	-215.334	6.532999E-5	NaN
385	1.000000	1.092885	7.36883e+06	-57839.1	1005.82	-29739.9	0.000000	0.000000	7.093189	-0.004470	NaN	0.000000	0.001626	0.001683	28.079	0.027419	0.002033	13.4894	3.021046	13.0585	0.028978	1.091496	-0.203339	-0.204728	-0.004470	13.4894	-0.203090	-148.035	3.019648E-5	NaN
385	1.000000	1.102891	7.36883e+06	-57839.1	1005.82	-29739.9	0.000000	0.000000	7.103195	0.019525	NaN	0.000000	0.001590	0.001682	28.0787	0.051011	0.002017	25.2907	100.224	-163.422	0.036843	1.101552	-0.193334	-0.194672	0.019525	25.2907	-0.193913	-104.514	-0.000187	NaN
385	1.000000	1.112914	7.36883e+06	-57839.1	1005.82	-29739.9	0.000000	0.000000	7.113220	0.064959	NaN	0.000000	0.001604	0.001683	28.079	0.112827	0.002008	56.1843	130.8	14.9705	0.122837	1.111506	-0.183311	-0.184718	0.064959	56.1843	-0.184178	-71.8228	-0.000904	NaN
385	1.000000	1.122897	7.36883e+06	-57839.1	1005.82	-29739.9	0.000000	0.000000	7.123199	-0.030086	NaN	0.000000	0.001596	0.001656	28.0786	0.074966	0.001914	39.1693	-2.724646	-164.023	-0.011145	1.121600	-0.173328	-0.174625	-0.030086	39.1693	-0.172752	-45.841	0.000656	NaN
385	1.000000	1.132895	7.36883e+06	-57839.1	1005.82	-29739.9	0.000000	0.000000	7.133197	-0.021286	NaN	0.000000	0.001583	0.001666	28.079	0.055658	0.001939	28.7112	165.281	13.6068	-0.000114	1.131495	-0.163330	-0.164729	-0.021286	28.7112	-0.162774	-30.6978	0.000693	NaN
385	1.000000	1.142870	7.36883e+06	-57839.1	1005.82	-29739.9	0.000000	0.000000	7.143175	0.042172	NaN	0.000000	0.001614	0.001669	28.0783	0.055816	0.001940	28.7674	69.5449	-163.154	0.008864	1.141600	-0.153354	-0.154624	0.042172	28.7674	-0.154454	-21.8144	-0.001933	NaN
385	1.000000	1.152906	7.36883e+06	-57839.1	1005.82	-29739.9	0.000000	0.000000	7.153212	0.068351	NaN	0.000000	0.001572	0.001634	28.0784	0.136379	0.002007	67.9548	150.369	16.2885	0.087925	1.151553	-0.143318	-0.144672	0.068351	67.9548	-0.144073	-14.0925	-0.004850	NaN
385	1.000000	1.162910	7.36883e+06	-57839.1	1005.82	-29739.9	0.000000	0.000000	7.163217	0.076746	NaN	0.000000	0.001579	0.001649	28.0784	0.063687	0.001984	32.1007	136.637	-165.704	0.111569	1.161615	-0.133314	-0.134609	0.076746	32.1007	-0.135107	-9.557196	-0.008030	NaN
385	1.000000	1.172899	7.36883e+06	-57839.1	1005.82	-29739.9	0.000000	0.000000	7.173205	0.051078	NaN	0.000000	0.001607	0.001685	28.0788	0.132544	0.002036	65.0872	-44.4064	14.8901	0.031898	1.171563	-0.123325	-0.124661	0.051078	65.0872	-0.123913	-5.786945	-0.008826	NaN
385	1.000000	1.182935	7.36883e+06	-57839.1	1005.82	-29739.9	0.000000	0.000000	7.183240	0.026807	NaN	0.000000	0.001648	0.001705	28.0785	0.062779	0.001904	32.9712	41.0121	-163.206	-0.020844	1.181616	-0.113289	-0.114608	0.026807	32.9712	-0.113899	-3.625347	-0.007394	NaN
385	1.000000	1.192888	7.36883e+06	-57839.1	1005.82	-29739.9	0.000000	0.000000	7.193198	0.135006	NaN	0.000000	0.001587	0.001670	28.0785	0.106222	0.002005	52.9712	-141.8	16.4908	0.104022	1.191550	-0.103336	-0.104674	0.135006	52.9712	-0.105247	-2.379636	-0.056734	NaN
385	1.000000	1.202939	7.36883e+06	-57839.1	1005.82	-29739.9	0.000000	0.000000	7.203245	0.069813	NaN	0.000000	0.001587	0.001658	28.0797	0.062788	0.001927	32.5868	27.6366	-162.592	0.057765	1.201628	-0.093286	-0.094596	0.069813	32.5868	-0.094892	-1.402696	-0.049771	NaN
385	1.000000	1.212901	7.36883e+06	-57839.1	1005.82	-29739.9	0.000000	0.000000	7.213208	0.065763	NaN	0.000000	0.001631	0.001678	28.0797	0.002970	0.001995	1.489238	78.9405	18.4165	0.058591	1.211577	-0.083323	-0.084648	0.065763	1.489238	-0.116442	-4.090106	-0.016079	NaN
385	1.000000	1.222919	7.36883e+06	-57839.1	1005.82	-29739.9	0.000000	0.000000	7.223227	0.115837	NaN	0.000000	0.001592	0.001684	28.0796	0.090155	0.002056	43.8468	136.393	-161.864	0.149474	1.221605	-0.073306	-0.074619	0.115837	43.8468	-0.075287	-0.469828	-0.246552	NaN
385	1.000000	1.232938	7.36883e+06	-57839.1	1005.82	-29739.9	0.000000	0.000000	7.233246	0.097549	NaN	0.000000	0.001594	0.001673	28.0797	0.065772	0.001933	34.034	-123.957	13.9116	0.025208	1.231586	-0.063286	-0.064638	0.097549	34.034	-0.065436	-0.256238	-0.380699	NaN
385	1.000000	1.242897	7.36883e+06	-57839.1	1005.82	-29739.9	0.000000	0.000000	7.243205	0.113838	NaN	0.000000	0.001581	0.001688	28.0799	0.038256	0.001977	19.3488	134.003	-167.266	0.010793	1.241575	-0.053327	-0.054649	0.113838	19.3488	-0.057740	-0.154953	-0.734664	NaN
385	1.000000	1.252929	7.36883e+06	-57839.1	1005.82	-29739.9	0.000000	0.000000	7.253237	0.115613	NaN	0.000000	0.001606	0.001672	28.0797	0.036087	0.001876	19.2319	-135.007	15.3301	0.073255	1.251604	-0.043295	-0.044620	0.115613	19.2319	-0.047804	-0.078268	-1.477135	NaN
385	1.000000	1.262937	7.36883e+06	-57839.1	1005.82	-29739.9	0.000000	0.000000	7.263244	0.087465	NaN	0.000000	0.001639	0.001675	28.0797	0.095119	0.001927	49.3578	161.009	-168.404	0.064248	1.261613	-0.033287	-0.034611	0.087465	49.3578	-0.034616	-0.031203	-2.803079	NaN
385	1.000000	1.272944	7.36883e+06	-57839.1	1005.82	-29739.9	0.000000	0.000000	7.273252	0.111555	NaN	0.000000	0.001663	0.001663	28.0798	0.059481	0.002063	28.8378	-25.3991	17.2225	0.078870	1.271616	-0.023280	-0.024609	0.111555	28.8378	-0.026181	-0.018122	-6.155812	NaN
385	1.000000	1.282935	7.36883e+06	-57839.1	1005.82	-29739.9	0.000000	0.000000	7.283245	0.150993	NaN	0.000000	0.001675	0.001686	28.0798	0.068473	0.001950	35.1107	3.047727	-166.516	0.097745	1.281678	-0.013289	-0.014547	0.150993	35.1107	-0.016515	-0.010203	-14.7987	NaN
385	1.000000	1.292975	7.36883e+06	-57839.1	1005.82	-29739.9	0.000000	0.000000	7.293321	1.031008	NaN	0.000000	0.001697	0.001706	28.0796	0.568152	0.002066	275.023	10.1037	19.6432	0.830657	1.291633	-0.003250	-0.004591	1.031008	275.023	-0.006061	-0.004074	-253.089	NaN
385	1.000000	1.303002	7.36883e+06	-57839.1	1005.82	-29739.9	0.000000	0.000000	7.303369	1.540107	NaN	0.000000	0.001669	0.001684	28.0798	0.617605	0.002068	298.678	19.5133	-165.124	1.551940	1.301687	0.006778	0.005463	1.540107	298.678	0.002910	0.002305	668.283	5684.36
385	1.000000	1.312997	7.36883e+06	-57839.1	1005.82	-29739.9	0.000000	0.000000	7.313424	2.998019	NaN	0.000000	0.001675	0.001676	28.08	1.312015	0.002025	647.975	18.5185	11.3126	2.749657	1.311627	0.016773	0.015403	2.998019	647.975	0.013302	0.013088	229.068	5174.83
385	1.000000	1.322973	7.36883e+06	-57839.1	1005.82	-29739.9	0.000000	0.000000	7.323523	5.987187	NaN	0.000000	0.001673	0.001655	28.0797	2.316523	0.001958	1183.12	9.575335	-163.878	5.532243	1.321661	0.026749	0.025437	5.987187	1183.12	0.022954	0.027398	218.527	6530.47
385	1.000000	1.332977	7.36883e+06	-57839.1	1005.82	-29739.9	0.000000	0.000000	7.333657	9.162641	NaN	0.000000	0.001667	0.001643	28.0791	2.580541	0.002016	1279.72	13.45	13.5558	8.688253	1.331614	0.036753	0.035390	9.162641	1279.72	0.031383	0.043659	209.87	5595.7
385	2.000000	1.336497	7.36883e+06	-57839.1	1005.82	-29739.9	0.000000	0.000000	7.337172	9.035850	NaN	0.000000	0.001663	0.001679	28.0786	2.720247	0.001974	1378.13	11.0192	-166.644	8.874191	1.336252	0.040273	0.040028	9.035850	1378.13	0.035355	0.052577	171.859	5491.2
385	2.000000	1.338978	7.36883e+06	-57839.1	1005.82	-29739.9	0.000000	0.000000	7.339676	9.577003	NaN	0.000000	0.001668	0.001668	28.0788	2.860562	0.002016	1419.14	7.022368	16.037	9.473686	1.338676	0.042754	0.042452	9.577003	1419.14	0.037693	0.058202	164.548	5374.38
385	2.000000	1.341486	7.36883e+06	-57839.1	1005.82	-29739.9	0.000000	0.000000	7.342210	10.2097	NaN	0.000000	0.001686	0.001701	28.0786	2.954203	0.002089	1414.05	12.0017	-167.008	10.2721	1.341213	0.045262	0.044989	10.2097	1414.05	0.039847	0.063633	160.446	5121.5
385	2.000000	1.343961	7.36883e+06	-57839.1	1005.82	-29739.9	0.000000	0.000000	7.344715	10.9281	NaN	0.000000	0.001689	0.001684	28.0786	2.934793	0.001982	1480.53	5.649397	16.1137	10.7404	1.343579	0.047737	0.047355	10.9281	1480.53	0.042201	0.069841	156.471	5118.41
385	2.000000	1.346480	7.36883e+06	-57839.1	1005.82	-29739.9	0.000000	0.000000	7.347240	11.1145	NaN	0.000000	0.001703	0.001668	28.0785	2.968774	0.002045	1451.66	6.236575	-162.6	11.2283	1.346171	0.050255	0.049946	11.1145	1451.66	0.044513	0.076211	145.839	4804.27
385	2.000000	1.348938	7.36883e+06	-57839.1	1005.82	-29739.9	0.000000	0.000000	7.349726	11.7683	NaN	0.000000	0.001695	0.001694	28.0786	3.144791	0.001968	1597.8	11.9771	10.0467	11.7036	1.348600	0.052714	0.052375	11.7683	1597.8	0.047190	0.083925	140.223	5039.05
385	2.000000	1.351465	7.36883e+06	-57839.1	1005.82	-29739.9	0.000000	0.000000	7.352271	12.2217	NaN	0.000000	0.001678	0.001694	28.0783	3.278644	0.001901	1725.01	7.066863	-167.203	12.4549	1.351131	0.055241	0.054907	12.2217	1725.01	0.049927	0.092187	132.575	5190.74
385	2.000000	1.353904	7.36883e+06	-57839.1	1005.82	-29739.9	0.000000	0.000000	7.354734	12.7904	NaN	0.000000	0.001702	0.001676	28.0783	3.480928	0.001974	1763.29	7.220272	13.7024	12.7533	1.353582	0.057680	0.057358	12.7904	1763.29	0.052240	0.099462	128.595	5108.19
385	2.000000	1.356429	7.36883e+06	-57839.1	1005.82	-29739.9	0.000000	0.000000	7.357301	13.8167	NaN	0.000000	0.001650	0.001650	28.0786	3.484977	0.001929	1806.27	10.5833	-169.673	13.8032	1.356132	0.060205	0.059908	13.8167	1806.27	0.054468	0.106721	129.466	5051.62
385	2.000000	1.358969	7.36883e+06	-57839.1	1005.82	-29739.9	0.000000	0.000000	7.359877	14.6975	NaN	0.000000	0.001630	0.001634	28.0783	3.686288	0.001916	1923.67	10.7749	11.866	14.6425	1.358537	0.062744	0.062313	14.6975	1923.67	0.057014	0.115320	127.45	5175.51
385	2.000000	1.361434	7.36883e+06	-57839.1	1005.82	-29739.9	0.000000	0.000000	7.362387	15.796	NaN	0.000000	0.001629	0.001648	28.0783	4.187261	0.002072	2020.99	12.066	-169.501	15.7012	1.361085	0.065210	0.064861	15.796	2020.99	0.059348	0.123480	127.924	5254.61
385	2.000000	1.363917	7.36883e+06	-57839.1	1005.82	-29739.9	0.000000	0.000000	7.364920	16.993	NaN	0.000000	0.001587	0.001674	28.0783	4.519091	0.002000	2260.09	11.5407	7.923509	16.6348	1.363559	0.067693	0.067335	16.993	2260.09	0.062054	0.133276	127.502	5656.16
385	2.000000	1.366381	7.36883e+06	-57839.1	1005.82	-29739.9	0.000000	0.000000	7.367444	18.4431	NaN	0.000000	0.001599	0.001662	28.0786	4.859463	0.001962	2476.34	7.201326	-166.283	18.2095	1.366089	0.070157	0.069865	18.4431	2476.34	0.064571	0.142709	129.235	5989.04
385	2.000000	1.368865	7.36883e+06	-57839.1	1005.82	-29739.9	0.000000	0.000000	7.369994	20.0773	NaN	0.000000	0.001596	0.001671	28.0795	5.117409	0.002007	2550.06	10.2582	10.7675	19.6131	1.368574	0.072641	0.072349	20.0773	2550.06	0.066736	0.151063	132.907	5994.38
385	2.000000	1.371419	7.36883e+06	-57839.1	1005.82	-29739.9	0.000000	0.000000	7.372622	21.856	NaN	0.000000	0.001568	0.001672	28.0797	5.388423	0.001925	2798.84	7.637784	-168.689	21.6913	1.371109	0.075195	0.074885	21.856	2798.84	0.069338	0.161406	135.41	6364.9
385	2.000000	1.373929	7.36883e+06	-57839.1	1005.82	-29739.9	0.000000	0.000000	7.375204	23.5925	NaN	0.000000	0.001622	0.001687	28.0795	5.827922	0.001956	2980.2	7.831566	12.9707	23.5341	1.373585	0.077705	0.077361	23.5925	2980.2	0.071768	0.171354	137.683	6577.67
385	2.000000	1.376394	7.36883e+06	-57839.1	1005.82	-29739.9	0.000000	0.000000	7.377742	25.3939	NaN	0.000000	0.001584	0.001680	28.0799	6.128261	0.001984	3088.23	9.312768	-168.058	25.2741	1.376074	0.080169	0.079849	25.3939	3088.23	0.074002	0.180749	140.493	6636.58
385	2.000000	1.378874	7.36883e+06	-57839.1	1005.82	-29739.9	0.000000	0.000000	7.380298	27.2235	NaN	0.000000	0.001571	0.001698	28.0794	6.565896	0.001954	3360.34	8.706384	9.812634	26.8873	1.378481	0.082650	0.082257	27.2235	3360.34	0.076574	0.191854	141.897	7009.25
385	2.000000	1.381380	7.36883e+06	-57839.1	1005.82	-29739.9	0.000000	0.000000	7.382873	28.9211	NaN	0.000000	0.001565	0.001656	28.0802	6.957446	0.001974	3524.9	10.0569	-170.187	28.8782	1.381111	0.085155	0.084887	28.9211	3524.9	0.079002	0.202621	142.735	7154.48
385	2.000000	1.383884	7.36883e+06	-57839.1	1005.82	-29739.9	0.000000	0.000000	7.385461	30.9435	NaN	0.000000	0.001573	0.001663	28.0795	7.135813	0.002019	3533.5	10.7236	8.354507	30.7316	1.383528	0.087660	0.087304	30.9435	3533.5	0.081092	0.212113	145.882	7009.62
385	2.000000	1.386379	7.36883e+06	-57839.1	1005.82	-29739.9	0.000000	0.000000	7.388028	32.7021	NaN	0.000000	0.001611	0.001699	28.08	7.252211	0.001980	3663.39	8.067346	-169.466	32.4598	1.386128	0.090154	0.089904	32.7021	3663.39	0.083459	0.223107	146.576	7085.97
385	2.000000	1.388875	7.36883e+06	-57839.1	1005.82	-29739.9	0.000000	0.000000	7.390602	34.6062	NaN	0.000000	0.001601	0.001651	28.0794	7.467782	0.001929	3870.89	8.603026	10.9177	34.1842	1.388507	0.092650	0.092283	34.6062	3870.89	0.085945	0.234932	147.303	7296.47
385	2.000000	1.391373	7.36883e+06	-57839.1	1005.82	-29739.9	0.000000	0.000000	7.393200	37.0208	NaN	0.000000	0.001565	0.001639	28.0804	7.878666	0.002051	3841.32	10.8869	-171.572	36.6986	1.391082	0.095149	0.094858	37.0208	3841.32	0.087921	0.244533	151.394	7097.16
385	2.000000	1.393878	7.36883e+06	-57839.1	1005.82	-29739.9	0.000000	0.000000	7.395792	39.1379	NaN	0.000000	0.001578	0.001649	28.0797	8.152164	0.001976	4125.56	7.148058	10.8391	38.7142	1.393551	0.097654	0.097327	39.1379	4125.56	0.090539	0.257531	151.973	7427.48
385	2.000000	1.396357	7.36883e+06	-57839.1	1005.82	-29739.9	0.000000	0.000000	7.398359	41.2785	NaN	0.000000	0.001538	0.001644	28.0799	8.497180	0.001926	4410.74	10.5917	-173.548	41.0634	1.396094	0.100133	0.099870	41.2785	4410.74	0.093114	0.270621	152.532	7746.46
385	2.000000	1.398896	7.36884e+06	-57839.1	1005.82	-29739.9	0.000000	0.000000	7.400976	43.1823	NaN	0.000000	0.001552	0.001658	28.0796	8.681696	0.001993	4356.13	10.3856	7.528801	43.0849	1.398502	0.102671	0.102278	43.1823	4356.13	0.095237	0.281642	153.323	7499.38
385	2.000000	1.401402	7.36884e+06	-57839.1	1005.82	-29739.9	0.000000	0.000000	7.403578	45.5194	NaN	0.000000	0.001577	0.001664	28.0799	8.865626	0.001921	4615.17	7.448017	-170.317	45.6598	1.401027	0.105178	0.104803	45.5194	4615.17	0.097780	0.295119	154.241	7761.8
385	2.000000	1.403826	7.36884e+06	-57839.1	1005.82	-29739.9	0.000000	0.000000	7.406093	47.7353	NaN	0.000000	0.001563	0.001650	28.0786	8.917701	0.001952	4567.84	9.995315	8.632419	47.2638	1.403511	0.107602	0.107286	47.7353	4567.84	0.099764	0.305832	156.084	7546.45
385	2.000000	1.406368	7.36884e+06	-57839.1	1005.82	-29739.9	0.000000	0.000000	7.408731	50.0505	NaN	0.000000	0.001556	0.001656	28.0788	8.991055	0.001964	4577.9	7.331463	-169.736	49.901	1.406049	0.110144	0.109825	50.0505	4577.9	0.101944	0.317816	157.483	7419.11
385	2.000000	1.408848	7.36884e+06	-57839.1	1005.82	-29739.9	0.000000	0.000000	7.411317	52.618	NaN	0.000000	0.001544	0.001686	28.0783	9.380638	0.001975	4750.31	7.058323	10.2497	52.2034	1.408491	0.112624	0.112267	52.618	4750.31	0.104316	0.331096	158.92	7542.55
385	2.000000	1.411365	7.36884e+06	-57839.1	1005.82	-29739.9	0.000000	0.000000	7.413952	55.481	NaN	0.000000	0.001557	0.001649	28.0793	9.581784	0.001846	5189.53	10.9784	-175.368	55.2476	1.411055	0.115141	0.114830	55.481	5189.53	0.107123	0.347140	159.823	8047.27
385	2.000000	1.413876	7.36884e+06	-57839.1	1005.82	-29739.9	0.000000	0.000000	7.416551	57.6415	NaN	0.000000	0.001627	0.001651	28.0785	9.902552	0.001953	5070.24	7.316930	8.761223	57.3755	1.413517	0.117651	0.117293	57.6415	5070.24	0.109125	0.358802	160.65	7733.47
385	2.000000	1.416370	7.36884e+06	-57839.1	1005.82	-29739.9	0.000000	0.000000	7.419170	60.6769	NaN	0.000000	0.001547	0.001722	28.0787	10.282	0.001989	5170.23	7.953544	-170.922	60.5669	1.416044	0.120146	0.119820	60.6769	5170.23	0.111344	0.371943	163.135	7745.42
385	2.000000	1.418822	7.36884e+06	-57839.1	1005.82	-29739.9	0.000000	0.000000	7.421732	63.3563	NaN	0.000000	0.001540	0.001727	28.0782	10.2264	0.002077	4923.77	7.259717	10.2289	62.5946	1.418535	0.122598	0.122311	63.3563	4923.77	0.112947	0.381573	166.04	7282.53
385	2.000000	1.421335	7.36884e+06	-57839.1	1005.82	-29739.9	0.000000	0.000000	7.424366	66.2809	NaN	0.000000	0.001565	0.001710	28.0785	10.0183	0.001942	5157.72	5.891750	-169.046	65.7873	1.421022	0.125111	0.124797	66.2809	5157.72	0.115473	0.396983	166.962	7479.03
385	2.000000	1.423854	7.36884e+06	-57839.1	1005.82	-29739.9	0.000000	0.000000	7.427015	69.4499	NaN	0.000000	0.001589	0.001737	28.0785	10.4743	0.002036	5144.76	7.968882	10.232	68.7008	1.423442	0.127630	0.127218	69.4499	5144.76	0.117506	0.409596	169.557	7344.47
385	2.000000	1.426331	7.36884e+06	-57839.1	1005.82	-29739.9	0.000000	0.000000	7.429597	72.0025	NaN	0.000000	0.001594	0.001713	28.0794	10.4359	0.001894	5509.1	7.865484	-171.598	71.942	1.426059	0.130107	0.129834	72.0025	5509.1	0.120304	0.427268	168.518	7700.23
385	2.000000	1.428849	7.36884e+06	-57839.1	1005.82	-29739.9	0.000000	0.000000	7.432240	75.0374	NaN	0.000000	0.001565	0.001727	28.0787	10.9085	0.001912	5706.05	7.044254	9.234834	74.3542	1.428406	0.132625	0.132182	75.0374	5706.05	0.122762	0.443078	169.355	7831.92
385	2.000000	1.431350	7.36884e+06	-57839.1	1005.82	-29739.9	0.000000	0.000000	7.434873	78.2441	NaN	0.000000	0.001580	0.001662	28.0784	11.29	0.001985	5686.6	7.397730	-170.75	77.8508	1.431017	0.135126	0.134793	78.2441	5686.6	0.124806	0.456441	171.422	7690.14
385	2.000000	1.432830	7.36884e+06	-57839.1	1005.82	-29739.9	0.000000	0.000000	7.436397	79.316	NaN	0.000000	0.001657	0.001705	28.0782	11.5669	0.002003	5774.85	9.695385	5.577850	78.9186	1.432458	0.136606	0.136234	79.316	5774.85	0.126305	0.466357	170.076	7726