File: remote_trans/data/nanoindenter/0828-1/data/Data_2025-08-06,11h17m57s/2025-07-22_16-23-58_1_326.txt
2025-07-22, 16:23:58, 1
Index	Phase	Displacement	Time	Pos X	Pos Y	Pos Z	Rot A	Rot B	Piezo Z	Force A	Force B	Gripper	Voltage A	Voltage B	Temperature	Amplitude force	Amplitude pos	Stiffness	Phase shift	Phase excitation	Force A raw	Displacement raw	HMax	HMax raw	Real Force	Real Stiffness	Contact Depth	Area	Hardness	Reduced Mod.
[#]	[#]	[um]	[s]	[um]	[um]	[um]	[m°]	[m°]	[um]	[uN]	[uN]	[V]	[V]	[V]	[°C]	[uN]	[um]	[N/m]	[°]	[°]	[uN]	[um]	[um]	[um]	[uN]	[N/m]	[um]	[um^2]	[MPa]	[MPa]
326	1.000000	0.003139	7.36825e+06	-54939.1	955.818	-29742.9	0.000000	0.000000	6.002800	0.097489	NaN	0.000000	0.001599	0.001672	28.0798	0.022789	0.001017	22.4185	-99.2028	-164.199	0.121983	0.001921	-1.043125	-1.044343	0.097489	22.4185	-1.046386	-9.546283E+13	-1.021220E-15	NaN
326	1.000000	0.011117	7.36825e+06	-54939.1	955.819	-29742.9	0.000000	0.000000	6.010773	-0.023733	NaN	0.000000	0.001580	0.001706	28.0799	0.053091	0.000952	55.7557	-83.2802	-163.505	0.004014	0.009778	-1.035147	-1.036487	-0.023733	55.7557	-1.034828	-6.674460E+13	3.555808E-16	NaN
326	1.000000	0.019097	7.36825e+06	-54939.1	955.818	-29742.9	0.000000	0.000000	6.018754	0.005385	NaN	0.000000	0.001566	0.001733	28.0788	0.125433	0.001763	71.1476	25.6994	-164.877	0.023620	0.017779	-1.027167	-1.028486	0.005385	71.1476	-1.027224	-5.273969E+13	-1.021033E-16	NaN
326	1.000000	0.027135	7.36825e+06	-54939.1	955.819	-29742.9	0.000000	0.000000	6.026793	0.030231	NaN	0.000000	0.001581	0.001731	28.079	0.017869	0.001838	9.722295	83.2448	-161.893	0.026449	0.025770	-1.019130	-1.020495	0.030231	9.722295	-1.021462	-4.411862E+13	-6.852308E-16	NaN
326	1.000000	0.035107	7.36825e+06	-54939.1	955.819	-29742.9	0.000000	0.000000	6.034762	-0.022350	NaN	0.000000	0.001615	0.001712	28.0788	0.068132	0.001874	36.3616	50.9706	-164.91	-0.050995	0.033799	-1.011158	-1.012465	-0.022350	36.3616	-1.010697	-3.160524E+13	7.071753E-16	NaN
326	1.000000	0.043069	7.36825e+06	-54939.1	955.819	-29742.9	0.000000	0.000000	6.042724	-0.042806	NaN	0.000000	0.001582	0.001724	28.0788	0.053441	0.001915	27.9102	-71.0484	-167.971	-0.045020	0.041728	-1.003195	-1.004536	-0.042806	27.9102	-1.002045	-2.417112E+13	1.770962E-15	NaN
326	1.000000	0.051121	7.36825e+06	-54939.1	955.818	-29742.9	0.000000	0.000000	6.050778	0.000482	NaN	0.000000	0.001645	0.001695	28.0789	0.105808	0.001937	54.619	31.7689	-163.851	0.042338	0.049790	-0.995143	-0.996474	0.000482	54.619	-0.995150	-1.951927E+13	-2.467891E-17	NaN
326	1.000000	0.059091	7.36825e+06	-54939.1	955.819	-29742.9	0.000000	0.000000	6.058748	-0.004666	NaN	0.000000	0.001602	0.001684	28.079	0.061937	0.002013	30.7749	69.635	-165.475	-0.013687	0.057777	-0.987173	-0.988488	-0.004666	30.7749	-0.987059	-1.518813E+13	3.072327E-16	NaN
326	1.000000	0.067088	7.36825e+06	-54939.1	955.819	-29742.9	0.000000	0.000000	6.066746	0.026293	NaN	0.000000	0.001605	0.001707	28.0789	0.078830	0.001870	42.1611	29.9354	-164.563	0.019825	0.065813	-0.979176	-0.980452	0.026293	42.1611	-0.979644	-1.206739E+13	-2.178881E-15	NaN
326	1.000000	0.075092	7.36825e+06	-54939.1	955.819	-29742.9	0.000000	0.000000	6.074751	0.055183	NaN	0.000000	0.001568	0.001728	28.0789	0.091773	0.001960	46.8338	118.135	-164.091	-0.031912	0.073767	-0.971172	-0.972498	0.055183	46.8338	-0.972056	-9.536069E+12	-5.786731E-15	NaN
326	1.000000	0.083113	7.36825e+06	-54939.1	955.818	-29742.9	0.000000	0.000000	6.082769	-0.015654	NaN	0.000000	0.001590	0.001664	28.0789	0.045929	0.001893	24.2565	-42.4597	-169.141	-0.028769	0.081756	-0.963152	-0.964508	-0.015654	24.2565	-0.962668	-7.125818E+12	2.196763E-15	NaN
326	1.000000	0.091124	7.36825e+06	-54939.1	955.818	-29742.9	0.000000	0.000000	6.090781	-0.001789	NaN	0.000000	0.001590	0.001671	28.0789	0.098267	0.001916	51.2886	-41.3422	-167.251	0.073146	0.089789	-0.955140	-0.956476	-0.001789	51.2886	-0.955114	-5.636313E+12	3.173391E-16	NaN
326	1.000000	0.099101	7.36825e+06	-54939.1	955.818	-29742.9	0.000000	0.000000	6.098756	-0.018384	NaN	0.000000	0.001566	0.001692	28.0788	0.054288	0.001989	27.2999	-146.638	-164.302	-0.022041	0.097824	-0.947164	-0.948440	-0.018384	27.2999	-0.946659	-4.334744E+12	4.241156E-15	NaN
326	1.000000	0.107103	7.36825e+06	-54939.1	955.818	-29742.9	0.000000	0.000000	6.106761	0.030312	NaN	0.000000	0.001598	0.001714	28.0785	0.086551	0.002079	41.636	-131.591	-164.169	-0.006696	0.105793	-0.939161	-0.940471	0.030312	41.636	-0.939707	-3.492916E+12	-8.678135E-15	NaN
326	1.000000	0.115131	7.36825e+06	-54939.1	955.818	-29742.9	0.000000	0.000000	6.114785	-0.066730	NaN	0.000000	0.001575	0.001748	28.0788	0.102864	0.002005	51.3023	140.617	-160.744	-0.027998	0.113762	-0.931134	-0.932503	-0.066730	51.3023	-0.930158	-2.596147E+12	2.570360E-14	NaN
326	1.000000	0.123104	7.36825e+06	-54939.1	955.819	-29742.9	0.000000	0.000000	6.122760	-0.035167	NaN	0.000000	0.001592	0.001705	28.0789	0.104973	0.002066	50.8121	129.55	-166.506	-0.003002	0.121884	-0.923160	-0.924381	-0.035167	50.8121	-0.922641	-2.055230E+12	1.711106E-14	NaN
326	1.000000	0.131147	7.36825e+06	-54939.1	955.819	-29742.9	0.000000	0.000000	6.130804	0.010226	NaN	0.000000	0.001601	0.001698	28.0787	0.084818	0.001913	44.3343	78.2316	-165.463	-0.026698	0.129807	-0.915117	-0.916457	0.010226	44.3343	-0.915290	-1.635348E+12	-6.253213E-15	NaN
326	1.000000	0.139151	7.36825e+06	-54939.1	955.818	-29742.9	0.000000	0.000000	6.138810	0.047509	NaN	0.000000	0.001583	0.001697	28.0787	0.074796	0.002042	36.6308	10.7049	-163.445	-0.028997	0.137797	-0.907114	-0.908467	0.047509	36.6308	-0.908086	-1.307112E+12	-3.634654E-14	NaN
326	1.000000	0.147118	7.36825e+06	-54939.1	955.819	-29742.9	0.000000	0.000000	6.146776	0.028571	NaN	0.000000	0.001619	0.001698	28.0788	0.047461	0.001866	25.4372	11.4439	-162.062	-0.067096	0.145841	-0.899147	-0.900423	0.028571	25.4372	-0.899989	-1.016058E+12	-2.811975E-14	NaN
326	1.000000	0.155127	7.36825e+06	-54939.1	955.818	-29742.9	0.000000	0.000000	6.154787	0.063172	NaN	0.000000	0.001584	0.001713	28.0805	0.068499	0.001941	35.2893	-165.864	-165.235	0.130903	0.153835	-0.891137	-0.892429	0.063172	35.2893	-0.892479	-8.043235E+11	-7.854023E-14	NaN
326	1.000000	0.163147	7.36825e+06	-54939.1	955.819	-29742.9	0.000000	0.000000	6.162803	-0.004334	NaN	0.000000	0.001589	0.001772	28.0802	0.099342	0.001942	51.1476	90.0567	-162.315	-0.026930	0.161832	-0.883117	-0.884433	-0.004334	51.1476	-0.883054	-5.997979E+11	7.225613E-15	NaN
326	1.000000	0.171178	7.36825e+06	-54939.1	955.819	-29742.9	0.000000	0.000000	6.170836	0.018627	NaN	0.000000	0.001609	0.001740	28.0802	0.098811	0.002009	49.1935	-79.7976	-163.483	0.020632	0.169805	-0.875086	-0.876459	0.018627	49.1935	-0.875370	-4.721593E+11	-3.945168E-14	NaN
326	1.000000	0.179151	7.36825e+06	-54939.1	955.818	-29742.9	0.000000	0.000000	6.178810	0.054396	NaN	0.000000	0.001606	0.001756	28.0803	0.041044	0.001959	20.951	24.6433	-162.926	0.066966	0.177845	-0.867113	-0.868419	0.054396	20.951	-0.869061	-3.879118E+11	-1.402271E-13	NaN
326	1.000000	0.187150	7.36825e+06	-54939.1	955.819	-29742.9	0.000000	0.000000	6.186806	-0.026829	NaN	0.000000	0.001583	0.001744	28.0801	0.071219	0.001922	37.0543	-59.2975	-165.082	-0.132638	0.185840	-0.859114	-0.860425	-0.026829	37.0543	-0.858571	-2.797570E+11	9.589940E-14	NaN
326	1.000000	0.195139	7.36825e+06	-54939.1	955.818	-29742.9	0.000000	0.000000	6.194797	0.021695	NaN	0.000000	0.001549	0.001741	28.0804	0.079099	0.001965	40.2478	131.411	-162.952	0.005569	0.193870	-0.851125	-0.852395	0.021695	40.2478	-0.851529	-2.246177E+11	-9.658682E-14	NaN
326	1.000000	0.203139	7.36825e+06	-54939.1	955.819	-29742.9	0.000000	0.000000	6.202795	-0.011173	NaN	0.000000	0.001591	0.001747	28.0801	0.062351	0.002094	29.7754	21.3063	-167.184	-0.023422	0.201856	-0.843125	-0.844408	-0.011173	29.7754	-0.842844	-1.713232E+11	6.521873E-14	NaN
326	1.000000	0.211154	7.36825e+06	-54939.1	955.819	-29742.9	0.000000	0.000000	6.210814	0.060246	NaN	0.000000	0.001577	0.001772	28.0804	0.097967	0.002065	47.4455	161.896	-163.562	0.000867	0.209794	-0.835110	-0.836471	0.060246	47.4455	-0.836062	-1.386569E+11	-4.344968E-13	NaN
326	1.000000	0.219166	7.36825e+06	-54939.1	955.818	-29742.9	0.000000	0.000000	6.218824	0.037263	NaN	0.000000	0.001566	0.001726	28.0802	0.098310	0.001947	50.5022	90.1837	-165.084	0.012193	0.217865	-0.827098	-0.828399	0.037263	50.5022	-0.827652	-1.066485E+11	-3.494031E-13	NaN
326	1.000000	0.227177	7.36825e+06	-54939.1	955.819	-29742.9	0.000000	0.000000	6.226833	-0.000256	NaN	0.000000	0.001583	0.001731	28.0801	0.154232	0.002000	77.109	109.42	-164.033	0.072656	0.225816	-0.819088	-0.820449	-0.000256	77.109	-0.819085	-8.162217E+10	3.139771E-15	NaN
326	1.000000	0.235148	7.36825e+06	-54939.1	955.818	-29742.9	0.000000	0.000000	6.234807	0.065395	NaN	0.000000	0.001597	0.001722	28.0807	0.018103	0.002068	8.755462	-120.106	-161.729	0.036595	0.233851	-0.811116	-0.812413	0.065395	8.755462	-0.816718	-7.580620E+10	-8.626648E-13	NaN
326	1.000000	0.243179	7.36825e+06	-54939.1	955.818	-29742.9	0.000000	0.000000	6.242835	-0.021832	NaN	0.000000	0.001599	0.001712	28.0801	0.048943	0.002080	23.5251	68.3962	-162.838	-0.027147	0.241804	-0.803085	-0.804460	-0.021832	23.5251	-0.802389	-4.844935E+10	4.506174E-13	NaN
326	1.000000	0.251175	7.36825e+06	-54939.1	955.819	-29742.9	0.000000	0.000000	6.250835	0.059454	NaN	0.000000	0.001588	0.001695	28.0802	0.044858	0.002050	21.8826	-46.0735	-165.026	0.009039	0.249913	-0.795089	-0.796351	0.059454	21.8826	-0.797127	-4.110132E+10	-1.446533E-12	NaN
326	1.000000	0.259183	7.36825e+06	-54939.1	955.818	-29742.9	0.000000	0.000000	6.258840	0.007846	NaN	0.000000	0.001626	0.001728	28.0802	0.033372	0.001873	17.8147	-114.964	-165.302	0.081185	0.257815	-0.787082	-0.788449	0.007846	17.8147	-0.787412	-3.033434E+10	-2.586444E-13	NaN
326	1.000000	0.267208	7.36825e+06	-54939.1	955.818	-29742.9	0.000000	0.000000	6.266863	-0.034201	NaN	0.000000	0.001605	0.001719	28.0802	0.065290	0.002051	31.8381	-43.2123	-163.867	0.005346	0.265808	-0.779056	-0.780457	-0.034201	31.8381	-0.778251	-2.277503E+10	1.501691E-12	NaN
326	1.000000	0.275188	7.36825e+06	-54939.1	955.819	-29742.9	0.000000	0.000000	6.274846	0.014292	NaN	0.000000	0.001594	0.001699	28.0805	0.109132	0.002014	54.1948	-165.113	-166.672	0.057055	0.273844	-0.771076	-0.772420	0.014292	54.1948	-0.771274	-1.830732E+10	-7.806592E-13	NaN
326	1.000000	0.283186	7.36825e+06	-54939.1	955.819	-29742.9	0.000000	0.000000	6.282846	0.079318	NaN	0.000000	0.001599	0.001691	28.08	0.074236	0.001816	40.8748	147.767	-162.927	0.059609	0.281912	-0.763078	-0.764352	0.079318	40.8748	-0.764534	-1.482414E+10	-5.350584E-12	NaN
326	1.000000	0.291199	7.36825e+06	-54939.1	955.819	-29742.9	0.000000	0.000000	6.290856	-0.006912	NaN	0.000000	0.001569	0.001692	28.0792	0.019766	0.002042	9.680299	-170.89	-164.313	0.063806	0.289889	-0.755065	-0.756375	-0.006912	9.680299	-0.754529	-1.083595E+10	6.378366E-13	NaN
326	1.000000	0.299189	7.36825e+06	-54939.1	955.819	-29742.9	0.000000	0.000000	6.298850	0.099496	NaN	0.000000	0.001605	0.001717	28.079	0.126939	0.001941	65.3894	37.1771	-165.9	0.037443	0.297895	-0.747075	-0.748370	0.099496	65.3894	-0.748216	-8.890770E+9	-1.119088E-11	NaN
326	1.000000	0.307170	7.36825e+06	-54939.1	955.819	-29742.9	0.000000	0.000000	6.306828	0.024969	NaN	0.000000	0.001603	0.001716	28.0789	0.090665	0.002082	43.5572	126.906	-164.169	0.028686	0.305875	-0.739094	-0.740389	0.024969	43.5572	-0.739524	-6.769842E+9	-3.688301E-12	NaN
326	1.000000	0.315200	7.36825e+06	-54939.1	955.819	-29742.9	0.000000	0.000000	6.314856	-0.011987	NaN	0.000000	0.001609	0.001739	28.079	0.032623	0.002026	16.1039	-48.8961	-164.072	-0.010816	0.313885	-0.731064	-0.732379	-0.011987	16.1039	-0.730506	-5.101553E+9	2.349681E-12	NaN
326	1.000000	0.323239	7.36825e+06	-54939.1	955.818	-29742.9	0.000000	0.000000	6.322897	0.041565	NaN	0.000000	0.001572	0.001707	28.0791	0.115778	0.002034	56.9326	81.0605	-163.168	0.065793	0.321906	-0.723026	-0.724359	0.041565	56.9326	-0.723573	-4.103925E+9	-1.012820E-11	NaN
326	1.000000	0.331201	7.36826e+06	-54939.1	955.819	-29742.9	0.000000	0.000000	6.330858	0.011016	NaN	0.000000	0.001590	0.001687	28.0793	0.061875	0.002068	29.9268	-82.2829	-164.139	0.038542	0.329897	-0.715064	-0.716367	0.011016	29.9268	-0.715340	-3.168891E+9	-3.476386E-12	NaN
326	1.000000	0.339226	7.36826e+06	-54939.1	955.819	-29742.9	0.000000	0.000000	6.338884	0.038211	NaN	0.000000	0.001596	0.001714	28.0789	0.069995	0.001980	35.3432	79.3273	-167.211	0.026854	0.337906	-0.707038	-0.708358	0.038211	35.3432	-0.707849	-2.504349E+9	-1.525770E-11	NaN
326	1.000000	0.347198	7.36826e+06	-54939.1	955.819	-29742.9	0.000000	0.000000	6.346858	0.077946	NaN	0.000000	0.001596	0.001747	28.079	0.059859	0.001996	29.9879	-56.9058	-165.044	-0.012031	0.345914	-0.699066	-0.700350	0.077946	29.9879	-0.701016	-2.020226E+9	-3.858260E-11	NaN
326	1.000000	0.355210	7.36826e+06	-54939.1	955.819	-29742.9	0.000000	0.000000	6.354867	0.016689	NaN	0.000000	0.001612	0.001736	28.0788	0.110423	0.001928	57.2682	-46.902	-164.406	0.023448	0.353871	-0.691054	-0.692394	0.016689	57.2682	-0.691273	-1.487014E+9	-1.122298E-11	NaN
326	1.000000	0.363212	7.36826e+06	-54939.1	955.819	-29742.9	0.000000	0.000000	6.362866	-0.071238	NaN	0.000000	0.001576	0.001755	28.0788	0.011157	0.001978	5.640141	1.581315	-164.499	-0.069459	0.361904	-0.683053	-0.684360	-0.071238	5.640141	-0.673580	-8.518756E+8	8.362541E-11	NaN
326	1.000000	0.371262	7.36826e+06	-54939.1	955.818	-29742.9	0.000000	0.000000	6.370918	-0.007594	NaN	0.000000	0.001568	0.001739	28.0788	0.041840	0.002105	19.8787	-28.6426	-163.961	0.040085	0.369884	-0.675003	-0.676380	-0.007594	19.8787	-0.674716	-8.829371E+8	8.600704E-12	NaN
326	1.000000	0.379249	7.36826e+06	-54939.1	955.818	-29742.9	0.000000	0.000000	6.378901	-0.125041	NaN	0.000000	0.001574	0.001767	28.0788	0.066476	0.002143	31.0141	-175.536	-165.99	-0.084588	0.377945	-0.667015	-0.668319	-0.125041	31.0141	-0.663991	-6.296969E+8	1.985731E-10	NaN
326	1.000000	0.387196	7.36826e+06	-54939.1	955.819	-29742.9	0.000000	0.000000	6.386852	-0.020130	NaN	0.000000	0.001534	0.001764	28.079	0.051685	0.001978	26.1338	152.28	-162.831	-0.062835	0.385899	-0.659068	-0.660366	-0.020130	26.1338	-0.658490	-5.294050E+8	3.802359E-11	NaN
326	1.000000	0.395229	7.36826e+06	-54939.1	955.82	-29742.9	0.000000	0.000000	6.394887	0.037819	NaN	0.000000	0.001521	0.001728	28.0785	0.095254	0.001983	48.0419	31.1091	-165.657	0.116567	0.393917	-0.651036	-0.652347	0.037819	48.0419	-0.651626	-4.263101E+8	-8.871359E-11	NaN
326	1.000000	0.403268	7.36826e+06	-54939.1	955.819	-29742.9	0.000000	0.000000	6.402926	0.032117	NaN	0.000000	0.001568	0.001757	28.0786	0.073820	0.002014	36.6584	178.275	-165.55	0.041745	0.401922	-0.642996	-0.644343	0.032117	36.6584	-0.643653	-3.314409E+8	-9.690056E-11	NaN
326	1.000000	0.411234	7.36826e+06	-54939.1	955.818	-29742.9	0.000000	0.000000	6.410894	0.085395	NaN	0.000000	0.001535	0.001750	28.0786	0.024809	0.002031	12.215	175.733	-171.261	0.081204	0.409913	-0.635030	-0.636352	0.085395	12.215	-0.640274	-2.978814E+8	-2.866742E-10	NaN
326	1.000000	0.419261	7.36826e+06	-54939.1	955.819	-29742.9	0.000000	0.000000	6.418919	0.035676	NaN	0.000000	0.001598	0.001727	28.0787	0.208057	0.002036	102.165	49.2672	-165.609	-0.013735	0.417978	-0.627004	-0.628286	0.035676	102.165	-0.627266	-1.974551E+8	-1.806773E-10	NaN
326	1.000000	0.427255	7.36826e+06	-54939.1	955.818	-29742.9	0.000000	0.000000	6.426911	-0.026409	NaN	0.000000	0.001561	0.001744	28.0802	0.096077	0.002102	45.7013	-163.237	-162.808	0.034682	0.425892	-0.619009	-0.620372	-0.026409	45.7013	-0.618576	-1.499867E+8	1.760745E-10	NaN
326	1.000000	0.435240	7.36826e+06	-54939.1	955.818	-29742.9	0.000000	0.000000	6.434894	-0.054450	NaN	0.000000	0.001578	0.001796	28.0798	0.037744	0.001965	19.2082	-51.1933	-167.312	0.027641	0.433958	-0.611024	-0.612307	-0.054450	19.2082	-0.608898	-1.103968E+8	4.932246E-10	NaN
326	1.000000	0.443238	7.36826e+06	-54939.1	955.818	-29742.9	0.000000	0.000000	6.442893	-0.027306	NaN	0.000000	0.001602	0.001783	28.0802	0.047449	0.001995	23.7866	112.813	-163.76	-0.015263	0.441934	-0.603026	-0.604330	-0.027306	23.7866	-0.602165	-8.918276E+7	3.061814E-10	NaN
326	1.000000	0.451267	7.36826e+06	-54939.1	955.819	-29742.9	0.000000	0.000000	6.450925	0.033223	NaN	0.000000	0.001545	0.001743	28.08	0.053160	0.002071	25.6627	-178.091	-164.191	0.050197	0.449961	-0.594998	-0.596303	0.033223	25.6627	-0.595969	-7.327053E+7	-4.534344E-10	NaN
326	1.000000	0.459249	7.36826e+06	-54939.1	955.82	-29742.9	0.000000	0.000000	6.458906	0.017680	NaN	0.000000	0.001580	0.001729	28.08	0.064176	0.002000	32.0941	102.44	-165.436	-0.000783	0.457953	-0.587016	-0.588311	0.017680	32.0941	-0.587429	-5.587441E+7	-3.164268E-10	NaN
326	1.000000	0.467272	7.36826e+06	-54939.1	955.819	-29742.9	0.000000	0.000000	6.466929	-0.001501	NaN	0.000000	0.001564	0.001699	28.0802	0.035381	0.001954	18.1087	101.263	-166.32	0.008995	0.465972	-0.578992	-0.580292	-0.001501	18.1087	-0.578930	-4.265403E+7	3.518152E-11	NaN
326	1.000000	0.475300	7.36826e+06	-54939.1	955.819	-29742.9	0.000000	0.000000	6.474955	-0.038326	NaN	0.000000	0.001554	0.001719	28.0799	0.102289	0.002008	50.9288	114.944	-164.554	-0.096037	0.473931	-0.570965	-0.572333	-0.038326	50.9288	-0.570400	-3.252100E+7	1.178496E-9	NaN
326	1.000000	0.483284	7.36826e+06	-54939.1	955.82	-29742.9	0.000000	0.000000	6.482942	0.033226	NaN	0.000000	0.001584	0.001683	28.0805	0.091671	0.001952	46.9723	39.8126	-167.176	0.107449	0.482017	-0.562981	-0.564247	0.033226	46.9723	-0.563511	-2.611788E+7	-1.272145E-9	NaN
326	1.000000	0.491273	7.36826e+06	-54939.1	955.819	-29742.9	0.000000	0.000000	6.490932	0.066568	NaN	0.000000	0.001603	0.001681	28.0802	0.068849	0.002061	33.4116	53.8403	-165.769	0.072453	0.490022	-0.554991	-0.556243	0.066568	33.4116	-0.556486	-2.088107E+7	-3.187965E-9	NaN
326	1.000000	0.499274	7.36826e+06	-54939.1	955.819	-29742.9	0.000000	0.000000	6.498934	0.064850	NaN	0.000000	0.001622	0.001698	28.08	0.062128	0.001990	31.2124	-87.312	-165.778	0.040487	0.497938	-0.546990	-0.548326	0.064850	31.2124	-0.548548	-1.621232E+7	-4.000050E-9	NaN
326	1.000000	0.507293	7.36826e+06	-54939.1	955.819	-29742.9	0.000000	0.000000	6.506950	0.007668	NaN	0.000000	0.001545	0.001685	28.08	0.098105	0.001914	51.2676	108.417	-163.959	-0.032852	0.505990	-0.538971	-0.540275	0.007668	51.2676	-0.539084	-1.198523E+7	-6.398025E-10	NaN
326	1.000000	0.515282	7.36826e+06	-54939.1	955.819	-29742.9	0.000000	0.000000	6.514940	0.044011	NaN	0.000000	0.001555	0.001687	28.0799	0.064075	0.001961	32.6813	-74.4815	-165.966	0.041053	0.513997	-0.530982	-0.532267	0.044011	32.6813	-0.531992	-9.55524e+06	-4.605957E-9	NaN
326	1.000000	0.523309	7.36826e+06	-54939.1	955.817	-29742.9	0.000000	0.000000	6.522968	0.037361	NaN	0.000000	0.001536	0.001672	28.0802	0.095039	0.002009	47.3178	-108.364	-163.903	-0.008164	0.521926	-0.522955	-0.524339	0.037361	47.3178	-0.523547	-7.29321e+06	-5.122732E-9	NaN
326	1.000000	0.531310	7.36826e+06	-54939.1	955.818	-29742.9	0.000000	0.000000	6.530964	-0.052322	NaN	0.000000	0.001560	0.001726	28.0798	0.037449	0.002007	18.6575	157.55	-161.962	-0.054263	0.529975	-0.514954	-0.516289	-0.052322	18.6575	-0.512851	-5.1775e+06	1.010563E-8	NaN
326	1.000000	0.539304	7.36826e+06	-54939.1	955.818	-29742.9	0.000000	0.000000	6.538960	-0.014714	NaN	0.000000	0.001551	0.001715	28.0799	0.042194	0.001981	21.3031	122.373	-163.61	-0.002108	0.537979	-0.506961	-0.508286	-0.014714	21.3031	-0.506443	-4.21555e+06	3.490315E-9	NaN
326	1.000000	0.547259	7.36826e+06	-54939.1	955.818	-29742.9	0.000000	0.000000	6.546914	-0.026143	NaN	0.000000	0.001626	0.001753	28.0799	0.101347	0.002038	49.7172	35.6259	-166.319	-0.118786	0.546043	-0.499006	-0.500222	-0.026143	49.7172	-0.498611	-3.27824e+06	7.974598E-9	NaN
326	1.000000	0.555301	7.36826e+06	-54939.1	955.818	-29742.9	0.000000	0.000000	6.554957	-0.003187	NaN	0.000000	0.001637	0.001739	28.0798	0.115961	0.002129	54.4569	93.526	-164.452	0.028419	0.554010	-0.490964	-0.492254	-0.003187	54.4569	-0.490920	-2.56003e+06	1.244716E-9	NaN
326	1.000000	0.563311	7.36826e+06	-54939.1	955.817	-29742.9	0.000000	0.000000	6.562966	-0.022694	NaN	0.000000	0.001626	0.001668	28.0786	0.099450	0.001905	52.1941	145.397	-163.594	0.027092	0.562039	-0.482954	-0.484225	-0.022694	52.1941	-0.482628	-1.96021e+06	1.157714E-8	NaN
326	1.000000	0.571316	7.36826e+06	-54939.1	955.818	-29742.9	0.000000	0.000000	6.570976	0.096061	NaN	0.000000	0.001633	0.001664	28.0784	0.043534	0.001853	23.4921	145.22	-165.885	0.016430	0.569994	-0.474949	-0.476271	0.096061	23.4921	-0.478016	-1.68944e+06	-5.685947E-8	NaN
326	1.000000	0.579308	7.36826e+06	-54939.1	955.819	-29742.9	0.000000	0.000000	6.578967	0.059898	NaN	0.000000	0.001600	0.001708	28.0787	0.045351	0.001909	23.7525	-92.6665	-163.637	-0.046909	0.577990	-0.466957	-0.468275	0.059898	23.7525	-0.468848	-1.25674e+06	-4.766140E-8	NaN
326	1.000000	0.587336	7.36826e+06	-54939.1	955.819	-29742.9	0.000000	0.000000	6.586991	-0.042057	NaN	0.000000	0.001635	0.001681	28.0785	0.009473	0.001872	5.061584	129.828	-167.551	0.030141	0.585984	-0.458928	-0.460280	-0.042057	5.061584	-0.452696	-745255	5.643305E-8	NaN
326	1.000000	0.595305	7.36826e+06	-54939.1	955.819	-29742.9	0.000000	0.000000	6.594960	-0.045361	NaN	0.000000	0.001600	0.001696	28.0784	0.124049	0.001937	64.0514	-71.8518	-165.332	-0.079099	0.594009	-0.450959	-0.452255	-0.045361	64.0514	-0.450428	-692428	6.551021E-8	NaN
326	1.000000	0.603337	7.36826e+06	-54939.1	955.818	-29742.9	0.000000	0.000000	6.602994	0.005568	NaN	0.000000	0.001602	0.001682	28.0783	0.044044	0.001986	22.1728	-0.670225	-166.995	0.012465	0.602060	-0.442927	-0.444204	0.005568	22.1728	-0.443115	-546158	-1.019540E-8	NaN
326	1.000000	0.611339	7.36826e+06	-54939.1	955.818	-29742.9	0.000000	0.000000	6.610997	0.030923	NaN	0.000000	0.001556	0.001711	28.079	0.061750	0.001967	31.3941	-176.305	-166.43	0.122630	0.610049	-0.434925	-0.436216	0.030923	31.3941	-0.435664	-428680	-7.213609E-8	NaN
326	1.000000	0.619337	7.36826e+06	-54939.1	955.818	-29742.9	0.000000	0.000000	6.618993	-0.003533	NaN	0.000000	0.001549	0.001715	28.079	0.051634	0.002033	25.3947	-96.2316	-164.186	-0.065828	0.618070	-0.426928	-0.428195	-0.003533	25.3947	-0.426823	-321442	1.099051E-8	NaN
326	1.000000	0.627351	7.36826e+06	-54939.1	955.819	-29742.9	0.000000	0.000000	6.627006	-0.058347	NaN	0.000000	0.001533	0.001710	28.0787	0.120571	0.002061	58.5034	69.5434	-164.861	-0.102524	0.626029	-0.418913	-0.420235	-0.058347	58.5034	-0.418165	-242316	2.407900E-7	NaN
326	1.000000	0.635353	7.36826e+06	-54939.1	955.818	-29742.9	0.000000	0.000000	6.635008	-0.029659	NaN	0.000000	0.001550	0.001728	28.0787	0.006412	0.002035	3.150766	-91.1973	-163.49	0.009304	0.634001	-0.410912	-0.412264	-0.029659	3.150766	-0.403852	-151668	1.955542E-7	NaN
326	1.000000	0.643338	7.36826e+06	-54939.1	955.818	-29742.9	0.000000	0.000000	6.642995	0.013734	NaN	0.000000	0.001583	0.001684	28.0787	0.036871	0.002076	17.7624	51.2245	-167.682	0.043461	0.642085	-0.402926	-0.404179	0.013734	17.7624	-0.403506	-149959	-9.158333E-8	NaN
326	1.000000	0.651346	7.36826e+06	-54939.1	955.818	-29742.9	0.000000	0.000000	6.651003	-0.001492	NaN	0.000000	0.001547	0.001688	28.0787	0.065300	0.001970	33.1492	96.5735	-166.632	-0.009599	0.650043	-0.394918	-0.396221	-0.001492	33.1492	-0.394884	-112976	1.320425E-8	NaN
326	1.000000	0.659345	7.36826e+06	-54939.1	955.82	-29742.9	0.000000	0.000000	6.659001	-0.008087	NaN	0.000000	0.001581	0.001683	28.0788	0.020588	0.001993	10.3295	16.7401	-165.557	0.006701	0.657990	-0.386920	-0.388274	-0.008087	10.3295	-0.386333	-85246.3	9.486914E-8	NaN
326	1.000000	0.667349	7.36826e+06	-54939.1	955.818	-29742.9	0.000000	0.000000	6.667003	-0.073983	NaN	0.000000	0.001547	0.001699	28.0786	0.010892	0.002003	5.437744	69.6742	-166.411	-0.068885	0.666092	-0.378916	-0.380172	-0.073983	5.437744	-0.368711	-47595.6	1.554400E-6	NaN
326	1.000000	0.675360	7.36826e+06	-54939.1	955.82	-29742.9	0.000000	0.000000	6.675018	0.032059	NaN	0.000000	0.001535	0.001716	28.0791	0.034855	0.002141	16.2783	96.2207	-165.59	0.097946	0.674043	-0.370904	-0.372221	0.032059	16.2783	-0.372381	-53753.3	-5.964115E-7	NaN
326	1.000000	0.683346	7.36826e+06	-54939.1	955.819	-29742.9	0.000000	0.000000	6.683003	-0.006162	NaN	0.000000	0.001535	0.001720	28.0785	0.155074	0.001824	85.0363	-113.081	-165.007	0.014094	0.682103	-0.362918	-0.364161	-0.006162	85.0363	-0.362864	-39194.1	1.572221E-7	NaN
326	1.000000	0.691382	7.36826e+06	-54939.1	955.818	-29742.9	0.000000	0.000000	6.691041	0.050253	NaN	0.000000	0.001515	0.001679	28.0786	0.099432	0.001889	52.6359	13.8849	-164.159	-0.010836	0.690070	-0.354882	-0.356195	0.050253	52.6359	-0.355598	-30772.1	-1.633060E-6	NaN
326	1.000000	0.699405	7.36826e+06	-54939.1	955.819	-29742.9	0.000000	0.000000	6.699060	-0.032262	NaN	0.000000	0.001585	0.001663	28.08	0.040473	0.001999	20.2497	-93.9233	-165.339	0.012678	0.698062	-0.346859	-0.348202	-0.032262	20.2497	-0.345664	-22081.1	1.461058E-6	NaN
326	1.000000	0.707355	7.36826e+06	-54939.1	955.819	-29742.9	0.000000	0.000000	6.707012	0.006758	NaN	0.000000	0.001589	0.001688	28.0799	0.067347	0.002009	33.5214	-166.194	-167.228	0.084346	0.706076	-0.338909	-0.340189	0.006758	33.5214	-0.339060	-17695.1	-3.819041E-7	NaN
326	1.000000	0.715376	7.36826e+06	-54939.1	955.82	-29742.9	0.000000	0.000000	6.715033	0.022679	NaN	0.000000	0.001585	0.001703	28.0803	0.096797	0.002036	47.5529	177.834	-164.559	-0.008917	0.714109	-0.330889	-0.332156	0.022679	47.5529	-0.331246	-13605	-1.666939E-6	NaN
326	1.000000	0.723377	7.36826e+06	-54939.1	955.819	-29742.9	0.000000	0.000000	6.723033	-0.015166	NaN	0.000000	0.001573	0.001652	28.0799	0.085834	0.002009	42.7152	99.7029	-166.053	-0.023632	0.722061	-0.322887	-0.324204	-0.015166	42.7152	-0.322621	-10166.9	1.491681E-6	NaN
326	1.000000	0.731396	7.36826e+06	-54939.1	955.82	-29742.9	0.000000	0.000000	6.731054	0.044303	NaN	0.000000	0.001568	0.001723	28.08	0.130699	0.002004	65.2053	132.914	-164.18	0.028296	0.730038	-0.314869	-0.316227	0.044303	65.2053	-0.315378	-7952.95	-5.570614E-6	NaN
326	1.000000	0.739379	7.36826e+06	-54939.1	955.819	-29742.9	0.000000	0.000000	6.739037	0.034221	NaN	0.000000	0.001548	0.001705	28.0802	0.014534	0.002015	7.211350	-115.791	-164.639	-0.011029	0.738091	-0.306885	-0.308174	0.034221	7.211350	-0.310445	-6724.09	-5.089389E-6	NaN
326	1.000000	0.747411	7.36826e+06	-54939.1	955.819	-29742.9	0.000000	0.000000	6.747069	0.026317	NaN	0.000000	0.001557	0.001656	28.0801	0.020997	0.002007	10.4634	55.7147	-166.954	-0.048835	0.746066	-0.298853	-0.300199	0.026317	10.4634	-0.300740	-4826.64	-5.452516E-6	NaN
326	1.000000	0.755405	7.36826e+06	-54939.1	955.819	-29742.9	0.000000	0.000000	6.755060	-0.032896	NaN	0.000000	0.001606	0.001669	28.0803	0.062600	0.002013	31.0967	-14.8373	-163.777	-0.050824	0.754031	-0.290860	-0.292233	-0.032896	31.0967	-0.290066	-3344.22	9.836586E-6	NaN
326	1.000000	0.763381	7.36826e+06	-54939.1	955.819	-29742.9	0.000000	0.000000	6.763038	0.003268	NaN	0.000000	0.001589	0.001719	28.0799	0.093410	0.001902	49.1196	23.9914	-167.57	0.042376	0.762121	-0.282883	-0.284144	0.003268	49.1196	-0.282933	-2613.21	-1.250647E-6	NaN
326	1.000000	0.771393	7.36826e+06	-54939.1	955.819	-29742.9	0.000000	0.000000	6.771050	0.020419	NaN	0.000000	0.001585	0.001690	28.0803	0.062790	0.002050	30.6233	-122.153	-168.156	0.062416	0.770150	-0.274872	-0.276115	0.020419	30.6233	-0.275372	-2009.22	-1.016270E-5	NaN
326	1.000000	0.779375	7.36826e+06	-54939.1	955.819	-29742.9	0.000000	0.000000	6.779034	0.048932	NaN	0.000000	0.001569	0.001710	28.0799	0.122830	0.002170	56.6036	60.3915	-164.2	0.056168	0.778060	-0.266889	-0.268204	0.048932	56.6036	-0.267538	-1527.84	-3.202672E-5	NaN
326	1.000000	0.787387	7.36826e+06	-54939.1	955.819	-29742.9	0.000000	0.000000	6.787042	-0.023854	NaN	0.000000	0.001587	0.001693	28.0798	0.097246	0.001930	50.3765	131.287	-162.66	0.030187	0.786089	-0.258878	-0.260175	-0.023854	50.3765	-0.258523	-1112.4	2.144378E-5	NaN
326	1.000000	0.795407	7.36826e+06	-54939.1	955.819	-29742.9	0.000000	0.000000	6.795065	0.037433	NaN	0.000000	0.001601	0.001689	28.08	0.076893	0.002054	37.4299	178.733	-165.146	-0.030671	0.794123	-0.250857	-0.252142	0.037433	37.4299	-0.251607	-870.577	-4.299770E-5	NaN
326	1.000000	0.803413	7.36826e+06	-54939.1	955.818	-29742.9	0.000000	0.000000	6.803072	0.049730	NaN	0.000000	0.001594	0.001705	28.08	0.096103	0.001979	48.5594	-108.236	-162.156	0.057354	0.802101	-0.242851	-0.244163	0.049730	48.5594	-0.243619	-654.604	-7.597028E-5	NaN
326	1.000000	0.811401	7.36826e+06	-54939.1	955.819	-29742.9	0.000000	0.000000	6.811056	-0.018885	NaN	0.000000	0.001637	0.001690	28.0803	0.129830	0.001913	67.8735	-139.505	-165.565	-0.060023	0.810097	-0.234864	-0.236167	-0.018885	67.8735	-0.234655	-474.059	3.983745E-5	NaN
326	1.000000	0.819410	7.36826e+06	-54939.1	955.82	-29742.9	0.000000	0.000000	6.819067	0.003664	NaN	0.000000	0.001591	0.001690	28.08	0.025094	0.002090	12.009	-95.3084	-167.231	0.012598	0.818116	-0.226854	-0.228148	0.003664	12.009	-0.227083	-360.062	-1.017538E-5	NaN
326	1.000000	0.827419	7.36826e+06	-54939.1	955.818	-29742.9	0.000000	0.000000	6.827078	0.051356	NaN	0.000000	0.001611	0.001687	28.0799	0.046881	0.002015	23.2694	152.95	-168.032	0.028866	0.826133	-0.218845	-0.220131	0.051356	23.2694	-0.220500	-282.924	-0.000182	NaN
326	1.000000	0.835406	7.36826e+06	-54939.1	955.818	-29742.9	0.000000	0.000000	6.835064	0.037738	NaN	0.000000	0.001597	0.001711	28.0788	0.059575	0.002002	29.7638	137.603	-163.333	0.139129	0.834042	-0.210859	-0.212222	0.037738	29.7638	-0.211809	-205.156	-0.000184	NaN
326	1.000000	0.843424	7.36826e+06	-54939.1	955.818	-29742.9	0.000000	0.000000	6.843080	-0.011193	NaN	0.000000	0.001583	0.001724	28.0786	0.054289	0.002025	26.8055	134.353	-161.497	0.044935	0.842103	-0.202840	-0.204162	-0.011193	26.8055	-0.202527	-144.927	7.722952E-5	NaN
326	1.000000	0.851388	7.36826e+06	-54939.1	955.818	-29742.9	0.000000	0.000000	6.851045	0.017040	NaN	0.000000	0.001624	0.001710	28.0788	0.022227	0.001960	11.3422	-170.274	-162.22	-0.002533	0.850113	-0.194877	-0.196151	0.017040	11.3422	-0.196003	-113.191	-0.000151	NaN
326	1.000000	0.859427	7.36826e+06	-54939.1	955.819	-29742.9	0.000000	0.000000	6.859084	0.026261	NaN	0.000000	0.001659	0.001710	28.0787	0.116976	0.001911	61.2272	162.901	-165.375	0.000759	0.858070	-0.186838	-0.188194	0.026261	61.2272	-0.187159	-80.6226	-0.000326	NaN
326	1.000000	0.867442	7.36826e+06	-54939.1	955.819	-29742.9	0.000000	0.000000	6.867101	0.056430	NaN	0.000000	0.001664	0.001725	28.0789	0.051168	0.002043	25.0513	-71.2693	-167.068	0.111398	0.866125	-0.178822	-0.180139	0.056430	25.0513	-0.180511	-62.2535	-0.000906	NaN
326	1.000000	0.875448	7.36826e+06	-54939.1	955.819	-29742.9	0.000000	0.000000	6.875107	0.043832	NaN	0.000000	0.001657	0.001671	28.0789	0.061629	0.002049	30.0786	-103.121	-167.204	0.097199	0.874135	-0.170816	-0.172129	0.043832	30.0786	-0.171909	-44.3303	-0.000989	NaN
326	1.000000	0.883453	7.36826e+06	-54939.1	955.818	-29742.9	0.000000	0.000000	6.883111	0.031436	NaN	0.000000	0.001611	0.001691	28.0788	0.030697	0.001879	16.3349	-106.88	-168.435	0.038074	0.882135	-0.162811	-0.164130	0.031436	16.3349	-0.164255	-32.5993	-0.000964	NaN
326	1.000000	0.891447	7.36826e+06	-54939.1	955.819	-29742.9	0.000000	0.000000	6.891104	0.004635	NaN	0.000000	0.001606	0.001699	28.0788	0.068387	0.001973	34.6556	171.175	-163.047	-0.028101	0.890105	-0.154818	-0.156159	0.004635	34.6556	-0.154918	-22.2384	-0.000208	NaN
326	1.000000	0.899450	7.36826e+06	-54939.1	955.818	-29742.9	0.000000	0.000000	6.899110	0.080577	NaN	0.000000	0.001657	0.001665	28.0789	0.041243	0.001879	21.9498	-75.7757	-166.24	0.006737	0.898158	-0.146814	-0.148106	0.080577	21.9498	-0.149568	-17.7875	-0.004530	NaN
326	1.000000	0.907449	7.36826e+06	-54939.1	955.818	-29742.9	0.000000	0.000000	6.907107	0.047636	NaN	0.000000	0.001625	0.001672	28.0794	0.101400	0.001911	53.0729	125.138	-168.104	0.026425	0.906106	-0.138816	-0.140158	0.047636	53.0729	-0.139489	-11.5707	-0.004117	NaN
326	1.000000	0.915471	7.36826e+06	-54939.1	955.818	-29742.9	0.000000	0.000000	6.915125	-0.078812	NaN	0.000000	0.001632	0.001708	28.0791	0.085697	0.002009	42.6573	-178.456	-163.423	-0.024700	0.914128	-0.130793	-0.132136	-0.078812	42.6573	-0.129407	-7.421390	0.010620	NaN
326	1.000000	0.923453	7.36826e+06	-54939.1	955.819	-29742.9	0.000000	0.000000	6.923112	0.044702	NaN	0.000000	0.001594	0.001701	28.0789	0.043446	0.002019	21.5207	-54.0266	-164.816	-0.035738	0.922162	-0.122811	-0.124103	0.044702	21.5207	-0.124369	-5.908642	-0.007565	NaN
326	1.000000	0.931474	7.36826e+06	-54939.1	955.817	-29742.9	0.000000	0.000000	6.931132	0.028743	NaN	0.000000	0.001609	0.001680	28.0788	0.071223	0.002021	35.25	175.708	-167.7	0.009151	0.930155	-0.114790	-0.116109	0.028743	35.25	-0.115402	-3.893861	-0.007382	NaN
326	1.000000	0.939456	7.36826e+06	-54939.1	955.82	-29742.9	0.000000	0.000000	6.939111	-0.039155	NaN	0.000000	0.001639	0.001698	28.079	0.111780	0.002021	55.3005	121.584	-165.332	0.031364	0.938116	-0.106808	-0.108148	-0.039155	55.3005	-0.106277	-2.504219	0.015636	NaN
326	1.000000	0.947461	7.36826e+06	-54939.1	955.818	-29742.9	0.000000	0.000000	6.947117	-0.016407	NaN	0.000000	0.001626	0.001610	28.079	0.039863	0.001963	20.3023	-113.701	-166.933	-0.003007	0.946176	-0.098803	-0.100089	-0.016407	20.3023	-0.098197	-1.665750	0.009850	NaN
326	1.000000	0.955459	7.36826e+06	-54939.1	955.818	-29742.9	0.000000	0.000000	6.955113	-0.062913	NaN	0.000000	0.001653	0.001619	28.0788	0.048176	0.002054	23.4598	120.174	-163.125	0.036546	0.954145	-0.090805	-0.092119	-0.062913	23.4598	-0.088794	-1.012560	0.062133	NaN
326	1.000000	0.963473	7.36826e+06	-54939.1	955.819	-29742.9	0.000000	0.000000	6.963130	0.011907	NaN	0.000000	0.001667	0.001625	28.0793	0.018983	0.001913	9.923613	157.702	-163.217	-0.033607	0.962099	-0.082791	-0.084165	0.011907	9.923613	-0.083691	-0.763602	-0.015594	NaN
326	1.000000	0.971480	7.36826e+06	-54939.1	955.818	-29742.9	0.000000	0.000000	6.971136	-0.021766	NaN	0.000000	0.001659	0.001625	28.0802	0.060832	0.001897	32.069	-168.296	-166.634	0.030423	0.970153	-0.074784	-0.076112	-0.021766	32.069	-0.074275	-0.442302	0.049211	NaN
326	1.000000	0.979508	7.36826e+06	-54939.1	955.819	-29742.9	0.000000	0.000000	6.979167	0.055800	NaN	0.000000	0.001640	0.001679	28.0806	0.022904	0.002087	10.9761	178.82	-164.124	-0.003738	0.978190	-0.066756	-0.068074	0.055800	10.9761	-0.070569	-0.353265	-0.157955	NaN
326	1.000000	0.987461	7.36826e+06	-54939.1	955.819	-29742.9	0.000000	0.000000	6.987119	0.039231	NaN	0.000000	0.001646	0.001600	28.0804	0.123610	0.002000	61.7965	120.131	-167.519	0.066772	0.986145	-0.058804	-0.060120	0.039231	61.7965	-0.059280	-0.171707	-0.228476	NaN
326	1.000000	0.995473	7.36826e+06	-54939.1	955.818	-29742.9	0.000000	0.000000	6.995129	-0.023366	NaN	0.000000	0.001682	0.001614	28.0803	0.046272	0.002026	22.8446	51.8278	-167.731	0.017059	0.994182	-0.050791	-0.052082	-0.023366	22.8446	-0.050024	-0.091405	0.255628	NaN
326	1.000000	1.003460	7.36826e+06	-54939.1	955.818	-29742.9	0.000000	0.000000	7.003116	-0.024053	NaN	0.000000	0.001661	0.001600	28.0804	0.133241	0.001950	68.3311	-149.578	-161.79	-0.006945	1.002157	-0.042804	-0.044107	-0.024053	68.3311	-0.042540	-0.054046	0.445039	NaN
326	1.000000	1.011509	7.36826e+06	-54939.1	955.817	-29742.9	0.000000	0.000000	7.011167	0.023617	NaN	0.000000	0.001660	0.001634	28.0803	0.089252	0.002048	43.5701	17.8373	-165.278	0.013374	1.010164	-0.034755	-0.036100	0.023617	43.5701	-0.035162	-0.032378	-0.729421	NaN
326	1.000000	1.019485	7.36826e+06	-54939.1	955.818	-29742.9	0.000000	0.000000	7.019144	0.049736	NaN	0.000000	0.001667	0.001636	28.0805	0.168797	0.002092	80.693	130.389	-166.009	0.020199	1.018164	-0.026779	-0.028101	0.049736	80.693	-0.027241	-0.019341	-2.571563	NaN
326	1.000000	1.027451	7.36826e+06	-54939.1	955.818	-29742.9	0.000000	0.000000	7.027109	0.023229	NaN	0.000000	0.001643	0.001632	28.0804	0.102893	0.002045	50.3137	36.4484	-166.785	0.094005	1.026163	-0.018813	-0.020101	0.023229	50.3137	-0.019160	-0.011956	-1.942809	NaN
326	1.000000	1.035511	7.36826e+06	-54939.1	955.818	-29742.9	0.000000	0.000000	7.035169	0.027683	NaN	0.000000	0.001695	0.001612	28.0802	0.067410	0.001907	35.3564	-48.4184	-164.599	0.040735	1.034237	-0.010753	-0.012028	0.027683	35.3564	-0.011341	-0.007152	-3.870582	NaN
326	1.000000	1.043518	7.36826e+06	-54939.1	955.82	-29742.9	0.000000	0.000000	7.043174	-0.024495	NaN	0.000000	0.001674	0.001615	28.0805	0.064605	0.002015	32.0628	112.579	-168.216	-0.002136	1.042180	-0.002746	-0.004084	-0.024495	32.0628	-0.002173	-0.001559	15.7123	NaN
326	1.000000	1.051530	7.36826e+06	-54939.1	955.819	-29742.9	0.000000	0.000000	7.051346	3.874551	NaN	0.000000	0.001671	0.001593	28.0801	4.495601	0.001903	2362.97	10.6654	-169.117	2.649830	1.050153	0.005266	0.003888	3.874551	2362.97	0.004036	0.003270	1184.74	37751.3
326	2.000000	1.057068	7.36826e+06	-54939.1	955.819	-29742.9	0.000000	0.000000	7.057081	8.679493	NaN	0.000000	0.001655	0.001602	28.0811	9.119290	0.001619	5631.96	11.6768	-177.93	8.121295	1.056856	0.010803	0.010591	8.679493	5631.96	0.009648	0.008792	987.156	54875.5
326	2.000000	1.059122	7.36826e+06	-54939.1	955.819	-29742.9	0.000000	0.000000	7.059257	11.6225	NaN	0.000000	0.001656	0.001627	28.0803	11.6088	0.001633	7108.6	6.880095	-173.18	11.5003	1.058811	0.012858	0.012547	11.6225	7108.6	0.011632	0.011052	1051.62	61778.4
326	2.000000	1.061047	7.36826e+06	-54939.1	955.819	-29742.9	0.000000	0.000000	7.061283	14.0786	NaN	0.000000	0.001639	0.001628	28.0802	13.9995	0.001711	8181.6	7.433085	-175.443	13.6037	1.060733	0.014783	0.014469	14.0786	8181.6	0.013492	0.013327	1056.42	64751.3
326	2.000000	1.063043	7.36826e+06	-54939.1	955.819	-29742.9	0.000000	0.000000	7.063356	15.9376	NaN	0.000000	0.001641	0.001617	28.0805	15.9969	0.001846	8663.84	5.876306	-174.552	14.7672	1.062819	0.016779	0.016554	15.9376	8663.84	0.015399	0.015822	1007.33	62930
326	2.000000	1.065018	7.36826e+06	-54939.1	955.819	-29742.9	0.000000	0.000000	7.065441	18.6264	NaN	0.000000	0.001637	0.001626	28.0802	16.8986	0.001668	10131	1.405780	-171.506	17.2476	1.064761	0.018754	0.018497	18.6264	10131	0.017375	0.018584	1002.28	67897.8
326	2.000000	1.067031	7.36826e+06	-54939.1	955.819	-29742.9	0.000000	0.000000	7.067626	22.8221	NaN	0.000000	0.001610	0.001625	28.081	20.2804	0.001811	11199.7	6.836807	-175.859	23.639	1.066695	0.020767	0.020431	22.8221	11199.7	0.019238	0.021359	1068.48	70013.9
326	2.000000	1.069024	7.36826e+06	-54939.1	955.818	-29742.9	0.000000	0.000000	7.069821	27.7025	NaN	0.000000	0.001677	0.001633	28.0791	22.3035	0.001766	12627.7	3.763578	-176.012	26.1412	1.068713	0.022760	0.022449	27.7025	12627.7	0.021115	0.024324	1138.9	73974.1
326	2.000000	1.071011	7.36826e+06	-54939.1	955.819	-29742.9	0.000000	0.000000	7.071858	28.9583	NaN	0.000000	0.001682	0.001652	28.0789	24.0861	0.001720	14004.4	6.783747	-178.974	28.4389	1.070695	0.024746	0.024431	28.9583	14004.4	0.023195	0.027814	1041.14	76719.4
326	2.000000	1.072965	7.36826e+06	-54939.1	955.818	-29742.9	0.000000	0.000000	7.074147	37.0721	NaN	0.000000	0.001594	0.001635	28.079	26.6874	0.001707	15635.9	7.086446	179.478	35.3928	1.072678	0.026701	0.026414	37.0721	15635.9	0.024922	0.030875	1200.73	81300.7
326	2.000000	1.075006	7.36826e+06	-54939.1	955.819	-29742.9	0.000000	0.000000	7.076340	40.7708	NaN	0.000000	0.001636	0.001611	28.0789	28.2999	0.001840	15379.4	7.638371	179.418	39.6589	1.074647	0.028741	0.028382	40.7708	15379.4	0.026753	0.034282	1189.27	75888.6
326	2.000000	1.076996	7.36826e+06	-54939.1	955.819	-29742.9	0.000000	0.000000	7.078524	45.5053	NaN	0.000000	0.001677	0.001637	28.0799	30.1234	0.001700	17724.5	6.792701	178.363	45.4429	1.076683	0.030731	0.030419	45.5053	17724.5	0.028806	0.038305	1187.99	82741.1
326	2.000000	1.079011	7.36826e+06	-54939.1	955.819	-29742.9	0.000000	0.000000	7.080802	51.8911	NaN	0.000000	0.001645	0.001652	28.079	31.8059	0.001719	18497.3	1.601673	-176.703	50.3392	1.078634	0.032746	0.032369	51.8911	18497.3	0.030642	0.042085	1232.99	82378.7
326	2.000000	1.081020	7.36826e+06	-54939.1	955.819	-29742.9	0.000000	0.000000	7.082939	55.0052	NaN	0.000000	0.001626	0.001626	28.0791	33.5652	0.001721	19508.3	3.578105	-177.969	56.1686	1.080632	0.034755	0.034368	55.0052	19508.3	0.032641	0.046395	1185.59	82748.2
326	2.000000	1.083068	7.36826e+06	-54939.1	955.819	-29742.9	0.000000	0.000000	7.085188	59.8961	NaN	0.000000	0.001646	0.001643	28.0796	36.8337	0.001689	21806.5	2.812038	-179.189	62.3569	1.082644	0.036803	0.036379	59.8961	21806.5	0.034743	0.051150	1170.99	88092.1
326	2.000000	1.084962	7.36826e+06	-54939.1	955.819	-29742.9	0.000000	0.000000	7.087534	70.8793	NaN	0.000000	0.001622	0.001606	28.079	38.4405	0.001849	20794.6	3.564586	-179.574	69.2572	1.084638	0.038698	0.038374	70.8793	20794.6	0.036141	0.054437	1302.05	81428.9
326	2.000000	1.087029	7.36826e+06	-54939.1	955.819	-29742.9	0.000000	0.000000	7.089716	73.6728	NaN	0.000000	0.001623	0.001651	28.0792	42.2406	0.001850	22829.4	9.186955	173.697	76.1343	1.086705	0.040764	0.040441	73.6728	22829.4	0.038344	0.059818	1231.61	85280.7
326	2.000000	1.088977	7.36826e+06	-54939.1	955.819	-29742.9	0.000000	0.000000	7.091995	81.7167	NaN	0.000000	0.001627	0.001646	28.0791	43.2094	0.001647	26240.3	4.715374	176.633	81.3069	1.088632	0.042712	0.042367	81.7167	26240.3	0.040377	0.065006	1257.07	94030
326	2.000000	1.091007	7.36826e+06	-54939.1	955.82	-29742.9	0.000000	0.000000	7.094518	93.6804	NaN	0.000000	0.001608	0.001591	28.0793	45.0658	0.001716	26260.5	6.800936	176.114	95.7065	1.090606	0.044743	0.044342	93.6804	26260.5	0.042067	0.069481	1348.3	91021.6
326	2.000000	1.092988	7.36826e+06	-54939.1	955.819	-29742.9	0.000000	0.000000	7.096726	99.2196	NaN	0.000000	0.001605	0.001637	28.0795	48.1572	0.001870	25752	7.933975	174.485	99.2679	1.092647	0.046723	0.046383	99.2196	25752	0.043834	0.074310	1335.2	86309.6
326	2.000000	1.094966	7.36826e+06	-54939.1	955.819	-29742.9	0.000000	0.000000	7.099149	110.017	NaN	0.000000	0.001609	0.001611	28.079	48.0372	0.001615	29740.1	4.895776	176.826	109.247	1.094600	0.048702	0.048336	110.017	29740.1	0.045928	0.080242	1371.06	95920.8
326	2.000000	1.096984	7.36826e+06	-54939.1	955.82	-29742.9	0.000000	0.000000	7.101397	115.611	NaN	0.000000	0.001594	0.001618	28.0791	50.805	0.001732	29330.2	2.691302	177.847	115.402	1.096602	0.050720	0.050338	115.611	29330.2	0.047763	0.085626	1350.19	91577
326	2.000000	1.098980	7.36826e+06	-54939.1	955.82	-29742.9	0.000000	0.000000	7.103952	129.21	NaN	0.000000	0.001574	0.001640	28.0788	53.9811	0.001774	30437.6	3.389382	177.083	128.592	1.098659	0.052716	0.052395	129.21	30437.6	0.049532	0.090973	1420.31	92199.1
326	2.000000	1.100911	7.36826e+06	-54939.1	955.82	-29742.9	0.000000	0.000000	7.106270	138.625	NaN	0.000000	0.001612	0.001644	28.0791	55.751	0.001801	30951.3	6.438589	173.625	137.66	1.100698	0.054647	0.054433	138.625	30951.3	0.051287	0.096434	1437.51	91061.9
326	2.000000	1.102992	7.36826e+06	-54939.1	955.82	-29742.9	0.000000	0.000000	7.108556	143.601	NaN	0.000000	0.001574	0.001596	28.0801	58.7504	0.001743	33711.8	4.313301	175.253	143.367	1.102631	0.056728	0.056367	143.601	33711.8	0.053533	0.103645	1385.51	95671.2
326	2.000000	1.104920	7.36826e+06	-54939.1	955.821	-29742.9	0.000000	0.000000	7.111071	157.88	NaN	0.000000	0.001574	0.001600	28.0802	58.9505	0.001704	34586	3.107344	176.319	154.529	1.104610	0.058656	0.058346	157.88	34586	0.055232	0.109269	1444.88	95593
326	2.000000	1.106929	7.36826e+06	-54939.1	955.82	-29742.9	0.000000	0.000000	7.113323	163.781	NaN	0.000000	0.001572	0.001616	28.0804	62.3248	0.001864	33437.4	4.454754	175.809	162.212	1.106567	0.060664	0.060303	163.781	33437.4	0.056991	0.115239	1421.23	89992.4
326	2.000000	1.109006	7.36826e+06	-54939.1	955.82	-29742.9	0.000000	0.000000	7.115847	174.654	NaN	0.000000	0.001584	0.001651	28.0804	64.2832	0.001657	38790.7	5.759408	172.401	178.947	1.108780	0.062742	0.062516	174.654	38790.7	0.059365	0.123541	1413.73	100831
326	2.000000	1.110912	7.36826e+06	-54939.1	955.821	-29742.9	0.000000	0.000000	7.118221	186.034	NaN	0.000000	0.001572	0.001640	28.0802	65.4384	0.001708	38313.2	5.262052	172.693	182.736	1.110593	0.064648	0.064328	186.034	38313.2	0.061006	0.129440	1437.22	97294.3
326	2.000000	1.112902	7.36826e+06	-54939.1	955.821	-29742.9	0.000000	0.000000	7.120647	196.603	NaN	0.000000	0.001601	0.001625	28.0803	68.2217	0.001723	39603.5	0.964891	176.97	194.199	1.112784	0.066638	0.066520	196.603	39603.5	0.062915	0.136467	1440.66	97947.4
326	2.000000	1.114792	7.36826e+06	-54939.1	955.821	-29742.9	0.000000	0.000000	7.123322	215.714	NaN	0.000000	0.001586	0.001612	28.0804	69.3205	0.001614	42961.3	4.590891	172.706	208.44	1.114649	0.068528	0.068385	215.714	42961.3	0.064762	0.143435	1503.92	103639
326	2.000000	1.116966	7.36826e+06	-54939.1	955.821	-29742.9	0.000000	0.000000	7.125945	226.632	NaN	0.000000	0.001632	0.001624	28.0803	71.8007	0.001793	40041.1	0.779159	177.89	226.669	1.116584	0.070701	0.070320	226.632	40041.1	0.066456	0.149973	1511.16	94465.5
326	2.000000	1.119000	7.36826e+06	-54939.1	955.821	-29742.9	0.000000	0.000000	7.128720	244.626	NaN	0.000000	0.001635	0.001654	28.0802	74.823	0.001659	45112	6.362884	171.201	246.552	1.118619	0.072736	0.072355	244.626	45112	0.068669	0.158715	1541.29	103456
326	2.000000	1.120969	7.36826e+06	-54939.1	955.821	-29742.9	0.000000	0.000000	7.131243	258.11	NaN	0.000000	0.001638	0.001648	28.0802	75.7514	0.001670	45353	3.466298	174.008	258.814	1.120624	0.074705	0.074360	258.11	45353	0.070436	0.165868	1556.12	101741
326	2.000000	1.122842	7.36826e+06	-54939.1	955.821	-29742.9	0.000000	0.000000	7.133941	278.154	NaN	0.000000	0.001634	0.001609	28.0801	79.9034	0.001669	47874.2	4.646141	172.158	274.936	1.122599	0.076578	0.076335	278.154	47874.2	0.072220	0.173237	1605.62	105088
326	2.000000	1.124867	7.36826e+06	-54939.1	955.821	-29742.9	0.000000	0.000000	7.136862	299.947	NaN	0.000000	0.001653	0.001622	28.0803	79.7564	0.001749	45613.8	1.072864	176.308	294.593	1.124542	0.078603	0.078277	299.947	45613.8	0.073671	0.179340	1672.5	98408
326	2.000000	1.126913	7.36826e+06	-54939.1	955.82	-29742.9	0.000000	0.000000	7.139393	311.732	NaN	0.000000	0.001635	0.001615	28.0803	84.7347	0.001648	51425.5	7.799257	167.829	310.084	1.126591	0.080649	0.080327	311.732	51425.5	0.076102	0.189793	1642.48	107848
326	2.000000	1.129034	7.36826e+06	-54939.1	955.82	-29742.9	0.000000	0.000000	7.142419	333.722	NaN	0.000000	0.001631	0.001603	28.0804	86.8953	0.001767	49187.3	7.650554	169.481	335.227	1.128551	0.082770	0.082287	333.722	49187.3	0.077682	0.196732	1696.33	101319
326	2.000000	1.130888	7.36826e+06	-54939.1	955.821	-29742.9	0.000000	0.000000	7.145002	351.457	NaN	0.000000	0.001647	0.001578	28.0799	89.498	0.001851	48338.1	6.952755	169.494	349.281	1.130527	0.084623	0.084263	351.457	48338.1	0.079170	0.203379	1728.09	97928.6
326	2.000000	1.132858	7.36826e+06	-54939.1	955.821	-29742.9	0.000000	0.000000	7.147813	371.875	NaN	0.000000	0.001699	0.001584	28.0799	90.4749	0.001711	52892.4	7.806410	168.259	368.329	1.132518	0.086594	0.086254	371.875	52892.4	0.081321	0.213164	1744.55	104667
326	2.000000	1.134927	7.36826e+06	-54939.1	955.821	-29742.9	0.000000	0.000000	7.150464	386.044	NaN	0.000000	0.001662	0.001589	28.08	90.8149	0.001667	54467.7	5.235572	170.182	384.166	1.134546	0.088663	0.088282	386.044	54467.7	0.083347	0.222581	1734.4	105480
326	2.000000	1.136836	7.36826e+06	-54939.1	955.821	-29742.9	0.000000	0.000000	7.153119	404.166	NaN	0.000000	0.001620	0.001556	28.0793	94.3507	0.001795	52551.7	5.264425	170.882	400.051	1.136597	0.090572	0.090332	404.166	52551.7	0.084804	0.229467	1761.32	100230
326	2.000000	1.138995	7.36826e+06	-54939.1	955.821	-29742.9	0.000000	0.000000	7.156180	426.095	NaN	0.000000	0.001592	0.001543	28.0791	97.5085	0.001733	56256.8	7.968408	168.071	427.036	1.138577	0.092731	0.092312	426.095	56256.8	0.087050	0.240280	1773.32	104855
326	2.000000	1.140893	7.36826e+06	-54939.1	955.82	-29742.9	0.000000	0.000000	7.158737	442.121	NaN	0.000000	0.001558	0.001571	28.0788	98.1668	0.001928	50908.2	4.666341	172.156	440.482	1.140603	0.094629	0.094339	442.121	50908.2	0.088116	0.245488	1800.99	93874.1
326	2.000000	1.142867	7.36826e+06	-54939.1	955.821	-29742.9	0.000000	0.000000	7.161562	462.82	NaN	0.000000	0.001617	0.001575	28.0788	100.051	0.001798	55657.7	1.715341	173.899	458.344	1.142602	0.096603	0.096337	462.82	55657.7	0.090366	0.256663	1803.22	100373
326	2.000000	1.144928	7.36826e+06	-54939.1	955.82	-29742.9	0.000000	0.000000	7.164645	487.659	NaN	0.000000	0.001551	0.001601	28.0789	100.018	0.001761	56795.2	2.361427	173.836	490.106	1.144522	0.098664	0.098258	487.659	56795.2	0.092224	0.266065	1832.86	100598
326	2.000000	1.146780	7.36826e+06	-54939.1	955.82	-29742.9	0.000000	0.000000	7.166891	497.243	NaN	0.000000	0.001549	0.001585	28.0788	104.487	0.001821	57374.4	6.230870	169.24	490.13	1.146505	0.100516	0.100241	497.243	57374.4	0.094016	0.275280	1806.32	99908.9
326	2.000000	1.148938	7.36826e+06	-54939.1	955.82	-29742.9	0.000000	0.000000	7.170069	522.037	NaN	0.000000	0.001553	0.001583	28.0788	106.17	0.001758	60381.4	5.837470	169.724	521.153	1.148627	0.102674	0.102362	522.037	60381.4	0.096189	0.286655	1821.14	103038
326	2.000000	1.150882	7.36826e+06	-54939.1	955.821	-29742.9	0.000000	0.000000	7.173057	547.42	NaN	0.000000	0.001525	0.001582	28.0791	107.262	0.001803	59484.7	3.604273	172.065	545.203	1.150547	0.104618	0.104283	547.42	59484.7	0.097716	0.294772	1857.1	100100
326	2.000000	1.152858	7.36826e+06	-54939.1	955.82	-29742.9	0.000000	0.000000	7.175558	560.188	NaN	0.000000	0.001524	0.001621	28.0789	109.795	0.001727	63577.5	3.526974	171.3	557.527	1.152570	0.106593	0.106305	560.188	63577.5	0.099985	0.307037	1824.5	104829
326	2.000000	1.154830	7.36826e+06	-54939.1	955.82	-29742.9	0.000000	0.000000	7.178832	591.824	NaN	0.000000	0.001531	0.001584	28.0789	109.768	0.001739	63107.9	-0.351645	175.267	587.68	1.154588	0.108565	0.108324	591.824	63107.9	0.101532	0.315530	1875.65	102645