File: remote_trans/data/nanoindenter/0828-1/data/Data_2025-08-06,11h17m57s/2025-07-22_16-23-58_1_1062.txt
2025-07-22, 16:23:58, 1
Index	Phase	Displacement	Time	Pos X	Pos Y	Pos Z	Rot A	Rot B	Piezo Z	Force A	Force B	Gripper	Voltage A	Voltage B	Temperature	Amplitude force	Amplitude pos	Stiffness	Phase shift	Phase excitation	Force A raw	Displacement raw	HMax	HMax raw	Real Force	Real Stiffness	Contact Depth	Area	Hardness	Reduced Mod.
[#]	[#]	[um]	[s]	[um]	[um]	[um]	[m°]	[m°]	[um]	[uN]	[uN]	[V]	[V]	[V]	[°C]	[uN]	[um]	[N/m]	[°]	[°]	[uN]	[um]	[um]	[um]	[uN]	[N/m]	[um]	[um^2]	[MPa]	[MPa]
1062	1.000000	0.002631	7.37543e+06	-53239.1	1055.82	-29746.8	0.000000	0.000000	6.002812	0.010202	NaN	0.000000	0.001637	0.001674	28.084	0.145257	0.000951	152.759	66.735	-171.95	-0.014408	0.001387	-1.158605	-1.159849	0.010202	152.759	-1.158655	-3.067945E+15	-3.325457E-18	NaN
1062	1.000000	0.012665	7.37543e+06	-53239.1	1055.82	-29746.8	0.000000	0.000000	6.012848	0.034942	NaN	0.000000	0.001612	0.001661	28.0841	0.082693	0.001131	73.1123	162.407	21.3368	0.033856	0.011200	-1.148571	-1.150037	0.034942	73.1123	-1.148929	-2.272307E+15	-1.537742E-17	NaN
1062	1.000000	0.022583	7.37543e+06	-53239.1	1055.82	-29746.8	0.000000	0.000000	6.022764	-0.004423	NaN	0.000000	0.001606	0.001719	28.084	0.038942	0.001545	25.2014	119.715	-166.306	0.024523	0.021204	-1.138654	-1.140032	-0.004423	25.2014	-1.138522	-1.647848E+15	2.684110E-18	NaN
1062	1.000000	0.032568	7.37543e+06	-53239.1	1055.82	-29746.8	0.000000	0.000000	6.032750	0.023793	NaN	0.000000	0.001614	0.001722	28.0841	0.080200	0.001985	40.393	174.402	14.9061	0.123447	0.031224	-1.128668	-1.130013	0.023793	40.393	-1.129110	-1.232216E+15	-1.930939E-17	NaN
1062	1.000000	0.042559	7.37543e+06	-53239.1	1055.82	-29746.8	0.000000	0.000000	6.042740	0.010059	NaN	0.000000	0.001577	0.001723	28.0847	0.042574	0.002146	19.8388	-29.2194	-168.247	-0.013495	0.041236	-1.118678	-1.120000	0.010059	19.8388	-1.119058	-9.033019E+14	-1.113584E-17	NaN
1062	1.000000	0.052581	7.37543e+06	-53239.1	1055.82	-29746.8	0.000000	0.000000	6.052766	0.102292	NaN	0.000000	0.001632	0.001674	28.0843	0.110253	0.001998	55.1818	-20.9341	16.082	-0.004524	0.051202	-1.108656	-1.110035	0.102292	55.1818	-1.110046	-6.837597E+14	-1.496023E-16	NaN
1062	1.000000	0.062570	7.37543e+06	-53239.1	1055.82	-29746.8	0.000000	0.000000	6.062753	0.047220	NaN	0.000000	0.001602	0.001735	28.0843	0.070444	0.002051	34.3377	13.0514	-166.501	0.028657	0.061266	-1.098666	-1.099971	0.047220	34.3377	-1.099697	-4.965995E+14	-9.508622E-17	NaN
1062	1.000000	0.072568	7.37543e+06	-53239.1	1055.82	-29746.8	0.000000	0.000000	6.072749	0.004489	NaN	0.000000	0.001587	0.001753	28.0842	0.085689	0.001969	43.5167	-143.036	16.6735	0.026527	0.071225	-1.088668	-1.090011	0.004489	43.5167	-1.088745	-3.539696E+14	-1.268271E-17	NaN
1062	1.000000	0.082567	7.37543e+06	-53239.1	1055.82	-29746.8	0.000000	0.000000	6.082746	-0.035883	NaN	0.000000	0.001637	0.001697	28.0843	0.072780	0.001995	36.487	129.159	-164.022	0.076189	0.081308	-1.078669	-1.079929	-0.035883	36.487	-1.077932	-2.533609E+14	1.416282E-16	NaN
1062	1.000000	0.092568	7.37543e+06	-53239.1	1055.82	-29746.8	0.000000	0.000000	6.092750	0.024204	NaN	0.000000	0.001621	0.001694	28.0842	0.067514	0.001965	34.3503	-128.73	15.5987	0.123866	0.091211	-1.068668	-1.070025	0.024204	34.3503	-1.069196	-1.933720E+14	-1.251677E-16	NaN
1062	1.000000	0.102592	7.37543e+06	-53239.1	1055.82	-29746.8	0.000000	0.000000	6.102773	0.002026	NaN	0.000000	0.001648	0.001713	28.0842	0.040009	0.001989	20.1202	130.513	-162.506	-0.010472	0.101294	-1.058645	-1.059942	0.002026	20.1202	-1.058720	-1.398368E+14	-1.448608E-17	NaN
1062	1.000000	0.112609	7.37544e+06	-53239.1	1055.82	-29746.7	0.000000	0.000000	6.112791	0.017515	NaN	0.000000	0.001623	0.001677	28.0841	0.036558	0.002036	17.958	165.317	14.6505	-0.035154	0.111185	-1.048628	-1.050051	0.017515	17.958	-1.049359	-1.046640E+14	-1.673433E-16	NaN
1062	1.000000	0.122588	7.37544e+06	-53239.1	1055.82	-29746.8	0.000000	0.000000	6.122771	0.055136	NaN	0.000000	0.001644	0.001661	28.0833	0.069508	0.002116	32.8489	161.633	-168.266	0.049517	0.121266	-1.038649	-1.039970	0.055136	32.8489	-1.039908	-7.811363E+13	-7.058426E-16	NaN
1062	1.000000	0.132599	7.37544e+06	-53239.1	1055.82	-29746.7	0.000000	0.000000	6.132781	0.031320	NaN	0.000000	0.001611	0.001703	28.083	0.039377	0.001914	20.5689	170.88	14.7199	0.036139	0.131232	-1.028637	-1.030005	0.031320	20.5689	-1.029779	-5.708377E+13	-5.486720E-16	NaN
1062	1.000000	0.142590	7.37544e+06	-53239.1	1055.82	-29746.7	0.000000	0.000000	6.142773	0.065054	NaN	0.000000	0.001622	0.001685	28.0834	0.030208	0.002072	14.579	75.3278	-166.652	0.027592	0.141279	-1.018647	-1.019958	0.065054	14.579	-1.021993	-4.485088E+13	-1.450446E-15	NaN
1062	1.000000	0.152593	7.37544e+06	-53239.1	1055.82	-29746.7	0.000000	0.000000	6.152774	0.017270	NaN	0.000000	0.001603	0.001700	28.0834	0.107338	0.001967	54.5736	-46.2602	13.7944	-0.038923	0.151241	-1.008644	-1.009995	0.017270	54.5736	-1.008881	-2.987600E+13	-5.780496E-16	NaN
1062	1.000000	0.162613	7.37544e+06	-53239.1	1055.82	-29746.8	0.000000	0.000000	6.162797	0.073278	NaN	0.000000	0.001576	0.001718	28.0832	0.078683	0.002101	37.4417	70.129	-169.197	0.084418	0.161301	-0.998624	-0.999935	0.073278	37.4417	-1.000091	-2.275093E+13	-3.220889E-15	NaN
1062	1.000000	0.172630	7.37544e+06	-53239.1	1055.82	-29746.7	0.000000	0.000000	6.172812	0.031012	NaN	0.000000	0.001558	0.001723	28.0829	0.097017	0.002003	48.4364	-17.054	15.3654	0.136827	0.171204	-0.988607	-0.990032	0.031012	48.4364	-0.989087	-1.617383E+13	-1.917430E-15	NaN
1062	1.000000	0.182638	7.37544e+06	-53239.1	1055.82	-29746.7	0.000000	0.000000	6.182821	0.053535	NaN	0.000000	0.001532	0.001682	28.0829	0.069375	0.001963	35.3323	117.376	-160.667	0.042140	0.181305	-0.978598	-0.979931	0.053535	35.3323	-0.979735	-1.210142E+13	-4.423841E-15	NaN
1062	1.000000	0.192631	7.37544e+06	-53239.1	1055.82	-29746.7	0.000000	0.000000	6.192812	-0.019061	NaN	0.000000	0.001540	0.001712	28.083	0.063602	0.002099	30.2941	-34.4578	16.6978	-0.043025	0.191262	-0.968605	-0.969974	-0.019061	30.2941	-0.968133	-8.443101E+12	2.257554E-15	NaN
1062	1.000000	0.202621	7.37544e+06	-53239.1	1055.82	-29746.7	0.000000	0.000000	6.202804	0.051884	NaN	0.000000	0.001526	0.001715	28.0828	0.062712	0.001974	31.7611	62.0344	-165.47	-0.024037	0.201307	-0.958615	-0.959929	0.051884	31.7611	-0.959840	-6.527078E+12	-7.949091E-15	NaN
1062	1.000000	0.212649	7.37544e+06	-53239.1	1055.82	-29746.7	0.000000	0.000000	6.212832	0.060965	NaN	0.000000	0.001530	0.001669	28.0829	0.098366	0.001958	50.2491	148.747	12.0463	0.047728	0.211214	-0.948587	-0.950022	0.060965	50.2491	-0.949497	-4.734224E+12	-1.287749E-14	NaN
1062	1.000000	0.222624	7.37544e+06	-53239.1	1055.82	-29746.7	0.000000	0.000000	6.222807	0.060853	NaN	0.000000	0.001566	0.001702	28.0829	0.041758	0.002036	20.5118	-112.084	-166.796	0.103564	0.221289	-0.938612	-0.939947	0.060853	20.5118	-0.940838	-3.617736E+12	-1.682075E-14	NaN
1062	1.000000	0.232650	7.37544e+06	-53239.1	1055.82	-29746.7	0.000000	0.000000	6.232832	0.026224	NaN	0.000000	0.001539	0.001680	28.0828	0.011848	0.002194	5.400206	-36.1293	13.4991	0.042981	0.231239	-0.928587	-0.929998	0.026224	5.400206	-0.932229	-2.768709E+12	-9.471734E-15	NaN
1062	1.000000	0.242641	7.37544e+06	-53239.1	1055.82	-29746.7	0.000000	0.000000	6.242823	0.018554	NaN	0.000000	0.001562	0.001707	28.0826	0.061506	0.002020	30.4442	-148.954	-163.137	-0.026163	0.241390	-0.918595	-0.919847	0.018554	30.4442	-0.919052	-1.838259E+12	-1.009312E-14	NaN
1062	1.000000	0.252645	7.37544e+06	-53239.1	1055.82	-29746.7	0.000000	0.000000	6.252830	0.103637	NaN	0.000000	0.001560	0.001699	28.0825	0.092155	0.001978	46.5865	-35.1265	13.5296	0.091014	0.251284	-0.908591	-0.909952	0.103637	46.5865	-0.910260	-1.398520E+12	-7.410512E-14	NaN
1062	1.000000	0.262654	7.37544e+06	-53239.1	1055.82	-29746.7	0.000000	0.000000	6.262836	0.042126	NaN	0.000000	0.001566	0.001710	28.0842	0.111233	0.001931	57.6146	88.1674	-162.787	0.072319	0.261314	-0.898583	-0.899922	0.042126	57.6146	-0.899131	-9.892981E+11	-4.258197E-14	NaN
1062	1.000000	0.272691	7.37544e+06	-53239.1	1055.82	-29746.7	0.000000	0.000000	6.272873	0.032294	NaN	0.000000	0.001569	0.001690	28.0839	0.021764	0.002030	10.7214	172.322	13.298	0.069509	0.271258	-0.888546	-0.889978	0.032294	10.7214	-0.890805	-7.634738E+11	-4.229828E-14	NaN
1062	1.000000	0.282656	7.37544e+06	-53239.1	1055.82	-29746.7	0.000000	0.000000	6.282837	0.005905	NaN	0.000000	0.001564	0.001711	28.0839	0.055418	0.001958	28.2998	120.424	-165.249	0.037890	0.281387	-0.878580	-0.879850	0.005905	28.2998	-0.878737	-5.243507E+11	-1.126120E-14	NaN
1062	1.000000	0.292674	7.37544e+06	-53239.1	1055.82	-29746.7	0.000000	0.000000	6.292854	-0.022272	NaN	0.000000	0.001586	0.001720	28.084	0.087329	0.001975	44.2138	-117.644	9.852647	0.015670	0.291296	-0.868563	-0.869941	-0.022272	44.2138	-0.868185	-3.774741E+11	5.900168E-14	NaN
1062	1.000000	0.302665	7.37544e+06	-53239.1	1055.82	-29746.7	0.000000	0.000000	6.302848	0.071899	NaN	0.000000	0.001571	0.001692	28.0842	0.036735	0.002046	17.9572	-122.051	-165.793	0.055004	0.301337	-0.858572	-0.859899	0.071899	17.9572	-0.861575	-3.072109E+11	-2.340390E-13	NaN
1062	1.000000	0.312680	7.37544e+06	-53239.1	1055.82	-29746.7	0.000000	0.000000	6.312861	-0.015250	NaN	0.000000	0.001538	0.001680	28.0842	0.053461	0.002034	26.2803	95.5535	16.7093	0.034489	0.311304	-0.848556	-0.849932	-0.015250	26.2803	-0.848121	-2.019714E+11	7.550778E-14	NaN
1062	1.000000	0.322700	7.37544e+06	-53239.1	1055.82	-29746.7	0.000000	0.000000	6.322882	0.047267	NaN	0.000000	0.001568	0.001663	28.084	0.074795	0.001989	37.5981	-92.5132	-168.492	0.123673	0.321308	-0.838537	-0.839929	0.047267	37.5981	-0.839480	-1.542570E+11	-3.064173E-13	NaN
1062	1.000000	0.332695	7.37544e+06	-53239.1	1055.82	-29746.7	0.000000	0.000000	6.332879	0.079333	NaN	0.000000	0.001551	0.001696	28.0842	0.037541	0.001944	19.3142	172.245	10.3328	0.088568	0.331292	-0.828541	-0.829944	0.079333	19.3142	-0.831622	-1.207160E+11	-6.571844E-13	NaN
1062	1.000000	0.342698	7.37544e+06	-53239.1	1055.82	-29746.7	0.000000	0.000000	6.342879	0.004008	NaN	0.000000	0.001578	0.001738	28.0842	0.078428	0.002060	38.0702	121.62	-166.582	-0.010253	0.341372	-0.818538	-0.819864	0.004008	38.0702	-0.818617	-8.043712E+10	-4.983326E-14	NaN
1062	1.000000	0.352704	7.37544e+06	-53239.1	1055.82	-29746.7	0.000000	0.000000	6.352887	0.065508	NaN	0.000000	0.001574	0.001686	28.084	0.122467	0.001989	61.5735	-136.387	15.933	0.084422	0.351344	-0.808533	-0.809892	0.065508	61.5735	-0.809330	-6.018485E+10	-1.088440E-12	NaN
1062	1.000000	0.362685	7.37544e+06	-53239.1	1055.82	-29746.7	0.000000	0.000000	6.362868	0.037252	NaN	0.000000	0.001566	0.001684	28.084	0.044949	0.002039	22.0492	-31.1204	-165.763	0.148836	0.361316	-0.798551	-0.799920	0.037252	22.0492	-0.799818	-4.470903E+10	-8.332073E-13	NaN
1062	1.000000	0.372711	7.37544e+06	-53239.1	1055.82	-29746.7	0.000000	0.000000	6.372891	-0.013668	NaN	0.000000	0.001584	0.001705	28.0844	0.164700	0.002021	81.5053	-11.0227	11.0083	0.081256	0.371312	-0.788526	-0.789925	-0.013668	81.5053	-0.788400	-3.128617E+10	4.368850E-13	NaN
1062	1.000000	0.382712	7.37544e+06	-53239.1	1055.82	-29746.7	0.000000	0.000000	6.382895	0.047922	NaN	0.000000	0.001592	0.001689	28.084	0.123313	0.001956	63.0478	-43.6808	-167.972	0.064327	0.381410	-0.778524	-0.779826	0.047922	63.0478	-0.779095	-2.338444E+10	-2.049306E-12	NaN
1062	1.000000	0.392710	7.37544e+06	-53239.1	1055.82	-29746.7	0.000000	0.000000	6.392895	0.106443	NaN	0.000000	0.001629	0.001673	28.084	0.134808	0.002005	67.2342	-33.5645	16.6712	0.125743	0.391354	-0.768527	-0.769882	0.106443	67.2342	-0.769714	-1.743476E+10	-6.105244E-12	NaN
1062	1.000000	0.402712	7.37544e+06	-53239.1	1055.82	-29746.7	0.000000	0.000000	6.402895	0.058362	NaN	0.000000	0.001575	0.001715	28.0829	0.081389	0.002037	39.964	-155.085	-165.871	0.060575	0.401402	-0.758525	-0.759835	0.058362	39.964	-0.759620	-1.270954E+10	-4.591981E-12	NaN
1062	1.000000	0.412720	7.37544e+06	-53239.1	1055.82	-29746.7	0.000000	0.000000	6.412903	0.060867	NaN	0.000000	0.001558	0.001682	28.083	0.126020	0.001969	64.0176	-58.4077	15.4575	0.023240	0.411341	-0.748516	-0.749895	0.060867	64.0176	-0.749229	-9.177650E+9	-6.632105E-12	NaN
1062	1.000000	0.422723	7.37544e+06	-53239.1	1055.82	-29746.7	0.000000	0.000000	6.422906	0.046136	NaN	0.000000	0.001548	0.001695	28.0826	0.073541	0.002077	35.4133	-108.249	-163.553	0.041667	0.421433	-0.738513	-0.739804	0.046136	35.4133	-0.739490	-6.762618E+9	-6.822194E-12	NaN
1062	1.000000	0.432715	7.37544e+06	-53239.1	1055.82	-29746.7	0.000000	0.000000	6.432898	0.045910	NaN	0.000000	0.001544	0.001709	28.0827	0.092871	0.001978	46.9574	161.433	13.7361	0.036211	0.431348	-0.728522	-0.729889	0.045910	46.9574	-0.729255	-4.905151E+9	-9.359601E-12	NaN
1062	1.000000	0.442705	7.37544e+06	-53239.1	1055.82	-29746.7	0.000000	0.000000	6.442885	-0.020835	NaN	0.000000	0.001547	0.001703	28.0828	0.100741	0.002064	48.8081	-138.392	-166.007	0.001834	0.441397	-0.718532	-0.719840	-0.020835	48.8081	-0.718212	-3.468028E+9	6.007721E-12	NaN
1062	1.000000	0.452705	7.37544e+06	-53239.1	1055.82	-29746.7	0.000000	0.000000	6.452888	0.048247	NaN	0.000000	0.001520	0.001677	28.0828	0.029169	0.002046	14.2557	-12.1971	13.418	0.091203	0.451352	-0.708532	-0.709884	0.048247	14.2557	-0.711070	-2.771087E+9	-1.741097E-11	NaN
1062	1.000000	0.462750	7.37544e+06	-53239.1	1055.82	-29746.7	0.000000	0.000000	6.462930	-0.013723	NaN	0.000000	0.001548	0.001694	28.083	0.005443	0.001948	2.794053	160.886	-165.72	0.015822	0.461466	-0.698487	-0.699770	-0.013723	2.794053	-0.694803	-1.661672E+9	8.258732E-12	NaN
1062	1.000000	0.472695	7.37544e+06	-53239.1	1055.82	-29746.7	0.000000	0.000000	6.472880	0.085237	NaN	0.000000	0.001591	0.001695	28.0826	0.108475	0.002044	53.0753	168.565	13.5155	0.004899	0.471365	-0.688541	-0.689871	0.085237	53.0753	-0.689746	-1.417233E+9	-6.014290E-11	NaN
1062	1.000000	0.482758	7.37544e+06	-53239.1	1055.82	-29746.7	0.000000	0.000000	6.482940	0.020109	NaN	0.000000	0.001557	0.001699	28.0829	0.123246	0.001917	64.3037	8.613891	-162.778	-0.039887	0.481433	-0.678478	-0.679804	0.020109	64.3037	-0.678713	-1.001389E+9	-2.008070E-11	NaN
1062	1.000000	0.492738	7.37544e+06	-53239.1	1055.82	-29746.7	0.000000	0.000000	6.492920	0.028106	NaN	0.000000	0.001572	0.001691	28.0826	0.108427	0.001943	55.7949	139.391	13.4358	-0.047546	0.491421	-0.668498	-0.669816	0.028106	55.7949	-0.668876	-7.345275E+8	-3.826425E-11	NaN
1062	1.000000	0.502741	7.37544e+06	-53239.1	1055.82	-29746.7	0.000000	0.000000	6.502923	0.028127	NaN	0.000000	0.001584	0.001738	28.0826	0.035701	0.002009	17.7699	-120.37	-166.65	0.061010	0.501473	-0.658495	-0.659763	0.028127	17.7699	-0.659683	-5.496949E+8	-5.116906E-11	NaN
1062	1.000000	0.512764	7.37544e+06	-53239.1	1055.82	-29746.7	0.000000	0.000000	6.512944	-0.016687	NaN	0.000000	0.001555	0.001736	28.0827	0.024289	0.001966	12.3512	-178.77	12.6505	-0.051139	0.511397	-0.648472	-0.649840	-0.016687	12.3512	-0.647459	-3.737631E+8	4.464712E-11	NaN
1062	1.000000	0.522771	7.37544e+06	-53239.1	1055.82	-29746.7	0.000000	0.000000	6.522953	0.034390	NaN	0.000000	0.001605	0.001708	28.0827	0.021724	0.001979	10.9773	-173.977	-166.781	0.020732	0.521501	-0.638465	-0.639736	0.034390	10.9773	-0.640815	-3.030214E+8	-1.134908E-10	NaN
1062	1.000000	0.532777	7.37544e+06	-53239.1	1055.82	-29746.7	0.000000	0.000000	6.532957	-0.024006	NaN	0.000000	0.001594	0.001707	28.0838	0.014578	0.001973	7.389104	-177.185	16.3331	0.028206	0.531418	-0.628460	-0.629818	-0.024006	7.389104	-0.626023	-1.898442E+8	1.264514E-10	NaN
1062	1.000000	0.542762	7.37544e+06	-53239.1	1055.82	-29746.7	0.000000	0.000000	6.542947	0.095752	NaN	0.000000	0.001582	0.001684	28.0838	0.116385	0.002051	56.7592	128.821	-168.559	-0.002815	0.541490	-0.618474	-0.619747	0.095752	56.7592	-0.619740	-1.556166E+8	-6.153074E-10	NaN
1062	1.000000	0.552752	7.37544e+06	-53239.1	1055.82	-29746.7	0.000000	0.000000	6.552933	0.008992	NaN	0.000000	0.001586	0.001716	28.0843	0.037439	0.002097	17.8513	37.9736	16.3424	0.016558	0.551376	-0.608485	-0.609861	0.008992	17.8513	-0.608863	-1.102719E+8	-8.154536E-11	NaN
1062	1.000000	0.562793	7.37544e+06	-53239.1	1055.82	-29746.7	0.000000	0.000000	6.562972	-0.023658	NaN	0.000000	0.001594	0.001758	28.0838	0.087037	0.002010	43.2911	16.9997	-164.457	0.032981	0.561464	-0.598444	-0.599772	-0.023658	43.2911	-0.598034	-7.823158E+7	3.024072E-10	NaN
1062	1.000000	0.572773	7.37544e+06	-53239.1	1055.82	-29746.7	0.000000	0.000000	6.572958	0.103293	NaN	0.000000	0.001648	0.001772	28.0839	0.088992	0.002001	44.4728	-106.708	9.221951	0.103840	0.571432	-0.588463	-0.589804	0.103293	44.4728	-0.590205	-6.102293E+7	-1.692695E-9	NaN
1062	1.000000	0.582770	7.37544e+06	-53239.1	1055.82	-29746.7	0.000000	0.000000	6.582950	-0.007184	NaN	0.000000	0.001580	0.001723	28.0838	0.044628	0.001898	23.5146	-136.374	-165.957	0.038795	0.581467	-0.578467	-0.579769	-0.007184	23.5146	-0.578238	-4.172538E+7	1.721739E-10	NaN
1062	1.000000	0.592820	7.37544e+06	-53239.1	1055.82	-29746.7	0.000000	0.000000	6.593004	0.096691	NaN	0.000000	0.001575	0.001738	28.0841	0.005833	0.001838	3.172971	150.189	12.283	0.138914	0.591471	-0.568417	-0.569766	0.096691	3.172971	-0.591272	-6.312476E+7	-1.531748E-9	NaN
1062	1.000000	0.602809	7.37544e+06	-53239.1	1055.82	-29746.7	0.000000	0.000000	6.602989	-0.022784	NaN	0.000000	0.001555	0.001721	28.0838	0.068241	0.002138	31.9143	-96.5225	-166.822	-0.040755	0.601517	-0.558427	-0.559719	-0.022784	31.9143	-0.557892	-2.183797E+7	1.043313E-9	NaN
1062	1.000000	0.612821	7.37544e+06	-53239.1	1055.82	-29746.7	0.000000	0.000000	6.613000	-0.045604	NaN	0.000000	0.001574	0.001749	28.0839	0.052984	0.002062	25.6914	-37.5006	9.188108	-0.059369	0.611478	-0.548415	-0.549758	-0.045604	25.6914	-0.547084	-1.547232E+7	2.947432E-9	NaN
1062	1.000000	0.622828	7.37544e+06	-53239.1	1055.82	-29746.7	0.000000	0.000000	6.623010	0.036214	NaN	0.000000	0.001575	0.001744	28.0841	0.009623	0.002010	4.788444	-164.744	-163.335	0.017780	0.621497	-0.538409	-0.539739	0.036214	4.788444	-0.544081	-1.405842E+7	-2.575950E-9	NaN
1062	1.000000	0.632828	7.37544e+06	-53239.1	1055.82	-29746.7	0.000000	0.000000	6.633009	0.005268	NaN	0.000000	0.001534	0.001717	28.084	0.064250	0.001989	32.3055	104.126	13.7073	-0.020208	0.631412	-0.528408	-0.529824	0.005268	32.3055	-0.528531	-8.55397e+06	-6.158499E-10	NaN
1062	1.000000	0.642823	7.37544e+06	-53239.1	1055.82	-29746.7	0.000000	0.000000	6.643004	-0.004091	NaN	0.000000	0.001580	0.001733	28.084	0.071090	0.001906	37.2909	59.3236	-164.942	0.003663	0.641513	-0.518413	-0.519724	-0.004091	37.2909	-0.518331	-6.17134e+06	6.628720E-10	NaN
1062	1.000000	0.652823	7.37544e+06	-53239.1	1055.82	-29746.7	0.000000	0.000000	6.653005	0.038345	NaN	0.000000	0.001596	0.001737	28.084	0.036227	0.001933	18.7462	170.417	14.5848	0.000515	0.651496	-0.508413	-0.509740	0.038345	18.7462	-0.509948	-4.71721e+06	-8.128741E-9	NaN
1062	1.000000	0.662793	7.37544e+06	-53239.1	1055.82	-29746.7	0.000000	0.000000	6.662978	0.103307	NaN	0.000000	0.001620	0.001722	28.0844	0.047850	0.001878	25.4807	129.115	-167.35	0.099201	0.661486	-0.498444	-0.499751	0.103307	25.4807	-0.501485	-3.59523e+06	-2.873446E-8	NaN
1062	1.000000	0.672832	7.37544e+06	-53239.1	1055.82	-29746.7	0.000000	0.000000	6.673013	0.000357	NaN	0.000000	0.001578	0.001727	28.0828	0.114293	0.001897	60.2612	-17.1328	13.3956	-0.056308	0.671466	-0.488405	-0.489771	0.000357	60.2612	-0.488409	-2.36134e+06	-1.511462E-10	NaN
1062	1.000000	0.682834	7.37544e+06	-53239.1	1055.82	-29746.7	0.000000	0.000000	6.683017	0.050982	NaN	0.000000	0.001573	0.001699	28.083	0.054405	0.001982	27.4535	-81.9874	-167.224	-0.004412	0.681537	-0.478403	-0.479699	0.050982	27.4535	-0.479795	-1.78922e+06	-2.849410E-8	NaN
1062	1.000000	0.692837	7.37544e+06	-53239.1	1055.82	-29746.7	0.000000	0.000000	6.693020	0.054854	NaN	0.000000	0.001595	0.001734	28.0829	0.021420	0.002063	10.3828	-150.531	13.9421	0.076904	0.691420	-0.468400	-0.469816	0.054854	10.3828	-0.472362	-1.40776e+06	-3.896584E-8	NaN
1062	1.000000	0.702839	7.37544e+06	-53239.1	1055.82	-29746.7	0.000000	0.000000	6.703021	0.039127	NaN	0.000000	0.001571	0.001717	28.0831	0.121214	0.001980	61.2106	163.632	-166.852	0.099632	0.701557	-0.458398	-0.459679	0.039127	61.2106	-0.458877	-910406	-4.297804E-8	NaN
1062	1.000000	0.712851	7.37544e+06	-53239.1	1055.82	-29746.7	0.000000	0.000000	6.713029	-0.049448	NaN	0.000000	0.001555	0.001695	28.0832	0.012395	0.002022	6.130803	42.6021	12.3101	0.064662	0.711479	-0.448386	-0.449757	-0.049448	6.130803	-0.442337	-532520	9.285640E-8	NaN
1062	1.000000	0.722848	7.37544e+06	-53239.1	1055.82	-29746.7	0.000000	0.000000	6.723029	0.006901	NaN	0.000000	0.001572	0.001710	28.0829	0.108176	0.001982	54.5765	57.8783	-164.448	0.044965	0.721598	-0.438389	-0.439638	0.006901	54.5765	-0.438484	-469849	-1.468786E-8	NaN
1062	1.000000	0.732820	7.37544e+06	-53239.1	1055.82	-29746.7	0.000000	0.000000	6.733000	-0.007152	NaN	0.000000	0.001592	0.001694	28.0835	0.103263	0.002012	51.3273	-168.766	11.8437	-0.018879	0.731509	-0.428417	-0.429727	-0.007152	51.3273	-0.428312	-337427	2.119611E-8	NaN
1062	1.000000	0.742862	7.37544e+06	-53239.1	1055.82	-29746.7	0.000000	0.000000	6.743045	0.052050	NaN	0.000000	0.001618	0.001705	28.0828	0.084600	0.002079	40.6854	-102.426	-166.398	-0.065087	0.741576	-0.418375	-0.419661	0.052050	40.6854	-0.419334	-251752	-2.067504E-7	NaN
1062	1.000000	0.752881	7.37544e+06	-53239.1	1055.82	-29746.7	0.000000	0.000000	6.753061	-0.029433	NaN	0.000000	0.001577	0.001705	28.0828	0.030258	0.002033	14.8819	-87.5251	17.5429	-0.036020	0.751525	-0.408356	-0.409712	-0.029433	14.8819	-0.406872	-167457	1.757646E-7	NaN
1062	1.000000	0.762839	7.37544e+06	-53239.1	1055.82	-29746.7	0.000000	0.000000	6.763024	0.094457	NaN	0.000000	0.001614	0.001707	28.0827	0.063370	0.002016	31.431	146.125	-167.194	0.083782	0.761575	-0.398398	-0.399662	0.094457	31.431	-0.400651	-136548	-6.917500E-7	NaN
1062	1.000000	0.772854	7.37544e+06	-53239.1	1055.82	-29746.7	0.000000	0.000000	6.773033	-0.050759	NaN	0.000000	0.001672	0.001742	28.083	0.045710	0.002103	21.7324	132.226	16.6943	-0.069267	0.771484	-0.388382	-0.389753	-0.050759	21.7324	-0.386631	-86088.5	5.896132E-7	NaN
1062	1.000000	0.782863	7.37544e+06	-53239.1	1055.82	-29746.7	0.000000	0.000000	6.783044	0.008107	NaN	0.000000	0.001655	0.001733	28.0826	0.116940	0.001946	60.1059	-110.02	-162.673	0.036415	0.781540	-0.378373	-0.379697	0.008107	60.1059	-0.378474	-65764.2	-1.232685E-7	NaN
1062	1.000000	0.792895	7.37544e+06	-53239.1	1055.82	-29746.7	0.000000	0.000000	6.793078	0.051165	NaN	0.000000	0.001682	0.001722	28.083	0.049272	0.001936	25.448	-148.935	10.9904	0.016525	0.791469	-0.368341	-0.369768	0.051165	25.448	-0.369849	-49425.5	-1.035186E-6	NaN
1062	1.000000	0.802860	7.37544e+06	-53239.1	1055.82	-29746.7	0.000000	0.000000	6.803042	0.028558	NaN	0.000000	0.001674	0.001762	28.0828	0.056739	0.002011	28.2158	14.9022	-165.089	0.048455	0.801624	-0.358376	-0.359612	0.028558	28.2158	-0.359135	-34621.1	-8.248769E-7	NaN
1062	1.000000	0.812895	7.37544e+06	-53239.1	1055.82	-29746.7	0.000000	0.000000	6.813075	-0.009675	NaN	0.000000	0.001679	0.001749	28.0843	0.099138	0.002130	46.553	-61.022	14.7598	-0.039573	0.811522	-0.348342	-0.349714	-0.009675	46.553	-0.348186	-24025.1	4.027134E-7	NaN
1062	1.000000	0.822923	7.37544e+06	-53239.1	1055.82	-29746.7	0.000000	0.000000	6.823105	0.018478	NaN	0.000000	0.001662	0.001730	28.084	0.049666	0.002090	23.7629	103.282	-164.553	-0.020744	0.821573	-0.338313	-0.339663	0.018478	23.7629	-0.338896	-17598	-1.050000E-6	NaN
1062	1.000000	0.832892	7.37544e+06	-53239.1	1055.82	-29746.7	0.000000	0.000000	6.833075	0.068231	NaN	0.000000	0.001648	0.001717	28.0841	0.058500	0.001981	29.5344	-150.709	12.678	0.033243	0.831581	-0.328345	-0.329656	0.068231	29.5344	-0.330078	-13079.3	-5.216736E-6	NaN
1062	1.000000	0.842915	7.37544e+06	-53239.1	1055.82	-29746.7	0.000000	0.000000	6.843096	-0.002833	NaN	0.000000	0.001648	0.001735	28.084	0.109391	0.002075	52.718	-118.107	-166.29	0.093535	0.841592	-0.318321	-0.319645	-0.002833	52.718	-0.318281	-8776.48	3.228141E-7	NaN
1062	1.000000	0.852918	7.37544e+06	-53239.1	1055.82	-29746.7	0.000000	0.000000	6.853100	0.017679	NaN	0.000000	0.001647	0.001727	28.084	0.155130	0.001875	82.7417	-85.6642	12.682	0.049729	0.851537	-0.308318	-0.309700	0.017679	82.7417	-0.308479	-6288.3	-2.811401E-6	NaN
1062	1.000000	0.862915	7.37544e+06	-53239.1	1055.82	-29746.7	0.000000	0.000000	6.863096	-0.001988	NaN	0.000000	0.001660	0.001751	28.0841	0.020923	0.002069	10.1112	97.3185	-161.813	0.088562	0.861624	-0.298321	-0.299612	-0.001988	10.1112	-0.298174	-4420.12	4.498002E-7	NaN
1062	1.000000	0.872911	7.37544e+06	-53239.1	1055.82	-29746.7	0.000000	0.000000	6.873091	-0.019648	NaN	0.000000	0.001647	0.001740	28.084	0.146354	0.001903	76.9116	177.966	14.664	0.083031	0.871522	-0.288325	-0.289715	-0.019648	76.9116	-0.288133	-3128.39	6.280670E-6	NaN
1062	1.000000	0.882907	7.37544e+06	-53239.1	1055.82	-29746.7	0.000000	0.000000	6.883088	0.002248	NaN	0.000000	0.001628	0.001741	28.0841	0.003564	0.001991	1.790106	-140.873	-164.221	-0.008207	0.881655	-0.278329	-0.279582	0.002248	1.790106	-0.279271	-2301.26	-9.767338E-7	NaN
1062	1.000000	0.892914	7.37544e+06	-53239.1	1055.82	-29746.7	0.000000	0.000000	6.893094	-0.019635	NaN	0.000000	0.001637	0.001727	28.084	0.064549	0.001924	33.545	121.905	14.8726	-0.012693	0.891571	-0.268322	-0.269665	-0.019635	33.545	-0.267883	-1546.47	1.269637E-5	NaN
1062	1.000000	0.902925	7.37544e+06	-53239.1	1055.82	-29746.7	0.000000	0.000000	6.903108	0.046726	NaN	0.000000	0.001669	0.001758	28.0838	0.045020	0.001988	22.6471	122.606	-168.005	-0.041802	0.901585	-0.258312	-0.259651	0.046726	22.6471	-0.259859	-1166.16	-4.006814E-5	NaN
1062	1.000000	0.912912	7.37544e+06	-53239.1	1055.82	-29746.7	0.000000	0.000000	6.913094	0.036663	NaN	0.000000	0.001666	0.001743	28.084	0.046418	0.001835	25.2918	-73.5581	12.5835	-0.009557	0.911585	-0.248325	-0.249651	0.036663	25.2918	-0.249412	-805.133	-4.553718E-5	NaN
1062	1.000000	0.922926	7.37544e+06	-53239.1	1055.82	-29746.7	0.000000	0.000000	6.923107	0.010581	NaN	0.000000	0.001628	0.001734	28.084	0.101343	0.002023	50.0871	101.106	-167.928	0.010905	0.921624	-0.238311	-0.239612	0.010581	50.0871	-0.238469	-544.026	-1.944927E-5	NaN
1062	1.000000	0.932921	7.37544e+06	-53239.1	1055.82	-29746.7	0.000000	0.000000	6.933103	0.006848	NaN	0.000000	0.001638	0.001719	28.0841	0.037653	0.001927	19.5382	-121.374	9.477562	-0.029547	0.931579	-0.228315	-0.229657	0.006848	19.5382	-0.228578	-380.226	-1.800955E-5	NaN
1062	1.000000	0.942923	7.37544e+06	-53239.1	1055.82	-29746.7	0.000000	0.000000	6.943105	0.037215	NaN	0.000000	0.001648	0.001720	28.0826	0.078646	0.002073	37.9352	-58.087	-168.963	-0.004298	0.941629	-0.218313	-0.219608	0.037215	37.9352	-0.219049	-268.207	-0.000139	NaN
1062	1.000000	0.952950	7.37544e+06	-53239.1	1055.82	-29746.7	0.000000	0.000000	6.953132	0.014125	NaN	0.000000	0.001677	0.001780	28.083	0.084331	0.001966	42.8974	-114.612	12.4226	0.057292	0.951557	-0.208286	-0.209680	0.014125	42.8974	-0.208533	-181.568	-7.779574E-5	NaN
1062	1.000000	0.962956	7.37544e+06	-53239.1	1055.82	-29746.7	0.000000	0.000000	6.963139	0.068356	NaN	0.000000	0.001668	0.001731	28.0829	0.088497	0.002117	41.8	-178.16	-164.481	0.064223	0.961686	-0.198281	-0.199551	0.068356	41.8	-0.199507	-129.3	-0.000529	NaN
1062	1.000000	0.972960	7.37544e+06	-53239.1	1055.82	-29746.7	0.000000	0.000000	6.973142	0.026468	NaN	0.000000	0.001603	0.001760	28.0826	0.124134	0.001984	62.57	34.2831	13.1627	0.049592	0.971568	-0.188277	-0.189669	0.026468	62.57	-0.188594	-85.2145	-0.000311	NaN
1062	1.000000	0.982997	7.37544e+06	-53239.1	1055.82	-29746.7	0.000000	0.000000	6.983177	-0.008480	NaN	0.000000	0.001630	0.001725	28.0826	0.048362	0.002044	23.6585	-14.1805	-164.811	-0.009960	0.981661	-0.178239	-0.179576	-0.008480	23.6585	-0.177971	-56.3473	0.000150	NaN
1062	1.000000	0.992933	7.37544e+06	-53239.1	1055.82	-29746.7	0.000000	0.000000	6.993113	-0.027269	NaN	0.000000	0.001662	0.001728	28.0828	0.145485	0.001925	75.5823	-11.7332	14.3352	-0.001895	0.991618	-0.168303	-0.169619	-0.027269	75.5823	-0.168032	-37.9642	0.000718	NaN
1062	1.000000	1.002955	7.37544e+06	-53239.1	1055.82	-29746.7	0.000000	0.000000	7.003135	-0.025485	NaN	0.000000	0.001617	0.001697	28.0827	0.042540	0.002037	20.8845	-118.812	-166.955	-0.020160	1.001610	-0.158281	-0.159626	-0.025485	20.8845	-0.157366	-24.605	0.001036	NaN
1062	1.000000	1.012987	7.37544e+06	-53239.1	1055.82	-29746.7	0.000000	0.000000	7.013167	-0.021144	NaN	0.000000	0.001595	0.001659	28.0828	0.030591	0.001871	16.3476	119.311	12.127	0.006179	1.011552	-0.148250	-0.149684	-0.021144	16.3476	-0.147280	-16.151	0.001309	NaN
1062	1.000000	1.023000	7.37544e+06	-53239.1	1055.82	-29746.7	0.000000	0.000000	7.023180	-0.018121	NaN	0.000000	0.001576	0.001689	28.0827	0.037152	0.002010	18.4795	155.914	-167.446	0.007054	1.021653	-0.138237	-0.139584	-0.018121	18.4795	-0.137501	-10.6132	0.001707	NaN
1062	1.000000	1.032975	7.37544e+06	-53239.1	1055.82	-29746.7	0.000000	0.000000	7.033158	0.054350	NaN	0.000000	0.001595	0.001690	28.0829	0.125643	0.002086	60.2176	-140.34	11.5203	0.030744	1.031561	-0.128261	-0.129676	0.054350	60.2176	-0.128938	-7.266883	-0.007479	NaN
1062	1.000000	1.043002	7.37544e+06	-53239.1	1055.82	-29746.7	0.000000	0.000000	7.043186	0.064581	NaN	0.000000	0.001619	0.001685	28.0827	0.115270	0.001967	58.5988	-10.7317	-163.627	0.077803	1.041648	-0.118234	-0.119588	0.064581	58.5988	-0.119061	-4.624741	-0.013964	NaN
1062	1.000000	1.052967	7.37544e+06	-53239.1	1055.82	-29746.7	0.000000	0.000000	7.053151	0.075508	NaN	0.000000	0.001597	0.001700	28.0829	0.054119	0.001954	27.6954	-121.545	14.3846	0.042826	1.051611	-0.108269	-0.109626	0.075508	27.6954	-0.110314	-3.051309	-0.024746	NaN
1062	1.000000	1.062993	7.37544e+06	-53239.1	1055.82	-29746.7	0.000000	0.000000	7.063176	0.045293	NaN	0.000000	0.001625	0.001698	28.0829	0.046170	0.002128	21.6927	-165.869	-167.737	0.030649	1.061691	-0.098243	-0.099545	0.045293	21.6927	-0.099809	-1.809431	-0.025031	NaN
1062	1.000000	1.072972	7.37544e+06	-53239.1	1055.82	-29746.7	0.000000	0.000000	7.073154	0.021000	NaN	0.000000	0.001612	0.001686	28.0829	0.048464	0.001938	25.0116	-75.8512	15.0233	0.048768	1.071618	-0.088265	-0.089618	0.021000	25.0116	-0.088894	-1.018092	-0.020627	NaN
1062	1.000000	1.082992	7.37544e+06	-53239.1	1055.82	-29746.7	0.000000	0.000000	7.083177	0.080497	NaN	0.000000	0.001626	0.001704	28.0839	0.023362	0.002039	11.4552	104.242	-165.821	-0.005836	1.081675	-0.078244	-0.079561	0.080497	11.4552	-0.083514	-0.756052	-0.106470	NaN
1062	1.000000	1.093036	7.37544e+06	-53239.1	1055.82	-29746.7	0.000000	0.000000	7.093217	-0.006058	NaN	0.000000	0.001628	0.001684	28.0839	0.104690	0.001982	52.8125	-54.0552	11.2528	-0.091720	1.091613	-0.068200	-0.069623	-0.006058	52.8125	-0.068114	-0.303414	0.019965	NaN
1062	1.000000	1.102991	7.37544e+06	-53239.1	1055.82	-29746.7	0.000000	0.000000	7.103173	0.022109	NaN	0.000000	0.001631	0.001672	28.0841	0.018593	0.002066	9.000870	117.861	-168.153	-0.038162	1.101705	-0.058245	-0.059532	0.022109	9.000870	-0.060087	-0.181136	-0.122060	NaN
1062	1.000000	1.113009	7.37544e+06	-53239.1	1055.82	-29746.7	0.000000	0.000000	7.113195	0.132537	NaN	0.000000	0.001636	0.001651	28.0841	0.111311	0.002112	52.6995	136.504	12.7296	0.168185	1.111692	-0.048228	-0.049544	0.132537	52.6995	-0.050114	-0.091978	-1.440971	NaN
1062	1.000000	1.123010	7.37544e+06	-53239.1	1055.82	-29746.7	0.000000	0.000000	7.123192	0.006741	NaN	0.000000	0.001609	0.001664	28.084	0.063712	0.001998	31.8881	-146.356	-165.377	-0.062144	1.121725	-0.038226	-0.039512	0.006741	31.8881	-0.038385	-0.040406	-0.166827	NaN
1062	1.000000	1.132997	7.37544e+06	-53239.1	1055.82	-29746.7	0.000000	0.000000	7.133179	0.019697	NaN	0.000000	0.001614	0.001702	28.0842	0.073339	0.001962	37.3779	99.864	12.1783	0.042416	1.131612	-0.028239	-0.029625	0.019697	37.3779	-0.028635	-0.021099	-0.933537	NaN
1062	1.000000	1.142992	7.37544e+06	-53239.1	1055.82	-29746.7	0.000000	0.000000	7.143174	0.030699	NaN	0.000000	0.001659	0.001706	28.0844	0.080121	0.002067	38.7688	-54.7674	-167.272	0.059866	1.141668	-0.018244	-0.019568	0.030699	38.7688	-0.018838	-0.011732	-2.616744	NaN
1062	1.000000	1.153030	7.37544e+06	-53239.1	1055.82	-29746.7	0.000000	0.000000	7.153213	0.065854	NaN	0.000000	0.001687	0.001670	28.0841	0.086774	0.002039	42.5655	-37.1171	15.0774	0.045408	1.151657	-0.008207	-0.009579	0.065854	42.5655	-0.009367	-0.006025	-10.931	NaN
1062	1.000000	1.162994	7.37544e+06	-53239.1	1055.82	-29746.7	0.000000	0.000000	7.163247	1.749038	NaN	0.000000	0.001621	0.001670	28.0841	2.354427	0.002013	1169.68	7.571517	-166.092	0.736285	1.161705	0.001758	0.000469	1.749038	1169.68	0.000637	0.000482	3631.54	48695
1062	2.000000	1.170258	7.37544e+06	-53239.1	1055.82	-29746.7	0.000000	0.000000	7.170878	10.6805	NaN	0.000000	0.001648	0.001699	28.0842	10.0083	0.001651	6060.74	3.638944	8.133311	9.702272	1.169900	0.009021	0.008664	10.6805	6060.74	0.007700	0.006735	1585.78	67472.2
1062	2.000000	1.172684	7.37544e+06	-53239.1	1055.82	-29746.7	0.000000	0.000000	7.173375	12.4082	NaN	0.000000	0.001632	0.001702	28.0845	12.1607	0.001552	7836.83	3.482340	-174.088	12.1827	1.172429	0.011447	0.011192	12.4082	7836.83	0.010260	0.009471	1310.06	73570.7
1062	2.000000	1.175116	7.37544e+06	-53239.1	1055.82	-29746.7	0.000000	0.000000	7.176012	17.3744	NaN	0.000000	0.001671	0.001701	28.0842	15.3532	0.001636	9384.42	6.661644	1.390664	14.878	1.174769	0.013880	0.013533	17.3744	9384.42	0.012491	0.012084	1437.84	77997.6
1062	2.000000	1.177691	7.37544e+06	-53239.1	1055.82	-29746.7	0.000000	0.000000	7.178712	20.4145	NaN	0.000000	0.001613	0.001680	28.0842	17.4721	0.001714	10196.3	4.622208	-174.435	21.2071	1.177373	0.016455	0.016136	20.4145	10196.3	0.014953	0.015223	1341.02	75503.3
1062	2.000000	1.180144	7.37544e+06	-53239.1	1055.82	-29746.7	0.000000	0.000000	7.181307	23.8753	NaN	0.000000	0.001615	0.001680	28.0843	20.3732	0.001723	11825.3	7.088334	1.063923	22.1268	1.179791	0.018907	0.018555	23.8753	11825.3	0.017393	0.018610	1282.92	79197.3
1062	2.000000	1.182669	7.37544e+06	-53239.1	1055.82	-29746.7	0.000000	0.000000	7.183941	26.5217	NaN	0.000000	0.001609	0.001684	28.083	22.732	0.001756	12942	6.557966	-178.827	26.6709	1.182312	0.021433	0.021076	26.5217	12942	0.019896	0.022379	1185.13	79041.9
1062	2.000000	1.185069	7.37544e+06	-53239.1	1055.82	-29746.7	0.000000	0.000000	7.186515	30.7454	NaN	0.000000	0.001592	0.001670	28.0829	24.5302	0.001609	15246.9	6.476372	-2.339553	28.4091	1.184783	0.023833	0.023547	30.7454	15246.9	0.022321	0.026321	1168.1	85862.8
1062	2.000000	1.187601	7.37544e+06	-53239.1	1055.82	-29746.7	0.000000	0.000000	7.189367	38.5272	NaN	0.000000	0.001613	0.001724	28.083	28.2208	0.001774	15909.3	6.539231	179.131	36.9932	1.187341	0.026365	0.026104	38.5272	15909.3	0.024549	0.030200	1275.75	83641.9
1062	2.000000	1.190163	7.37544e+06	-53239.1	1055.82	-29746.7	0.000000	0.000000	7.192044	41.3148	NaN	0.000000	0.001617	0.001711	28.0832	30.5252	0.001823	16746.5	8.038388	-1.926484	40.7698	1.189763	0.028927	0.028527	41.3148	16746.5	0.027077	0.034902	1183.73	81897.6
1062	2.000000	1.192597	7.37544e+06	-53239.1	1055.82	-29746.7	0.000000	0.000000	7.194794	49.015	NaN	0.000000	0.001571	0.001702	28.083	32.6037	0.001730	18844.7	6.584821	177.405	47.9745	1.192340	0.031361	0.031103	49.015	18844.7	0.029410	0.039529	1239.96	86596.7
1062	2.000000	1.195149	7.37544e+06	-53239.1	1055.82	-29746.7	0.000000	0.000000	7.197579	54.687	NaN	0.000000	0.001636	0.001751	28.0827	35.6481	0.001823	19555.7	5.621435	-1.453041	56.1349	1.194723	0.033912	0.033486	54.687	19555.7	0.031815	0.044590	1226.45	84611.7
1062	2.000000	1.197655	7.37544e+06	-53239.1	1055.82	-29746.7	0.000000	0.000000	7.200354	61.2191	NaN	0.000000	0.001642	0.001747	28.0831	37.9799	0.001754	21647.3	5.899563	177.524	61.8387	1.197299	0.036418	0.036063	61.2191	21647.3	0.034297	0.050122	1221.39	88340.7
1062	2.000000	1.200051	7.37544e+06	-53239.1	1055.82	-29746.7	0.000000	0.000000	7.203180	71.6971	NaN	0.000000	0.001564	0.001744	28.083	39.83	0.001771	22485.9	3.707842	-1.795813	66.4022	1.199639	0.038814	0.038402	71.6971	22485.9	0.036423	0.055111	1300.96	87511.6
1062	2.000000	1.202606	7.37544e+06	-53239.1	1055.82	-29746.7	0.000000	0.000000	7.205891	75.4935	NaN	0.000000	0.001651	0.001721	28.0832	41.4634	0.001771	23413.7	2.855953	179.717	76.1536	1.202348	0.041369	0.041112	75.4935	23413.7	0.038951	0.061345	1230.64	86368
1062	2.000000	1.205059	7.37544e+06	-53239.1	1055.82	-29746.7	0.000000	0.000000	7.208811	86.8352	NaN	0.000000	0.001684	0.001725	28.0829	44.3755	0.001737	25545.1	6.868791	-5.652349	85.1435	1.204646	0.043822	0.043410	86.8352	25545.1	0.041273	0.067359	1289.15	89925.7
1062	2.000000	1.207584	7.37544e+06	-53239.1	1055.82	-29746.7	0.000000	0.000000	7.211568	92.4659	NaN	0.000000	0.001682	0.001710	28.0836	47.4831	0.001785	26602.7	5.796308	174.552	90.9	1.207250	0.046348	0.046014	92.4659	26602.7	0.043741	0.074054	1248.63	89315.2
1062	2.000000	1.210068	7.37544e+06	-53239.1	1055.82	-29746.7	0.000000	0.000000	7.214381	100.471	NaN	0.000000	0.001687	0.001719	28.0829	48.7541	0.001813	26895.5	5.427145	-4.435605	97.4882	1.209661	0.048832	0.048425	100.471	26895.5	0.046030	0.080538	1247.5	86587.2
1062	2.000000	1.212534	7.37544e+06	-53239.1	1055.82	-29746.7	0.000000	0.000000	7.217140	107.598	NaN	0.000000	0.001671	0.001733	28.0834	50.6313	0.001783	28399.6	3.662398	176.623	104.299	1.212242	0.051298	0.051005	107.598	28399.6	0.048456	0.087701	1226.87	87616.1
1062	2.000000	1.215015	7.37544e+06	-53239.1	1055.82	-29746.7	0.000000	0.000000	7.220351	125.336	NaN	0.000000	0.001625	0.001743	28.0841	52.8625	0.001834	28829.2	0.821388	-0.480528	121.224	1.214715	0.053779	0.053479	125.336	28829.2	0.050518	0.094022	1333.05	85899.6
1062	2.000000	1.217602	7.37544e+06	-53239.1	1055.82	-29746.7	0.000000	0.000000	7.223311	134.414	NaN	0.000000	0.001627	0.001729	28.0849	56.4261	0.001831	30816.3	5.374965	174.626	134.149	1.217246	0.056365	0.056009	134.414	30816.3	0.053094	0.102216	1315	88063.3
1062	2.000000	1.220119	7.37544e+06	-53239.1	1055.82	-29746.7	0.000000	0.000000	7.226328	146.563	NaN	0.000000	0.001653	0.001719	28.0841	58.1864	0.001748	33290	5.471809	-6.478280	145.719	1.219866	0.058883	0.058630	146.563	33290	0.055581	0.110440	1327.08	91521.5
1062	2.000000	1.222526	7.37544e+06	-53239.1	1055.82	-29746.7	0.000000	0.000000	7.229206	157.999	NaN	0.000000	0.001637	0.001715	28.0844	60.1287	0.001683	35720.5	2.232752	175.894	156.198	1.222233	0.061290	0.060997	157.999	35720.5	0.057973	0.118639	1331.77	94749.6
1062	2.000000	1.225037	7.37544e+06	-53239.1	1055.82	-29746.7	0.000000	0.000000	7.232430	175.347	NaN	0.000000	0.001640	0.001757	28.0842	62.8493	0.001784	35239	4.989160	-5.880355	173.202	1.224728	0.063800	0.063491	175.347	35239	0.060068	0.126054	1391.05	90681.3
1062	2.000000	1.227560	7.37544e+06	-53239.1	1055.82	-29746.7	0.000000	0.000000	7.235352	185.062	NaN	0.000000	0.001625	0.001736	28.0845	65.6192	0.001784	36780.3	4.480071	174.157	185.135	1.227218	0.066323	0.065982	185.062	36780.3	0.062549	0.135109	1369.73	91421.2
1062	2.000000	1.230057	7.37544e+06	-53239.1	1055.82	-29746.7	0.000000	0.000000	7.238428	199.12	NaN	0.000000	0.001635	0.001749	28.0839	67.5637	0.001740	38837	8.583865	-10.0962	197.138	1.229621	0.068821	0.068384	199.12	38837	0.064976	0.144252	1380.36	93423.8
1062	2.000000	1.232561	7.37544e+06	-53239.1	1055.82	-29746.7	0.000000	0.000000	7.241613	215.697	NaN	0.000000	0.001661	0.001755	28.0843	69.1654	0.001733	39914.3	4.680386	173.022	215.237	1.232182	0.071324	0.070945	215.697	39914.3	0.067271	0.153164	1408.27	93180.1
1062	2.000000	1.235003	7.37544e+06	-53239.1	1055.82	-29746.7	0.000000	0.000000	7.244474	225.882	NaN	0.000000	0.001653	0.001747	28.0843	72.7057	0.001762	41260.5	4.550136	-7.471830	223.471	1.234803	0.073766	0.073567	225.882	41260.5	0.069661	0.162710	1388.25	93454.7
1062	2.000000	1.237532	7.37544e+06	-53239.1	1055.82	-29746.7	0.000000	0.000000	7.247845	246.335	NaN	0.000000	0.001651	0.001755	28.0845	75.7637	0.001750	43303.3	5.388136	171.639	243.521	1.237175	0.076296	0.075939	246.335	43303.3	0.072029	0.172441	1428.52	95273.8
1062	2.000000	1.240047	7.37544e+06	-53239.1	1055.82	-29746.7	0.000000	0.000000	7.251010	262.14	NaN	0.000000	0.001669	0.001739	28.0839	76.8133	0.001739	44182.9	2.875205	-6.043171	258.569	1.239701	0.078811	0.078464	262.14	44182.9	0.074361	0.182279	1438.12	94549.5
1062	2.000000	1.242524	7.37544e+06	-53239.1	1055.82	-29746.7	0.000000	0.000000	7.254426	284.988	NaN	0.000000	0.001663	0.001719	28.0843	80.2705	0.001767	45421	6.613957	169.729	282.214	1.242303	0.081287	0.081067	284.988	45421	0.076581	0.191886	1485.19	94734.3
1062	2.000000	1.245098	7.37544e+06	-53239.1	1055.82	-29746.7	0.000000	0.000000	7.257771	303.707	NaN	0.000000	0.001679	0.001707	28.0843	83.3512	0.001740	47895	7.339428	-10.5337	306.041	1.244652	0.083862	0.083415	303.707	47895	0.079106	0.203089	1495.44	97100.3
1062	2.000000	1.247509	7.37544e+06	-53239.1	1055.82	-29746.7	0.000000	0.000000	7.261163	327.59	NaN	0.000000	0.001619	0.001754	28.0843	86.2787	0.001787	48277.4	3.943673	172.484	326.815	1.247221	0.086272	0.085985	327.59	48277.4	0.081183	0.212530	1541.38	95676.8
1062	2.000000	1.249948	7.37544e+06	-53239.1	1055.82	-29746.7	0.000000	0.000000	7.264412	347.278	NaN	0.000000	0.001591	0.001759	28.0828	88.5294	0.001822	48582.4	6.220658	-9.911890	338.983	1.249580	0.088711	0.088344	347.278	48582.4	0.083350	0.222593	1560.14	94079.6
1062	2.000000	1.252455	7.37544e+06	-53239.1	1055.82	-29746.7	0.000000	0.000000	7.267925	371.724	NaN	0.000000	0.001598	0.001773	28.0831	90.6764	0.001743	52031.3	7.660885	167.983	367.497	1.252143	0.091219	0.090907	371.724	52031.3	0.085860	0.234524	1585.02	98162.2
1062	2.000000	1.254913	7.37544e+06	-53239.1	1055.82	-29746.7	0.000000	0.000000	7.271192	391.391	NaN	0.000000	0.001573	0.001779	28.0832	93.7141	0.001818	51551.2	8.945439	-13.2372	383.351	1.254555	0.093676	0.093318	391.391	51551.2	0.087982	0.244833	1598.61	95186.9
1062	2.000000	1.257456	7.37544e+06	-53239.1	1055.82	-29746.7	0.000000	0.000000	7.274541	410.973	NaN	0.000000	0.001605	0.001748	28.0829	96.6099	0.001854	52108.1	5.356770	170.514	405.114	1.257167	0.096220	0.095930	410.973	52108.1	0.090305	0.256356	1603.13	94028
1062	2.000000	1.259964	7.37544e+06	-53239.1	1055.82	-29746.7	0.000000	0.000000	7.278344	442.469	NaN	0.000000	0.001589	0.001749	28.0831	97.1812	0.001756	55334.4	2.541215	-6.794269	436.14	1.259684	0.098728	0.098448	442.469	55334.4	0.092731	0.268654	1646.98	97537.5
1062	2.000000	1.262518	7.37544e+06	-53239.1	1055.82	-29746.7	0.000000	0.000000	7.281727	462.63	NaN	0.000000	0.001610	0.001773	28.0829	99.9602	0.001851	54007	4.107917	171.886	462.629	1.262112	0.101281	0.100876	462.63	54007	0.094857	0.279654	1654.29	93306.6
1062	2.000000	1.264989	7.37544e+06	-53239.1	1055.82	-29746.7	0.000000	0.000000	7.285530	494.997	NaN	0.000000	0.001625	0.001738	28.0839	101.819	0.001735	58671.8	2.407746	-7.375335	490.351	1.264688	0.103753	0.103452	494.997	58671.8	0.097425	0.293221	1688.14	98993.2
1062	2.000000	1.267502	7.37544e+06	-53239.1	1055.82	-29746.7	0.000000	0.000000	7.288830	514.147	NaN	0.000000	0.001605	0.001739	28.0829	106.513	0.001790	59493.7	7.035433	167.984	512.47	1.267193	0.106265	0.105956	514.147	59493.7	0.099784	0.305941	1680.54	98270.9
1062	2.000000	1.267951	7.37544e+06	-53239.1	1055.82	-29746.7	0.000000	0.000000	7.289563	521.066	NaN	0.000000	0.001621	0.001754	28.0829	105.173	0.001712	61445.8	3.769725	-9.111101	514.518	1.267681	0.106714	0.106445	521.066	61445.8	0.100354	0.309055	1686	100983