File: remote_trans/data/nanoindenter/0828-1/data/Data_2025-08-06,11h17m57s/2025-07-22_16-23-58_1_808.txt
2025-07-22, 16:23:58, 1
Index	Phase	Displacement	Time	Pos X	Pos Y	Pos Z	Rot A	Rot B	Piezo Z	Force A	Force B	Gripper	Voltage A	Voltage B	Temperature	Amplitude force	Amplitude pos	Stiffness	Phase shift	Phase excitation	Force A raw	Displacement raw	HMax	HMax raw	Real Force	Real Stiffness	Contact Depth	Area	Hardness	Reduced Mod.
[#]	[#]	[um]	[s]	[um]	[um]	[um]	[m°]	[m°]	[um]	[uN]	[uN]	[V]	[V]	[V]	[°C]	[uN]	[um]	[N/m]	[°]	[°]	[uN]	[um]	[um]	[um]	[uN]	[N/m]	[um]	[um^2]	[MPa]	[MPa]
808	1.000000	0.002405	7.37296e+06	-40539.1	1055.82	-29789.7	0.000000	0.000000	6.002783	-0.100405	NaN	0.000000	0.001629	0.001637	28.0833	0.045052	0.000952	47.336	-141.461	-161.23	-0.030799	0.001206	-0.989575	-0.990774	-0.100405	47.336	-0.987984	-1.563002E+13	6.423849E-15	NaN
808	1.000000	0.010353	7.37296e+06	-40539.1	1055.82	-29789.7	0.000000	0.000000	6.010735	-0.010312	NaN	0.000000	0.001658	0.001630	28.0835	0.017625	0.000960	18.3673	133.346	-162.631	0.052957	0.009081	-0.981627	-0.982899	-0.010312	18.3673	-0.981206	-1.266641E+13	8.141481E-16	NaN
808	1.000000	0.018369	7.37296e+06	-40539.1	1055.82	-29789.7	0.000000	0.000000	6.018750	-0.023918	NaN	0.000000	0.001637	0.001643	28.0832	0.024986	0.001616	15.4651	-66.7799	-166.611	0.009774	0.017025	-0.973611	-0.974955	-0.023918	15.4651	-0.972451	-9.653773E+12	2.477621E-15	NaN
808	1.000000	0.026409	7.37296e+06	-40539.1	1055.82	-29789.7	0.000000	0.000000	6.026790	-0.029211	NaN	0.000000	0.001652	0.001586	28.0833	0.097758	0.001761	55.5003	-145.415	-162.694	-0.029535	0.025080	-0.965571	-0.966900	-0.029211	55.5003	-0.965176	-7.702796E+12	3.792292E-15	NaN
808	1.000000	0.034340	7.37296e+06	-40539.1	1055.82	-29789.7	0.000000	0.000000	6.034720	-0.017690	NaN	0.000000	0.001589	0.001682	28.0832	0.111121	0.002030	54.7459	13.914	-167.193	-0.009804	0.033043	-0.957641	-0.958937	-0.017690	54.7459	-0.957398	-6.050527E+12	2.923704E-15	NaN
808	1.000000	0.042382	7.37296e+06	-40539.1	1055.82	-29789.7	0.000000	0.000000	6.042761	-0.073456	NaN	0.000000	0.001647	0.001649	28.0833	0.109921	0.001966	55.9002	155.367	-165.734	-0.013850	0.041009	-0.949598	-0.950971	-0.073456	55.9002	-0.948612	-4.605893E+12	1.594831E-14	NaN
808	1.000000	0.050384	7.37296e+06	-40539.1	1055.82	-29789.7	0.000000	0.000000	6.050766	0.021007	NaN	0.000000	0.001641	0.001619	28.0834	0.037147	0.002015	18.4322	-138.789	-168.161	-0.039978	0.049057	-0.941596	-0.942924	0.021007	18.4322	-0.942451	-3.803689E+12	-5.522885E-15	NaN
808	1.000000	0.058370	7.37296e+06	-40539.1	1055.82	-29789.7	0.000000	0.000000	6.058748	-0.095868	NaN	0.000000	0.001647	0.001652	28.0833	0.079157	0.001949	40.6192	-160.299	-165.885	-0.025912	0.057052	-0.933610	-0.934928	-0.095868	40.6192	-0.931840	-2.735428E+12	3.504668E-14	NaN
808	1.000000	0.066369	7.37296e+06	-40539.1	1055.82	-29789.7	0.000000	0.000000	6.066753	0.037734	NaN	0.000000	0.001664	0.001636	28.0834	0.059638	0.001935	30.817	161.786	-167.234	0.052361	0.065078	-0.925611	-0.926902	0.037734	30.817	-0.926529	-2.319258E+12	-1.626974E-14	NaN
808	1.000000	0.074392	7.37296e+06	-40539.1	1055.82	-29789.7	0.000000	0.000000	6.074775	0.058048	NaN	0.000000	0.001600	0.001657	28.0832	0.095464	0.002074	46.0258	-116.471	-169.251	0.087512	0.073097	-0.917589	-0.918884	0.058048	46.0258	-0.918535	-1.808926E+12	-3.208990E-14	NaN
808	1.000000	0.082402	7.37296e+06	-40539.1	1055.82	-29789.7	0.000000	0.000000	6.082783	-0.022139	NaN	0.000000	0.001589	0.001629	28.0829	0.121548	0.002096	57.9997	-168.43	-167.09	-0.010836	0.081098	-0.909578	-0.910883	-0.022139	57.9997	-0.909292	-1.357054E+12	1.631401E-14	NaN
808	1.000000	0.090388	7.37296e+06	-40539.1	1055.82	-29789.7	0.000000	0.000000	6.090771	0.022094	NaN	0.000000	0.001604	0.001644	28.083	0.028537	0.002188	13.044	73.6631	-166.447	-0.006894	0.089081	-0.901592	-0.902899	0.022094	13.044	-0.902862	-1.111066E+12	-1.988506E-14	NaN
808	1.000000	0.098393	7.37296e+06	-40539.1	1055.82	-29789.7	0.000000	0.000000	6.098775	0.012042	NaN	0.000000	0.001584	0.001641	28.083	0.061227	0.001952	31.3682	34.0873	-168.79	0.055715	0.096978	-0.893587	-0.895003	0.012042	31.3682	-0.893875	-8.400324E+11	-1.433476E-14	NaN
808	1.000000	0.106401	7.37296e+06	-40539.1	1055.82	-29789.7	0.000000	0.000000	6.106779	-0.087204	NaN	0.000000	0.001599	0.001645	28.0819	0.025621	0.001909	13.4203	12.8607	-166.485	-0.071911	0.105090	-0.885579	-0.886891	-0.087204	13.4203	-0.880706	-5.575131E+11	1.564155E-13	NaN
808	1.000000	0.114387	7.37296e+06	-40539.1	1055.82	-29789.7	0.000000	0.000000	6.114767	-0.031214	NaN	0.000000	0.001641	0.001627	28.082	0.043620	0.001993	21.8839	25.2124	-171.926	-0.053726	0.113116	-0.877593	-0.878865	-0.031214	21.8839	-0.876523	-4.894271E+11	6.377584E-14	NaN
808	1.000000	0.122406	7.37296e+06	-40539.1	1055.82	-29789.7	0.000000	0.000000	6.122785	-0.058311	NaN	0.000000	0.001621	0.001617	28.0818	0.045152	0.002107	21.4302	-133.499	-167.321	-0.013772	0.121060	-0.869575	-0.870921	-0.058311	21.4302	-0.867534	-3.698935E+11	1.576438E-13	NaN
808	1.000000	0.130404	7.37296e+06	-40539.1	1055.82	-29789.7	0.000000	0.000000	6.130786	0.012245	NaN	0.000000	0.001649	0.001652	28.0817	0.111214	0.002091	53.1813	-104.243	-162.641	0.031483	0.129041	-0.861576	-0.862939	0.012245	53.1813	-0.861749	-3.088810E+11	-3.964267E-14	NaN
808	1.000000	0.138392	7.37296e+06	-40539.1	1055.82	-29789.7	0.000000	0.000000	6.138773	-0.016793	NaN	0.000000	0.001632	0.001698	28.0818	0.072212	0.002013	35.8745	-3.907102	-166.382	-0.008613	0.137053	-0.853588	-0.854928	-0.016793	35.8745	-0.853237	-2.369013E+11	7.088514E-14	NaN
808	1.000000	0.146402	7.37296e+06	-40539.1	1055.82	-29789.7	0.000000	0.000000	6.146783	-0.013739	NaN	0.000000	0.001651	0.001695	28.0819	0.059853	0.001889	31.6843	-52.6005	-165.954	0.014459	0.145140	-0.845579	-0.846840	-0.013739	31.6843	-0.845253	-1.846955E+11	7.438842E-14	NaN
808	1.000000	0.154396	7.37296e+06	-40539.1	1055.82	-29789.7	0.000000	0.000000	6.154777	-0.024194	NaN	0.000000	0.001644	0.001679	28.0818	0.100333	0.002046	49.0387	67.8709	-166.216	-0.016444	0.153081	-0.837584	-0.838899	-0.024194	49.0387	-0.837214	-1.437296E+11	1.683287E-13	NaN
808	1.000000	0.162396	7.37296e+06	-40539.1	1055.82	-29789.7	0.000000	0.000000	6.162776	-0.043738	NaN	0.000000	0.001669	0.001672	28.0823	0.071437	0.001879	38.014	-89.9101	-165.685	-0.009404	0.161098	-0.829584	-0.830883	-0.043738	38.014	-0.828721	-1.102677E+11	3.966517E-13	NaN
808	1.000000	0.170397	7.37296e+06	-40539.1	1055.82	-29789.7	0.000000	0.000000	6.170782	0.066130	NaN	0.000000	0.001653	0.001679	28.0823	0.053883	0.001992	27.0499	108.352	-165.852	0.005440	0.169082	-0.821583	-0.822898	0.066130	27.0499	-0.823416	-9.344074E+10	-7.077243E-13	NaN
808	1.000000	0.178407	7.37296e+06	-40539.1	1055.82	-29789.7	0.000000	0.000000	6.178788	-0.028586	NaN	0.000000	0.001631	0.001688	28.0821	0.125783	0.001964	64.044	-12.0963	-163.541	0.015059	0.177092	-0.813573	-0.814888	-0.028586	64.044	-0.813238	-6.799850E+10	4.203854E-13	NaN
808	1.000000	0.186442	7.37296e+06	-40539.1	1055.82	-29789.7	0.000000	0.000000	6.186823	-0.019307	NaN	0.000000	0.001572	0.001693	28.0823	0.030659	0.001995	15.3661	106.495	-166.405	-0.033789	0.185090	-0.805538	-0.806890	-0.019307	15.3661	-0.804596	-5.190836E+10	3.719382E-13	NaN
808	1.000000	0.194445	7.37296e+06	-40539.1	1055.82	-29789.7	0.000000	0.000000	6.194825	-0.044724	NaN	0.000000	0.001617	0.001666	28.0822	0.045889	0.002066	22.2165	-24.3768	-165.667	-0.094884	0.193050	-0.797535	-0.798930	-0.044724	22.2165	-0.796025	-3.971023E+10	1.126267E-12	NaN
808	1.000000	0.202423	7.37296e+06	-40539.1	1055.82	-29789.7	0.000000	0.000000	6.202802	-0.071189	NaN	0.000000	0.001648	0.001686	28.0822	0.074799	0.001866	40.0925	-118.904	-166.119	-0.063312	0.201077	-0.789557	-0.790903	-0.071189	40.0925	-0.788225	-3.111579E+10	2.287876E-12	NaN
808	1.000000	0.210429	7.37296e+06	-40539.1	1055.82	-29789.7	0.000000	0.000000	6.210811	-0.000460	NaN	0.000000	0.001606	0.001704	28.0824	0.063912	0.002038	31.3541	127.227	-166.048	0.057310	0.209181	-0.781551	-0.782800	-0.000460	31.3541	-0.781540	-2.524421E+10	1.823904E-14	NaN
808	1.000000	0.218448	7.37296e+06	-40539.1	1055.82	-29789.7	0.000000	0.000000	6.218831	0.026608	NaN	0.000000	0.001589	0.001710	28.0823	0.049870	0.002071	24.0771	-21.3164	-163.289	-0.016008	0.217106	-0.773532	-0.774874	0.026608	24.0771	-0.774361	-2.016474E+10	-1.319533E-12	NaN
808	1.000000	0.226435	7.37296e+06	-40539.1	1055.82	-29789.7	0.000000	0.000000	6.226815	-0.041941	NaN	0.000000	0.001627	0.001711	28.0821	0.034236	0.002019	16.9558	-91.4835	-167.908	0.003400	0.225158	-0.765545	-0.766822	-0.041941	16.9558	-0.763690	-1.443764E+10	2.904983E-12	NaN
808	1.000000	0.234415	7.37296e+06	-40539.1	1055.82	-29789.7	0.000000	0.000000	6.234798	0.031469	NaN	0.000000	0.001628	0.001747	28.0822	0.051531	0.001916	26.8939	-98.7135	-167.877	0.091157	0.233187	-0.757565	-0.758793	0.031469	26.8939	-0.758443	-1.224950E+10	-2.568983E-12	NaN
808	1.000000	0.242443	7.37296e+06	-40539.1	1055.82	-29789.7	0.000000	0.000000	6.242823	-0.042591	NaN	0.000000	0.001643	0.001733	28.0834	0.031307	0.002023	15.4718	-76.8746	-168.52	-0.057478	0.241139	-0.749537	-0.750841	-0.042591	15.4718	-0.747473	-8.685915E+9	4.903432E-12	NaN
808	1.000000	0.250457	7.37296e+06	-40539.1	1055.82	-29789.7	0.000000	0.000000	6.250841	0.046152	NaN	0.000000	0.001628	0.001721	28.0835	0.067845	0.001976	34.339	102.633	-164.993	0.043305	0.249148	-0.741523	-0.742833	0.046152	34.339	-0.742531	-7.439263E+9	-6.203847E-12	NaN
808	1.000000	0.258447	7.37296e+06	-40539.1	1055.82	-29789.7	0.000000	0.000000	6.258832	0.078184	NaN	0.000000	0.001692	0.001761	28.0834	0.170622	0.001890	90.2724	-31.6935	-166.249	0.077563	0.257183	-0.733533	-0.734797	0.078184	90.2724	-0.734183	-5.725399E+9	-1.365568E-11	NaN
808	1.000000	0.266442	7.37296e+06	-40539.1	1055.82	-29789.7	0.000000	0.000000	6.266824	0.008044	NaN	0.000000	0.001610	0.001725	28.0834	0.043764	0.001961	22.3115	120.187	-166.774	-0.029784	0.265125	-0.725538	-0.726855	0.008044	22.3115	-0.725808	-4.402241E+9	-1.827195E-12	NaN
808	1.000000	0.274458	7.37296e+06	-40539.1	1055.82	-29789.7	0.000000	0.000000	6.274838	-0.050856	NaN	0.000000	0.001640	0.001712	28.0837	0.117645	0.002012	58.4624	91.9419	-164.792	-0.021446	0.273177	-0.717522	-0.718804	-0.050856	58.4624	-0.716869	-3.324868E+9	1.529565E-11	NaN
808	1.000000	0.282459	7.37296e+06	-40539.1	1055.82	-29789.7	0.000000	0.000000	6.282842	0.031737	NaN	0.000000	0.001650	0.001715	28.0834	0.102812	0.001901	54.0955	64.4064	-169.692	0.068696	0.281156	-0.709522	-0.710824	0.031737	54.0955	-0.709962	-2.676231E+9	-1.185869E-11	NaN
808	1.000000	0.290482	7.37296e+06	-40539.1	1055.82	-29789.7	0.000000	0.000000	6.290864	0.014648	NaN	0.000000	0.001665	0.001718	28.0835	0.026039	0.001994	13.0606	-141.359	-164.361	0.030379	0.289143	-0.701499	-0.702838	0.014648	13.0606	-0.702340	-2.106116E+9	-6.954750E-12	NaN
808	1.000000	0.298452	7.37296e+06	-40539.1	1055.82	-29789.7	0.000000	0.000000	6.298833	-0.027694	NaN	0.000000	0.001652	0.001687	28.0834	0.109994	0.001959	56.1549	123.756	-167.263	0.018331	0.297210	-0.693528	-0.694770	-0.027694	56.1549	-0.693158	-1.577878E+9	1.755154E-11	NaN
808	1.000000	0.306475	7.37296e+06	-40539.1	1055.82	-29789.7	0.000000	0.000000	6.306854	-0.054918	NaN	0.000000	0.001638	0.001701	28.0837	0.046627	0.002072	22.4995	124.898	-162.658	-0.029277	0.305162	-0.685505	-0.686818	-0.054918	22.4995	-0.683675	-1.170730E+9	4.690955E-11	NaN
808	1.000000	0.314472	7.37296e+06	-40539.1	1055.82	-29789.7	0.000000	0.000000	6.314858	0.097441	NaN	0.000000	0.001626	0.001724	28.0836	0.076460	0.002032	37.6328	-26.3857	-165.813	0.091996	0.313151	-0.677508	-0.678829	0.097441	37.6328	-0.679450	-1.024902E+9	-9.507358E-11	NaN
808	1.000000	0.322498	7.37296e+06	-40539.1	1055.82	-29789.7	0.000000	0.000000	6.322881	0.022989	NaN	0.000000	0.001631	0.001710	28.0834	0.022179	0.002037	10.8888	-77.8678	-163.056	0.049373	0.321181	-0.669482	-0.670799	0.022989	10.8888	-0.671065	-7.869963E+8	-2.921078E-11	NaN
808	1.000000	0.330471	7.37296e+06	-40539.1	1055.82	-29789.7	0.000000	0.000000	6.330852	-0.017813	NaN	0.000000	0.001633	0.001707	28.0837	0.068265	0.001945	35.0957	90.0668	-166.017	0.013536	0.329191	-0.661509	-0.662789	-0.017813	35.0957	-0.661128	-5.753409E+8	3.096120E-11	NaN
808	1.000000	0.338493	7.37296e+06	-40539.1	1055.82	-29789.7	0.000000	0.000000	6.338875	0.002101	NaN	0.000000	0.001626	0.001738	28.0836	0.101834	0.002051	49.6511	60.3705	-163.876	0.026901	0.337188	-0.653487	-0.654793	0.002101	49.6511	-0.653519	-4.525476E+8	-4.642375E-12	NaN
808	1.000000	0.346529	7.37296e+06	-40539.1	1055.82	-29789.7	0.000000	0.000000	6.346910	-0.023788	NaN	0.000000	0.001617	0.001712	28.0839	0.089649	0.001898	47.2366	-116.453	-164.872	-0.034315	0.345187	-0.645451	-0.646793	-0.023788	47.2366	-0.645073	-3.466424E+8	6.862378E-11	NaN
808	1.000000	0.354473	7.37296e+06	-40539.1	1055.82	-29789.7	0.000000	0.000000	6.354854	-0.024070	NaN	0.000000	0.001622	0.001697	28.0837	0.092008	0.002025	45.4354	105.438	-163.654	-0.033744	0.353175	-0.637507	-0.638806	-0.024070	45.4354	-0.637110	-2.695430E+8	8.929803E-11	NaN
808	1.000000	0.362511	7.37296e+06	-40539.1	1055.82	-29789.7	0.000000	0.000000	6.362893	-0.005841	NaN	0.000000	0.001613	0.001729	28.0837	0.109605	0.002025	54.138	156.175	-166.678	-0.046736	0.361232	-0.629469	-0.630748	-0.005841	54.138	-0.629388	-2.111636E+8	2.766144E-11	NaN
808	1.000000	0.370471	7.37296e+06	-40539.1	1055.82	-29789.7	0.000000	0.000000	6.370850	-0.061509	NaN	0.000000	0.001627	0.001749	28.084	0.066819	0.002077	32.1768	-22.4625	-167.888	-0.057457	0.369163	-0.621509	-0.622817	-0.061509	32.1768	-0.620075	-1.572787E+8	3.910816E-10	NaN
808	1.000000	0.378515	7.37296e+06	-40539.1	1055.82	-29789.7	0.000000	0.000000	6.378897	0.004831	NaN	0.000000	0.001607	0.001731	28.0824	0.057665	0.001973	29.2306	24.5389	-166.085	0.015251	0.377211	-0.613465	-0.614769	0.004831	29.2306	-0.613589	-1.280805E+8	-3.771702E-11	NaN
808	1.000000	0.386517	7.37296e+06	-40539.1	1055.82	-29789.7	0.000000	0.000000	6.386898	-0.016426	NaN	0.000000	0.001643	0.001713	28.0825	0.058893	0.001912	30.7961	-124.074	-167.033	0.034952	0.385212	-0.605463	-0.606768	-0.016426	30.7961	-0.605063	-9.776365E+7	1.680168E-10	NaN
808	1.000000	0.394516	7.37296e+06	-40539.1	1055.82	-29789.7	0.000000	0.000000	6.394897	-0.027325	NaN	0.000000	0.001614	0.001740	28.0823	0.182750	0.001893	96.5401	29.3008	-163.282	0.020722	0.393184	-0.597464	-0.598796	-0.027325	96.5401	-0.597252	-7.631452E+7	3.580605E-10	NaN
808	1.000000	0.402515	7.37296e+06	-40539.1	1055.82	-29789.7	0.000000	0.000000	6.402897	0.000101	NaN	0.000000	0.001626	0.001739	28.0823	0.092819	0.002125	43.671	153.248	-167.22	0.003419	0.401218	-0.589465	-0.590762	0.000101	43.671	-0.589467	-5.960898E+7	-1.700102E-12	NaN
808	1.000000	0.410516	7.37296e+06	-40539.1	1055.82	-29789.7	0.000000	0.000000	6.410900	0.061590	NaN	0.000000	0.001643	0.001753	28.0826	0.046657	0.002056	22.6977	-114.125	-165.88	0.025545	0.409212	-0.581464	-0.582769	0.061590	22.6977	-0.583500	-4.931917E+7	-1.248803E-9	NaN
808	1.000000	0.418519	7.37296e+06	-40539.1	1055.82	-29789.7	0.000000	0.000000	6.418900	-0.017383	NaN	0.000000	0.001643	0.001764	28.0824	0.035328	0.002043	17.2916	56.933	-166.939	-0.029310	0.417205	-0.573461	-0.574776	-0.017383	17.2916	-0.572707	-3.499741E+7	4.967032E-10	NaN
808	1.000000	0.426538	7.37296e+06	-40539.1	1055.82	-29789.7	0.000000	0.000000	6.426918	-0.051704	NaN	0.000000	0.001631	0.001774	28.0827	0.115082	0.001997	57.6337	-109.854	-166.248	-0.022758	0.425196	-0.565442	-0.566784	-0.051704	57.6337	-0.564769	-2.718546E+7	1.901912E-9	NaN
808	1.000000	0.434535	7.37296e+06	-40539.1	1055.82	-29789.7	0.000000	0.000000	6.434921	0.099526	NaN	0.000000	0.001645	0.001735	28.0826	0.103523	0.002034	50.9	-117.74	-167.203	0.069181	0.433210	-0.557445	-0.558770	0.099526	50.9	-0.558911	-2.255894E+7	-4.411809E-9	NaN
808	1.000000	0.442519	7.37296e+06	-40539.1	1055.82	-29789.7	0.000000	0.000000	6.442900	-0.003518	NaN	0.000000	0.001640	0.001723	28.0826	0.043465	0.001981	21.936	129.654	-165.128	0.002674	0.441194	-0.549461	-0.550787	-0.003518	21.936	-0.549341	-1.662753E+7	2.116068E-10	NaN
808	1.000000	0.450535	7.37296e+06	-40539.1	1055.82	-29789.7	0.000000	0.000000	6.450915	-0.036442	NaN	0.000000	0.001595	0.001769	28.0825	0.035845	0.001929	18.5821	-46.5844	-166.11	-0.077895	0.449230	-0.541445	-0.542751	-0.036442	18.5821	-0.539974	-1.233112E+7	2.955291E-9	NaN
808	1.000000	0.458547	7.37296e+06	-40539.1	1055.82	-29789.7	0.000000	0.000000	6.458927	-0.042115	NaN	0.000000	0.001594	0.001763	28.0825	0.117018	0.001969	59.4403	-106.293	-166.801	-0.024468	0.457229	-0.533433	-0.534751	-0.042115	59.4403	-0.532902	-9.83704e+06	4.281274E-9	NaN
808	1.000000	0.466583	7.37296e+06	-40539.1	1055.82	-29789.7	0.000000	0.000000	6.466967	0.038139	NaN	0.000000	0.001619	0.001754	28.0826	0.037705	0.001960	19.2325	174.923	-168.59	-0.048447	0.465230	-0.525397	-0.526751	0.038139	19.2325	-0.526884	-8.11506e+06	-4.699732E-9	NaN
808	1.000000	0.474523	7.37296e+06	-40539.1	1055.82	-29789.7	0.000000	0.000000	6.474906	0.015706	NaN	0.000000	0.001607	0.001746	28.0824	0.065686	0.002020	32.5112	172.298	-163.898	-0.030414	0.473214	-0.517457	-0.518767	0.015706	32.5112	-0.517819	-6.07105e+06	-2.586949E-9	NaN
808	1.000000	0.482533	7.37296e+06	-40539.1	1055.82	-29789.7	0.000000	0.000000	6.482914	-0.017738	NaN	0.000000	0.001578	0.001756	28.0827	0.080270	0.002054	39.0743	-106.409	-168.706	0.009503	0.481172	-0.509447	-0.510808	-0.017738	39.0743	-0.509107	-4.59167e+06	3.862992E-9	NaN
808	1.000000	0.490570	7.37296e+06	-40539.1	1055.82	-29789.7	0.000000	0.000000	6.490952	-0.003063	NaN	0.000000	0.001588	0.001748	28.0825	0.096296	0.001927	49.9647	166.348	-166.675	-0.026639	0.489255	-0.501410	-0.502725	-0.003063	49.9647	-0.501364	-3.58133e+06	8.551697E-10	NaN
808	1.000000	0.498546	7.37296e+06	-40539.1	1055.82	-29789.7	0.000000	0.000000	6.498924	-0.078723	NaN	0.000000	0.001608	0.001754	28.0827	0.135209	0.002023	66.8521	103.478	-165.699	-0.025712	0.497262	-0.493435	-0.494719	-0.078723	66.8521	-0.492551	-2.69798e+06	2.917860E-8	NaN
808	1.000000	0.506562	7.37296e+06	-40539.1	1055.82	-29789.7	0.000000	0.000000	6.506942	-0.044756	NaN	0.000000	0.001610	0.001748	28.0825	0.075460	0.002032	37.1274	170.501	-164.701	-0.066064	0.505240	-0.485418	-0.486740	-0.044756	37.1274	-0.484514	-2.08301e+06	2.148643E-8	NaN
808	1.000000	0.514562	7.37296e+06	-40539.1	1055.82	-29789.7	0.000000	0.000000	6.514945	0.024122	NaN	0.000000	0.001610	0.001770	28.0838	0.032711	0.002016	16.2256	-85.6381	-168.041	0.032816	0.513276	-0.477418	-0.478704	0.024122	16.2256	-0.478533	-1.71786e+06	-1.404215E-8	NaN
808	1.000000	0.522537	7.37296e+06	-40539.1	1055.82	-29789.7	0.000000	0.000000	6.522917	-0.027304	NaN	0.000000	0.001612	0.001767	28.0838	0.049943	0.001865	26.7819	-31.286	-166.087	-0.023618	0.521268	-0.469444	-0.470712	-0.027304	26.7819	-0.468679	-1.24991e+06	2.184519E-8	NaN
808	1.000000	0.530561	7.37296e+06	-40539.1	1055.82	-29789.7	0.000000	0.000000	6.530942	-0.006422	NaN	0.000000	0.001590	0.001764	28.0836	0.067619	0.001910	35.3946	155.319	-168.299	-0.070506	0.529267	-0.461419	-0.462713	-0.006422	35.3946	-0.461283	-984128	6.525133E-9	NaN
808	1.000000	0.538588	7.37296e+06	-40539.1	1055.82	-29789.7	0.000000	0.000000	6.538966	-0.075970	NaN	0.000000	0.001566	0.001773	28.0841	0.042963	0.001858	23.1254	75.187	-169.059	0.004304	0.537235	-0.453393	-0.454745	-0.075970	23.1254	-0.450929	-703756	1.079490E-7	NaN
808	1.000000	0.546592	7.37296e+06	-40539.1	1055.82	-29789.7	0.000000	0.000000	6.546971	-0.073757	NaN	0.000000	0.001578	0.001736	28.0836	0.051736	0.002067	25.0278	51.2314	-166.343	0.061484	0.545264	-0.445388	-0.446716	-0.073757	25.0278	-0.443178	-547266	1.347730E-7	NaN
808	1.000000	0.554542	7.37296e+06	-40539.1	1055.82	-29789.7	0.000000	0.000000	6.554923	-0.002223	NaN	0.000000	0.001595	0.001742	28.0837	0.017196	0.002058	8.356136	93.2867	-166.462	-0.085857	0.553268	-0.437438	-0.438712	-0.002223	8.356136	-0.437239	-451211	4.927638E-9	NaN
808	1.000000	0.562597	7.37296e+06	-40539.1	1055.82	-29789.7	0.000000	0.000000	6.562978	-0.030887	NaN	0.000000	0.001601	0.001746	28.0837	0.084058	0.001923	43.7068	149.074	-166.902	0.003598	0.561254	-0.429383	-0.430727	-0.030887	43.7068	-0.428853	-343424	8.993774E-8	NaN
808	1.000000	0.570562	7.37296e+06	-40539.1	1055.82	-29789.7	0.000000	0.000000	6.570943	-0.016147	NaN	0.000000	0.001618	0.001768	28.0834	0.055721	0.001919	29.0328	137.107	-168.084	-0.017221	0.569307	-0.421418	-0.422673	-0.016147	29.0328	-0.421001	-265831	6.073993E-8	NaN
808	1.000000	0.578602	7.37296e+06	-40539.1	1055.82	-29789.7	0.000000	0.000000	6.578981	-0.083864	NaN	0.000000	0.001655	0.001763	28.0837	0.072130	0.002088	34.5372	-15.5292	-164.508	0.004290	0.577269	-0.413378	-0.414712	-0.083864	34.5372	-0.411557	-195224	4.295798E-7	NaN
808	1.000000	0.586593	7.37296e+06	-40539.1	1055.82	-29789.7	0.000000	0.000000	6.586973	-0.042250	NaN	0.000000	0.001612	0.001734	28.0835	0.117357	0.002000	58.6884	169.3	-167.89	-0.082948	0.585297	-0.405387	-0.406684	-0.042250	58.6884	-0.404848	-156703	2.696196E-7	NaN
808	1.000000	0.594595	7.37296e+06	-40539.1	1055.82	-29789.7	0.000000	0.000000	6.594977	0.008140	NaN	0.000000	0.001615	0.001760	28.0838	0.107923	0.001941	55.5979	72.5677	-163.67	-0.043180	0.593288	-0.397385	-0.398692	0.008140	55.5979	-0.397495	-123098	-6.613004E-8	NaN
808	1.000000	0.602619	7.37296e+06	-40539.1	1055.82	-29789.7	0.000000	0.000000	6.602998	-0.061803	NaN	0.000000	0.001663	0.001742	28.0834	0.029524	0.002084	14.1647	172.067	-171.22	-0.174254	0.601309	-0.389361	-0.390671	-0.061803	14.1647	-0.386089	-84563.2	7.308456E-7	NaN
808	1.000000	0.610611	7.37296e+06	-40539.1	1055.82	-29789.7	0.000000	0.000000	6.610992	-0.008222	NaN	0.000000	0.001604	0.001758	28.0836	0.116155	0.002063	56.3004	-66.5806	-167.088	0.024590	0.609283	-0.381369	-0.382697	-0.008222	56.3004	-0.381260	-72105	1.140266E-7	NaN
808	1.000000	0.618643	7.37296e+06	-40539.1	1055.82	-29789.7	0.000000	0.000000	6.619026	0.031357	NaN	0.000000	0.001595	0.001757	28.0835	0.034068	0.001960	17.3819	59.4801	-166.244	-0.026901	0.617296	-0.373337	-0.374684	0.031357	17.3819	-0.374690	-58024.5	-5.404135E-7	NaN
808	1.000000	0.626602	7.37296e+06	-40539.1	1055.82	-29789.7	0.000000	0.000000	6.626982	-0.046195	NaN	0.000000	0.001656	0.001802	28.0838	0.131653	0.002002	65.7447	-179.062	-166.676	-0.040687	0.625370	-0.365378	-0.366610	-0.046195	65.7447	-0.364851	-41870.4	1.103292E-6	NaN
808	1.000000	0.634617	7.37296e+06	-40539.1	1055.82	-29789.7	0.000000	0.000000	6.634996	-0.067658	NaN	0.000000	0.001629	0.001770	28.0839	0.092038	0.001953	47.1209	146.075	-164.702	-0.101736	0.633322	-0.357363	-0.358659	-0.067658	47.1209	-0.356286	-31486.1	2.148819E-6	NaN
808	1.000000	0.642606	7.37296e+06	-40539.1	1055.82	-29789.7	0.000000	0.000000	6.642983	-0.100926	NaN	0.000000	0.001638	0.001820	28.0836	0.076557	0.002025	37.8095	96.7164	-167.499	-0.076828	0.641266	-0.349374	-0.350714	-0.100926	37.8095	-0.347372	-23380.1	4.316765E-6	NaN
808	1.000000	0.650639	7.37296e+06	-40539.1	1055.82	-29789.7	0.000000	0.000000	6.651019	-0.044649	NaN	0.000000	0.001656	0.001750	28.0824	0.069026	0.001924	35.8831	-110.443	-167.341	-0.075717	0.649323	-0.341341	-0.342657	-0.044649	35.8831	-0.340408	-18513.9	2.411678E-6	NaN
808	1.000000	0.658614	7.37296e+06	-40539.1	1055.82	-29789.7	0.000000	0.000000	6.658996	0.004846	NaN	0.000000	0.001688	0.001724	28.0825	0.133981	0.001972	67.9413	-125.979	-168.376	-0.053980	0.657327	-0.333366	-0.334653	0.004846	67.9413	-0.333419	-14638.1	-3.310283E-7	NaN
808	1.000000	0.666609	7.37296e+06	-40539.1	1055.82	-29789.7	0.000000	0.000000	6.666991	0.006248	NaN	0.000000	0.001679	0.001744	28.0823	0.048858	0.001966	24.8461	153.021	-166.296	-0.117834	0.665294	-0.325371	-0.326687	0.006248	24.8461	-0.325560	-11229.2	-5.563825E-7	NaN
808	1.000000	0.674625	7.37296e+06	-40539.1	1055.82	-29789.7	0.000000	0.000000	6.675008	0.044189	NaN	0.000000	0.001658	0.001780	28.0823	0.075101	0.002034	36.9201	10.4237	-167.566	0.046318	0.673316	-0.317355	-0.318665	0.044189	36.9201	-0.318253	-8768.24	-5.039621E-6	NaN
808	1.000000	0.682630	7.37296e+06	-40539.1	1055.82	-29789.7	0.000000	0.000000	6.683012	-0.000677	NaN	0.000000	0.001680	0.001716	28.0823	0.110096	0.002069	53.2179	-137.359	-166.377	0.025263	0.681360	-0.309350	-0.310620	-0.000677	53.2179	-0.309340	-6475.75	1.044985E-7	NaN
808	1.000000	0.690603	7.37296e+06	-40539.1	1055.82	-29789.7	0.000000	0.000000	6.690982	-0.074136	NaN	0.000000	0.001627	0.001757	28.0824	0.020022	0.001929	10.3784	128.591	-170.13	0.006236	0.689337	-0.301377	-0.302643	-0.074136	10.3784	-0.296019	-4104.92	1.806032E-5	NaN
808	1.000000	0.698639	7.37296e+06	-40539.1	1055.82	-29789.7	0.000000	0.000000	6.699019	-0.052893	NaN	0.000000	0.001638	0.001761	28.0821	0.075117	0.002000	37.5499	67.4556	-163.722	-0.109409	0.697293	-0.293341	-0.294687	-0.052893	37.5499	-0.292285	-3609.96	1.465196E-5	NaN
808	1.000000	0.706648	7.37296e+06	-40539.1	1055.82	-29789.7	0.000000	0.000000	6.707029	-0.029743	NaN	0.000000	0.001621	0.001782	28.0822	0.086177	0.002037	42.3099	-161.812	-166.746	-0.098819	0.705319	-0.285332	-0.286661	-0.029743	42.3099	-0.284805	-2788.26	1.066709E-5	NaN
808	1.000000	0.714648	7.37296e+06	-40539.1	1055.82	-29789.7	0.000000	0.000000	6.715029	-0.004803	NaN	0.000000	0.001606	0.001801	28.0823	0.083439	0.001983	42.0694	9.637681	-167.37	0.003452	0.713330	-0.277332	-0.278650	-0.004803	42.0694	-0.277247	-2144.83	2.239135E-6	NaN
808	1.000000	0.722639	7.37296e+06	-40539.1	1055.82	-29789.7	0.000000	0.000000	6.723019	-0.042572	NaN	0.000000	0.001618	0.001751	28.0823	0.022199	0.002140	10.3709	-78.8309	-168.477	-0.018074	0.721366	-0.269342	-0.270614	-0.042572	10.3709	-0.266263	-1461	2.913911E-5	NaN
808	1.000000	0.730644	7.37296e+06	-40539.1	1055.82	-29789.7	0.000000	0.000000	6.731027	0.042388	NaN	0.000000	0.001652	0.001782	28.0823	0.016451	0.002083	7.896499	134.138	-165.241	0.005227	0.729359	-0.261337	-0.262621	0.042388	7.896499	-0.265363	-1415.54	-2.994500E-5	NaN
808	1.000000	0.738654	7.37296e+06	-40539.1	1055.82	-29789.7	0.000000	0.000000	6.739036	0.000558	NaN	0.000000	0.001675	0.001785	28.0824	0.105412	0.002030	51.9272	-103.002	-167.954	0.048081	0.737364	-0.253326	-0.254616	0.000558	51.9272	-0.253334	-925.666	-6.027213E-7	NaN
808	1.000000	0.746661	7.37296e+06	-40539.1	1055.82	-29789.7	0.000000	0.000000	6.747042	-0.020110	NaN	0.000000	0.001678	0.001740	28.0824	0.064086	0.001991	32.1852	-58.9758	-165.945	-0.050830	0.745360	-0.245319	-0.246620	-0.020110	32.1852	-0.244850	-684.113	2.939596E-5	NaN
808	1.000000	0.754662	7.37296e+06	-40539.1	1055.82	-29789.7	0.000000	0.000000	6.755045	0.040482	NaN	0.000000	0.001633	0.001761	28.0822	0.063408	0.002009	31.5661	43.5464	-168.365	-0.042635	0.753314	-0.237318	-0.238666	0.040482	31.5661	-0.238280	-540.341	-7.491895E-5	NaN
808	1.000000	0.762672	7.37296e+06	-40539.1	1055.82	-29789.7	0.000000	0.000000	6.763056	0.040161	NaN	0.000000	0.001643	0.001755	28.0824	0.067300	0.002017	33.3582	-118.361	-168.9	0.036895	0.761367	-0.229308	-0.230613	0.040161	33.3582	-0.230211	-403.501	-9.953045E-5	NaN
808	1.000000	0.770668	7.37296e+06	-40539.1	1055.82	-29789.7	0.000000	0.000000	6.771048	-0.031050	NaN	0.000000	0.001671	0.001716	28.0822	0.023310	0.001993	11.6936	-160.381	-166.718	-0.015858	0.769357	-0.221312	-0.222623	-0.031050	11.6936	-0.219321	-270.907	0.000115	NaN
808	1.000000	0.778656	7.37296e+06	-40539.1	1055.82	-29789.7	0.000000	0.000000	6.779038	0.013190	NaN	0.000000	0.001662	0.001716	28.0821	0.071401	0.002031	35.1598	-74.9863	-163.599	0.001536	0.777355	-0.213325	-0.214625	0.013190	35.1598	-0.213606	-219.317	-6.014182E-5	NaN
808	1.000000	0.786700	7.37296e+06	-40539.1	1055.82	-29789.7	0.000000	0.000000	6.787083	0.035932	NaN	0.000000	0.001688	0.001728	28.0836	0.035226	0.001988	17.7167	-174.266	-165.143	0.067853	0.785357	-0.205281	-0.206623	0.035932	17.7167	-0.206802	-170.18	-0.000211	NaN
808	1.000000	0.794709	7.37296e+06	-40539.1	1055.82	-29789.7	0.000000	0.000000	6.795089	-0.060867	NaN	0.000000	0.001669	0.001734	28.0833	0.086624	0.002040	42.4598	18.1212	-167.335	-0.061607	0.793382	-0.197271	-0.198598	-0.060867	42.4598	-0.196196	-114.022	0.000534	NaN
808	1.000000	0.802689	7.37296e+06	-40539.1	1055.82	-29789.7	0.000000	0.000000	6.803071	0.012251	NaN	0.000000	0.001641	0.001744	28.0837	0.032694	0.002104	15.5371	123.057	-166.052	0.025195	0.801403	-0.189291	-0.190577	0.012251	15.5371	-0.189882	-89.5494	-0.000137	NaN
808	1.000000	0.810724	7.37296e+06	-40539.1	1055.82	-29789.7	0.000000	0.000000	6.811104	-0.023407	NaN	0.000000	0.001623	0.001748	28.0836	0.030836	0.001920	16.0585	-153.129	-166.5	-0.032728	0.809395	-0.181256	-0.182586	-0.023407	16.0585	-0.180163	-61.4106	0.000381	NaN
808	1.000000	0.818691	7.37296e+06	-40539.1	1055.82	-29789.7	0.000000	0.000000	6.819069	-0.073822	NaN	0.000000	0.001652	0.001739	28.0832	0.100066	0.002031	49.2608	-103.134	-166.738	-0.009885	0.817400	-0.173290	-0.174581	-0.073822	49.2608	-0.172166	-44.785	0.001648	NaN
808	1.000000	0.826709	7.37296e+06	-40539.1	1055.82	-29789.7	0.000000	0.000000	6.827091	0.010602	NaN	0.000000	0.001624	0.001739	28.0832	0.033711	0.002000	16.8555	102.004	-165.888	0.045800	0.825387	-0.165271	-0.166593	0.010602	16.8555	-0.165743	-34.621	-0.000306	NaN
808	1.000000	0.834710	7.37296e+06	-40539.1	1055.82	-29789.7	0.000000	0.000000	6.835089	-0.083559	NaN	0.000000	0.001625	0.001755	28.0833	0.121910	0.001931	63.1204	-21.9871	-168.974	-0.040748	0.833376	-0.157270	-0.158604	-0.083559	63.1204	-0.156277	-23.5245	0.003552	NaN
808	1.000000	0.842711	7.37296e+06	-40539.1	1055.82	-29789.7	0.000000	0.000000	6.843091	-0.031633	NaN	0.000000	0.001665	0.001693	28.0835	0.095221	0.001979	48.1188	-168.084	-169.565	-0.020862	0.841444	-0.149269	-0.150536	-0.031633	48.1188	-0.148776	-17.2049	0.001839	NaN
808	1.000000	0.850716	7.37296e+06	-40539.1	1055.82	-29789.7	0.000000	0.000000	6.851095	-0.065897	NaN	0.000000	0.001638	0.001736	28.0833	0.031094	0.001978	15.7194	-74.0284	-166.45	-0.058432	0.849427	-0.141264	-0.142554	-0.065897	15.7194	-0.138120	-10.9029	0.006044	NaN
808	1.000000	0.858706	7.37296e+06	-40539.1	1055.82	-29789.7	0.000000	0.000000	6.859085	-0.057860	NaN	0.000000	0.001582	0.001730	28.0834	0.117137	0.002086	56.1653	-137.733	-170.031	-0.048113	0.857383	-0.133275	-0.134597	-0.057860	56.1653	-0.132502	-8.519189	0.006792	NaN
808	1.000000	0.866702	7.37296e+06	-40539.1	1055.82	-29789.7	0.000000	0.000000	6.867087	0.089413	NaN	0.000000	0.001625	0.001741	28.0835	0.040139	0.001994	20.1307	-117.789	-167.909	0.086641	0.865330	-0.125278	-0.126650	0.089413	20.1307	-0.128609	-7.160316	-0.012487	NaN
808	1.000000	0.874711	7.37296e+06	-40539.1	1055.82	-29789.7	0.000000	0.000000	6.875093	0.016992	NaN	0.000000	0.001618	0.001730	28.0835	0.034079	0.001963	17.3575	-58.0065	-167.623	0.012671	0.873408	-0.117270	-0.118572	0.016992	17.3575	-0.118004	-4.401749	-0.003860	NaN
808	1.000000	0.882739	7.37296e+06	-40539.1	1055.82	-29789.7	0.000000	0.000000	6.883121	0.013624	NaN	0.000000	0.001605	0.001801	28.0835	0.026250	0.002158	12.1645	150.596	-163.351	-0.020271	0.881432	-0.109241	-0.110548	0.013624	12.1645	-0.110081	-3.017091	-0.004515	NaN
808	1.000000	0.890700	7.37296e+06	-40539.1	1055.82	-29789.7	0.000000	0.000000	6.891079	-0.073749	NaN	0.000000	0.001609	0.001767	28.0834	0.017164	0.002068	8.299391	-99.7037	-167.991	-0.037038	0.889428	-0.101280	-0.102552	-0.073749	8.299391	-0.094615	-1.382421	0.053347	NaN
808	1.000000	0.898722	7.37296e+06	-40539.1	1055.82	-29789.7	0.000000	0.000000	6.899105	0.012020	NaN	0.000000	0.001632	0.001729	28.0834	0.089571	0.002021	44.3304	-72.4955	-167.254	-0.019373	0.897404	-0.093258	-0.094576	0.012020	44.3304	-0.093461	-1.300759	-0.009241	NaN
808	1.000000	0.906735	7.37296e+06	-40539.1	1055.82	-29789.7	0.000000	0.000000	6.907117	0.016105	NaN	0.000000	0.001623	0.001690	28.0836	0.102006	0.001959	52.0702	-69.3691	-165.83	-0.018982	0.905378	-0.085245	-0.086602	0.016105	52.0702	-0.085477	-0.843755	-0.019088	NaN
808	1.000000	0.914755	7.37296e+06	-40539.1	1055.82	-29789.7	0.000000	0.000000	6.915134	-0.051765	NaN	0.000000	0.001637	0.001703	28.0835	0.041194	0.001979	20.811	178.183	-167.026	0.043116	0.913421	-0.077226	-0.078559	-0.051765	20.811	-0.075360	-0.471872	0.109701	NaN
808	1.000000	0.922722	7.37296e+06	-40539.1	1055.82	-29789.7	0.000000	0.000000	6.923105	0.020362	NaN	0.000000	0.001644	0.001739	28.0822	0.113646	0.001949	58.2989	83.8888	-168.476	0.024946	0.921363	-0.069258	-0.070617	0.020362	58.2989	-0.069520	-0.331138	-0.061490	NaN
808	1.000000	0.930739	7.37296e+06	-40539.1	1055.82	-29789.7	0.000000	0.000000	6.931118	-0.067242	NaN	0.000000	0.001665	0.001730	28.0821	0.034665	0.002110	16.4277	-116.203	-166.601	-0.083803	0.929371	-0.061241	-0.062609	-0.067242	16.4277	-0.058172	-0.159493	0.421596	NaN
808	1.000000	0.938728	7.37296e+06	-40539.1	1055.82	-29789.7	0.000000	0.000000	6.939106	-0.092920	NaN	0.000000	0.001668	0.001710	28.082	0.086191	0.001975	43.6365	134.937	-165.066	-0.039305	0.937436	-0.053252	-0.054544	-0.092920	43.6365	-0.051655	-0.102362	0.907764	NaN
808	1.000000	0.946738	7.37296e+06	-40539.1	1055.82	-29789.7	0.000000	0.000000	6.947118	-0.045586	NaN	0.000000	0.001641	0.001718	28.0821	0.090317	0.001893	47.7121	-10.1508	-167.777	-0.073683	0.945398	-0.045242	-0.046582	-0.045586	47.7121	-0.044525	-0.062156	0.733413	NaN
808	1.000000	0.954741	7.37296e+06	-40539.1	1055.82	-29789.7	0.000000	0.000000	6.955121	-0.037456	NaN	0.000000	0.001634	0.001706	28.0823	0.069635	0.001900	36.6522	-98.3756	-165.622	0.011703	0.953412	-0.037239	-0.038568	-0.037456	36.6522	-0.036473	-0.035410	1.057785	NaN
808	1.000000	0.962755	7.37296e+06	-40539.1	1055.82	-29789.7	0.000000	0.000000	6.963133	-0.108250	NaN	0.000000	0.001626	0.001700	28.0821	0.113165	0.002199	51.4552	-58.9929	-166.644	-0.121820	0.961415	-0.029225	-0.030565	-0.108250	51.4552	-0.027647	-0.019834	5.457799	NaN
808	1.000000	0.970766	7.37296e+06	-40539.1	1055.82	-29789.7	0.000000	0.000000	6.971147	-0.023119	NaN	0.000000	0.001671	0.001730	28.0822	0.164167	0.002050	80.0958	-66.9894	-166.052	-0.012995	0.969463	-0.021214	-0.022517	-0.023119	80.0958	-0.020998	-0.013316	1.736194	NaN
808	1.000000	0.978739	7.37296e+06	-40539.1	1055.82	-29789.7	0.000000	0.000000	6.979121	0.013016	NaN	0.000000	0.001631	0.001758	28.0819	0.025506	0.001948	13.0943	-131.322	-166.246	0.030441	0.977435	-0.013241	-0.014545	0.013016	13.0943	-0.013987	-0.008676	-1.500285	NaN
808	1.000000	0.986756	7.37296e+06	-40539.1	1055.82	-29789.7	0.000000	0.000000	6.987135	-0.044479	NaN	0.000000	0.001626	0.001728	28.0821	0.028033	0.002082	13.4675	-44.0349	-167.573	-0.093184	0.985417	-0.005225	-0.006564	-0.044479	13.4675	-0.002748	-0.001951	22.8001	NaN
808	1.000000	0.994769	7.37296e+06	-40539.1	1055.82	-29789.7	0.000000	0.000000	6.995151	0.023172	NaN	0.000000	0.001667	0.001724	28.0821	0.101613	0.001949	52.1286	46.3594	-162.16	-0.044516	0.993467	0.002788	0.001487	0.023172	52.1286	0.002455	0.001926	12.0296	1085.17
808	1.000000	1.002725	7.37296e+06	-40539.1	1055.82	-29789.7	0.000000	0.000000	7.003319	5.161497	NaN	0.000000	0.001663	0.001728	28.0824	5.854121	0.001820	3216.68	13.3175	-172.586	3.964239	1.001459	0.010745	0.009478	5.161497	3216.68	0.009542	0.008676	594.889	31550.9
808	2.000000	1.007309	7.37296e+06	-40539.1	1055.82	-29789.7	0.000000	0.000000	7.008100	9.944681	NaN	0.000000	0.001669	0.001747	28.0826	9.488661	0.001579	6010.56	7.821697	-173.331	10.0914	1.006978	0.015329	0.014998	9.944681	6010.56	0.014088	0.014089	705.857	46264.9
808	2.000000	1.009284	7.37296e+06	-40539.1	1055.82	-29789.7	0.000000	0.000000	7.010230	13.7385	NaN	0.000000	0.001650	0.001727	28.0822	12.4891	0.001768	7064.75	11.2054	-178.055	13.6182	1.008978	0.017304	0.016997	13.7385	7064.75	0.015845	0.016429	836.239	50357.7
808	2.000000	1.011273	7.37296e+06	-40539.1	1055.82	-29789.7	0.000000	0.000000	7.012367	17.356	NaN	0.000000	0.001626	0.001750	28.0823	14.6602	0.001859	7887.86	9.567820	-175.536	17.2289	1.010927	0.019292	0.018946	17.356	7887.86	0.017642	0.018972	914.839	52321.5
808	2.000000	1.013229	7.37296e+06	-40539.1	1055.82	-29789.7	0.000000	0.000000	7.014583	23.6502	NaN	0.000000	0.001626	0.001707	28.0825	16.3383	0.001672	9769.94	7.964886	-177.761	23.1113	1.012870	0.021249	0.020890	23.6502	9769.94	0.019434	0.021660	1091.88	60650.6
808	2.000000	1.015258	7.37296e+06	-40539.1	1055.82	-29789.7	0.000000	0.000000	7.016760	27.2546	NaN	0.000000	0.001603	0.001788	28.0829	18.0851	0.001645	10992.4	2.999579	-174.786	27.4286	1.014853	0.023278	0.022872	27.2546	10992.4	0.021418	0.024820	1098.08	63747.6
808	2.000000	1.017228	7.37296e+06	-40539.1	1055.82	-29789.7	0.000000	0.000000	7.018902	31.4589	NaN	0.000000	0.001609	0.001734	28.0823	19.7309	0.001618	12192.2	5.885663	-178.171	31.2087	1.016876	0.025248	0.024896	31.4589	12192.2	0.023313	0.028017	1122.84	66549.1
808	2.000000	1.019254	7.37296e+06	-40539.1	1055.82	-29789.7	0.000000	0.000000	7.021112	35.9382	NaN	0.000000	0.001640	0.001738	28.0832	21.9258	0.001763	12437.3	2.314199	-175.21	35.8224	1.018855	0.027273	0.026875	35.9382	12437.3	0.025106	0.031209	1151.53	64321.7
808	2.000000	1.021235	7.37296e+06	-40539.1	1055.82	-29789.7	0.000000	0.000000	7.023364	42.5225	NaN	0.000000	0.001621	0.001735	28.084	24.2983	0.001745	13926.9	5.844259	-179.354	41.2377	1.020805	0.029254	0.028824	42.5225	13926.9	0.026964	0.034687	1225.91	68319.9
808	2.000000	1.023225	7.37296e+06	-40539.1	1055.82	-29789.7	0.000000	0.000000	7.025561	47.5492	NaN	0.000000	0.001637	0.001710	28.0835	26.1377	0.001764	14816.7	3.949472	-178.091	46.9057	1.022890	0.031245	0.030910	47.5492	14816.7	0.028838	0.038370	1239.23	69108.1
808	2.000000	1.025197	7.37296e+06	-40539.1	1055.82	-29789.7	0.000000	0.000000	7.027678	51.0894	NaN	0.000000	0.001623	0.001709	28.0841	28.1903	0.001684	16736.4	0.634450	-177.265	49.5587	1.024918	0.033217	0.032938	51.0894	16736.4	0.030927	0.042688	1196.82	74009
808	2.000000	1.027165	7.37296e+06	-40539.1	1055.82	-29789.7	0.000000	0.000000	7.029933	58.0906	NaN	0.000000	0.001650	0.001702	28.0836	30.2537	0.001750	17284	6.881870	176.604	55.3949	1.026895	0.035184	0.034915	58.0906	17284	0.032664	0.046446	1250.72	73273.3
808	2.000000	1.029171	7.37296e+06	-40539.1	1055.82	-29789.7	0.000000	0.000000	7.032176	63.8372	NaN	0.000000	0.001630	0.001696	28.0834	32.6628	0.001778	18367.7	7.873462	175.548	63.4197	1.028857	0.037191	0.036876	63.8372	18367.7	0.034585	0.050783	1257.06	74468
808	2.000000	1.031165	7.37296e+06	-40539.1	1055.82	-29789.7	0.000000	0.000000	7.034472	71.1664	NaN	0.000000	0.001637	0.001727	28.0843	33.5509	0.001761	19055	0.728072	-177.519	68.4824	1.030856	0.039185	0.038875	71.1664	19055	0.036384	0.055018	1293.52	74221.9
808	2.000000	1.033175	7.37296e+06	-40539.1	1055.82	-29789.7	0.000000	0.000000	7.036831	79.6736	NaN	0.000000	0.001649	0.001696	28.0835	36.4817	0.001753	20815.5	9.642853	172.331	78.8118	1.032817	0.041195	0.040836	79.6736	20815.5	0.038324	0.059768	1333.04	77790.2
808	2.000000	1.035149	7.37296e+06	-40539.1	1055.82	-29789.7	0.000000	0.000000	7.039107	87.0363	NaN	0.000000	0.001609	0.001719	28.0836	37.0697	0.001737	21346.4	2.746655	178.992	84.6416	1.034939	0.043169	0.042958	87.0363	21346.4	0.040111	0.064315	1353.29	76902.9
808	2.000000	1.037162	7.37296e+06	-40539.1	1055.82	-29789.7	0.000000	0.000000	7.041539	97.2343	NaN	0.000000	0.001594	0.001748	28.0834	38.9293	0.001843	21126.8	4.371083	178.293	95.2481	1.036831	0.045182	0.044851	97.2343	21126.8	0.041730	0.068575	1417.92	73709.3
808	2.000000	1.039149	7.37296e+06	-40539.1	1055.82	-29789.7	0.000000	0.000000	7.043816	104.272	NaN	0.000000	0.001628	0.001709	28.0834	41.8284	0.001873	22329.2	7.813633	173.598	101.205	1.038850	0.047169	0.046869	104.272	22329.2	0.043667	0.073847	1411.99	75072.2
808	2.000000	1.041176	7.37296e+06	-40539.1	1055.82	-29789.7	0.000000	0.000000	7.046174	112.335	NaN	0.000000	0.001605	0.001707	28.0843	42.4825	0.001670	25439.2	4.551134	176.004	110.196	1.040842	0.049196	0.048862	112.335	25439.2	0.045884	0.080116	1402.15	82114
808	2.000000	1.043193	7.37296e+06	-40539.1	1055.82	-29789.7	0.000000	0.000000	7.048583	121.856	NaN	0.000000	0.001627	0.001778	28.0853	44.7394	0.001863	24019.8	6.866990	174.944	122.725	1.042886	0.051213	0.050906	121.856	24019.8	0.047408	0.084570	1440.89	75462.9
808	2.000000	1.045153	7.37296e+06	-40539.1	1055.82	-29789.7	0.000000	0.000000	7.050854	129.438	NaN	0.000000	0.001634	0.001750	28.0875	46.1629	0.001842	25055.9	4.118077	176.952	126.691	1.044896	0.053172	0.052916	129.438	25055.9	0.049298	0.090255	1434.13	76198.4
808	2.000000	1.047204	7.37296e+06	-40539.1	1055.82	-29789.7	0.000000	0.000000	7.053326	139.704	NaN	0.000000	0.001623	0.001721	28.0845	47.2666	0.001884	25089	3.188603	178.996	140.509	1.046818	0.055223	0.054838	139.704	25089	0.051047	0.095677	1460.17	74105.8
808	2.000000	1.049090	7.37296e+06	-40539.1	1055.82	-29789.7	0.000000	0.000000	7.055754	152.879	NaN	0.000000	0.001606	0.001757	28.0839	49.798	0.001774	28071.4	4.778797	175.606	148.743	1.048803	0.057109	0.056823	152.879	28071.4	0.053025	0.101992	1498.93	80307.2
808	2.000000	1.051187	7.37296e+06	-40539.1	1055.82	-29789.7	0.000000	0.000000	7.058199	161.36	NaN	0.000000	0.001650	0.001726	28.0847	51.5962	0.001730	29831.3	3.441690	177.224	160.116	1.050753	0.059206	0.058773	161.36	29831.3	0.055150	0.108992	1480.47	82555.8
808	2.000000	1.053253	7.37296e+06	-40539.1	1055.82	-29789.7	0.000000	0.000000	7.060354	163.5	NaN	0.000000	0.001594	0.001742	28.0828	54.5747	0.001803	30270	8.542236	170.9	168.513	1.052847	0.061273	0.060867	163.5	30270	0.057222	0.116035	1409.05	81187.7
808	2.000000	1.055090	7.37296e+06	-40539.1	1055.82	-29789.7	0.000000	0.000000	7.062780	177.832	NaN	0.000000	0.001561	0.001735	28.0828	55.5732	0.001812	30672.9	1.089674	178.11	174.166	1.054848	0.063110	0.062867	177.832	30672.9	0.058762	0.121406	1464.77	80427.9
808	2.000000	1.057121	7.37296e+06	-40539.1	1055.82	-29789.7	0.000000	0.000000	7.065261	188.789	NaN	0.000000	0.001658	0.001766	28.0824	57.4754	0.001804	31856.9	7.942953	171.733	186.619	1.056802	0.065140	0.064822	188.789	31856.9	0.060696	0.128315	1471.29	81252.8
808	2.000000	1.059125	7.37296e+06	-40539.1	1055.82	-29789.7	0.000000	0.000000	7.067702	199.416	NaN	0.000000	0.001689	0.001739	28.0825	59.6281	0.001786	33379.7	6.003172	172.79	197.728	1.058856	0.067145	0.066875	199.416	33379.7	0.062664	0.135535	1471.32	82838
808	2.000000	1.061122	7.37296e+06	-40539.1	1055.82	-29789.7	0.000000	0.000000	7.070195	211.473	NaN	0.000000	0.001606	0.001722	28.083	60.0446	0.001678	35779.8	1.352532	177.175	208.941	1.060815	0.069142	0.068834	211.473	35779.8	0.064709	0.143234	1476.41	86374.8
808	2.000000	1.063085	7.37296e+06	-40539.1	1055.82	-29789.7	0.000000	0.000000	7.072720	225.157	NaN	0.000000	0.001605	0.001724	28.0826	62.4032	0.001807	34530.1	4.961989	173.728	221.378	1.062796	0.071105	0.070816	225.157	34530.1	0.066214	0.149031	1510.81	81721
808	2.000000	1.065197	7.37296e+06	-40539.1	1055.82	-29789.7	0.000000	0.000000	7.075315	236.907	NaN	0.000000	0.001594	0.001713	28.0825	64.5888	0.001756	36781.1	6.541292	171.889	238.189	1.064828	0.073217	0.072848	236.907	36781.1	0.068386	0.157585	1503.36	84652.7
808	2.000000	1.067134	7.37296e+06	-40539.1	1055.82	-29789.7	0.000000	0.000000	7.077753	249.13	NaN	0.000000	0.001594	0.001694	28.0824	64.8869	0.001784	36376.5	0.979590	177.292	248.989	1.066844	0.075153	0.074864	249.13	36376.5	0.070017	0.164156	1517.64	82028.5
808	2.000000	1.069077	7.37296e+06	-40539.1	1055.82	-29789.7	0.000000	0.000000	7.080040	257.483	NaN	0.000000	0.001589	0.001747	28.0825	68.529	0.001801	38046	1.266241	176.817	253.125	1.068776	0.077097	0.076795	257.483	38046	0.072021	0.172408	1493.45	83715.1
808	2.000000	1.071228	7.37296e+06	-40539.1	1055.82	-29789.7	0.000000	0.000000	7.082727	270.544	NaN	0.000000	0.001584	0.001745	28.0826	71.6462	0.001876	38197.4	3.996973	173.937	272.492	1.070841	0.079247	0.078860	270.544	38197.4	0.073935	0.180463	1499.17	82151
808	2.000000	1.073040	7.37296e+06	-40539.1	1055.82	-29789.7	0.000000	0.000000	7.085207	286.784	NaN	0.000000	0.001589	0.001746	28.0824	72.8075	0.001790	40676.3	3.779988	173.384	280.583	1.072776	0.081060	0.080795	286.784	40676.3	0.075772	0.188357	1522.56	85629.6
808	2.000000	1.075159	7.37296e+06	-40539.1	1055.82	-29789.7	0.000000	0.000000	7.087870	300.028	NaN	0.000000	0.001577	0.001732	28.0825	74.7432	0.001824	40984.1	2.733577	175.136	299.837	1.074740	0.083178	0.082760	300.028	40984.1	0.077688	0.196759	1524.85	84415.3
808	2.000000	1.077061	7.37296e+06	-40539.1	1055.82	-29789.7	0.000000	0.000000	7.090278	312.311	NaN	0.000000	0.001612	0.001747	28.0825	74.5654	0.001725	43215.8	0.018071	177.085	308.94	1.076848	0.085081	0.084868	312.311	43215.8	0.079661	0.205593	1519.07	87078.6
808	2.000000	1.079036	7.37296e+06	-40539.1	1055.82	-29789.7	0.000000	0.000000	7.092563	319.882	NaN	0.000000	0.001598	0.001761	28.0826	77.2265	0.001841	41951.6	-1.583093	178.811	315.891	1.078881	0.087055	0.086901	319.882	41951.6	0.081337	0.213237	1500.13	83002.5
808	2.000000	1.081133	7.37296e+06	-40539.1	1055.82	-29789.7	0.000000	0.000000	7.095626	343.385	NaN	0.000000	0.001604	0.001722	28.0823	79.4007	0.001747	45457.3	3.278357	173.363	341.568	1.080779	0.089153	0.088799	343.385	45457.3	0.083487	0.223238	1538.21	87900.8
808	2.000000	1.083109	7.37296e+06	-40539.1	1055.82	-29789.7	0.000000	0.000000	7.098237	358.833	NaN	0.000000	0.001562	0.001721	28.0823	81.1823	0.001706	47579.1	7.026224	168.782	357.093	1.082868	0.091129	0.090888	358.833	47579.1	0.085472	0.232660	1542.31	90121.6
808	2.000000	1.085165	7.37296e+06	-40539.1	1055.82	-29789.7	0.000000	0.000000	7.100906	373.748	NaN	0.000000	0.001580	0.001705	28.0825	85.1392	0.001853	45948.2	6.899361	170.169	375.497	1.084846	0.093185	0.092865	373.748	45948.2	0.087084	0.240446	1554.4	85611.7
808	2.000000	1.087127	7.37296e+06	-40539.1	1055.82	-29789.7	0.000000	0.000000	7.103432	387.469	NaN	0.000000	0.001597	0.001701	28.0829	84.1862	0.001741	48359.8	2.844634	173.21	387.172	1.086826	0.095146	0.094846	387.469	48359.8	0.089137	0.250532	1546.59	88272.6
808	2.000000	1.089024	7.37296e+06	-40539.1	1055.82	-29789.7	0.000000	0.000000	7.106127	406.893	NaN	0.000000	0.001604	0.001731	28.0839	87.9643	0.001699	51777.1	8.111723	167.583	401.168	1.088654	0.097043	0.096673	406.893	51777.1	0.091150	0.260608	1561.32	92665.3
808	2.000000	1.091089	7.37296e+06	-40539.1	1055.82	-29789.7	0.000000	0.000000	7.108782	421.229	NaN	0.000000	0.001566	0.001752	28.0834	89.8335	0.001811	49615.8	5.775985	170.862	417.056	1.090705	0.099109	0.098724	421.229	49615.8	0.092742	0.268711	1567.59	87448.1
808	2.000000	1.093082	7.37296e+06	-40539.1	1055.82	-29789.7	0.000000	0.000000	7.111166	430.78	NaN	0.000000	0.001598	0.001769	28.0834	91.3234	0.001764	51763.7	0.846058	175.098	429.55	1.092806	0.101101	0.100825	430.78	51763.7	0.094860	0.279672	1540.31	89428.1
808	2.000000	1.095108	7.37296e+06	-40539.1	1055.82	-29789.7	0.000000	0.000000	7.113885	447.61	NaN	0.000000	0.001600	0.001749	28.0837	93.7114	0.001688	55521.4	2.319134	172.708	444.944	1.094769	0.103128	0.102788	447.61	55521.4	0.097082	0.291388	1536.13	93971.8
808	2.000000	1.097089	7.37296e+06	-40539.1	1055.82	-29789.7	0.000000	0.000000	7.116505	463.155	NaN	0.000000	0.001589	0.001750	28.0836	94.6873	0.001728	54805.8	3.578363	171.746	460.339	1.096897	0.105109	0.104917	463.155	54805.8	0.098771	0.300447	1541.55	91351.5
808	2.000000	1.099155	7.37296e+06	-40539.1	1055.82	-29789.7	0.000000	0.000000	7.119318	481.358	NaN	0.000000	0.001591	0.001710	28.0841	97.2238	0.001797	54104.9	3.169082	172.076	482.847	1.098914	0.107175	0.106933	481.358	54104.9	0.100502	0.309866	1553.44	88802
808	2.000000	1.101154	7.37296e+06	-40539.1	1055.82	-29789.7	0.000000	0.000000	7.122108	500.587	NaN	0.000000	0.001595	0.001724	28.0835	99.6455	0.001748	57017.5	5.110520	170.399	502.021	1.100812	0.109174	0.108832	500.587	57017.5	0.102589	0.321399	1557.52	91888.1
808	2.000000	1.103148	7.37296e+06	-40539.1	1055.82	-29789.7	0.000000	0.000000	7.124791	517.358	NaN	0.000000	0.001594	0.001715	28.0837	100.85	0.001751	57607.4	4.996588	170.042	519.933	1.102785	0.111168	0.110805	517.358	57607.4	0.104433	0.331753	1559.47	91378.6
808	2.000000	1.104678	7.37296e+06	-40539.1	1055.82	-29789.7	0.000000	0.000000	7.126622	524.672	NaN	0.000000	0.001581	0.001725	28.0836	103.977	0.001906	54547.4	3.140925	-7.577073	524.488	1.104368	0.112698	0.112388	524.672	54547.4	0.105484	0.337728	1553.54	85755.9