File: remote_trans/data/nanoindenter/0828-1/data/Data_2025-08-06,11h17m57s/2025-07-22_16-23-58_1_1119.txt
2025-07-22, 16:23:58, 1
Index	Phase	Displacement	Time	Pos X	Pos Y	Pos Z	Rot A	Rot B	Piezo Z	Force A	Force B	Gripper	Voltage A	Voltage B	Temperature	Amplitude force	Amplitude pos	Stiffness	Phase shift	Phase excitation	Force A raw	Displacement raw	HMax	HMax raw	Real Force	Real Stiffness	Contact Depth	Area	Hardness	Reduced Mod.
[#]	[#]	[um]	[s]	[um]	[um]	[um]	[m°]	[m°]	[um]	[uN]	[uN]	[V]	[V]	[V]	[°C]	[uN]	[um]	[N/m]	[°]	[°]	[uN]	[um]	[um]	[um]	[uN]	[N/m]	[um]	[um^2]	[MPa]	[MPa]
1119	1.000000	0.002291	7.376e+06	-56089.1	1055.82	-29739.7	0.000000	0.000000	6.002785	0.033809	NaN	0.000000	0.001665	0.001765	28.0846	0.055764	0.000967	57.6527	-165.002	-165.807	0.024472	0.000967	-1.223264	-1.224587	0.033809	57.6527	-1.223704	-2.280729E+16	-1.482371E-18	NaN
1119	1.000000	0.012379	7.376e+06	-56089.1	1055.82	-29739.7	0.000000	0.000000	6.012875	0.068061	NaN	0.000000	0.001663	0.001765	28.0845	0.044351	0.001173	37.8169	-88.4622	17.3817	-0.034067	0.010931	-1.213175	-1.214623	0.068061	37.8169	-1.214525	-1.718776E+16	-3.959867E-18	NaN
1119	1.000000	0.022234	7.376e+06	-56089.1	1055.82	-29739.7	0.000000	0.000000	6.022727	0.014387	NaN	0.000000	0.001642	0.001727	28.0846	0.042700	0.001699	25.1333	-150.802	-166.13	0.015290	0.020922	-1.203321	-1.204633	0.014387	25.1333	-1.203750	-1.233005E+16	-1.166795E-18	NaN
1119	1.000000	0.032261	7.376e+06	-56089.1	1055.82	-29739.7	0.000000	0.000000	6.032754	0.011502	NaN	0.000000	0.001660	0.001710	28.0844	0.067123	0.002020	33.2302	55.9385	15.6579	0.005695	0.030843	-1.193294	-1.194712	0.011502	33.2302	-1.193553	-9.003589E+15	-1.277487E-18	NaN
1119	1.000000	0.042258	7.376e+06	-56089.1	1055.82	-29739.7	0.000000	0.000000	6.042751	0.007757	NaN	0.000000	0.001668	0.001737	28.0848	0.073326	0.002007	36.5335	163.886	-163.947	-0.017253	0.040940	-1.183297	-1.184614	0.007757	36.5335	-1.183456	-6.594341E+15	-1.176335E-18	NaN
1119	1.000000	0.052253	7.376e+06	-56089.1	1055.82	-29739.7	0.000000	0.000000	6.052744	-0.055022	NaN	0.000000	0.001633	0.001757	28.0845	0.112954	0.001974	57.2351	176.047	13.5988	-0.004010	0.050929	-1.173301	-1.174626	-0.055022	57.2351	-1.172580	-4.714776E+15	1.167017E-17	NaN
1119	1.000000	0.062252	7.376e+06	-56089.1	1055.82	-29739.7	0.000000	0.000000	6.062745	0.003359	NaN	0.000000	0.001676	0.001703	28.0845	0.058786	0.002204	26.6752	114.861	-168.175	-0.092919	0.060994	-1.163303	-1.164560	0.003359	26.6752	-1.163397	-3.551384E+15	-9.458110E-19	NaN
1119	1.000000	0.072260	7.376e+06	-56089.1	1055.82	-29739.7	0.000000	0.000000	6.072755	0.050730	NaN	0.000000	0.001722	0.001752	28.0847	0.068950	0.001865	36.9647	157.26	12.2221	0.057949	0.070837	-1.153295	-1.154718	0.050730	36.9647	-1.154324	-2.684013E+15	-1.890097E-17	NaN
1119	1.000000	0.082277	7.376e+06	-56089.1	1055.82	-29739.7	0.000000	0.000000	6.082769	-0.025457	NaN	0.000000	0.001722	0.001733	28.0849	0.133929	0.001958	68.3935	-132.005	-169.338	-0.021105	0.080937	-1.143278	-1.144618	-0.025457	68.3935	-1.142998	-1.892105E+15	1.345442E-17	NaN
1119	1.000000	0.092280	7.376e+06	-56089.1	1055.82	-29739.7	0.000000	0.000000	6.092774	0.009916	NaN	0.000000	0.001685	0.001762	28.0845	0.085139	0.001875	45.4031	18.4013	14.0864	0.017088	0.090927	-1.133274	-1.134628	0.009916	45.4031	-1.133438	-1.408427E+15	-7.040546E-18	NaN
1119	1.000000	0.102277	7.376e+06	-56089.1	1055.82	-29739.7	0.000000	0.000000	6.102771	0.011502	NaN	0.000000	0.001720	0.001745	28.0834	0.081300	0.001941	41.8889	-48.8197	-166.095	0.069453	0.100915	-1.123277	-1.124640	0.011502	41.8889	-1.123483	-1.035626E+15	-1.110669E-17	NaN
1119	1.000000	0.112261	7.376e+06	-56089.1	1055.82	-29739.7	0.000000	0.000000	6.112752	-0.054090	NaN	0.000000	0.001684	0.001764	28.0835	0.057866	0.002099	27.5691	-80.044	16.6444	-0.079511	0.110893	-1.113293	-1.114661	-0.054090	27.5691	-1.111822	-7.223341E+14	7.488258E-17	NaN
1119	1.000000	0.122289	7.376e+06	-56089.1	1055.82	-29739.7	0.000000	0.000000	6.122781	-0.010221	NaN	0.000000	0.001671	0.001753	28.0837	0.049318	0.001932	25.5233	-87.3392	-163.159	0.066560	0.120964	-1.103266	-1.104590	-0.010221	25.5233	-1.102965	-5.493801E+14	1.860406E-17	NaN
1119	1.000000	0.132284	7.376e+06	-56089.1	1055.82	-29739.7	0.000000	0.000000	6.132778	0.029696	NaN	0.000000	0.001687	0.001746	28.0832	0.036094	0.002084	17.3198	-134.046	14.3488	0.040252	0.130931	-1.093270	-1.094623	0.029696	17.3198	-1.094556	-4.236318E+14	-7.009869E-17	NaN
1119	1.000000	0.142305	7.376e+06	-56089.1	1055.82	-29739.7	0.000000	0.000000	6.142798	0.015646	NaN	0.000000	0.001700	0.001770	28.0833	0.072636	0.002074	35.015	26.0365	-162.689	0.055624	0.140965	-1.083250	-1.084589	0.015646	35.015	-1.083585	-3.017644E+14	-5.184763E-17	NaN
1119	1.000000	0.152270	7.376e+06	-56089.1	1055.82	-29739.7	0.000000	0.000000	6.152761	-0.033882	NaN	0.000000	0.001670	0.001739	28.0834	0.110783	0.002064	53.6724	38.4903	14.0635	-0.060117	0.150911	-1.073285	-1.074643	-0.033882	53.6724	-1.072811	-2.162505E+14	1.566799E-16	NaN
1119	1.000000	0.162278	7.376e+06	-56089.1	1055.82	-29739.7	0.000000	0.000000	6.162773	0.058923	NaN	0.000000	0.001634	0.001782	28.0835	0.073404	0.002033	36.1109	-95.0931	-169.311	-0.007944	0.160998	-1.063277	-1.064556	0.058923	36.1109	-1.064501	-1.672252E+14	-3.523589E-16	NaN
1119	1.000000	0.172329	7.376e+06	-56089.1	1055.82	-29739.7	0.000000	0.000000	6.172822	-0.003270	NaN	0.000000	0.001640	0.001786	28.0833	0.098862	0.001993	49.6087	126.952	16.4855	-0.028833	0.171007	-1.053226	-1.054547	-0.003270	49.6087	-1.053176	-1.177907E+14	2.776376E-17	NaN
1119	1.000000	0.182283	7.376e+06	-56089.1	1055.82	-29739.7	0.000000	0.000000	6.182774	-0.055336	NaN	0.000000	0.001606	0.001769	28.0833	0.133912	0.001959	68.3547	-160.366	-166.537	-0.045588	0.180977	-1.043271	-1.044578	-0.055336	68.3547	-1.042664	-8.507299E+13	6.504515E-16	NaN
1119	1.000000	0.192343	7.376e+06	-56089.1	1055.82	-29739.7	0.000000	0.000000	6.192836	0.008203	NaN	0.000000	0.001637	0.001751	28.0834	0.046000	0.002038	22.5712	-42.6797	12.9225	-0.022976	0.190932	-1.033212	-1.034622	0.008203	22.5712	-1.033484	-6.402459E+13	-1.281251E-16	NaN
1119	1.000000	0.202301	7.376e+06	-56089.1	1055.82	-29739.7	0.000000	0.000000	6.202791	-0.063075	NaN	0.000000	0.001607	0.001749	28.0833	0.051305	0.001839	27.8929	-53.2795	-167.191	-0.059180	0.201064	-1.023254	-1.024490	-0.063075	27.8929	-1.021558	-4.424982E+13	1.425421E-15	NaN
1119	1.000000	0.212325	7.376e+06	-56089.1	1055.82	-29739.7	0.000000	0.000000	6.212819	0.032013	NaN	0.000000	0.001614	0.001772	28.083	0.042235	0.001974	21.3943	-163.853	15.7525	0.096702	0.210938	-1.013230	-1.014616	0.032013	21.3943	-1.014352	-3.539584E+13	-9.044240E-16	NaN
1119	1.000000	0.222302	7.376e+06	-56089.1	1055.82	-29739.7	0.000000	0.000000	6.222795	-0.023900	NaN	0.000000	0.001657	0.001769	28.0833	0.009786	0.002111	4.635490	34.4492	-166.338	-0.006107	0.221037	-1.003252	-1.004517	-0.023900	4.635490	-0.999385	-2.225828E+13	1.073738E-15	NaN
1119	1.000000	0.232323	7.376e+06	-56089.1	1055.82	-29739.7	0.000000	0.000000	6.232813	-0.076347	NaN	0.000000	0.001684	0.001741	28.0832	0.068902	0.001993	34.5732	-162.046	15.9992	-0.062921	0.230931	-0.993232	-0.994623	-0.076347	34.5732	-0.991576	-1.747150E+13	4.369814E-15	NaN
1119	1.000000	0.242350	7.376e+06	-56089.1	1055.82	-29739.7	0.000000	0.000000	6.242839	-0.097250	NaN	0.000000	0.001647	0.001795	28.0847	0.061778	0.001998	30.9137	-63.5036	-161.843	-0.063540	0.240994	-0.983205	-0.984560	-0.097250	30.9137	-0.980845	-1.252556E+13	7.764152E-15	NaN
1119	1.000000	0.252346	7.376e+06	-56089.1	1055.82	-29739.7	0.000000	0.000000	6.252841	0.044209	NaN	0.000000	0.001698	0.001745	28.0845	0.024531	0.001953	12.5612	71.2162	17.137	0.057942	0.251012	-0.973209	-0.974543	0.044209	12.5612	-0.975848	-1.072682E+13	-4.121377E-15	NaN
1119	1.000000	0.262340	7.376e+06	-56089.1	1055.82	-29739.7	0.000000	0.000000	6.262830	-0.077138	NaN	0.000000	0.001692	0.001781	28.0849	0.044347	0.001919	23.1039	-35.3346	-164.445	-0.140488	0.260969	-0.963214	-0.964586	-0.077138	23.1039	-0.960710	-6.705681E+12	1.150337E-14	NaN
1119	1.000000	0.272355	7.376e+06	-56089.1	1055.82	-29739.7	0.000000	0.000000	6.272850	0.035121	NaN	0.000000	0.001694	0.001758	28.0845	0.093800	0.002040	45.9804	98.3444	12.3506	0.092547	0.270990	-0.953199	-0.954564	0.035121	45.9804	-0.953772	-5.406229E+12	-6.496379E-15	NaN
1119	1.000000	0.282350	7.376e+06	-56089.1	1055.82	-29739.7	0.000000	0.000000	6.282841	-0.037900	NaN	0.000000	0.001660	0.001784	28.0848	0.035690	0.001923	18.5573	93.6846	-165.99	-0.065388	0.281040	-0.943205	-0.944514	-0.037900	18.5573	-0.941673	-3.712838E+12	1.020794E-14	NaN
1119	1.000000	0.292386	7.376e+06	-56089.1	1055.82	-29739.7	0.000000	0.000000	6.292882	0.061266	NaN	0.000000	0.001647	0.001786	28.0848	0.049291	0.001937	25.4414	-85.795	12.9676	-0.042468	0.290995	-0.933168	-0.934559	0.061266	25.4414	-0.934974	-3.015286E+12	-2.031839E-14	NaN
1119	1.000000	0.302329	7.376e+06	-56089.1	1055.82	-29739.7	0.000000	0.000000	6.302819	-0.092209	NaN	0.000000	0.001662	0.001816	28.0847	0.115891	0.002074	55.8699	-114.068	-169.463	-0.116027	0.301041	-0.923225	-0.924513	-0.092209	55.8699	-0.921987	-2.013900E+12	4.578605E-14	NaN
1119	1.000000	0.312363	7.376e+06	-56089.1	1055.82	-29739.7	0.000000	0.000000	6.312853	-0.072080	NaN	0.000000	0.001658	0.001763	28.085	0.022609	0.001975	11.4458	77.271	14.4826	-0.008389	0.311028	-0.913192	-0.914527	-0.072080	11.4458	-0.908468	-1.322739E+12	5.449329E-14	NaN
1119	1.000000	0.322356	7.376e+06	-56089.1	1055.82	-29739.7	0.000000	0.000000	6.322848	-0.016965	NaN	0.000000	0.001675	0.001801	28.0845	0.090428	0.002008	45.041	175.443	-163.809	-0.022477	0.321081	-0.903199	-0.904474	-0.016965	45.041	-0.902916	-1.112941E+12	1.524315E-14	NaN
1119	1.000000	0.332374	7.376e+06	-56089.1	1055.82	-29739.7	0.000000	0.000000	6.332868	0.031703	NaN	0.000000	0.001622	0.001809	28.0847	0.144373	0.001842	78.3924	-12.9256	15.76	-0.053182	0.330992	-0.893181	-0.894563	0.031703	78.3924	-0.893484	-8.298693E+11	-3.820283E-14	NaN
1119	1.000000	0.342367	7.376e+06	-56089.1	1055.82	-29739.7	0.000000	0.000000	6.342859	-0.043834	NaN	0.000000	0.001679	0.001757	28.0846	0.103086	0.001909	54.0095	112.005	-162.705	0.060279	0.341050	-0.883187	-0.884505	-0.043834	54.0095	-0.882579	-5.909857E+11	7.417022E-14	NaN
1119	1.000000	0.352391	7.376e+06	-56089.1	1055.82	-29739.7	0.000000	0.000000	6.352884	-0.006053	NaN	0.000000	0.001686	0.001756	28.0847	0.062660	0.001970	31.807	-61.3575	18.4222	0.024957	0.350991	-0.873164	-0.874564	-0.006053	31.807	-0.873021	-4.388463E+11	1.379270E-14	NaN
1119	1.000000	0.362375	7.376e+06	-56089.1	1055.82	-29739.7	0.000000	0.000000	6.362866	-0.056956	NaN	0.000000	0.001684	0.001734	28.0846	0.103407	0.001979	52.2459	168.242	-168.405	-0.083467	0.361124	-0.863180	-0.864430	-0.056956	52.2459	-0.862362	-3.148398E+11	1.809047E-13	NaN
1119	1.000000	0.372386	7.376e+06	-56089.1	1055.82	-29739.7	0.000000	0.000000	6.372883	0.076037	NaN	0.000000	0.001651	0.001748	28.085	0.073554	0.001920	38.2996	-168.672	15.7158	0.108496	0.370981	-0.853168	-0.854573	0.076037	38.2996	-0.854657	-2.476250E+11	-3.070666E-13	NaN
1119	1.000000	0.382396	7.376e+06	-56089.1	1055.82	-29739.7	0.000000	0.000000	6.382887	-0.036857	NaN	0.000000	0.001662	0.001707	28.0835	0.051056	0.002048	24.9263	125.591	-164.714	-0.020041	0.381067	-0.843159	-0.844488	-0.036857	24.9263	-0.842050	-1.671336E+11	2.205255E-13	NaN
1119	1.000000	0.392414	7.376e+06	-56089.1	1055.82	-29739.7	0.000000	0.000000	6.392907	0.009508	NaN	0.000000	0.001656	0.001720	28.0837	0.009017	0.001929	4.673342	-87.147	12.4483	-0.040616	0.390999	-0.833141	-0.834556	0.009508	4.673342	-0.834667	-1.327493E+11	-7.162489E-14	NaN
1119	1.000000	0.402425	7.376e+06	-56089.1	1055.82	-29739.7	0.000000	0.000000	6.402915	-0.075479	NaN	0.000000	0.001629	0.001722	28.0834	0.051532	0.002098	24.5638	-171.229	-165.12	-0.021131	0.401111	-0.823130	-0.824444	-0.075479	24.5638	-0.820825	-8.617827E+10	8.758514E-13	NaN
1119	1.000000	0.412386	7.376e+06	-56089.1	1055.82	-29739.7	0.000000	0.000000	6.412877	-0.040339	NaN	0.000000	0.001626	0.001711	28.0836	0.102844	0.002173	47.3374	-77.1124	14.7534	-0.061130	0.411049	-0.813169	-0.814506	-0.040339	47.3374	-0.812530	-6.651025E+10	6.065125E-13	NaN
1119	1.000000	0.422431	7.376e+06	-56089.1	1055.82	-29739.7	0.000000	0.000000	6.422923	-0.050222	NaN	0.000000	0.001636	0.001717	28.0833	0.026513	0.002005	13.2205	14.0625	-165.277	-0.052255	0.421084	-0.803123	-0.804471	-0.050222	13.2205	-0.800274	-4.535037E+10	1.107416E-12	NaN
1119	1.000000	0.432427	7.376e+06	-56089.1	1055.82	-29739.7	0.000000	0.000000	6.432919	-0.037170	NaN	0.000000	0.001579	0.001718	28.0832	0.055014	0.002197	25.035	87.6275	16.9867	-0.055261	0.431058	-0.793127	-0.794496	-0.037170	25.035	-0.792013	-3.502902E+10	1.061126E-12	NaN
1119	1.000000	0.442370	7.376e+06	-56089.1	1055.82	-29739.7	0.000000	0.000000	6.442867	0.098833	NaN	0.000000	0.001604	0.001746	28.0831	0.079112	0.001940	40.771	-119.516	-162.531	0.049339	0.441102	-0.783185	-0.784452	0.098833	40.771	-0.785003	-2.813249E+10	-3.513119E-12	NaN
1119	1.000000	0.452418	7.376e+06	-56089.1	1055.82	-29739.7	0.000000	0.000000	6.452914	0.058683	NaN	0.000000	0.001641	0.001705	28.0832	0.036741	0.001994	18.4216	-57.7873	12.4858	0.038504	0.450989	-0.773136	-0.774565	0.058683	18.4216	-0.775525	-2.091302E+10	-2.806064E-12	NaN
1119	1.000000	0.462461	7.376e+06	-56089.1	1055.82	-29739.7	0.000000	0.000000	6.462955	0.034121	NaN	0.000000	0.001655	0.001718	28.0831	0.020620	0.001943	10.6145	42.0184	-163.262	0.032583	0.461095	-0.763094	-0.764459	0.034121	10.6145	-0.765505	-1.528198E+10	-2.232790E-12	NaN
1119	1.000000	0.472421	7.376e+06	-56089.1	1055.82	-29739.7	0.000000	0.000000	6.472912	-0.043895	NaN	0.000000	0.001636	0.001687	28.0831	0.109189	0.001896	57.5929	-150.226	10.9624	-0.013784	0.471086	-0.753134	-0.754469	-0.043895	57.5929	-0.752562	-1.018817E+10	4.308408E-12	NaN
1119	1.000000	0.482413	7.376e+06	-56089.1	1055.82	-29739.7	0.000000	0.000000	6.482905	-0.024846	NaN	0.000000	0.001616	0.001696	28.0833	0.058448	0.001934	30.2172	-44.7168	-167.312	-0.021182	0.481154	-0.743141	-0.744400	-0.024846	30.2172	-0.742525	-7.437729E+9	3.340582E-12	NaN
1119	1.000000	0.492459	7.376e+06	-56089.1	1055.82	-29739.7	0.000000	0.000000	6.492952	-0.005601	NaN	0.000000	0.001613	0.001712	28.0833	0.063647	0.002065	30.8177	38.2161	15.3692	0.070913	0.491085	-0.733096	-0.734470	-0.005601	30.8177	-0.732959	-5.509820E+9	1.016488E-12	NaN
1119	1.000000	0.502441	7.376e+06	-56089.1	1055.82	-29739.7	0.000000	0.000000	6.502932	-0.044691	NaN	0.000000	0.001610	0.001703	28.083	0.121961	0.002088	58.3965	153.574	-165.165	-0.024102	0.501112	-0.723113	-0.724442	-0.044691	58.3965	-0.722540	-3.972865E+9	1.124900E-11	NaN
1119	1.000000	0.512453	7.376e+06	-56089.1	1055.82	-29739.7	0.000000	0.000000	6.512944	-0.028986	NaN	0.000000	0.001619	0.001684	28.0847	0.084768	0.002006	42.2639	74.3869	15.0253	0.013265	0.511103	-0.713102	-0.714452	-0.028986	42.2639	-0.712588	-2.906421E+9	9.973125E-12	NaN
1119	1.000000	0.522465	7.376e+06	-56089.1	1055.82	-29739.7	0.000000	0.000000	6.522958	-0.016217	NaN	0.000000	0.001655	0.001678	28.0845	0.054342	0.001979	27.4647	44.2727	-166.214	0.021573	0.521215	-0.703089	-0.704340	-0.016217	27.4647	-0.702646	-2.126510E+9	7.626311E-12	NaN
1119	1.000000	0.532470	7.376e+06	-56089.1	1055.82	-29739.7	0.000000	0.000000	6.532964	0.038309	NaN	0.000000	0.001666	0.001722	28.0844	0.064482	0.002047	31.4971	5.150258	17.4904	0.033248	0.531090	-0.693085	-0.694464	0.038309	31.4971	-0.693997	-1.620070E+9	-2.364646E-11	NaN
1119	1.000000	0.542453	7.376e+06	-56089.1	1055.82	-29739.7	0.000000	0.000000	6.542948	0.050574	NaN	0.000000	0.001678	0.001747	28.0845	0.088590	0.002002	44.248	-110.646	-164.887	0.050684	0.541156	-0.683102	-0.684399	0.050574	44.248	-0.683959	-1.181246E+9	-4.281434E-11	NaN
1119	1.000000	0.552489	7.376e+06	-56089.1	1055.82	-29739.7	0.000000	0.000000	6.552979	-0.062992	NaN	0.000000	0.001678	0.001734	28.0846	0.026975	0.001964	13.737	62.8872	12.5723	-0.034898	0.551090	-0.673066	-0.674465	-0.062992	13.737	-0.669627	-7.521055E+8	8.375392E-11	NaN
1119	1.000000	0.562474	7.376e+06	-56089.1	1055.82	-29739.7	0.000000	0.000000	6.562964	-0.073915	NaN	0.000000	0.001675	0.001750	28.0846	0.091315	0.002005	45.5423	42.8435	-165.281	-0.065538	0.561157	-0.663080	-0.664397	-0.073915	45.5423	-0.661863	-5.888254E+8	1.255300E-10	NaN
1119	1.000000	0.572495	7.376e+06	-56089.1	1055.82	-29739.7	0.000000	0.000000	6.572990	0.052236	NaN	0.000000	0.001594	0.001757	28.0845	0.031642	0.002098	15.0812	-12.3894	16.126	0.043334	0.571151	-0.653059	-0.654404	0.052236	15.0812	-0.655657	-4.841385E+8	-1.078944E-10	NaN
1119	1.000000	0.582477	7.376e+06	-56089.1	1055.82	-29739.7	0.000000	0.000000	6.582970	-0.001617	NaN	0.000000	0.001631	0.001766	28.0844	0.105815	0.002114	50.0648	-106.69	-168.344	0.021155	0.581166	-0.643077	-0.644388	-0.001617	50.0648	-0.643053	-3.252171E+8	4.971362E-12	NaN
1119	1.000000	0.592479	7.376e+06	-56089.1	1055.82	-29739.7	0.000000	0.000000	6.592973	0.012236	NaN	0.000000	0.001647	0.001768	28.0846	0.021109	0.002038	10.3583	-43.0705	13.8555	0.016952	0.591117	-0.633075	-0.634438	0.012236	10.3583	-0.633961	-2.440111E+8	-5.014556E-11	NaN
1119	1.000000	0.602472	7.376e+06	-56089.1	1055.82	-29739.7	0.000000	0.000000	6.602961	-0.088783	NaN	0.000000	0.001621	0.001727	28.0842	0.085758	0.002097	40.8903	-107.143	-168.485	0.012773	0.601204	-0.623083	-0.624350	-0.088783	40.8903	-0.621454	-1.642943E+8	5.403915E-10	NaN
1119	1.000000	0.612494	7.376e+06	-56089.1	1055.82	-29739.7	0.000000	0.000000	6.612986	-0.009602	NaN	0.000000	0.001604	0.001721	28.0844	0.083372	0.002102	39.6586	-40.3054	13.7536	-0.004210	0.611127	-0.613061	-0.614427	-0.009602	39.6586	-0.612879	-1.252347E+8	7.666863E-11	NaN
1119	1.000000	0.622486	7.376e+06	-56089.1	1055.82	-29739.7	0.000000	0.000000	6.622980	0.019224	NaN	0.000000	0.001610	0.001735	28.0845	0.081184	0.002035	39.8937	-68.1707	-165.973	0.037999	0.621171	-0.603069	-0.604383	0.019224	39.8937	-0.603430	-9.283096E+7	-2.070831E-10	NaN
1119	1.000000	0.632486	7.376e+06	-56089.1	1055.82	-29739.7	0.000000	0.000000	6.632978	-0.020147	NaN	0.000000	0.001633	0.001751	28.0847	0.120834	0.002004	60.3081	100.8	16.8953	-0.036755	0.631137	-0.593069	-0.594417	-0.020147	60.3081	-0.592818	-6.629999E+7	3.038749E-10	NaN
1119	1.000000	0.642512	7.376e+06	-56089.1	1055.82	-29739.7	0.000000	0.000000	6.643007	0.027786	NaN	0.000000	0.001638	0.001748	28.0845	0.105048	0.001940	54.1561	-9.755581	-162.358	-0.039126	0.641192	-0.583042	-0.584363	0.027786	54.1561	-0.583427	-4.920561E+7	-5.646835E-10	NaN
1119	1.000000	0.652492	7.376e+06	-56089.1	1055.82	-29739.7	0.000000	0.000000	6.652986	0.031742	NaN	0.000000	0.001686	0.001747	28.0833	0.054860	0.001991	27.5544	145.505	14.5495	-0.041070	0.651148	-0.573063	-0.574406	0.031742	27.5544	-0.573927	-3.638138E+7	-8.724895E-10	NaN
1119	1.000000	0.662505	7.376e+06	-56089.1	1055.82	-29739.7	0.000000	0.000000	6.662997	-0.021744	NaN	0.000000	0.001697	0.001737	28.0832	0.013782	0.002101	6.558763	-142.003	-163.702	0.050186	0.661181	-0.563050	-0.564373	-0.021744	6.558763	-0.560563	-2.377786E+7	9.144635E-10	NaN
1119	1.000000	0.672519	7.376e+06	-56089.1	1055.82	-29739.7	0.000000	0.000000	6.673013	0.030585	NaN	0.000000	0.001707	0.001741	28.0835	0.098283	0.001991	49.3706	-51.2444	13.2793	-0.008587	0.671094	-0.553036	-0.554460	0.030585	49.3706	-0.553500	-1.898563E+7	-1.610953E-9	NaN
1119	1.000000	0.682519	7.376e+06	-56089.1	1055.82	-29739.7	0.000000	0.000000	6.683013	0.007799	NaN	0.000000	0.001696	0.001769	28.0833	0.045846	0.002045	22.4143	-120.671	-162.336	0.025868	0.681245	-0.543035	-0.544310	0.007799	22.4143	-0.543296	-1.371080E+7	-5.688134E-10	NaN
1119	1.000000	0.692511	7.376e+06	-56089.1	1055.82	-29739.7	0.000000	0.000000	6.693003	-0.026976	NaN	0.000000	0.001717	0.001752	28.0833	0.044077	0.001981	22.25	-138.645	16.6067	-0.032479	0.691220	-0.533044	-0.534334	-0.026976	22.25	-0.532134	-9.59866e+06	2.810426E-9	NaN
1119	1.000000	0.702521	7.376e+06	-56089.1	1055.82	-29739.7	0.000000	0.000000	6.703016	0.046735	NaN	0.000000	0.001728	0.001733	28.083	0.030373	0.001990	15.2607	-123.845	-163.489	0.084113	0.701229	-0.523034	-0.524325	0.046735	15.2607	-0.525330	-7.72151e+06	-6.052540E-9	NaN
1119	1.000000	0.712539	7.376e+06	-56089.1	1055.82	-29739.7	0.000000	0.000000	6.713033	0.015966	NaN	0.000000	0.001685	0.001751	28.0832	0.052519	0.001962	26.762	-176.464	17.323	-0.027088	0.711181	-0.513016	-0.514374	0.015966	26.762	-0.513463	-5.28006e+06	-3.023744E-9	NaN
1119	1.000000	0.722544	7.376e+06	-56089.1	1055.82	-29739.7	0.000000	0.000000	6.723033	-0.093921	NaN	0.000000	0.001723	0.001752	28.083	0.094164	0.001995	47.2006	83.5009	-161.859	-0.027727	0.721209	-0.503010	-0.504345	-0.093921	47.2006	-0.501518	-3.59908e+06	2.609589E-8	NaN
1119	1.000000	0.732541	7.376e+06	-56089.1	1055.82	-29739.7	0.000000	0.000000	6.733036	0.035756	NaN	0.000000	0.001708	0.001731	28.083	0.108906	0.001926	56.5366	67.1908	14.8592	0.069485	0.731187	-0.493013	-0.494368	0.035756	56.5366	-0.493488	-2.78047e+06	-1.285958E-8	NaN
1119	1.000000	0.742529	7.376e+06	-56089.1	1055.82	-29739.7	0.000000	0.000000	6.743022	-0.000441	NaN	0.000000	0.001673	0.001721	28.0831	0.013496	0.001885	7.159110	-63.6918	-168.781	0.026537	0.741245	-0.483025	-0.484309	-0.000441	7.159110	-0.482979	-1.98253e+06	2.226335E-10	NaN
1119	1.000000	0.752546	7.376e+06	-56089.1	1055.82	-29739.7	0.000000	0.000000	6.753040	0.012304	NaN	0.000000	0.001718	0.001739	28.0832	0.075291	0.001882	39.9979	-156.921	13.1243	0.002723	0.751173	-0.473008	-0.474382	0.012304	39.9979	-0.473239	-1.44817e+06	-8.496223E-9	NaN
1119	1.000000	0.762504	7.376e+06	-56089.1	1055.82	-29739.7	0.000000	0.000000	6.762995	-0.062016	NaN	0.000000	0.001669	0.001748	28.083	0.140728	0.002142	65.7121	140.771	-164.851	-0.063389	0.761269	-0.463050	-0.464285	-0.062016	65.7121	-0.462342	-1.01842e+06	6.089429E-8	NaN
1119	1.000000	0.772505	7.376e+06	-56089.1	1055.82	-29739.7	0.000000	0.000000	6.772999	0.028709	NaN	0.000000	0.001640	0.001763	28.083	0.034712	0.002028	17.1191	171.638	15.6387	0.071402	0.771222	-0.453049	-0.454333	0.028709	17.1191	-0.454307	-785181	-3.656388E-8	NaN
1119	1.000000	0.782561	7.376e+06	-56089.1	1055.82	-29739.7	0.000000	0.000000	6.783057	0.057315	NaN	0.000000	0.001623	0.001757	28.0834	0.013883	0.001956	7.097834	135.154	-164.597	0.031857	0.781264	-0.442993	-0.444290	0.057315	7.097834	-0.449049	-662147	-8.655916E-8	NaN
1119	1.000000	0.792561	7.376e+06	-56089.1	1055.82	-29739.7	0.000000	0.000000	6.793056	0.036385	NaN	0.000000	0.001621	0.001755	28.0844	0.115823	0.002048	56.5642	-174.268	14.3147	-0.007687	0.791182	-0.432993	-0.434373	0.036385	56.5642	-0.433476	-399222	-9.113983E-8	NaN
1119	1.000000	0.802583	7.376e+06	-56089.1	1055.82	-29739.7	0.000000	0.000000	6.803074	-0.047505	NaN	0.000000	0.001622	0.001790	28.0842	0.082000	0.002109	38.8793	-113.297	-163.121	0.029935	0.801303	-0.422971	-0.424252	-0.047505	38.8793	-0.422055	-275139	1.726589E-7	NaN
1119	1.000000	0.812547	7.376e+06	-56089.1	1055.82	-29739.7	0.000000	0.000000	6.813037	-0.073616	NaN	0.000000	0.001598	0.001764	28.0844	0.078841	0.001956	40.2996	-148.98	17.3162	-0.053839	0.811225	-0.413007	-0.414330	-0.073616	40.2996	-0.411637	-195739	3.760930E-7	NaN
1119	1.000000	0.822602	7.376e+06	-56089.1	1055.82	-29739.7	0.000000	0.000000	6.823094	-0.028182	NaN	0.000000	0.001623	0.001783	28.0847	0.035328	0.002024	17.4512	149.651	-166.648	-0.017378	0.821254	-0.402953	-0.404301	-0.028182	17.4512	-0.401741	-141522	1.991381E-7	NaN
1119	1.000000	0.832590	7.376e+06	-56089.1	1055.82	-29739.7	0.000000	0.000000	6.833081	-0.048431	NaN	0.000000	0.001645	0.001785	28.0846	0.131884	0.001997	66.057	100.972	13.6154	0.012722	0.831199	-0.392965	-0.394356	-0.048431	66.057	-0.392415	-104160	4.649672E-7	NaN
1119	1.000000	0.842593	7.376e+06	-56089.1	1055.82	-29739.7	0.000000	0.000000	6.843085	-0.011619	NaN	0.000000	0.001615	0.001784	28.0845	0.066684	0.001962	33.9815	50.4168	-164.505	0.059095	0.841260	-0.382962	-0.384295	-0.011619	33.9815	-0.382705	-75630.6	1.536334E-7	NaN
1119	1.000000	0.852569	7.376e+06	-56089.1	1055.82	-29739.7	0.000000	0.000000	6.853062	0.003009	NaN	0.000000	0.001660	0.001730	28.0844	0.025163	0.002067	12.1725	-9.418909	13.6094	-0.015866	0.851194	-0.372986	-0.374361	0.003009	12.1725	-0.373171	-55179	-5.453351E-8	NaN
1119	1.000000	0.862601	7.376e+06	-56089.1	1055.82	-29739.7	0.000000	0.000000	6.863096	0.048017	NaN	0.000000	0.001635	0.001766	28.0846	0.081514	0.001953	41.7442	-125.833	-161.898	0.027972	0.861304	-0.362954	-0.364250	0.048017	41.7442	-0.363816	-40455	-1.186916E-6	NaN
1119	1.000000	0.872597	7.376e+06	-56089.1	1055.82	-29739.7	0.000000	0.000000	6.873091	0.005170	NaN	0.000000	0.001610	0.001770	28.0843	0.085135	0.002082	40.8822	9.775234	13.6671	-0.019224	0.871245	-0.352957	-0.354309	0.005170	40.8822	-0.353052	-28266.5	-1.828928E-7	NaN
1119	1.000000	0.882588	7.376e+06	-56089.1	1055.82	-29739.7	0.000000	0.000000	6.883082	0.010928	NaN	0.000000	0.001643	0.001768	28.0843	0.112161	0.001975	56.7886	-144.153	-165.535	0.059918	0.881286	-0.342966	-0.344268	0.010928	56.7886	-0.343111	-20270.5	-5.391030E-7	NaN
1119	1.000000	0.892637	7.376e+06	-56089.1	1055.82	-29739.7	0.000000	0.000000	6.893130	-0.015995	NaN	0.000000	0.001654	0.001728	28.0843	0.148462	0.001937	76.6632	26.1695	14.476	0.011268	0.891267	-0.332917	-0.334288	-0.015995	76.6632	-0.332761	-14317	1.117212E-6	NaN
1119	1.000000	0.902620	7.376e+06	-56089.1	1055.82	-29739.7	0.000000	0.000000	6.903113	-0.009954	NaN	0.000000	0.001645	0.001734	28.0846	0.012451	0.002026	6.145748	-109.015	-165.32	0.015938	0.901329	-0.322934	-0.324225	-0.009954	6.145748	-0.321720	-9861.41	1.009349E-6	NaN
1119	1.000000	0.912605	7.376e+06	-56089.1	1055.82	-29739.7	0.000000	0.000000	6.913099	0.032355	NaN	0.000000	0.001647	0.001778	28.0846	0.077562	0.002033	38.1559	-44.6211	13.4077	0.044079	0.911243	-0.312950	-0.314311	0.032355	38.1559	-0.313586	-7482.86	-4.323830E-6	NaN
1119	1.000000	0.922614	7.376e+06	-56089.1	1055.82	-29739.7	0.000000	0.000000	6.923108	0.030426	NaN	0.000000	0.001635	0.001758	28.0833	0.102861	0.001910	53.8649	-102.876	-163.157	-0.027058	0.921280	-0.302941	-0.304274	0.030426	53.8649	-0.303364	-5280.39	-5.762113E-6	NaN
1119	1.000000	0.932626	7.376e+06	-56089.1	1055.82	-29739.7	0.000000	0.000000	6.933119	0.002327	NaN	0.000000	0.001610	0.001756	28.0834	0.074710	0.001996	37.4207	-98.5411	15.6343	0.039184	0.931297	-0.292928	-0.294258	0.002327	37.4207	-0.292975	-3696.84	-6.294218E-7	NaN
1119	1.000000	0.942636	7.376e+06	-56089.1	1055.82	-29739.7	0.000000	0.000000	6.943130	0.002252	NaN	0.000000	0.001642	0.001757	28.0833	0.106948	0.001873	57.0957	-42.8928	-166.915	0.020742	0.941302	-0.282918	-0.284253	0.002252	57.0957	-0.282948	-2614.52	-8.611962E-7	NaN
1119	1.000000	0.952608	7.376e+06	-56089.1	1055.82	-29739.7	0.000000	0.000000	6.953101	-0.010263	NaN	0.000000	0.001637	0.001742	28.0833	0.025946	0.002013	12.8905	76.2077	13.1613	-0.034708	0.951269	-0.272946	-0.274285	-0.010263	12.8905	-0.272349	-1808.09	5.675908E-6	NaN
1119	1.000000	0.962639	7.376e+06	-56089.1	1055.82	-29739.7	0.000000	0.000000	6.963128	-0.096690	NaN	0.000000	0.001614	0.001778	28.0832	0.092164	0.002130	43.2613	125.044	-165.317	-0.141293	0.961376	-0.262916	-0.264178	-0.096690	43.2613	-0.261240	-1224.35	7.897288E-5	NaN
1119	1.000000	0.972616	7.376e+06	-56089.1	1055.82	-29739.7	0.000000	0.000000	6.973109	0.000202	NaN	0.000000	0.001603	0.001735	28.0834	0.092248	0.002097	43.9919	142.796	12.8389	-0.012995	0.971258	-0.252939	-0.254296	0.000202	43.9919	-0.252942	-912.872	-2.213918E-7	NaN
1119	1.000000	0.982679	7.376e+06	-56089.1	1055.82	-29739.7	0.000000	0.000000	6.983171	-0.020758	NaN	0.000000	0.001584	0.001785	28.0831	0.094621	0.002086	45.3505	-39.5524	-166.375	-0.031564	0.981320	-0.242876	-0.244235	-0.020758	45.3505	-0.242533	-629.592	3.297111E-5	NaN
1119	1.000000	0.992662	7.376e+06	-56089.1	1055.82	-29739.7	0.000000	0.000000	6.993151	-0.091968	NaN	0.000000	0.001561	0.001786	28.083	0.035997	0.002006	17.9456	-52.2503	15.2802	-0.050013	0.991273	-0.232893	-0.234281	-0.091968	17.9456	-0.229049	-386.807	0.000238	NaN
1119	1.000000	1.002616	7.376e+06	-56089.1	1055.82	-29739.7	0.000000	0.000000	7.003107	-0.036921	NaN	0.000000	0.001578	0.001770	28.0831	0.047249	0.001938	24.3787	-31.0611	-162.846	-0.034512	1.001365	-0.222939	-0.224189	-0.036921	24.3787	-0.221803	-296.797	0.000124	NaN
1119	1.000000	1.012716	7.376e+06	-56089.1	1055.82	-29739.7	0.000000	0.000000	7.013208	-0.030702	NaN	0.000000	0.001610	0.001744	28.0832	0.058415	0.002058	28.3782	-111.087	16.368	0.024994	1.011299	-0.212838	-0.214255	-0.030702	28.3782	-0.212027	-206.82	0.000148	NaN
1119	1.000000	1.022632	7.376e+06	-56089.1	1055.82	-29739.7	0.000000	0.000000	7.023125	0.014664	NaN	0.000000	0.001593	0.001726	28.0831	0.103136	0.001974	52.2422	-35.8625	-165.122	0.022966	1.021315	-0.202923	-0.204239	0.014664	52.2422	-0.203133	-148.276	-9.889864E-5	NaN
1119	1.000000	1.032651	7.376e+06	-56089.1	1055.82	-29739.7	0.000000	0.000000	7.033143	-0.041135	NaN	0.000000	0.001585	0.001748	28.0831	0.033835	0.001920	17.6241	-67.7254	14.0407	-0.073081	1.031302	-0.192903	-0.194252	-0.041135	17.6241	-0.191153	-94.0294	0.000437	NaN
1119	1.000000	1.042641	7.376e+06	-56089.1	1055.82	-29739.7	0.000000	0.000000	7.043134	-0.004943	NaN	0.000000	0.001592	0.001769	28.0835	0.039278	0.002010	19.5458	-179.364	-165.053	0.051841	1.041343	-0.182913	-0.184211	-0.004943	19.5458	-0.182724	-67.8713	7.282468E-5	NaN
1119	1.000000	1.052683	7.376e+06	-56089.1	1055.82	-29739.7	0.000000	0.000000	7.053177	0.013473	NaN	0.000000	0.001584	0.001775	28.083	0.006930	0.002075	3.340167	159.66	14.5612	0.023612	1.051275	-0.172871	-0.174280	0.013473	3.340167	-0.175897	-51.9245	-0.000259	NaN
1119	1.000000	1.062681	7.376e+06	-56089.1	1055.82	-29739.7	0.000000	0.000000	7.063174	-0.012225	NaN	0.000000	0.001615	0.001767	28.085	0.039595	0.001995	19.8479	28.1671	-163.403	-0.017622	1.061366	-0.162873	-0.164188	-0.012225	19.8479	-0.162411	-30.2487	0.000404	NaN
1119	1.000000	1.072672	7.376e+06	-56089.1	1055.82	-29739.7	0.000000	0.000000	7.073166	0.026821	NaN	0.000000	0.001633	0.001779	28.0842	0.115297	0.001946	59.242	53.5545	12.9207	0.022266	1.071271	-0.152882	-0.154284	0.026821	59.242	-0.153222	-20.7256	-0.001294	NaN
1119	1.000000	1.082669	7.376e+06	-56089.1	1055.82	-29739.7	0.000000	0.000000	7.083162	-0.008028	NaN	0.000000	0.001665	0.001758	28.0846	0.092701	0.002028	45.7171	158.896	-168.759	-0.045768	1.081423	-0.142886	-0.144132	-0.008028	45.7171	-0.142754	-13.3192	0.000603	NaN
1119	1.000000	1.092685	7.376e+06	-56089.1	1055.82	-29739.7	0.000000	0.000000	7.093176	-0.031358	NaN	0.000000	0.001646	0.001777	28.0843	0.065390	0.001922	34.0196	-61.6419	14.879	-0.080466	1.091319	-0.132870	-0.134235	-0.031358	34.0196	-0.132179	-8.397803	0.003734	NaN
1119	1.000000	1.102694	7.376e+06	-56089.1	1055.82	-29739.7	0.000000	0.000000	7.103189	0.037053	NaN	0.000000	0.001631	0.001749	28.0844	0.060767	0.002169	28.0188	49.9786	-161.89	0.036047	1.101390	-0.122860	-0.124165	0.037053	28.0188	-0.123852	-5.770715	-0.006421	NaN
1119	1.000000	1.112698	7.376e+06	-56089.1	1055.82	-29739.7	0.000000	0.000000	7.113187	-0.101531	NaN	0.000000	0.001618	0.001781	28.085	0.113023	0.001957	57.7638	-148.126	17.4555	-0.030958	1.111322	-0.112856	-0.114233	-0.101531	57.7638	-0.111538	-3.237306	0.031363	NaN
1119	1.000000	1.122697	7.376e+06	-56089.1	1055.82	-29739.7	0.000000	0.000000	7.123189	-0.032312	NaN	0.000000	0.001673	0.001807	28.0846	0.136882	0.001988	68.8534	-149.731	-165.615	-0.040290	1.121388	-0.102857	-0.104167	-0.032312	68.8534	-0.102505	-2.074656	0.015575	NaN
1119	1.000000	1.132713	7.376e+06	-56089.1	1055.82	-29739.7	0.000000	0.000000	7.133204	-0.049958	NaN	0.000000	0.001604	0.001760	28.0842	0.073928	0.001958	37.7509	174.952	16.2368	0.018945	1.131335	-0.092842	-0.094220	-0.049958	37.7509	-0.091849	-1.193905	0.041844	NaN
1119	1.000000	1.142709	7.376e+06	-56089.1	1055.82	-29739.7	0.000000	0.000000	7.143200	-0.056901	NaN	0.000000	0.001658	0.001767	28.0843	0.063110	0.002033	31.0401	-143.562	-166.281	-0.008791	1.141374	-0.082845	-0.084181	-0.056901	31.0401	-0.081470	-0.673403	0.084497	NaN
1119	1.000000	1.152740	7.376e+06	-56089.1	1055.82	-29739.7	0.000000	0.000000	7.153229	-0.105128	NaN	0.000000	0.001630	0.001777	28.0842	0.043821	0.002090	20.971	-139.805	12.8731	-0.024696	1.151353	-0.072814	-0.074201	-0.105128	20.971	-0.069055	-0.321721	0.326769	NaN
1119	1.000000	1.162712	7.376e+06	-56089.1	1055.82	-29739.7	0.000000	0.000000	7.163201	-0.109049	NaN	0.000000	0.001624	0.001797	28.0846	0.045620	0.002036	22.4061	98.15	-166.456	-0.016720	1.161416	-0.062842	-0.064138	-0.109049	22.4061	-0.059192	-0.170711	0.638794	NaN
1119	1.000000	1.172730	7.376e+06	-56089.1	1055.82	-29739.7	0.000000	0.000000	7.173222	-0.020810	NaN	0.000000	0.001675	0.001746	28.0843	0.019609	0.001906	10.2866	-79.0634	15.6577	0.046942	1.171372	-0.052825	-0.054182	-0.020810	10.2866	-0.051307	-0.099925	0.208260	NaN
1119	1.000000	1.182716	7.376e+06	-56089.1	1055.82	-29739.7	0.000000	0.000000	7.183208	-0.029921	NaN	0.000000	0.001675	0.001737	28.0843	0.046194	0.002036	22.6918	14.3433	-161.272	-0.055189	1.181419	-0.042839	-0.044135	-0.029921	22.6918	-0.041850	-0.051486	0.581151	NaN
1119	1.000000	1.192712	7.376e+06	-56089.1	1055.82	-29739.7	0.000000	0.000000	7.193202	-0.064984	NaN	0.000000	0.001629	0.001790	28.0837	0.101207	0.002015	50.2281	-125.035	14.714	-0.134950	1.191331	-0.032842	-0.034223	-0.064984	50.2281	-0.031872	-0.025987	2.500632	NaN
1119	1.000000	1.202721	7.376e+06	-56089.1	1055.82	-29739.7	0.000000	0.000000	7.203214	0.002428	NaN	0.000000	0.001647	0.001767	28.0832	0.068841	0.002120	32.4781	-56.5123	-164.933	0.018933	1.201444	-0.022834	-0.024110	0.002428	32.4781	-0.022890	-0.014880	-0.163155	NaN
1119	1.000000	1.212730	7.376e+06	-56089.1	1055.82	-29739.7	0.000000	0.000000	7.213222	-0.025085	NaN	0.000000	0.001655	0.001756	28.0831	0.031126	0.001977	15.7428	43.3761	15.811	-0.006643	1.211361	-0.012825	-0.014194	-0.025085	15.7428	-0.011629	-0.007317	3.428352	NaN
1119	1.000000	1.222752	7.376e+06	-56089.1	1055.82	-29739.7	0.000000	0.000000	7.223259	0.338684	NaN	0.000000	0.001641	0.001731	28.0833	0.395385	0.001967	200.967	8.111123	-163.697	0.259902	1.221436	-0.002802	-0.004119	0.338684	200.967	-0.004066	-0.002822	-120.033	NaN
1119	2.000000	1.232438	7.376e+06	-56089.1	1055.82	-29739.7	0.000000	0.000000	7.233283	8.534954	NaN	0.000000	0.001649	0.001794	28.0835	8.684675	0.001695	5124.74	11.918	7.668794	7.223522	1.231363	0.006884	0.005808	8.534954	5124.74	0.005635	0.004720	1808.21	68150.4
1119	2.000000	1.235251	7.376e+06	-56089.1	1055.82	-29739.7	0.000000	0.000000	7.236250	12.2875	NaN	0.000000	0.001629	0.001769	28.0833	12.0532	0.001768	6818.42	7.993781	-173.637	12.0803	1.234971	0.009697	0.009417	12.2875	6818.42	0.008345	0.007400	1660.49	72417.4
1119	2.000000	1.237792	7.376e+06	-56089.1	1055.82	-29739.7	0.000000	0.000000	7.238964	16.5011	NaN	0.000000	0.001619	0.001758	28.0834	14.64	0.001765	8296.55	7.394253	5.770433	15.9515	1.237367	0.012238	0.011813	16.5011	8296.55	0.010746	0.010023	1646.41	75715.1
1119	2.000000	1.240256	7.376e+06	-56089.1	1055.82	-29739.7	0.000000	0.000000	7.241566	19.8623	NaN	0.000000	0.001596	0.001793	28.0837	16.3915	0.001704	9619.04	2.678293	-171.27	19.7718	1.239974	0.014701	0.014419	19.8623	9619.04	0.013153	0.012900	1539.66	77375.4
1119	2.000000	1.242714	7.376e+06	-56089.1	1055.82	-29739.7	0.000000	0.000000	7.244221	24.6435	NaN	0.000000	0.001628	0.001722	28.0837	19.7431	0.001816	10871.8	9.474358	0.619475	23.3714	1.242390	0.017160	0.016835	24.6435	10871.8	0.015460	0.015903	1549.61	78764.9
1119	2.000000	1.245239	7.376e+06	-56089.1	1055.82	-29739.7	0.000000	0.000000	7.247016	31.2025	NaN	0.000000	0.001613	0.001725	28.0834	22.2535	0.001837	12112.6	7.696818	-178.498	30.8843	1.244874	0.019684	0.019320	31.2025	12112.6	0.017752	0.019133	1630.84	80006
1119	2.000000	1.247720	7.376e+06	-56089.1	1055.82	-29739.7	0.000000	0.000000	7.249742	37.1559	NaN	0.000000	0.001606	0.001745	28.0836	24.1587	0.001815	13312.4	5.310710	3.761612	34.4122	1.247367	0.022166	0.021813	37.1559	13312.4	0.020073	0.022656	1639.97	80804.4
1119	2.000000	1.250195	7.376e+06	-56089.1	1055.82	-29739.7	0.000000	0.000000	7.252477	43.4855	NaN	0.000000	0.001623	0.001756	28.0836	27.04	0.001849	14627.3	6.143836	-178.496	42.7521	1.249842	0.024640	0.024287	43.4855	14627.3	0.022411	0.026473	1642.63	82136.5
1119	2.000000	1.252715	7.376e+06	-56089.1	1055.82	-29739.7	0.000000	0.000000	7.255244	49.4723	NaN	0.000000	0.001607	0.001728	28.0843	29.3952	0.001736	16933.3	7.007564	-0.945458	49.8154	1.252385	0.027161	0.026830	49.4723	16933.3	0.024970	0.030960	1597.92	87924.8
1119	2.000000	1.255186	7.376e+06	-56089.1	1055.82	-29739.7	0.000000	0.000000	7.258062	57.9239	NaN	0.000000	0.001648	0.001758	28.0837	31.788	0.001869	17006	4.384343	-177.634	57.5144	1.254919	0.029632	0.029365	57.9239	17006	0.027077	0.034903	1659.58	83166
1119	2.000000	1.257641	7.376e+06	-56089.1	1055.82	-29739.7	0.000000	0.000000	7.260867	66.437	NaN	0.000000	0.001651	0.001777	28.085	32.9431	0.001692	19468.4	4.173584	0.292389	63.4111	1.257342	0.032086	0.031787	66.437	19468.4	0.029527	0.039769	1670.57	89192.9
1119	2.000000	1.260158	7.376e+06	-56089.1	1055.82	-29739.7	0.000000	0.000000	7.263567	70.8673	NaN	0.000000	0.001643	0.001747	28.085	36.1864	0.001753	20645.1	7.267221	176.163	69.8101	1.259849	0.034604	0.034295	70.8673	20645.1	0.032029	0.045055	1572.91	88862.7
1119	2.000000	1.262631	7.376e+06	-56089.1	1055.82	-29739.7	0.000000	0.000000	7.266489	81.8068	NaN	0.000000	0.001610	0.001742	28.0851	39.4669	0.001803	21891.8	4.260541	-0.414013	78.5725	1.262248	0.037076	0.036694	81.8068	21891.8	0.034274	0.050068	1633.91	89386.7
1119	2.000000	1.265184	7.376e+06	-56089.1	1055.82	-29739.7	0.000000	0.000000	7.269177	85.0671	NaN	0.000000	0.001602	0.001737	28.0848	42.2434	0.001791	23584	1.901994	-179.206	85.0502	1.264906	0.039629	0.039352	85.0671	23584	0.036924	0.056321	1510.39	90793.3
1119	2.000000	1.267674	7.376e+06	-56089.1	1055.82	-29739.7	0.000000	0.000000	7.272098	95.5474	NaN	0.000000	0.001642	0.001736	28.0854	44.2374	0.001808	24468	5.317542	-1.742363	95.0011	1.267357	0.042120	0.041802	95.5474	24468	0.039191	0.061954	1542.22	89812.1
1119	2.000000	1.270193	7.376e+06	-56089.1	1055.82	-29739.7	0.000000	0.000000	7.275062	106.35	NaN	0.000000	0.001635	0.001735	28.085	46.1311	0.001748	26386.1	4.400541	177.534	106.841	1.269924	0.044639	0.044370	106.35	26386.1	0.041616	0.068271	1557.75	92263.3
1119	2.000000	1.272650	7.376e+06	-56089.1	1055.82	-29739.7	0.000000	0.000000	7.277989	117.791	NaN	0.000000	0.001658	0.001748	28.0851	49.0251	0.001778	27573	3.539836	-1.334771	116.287	1.272322	0.047095	0.046767	117.791	27573	0.043891	0.074471	1581.71	92313.5
1119	2.000000	1.275096	7.376e+06	-56089.1	1055.82	-29739.7	0.000000	0.000000	7.280944	130.167	NaN	0.000000	0.001659	0.001751	28.085	52.2917	0.001877	27857.1	4.262693	177.806	126.42	1.274758	0.049541	0.049204	130.167	27857.1	0.046037	0.080557	1615.83	89671.9
1119	2.000000	1.277605	7.376e+06	-56089.1	1055.82	-29739.7	0.000000	0.000000	7.283838	139.52	NaN	0.000000	0.001636	0.001726	28.0856	53.5776	0.001676	31958.5	5.142294	-3.725179	136.381	1.277285	0.052051	0.051730	139.52	31958.5	0.048777	0.088669	1573.49	98055.8
1119	2.000000	1.280179	7.376e+06	-56089.1	1055.82	-29739.7	0.000000	0.000000	7.286850	150.148	NaN	0.000000	0.001632	0.001742	28.085	55.251	0.001680	32895.6	0.890906	179.886	152.387	1.279792	0.054625	0.054237	150.148	32895.6	0.051202	0.096163	1561.39	96918.6
1119	2.000000	1.282652	7.376e+06	-56089.1	1055.82	-29739.7	0.000000	0.000000	7.289800	161.756	NaN	0.000000	0.001622	0.001739	28.0852	59.2317	0.001759	33676.4	3.229644	-2.446967	160.418	1.282213	0.057098	0.056658	161.756	33676.4	0.053495	0.103522	1562.53	95627.2
1119	2.000000	1.285129	7.376e+06	-56089.1	1055.82	-29739.7	0.000000	0.000000	7.292841	175.461	NaN	0.000000	0.001671	0.001739	28.085	63.1422	0.001729	36515.6	5.268580	174.259	174.094	1.284819	0.059575	0.059264	175.461	36515.6	0.055971	0.111759	1570	99795.3
1119	2.000000	1.287581	7.376e+06	-56089.1	1055.82	-29739.7	0.000000	0.000000	7.295949	191.412	NaN	0.000000	0.001640	0.001740	28.0851	64.9525	0.001701	38191.3	6.948054	-7.218616	184.834	1.287192	0.062026	0.061637	191.412	38191.3	0.058267	0.119669	1599.51	100866
1119	2.000000	1.290088	7.376e+06	-56089.1	1055.82	-29739.7	0.000000	0.000000	7.299102	207.102	NaN	0.000000	0.001656	0.001713	28.0851	67.4497	0.001685	40027	5.839043	173.387	204.599	1.289738	0.064534	0.064183	207.102	40027	0.060653	0.128162	1615.95	102152
1119	2.000000	1.292687	7.376e+06	-56089.1	1055.82	-29739.7	0.000000	0.000000	7.302241	220.242	NaN	0.000000	0.001646	0.001749	28.0837	72.9496	0.001906	38280.7	8.718884	-9.516487	222.744	1.292318	0.067132	0.066764	220.242	38280.7	0.062817	0.136104	1618.19	94801.9
1119	2.000000	1.295148	7.376e+06	-56089.1	1055.82	-29739.7	0.000000	0.000000	7.305258	233.772	NaN	0.000000	0.001642	0.001760	28.0835	74.0364	0.001771	41793.2	4.517402	173.831	232.939	1.294938	0.069593	0.069384	233.772	41793.2	0.065398	0.145873	1602.57	99975.2
1119	2.000000	1.297686	7.376e+06	-56089.1	1055.82	-29739.7	0.000000	0.000000	7.308754	257.064	NaN	0.000000	0.001671	0.001744	28.0836	76.1216	0.001705	44658.8	7.850777	-9.238084	256.908	1.297267	0.072131	0.071712	257.064	44658.8	0.067814	0.155309	1655.18	103534
1119	2.000000	1.300130	7.376e+06	-56089.1	1055.82	-29739.7	0.000000	0.000000	7.312166	280.587	NaN	0.000000	0.001696	0.001761	28.0836	78.3754	0.001810	43307.4	3.646798	175.057	281.007	1.299797	0.074575	0.074242	280.587	43307.4	0.069716	0.162935	1722.08	98022.9
1119	2.000000	1.302637	7.376e+06	-56089.1	1055.82	-29739.7	0.000000	0.000000	7.315517	301.09	NaN	0.000000	0.001713	0.001731	28.0838	81.8187	0.001736	47126	4.739210	-7.159848	297.46	1.302179	0.077083	0.076625	301.09	47126	0.072291	0.173532	1735.07	103358
1119	2.000000	1.305108	7.376e+06	-56089.1	1055.82	-29739.7	0.000000	0.000000	7.318847	321.971	NaN	0.000000	0.001699	0.001760	28.0834	85.6457	0.001755	48801.2	6.954964	170.475	322.192	1.304737	0.079553	0.079182	321.971	48801.2	0.074605	0.183323	1756.3	104135
1119	2.000000	1.307562	7.376e+06	-56089.1	1055.82	-29739.7	0.000000	0.000000	7.322316	346.642	NaN	0.000000	0.001728	0.001748	28.0839	87.5227	0.001801	48598.4	7.097694	-8.825071	338.829	1.307138	0.082008	0.081584	346.642	48598.4	0.076658	0.192221	1803.35	101273
1119	2.000000	1.310091	7.376e+06	-56089.1	1055.82	-29739.7	0.000000	0.000000	7.325810	370.114	NaN	0.000000	0.001735	0.001782	28.0835	88.9065	0.001701	52275	3.489791	174.104	368.729	1.309680	0.084536	0.084126	370.114	52275	0.079226	0.203631	1817.57	105839
1119	2.000000	1.312543	7.376e+06	-56089.1	1055.82	-29739.7	0.000000	0.000000	7.329136	391.341	NaN	0.000000	0.001707	0.001783	28.0841	90.9444	0.001660	54789.4	3.623722	-6.483230	385.793	1.312196	0.086989	0.086642	391.341	54789.4	0.081632	0.214596	1823.61	108058
1119	2.000000	1.315070	7.376e+06	-56089.1	1055.82	-29739.7	0.000000	0.000000	7.332550	412.887	NaN	0.000000	0.001644	0.001762	28.0834	96.3047	0.001834	52519	5.413478	171.606	409.477	1.314870	0.089516	0.089315	412.887	52519	0.083620	0.223861	1844.39	101415
1119	2.000000	1.317576	7.376e+06	-56089.1	1055.82	-29739.7	0.000000	0.000000	7.336387	445.251	NaN	0.000000	0.001711	0.001748	28.084	96.9926	0.001783	54408.2	2.613357	-4.963415	439.389	1.317112	0.092021	0.091558	445.251	54408.2	0.085884	0.234636	1897.63	102622
1119	2.000000	1.319939	7.376e+06	-56089.1	1055.82	-29739.7	0.000000	0.000000	7.339402	461.087	NaN	0.000000	0.001643	0.001751	28.0834	100.762	0.001812	55595.3	4.939725	171.806	455.399	1.319642	0.094385	0.094088	461.087	55595.3	0.088165	0.245729	1876.4	102467
1119	2.000000	1.322575	7.376e+06	-56089.1	1055.82	-29739.7	0.000000	0.000000	7.342880	481.583	NaN	0.000000	0.001647	0.001768	28.0836	104.677	0.001741	60135.6	5.247377	-9.012019	478.704	1.322327	0.097020	0.096773	481.583	60135.6	0.091014	0.259925	1852.78	107766
1119	2.000000	1.325184	7.376e+06	-56089.1	1055.82	-29739.7	0.000000	0.000000	7.346228	499.535	NaN	0.000000	0.001650	0.001751	28.0844	107.756	0.001796	59991.3	3.036224	172.983	500.925	1.324975	0.099630	0.099421	499.535	59991.3	0.093385	0.272017	1836.41	105091
1119	2.000000	1.327735	7.376e+06	-56089.1	1055.82	-29739.7	0.000000	0.000000	7.350005	529.337	NaN	0.000000	0.001645	0.001766	28.0851	109.756	0.001861	58978.7	5.177476	-8.812688	533.053	1.327361	0.102180	0.101807	529.337	58978.7	0.095449	0.282756	1872.06	101336
1119	2.000000	1.329996	7.376e+06	-56089.1	1055.82	-29739.7	0.000000	0.000000	7.353983	571.077	NaN	0.000000	0.001647	0.001752	28.0847	111.23	0.001678	66287.2	8.400148	167.456	566.255	1.329606	0.104442	0.104052	571.077	66287.2	0.097980	0.296190	1928.08	111280
1119	2.000000	1.331078	7.376e+06	-56089.1	1055.82	-29739.7	0.000000	0.000000	7.355193	574.165	NaN	0.000000	0.001646	0.001772	28.085	112.406	0.001851	60742.8	2.019385	174.34	571.569	1.330835	0.105524	0.105280	574.165	60742.8	0.098435	0.298632	1922.65	101555