File: remote_trans/data/nanoindenter/0828-1/data/Data_2025-08-06,11h17m57s/2025-07-22_16-23-58_1_259.txt
2025-07-22, 16:23:58, 1
Index	Phase	Displacement	Time	Pos X	Pos Y	Pos Z	Rot A	Rot B	Piezo Z	Force A	Force B	Gripper	Voltage A	Voltage B	Temperature	Amplitude force	Amplitude pos	Stiffness	Phase shift	Phase excitation	Force A raw	Displacement raw	HMax	HMax raw	Real Force	Real Stiffness	Contact Depth	Area	Hardness	Reduced Mod.
[#]	[#]	[um]	[s]	[um]	[um]	[um]	[m°]	[m°]	[um]	[uN]	[uN]	[V]	[V]	[V]	[°C]	[uN]	[um]	[N/m]	[°]	[°]	[uN]	[um]	[um]	[um]	[uN]	[N/m]	[um]	[um^2]	[MPa]	[MPa]
259	1.000000	0.002406	7.36759e+06	-51589.1	955.818	-29752	0.000000	0.000000	6.002800	0.020205	NaN	0.000000	0.001619	0.001661	28.0789	0.082932	0.000906	91.5836	42.8183	-174.94	0.014942	0.001172	-1.154486	-1.155720	0.020205	91.5836	-1.154652	-2.711301E+15	-7.452132E-18	NaN
259	1.000000	0.012438	7.36759e+06	-51589.1	955.819	-29752	0.000000	0.000000	6.012834	0.057063	NaN	0.000000	0.001588	0.001610	28.0788	0.087140	0.001183	73.6894	155.227	16.676	0.096606	0.011021	-1.144454	-1.145872	0.057063	73.6894	-1.145035	-2.014881E+15	-2.832073E-17	NaN
259	1.000000	0.022317	7.36759e+06	-51589.1	955.817	-29752	0.000000	0.000000	6.022712	0.054885	NaN	0.000000	0.001574	0.001633	28.0776	0.041501	0.001725	24.0577	-97.4702	-171.7	0.007947	0.021004	-1.134576	-1.135889	0.054885	24.0577	-1.136287	-1.537958E+15	-3.568718E-17	NaN
259	1.000000	0.032374	7.36759e+06	-51589.1	955.819	-29752	0.000000	0.000000	6.032768	0.024464	NaN	0.000000	0.001557	0.001643	28.077	0.074223	0.001907	38.9168	70.1584	14.0917	0.064758	0.030986	-1.124519	-1.125906	0.024464	38.9168	-1.124990	-1.084969E+15	-2.254795E-17	NaN
259	1.000000	0.042351	7.36759e+06	-51589.1	955.82	-29752	0.000000	0.000000	6.042746	0.067499	NaN	0.000000	0.001556	0.001667	28.0777	0.046973	0.001974	23.8008	-32.1899	-165.53	0.028712	0.041050	-1.114542	-1.115842	0.067499	23.8008	-1.116669	-8.390307E+14	-8.044838E-17	NaN
259	1.000000	0.052365	7.36759e+06	-51589.1	955.819	-29752	0.000000	0.000000	6.052758	0.020401	NaN	0.000000	0.001589	0.001649	28.0776	0.051180	0.002001	25.5739	-82.5196	14.9985	0.020921	0.051030	-1.104528	-1.105862	0.020401	25.5739	-1.105126	-5.873190E+14	-3.473636E-17	NaN
259	1.000000	0.062374	7.36759e+06	-51589.1	955.818	-29752	0.000000	0.000000	6.062769	0.063198	NaN	0.000000	0.001582	0.001655	28.0777	0.062334	0.002092	29.8025	19.0246	-165.542	0.026458	0.061063	-1.094518	-1.095830	0.063198	29.8025	-1.096109	-4.444583E+14	-1.421902E-16	NaN
259	1.000000	0.072363	7.36759e+06	-51589.1	955.82	-29752	0.000000	0.000000	6.072759	0.089637	NaN	0.000000	0.001575	0.001686	28.0777	0.018559	0.001980	9.371699	116.081	14.566	0.016065	0.071022	-1.084530	-1.085871	0.089637	9.371699	-1.091703	-3.878633E+14	-2.311056E-16	NaN
259	1.000000	0.082341	7.36759e+06	-51589.1	955.819	-29752	0.000000	0.000000	6.082733	-0.026151	NaN	0.000000	0.001627	0.001649	28.0778	0.041460	0.001992	20.8094	102.564	-170.203	-0.011544	0.081056	-1.074552	-1.075836	-0.026151	20.8094	-1.073609	-2.216527E+14	1.179821E-16	NaN
259	1.000000	0.092364	7.36759e+06	-51589.1	955.818	-29752	0.000000	0.000000	6.092757	0.011801	NaN	0.000000	0.001604	0.001666	28.0775	0.032359	0.001917	16.8837	171.88	16.0653	0.063832	0.091000	-1.064528	-1.065892	0.011801	16.8837	-1.065053	-1.701046E+14	-6.937716E-17	NaN
259	1.000000	0.102363	7.36759e+06	-51589.1	955.818	-29752	0.000000	0.000000	6.102759	0.074376	NaN	0.000000	0.001583	0.001648	28.0773	0.156406	0.001963	79.6725	-144.576	-165.112	0.009350	0.101028	-1.054529	-1.055864	0.074376	79.6725	-1.055230	-1.255186E+14	-5.925487E-16	NaN
259	1.000000	0.112397	7.36759e+06	-51589.1	955.818	-29752	0.000000	0.000000	6.112791	0.014085	NaN	0.000000	0.001570	0.001654	28.0779	0.105431	0.002103	50.1416	-135.36	13.2868	0.023729	0.110997	-1.044495	-1.045895	0.014085	50.1416	-1.044706	-9.062367E+13	-1.554204E-16	NaN
259	1.000000	0.122393	7.36759e+06	-51589.1	955.818	-29752	0.000000	0.000000	6.122787	0.031973	NaN	0.000000	0.001587	0.001663	28.0777	0.137347	0.001976	69.5221	103.403	-168.358	0.017793	0.121071	-1.034499	-1.035822	0.031973	69.5221	-1.034844	-6.677823E+13	-4.787888E-16	NaN
259	1.000000	0.132407	7.36759e+06	-51589.1	955.818	-29752	0.000000	0.000000	6.132803	0.078673	NaN	0.000000	0.001588	0.001673	28.0775	0.067554	0.002092	32.2845	138.074	12.0471	0.056180	0.131029	-1.024486	-1.025864	0.078673	32.2845	-1.026313	-5.127288E+13	-1.534405E-15	NaN
259	1.000000	0.142385	7.36759e+06	-51589.1	955.818	-29752	0.000000	0.000000	6.142780	0.055895	NaN	0.000000	0.001574	0.001707	28.0771	0.057145	0.002129	26.8465	-108.791	-164.807	0.085227	0.141100	-1.014508	-1.015793	0.055895	26.8465	-1.016069	-3.733047E+13	-1.497296E-15	NaN
259	1.000000	0.152383	7.36759e+06	-51589.1	955.818	-29752	0.000000	0.000000	6.152778	0.061418	NaN	0.000000	0.001601	0.001674	28.0778	0.045996	0.002000	23.0034	-179.049	14.0507	0.037368	0.151006	-1.004509	-1.005887	0.061418	23.0034	-1.006512	-2.776082E+13	-2.212385E-15	NaN
259	1.000000	0.162419	7.36759e+06	-51589.1	955.819	-29752	0.000000	0.000000	6.162813	0.032523	NaN	0.000000	0.001601	0.001623	28.0785	0.053252	0.002116	25.1664	-171.551	-167.524	0.068181	0.161076	-0.994473	-0.995816	0.032523	25.1664	-0.995443	-1.969731E+13	-1.651133E-15	NaN
259	1.000000	0.172397	7.36759e+06	-51589.1	955.819	-29752	0.000000	0.000000	6.172789	-0.004345	NaN	0.000000	0.001587	0.001664	28.0786	0.132416	0.001977	66.9732	74.4733	18.7382	0.042296	0.171067	-0.984496	-0.985826	-0.004345	66.9732	-0.984447	-1.400608E+13	3.102326E-16	NaN
259	1.000000	0.182416	7.36759e+06	-51589.1	955.819	-29752	0.000000	0.000000	6.182810	0.027591	NaN	0.000000	0.001595	0.001638	28.0785	0.136852	0.002046	66.8901	47.6888	-164.536	0.057972	0.181077	-0.974476	-0.975815	0.027591	66.8901	-0.974786	-1.037899E+13	-2.658355E-15	NaN
259	1.000000	0.192403	7.36759e+06	-51589.1	955.818	-29752	0.000000	0.000000	6.192799	0.062501	NaN	0.000000	0.001599	0.001700	28.0788	0.066696	0.001940	34.3771	173.565	13.7963	0.064339	0.191082	-0.964489	-0.965810	0.062501	34.3771	-0.965853	-7.866186E+12	-7.945469E-15	NaN
259	1.000000	0.202410	7.36759e+06	-51589.1	955.818	-29752	0.000000	0.000000	6.202803	0.016131	NaN	0.000000	0.001579	0.001670	28.0784	0.077876	0.001934	40.2563	48.4039	-166.999	0.010801	0.201078	-0.954483	-0.955815	0.016131	40.2563	-0.954783	-5.578678E+12	-2.891481E-15	NaN
259	1.000000	0.212422	7.36759e+06	-51589.1	955.819	-29752	0.000000	0.000000	6.212816	0.030698	NaN	0.000000	0.001602	0.001670	28.0782	0.012175	0.002047	5.947815	2.532040	14.169	0.048396	0.211066	-0.944470	-0.945827	0.030698	5.947815	-0.948341	-4.567247E+12	-6.721333E-15	NaN
259	1.000000	0.222440	7.36759e+06	-51589.1	955.818	-29752	0.000000	0.000000	6.222837	0.103276	NaN	0.000000	0.001571	0.001698	28.0782	0.033646	0.002099	16.0285	130.353	-165.96	-0.008163	0.221159	-0.934453	-0.935733	0.103276	16.0285	-0.939285	-3.447388E+12	-2.995762E-14	NaN
259	1.000000	0.232432	7.36759e+06	-51589.1	955.818	-29752	0.000000	0.000000	6.232827	0.071155	NaN	0.000000	0.001609	0.001691	28.0785	0.038244	0.002056	18.6039	-80.229	11.571	0.125551	0.231027	-0.924461	-0.925866	0.071155	18.6039	-0.927329	-2.377656E+12	-2.992642E-14	NaN
259	1.000000	0.242450	7.36759e+06	-51589.1	955.818	-29752	0.000000	0.000000	6.242845	0.043496	NaN	0.000000	0.001636	0.001667	28.0782	0.093473	0.001886	49.5683	43.4969	-165.33	-0.008867	0.241125	-0.914442	-0.915768	0.043496	49.5683	-0.915100	-1.625713E+12	-2.675520E-14	NaN
259	1.000000	0.252431	7.36759e+06	-51589.1	955.818	-29752	0.000000	0.000000	6.252824	-0.005464	NaN	0.000000	0.001639	0.001699	28.0784	0.057762	0.001995	28.9476	-33.873	13.9916	-0.005265	0.251153	-0.904461	-0.905740	-0.005464	28.9476	-0.904320	-1.162598E+12	4.699884E-15	NaN
259	1.000000	0.262443	7.36759e+06	-51589.1	955.818	-29752	0.000000	0.000000	6.262837	0.012819	NaN	0.000000	0.001636	0.001675	28.0783	0.132599	0.001918	69.1302	-98.9027	-164.133	0.081744	0.261079	-0.894449	-0.895814	0.012819	69.1302	-0.894588	-8.588765E+11	-1.492507E-14	NaN
259	1.000000	0.272461	7.36759e+06	-51589.1	955.818	-29752	0.000000	0.000000	6.272855	0.043456	NaN	0.000000	0.001629	0.001674	28.0785	0.104175	0.002055	50.6942	-14.9508	12.4777	0.092339	0.271105	-0.884432	-0.885787	0.043456	50.6942	-0.885075	-6.387497E+11	-6.803368E-14	NaN
259	1.000000	0.282448	7.36759e+06	-51589.1	955.818	-29752	0.000000	0.000000	6.282842	0.029282	NaN	0.000000	0.001560	0.001702	28.0783	0.126422	0.001994	63.416	100.783	-166.786	0.040456	0.281134	-0.874445	-0.875758	0.029282	63.416	-0.874791	-4.637206E+11	-6.314683E-14	NaN
259	1.000000	0.292479	7.36759e+06	-51589.1	955.818	-29752	0.000000	0.000000	6.292871	-0.023951	NaN	0.000000	0.001585	0.001653	28.0778	0.080296	0.001978	40.5855	-63.9323	12.4218	0.031859	0.291111	-0.864413	-0.865782	-0.023951	40.5855	-0.863971	-3.310264E+11	7.235403E-14	NaN
259	1.000000	0.302454	7.36759e+06	-51589.1	955.819	-29752	0.000000	0.000000	6.302846	-0.012979	NaN	0.000000	0.001564	0.001666	28.0771	0.087086	0.001955	44.5493	-15.6123	-169.996	0.034924	0.301184	-0.854439	-0.855708	-0.012979	44.5493	-0.854220	-2.442757E+11	5.313345E-14	NaN
259	1.000000	0.312473	7.36759e+06	-51589.1	955.817	-29752	0.000000	0.000000	6.312867	0.024568	NaN	0.000000	0.001609	0.001680	28.0772	0.027270	0.001997	13.6547	20.4267	12.4515	0.004468	0.311088	-0.844420	-0.845804	0.024568	13.6547	-0.845769	-1.876893E+11	-1.308977E-13	NaN
259	1.000000	0.322437	7.36759e+06	-51589.1	955.818	-29752	0.000000	0.000000	6.322830	0.014040	NaN	0.000000	0.001570	0.001667	28.077	0.132686	0.002076	63.9055	-42.2555	-167.608	0.021503	0.321184	-0.834456	-0.835708	0.014040	63.9055	-0.834620	-1.325571E+11	-1.059155E-13	NaN
259	1.000000	0.332460	7.36759e+06	-51589.1	955.819	-29752	0.000000	0.000000	6.332853	0.001233	NaN	0.000000	0.001559	0.001639	28.0773	0.113378	0.002107	53.8211	20.061	14.6216	-0.038855	0.331126	-0.824432	-0.825767	0.001233	53.8211	-0.824449	-9.650329E+10	-1.278132E-14	NaN
259	1.000000	0.342473	7.36759e+06	-51589.1	955.819	-29752	0.000000	0.000000	6.342869	0.064391	NaN	0.000000	0.001581	0.001654	28.0771	0.127766	0.002111	60.5095	-161.674	-166.382	0.057125	0.341187	-0.814419	-0.815706	0.064391	60.5095	-0.815217	-7.233495E+10	-8.901733E-13	NaN
259	1.000000	0.352511	7.36759e+06	-51589.1	955.819	-29752	0.000000	0.000000	6.352904	0.006742	NaN	0.000000	0.001567	0.001643	28.0772	0.060076	0.001922	31.2617	82.738	11.1479	0.022978	0.351104	-0.804382	-0.805788	0.006742	31.2617	-0.804544	-5.182432E+10	-1.301012E-13	NaN
259	1.000000	0.362478	7.36759e+06	-51589.1	955.818	-29752	0.000000	0.000000	6.362873	0.056840	NaN	0.000000	0.001564	0.001725	28.0771	0.156710	0.002095	74.812	-100.751	-168.946	0.056993	0.361261	-0.794415	-0.795631	0.056840	74.812	-0.794984	-3.843892E+10	-1.478701E-12	NaN
259	1.000000	0.372488	7.36759e+06	-51589.1	955.819	-29752	0.000000	0.000000	6.372880	-0.033996	NaN	0.000000	0.001546	0.001670	28.0772	0.130265	0.002097	62.1118	20.6088	15.2838	-0.006164	0.371139	-0.784404	-0.785753	-0.033996	62.1118	-0.783994	-2.725817E+10	1.247183E-12	NaN
259	1.000000	0.382473	7.36759e+06	-51589.1	955.819	-29752	0.000000	0.000000	6.382868	0.044850	NaN	0.000000	0.001603	0.001680	28.0772	0.104423	0.001827	57.1707	-175.906	-170.175	0.068394	0.381157	-0.774419	-0.775736	0.044850	57.1707	-0.775008	-2.057700E+10	-2.179618E-12	NaN
259	1.000000	0.392503	7.36759e+06	-51589.1	955.818	-29752	0.000000	0.000000	6.392897	0.023518	NaN	0.000000	0.001615	0.001684	28.0773	0.117206	0.001956	59.9185	57.5045	14.0701	0.080476	0.391194	-0.764389	-0.765699	0.023518	59.9185	-0.764683	-1.489389E+10	-1.579009E-12	NaN
259	1.000000	0.402496	7.36759e+06	-51589.1	955.819	-29752	0.000000	0.000000	6.402889	-0.005956	NaN	0.000000	0.001583	0.001670	28.0773	0.047302	0.001976	23.9364	-127.666	-164.736	0.025226	0.401194	-0.754396	-0.755699	-0.005956	23.9364	-0.754210	-1.072795E+10	5.551693E-13	NaN
259	1.000000	0.412547	7.36759e+06	-51589.1	955.818	-29752	0.000000	0.000000	6.412942	0.067861	NaN	0.000000	0.001581	0.001670	28.0772	0.047816	0.002030	23.5559	89.8302	14.5186	0.068038	0.411134	-0.744346	-0.745759	0.067861	23.5559	-0.746506	-8.426674E+9	-8.053065E-12	NaN
259	1.000000	0.422488	7.36759e+06	-51589.1	955.818	-29752	0.000000	0.000000	6.422883	0.057036	NaN	0.000000	0.001590	0.001643	28.0774	0.038773	0.002017	19.2226	126.605	-164.462	0.121255	0.421188	-0.734404	-0.735705	0.057036	19.2226	-0.736630	-6.182210E+9	-9.225828E-12	NaN
259	1.000000	0.432551	7.36759e+06	-51589.1	955.819	-29752	0.000000	0.000000	6.432945	0.016484	NaN	0.000000	0.001583	0.001651	28.0784	0.141740	0.001938	73.1261	-121.885	15.7117	-0.058128	0.431134	-0.724341	-0.725759	0.016484	73.1261	-0.724510	-4.226439E+9	-3.900121E-12	NaN
259	1.000000	0.442502	7.36759e+06	-51589.1	955.818	-29752	0.000000	0.000000	6.442899	0.095339	NaN	0.000000	0.001567	0.001601	28.0784	0.077545	0.002047	37.8821	-86.7397	-163.023	0.070001	0.441203	-0.714390	-0.715689	0.095339	37.8821	-0.716278	-3.263670E+9	-2.921208E-11	NaN
259	1.000000	0.452518	7.36759e+06	-51589.1	955.818	-29752	0.000000	0.000000	6.452914	0.086510	NaN	0.000000	0.001596	0.001664	28.0785	0.027649	0.002058	13.4326	146.044	12.4631	0.047606	0.451164	-0.704375	-0.705728	0.086510	13.4326	-0.709205	-2.613371E+9	-3.310295E-11	NaN
259	1.000000	0.462514	7.36759e+06	-51589.1	955.818	-29752	0.000000	0.000000	6.462908	0.023903	NaN	0.000000	0.001582	0.001654	28.0784	0.067881	0.002046	33.1697	70.5397	-166.234	-0.037371	0.461235	-0.694378	-0.695657	0.023903	33.1697	-0.694918	-1.667719E+9	-1.433248E-11	NaN
259	1.000000	0.472517	7.36759e+06	-51589.1	955.819	-29752	0.000000	0.000000	6.472913	0.085810	NaN	0.000000	0.001595	0.001674	28.0784	0.101220	0.002039	49.6344	133.357	13.6715	0.029772	0.471150	-0.684376	-0.685743	0.085810	49.6344	-0.685672	-1.246704E+9	-6.882943E-11	NaN
259	1.000000	0.482546	7.36759e+06	-51589.1	955.819	-29752	0.000000	0.000000	6.482941	0.050450	NaN	0.000000	0.001600	0.001669	28.0782	0.037094	0.001819	20.3977	-92.6465	-165.572	0.053748	0.481241	-0.674346	-0.675652	0.050450	20.3977	-0.676201	-9.252270E+8	-5.452681E-11	NaN
259	1.000000	0.492569	7.36759e+06	-51589.1	955.818	-29752	0.000000	0.000000	6.492962	0.016639	NaN	0.000000	0.001569	0.001654	28.0783	0.055804	0.001997	27.9438	-154.403	13.5321	0.078383	0.491221	-0.664324	-0.665671	0.016639	27.9438	-0.664771	-6.453591E+8	-2.578226E-11	NaN
259	1.000000	0.502515	7.36759e+06	-51589.1	955.819	-29752	0.000000	0.000000	6.502906	-0.033567	NaN	0.000000	0.001626	0.001625	28.0782	0.109052	0.002058	52.9885	51.4643	-166.663	0.001859	0.501252	-0.654378	-0.655640	-0.033567	52.9885	-0.653903	-4.580695E+8	7.327946E-11	NaN
259	1.000000	0.512552	7.36759e+06	-51589.1	955.82	-29752	0.000000	0.000000	6.512947	0.046602	NaN	0.000000	0.001582	0.001657	28.0781	0.087064	0.002010	43.3152	-177.435	15.191	-0.073297	0.511166	-0.644341	-0.645726	0.046602	43.3152	-0.645148	-3.474567E+8	-1.341245E-10	NaN
259	1.000000	0.522549	7.36759e+06	-51589.1	955.818	-29752	0.000000	0.000000	6.522941	-0.009211	NaN	0.000000	0.001590	0.001680	28.0782	0.013672	0.002056	6.648474	-81.1927	-165.781	0.018089	0.521274	-0.634344	-0.635619	-0.009211	6.648474	-0.633305	-2.390024E+8	3.853894E-11	NaN
259	1.000000	0.532533	7.36759e+06	-51589.1	955.818	-29752	0.000000	0.000000	6.532926	0.003298	NaN	0.000000	0.001603	0.001655	28.0785	0.085428	0.002020	42.2917	-165.088	13.8857	0.007506	0.531205	-0.624359	-0.625688	0.003298	42.2917	-0.624418	-1.804444E+8	-1.827644E-11	NaN
259	1.000000	0.542539	7.36759e+06	-51589.1	955.819	-29752	0.000000	0.000000	6.542933	0.018340	NaN	0.000000	0.001571	0.001625	28.0781	0.081131	0.001908	42.5309	112.91	-169.015	0.077848	0.541240	-0.614353	-0.615653	0.018340	42.5309	-0.614677	-1.325704E+8	-1.383418E-10	NaN
259	1.000000	0.552567	7.36759e+06	-51589.1	955.818	-29752	0.000000	0.000000	6.552958	-0.029063	NaN	0.000000	0.001599	0.001630	28.0781	0.012111	0.002048	5.913129	-22.0597	14.5996	0.056827	0.551219	-0.604326	-0.605673	-0.029063	5.913129	-0.600639	-8.496989E+7	3.420370E-10	NaN
259	1.000000	0.562579	7.36759e+06	-51589.1	955.82	-29752	0.000000	0.000000	6.562973	0.011970	NaN	0.000000	0.001572	0.001636	28.0782	0.114677	0.002050	55.9351	-156.673	-168.49	0.029981	0.561273	-0.594313	-0.595619	0.011970	55.9351	-0.594474	-6.987581E+7	-1.712983E-10	NaN
259	1.000000	0.572576	7.36759e+06	-51589.1	955.819	-29752	0.000000	0.000000	6.572969	0.019946	NaN	0.000000	0.001554	0.001618	28.0772	0.085202	0.002002	42.5504	-149.497	16.7731	0.107967	0.571180	-0.584317	-0.585713	0.019946	42.5504	-0.584668	-5.118463E+7	-3.896868E-10	NaN
259	1.000000	0.582558	7.36759e+06	-51589.1	955.818	-29752	0.000000	0.000000	6.582948	-0.053520	NaN	0.000000	0.001551	0.001667	28.077	0.059711	0.001991	29.9841	136.099	-166.387	0.020216	0.581244	-0.574335	-0.575649	-0.053520	29.9841	-0.572996	-3.532018E+7	1.515284E-9	NaN
259	1.000000	0.592562	7.36759e+06	-51589.1	955.817	-29752	0.000000	0.000000	6.592955	0.013522	NaN	0.000000	0.001533	0.001650	28.0771	0.043228	0.002005	21.5555	-167.642	12.0642	0.039481	0.591242	-0.564330	-0.565651	0.013522	21.5555	-0.564801	-2.721278E+7	-4.968943E-10	NaN
259	1.000000	0.602563	7.36759e+06	-51589.1	955.818	-29752	0.000000	0.000000	6.602955	-0.010453	NaN	0.000000	0.001573	0.001640	28.0772	0.019626	0.001988	9.871679	-164.569	-170.108	-0.009362	0.601346	-0.554330	-0.555547	-0.010453	9.871679	-0.553536	-1.900714E+7	5.499453E-10	NaN
259	1.000000	0.612585	7.36759e+06	-51589.1	955.817	-29752	0.000000	0.000000	6.612981	0.067292	NaN	0.000000	0.001576	0.001659	28.0775	0.019439	0.002040	9.528338	-72.2872	13.1846	0.059268	0.611252	-0.544307	-0.545640	0.067292	9.528338	-0.549604	-1.676768E+7	-4.013210E-9	NaN
259	1.000000	0.622619	7.36759e+06	-51589.1	955.818	-29752	0.000000	0.000000	6.623014	0.048409	NaN	0.000000	0.001539	0.001615	28.0773	0.073455	0.002096	35.0404	131.276	-165.985	0.081113	0.621259	-0.534273	-0.535634	0.048409	35.0404	-0.535309	-1.062380E+7	-4.556624E-9	NaN
259	1.000000	0.632597	7.36759e+06	-51589.1	955.818	-29752	0.000000	0.000000	6.632992	0.074156	NaN	0.000000	0.001589	0.001614	28.0774	0.079650	0.001986	40.0979	-68.487	14.0862	0.020578	0.631269	-0.524296	-0.525624	0.074156	40.0979	-0.525683	-7.80913e+06	-9.496122E-9	NaN
259	1.000000	0.642570	7.36759e+06	-51589.1	955.819	-29752	0.000000	0.000000	6.642963	-0.015597	NaN	0.000000	0.001513	0.001635	28.0773	0.096182	0.002108	45.6289	-77.6505	-170.395	-0.016159	0.641292	-0.514322	-0.515601	-0.015597	45.6289	-0.514066	-5.38304e+06	2.897382E-9	NaN
259	1.000000	0.652565	7.36759e+06	-51589.1	955.818	-29752	0.000000	0.000000	6.652956	-0.048992	NaN	0.000000	0.001513	0.001631	28.0774	0.047635	0.001916	24.8558	72.3842	10.7027	-0.007738	0.651242	-0.504328	-0.505651	-0.048992	24.8558	-0.502849	-3.75629e+06	1.304271E-8	NaN
259	1.000000	0.662602	7.36759e+06	-51589.1	955.818	-29752	0.000000	0.000000	6.662992	-0.055798	NaN	0.000000	0.001572	0.001637	28.0771	0.040102	0.001875	21.3897	162.13	-168.531	-0.061284	0.661302	-0.494291	-0.495590	-0.055798	21.3897	-0.492334	-2.67922e+06	2.082638E-8	NaN
259	1.000000	0.672613	7.36759e+06	-51589.1	955.818	-29752	0.000000	0.000000	6.673005	-0.009034	NaN	0.000000	0.001555	0.001614	28.0772	0.102293	0.002029	50.4059	-158.71	14.8913	0.029024	0.671280	-0.484279	-0.485612	-0.009034	50.4059	-0.484145	-2.05841e+06	4.388678E-9	NaN
259	1.000000	0.682629	7.36759e+06	-51589.1	955.818	-29752	0.000000	0.000000	6.683023	0.027927	NaN	0.000000	0.001587	0.001611	28.0774	0.093204	0.002023	46.0779	63.1731	-166.969	0.025627	0.681311	-0.474263	-0.475582	0.027927	46.0779	-0.474718	-1.51895e+06	-1.838553E-8	NaN
259	1.000000	0.692626	7.36759e+06	-51589.1	955.818	-29752	0.000000	0.000000	6.693021	0.060062	NaN	0.000000	0.001588	0.001662	28.0772	0.090339	0.001939	46.5872	78.3711	14.8284	0.055055	0.691272	-0.464267	-0.465620	0.060062	46.5872	-0.465234	-1.11823e+06	-5.371215E-8	NaN
259	1.000000	0.702612	7.36759e+06	-51589.1	955.818	-29752	0.000000	0.000000	6.703002	-0.067517	NaN	0.000000	0.001571	0.001620	28.0778	0.077626	0.001922	40.3851	74.6739	-169.768	-0.076131	0.701309	-0.454280	-0.455583	-0.067517	40.3851	-0.453027	-753270	8.963195E-8	NaN
259	1.000000	0.712649	7.36759e+06	-51589.1	955.818	-29752	0.000000	0.000000	6.713046	0.089840	NaN	0.000000	0.001573	0.001645	28.0783	0.072640	0.002099	34.6044	57.0034	15.4872	0.096510	0.711250	-0.444243	-0.445642	0.089840	34.6044	-0.446190	-603494	-1.488665E-7	NaN
259	1.000000	0.722636	7.36759e+06	-51589.1	955.818	-29752	0.000000	0.000000	6.723028	-0.030598	NaN	0.000000	0.001576	0.001646	28.0786	0.076674	0.002002	38.2898	-164.93	-162.093	-0.085894	0.721362	-0.434256	-0.435530	-0.030598	38.2898	-0.433657	-401578	7.619393E-8	NaN
259	1.000000	0.732658	7.36759e+06	-51589.1	955.819	-29752	0.000000	0.000000	6.733051	0.004007	NaN	0.000000	0.001661	0.001651	28.0782	0.070677	0.002124	33.2822	113.689	15.5526	0.030653	0.731326	-0.424235	-0.425567	0.004007	33.2822	-0.424325	-296291	-1.352541E-8	NaN
259	1.000000	0.742658	7.36759e+06	-51589.1	955.819	-29752	0.000000	0.000000	6.743052	0.033516	NaN	0.000000	0.001664	0.001680	28.0786	0.015638	0.001914	8.169315	-128.892	-166.911	0.008076	0.741403	-0.414234	-0.415489	0.033516	8.169315	-0.417311	-235650	-1.422298E-7	NaN
259	1.000000	0.752641	7.36759e+06	-51589.1	955.819	-29752	0.000000	0.000000	6.753036	0.037717	NaN	0.000000	0.001628	0.001663	28.0783	0.093111	0.002004	46.4657	-133.593	14.5339	0.032112	0.751285	-0.404251	-0.405608	0.037717	46.4657	-0.404860	-156766	-2.405943E-7	NaN
259	1.000000	0.762670	7.36759e+06	-51589.1	955.817	-29752	0.000000	0.000000	6.763064	0.033261	NaN	0.000000	0.001611	0.001623	28.0785	0.198035	0.002144	92.3594	7.734237	-162.721	0.092161	0.761347	-0.394222	-0.395546	0.033261	92.3594	-0.394492	-111528	-2.982303E-7	NaN
259	1.000000	0.772662	7.36759e+06	-51589.1	955.818	-29752	0.000000	0.000000	6.773056	0.035640	NaN	0.000000	0.001611	0.001639	28.0781	0.065790	0.002078	31.6549	150.463	14.4518	0.012150	0.771270	-0.384231	-0.385623	0.035640	31.6549	-0.385075	-81783	-4.357853E-7	NaN
259	1.000000	0.782663	7.36759e+06	-51589.1	955.818	-29752	0.000000	0.000000	6.783057	0.024751	NaN	0.000000	0.001638	0.001664	28.0782	0.172259	0.001993	86.4384	-31.6197	-167.866	0.084750	0.781407	-0.374229	-0.375486	0.024751	86.4384	-0.374444	-57553.9	-4.300563E-7	NaN
259	1.000000	0.792679	7.36759e+06	-51589.1	955.818	-29752	0.000000	0.000000	6.793073	0.035408	NaN	0.000000	0.001654	0.001635	28.0783	0.116017	0.002062	56.2687	167.112	13.5296	-0.008718	0.791317	-0.364214	-0.365575	0.035408	56.2687	-0.364686	-41641	-8.503115E-7	NaN
259	1.000000	0.802679	7.36759e+06	-51589.1	955.818	-29752	0.000000	0.000000	6.803071	-0.004706	NaN	0.000000	0.001613	0.001650	28.0783	0.045300	0.002026	22.3615	3.002600	-164.668	0.011089	0.801352	-0.354214	-0.355541	-0.004706	22.3615	-0.354056	-29229.2	1.609902E-7	NaN
259	1.000000	0.812657	7.36759e+06	-51589.1	955.819	-29752	0.000000	0.000000	6.813053	0.079707	NaN	0.000000	0.001617	0.001670	28.0782	0.010321	0.001974	5.228021	-111.309	14.9494	0.043531	0.811325	-0.344236	-0.345568	0.079707	5.228021	-0.355670	-30846.4	-2.583982E-6	NaN
259	1.000000	0.822685	7.36759e+06	-51589.1	955.819	-29752	0.000000	0.000000	6.823077	-0.024167	NaN	0.000000	0.001656	0.001644	28.0784	0.070781	0.001952	36.2526	78.1565	-160.341	-0.007469	0.821308	-0.334207	-0.335585	-0.024167	36.2526	-0.333707	-14780.8	1.635025E-6	NaN
259	1.000000	0.832704	7.36759e+06	-51589.1	955.818	-29752	0.000000	0.000000	6.833099	0.061043	NaN	0.000000	0.001640	0.001695	28.0782	0.042922	0.002067	20.7647	152.623	17.0868	0.039701	0.831314	-0.324189	-0.325579	0.061043	20.7647	-0.326394	-11550.2	-5.285016E-6	NaN
259	1.000000	0.842679	7.36759e+06	-51589.1	955.819	-29752	0.000000	0.000000	6.843076	0.096674	NaN	0.000000	0.001614	0.001654	28.0771	0.018762	0.002022	9.279691	29.7717	-163.443	0.058994	0.841409	-0.314214	-0.315484	0.096674	9.279691	-0.322027	-9964.52	-9.701813E-6	NaN
259	1.000000	0.852714	7.36759e+06	-51589.1	955.818	-29752	0.000000	0.000000	6.853110	0.073477	NaN	0.000000	0.001558	0.001646	28.0769	0.101156	0.002022	50.017	24.4923	13.311	0.103307	0.851292	-0.304179	-0.305601	0.073477	50.017	-0.305280	-5637.87	-1.303279E-5	NaN
259	1.000000	0.862693	7.36759e+06	-51589.1	955.818	-29752	0.000000	0.000000	6.863086	0.008587	NaN	0.000000	0.001588	0.001637	28.0772	0.063761	0.001947	32.7495	58.9733	-166.112	-0.014080	0.861382	-0.294199	-0.295510	0.008587	32.7495	-0.294396	-3882.1	-2.212039E-6	NaN
259	1.000000	0.872704	7.36759e+06	-51589.1	955.819	-29752	0.000000	0.000000	6.873100	0.072699	NaN	0.000000	0.001557	0.001648	28.0773	0.100498	0.002025	49.6172	-67.3938	11.4508	0.036934	0.871300	-0.284188	-0.285593	0.072699	49.6172	-0.285287	-2835.19	-2.564173E-5	NaN
259	1.000000	0.882698	7.36759e+06	-51589.1	955.818	-29752	0.000000	0.000000	6.883091	0.021072	NaN	0.000000	0.001580	0.001629	28.0772	0.052971	0.002006	26.4097	9.571651	-165.112	0.021836	0.881370	-0.274195	-0.275523	0.021072	26.4097	-0.274793	-1969.11	-1.070141E-5	NaN
259	1.000000	0.892695	7.36759e+06	-51589.1	955.819	-29752	0.000000	0.000000	6.893088	-0.002136	NaN	0.000000	0.001584	0.001631	28.0771	0.077144	0.002017	38.2424	61.1297	12.5911	-0.007623	0.891352	-0.264197	-0.265541	-0.002136	38.2424	-0.264155	-1356.73	1.574172E-6	NaN
259	1.000000	0.902722	7.36759e+06	-51589.1	955.818	-29752	0.000000	0.000000	6.903117	0.058162	NaN	0.000000	0.001591	0.001621	28.0774	0.142439	0.002018	70.5776	-131.256	-168.248	0.114715	0.901428	-0.254171	-0.255465	0.058162	70.5776	-0.254789	-974.68	-5.967329E-5	NaN
259	1.000000	0.912694	7.36759e+06	-51589.1	955.819	-29752	0.000000	0.000000	6.913089	0.060296	NaN	0.000000	0.001540	0.001642	28.0773	0.015065	0.001941	7.759581	122.778	11.5721	0.115627	0.911363	-0.244199	-0.245530	0.060296	7.759581	-0.250027	-822.961	-7.326729E-5	NaN
259	1.000000	0.922716	7.36759e+06	-51589.1	955.818	-29752	0.000000	0.000000	6.923114	0.112029	NaN	0.000000	0.001583	0.001668	28.0772	0.082629	0.001906	43.3519	141.694	-164.559	0.100075	0.921410	-0.234176	-0.235483	0.112029	43.3519	-0.236114	-499.732	-0.000224	NaN
259	1.000000	0.932729	7.36759e+06	-51589.1	955.819	-29752	0.000000	0.000000	6.933122	0.007026	NaN	0.000000	0.001604	0.001664	28.0773	0.048755	0.002079	23.4505	77.3521	12.866	0.141344	0.931389	-0.224164	-0.225503	0.007026	23.4505	-0.224389	-326.302	-2.153118E-5	NaN
259	1.000000	0.942719	7.36759e+06	-51589.1	955.819	-29752	0.000000	0.000000	6.943111	-0.024629	NaN	0.000000	0.001591	0.001640	28.0775	0.043258	0.002086	20.7378	74.834	-168.936	0.036430	0.941419	-0.214173	-0.215473	-0.024629	20.7378	-0.213283	-216.7	0.000114	NaN
259	1.000000	0.952721	7.36759e+06	-51589.1	955.819	-29752	0.000000	0.000000	6.953114	0.023869	NaN	0.000000	0.001637	0.001644	28.0772	0.095754	0.001915	50.013	-73.996	15.2543	0.013404	0.951376	-0.204172	-0.205516	0.023869	50.013	-0.204530	-156.274	-0.000153	NaN
259	1.000000	0.962747	7.36759e+06	-51589.1	955.818	-29752	0.000000	0.000000	6.963140	0.005812	NaN	0.000000	0.001628	0.001638	28.0771	0.044405	0.002056	21.5959	-4.677705	-170.036	0.019758	0.961440	-0.194145	-0.195452	0.005812	21.5959	-0.194347	-106.262	-5.469964E-5	NaN
259	1.000000	0.972751	7.36759e+06	-51589.1	955.818	-29752	0.000000	0.000000	6.973143	-0.011577	NaN	0.000000	0.001689	0.001656	28.0773	0.021363	0.001907	11.2028	-41.2944	16.8102	-0.056067	0.971395	-0.184142	-0.185498	-0.011577	11.2028	-0.183367	-69.5931	0.000166	NaN
259	1.000000	0.982731	7.36759e+06	-51589.1	955.819	-29752	0.000000	0.000000	6.983126	0.044207	NaN	0.000000	0.001632	0.001603	28.0785	0.050003	0.002013	24.8402	148.576	-167.721	0.123878	0.981440	-0.174161	-0.175453	0.044207	24.8402	-0.175496	-51.1096	-0.000865	NaN
259	1.000000	0.992736	7.36759e+06	-51589.1	955.818	-29752	0.000000	0.000000	6.993126	-0.069441	NaN	0.000000	0.001587	0.001624	28.0785	0.029174	0.002073	14.0704	-109.507	13.1888	-0.059322	0.991390	-0.164157	-0.165503	-0.069441	14.0704	-0.160455	-27.9299	0.002486	NaN
259	1.000000	1.002744	7.36759e+06	-51589.1	955.818	-29752	0.000000	0.000000	7.003141	0.087104	NaN	0.000000	0.001593	0.001623	28.0784	0.015234	0.002062	7.388134	-48.0772	-168.881	0.052829	1.001439	-0.154148	-0.155454	0.087104	7.388134	-0.162990	-30.9695	-0.002813	NaN
259	1.000000	1.012741	7.36759e+06	-51589.1	955.819	-29752	0.000000	0.000000	7.013136	0.049138	NaN	0.000000	0.001589	0.001648	28.0782	0.096545	0.001994	48.41	22.8554	12.9707	0.164090	1.011380	-0.144151	-0.145513	0.049138	48.41	-0.144912	-14.6065	-0.003364	NaN
259	1.000000	1.022763	7.36759e+06	-51589.1	955.82	-29752	0.000000	0.000000	7.023156	-0.012550	NaN	0.000000	0.001611	0.001661	28.0786	0.005443	0.002027	2.685883	-43.4133	-165.074	-0.090699	1.021461	-0.134129	-0.135432	-0.012550	2.685883	-0.130625	-7.836655	0.001601	NaN
259	1.000000	1.032778	7.36759e+06	-51589.1	955.819	-29752	0.000000	0.000000	7.033172	0.029386	NaN	0.000000	0.001602	0.001668	28.0786	0.072475	0.001888	38.3869	130.867	15.0599	0.043426	1.031422	-0.124115	-0.125471	0.029386	38.3869	-0.124689	-5.995611	-0.004901	NaN
259	1.000000	1.042784	7.36759e+06	-51589.1	955.818	-29752	0.000000	0.000000	7.043180	0.059975	NaN	0.000000	0.001557	0.001657	28.0784	0.066798	0.002050	32.5798	140.381	-165.424	0.027043	1.041434	-0.114108	-0.115459	0.059975	32.5798	-0.115489	-3.909929	-0.015339	NaN
259	1.000000	1.052754	7.36759e+06	-51589.1	955.819	-29752	0.000000	0.000000	7.053151	0.097304	NaN	0.000000	0.001584	0.001668	28.0786	0.055342	0.001971	28.0727	24.8558	14.412	0.056452	1.051424	-0.104138	-0.105468	0.097304	28.0727	-0.106738	-2.561872	-0.037981	NaN
259	1.000000	1.062786	7.36759e+06	-51589.1	955.819	-29752	0.000000	0.000000	7.063184	0.128280	NaN	0.000000	0.001587	0.001634	28.0785	0.061825	0.001976	31.2823	138.121	-166.868	0.085853	1.061458	-0.094107	-0.095435	0.128280	31.2823	-0.097182	-1.580652	-0.081156	NaN
259	1.000000	1.072770	7.36759e+06	-51589.1	955.82	-29752	0.000000	0.000000	7.073164	0.031817	NaN	0.000000	0.001575	0.001625	28.0783	0.082603	0.001911	43.2344	129.035	16.639	0.011043	1.071397	-0.084123	-0.085495	0.031817	43.2344	-0.084675	-0.806864	-0.039433	NaN
259	1.000000	1.082772	7.36759e+06	-51589.1	955.819	-29752	0.000000	0.000000	7.083165	0.011519	NaN	0.000000	0.001593	0.001647	28.0783	0.182560	0.001927	94.7344	-164.192	-168.456	0.060167	1.081514	-0.074120	-0.075378	0.011519	94.7344	-0.074211	-0.440619	-0.026142	NaN
259	1.000000	1.092827	7.36759e+06	-51589.1	955.819	-29752	0.000000	0.000000	7.093220	-0.001144	NaN	0.000000	0.001576	0.001661	28.0784	0.046802	0.001983	23.5974	41.4673	9.888259	-0.013551	1.091428	-0.064065	-0.065465	-0.001144	23.5974	-0.064029	-0.234180	0.004887	NaN
259	1.000000	1.102804	7.36759e+06	-51589.1	955.82	-29752	0.000000	0.000000	7.103198	0.028627	NaN	0.000000	0.001561	0.001626	28.0783	0.035557	0.001960	18.1428	-137.489	-171.074	0.020114	1.101485	-0.054089	-0.055407	0.028627	18.1428	-0.055272	-0.131182	-0.218221	NaN
259	1.000000	1.112803	7.36759e+06	-51589.1	955.82	-29752	0.000000	0.000000	7.113199	0.059414	NaN	0.000000	0.001552	0.001655	28.0776	0.058660	0.002045	28.6915	-165.552	11.6362	0.040057	1.111425	-0.044089	-0.045468	0.059414	28.6915	-0.045642	-0.067240	-0.883608	NaN
259	1.000000	1.122800	7.36759e+06	-51589.1	955.819	-29752	0.000000	0.000000	7.123198	0.109903	NaN	0.000000	0.001574	0.001647	28.0772	0.059503	0.002060	28.8899	-126.137	-163.407	0.050593	1.121449	-0.034092	-0.035443	0.109903	28.8899	-0.036945	-0.036578	-3.004605	NaN
259	1.000000	1.132831	7.36759e+06	-51589.1	955.819	-29752	0.000000	0.000000	7.133227	0.098298	NaN	0.000000	0.001545	0.001598	28.0774	0.034785	0.001980	17.5651	72.2435	14.6479	0.023081	1.131436	-0.024062	-0.025456	0.098298	17.5651	-0.028259	-0.020607	-4.770189	NaN
259	1.000000	1.142802	7.36759e+06	-51589.1	955.819	-29752	0.000000	0.000000	7.143196	0.034489	NaN	0.000000	0.001588	0.001662	28.0769	0.065371	0.002068	31.6138	-96.3944	-167.598	0.060748	1.141470	-0.014091	-0.015422	0.034489	31.6138	-0.014909	-0.009221	-3.740380	NaN
259	1.000000	1.152829	7.36759e+06	-51589.1	955.819	-29752	0.000000	0.000000	7.153224	0.062605	NaN	0.000000	0.001606	0.001646	28.0774	0.098532	0.001955	50.4094	106.123	14.5553	0.016013	1.151504	-0.004064	-0.005389	0.062605	50.4094	-0.004995	-0.003414	-18.339	NaN
259	1.000000	1.162806	7.36759e+06	-51589.1	955.819	-29752	0.000000	0.000000	7.163423	5.435317	NaN	0.000000	0.001578	0.001659	28.0772	5.805216	0.001914	3033.56	9.223086	-169.352	3.921066	1.161525	0.005914	0.004632	5.435317	3033.56	0.004570	0.003744	1451.56	45293.1
259	2.000000	1.167898	7.36759e+06	-51589.1	955.82	-29752	0.000000	0.000000	7.168763	11.4799	NaN	0.000000	0.001586	0.001664	28.0774	10.5972	0.001641	6455.87	8.690224	2.673605	10.5201	1.167505	0.011006	0.010613	11.4799	6455.87	0.009672	0.008820	1301.64	62806.4
259	2.000000	1.170351	7.36759e+06	-51589.1	955.82	-29752	0.000000	0.000000	7.171327	14.1889	NaN	0.000000	0.001578	0.001659	28.0772	12.8104	0.001701	7532.41	7.169701	-176.081	14.1176	1.169995	0.013459	0.013102	14.1889	7532.41	0.012046	0.011545	1229.01	64048.9
259	2.000000	1.172783	7.36759e+06	-51589.1	955.82	-29752	0.000000	0.000000	7.173919	18.0695	NaN	0.000000	0.001586	0.001666	28.0785	15.7233	0.001800	8737.22	10.4246	-0.080409	17.1324	1.172442	0.015891	0.015549	18.0695	8737.22	0.014340	0.014415	1253.5	66486.9
259	2.000000	1.175283	7.36759e+06	-51589.1	955.82	-29752	0.000000	0.000000	7.176588	22.1826	NaN	0.000000	0.001580	0.001672	28.0773	18.3793	0.001916	9594.16	9.592477	-178.857	22.6403	1.175014	0.018390	0.018121	22.1826	9594.16	0.016656	0.017558	1263.41	66152.6
259	2.000000	1.177797	7.36759e+06	-51589.1	955.82	-29752	0.000000	0.000000	7.179334	27.823	NaN	0.000000	0.001567	0.001656	28.0785	20.7522	0.001841	11270.8	8.089529	0.875512	27.1198	1.177473	0.020905	0.020581	27.823	11270.8	0.019053	0.021076	1320.11	70930
259	2.000000	1.180250	7.36759e+06	-51589.1	955.82	-29752	0.000000	0.000000	7.182038	33.9345	NaN	0.000000	0.001564	0.001657	28.0774	22.7533	0.001777	12803.1	3.577727	-176.26	32.8183	1.179909	0.023357	0.023017	33.9345	12803.1	0.021369	0.024740	1371.65	74368.9
259	2.000000	1.182728	7.36759e+06	-51589.1	955.821	-29752	0.000000	0.000000	7.184904	43.3668	NaN	0.000000	0.001548	0.001590	28.0778	24.8382	0.001724	14408.9	2.819603	3.427887	41.1562	1.182410	0.025835	0.025518	43.3668	14408.9	0.023578	0.028479	1522.76	78008.6
259	2.000000	1.185296	7.36759e+06	-51589.1	955.819	-29752	0.000000	0.000000	7.187623	47.0213	NaN	0.000000	0.001595	0.001654	28.0778	28.2469	0.001688	16736.8	4.656156	178.989	46.7171	1.184969	0.028404	0.028076	47.0213	16736.8	0.026297	0.033417	1407.11	83649.3
259	2.000000	1.187800	7.36759e+06	-51589.1	955.82	-29752	0.000000	0.000000	7.190444	54.7426	NaN	0.000000	0.001522	0.001637	28.0791	30.8803	0.001829	16887.4	11.309	-6.332428	54.8756	1.187323	0.030907	0.030431	54.7426	16887.4	0.028476	0.037644	1454.22	79522.2
259	2.000000	1.190250	7.36759e+06	-51589.1	955.82	-29752	0.000000	0.000000	7.193218	62.6344	NaN	0.000000	0.001525	0.001642	28.0788	32.5588	0.001842	17676	3.317279	-179.394	61.7342	1.189915	0.033357	0.033022	62.6344	17676	0.030700	0.042206	1484.01	78608.4
259	2.000000	1.192730	7.36759e+06	-51589.1	955.82	-29752	0.000000	0.000000	7.196017	70.3771	NaN	0.000000	0.001558	0.001698	28.0787	34.3033	0.001770	19383.1	2.916685	0.274495	67.9661	1.192349	0.035837	0.035457	70.3771	19383.1	0.033114	0.047446	1483.31	81301
259	2.000000	1.195181	7.36759e+06	-51589.1	955.82	-29752	0.000000	0.000000	7.198851	79.6809	NaN	0.000000	0.001515	0.001660	28.0785	36.2987	0.001823	19911.3	3.594978	179.109	76.6682	1.194939	0.038288	0.038046	79.6809	19911.3	0.035287	0.052417	1520.15	79458.3
259	2.000000	1.197755	7.36759e+06	-51589.1	955.82	-29752	0.000000	0.000000	7.201755	87.7217	NaN	0.000000	0.001511	0.001663	28.0787	38.53	0.001816	21221.8	8.994923	-6.150680	85.2588	1.197395	0.040862	0.040502	87.7217	21221.8	0.037762	0.058373	1502.79	80251.2
259	2.000000	1.200221	7.36759e+06	-51589.1	955.821	-29752	0.000000	0.000000	7.204456	93.4186	NaN	0.000000	0.001551	0.001642	28.0785	40.0615	0.001812	22112.9	3.237682	178.734	92.4616	1.199921	0.043329	0.043028	93.4186	22112.9	0.040161	0.064444	1449.61	79584.4
259	2.000000	1.202714	7.36759e+06	-51589.1	955.82	-29752	0.000000	0.000000	7.207392	104.204	NaN	0.000000	0.001527	0.001658	28.079	43.415	0.001890	22969.8	2.075621	0.052009	102.214	1.202341	0.045821	0.045448	104.204	22969.8	0.042419	0.070429	1479.56	79077.9
259	2.000000	1.205295	7.36759e+06	-51589.1	955.82	-29752	0.000000	0.000000	7.210132	108.083	NaN	0.000000	0.001586	0.001647	28.0789	46.0342	0.001872	24596.1	4.401578	176.705	110.472	1.204963	0.048402	0.048070	108.083	24596.1	0.045107	0.077890	1387.63	80519
259	2.000000	1.207765	7.36759e+06	-51589.1	955.819	-29752	0.000000	0.000000	7.213263	124.132	NaN	0.000000	0.001593	0.001644	28.0789	47.7555	0.001712	27888.9	7.764802	-7.448497	124.267	1.207300	0.050873	0.050408	124.132	27888.9	0.047535	0.084945	1461.33	87425
259	2.000000	1.210255	7.36759e+06	-51589.1	955.819	-29752	0.000000	0.000000	7.216040	131.131	NaN	0.000000	0.001572	0.001661	28.0788	50.0704	0.001893	26449.9	6.677195	174.245	133.116	1.209931	0.053362	0.053038	131.131	26449.9	0.049644	0.091316	1436.02	79969.7
259	2.000000	1.212704	7.36759e+06	-51589.1	955.82	-29752	0.000000	0.000000	7.219105	146.09	NaN	0.000000	0.001543	0.001657	28.0791	51.7204	0.001674	30898.4	5.510696	-5.758731	143.555	1.212286	0.055812	0.055394	146.09	30898.4	0.052266	0.099544	1467.58	89474.9
259	2.000000	1.215223	7.36759e+06	-51589.1	955.82	-29752	0.000000	0.000000	7.221882	152.372	NaN	0.000000	0.001533	0.001627	28.0788	55.0363	0.001849	29772.2	0.314073	179.148	150.874	1.214936	0.058330	0.058043	152.372	29772.2	0.054492	0.106800	1426.7	83233.3
259	2.000000	1.217730	7.36759e+06	-51589.1	955.82	-29752	0.000000	0.000000	7.224851	163.594	NaN	0.000000	0.001516	0.001679	28.0788	57.0929	0.001838	31066.7	5.917127	-6.411564	161.153	1.217346	0.060838	0.060453	163.594	31066.7	0.056888	0.114887	1423.95	83739.8
259	2.000000	1.220173	7.36759e+06	-51589.1	955.82	-29752	0.000000	0.000000	7.227735	174.343	NaN	0.000000	0.001501	0.001640	28.0788	58.0535	0.001903	30511	4.878503	175.745	172.899	1.219786	0.063280	0.062894	174.343	30511	0.058995	0.122228	1426.38	79734.3
259	2.000000	1.222731	7.36759e+06	-51589.1	955.821	-29752	0.000000	0.000000	7.230797	186.575	NaN	0.000000	0.001536	0.001631	28.0777	61.1084	0.001848	33075.3	5.663257	-6.498636	186.73	1.222262	0.065839	0.065370	186.575	33075.3	0.061608	0.131639	1417.33	83288.5
259	2.000000	1.225149	7.36759e+06	-51589.1	955.82	-29752	0.000000	0.000000	7.233760	199.852	NaN	0.000000	0.001518	0.001647	28.0775	63.028	0.001787	35265.6	5.358690	173.163	197.804	1.224816	0.068256	0.067924	199.852	35265.6	0.064006	0.140564	1421.79	85938.7
259	2.000000	1.227739	7.36759e+06	-51589.1	955.821	-29752	0.000000	0.000000	7.236881	212.741	NaN	0.000000	0.001544	0.001671	28.0774	65.3586	0.001797	36376.2	9.507985	-11.0053	211.971	1.227361	0.070847	0.070469	212.741	36376.2	0.066460	0.149988	1418.39	85814.7
259	2.000000	1.230237	7.36759e+06	-51589.1	955.82	-29752	0.000000	0.000000	7.239677	219.978	NaN	0.000000	0.001530	0.001660	28.0774	67.1529	0.001826	36778.4	4.313506	174.241	222.385	1.229846	0.073345	0.072953	219.978	36778.4	0.068859	0.159477	1379.37	84143
259	2.000000	1.232787	7.36759e+06	-51589.1	955.82	-29752	0.000000	0.000000	7.242591	228.834	NaN	0.000000	0.001536	0.001704	28.0775	70.3467	0.001937	36312.2	6.462016	-8.380506	231.231	1.232447	0.075895	0.075555	228.834	36312.2	0.071168	0.168873	1355.07	80732
259	2.000000	1.235227	7.36759e+06	-51589.1	955.821	-29752	0.000000	0.000000	7.245724	245.698	NaN	0.000000	0.001514	0.001680	28.0773	71.8431	0.001800	39903	6.680260	170.573	247.581	1.234901	0.078335	0.078008	245.698	39903	0.073717	0.179534	1368.53	86040.9
259	2.000000	1.237622	7.36759e+06	-51589.1	955.821	-29752	0.000000	0.000000	7.248743	260.867	NaN	0.000000	0.001525	0.001647	28.0772	72.0289	0.001725	41749.2	3.725198	-6.362723	254.302	1.237308	0.080729	0.080416	260.867	41749.2	0.076043	0.189536	1376.35	87614.5
259	2.000000	1.240141	7.36759e+06	-51589.1	955.82	-29752	0.000000	0.000000	7.251863	275.474	NaN	0.000000	0.001564	0.001633	28.0773	73.8853	0.001682	43926.1	5.912563	170.678	271.759	1.239807	0.083249	0.082915	275.474	43926.1	0.078545	0.200575	1373.42	89610.1
259	2.000000	1.242694	7.36759e+06	-51589.1	955.82	-29752	0.000000	0.000000	7.254785	284.439	NaN	0.000000	0.001587	0.001632	28.0773	78.0618	0.001872	41696.8	5.554251	-8.767401	282.748	1.242345	0.085802	0.085452	284.439	41696.8	0.080686	0.210252	1352.85	83081.9
259	2.000000	1.245258	7.36759e+06	-51589.1	955.821	-29752	0.000000	0.000000	7.257950	299.056	NaN	0.000000	0.001558	0.001645	28.0771	79.8016	0.001808	44150	4.370931	172.804	302.741	1.244874	0.088366	0.087982	299.056	44150	0.083286	0.222292	1345.33	85554.2
259	2.000000	1.247790	7.36759e+06	-51589.1	955.82	-29752	0.000000	0.000000	7.261027	312.325	NaN	0.000000	0.001533	0.001677	28.0773	81.3105	0.001850	43951.2	5.153957	-7.567719	315.012	1.247281	0.090898	0.090389	312.325	43951.2	0.085568	0.233120	1339.76	83167.6
259	2.000000	1.250074	7.36759e+06	-51589.1	955.82	-29752	0.000000	0.000000	7.263816	324.598	NaN	0.000000	0.001561	0.001675	28.0774	83.8141	0.001820	46056.8	6.248557	170.587	317.889	1.249804	0.093181	0.092911	324.598	46056.8	0.087895	0.244407	1328.1	85115.8
259	2.000000	1.252628	7.36759e+06	-51589.1	955.821	-29752	0.000000	0.000000	7.266854	336.383	NaN	0.000000	0.001534	0.001654	28.0773	86.6563	0.001832	47292.4	4.118615	-7.975268	331.257	1.252247	0.095735	0.095355	336.383	47292.4	0.090401	0.256836	1309.72	85258.3
259	2.000000	1.255167	7.36759e+06	-51589.1	955.821	-29752	0.000000	0.000000	7.269924	349.299	NaN	0.000000	0.001527	0.001664	28.0783	89.5277	0.001901	47092.8	9.067278	168.507	349.233	1.254704	0.098274	0.097812	349.299	47092.8	0.092711	0.268555	1300.66	83025.4
259	2.000000	1.257703	7.36759e+06	-51589.1	955.82	-29752	0.000000	0.000000	7.272992	362.214	NaN	0.000000	0.001540	0.001615	28.0789	90.3268	0.001978	45664.1	1.587602	-4.678925	359.994	1.257354	0.100811	0.100461	362.214	45664.1	0.094862	0.279681	1295.1	78889.2
259	2.000000	1.260131	7.36759e+06	-51589.1	955.82	-29752	0.000000	0.000000	7.276156	380.128	NaN	0.000000	0.001528	0.001627	28.0787	92.2726	0.001805	51116.2	6.748975	169.21	376.74	1.259842	0.103238	0.102950	380.128	51116.2	0.097661	0.294480	1290.85	86060.6
259	2.000000	1.262641	7.36759e+06	-51589.1	955.82	-29752	0.000000	0.000000	7.279393	397.773	NaN	0.000000	0.001573	0.001654	28.0784	94.3074	0.001879	50200.4	4.899968	-8.369892	394.018	1.262336	0.105749	0.105444	397.773	50200.4	0.099806	0.306062	1299.65	82904
259	2.000000	1.264536	7.36759e+06	-51589.1	955.82	-29752	0.000000	0.000000	7.281901	412.699	NaN	0.000000	0.001659	0.001643	28.0785	96.4902	0.001777	54298.8	6.541777	-10.8115	403.269	1.264177	0.107643	0.107285	412.699	54298.8	0.101943	0.317807	1298.58	87999.9