File: remote_trans/data/nanoindenter/0828-1/data/Data_2025-08-06,11h17m57s/2025-07-22_16-23-58_1_451.txt
2025-07-22, 16:23:58, 1
Index	Phase	Displacement	Time	Pos X	Pos Y	Pos Z	Rot A	Rot B	Piezo Z	Force A	Force B	Gripper	Voltage A	Voltage B	Temperature	Amplitude force	Amplitude pos	Stiffness	Phase shift	Phase excitation	Force A raw	Displacement raw	HMax	HMax raw	Real Force	Real Stiffness	Contact Depth	Area	Hardness	Reduced Mod.
[#]	[#]	[um]	[s]	[um]	[um]	[um]	[m°]	[m°]	[um]	[uN]	[uN]	[V]	[V]	[V]	[°C]	[uN]	[um]	[N/m]	[°]	[°]	[uN]	[um]	[um]	[um]	[uN]	[N/m]	[um]	[um^2]	[MPa]	[MPa]
451	1.000000	0.002355	7.36947e+06	-54539.1	1005.82	-29743.4	0.000000	0.000000	6.002755	-0.093452	NaN	0.000000	0.001614	0.001788	28.0803	0.019853	0.000889	22.3236	-26.1389	-170.543	-0.067726	0.001154	-1.119479	-1.120680	-0.093452	22.3236	-1.116339	-8.305192E+14	1.125226E-16	NaN
451	1.000000	0.012473	7.36947e+06	-54539.1	1005.82	-29743.4	0.000000	0.000000	6.012871	-0.130002	NaN	0.000000	0.001609	0.001783	28.0802	0.071320	0.001272	56.0541	-91.2425	12.6045	-0.094239	0.011026	-1.109361	-1.110807	-0.130002	56.0541	-1.107622	-6.344067E+14	2.049195E-16	NaN
451	1.000000	0.022359	7.36947e+06	-54539.1	1005.82	-29743.4	0.000000	0.000000	6.022761	-0.028718	NaN	0.000000	0.001622	0.001787	28.0797	0.081890	0.001652	49.5581	141.68	-169.442	-0.066503	0.020974	-1.099475	-1.100860	-0.028718	49.5581	-1.099041	-4.866199E+14	5.901596E-17	NaN
451	1.000000	0.032377	7.36947e+06	-54539.1	1005.82	-29743.4	0.000000	0.000000	6.032780	-0.034042	NaN	0.000000	0.001619	0.001764	28.08	0.061247	0.001949	31.4273	131.741	11.6811	-0.008958	0.030967	-1.089457	-1.090867	-0.034042	31.4273	-1.088644	-3.528637E+14	9.647461E-17	NaN
451	1.000000	0.042335	7.36947e+06	-54539.1	1005.82	-29743.4	0.000000	0.000000	6.042736	-0.069517	NaN	0.000000	0.001597	0.001788	28.079	0.147087	0.001939	75.8481	46.2738	-166.641	-0.077596	0.041012	-1.079499	-1.080822	-0.069517	75.8481	-1.078811	-2.603490E+14	2.670129E-16	NaN
451	1.000000	0.052336	7.36947e+06	-54539.1	1005.82	-29743.4	0.000000	0.000000	6.052738	-0.034701	NaN	0.000000	0.001585	0.001766	28.0786	0.083071	0.002026	41.0048	-41.4769	11.7529	-0.032436	0.050979	-1.069498	-1.070855	-0.034701	41.0048	-1.068863	-1.913888E+14	1.813113E-16	NaN
451	1.000000	0.062359	7.36947e+06	-54539.1	1005.82	-29743.4	0.000000	0.000000	6.062760	-0.064204	NaN	0.000000	0.001612	0.001725	28.0788	0.109198	0.001987	54.9533	13.4894	-165.608	-0.062850	0.061048	-1.059475	-1.060785	-0.064204	54.9533	-1.058599	-1.393114E+14	4.608635E-16	NaN
451	1.000000	0.072320	7.36947e+06	-54539.1	1005.82	-29743.4	0.000000	0.000000	6.072723	-0.014822	NaN	0.000000	0.001609	0.001770	28.079	0.040070	0.001974	20.2994	112.044	13.7236	-0.009501	0.070989	-1.049514	-1.050845	-0.014822	20.2994	-1.048966	-1.033997E+14	1.433472E-16	NaN
451	1.000000	0.082369	7.36947e+06	-54539.1	1005.82	-29743.4	0.000000	0.000000	6.082769	-0.085837	NaN	0.000000	0.001633	0.001795	28.0791	0.084104	0.001987	42.3291	-7.099179	-165.652	-0.027573	0.081051	-1.039465	-1.040783	-0.085837	42.3291	-1.037944	-7.350656E+13	1.167753E-15	NaN
451	1.000000	0.092342	7.36947e+06	-54539.1	1005.82	-29743.4	0.000000	0.000000	6.092745	-0.028786	NaN	0.000000	0.001607	0.001792	28.0788	0.131822	0.001868	70.5497	-76.9632	17.3304	-0.069669	0.091001	-1.029492	-1.030833	-0.028786	70.5497	-1.029186	-5.604376E+13	5.136282E-16	NaN
451	1.000000	0.102384	7.36947e+06	-54539.1	1005.82	-29743.4	0.000000	0.000000	6.102787	-0.035317	NaN	0.000000	0.001590	0.001786	28.0788	0.024593	0.001963	12.5284	-91.1714	-163.732	-0.047819	0.101071	-1.019450	-1.020763	-0.035317	12.5284	-1.017336	-3.882404E+13	9.096691E-16	NaN
451	1.000000	0.112344	7.36947e+06	-54539.1	1005.82	-29743.4	0.000000	0.000000	6.112747	-0.033085	NaN	0.000000	0.001608	0.001798	28.079	0.103825	0.002094	49.5932	-101.318	13.4588	-0.040822	0.111007	-1.009490	-1.010827	-0.033085	49.5932	-1.008989	-2.997644E+13	1.103713E-15	NaN
451	1.000000	0.122375	7.36947e+06	-54539.1	1005.82	-29743.4	0.000000	0.000000	6.122778	-0.023571	NaN	0.000000	0.001607	0.001806	28.0788	0.062091	0.001880	33.0343	161.524	-166.891	-0.030513	0.120996	-0.999459	-1.000838	-0.023571	33.0343	-0.998924	-2.194223E+13	1.074224E-15	NaN
451	1.000000	0.132367	7.36947e+06	-54539.1	1005.82	-29743.4	0.000000	0.000000	6.132770	-0.009823	NaN	0.000000	0.001582	0.001795	28.0785	0.082306	0.002013	40.8781	38.3035	14.4774	-0.120353	0.131016	-0.989467	-0.990818	-0.009823	40.8781	-0.989287	-1.627463E+13	6.035808E-16	NaN
451	1.000000	0.142372	7.36947e+06	-54539.1	1005.82	-29743.4	0.000000	0.000000	6.142775	-0.013130	NaN	0.000000	0.001590	0.001792	28.0788	0.040892	0.001987	20.5848	-149.622	-167.886	-0.013438	0.141020	-0.979462	-0.980814	-0.013130	20.5848	-0.978984	-1.182277E+13	1.110536E-15	NaN
451	1.000000	0.152401	7.36947e+06	-54539.1	1005.82	-29743.4	0.000000	0.000000	6.152802	-0.090217	NaN	0.000000	0.001582	0.001756	28.079	0.103105	0.002097	49.1682	-101.911	14.751	-0.101643	0.151016	-0.969433	-0.970818	-0.090217	49.1682	-0.968056	-8.423016E+12	1.071080E-14	NaN
451	1.000000	0.162409	7.36947e+06	-54539.1	1005.82	-29743.4	0.000000	0.000000	6.162810	-0.063422	NaN	0.000000	0.001563	0.001762	28.079	0.108787	0.001979	54.9607	87.3163	-166.22	-0.104949	0.161105	-0.959425	-0.960729	-0.063422	54.9607	-0.958560	-6.272669E+12	1.011079E-14	NaN
451	1.000000	0.172395	7.36947e+06	-54539.1	1005.82	-29743.4	0.000000	0.000000	6.172795	-0.088969	NaN	0.000000	0.001596	0.001782	28.0788	0.078644	0.002000	39.3181	-31.6614	11.3965	-0.050797	0.171045	-0.949439	-0.950789	-0.088969	39.3181	-0.947742	-4.483017E+12	1.984574E-14	NaN
451	1.000000	0.182381	7.36947e+06	-54539.1	1005.82	-29743.4	0.000000	0.000000	6.182783	-0.053129	NaN	0.000000	0.001595	0.001766	28.08	0.053468	0.001957	27.3156	57.0485	-166.641	-0.040846	0.181054	-0.939453	-0.940780	-0.053129	27.3156	-0.937994	-3.311835E+12	1.604228E-14	NaN
451	1.000000	0.192407	7.36947e+06	-54539.1	1005.82	-29743.4	0.000000	0.000000	6.192811	-0.006163	NaN	0.000000	0.001603	0.001782	28.0801	0.041932	0.001874	22.3716	-110.396	18.2024	0.037294	0.191052	-0.929427	-0.930782	-0.006163	22.3716	-0.929220	-2.521555E+12	2.444246E-15	NaN
451	1.000000	0.202402	7.36947e+06	-54539.1	1005.82	-29743.4	0.000000	0.000000	6.202805	-0.024868	NaN	0.000000	0.001582	0.001761	28.08	0.070389	0.002094	33.6189	48.9101	-165.273	-0.049797	0.201143	-0.919432	-0.920691	-0.024868	33.6189	-0.918877	-1.828296E+12	1.360163E-14	NaN
451	1.000000	0.212417	7.36947e+06	-54539.1	1005.82	-29743.4	0.000000	0.000000	6.212818	-0.079557	NaN	0.000000	0.001586	0.001790	28.0801	0.105207	0.002139	49.191	2.440343	15.6019	-0.131176	0.211093	-0.909417	-0.910741	-0.079557	49.191	-0.908204	-1.311895E+12	6.064283E-14	NaN
451	1.000000	0.222428	7.36947e+06	-54539.1	1005.82	-29743.4	0.000000	0.000000	6.222830	-0.032715	NaN	0.000000	0.001625	0.001799	28.0803	0.041183	0.002092	19.6901	-9.232016	-164.896	0.012139	0.221111	-0.899406	-0.900723	-0.032715	19.6901	-0.898160	-9.598443E+11	3.408375E-14	NaN
451	1.000000	0.232428	7.36947e+06	-54539.1	1005.82	-29743.4	0.000000	0.000000	6.232827	-0.104967	NaN	0.000000	0.001632	0.001801	28.0801	0.060109	0.002011	29.8908	-178.595	15.394	-0.083915	0.231042	-0.889406	-0.890792	-0.104967	29.8908	-0.886772	-6.734097E+11	1.558744E-13	NaN
451	1.000000	0.242419	7.36947e+06	-54539.1	1005.82	-29743.4	0.000000	0.000000	6.242821	-0.044079	NaN	0.000000	0.001595	0.001759	28.0801	0.094012	0.002090	44.9768	120.833	-168.876	-0.051484	0.241113	-0.879415	-0.880721	-0.044079	44.9768	-0.878680	-5.234206E+11	8.421402E-14	NaN
451	1.000000	0.252418	7.36947e+06	-54539.1	1005.82	-29743.4	0.000000	0.000000	6.252818	-0.092477	NaN	0.000000	0.001571	0.001721	28.0802	0.062388	0.002097	29.7576	143.68	12.376	-0.086669	0.251035	-0.869416	-0.870799	-0.092477	29.7576	-0.867085	-3.647554E+11	2.535324E-13	NaN
451	1.000000	0.262430	7.36947e+06	-54539.1	1005.82	-29743.4	0.000000	0.000000	6.262833	-0.025394	NaN	0.000000	0.001607	0.001774	28.0803	0.127017	0.002063	61.5699	166.273	-167.363	0.055547	0.261119	-0.859404	-0.860715	-0.025394	61.5699	-0.859094	-2.843553E+11	8.930404E-14	NaN
451	1.000000	0.272459	7.36947e+06	-54539.1	1005.82	-29743.4	0.000000	0.000000	6.272861	-0.036565	NaN	0.000000	0.001600	0.001750	28.0802	0.044750	0.002062	21.6995	-74.3378	15.0171	-0.070525	0.271126	-0.849375	-0.850707	-0.036565	21.6995	-0.848111	-2.019094E+11	1.810975E-13	NaN
451	1.000000	0.282446	7.36947e+06	-54539.1	1005.82	-29743.4	0.000000	0.000000	6.282848	-0.046318	NaN	0.000000	0.001611	0.001783	28.0802	0.009149	0.001993	4.589659	79.4771	-164.055	-0.122263	0.281114	-0.839388	-0.840719	-0.046318	4.589659	-0.831819	-1.214622E+11	3.813348E-13	NaN
451	1.000000	0.292452	7.36947e+06	-54539.1	1005.82	-29743.4	0.000000	0.000000	6.292852	-0.080956	NaN	0.000000	0.001597	0.001792	28.0802	0.046775	0.001876	24.9363	118.775	9.967728	-0.014963	0.291081	-0.829382	-0.830753	-0.080956	24.9363	-0.826947	-1.043283E+11	7.759757E-13	NaN
451	1.000000	0.302472	7.36947e+06	-54539.1	1005.82	-29743.4	0.000000	0.000000	6.302873	-0.065359	NaN	0.000000	0.001583	0.001767	28.0802	0.134501	0.001987	67.6929	-97.5791	-164.576	-0.004796	0.301147	-0.819362	-0.820686	-0.065359	67.6929	-0.818638	-8.048970E+10	8.120184E-13	NaN
451	1.000000	0.312464	7.36947e+06	-54539.1	1005.82	-29743.4	0.000000	0.000000	6.312865	-0.072206	NaN	0.000000	0.001580	0.001822	28.0799	0.149328	0.002006	74.4294	-119.846	14.3317	-0.081517	0.311171	-0.809370	-0.810663	-0.072206	74.4294	-0.808642	-5.890461E+10	1.225810E-12	NaN
451	1.000000	0.322442	7.36947e+06	-54539.1	1005.82	-29743.4	0.000000	0.000000	6.322844	-0.056497	NaN	0.000000	0.001590	0.001771	28.0791	0.089987	0.002025	44.437	-179.691	-169.987	-0.048537	0.321173	-0.799391	-0.800661	-0.056497	44.437	-0.798438	-4.282107E+10	1.319363E-12	NaN
451	1.000000	0.332477	7.36947e+06	-54539.1	1005.82	-29743.4	0.000000	0.000000	6.332881	0.011099	NaN	0.000000	0.001564	0.001799	28.0792	0.118115	0.002000	59.0448	-142.672	12.2726	-0.021453	0.331120	-0.789357	-0.790714	0.011099	59.0448	-0.789498	-3.237943E+10	-3.427705E-13	NaN
451	1.000000	0.342479	7.36947e+06	-54539.1	1005.82	-29743.4	0.000000	0.000000	6.342882	-0.010674	NaN	0.000000	0.001560	0.001811	28.079	0.048122	0.001986	24.2281	131.732	-166.167	0.075764	0.341243	-0.779355	-0.780591	-0.010674	24.2281	-0.779025	-2.333351E+10	4.574456E-13	NaN
451	1.000000	0.352450	7.36947e+06	-54539.1	1005.82	-29743.4	0.000000	0.000000	6.352853	-0.037828	NaN	0.000000	0.001549	0.001802	28.0789	0.041246	0.002114	19.5122	28.5896	13.1222	-0.098336	0.351114	-0.769384	-0.770720	-0.037828	19.5122	-0.767930	-1.648751E+10	2.294331E-12	NaN
451	1.000000	0.362447	7.36947e+06	-54539.1	1005.82	-29743.4	0.000000	0.000000	6.362850	-0.008498	NaN	0.000000	0.001540	0.001811	28.0794	0.045253	0.001953	23.174	110.962	-167.374	-0.047284	0.361184	-0.759387	-0.760650	-0.008498	23.174	-0.759112	-1.250905E+10	6.793117E-13	NaN
451	1.000000	0.372501	7.36947e+06	-54539.1	1005.82	-29743.4	0.000000	0.000000	6.372902	-0.066656	NaN	0.000000	0.001557	0.001830	28.0788	0.075082	0.001959	38.3216	-176.669	14.681	0.002483	0.371145	-0.749333	-0.750689	-0.066656	38.3216	-0.748028	-8.838451E+9	7.541624E-12	NaN
451	1.000000	0.382484	7.36947e+06	-54539.1	1005.82	-29743.4	0.000000	0.000000	6.382888	-7.818338E-5	NaN	0.000000	0.001570	0.001792	28.0789	0.077579	0.001961	39.5607	12.2751	-165.946	0.006632	0.381148	-0.739350	-0.740686	-7.818338E-5	39.5607	-0.739348	-6.732537E+9	1.161277E-14	NaN
451	1.000000	0.392483	7.36947e+06	-54539.1	1005.82	-29743.4	0.000000	0.000000	6.392884	-0.054524	NaN	0.000000	0.001541	0.001796	28.0787	0.094290	0.001957	48.186	133.863	12.0345	-0.006499	0.391132	-0.729351	-0.730702	-0.054524	48.186	-0.728502	-4.790679E+9	1.138132E-11	NaN
451	1.000000	0.402519	7.36947e+06	-54539.1	1005.82	-29743.4	0.000000	0.000000	6.402920	-0.066684	NaN	0.000000	0.001558	0.001814	28.079	0.082858	0.002022	40.9809	-84.058	-165.568	0.065591	0.401241	-0.719315	-0.720592	-0.066684	40.9809	-0.718094	-3.455256E+9	1.929939E-11	NaN
451	1.000000	0.412474	7.36947e+06	-54539.1	1005.82	-29743.4	0.000000	0.000000	6.412876	-0.049419	NaN	0.000000	0.001539	0.001776	28.0787	0.076502	0.002067	37.0055	55.0811	14.557	-0.072475	0.411127	-0.709360	-0.710707	-0.049419	37.0055	-0.708358	-2.544716E+9	1.942011E-11	NaN
451	1.000000	0.422532	7.36947e+06	-54539.1	1005.82	-29743.4	0.000000	0.000000	6.422935	-0.019340	NaN	0.000000	0.001564	0.001759	28.0787	0.059256	0.001993	29.7339	91.0035	-167.093	-0.008868	0.421198	-0.699302	-0.700636	-0.019340	29.7339	-0.698814	-1.885111E+9	1.025954E-11	NaN
451	1.000000	0.432496	7.36947e+06	-54539.1	1005.82	-29743.4	0.000000	0.000000	6.432897	-0.071925	NaN	0.000000	0.001579	0.001787	28.079	0.074815	0.002051	36.4764	-49.7692	16.0333	-0.020886	0.431151	-0.689338	-0.690683	-0.071925	36.4764	-0.687859	-1.335523E+9	5.385547E-11	NaN
451	1.000000	0.442502	7.36947e+06	-54539.1	1005.82	-29743.4	0.000000	0.000000	6.442903	-0.079015	NaN	0.000000	0.001531	0.001756	28.0791	0.062193	0.001998	31.1345	-49.5412	-164.914	-0.116908	0.441206	-0.679332	-0.680628	-0.079015	31.1345	-0.677429	-9.616889E+8	8.216272E-11	NaN
451	1.000000	0.452532	7.36947e+06	-54539.1	1005.82	-29743.4	0.000000	0.000000	6.452935	-0.003087	NaN	0.000000	0.001542	0.001791	28.0798	0.070468	0.001976	35.6653	-70.4112	15.7825	0.015012	0.451190	-0.669302	-0.670644	-0.003087	35.6653	-0.669237	-7.429348E+8	4.155334E-12	NaN
451	1.000000	0.462530	7.36947e+06	-54539.1	1005.82	-29743.4	0.000000	0.000000	6.462933	-0.007745	NaN	0.000000	0.001575	0.001749	28.0801	0.122040	0.002038	59.8829	-108.445	-162.504	-0.005843	0.461210	-0.659304	-0.660624	-0.007745	59.8829	-0.659207	-5.415134E+8	1.430166E-11	NaN
451	1.000000	0.472515	7.36947e+06	-54539.1	1005.82	-29743.4	0.000000	0.000000	6.472919	-0.002119	NaN	0.000000	0.001606	0.001759	28.0803	0.011186	0.001962	5.700406	-164.481	11.5416	0.014734	0.471179	-0.649318	-0.650655	-0.002119	5.700406	-0.649040	-3.928896E+8	5.392832E-12	NaN
451	1.000000	0.482536	7.36947e+06	-54539.1	1005.82	-29743.4	0.000000	0.000000	6.482939	-0.017621	NaN	0.000000	0.001586	0.001758	28.08	0.045493	0.001971	23.0814	-72.2918	-166.058	0.000819	0.481246	-0.639298	-0.640588	-0.017621	23.0814	-0.638725	-2.836588E+8	6.212137E-11	NaN
451	1.000000	0.492529	7.36947e+06	-54539.1	1005.82	-29743.4	0.000000	0.000000	6.492932	-0.029012	NaN	0.000000	0.001546	0.001766	28.08	0.065422	0.002085	31.3713	119.144	12.8308	-0.093486	0.491144	-0.629305	-0.630690	-0.029012	31.3713	-0.628611	-2.060383E+8	1.408079E-10	NaN
451	1.000000	0.502527	7.36947e+06	-54539.1	1005.82	-29743.4	0.000000	0.000000	6.502928	-0.078740	NaN	0.000000	0.001564	0.001727	28.08	0.084053	0.002028	41.4413	54.5051	-164.751	-0.072990	0.501223	-0.619307	-0.620611	-0.078740	41.4413	-0.617882	-1.467275E+8	5.366424E-10	NaN
451	1.000000	0.512561	7.36947e+06	-54539.1	1005.82	-29743.4	0.000000	0.000000	6.512962	-0.073295	NaN	0.000000	0.001513	0.001818	28.0802	0.106741	0.002005	53.2455	39.2487	16.8416	-0.080405	0.511167	-0.609273	-0.610667	-0.073295	53.2455	-0.608241	-1.081207E+8	6.778965E-10	NaN
451	1.000000	0.522543	7.36947e+06	-54539.1	1005.82	-29743.4	0.000000	0.000000	6.522945	-0.055090	NaN	0.000000	0.001570	0.001808	28.08	0.074226	0.002132	34.8227	175.983	-165.76	-0.019044	0.521257	-0.599291	-0.600577	-0.055090	34.8227	-0.598104	-7.840622E+7	7.026223E-10	NaN
451	1.000000	0.532548	7.36947e+06	-54539.1	1005.82	-29743.4	0.000000	0.000000	6.532947	-0.103449	NaN	0.000000	0.001557	0.001820	28.0802	0.049337	0.002043	24.1532	-83.0692	11.6902	-0.164034	0.531179	-0.589286	-0.590654	-0.103449	24.1532	-0.586074	-5.352173E+7	1.932838E-9	NaN
451	1.000000	0.542565	7.36947e+06	-54539.1	1005.82	-29743.4	0.000000	0.000000	6.542970	0.032949	NaN	0.000000	0.001584	0.001774	28.0801	0.101841	0.001961	51.9325	-59.387	-165.489	0.047787	0.541224	-0.579269	-0.580610	0.032949	51.9325	-0.579745	-4.377306E+7	-7.527175E-10	NaN
451	1.000000	0.552548	7.36947e+06	-54539.1	1005.82	-29743.4	0.000000	0.000000	6.552948	-0.084985	NaN	0.000000	0.001568	0.001829	28.0802	0.059245	0.002066	28.6754	138.458	14.8397	-0.035246	0.551214	-0.569286	-0.570620	-0.084985	28.6754	-0.567063	-2.924475E+7	2.906008E-9	NaN
451	1.000000	0.562558	7.36947e+06	-54539.1	1005.82	-29743.4	0.000000	0.000000	6.562959	-0.064408	NaN	0.000000	0.001552	0.001792	28.0804	0.125360	0.002026	61.8838	0.593355	-166.256	-0.027178	0.561255	-0.559276	-0.560579	-0.064408	61.8838	-0.558495	-2.226171E+7	2.893205E-9	NaN
451	1.000000	0.572550	7.36947e+06	-54539.1	1005.82	-29743.4	0.000000	0.000000	6.572949	-0.117133	NaN	0.000000	0.001562	0.001765	28.0802	0.063257	0.001966	32.1695	-8.459110	8.983363	-0.017489	0.571245	-0.549284	-0.550589	-0.117133	32.1695	-0.546553	-1.521249E+7	7.699797E-9	NaN
451	1.000000	0.582570	7.36947e+06	-54539.1	1005.82	-29743.4	0.000000	0.000000	6.582970	-0.088450	NaN	0.000000	0.001555	0.001766	28.0803	0.065392	0.001921	34.0378	80.7404	-169.309	-0.106723	0.581278	-0.539264	-0.540556	-0.088450	34.0378	-0.537315	-1.132696E+7	7.808807E-9	NaN
451	1.000000	0.592571	7.36947e+06	-54539.1	1005.82	-29743.4	0.000000	0.000000	6.592974	-0.011099	NaN	0.000000	0.001536	0.001783	28.079	0.061455	0.002064	29.7735	168.023	14.716	-0.020665	0.591240	-0.529263	-0.530594	-0.011099	29.7735	-0.528984	-8.67882e+06	1.278912E-9	NaN
451	1.000000	0.602578	7.36947e+06	-54539.1	1005.82	-29743.4	0.000000	0.000000	6.602981	-0.024320	NaN	0.000000	0.001538	0.001758	28.0789	0.022400	0.001909	11.7333	-157.85	-164.845	-0.023829	0.601287	-0.519256	-0.520547	-0.024320	11.7333	-0.517701	-6.04814e+06	4.021085E-9	NaN
451	1.000000	0.612550	7.36947e+06	-54539.1	1005.82	-29743.4	0.000000	0.000000	6.612954	-0.001362	NaN	0.000000	0.001582	0.001771	28.0789	0.031197	0.001969	15.8407	78.6403	12.9464	0.018499	0.611221	-0.509284	-0.510613	-0.001362	15.8407	-0.509220	-4.60835e+06	2.954673E-10	NaN
451	1.000000	0.622591	7.36947e+06	-54539.1	1005.82	-29743.4	0.000000	0.000000	6.622991	-0.097163	NaN	0.000000	0.001550	0.001773	28.079	0.095925	0.001973	48.6285	54.1282	-169.614	-0.048094	0.621309	-0.499243	-0.500524	-0.097163	48.6285	-0.497744	-3.18817e+06	3.047619E-8	NaN
451	1.000000	0.632585	7.36947e+06	-54539.1	1005.82	-29743.4	0.000000	0.000000	6.632986	-0.059381	NaN	0.000000	0.001558	0.001797	28.0789	0.052613	0.001965	26.7802	-78.0022	15.5962	-0.067948	0.631217	-0.489249	-0.490617	-0.059381	26.7802	-0.487586	-2.2996e+06	2.582233E-8	NaN
451	1.000000	0.642620	7.36947e+06	-54539.1	1005.82	-29743.4	0.000000	0.000000	6.643021	-0.080570	NaN	0.000000	0.001536	0.001782	28.0789	0.064033	0.002021	31.6809	9.558149	-165.093	-0.099393	0.641308	-0.479214	-0.480526	-0.080570	31.6809	-0.477306	-1.65123e+06	4.879402E-8	NaN
451	1.000000	0.652598	7.36947e+06	-54539.1	1005.82	-29743.4	0.000000	0.000000	6.652999	-0.066202	NaN	0.000000	0.001566	0.001778	28.0794	0.051828	0.002098	24.7087	-111.35	14.9185	-0.023930	0.651259	-0.469236	-0.470575	-0.066202	24.7087	-0.467226	-1.19261e+06	5.550999E-8	NaN
451	1.000000	0.662628	7.36947e+06	-54539.1	1005.82	-29743.4	0.000000	0.000000	6.663028	-0.094050	NaN	0.000000	0.001572	0.001795	28.0789	0.079909	0.002033	39.3027	49.8159	-162.562	0.005117	0.661348	-0.459205	-0.460486	-0.094050	39.3027	-0.457411	-868204	1.083277E-7	NaN
451	1.000000	0.672604	7.36947e+06	-54539.1	1005.82	-29743.4	0.000000	0.000000	6.673006	-0.031901	NaN	0.000000	0.001555	0.001789	28.0791	0.022106	0.002027	10.9067	-113.621	15.2201	0.011657	0.671254	-0.449230	-0.450580	-0.031901	10.9067	-0.447036	-620289	5.142973E-8	NaN
451	1.000000	0.682609	7.36947e+06	-54539.1	1005.82	-29743.4	0.000000	0.000000	6.683009	-0.074999	NaN	0.000000	0.001595	0.001796	28.0789	0.142632	0.001972	72.3425	-111.621	-169.087	-0.032554	0.681336	-0.439225	-0.440498	-0.074999	72.3425	-0.438448	-469303	1.598102E-7	NaN
451	1.000000	0.692618	7.36947e+06	-54539.1	1005.82	-29743.4	0.000000	0.000000	6.693019	-0.073420	NaN	0.000000	0.001549	0.001771	28.0792	0.051786	0.001959	26.4284	106.481	14.4157	-0.008243	0.691242	-0.429215	-0.430592	-0.073420	26.4284	-0.427132	-324693	2.261231E-7	NaN
451	1.000000	0.702628	7.36947e+06	-54539.1	1005.82	-29743.4	0.000000	0.000000	6.703027	-0.113599	NaN	0.000000	0.001591	0.001776	28.0787	0.068359	0.001952	35.0177	119.838	-167.168	-0.020139	0.701306	-0.419206	-0.420528	-0.113599	35.0177	-0.416773	-231544	4.906148E-7	NaN
451	1.000000	0.712622	7.36947e+06	-54539.1	1005.82	-29743.4	0.000000	0.000000	6.713024	-0.045370	NaN	0.000000	0.001543	0.001773	28.079	0.036911	0.002005	18.4071	-89.6644	15.6398	-0.041532	0.711290	-0.409212	-0.410543	-0.045370	18.4071	-0.407363	-170173	2.666126E-7	NaN
451	1.000000	0.722607	7.36947e+06	-54539.1	1005.82	-29743.4	0.000000	0.000000	6.723011	-0.009100	NaN	0.000000	0.001554	0.001774	28.0794	0.080769	0.001966	41.0922	-26.0366	-169.277	0.066036	0.721339	-0.399227	-0.400494	-0.009100	41.0922	-0.399061	-129598	7.021742E-8	NaN
451	1.000000	0.732609	7.36947e+06	-54539.1	1005.82	-29743.4	0.000000	0.000000	6.733011	-0.025374	NaN	0.000000	0.001548	0.001817	28.0801	0.090603	0.002029	44.6494	52.0746	13.9386	-0.033234	0.731263	-0.389225	-0.390571	-0.025374	44.6494	-0.388799	-92466.5	2.744153E-7	NaN
451	1.000000	0.742631	7.36947e+06	-54539.1	1005.82	-29743.4	0.000000	0.000000	6.743033	-0.041672	NaN	0.000000	0.001543	0.001807	28.0802	0.149187	0.001987	75.0758	-43.7436	-165.339	-0.065132	0.741344	-0.379203	-0.380490	-0.041672	75.0758	-0.378786	-66446	6.271628E-7	NaN
451	1.000000	0.752644	7.36947e+06	-54539.1	1005.82	-29743.4	0.000000	0.000000	6.753046	-0.057740	NaN	0.000000	0.001521	0.001798	28.0801	0.053074	0.001963	27.035	-168.049	15.6927	-0.072791	0.751296	-0.369190	-0.370538	-0.057740	27.035	-0.367588	-45853.7	1.259215E-6	NaN
451	1.000000	0.762667	7.36947e+06	-54539.1	1005.82	-29743.4	0.000000	0.000000	6.763068	-0.086520	NaN	0.000000	0.001518	0.001805	28.0805	0.033562	0.002091	16.0526	-49.3307	-163.298	-0.062715	0.761381	-0.359167	-0.360453	-0.086520	16.0526	-0.355124	-30289.9	2.856407E-6	NaN
451	1.000000	0.772642	7.36947e+06	-54539.1	1005.82	-29743.4	0.000000	0.000000	6.773044	-0.038982	NaN	0.000000	0.001507	0.001801	28.08	0.146783	0.002107	69.6614	-87.3748	15.7283	-0.043199	0.771335	-0.349192	-0.350498	-0.038982	69.6614	-0.348772	-24500.6	1.591072E-6	NaN
451	1.000000	0.782675	7.36947e+06	-54539.1	1005.82	-29743.4	0.000000	0.000000	6.783077	-0.063668	NaN	0.000000	0.001472	0.001790	28.0799	0.067358	0.001906	35.3322	-46.2779	-164.176	-0.052692	0.781297	-0.339158	-0.340537	-0.063668	35.3322	-0.337807	-16965.7	3.752787E-6	NaN
451	1.000000	0.792655	7.36947e+06	-54539.1	1005.82	-29743.4	0.000000	0.000000	6.793059	0.005495	NaN	0.000000	0.001474	0.001766	28.0803	0.057054	0.002007	28.4229	137.65	13.0438	-0.003288	0.791294	-0.329179	-0.330540	0.005495	28.4229	-0.329324	-12751	-4.309222E-7	NaN
451	1.000000	0.802667	7.36947e+06	-54539.1	1005.82	-29743.4	0.000000	0.000000	6.803068	-0.065687	NaN	0.000000	0.001491	0.001789	28.0801	0.114891	0.001928	59.588	179.863	-167.546	-0.094402	0.801310	-0.319167	-0.320524	-0.065687	59.588	-0.318340	-8794.26	7.469252E-6	NaN
451	1.000000	0.812653	7.36947e+06	-54539.1	1005.82	-29743.4	0.000000	0.000000	6.813054	-0.077879	NaN	0.000000	0.001499	0.001800	28.08	0.166220	0.002026	82.051	177.21	13.0712	-0.087527	0.811242	-0.309181	-0.310592	-0.077879	82.051	-0.308469	-6286.24	1.238881E-5	NaN
451	1.000000	0.822663	7.36947e+06	-54539.1	1005.82	-29743.4	0.000000	0.000000	6.823064	-0.065397	NaN	0.000000	0.001548	0.001776	28.0802	0.059667	0.002028	29.4214	39.5967	-166.229	-0.071046	0.821395	-0.299171	-0.300439	-0.065397	29.4214	-0.297504	-4319.68	1.513922E-5	NaN
451	1.000000	0.832688	7.36947e+06	-54539.1	1005.82	-29743.4	0.000000	0.000000	6.833088	-0.082960	NaN	0.000000	0.001548	0.001781	28.0803	0.025946	0.001806	14.3647	-146.055	10.0466	0.013672	0.831311	-0.289146	-0.290523	-0.082960	14.3647	-0.284815	-2789.2	2.974340E-5	NaN
451	1.000000	0.842668	7.36947e+06	-54539.1	1005.82	-29743.4	0.000000	0.000000	6.843070	-0.044449	NaN	0.000000	0.001507	0.001860	28.0803	0.103611	0.002098	49.3828	142.007	-169.181	-0.081988	0.841334	-0.279166	-0.280499	-0.044449	49.3828	-0.278491	-2239.71	1.984586E-5	NaN
451	1.000000	0.852685	7.36947e+06	-54539.1	1005.82	-29743.4	0.000000	0.000000	6.853088	-0.011386	NaN	0.000000	0.001549	0.001840	28.0801	0.074372	0.001906	39.0191	-53.772	16.8466	-0.124895	0.851344	-0.269149	-0.270490	-0.011386	39.0191	-0.268930	-1604.28	7.096962E-6	NaN
451	1.000000	0.862665	7.36947e+06	-54539.1	1005.82	-29743.4	0.000000	0.000000	6.863068	-0.017362	NaN	0.000000	0.001518	0.001826	28.0791	0.024653	0.001843	13.3752	-74.0993	-165.267	-0.115128	0.861372	-0.259169	-0.260462	-0.017362	13.3752	-0.258196	-1099.62	1.578892E-5	NaN
451	1.000000	0.872712	7.36947e+06	-54539.1	1005.82	-29743.4	0.000000	0.000000	6.873113	-0.062537	NaN	0.000000	0.001472	0.001759	28.079	0.010176	0.001965	5.179890	-130.053	16.0102	-0.078674	0.871348	-0.249122	-0.250486	-0.062537	5.179890	-0.240067	-576.234	0.000109	NaN
451	1.000000	0.882686	7.36947e+06	-54539.1	1005.82	-29743.4	0.000000	0.000000	6.883087	-0.050245	NaN	0.000000	0.001478	0.001754	28.0791	0.055785	0.001951	28.5941	147.756	-166.029	-0.026529	0.881371	-0.239148	-0.240463	-0.050245	28.5941	-0.237830	-531.65	9.450767E-5	NaN
451	1.000000	0.892703	7.36947e+06	-54539.1	1005.82	-29743.4	0.000000	0.000000	6.893105	-0.048221	NaN	0.000000	0.001486	0.001761	28.079	0.069446	0.002055	33.7856	-157.821	17.8865	-0.025562	0.891372	-0.229131	-0.230462	-0.048221	33.7856	-0.228060	-373.127	0.000129	NaN
451	1.000000	0.902692	7.36947e+06	-54539.1	1005.82	-29743.4	0.000000	0.000000	6.903093	-0.054962	NaN	0.000000	0.001516	0.001768	28.0794	0.052946	0.001852	28.5807	-56.8038	-164.964	0.008122	0.901377	-0.219142	-0.220457	-0.054962	28.5807	-0.217700	-255.189	0.000215	NaN
451	1.000000	0.912722	7.36947e+06	-54539.1	1005.82	-29743.4	0.000000	0.000000	6.913126	0.022964	NaN	0.000000	0.001509	0.001782	28.0788	0.047334	0.001984	23.8598	-115.727	17.8476	0.007615	0.911371	-0.209112	-0.210463	0.022964	23.8598	-0.209834	-190.604	-0.000120	NaN
451	1.000000	0.922710	7.36947e+06	-54539.1	1005.82	-29743.4	0.000000	0.000000	6.923113	-0.018338	NaN	0.000000	0.001494	0.001802	28.079	0.043359	0.002058	21.0685	-67.7486	-165.71	0.005071	0.921438	-0.199124	-0.200396	-0.018338	21.0685	-0.198471	-124.321	0.000148	NaN
451	1.000000	0.932759	7.36947e+06	-54539.1	1005.82	-29743.4	0.000000	0.000000	6.933159	-0.105398	NaN	0.000000	0.001533	0.001849	28.0788	0.091732	0.001998	45.9233	178.308	16.6043	-0.105291	0.931380	-0.189075	-0.190454	-0.105398	45.9233	-0.187354	-81.23	0.001298	NaN
451	1.000000	0.942735	7.36947e+06	-54539.1	1005.82	-29743.4	0.000000	0.000000	6.943134	-0.128436	NaN	0.000000	0.001502	0.001810	28.0793	0.037791	0.001980	19.0888	169.349	-169.712	-0.145666	0.941413	-0.179099	-0.180420	-0.128436	19.0888	-0.174052	-48.2704	0.002661	NaN
451	1.000000	0.952717	7.36947e+06	-54539.1	1005.82	-29743.4	0.000000	0.000000	6.953118	-0.072811	NaN	0.000000	0.001532	0.001823	28.0788	0.101496	0.001876	54.0897	133.922	12.0459	0.031818	0.951388	-0.169117	-0.170446	-0.072811	54.0897	-0.168107	-38.0784	0.001912	NaN
451	1.000000	0.962740	7.36947e+06	-54539.1	1005.82	-29743.4	0.000000	0.000000	6.963138	-0.133805	NaN	0.000000	0.001526	0.001796	28.0793	0.032888	0.002061	15.957	39.8678	-170.789	-0.111037	0.961460	-0.159094	-0.160374	-0.133805	15.957	-0.152805	-20.3687	0.006569	NaN
451	1.000000	0.972748	7.36947e+06	-54539.1	1005.82	-29743.4	0.000000	0.000000	6.973150	-0.064687	NaN	0.000000	0.001533	0.001803	28.079	0.091183	0.002082	43.7944	92.8585	14.7226	-0.115210	0.971327	-0.149085	-0.150506	-0.064687	43.7944	-0.147978	-16.6348	0.003889	NaN
451	1.000000	0.982716	7.36947e+06	-54539.1	1005.82	-29743.4	0.000000	0.000000	6.983115	-0.124273	NaN	0.000000	0.001543	0.001761	28.0791	0.159007	0.001856	85.6875	89.9808	-165.47	-0.037107	0.981420	-0.139118	-0.140413	-0.124273	85.6875	-0.138030	-10.8605	0.011443	NaN
451	1.000000	0.992771	7.36947e+06	-54539.1	1005.82	-29743.4	0.000000	0.000000	6.993176	0.021568	NaN	0.000000	0.001533	0.001743	28.0787	0.018705	0.002017	9.271763	6.087816	11.5379	0.022195	0.991344	-0.129063	-0.130490	0.021568	9.271763	-0.130807	-7.900790	-0.002730	NaN
451	1.000000	1.002736	7.36947e+06	-54539.1	1005.82	-29743.4	0.000000	0.000000	7.003140	-0.013717	NaN	0.000000	0.001533	0.001739	28.0802	0.023204	0.002011	11.5406	77.1122	-167.661	0.010433	1.001476	-0.119098	-0.120357	-0.013717	11.5406	-0.118206	-4.443701	0.003087	NaN
451	1.000000	1.012760	7.36947e+06	-54539.1	1005.82	-29743.4	0.000000	0.000000	7.013159	-0.102068	NaN	0.000000	0.001546	0.001773	28.0802	0.085959	0.001919	44.7836	105.581	14.0773	-0.037873	1.011395	-0.109074	-0.110439	-0.102068	44.7836	-0.107365	-2.642187	0.038630	NaN
451	1.000000	1.022755	7.36947e+06	-54539.1	1005.82	-29743.4	0.000000	0.000000	7.023157	-0.045524	NaN	0.000000	0.001548	0.001801	28.0802	0.013227	0.001909	6.928529	11.0397	-166.847	-0.036711	1.021467	-0.099078	-0.100367	-0.045524	6.928529	-0.094151	-1.349005	0.033746	NaN
451	1.000000	1.032737	7.36947e+06	-54539.1	1005.82	-29743.4	0.000000	0.000000	7.033137	-0.099607	NaN	0.000000	0.001547	0.001796	28.0801	0.076757	0.001954	39.283	-6.795013	11.4649	-0.132805	1.031379	-0.089097	-0.090454	-0.099607	39.283	-0.087195	-0.927768	0.107361	NaN
451	1.000000	1.042779	7.36947e+06	-54539.1	1005.82	-29743.4	0.000000	0.000000	7.043181	-0.060854	NaN	0.000000	0.001581	0.001797	28.0802	0.159615	0.002015	79.2156	-147.058	-168.763	-0.075424	1.041443	-0.079055	-0.080391	-0.060854	79.2156	-0.078479	-0.566820	0.107361	NaN
451	1.000000	1.052743	7.36947e+06	-54539.1	1005.82	-29743.4	0.000000	0.000000	7.053146	-0.014187	NaN	0.000000	0.001610	0.001780	28.0802	0.117966	0.001904	61.9686	19.6672	12.1376	0.041747	1.051423	-0.069091	-0.070411	-0.014187	61.9686	-0.068919	-0.319033	0.044469	NaN
451	1.000000	1.062749	7.36947e+06	-54539.1	1005.82	-29743.4	0.000000	0.000000	7.063149	-0.102880	NaN	0.000000	0.001637	0.001784	28.0801	0.116398	0.001915	60.7873	40.4793	-166.875	-0.068187	1.061473	-0.059084	-0.060361	-0.102880	60.7873	-0.057815	-0.155735	0.660607	NaN
451	1.000000	1.072761	7.36947e+06	-54539.1	1005.82	-29743.4	0.000000	0.000000	7.073162	-0.062559	NaN	0.000000	0.001653	0.001772	28.0802	0.044320	0.001844	24.0401	-16.0224	13.6469	-0.007815	1.071424	-0.049073	-0.050410	-0.062559	24.0401	-0.047122	-0.074610	0.838490	NaN
451	1.000000	1.082795	7.36947e+06	-54539.1	1005.82	-29743.4	0.000000	0.000000	7.083195	-0.093979	NaN	0.000000	0.001668	0.001809	28.0804	0.066536	0.001989	33.4596	32.1232	-166.225	-0.055724	1.081487	-0.039039	-0.040347	-0.093979	33.4596	-0.036933	-0.036547	2.571439	NaN
451	1.000000	1.092766	7.36947e+06	-54539.1	1005.82	-29743.4	0.000000	0.000000	7.093169	-0.038638	NaN	0.000000	0.001620	0.001777	28.0802	0.086870	0.001964	44.2403	-85.6649	14.6634	-0.006541	1.091409	-0.029068	-0.030425	-0.038638	44.2403	-0.028413	-0.020806	1.857047	NaN
451	1.000000	1.102787	7.36947e+06	-54539.1	1005.82	-29743.4	0.000000	0.000000	7.103186	-0.106831	NaN	0.000000	0.001645	0.001733	28.0798	0.046509	0.001964	23.686	158.163	-165.984	-0.036069	1.101495	-0.019047	-0.020338	-0.106831	23.686	-0.015664	-0.009677	11.0395	NaN
451	1.000000	1.112766	7.36947e+06	-54539.1	1005.82	-29743.4	0.000000	0.000000	7.113169	-0.003826	NaN	0.000000	0.001617	0.001763	28.0801	0.053782	0.002067	26.0184	174.457	10.3278	-0.073267	1.111442	-0.009068	-0.010392	-0.003826	26.0184	-0.008958	-0.005789	0.660958	NaN
451	1.000000	1.122761	7.36947e+06	-54539.1	1005.82	-29743.4	0.000000	0.000000	7.123186	0.519911	NaN	0.000000	0.001569	0.001790	28.0803	0.876219	0.001955	448.088	11.5762	-165.81	0.115668	1.121413	0.000927	-0.000421	0.519911	448.088	5.705536E-5	4.268512E-5	12180.1	62661.1
451	2.000000	1.131790	7.36947e+06	-54539.1	1005.82	-29743.4	0.000000	0.000000	7.132545	8.528849	NaN	0.000000	0.001556	0.001784	28.0796	9.150524	0.001684	5433.4	13.2388	2.323490	8.292933	1.131233	0.009956	0.009399	8.528849	5433.4	0.008779	0.007856	1085.66	56007.6
451	2.000000	1.134282	7.36947e+06	-54539.1	1005.82	-29743.4	0.000000	0.000000	7.135190	12.2734	NaN	0.000000	0.001559	0.001753	28.079	11.2716	0.001719	6555.44	5.261580	-171.465	11.4835	1.134012	0.012448	0.012178	12.2734	6555.44	0.011043	0.010364	1184.19	58830.7
451	2.000000	1.136751	7.36947e+06	-54539.1	1005.82	-29743.4	0.000000	0.000000	7.137824	16.2785	NaN	0.000000	0.001577	0.001788	28.0792	14.3669	0.001746	8229.6	7.310429	2.947625	15.0322	1.136439	0.014917	0.014605	16.2785	8229.6	0.013433	0.013253	1228.32	65313.1
451	2.000000	1.139282	7.36947e+06	-54539.1	1005.82	-29743.4	0.000000	0.000000	7.140521	20.2942	NaN	0.000000	0.001584	0.001812	28.0791	17.488	0.001853	9436.88	10.1984	-179.637	20.3763	1.138952	0.017448	0.017118	20.2942	9436.88	0.015835	0.016415	1236.3	67294.3
451	2.000000	1.141749	7.36947e+06	-54539.1	1005.82	-29743.4	0.000000	0.000000	7.143245	26.5415	NaN	0.000000	0.001609	0.001788	28.0789	19.1884	0.001717	11177.6	3.607755	4.513256	24.1618	1.141444	0.019916	0.019610	26.5415	11177.6	0.018135	0.019695	1347.6	72767.6
451	2.000000	1.144211	7.36947e+06	-54539.1	1005.82	-29743.4	0.000000	0.000000	7.145939	32.1827	NaN	0.000000	0.001555	0.001785	28.0788	21.7401	0.001835	11845.4	7.417875	-179.145	30.2563	1.143927	0.022378	0.022093	32.1827	11845.4	0.020340	0.023079	1394.45	71238.5
451	2.000000	1.146747	7.36947e+06	-54539.1	1005.82	-29743.4	0.000000	0.000000	7.148771	39.397	NaN	0.000000	0.001562	0.001779	28.0791	24.16	0.001769	13654.1	8.673337	-2.169510	38.3099	1.146372	0.024913	0.024538	39.397	13654.1	0.022749	0.027047	1456.61	75853.8
451	2.000000	1.149218	7.36947e+06	-54539.1	1005.82	-29743.4	0.000000	0.000000	7.151507	45.8314	NaN	0.000000	0.001555	0.001761	28.0787	27.2044	0.001830	14865	3.302611	-177.784	43.6237	1.148937	0.027384	0.027103	45.8314	14865	0.025071	0.031146	1471.51	76955.5
451	2.000000	1.151764	7.36947e+06	-54539.1	1005.82	-29743.4	0.000000	0.000000	7.154446	55.3714	NaN	0.000000	0.001547	0.001779	28.0789	29.5735	0.001789	16528.3	8.229265	-2.223120	54.3199	1.151333	0.029930	0.029499	55.3714	16528.3	0.027418	0.035561	1557.08	80078.5
451	2.000000	1.154233	7.36947e+06	-54539.1	1005.82	-29743.4	0.000000	0.000000	7.157188	61.9992	NaN	0.000000	0.001569	0.001757	28.0789	32.2754	0.001817	17763.8	4.979928	178.927	62.6207	1.153874	0.032400	0.032040	61.9992	17763.8	0.029782	0.040293	1538.71	80852.5
451	2.000000	1.156705	7.36947e+06	-54539.1	1005.82	-29743.4	0.000000	0.000000	7.160100	72.7138	NaN	0.000000	0.001559	0.001769	28.0791	35.0527	0.001792	19556	5.947431	-3.407172	69.8658	1.156357	0.034871	0.034523	72.7138	19556	0.032083	0.045171	1609.73	84066.3
451	2.000000	1.159184	7.36947e+06	-54539.1	1005.82	-29743.4	0.000000	0.000000	7.163022	83.4661	NaN	0.000000	0.001583	0.001748	28.0789	37.2925	0.001824	20443.4	5.525994	177.606	80.9615	1.158818	0.037351	0.036984	83.4661	20443.4	0.034288	0.050102	1665.92	83444.7
451	2.000000	1.161748	7.36947e+06	-54539.1	1005.82	-29743.4	0.000000	0.000000	7.165886	90.7869	NaN	0.000000	0.001553	0.001742	28.079	39.0213	0.001669	23385.1	3.569614	-2.788571	89.2024	1.161387	0.039914	0.039553	90.7869	23385.1	0.037003	0.056511	1606.52	89876.1
451	2.000000	1.164218	7.36947e+06	-54539.1	1005.82	-29743.4	0.000000	0.000000	7.168836	102.448	NaN	0.000000	0.001555	0.001752	28.079	40.8704	0.001743	23454.1	2.967258	178.331	101.336	1.163852	0.042384	0.042018	102.448	23454.1	0.039108	0.061743	1659.27	86238.3
451	2.000000	1.166737	7.36947e+06	-54539.1	1005.82	-29743.4	0.000000	0.000000	7.171786	112.92	NaN	0.000000	0.001508	0.001791	28.0801	42.761	0.001645	25998.7	3.161229	-2.896687	111.633	1.166352	0.044903	0.044518	112.92	25998.7	0.041646	0.068351	1652.07	90855.9
451	2.000000	1.169183	7.36947e+06	-54539.1	1005.82	-29743.4	0.000000	0.000000	7.174685	123.928	NaN	0.000000	0.001547	0.001741	28.0798	47.519	0.001840	25823.4	4.890822	175.218	121.562	1.168837	0.047349	0.047003	123.928	25823.4	0.043750	0.074078	1672.94	86684.5
451	2.000000	1.171781	7.36947e+06	-54539.1	1005.82	-29743.4	0.000000	0.000000	7.177737	134.963	NaN	0.000000	0.001568	0.001755	28.0799	49.0063	0.001718	28531.8	3.863346	-4.108010	134.775	1.171367	0.049947	0.049533	134.963	28531.8	0.046400	0.081610	1653.75	91249.3
451	2.000000	1.174180	7.36947e+06	-54539.1	1005.82	-29743.4	0.000000	0.000000	7.180595	146.142	NaN	0.000000	0.001561	0.001803	28.0801	52.1784	0.001845	28279.1	5.786869	173.972	144.687	1.173862	0.052346	0.052028	146.142	28279.1	0.048470	0.087744	1665.56	87223
451	2.000000	1.176711	7.36947e+06	-54539.1	1005.82	-29743.4	0.000000	0.000000	7.183634	158.479	NaN	0.000000	0.001541	0.001772	28.08	54.9942	0.001824	30156.7	7.037672	-8.477462	156.558	1.176382	0.054877	0.054548	158.479	30156.7	0.050936	0.095327	1662.47	89237.6
451	2.000000	1.179163	7.36947e+06	-54539.1	1005.82	-29743.4	0.000000	0.000000	7.186692	173.228	NaN	0.000000	0.001534	0.001766	28.0798	56.4742	0.001803	31322.1	3.275887	176.486	172.651	1.178865	0.057329	0.057032	173.228	31322.1	0.053181	0.102498	1690.06	89385.4
451	2.000000	1.181652	7.36948e+06	-54539.1	1005.82	-29743.4	0.000000	0.000000	7.189869	189.929	NaN	0.000000	0.001527	0.001773	28.0799	57.6181	0.001737	33161.7	3.464068	-4.053159	185.846	1.181212	0.059818	0.059378	189.929	33161.7	0.055523	0.110245	1722.79	91249.4
451	2.000000	1.184177	7.36948e+06	-54539.1	1005.82	-29743.4	0.000000	0.000000	7.192964	203.812	NaN	0.000000	0.001602	0.001796	28.08	60.999	0.001763	34607.1	6.421966	172.753	201.772	1.183756	0.062343	0.061922	203.812	34607.1	0.057926	0.118476	1720.28	91859.4
451	2.000000	1.186698	7.36948e+06	-54539.1	1005.82	-29743.4	0.000000	0.000000	7.195814	211.792	NaN	0.000000	0.001607	0.001793	28.0799	63.9876	0.001773	36085.4	4.576075	-6.321012	210.954	1.186308	0.064864	0.064474	211.792	36085.4	0.060462	0.127470	1661.51	92342.3
451	2.000000	1.189211	7.36948e+06	-54539.1	1005.82	-29743.4	0.000000	0.000000	7.198871	225.01	NaN	0.000000	0.001591	0.001781	28.0802	66.7627	0.001874	35624.8	3.723022	174.073	225.299	1.188848	0.067377	0.067014	225.01	35624.8	0.062640	0.135446	1661.25	88438.6
451	2.000000	1.191626	7.36948e+06	-54539.1	1005.82	-29743.4	0.000000	0.000000	7.202069	244.05	NaN	0.000000	0.001590	0.001747	28.0801	67.8111	0.001791	37852.2	2.410276	-4.732043	239.639	1.191290	0.069792	0.069456	244.05	37852.2	0.064957	0.144180	1692.67	91077.6
451	2.000000	1.194146	7.36948e+06	-54539.1	1005.82	-29743.4	0.000000	0.000000	7.205136	257.347	NaN	0.000000	0.001577	0.001785	28.0801	70.1691	0.001859	37744.8	7.362193	171.011	255.322	1.193783	0.072312	0.071949	257.347	37744.8	0.067199	0.152879	1683.34	88197.3
451	2.000000	1.196653	7.36948e+06	-54539.1	1005.82	-29743.4	0.000000	0.000000	7.208135	269.307	NaN	0.000000	0.001540	0.001802	28.0802	72.4721	0.001778	40766.7	2.704901	-6.011263	267.546	1.196392	0.074819	0.074558	269.307	40766.7	0.069865	0.163538	1646.75	92102.1
451	2.000000	1.199152	7.36948e+06	-54539.1	1005.82	-29743.4	0.000000	0.000000	7.211379	287.418	NaN	0.000000	0.001606	0.001734	28.0799	75.1841	0.001846	40739	2.039136	174.656	285.105	1.198819	0.077318	0.076985	287.418	40739	0.072027	0.172430	1666.87	89635
451	2.000000	1.201630	7.36948e+06	-54539.1	1005.82	-29743.4	0.000000	0.000000	7.214717	308.334	NaN	0.000000	0.001618	0.001767	28.0791	76.1303	0.001833	41531.3	3.173326	-5.867962	302.602	1.201302	0.079796	0.079468	308.334	41531.3	0.074228	0.181711	1696.84	89014
451	2.000000	1.204171	7.36948e+06	-54539.1	1005.82	-29743.4	0.000000	0.000000	7.217728	319.757	NaN	0.000000	0.001577	0.001786	28.0786	78.3312	0.001766	44346.8	5.231544	171.539	320.461	1.203825	0.082337	0.081991	319.757	44346.8	0.076929	0.193412	1653.24	92128.5
451	2.000000	1.206742	7.36948e+06	-54539.1	1005.82	-29743.4	0.000000	0.000000	7.220978	336.257	NaN	0.000000	0.001577	0.001802	28.0791	81.7042	0.001989	41086.5	4.573856	-7.391753	339.144	1.206320	0.084909	0.084486	336.257	41086.5	0.078771	0.201584	1668.07	83607.3
451	2.000000	1.209172	7.36948e+06	-54539.1	1005.82	-29743.4	0.000000	0.000000	7.224366	359.547	NaN	0.000000	0.001539	0.001786	28.0788	82.2736	0.001796	45820	4.065043	172.091	357.722	1.208758	0.087338	0.086924	359.547	45820	0.081453	0.213772	1681.92	90542.6
451	2.000000	1.211690	7.36948e+06	-54539.1	1005.82	-29743.4	0.000000	0.000000	7.227411	372.372	NaN	0.000000	0.001558	0.001756	28.0795	84.2909	0.001763	47800.2	7.884718	-11.8924	371.429	1.211206	0.089856	0.089372	372.372	47800.2	0.084013	0.225717	1649.73	91922.3
451	2.000000	1.214118	7.36948e+06	-54539.1	1005.82	-29743.4	0.000000	0.000000	7.230277	383.005	NaN	0.000000	0.001557	0.001774	28.0791	86.2059	0.001844	46740.4	5.469595	170.475	380.478	1.213881	0.092284	0.092047	383.005	46740.4	0.086139	0.235864	1623.84	87929.6
451	2.000000	1.216581	7.36948e+06	-54539.1	1005.82	-29743.4	0.000000	0.000000	7.233653	405.19	NaN	0.000000	0.001490	0.001768	28.0793	89.1841	0.001767	50486	5.871525	-10.5533	399.809	1.216231	0.094747	0.094397	405.19	50486	0.088728	0.248507	1630.5	92528.3
451	2.000000	1.219058	7.36948e+06	-54539.1	1005.82	-29743.4	0.000000	0.000000	7.237021	426.851	NaN	0.000000	0.001552	0.001760	28.0792	91.841	0.001766	52009.9	4.268670	170.916	422.357	1.218851	0.097225	0.097017	426.851	52009.9	0.091069	0.260202	1640.46	93154.5
451	2.000000	1.221626	7.36948e+06	-54539.1	1005.82	-29743.4	0.000000	0.000000	7.240491	448.787	NaN	0.000000	0.001501	0.001748	28.0792	93.8944	0.001784	52643.6	6.459460	-10.4553	444.55	1.221211	0.099792	0.099377	448.787	52643.6	0.093398	0.272087	1649.43	92207.3
451	2.000000	1.224077	7.36948e+06	-54539.1	1005.82	-29743.4	0.000000	0.000000	7.243966	473.694	NaN	0.000000	0.001546	0.001753	28.079	96.1799	0.001841	52232.8	8.247122	167.182	469.368	1.223737	0.102243	0.101903	473.694	52232.8	0.095441	0.282716	1675.51	89751.4
451	2.000000	1.226672	7.36948e+06	-54539.1	1005.82	-29743.4	0.000000	0.000000	7.247230	489.941	NaN	0.000000	0.001503	0.001835	28.0793	98.4434	0.001779	55324.6	5.264373	-9.921286	488.201	1.226252	0.104839	0.104418	489.941	55324.6	0.098197	0.297353	1647.68	92694.8
451	2.000000	1.229115	7.36948e+06	-54539.1	1005.82	-29743.4	0.000000	0.000000	7.250396	507.534	NaN	0.000000	0.001554	0.001735	28.0792	101.088	0.001801	56130.5	2.599094	172.311	504.908	1.228840	0.107281	0.107006	507.534	56130.5	0.100500	0.309853	1637.98	92128.6
451	2.000000	1.230118	7.36948e+06	-54539.1	1005.82	-29743.4	0.000000	0.000000	7.251904	519.808	NaN	0.000000	0.001531	0.001726	28.0789	102.217	0.001720	59444.7	6.832922	167.623	516.445	1.229726	0.108284	0.107892	519.808	59444.7	0.101725	0.316602	1641.84	96522.7