File: remote_trans/data/nanoindenter/0828-1/data/Data_2025-08-06,11h17m57s/2025-07-22_16-23-58_1_142.txt
2025-07-22, 16:23:58, 1
Index	Phase	Displacement	Time	Pos X	Pos Y	Pos Z	Rot A	Rot B	Piezo Z	Force A	Force B	Gripper	Voltage A	Voltage B	Temperature	Amplitude force	Amplitude pos	Stiffness	Phase shift	Phase excitation	Force A raw	Displacement raw	HMax	HMax raw	Real Force	Real Stiffness	Contact Depth	Area	Hardness	Reduced Mod.
[#]	[#]	[um]	[s]	[um]	[um]	[um]	[m°]	[m°]	[um]	[uN]	[uN]	[V]	[V]	[V]	[°C]	[uN]	[um]	[N/m]	[°]	[°]	[uN]	[um]	[um]	[um]	[uN]	[N/m]	[um]	[um^2]	[MPa]	[MPa]
142	1.000000	0.002239	7.36642e+06	-45739.1	955.818	-29771.8	0.000000	0.000000	6.002788	-0.004834	NaN	0.000000	0.001608	0.001682	28.1216	0.056664	0.000919	61.6899	103.507	-163.762	-0.009717	0.001025	-1.062965	-1.064179	-0.004834	61.6899	-1.062906	-1.591736E+14	3.036709E-17	NaN
142	1.000000	0.010213	7.36642e+06	-45739.1	955.819	-29771.8	0.000000	0.000000	6.010761	-0.011426	NaN	0.000000	0.001589	0.001681	28.1213	0.068992	0.000967	71.3525	-2.601429	-162.731	0.013293	0.008872	-1.054991	-1.056332	-0.011426	71.3525	-1.054871	-1.241333E+14	9.204965E-17	NaN
142	1.000000	0.018221	7.36642e+06	-45739.1	955.819	-29771.8	0.000000	0.000000	6.018768	-0.049859	NaN	0.000000	0.001513	0.001699	28.1208	0.059919	0.001716	34.9242	-30.5504	-169.061	-0.128429	0.016922	-1.046983	-1.048282	-0.049859	34.9242	-1.045913	-9.407292E+13	5.300007E-16	NaN
142	1.000000	0.026283	7.36642e+06	-45739.1	955.818	-29771.8	0.000000	0.000000	6.026831	-0.034671	NaN	0.000000	0.001550	0.001673	28.1219	0.041886	0.001866	22.4439	146.737	-167.673	-0.015741	0.024898	-1.038921	-1.040306	-0.034671	22.4439	-1.037762	-7.309324E+13	4.743441E-16	NaN
142	1.000000	0.034213	7.36642e+06	-45739.1	955.819	-29771.8	0.000000	0.000000	6.034762	0.012946	NaN	0.000000	0.001564	0.001671	28.1219	0.042396	0.001967	21.5519	-91.9284	-165.122	-0.034775	0.032886	-1.030991	-1.032318	0.012946	21.5519	-1.031441	-6.009920E+13	-2.154128E-16	NaN
142	1.000000	0.042215	7.36642e+06	-45739.1	955.818	-29771.8	0.000000	0.000000	6.042761	-0.070025	NaN	0.000000	0.001551	0.001692	28.1229	0.128959	0.002035	63.3793	-128.33	-165.552	-0.034467	0.040922	-1.022989	-1.024282	-0.070025	63.3793	-1.022160	-4.508305E+13	1.553238E-15	NaN
142	1.000000	0.050242	7.36642e+06	-45739.1	955.818	-29771.8	0.000000	0.000000	6.050791	0.008685	NaN	0.000000	0.001570	0.001656	28.1234	0.058580	0.001954	29.9794	149.405	-163.833	0.040133	0.048896	-1.014962	-1.016308	0.008685	29.9794	-1.015180	-3.631528E+13	-2.391614E-16	NaN
142	1.000000	0.058254	7.36642e+06	-45739.1	955.818	-29771.8	0.000000	0.000000	6.058801	-0.040959	NaN	0.000000	0.001558	0.001671	28.1225	0.059234	0.002076	28.5305	-111.233	-163.728	-0.038661	0.056921	-1.006950	-1.008283	-0.040959	28.5305	-1.005873	-2.721676E+13	1.504910E-15	NaN
142	1.000000	0.066182	7.36642e+06	-45739.1	955.818	-29771.8	0.000000	0.000000	6.066731	0.006270	NaN	0.000000	0.001561	0.001689	28.1225	0.043064	0.001958	21.9922	-118.021	-166.628	0.052782	0.064931	-0.999022	-1.000273	0.006270	21.9922	-0.999236	-2.215546E+13	-2.830136E-16	NaN
142	1.000000	0.074207	7.36642e+06	-45739.1	955.818	-29771.8	0.000000	0.000000	6.074754	-0.055568	NaN	0.000000	0.001654	0.001696	28.1221	0.044210	0.001990	22.2187	61.8794	-165.365	-0.059290	0.072947	-0.990997	-0.992257	-0.055568	22.2187	-0.989121	-1.619104E+13	3.432036E-15	NaN
142	1.000000	0.082221	7.36642e+06	-45739.1	955.819	-29771.8	0.000000	0.000000	6.082768	-0.044858	NaN	0.000000	0.001637	0.001687	28.1227	0.110282	0.001882	58.5857	-20.2815	-166.617	-0.037478	0.080884	-0.982983	-0.984320	-0.044858	58.5857	-0.982409	-1.314796E+13	3.411754E-15	NaN
142	1.000000	0.090227	7.36642e+06	-45739.1	955.819	-29771.8	0.000000	0.000000	6.090777	0.015814	NaN	0.000000	0.001617	0.001678	28.1229	0.101483	0.001960	51.7752	6.877833	-168.017	-0.037400	0.088927	-0.974977	-0.976277	0.015814	51.7752	-0.975206	-1.051515E+13	-1.503940E-15	NaN
142	1.000000	0.098207	7.36642e+06	-45739.1	955.819	-29771.8	0.000000	0.000000	6.098755	-0.012660	NaN	0.000000	0.001613	0.001679	28.1227	0.069363	0.001930	35.9482	110.646	-163.606	-0.057714	0.096905	-0.966997	-0.968299	-0.012660	35.9482	-0.966733	-8.084143E+12	1.565998E-15	NaN
142	1.000000	0.106218	7.36642e+06	-45739.1	955.818	-29771.9	0.000000	0.000000	6.106765	-0.041745	NaN	0.000000	0.001542	0.001675	28.1237	0.109543	0.001834	59.7189	-44.0001	-164.515	-0.032344	0.104894	-0.958986	-0.960310	-0.041745	59.7189	-0.958462	-6.253686E+12	6.675325E-15	NaN
142	1.000000	0.114250	7.36642e+06	-45739.1	955.819	-29771.9	0.000000	0.000000	6.114797	-0.061349	NaN	0.000000	0.001528	0.001694	28.1243	0.119974	0.002007	59.7836	31.0194	-166.413	-0.004676	0.112893	-0.950954	-0.952311	-0.061349	59.7836	-0.950184	-4.836244E+12	1.268527E-14	NaN
142	1.000000	0.122243	7.36642e+06	-45739.1	955.818	-29771.9	0.000000	0.000000	6.122785	-0.151900	NaN	0.000000	0.001520	0.001720	28.1238	0.047245	0.002117	22.3139	-61.7056	-165.737	-0.057392	0.120939	-0.942961	-0.944265	-0.151900	22.3139	-0.937856	-3.297677E+12	4.606273E-14	NaN
142	1.000000	0.130234	7.36642e+06	-45739.1	955.818	-29771.9	0.000000	0.000000	6.130782	-0.002192	NaN	0.000000	0.001508	0.001705	28.1241	0.108516	0.001799	60.3198	-117.427	-164.96	-0.065662	0.128912	-0.934970	-0.936292	-0.002192	60.3198	-0.934943	-3.012346E+12	7.278166E-16	NaN
142	1.000000	0.138248	7.36642e+06	-45739.1	955.819	-29771.9	0.000000	0.000000	6.138797	0.000946	NaN	0.000000	0.001585	0.001662	28.1246	0.176030	0.001908	92.2459	0.770129	-163.686	0.007322	0.136930	-0.926956	-0.928274	0.000946	92.2459	-0.926964	-2.350788E+12	-4.025856E-16	NaN
142	1.000000	0.146281	7.36642e+06	-45739.1	955.818	-29771.9	0.000000	0.000000	6.146826	-0.085008	NaN	0.000000	0.001544	0.001706	28.1238	0.064057	0.002001	32.0062	-139.21	-164.316	-0.082866	0.144929	-0.918923	-0.920275	-0.085008	32.0062	-0.916931	-1.720949E+12	4.939574E-14	NaN
142	1.000000	0.154250	7.36642e+06	-45739.1	955.818	-29771.9	0.000000	0.000000	6.154797	-0.055228	NaN	0.000000	0.001547	0.001733	28.1237	0.034151	0.002079	16.4286	-42.4098	-164.731	-0.025697	0.152917	-0.910954	-0.912287	-0.055228	16.4286	-0.908432	-1.321258E+12	4.179926E-14	NaN
142	1.000000	0.162220	7.36643e+06	-45739.1	955.818	-29771.9	0.000000	0.000000	6.162766	-0.073851	NaN	0.000000	0.001583	0.001719	28.1242	0.131287	0.002081	63.086	161.137	-163.014	-0.119830	0.161011	-0.902984	-0.904193	-0.073851	63.086	-0.902106	-1.085216E+12	6.805146E-14	NaN
142	1.000000	0.170265	7.36643e+06	-45739.1	955.818	-29771.9	0.000000	0.000000	6.170813	-0.017857	NaN	0.000000	0.001566	0.001697	28.1233	0.057972	0.001985	29.2101	-93.9303	-165.787	0.015495	0.168924	-0.894939	-0.896280	-0.017857	29.2101	-0.894480	-8.559991E+11	2.086146E-14	NaN
142	1.000000	0.178253	7.36643e+06	-45739.1	955.818	-29771.9	0.000000	0.000000	6.178800	-0.049140	NaN	0.000000	0.001600	0.001708	28.1236	0.068757	0.001998	34.4186	140.572	-167.475	-0.090199	0.176934	-0.886951	-0.888270	-0.049140	34.4186	-0.885881	-6.549733E+11	7.502660E-14	NaN
142	1.000000	0.186263	7.36643e+06	-45739.1	955.818	-29771.9	0.000000	0.000000	6.186809	-0.058592	NaN	0.000000	0.001578	0.001712	28.1228	0.015468	0.002008	7.704392	167.311	-166.43	-0.115848	0.184937	-0.878941	-0.880267	-0.058592	7.704392	-0.873238	-4.418185E+11	1.326149E-13	NaN
142	1.000000	0.194236	7.36643e+06	-45739.1	955.819	-29771.9	0.000000	0.000000	6.194781	-0.088868	NaN	0.000000	0.001582	0.001733	28.1246	0.108102	0.001929	56.0509	72.562	-166.991	-0.078372	0.192974	-0.870968	-0.872230	-0.088868	56.0509	-0.869779	-3.966883E+11	2.240239E-13	NaN
142	1.000000	0.202265	7.36643e+06	-45739.1	955.818	-29771.9	0.000000	0.000000	6.202810	-0.091805	NaN	0.000000	0.001578	0.001687	28.1249	0.038529	0.002024	19.0328	-148.188	-166.378	-0.049699	0.200968	-0.862939	-0.864236	-0.091805	19.0328	-0.859321	-2.863735E+11	3.205761E-13	NaN
142	1.000000	0.210254	7.36643e+06	-45739.1	955.818	-29771.9	0.000000	0.000000	6.210801	-0.047038	NaN	0.000000	0.001565	0.001705	28.1248	0.066187	0.002120	31.2278	-173.333	-166.949	-0.035505	0.209009	-0.854950	-0.856195	-0.047038	31.2278	-0.853821	-2.412511E+11	1.949737E-13	NaN
142	1.000000	0.218285	7.36643e+06	-45739.1	955.819	-29771.9	0.000000	0.000000	6.218833	-0.000320	NaN	0.000000	0.001546	0.001675	28.1232	0.101740	0.002101	48.4334	-120.022	-165.258	-0.015231	0.216987	-0.846919	-0.848217	-0.000320	48.4334	-0.846914	-1.945145E+11	1.644493E-15	NaN
142	1.000000	0.226246	7.36643e+06	-45739.1	955.819	-29771.9	0.000000	0.000000	6.226794	-0.011923	NaN	0.000000	0.001570	0.001715	28.1233	0.026789	0.001982	13.5138	118.296	-162.761	-0.017861	0.224937	-0.838958	-0.840267	-0.011923	13.5138	-0.838296	-1.486661E+11	8.020235E-14	NaN
142	1.000000	0.234327	7.36643e+06	-45739.1	955.819	-29771.9	0.000000	0.000000	6.234874	-0.055088	NaN	0.000000	0.001569	0.001716	28.1224	0.097285	0.002017	48.2358	-57.14	-166.78	-0.075698	0.232946	-0.830877	-0.832258	-0.055088	48.2358	-0.830020	-1.148301E+11	4.797356E-13	NaN
142	1.000000	0.242299	7.36643e+06	-45739.1	955.818	-29771.9	0.000000	0.000000	6.242845	-0.048277	NaN	0.000000	0.001583	0.001703	28.1225	0.026075	0.002071	12.5888	177.925	-164.866	-0.105599	0.240973	-0.822905	-0.824231	-0.048277	12.5888	-0.820029	-8.406373E+10	5.742867E-13	NaN
142	1.000000	0.250290	7.36643e+06	-45739.1	955.818	-29771.9	0.000000	0.000000	6.250838	-0.018987	NaN	0.000000	0.001580	0.001703	28.1236	0.001194	0.001894	0.630329	-39.9842	-162.07	-0.103389	0.249007	-0.814914	-0.816197	-0.018987	0.630329	-0.792323	-3.536924E+10	5.368097E-13	NaN
142	1.000000	0.258287	7.36643e+06	-45739.1	955.819	-29771.9	0.000000	0.000000	6.258834	-0.035253	NaN	0.000000	0.001547	0.001713	28.1223	0.070298	0.002026	34.6977	126.716	-164.753	-0.014502	0.256977	-0.806917	-0.808227	-0.035253	34.6977	-0.806155	-5.450054E+10	6.468343E-13	NaN
142	1.000000	0.266286	7.36643e+06	-45739.1	955.818	-29771.9	0.000000	0.000000	6.266831	-0.082996	NaN	0.000000	0.001544	0.001720	28.1224	0.062124	0.001981	31.3656	-163.603	-166.543	-0.086317	0.265010	-0.798918	-0.800194	-0.082996	31.3656	-0.796933	-4.085376E+10	2.031540E-12	NaN
142	1.000000	0.274273	7.36643e+06	-45739.1	955.819	-29771.9	0.000000	0.000000	6.274820	-0.036535	NaN	0.000000	0.001561	0.001691	28.1241	0.017711	0.001955	9.061632	175.873	-165.762	0.094887	0.273030	-0.790931	-0.792174	-0.036535	9.061632	-0.787907	-3.080745E+10	1.185929E-12	NaN
142	1.000000	0.282312	7.36643e+06	-45739.1	955.819	-29771.9	0.000000	0.000000	6.282856	-0.112651	NaN	0.000000	0.001589	0.001697	28.1235	0.076949	0.001995	38.5758	15.6219	-163.803	-0.084933	0.280966	-0.782892	-0.784238	-0.112651	38.5758	-0.780702	-2.459069E+10	4.581052E-12	NaN
142	1.000000	0.290296	7.36643e+06	-45739.1	955.818	-29771.9	0.000000	0.000000	6.290842	-0.056287	NaN	0.000000	0.001579	0.001691	28.1243	0.145189	0.001978	73.4148	163.575	-168.428	-0.064773	0.288975	-0.774908	-0.776229	-0.056287	73.4148	-0.774333	-2.014722E+10	2.793782E-12	NaN
142	1.000000	0.298327	7.36643e+06	-45739.1	955.818	-29771.9	0.000000	0.000000	6.298872	-0.094027	NaN	0.000000	0.001618	0.001703	28.124	0.073749	0.001959	37.6369	144.67	-166.265	-0.016136	0.297001	-0.766877	-0.768203	-0.094027	37.6369	-0.765003	-1.504389E+10	6.250182E-12	NaN
142	1.000000	0.306307	7.36643e+06	-45739.1	955.818	-29771.9	0.000000	0.000000	6.306854	-0.037488	NaN	0.000000	0.001627	0.001697	28.1237	0.084039	0.002122	39.5957	27.2507	-163.172	-0.154246	0.305050	-0.758897	-0.760154	-0.037488	39.5957	-0.758187	-1.215165E+10	3.085045E-12	NaN
142	1.000000	0.314315	7.36643e+06	-45739.1	955.818	-29771.9	0.000000	0.000000	6.314866	0.038635	NaN	0.000000	0.001584	0.001693	28.123	0.077162	0.002004	38.503	-80.0047	-169.474	0.031996	0.312979	-0.750889	-0.752225	0.038635	38.503	-0.751641	-9.898323E+9	-3.903154E-12	NaN
142	1.000000	0.322317	7.36643e+06	-45739.1	955.818	-29771.9	0.000000	0.000000	6.322865	-0.033004	NaN	0.000000	0.001599	0.001681	28.1234	0.028528	0.001889	15.1044	78.9171	-167.272	0.014048	0.321062	-0.742887	-0.744142	-0.033004	15.1044	-0.741248	-7.145808E+9	4.618612E-12	NaN
142	1.000000	0.330341	7.36643e+06	-45739.1	955.818	-29771.9	0.000000	0.000000	6.330890	-0.000308	NaN	0.000000	0.001610	0.001681	28.1233	0.156542	0.001952	80.1754	-49.0516	-164.129	-0.022805	0.328966	-0.734863	-0.736238	-0.000308	80.1754	-0.734860	-5.848390E+9	5.262769E-14	NaN
142	1.000000	0.338361	7.36643e+06	-45739.1	955.818	-29771.9	0.000000	0.000000	6.338907	-0.073276	NaN	0.000000	0.001597	0.001707	28.1233	0.029191	0.002152	13.5616	111.515	-167.409	-0.079220	0.337037	-0.726843	-0.728167	-0.073276	13.5616	-0.722790	-4.004256E+9	1.829947E-11	NaN
142	1.000000	0.346308	7.36643e+06	-45739.1	955.818	-29771.9	0.000000	0.000000	6.346854	-0.075370	NaN	0.000000	0.001587	0.001699	28.1228	0.028945	0.001974	14.6606	140.377	-164.599	-0.023397	0.345048	-0.718896	-0.720156	-0.075370	14.6606	-0.715040	-3.139216E+9	2.400922E-11	NaN
142	1.000000	0.354360	7.36643e+06	-45739.1	955.819	-29771.9	0.000000	0.000000	6.354907	-0.052399	NaN	0.000000	0.001608	0.001706	28.1254	0.055961	0.001850	30.2537	112.457	-166.904	-0.115716	0.353006	-0.710844	-0.712198	-0.052399	30.2537	-0.709545	-2.641447E+9	1.983708E-11	NaN
142	1.000000	0.362317	7.36643e+06	-45739.1	955.819	-29771.9	0.000000	0.000000	6.362863	-0.061912	NaN	0.000000	0.001612	0.001697	28.1263	0.101022	0.002061	49.0121	-139.089	-166.438	-0.001116	0.361039	-0.702887	-0.704165	-0.061912	49.0121	-0.701940	-2.079796E+9	2.976833E-11	NaN
142	1.000000	0.370330	7.36643e+06	-45739.1	955.818	-29771.9	0.000000	0.000000	6.370877	-0.024569	NaN	0.000000	0.001630	0.001708	28.1253	0.028814	0.002114	13.6313	100.75	-166.297	0.028626	0.369062	-0.694874	-0.696142	-0.024569	13.6313	-0.693523	-1.596074E+9	1.539341E-11	NaN
142	1.000000	0.378356	7.36643e+06	-45739.1	955.819	-29771.9	0.000000	0.000000	6.378906	0.023646	NaN	0.000000	0.001584	0.001679	28.1258	0.079539	0.001983	40.1133	163.276	-165.205	-0.045531	0.377019	-0.686848	-0.688185	0.023646	40.1133	-0.687290	-1.311837E+9	-1.802521E-11	NaN
142	1.000000	0.386353	7.36643e+06	-45739.1	955.82	-29771.9	0.000000	0.000000	6.386899	-0.051551	NaN	0.000000	0.001612	0.001679	28.1249	0.085441	0.001980	43.1467	178.565	-166.778	0.017222	0.384988	-0.678851	-0.680216	-0.051551	43.1467	-0.677955	-9.777721E+8	5.272247E-11	NaN
142	1.000000	0.394335	7.36643e+06	-45739.1	955.818	-29771.9	0.000000	0.000000	6.394884	0.009055	NaN	0.000000	0.001627	0.001699	28.1242	0.054859	0.001895	28.9506	-86.5085	-165.984	0.050949	0.393026	-0.670869	-0.672178	0.009055	28.9506	-0.671104	-7.879495E+8	-1.149179E-11	NaN
142	1.000000	0.402341	7.36643e+06	-45739.1	955.819	-29771.9	0.000000	0.000000	6.402885	-0.118831	NaN	0.000000	0.001650	0.001631	28.1245	0.100336	0.001843	54.4378	141.932	-162.334	-0.087419	0.401064	-0.662863	-0.664140	-0.118831	54.4378	-0.661226	-5.771121E+8	2.059059E-10	NaN
142	1.000000	0.410363	7.36643e+06	-45739.1	955.819	-29771.9	0.000000	0.000000	6.410912	0.011461	NaN	0.000000	0.001622	0.001625	28.124	0.074885	0.002096	35.7337	-146.74	-161.244	0.030939	0.409013	-0.654841	-0.656190	0.011461	35.7337	-0.655082	-4.754335E+8	-2.410560E-11	NaN
142	1.000000	0.418378	7.36643e+06	-45739.1	955.818	-29771.9	0.000000	0.000000	6.418927	-0.003513	NaN	0.000000	0.001584	0.001596	28.1241	0.132611	0.001993	66.5409	32.7461	-167.07	-0.003854	0.417021	-0.646825	-0.648183	-0.003513	66.5409	-0.646786	-3.659053E+8	9.600371E-12	NaN
142	1.000000	0.426391	7.36643e+06	-45739.1	955.818	-29771.9	0.000000	0.000000	6.426939	-0.025119	NaN	0.000000	0.001621	0.001591	28.1243	0.131153	0.001967	66.6804	169.588	-162.921	-0.004140	0.425042	-0.638813	-0.640162	-0.025119	66.6804	-0.638530	-2.819199E+8	8.910101E-11	NaN
142	1.000000	0.434368	7.36643e+06	-45739.1	955.818	-29771.9	0.000000	0.000000	6.434913	-0.090191	NaN	0.000000	0.001637	0.001640	28.1257	0.075740	0.001979	38.271	-137.368	-163.628	-0.065432	0.433058	-0.630836	-0.632146	-0.090191	38.271	-0.629068	-2.090401E+8	4.314513E-10	NaN
142	1.000000	0.442331	7.36643e+06	-45739.1	955.818	-29771.9	0.000000	0.000000	6.442878	-0.041037	NaN	0.000000	0.001638	0.001629	28.1256	0.080027	0.002082	38.434	175.186	-164.575	0.129735	0.441101	-0.622873	-0.624102	-0.041037	38.434	-0.622072	-1.675379E+8	2.449412E-10	NaN
142	1.000000	0.450370	7.36643e+06	-45739.1	955.818	-29771.9	0.000000	0.000000	6.450915	-0.088011	NaN	0.000000	0.001622	0.001668	28.1263	0.036393	0.002023	17.9889	93.7792	-161.753	-0.082223	0.449087	-0.614834	-0.616117	-0.088011	17.9889	-0.611164	-1.186134E+8	7.419950E-10	NaN
142	1.000000	0.458364	7.36643e+06	-45739.1	955.818	-29771.9	0.000000	0.000000	6.458912	-0.013864	NaN	0.000000	0.001606	0.001633	28.1255	0.024518	0.001985	12.3547	99.2159	-164.982	-0.016423	0.457040	-0.606840	-0.608164	-0.013864	12.3547	-0.605998	-1.007033E+8	1.376732E-10	NaN
142	1.000000	0.466404	7.36643e+06	-45739.1	955.819	-29771.9	0.000000	0.000000	6.466952	-0.043645	NaN	0.000000	0.001621	0.001618	28.1258	0.033012	0.001917	17.2188	-30.3488	-162.092	-0.074092	0.465026	-0.598800	-0.600178	-0.043645	17.2188	-0.596898	-7.546379E+7	5.783581E-10	NaN
142	1.000000	0.474370	7.36643e+06	-45739.1	955.818	-29771.9	0.000000	0.000000	6.474919	0.003665	NaN	0.000000	0.001587	0.001619	28.1248	0.075391	0.002085	36.1596	-164.416	-164.496	-0.080498	0.473055	-0.590834	-0.592149	0.003665	36.1596	-0.590910	-6.240403E+7	-5.872678E-11	NaN
142	1.000000	0.482387	7.36643e+06	-45739.1	955.818	-29771.9	0.000000	0.000000	6.482932	-0.084031	NaN	0.000000	0.001536	0.001654	28.1242	0.101609	0.002087	48.6957	114.974	-163.754	-0.070615	0.481122	-0.582817	-0.584082	-0.084031	48.6957	-0.581523	-4.631755E+7	1.814230E-9	NaN
142	1.000000	0.490397	7.36643e+06	-45739.1	955.818	-29771.9	0.000000	0.000000	6.490946	0.020072	NaN	0.000000	0.001549	0.001667	28.1237	0.027975	0.001988	14.0754	-178.474	-164.794	-0.019788	0.489027	-0.574807	-0.576177	0.020072	14.0754	-0.575877	-3.870865E+7	-5.185420E-10	NaN
142	1.000000	0.498367	7.36643e+06	-45739.1	955.818	-29771.9	0.000000	0.000000	6.498914	-0.042782	NaN	0.000000	0.001591	0.001628	28.1232	0.024808	0.001933	12.8352	11.8097	-165.414	-0.068047	0.497089	-0.566837	-0.568115	-0.042782	12.8352	-0.564338	-2.681432E+7	1.595479E-9	NaN
142	1.000000	0.506379	7.36643e+06	-45739.1	955.818	-29771.9	0.000000	0.000000	6.506927	-0.023752	NaN	0.000000	0.001555	0.001608	28.1241	0.045589	0.002024	22.5245	119.099	-163.587	-0.037351	0.505101	-0.558825	-0.560103	-0.023752	22.5245	-0.558035	-2.193738E+7	1.082703E-9	NaN
142	1.000000	0.514389	7.36643e+06	-45739.1	955.819	-29771.9	0.000000	0.000000	6.514936	-0.053101	NaN	0.000000	0.001572	0.001640	28.1253	0.041063	0.001957	20.9876	-24.762	-164.393	-0.036317	0.513079	-0.550815	-0.552125	-0.053101	20.9876	-0.548917	-1.640417E+7	3.237042E-9	NaN
142	1.000000	0.522384	7.36643e+06	-45739.1	955.818	-29771.9	0.000000	0.000000	6.522932	-0.001875	NaN	0.000000	0.001531	0.001605	28.1243	0.091815	0.001953	47.0017	-160.305	-165.663	0.016842	0.521081	-0.542820	-0.544123	-0.001875	47.0017	-0.542790	-1.349120E+7	1.390032E-10	NaN
142	1.000000	0.530423	7.36643e+06	-45739.1	955.819	-29771.9	0.000000	0.000000	6.530971	-0.005012	NaN	0.000000	0.001595	0.001586	28.1247	0.062848	0.002047	30.705	109.233	-163.686	-0.036482	0.529132	-0.534781	-0.536072	-0.005012	30.705	-0.534659	-1.040529E+7	4.816566E-10	NaN
142	1.000000	0.538396	7.36643e+06	-45739.1	955.818	-29771.9	0.000000	0.000000	6.538944	-0.022106	NaN	0.000000	0.001576	0.001600	28.1253	0.024584	0.001995	12.322	103.777	-167.582	-0.071212	0.537147	-0.526808	-0.528057	-0.022106	12.322	-0.525463	-7.75426e+06	2.850802E-9	NaN
142	1.000000	0.546440	7.36643e+06	-45739.1	955.818	-29771.9	0.000000	0.000000	6.546988	-0.017278	NaN	0.000000	0.001568	0.001629	28.1253	0.109831	0.002083	52.7392	-99.407	-166.075	-0.039537	0.545119	-0.518764	-0.520085	-0.017278	52.7392	-0.518518	-6.20854e+06	2.783013E-9	NaN
142	1.000000	0.554401	7.36643e+06	-45739.1	955.819	-29771.9	0.000000	0.000000	6.554950	0.010124	NaN	0.000000	0.001583	0.001646	28.1243	0.078640	0.001934	40.663	-160.865	-167.271	0.011334	0.553115	-0.510803	-0.512089	0.010124	40.663	-0.510990	-4.87755e+06	-2.075606E-9	NaN
142	1.000000	0.562436	7.36643e+06	-45739.1	955.818	-29771.9	0.000000	0.000000	6.562983	-0.040306	NaN	0.000000	0.001559	0.001603	28.1248	0.073921	0.001997	37.0191	100.327	-164.563	-0.043920	0.561122	-0.502768	-0.504082	-0.040306	37.0191	-0.501951	-3.64953e+06	1.104413E-8	NaN
142	1.000000	0.570409	7.36643e+06	-45739.1	955.819	-29771.9	0.000000	0.000000	6.570958	-0.012087	NaN	0.000000	0.001575	0.001631	28.1235	0.041531	0.001994	20.8281	-98.5731	-166.26	-0.081377	0.569171	-0.494794	-0.496033	-0.012087	20.8281	-0.494359	-2.85948e+06	4.227088E-9	NaN
142	1.000000	0.578407	7.36643e+06	-45739.1	955.818	-29771.9	0.000000	0.000000	6.578955	-0.023895	NaN	0.000000	0.001550	0.001638	28.124	0.049285	0.002035	24.2168	-86.2728	-165.987	-0.058912	0.577150	-0.486797	-0.488054	-0.023895	24.2168	-0.486057	-2.18914e+06	1.091535E-8	NaN
142	1.000000	0.586427	7.36643e+06	-45739.1	955.818	-29771.9	0.000000	0.000000	6.586975	-0.005920	NaN	0.000000	0.001501	0.001636	28.1238	0.036941	0.001893	19.5124	15.0471	-162.397	0.024197	0.585117	-0.478777	-0.480087	-0.005920	19.5124	-0.478550	-1.71879e+06	3.444431E-9	NaN
142	1.000000	0.594437	7.36643e+06	-45739.1	955.818	-29771.9	0.000000	0.000000	6.594983	-0.076302	NaN	0.000000	0.001552	0.001631	28.1249	0.093300	0.002023	46.1152	58.9623	-164.977	-0.032765	0.593141	-0.470767	-0.472063	-0.076302	46.1152	-0.469526	-1.28458e+06	5.939822E-8	NaN
142	1.000000	0.602446	7.36643e+06	-45739.1	955.819	-29771.9	0.000000	0.000000	6.602994	-0.026542	NaN	0.000000	0.001555	0.001621	28.1253	0.061835	0.002048	30.1934	-150.394	-169.022	-0.090220	0.601158	-0.462758	-0.464046	-0.026542	30.1934	-0.462099	-1.01042e+06	2.626865E-8	NaN
142	1.000000	0.610435	7.36643e+06	-45739.1	955.818	-29771.9	0.000000	0.000000	6.610984	0.003163	NaN	0.000000	0.001557	0.001599	28.1246	0.038129	0.001960	19.4507	38.3824	-164.035	-0.066022	0.609130	-0.454769	-0.456074	0.003163	19.4507	-0.454891	-800163	-3.953485E-9	NaN
142	1.000000	0.618464	7.36643e+06	-45739.1	955.819	-29771.9	0.000000	0.000000	6.619012	-0.024616	NaN	0.000000	0.001569	0.001627	28.1248	0.037081	0.002025	18.3128	-32.5934	-166.744	-0.055002	0.617169	-0.446740	-0.448035	-0.024616	18.3128	-0.445732	-594579	4.140019E-8	NaN
142	1.000000	0.626412	7.36643e+06	-45739.1	955.818	-29771.9	0.000000	0.000000	6.626958	-0.066123	NaN	0.000000	0.001523	0.001632	28.1266	0.014268	0.002007	7.108425	-112.74	-165.19	-0.066063	0.625115	-0.438792	-0.440089	-0.066123	7.108425	-0.431815	-378213	1.748302E-7	NaN
142	1.000000	0.634435	7.36643e+06	-45739.1	955.819	-29771.9	0.000000	0.000000	6.634986	0.048934	NaN	0.000000	0.001558	0.001639	28.1253	0.103087	0.001910	53.9669	-107.226	-163.05	-0.057553	0.633142	-0.430769	-0.432062	0.048934	53.9669	-0.431449	-373733	-1.309336E-7	NaN
142	1.000000	0.642471	7.36643e+06	-45739.1	955.819	-29771.9	0.000000	0.000000	6.643021	0.023082	NaN	0.000000	0.001525	0.001635	28.1246	0.023707	0.002117	11.1975	-142.724	-167.855	-0.002413	0.641180	-0.422733	-0.424024	0.023082	11.1975	-0.424279	-295847	-7.802063E-8	NaN
142	1.000000	0.650431	7.36643e+06	-45739.1	955.819	-29771.9	0.000000	0.000000	6.650978	-0.027548	NaN	0.000000	0.001520	0.001623	28.1247	0.073979	0.001958	37.7735	-105.315	-164.167	-0.060805	0.649144	-0.414773	-0.416060	-0.027548	37.7735	-0.414226	-213043	1.293092E-7	NaN
142	1.000000	0.658460	7.36643e+06	-45739.1	955.819	-29771.9	0.000000	0.000000	6.659008	-0.013598	NaN	0.000000	0.001533	0.001622	28.1247	0.061136	0.001894	32.2731	-137.333	-171.02	-0.063850	0.657121	-0.406744	-0.408083	-0.013598	32.2731	-0.406428	-165035	8.239707E-8	NaN
142	1.000000	0.666490	7.36643e+06	-45739.1	955.819	-29771.9	0.000000	0.000000	6.667037	-0.060270	NaN	0.000000	0.001506	0.001645	28.125	0.061891	0.002020	30.6327	-128.391	-167.121	-0.090341	0.665123	-0.398714	-0.400081	-0.060270	30.6327	-0.397238	-122065	4.937570E-7	NaN
142	1.000000	0.674485	7.36643e+06	-45739.1	955.819	-29771.9	0.000000	0.000000	6.675028	-0.121632	NaN	0.000000	0.001538	0.001625	28.126	0.063800	0.002066	30.8864	73.1257	-167.979	-0.119013	0.673185	-0.390719	-0.392019	-0.121632	30.8864	-0.387766	-89371.2	1.360976E-6	NaN
142	1.000000	0.682486	7.36643e+06	-45739.1	955.818	-29771.9	0.000000	0.000000	6.683034	-0.040614	NaN	0.000000	0.001534	0.001589	28.1261	0.090901	0.001931	47.0867	11.6102	-165.861	-0.007469	0.681126	-0.382718	-0.384078	-0.040614	47.0867	-0.382071	-74062.2	5.483782E-7	NaN
142	1.000000	0.690467	7.36643e+06	-45739.1	955.819	-29771.9	0.000000	0.000000	6.691013	-0.051150	NaN	0.000000	0.001539	0.001611	28.1263	0.032877	0.002005	16.4	-43.5306	-165.667	-0.112851	0.689114	-0.374737	-0.376090	-0.051150	16.4	-0.372398	-53783.5	9.510387E-7	NaN
142	1.000000	0.698473	7.36643e+06	-45739.1	955.817	-29771.9	0.000000	0.000000	6.699020	-0.044149	NaN	0.000000	0.001524	0.001628	28.1262	0.135197	0.002026	66.7322	25.5413	-166.196	-0.031340	0.697173	-0.366731	-0.368031	-0.044149	66.7322	-0.366235	-43840	1.007040E-6	NaN
142	1.000000	0.706499	7.36643e+06	-45739.1	955.818	-29771.9	0.000000	0.000000	6.707046	-0.050177	NaN	0.000000	0.001522	0.001643	28.1258	0.073019	0.001993	36.6351	-58.7622	-164.849	0.025277	0.705155	-0.358705	-0.360049	-0.050177	36.6351	-0.357677	-32980.3	1.521427E-6	NaN
142	1.000000	0.714488	7.36643e+06	-45739.1	955.818	-29771.9	0.000000	0.000000	6.715034	-0.066925	NaN	0.000000	0.001524	0.001652	28.1247	0.042734	0.001968	21.7147	83.6207	-166.547	-0.059408	0.713218	-0.350716	-0.351986	-0.066925	21.7147	-0.348405	-24201.5	2.765329E-6	NaN
142	1.000000	0.722464	7.36643e+06	-45739.1	955.818	-29771.9	0.000000	0.000000	6.723013	0.010026	NaN	0.000000	0.001521	0.001631	28.1249	0.075769	0.001894	40.0026	18.629	-163.99	0.032630	0.721114	-0.342740	-0.344090	0.010026	40.0026	-0.342928	-20146.9	-4.976561E-7	NaN
142	1.000000	0.730505	7.36643e+06	-45739.1	955.818	-29771.9	0.000000	0.000000	6.731050	-0.083251	NaN	0.000000	0.001512	0.001638	28.1257	0.088600	0.002066	42.893	145.271	-166.32	-0.165528	0.729161	-0.334699	-0.336043	-0.083251	42.893	-0.333244	-14551.7	5.721053E-6	NaN
142	1.000000	0.738494	7.36643e+06	-45739.1	955.818	-29771.9	0.000000	0.000000	6.739041	-0.043506	NaN	0.000000	0.001499	0.001639	28.1253	0.048752	0.002142	22.7648	-16.7214	-165.444	-0.107508	0.737158	-0.326710	-0.328046	-0.043506	22.7648	-0.325277	-11122.5	3.911522E-6	NaN
142	1.000000	0.746471	7.36643e+06	-45739.1	955.819	-29771.9	0.000000	0.000000	6.747019	-0.036930	NaN	0.000000	0.001504	0.001637	28.125	0.020442	0.001988	10.285	-20.9874	-166.498	-0.092121	0.745175	-0.318733	-0.320029	-0.036930	10.285	-0.316040	-8133.65	4.540446E-6	NaN
142	1.000000	0.754488	7.36643e+06	-45739.1	955.819	-29771.9	0.000000	0.000000	6.755037	-0.012168	NaN	0.000000	0.001508	0.001631	28.1263	0.114303	0.001914	59.7302	-21.6252	-163.955	-0.040101	0.753226	-0.310715	-0.311978	-0.012168	59.7302	-0.310563	-6751.22	1.802391E-6	NaN
142	1.000000	0.762493	7.36643e+06	-45739.1	955.819	-29771.9	0.000000	0.000000	6.763037	-0.109613	NaN	0.000000	0.001526	0.001599	28.1252	0.055370	0.002030	27.282	158.708	-163.993	-0.057540	0.761234	-0.302711	-0.303970	-0.109613	27.282	-0.299698	-4657.37	2.353547E-5	NaN
142	1.000000	0.770537	7.36643e+06	-45739.1	955.819	-29771.9	0.000000	0.000000	6.771084	-0.026837	NaN	0.000000	0.001553	0.001649	28.1252	0.097768	0.002086	46.8762	118.702	-166.156	-0.023015	0.769156	-0.294667	-0.296048	-0.026837	46.8762	-0.294238	-3861.04	6.950679E-6	NaN
142	1.000000	0.778518	7.36643e+06	-45739.1	955.819	-29771.9	0.000000	0.000000	6.779063	-0.082850	NaN	0.000000	0.001538	0.001658	28.1252	0.011437	0.001870	6.117306	-23.7386	-163.428	-0.085217	0.777210	-0.286686	-0.287994	-0.082850	6.117306	-0.276528	-2091.85	3.960622E-5	NaN
142	1.000000	0.786529	7.36643e+06	-45739.1	955.818	-29771.9	0.000000	0.000000	6.787075	-0.075682	NaN	0.000000	0.001509	0.001654	28.1254	0.032186	0.002120	15.1788	115.883	-167.36	-0.075109	0.785211	-0.278675	-0.279993	-0.075682	15.1788	-0.274935	-1978.88	3.824500E-5	NaN
142	1.000000	0.794549	7.36643e+06	-45739.1	955.817	-29771.9	0.000000	0.000000	6.795096	-0.065314	NaN	0.000000	0.001507	0.001650	28.1242	0.038643	0.002084	18.5437	-107.677	-163.404	-0.016565	0.793291	-0.270655	-0.271913	-0.065314	18.5437	-0.268013	-1553.51	4.204295E-5	NaN
142	1.000000	0.802531	7.36643e+06	-45739.1	955.819	-29771.9	0.000000	0.000000	6.803082	0.047785	NaN	0.000000	0.001522	0.001626	28.124	0.194625	0.001917	101.5	78.6712	-166.022	0.036348	0.801194	-0.262673	-0.264010	0.047785	101.5	-0.263026	-1303.89	-3.664800E-5	NaN
142	1.000000	0.810508	7.36643e+06	-45739.1	955.818	-29771.9	0.000000	0.000000	6.811057	0.007717	NaN	0.000000	0.001545	0.001647	28.1244	0.064274	0.002010	31.9781	68.9844	-164.389	0.025643	0.809196	-0.254696	-0.256008	0.007717	31.9781	-0.254877	-977.727	-7.893109E-6	NaN
142	1.000000	0.818540	7.36643e+06	-45739.1	955.817	-29771.9	0.000000	0.000000	6.819085	-0.079056	NaN	0.000000	0.001570	0.001649	28.1248	0.047614	0.002014	23.647	15.5094	-167.535	-0.073834	0.817204	-0.246664	-0.248000	-0.079056	23.647	-0.244157	-667.334	0.000118	NaN
142	1.000000	0.826508	7.36643e+06	-45739.1	955.817	-29771.9	0.000000	0.000000	6.827055	-0.034756	NaN	0.000000	0.001575	0.001660	28.1239	0.096338	0.002091	46.0732	-134.867	-165.868	-0.047228	0.825167	-0.238696	-0.240037	-0.034756	46.0732	-0.238130	-537.432	6.467026E-5	NaN
142	1.000000	0.834552	7.36643e+06	-45739.1	955.818	-29771.9	0.000000	0.000000	6.835099	-0.046946	NaN	0.000000	0.001607	0.001604	28.1256	0.050031	0.002008	24.9156	-6.904332	-163.057	-0.008442	0.833219	-0.230652	-0.231985	-0.046946	24.9156	-0.229238	-389.482	0.000121	NaN
142	1.000000	0.842517	7.36643e+06	-45739.1	955.818	-29771.9	0.000000	0.000000	6.843062	-0.088940	NaN	0.000000	0.001603	0.001622	28.1254	0.020493	0.002007	10.2092	-143.044	-163.813	-0.034094	0.841251	-0.222687	-0.223953	-0.088940	10.2092	-0.216153	-241.017	0.000369	NaN
142	1.000000	0.850585	7.36643e+06	-45739.1	955.818	-29771.9	0.000000	0.000000	6.851130	-0.087621	NaN	0.000000	0.001614	0.001586	28.1253	0.058597	0.002056	28.4947	146.087	-167.574	-0.023353	0.849236	-0.214619	-0.215968	-0.087621	28.4947	-0.212313	-209.035	0.000419	NaN
142	1.000000	0.858559	7.36643e+06	-45739.1	955.818	-29771.9	0.000000	0.000000	6.859106	-0.028714	NaN	0.000000	0.001615	0.001647	28.1256	0.027266	0.002019	13.5053	-172.042	-167.038	-0.026412	0.857226	-0.206645	-0.207978	-0.028714	13.5053	-0.205051	-159.363	0.000180	NaN
142	1.000000	0.866556	7.36643e+06	-45739.1	955.819	-29771.9	0.000000	0.000000	6.867105	-0.010018	NaN	0.000000	0.001615	0.001613	28.1252	0.056806	0.002016	28.178	51.6777	-168.171	-0.011762	0.865246	-0.198648	-0.199958	-0.010018	28.178	-0.198381	-123.898	8.085615E-5	NaN
142	1.000000	0.874554	7.36643e+06	-45739.1	955.819	-29771.9	0.000000	0.000000	6.875101	-0.047564	NaN	0.000000	0.001626	0.001590	28.1243	0.104245	0.001960	53.1825	-130.635	-161.443	-0.013915	0.873181	-0.190650	-0.192023	-0.047564	53.1825	-0.189979	-89.8831	0.000529	NaN
142	1.000000	0.882567	7.36643e+06	-45739.1	955.818	-29771.9	0.000000	0.000000	6.883111	-0.096571	NaN	0.000000	0.001639	0.001647	28.1243	0.060817	0.002037	29.8521	37.0063	-161.719	-0.104931	0.881293	-0.182637	-0.183911	-0.096571	29.8521	-0.180211	-61.5263	0.001570	NaN
142	1.000000	0.890536	7.36643e+06	-45739.1	955.819	-29771.9	0.000000	0.000000	6.891084	-0.025300	NaN	0.000000	0.001610	0.001661	28.1244	0.052549	0.002020	26.0121	-169.618	-164.981	-0.065784	0.889261	-0.174668	-0.175943	-0.025300	26.0121	-0.173938	-48.0523	0.000527	NaN
142	1.000000	0.898590	7.36643e+06	-45739.1	955.819	-29771.9	0.000000	0.000000	6.899135	-0.087445	NaN	0.000000	0.001644	0.001661	28.1258	0.021711	0.002015	10.7762	7.371338	-163.618	0.003951	0.897217	-0.166614	-0.167987	-0.087445	10.7762	-0.160528	-28.0133	0.003122	NaN
142	1.000000	0.906581	7.36643e+06	-45739.1	955.819	-29771.9	0.000000	0.000000	6.907127	-0.054451	NaN	0.000000	0.001646	0.001619	28.1259	0.007639	0.001772	4.310350	-87.2209	-169.634	-0.116329	0.905269	-0.158623	-0.159934	-0.054451	4.310350	-0.149149	-17.4769	0.003116	NaN
142	1.000000	0.914539	7.36643e+06	-45739.1	955.818	-29771.9	0.000000	0.000000	6.915089	0.041094	NaN	0.000000	0.001611	0.001671	28.1269	0.024133	0.001939	12.4441	-44.1438	-164.441	-0.015591	0.913294	-0.150665	-0.151910	0.041094	12.4441	-0.153142	-20.6569	-0.001989	NaN
142	1.000000	0.922588	7.36643e+06	-45739.1	955.818	-29771.9	0.000000	0.000000	6.923134	-0.075184	NaN	0.000000	0.001645	0.001663	28.1266	0.024237	0.002016	12.0219	-1.931473	-164.109	-0.116806	0.921222	-0.142616	-0.143982	-0.075184	12.0219	-0.137925	-10.8111	0.006954	NaN
142	1.000000	0.930553	7.36643e+06	-45739.1	955.819	-29771.9	0.000000	0.000000	6.931102	-0.009838	NaN	0.000000	0.001596	0.001641	28.1269	0.075179	0.002096	35.8716	-73.7642	-166.946	-0.072601	0.929246	-0.134651	-0.135958	-0.009838	35.8716	-0.134445	-9.283008	0.001060	NaN
142	1.000000	0.938578	7.36643e+06	-45739.1	955.818	-29771.9	0.000000	0.000000	6.939122	-0.101680	NaN	0.000000	0.001589	0.001631	28.1274	0.064835	0.001994	32.5219	121.593	-162.711	-0.117418	0.937281	-0.126626	-0.127923	-0.101680	32.5219	-0.124282	-5.885152	0.017277	NaN
142	1.000000	0.946574	7.36643e+06	-45739.1	955.819	-29771.9	0.000000	0.000000	6.947122	-0.024465	NaN	0.000000	0.001544	0.001621	28.1266	0.070900	0.001986	35.6999	-134.535	-167.856	-0.034825	0.945259	-0.118630	-0.119945	-0.024465	35.6999	-0.118116	-4.424908	0.005529	NaN
142	1.000000	0.954571	7.36643e+06	-45739.1	955.819	-29771.9	0.000000	0.000000	6.955118	-0.045592	NaN	0.000000	0.001549	0.001634	28.126	0.088829	0.002039	43.5613	-69.8847	-165.516	-0.032527	0.953285	-0.110633	-0.111919	-0.045592	43.5613	-0.109848	-2.983053	0.015284	NaN
142	1.000000	0.962591	7.36643e+06	-45739.1	955.819	-29771.9	0.000000	0.000000	6.963134	-0.131996	NaN	0.000000	0.001555	0.001673	28.126	0.128928	0.001994	64.6576	128.433	-163.922	-0.092140	0.961363	-0.102613	-0.103841	-0.131996	64.6576	-0.101082	-1.930607	0.068370	NaN
142	1.000000	0.970583	7.36643e+06	-45739.1	955.817	-29771.9	0.000000	0.000000	6.971130	-0.033702	NaN	0.000000	0.001543	0.001651	28.1259	0.106286	0.002012	52.8278	-170.103	-163.863	-0.036828	0.969278	-0.094621	-0.095926	-0.033702	52.8278	-0.094143	-1.348431	0.024994	NaN
142	1.000000	0.978572	7.36643e+06	-45739.1	955.818	-29771.9	0.000000	0.000000	6.979120	-0.030934	NaN	0.000000	0.001521	0.001669	28.1262	0.051716	0.001939	26.6746	-44.7394	-164.665	-0.069583	0.977275	-0.086632	-0.087929	-0.030934	26.6746	-0.085762	-0.857184	0.036088	NaN
142	1.000000	0.986586	7.36643e+06	-45739.1	955.819	-29771.9	0.000000	0.000000	6.987131	-0.088778	NaN	0.000000	0.001565	0.001609	28.126	0.038632	0.001979	19.5172	-20.6118	-164.14	-0.090646	0.985256	-0.078618	-0.079948	-0.088778	19.5172	-0.075206	-0.467580	0.189868	NaN
142	1.000000	0.994589	7.36643e+06	-45739.1	955.819	-29771.9	0.000000	0.000000	6.995136	-0.057032	NaN	0.000000	0.001557	0.001625	28.1273	0.013348	0.002028	6.581926	-163.334	-166.357	-0.031700	0.993245	-0.070615	-0.071959	-0.057032	6.581926	-0.064116	-0.235491	0.242185	NaN
142	1.000000	1.002569	7.36643e+06	-45739.1	955.819	-29771.9	0.000000	0.000000	7.003115	-0.072996	NaN	0.000000	0.001566	0.001649	28.1277	0.057124	0.002023	28.2401	68.3844	-165.883	-0.018194	1.001340	-0.062635	-0.063864	-0.072996	28.2401	-0.060697	-0.188554	0.387137	NaN
142	1.000000	1.010618	7.36643e+06	-45739.1	955.818	-29771.9	0.000000	0.000000	7.011166	-0.020312	NaN	0.000000	0.001563	0.001628	28.1273	0.028355	0.001910	14.8477	-75.8458	-165.802	-0.034263	1.009320	-0.054586	-0.055884	-0.020312	14.8477	-0.053560	-0.116713	0.174035	NaN
142	1.000000	1.018598	7.36643e+06	-45739.1	955.819	-29771.9	0.000000	0.000000	7.019144	-0.066459	NaN	0.000000	0.001572	0.001675	28.1274	0.034000	0.002008	16.9306	-4.669300	-166.238	-0.107454	1.017233	-0.046606	-0.047971	-0.066459	16.9306	-0.043662	-0.058489	1.136278	NaN
142	1.000000	1.026608	7.36643e+06	-45739.1	955.819	-29771.9	0.000000	0.000000	7.027156	-0.015821	NaN	0.000000	0.001554	0.001634	28.1279	0.039056	0.001990	19.6308	98.9508	-163.653	0.087348	1.025307	-0.038596	-0.039897	-0.015821	19.6308	-0.037992	-0.039320	0.402371	NaN
142	1.000000	1.034616	7.36643e+06	-45739.1	955.818	-29771.9	0.000000	0.000000	7.035164	-0.021313	NaN	0.000000	0.001581	0.001621	28.1249	0.081235	0.002005	40.5111	-146.077	-164.061	-0.058005	1.033288	-0.030588	-0.031916	-0.021313	40.5111	-0.030193	-0.023300	0.914711	NaN
142	1.000000	1.042628	7.36643e+06	-45739.1	955.818	-29771.9	0.000000	0.000000	7.043176	-0.016906	NaN	0.000000	0.001597	0.001641	28.1256	0.030351	0.001987	15.2721	-29.9355	-166.576	-0.083758	1.041296	-0.022576	-0.023908	-0.016906	15.2721	-0.021746	-0.013912	1.215200	NaN
142	1.000000	1.050607	7.36643e+06	-45739.1	955.818	-29771.9	0.000000	0.000000	7.051153	-0.077609	NaN	0.000000	0.001581	0.001663	28.125	0.059707	0.001927	30.9916	-87.4357	-164.5	-0.049854	1.049291	-0.014597	-0.015913	-0.077609	30.9916	-0.012719	-0.007940	9.773845	NaN
142	1.000000	1.058644	7.36643e+06	-45739.1	955.818	-29771.9	0.000000	0.000000	7.059194	0.041449	NaN	0.000000	0.001550	0.001655	28.1254	0.084858	0.001927	44.0332	115.811	-168.096	0.097776	1.057326	-0.006560	-0.007878	0.041449	44.0332	-0.007266	-0.004799	-8.637073	NaN
142	1.000000	1.066635	7.36643e+06	-45739.1	955.818	-29771.9	0.000000	0.000000	7.067214	0.725910	NaN	0.000000	0.001531	0.001640	28.1254	1.130831	0.001936	584.149	6.790646	-165.347	0.189714	1.065306	0.001431	0.000102	0.725910	584.149	0.000499	0.000377	1926.82	27496.4
142	2.000000	1.073995	7.36643e+06	-45739.1	955.816	-29771.9	0.000000	0.000000	7.074933	9.475443	NaN	0.000000	0.001566	0.001651	28.1264	8.968871	0.001565	5732.13	7.883267	-172.298	8.418616	1.073242	0.008791	0.008038	9.475443	5732.13	0.007551	0.006585	1438.97	64538
142	2.000000	1.076187	7.36643e+06	-45739.1	955.818	-29771.9	0.000000	0.000000	7.077208	11.4784	NaN	0.000000	0.001555	0.001642	28.1268	12.0949	0.001840	6573.13	7.426084	-174.352	10.8855	1.075857	0.010983	0.010653	11.4784	6573.13	0.009673	0.008821	1301.29	63942.9
142	2.000000	1.078183	7.36643e+06	-45739.1	955.818	-29771.9	0.000000	0.000000	7.079365	15.4106	NaN	0.000000	0.001562	0.001649	28.1267	13.6117	0.001686	8073.61	11.1616	-178.482	16.4779	1.077837	0.012979	0.012633	15.4106	8073.61	0.011547	0.010952	1407.04	70483.2
142	2.000000	1.080078	7.36643e+06	-45739.1	955.818	-29771.9	0.000000	0.000000	7.081472	20.5657	NaN	0.000000	0.001564	0.001665	28.1262	15.8842	0.001663	9553.13	-2.274407	-168.387	18.2348	1.079783	0.014874	0.014579	20.5657	9553.13	0.013260	0.013034	1577.84	76450.1
142	2.000000	1.082103	7.36643e+06	-45739.1	955.818	-29771.9	0.000000	0.000000	7.083611	23.3406	NaN	0.000000	0.001564	0.001660	28.1265	18.7045	0.001676	11159.5	7.866155	-176.955	22.3151	1.081732	0.016899	0.016528	23.3406	11159.5	0.015330	0.015728	1484	81298
142	2.000000	1.084064	7.36643e+06	-45739.1	955.817	-29771.9	0.000000	0.000000	7.085674	25.795	NaN	0.000000	0.001565	0.001687	28.1252	20.7707	0.001758	11812.7	8.309250	-179.583	24.7353	1.083749	0.018861	0.018545	25.795	11812.7	0.017223	0.018365	1404.6	79640.1
142	2.000000	1.086069	7.36643e+06	-45739.1	955.818	-29771.9	0.000000	0.000000	7.087921	31.7153	NaN	0.000000	0.001567	0.001717	28.1261	23.0252	0.001782	12923.4	8.721035	-179.742	30.8979	1.085769	0.020865	0.020565	31.7153	12923.4	0.019024	0.021032	1507.95	81416.1
142	2.000000	1.088047	7.36643e+06	-45739.1	955.818	-29771.9	0.000000	0.000000	7.090020	34.6455	NaN	0.000000	0.001536	0.001693	28.1254	23.6503	0.001635	14464.5	-0.460506	-173.417	33.1161	1.087759	0.022843	0.022555	34.6455	14464.5	0.021046	0.024213	1430.86	84928.2
142	2.000000	1.090062	7.36643e+06	-45739.1	955.818	-29771.9	0.000000	0.000000	7.092247	39.7943	NaN	0.000000	0.001577	0.001727	28.125	26.665	0.001716	15535.6	4.156504	-178.01	38.7919	1.089782	0.024858	0.024578	39.7943	15535.6	0.022937	0.027369	1453.98	85796.5
142	2.000000	1.092133	7.36643e+06	-45739.1	955.818	-29771.9	0.000000	0.000000	7.094619	47.1306	NaN	0.000000	0.001565	0.001731	28.1254	29.0122	0.001892	15336.4	2.884993	-174.656	48.8911	1.091762	0.026929	0.026558	47.1306	15336.4	0.024624	0.030336	1553.64	80448.8
142	2.000000	1.094060	7.36643e+06	-45739.1	955.818	-29771.9	0.000000	0.000000	7.096824	53.895	NaN	0.000000	0.001549	0.001715	28.1265	31.3342	0.001796	17450.1	7.353585	178.684	53.6202	1.093727	0.028856	0.028523	53.895	17450.1	0.026539	0.033876	1590.96	86621.8
142	2.000000	1.096057	7.36643e+06	-45739.1	955.817	-29771.9	0.000000	0.000000	7.098967	57.4419	NaN	0.000000	0.001526	0.001689	28.1266	32.9458	0.001708	19294.4	1.889734	-178.122	56.6612	1.095742	0.030853	0.030538	57.4419	19294.4	0.028620	0.037932	1514.34	90511
142	2.000000	1.098088	7.36643e+06	-45739.1	955.818	-29771.9	0.000000	0.000000	7.101341	65.7887	NaN	0.000000	0.001556	0.001690	28.1278	34.1083	0.001780	19163.6	8.067531	177.314	65.5246	1.097714	0.032884	0.032510	65.7887	19163.6	0.030309	0.041387	1589.61	86063.9
142	2.000000	1.099991	7.36643e+06	-45739.1	955.817	-29771.9	0.000000	0.000000	7.103471	71.3018	NaN	0.000000	0.001582	0.001687	28.1277	36.6972	0.001881	19511.6	3.933198	179.688	68.312	1.099793	0.034787	0.034589	71.3018	19511.6	0.032046	0.045091	1581.28	83949.9
142	2.000000	1.102053	7.36643e+06	-45739.1	955.817	-29771.9	0.000000	0.000000	7.105692	75.1661	NaN	0.000000	0.001565	0.001724	28.1283	39.2278	0.001887	20789	6.331421	177.792	74.4412	1.101705	0.036849	0.036501	75.1661	20789	0.034137	0.049756	1510.69	85149.8
142	2.000000	1.104092	7.36643e+06	-45739.1	955.817	-29771.9	0.000000	0.000000	7.108024	82.314	NaN	0.000000	0.001591	0.001687	28.1269	40.5389	0.001710	23711.6	4.593539	177.245	82.797	1.103827	0.038888	0.038623	82.314	23711.6	0.036284	0.054778	1502.69	92562
142	2.000000	1.106053	7.36643e+06	-45739.1	955.818	-29771.9	0.000000	0.000000	7.110423	92.9528	NaN	0.000000	0.001561	0.001770	28.1275	44.5179	0.001795	24794.9	7.645417	174.335	94.1707	1.105778	0.040849	0.040574	92.9528	24794.9	0.038038	0.059056	1573.99	93219.1
142	2.000000	1.108025	7.36643e+06	-45739.1	955.817	-29771.9	0.000000	0.000000	7.112706	100.528	NaN	0.000000	0.001581	0.001715	28.127	44.8299	0.001768	25359.8	4.988472	177.51	99.7414	1.107740	0.042821	0.042536	100.528	25359.8	0.039848	0.063635	1579.76	91848
142	2.000000	1.110014	7.36643e+06	-45739.1	955.818	-29771.9	0.000000	0.000000	7.115066	109.537	NaN	0.000000	0.001552	0.001784	28.127	47.3173	0.001692	27963	7.077878	174.235	107.93	1.109670	0.044810	0.044466	109.537	27963	0.041872	0.068956	1588.51	97290.6
142	2.000000	1.112001	7.36643e+06	-45739.1	955.818	-29771.9	0.000000	0.000000	7.117527	121.086	NaN	0.000000	0.001565	0.001810	28.1273	48.9883	0.001745	28075.5	4.963618	176.885	117.121	1.111701	0.046797	0.046497	121.086	28075.5	0.043562	0.073558	1646.13	94576.8
142	2.000000	1.114020	7.36643e+06	-45739.1	955.818	-29771.9	0.000000	0.000000	7.119848	128.412	NaN	0.000000	0.001592	0.001779	28.128	50.8511	0.001732	29352.2	3.857399	176.92	126.261	1.113770	0.048816	0.048566	128.412	29352.2	0.045535	0.079113	1623.14	95343
142	2.000000	1.115988	7.36643e+06	-45739.1	955.818	-29771.9	0.000000	0.000000	7.122101	135.338	NaN	0.000000	0.001585	0.001775	28.1284	53.9091	0.001856	29048.6	3.304601	177.836	134.082	1.115715	0.050784	0.050511	135.338	29048.6	0.047290	0.084221	1606.94	91451.1
142	2.000000	1.118089	7.36643e+06	-45739.1	955.818	-29771.9	0.000000	0.000000	7.124687	147.152	NaN	0.000000	0.001585	0.001750	28.1283	54.7974	0.001788	30642.2	2.818291	177.775	148.682	1.117700	0.052885	0.052496	147.152	30642.2	0.049283	0.090211	1631.2	93209.9
142	2.000000	1.120011	7.36643e+06	-45739.1	955.818	-29771.9	0.000000	0.000000	7.126853	153.08	NaN	0.000000	0.001557	0.001791	28.1283	57.0641	0.001803	31647.6	0.638599	-179.871	151.818	1.119747	0.054807	0.054543	153.08	31647.6	0.051180	0.096094	1593.02	93275.1
142	2.000000	1.122090	7.36643e+06	-45739.1	955.818	-29771.9	0.000000	0.000000	7.129510	167.132	NaN	0.000000	0.001540	0.001752	28.1283	60.2479	0.001831	32898.4	9.157517	171.849	167.64	1.121652	0.056886	0.056448	167.132	32898.4	0.053076	0.102158	1636.01	94039.6
142	2.000000	1.124062	7.36643e+06	-45739.1	955.819	-29771.9	0.000000	0.000000	7.131947	178.452	NaN	0.000000	0.001546	0.001746	28.127	60.3149	0.001793	33632.2	3.250479	177.24	177.717	1.123607	0.058858	0.058403	178.452	33632.2	0.054879	0.108087	1651.01	93463.5
142	2.000000	1.126036	7.36643e+06	-45739.1	955.818	-29771.9	0.000000	0.000000	7.134155	184.162	NaN	0.000000	0.001539	0.001760	28.1271	63.8017	0.001840	34676.1	2.272696	177.903	182.938	1.125778	0.060832	0.060574	184.162	34676.1	0.056849	0.114751	1604.88	93524.4
142	2.000000	1.128026	7.36643e+06	-45739.1	955.818	-29771.9	0.000000	0.000000	7.136769	199.326	NaN	0.000000	0.001554	0.001789	28.1276	65.1066	0.001935	33642.3	5.119509	174.431	200.466	1.127665	0.062822	0.062461	199.326	33642.3	0.058378	0.120057	1660.26	88708.5
142	2.000000	1.130016	7.36643e+06	-45739.1	955.818	-29771.9	0.000000	0.000000	7.139241	211.055	NaN	0.000000	0.001558	0.001744	28.1279	68.6463	0.001796	38219.4	6.941514	172.972	209.381	1.129708	0.064812	0.064504	211.055	38219.4	0.060670	0.128223	1646	97515.6
142	2.000000	1.132020	7.36643e+06	-45739.1	955.818	-29771.9	0.000000	0.000000	7.141788	224.267	NaN	0.000000	0.001531	0.001743	28.1262	70.4359	0.001858	37919.4	6.942281	173.018	221.465	1.131635	0.066816	0.066431	224.267	37919.4	0.062380	0.134482	1667.64	94471.9
142	2.000000	1.133939	7.36643e+06	-45739.1	955.817	-29771.9	0.000000	0.000000	7.144165	235.417	NaN	0.000000	0.001518	0.001706	28.1272	70.9312	0.001857	38194	4.972435	174.225	231.042	1.133715	0.068735	0.068511	235.417	38194	0.064112	0.140965	1670.03	92942
142	2.000000	1.136007	7.36643e+06	-45739.1	955.818	-29771.9	0.000000	0.000000	7.146757	248.138	NaN	0.000000	0.001554	0.001750	28.127	71.9403	0.001753	41041.3	4.918400	173.332	247.787	1.135688	0.070803	0.070484	248.138	41041.3	0.066269	0.149241	1662.67	97062.2
142	2.000000	1.138041	7.36643e+06	-45739.1	955.817	-29771.9	0.000000	0.000000	7.149474	264.765	NaN	0.000000	0.001515	0.001731	28.1274	72.5792	0.001729	41979.2	4.479731	174.094	265.818	1.137704	0.072837	0.072500	264.765	41979.2	0.068107	0.156471	1692.11	96959.6
142	2.000000	1.139938	7.36643e+06	-45739.1	955.817	-29771.9	0.000000	0.000000	7.151952	278.882	NaN	0.000000	0.001527	0.001761	28.1274	74.8565	0.001692	44248.6	2.303663	175.908	275.997	1.139681	0.074735	0.074477	278.882	44248.6	0.070008	0.164119	1699.27	99791.5
142	2.000000	1.142060	7.36643e+06	-45739.1	955.816	-29771.9	0.000000	0.000000	7.154464	288.38	NaN	0.000000	0.001525	0.001749	28.1275	79.1411	0.001744	45373	5.674566	172.352	287.29	1.141704	0.076856	0.076500	288.38	45373	0.072090	0.172692	1669.91	99755.1
142	2.000000	1.143976	7.36643e+06	-45739.1	955.817	-29771.9	0.000000	0.000000	7.156968	302.7	NaN	0.000000	0.001541	0.001729	28.1263	80.0475	0.001745	45864	5.535083	172.803	300.5	1.143636	0.078772	0.078432	302.7	45864	0.073822	0.179982	1681.84	98771.4
142	2.000000	1.146022	7.36643e+06	-45739.1	955.818	-29771.9	0.000000	0.000000	7.159567	316.156	NaN	0.000000	0.001566	0.001740	28.1262	84.1014	0.001821	46187.8	7.226246	170.969	316.071	1.145617	0.080818	0.080413	316.156	46187.8	0.075684	0.187975	1681.9	97330.7
142	2.000000	1.147976	7.36643e+06	-45739.1	955.818	-29771.9	0.000000	0.000000	7.162298	335.056	NaN	0.000000	0.001546	0.001756	28.1264	83.8224	0.001815	46173.3	2.755142	174.907	336.052	1.147690	0.082772	0.082486	335.056	46173.3	0.077329	0.195174	1716.71	95489.1
142	2.000000	1.149900	7.36643e+06	-45739.1	955.819	-29771.9	0.000000	0.000000	7.164535	342.681	NaN	0.000000	0.001564	0.001750	28.1259	89.1037	0.001870	47638.3	8.922174	168.541	337.422	1.149510	0.084696	0.084306	342.681	47638.3	0.079301	0.203965	1680.1	96372
142	2.000000	1.152010	7.36643e+06	-45739.1	955.818	-29771.9	0.000000	0.000000	7.167476	362.885	NaN	0.000000	0.001557	0.001704	28.1259	89.1406	0.001836	48542.9	3.323919	174.214	362.632	1.151622	0.086806	0.086418	362.885	48542.9	0.081199	0.212604	1706.86	96186.4
142	2.000000	1.154020	7.36643e+06	-45739.1	955.819	-29771.9	0.000000	0.000000	7.170074	377.18	NaN	0.000000	0.001550	0.001747	28.1276	91.4449	0.001828	50028.5	8.991603	168.4	376.964	1.153573	0.088816	0.088369	377.18	50028.5	0.083162	0.221711	1701.22	97072.6
142	2.000000	1.155894	7.36643e+06	-45739.1	955.818	-29771.9	0.000000	0.000000	7.172634	393.869	NaN	0.000000	0.001559	0.001718	28.1273	92.9808	0.001716	54180.4	4.573387	171.678	389.458	1.155671	0.090690	0.090467	393.869	54180.4	0.085237	0.231535	1701.12	102874
142	2.000000	1.157919	7.36643e+06	-45739.1	955.817	-29771.9	0.000000	0.000000	7.175348	410.621	NaN	0.000000	0.001569	0.001664	28.1273	94.6646	0.001880	50341.7	7.802232	169.48	405.994	1.157574	0.092716	0.092370	410.621	50341.7	0.086598	0.238084	1724.69	94261.9
142	2.000000	1.159994	7.36643e+06	-45739.1	955.819	-29771.9	0.000000	0.000000	7.177687	417.062	NaN	0.000000	0.001559	0.001673	28.1271	96.6903	0.001828	52879.8	5.463983	170.991	415.426	1.159675	0.094790	0.094471	417.062	52879.8	0.088875	0.249231	1673.4	96774.7
142	2.000000	1.161982	7.36643e+06	-45739.1	955.818	-29771.9	0.000000	0.000000	7.180384	434.286	NaN	0.000000	0.001557	0.001696	28.1274	98.373	0.001821	54026.1	5.565832	171.139	431.753	1.161663	0.096778	0.096459	434.286	54026.1	0.090749	0.258589	1679.44	97067
142	2.000000	1.163928	7.36643e+06	-45739.1	955.819	-29771.9	0.000000	0.000000	7.182928	448.829	NaN	0.000000	0.001582	0.001659	28.1268	99.3754	0.001854	53592	4.077309	172.694	446.451	1.163624	0.098724	0.098420	448.829	53592	0.092443	0.267182	1679.86	94726
142	2.000000	1.165924	7.36643e+06	-45739.1	955.818	-29771.9	0.000000	0.000000	7.185624	465.876	NaN	0.000000	0.001552	0.001703	28.1276	101.224	0.001740	58162.1	0.360748	176.199	463.74	1.165512	0.100720	0.100308	465.876	58162.1	0.094713	0.278905	1670.38	100620
142	2.000000	1.167947	7.36643e+06	-45739.1	955.818	-29771.9	0.000000	0.000000	7.188384	483.816	NaN	0.000000	0.001557	0.001671	28.1281	102.241	0.001765	57937.7	4.814587	171.632	482.199	1.167650	0.102743	0.102446	483.816	57937.7	0.096480	0.288192	1678.8	98603.6
142	2.000000	1.169852	7.36643e+06	-45739.1	955.818	-29771.9	0.000000	0.000000	7.191026	501.724	NaN	0.000000	0.001569	0.001698	28.1277	104.448	0.001742	59946.8	2.498352	173.73	493.666	1.169464	0.104648	0.104260	501.724	59946.8	0.098371	0.298292	1681.99	100281
142	2.000000	1.172026	7.36643e+06	-45739.1	955.818	-29771.9	0.000000	0.000000	7.193928	519.445	NaN	0.000000	0.001553	0.001738	28.1278	107.913	0.001903	56710.8	3.992320	172.522	520.479	1.171727	0.106822	0.106523	519.445	56710.8	0.099952	0.306859	1692.78	93534.1
142	2.000000	1.172480	7.36643e+06	-45739.1	955.818	-29771.9	0.000000	0.000000	7.194491	522.106	NaN	0.000000	0.001546	0.001716	28.0891	109.036	0.001838	59328.1	5.435949	-8.791016	519.329	1.172084	0.107276	0.106880	522.106	59328.1	0.100675	0.310815	1679.8	97226.1