File: remote_trans/data/nanoindenter/0828-1/data/Data_2025-08-06,11h17m57s/2025-07-22_16-23-58_1_171.txt
2025-07-22, 16:23:58, 1
Index	Phase	Displacement	Time	Pos X	Pos Y	Pos Z	Rot A	Rot B	Piezo Z	Force A	Force B	Gripper	Voltage A	Voltage B	Temperature	Amplitude force	Amplitude pos	Stiffness	Phase shift	Phase excitation	Force A raw	Displacement raw	HMax	HMax raw	Real Force	Real Stiffness	Contact Depth	Area	Hardness	Reduced Mod.
[#]	[#]	[um]	[s]	[um]	[um]	[um]	[m°]	[m°]	[um]	[uN]	[uN]	[V]	[V]	[V]	[°C]	[uN]	[um]	[N/m]	[°]	[°]	[uN]	[um]	[um]	[um]	[uN]	[N/m]	[um]	[um^2]	[MPa]	[MPa]
171	1.000000	0.003297	7.36671e+06	-47189.1	955.817	-29767.2	0.000000	0.000000	6.002834	0.075306	NaN	0.000000	0.001653	0.001695	28.09	0.097534	0.001020	95.6344	6.382223	-164.366	0.027862	0.001934	-1.126598	-1.127960	0.075306	95.6344	-1.127189	-1.161224E+15	-6.485080E-17	NaN
171	1.000000	0.013336	7.36671e+06	-47189.1	955.819	-29767.2	0.000000	0.000000	6.012872	0.027580	NaN	0.000000	0.001667	0.001719	28.1296	0.021545	0.001162	18.5383	89.6203	14.02	-0.000647	0.011874	-1.116558	-1.118021	0.027580	18.5383	-1.117674	-8.655015E+14	-3.186577E-17	NaN
171	1.000000	0.023243	7.36671e+06	-47189.1	955.819	-29767.2	0.000000	0.000000	6.022774	-0.085154	NaN	0.000000	0.001659	0.001695	28.1028	0.079963	0.001673	47.7976	-151.742	-164.664	-0.056087	0.021937	-1.106652	-1.107958	-0.085154	47.7976	-1.105316	-5.907681E+14	1.441416E-16	NaN
171	1.000000	0.033233	7.36671e+06	-47189.1	955.817	-29767.2	0.000000	0.000000	6.032765	-0.051125	NaN	0.000000	0.001670	0.001692	28.0779	0.088837	0.001788	49.6973	-91.6399	14.2125	0.013449	0.031875	-1.096662	-1.098020	-0.051125	49.6973	-1.095890	-4.414663E+14	1.158078E-16	NaN
171	1.000000	0.043211	7.36671e+06	-47189.1	955.82	-29767.2	0.000000	0.000000	6.042747	0.035655	NaN	0.000000	0.001645	0.001724	28.0904	0.067449	0.001990	33.8876	72.3642	-166.705	0.030451	0.041915	-1.086684	-1.087980	0.035655	33.8876	-1.087473	-3.403131E+14	-1.047712E-16	NaN
171	1.000000	0.053233	7.36671e+06	-47189.1	955.819	-29767.2	0.000000	0.000000	6.052766	-0.023039	NaN	0.000000	0.001621	0.001730	28.1306	0.062000	0.001997	31.0462	-22.1965	16.0091	-0.070634	0.051828	-1.076662	-1.078067	-0.023039	31.0462	-1.076105	-2.394439E+14	9.622034E-17	NaN
171	1.000000	0.063260	7.36671e+06	-47189.1	955.817	-29767.2	0.000000	0.000000	6.062790	-0.081909	NaN	0.000000	0.001614	0.001703	28.1045	0.052969	0.001996	26.5435	-40.1735	-163.731	-0.115319	0.061890	-1.066635	-1.068005	-0.081909	26.5435	-1.064321	-1.662974E+14	4.925471E-16	NaN
171	1.000000	0.073222	7.36671e+06	-47189.1	955.818	-29767.2	0.000000	0.000000	6.072756	-0.006285	NaN	0.000000	0.001622	0.001712	28.0791	0.039396	0.002058	19.1423	-96.9629	14.1177	-0.095252	0.071843	-1.056673	-1.058052	-0.006285	19.1423	-1.056426	-1.302544E+14	4.824927E-17	NaN
171	1.000000	0.083230	7.36671e+06	-47189.1	955.818	-29767.2	0.000000	0.000000	6.082763	-0.006880	NaN	0.000000	0.001617	0.001693	28.0898	0.085034	0.002020	42.0946	-82.433	-165.924	0.051165	0.081895	-1.046665	-1.048000	-0.006880	42.0946	-1.046543	-9.592606E+13	7.171824E-17	NaN
171	1.000000	0.093235	7.36671e+06	-47189.1	955.818	-29767.2	0.000000	0.000000	6.092767	-0.054581	NaN	0.000000	0.001647	0.001700	28.1293	0.096760	0.002089	46.3087	-111.871	11.511	-0.054399	0.091943	-1.036660	-1.037952	-0.054581	46.3087	-1.035776	-6.873208E+13	7.941175E-16	NaN
171	1.000000	0.103232	7.36671e+06	-47189.1	955.818	-29767.2	0.000000	0.000000	6.102766	0.011322	NaN	0.000000	0.001659	0.001683	28.1032	0.017253	0.002180	7.912482	-98.6664	-166.802	-0.023413	0.101931	-1.026663	-1.027964	0.011322	7.912482	-1.027736	-5.358362E+13	-2.112905E-16	NaN
171	1.000000	0.113229	7.36671e+06	-47189.1	955.818	-29767.2	0.000000	0.000000	6.112762	-0.044732	NaN	0.000000	0.001653	0.001706	28.081	0.115499	0.001973	58.5465	-167.687	14.546	-0.036467	0.111835	-1.016666	-1.018060	-0.044732	58.5465	-1.016093	-3.735722E+13	1.197423E-15	NaN
171	1.000000	0.123245	7.36671e+06	-47189.1	955.819	-29767.2	0.000000	0.000000	6.122777	-0.042717	NaN	0.000000	0.001657	0.001690	28.0922	0.054647	0.001969	27.7527	93.2441	-163.941	0.036342	0.121941	-1.006650	-1.007954	-0.042717	27.7527	-1.005496	-2.690036E+13	1.587965E-15	NaN
171	1.000000	0.133262	7.36671e+06	-47189.1	955.819	-29767.2	0.000000	0.000000	6.132795	-0.040050	NaN	0.000000	0.001656	0.001684	28.1316	0.049315	0.002024	24.359	57.2929	17.0597	-0.099017	0.131875	-0.996633	-0.998020	-0.040050	24.359	-0.995400	-1.967108E+13	2.036001E-15	NaN
171	1.000000	0.143263	7.36671e+06	-47189.1	955.819	-29767.2	0.000000	0.000000	6.142796	-0.030198	NaN	0.000000	0.001629	0.001675	28.1062	0.074031	0.002026	36.5362	-175.51	-164.311	-0.049446	0.141974	-0.986632	-0.987921	-0.030198	36.5362	-0.986012	-1.470286E+13	2.053873E-15	NaN
171	1.000000	0.153279	7.36671e+06	-47189.1	955.819	-29767.2	0.000000	0.000000	6.152813	-0.001515	NaN	0.000000	0.001650	0.001709	28.0811	0.101923	0.001987	51.294	150.507	15.5355	0.082178	0.151871	-0.976616	-0.978024	-0.001515	51.294	-0.976594	-1.097797E+13	1.379902E-16	NaN
171	1.000000	0.163258	7.36671e+06	-47189.1	955.819	-29767.2	0.000000	0.000000	6.162791	-0.017343	NaN	0.000000	0.001704	0.001678	28.0908	0.014741	0.001997	7.381558	74.4894	-169.608	0.026040	0.161981	-0.966637	-0.967914	-0.017343	7.381558	-0.964875	-7.631133E+12	2.272643E-15	NaN
171	1.000000	0.173242	7.36671e+06	-47189.1	955.818	-29767.2	0.000000	0.000000	6.172773	-0.065129	NaN	0.000000	0.001713	0.001698	28.1304	0.087452	0.001930	45.3082	8.364144	13.9349	-0.085103	0.171902	-0.956653	-0.957993	-0.065129	45.3082	-0.955575	-5.717479E+12	1.139126E-14	NaN
171	1.000000	0.183265	7.36671e+06	-47189.1	955.818	-29767.2	0.000000	0.000000	6.182799	0.009976	NaN	0.000000	0.001698	0.001720	28.1062	0.077237	0.002022	38.198	161.39	-165.648	-0.013434	0.181965	-0.946630	-0.947930	0.009976	38.198	-0.946826	-4.357343E+12	-2.289404E-15	NaN
171	1.000000	0.193297	7.36671e+06	-47189.1	955.819	-29767.2	0.000000	0.000000	6.192831	-0.005205	NaN	0.000000	0.001711	0.001710	28.0793	0.148534	0.002039	72.8338	-85.8722	12.8194	-0.048107	0.191946	-0.936598	-0.937949	-0.005205	72.8338	-0.936544	-3.165994E+12	1.644158E-15	NaN
171	1.000000	0.203310	7.36671e+06	-47189.1	955.818	-29767.2	0.000000	0.000000	6.202844	-0.005227	NaN	0.000000	0.001699	0.001721	28.0919	0.027287	0.001993	13.695	98.8601	-162.903	0.084247	0.201928	-0.926585	-0.927967	-0.005227	13.695	-0.926299	-2.302696E+12	2.269886E-15	NaN
171	1.000000	0.213286	7.36671e+06	-47189.1	955.82	-29767.2	0.000000	0.000000	6.212821	0.020858	NaN	0.000000	0.001696	0.001726	28.1319	0.058865	0.001933	30.445	106.91	12.5933	0.074074	0.211936	-0.916609	-0.917958	0.020858	30.445	-0.917123	-1.731231E+12	-1.204806E-14	NaN
171	1.000000	0.223274	7.36671e+06	-47189.1	955.819	-29767.2	0.000000	0.000000	6.222809	0.017848	NaN	0.000000	0.001677	0.001712	28.1067	0.050013	0.001995	25.0665	71.9943	-167.625	0.003543	0.222011	-0.906621	-0.907884	0.017848	25.0665	-0.907155	-1.269777E+12	-1.405636E-14	NaN
171	1.000000	0.233273	7.36671e+06	-47189.1	955.818	-29767.2	0.000000	0.000000	6.232807	0.000409	NaN	0.000000	0.001708	0.001704	28.0817	0.024675	0.001994	12.3767	-108.172	14.198	-0.007119	0.231890	-0.896622	-0.898005	0.000409	12.3767	-0.896647	-9.156991E+11	-4.462322E-16	NaN
171	1.000000	0.243302	7.36671e+06	-47189.1	955.818	-29767.2	0.000000	0.000000	6.242835	-0.021725	NaN	0.000000	0.001661	0.001722	28.091	0.058654	0.001987	29.5181	58.0677	-164.177	-0.028749	0.242013	-0.886593	-0.887882	-0.021725	29.5181	-0.886041	-6.582529E+11	3.300442E-14	NaN
171	1.000000	0.253307	7.36671e+06	-47189.1	955.819	-29767.2	0.000000	0.000000	6.252838	-0.074514	NaN	0.000000	0.001699	0.001742	28.1289	0.034274	0.001866	18.3689	-126.027	17.3025	-0.090911	0.251925	-0.876588	-0.877970	-0.074514	18.3689	-0.873546	-4.460810E+11	1.670421E-13	NaN
171	1.000000	0.263291	7.36671e+06	-47189.1	955.818	-29767.2	0.000000	0.000000	6.262824	-0.006870	NaN	0.000000	0.001669	0.001675	28.1042	0.042068	0.001909	22.0339	119.253	-164.373	0.031203	0.262029	-0.866604	-0.867865	-0.006870	22.0339	-0.866370	-3.567255E+11	1.925882E-14	NaN
171	1.000000	0.273332	7.36671e+06	-47189.1	955.817	-29767.2	0.000000	0.000000	6.272862	-0.078778	NaN	0.000000	0.001679	0.001730	28.0803	0.039662	0.001944	20.4032	168.203	14.062	-0.014267	0.271910	-0.856563	-0.857985	-0.078778	20.4032	-0.853668	-2.401033E+11	3.280985E-13	NaN
171	1.000000	0.283308	7.36671e+06	-47189.1	955.819	-29767.2	0.000000	0.000000	6.282840	-0.045979	NaN	0.000000	0.001635	0.001705	28.0905	0.095781	0.002026	47.2684	-64.6372	-164.093	-0.057058	0.282036	-0.846587	-0.847859	-0.045979	47.2684	-0.845858	-1.882077E+11	2.442986E-13	NaN
171	1.000000	0.293313	7.36671e+06	-47189.1	955.819	-29767.2	0.000000	0.000000	6.292846	-0.023124	NaN	0.000000	0.001622	0.001692	28.1303	0.097295	0.001997	48.7282	-134.978	15.709	0.028552	0.291985	-0.836582	-0.837910	-0.023124	48.7282	-0.836226	-1.393678E+11	1.659185E-13	NaN
171	1.000000	0.303319	7.36671e+06	-47189.1	955.818	-29767.2	0.000000	0.000000	6.302854	0.040374	NaN	0.000000	0.001651	0.001690	28.1055	0.074102	0.001922	38.546	10.4268	-164.368	-0.023490	0.302008	-0.826576	-0.827887	0.040374	38.546	-0.827362	-1.056881E+11	-3.820066E-13	NaN
171	1.000000	0.313337	7.36671e+06	-47189.1	955.819	-29767.2	0.000000	0.000000	6.312871	0.012664	NaN	0.000000	0.001648	0.001690	28.0815	0.029914	0.001965	15.2254	-16.7453	14.481	0.104294	0.311949	-0.816558	-0.817946	0.012664	15.2254	-0.817182	-7.691240E+10	-1.646564E-13	NaN
171	1.000000	0.323317	7.36671e+06	-47189.1	955.819	-29767.2	0.000000	0.000000	6.322852	0.022224	NaN	0.000000	0.001607	0.001669	28.0895	0.001797	0.001969	0.912550	26.5015	-165.531	0.036769	0.322013	-0.806578	-0.807881	0.022224	0.912550	-0.824843	-9.769742E+10	-2.274797E-13	NaN
171	1.000000	0.333346	7.36671e+06	-47189.1	955.819	-29767.2	0.000000	0.000000	6.332880	0.019545	NaN	0.000000	0.001614	0.001671	28.1289	0.093832	0.002025	46.3402	132.651	18.9964	0.027757	0.331993	-0.796549	-0.797902	0.019545	46.3402	-0.796866	-4.076739E+10	-4.794230E-13	NaN
171	1.000000	0.343344	7.36671e+06	-47189.1	955.82	-29767.2	0.000000	0.000000	6.342878	0.013667	NaN	0.000000	0.001631	0.001687	28.1051	0.100583	0.001945	51.7031	-58.6821	-162.582	-0.043572	0.342058	-0.786551	-0.787837	0.013667	51.7031	-0.786749	-2.971203E+10	-4.599680E-13	NaN
171	1.000000	0.353312	7.36671e+06	-47189.1	955.819	-29767.2	0.000000	0.000000	6.352846	0.004316	NaN	0.000000	0.001627	0.001712	28.0792	0.061672	0.001988	31.0201	-100.852	12.1598	-0.061811	0.352010	-0.776583	-0.777885	0.004316	31.0201	-0.776687	-2.168748E+10	-1.989965E-13	NaN
171	1.000000	0.363369	7.36671e+06	-47189.1	955.818	-29767.2	0.000000	0.000000	6.362902	-0.029104	NaN	0.000000	0.001627	0.001717	28.0901	0.059140	0.001933	30.6029	-89.2942	-165.317	-0.045894	0.362018	-0.766526	-0.767877	-0.029104	30.6029	-0.765813	-1.542998E+10	1.886177E-12	NaN
171	1.000000	0.373367	7.36671e+06	-47189.1	955.819	-29767.2	0.000000	0.000000	6.372901	0.002092	NaN	0.000000	0.001639	0.001698	28.1296	0.046952	0.002074	22.6343	-130.829	18.549	-0.008527	0.372011	-0.756528	-0.757884	0.002092	22.6343	-0.756597	-1.156122E+10	-1.809795E-13	NaN
171	1.000000	0.383363	7.36671e+06	-47189.1	955.818	-29767.2	0.000000	0.000000	6.382897	0.004895	NaN	0.000000	0.001670	0.001688	28.1062	0.039711	0.001969	20.1695	49.9559	-164.388	-0.058293	0.382084	-0.746532	-0.747811	0.004895	20.1695	-0.746714	-8.481732E+9	-5.770927E-13	NaN
171	1.000000	0.393398	7.36671e+06	-47189.1	955.819	-29767.2	0.000000	0.000000	6.392933	0.036354	NaN	0.000000	0.001657	0.001725	28.0806	0.034194	0.001961	17.4374	36.5971	11.8271	0.055575	0.392015	-0.736497	-0.737880	0.036354	17.4374	-0.738061	-6.466087E+9	-5.622298E-12	NaN
171	1.000000	0.403366	7.36671e+06	-47189.1	955.818	-29767.2	0.000000	0.000000	6.402898	-0.045885	NaN	0.000000	0.001627	0.001721	28.09	0.133751	0.002131	62.7713	55.6759	-166.519	-0.068097	0.402085	-0.726529	-0.727810	-0.045885	62.7713	-0.725981	-4.426150E+9	1.036682E-11	NaN
171	1.000000	0.413319	7.36671e+06	-47189.1	955.819	-29767.2	0.000000	0.000000	6.412854	0.024417	NaN	0.000000	0.001631	0.001714	28.1301	0.010412	0.002029	5.132526	-8.481482	17.8291	-0.007894	0.412038	-0.716576	-0.717857	0.024417	5.132526	-0.720144	-3.685010E+9	-6.625911E-12	NaN
171	1.000000	0.423354	7.36671e+06	-47189.1	955.819	-29767.2	0.000000	0.000000	6.422888	-0.000219	NaN	0.000000	0.001622	0.001668	28.1068	0.055975	0.001997	28.0273	90.5131	-164.523	-0.051418	0.422067	-0.706541	-0.707828	-0.000219	28.0273	-0.706535	-2.403046E+9	9.123681E-14	NaN
171	1.000000	0.433351	7.36671e+06	-47189.1	955.818	-29767.2	0.000000	0.000000	6.432885	-0.003034	NaN	0.000000	0.001636	0.001717	28.0803	0.099130	0.002028	48.876	133.696	17.4543	-0.040313	0.432014	-0.696544	-0.697881	-0.003034	48.876	-0.696497	-1.752624E+9	1.730961E-12	NaN
171	1.000000	0.443373	7.36671e+06	-47189.1	955.817	-29767.2	0.000000	0.000000	6.442904	-0.061410	NaN	0.000000	0.001614	0.001730	28.0905	0.048832	0.001968	24.8102	79.1513	-165.812	-0.128990	0.442089	-0.686522	-0.687806	-0.061410	24.8102	-0.684666	-1.207835E+9	5.084287E-11	NaN
171	1.000000	0.453377	7.36671e+06	-47189.1	955.818	-29767.2	0.000000	0.000000	6.452913	0.035858	NaN	0.000000	0.001627	0.001722	28.1309	0.029519	0.001954	15.1052	24.9752	16.3237	0.048963	0.452038	-0.676518	-0.677857	0.035858	15.1052	-0.678298	-9.883916E+8	-3.627915E-11	NaN
171	1.000000	0.463386	7.36671e+06	-47189.1	955.82	-29767.2	0.000000	0.000000	6.462918	-0.047290	NaN	0.000000	0.001628	0.001739	28.1079	0.098750	0.001983	49.7873	0.995808	-163.619	-0.042281	0.462074	-0.666509	-0.667821	-0.047290	49.7873	-0.665797	-6.665834E+8	7.094427E-11	NaN
171	1.000000	0.473427	7.36671e+06	-47189.1	955.819	-29767.2	0.000000	0.000000	6.472961	0.007346	NaN	0.000000	0.001653	0.001689	28.0808	0.029728	0.002026	14.6749	-1.236701	13.2761	-0.019701	0.472016	-0.656468	-0.657879	0.007346	14.6749	-0.656844	-5.026064E+8	-1.461521E-11	NaN
171	1.000000	0.483407	7.36671e+06	-47189.1	955.819	-29767.2	0.000000	0.000000	6.482941	0.004989	NaN	0.000000	0.001680	0.001748	28.0898	0.044369	0.001959	22.6449	-27.3727	-164.53	-0.008945	0.482117	-0.646488	-0.647778	0.004989	22.6449	-0.646653	-3.643744E+8	-1.369262E-11	NaN
171	1.000000	0.493431	7.36671e+06	-47189.1	955.818	-29767.2	0.000000	0.000000	6.492964	-0.016940	NaN	0.000000	0.001639	0.001696	28.1301	0.101886	0.001922	53.0207	-133.969	15.5913	-0.107833	0.492086	-0.636464	-0.637809	-0.016940	53.0207	-0.636225	-2.621093E+8	6.463115E-11	NaN
171	1.000000	0.503421	7.36671e+06	-47189.1	955.819	-29767.2	0.000000	0.000000	6.502950	-0.124632	NaN	0.000000	0.001623	0.001753	28.107	0.056693	0.002079	27.2718	-32.0768	-164.384	-0.040335	0.502099	-0.626474	-0.627796	-0.124632	27.2718	-0.623047	-1.727844E+8	7.213151E-10	NaN
171	1.000000	0.513402	7.36671e+06	-47189.1	955.819	-29767.2	0.000000	0.000000	6.512933	-0.069718	NaN	0.000000	0.001644	0.001722	28.0803	0.020290	0.002039	9.953060	71.5894	14.5798	-0.045524	0.512052	-0.616493	-0.617843	-0.069718	9.953060	-0.611239	-1.188957E+8	5.863794E-10	NaN
171	1.000000	0.523406	7.36671e+06	-47189.1	955.819	-29767.2	0.000000	0.000000	6.522937	-0.066473	NaN	0.000000	0.001627	0.001740	28.0887	0.051753	0.001962	26.3773	144.452	-166.516	-0.038688	0.522136	-0.606489	-0.607759	-0.066473	26.3773	-0.604599	-9.633512E+7	6.900170E-10	NaN
171	1.000000	0.533444	7.36671e+06	-47189.1	955.82	-29767.2	0.000000	0.000000	6.532979	0.020778	NaN	0.000000	0.001625	0.001753	28.1295	0.078255	0.001992	39.2792	-159.299	12.6489	0.115254	0.532091	-0.596451	-0.597804	0.020778	39.2792	-0.596848	-7.534291E+7	-2.757752E-10	NaN
171	1.000000	0.543429	7.36671e+06	-47189.1	955.819	-29767.2	0.000000	0.000000	6.542963	-0.017537	NaN	0.000000	0.001665	0.001700	28.1064	0.053330	0.002043	26.1057	151.997	-168.621	-0.039600	0.542093	-0.586466	-0.587802	-0.017537	26.1057	-0.585962	-5.333096E+7	3.288418E-10	NaN
171	1.000000	0.553440	7.36671e+06	-47189.1	955.819	-29767.2	0.000000	0.000000	6.552972	-0.045463	NaN	0.000000	0.001643	0.001679	28.0795	0.037863	0.002065	18.3311	-1.086529	13.336	-0.074401	0.552061	-0.576455	-0.577834	-0.045463	18.3311	-0.574595	-3.716275E+7	1.223346E-9	NaN
171	1.000000	0.563413	7.36671e+06	-47189.1	955.819	-29767.2	0.000000	0.000000	6.562947	-0.001164	NaN	0.000000	0.001658	0.001722	28.0875	0.071628	0.002098	34.1343	-149.258	-162.718	-0.028334	0.562109	-0.566481	-0.567786	-0.001164	34.1343	-0.566456	-2.868483E+7	4.057915E-11	NaN
171	1.000000	0.573409	7.36671e+06	-47189.1	955.82	-29767.2	0.000000	0.000000	6.572942	-0.027322	NaN	0.000000	0.001670	0.001709	28.1284	0.039817	0.002043	19.4885	-44.8277	14.7751	-0.090068	0.572100	-0.556486	-0.557795	-0.027322	19.4885	-0.555435	-2.019317E+7	1.353028E-9	NaN
171	1.000000	0.583438	7.36671e+06	-47189.1	955.818	-29767.2	0.000000	0.000000	6.582968	-0.094383	NaN	0.000000	0.001652	0.001668	28.1061	0.090410	0.002100	43.0476	-34.1793	-166.088	-0.108525	0.582114	-0.546457	-0.547781	-0.094383	43.0476	-0.544813	-1.439072E+7	6.558575E-9	NaN
171	1.000000	0.593431	7.36671e+06	-47189.1	955.819	-29767.2	0.000000	0.000000	6.592963	-0.028628	NaN	0.000000	0.001622	0.001680	28.0797	0.085246	0.002146	39.7235	-22.156	14.2255	0.002993	0.592104	-0.536464	-0.537791	-0.028628	39.7235	-0.535924	-1.083457E+7	2.642299E-9	NaN
171	1.000000	0.603453	7.36671e+06	-47189.1	955.819	-29767.2	0.000000	0.000000	6.602987	0.008215	NaN	0.000000	0.001662	0.001689	28.0877	0.013063	0.001926	6.782995	-153.746	-167.518	0.006920	0.602157	-0.526442	-0.527738	0.008215	6.782995	-0.527351	-8.23707e+06	-9.972966E-10	NaN
171	1.000000	0.613457	7.36671e+06	-47189.1	955.819	-29767.2	0.000000	0.000000	6.612988	-0.073022	NaN	0.000000	0.001697	0.001707	28.1297	0.058592	0.001885	31.0848	16.0512	16.3223	-0.012065	0.612118	-0.516438	-0.517777	-0.073022	31.0848	-0.514677	-5.48947e+06	1.330226E-8	NaN
171	1.000000	0.623457	7.36671e+06	-47189.1	955.819	-29767.2	0.000000	0.000000	6.622992	0.010257	NaN	0.000000	0.001688	0.001680	28.1068	0.044995	0.001993	22.574	-80.5977	-166.821	0.057998	0.622141	-0.506438	-0.507754	0.010257	22.574	-0.506778	-4.26118e+06	-2.407009E-9	NaN
171	1.000000	0.633447	7.36671e+06	-47189.1	955.818	-29767.2	0.000000	0.000000	6.632979	-0.043681	NaN	0.000000	0.001638	0.001719	28.0806	0.054434	0.002045	26.6236	-28.2075	16.3721	-0.117355	0.632113	-0.496448	-0.497782	-0.043681	26.6236	-0.495218	-2.9395e+06	1.485995E-8	NaN
171	1.000000	0.643443	7.36671e+06	-47189.1	955.819	-29767.2	0.000000	0.000000	6.642975	-0.054952	NaN	0.000000	0.001690	0.001711	28.0874	0.073310	0.001918	38.2191	-15.9501	-167.482	-0.083909	0.642178	-0.486452	-0.487717	-0.054952	38.2191	-0.485374	-2.1415e+06	2.566066E-8	NaN
171	1.000000	0.653457	7.36671e+06	-47189.1	955.82	-29767.2	0.000000	0.000000	6.652992	0.032817	NaN	0.000000	0.001657	0.001709	28.1281	0.105856	0.001919	55.1691	-39.4828	13.6971	0.066802	0.652131	-0.476438	-0.477764	0.032817	55.1691	-0.476884	-1.62892e+06	-2.014673E-8	NaN
171	1.000000	0.663455	7.36671e+06	-47189.1	955.819	-29767.2	0.000000	0.000000	6.662986	-0.069062	NaN	0.000000	0.001683	0.001682	28.1073	0.070496	0.001988	35.4544	-60.1903	-166.205	0.021726	0.662198	-0.466440	-0.467696	-0.069062	35.4544	-0.464979	-1.10905e+06	6.227136E-8	NaN
171	1.000000	0.673522	7.36671e+06	-47189.1	955.818	-29767.2	0.000000	0.000000	6.673055	-0.018542	NaN	0.000000	0.001655	0.001690	28.0801	0.109416	0.001993	54.9018	-89.2122	15.7751	-0.093374	0.672131	-0.456373	-0.457764	-0.018542	54.9018	-0.456120	-832661	2.226896E-8	NaN
171	1.000000	0.683456	7.36671e+06	-47189.1	955.819	-29767.2	0.000000	0.000000	6.682989	-0.026716	NaN	0.000000	0.001686	0.001699	28.0885	0.045293	0.001940	23.341	-93.3546	-167.312	-0.030370	0.682184	-0.446439	-0.447711	-0.026716	23.341	-0.445581	-591666	4.515444E-8	NaN
171	1.000000	0.693470	7.36671e+06	-47189.1	955.818	-29767.2	0.000000	0.000000	6.693004	-0.009181	NaN	0.000000	0.001657	0.001663	28.1299	0.047426	0.001904	24.9056	-118.237	17.5884	0.015561	0.692185	-0.436425	-0.437710	-0.009181	24.9056	-0.436148	-435491	2.108271E-8	NaN
171	1.000000	0.703505	7.36671e+06	-47189.1	955.819	-29767.2	0.000000	0.000000	6.703039	-0.010631	NaN	0.000000	0.001682	0.001695	28.1085	0.034198	0.001898	18.0162	80.5761	-163.561	0.030348	0.702161	-0.426390	-0.427734	-0.010631	18.0162	-0.425947	-312389	3.403023E-8	NaN
171	1.000000	0.713494	7.36671e+06	-47189.1	955.82	-29767.2	0.000000	0.000000	6.713024	-0.081340	NaN	0.000000	0.001721	0.001647	28.0816	0.078198	0.001950	40.1099	-121.915	15.2564	-0.047754	0.712160	-0.416401	-0.417735	-0.081340	40.1099	-0.414880	-217649	3.737213E-7	NaN
171	1.000000	0.723511	7.36671e+06	-47189.1	955.818	-29767.2	0.000000	0.000000	6.723047	0.041874	NaN	0.000000	0.001721	0.001679	28.0878	0.010114	0.002083	4.856607	-163.226	-162.061	-0.014713	0.722209	-0.406384	-0.407686	0.041874	4.856607	-0.412850	-203666	-2.056012E-7	NaN
171	1.000000	0.733484	7.36671e+06	-47189.1	955.819	-29767.2	0.000000	0.000000	6.733018	0.001388	NaN	0.000000	0.001733	0.001704	28.1289	0.077888	0.001967	39.5962	179.431	14.6089	0.021772	0.732119	-0.396411	-0.397776	0.001388	39.5962	-0.396437	-118892	-1.167374E-8	NaN
171	1.000000	0.743482	7.36671e+06	-47189.1	955.819	-29767.2	0.000000	0.000000	6.743016	-0.009478	NaN	0.000000	0.001699	0.001708	28.1083	0.075552	0.001994	37.8807	59.4969	-165.64	0.021863	0.742246	-0.386413	-0.387649	-0.009478	37.8807	-0.386225	-84945.2	1.115740E-7	NaN
171	1.000000	0.753515	7.36671e+06	-47189.1	955.819	-29767.2	0.000000	0.000000	6.753048	-0.024556	NaN	0.000000	0.001708	0.001665	28.0803	0.036736	0.002131	17.2397	-164.523	11.9107	-0.079765	0.752199	-0.376380	-0.377696	-0.024556	17.2397	-0.375311	-59230.4	4.145907E-7	NaN
171	1.000000	0.763537	7.36671e+06	-47189.1	955.818	-29767.2	0.000000	0.000000	6.763070	-0.019431	NaN	0.000000	0.001688	0.001706	28.0901	0.121791	0.001894	64.3196	12.2729	-163.499	-0.073561	0.762264	-0.366358	-0.367631	-0.019431	64.3196	-0.366132	-43689.8	4.447413E-7	NaN
171	1.000000	0.773560	7.36671e+06	-47189.1	955.818	-29767.2	0.000000	0.000000	6.773096	0.041916	NaN	0.000000	0.001620	0.001697	28.1303	0.055483	0.002025	27.4045	-7.927018	15.8309	0.027703	0.772183	-0.356335	-0.357712	0.041916	27.4045	-0.357482	-32766.4	-1.279230E-6	NaN
171	1.000000	0.783495	7.36671e+06	-47189.1	955.817	-29767.2	0.000000	0.000000	6.783030	0.022385	NaN	0.000000	0.001671	0.001736	28.1095	0.067007	0.002136	31.3655	-24.6766	-166.203	-0.012447	0.782194	-0.346400	-0.347701	0.022385	31.3655	-0.346935	-23040.7	-9.715222E-7	NaN
171	1.000000	0.793512	7.36671e+06	-47189.1	955.819	-29767.2	0.000000	0.000000	6.793047	0.016574	NaN	0.000000	0.001705	0.001715	28.0806	0.086277	0.002001	43.1136	-77.9944	14.2751	0.012505	0.792197	-0.336383	-0.337698	0.016574	43.1136	-0.336671	-16330.2	-1.014936E-6	NaN
171	1.000000	0.803538	7.36671e+06	-47189.1	955.818	-29767.2	0.000000	0.000000	6.803070	-0.040566	NaN	0.000000	0.001678	0.001669	28.0862	0.075391	0.001906	39.547	-139.246	-166.751	-0.000172	0.802234	-0.326357	-0.327661	-0.040566	39.547	-0.325588	-11240	3.609042E-6	NaN
171	1.000000	0.813529	7.36671e+06	-47189.1	955.818	-29767.2	0.000000	0.000000	6.813063	0.008663	NaN	0.000000	0.001685	0.001690	28.1275	0.040792	0.002044	19.9576	-179.636	10.4823	0.043840	0.812180	-0.316366	-0.317715	0.008663	19.9576	-0.316692	-8315.75	-1.041755E-6	NaN
171	1.000000	0.823541	7.36671e+06	-47189.1	955.818	-29767.2	0.000000	0.000000	6.823074	-0.018970	NaN	0.000000	0.001650	0.001696	28.1075	0.086141	0.002162	39.837	103.64	-164.581	-0.015272	0.822253	-0.306354	-0.307642	-0.018970	39.837	-0.305997	-5777.56	3.283447E-6	NaN
171	1.000000	0.833513	7.36671e+06	-47189.1	955.819	-29767.2	0.000000	0.000000	6.833048	0.014834	NaN	0.000000	0.001657	0.001725	28.0788	0.060913	0.002068	29.4546	-152.163	12.9226	-0.076895	0.832187	-0.296382	-0.297707	0.014834	29.4546	-0.296760	-4210.68	-3.522977E-6	NaN
171	1.000000	0.843574	7.36671e+06	-47189.1	955.819	-29767.2	0.000000	0.000000	6.843106	-0.064746	NaN	0.000000	0.001643	0.001723	28.0881	0.077706	0.002030	38.2707	-122.764	-167.815	-0.065424	0.842270	-0.286321	-0.287625	-0.064746	38.2707	-0.285052	-2812.19	2.302333E-5	NaN
171	1.000000	0.853556	7.36671e+06	-47189.1	955.819	-29767.2	0.000000	0.000000	6.853089	-0.016363	NaN	0.000000	0.001649	0.001702	28.1283	0.049116	0.002119	23.1834	120.113	11.41	0.069740	0.852187	-0.276339	-0.277708	-0.016363	23.1834	-0.275810	-2040.14	8.020363E-6	NaN
171	1.000000	0.863558	7.36671e+06	-47189.1	955.819	-29767.2	0.000000	0.000000	6.863092	-0.009508	NaN	0.000000	0.001654	0.001724	28.1083	0.059700	0.002127	28.0687	-163.986	-165.366	0.025834	0.862210	-0.266337	-0.267685	-0.009508	28.0687	-0.266083	-1451.81	6.549047E-6	NaN
171	1.000000	0.873550	7.36671e+06	-47189.1	955.818	-29767.2	0.000000	0.000000	6.873083	-0.037772	NaN	0.000000	0.001654	0.001695	28.0799	0.066006	0.001916	34.4464	62.1914	13.4016	0.009714	0.872217	-0.256345	-0.257678	-0.037772	34.4464	-0.255522	-1000.36	3.775830E-5	NaN
171	1.000000	0.883572	7.36671e+06	-47189.1	955.819	-29767.2	0.000000	0.000000	6.883104	-0.041615	NaN	0.000000	0.001672	0.001683	28.0866	0.097914	0.002046	47.8579	33.091	-164.513	0.001719	0.882228	-0.246323	-0.247667	-0.041615	47.8579	-0.245671	-704.492	5.907085E-5	NaN
171	1.000000	0.893578	7.36671e+06	-47189.1	955.82	-29767.2	0.000000	0.000000	6.893112	-0.016638	NaN	0.000000	0.001607	0.001714	28.1272	0.040097	0.002015	19.9012	179.439	15.0393	-0.044237	0.892136	-0.236317	-0.237759	-0.016638	19.9012	-0.235690	-492.122	3.380785E-5	NaN
171	1.000000	0.903594	7.36671e+06	-47189.1	955.82	-29767.2	0.000000	0.000000	6.903124	-0.093743	NaN	0.000000	0.001616	0.001680	28.1076	0.140313	0.001868	75.0958	133.903	-162.483	-0.044286	0.902289	-0.226301	-0.227606	-0.093743	75.0958	-0.225365	-338.167	0.000277	NaN
171	1.000000	0.913597	7.36671e+06	-47189.1	955.819	-29767.2	0.000000	0.000000	6.913128	-0.061152	NaN	0.000000	0.001612	0.001692	28.0793	0.074725	0.001964	38.0396	-172.012	14.0541	-0.026305	0.912215	-0.216298	-0.217680	-0.061152	38.0396	-0.215093	-231.741	0.000264	NaN
171	1.000000	0.923591	7.36671e+06	-47189.1	955.819	-29767.2	0.000000	0.000000	6.923123	-0.060726	NaN	0.000000	0.001658	0.001690	28.0876	0.078905	0.001998	39.4986	144.566	-165.087	-0.119060	0.922262	-0.206303	-0.207633	-0.060726	39.4986	-0.205150	-159.96	0.000380	NaN
171	1.000000	0.933603	7.36671e+06	-47189.1	955.819	-29767.2	0.000000	0.000000	6.933134	-0.073598	NaN	0.000000	0.001663	0.001681	28.1295	0.047283	0.001975	23.942	-140.525	9.308021	-0.135239	0.932258	-0.196292	-0.197637	-0.073598	23.942	-0.193987	-104.81	0.000702	NaN
171	1.000000	0.943578	7.36671e+06	-47189.1	955.819	-29767.2	0.000000	0.000000	6.943114	0.039168	NaN	0.000000	0.001684	0.001660	28.1107	0.085109	0.001937	43.9444	-144.785	-167.389	-0.026424	0.942288	-0.186317	-0.187607	0.039168	43.9444	-0.186985	-80.0809	-0.000489	NaN
171	1.000000	0.953593	7.36671e+06	-47189.1	955.82	-29767.2	0.000000	0.000000	6.953127	-0.015391	NaN	0.000000	0.001611	0.001667	28.0811	0.080295	0.001980	40.5575	97.5729	15.3454	-0.045550	0.952235	-0.176302	-0.177660	-0.015391	40.5575	-0.176017	-52.1725	0.000295	NaN
171	1.000000	0.963608	7.36671e+06	-47189.1	955.817	-29767.2	0.000000	0.000000	6.963140	-0.055752	NaN	0.000000	0.001612	0.001664	28.0883	0.084620	0.001993	42.4641	-157.775	-161.291	-0.010736	0.962282	-0.166287	-0.167613	-0.055752	42.4641	-0.165302	-34.01	0.001639	NaN
171	1.000000	0.973572	7.36671e+06	-47189.1	955.818	-29767.2	0.000000	0.000000	6.973102	-0.111396	NaN	0.000000	0.001666	0.001654	28.128	0.012040	0.001979	6.082566	-110.246	18.669	-0.057668	0.972261	-0.156323	-0.157634	-0.111396	6.082566	-0.142587	-13.2242	0.008424	NaN
171	1.000000	0.983603	7.36671e+06	-47189.1	955.816	-29767.2	0.000000	0.000000	6.983136	-0.034889	NaN	0.000000	0.001664	0.001713	28.1091	0.112832	0.001944	58.0279	161.731	-163.761	-0.004907	0.982322	-0.146292	-0.147573	-0.034889	58.0279	-0.145841	-15.1953	0.002296	NaN
171	1.000000	0.993624	7.36671e+06	-47189.1	955.817	-29767.2	0.000000	0.000000	6.993156	-0.039216	NaN	0.000000	0.001671	0.001649	28.0799	0.049980	0.001953	25.5962	38.8186	15.8572	-0.085679	0.992243	-0.136271	-0.137651	-0.039216	25.5962	-0.135122	-9.563622	0.004101	NaN
171	1.000000	1.003632	7.36671e+06	-47189.1	955.817	-29767.2	0.000000	0.000000	7.003166	0.007053	NaN	0.000000	0.001685	0.001683	28.0879	0.039752	0.002027	19.6066	-0.135691	-165.931	-0.030432	1.002364	-0.126263	-0.127531	0.007053	19.6066	-0.126533	-6.519823	-0.001082	NaN
171	1.000000	1.013610	7.36671e+06	-47189.1	955.816	-29767.2	0.000000	0.000000	7.013141	-0.072490	NaN	0.000000	0.001697	0.001663	28.13	0.111323	0.002156	51.6232	156.56	16.1771	-0.162480	1.012260	-0.116285	-0.117635	-0.072490	51.6232	-0.115232	-3.862649	0.018767	NaN
171	1.000000	1.023626	7.36671e+06	-47189.1	955.817	-29767.2	0.000000	0.000000	7.023159	-0.013441	NaN	0.000000	0.001717	0.001695	28.1106	0.108804	0.002055	52.9563	120.39	-161.018	-0.006839	1.022282	-0.106269	-0.107613	-0.013441	52.9563	-0.106079	-2.479771	0.005420	NaN
171	1.000000	1.033620	7.36671e+06	-47189.1	955.817	-29767.2	0.000000	0.000000	7.033154	0.000559	NaN	0.000000	0.001700	0.001681	28.0803	0.024807	0.002011	12.3355	24.1316	12.8438	-0.004921	1.032210	-0.096275	-0.097685	0.000559	12.3355	-0.096309	-1.510573	-0.000370	NaN
171	1.000000	1.043638	7.36671e+06	-47189.1	955.815	-29767.2	0.000000	0.000000	7.043172	0.015545	NaN	0.000000	0.001715	0.001696	28.0876	0.074779	0.002082	35.9252	-169.223	-165.73	0.059961	1.042297	-0.086257	-0.087598	0.015545	35.9252	-0.086582	-0.896958	-0.017331	NaN
171	1.000000	1.053657	7.36671e+06	-47189.1	955.818	-29767.2	0.000000	0.000000	7.053192	0.028575	NaN	0.000000	0.001725	0.001689	28.1281	0.157546	0.001951	80.7389	-12.7583	16.8037	-0.009413	1.052249	-0.076238	-0.077646	0.028575	80.7389	-0.076503	-0.504903	-0.056595	NaN
171	1.000000	1.063639	7.36671e+06	-47189.1	955.819	-29767.2	0.000000	0.000000	7.063171	-0.052228	NaN	0.000000	0.001668	0.001710	28.11	0.085137	0.002141	39.7572	9.763205	-162.32	0.023269	1.062350	-0.066256	-0.067545	-0.052228	39.7572	-0.065271	-0.253562	0.205979	NaN
171	1.000000	1.073650	7.36671e+06	-47189.1	955.816	-29767.2	0.000000	0.000000	7.073183	-0.013465	NaN	0.000000	0.001670	0.001683	28.0786	0.116350	0.002051	56.7156	92.9145	15.9097	-0.035584	1.072293	-0.056245	-0.057602	-0.013465	56.7156	-0.056067	-0.138449	0.097255	NaN
171	1.000000	1.083612	7.36671e+06	-47189.1	955.818	-29767.2	0.000000	0.000000	7.083145	-0.019696	NaN	0.000000	0.001684	0.001679	28.088	0.053872	0.001826	29.5076	-84.1942	-161.408	-0.008217	1.082290	-0.046283	-0.047605	-0.019696	29.5076	-0.045783	-0.067908	0.290043	NaN
171	1.000000	1.093641	7.36671e+06	-47189.1	955.817	-29767.2	0.000000	0.000000	7.093173	-0.033940	NaN	0.000000	0.001688	0.001671	28.1276	0.088736	0.001905	46.5748	126.704	10.0322	0.003707	1.092312	-0.036254	-0.037583	-0.033940	46.5748	-0.035708	-0.033604	1.010016	NaN
171	1.000000	1.103651	7.36671e+06	-47189.1	955.818	-29767.2	0.000000	0.000000	7.103182	-0.069674	NaN	0.000000	0.001687	0.001693	28.11	0.122046	0.001949	62.6054	-179.359	-160.29	-0.049862	1.102358	-0.026244	-0.027537	-0.069674	62.6054	-0.025409	-0.017292	4.029274	NaN
171	1.000000	1.113666	7.36671e+06	-47189.1	955.817	-29767.2	0.000000	0.000000	7.113199	-0.021645	NaN	0.000000	0.001691	0.001697	28.0798	0.089726	0.002045	43.8796	97.3221	13.9782	0.011615	1.112294	-0.016229	-0.017601	-0.021645	43.8796	-0.015859	-0.009797	2.209487	NaN
171	1.000000	1.123659	7.36671e+06	-47189.1	955.818	-29767.2	0.000000	0.000000	7.123191	-0.055332	NaN	0.000000	0.001680	0.001690	28.0874	0.054994	0.002029	27.1034	68.9421	-160.167	-0.123976	1.122375	-0.006236	-0.007520	-0.055332	27.1034	-0.004705	-0.003230	17.1286	NaN
171	1.000000	1.133651	7.36672e+06	-47189.1	955.818	-29767.2	0.000000	0.000000	7.133262	1.849473	NaN	0.000000	0.001665	0.001665	28.1271	2.770053	0.001985	1395.54	10.271	10.611	0.649331	1.132296	0.003756	0.002401	1.849473	1395.54	0.002763	0.002181	848.013	27301.9
171	2.000000	1.141216	7.36672e+06	-47189.1	955.818	-29767.2	0.000000	0.000000	7.141228	11.6194	NaN	0.000000	0.001633	0.001719	28.1091	10.0978	0.001580	6391.72	4.448252	-171.049	11.3758	1.140871	0.011321	0.010976	11.6194	6391.72	0.009957	0.009134	1272.07	61102
171	2.000000	1.143701	7.36672e+06	-47189.1	955.819	-29767.2	0.000000	0.000000	7.143898	16.1426	NaN	0.000000	0.001605	0.001712	28.0794	13.4393	0.001633	8228	5.878035	5.474624	15.7358	1.143353	0.013806	0.013458	16.1426	8228	0.012334	0.011893	1357.32	68932.2
171	2.000000	1.146120	7.36672e+06	-47189.1	955.819	-29767.2	0.000000	0.000000	7.146495	20.4426	NaN	0.000000	0.001636	0.001683	28.0874	16.4162	0.001716	9568.74	1.103515	-171.398	18.7942	1.145873	0.016226	0.015978	20.4426	9568.74	0.014623	0.014786	1382.54	71895
171	2.000000	1.148628	7.36672e+06	-47189.1	955.818	-29767.2	0.000000	0.000000	7.149232	26.0068	NaN	0.000000	0.001630	0.001675	28.1275	18.7944	0.001858	10115.9	7.283967	4.355509	24.6146	1.148295	0.018733	0.018400	26.0068	10115.9	0.016805	0.017768	1463.66	69335
171	2.000000	1.151145	7.36672e+06	-47189.1	955.819	-29767.2	0.000000	0.000000	7.151921	30.2162	NaN	0.000000	0.001609	0.001696	28.1105	21.4297	0.001798	11919.8	5.504183	-176.241	28.8489	1.150867	0.021250	0.020972	30.2162	11919.8	0.019349	0.021530	1403.47	74220.8
171	2.000000	1.153632	7.36672e+06	-47189.1	955.817	-29767.2	0.000000	0.000000	7.154637	35.7748	NaN	0.000000	0.001594	0.001671	28.0813	24.5063	0.001754	13971.9	10.4398	-1.945636	35.8629	1.153221	0.023737	0.023326	35.7748	13971.9	0.021817	0.025478	1404.16	79974
171	2.000000	1.156134	7.36672e+06	-47189.1	955.817	-29767.2	0.000000	0.000000	7.157426	42.7677	NaN	0.000000	0.001590	0.001697	28.0869	26.8172	0.001763	15207.7	4.535142	-179.155	41.6248	1.155856	0.026239	0.025961	42.7677	15207.7	0.024129	0.029451	1452.17	80963.1
171	2.000000	1.158543	7.36672e+06	-47189.1	955.818	-29767.2	0.000000	0.000000	7.160218	52.0682	NaN	0.000000	0.001606	0.001760	28.1275	28.3811	0.001707	16626.1	5.620188	0.274592	49.0556	1.158212	0.028648	0.028317	52.0682	16626.1	0.026300	0.033423	1557.87	83089.1
171	2.000000	1.161056	7.36672e+06	-47189.1	955.818	-29767.2	0.000000	0.000000	7.163048	59.7958	NaN	0.000000	0.001569	0.001675	28.1106	31.3105	0.001804	17358.6	7.051558	179.219	57.8731	1.160700	0.031161	0.030805	59.7958	17358.6	0.028577	0.037846	1579.98	81522.8
171	2.000000	1.163601	7.36672e+06	-47189.1	955.818	-29767.2	0.000000	0.000000	7.166035	70.5362	NaN	0.000000	0.001598	0.001675	28.0803	33.2651	0.001804	18439.9	5.848114	-0.451895	68.6903	1.163147	0.033706	0.033252	70.5362	18439.9	0.030837	0.042497	1659.79	81724.6
171	2.000000	1.166094	7.36672e+06	-47189.1	955.818	-29767.2	0.000000	0.000000	7.168881	79.1317	NaN	0.000000	0.001608	0.001696	28.0883	36.5707	0.001779	20554.2	6.859990	177.686	78.2344	1.165804	0.036199	0.035909	79.1317	20554.2	0.033311	0.047887	1652.46	85815.1
171	2.000000	1.168578	7.36672e+06	-47189.1	955.819	-29767.2	0.000000	0.000000	7.171885	91.7676	NaN	0.000000	0.001568	0.001696	28.1282	38.3685	0.001727	22220.1	7.428340	-3.195274	90.0292	1.168168	0.038683	0.038273	91.7676	22220.1	0.035585	0.053118	1727.63	88084.7
171	2.000000	1.171049	7.36672e+06	-47189.1	955.818	-29767.2	0.000000	0.000000	7.174789	102.315	NaN	0.000000	0.001572	0.001669	28.1122	41.0752	0.001700	24162.9	7.447180	175.457	100.637	1.170710	0.041154	0.040815	102.315	24162.9	0.037978	0.058907	1736.88	90957.5
171	2.000000	1.173555	7.36672e+06	-47189.1	955.819	-29767.2	0.000000	0.000000	7.177732	112.933	NaN	0.000000	0.001588	0.001680	28.0814	44.2983	0.001709	25923.1	3.752134	-1.885857	110.046	1.173212	0.043660	0.043317	112.933	25923.1	0.040393	0.065048	1736.15	92862.8
171	2.000000	1.176055	7.36672e+06	-47189.1	955.819	-29767.2	0.000000	0.000000	7.180661	123.369	NaN	0.000000	0.001613	0.001702	28.087	47.6752	0.001818	26221.2	4.868091	176.905	120.983	1.175701	0.046160	0.045807	123.369	26221.2	0.042631	0.071005	1737.47	89904.5
171	2.000000	1.178594	7.36672e+06	-47189.1	955.819	-29767.2	0.000000	0.000000	7.183759	136.958	NaN	0.000000	0.001641	0.001681	28.1275	49.9547	0.001909	26170.4	5.514551	-3.575466	134.665	1.178268	0.048699	0.048373	136.958	26170.4	0.044774	0.076947	1779.9	86196.3
171	2.000000	1.181083	7.36672e+06	-47189.1	955.817	-29767.2	0.000000	0.000000	7.186852	151.658	NaN	0.000000	0.001658	0.001680	28.1105	52.2402	0.001815	28779.5	7.546226	173.564	152.105	1.180711	0.051188	0.050816	151.658	28779.5	0.047236	0.084061	1804.14	90690.1
171	2.000000	1.183547	7.36672e+06	-47189.1	955.818	-29767.2	0.000000	0.000000	7.189845	164.529	NaN	0.000000	0.001615	0.001690	28.0817	54.0457	0.001764	30640.9	5.047995	-4.354246	163.2	1.183236	0.053652	0.053341	164.529	30640.9	0.049625	0.091258	1802.9	92670.2
171	2.000000	1.186045	7.36672e+06	-47189.1	955.817	-29767.2	0.000000	0.000000	7.192825	176.233	NaN	0.000000	0.001634	0.001692	28.0879	57.7493	0.001945	29693.2	4.786546	175.849	174.954	1.185783	0.056150	0.055888	176.233	29693.2	0.051699	0.097737	1803.14	86776.5
171	2.000000	1.188557	7.36672e+06	-47189.1	955.819	-29767.2	0.000000	0.000000	7.195831	188.25	NaN	0.000000	0.001629	0.001695	28.1291	58.7598	0.001879	31265.2	3.073282	-2.941716	185.981	1.188293	0.058662	0.058398	188.25	31265.2	0.054146	0.105659	1781.67	87878.2
171	2.000000	1.191020	7.36672e+06	-47189.1	955.819	-29767.2	0.000000	0.000000	7.198854	201.893	NaN	0.000000	0.001615	0.001692	28.1115	59.8533	0.001760	34013.1	3.299086	176.67	200.558	1.190683	0.061125	0.060788	201.893	34013.1	0.056673	0.114150	1768.66	91977.6
171	2.000000	1.193530	7.36672e+06	-47189.1	955.818	-29767.2	0.000000	0.000000	7.202013	217.678	NaN	0.000000	0.001608	0.001707	28.0805	62.1899	0.001671	37213.7	4.138171	-5.360804	213.799	1.193175	0.063635	0.063280	217.678	37213.7	0.059248	0.123125	1767.94	96895.3
171	2.000000	1.196048	7.36672e+06	-47189.1	955.818	-29767.2	0.000000	0.000000	7.204870	225.932	NaN	0.000000	0.001567	0.001673	28.0843	66.7306	0.001790	37288.2	6.024137	172.628	222.863	1.195799	0.066153	0.065904	225.932	37288.2	0.061608	0.131638	1716.3	93897.4
171	2.000000	1.198480	7.36672e+06	-47189.1	955.819	-29767.2	0.000000	0.000000	7.207908	240.657	NaN	0.000000	0.001615	0.001705	28.126	67.8031	0.001776	38182	5.566797	-7.283718	233.327	1.198209	0.068585	0.068314	240.657	38182	0.063858	0.140003	1718.94	93231.4
171	2.000000	1.201057	7.36672e+06	-47189.1	955.819	-29767.2	0.000000	0.000000	7.211157	257	NaN	0.000000	0.001601	0.001735	28.1101	69.2412	0.001679	41249.1	4.475570	173.482	257.183	1.200743	0.071162	0.070848	257	41249.1	0.066489	0.150099	1712.2	97274.2
171	2.000000	1.203518	7.36672e+06	-47189.1	955.818	-29767.2	0.000000	0.000000	7.214456	277.367	NaN	0.000000	0.001549	0.001705	28.0788	72.1821	0.001869	38623.7	6.454611	-6.945095	274.425	1.203131	0.073623	0.073236	277.367	38623.7	0.068237	0.156992	1766.76	89061.1
171	2.000000	1.205977	7.36672e+06	-47189.1	955.818	-29767.2	0.000000	0.000000	7.217627	294.717	NaN	0.000000	0.001523	0.001712	28.0871	75.1375	0.001789	41999.7	5.743362	172.638	291.236	1.205696	0.076082	0.075801	294.717	41999.7	0.070819	0.167434	1760.19	93777.2
171	2.000000	1.208593	7.36672e+06	-47189.1	955.818	-29767.2	0.000000	0.000000	7.220709	306.038	NaN	0.000000	0.001581	0.001677	28.127	77.7932	0.001907	40782.9	7.785909	-9.149844	305.242	1.208158	0.078698	0.078263	306.038	40782.9	0.073070	0.176799	1730.99	88615.9
171	2.000000	1.211046	7.36672e+06	-47189.1	955.818	-29767.2	0.000000	0.000000	7.223807	321.748	NaN	0.000000	0.001624	0.001685	28.1111	78.6806	0.001781	44176.7	4.893628	173.546	320.908	1.210615	0.081151	0.080720	321.748	44176.7	0.075688	0.187993	1711.48	93088.3
171	2.000000	1.213428	7.36672e+06	-47189.1	955.818	-29767.2	0.000000	0.000000	7.226945	340.131	NaN	0.000000	0.001579	0.001695	28.0802	81.2597	0.001818	44709.4	4.714721	-6.902307	332.482	1.213160	0.083533	0.083265	340.131	44709.4	0.077827	0.197376	1723.27	91944.2
171	2.000000	1.215954	7.36672e+06	-47189.1	955.817	-29767.2	0.000000	0.000000	7.229790	347.868	NaN	0.000000	0.001628	0.001695	28.0849	83.7002	0.001805	46367.9	1.731776	175.284	343.316	1.215771	0.086059	0.085876	347.868	46367.9	0.080432	0.209095	1663.68	92644.2
171	2.000000	1.218505	7.36672e+06	-47189.1	955.816	-29767.2	0.000000	0.000000	7.232929	362.173	NaN	0.000000	0.001632	0.001676	28.1256	85.3112	0.001754	48635.9	2.624579	-6.120238	357.74	1.218171	0.088610	0.088276	362.173	48635.9	0.083025	0.221070	1638.28	94507.3
171	2.000000	1.221194	7.36672e+06	-47189.1	955.818	-29767.2	0.000000	0.000000	7.236303	378.828	NaN	0.000000	0.001612	0.001710	28.1113	87.8479	0.001814	48430.5	2.664543	174.403	386.572	1.220720	0.091299	0.090825	378.828	48430.5	0.085433	0.232470	1629.58	91771.7
171	2.000000	1.223510	7.36672e+06	-47189.1	955.818	-29767.2	0.000000	0.000000	7.239754	406.447	NaN	0.000000	0.001633	0.001680	28.0795	89.9642	0.001757	51190	5.782073	-9.137619	404.125	1.223147	0.093615	0.093252	406.447	51190	0.087660	0.243256	1670.86	94825.8
171	2.000000	1.225960	7.36672e+06	-47189.1	955.818	-29767.2	0.000000	0.000000	7.242968	425.029	NaN	0.000000	0.001595	0.001730	28.0875	93.7377	0.001888	49648.6	6.261531	170.529	420.968	1.225579	0.096065	0.095684	425.029	49648.6	0.089644	0.253053	1679.61	90172.6
171	2.000000	1.228489	7.36672e+06	-47189.1	955.818	-29767.2	0.000000	0.000000	7.246183	441.737	NaN	0.000000	0.001560	0.001714	28.1276	94.9774	0.001841	51596	5.573609	-9.132360	438.376	1.228225	0.098594	0.098330	441.737	51596	0.092173	0.265802	1661.91	91434.5
171	2.000000	1.230961	7.36672e+06	-47189.1	955.819	-29767.2	0.000000	0.000000	7.249767	468.763	NaN	0.000000	0.001622	0.001704	28.1135	96.9242	0.001805	53704.3	7.349626	168.927	466.309	1.230612	0.101066	0.100717	468.763	53704.3	0.094519	0.277895	1686.83	93076.9
171	2.000000	1.233411	7.36672e+06	-47189.1	955.819	-29767.2	0.000000	0.000000	7.252889	485.123	NaN	0.000000	0.001608	0.001687	28.0824	99.4734	0.001834	54242.9	4.380571	-7.971916	478.092	1.233024	0.103516	0.103130	485.123	54242.9	0.096808	0.289933	1673.22	92038
171	2.000000	1.235997	7.36672e+06	-47189.1	955.819	-29767.2	0.000000	0.000000	7.256205	502.871	NaN	0.000000	0.001646	0.001675	28.0856	101.957	0.001819	56049	5.082060	170.756	502.399	1.235783	0.106102	0.105888	502.871	56049	0.099373	0.303707	1655.78	92921
171	2.000000	1.238531	7.36672e+06	-47189.1	955.818	-29767.2	0.000000	0.000000	7.259922	531.646	NaN	0.000000	0.001604	0.001722	28.1264	103.013	0.001823	56508.2	3.762307	-7.451950	529.449	1.238149	0.108636	0.108254	531.646	56508.2	0.101580	0.315798	1683.5	91871.3
171	2.000000	1.239023	7.36672e+06	-47189.1	955.818	-29767.2	0.000000	0.000000	7.260465	532.879	NaN	0.000000	0.001628	0.001721	28.1122	104.384	0.001757	59407.5	6.549600	168.992	533.043	1.238761	0.109128	0.108866	532.879	59407.5	0.102401	0.320349	1663.43	95896.5