File: remote_trans/data/nanoindenter/0828-1/data/Data_2025-08-06,11h17m57s/2025-07-22_16-23-58_1_275.txt
2025-07-22, 16:23:58, 1
Index	Phase	Displacement	Time	Pos X	Pos Y	Pos Z	Rot A	Rot B	Piezo Z	Force A	Force B	Gripper	Voltage A	Voltage B	Temperature	Amplitude force	Amplitude pos	Stiffness	Phase shift	Phase excitation	Force A raw	Displacement raw	HMax	HMax raw	Real Force	Real Stiffness	Contact Depth	Area	Hardness	Reduced Mod.
[#]	[#]	[um]	[s]	[um]	[um]	[um]	[m°]	[m°]	[um]	[uN]	[uN]	[V]	[V]	[V]	[°C]	[uN]	[um]	[N/m]	[°]	[°]	[uN]	[um]	[um]	[um]	[uN]	[N/m]	[um]	[um^2]	[MPa]	[MPa]
275	1.000000	0.003019	7.36775e+06	-52389.1	955.818	-29749.6	0.000000	0.000000	6.002800	0.036999	NaN	0.000000	0.001715	0.001597	28.0817	0.051886	0.000921	56.3551	83.3987	-163.378	-0.021269	0.001797	-0.982746	-0.983968	0.036999	56.3551	-0.983239	-1.349094E+13	-2.742540E-15	NaN
275	1.000000	0.011010	7.36775e+06	-52389.1	955.82	-29749.6	0.000000	0.000000	6.010792	0.069810	NaN	0.000000	0.001696	0.001623	28.0814	0.073358	0.001109	66.1678	53.1927	-169.263	0.089649	0.009648	-0.974755	-0.976118	0.069810	66.1678	-0.975547	-1.062695E+13	-6.569149E-15	NaN
275	1.000000	0.018971	7.36775e+06	-52389.1	955.818	-29749.6	0.000000	0.000000	6.018754	0.103378	NaN	0.000000	0.001713	0.001616	28.0814	0.047927	0.001829	26.1994	-42.8729	-163.778	-0.065133	0.017664	-0.966795	-0.968102	0.103378	26.1994	-0.969754	-8.878748E+12	-1.164331E-14	NaN
275	1.000000	0.027006	7.36775e+06	-52389.1	955.818	-29749.6	0.000000	0.000000	6.026791	0.142053	NaN	0.000000	0.001660	0.001638	28.0815	0.077375	0.001870	41.3729	-168.56	-167.486	0.091048	0.025692	-0.958760	-0.960073	0.142053	41.3729	-0.961335	-6.837016E+12	-2.077704E-14	NaN
275	1.000000	0.034991	7.36775e+06	-52389.1	955.819	-29749.6	0.000000	0.000000	6.034769	-0.038822	NaN	0.000000	0.001699	0.001626	28.0816	0.019258	0.001892	10.1772	-88.2781	-166.207	-0.071293	0.033668	-0.950775	-0.952097	-0.038822	10.1772	-0.947914	-4.507006E+12	8.613722E-15	NaN
275	1.000000	0.042965	7.36775e+06	-52389.1	955.817	-29749.6	0.000000	0.000000	6.042746	0.049306	NaN	0.000000	0.001739	0.001600	28.0814	0.120269	0.002034	59.1425	11.4541	-166.968	0.057545	0.041661	-0.942801	-0.944104	0.049306	59.1425	-0.943426	-3.920633E+12	-1.257612E-14	NaN
275	1.000000	0.051013	7.36775e+06	-52389.1	955.819	-29749.6	0.000000	0.000000	6.050794	0.039003	NaN	0.000000	0.001683	0.001586	28.0817	0.109281	0.002017	54.1815	86.3304	-163.667	0.057066	0.049659	-0.934753	-0.936107	0.039003	54.1815	-0.935293	-3.045275E+12	-1.280765E-14	NaN
275	1.000000	0.058962	7.36775e+06	-52389.1	955.818	-29749.6	0.000000	0.000000	6.058744	0.065578	NaN	0.000000	0.001640	0.001592	28.0814	0.087919	0.001985	44.2939	-64.7412	-167.318	0.059052	0.057683	-0.926804	-0.928083	0.065578	44.2939	-0.927914	-2.421278E+12	-2.708412E-14	NaN
275	1.000000	0.066986	7.36775e+06	-52389.1	955.82	-29749.6	0.000000	0.000000	6.066767	0.046709	NaN	0.000000	0.001633	0.001631	28.0813	0.066514	0.002150	30.9417	128.022	-168.764	0.021649	0.065707	-0.918780	-0.920059	0.046709	30.9417	-0.919912	-1.888064E+12	-2.473889E-14	NaN
275	1.000000	0.074948	7.36775e+06	-52389.1	955.818	-29749.6	0.000000	0.000000	6.074728	0.028759	NaN	0.000000	0.001616	0.001618	28.0814	0.088838	0.001952	45.5073	109.924	-162.941	0.097319	0.073642	-0.910818	-0.912124	0.028759	45.5073	-0.911292	-1.444156E+12	-1.991399E-14	NaN
275	1.000000	0.082971	7.36775e+06	-52389.1	955.817	-29749.6	0.000000	0.000000	6.082749	-0.011991	NaN	0.000000	0.001615	0.001607	28.0806	0.103189	0.002012	51.2823	123.159	-159.993	-0.032414	0.081676	-0.902795	-0.904090	-0.011991	51.2823	-0.902620	-1.102712E+12	1.087408E-14	NaN
275	1.000000	0.090972	7.36775e+06	-52389.1	955.818	-29749.6	0.000000	0.000000	6.090753	0.039322	NaN	0.000000	0.001609	0.001611	28.0802	0.051886	0.002005	25.8737	13.4772	-164.008	0.109886	0.089702	-0.894794	-0.896064	0.039322	25.8737	-0.895934	-8.955997E+11	-4.390570E-14	NaN
275	1.000000	0.098994	7.36775e+06	-52389.1	955.819	-29749.6	0.000000	0.000000	6.098777	0.100100	NaN	0.000000	0.001638	0.001590	28.08	0.010810	0.001932	5.595526	102.998	-167.361	-0.000179	0.097655	-0.886772	-0.888111	0.100100	5.595526	-0.900189	-1.022394E+12	-9.790782E-14	NaN
275	1.000000	0.107010	7.36775e+06	-52389.1	955.818	-29749.6	0.000000	0.000000	6.106789	-0.021819	NaN	0.000000	0.001648	0.001639	28.0799	0.090392	0.002043	44.2503	64.9958	-166.619	-0.069697	0.105661	-0.878755	-0.880104	-0.021819	44.2503	-0.878386	-5.186512E+11	4.206871E-14	NaN
275	1.000000	0.114986	7.36775e+06	-52389.1	955.818	-29749.6	0.000000	0.000000	6.114769	0.080467	NaN	0.000000	0.001651	0.001607	28.08	0.127045	0.002054	61.8665	-168.902	-162.629	0.111727	0.113657	-0.870779	-0.872108	0.080467	61.8665	-0.871755	-4.218750E+11	-1.907361E-13	NaN
275	1.000000	0.122965	7.36775e+06	-52389.1	955.818	-29749.6	0.000000	0.000000	6.122746	0.049435	NaN	0.000000	0.001623	0.001632	28.0798	0.043435	0.001961	22.1507	-178.576	-165.356	0.060478	0.121689	-0.862801	-0.864076	0.049435	22.1507	-0.864475	-3.362659E+11	-1.470110E-13	NaN
275	1.000000	0.131023	7.36775e+06	-52389.1	955.819	-29749.6	0.000000	0.000000	6.130800	-0.061314	NaN	0.000000	0.001636	0.001619	28.0801	0.087971	0.002179	40.3773	126.363	-163.037	-0.173039	0.129643	-0.854743	-0.856122	-0.061314	40.3773	-0.853604	-2.396278E+11	2.558724E-13	NaN
275	1.000000	0.139030	7.36775e+06	-52389.1	955.818	-29749.6	0.000000	0.000000	6.138811	0.047470	NaN	0.000000	0.001620	0.001613	28.0797	0.074645	0.002049	36.423	-136.556	-161.848	0.095963	0.137718	-0.846736	-0.848048	0.047470	36.423	-0.847713	-1.994194E+11	-2.380385E-13	NaN
275	1.000000	0.147009	7.36775e+06	-52389.1	955.819	-29749.6	0.000000	0.000000	6.146789	-0.007688	NaN	0.000000	0.001606	0.001607	28.0798	0.065057	0.002005	32.4545	-152.631	-168.292	-0.037720	0.145713	-0.838756	-0.840052	-0.007688	32.4545	-0.838578	-1.499801E+11	5.125995E-14	NaN
275	1.000000	0.155044	7.36775e+06	-52389.1	955.819	-29749.6	0.000000	0.000000	6.154820	-0.067962	NaN	0.000000	0.001624	0.001602	28.0798	0.027095	0.001936	13.994	143.557	-167.438	-0.119334	0.153729	-0.830722	-0.832037	-0.067962	13.994	-0.827080	-1.047605E+11	6.487398E-13	NaN
275	1.000000	0.163045	7.36775e+06	-52389.1	955.818	-29749.6	0.000000	0.000000	6.162825	0.014652	NaN	0.000000	0.001637	0.001601	28.0798	0.085003	0.002135	39.815	-112.94	-165.961	0.059687	0.161727	-0.822721	-0.824039	0.014652	39.815	-0.822997	-9.222456E+10	-1.588697E-13	NaN
275	1.000000	0.170995	7.36775e+06	-52389.1	955.819	-29749.6	0.000000	0.000000	6.170773	-0.020755	NaN	0.000000	0.001664	0.001606	28.0804	0.060906	0.001993	30.5527	144.29	-165.387	-0.050409	0.169725	-0.814771	-0.816041	-0.020755	30.5527	-0.814262	-7.020739E+10	2.956173E-13	NaN
275	1.000000	0.179014	7.36775e+06	-52389.1	955.818	-29749.6	0.000000	0.000000	6.178791	-0.035857	NaN	0.000000	0.001611	0.001601	28.0799	0.061319	0.002050	29.9158	124.703	-164.459	0.065375	0.177660	-0.806752	-0.808105	-0.035857	29.9158	-0.805853	-5.398868E+10	6.641486E-13	NaN
275	1.000000	0.187041	7.36775e+06	-52389.1	955.818	-29749.6	0.000000	0.000000	6.186822	0.044174	NaN	0.000000	0.001608	0.001602	28.0802	0.061097	0.002110	28.9501	63.0378	-162.392	0.000463	0.185659	-0.798725	-0.800107	0.044174	28.9501	-0.799869	-4.478034E+10	-9.864592E-13	NaN
275	1.000000	0.195071	7.36775e+06	-52389.1	955.819	-29749.6	0.000000	0.000000	6.194850	-0.021534	NaN	0.000000	0.001629	0.001594	28.0798	0.063011	0.001977	31.8659	-25.4043	-167.167	0.054485	0.193757	-0.790694	-0.792009	-0.021534	31.8659	-0.790188	-3.308504E+10	6.508643E-13	NaN
275	1.000000	0.203014	7.36775e+06	-52389.1	955.818	-29749.6	0.000000	0.000000	6.202795	0.048730	NaN	0.000000	0.001599	0.001568	28.0798	0.057772	0.001913	30.1976	170.479	-166.214	0.054292	0.201709	-0.782752	-0.784057	0.048730	30.1976	-0.783962	-2.723131E+10	-1.789495E-12	NaN
275	1.000000	0.211017	7.36775e+06	-52389.1	955.817	-29749.6	0.000000	0.000000	6.210798	0.032919	NaN	0.000000	0.001599	0.001585	28.0802	0.031179	0.002068	15.0781	139.921	-166.655	-0.044317	0.209761	-0.774749	-0.776005	0.032919	15.0781	-0.776386	-2.148425E+10	-1.532261E-12	NaN
275	1.000000	0.219028	7.36775e+06	-52389.1	955.818	-29749.6	0.000000	0.000000	6.218811	0.085488	NaN	0.000000	0.001602	0.001633	28.0803	0.151632	0.002004	75.6803	129.705	-167.332	0.064616	0.217764	-0.766738	-0.768001	0.085488	75.6803	-0.767585	-1.631043E+10	-5.241298E-12	NaN
275	1.000000	0.227065	7.36775e+06	-52389.1	955.819	-29749.6	0.000000	0.000000	6.226847	0.073892	NaN	0.000000	0.001587	0.001610	28.0813	0.050141	0.001963	25.5407	144.632	-163.585	0.015791	0.225749	-0.758701	-0.760016	0.073892	25.5407	-0.760870	-1.321735E+10	-5.590547E-12	NaN
275	1.000000	0.235042	7.36775e+06	-52389.1	955.818	-29749.6	0.000000	0.000000	6.234823	0.040903	NaN	0.000000	0.001626	0.001609	28.0816	0.054258	0.001985	27.3297	133.022	-167.487	0.041731	0.233790	-0.750724	-0.751976	0.040903	27.3297	-0.751846	-9.962138E+9	-4.105836E-12	NaN
275	1.000000	0.243060	7.36775e+06	-52389.1	955.818	-29749.6	0.000000	0.000000	6.242841	0.032362	NaN	0.000000	0.001604	0.001612	28.0811	0.124983	0.002062	60.6001	92.1721	-166.776	0.012364	0.241742	-0.742705	-0.744024	0.032362	60.6001	-0.743106	-7.574553E+9	-4.272413E-12	NaN
275	1.000000	0.251049	7.36775e+06	-52389.1	955.819	-29749.6	0.000000	0.000000	6.250828	-0.015126	NaN	0.000000	0.001626	0.001628	28.0814	0.035878	0.002017	17.7913	-76.6084	-162.003	0.050080	0.249705	-0.734716	-0.736061	-0.015126	17.7913	-0.734079	-5.706755E+9	2.650591E-12	NaN
275	1.000000	0.259054	7.36775e+06	-52389.1	955.818	-29749.6	0.000000	0.000000	6.258838	0.126719	NaN	0.000000	0.001612	0.001612	28.0811	0.101333	0.002079	48.744	-130.255	-163.568	0.082930	0.257731	-0.726712	-0.728035	0.126719	48.744	-0.728662	-4.814699E+9	-2.631915E-11	NaN
275	1.000000	0.267070	7.36775e+06	-52389.1	955.819	-29749.6	0.000000	0.000000	6.266850	0.012991	NaN	0.000000	0.001610	0.001592	28.0814	0.076348	0.002143	35.6347	-70.1268	-167.403	0.059296	0.265802	-0.718695	-0.719963	0.012991	35.6347	-0.718969	-3.551470E+9	-3.657870E-12	NaN
275	1.000000	0.275041	7.36775e+06	-52389.1	955.819	-29749.6	0.000000	0.000000	6.274821	0.021379	NaN	0.000000	0.001601	0.001593	28.0811	0.050335	0.001923	26.172	24.6434	-163.941	-0.043424	0.273736	-0.710724	-0.712029	0.021379	26.172	-0.711337	-2.794441E+9	-7.650704E-12	NaN
275	1.000000	0.283089	7.36775e+06	-52389.1	955.819	-29749.6	0.000000	0.000000	6.282869	0.016352	NaN	0.000000	0.001604	0.001590	28.0814	0.079011	0.001987	39.7729	-2.042569	-161.196	-0.030776	0.281776	-0.702676	-0.703989	0.016352	39.7729	-0.702985	-2.149256E+9	-7.608213E-12	NaN
275	1.000000	0.291053	7.36775e+06	-52389.1	955.817	-29749.6	0.000000	0.000000	6.290835	0.064052	NaN	0.000000	0.001599	0.001629	28.0815	0.120997	0.001945	62.1962	-34.869	-165.924	0.061098	0.289830	-0.694713	-0.695935	0.064052	62.1962	-0.695485	-1.697725E+9	-3.772799E-11	NaN
275	1.000000	0.299090	7.36775e+06	-52389.1	955.82	-29749.6	0.000000	0.000000	6.298869	-0.006500	NaN	0.000000	0.001566	0.001635	28.0812	0.039904	0.001925	20.7276	-116.484	-164.192	0.022348	0.297750	-0.686676	-0.688016	-0.006500	20.7276	-0.686441	-1.277236E+9	5.089319E-12	NaN
275	1.000000	0.307093	7.36775e+06	-52389.1	955.817	-29749.6	0.000000	0.000000	6.306875	0.070845	NaN	0.000000	0.001604	0.001602	28.0814	0.085924	0.001848	46.5007	43.0655	-167.633	0.043998	0.305721	-0.678673	-0.680044	0.070845	46.5007	-0.679816	-1.036770E+9	-6.833208E-11	NaN
275	1.000000	0.315092	7.36775e+06	-52389.1	955.819	-29749.6	0.000000	0.000000	6.314870	-0.040503	NaN	0.000000	0.001624	0.001614	28.0812	0.046555	0.001944	23.9505	46.6825	-168.144	-0.004671	0.313776	-0.670674	-0.671989	-0.040503	23.9505	-0.669405	-7.468787E+8	5.422920E-11	NaN
275	1.000000	0.323108	7.36775e+06	-52389.1	955.819	-29749.6	0.000000	0.000000	6.322888	0.016194	NaN	0.000000	0.001606	0.001615	28.0816	0.179938	0.002018	89.1614	179.147	-166.239	0.038822	0.321792	-0.662658	-0.663973	0.016194	89.1614	-0.662794	-6.063697E+8	-2.670579E-11	NaN
275	1.000000	0.331079	7.36775e+06	-52389.1	955.818	-29749.6	0.000000	0.000000	6.330854	-0.109690	NaN	0.000000	0.001624	0.001620	28.0814	0.030840	0.001952	15.7989	65.0662	-166.368	-0.106067	0.329755	-0.654687	-0.656011	-0.109690	15.7989	-0.649479	-3.983820E+8	2.753378E-10	NaN
275	1.000000	0.339083	7.36775e+06	-52389.1	955.818	-29749.6	0.000000	0.000000	6.338865	0.061953	NaN	0.000000	0.001631	0.001650	28.0811	0.079449	0.002052	38.7221	-96.3727	-164.093	0.116489	0.337730	-0.646683	-0.648035	0.061953	38.7221	-0.647883	-3.787962E+8	-1.635535E-10	NaN
275	1.000000	0.347095	7.36775e+06	-52389.1	955.819	-29749.6	0.000000	0.000000	6.346876	0.053766	NaN	0.000000	0.001633	0.001616	28.0812	0.129637	0.001912	67.81	-140.81	-163.115	-0.065348	0.345785	-0.638671	-0.639980	0.053766	67.81	-0.639266	-2.885438E+8	-1.863370E-10	NaN
275	1.000000	0.355102	7.36775e+06	-52389.1	955.818	-29749.6	0.000000	0.000000	6.354884	0.059524	NaN	0.000000	0.001598	0.001637	28.0808	0.053586	0.002007	26.6967	-132.757	-167.087	0.067334	0.353765	-0.630664	-0.632001	0.059524	26.6967	-0.632336	-2.317926E+8	-2.567993E-10	NaN
275	1.000000	0.363120	7.36775e+06	-52389.1	955.819	-29749.6	0.000000	0.000000	6.362900	0.006673	NaN	0.000000	0.001625	0.001581	28.08	0.145611	0.002000	72.7932	-43.2017	-165.899	-0.038846	0.361819	-0.622645	-0.623946	0.006673	72.7932	-0.622714	-1.709756E+8	-3.903133E-11	NaN
275	1.000000	0.371121	7.36775e+06	-52389.1	955.819	-29749.6	0.000000	0.000000	6.370905	0.107348	NaN	0.000000	0.001610	0.001626	28.0799	0.028632	0.001967	14.5528	-139.251	-162.925	0.090983	0.369785	-0.614645	-0.615980	0.107348	14.5528	-0.620177	-1.577857E+8	-6.803424E-10	NaN
275	1.000000	0.379122	7.36775e+06	-52389.1	955.819	-29749.6	0.000000	0.000000	6.378902	0.002348	NaN	0.000000	0.001609	0.001612	28.0799	0.071999	0.002102	34.2594	54.383	-166.432	-0.066305	0.377802	-0.606643	-0.607964	0.002348	34.2594	-0.606695	-1.029514E+8	-2.280263E-11	NaN
275	1.000000	0.387070	7.36775e+06	-52389.1	955.818	-29749.6	0.000000	0.000000	6.386850	0.013751	NaN	0.000000	0.001609	0.001605	28.0798	0.125738	0.001953	64.3941	-155.967	-162.699	-0.022916	0.385802	-0.598696	-0.599964	0.013751	64.3941	-0.598856	-8.029778E+7	-1.712466E-10	NaN
275	1.000000	0.395102	7.36775e+06	-52389.1	955.818	-29749.6	0.000000	0.000000	6.394883	0.043170	NaN	0.000000	0.001613	0.001643	28.0798	0.057189	0.001929	29.6427	-164.272	-162.882	0.078070	0.393836	-0.590663	-0.591929	0.043170	29.6427	-0.591756	-6.410171E+7	-6.734562E-10	NaN
275	1.000000	0.403082	7.36775e+06	-52389.1	955.818	-29749.6	0.000000	0.000000	6.402865	0.077785	NaN	0.000000	0.001600	0.001627	28.0798	0.132746	0.001954	67.9404	36.7541	-166.072	0.060042	0.401819	-0.582683	-0.583946	0.077785	67.9404	-0.583542	-4.938550E+7	-1.575064E-9	NaN
275	1.000000	0.411129	7.36775e+06	-52389.1	955.818	-29749.6	0.000000	0.000000	6.410908	-0.021085	NaN	0.000000	0.001606	0.001608	28.0796	0.091861	0.002055	44.6975	-10.2618	-163.7	-0.008512	0.409808	-0.574637	-0.575958	-0.021085	44.6975	-0.574283	-3.679534E+7	5.730369E-10	NaN
275	1.000000	0.419126	7.36775e+06	-52389.1	955.819	-29749.6	0.000000	0.000000	6.418906	0.002676	NaN	0.000000	0.001621	0.001673	28.08	0.022065	0.001911	11.5437	7.904756	-164.317	0.057839	0.417782	-0.566639	-0.567984	0.002676	11.5437	-0.566813	-2.901276E+7	-9.224784E-11	NaN
275	1.000000	0.427136	7.36775e+06	-52389.1	955.818	-29749.6	0.000000	0.000000	6.426918	0.049256	NaN	0.000000	0.001588	0.001655	28.0797	0.062233	0.001965	31.6746	-143.821	-167.1	0.014789	0.425809	-0.558629	-0.559957	0.049256	31.6746	-0.559796	-2.320331E+7	-2.122797E-9	NaN
275	1.000000	0.435132	7.36775e+06	-52389.1	955.819	-29749.6	0.000000	0.000000	6.434914	0.065814	NaN	0.000000	0.001582	0.001639	28.0799	0.022610	0.002013	11.2331	167.926	-166.83	0.068972	0.433795	-0.550634	-0.551970	0.065814	11.2331	-0.555028	-1.993317E+7	-3.301751E-9	NaN
275	1.000000	0.443148	7.36775e+06	-52389.1	955.817	-29749.6	0.000000	0.000000	6.442926	-0.045304	NaN	0.000000	0.001597	0.001635	28.0799	0.041706	0.002056	20.2844	-19.5555	-163.419	-0.065038	0.441844	-0.542617	-0.543922	-0.045304	20.2844	-0.540942	-1.271809E+7	3.562169E-9	NaN
275	1.000000	0.451139	7.36775e+06	-52389.1	955.818	-29749.6	0.000000	0.000000	6.450918	-0.007489	NaN	0.000000	0.001635	0.001591	28.0797	0.034059	0.002117	16.0909	-164.588	-167.747	-0.037943	0.449808	-0.534626	-0.535957	-0.007489	16.0909	-0.534277	-1.027925E+7	7.285475E-10	NaN
275	1.000000	0.459165	7.36775e+06	-52389.1	955.819	-29749.6	0.000000	0.000000	6.458947	0.082675	NaN	0.000000	0.001587	0.001624	28.08	0.043843	0.002016	21.7475	68.4226	-167.032	0.067460	0.457823	-0.526601	-0.527943	0.082675	21.7475	-0.529452	-8.80982e+06	-9.384412E-9	NaN
275	1.000000	0.467159	7.36775e+06	-52389.1	955.818	-29749.6	0.000000	0.000000	6.466939	0.022014	NaN	0.000000	0.001617	0.001639	28.0799	0.069697	0.002133	32.675	24.4682	-167.061	0.033240	0.465828	-0.518606	-0.519938	0.022014	32.675	-0.519112	-6.32766e+06	-3.479083E-9	NaN
275	1.000000	0.475145	7.36775e+06	-52389.1	955.819	-29749.6	0.000000	0.000000	6.474924	0.008343	NaN	0.000000	0.001614	0.001639	28.0801	0.022327	0.001973	11.3155	-76.2109	-166.974	0.077200	0.473816	-0.510621	-0.511949	0.008343	11.3155	-0.511174	-4.90644e+06	-1.700521E-9	NaN
275	1.000000	0.483174	7.36775e+06	-52389.1	955.818	-29749.6	0.000000	0.000000	6.482952	-0.023812	NaN	0.000000	0.001610	0.001633	28.08	0.087176	0.002009	43.3873	-157.3	-165.035	0.040640	0.481869	-0.502592	-0.503896	-0.023812	43.3873	-0.502180	-3.67643e+06	6.476990E-9	NaN
275	1.000000	0.491182	7.36775e+06	-52389.1	955.819	-29749.6	0.000000	0.000000	6.490961	-0.012892	NaN	0.000000	0.001612	0.001620	28.0802	0.027407	0.002078	13.1919	99.5932	-164.902	0.014643	0.489803	-0.494583	-0.495963	-0.012892	13.1919	-0.493850	-2.81307e+06	4.582886E-9	NaN
275	1.000000	0.499142	7.36775e+06	-52389.1	955.818	-29749.6	0.000000	0.000000	6.498920	-0.048877	NaN	0.000000	0.001601	0.001652	28.0816	0.040640	0.002048	19.8416	76.0801	-163.849	-0.070998	0.497832	-0.486623	-0.487933	-0.048877	19.8416	-0.484776	-2.10066e+06	2.326756E-8	NaN
275	1.000000	0.507168	7.36775e+06	-52389.1	955.817	-29749.6	0.000000	0.000000	6.506950	0.045655	NaN	0.000000	0.001578	0.001636	28.0811	0.021355	0.001866	11.4457	136.055	-164.804	0.077462	0.505870	-0.478597	-0.479896	0.045655	11.4457	-0.481589	-1.89569e+06	-2.408376E-8	NaN
275	1.000000	0.515194	7.36775e+06	-52389.1	955.818	-29749.6	0.000000	0.000000	6.514977	0.101374	NaN	0.000000	0.001632	0.001646	28.0817	0.168448	0.002020	83.376	-75.3019	-165.888	0.136353	0.513889	-0.470572	-0.471877	0.101374	83.376	-0.471484	-1.36841e+06	-7.408178E-8	NaN
275	1.000000	0.523174	7.36775e+06	-52389.1	955.818	-29749.6	0.000000	0.000000	6.522952	-0.035597	NaN	0.000000	0.001647	0.001625	28.0812	0.066236	0.001965	33.7162	-103.474	-168.52	-0.010509	0.521886	-0.462592	-0.463880	-0.035597	33.7162	-0.461800	-1.0007e+06	3.557171E-8	NaN
275	1.000000	0.531174	7.36775e+06	-52389.1	955.819	-29749.6	0.000000	0.000000	6.530954	0.016132	NaN	0.000000	0.001641	0.001631	28.0812	0.066219	0.001959	33.7949	0.787380	-163.203	-0.017676	0.529857	-0.454592	-0.455908	0.016132	33.7949	-0.454950	-801695	-2.012209E-8	NaN
275	1.000000	0.539187	7.36775e+06	-52389.1	955.818	-29749.6	0.000000	0.000000	6.538966	-0.005983	NaN	0.000000	0.001661	0.001638	28.0815	0.101968	0.001966	51.8716	-7.833278	-164.614	0.039375	0.537893	-0.446579	-0.447873	-0.005983	51.8716	-0.446492	-609430	9.817916E-9	NaN
275	1.000000	0.547164	7.36775e+06	-52389.1	955.817	-29749.6	0.000000	0.000000	6.546944	0.006151	NaN	0.000000	0.001627	0.001615	28.0813	0.045447	0.001968	23.089	14.1539	-162.077	-0.056472	0.545862	-0.438601	-0.439904	0.006151	23.089	-0.438801	-474725	-1.295788E-8	NaN
275	1.000000	0.555207	7.36775e+06	-52389.1	955.819	-29749.6	0.000000	0.000000	6.554987	0.017492	NaN	0.000000	0.001646	0.001657	28.0814	0.043699	0.001945	22.4723	-93.6065	-164.179	0.076899	0.553845	-0.430559	-0.431920	0.017492	22.4723	-0.431143	-370022	-4.727316E-8	NaN
275	1.000000	0.563170	7.36775e+06	-52389.1	955.819	-29749.6	0.000000	0.000000	6.562951	0.024101	NaN	0.000000	0.001618	0.001629	28.0812	0.081406	0.001952	41.7141	47.8905	-166.454	0.014134	0.561920	-0.422595	-0.423846	0.024101	41.7141	-0.423029	-284023	-8.485420E-8	NaN
275	1.000000	0.571196	7.36775e+06	-52389.1	955.818	-29749.6	0.000000	0.000000	6.570975	0.006236	NaN	0.000000	0.001706	0.001637	28.0812	0.098090	0.002073	47.3241	-16.307	-167.99	0.019447	0.569874	-0.414570	-0.415892	0.006236	47.3241	-0.414669	-216149	-2.884988E-8	NaN
275	1.000000	0.579188	7.36775e+06	-52389.1	955.817	-29749.6	0.000000	0.000000	6.578967	0.008887	NaN	0.000000	0.001713	0.001617	28.0813	0.096524	0.002048	47.1391	-100.525	-167.848	-0.039490	0.577917	-0.406578	-0.407848	0.008887	47.1391	-0.406719	-166620	-5.333500E-8	NaN
275	1.000000	0.587227	7.36775e+06	-52389.1	955.818	-29749.6	0.000000	0.000000	6.587004	-0.049831	NaN	0.000000	0.001727	0.001653	28.0812	0.116115	0.001922	60.4255	148.411	-163.86	-0.060250	0.585905	-0.398539	-0.399861	-0.049831	60.4255	-0.397920	-124833	3.991786E-7	NaN
275	1.000000	0.595198	7.36775e+06	-52389.1	955.819	-29749.6	0.000000	0.000000	6.594979	0.027819	NaN	0.000000	0.001724	0.001641	28.0813	0.074395	0.001971	37.7473	-56.9155	-165.301	0.054163	0.593947	-0.390567	-0.391819	0.027819	37.7473	-0.391120	-99813.3	-2.787105E-7	NaN
275	1.000000	0.603196	7.36775e+06	-52389.1	955.819	-29749.6	0.000000	0.000000	6.602976	0.016736	NaN	0.000000	0.001652	0.001630	28.0813	0.043006	0.002053	20.9438	-127.028	-165.313	0.138260	0.601885	-0.382569	-0.383880	0.016736	20.9438	-0.383169	-76796.2	-2.179226E-7	NaN
275	1.000000	0.611214	7.36775e+06	-52389.1	955.818	-29749.6	0.000000	0.000000	6.610993	-0.013541	NaN	0.000000	0.001655	0.001651	28.0812	0.053354	0.001949	27.3768	-145.8	-162.534	-0.081377	0.609904	-0.374551	-0.375862	-0.013541	27.3768	-0.374180	-57054.2	2.373276E-7	NaN
275	1.000000	0.619199	7.36775e+06	-52389.1	955.818	-29749.6	0.000000	0.000000	6.618977	-0.021815	NaN	0.000000	0.001687	0.001641	28.0811	0.067429	0.001933	34.8821	-78.3325	-165.618	-0.045153	0.617901	-0.366567	-0.367864	-0.021815	34.8821	-0.366098	-43640.3	4.998777E-7	NaN
275	1.000000	0.627230	7.36775e+06	-52389.1	955.818	-29749.6	0.000000	0.000000	6.627008	-0.038382	NaN	0.000000	0.001680	0.001644	28.0811	0.067252	0.002015	33.3788	-104.709	-164.006	0.103290	0.625921	-0.358536	-0.359845	-0.038382	33.3788	-0.357673	-32975.8	1.163937E-6	NaN
275	1.000000	0.635215	7.36775e+06	-52389.1	955.818	-29749.6	0.000000	0.000000	6.634994	-0.008706	NaN	0.000000	0.001669	0.001669	28.0801	0.026399	0.001911	13.8111	-86.5537	-167.778	-0.100932	0.633936	-0.350551	-0.351830	-0.008706	13.8111	-0.350078	-25593.8	3.401748E-7	NaN
275	1.000000	0.643222	7.36775e+06	-52389.1	955.819	-29749.6	0.000000	0.000000	6.643004	0.077099	NaN	0.000000	0.001677	0.001640	28.0801	0.135129	0.001979	68.2805	152.992	-165.408	0.093104	0.641902	-0.342544	-0.343863	0.077099	68.2805	-0.343391	-20461.8	-3.767940E-6	NaN
275	1.000000	0.651224	7.36775e+06	-52389.1	955.819	-29749.6	0.000000	0.000000	6.651005	0.046213	NaN	0.000000	0.001644	0.001625	28.08	0.030519	0.002055	14.8504	24.9929	-166.617	0.019010	0.649917	-0.334542	-0.335849	0.046213	14.8504	-0.336876	-16443.1	-2.810462E-6	NaN
275	1.000000	0.659243	7.36775e+06	-52389.1	955.819	-29749.6	0.000000	0.000000	6.659023	0.024450	NaN	0.000000	0.001662	0.001637	28.0798	0.070351	0.002095	33.5794	45.6895	-166.115	0.055591	0.657887	-0.326523	-0.327879	0.024450	33.5794	-0.327069	-11816.8	-2.069110E-6	NaN
275	1.000000	0.667222	7.36775e+06	-52389.1	955.82	-29749.6	0.000000	0.000000	6.667002	0.018502	NaN	0.000000	0.001653	0.001627	28.0798	0.113992	0.002012	56.6574	-56.7428	-164.341	0.034209	0.665891	-0.318543	-0.319875	0.018502	56.6574	-0.318788	-8928.91	-2.072122E-6	NaN
275	1.000000	0.675228	7.36775e+06	-52389.1	955.818	-29749.6	0.000000	0.000000	6.675009	0.038436	NaN	0.000000	0.001669	0.001625	28.0801	0.066579	0.001959	33.9848	154.151	-164.1	0.068867	0.673849	-0.310537	-0.311916	0.038436	33.9848	-0.311386	-6943.11	-5.535892E-6	NaN
275	1.000000	0.683243	7.36775e+06	-52389.1	955.818	-29749.6	0.000000	0.000000	6.683022	-0.009334	NaN	0.000000	0.001622	0.001647	28.0801	0.030544	0.002099	14.5539	73.6203	-163.736	0.004622	0.681930	-0.302523	-0.303835	-0.009334	14.5539	-0.302042	-5046.77	1.849529E-6	NaN
275	1.000000	0.691243	7.36775e+06	-52389.1	955.819	-29749.6	0.000000	0.000000	6.691020	-0.049861	NaN	0.000000	0.001635	0.001643	28.0799	0.103635	0.002154	48.1023	163.97	-165.13	-0.055984	0.689876	-0.294523	-0.295889	-0.049861	48.1023	-0.293745	-3796.15	1.313451E-5	NaN
275	1.000000	0.699246	7.36775e+06	-52389.1	955.818	-29749.6	0.000000	0.000000	6.699022	-0.070210	NaN	0.000000	0.001627	0.001663	28.08	0.065801	0.002007	32.7811	28.9714	-164.222	-0.062161	0.697928	-0.286520	-0.287837	-0.070210	32.7811	-0.284913	-2798.74	2.508620E-5	NaN
275	1.000000	0.707250	7.36775e+06	-52389.1	955.819	-29749.6	0.000000	0.000000	6.707032	0.049689	NaN	0.000000	0.001657	0.001670	28.08	0.029203	0.002025	14.4227	-86.4131	-164.857	0.039355	0.705973	-0.278515	-0.279793	0.049689	14.4227	-0.281099	-2452.14	-2.026371E-5	NaN
275	1.000000	0.715263	7.36775e+06	-52389.1	955.82	-29749.6	0.000000	0.000000	6.715044	0.043952	NaN	0.000000	0.001620	0.001608	28.0801	0.050390	0.002125	23.7096	-126.19	-163.328	0.028996	0.713960	-0.270503	-0.271805	0.043952	23.7096	-0.271893	-1779.52	-2.469861E-5	NaN
275	1.000000	0.723279	7.36775e+06	-52389.1	955.819	-29749.6	0.000000	0.000000	6.723062	0.098958	NaN	0.000000	0.001677	0.001649	28.0799	0.052614	0.002149	24.4829	-47.8877	-164.74	0.014929	0.721961	-0.262487	-0.263805	0.098958	24.4829	-0.265519	-1423.31	-6.952641E-5	NaN
275	1.000000	0.731260	7.36775e+06	-52389.1	955.818	-29749.6	0.000000	0.000000	6.731040	0.012860	NaN	0.000000	0.001628	0.001665	28.0801	0.027109	0.001917	14.1419	47.8643	-165.763	-0.001855	0.729957	-0.254506	-0.255809	0.012860	14.1419	-0.255188	-988.575	-1.300909E-5	NaN
275	1.000000	0.739276	7.36775e+06	-52389.1	955.818	-29749.6	0.000000	0.000000	6.739054	-0.032147	NaN	0.000000	0.001617	0.001676	28.0798	0.019529	0.001983	9.846486	117.673	-164.979	0.015969	0.737940	-0.246489	-0.247826	-0.032147	9.846486	-0.244041	-664.559	4.837389E-5	NaN
275	1.000000	0.747264	7.36775e+06	-52389.1	955.818	-29749.6	0.000000	0.000000	6.747042	-0.039926	NaN	0.000000	0.001648	0.001661	28.0804	0.065050	0.002039	31.8964	-43.3372	-166.055	0.039451	0.745896	-0.238502	-0.239870	-0.039926	31.8964	-0.237563	-526.546	7.582662E-5	NaN
275	1.000000	0.755295	7.36775e+06	-52389.1	955.819	-29749.6	0.000000	0.000000	6.755074	-0.016487	NaN	0.000000	0.001639	0.001662	28.08	0.082445	0.001944	42.4014	-112.2	-161.989	0.026015	0.753977	-0.230470	-0.231789	-0.016487	42.4014	-0.230179	-403.031	4.090732E-5	NaN
275	1.000000	0.763269	7.36775e+06	-52389.1	955.818	-29749.6	0.000000	0.000000	6.763046	-0.059886	NaN	0.000000	0.001658	0.001672	28.0798	0.009726	0.002097	4.638901	-80.6683	-165.981	-0.045386	0.762014	-0.222497	-0.223752	-0.059886	4.638901	-0.212814	-212.965	0.000281	NaN
275	1.000000	0.771282	7.36775e+06	-52389.1	955.818	-29749.6	0.000000	0.000000	6.771062	-0.002360	NaN	0.000000	0.001625	0.001674	28.0814	0.048350	0.002063	23.4371	113.973	-166.318	-0.030897	0.770002	-0.214483	-0.215763	-0.002360	23.4371	-0.214408	-225.934	1.044718E-5	NaN
275	1.000000	0.779281	7.36775e+06	-52389.1	955.818	-29749.6	0.000000	0.000000	6.779060	0.005780	NaN	0.000000	0.001636	0.001631	28.0811	0.143491	0.002071	69.2737	-93.6043	-163.197	0.000242	0.777941	-0.206485	-0.207824	0.005780	69.2737	-0.206547	-168.566	-3.429041E-5	NaN
275	1.000000	0.787299	7.36775e+06	-52389.1	955.819	-29749.6	0.000000	0.000000	6.787079	0.022257	NaN	0.000000	0.001652	0.001623	28.0814	0.080239	0.002036	39.413	160.793	-167.441	0.023944	0.785968	-0.198467	-0.199798	0.022257	39.413	-0.198890	-126.312	-0.000176	NaN
275	1.000000	0.795284	7.36775e+06	-52389.1	955.819	-29749.6	0.000000	0.000000	6.795065	0.032172	NaN	0.000000	0.001686	0.001650	28.081	0.140472	0.001937	72.5254	78.0485	-163.547	-0.030735	0.793942	-0.190481	-0.191824	0.032172	72.5254	-0.190814	-92.8151	-0.000347	NaN
275	1.000000	0.803307	7.36775e+06	-52389.1	955.818	-29749.6	0.000000	0.000000	6.803089	0.063482	NaN	0.000000	0.001654	0.001661	28.081	0.086936	0.002068	42.032	116.658	-162.352	0.029889	0.801987	-0.182459	-0.183779	0.063482	42.032	-0.183592	-70.2042	-0.000904	NaN
275	1.000000	0.811273	7.36775e+06	-52389.1	955.819	-29749.6	0.000000	0.000000	6.811053	0.015610	NaN	0.000000	0.001702	0.001641	28.0812	0.021787	0.001945	11.2044	-167.373	-165.957	-0.015487	0.810006	-0.174493	-0.175760	0.015610	11.2044	-0.175537	-51.1929	-0.000305	NaN
275	1.000000	0.819330	7.36775e+06	-52389.1	955.818	-29749.6	0.000000	0.000000	6.819109	-0.009542	NaN	0.000000	0.001655	0.001626	28.0811	0.081531	0.002075	39.2928	43.527	-164.674	0.032042	0.818011	-0.166435	-0.167755	-0.009542	39.2928	-0.166253	-35.3412	0.000270	NaN
275	1.000000	0.827278	7.36775e+06	-52389.1	955.818	-29749.6	0.000000	0.000000	6.827055	-0.040538	NaN	0.000000	0.001642	0.001645	28.0812	0.038521	0.001870	20.6037	-87.1029	-163.528	-0.098715	0.826049	-0.158488	-0.159717	-0.040538	20.6037	-0.157012	-24.2494	0.001672	NaN
275	1.000000	0.835301	7.36775e+06	-52389.1	955.819	-29749.6	0.000000	0.000000	6.835082	0.051491	NaN	0.000000	0.001665	0.001641	28.081	0.092751	0.002005	46.2605	-41.1291	-165.543	-0.007489	0.834029	-0.150465	-0.151737	0.051491	46.2605	-0.151300	-19.1278	-0.002692	NaN
275	1.000000	0.843298	7.36775e+06	-52389.1	955.817	-29749.6	0.000000	0.000000	6.843079	0.042358	NaN	0.000000	0.001687	0.001643	28.0812	0.033685	0.001966	17.1319	158.701	-168.493	0.016216	0.842005	-0.142468	-0.143761	0.042358	17.1319	-0.144322	-14.2435	-0.002974	NaN
275	1.000000	0.851329	7.36775e+06	-52389.1	955.819	-29749.6	0.000000	0.000000	6.851109	0.026958	NaN	0.000000	0.001722	0.001668	28.0812	0.076045	0.001950	39.0048	-30.8162	-164.819	0.061511	0.849968	-0.134437	-0.135797	0.026958	39.0048	-0.134955	-9.493607	-0.002840	NaN
275	1.000000	0.859325	7.36775e+06	-52389.1	955.818	-29749.6	0.000000	0.000000	6.859105	0.025585	NaN	0.000000	0.001699	0.001668	28.0809	0.116046	0.002006	57.8354	144.917	-165.025	-0.056798	0.857989	-0.126441	-0.127777	0.025585	57.8354	-0.126772	-6.590913	-0.003882	NaN
275	1.000000	0.867288	7.36775e+06	-52389.1	955.82	-29749.6	0.000000	0.000000	6.867069	0.037173	NaN	0.000000	0.001706	0.001678	28.0812	0.066232	0.001898	34.8942	46.6548	-161.889	0.049238	0.865975	-0.118478	-0.119791	0.037173	34.8942	-0.119277	-4.671535	-0.007957	NaN
275	1.000000	0.875302	7.36775e+06	-52389.1	955.819	-29749.6	0.000000	0.000000	6.875085	0.092547	NaN	0.000000	0.001727	0.001679	28.0812	0.035547	0.001912	18.5898	78.2512	-166.957	0.070703	0.873985	-0.110464	-0.111781	0.092547	18.5898	-0.114198	-3.677365	-0.025167	NaN
275	1.000000	0.883333	7.36775e+06	-52389.1	955.819	-29749.6	0.000000	0.000000	6.883114	0.021939	NaN	0.000000	0.001734	0.001670	28.0812	0.047052	0.002019	23.3104	124.332	-164.549	0.076935	0.882038	-0.102432	-0.103728	0.021939	23.3104	-0.103138	-2.141742	-0.010244	NaN
275	1.000000	0.891310	7.36775e+06	-52389.1	955.818	-29749.6	0.000000	0.000000	6.891092	0.054836	NaN	0.000000	0.001726	0.001671	28.0812	0.044803	0.002067	21.6796	102.89	-165.631	0.073238	0.890051	-0.094456	-0.095714	0.054836	21.6796	-0.096353	-1.513966	-0.036220	NaN
275	1.000000	0.899299	7.36775e+06	-52389.1	955.818	-29749.6	0.000000	0.000000	6.899080	0.040537	NaN	0.000000	0.001718	0.001717	28.0813	0.079086	0.001975	40.0444	22.4257	-162.409	0.049817	0.897983	-0.086466	-0.087783	0.040537	40.0444	-0.087226	-0.929321	-0.043620	NaN
275	1.000000	0.907341	7.36775e+06	-52389.1	955.817	-29749.6	0.000000	0.000000	6.907122	0.029455	NaN	0.000000	0.001644	0.001712	28.0805	0.125272	0.002063	60.738	-113.9	-164.698	0.126451	0.906013	-0.078424	-0.079753	0.029455	60.738	-0.078788	-0.577102	-0.051040	NaN
275	1.000000	0.915333	7.36775e+06	-52389.1	955.818	-29749.6	0.000000	0.000000	6.915114	0.040680	NaN	0.000000	0.001646	0.001703	28.0803	0.082905	0.001994	41.5757	95.6202	-167.876	-0.010412	0.914059	-0.070432	-0.071706	0.040680	41.5757	-0.071166	-0.366444	-0.111013	NaN
275	1.000000	0.923364	7.36775e+06	-52389.1	955.819	-29749.6	0.000000	0.000000	6.923144	0.015430	NaN	0.000000	0.001676	0.001721	28.0803	0.126182	0.001988	63.459	146.884	-164.812	0.025877	0.922014	-0.062401	-0.063752	0.015430	63.459	-0.062584	-0.213302	-0.072338	NaN
275	1.000000	0.931366	7.36775e+06	-52389.1	955.819	-29749.6	0.000000	0.000000	6.931144	-0.031531	NaN	0.000000	0.001684	0.001732	28.0801	0.011968	0.002094	5.716685	-97.2943	-163.909	-0.008059	0.930007	-0.054400	-0.055758	-0.031531	5.716685	-0.050263	-0.092938	0.339273	NaN
275	1.000000	0.939334	7.36775e+06	-52389.1	955.819	-29749.6	0.000000	0.000000	6.939112	-0.022809	NaN	0.000000	0.001725	0.001711	28.0802	0.063083	0.002032	31.0493	-135.718	-165.405	-0.055525	0.938055	-0.046432	-0.047711	-0.022809	31.0493	-0.045881	-0.068379	0.333565	NaN
275	1.000000	0.947358	7.36775e+06	-52389.1	955.818	-29749.6	0.000000	0.000000	6.947141	0.098629	NaN	0.000000	0.001663	0.001699	28.0803	0.173360	0.001925	90.0779	24.2715	-165.308	0.002450	0.946091	-0.038408	-0.039675	0.098629	90.0779	-0.039229	-0.042851	-2.301658	NaN
275	1.000000	0.955373	7.36775e+06	-52389.1	955.818	-29749.6	0.000000	0.000000	6.955183	0.739591	NaN	0.000000	0.001645	0.001719	28.0801	0.507726	0.002007	252.948	17.0057	-166.059	0.799480	0.954088	-0.030392	-0.031678	0.739591	252.948	-0.032585	-0.027238	-27.1526	NaN
275	1.000000	0.963348	7.36775e+06	-52389.1	955.819	-29749.6	0.000000	0.000000	6.963143	0.373902	NaN	0.000000	0.001601	0.001714	28.0802	0.230545	0.001972	116.929	23.2436	-166.307	0.424668	0.961996	-0.022417	-0.023770	0.373902	116.929	-0.024816	-0.016684	-22.4102	NaN
275	1.000000	0.971377	7.36775e+06	-52389.1	955.818	-29749.6	0.000000	0.000000	6.971165	0.220657	NaN	0.000000	0.001615	0.001704	28.0805	0.398889	0.001929	206.787	21.8264	-165.315	0.254505	0.970021	-0.014389	-0.015745	0.220657	206.787	-0.015189	-0.009389	-23.5014	NaN
275	1.000000	0.979340	7.36775e+06	-52389.1	955.817	-29749.6	0.000000	0.000000	6.979142	0.548423	NaN	0.000000	0.001641	0.001716	28.0804	0.722669	0.002119	340.974	38.6523	-165.936	0.537252	0.978045	-0.006426	-0.007721	0.548423	340.974	-0.007632	-0.005015	-109.346	NaN
275	1.000000	0.987350	7.36775e+06	-52389.1	955.817	-29749.6	0.000000	0.000000	6.987164	0.853868	NaN	0.000000	0.001705	0.001729	28.0801	1.029012	0.002036	505.361	29.3869	-167.031	0.828703	0.986115	0.001584	0.000350	0.853868	505.361	0.000317	0.000239	3580.09	29896.9
275	1.000000	0.995368	7.36775e+06	-52389.1	955.816	-29749.6	0.000000	0.000000	6.995203	1.353062	NaN	0.000000	0.001686	0.001721	28.0802	1.498881	0.001921	780.227	26.2824	-166.34	1.262961	0.994049	0.009602	0.008284	1.353062	780.227	0.008301	0.007354	183.986	8312.41
275	1.000000	1.003352	7.36775e+06	-52389.1	955.817	-29749.6	0.000000	0.000000	7.003216	2.056434	NaN	0.000000	0.001651	0.001727	28.0803	1.831618	0.002001	915.299	30.9285	-169.04	1.914858	1.002118	0.017587	0.016352	2.056434	915.299	0.015902	0.016507	124.582	6508.89
275	1.000000	1.011361	7.36775e+06	-52389.1	955.818	-29749.6	0.000000	0.000000	7.011271	3.187174	NaN	0.000000	0.001651	0.001677	28.08	2.522644	0.001990	1267.75	23.5932	-168.074	3.028644	1.010037	0.025595	0.024271	3.187174	1267.75	0.023710	0.028710	111.012	6835.83
275	1.000000	1.019370	7.36775e+06	-52389.1	955.818	-29749.6	0.000000	0.000000	7.019346	4.769865	NaN	0.000000	0.001652	0.001698	28.0802	3.423306	0.001997	1713.98	22.0245	-170.101	4.558616	1.017998	0.033605	0.032233	4.769865	1713.98	0.031518	0.043948	108.534	7469.79
275	1.000000	1.027371	7.36775e+06	-52389.1	955.818	-29749.6	0.000000	0.000000	7.027444	7.151742	NaN	0.000000	0.001678	0.001716	28.08	4.604545	0.001875	2456	18.1111	-169.325	6.753778	1.026033	0.041605	0.040268	7.151742	2456	0.039421	0.062542	114.352	8972.59
275	2.000000	1.032040	7.36775e+06	-52389.1	955.817	-29749.6	0.000000	0.000000	7.032136	7.700024	NaN	0.000000	0.001654	0.001726	28.0806	5.262827	0.001809	2909.3	9.705377	-167.285	7.740033	1.031645	0.046274	0.045880	7.700024	2909.3	0.044289	0.075582	101.877	9668.38
275	2.000000	1.033987	7.36775e+06	-52389.1	955.818	-29749.6	0.000000	0.000000	7.034117	8.521572	NaN	0.000000	0.001698	0.001719	28.0814	6.073156	0.001971	3080.85	13.9149	-171.971	8.459250	1.033721	0.048222	0.047956	8.521572	3080.85	0.046147	0.080877	105.364	9897.63
275	2.000000	1.035951	7.36775e+06	-52389.1	955.817	-29749.6	0.000000	0.000000	7.036111	9.254696	NaN	0.000000	0.001681	0.001725	28.0814	6.225021	0.001858	3349.8	11.3436	-171.352	8.932165	1.035707	0.050186	0.049942	9.254696	3349.8	0.048113	0.086671	106.779	10395.7
275	2.000000	1.038001	7.36775e+06	-52389.1	955.817	-29749.6	0.000000	0.000000	7.038194	10.071	NaN	0.000000	0.001682	0.001688	28.0816	6.815309	0.001964	3470.55	10.5064	-170.532	10.2536	1.037680	0.052235	0.051914	10.071	3470.55	0.050059	0.092595	108.765	10420.3
275	2.000000	1.039958	7.36775e+06	-52389.1	955.817	-29749.6	0.000000	0.000000	7.040176	10.6842	NaN	0.000000	0.001608	0.001715	28.0814	7.398745	0.002159	3426.68	12.7959	-170.588	10.4405	1.039631	0.054192	0.053866	10.6842	3426.68	0.051854	0.098228	108.768	9989.14
275	2.000000	1.041950	7.36775e+06	-52389.1	955.816	-29749.6	0.000000	0.000000	7.042215	11.8064	NaN	0.000000	0.001612	0.001783	28.0817	7.786449	0.002011	3872.47	10.3138	-170.156	11.8951	1.041632	0.056184	0.055866	11.8064	3872.47	0.053897	0.104840	112.614	10926.9
275	2.000000	1.043953	7.36775e+06	-52389.1	955.817	-29749.6	0.000000	0.000000	7.044243	12.4318	NaN	0.000000	0.001616	0.001779	28.0812	8.207107	0.002024	4055.9	10.0475	-169.96	12.7589	1.043646	0.058187	0.057880	12.4318	4055.9	0.055888	0.111478	111.518	11098.5
275	2.000000	1.045930	7.36775e+06	-52389.1	955.817	-29749.6	0.000000	0.000000	7.046276	13.7954	NaN	0.000000	0.001611	0.001759	28.0813	8.439189	0.001915	4406.02	8.297306	-169.51	13.53	1.045626	0.060164	0.059861	13.7954	4406.02	0.057816	0.118093	116.818	11714.1
275	2.000000	1.047947	7.36775e+06	-52389.1	955.818	-29749.6	0.000000	0.000000	7.048351	15.2057	NaN	0.000000	0.001632	0.001721	28.0814	8.909196	0.001995	4465.24	12.7729	-173.864	15.0994	1.047658	0.062181	0.061892	15.2057	4465.24	0.059627	0.124474	122.16	11563.2
275	2.000000	1.049979	7.36775e+06	-52389.1	955.817	-29749.6	0.000000	0.000000	7.050427	16.2677	NaN	0.000000	0.001606	0.001710	28.0812	9.217279	0.001946	4735.84	9.072621	-170.429	16.6038	1.049620	0.064213	0.063854	16.2677	4735.84	0.061637	0.131743	123.481	11920.8
275	2.000000	1.051980	7.36775e+06	-52389.1	955.817	-29749.6	0.000000	0.000000	7.052493	17.8171	NaN	0.000000	0.001613	0.001689	28.0815	9.401679	0.001899	4951.47	9.023758	-171.354	18.1238	1.051595	0.066215	0.065829	17.8171	4951.47	0.063516	0.138717	128.442	12146.2
275	2.000000	1.053897	7.36775e+06	-52389.1	955.817	-29749.6	0.000000	0.000000	7.054473	19.3703	NaN	0.000000	0.001620	0.001714	28.0814	10.0166	0.001793	5586.41	9.352365	-173.924	19.1007	1.053595	0.068132	0.067830	19.3703	5586.41	0.065531	0.146387	132.323	13340
275	2.000000	1.055911	7.36775e+06	-52389.1	955.817	-29749.6	0.000000	0.000000	7.056533	20.5022	NaN	0.000000	0.001640	0.001700	28.0813	10.2598	0.001915	5357.79	8.093339	-171.245	20.3297	1.055604	0.070145	0.069838	20.5022	5357.79	0.067275	0.153180	133.844	12507.1
275	2.000000	1.057888	7.36775e+06	-52389.1	955.816	-29749.6	0.000000	0.000000	7.058570	21.9295	NaN	0.000000	0.001619	0.001721	28.0813	10.7365	0.002072	5180.56	8.663851	-171.678	21.6805	1.057596	0.072123	0.071830	21.9295	5180.56	0.068948	0.159835	137.201	11839
275	2.000000	1.059938	7.36775e+06	-52389.1	955.817	-29749.6	0.000000	0.000000	7.060634	22.2783	NaN	0.000000	0.001632	0.001750	28.081	10.8878	0.001884	5778.79	11.9626	-176.483	22.3434	1.059582	0.074172	0.073817	22.2783	5778.79	0.071281	0.169338	131.561	12830.2
275	2.000000	1.061917	7.36775e+06	-52389.1	955.817	-29749.6	0.000000	0.000000	7.062626	22.5883	NaN	0.000000	0.001592	0.001744	28.0813	11.0155	0.001942	5671.43	9.718809	-173.354	22.5269	1.061626	0.076152	0.075861	22.5883	5671.43	0.073165	0.177199	127.474	12309.4
275	2.000000	1.063920	7.36775e+06	-52389.1	955.817	-29749.6	0.000000	0.000000	7.064624	22.4793	NaN	0.000000	0.001555	0.001727	28.0811	11.6114	0.001988	5840.98	10.0908	-173.559	22.7635	1.063643	0.078155	0.077878	22.4793	5840.98	0.075268	0.186176	120.742	12367.9
275	2.000000	1.065896	7.36775e+06	-52389.1	955.818	-29749.6	0.000000	0.000000	7.066633	23.2792	NaN	0.000000	0.001592	0.001737	28.0813	11.7409	0.001974	5947.86	8.922157	-171.987	23.4432	1.065606	0.080130	0.079840	23.2792	5947.86	0.077195	0.194582	119.637	12319.2
275	2.000000	1.067917	7.36775e+06	-52389.1	955.818	-29749.6	0.000000	0.000000	7.068690	24.1555	NaN	0.000000	0.001586	0.001737	28.0803	12.082	0.001953	6184.88	8.238642	-172.118	24.7107	1.067607	0.082151	0.081841	24.1555	6184.88	0.079222	0.203612	118.635	12522.8
275	2.000000	1.069897	7.36775e+06	-52389.1	955.818	-29749.6	0.000000	0.000000	7.070701	24.8998	NaN	0.000000	0.001569	0.001711	28.0798	12.7034	0.001968	6454.49	12.2385	-176.173	25.0932	1.069560	0.084132	0.083794	24.8998	6454.49	0.081238	0.212785	117.019	12783.9
275	2.000000	1.071893	7.36775e+06	-52389.1	955.817	-29749.6	0.000000	0.000000	7.072745	26.0766	NaN	0.000000	0.001546	0.001723	28.081	12.9531	0.001994	6495	12.8709	-176.572	25.7677	1.071562	0.086128	0.085796	26.0766	6495	0.083116	0.221498	117.728	12608.6
275	2.000000	1.073883	7.36775e+06	-52389.1	955.818	-29749.6	0.000000	0.000000	7.074761	26.7019	NaN	0.000000	0.001568	0.001727	28.08	13.051	0.001971	6622.63	9.061679	-173.871	26.5788	1.073570	0.088117	0.087804	26.7019	6622.63	0.085094	0.230848	115.669	12593.3
275	2.000000	1.075905	7.36775e+06	-52389.1	955.818	-29749.6	0.000000	0.000000	7.076838	28.0503	NaN	0.000000	0.001565	0.001676	28.08	13.3823	0.001985	6740.32	7.685620	-172.196	28.0271	1.075574	0.090140	0.089808	28.0503	6740.32	0.087019	0.240125	116.815	12567.1
275	2.000000	1.077891	7.36775e+06	-52389.1	955.818	-29749.6	0.000000	0.000000	7.078877	29.3178	NaN	0.000000	0.001558	0.001707	28.0802	13.8501	0.001956	7082.34	10.9387	-176.864	29.1694	1.077613	0.092126	0.091847	29.3178	7082.34	0.089021	0.249957	117.292	12942.5
275	2.000000	1.079853	7.36775e+06	-52389.1	955.819	-29749.6	0.000000	0.000000	7.080885	30.4605	NaN	0.000000	0.001569	0.001709	28.0799	14.2368	0.002013	7072.74	8.022879	-172.225	29.9936	1.079591	0.094087	0.093826	30.4605	7072.74	0.090857	0.259132	117.548	12694.1
275	2.000000	1.081875	7.36775e+06	-52389.1	955.819	-29749.6	0.000000	0.000000	7.082948	31.4607	NaN	0.000000	0.001562	0.001692	28.08	14.4024	0.001972	7303.52	6.387945	-171.143	31.3015	1.081611	0.096109	0.095845	31.4607	7303.52	0.092879	0.269414	116.774	12855.7
275	2.000000	1.083866	7.36775e+06	-52389.1	955.817	-29749.6	0.000000	0.000000	7.085020	33.4239	NaN	0.000000	0.001602	0.001709	28.0798	14.7855	0.001970	7506.13	5.613670	-170.496	32.9358	1.083538	0.098100	0.097772	33.4239	7506.13	0.094761	0.279154	119.733	12979.8
275	2.000000	1.085914	7.36775e+06	-52389.1	955.817	-29749.6	0.000000	0.000000	7.087126	34.8503	NaN	0.000000	0.001618	0.001723	28.08	15.1668	0.001916	7915.04	9.138169	-176.406	35.4195	1.085562	0.100148	0.099796	34.8503	7915.04	0.096846	0.290133	120.119	13425.4
275	2.000000	1.087869	7.36775e+06	-52389.1	955.818	-29749.6	0.000000	0.000000	7.089140	36.2672	NaN	0.000000	0.001614	0.001712	28.0801	15.6444	0.001986	7876.75	5.870120	-172.219	36.4094	1.087570	0.102103	0.101805	36.2672	7876.75	0.098650	0.299795	120.973	13143.4
275	2.000000	1.089869	7.36775e+06	-52389.1	955.817	-29749.6	0.000000	0.000000	7.091236	38.6051	NaN	0.000000	0.001620	0.001684	28.0799	16.1206	0.002003	8046.48	8.347854	-174.985	38.649	1.089554	0.104104	0.103789	38.6051	8046.48	0.100505	0.309882	124.58	13206.3
275	2.000000	1.091845	7.36775e+06	-52389.1	955.817	-29749.6	0.000000	0.000000	7.093142	36.8955	NaN	0.000000	0.001629	0.001696	28.0803	16.4568	0.001975	8333.97	8.435740	-175.102	37.1159	1.091581	0.106080	0.105816	36.8955	8333.97	0.102759	0.322349	114.458	13411
275	2.000000	1.093845	7.36775e+06	-52389.1	955.817	-29749.6	0.000000	0.000000	7.095216	38.6813	NaN	0.000000	0.001595	0.001691	28.0801	16.7379	0.001997	8383.5	8.073511	-174.812	37.9789	1.093613	0.108080	0.107848	38.6813	8383.5	0.104619	0.332811	116.226	13277
275	2.000000	1.095799	7.36775e+06	-52389.1	955.818	-29749.6	0.000000	0.000000	7.097266	41.0207	NaN	0.000000	0.001581	0.001702	28.0801	17.4047	0.001978	8797.43	9.075924	-175.909	40.1801	1.095565	0.110034	0.109799	41.0207	8797.43	0.106537	0.343759	119.33	13708.9
275	2.000000	1.097851	7.36775e+06	-52389.1	955.818	-29749.6	0.000000	0.000000	7.099323	41.1363	NaN	0.000000	0.001552	0.001699	28.0801	17.6245	0.002024	8707.48	8.115423	-174.254	41.1071	1.097578	0.112086	0.111813	41.1363	8707.48	0.108543	0.355391	115.749	13344.8
275	2.000000	1.099874	7.36775e+06	-52389.1	955.817	-29749.6	0.000000	0.000000	7.101375	41.859	NaN	0.000000	0.001603	0.001702	28.08	18.0005	0.001928	9338.44	10.016	-177.172	41.8573	1.099570	0.114109	0.113805	41.859	9338.44	0.110747	0.368383	113.629	14057.2
275	2.000000	1.101860	7.36775e+06	-52389.1	955.818	-29749.6	0.000000	0.000000	7.103380	42.3169	NaN	0.000000	0.001599	0.001691	28.0819	18.1506	0.001936	9377.62	10.2719	-177.43	43.4013	1.101560	0.116094	0.115794	42.3169	9377.62	0.112710	0.380140	111.319	13896.1
275	2.000000	1.103863	7.36775e+06	-52389.1	955.818	-29749.6	0.000000	0.000000	7.105424	43.3233	NaN	0.000000	0.001578	0.001699	28.0814	18.3721	0.002003	9171.38	7.529092	-173.682	42.8289	1.103528	0.118097	0.117762	43.3233	9171.38	0.114555	0.391347	110.703	13394.5
275	2.000000	1.105856	7.36775e+06	-52389.1	955.817	-29749.6	0.000000	0.000000	7.107456	44.2522	NaN	0.000000	0.001585	0.001677	28.0816	18.9208	0.001960	9652.91	9.444413	-176.823	43.9579	1.105507	0.120091	0.119741	44.2522	9652.91	0.116652	0.404279	109.46	13870.5
275	2.000000	1.107852	7.36775e+06	-52389.1	955.817	-29749.6	0.000000	0.000000	7.109439	43.9426	NaN	0.000000	0.001612	0.001724	28.0813	19.0693	0.001983	9618.34	6.111624	-173.615	44.3824	1.107575	0.122086	0.121809	43.9426	9618.34	0.118660	0.416842	105.418	13610.9
275	2.000000	1.109879	7.36775e+06	-52389.1	955.818	-29749.6	0.000000	0.000000	7.111513	45.0981	NaN	0.000000	0.001616	0.001713	28.0814	19.6151	0.001895	10350.4	8.935901	-177.938	44.9151	1.109539	0.124113	0.123774	45.0981	10350.4	0.120845	0.430726	104.702	14408.9
275	2.000000	1.111876	7.36775e+06	-52389.1	955.817	-29749.6	0.000000	0.000000	7.113531	45.604	NaN	0.000000	0.001581	0.001715	28.0815	19.9035	0.001918	10379.9	7.150251	-174.898	46.7715	1.111534	0.126110	0.125769	45.604	10379.9	0.122815	0.443424	102.845	14241.5
275	2.000000	1.113888	7.36775e+06	-52389.1	955.818	-29749.6	0.000000	0.000000	7.115478	44.0268	NaN	0.000000	0.001575	0.001689	28.0812	19.7425	0.001892	10432.6	4.692293	-172.796	44.5137	1.113551	0.128123	0.127786	44.0268	10432.6	0.124957	0.457438	96.2466	14092.8
275	2.000000	1.115833	7.36775e+06	-52389.1	955.817	-29749.6	0.000000	0.000000	7.117469	45.1369	NaN	0.000000	0.001596	0.001705	28.0813	21.0868	0.001966	10725.8	10.9904	-179.687	44.5584	1.115569	0.130068	0.129804	45.1369	10725.8	0.126911	0.470400	95.9542	14288
275	2.000000	1.117858	7.36775e+06	-52389.1	955.816	-29749.6	0.000000	0.000000	7.119541	46.275	NaN	0.000000	0.001578	0.001724	28.0811	20.9604	0.001862	11257.6	7.956588	-177.151	47.4035	1.117547	0.132093	0.131781	46.275	11257.6	0.129010	0.484516	95.5078	14776.2
275	2.000000	1.119830	7.36775e+06	-52389.1	955.817	-29749.6	0.000000	0.000000	7.121626	49.0104	NaN	0.000000	0.001592	0.001745	28.0811	21.5432	0.001936	11125.4	5.995559	-174.099	48.3004	1.119502	0.134065	0.133737	49.0104	11125.4	0.130761	0.496448	98.7221	14426.2
275	2.000000	1.121831	7.36775e+06	-52389.1	955.817	-29749.6	0.000000	0.000000	7.123671	50.101	NaN	0.000000	0.001594	0.001735	28.0812	22.0345	0.001976	11152.1	6.762396	-174.768	50.9164	1.121443	0.136065	0.135678	50.101	11152.1	0.132696	0.509796	98.2766	14270.2
275	2.000000	1.123832	7.36775e+06	-52389.1	955.817	-29749.6	0.000000	0.000000	7.125729	51.4867	NaN	0.000000	0.001579	0.001747	28.081	22.7522	0.001903	11957	8.401457	-177.659	50.9031	1.123489	0.138066	0.137724	51.4867	11957	0.134837	0.524766	98.1136	15080.4
275	2.000000	1.125830	7.36775e+06	-52389.1	955.817	-29749.6	0.000000	0.000000	7.127773	52.6221	NaN	0.000000	0.001589	0.001719	28.0814	22.9578	0.001960	11710.7	7.538425	-175.943	52.5828	1.125514	0.140064	0.139749	52.6221	11710.7	0.136694	0.537921	97.8251	14588
275	2.000000	1.127823	7.36775e+06	-52389.1	955.817	-29749.6	0.000000	0.000000	7.129811	53.7013	NaN	0.000000	0.001544	0.001748	28.081	23.6707	0.001880	12589.3	5.677332	-175.235	53.1829	1.127542	0.142057	0.141776	53.7013	12589.3	0.138858	0.553451	97.0299	15460.9
275	2.000000	1.129324	7.36775e+06	-52389.1	955.817	-29749.6	0.000000	0.000000	7.131401	55.8721	NaN	0.000000	0.001557	0.001762	28.0813	24.6999	0.002015	12255.6	9.859215	1.542804	55.7578	1.128965	0.143558	0.143200	55.8721	12255.6	0.140139	0.562747	99.2846	14926.2