File: remote_trans/data/nanoindenter/0828-1/data/Data_2025-08-06,11h17m57s/2025-07-22_16-23-58_1_262.txt
2025-07-22, 16:23:58, 1
Index	Phase	Displacement	Time	Pos X	Pos Y	Pos Z	Rot A	Rot B	Piezo Z	Force A	Force B	Gripper	Voltage A	Voltage B	Temperature	Amplitude force	Amplitude pos	Stiffness	Phase shift	Phase excitation	Force A raw	Displacement raw	HMax	HMax raw	Real Force	Real Stiffness	Contact Depth	Area	Hardness	Reduced Mod.
[#]	[#]	[um]	[s]	[um]	[um]	[um]	[m°]	[m°]	[um]	[uN]	[uN]	[V]	[V]	[V]	[°C]	[uN]	[um]	[N/m]	[°]	[°]	[uN]	[um]	[um]	[um]	[uN]	[N/m]	[um]	[um^2]	[MPa]	[MPa]
262	1.000000	0.002920	7.36762e+06	-51739.1	955.817	-29751.6	0.000000	0.000000	6.002812	0.021959	NaN	0.000000	0.001632	0.001563	28.0792	0.073719	0.000945	78.0112	-87.4814	-170.388	0.080210	0.001674	-1.077662	-1.078909	0.021959	78.0112	-1.077873	-2.529035E+14	-8.682900E-17	NaN
262	1.000000	0.010849	7.36762e+06	-51739.1	955.819	-29751.6	0.000000	0.000000	6.010744	0.088009	NaN	0.000000	0.001619	0.001582	28.0786	0.138213	0.001037	133.247	-134.646	-167.226	0.045939	0.009572	-1.069733	-1.071010	0.088009	133.247	-1.070228	-1.996446E+14	-4.408279E-16	NaN
262	1.000000	0.018874	7.36762e+06	-51739.1	955.819	-29751.6	0.000000	0.000000	6.018766	0.017825	NaN	0.000000	0.001638	0.001606	28.0785	0.087099	0.001529	56.9665	-99.4395	-169.358	-0.000183	0.017553	-1.061708	-1.063030	0.017825	56.9665	-1.061943	-1.544995E+14	-1.153724E-16	NaN
262	1.000000	0.026886	7.36762e+06	-51739.1	955.817	-29751.6	0.000000	0.000000	6.026777	-0.004896	NaN	0.000000	0.001649	0.001598	28.0788	0.046385	0.001757	26.3973	41.444	-166.161	-0.009810	0.025565	-1.053696	-1.055017	-0.004896	26.3973	-1.053557	-1.191879E+14	4.108203E-17	NaN
262	1.000000	0.034846	7.36762e+06	-51739.1	955.819	-29751.6	0.000000	0.000000	6.034736	-0.016872	NaN	0.000000	0.001630	0.001622	28.0787	0.010864	0.001936	5.611190	16.0826	-168.248	0.005519	0.033556	-1.045736	-1.047026	-0.016872	5.611190	-1.043481	-8.725236E+13	1.933681E-16	NaN
262	1.000000	0.042866	7.36762e+06	-51739.1	955.82	-29751.6	0.000000	0.000000	6.042759	0.056829	NaN	0.000000	0.001661	0.001572	28.0788	0.062180	0.001963	31.6717	86.379	-166.314	0.039228	0.041551	-1.037716	-1.039032	0.056829	31.6717	-1.039062	-7.609499E+13	-7.468141E-16	NaN
262	1.000000	0.050870	7.36762e+06	-51739.1	955.819	-29751.6	0.000000	0.000000	6.050762	0.015018	NaN	0.000000	0.001618	0.001600	28.0786	0.089972	0.001991	45.19	179.097	-164.591	-0.067882	0.049562	-1.029712	-1.031020	0.015018	45.19	-1.029961	-5.740661E+13	-2.616148E-16	NaN
262	1.000000	0.058887	7.36762e+06	-51739.1	955.819	-29751.6	0.000000	0.000000	6.058778	-0.016819	NaN	0.000000	0.001634	0.001621	28.0785	0.081060	0.001930	41.9952	137.108	-165.048	0.004363	0.057555	-1.021695	-1.023028	-0.016819	41.9952	-1.021395	-4.402673E+13	3.820292E-16	NaN
262	1.000000	0.066853	7.36762e+06	-51739.1	955.819	-29751.6	0.000000	0.000000	6.066747	0.066158	NaN	0.000000	0.001615	0.001582	28.0789	0.179255	0.002033	88.1775	141.253	-166.313	-0.012800	0.065518	-1.013729	-1.015064	0.066158	88.1775	-1.014292	-3.532966E+13	-1.872604E-15	NaN
262	1.000000	0.074851	7.36762e+06	-51739.1	955.818	-29751.6	0.000000	0.000000	6.074738	-0.102243	NaN	0.000000	0.001600	0.001580	28.0786	0.012009	0.001974	6.082716	-54.1181	-163.923	-0.014835	0.073591	-1.005731	-1.006991	-0.102243	6.082716	-0.993124	-1.833110E+13	5.577582E-15	NaN
262	1.000000	0.082841	7.36762e+06	-51739.1	955.819	-29751.6	0.000000	0.000000	6.082735	0.065417	NaN	0.000000	0.001617	0.001596	28.0789	0.048663	0.002023	24.0528	137.439	-164.911	0.083426	0.081597	-0.997741	-0.998985	0.065417	24.0528	-0.999781	-2.253281E+13	-2.903180E-15	NaN
262	1.000000	0.090872	7.36762e+06	-51739.1	955.818	-29751.6	0.000000	0.000000	6.090763	-0.005413	NaN	0.000000	0.001630	0.001581	28.0785	0.039391	0.001962	20.0749	44.3497	-167.394	-0.055724	0.089607	-0.989710	-0.990975	-0.005413	20.0749	-0.989508	-1.638650E+13	3.303069E-16	NaN
262	1.000000	0.098896	7.36762e+06	-51739.1	955.819	-29751.6	0.000000	0.000000	6.098790	0.085029	NaN	0.000000	0.001632	0.001565	28.0787	0.075790	0.002141	35.3997	164.387	-166.566	0.051617	0.097527	-0.981686	-0.983055	0.085029	35.3997	-0.983488	-1.359554E+13	-6.254182E-15	NaN
262	1.000000	0.106895	7.36762e+06	-51739.1	955.819	-29751.6	0.000000	0.000000	6.106787	0.042224	NaN	0.000000	0.001571	0.001623	28.079	0.041121	0.001905	21.5913	171.181	-163.127	0.036863	0.105578	-0.973688	-0.975004	0.042224	21.5913	-0.975154	-1.049842E+13	-4.021983E-15	NaN
262	1.000000	0.114880	7.36762e+06	-51739.1	955.819	-29751.6	0.000000	0.000000	6.114769	-0.050289	NaN	0.000000	0.001562	0.001581	28.0788	0.017208	0.001897	9.069502	35.3938	-167.196	0.032458	0.113583	-0.965702	-0.966999	-0.050289	9.069502	-0.961544	-6.881467E+12	7.307961E-15	NaN
262	1.000000	0.122898	7.36762e+06	-51739.1	955.819	-29751.6	0.000000	0.000000	6.122788	-0.016071	NaN	0.000000	0.001524	0.001601	28.0792	0.058651	0.001936	30.302	-122.971	-165.946	0.021286	0.121621	-0.957684	-0.958961	-0.016071	30.302	-0.957286	-6.029536E+12	2.665443E-15	NaN
262	1.000000	0.130886	7.36762e+06	-51739.1	955.819	-29751.6	0.000000	0.000000	6.130777	0.020093	NaN	0.000000	0.001547	0.001615	28.0787	0.021170	0.001996	10.6064	-105.228	-167.199	-0.045993	0.129590	-0.949697	-0.950992	0.020093	10.6064	-0.951118	-4.978503E+12	-4.035922E-15	NaN
262	1.000000	0.138890	7.36762e+06	-51739.1	955.82	-29751.6	0.000000	0.000000	6.138783	0.040477	NaN	0.000000	0.001599	0.001648	28.0775	0.044277	0.001885	23.4847	-119.733	-164.418	0.010986	0.137547	-0.941692	-0.943035	0.040477	23.4847	-0.942985	-3.867264E+12	-1.046654E-14	NaN
262	1.000000	0.146889	7.36762e+06	-51739.1	955.818	-29751.6	0.000000	0.000000	6.146780	0.009777	NaN	0.000000	0.001568	0.001667	28.0774	0.110900	0.002121	52.2787	47.7473	-165.857	-0.027600	0.145604	-0.933693	-0.934979	0.009777	52.2787	-0.933834	-2.910274E+12	-3.359635E-15	NaN
262	1.000000	0.154909	7.36762e+06	-51739.1	955.818	-29751.6	0.000000	0.000000	6.154802	0.045822	NaN	0.000000	0.001582	0.001677	28.0775	0.020314	0.002033	9.993979	-69.4869	-165.263	0.065610	0.153625	-0.925673	-0.926958	0.045822	9.993979	-0.929112	-2.513117E+12	-1.823326E-14	NaN
262	1.000000	0.162906	7.36762e+06	-51739.1	955.819	-29751.6	0.000000	0.000000	6.162797	0.017399	NaN	0.000000	0.001579	0.001682	28.0776	0.037190	0.001948	19.0929	130.235	-162.124	0.056687	0.161640	-0.917677	-0.918942	0.017399	19.0929	-0.918360	-1.799140E+12	-9.670893E-15	NaN
262	1.000000	0.170937	7.36762e+06	-51739.1	955.82	-29751.6	0.000000	0.000000	6.170828	-0.012841	NaN	0.000000	0.001651	0.001667	28.0773	0.005531	0.001996	2.770633	-146.645	-162.757	-0.047003	0.169560	-0.909645	-0.911023	-0.012841	2.770633	-0.906169	-1.231441E+12	1.042791E-14	NaN
262	1.000000	0.178889	7.36762e+06	-51739.1	955.819	-29751.6	0.000000	0.000000	6.178780	0.003993	NaN	0.000000	0.001630	0.001637	28.0775	0.095388	0.002039	46.7713	165.108	-167.739	0.009023	0.177622	-0.901694	-0.902960	0.003993	46.7713	-0.901758	-1.073537E+12	-3.719602E-15	NaN
262	1.000000	0.186925	7.36762e+06	-51739.1	955.819	-29751.6	0.000000	0.000000	6.186816	0.017718	NaN	0.000000	0.001640	0.001671	28.0778	0.117752	0.001967	59.8683	-32.714	-165.993	0.111084	0.185552	-0.893658	-0.895030	0.017718	59.8683	-0.893880	-8.401488E+11	-2.108893E-14	NaN
262	1.000000	0.194947	7.36762e+06	-51739.1	955.819	-29751.6	0.000000	0.000000	6.194840	0.052679	NaN	0.000000	0.001615	0.001665	28.0774	0.123930	0.002054	60.3471	51.7414	-164.672	0.043106	0.193619	-0.885635	-0.886964	0.052679	60.3471	-0.886290	-6.633806E+11	-7.941056E-14	NaN
262	1.000000	0.202929	7.36762e+06	-51739.1	955.818	-29751.6	0.000000	0.000000	6.202822	0.036331	NaN	0.000000	0.001659	0.001656	28.0773	0.032253	0.001934	16.6777	179.503	-167.281	0.102230	0.201622	-0.877653	-0.878960	0.036331	16.6777	-0.879287	-5.334128E+11	-6.811058E-14	NaN
262	1.000000	0.210929	7.36762e+06	-51739.1	955.819	-29751.6	0.000000	0.000000	6.210821	0.011124	NaN	0.000000	0.001633	0.001581	28.0772	0.015015	0.001942	7.733526	13.9732	-164.85	-0.047434	0.209612	-0.869653	-0.870970	0.011124	7.733526	-0.870732	-4.086417E+11	-2.722300E-14	NaN
262	1.000000	0.218935	7.36762e+06	-51739.1	955.819	-29751.6	0.000000	0.000000	6.218829	0.075155	NaN	0.000000	0.001623	0.001659	28.0774	0.072023	0.001959	36.7681	40.1253	-168.373	-0.093236	0.217616	-0.861647	-0.862966	0.075155	36.7681	-0.863180	-3.229690E+11	-2.326989E-13	NaN
262	1.000000	0.226946	7.36762e+06	-51739.1	955.817	-29751.6	0.000000	0.000000	6.226838	0.022465	NaN	0.000000	0.001634	0.001654	28.0777	0.132133	0.001964	67.2753	138.137	-164.614	0.013365	0.225658	-0.853636	-0.854924	0.022465	67.2753	-0.853887	-2.417483E+11	-9.292547E-14	NaN
262	1.000000	0.234952	7.36762e+06	-51739.1	955.819	-29751.6	0.000000	0.000000	6.234845	0.053612	NaN	0.000000	0.001631	0.001607	28.0773	0.129226	0.002027	63.7666	-133.026	-162.877	0.108092	0.233657	-0.845631	-0.846925	0.053612	63.7666	-0.846261	-1.905923E+11	-2.812918E-13	NaN
262	1.000000	0.242941	7.36762e+06	-51739.1	955.819	-29751.6	0.000000	0.000000	6.242833	0.025357	NaN	0.000000	0.001616	0.001629	28.0774	0.057967	0.001928	30.072	110.963	-164.117	0.031951	0.241615	-0.837641	-0.838967	0.025357	30.072	-0.838273	-1.485589E+11	-1.706880E-13	NaN
262	1.000000	0.250959	7.36762e+06	-51739.1	955.819	-29751.6	0.000000	0.000000	6.250850	-0.004208	NaN	0.000000	0.001635	0.001640	28.0771	0.100817	0.001975	51.057	96.8865	-165.706	-0.018525	0.249673	-0.829623	-0.830910	-0.004208	51.057	-0.829561	-1.131981E+11	3.717492E-14	NaN
262	1.000000	0.258937	7.36762e+06	-51739.1	955.818	-29751.6	0.000000	0.000000	6.258830	0.059215	NaN	0.000000	0.001655	0.001628	28.0774	0.091235	0.002014	45.3041	98.4899	-164.978	-0.001110	0.257626	-0.821646	-0.822956	0.059215	45.3041	-0.822626	-9.116296E+10	-6.495547E-13	NaN
262	1.000000	0.266924	7.36762e+06	-51739.1	955.818	-29751.6	0.000000	0.000000	6.266817	0.065787	NaN	0.000000	0.001606	0.001604	28.0774	0.030356	0.002053	14.7894	111.014	-167.477	0.071415	0.265611	-0.813659	-0.814971	0.065787	14.7894	-0.816995	-7.646403E+10	-8.603598E-13	NaN
262	1.000000	0.274963	7.36762e+06	-51739.1	955.819	-29751.6	0.000000	0.000000	6.274854	0.001627	NaN	0.000000	0.001610	0.001629	28.0788	0.063729	0.001968	32.3847	-49.4273	-163.02	0.031736	0.273600	-0.805619	-0.806982	0.001627	32.3847	-0.805657	-5.365905E+10	-3.031828E-14	NaN
262	1.000000	0.282913	7.36762e+06	-51739.1	955.819	-29751.6	0.000000	0.000000	6.282802	-0.029439	NaN	0.000000	0.001618	0.001636	28.0786	0.031025	0.002098	14.7868	-63.8082	-167.474	-0.007149	0.281635	-0.797670	-0.798947	-0.029439	14.7868	-0.796177	-3.989856E+10	7.378512E-13	NaN
262	1.000000	0.290971	7.36762e+06	-51739.1	955.818	-29751.6	0.000000	0.000000	6.290865	0.087336	NaN	0.000000	0.001630	0.001629	28.0788	0.099744	0.001909	52.2531	55.3702	-164.458	0.072408	0.289642	-0.789611	-0.790941	0.087336	52.2531	-0.790865	-3.379330E+10	-2.584411E-12	NaN
262	1.000000	0.298975	7.36762e+06	-51739.1	955.818	-29751.6	0.000000	0.000000	6.298868	0.047151	NaN	0.000000	0.001630	0.001655	28.0788	0.053688	0.001941	27.6531	-72.1311	-165.772	0.072342	0.297659	-0.781607	-0.782923	0.047151	27.6531	-0.782886	-2.632982E+10	-1.790785E-12	NaN
262	1.000000	0.306954	7.36762e+06	-51739.1	955.818	-29751.6	0.000000	0.000000	6.306844	-0.035631	NaN	0.000000	0.001625	0.001638	28.0786	0.054775	0.002076	26.3908	171.596	-165.526	0.049027	0.305614	-0.773628	-0.774968	-0.035631	26.3908	-0.772615	-1.909246E+10	1.866212E-12	NaN
262	1.000000	0.314959	7.36762e+06	-51739.1	955.819	-29751.6	0.000000	0.000000	6.314851	0.028959	NaN	0.000000	0.001598	0.001641	28.0785	0.043898	0.002013	21.8046	175.428	-165.146	-0.025816	0.313619	-0.765624	-0.766963	0.028959	21.8046	-0.766620	-1.582490E+10	-1.829976E-12	NaN
262	1.000000	0.322949	7.36762e+06	-51739.1	955.819	-29751.6	0.000000	0.000000	6.322840	0.005255	NaN	0.000000	0.001610	0.001668	28.0786	0.064705	0.001969	32.8536	129.672	-167.375	-0.042371	0.321703	-0.757633	-0.758880	0.005255	32.8536	-0.757753	-1.198774E+10	-4.383853E-13	NaN
262	1.000000	0.330980	7.36762e+06	-51739.1	955.819	-29751.6	0.000000	0.000000	6.330873	0.039406	NaN	0.000000	0.001626	0.001658	28.0788	0.060687	0.002134	28.4349	70.6696	-164.073	0.060324	0.329651	-0.749602	-0.750931	0.039406	28.4349	-0.750642	-9.592987E+9	-4.107835E-12	NaN
262	1.000000	0.338963	7.36762e+06	-51739.1	955.819	-29751.6	0.000000	0.000000	6.338854	-0.000186	NaN	0.000000	0.001631	0.001665	28.0785	0.034957	0.002013	17.3633	-172.127	-168.532	-0.027950	0.337666	-0.741619	-0.742917	-0.000186	17.3633	-0.741611	-7.227621E+9	2.571276E-14	NaN
262	1.000000	0.346984	7.36762e+06	-51739.1	955.819	-29751.6	0.000000	0.000000	6.346874	-0.018707	NaN	0.000000	0.001622	0.001664	28.0782	0.055765	0.002014	27.6915	-78.7471	-164.881	0.011290	0.345636	-0.733599	-0.734946	-0.018707	27.6915	-0.733092	-5.532809E+9	3.381183E-12	NaN
262	1.000000	0.355001	7.36762e+06	-51739.1	955.819	-29751.6	0.000000	0.000000	6.354892	0.002454	NaN	0.000000	0.001604	0.001683	28.0784	0.060784	0.002013	30.1996	-24.2714	-164.544	-0.009749	0.353680	-0.725581	-0.726903	0.002454	30.1996	-0.725642	-4.379341E+9	-5.603291E-13	NaN
262	1.000000	0.362997	7.36762e+06	-51739.1	955.818	-29751.6	0.000000	0.000000	6.362888	0.002643	NaN	0.000000	0.001589	0.001687	28.0784	0.043805	0.002081	21.0499	-33.1019	-163.436	0.047694	0.361664	-0.717586	-0.718918	0.002643	21.0499	-0.717680	-3.410570E+9	-7.750451E-13	NaN
262	1.000000	0.370989	7.36762e+06	-51739.1	955.819	-29751.6	0.000000	0.000000	6.370882	0.062367	NaN	0.000000	0.001618	0.001734	28.0787	0.109950	0.001913	57.4832	107.806	-164.941	-0.033762	0.369726	-0.709593	-0.710857	0.062367	57.4832	-0.710407	-2.713957E+9	-2.298018E-11	NaN
262	1.000000	0.378978	7.36762e+06	-51739.1	955.82	-29751.6	0.000000	0.000000	6.378870	0.019592	NaN	0.000000	0.001598	0.001728	28.0784	0.098763	0.002111	46.7757	162.693	-163.601	0.051643	0.377621	-0.701604	-0.702961	0.019592	46.7757	-0.701918	-2.078385E+9	-9.426441E-12	NaN
262	1.000000	0.387035	7.36762e+06	-51739.1	955.818	-29751.6	0.000000	0.000000	6.386928	0.056501	NaN	0.000000	0.001625	0.001723	28.0785	0.089630	0.002054	43.6313	135.621	-165.925	0.044349	0.385649	-0.693547	-0.694933	0.056501	43.6313	-0.694519	-1.646873E+9	-3.430834E-11	NaN
262	1.000000	0.395031	7.36762e+06	-51739.1	955.819	-29751.6	0.000000	0.000000	6.394921	-0.010536	NaN	0.000000	0.001618	0.001674	28.0786	0.030632	0.001978	15.4865	90.7019	-165.983	0.014254	0.393688	-0.685552	-0.686894	-0.010536	15.4865	-0.685041	-1.222197E+9	8.620352E-12	NaN
262	1.000000	0.403007	7.36762e+06	-51739.1	955.818	-29751.6	0.000000	0.000000	6.402900	0.050300	NaN	0.000000	0.001597	0.001698	28.0784	0.069889	0.002154	32.4388	-157.937	-166.129	0.054814	0.401689	-0.677575	-0.678893	0.050300	32.4388	-0.678738	-1.002185E+9	-5.019056E-11	NaN
262	1.000000	0.411024	7.36762e+06	-51739.1	955.818	-29751.6	0.000000	0.000000	6.410916	0.031130	NaN	0.000000	0.001550	0.001659	28.0773	0.108040	0.001991	54.2546	133.212	-168.575	-0.004537	0.409742	-0.669558	-0.670840	0.031130	54.2546	-0.669988	-7.607318E+8	-4.092122E-11	NaN
262	1.000000	0.419014	7.36762e+06	-51739.1	955.818	-29751.6	0.000000	0.000000	6.418906	0.002308	NaN	0.000000	0.001563	0.001657	28.0774	0.102872	0.001872	54.953	-120.564	-168.14	0.040132	0.417688	-0.661568	-0.662894	0.002308	54.953	-0.661599	-5.839478E+8	-3.952518E-12	NaN
262	1.000000	0.427059	7.36762e+06	-51739.1	955.818	-29751.6	0.000000	0.000000	6.426949	-0.009157	NaN	0.000000	0.001527	0.001673	28.0776	0.083213	0.002031	40.9737	176.528	-162.306	0.007372	0.425717	-0.653523	-0.654865	-0.009157	40.9737	-0.653356	-4.502297E+8	2.033768E-11	NaN
262	1.000000	0.435035	7.36762e+06	-51739.1	955.819	-29751.6	0.000000	0.000000	6.434927	0.011614	NaN	0.000000	0.001571	0.001680	28.0774	0.092226	0.002095	44.0209	151.539	-166.356	0.077587	0.433724	-0.645547	-0.646858	0.011614	44.0209	-0.645745	-3.540716E+8	-3.280263E-11	NaN
262	1.000000	0.442995	7.36762e+06	-51739.1	955.819	-29751.6	0.000000	0.000000	6.442890	0.106391	NaN	0.000000	0.001549	0.001695	28.0774	0.077201	0.002062	37.4365	-120.527	-167.366	0.044411	0.441702	-0.637587	-0.638880	0.106391	37.4365	-0.639719	-2.927046E+8	-3.634771E-10	NaN
262	1.000000	0.451023	7.36762e+06	-51739.1	955.819	-29751.6	0.000000	0.000000	6.450914	0.007577	NaN	0.000000	0.001577	0.001642	28.0776	0.054155	0.001871	28.9375	164.793	-160.926	-0.093047	0.449739	-0.629560	-0.630843	0.007577	28.9375	-0.629756	-2.136350E+8	-3.546814E-11	NaN
262	1.000000	0.459013	7.36762e+06	-51739.1	955.819	-29751.6	0.000000	0.000000	6.458903	-0.013470	NaN	0.000000	0.001550	0.001649	28.0775	0.136140	0.001780	76.4832	179.676	-169.288	0.002269	0.457768	-0.621569	-0.622814	-0.013470	76.4832	-0.621437	-1.642060E+8	8.203024E-11	NaN
262	1.000000	0.467055	7.36762e+06	-51739.1	955.818	-29751.6	0.000000	0.000000	6.466945	-0.016597	NaN	0.000000	0.001563	0.001673	28.0777	0.119602	0.002052	58.2995	120.729	-166.23	-0.038140	0.465733	-0.613527	-0.614849	-0.016597	58.2995	-0.613314	-1.269686E+8	1.307197E-10	NaN
262	1.000000	0.475020	7.36762e+06	-51739.1	955.818	-29751.6	0.000000	0.000000	6.474912	0.038518	NaN	0.000000	0.001561	0.001712	28.0777	0.036050	0.002088	17.2665	-84.4905	-166.105	0.107899	0.473726	-0.605562	-0.606856	0.038518	17.2665	-0.607235	-1.047303E+8	-3.677851E-10	NaN
262	1.000000	0.483039	7.36762e+06	-51739.1	955.818	-29751.6	0.000000	0.000000	6.482931	0.008129	NaN	0.000000	0.001576	0.001690	28.0776	0.079527	0.001978	40.2084	88.3726	-166.603	-0.034583	0.481715	-0.597543	-0.598867	0.008129	40.2084	-0.597694	-7.739350E+7	-1.050350E-10	NaN
262	1.000000	0.491037	7.36762e+06	-51739.1	955.819	-29751.6	0.000000	0.000000	6.490931	0.076942	NaN	0.000000	0.001603	0.001664	28.0778	0.040201	0.001891	21.2641	39.2764	-166.648	0.013101	0.489726	-0.589545	-0.590857	0.076942	21.2641	-0.592259	-6.513427E+7	-1.181289E-9	NaN
262	1.000000	0.499032	7.36762e+06	-51739.1	955.818	-29751.6	0.000000	0.000000	6.498922	-0.018873	NaN	0.000000	0.001577	0.001664	28.0776	0.038964	0.001931	20.1759	117.612	-167.985	-0.003113	0.497764	-0.581550	-0.582818	-0.018873	20.1759	-0.580848	-4.533508E+7	4.162921E-10	NaN
262	1.000000	0.507066	7.36762e+06	-51739.1	955.818	-29751.6	0.000000	0.000000	6.506958	0.029276	NaN	0.000000	0.001531	0.001685	28.0781	0.083336	0.001961	42.4954	37.25	-165.115	-0.011958	0.505755	-0.573516	-0.574828	0.029276	42.4954	-0.574033	-3.650441E+7	-8.019889E-10	NaN
262	1.000000	0.515054	7.36762e+06	-51739.1	955.818	-29751.6	0.000000	0.000000	6.514945	0.008727	NaN	0.000000	0.001586	0.001696	28.0777	0.024274	0.001900	12.7733	-164.137	-167.468	0.017131	0.513782	-0.565528	-0.566800	0.008727	12.7733	-0.566041	-2.830811E+7	-3.082882E-10	NaN
262	1.000000	0.523049	7.36762e+06	-51739.1	955.819	-29751.6	0.000000	0.000000	6.522941	0.032749	NaN	0.000000	0.001565	0.001673	28.0786	0.098695	0.002083	47.3812	26.1287	-166.584	-0.011207	0.521782	-0.557533	-0.558800	0.032749	47.3812	-0.558052	-2.194928E+7	-1.492032E-9	NaN
262	1.000000	0.531063	7.36762e+06	-51739.1	955.819	-29751.6	0.000000	0.000000	6.530953	-0.037001	NaN	0.000000	0.001563	0.001704	28.0776	0.005718	0.002182	2.620290	48.8538	-162.27	-0.001390	0.529718	-0.549519	-0.550865	-0.037001	2.620290	-0.538928	-1.192589E+7	3.102583E-9	NaN
262	1.000000	0.539076	7.36762e+06	-51739.1	955.819	-29751.6	0.000000	0.000000	6.538967	-0.003819	NaN	0.000000	0.001537	0.001732	28.0776	0.138410	0.002018	68.6021	-51.2684	-166.594	-0.018538	0.537746	-0.541506	-0.542836	-0.003819	68.6021	-0.541465	-1.293213E+7	2.953292E-10	NaN
262	1.000000	0.547056	7.36762e+06	-51739.1	955.818	-29751.6	0.000000	0.000000	6.546948	0.023719	NaN	0.000000	0.001565	0.001688	28.079	0.067587	0.001912	35.3553	27.3685	-161.175	0.084690	0.545746	-0.533526	-0.534836	0.023719	35.3553	-0.534030	-1.019816E+7	-2.325853E-9	NaN
262	1.000000	0.555077	7.36762e+06	-51739.1	955.818	-29751.6	0.000000	0.000000	6.554969	0.034290	NaN	0.000000	0.001544	0.001689	28.0789	0.045128	0.002069	21.8083	-98.0395	-165.341	-0.062538	0.553781	-0.525506	-0.526801	0.034290	21.8083	-0.526685	-8.06349e+06	-4.252481E-9	NaN
262	1.000000	0.563087	7.36762e+06	-51739.1	955.819	-29751.6	0.000000	0.000000	6.562975	-0.052948	NaN	0.000000	0.001594	0.001654	28.0788	0.070424	0.002076	33.9212	-143.354	-163.163	0.005715	0.561808	-0.517496	-0.518775	-0.052948	33.9212	-0.516325	-5.78727e+06	9.149079E-9	NaN
262	1.000000	0.571094	7.36762e+06	-51739.1	955.819	-29751.6	0.000000	0.000000	6.570987	0.049696	NaN	0.000000	0.001555	0.001670	28.0787	0.079751	0.002117	37.6777	-87.0969	-168.469	0.029786	0.569732	-0.509488	-0.510851	0.049696	37.6777	-0.510477	-4.79807e+06	-1.035748E-8	NaN
262	1.000000	0.579061	7.36762e+06	-51739.1	955.819	-29751.6	0.000000	0.000000	6.578951	-0.016613	NaN	0.000000	0.001634	0.001662	28.079	0.100962	0.001921	52.5648	20.3715	-166.113	-0.058662	0.577761	-0.501522	-0.502822	-0.016613	52.5648	-0.501285	-3.57222e+06	4.650623E-9	NaN
262	1.000000	0.587116	7.36762e+06	-51739.1	955.818	-29751.6	0.000000	0.000000	6.587007	-0.001561	NaN	0.000000	0.001651	0.001699	28.0788	0.051654	0.002015	25.6377	128.13	-164.434	-0.017554	0.585828	-0.493466	-0.494754	-0.001561	25.6377	-0.493420	-2.77446e+06	5.627568E-10	NaN
262	1.000000	0.595110	7.36762e+06	-51739.1	955.818	-29751.6	0.000000	0.000000	6.595002	0.009678	NaN	0.000000	0.001653	0.001657	28.0789	0.147824	0.001980	74.6609	65.4456	-166.662	0.064186	0.593749	-0.485472	-0.486833	0.009678	74.6609	-0.485569	-2.15502e+06	-4.490761E-9	NaN
262	1.000000	0.603116	7.36762e+06	-51739.1	955.819	-29751.6	0.000000	0.000000	6.603006	-0.032635	NaN	0.000000	0.001630	0.001684	28.0788	0.144714	0.001948	74.2787	47.8731	-167.503	-0.065286	0.601766	-0.477466	-0.478816	-0.032635	74.2787	-0.477137	-1.64223e+06	1.987214E-8	NaN
262	1.000000	0.611106	7.36762e+06	-51739.1	955.818	-29751.6	0.000000	0.000000	6.610997	-0.016781	NaN	0.000000	0.001633	0.001675	28.0787	0.061609	0.002151	28.6367	-121.076	-167.366	-0.028533	0.609817	-0.469476	-0.470766	-0.016781	28.6367	-0.469036	-1.26442e+06	1.327172E-8	NaN
262	1.000000	0.619072	7.36762e+06	-51739.1	955.818	-29751.6	0.000000	0.000000	6.618964	0.039117	NaN	0.000000	0.001628	0.001705	28.0791	0.043567	0.001970	22.1149	64.9694	-167.214	0.058933	0.617825	-0.461510	-0.462758	0.039117	22.1149	-0.462837	-1.03485e+06	-3.779951E-8	NaN
262	1.000000	0.627117	7.36762e+06	-51739.1	955.817	-29751.6	0.000000	0.000000	6.627009	0.013431	NaN	0.000000	0.001641	0.001701	28.0788	0.050552	0.002167	23.3242	-59.9334	-167.18	0.029666	0.625779	-0.453465	-0.454804	0.013431	23.3242	-0.453897	-774819	-1.733390E-8	NaN
262	1.000000	0.635111	7.36762e+06	-51739.1	955.817	-29751.6	0.000000	0.000000	6.635002	-0.008260	NaN	0.000000	0.001654	0.001699	28.0788	0.054739	0.002125	25.7546	82.6638	-163.669	-0.008152	0.633808	-0.445471	-0.446775	-0.008260	25.7546	-0.445231	-584987	1.412046E-8	NaN
262	1.000000	0.643113	7.36762e+06	-51739.1	955.818	-29751.6	0.000000	0.000000	6.643007	0.072275	NaN	0.000000	0.001638	0.001666	28.079	0.043706	0.002030	21.5313	-131.401	-166.649	0.076864	0.641794	-0.437469	-0.438789	0.072275	21.5313	-0.439987	-493377	-1.464895E-7	NaN
262	1.000000	0.651106	7.36762e+06	-51739.1	955.82	-29751.6	0.000000	0.000000	6.650996	-0.042854	NaN	0.000000	0.001677	0.001672	28.0788	0.040486	0.002082	19.4437	-1.307875	-164.495	0.039824	0.649830	-0.429476	-0.430752	-0.042854	19.4437	-0.427823	-332088	1.290439E-7	NaN
262	1.000000	0.659088	7.36762e+06	-51739.1	955.819	-29751.6	0.000000	0.000000	6.658981	0.059780	NaN	0.000000	0.001638	0.001703	28.0789	0.071332	0.002097	34.0083	-174.626	-165.716	0.031450	0.657842	-0.421494	-0.422740	0.059780	34.0083	-0.422813	-282028	-2.119650E-7	NaN
262	1.000000	0.667109	7.36762e+06	-51739.1	955.819	-29751.6	0.000000	0.000000	6.666998	-0.047584	NaN	0.000000	0.001596	0.001696	28.0786	0.011077	0.001967	5.630557	-22.0189	-166.126	0.010797	0.665833	-0.413473	-0.414749	-0.047584	5.630557	-0.407135	-168904	2.817236E-7	NaN
262	1.000000	0.675118	7.36762e+06	-51739.1	955.818	-29751.6	0.000000	0.000000	6.675009	-0.013416	NaN	0.000000	0.001652	0.001684	28.0789	0.042195	0.001874	22.5148	-28.7165	-165.636	-0.038967	0.673784	-0.405464	-0.406798	-0.013416	22.5148	-0.405017	-157576	8.514264E-8	NaN
262	1.000000	0.683126	7.36762e+06	-51739.1	955.818	-29751.6	0.000000	0.000000	6.683016	-0.020704	NaN	0.000000	0.001660	0.001680	28.0777	0.081412	0.002063	39.455	-143.509	-162.142	-0.009177	0.681790	-0.397456	-0.398792	-0.020704	39.455	-0.397063	-121363	1.705968E-7	NaN
262	1.000000	0.691130	7.36762e+06	-51739.1	955.819	-29751.6	0.000000	0.000000	6.691019	-0.051570	NaN	0.000000	0.001689	0.001683	28.0776	0.072898	0.002126	34.2948	108.504	-168.346	-0.098398	0.689834	-0.389453	-0.390749	-0.051570	34.2948	-0.388325	-91032.4	5.665013E-7	NaN
262	1.000000	0.699095	7.36762e+06	-51739.1	955.818	-29751.6	0.000000	0.000000	6.698986	0.016509	NaN	0.000000	0.001677	0.001672	28.0777	0.092240	0.002035	45.3228	56.9183	-166.938	0.030290	0.697794	-0.381487	-0.382788	0.016509	45.3228	-0.381761	-73307.8	-2.251953E-7	NaN
262	1.000000	0.707155	7.36762e+06	-51739.1	955.818	-29751.6	0.000000	0.000000	6.707044	-0.028353	NaN	0.000000	0.001685	0.001647	28.0779	0.083934	0.002096	40.0403	-87.629	-165.178	-0.040765	0.705803	-0.373428	-0.374780	-0.028353	40.0403	-0.372897	-54679	5.185380E-7	NaN
262	1.000000	0.715131	7.36762e+06	-51739.1	955.818	-29751.6	0.000000	0.000000	6.715024	0.062038	NaN	0.000000	0.001639	0.001656	28.0778	0.066329	0.002009	33.0119	166.062	-166.753	0.002045	0.713854	-0.365452	-0.366728	0.062038	33.0119	-0.366861	-44760.6	-1.385986E-6	NaN
262	1.000000	0.723160	7.36762e+06	-51739.1	955.818	-29751.6	0.000000	0.000000	6.723051	0.015233	NaN	0.000000	0.001647	0.001675	28.0778	0.061358	0.001835	33.433	146.699	-166.364	-0.084884	0.721786	-0.357422	-0.358796	0.015233	33.433	-0.357764	-33075.9	-4.605373E-7	NaN
262	1.000000	0.731167	7.36762e+06	-51739.1	955.818	-29751.6	0.000000	0.000000	6.731060	0.045303	NaN	0.000000	0.001631	0.001659	28.0777	0.029980	0.002007	14.9346	48.8298	-168.096	0.102815	0.729823	-0.349416	-0.350759	0.045303	14.9346	-0.351691	-27010.4	-1.677259E-6	NaN
262	1.000000	0.739151	7.36762e+06	-51739.1	955.819	-29751.6	0.000000	0.000000	6.739043	0.031874	NaN	0.000000	0.001616	0.001675	28.0778	0.047747	0.002018	23.6626	-161.24	-167.556	-0.022416	0.737801	-0.341431	-0.342781	0.031874	23.6626	-0.342441	-19820.9	-1.608091E-6	NaN
262	1.000000	0.747142	7.36762e+06	-51739.1	955.819	-29751.6	0.000000	0.000000	6.747033	-0.019312	NaN	0.000000	0.001621	0.001667	28.0776	0.143737	0.001862	77.191	33.1559	-163.356	0.050173	0.745817	-0.333440	-0.334766	-0.019312	77.191	-0.333252	-14556	1.326729E-6	NaN
262	1.000000	0.755145	7.36762e+06	-51739.1	955.818	-29751.6	0.000000	0.000000	6.755036	-0.009268	NaN	0.000000	0.001598	0.001692	28.0776	0.081836	0.001956	41.849	163.27	-166.88	-0.007333	0.753823	-0.325437	-0.326760	-0.009268	41.849	-0.325271	-11120.2	8.334749E-7	NaN
262	1.000000	0.763153	7.36762e+06	-51739.1	955.818	-29751.6	0.000000	0.000000	6.763043	-0.026089	NaN	0.000000	0.001589	0.001689	28.0777	0.027076	0.002010	13.4725	-115.69	-165.493	-0.074878	0.761843	-0.317429	-0.318739	-0.026089	13.4725	-0.315977	-8116.24	3.214379E-6	NaN
262	1.000000	0.771177	7.36762e+06	-51739.1	955.819	-29751.6	0.000000	0.000000	6.771070	0.046595	NaN	0.000000	0.001530	0.001673	28.0777	0.121806	0.002046	59.5313	72.9101	-166.199	0.011184	0.769848	-0.309405	-0.310734	0.046595	59.5313	-0.309992	-6621.21	-7.037248E-6	NaN
262	1.000000	0.779179	7.36762e+06	-51739.1	955.819	-29751.6	0.000000	0.000000	6.779069	-0.022114	NaN	0.000000	0.001524	0.001675	28.0775	0.039540	0.001938	20.3981	89.7729	-165.186	0.035745	0.777895	-0.301403	-0.302688	-0.022114	20.3981	-0.300590	-4801.98	4.605186E-6	NaN
262	1.000000	0.787129	7.36762e+06	-51739.1	955.818	-29751.6	0.000000	0.000000	6.787020	0.004228	NaN	0.000000	0.001547	0.001672	28.0775	0.045655	0.002057	22.191	157.641	-168.27	-0.045269	0.785917	-0.293453	-0.294665	0.004228	22.191	-0.293596	-3776.7	-1.119602E-6	NaN
262	1.000000	0.795159	7.36762e+06	-51739.1	955.817	-29751.6	0.000000	0.000000	6.795050	-0.019482	NaN	0.000000	0.001553	0.001676	28.0776	0.069913	0.002059	33.9578	150.505	-167.376	-0.020514	0.793859	-0.285423	-0.286724	-0.019482	33.9578	-0.284993	-2806.43	6.941997E-6	NaN
262	1.000000	0.803166	7.36762e+06	-51739.1	955.818	-29751.6	0.000000	0.000000	6.803055	-0.032031	NaN	0.000000	0.001549	0.001686	28.0776	0.058611	0.001990	29.4556	79.085	-166.853	0.035973	0.801825	-0.277416	-0.278757	-0.032031	29.4556	-0.276601	-2097.13	1.527368E-5	NaN
262	1.000000	0.811175	7.36762e+06	-51739.1	955.818	-29751.6	0.000000	0.000000	6.811065	-0.024802	NaN	0.000000	0.001578	0.001692	28.0775	0.028319	0.002031	13.9451	-120.358	-166.123	-0.124576	0.809848	-0.269408	-0.270734	-0.024802	13.9451	-0.268074	-1556.83	1.593103E-5	NaN
262	1.000000	0.819198	7.36762e+06	-51739.1	955.819	-29751.6	0.000000	0.000000	6.819090	0.015285	NaN	0.000000	0.001573	0.001698	28.0784	0.097688	0.002060	47.41	103.931	-163.527	0.090612	0.817843	-0.261384	-0.262739	0.015285	47.41	-0.261626	-1241.15	-1.231513E-5	NaN
262	1.000000	0.827182	7.36762e+06	-51739.1	955.818	-29751.6	0.000000	0.000000	6.827073	0.013641	NaN	0.000000	0.001571	0.001690	28.0788	0.101325	0.001965	51.5756	21.539	-167.695	-0.038391	0.825876	-0.253400	-0.254706	0.013641	51.5756	-0.253599	-934.392	-1.459853E-5	NaN
262	1.000000	0.835193	7.36762e+06	-51739.1	955.818	-29751.6	0.000000	0.000000	6.835083	-0.028305	NaN	0.000000	0.001553	0.001707	28.0787	0.025286	0.002123	11.9106	-66.4095	-163.776	0.045002	0.833843	-0.245389	-0.246740	-0.028305	11.9106	-0.243607	-654.319	4.325921E-5	NaN
262	1.000000	0.843180	7.36762e+06	-51739.1	955.819	-29751.6	0.000000	0.000000	6.843069	-0.041553	NaN	0.000000	0.001570	0.001669	28.0787	0.111719	0.002063	54.1485	-63.4569	-164.089	0.016052	0.841898	-0.237403	-0.238685	-0.041553	54.1485	-0.236827	-512.757	8.103848E-5	NaN
262	1.000000	0.851196	7.36762e+06	-51739.1	955.819	-29751.6	0.000000	0.000000	6.851086	-0.015215	NaN	0.000000	0.001577	0.001677	28.0788	0.024839	0.001897	13.097	-64.4185	-170.509	-0.050940	0.849905	-0.229386	-0.230677	-0.015215	13.097	-0.228515	-379.358	4.010799E-5	NaN
262	1.000000	0.859205	7.36762e+06	-51739.1	955.818	-29751.6	0.000000	0.000000	6.859096	0.000715	NaN	0.000000	0.001576	0.001727	28.0784	0.050686	0.001982	25.5742	-86.6526	-165.183	-0.000115	0.857828	-0.221377	-0.222754	0.000715	25.5742	-0.221398	-292.416	-2.444176E-6	NaN
262	1.000000	0.867211	7.36762e+06	-51739.1	955.818	-29751.6	0.000000	0.000000	6.867104	0.035381	NaN	0.000000	0.001532	0.001701	28.0787	0.104837	0.001991	52.6655	85.5682	-163.492	0.069322	0.865881	-0.213371	-0.214702	0.035381	52.6655	-0.213875	-221.516	-0.000160	NaN
262	1.000000	0.875200	7.36762e+06	-51739.1	955.818	-29751.6	0.000000	0.000000	6.875089	-0.047776	NaN	0.000000	0.001571	0.001720	28.0789	0.122141	0.001969	62.0301	-11.2601	-163.907	-0.023309	0.873887	-0.205382	-0.206696	-0.047776	62.0301	-0.204804	-157.895	0.000303	NaN
262	1.000000	0.883208	7.36762e+06	-51739.1	955.819	-29751.6	0.000000	0.000000	6.883097	-0.063401	NaN	0.000000	0.001536	0.001701	28.0787	0.027916	0.002002	13.9451	-121.999	-165.316	-0.008539	0.881918	-0.197374	-0.198665	-0.063401	13.9451	-0.193964	-104.719	0.000605	NaN
262	1.000000	0.891183	7.36762e+06	-51739.1	955.819	-29751.6	0.000000	0.000000	6.891073	-0.025301	NaN	0.000000	0.001541	0.001707	28.0785	0.025812	0.001985	13.005	-168.445	-163.637	-0.052952	0.889917	-0.189399	-0.190666	-0.025301	13.005	-0.187940	-83.0905	0.000305	NaN
262	1.000000	0.899226	7.36762e+06	-51739.1	955.819	-29751.6	0.000000	0.000000	6.899116	-0.009967	NaN	0.000000	0.001569	0.001672	28.0784	0.019711	0.002021	9.754385	-77.7984	-166.811	0.011206	0.897934	-0.181356	-0.182648	-0.009967	9.754385	-0.180590	-62.4454	0.000160	NaN
262	1.000000	0.907222	7.36762e+06	-51739.1	955.819	-29751.6	0.000000	0.000000	6.907112	-0.023979	NaN	0.000000	0.001547	0.001665	28.0791	0.018517	0.002008	9.221117	155.981	-166.768	-0.006983	0.905927	-0.173360	-0.174655	-0.023979	9.221117	-0.171409	-43.4563	0.000552	NaN
262	1.000000	0.915214	7.36762e+06	-51739.1	955.819	-29751.6	0.000000	0.000000	6.915105	-0.001453	NaN	0.000000	0.001552	0.001650	28.0786	0.126784	0.001973	64.2725	157.316	-165.134	-0.010154	0.913912	-0.165368	-0.166670	-0.001453	64.2725	-0.165351	-34.0777	4.263861E-5	NaN
262	1.000000	0.923216	7.36762e+06	-51739.1	955.819	-29751.6	0.000000	0.000000	6.923107	0.005664	NaN	0.000000	0.001549	0.001676	28.0785	0.037321	0.002093	17.8295	-138.615	-163.245	-0.091229	0.921907	-0.157366	-0.158675	0.005664	17.8295	-0.157605	-24.8482	-0.000228	NaN
262	1.000000	0.931235	7.36762e+06	-51739.1	955.819	-29751.6	0.000000	0.000000	6.931124	-0.042393	NaN	0.000000	0.001520	0.001714	28.0786	0.040718	0.002013	20.2321	79.6804	-164.451	-0.015262	0.929863	-0.149348	-0.150719	-0.042393	20.2321	-0.147776	-16.4937	0.002570	NaN
262	1.000000	0.939255	7.36762e+06	-51739.1	955.82	-29751.6	0.000000	0.000000	6.939148	0.050415	NaN	0.000000	0.001551	0.001714	28.0786	0.043822	0.002071	21.1586	-156.991	-166.628	0.073426	0.937918	-0.141328	-0.142665	0.050415	21.1586	-0.143115	-13.5267	-0.003727	NaN
262	1.000000	0.947221	7.36762e+06	-51739.1	955.818	-29751.6	0.000000	0.000000	6.947114	0.061798	NaN	0.000000	0.001560	0.001715	28.0788	0.120805	0.002010	60.1026	-104.273	-167.807	0.125442	0.945994	-0.133362	-0.134589	0.061798	60.1026	-0.134133	-9.156058	-0.006749	NaN
262	1.000000	0.955211	7.36762e+06	-51739.1	955.819	-29751.6	0.000000	0.000000	6.955103	0.021047	NaN	0.000000	0.001568	0.001706	28.0779	0.044967	0.002041	22.0348	-169.601	-165.817	0.082764	0.953957	-0.125371	-0.126625	0.021047	22.0348	-0.126087	-6.389520	-0.003294	NaN
262	1.000000	0.963238	7.36762e+06	-51739.1	955.818	-29751.6	0.000000	0.000000	6.963128	-0.008006	NaN	0.000000	0.001576	0.001708	28.0775	0.053259	0.001983	26.8569	178.384	-164.483	0.032124	0.961946	-0.117345	-0.118636	-0.008006	26.8569	-0.117121	-4.223109	0.001896	NaN
262	1.000000	0.971247	7.36762e+06	-51739.1	955.818	-29751.6	0.000000	0.000000	6.971135	-0.077280	NaN	0.000000	0.001563	0.001694	28.0776	0.141640	0.001979	71.576	175.476	-163.604	-0.048828	0.969914	-0.109335	-0.110669	-0.077280	71.576	-0.108525	-2.796827	0.027631	NaN
262	1.000000	0.979258	7.36762e+06	-51739.1	955.818	-29751.6	0.000000	0.000000	6.979150	0.020428	NaN	0.000000	0.001570	0.001657	28.0772	0.116792	0.001869	62.4821	164.358	-163.956	0.061658	0.977932	-0.101324	-0.102650	0.020428	62.4821	-0.101570	-1.978885	-0.010323	NaN
262	1.000000	0.987260	7.36762e+06	-51739.1	955.819	-29751.6	0.000000	0.000000	6.987152	0.020675	NaN	0.000000	0.001537	0.001669	28.0774	0.109016	0.002020	53.9769	-93.0335	-166.363	-0.014717	0.985923	-0.093323	-0.094659	0.020675	53.9769	-0.093610	-1.311028	-0.015770	NaN
262	1.000000	0.995234	7.36762e+06	-51739.1	955.819	-29751.6	0.000000	0.000000	6.995125	0.022547	NaN	0.000000	0.001579	0.001670	28.0776	0.124743	0.002139	58.3216	-178.438	-165.345	0.039690	0.993949	-0.085349	-0.086633	0.022547	58.3216	-0.085639	-0.851344	-0.026484	NaN
262	1.000000	1.003267	7.36762e+06	-51739.1	955.819	-29751.6	0.000000	0.000000	7.003158	0.000875	NaN	0.000000	0.001546	0.001684	28.0777	0.132276	0.002009	65.84	-130.816	-161.58	0.026879	1.001937	-0.077315	-0.078645	0.000875	65.84	-0.077325	-0.529904	-0.001651	NaN
262	1.000000	1.011266	7.36762e+06	-51739.1	955.819	-29751.6	0.000000	0.000000	7.011154	-0.070392	NaN	0.000000	0.001542	0.001700	28.078	0.091303	0.001887	48.3881	102.486	-162.867	-0.046030	1.009952	-0.069316	-0.070631	-0.070392	48.3881	-0.068225	-0.305532	0.230391	NaN
262	1.000000	1.019281	7.36762e+06	-51739.1	955.819	-29751.6	0.000000	0.000000	7.019173	0.010651	NaN	0.000000	0.001560	0.001676	28.0774	0.086816	0.001989	43.6408	-85.8236	-162.172	-0.025409	1.017923	-0.061301	-0.062659	0.010651	43.6408	-0.061484	-0.198549	-0.053643	NaN
262	1.000000	1.027282	7.36762e+06	-51739.1	955.819	-29751.6	0.000000	0.000000	7.027172	-0.018209	NaN	0.000000	0.001581	0.001697	28.0775	0.040256	0.002057	19.5707	108.924	-166.446	0.036642	1.025937	-0.053300	-0.054645	-0.018209	19.5707	-0.052603	-0.109279	0.166632	NaN
262	1.000000	1.035267	7.36762e+06	-51739.1	955.818	-29751.6	0.000000	0.000000	7.035158	-0.001786	NaN	0.000000	0.001560	0.001701	28.0775	0.154497	0.001991	77.5979	-18.1134	-164.518	-0.004885	1.033953	-0.045315	-0.046630	-0.001786	77.5979	-0.045298	-0.065630	0.027207	NaN
262	1.000000	1.043262	7.36762e+06	-51739.1	955.818	-29751.6	0.000000	0.000000	7.043154	0.010853	NaN	0.000000	0.001532	0.001691	28.0777	0.054881	0.001989	27.5888	-111.287	-168.798	-0.008100	1.042027	-0.037320	-0.038555	0.010853	27.5888	-0.037615	-0.038309	-0.283310	NaN
262	1.000000	1.051271	7.36762e+06	-51739.1	955.818	-29751.6	0.000000	0.000000	7.051163	0.034709	NaN	0.000000	0.001556	0.001691	28.0777	0.125314	0.002054	61.0159	115.132	-166.039	0.022561	1.049898	-0.029312	-0.030685	0.034709	61.0159	-0.029738	-0.022630	-1.533763	NaN
262	1.000000	1.059274	7.36762e+06	-51739.1	955.819	-29751.6	0.000000	0.000000	7.059163	-0.047782	NaN	0.000000	0.001552	0.001659	28.0775	0.064590	0.002046	31.5722	103.186	-164.633	0.009106	1.058011	-0.021308	-0.022571	-0.047782	31.5722	-0.020173	-0.012689	3.765569	NaN
262	1.000000	1.067255	7.36762e+06	-51739.1	955.818	-29751.6	0.000000	0.000000	7.067147	0.015544	NaN	0.000000	0.001566	0.001691	28.0774	0.060542	0.002043	29.6324	-21.2545	-169.149	0.024885	1.065987	-0.013327	-0.014595	0.015544	29.6324	-0.013720	-0.008520	-1.824468	NaN
262	1.000000	1.075305	7.36762e+06	-51739.1	955.819	-29751.6	0.000000	0.000000	7.075200	0.087910	NaN	0.000000	0.001561	0.001697	28.0775	0.084138	0.001943	43.3071	154.352	-166.321	0.021225	1.073991	-0.005277	-0.006591	0.087910	43.3071	-0.006799	-0.004520	-19.4478	NaN
262	1.000000	1.083291	7.36762e+06	-51739.1	955.819	-29751.6	0.000000	0.000000	7.083221	0.957117	NaN	0.000000	0.001539	0.001674	28.0776	1.660068	0.001875	885.4	13.8412	-168.129	0.402891	1.081956	0.002708	0.001374	0.957117	885.4	0.001898	0.001472	650.149	21083.2
262	2.000000	1.090752	7.36762e+06	-51739.1	955.818	-29751.6	0.000000	0.000000	7.090973	8.021885	NaN	0.000000	0.001547	0.001686	28.0781	8.583655	0.001847	4646.7	12.1544	-171.322	7.930339	1.089921	0.010170	0.009339	8.021885	4646.7	0.008875	0.007958	1008.01	47589.7
262	2.000000	1.092853	7.36762e+06	-51739.1	955.819	-29751.6	0.000000	0.000000	7.093210	11.3253	NaN	0.000000	0.001570	0.001715	28.0786	11.1139	0.001681	6611.13	9.648941	-175.433	10.6125	1.092569	0.012271	0.011986	11.3253	6611.13	0.010986	0.010298	1099.79	59522.2
262	2.000000	1.094892	7.36762e+06	-51739.1	955.819	-29751.6	0.000000	0.000000	7.095398	14.9594	NaN	0.000000	0.001528	0.001708	28.0793	13.4053	0.001743	7693.1	8.366316	-174.584	14.3768	1.094566	0.014310	0.013984	14.9594	7693.1	0.012851	0.012526	1194.27	62801.2
262	2.000000	1.096842	7.36762e+06	-51739.1	955.819	-29751.6	0.000000	0.000000	7.097422	16.7579	NaN	0.000000	0.001546	0.001686	28.0787	15.759	0.001689	9332.62	6.842713	-178.104	16.5104	1.096545	0.016259	0.015962	16.7579	9332.62	0.014913	0.015169	1104.74	69230.5
262	2.000000	1.098777	7.36762e+06	-51739.1	955.82	-29751.6	0.000000	0.000000	7.099463	19.3431	NaN	0.000000	0.001540	0.001689	28.0787	18.0561	0.001982	9110.1	8.114791	-175.781	18.2337	1.098523	0.018194	0.017941	19.3431	9110.1	0.016602	0.017481	1106.51	62952.4
262	2.000000	1.100822	7.36762e+06	-51739.1	955.819	-29751.6	0.000000	0.000000	7.101656	22.9296	NaN	0.000000	0.001546	0.001715	28.0789	19.8286	0.001823	10875.2	7.873553	-177.369	23.8679	1.100524	0.020240	0.019941	22.9296	10875.2	0.018658	0.020478	1119.75	69434.2
262	2.000000	1.102850	7.36762e+06	-51739.1	955.82	-29751.6	0.000000	0.000000	7.103941	29.1833	NaN	0.000000	0.001549	0.001627	28.0789	21.506	0.001747	12309.2	6.484397	-178.183	29.9233	1.102454	0.022268	0.021872	29.1833	12309.2	0.020490	0.023317	1251.56	73648.5
262	2.000000	1.104778	7.36762e+06	-51739.1	955.82	-29751.6	0.000000	0.000000	7.106144	35.8892	NaN	0.000000	0.001556	0.001635	28.0796	24.4183	0.001816	13447.2	5.231014	-178.25	33.7393	1.104480	0.024195	0.023898	35.8892	13447.2	0.022194	0.026107	1374.68	76037
262	2.000000	1.106752	7.36762e+06	-51739.1	955.82	-29751.6	0.000000	0.000000	7.108261	39.3514	NaN	0.000000	0.001590	0.001637	28.079	25.6482	0.001706	15036.9	2.161131	-175.774	38.4503	1.106494	0.026170	0.025912	39.3514	15036.9	0.024207	0.029588	1329.96	79867.7
262	2.000000	1.108814	7.36762e+06	-51739.1	955.82	-29751.6	0.000000	0.000000	7.110461	42.6926	NaN	0.000000	0.001612	0.001677	28.0788	28.2577	0.001756	16092	0.358048	-175.007	42.9136	1.108608	0.028232	0.028026	42.6926	16092	0.026242	0.033314	1281.53	80551
262	2.000000	1.110833	7.36762e+06	-51739.1	955.82	-29751.6	0.000000	0.000000	7.112608	45.8202	NaN	0.000000	0.001632	0.001659	28.079	29.968	0.001740	17224.5	10.0837	174.995	47.8033	1.110481	0.030251	0.029899	45.8202	17224.5	0.028256	0.037206	1231.54	81586.3
262	2.000000	1.112776	7.36762e+06	-51739.1	955.819	-29751.6	0.000000	0.000000	7.115116	59.5366	NaN	0.000000	0.001600	0.001638	28.0791	31.8965	0.001864	17114.5	3.779063	-177.683	59.6455	1.112407	0.032194	0.031825	59.5366	17114.5	0.029585	0.039888	1492.61	78292
262	2.000000	1.114766	7.36762e+06	-51739.1	955.819	-29751.6	0.000000	0.000000	7.117259	63.2817	NaN	0.000000	0.001610	0.001677	28.0794	33.8593	0.001826	18543.2	0.460047	-175.495	62.0215	1.114392	0.034183	0.033809	63.2817	18543.2	0.031624	0.044177	1432.47	80604.7
262	2.000000	1.116739	7.36762e+06	-51739.1	955.819	-29751.6	0.000000	0.000000	7.119351	66.1617	NaN	0.000000	0.001630	0.001654	28.079	35.8827	0.001890	18987	1.819762	-177.695	64.3357	1.116461	0.036157	0.035879	66.1617	18987	0.033544	0.048409	1366.72	78843.6
262	2.000000	1.118734	7.36762e+06	-51739.1	955.82	-29751.6	0.000000	0.000000	7.121745	75.8727	NaN	0.000000	0.001603	0.001654	28.0789	37.9424	0.001736	21857.8	7.367415	175.76	74.0322	1.118461	0.038152	0.037879	75.8727	21857.8	0.035548	0.053031	1430.73	86719.5
262	2.000000	1.120786	7.36762e+06	-51739.1	955.819	-29751.6	0.000000	0.000000	7.123998	80.7672	NaN	0.000000	0.001623	0.001664	28.079	38.7901	0.001696	22867.4	5.154783	176.981	81.4613	1.120490	0.040203	0.039908	80.7672	22867.4	0.037554	0.057861	1395.89	86855.7
262	2.000000	1.122769	7.36762e+06	-51739.1	955.82	-29751.6	0.000000	0.000000	7.126456	92.3189	NaN	0.000000	0.001623	0.001670	28.0793	41.8063	0.001883	22204.9	4.224093	178.506	91.3975	1.122365	0.042187	0.041783	92.3189	22204.9	0.039068	0.061643	1497.64	81711
262	2.000000	1.124686	7.36762e+06	-51739.1	955.82	-29751.6	0.000000	0.000000	7.128622	98.3723	NaN	0.000000	0.001625	0.001646	28.0793	43.158	0.001813	23808.2	3.993929	178.455	95.0859	1.124383	0.044103	0.043801	98.3723	23808.2	0.041004	0.066650	1475.96	84256
262	2.000000	1.126738	7.36762e+06	-51739.1	955.82	-29751.6	0.000000	0.000000	7.131034	107.106	NaN	0.000000	0.001623	0.001698	28.0779	44.4727	0.001818	24458.7	4.647748	177.808	105.944	1.126416	0.046156	0.045833	107.106	24458.7	0.042872	0.071661	1494.63	83476.9
262	2.000000	1.128801	7.36762e+06	-51739.1	955.82	-29751.6	0.000000	0.000000	7.133212	109.903	NaN	0.000000	0.001623	0.001649	28.0777	46.609	0.001717	27149.6	4.736487	176.424	111.845	1.128469	0.048219	0.047887	109.903	27149.6	0.045183	0.078106	1407.09	88755.1
262	2.000000	1.130720	7.36762e+06	-51739.1	955.82	-29751.6	0.000000	0.000000	7.135794	126.026	NaN	0.000000	0.001631	0.001674	28.0776	47.6787	0.001704	27985.2	3.595761	177.165	122.953	1.130353	0.050138	0.049770	126.026	27985.2	0.046761	0.082664	1524.56	88928.9
262	2.000000	1.132631	7.36762e+06	-51739.1	955.82	-29751.6	0.000000	0.000000	7.137929	131.464	NaN	0.000000	0.001640	0.001656	28.0778	51.2007	0.001835	27900.2	2.757140	177.448	126.461	1.132392	0.052049	0.051810	131.464	27900.2	0.048515	0.087878	1495.99	85988.5
262	2.000000	1.134700	7.36762e+06	-51739.1	955.82	-29751.6	0.000000	0.000000	7.140596	146.027	NaN	0.000000	0.001636	0.001661	28.0783	52.0798	0.001672	31140.2	2.692917	176.871	141.975	1.134320	0.054118	0.053738	146.027	31140.2	0.050601	0.094279	1548.89	92659.1
262	2.000000	1.136731	7.36762e+06	-51739.1	955.82	-29751.6	0.000000	0.000000	7.142902	152.727	NaN	0.000000	0.001637	0.001666	28.0778	54.477	0.001702	32009.2	3.126495	176.04	152.738	1.136426	0.056148	0.055843	152.727	32009.2	0.052570	0.100521	1519.35	92240
262	2.000000	1.138698	7.36762e+06	-51739.1	955.819	-29751.6	0.000000	0.000000	7.145263	162.283	NaN	0.000000	0.001628	0.001674	28.0774	56.9137	0.001753	32465.5	5.659482	174.317	160.065	1.138318	0.058116	0.057736	162.283	32465.5	0.054367	0.106387	1525.4	90939.2
262	2.000000	1.140690	7.36762e+06	-51739.1	955.821	-29751.6	0.000000	0.000000	7.147645	171.77	NaN	0.000000	0.001576	0.001649	28.0775	57.937	0.001776	32622.8	6.696212	172.81	169.251	1.140461	0.060107	0.059879	171.77	32622.8	0.056158	0.112394	1528.28	88904.2
262	2.000000	1.142648	7.36762e+06	-51739.1	955.819	-29751.6	0.000000	0.000000	7.149917	179.411	NaN	0.000000	0.001654	0.001702	28.0776	60.9741	0.001814	33610.1	5.080297	174.439	175.688	1.142360	0.062066	0.061778	179.411	33610.1	0.058062	0.118951	1508.28	89034.6
262	2.000000	1.144730	7.36762e+06	-51739.1	955.82	-29751.6	0.000000	0.000000	7.152652	195.273	NaN	0.000000	0.001634	0.001704	28.0776	63.3495	0.001701	37235.1	3.586280	175.237	192.051	1.144356	0.064148	0.063774	195.273	37235.1	0.060214	0.126579	1542.7	95619.3
262	2.000000	1.146664	7.36762e+06	-51739.1	955.819	-29751.6	0.000000	0.000000	7.155127	208.435	NaN	0.000000	0.001621	0.001666	28.078	64.6755	0.001659	38977.6	4.369405	173.545	205.106	1.146390	0.066081	0.065808	208.435	38977.6	0.062071	0.133339	1563.2	97523.9
262	2.000000	1.148781	7.36762e+06	-51739.1	955.82	-29751.6	0.000000	0.000000	7.157697	219.468	NaN	0.000000	0.001599	0.001696	28.0775	67.3695	0.001745	38612.4	4.495241	173.569	222.952	1.148457	0.068198	0.067874	219.468	38612.4	0.063935	0.140297	1564.31	94183.7
262	2.000000	1.150672	7.36762e+06	-51739.1	955.82	-29751.6	0.000000	0.000000	7.160019	229.923	NaN	0.000000	0.001610	0.001683	28.0776	67.5536	0.001635	41310.8	2.457640	174.964	229.111	1.150348	0.070090	0.069765	229.923	41310.8	0.065916	0.147871	1554.89	98151.1
262	2.000000	1.152684	7.36762e+06	-51739.1	955.821	-29751.6	0.000000	0.000000	7.162432	239.689	NaN	0.000000	0.001568	0.001655	28.0772	71.2863	0.001936	36812	5.039384	173.821	237.56	1.152390	0.072102	0.071808	239.689	36812	0.067218	0.152956	1567.04	85996
262	2.000000	1.154769	7.36762e+06	-51739.1	955.82	-29751.6	0.000000	0.000000	7.165126	254.495	NaN	0.000000	0.001542	0.001673	28.0775	72.3402	0.001822	39698.8	4.037704	174.534	256.726	1.154333	0.074187	0.073751	254.495	39698.8	0.069379	0.161570	1575.14	90234
262	2.000000	1.156736	7.36762e+06	-51739.1	955.819	-29751.6	0.000000	0.000000	7.167500	264.4	NaN	0.000000	0.001576	0.001687	28.0774	72.3611	0.001672	43266.5	1.278996	176.198	265.408	1.156382	0.076153	0.075800	264.4	43266.5	0.071570	0.170534	1550.43	95723.7
262	2.000000	1.158619	7.36762e+06	-51739.1	955.819	-29751.6	0.000000	0.000000	7.169889	276.696	NaN	0.000000	0.001574	0.001679	28.0777	76.2733	0.001786	42696	4.740696	172.342	271.299	1.158408	0.078036	0.077825	276.696	42696	0.073176	0.177247	1561.08	92655.6
262	2.000000	1.160701	7.36762e+06	-51739.1	955.82	-29751.6	0.000000	0.000000	7.172593	291.815	NaN	0.000000	0.001595	0.001694	28.0786	77.2596	0.001727	44745.4	5.997943	170.643	290.66	1.160358	0.080119	0.079775	291.815	44745.4	0.075228	0.186001	1568.89	94790.3
262	2.000000	1.162745	7.36762e+06	-51739.1	955.82	-29751.6	0.000000	0.000000	7.175190	305.252	NaN	0.000000	0.001598	0.001686	28.0787	79.2047	0.001800	44012.9	6.604039	170.815	307.322	1.162327	0.082163	0.081745	305.252	44012.9	0.076961	0.193553	1577.09	91401.5
262	2.000000	1.164664	7.36762e+06	-51739.1	955.82	-29751.6	0.000000	0.000000	7.177927	325.164	NaN	0.000000	0.001576	0.001673	28.0788	80.8749	0.001908	42384.6	5.922930	172.087	322.868	1.164372	0.084082	0.083789	325.164	42384.6	0.078328	0.199604	1629.04	86675.6
262	2.000000	1.166654	7.36762e+06	-51739.1	955.82	-29751.6	0.000000	0.000000	7.180329	335.182	NaN	0.000000	0.001603	0.001667	28.0788	82.3986	0.001770	46553.3	4.422923	172.406	332.942	1.166280	0.086072	0.085697	335.182	46553.3	0.080672	0.210188	1594.68	92772.6
262	2.000000	1.168685	7.36762e+06	-51739.1	955.821	-29751.6	0.000000	0.000000	7.182783	345.476	NaN	0.000000	0.001638	0.001688	28.0789	86.5268	0.001735	49861.2	9.588897	166.44	344.887	1.168502	0.088102	0.087919	345.476	49861.2	0.082906	0.220513	1566.69	97010.7
262	2.000000	1.170661	7.36762e+06	-51739.1	955.82	-29751.6	0.000000	0.000000	7.185427	361.699	NaN	0.000000	0.001637	0.001712	28.0787	86.8447	0.001748	49674.4	5.958747	170.554	360.065	1.170546	0.090079	0.089963	361.699	49674.4	0.084618	0.228582	1582.36	94925.9
262	2.000000	1.172716	7.36762e+06	-51739.1	955.821	-29751.6	0.000000	0.000000	7.188398	383.977	NaN	0.000000	0.001663	0.001711	28.0808	89.1573	0.001760	50660.9	3.281344	173.101	384.943	1.172279	0.092134	0.091697	383.977	50660.9	0.086449	0.237365	1617.67	95003.2
262	2.000000	1.174732	7.36762e+06	-51739.1	955.821	-29751.6	0.000000	0.000000	7.191137	401.541	NaN	0.000000	0.001663	0.001705	28.081	91.6819	0.001836	49941.1	6.419693	170.78	399.961	1.174218	0.094150	0.093635	401.541	49941.1	0.088120	0.245508	1635.56	92087.2
262	2.000000	1.176731	7.36762e+06	-51739.1	955.82	-29751.6	0.000000	0.000000	7.193758	416.665	NaN	0.000000	0.001649	0.001689	28.0803	93.4128	0.001859	50249.8	6.381566	170.437	417.406	1.176252	0.096149	0.095670	416.665	50249.8	0.089930	0.254480	1637.32	91008.2
262	2.000000	1.178664	7.36762e+06	-51739.1	955.82	-29751.6	0.000000	0.000000	7.195858	420.761	NaN	0.000000	0.001637	0.001677	28.0792	94.7673	0.001817	52155.3	2.326713	173.387	418.482	1.178591	0.098081	0.098009	420.761	52155.3	0.092031	0.265078	1587.31	92551.7
262	2.000000	1.180667	7.36762e+06	-51739.1	955.82	-29751.6	0.000000	0.000000	7.199104	450.974	NaN	0.000000	0.001663	0.001655	28.079	94.1608	0.001735	54279.2	3.249083	172.703	449.257	1.180349	0.100085	0.099767	450.974	54279.2	0.093853	0.274438	1643.26	94663.9
262	2.000000	1.182735	7.36762e+06	-51739.1	955.82	-29751.6	0.000000	0.000000	7.201369	455.757	NaN	0.000000	0.001687	0.001668	28.0798	98.3731	0.001773	55490.4	6.366131	169.196	459.623	1.182366	0.102153	0.101783	455.757	55490.4	0.095993	0.285617	1595.69	94863.4
262	2.000000	1.184764	7.36762e+06	-51739.1	955.821	-29751.6	0.000000	0.000000	7.204274	477.049	NaN	0.000000	0.001591	0.001687	28.0788	101.028	0.001872	53969.7	9.054020	167.276	477.221	1.184337	0.104182	0.103755	477.049	53969.7	0.097552	0.293899	1623.18	90954.5
262	2.000000	1.186701	7.36762e+06	-51739.1	955.82	-29751.6	0.000000	0.000000	7.207207	501.292	NaN	0.000000	0.001594	0.001737	28.0788	102.35	0.001819	56263.3	6.693535	169.367	499.408	1.186296	0.106118	0.105714	501.292	56263.3	0.099436	0.304048	1648.72	93223.9
262	2.000000	1.188799	7.36762e+06	-51739.1	955.821	-29751.6	0.000000	0.000000	7.209516	506.407	NaN	0.000000	0.001598	0.001720	28.0788	104.842	0.001732	60538.3	4.627749	170.664	514.526	1.188461	0.108217	0.107879	506.407	60538.3	0.101943	0.317806	1593.45	98112.1
262	2.000000	1.189084	7.36762e+06	-51739.1	955.82	-29751.6	0.000000	0.000000	7.210016	511.631	NaN	0.000000	0.001618	0.001715	28.0791	104.34	0.001826	57134.4	1.358033	-5.879407	503.803	1.188892	0.108502	0.108310	511.631	57134.4	0.101786	0.316936	1614.3	92722.5