File: remote_trans/data/nanoindenter/0828-1/data/Data_2025-08-06,11h17m57s/2025-07-22_16-23-58_1_1126.txt
2025-07-22, 16:23:58, 1
Index	Phase	Displacement	Time	Pos X	Pos Y	Pos Z	Rot A	Rot B	Piezo Z	Force A	Force B	Gripper	Voltage A	Voltage B	Temperature	Amplitude force	Amplitude pos	Stiffness	Phase shift	Phase excitation	Force A raw	Displacement raw	HMax	HMax raw	Real Force	Real Stiffness	Contact Depth	Area	Hardness	Reduced Mod.
[#]	[#]	[um]	[s]	[um]	[um]	[um]	[m°]	[m°]	[um]	[uN]	[uN]	[V]	[V]	[V]	[°C]	[uN]	[um]	[N/m]	[°]	[°]	[uN]	[um]	[um]	[um]	[uN]	[N/m]	[um]	[um^2]	[MPa]	[MPa]
1126	1.000000	0.002608	7.37607e+06	-56439.1	1055.82	-29738.9	0.000000	0.000000	6.002823	0.027009	NaN	0.000000	0.001553	0.001727	28.0827	0.021872	0.000829	26.385	-13.0322	-169.878	-0.028230	0.001333	-1.106540	-1.107815	0.027009	26.385	-1.107308	-6.282813E+14	-4.298857E-17	NaN
1126	1.000000	0.012656	7.37607e+06	-56439.1	1055.82	-29738.9	0.000000	0.000000	6.012868	-0.071725	NaN	0.000000	0.001599	0.001742	28.0826	0.021557	0.001307	16.4954	-97.615	15.7507	0.003293	0.011146	-1.096492	-1.098002	-0.071725	16.4954	-1.093230	-4.066180E+14	1.763932E-16	NaN
1126	1.000000	0.022559	7.37607e+06	-56439.1	1055.82	-29738.9	0.000000	0.000000	6.022774	0.030754	NaN	0.000000	0.001566	0.001731	28.0834	0.134734	0.001723	78.1939	27.3825	-164.298	0.118405	0.021190	-1.086589	-1.087958	0.030754	78.1939	-1.086884	-3.341750E+14	-9.202869E-17	NaN
1126	1.000000	0.032535	7.37607e+06	-56439.1	1055.82	-29738.9	0.000000	0.000000	6.032750	0.009652	NaN	0.000000	0.001571	0.001750	28.0837	0.167297	0.001937	86.3557	-135.111	15.1227	0.055677	0.031187	-1.076612	-1.077961	0.009652	86.3557	-1.076696	-2.438613E+14	-3.958111E-17	NaN
1126	1.000000	0.042523	7.37607e+06	-56439.1	1055.82	-29738.9	0.000000	0.000000	6.042739	0.041746	NaN	0.000000	0.001581	0.001762	28.0838	0.172766	0.001943	88.9281	70.5024	-167.532	0.039437	0.041239	-1.066624	-1.067909	0.041746	88.9281	-1.066976	-1.805371E+14	-2.312319E-16	NaN
1126	1.000000	0.052541	7.37607e+06	-56439.1	1055.82	-29738.9	0.000000	0.000000	6.052754	-0.033173	NaN	0.000000	0.001610	0.001732	28.0837	0.100186	0.001844	54.3369	63.0105	17.0952	-0.115533	0.051170	-1.056607	-1.057977	-0.033173	54.3369	-1.056149	-1.291403E+14	2.568775E-16	NaN
1126	1.000000	0.062528	7.37607e+06	-56439.1	1055.82	-29738.9	0.000000	0.000000	6.062744	0.033995	NaN	0.000000	0.001579	0.001778	28.0837	0.070659	0.001923	36.7419	4.491378	-164.416	0.011686	0.061198	-1.046620	-1.047950	0.033995	36.7419	-1.047314	-9.824364E+13	-3.460315E-16	NaN
1126	1.000000	0.072556	7.37607e+06	-56439.1	1055.82	-29738.9	0.000000	0.000000	6.072771	0.020487	NaN	0.000000	0.001653	0.001811	28.0838	0.120597	0.002083	57.9091	101.148	16.0877	-0.024397	0.071153	-1.036592	-1.037995	0.020487	57.9091	-1.036857	-7.107231E+13	-2.882516E-16	NaN
1126	1.000000	0.082544	7.37607e+06	-56439.1	1055.82	-29738.9	0.000000	0.000000	6.082759	0.014802	NaN	0.000000	0.001642	0.001747	28.084	0.022031	0.002044	10.7807	137.885	-165.221	0.062644	0.081239	-1.026604	-1.027909	0.014802	10.7807	-1.027634	-5.341355E+13	-2.771126E-16	NaN
1126	1.000000	0.092544	7.37607e+06	-56439.1	1055.82	-29738.9	0.000000	0.000000	6.092759	0.009794	NaN	0.000000	0.001666	0.001747	28.084	0.050300	0.002090	24.0717	172.688	15.735	0.025051	0.091196	-1.016604	-1.017952	0.009794	24.0717	-1.016909	-3.831447E+13	-2.556189E-16	NaN
1126	1.000000	0.102546	7.37607e+06	-56439.1	1055.82	-29738.9	0.000000	0.000000	6.102763	0.051888	NaN	0.000000	0.001617	0.001736	28.084	0.026218	0.002070	12.6666	103.046	-166.337	0.016640	0.101263	-1.006602	-1.007884	0.051888	12.6666	-1.009674	-3.061922E+13	-1.694617E-15	NaN
1126	1.000000	0.112539	7.37607e+06	-56439.1	1055.82	-29738.9	0.000000	0.000000	6.112756	0.069266	NaN	0.000000	0.001660	0.001758	28.0843	0.128734	0.001965	65.5271	139.343	14.9583	0.061490	0.111166	-0.996609	-0.997982	0.069266	65.5271	-0.997401	-2.093061E+13	-3.309335E-15	NaN
1126	1.000000	0.122596	7.37607e+06	-56439.1	1055.82	-29738.9	0.000000	0.000000	6.122812	0.051662	NaN	0.000000	0.001637	0.001739	28.0839	0.034072	0.002067	16.4846	19.145	-161.288	0.070752	0.121316	-0.986552	-0.987831	0.051662	16.4846	-0.988903	-1.608171E+13	-3.212491E-15	NaN
1126	1.000000	0.132557	7.37607e+06	-56439.1	1055.82	-29738.9	0.000000	0.000000	6.132772	0.021272	NaN	0.000000	0.001514	0.001753	28.0839	0.061574	0.002051	30.0177	-95.979	17.5815	0.032970	0.131180	-0.976591	-0.977968	0.021272	30.0177	-0.977122	-1.115925E+13	-1.906227E-15	NaN
1126	1.000000	0.142576	7.37607e+06	-56439.1	1055.82	-29738.9	0.000000	0.000000	6.142790	-0.011636	NaN	0.000000	0.001562	0.001722	28.084	0.072678	0.001955	37.1679	141.74	-161.778	-0.001281	0.141257	-0.966572	-0.967890	-0.011636	37.1679	-0.966337	-7.985345E+12	1.457161E-15	NaN
1126	1.000000	0.152579	7.37607e+06	-56439.1	1055.82	-29738.9	0.000000	0.000000	6.152794	0.012066	NaN	0.000000	0.001559	0.001742	28.084	0.123020	0.001978	62.1946	152.088	17.1623	0.020519	0.151251	-0.956569	-0.957897	0.012066	62.1946	-0.956714	-5.923407E+12	-2.037053E-15	NaN
1126	1.000000	0.162557	7.37607e+06	-56439.1	1055.82	-29738.9	0.000000	0.000000	6.162771	0.001589	NaN	0.000000	0.001576	0.001698	28.0827	0.154240	0.001891	81.5781	176.074	-165.711	0.005710	0.161276	-0.946591	-0.947871	0.001589	81.5781	-0.946605	-4.327571E+12	-3.670655E-16	NaN
1126	1.000000	0.172590	7.37607e+06	-56439.1	1055.82	-29738.9	0.000000	0.000000	6.172804	-0.004046	NaN	0.000000	0.001545	0.001729	28.0827	0.105826	0.001939	54.5787	-160.593	11.9506	0.044903	0.171201	-0.936558	-0.937946	-0.004046	54.5787	-0.936502	-3.161872E+12	1.279602E-15	NaN
1126	1.000000	0.182560	7.37607e+06	-56439.1	1055.82	-29738.9	0.000000	0.000000	6.182777	0.068656	NaN	0.000000	0.001582	0.001713	28.0828	0.084026	0.002019	41.6188	115.613	-167.869	0.067066	0.181282	-0.926588	-0.927866	0.068656	41.6188	-0.927825	-2.414594E+12	-2.843371E-14	NaN
1126	1.000000	0.192591	7.37607e+06	-56439.1	1055.82	-29738.9	0.000000	0.000000	6.192807	0.052650	NaN	0.000000	0.001576	0.001708	28.0825	0.057941	0.001936	29.9315	119.212	16.8723	0.053526	0.191183	-0.916557	-0.917965	0.052650	29.9315	-0.917876	-1.772270E+12	-2.970771E-14	NaN
1126	1.000000	0.202567	7.37607e+06	-56439.1	1055.82	-29738.9	0.000000	0.000000	6.202784	0.060424	NaN	0.000000	0.001532	0.001743	28.0826	0.066459	0.001920	34.6194	-112.344	-163.17	0.100009	0.201284	-0.906581	-0.907864	0.060424	34.6194	-0.907890	-1.299163E+12	-4.650960E-14	NaN
1126	1.000000	0.212602	7.37607e+06	-56439.1	1055.82	-29738.9	0.000000	0.000000	6.212817	-0.000430	NaN	0.000000	0.001558	0.001776	28.0829	0.084562	0.002079	40.6743	90.1762	18.0598	0.042679	0.211221	-0.896545	-0.897927	-0.000430	40.6743	-0.896537	-9.125912E+11	4.712357E-16	NaN
1126	1.000000	0.222601	7.37607e+06	-56439.1	1055.82	-29738.9	0.000000	0.000000	6.222816	0.004983	NaN	0.000000	0.001536	0.001775	28.0828	0.048064	0.002083	23.0694	-139.62	-165.082	0.016974	0.221371	-0.886547	-0.887777	0.004983	23.0694	-0.886709	-6.720798E+11	-7.414066E-15	NaN
1126	1.000000	0.232604	7.37607e+06	-56439.1	1055.82	-29738.9	0.000000	0.000000	6.232820	0.032700	NaN	0.000000	0.001528	0.001767	28.083	0.076439	0.002170	35.2234	-177.424	18.1373	0.044328	0.231236	-0.876544	-0.877912	0.032700	35.2234	-0.877240	-5.004722E+11	-6.533781E-14	NaN
1126	1.000000	0.242634	7.37607e+06	-56439.1	1055.82	-29738.9	0.000000	0.000000	6.242846	-0.036844	NaN	0.000000	0.001552	0.001759	28.0829	0.122958	0.002001	61.4401	-151.445	-167.953	0.004322	0.241314	-0.866514	-0.867834	-0.036844	61.4401	-0.866064	-3.533405E+11	1.042746E-13	NaN
1126	1.000000	0.252604	7.37607e+06	-56439.1	1055.82	-29738.9	0.000000	0.000000	6.252820	0.041398	NaN	0.000000	0.001537	0.001724	28.0827	0.057711	0.002055	28.0801	175.078	12.7377	0.051891	0.251275	-0.856544	-0.857873	0.041398	28.0801	-0.857649	-2.718334E+11	-1.522911E-13	NaN
1126	1.000000	0.262628	7.37607e+06	-56439.1	1055.82	-29738.9	0.000000	0.000000	6.262846	0.072912	NaN	0.000000	0.001528	0.001729	28.0823	0.053597	0.001868	28.6989	-29.5838	-166.575	0.018027	0.261303	-0.846520	-0.847845	0.072912	28.6989	-0.848425	-2.038967E+11	-3.575938E-13	NaN
1126	1.000000	0.272625	7.37607e+06	-56439.1	1055.82	-29738.9	0.000000	0.000000	6.272841	0.035916	NaN	0.000000	0.001499	0.001740	28.0826	0.080525	0.002079	38.7348	-136.536	14.1405	0.095540	0.271262	-0.836523	-0.837886	0.035916	38.7348	-0.837218	-1.437475E+11	-2.498525E-13	NaN
1126	1.000000	0.282631	7.37607e+06	-56439.1	1055.82	-29738.9	0.000000	0.000000	6.282850	0.099238	NaN	0.000000	0.001493	0.001737	28.0829	0.082271	0.002124	38.7324	-114.271	-166.031	0.004948	0.281286	-0.826516	-0.827862	0.099238	38.7324	-0.828438	-1.092980E+11	-9.079600E-13	NaN
1126	1.000000	0.292649	7.37607e+06	-56439.1	1055.82	-29738.9	0.000000	0.000000	6.292864	0.020401	NaN	0.000000	0.001511	0.001682	28.0825	0.085931	0.002028	42.3628	92.2977	17.2148	-0.038836	0.291273	-0.816498	-0.817875	0.020401	42.3628	-0.816860	-7.614184E+10	-2.679377E-13	NaN
1126	1.000000	0.302617	7.37607e+06	-56439.1	1055.82	-29738.9	0.000000	0.000000	6.302833	0.060165	NaN	0.000000	0.001508	0.001719	28.0838	0.030098	0.001995	15.0832	59.8889	-165.821	0.120485	0.301351	-0.806531	-0.807797	0.060165	15.0832	-0.809523	-6.054780E+10	-9.936730E-13	NaN
1126	1.000000	0.312639	7.37607e+06	-56439.1	1055.82	-29738.9	0.000000	0.000000	6.312857	0.082662	NaN	0.000000	0.001529	0.001740	28.0838	0.043105	0.002067	20.8517	143.912	14.7784	0.095418	0.311335	-0.796509	-0.797813	0.082662	20.8517	-0.799482	-4.424159E+10	-1.868431E-12	NaN
1126	1.000000	0.322623	7.37607e+06	-56439.1	1055.82	-29738.9	0.000000	0.000000	6.322837	0.001599	NaN	0.000000	0.001500	0.001720	28.0842	0.011817	0.001999	5.910835	129.396	-164.383	0.011349	0.321342	-0.786525	-0.787805	0.001599	5.910835	-0.786728	-2.969195E+10	-5.386442E-14	NaN
1126	1.000000	0.332651	7.37607e+06	-56439.1	1055.82	-29738.9	0.000000	0.000000	6.332867	0.034379	NaN	0.000000	0.001509	0.001695	28.0837	0.038852	0.001989	19.5351	-30.5378	14.4944	-0.007020	0.331322	-0.776497	-0.777826	0.034379	19.5351	-0.777817	-2.246774E+10	-1.530169E-12	NaN
1126	1.000000	0.342682	7.37607e+06	-56439.1	1055.82	-29738.9	0.000000	0.000000	6.342895	-0.046943	NaN	0.000000	0.001509	0.001717	28.0838	0.105284	0.001983	53.0913	46.3486	-162.585	-0.029578	0.341362	-0.766466	-0.767786	-0.046943	53.0913	-0.765802	-1.542503E+10	3.043310E-12	NaN
1126	1.000000	0.352660	7.37607e+06	-56439.1	1055.82	-29738.9	0.000000	0.000000	6.352876	0.046218	NaN	0.000000	0.001550	0.001730	28.0836	0.055247	0.002001	27.6074	19.0924	13.821	0.021205	0.351264	-0.756488	-0.757884	0.046218	27.6074	-0.757743	-1.198399E+10	-3.856676E-12	NaN
1126	1.000000	0.362682	7.37607e+06	-56439.1	1055.82	-29738.9	0.000000	0.000000	6.362896	0.000918	NaN	0.000000	0.001540	0.001720	28.0835	0.057684	0.001915	30.1233	-57.7607	-165.844	0.066215	0.361353	-0.746466	-0.747795	0.000918	30.1233	-0.746489	-8.422156E+9	-1.089991E-13	NaN
1126	1.000000	0.372664	7.37607e+06	-56439.1	1055.82	-29738.9	0.000000	0.000000	6.372877	-0.023923	NaN	0.000000	0.001568	0.001694	28.0836	0.067493	0.001904	35.4524	107.515	15.2426	-0.042368	0.371295	-0.736484	-0.737853	-0.023923	35.4524	-0.735978	-6.057136E+9	3.949513E-12	NaN
1126	1.000000	0.382658	7.37607e+06	-56439.1	1055.82	-29738.9	0.000000	0.000000	6.382873	-0.000144	NaN	0.000000	0.001557	0.001702	28.0837	0.064754	0.002059	31.4426	72.4216	-166.726	-0.041894	0.381342	-0.726489	-0.727805	-0.000144	31.4426	-0.726486	-4.496850E+9	3.210005E-14	NaN
1126	1.000000	0.392642	7.37607e+06	-56439.1	1055.82	-29738.9	0.000000	0.000000	6.392858	0.042510	NaN	0.000000	0.001591	0.001709	28.0838	0.103875	0.002086	49.7948	-30.8767	14.696	0.070689	0.391309	-0.716506	-0.717839	0.042510	49.7948	-0.717146	-3.353921E+9	-1.267484E-11	NaN
1126	1.000000	0.402712	7.37607e+06	-56439.1	1055.82	-29738.9	0.000000	0.000000	6.402927	0.003534	NaN	0.000000	0.001551	0.001731	28.0836	0.050642	0.001944	26.0509	-75.2595	-168.64	0.023369	0.401449	-0.706435	-0.707699	0.003534	26.0509	-0.706537	-2.403171E+9	-1.470511E-12	NaN
1126	1.000000	0.412701	7.37607e+06	-56439.1	1055.82	-29738.9	0.000000	0.000000	6.412916	0.009873	NaN	0.000000	0.001609	0.001718	28.0837	0.065914	0.002026	32.5264	138.992	16.0156	0.049605	0.411382	-0.696447	-0.697766	0.009873	32.5264	-0.696674	-1.762426E+9	-5.602099E-12	NaN
1126	1.000000	0.422673	7.37607e+06	-56439.1	1055.82	-29738.9	0.000000	0.000000	6.422889	0.048373	NaN	0.000000	0.001615	0.001739	28.0839	0.127603	0.002022	63.0977	-87.0677	-162.279	0.114792	0.421368	-0.686475	-0.687779	0.048373	63.0977	-0.687050	-1.301965E+9	-3.715394E-11	NaN
1126	1.000000	0.432681	7.37607e+06	-56439.1	1055.82	-29738.9	0.000000	0.000000	6.432893	-0.051321	NaN	0.000000	0.001598	0.001750	28.0825	0.027566	0.001989	13.8594	-129.137	14.9141	0.048014	0.431324	-0.676467	-0.677824	-0.051321	13.8594	-0.673690	-8.548366E+8	6.003565E-11	NaN
1126	1.000000	0.442689	7.37607e+06	-56439.1	1055.82	-29738.9	0.000000	0.000000	6.442905	0.042362	NaN	0.000000	0.001579	0.001727	28.0822	0.092190	0.002056	44.8436	77.5577	-165.978	0.110119	0.441381	-0.666459	-0.667766	0.042362	44.8436	-0.667167	-6.960141E+8	-6.086401E-11	NaN
1126	1.000000	0.452716	7.37607e+06	-56439.1	1055.82	-29738.9	0.000000	0.000000	6.452930	-0.012932	NaN	0.000000	0.001599	0.001726	28.0824	0.020024	0.002021	9.906931	46.7961	13.8306	0.008920	0.451355	-0.656432	-0.657793	-0.012932	9.906931	-0.655453	-4.810277E+8	2.688464E-11	NaN
1126	1.000000	0.462690	7.37607e+06	-56439.1	1055.82	-29738.9	0.000000	0.000000	6.462908	0.087769	NaN	0.000000	0.001589	0.001713	28.0825	0.026859	0.001989	13.5031	77.8883	-159.621	0.084539	0.461408	-0.646458	-0.647740	0.087769	13.5031	-0.651333	-4.223814E+8	-2.077955E-10	NaN
1126	1.000000	0.472711	7.37607e+06	-56439.1	1055.82	-29738.9	0.000000	0.000000	6.472926	-0.000475	NaN	0.000000	0.001573	0.001698	28.0824	0.072965	0.001992	36.6333	-110.818	14.4028	0.008583	0.471285	-0.636436	-0.637863	-0.000475	36.6333	-0.636427	-2.637869E+8	1.800624E-12	NaN
1126	1.000000	0.482700	7.37607e+06	-56439.1	1055.82	-29738.9	0.000000	0.000000	6.482916	0.020926	NaN	0.000000	0.001601	0.001751	28.0825	0.056082	0.001966	28.5194	154.414	-166.708	0.060566	0.481381	-0.626447	-0.627767	0.020926	28.5194	-0.626998	-1.957887E+8	-1.068822E-10	NaN
1126	1.000000	0.492685	7.37607e+06	-56439.1	1055.82	-29738.9	0.000000	0.000000	6.492898	-0.023430	NaN	0.000000	0.001608	0.001718	28.0827	0.047309	0.002075	22.7948	138.552	14.8679	-0.050051	0.491387	-0.616463	-0.617761	-0.023430	22.7948	-0.615692	-1.369020E+8	1.711451E-10	NaN
1126	1.000000	0.502750	7.37607e+06	-56439.1	1055.82	-29738.9	0.000000	0.000000	6.502968	0.089875	NaN	0.000000	0.001591	0.001677	28.0825	0.113130	0.002014	56.1581	-132.465	-164.629	0.078208	0.501414	-0.606398	-0.607734	0.089875	56.1581	-0.607598	-1.059422E+8	-8.483379E-10	NaN
1126	1.000000	0.512690	7.37607e+06	-56439.1	1055.82	-29738.9	0.000000	0.000000	6.512907	0.071113	NaN	0.000000	0.001596	0.001698	28.0827	0.024652	0.001996	12.3511	-69.4493	17.4674	0.058455	0.511420	-0.596458	-0.597727	0.071113	12.3511	-0.600776	-8.533911E+7	-8.332935E-10	NaN
1126	1.000000	0.522723	7.37607e+06	-56439.1	1055.82	-29738.9	0.000000	0.000000	6.522936	-0.025203	NaN	0.000000	0.001573	0.001684	28.0826	0.119732	0.001914	62.5711	77.4259	-163.794	-0.001346	0.521465	-0.586425	-0.587683	-0.025203	62.5711	-0.586123	-5.360505E+7	4.701629E-10	NaN
1126	1.000000	0.532730	7.37607e+06	-56439.1	1055.82	-29738.9	0.000000	0.000000	6.532947	0.068649	NaN	0.000000	0.001574	0.001706	28.0833	0.056313	0.001978	28.4666	43.3214	18.2939	0.048613	0.531391	-0.576418	-0.577757	0.068649	28.4666	-0.578227	-4.171117E+7	-1.645823E-9	NaN
1126	1.000000	0.542756	7.37607e+06	-56439.1	1055.82	-29738.9	0.000000	0.000000	6.542972	0.027239	NaN	0.000000	0.001560	0.001696	28.0827	0.032800	0.002072	15.8307	49.2584	-162.753	0.000267	0.541420	-0.566392	-0.567728	0.027239	15.8307	-0.567682	-2.982639E+7	-9.132431E-10	NaN
1126	1.000000	0.552734	7.37607e+06	-56439.1	1055.82	-29738.9	0.000000	0.000000	6.552949	-0.003523	NaN	0.000000	0.001573	0.001737	28.0827	0.118180	0.001998	59.1494	110	15.2283	0.033870	0.551380	-0.556413	-0.557768	-0.003523	59.1494	-0.556369	-2.080331E+7	1.693242E-10	NaN
1126	1.000000	0.562757	7.37607e+06	-56439.1	1055.82	-29738.9	0.000000	0.000000	6.562973	0.024788	NaN	0.000000	0.001656	0.001708	28.0827	0.031790	0.002043	15.563	-161.603	-164.009	0.051584	0.561425	-0.546391	-0.547723	0.024788	15.563	-0.547585	-1.572182E+7	-1.576664E-9	NaN
1126	1.000000	0.572761	7.37607e+06	-56439.1	1055.82	-29738.9	0.000000	0.000000	6.572977	0.052339	NaN	0.000000	0.001665	0.001729	28.0839	0.048707	0.002080	23.4204	68.7091	13.5207	-0.024916	0.571362	-0.536387	-0.537786	0.052339	23.4204	-0.538063	-1.160099E+7	-4.511641E-9	NaN
1126	1.000000	0.582765	7.37607e+06	-56439.1	1055.82	-29738.9	0.000000	0.000000	6.582980	0.007847	NaN	0.000000	0.001692	0.001700	28.084	0.055144	0.002052	26.8703	-163.751	-168.239	0.054618	0.581438	-0.526383	-0.527710	0.007847	26.8703	-0.526602	-8.04204e+06	-9.757434E-10	NaN
1126	1.000000	0.592777	7.37607e+06	-56439.1	1055.82	-29738.9	0.000000	0.000000	6.592996	0.102511	NaN	0.000000	0.001644	0.001708	28.084	0.038935	0.002009	19.3786	-139.76	15.1835	0.076337	0.591388	-0.516370	-0.517759	0.102511	19.3786	-0.520338	-6.58108e+06	-1.557656E-8	NaN
1126	1.000000	0.602786	7.37607e+06	-56439.1	1055.82	-29738.9	0.000000	0.000000	6.603001	0.013084	NaN	0.000000	0.001657	0.001728	28.0842	0.081370	0.001980	41.0966	168.929	-166.996	0.025284	0.601433	-0.506362	-0.507715	0.013084	41.0966	-0.506601	-4.23696e+06	-3.088156E-9	NaN
1126	1.000000	0.612763	7.37607e+06	-56439.1	1055.82	-29738.9	0.000000	0.000000	6.612979	0.047428	NaN	0.000000	0.001661	0.001731	28.0839	0.115341	0.001909	60.4087	-29.8258	13.2748	0.004551	0.611407	-0.496385	-0.497741	0.047428	60.4087	-0.496974	-3.11018e+06	-1.524936E-8	NaN
1126	1.000000	0.622766	7.37607e+06	-56439.1	1055.82	-29738.9	0.000000	0.000000	6.622983	0.072464	NaN	0.000000	0.001662	0.001716	28.0839	0.164518	0.001894	86.8568	-39.2224	-164.569	0.023930	0.621433	-0.486382	-0.487714	0.072464	86.8568	-0.487008	-2.25717e+06	-3.210364E-8	NaN
1126	1.000000	0.632784	7.37607e+06	-56439.1	1055.82	-29738.9	0.000000	0.000000	6.632998	0.001157	NaN	0.000000	0.001667	0.001739	28.084	0.100804	0.001936	52.0797	-101.929	18.706	-0.061446	0.631379	-0.476364	-0.477769	0.001157	52.0797	-0.476381	-1.60267e+06	-7.219856E-10	NaN
1126	1.000000	0.642798	7.37607e+06	-56439.1	1055.82	-29738.9	0.000000	0.000000	6.643012	0.004369	NaN	0.000000	0.001679	0.001712	28.0839	0.144456	0.001971	73.3054	76.8297	-166.868	-0.003026	0.641439	-0.466350	-0.467708	0.004369	73.3054	-0.466395	-1.16098e+06	-3.763363E-9	NaN
1126	1.000000	0.652787	7.37607e+06	-56439.1	1055.82	-29738.9	0.000000	0.000000	6.653001	-0.007122	NaN	0.000000	0.001689	0.001720	28.0837	0.055113	0.002046	26.934	66.2048	15.0311	0.008781	0.651431	-0.456361	-0.457716	-0.007122	26.934	-0.456163	-833819	8.540939E-9	NaN
1126	1.000000	0.662806	7.37607e+06	-56439.1	1055.82	-29738.9	0.000000	0.000000	6.663019	-0.020015	NaN	0.000000	0.001681	0.001753	28.0837	0.032422	0.002000	16.2148	75.7703	-165.085	0.022373	0.661450	-0.446342	-0.447697	-0.020015	16.2148	-0.445416	-588517	3.400916E-8	NaN
1126	1.000000	0.672818	7.37607e+06	-56439.1	1055.82	-29738.9	0.000000	0.000000	6.673033	0.021904	NaN	0.000000	0.001611	0.001743	28.0839	0.028217	0.001905	14.8106	176.303	15.3907	-0.019776	0.671442	-0.436330	-0.437706	0.021904	14.8106	-0.437439	-454158	-4.823057E-8	NaN
1126	1.000000	0.682814	7.37607e+06	-56439.1	1055.82	-29738.9	0.000000	0.000000	6.683031	0.053161	NaN	0.000000	0.001585	0.001723	28.0837	0.027290	0.002004	13.6198	-18.358	-167.165	0.037073	0.681556	-0.426334	-0.427591	0.053161	13.6198	-0.429261	-348023	-1.527527E-7	NaN
1126	1.000000	0.692806	7.37607e+06	-56439.1	1055.82	-29738.9	0.000000	0.000000	6.693022	0.038474	NaN	0.000000	0.001589	0.001738	28.0838	0.039738	0.002045	19.4298	-123.665	17.5058	-0.010354	0.691431	-0.416341	-0.417717	0.038474	19.4298	-0.417827	-239652	-1.605406E-7	NaN
1126	1.000000	0.702812	7.37607e+06	-56439.1	1055.82	-29738.9	0.000000	0.000000	6.703031	0.118439	NaN	0.000000	0.001604	0.001727	28.0838	0.030669	0.001926	15.9195	5.715597	-166.188	0.059397	0.701497	-0.406336	-0.407651	0.118439	15.9195	-0.411916	-197532	-5.995926E-7	NaN
1126	1.000000	0.712817	7.37607e+06	-56439.1	1055.82	-29738.9	0.000000	0.000000	6.713032	0.003460	NaN	0.000000	0.001592	0.001709	28.0826	0.030556	0.001968	15.525	-80.3959	15.3803	-0.042200	0.711458	-0.396331	-0.397690	0.003460	15.525	-0.396498	-119130	-2.904476E-8	NaN
1126	1.000000	0.722800	7.37607e+06	-56439.1	1055.82	-29738.9	0.000000	0.000000	6.723016	0.020949	NaN	0.000000	0.001591	0.001736	28.0826	0.099392	0.001960	50.7197	-21.6436	-167.666	0.067141	0.721505	-0.386347	-0.387642	0.020949	50.7197	-0.386657	-86163.7	-2.431265E-7	NaN
1126	1.000000	0.732811	7.37607e+06	-56439.1	1055.82	-29738.9	0.000000	0.000000	6.733026	0.020029	NaN	0.000000	0.001631	0.001749	28.0823	0.064286	0.002003	32.0957	2.694250	11.3959	-0.009857	0.731457	-0.376337	-0.377690	0.020029	32.0957	-0.376805	-62231.4	-3.218454E-7	NaN
1126	1.000000	0.742812	7.37607e+06	-56439.1	1055.82	-29738.9	0.000000	0.000000	6.743027	0.000340	NaN	0.000000	0.001596	0.001690	28.0827	0.058551	0.001984	29.5171	-57.2461	-164.95	0.049180	0.741529	-0.366335	-0.367619	0.000340	29.5171	-0.366344	-43998.9	-7.723844E-9	NaN
1126	1.000000	0.752818	7.37607e+06	-56439.1	1055.82	-29738.9	0.000000	0.000000	6.753036	0.089233	NaN	0.000000	0.001614	0.001725	28.0824	0.070190	0.001916	36.6291	-31.6797	16.3461	0.154372	0.751486	-0.356330	-0.357661	0.089233	36.6291	-0.358157	-33511.2	-2.662794E-6	NaN
1126	1.000000	0.762852	7.37607e+06	-56439.1	1055.82	-29738.9	0.000000	0.000000	6.763066	-0.013044	NaN	0.000000	0.001596	0.001678	28.0828	0.036100	0.002070	17.4367	-72.413	-162.86	0.034754	0.761519	-0.346295	-0.347629	-0.013044	17.4367	-0.345734	-22132.8	5.893562E-7	NaN
1126	1.000000	0.772807	7.37607e+06	-56439.1	1055.82	-29738.9	0.000000	0.000000	6.773025	0.094753	NaN	0.000000	0.001624	0.001706	28.0826	0.037761	0.002011	18.7731	-140.331	15.2988	0.036186	0.771480	-0.336341	-0.337668	0.094753	18.7731	-0.340126	-18339.7	-5.166555E-6	NaN
1126	1.000000	0.782880	7.37607e+06	-56439.1	1055.82	-29738.9	0.000000	0.000000	6.783095	0.032518	NaN	0.000000	0.001589	0.001750	28.0826	0.068982	0.002069	33.3444	-64.6828	-164.052	-0.042870	0.781553	-0.326268	-0.327595	0.032518	33.3444	-0.326999	-11789	-2.758336E-6	NaN
1126	1.000000	0.792838	7.37607e+06	-56439.1	1055.82	-29738.9	0.000000	0.000000	6.793053	0.026311	NaN	0.000000	0.001550	0.001716	28.0823	0.024816	0.002059	12.0537	89.3961	15.2298	0.035664	0.791460	-0.316310	-0.317688	0.026311	12.0537	-0.317947	-8677.79	-3.031946E-6	NaN
1126	1.000000	0.802838	7.37607e+06	-56439.1	1055.82	-29738.9	0.000000	0.000000	6.803053	0.000445	NaN	0.000000	0.001554	0.001679	28.0826	0.018156	0.001935	9.381986	38.5105	-165.857	-0.082721	0.801580	-0.306309	-0.307567	0.000445	9.381986	-0.306345	-5846.68	-7.609466E-8	NaN
1126	1.000000	0.812858	7.37607e+06	-56439.1	1055.82	-29738.9	0.000000	0.000000	6.813075	0.069703	NaN	0.000000	0.001576	0.001698	28.0827	0.080810	0.001965	41.1165	-69.4241	15.3834	0.059759	0.811491	-0.296290	-0.297657	0.069703	41.1165	-0.297561	-4328.15	-1.610458E-5	NaN
1126	1.000000	0.822864	7.37607e+06	-56439.1	1055.82	-29738.9	0.000000	0.000000	6.823082	0.069103	NaN	0.000000	0.001583	0.001716	28.0826	0.056108	0.001943	28.8801	-113.728	-160.933	0.070233	0.821541	-0.286283	-0.287607	0.069103	28.8801	-0.288078	-3122.39	-2.213148E-5	NaN
1126	1.000000	0.832872	7.37607e+06	-56439.1	1055.82	-29738.9	0.000000	0.000000	6.833084	-0.045793	NaN	0.000000	0.001587	0.001700	28.082	0.104542	0.001957	53.4214	121.341	12.7336	-0.019259	0.831482	-0.276276	-0.277665	-0.045793	53.4214	-0.275633	-2027.6	2.258486E-5	NaN
1126	1.000000	0.842879	7.37607e+06	-56439.1	1055.82	-29738.9	0.000000	0.000000	6.843094	0.016204	NaN	0.000000	0.001561	0.001719	28.0836	0.092520	0.001983	46.6476	-26.8804	-160.998	0.076778	0.841532	-0.266269	-0.267616	0.016204	46.6476	-0.266530	-1474.75	-1.098780E-5	NaN
1126	1.000000	0.852911	7.37607e+06	-56439.1	1055.82	-29738.9	0.000000	0.000000	6.853125	-0.012995	NaN	0.000000	0.001576	0.001667	28.0837	0.063277	0.002147	29.4656	-36.3691	14.0338	0.068099	0.851490	-0.256237	-0.257658	-0.012995	29.4656	-0.255906	-1014.05	1.281481E-5	NaN
1126	1.000000	0.862852	7.37607e+06	-56439.1	1055.82	-29738.9	0.000000	0.000000	6.863065	-0.033207	NaN	0.000000	0.001592	0.001689	28.0836	0.090236	0.002062	43.7589	174.11	-166.614	0.022226	0.861563	-0.246295	-0.247585	-0.033207	43.7589	-0.245726	-705.888	4.704251E-5	NaN
1126	1.000000	0.872907	7.37607e+06	-56439.1	1055.82	-29738.9	0.000000	0.000000	6.873121	0.011317	NaN	0.000000	0.001538	0.001681	28.0836	0.066751	0.001947	34.2828	-32.3215	19.4192	0.022347	0.871501	-0.236241	-0.237647	0.011317	34.2828	-0.236489	-506.534	-2.234269E-5	NaN
1126	1.000000	0.882911	7.37607e+06	-56439.1	1055.82	-29738.9	0.000000	0.000000	6.883130	0.105351	NaN	0.000000	0.001573	0.001692	28.0838	0.042337	0.001980	21.3855	125.708	-166.93	0.015322	0.881560	-0.226237	-0.227588	0.105351	21.3855	-0.229931	-399.424	-0.000264	NaN
1126	1.000000	0.892883	7.37607e+06	-56439.1	1055.82	-29738.9	0.000000	0.000000	6.893099	0.041626	NaN	0.000000	0.001534	0.001679	28.0836	0.090087	0.002113	42.6418	49.5262	17.0685	0.038829	0.891523	-0.216265	-0.217625	0.041626	42.6418	-0.216997	-248.653	-0.000167	NaN
1126	1.000000	0.902891	7.37607e+06	-56439.1	1055.82	-29738.9	0.000000	0.000000	6.903106	0.032593	NaN	0.000000	0.001515	0.001667	28.0835	0.043539	0.002060	21.1352	6.568949	-162.578	0.055281	0.901538	-0.206257	-0.207610	0.032593	21.1352	-0.207414	-174.125	-0.000187	NaN
1126	1.000000	0.912912	7.37607e+06	-56439.1	1055.82	-29738.9	0.000000	0.000000	6.913125	-0.049128	NaN	0.000000	0.001525	0.001709	28.0836	0.073665	0.002140	34.4293	-125.285	14.4034	0.055290	0.911523	-0.196235	-0.197625	-0.049128	34.4293	-0.195165	-109.632	0.000448	NaN
1126	1.000000	0.922892	7.37607e+06	-56439.1	1055.82	-29738.9	0.000000	0.000000	6.923109	0.067100	NaN	0.000000	0.001502	0.001682	28.0839	0.061405	0.001870	32.8415	-132.979	-162.288	0.023940	0.921588	-0.186256	-0.187560	0.067100	32.8415	-0.187788	-82.6044	-0.000812	NaN
1126	1.000000	0.932890	7.37607e+06	-56439.1	1055.82	-29738.9	0.000000	0.000000	6.933106	0.047851	NaN	0.000000	0.001530	0.001698	28.0837	0.130048	0.001892	68.7258	89.3202	16.5921	0.003780	0.931537	-0.176258	-0.177611	0.047851	68.7258	-0.176780	-53.7672	-0.000890	NaN
1126	1.000000	0.942895	7.37607e+06	-56439.1	1055.82	-29738.9	0.000000	0.000000	6.943112	0.060754	NaN	0.000000	0.001574	0.001699	28.0838	0.090694	0.001939	46.7783	169.918	-165.844	0.060245	0.941647	-0.166253	-0.167500	0.060754	46.7783	-0.167227	-36.7545	-0.001653	NaN
1126	1.000000	0.952921	7.37607e+06	-56439.1	1055.82	-29738.9	0.000000	0.000000	6.953136	0.011538	NaN	0.000000	0.001560	0.001693	28.0842	0.099866	0.001953	51.1299	39.0784	17.1602	0.026264	0.951549	-0.156227	-0.157599	0.011538	51.1299	-0.156396	-23.6406	-0.000488	NaN
1126	1.000000	0.962904	7.37607e+06	-56439.1	1055.82	-29738.9	0.000000	0.000000	6.963118	-0.003880	NaN	0.000000	0.001531	0.001706	28.0838	0.049869	0.001936	25.7571	-27.8867	-168.495	0.034776	0.961633	-0.146244	-0.147514	-0.003880	25.7571	-0.146131	-15.3833	0.000252	NaN
1126	1.000000	0.972916	7.37607e+06	-56439.1	1055.82	-29738.9	0.000000	0.000000	6.973130	-0.011863	NaN	0.000000	0.001526	0.001705	28.0839	0.110358	0.002127	51.8919	-179.061	13.3996	0.015529	0.971508	-0.136232	-0.137640	-0.011863	51.8919	-0.136060	-9.965453	0.001190	NaN
1126	1.000000	0.982913	7.37607e+06	-56439.1	1055.82	-29738.9	0.000000	0.000000	6.983125	-0.048633	NaN	0.000000	0.001557	0.001725	28.0826	0.093575	0.002014	46.4555	-96.2116	-165.014	-0.035532	0.981618	-0.126235	-0.127530	-0.048633	46.4555	-0.125450	-6.207168	0.007835	NaN
1126	1.000000	0.992908	7.37607e+06	-56439.1	1055.82	-29738.9	0.000000	0.000000	6.993123	0.017778	NaN	0.000000	0.001531	0.001729	28.083	0.021985	0.002100	10.4698	-77.5638	12.6119	0.055611	0.991542	-0.116240	-0.117606	0.017778	10.4698	-0.117514	-4.301749	-0.004133	NaN
1126	1.000000	1.002892	7.37607e+06	-56439.1	1055.82	-29738.9	0.000000	0.000000	7.003107	0.007250	NaN	0.000000	0.001517	0.001682	28.0825	0.177857	0.002153	82.6191	145.04	-166.661	0.066416	1.001650	-0.106256	-0.107498	0.007250	82.6191	-0.106322	-2.509736	-0.002889	NaN
1126	1.000000	1.012926	7.37607e+06	-56439.1	1055.82	-29738.9	0.000000	0.000000	7.013143	0.055681	NaN	0.000000	0.001534	0.001710	28.0826	0.051489	0.002048	25.1451	-160.671	16.763	0.107600	1.011526	-0.096222	-0.097622	0.055681	25.1451	-0.097883	-1.638963	-0.033973	NaN
1126	1.000000	1.022943	7.37607e+06	-56439.1	1055.82	-29738.9	0.000000	0.000000	7.023159	0.022090	NaN	0.000000	0.001537	0.001723	28.0826	0.078201	0.002071	37.7634	124.429	-168.075	-0.019775	1.021610	-0.086204	-0.087538	0.022090	37.7634	-0.086643	-0.899995	-0.024544	NaN
1126	1.000000	1.032946	7.37607e+06	-56439.1	1055.82	-29738.9	0.000000	0.000000	7.033162	0.027671	NaN	0.000000	0.001594	0.001734	28.0827	0.113333	0.001991	56.9329	111.039	17.5025	0.022324	1.031550	-0.076202	-0.077598	0.027671	56.9329	-0.076566	-0.506782	-0.054601	NaN
1126	1.000000	1.042955	7.37607e+06	-56439.1	1055.82	-29738.9	0.000000	0.000000	7.043170	0.024685	NaN	0.000000	0.001569	0.001695	28.0826	0.086448	0.001910	45.2681	137.334	-163.539	-0.002797	1.041649	-0.066193	-0.067499	0.024685	45.2681	-0.066602	-0.275908	-0.089470	NaN
1126	1.000000	1.052929	7.37607e+06	-56439.1	1055.82	-29738.9	0.000000	0.000000	7.053145	0.050355	NaN	0.000000	0.001558	0.001716	28.0826	0.106058	0.001964	53.9988	156.863	15.6932	-0.002057	1.051626	-0.056219	-0.057521	0.050355	53.9988	-0.056919	-0.146638	-0.343396	NaN
1126	1.000000	1.062938	7.37607e+06	-56439.1	1055.82	-29738.9	0.000000	0.000000	7.063151	-0.026658	NaN	0.000000	0.001559	0.001693	28.0827	0.037320	0.001937	19.2639	-171.612	-168.078	0.038959	1.061648	-0.046210	-0.047500	-0.026658	19.2639	-0.045172	-0.065052	0.409792	NaN
1126	1.000000	1.072973	7.37607e+06	-56439.1	1055.82	-29738.9	0.000000	0.000000	7.073190	0.049986	NaN	0.000000	0.001556	0.001699	28.0828	0.077442	0.001853	41.7854	-124.181	14.424	0.017988	1.071559	-0.036175	-0.037588	0.049986	41.7854	-0.037072	-0.036899	-1.354695	NaN
1126	1.000000	1.082967	7.37607e+06	-56439.1	1055.82	-29738.9	0.000000	0.000000	7.083179	-0.053116	NaN	0.000000	0.001556	0.001694	28.0825	0.043149	0.002025	21.3069	81.7544	-164.794	-0.060599	1.081680	-0.026180	-0.027468	-0.053116	21.3069	-0.024311	-0.016188	3.281243	NaN
1126	1.000000	1.092941	7.37607e+06	-56439.1	1055.82	-29738.9	0.000000	0.000000	7.093156	0.013364	NaN	0.000000	0.001551	0.001690	28.0829	0.144128	0.002067	69.7227	-136.38	15.3198	-0.013549	1.091576	-0.016206	-0.017571	0.013364	69.7227	-0.016350	-0.010100	-1.323128	NaN
1126	1.000000	1.102962	7.37607e+06	-56439.1	1055.82	-29738.9	0.000000	0.000000	7.103178	0.020205	NaN	0.000000	0.001583	0.001720	28.0829	0.053767	0.001913	28.1125	126.583	-166.089	-0.026212	1.101661	-0.006185	-0.007487	0.020205	28.1125	-0.006724	-0.004475	-4.514690	NaN
1126	1.000000	1.112959	7.37607e+06	-56439.1	1055.82	-29738.9	0.000000	0.000000	7.113305	3.200177	NaN	0.000000	0.001584	0.001724	28.0828	3.973911	0.001801	2206.16	10.6318	11.5575	1.856942	1.111614	0.003812	0.002466	3.200177	2206.16	0.002724	0.002149	1489.42	43484.2
1126	2.000000	1.119503	7.37607e+06	-56439.1	1055.82	-29738.9	0.000000	0.000000	7.120106	9.436163	NaN	0.000000	0.001544	0.001699	28.0837	10.3475	0.001660	6233.7	5.184266	-170.778	8.847767	1.119277	0.010355	0.010129	9.436163	6233.7	0.009220	0.008328	1133.12	62410.8
1126	2.000000	1.122014	7.37607e+06	-56439.1	1055.82	-29738.9	0.000000	0.000000	7.122801	13.9396	NaN	0.000000	0.001542	0.001670	28.0846	12.9762	0.001582	8204.69	5.524801	6.823640	12.7034	1.121652	0.012866	0.012505	13.9396	8204.69	0.011592	0.011004	1266.73	71458.2
1126	2.000000	1.124459	7.37607e+06	-56439.1	1055.82	-29738.9	0.000000	0.000000	7.125377	17.0998	NaN	0.000000	0.001576	0.001671	28.0839	15.3294	0.001698	9028.34	7.333634	-175.433	16.4496	1.124195	0.015311	0.015047	17.0998	9028.34	0.013891	0.013835	1236.01	70128.7
1126	2.000000	1.126939	7.37607e+06	-56439.1	1055.82	-29738.9	0.000000	0.000000	7.128072	22.3328	NaN	0.000000	0.001579	0.001666	28.0844	18.9273	0.001860	10177.5	9.752050	-0.150250	21.1587	1.126602	0.017791	0.017455	22.3328	10177.5	0.016145	0.016843	1325.95	71648.4
1126	2.000000	1.129463	7.37607e+06	-56439.1	1055.82	-29738.9	0.000000	0.000000	7.130691	24.6494	NaN	0.000000	0.001558	0.001707	28.0838	20.9422	0.001717	12198.2	7.891308	-179.675	25.0634	1.129241	0.020315	0.020093	24.6494	12198.2	0.018800	0.020691	1191.31	77478
1126	2.000000	1.131963	7.37607e+06	-56439.1	1055.82	-29738.9	0.000000	0.000000	7.133483	31.7442	NaN	0.000000	0.001555	0.001668	28.0845	22.6588	0.001710	13251.6	6.737479	2.807734	31.7527	1.131583	0.022815	0.022436	31.7442	13251.6	0.021019	0.024168	1313.47	77878.9
1126	2.000000	1.134388	7.37607e+06	-56439.1	1055.82	-29738.9	0.000000	0.000000	7.136043	35.0351	NaN	0.000000	0.001568	0.001695	28.0838	26.0134	0.001833	14193.1	9.467062	177.625	33.7745	1.134116	0.025240	0.024969	35.0351	14193.1	0.023388	0.028149	1244.63	77289.1
1126	2.000000	1.136902	7.37607e+06	-56439.1	1055.82	-29738.9	0.000000	0.000000	7.138691	38.262	NaN	0.000000	0.001593	0.001700	28.0849	27.8819	0.001709	16310.4	1.876462	3.841291	36.8785	1.136624	0.027754	0.027477	38.262	16310.4	0.025995	0.032850	1164.74	82218.4
1126	2.000000	1.139392	7.37607e+06	-56439.1	1055.82	-29738.9	0.000000	0.000000	7.141480	45.5486	NaN	0.000000	0.001588	0.001716	28.0838	31.3521	0.001905	16460.8	5.704703	-179.283	44.931	1.139214	0.030244	0.030067	45.5486	16460.8	0.028168	0.037033	1229.94	78150.2
1126	2.000000	1.141859	7.37607e+06	-56439.1	1055.82	-29738.9	0.000000	0.000000	7.144366	55.7447	NaN	0.000000	0.001569	0.001689	28.0854	32.6789	0.001694	19287.9	2.493739	2.018479	52.4138	1.141502	0.032711	0.032354	55.7447	19287.9	0.030543	0.041877	1331.15	86113.1
1126	2.000000	1.144345	7.37607e+06	-56439.1	1055.82	-29738.9	0.000000	0.000000	7.147254	65.5136	NaN	0.000000	0.001533	0.001731	28.0836	33.1395	0.001587	20880.8	1.242104	-177.263	62.5745	1.144075	0.035197	0.034927	65.5136	20880.8	0.032844	0.046845	1398.53	88143.6
1126	2.000000	1.146863	7.37607e+06	-56439.1	1055.82	-29738.9	0.000000	0.000000	7.150055	72.3788	NaN	0.000000	0.001580	0.001689	28.0838	37.5581	0.001785	21042.3	8.912902	-5.666699	69.4087	1.146499	0.037715	0.037351	72.3788	21042.3	0.035136	0.052062	1390.24	84257
1126	2.000000	1.149344	7.37607e+06	-56439.1	1055.82	-29738.9	0.000000	0.000000	7.152886	80.8912	NaN	0.000000	0.001559	0.001684	28.0837	40.4152	0.001853	21811.9	4.598801	178.193	78.1744	1.149049	0.040196	0.039901	80.8912	21811.9	0.037414	0.057517	1406.39	83093.9
1126	2.000000	1.151848	7.37607e+06	-56439.1	1055.82	-29738.9	0.000000	0.000000	7.155624	86.567	NaN	0.000000	0.001572	0.001684	28.0833	42.0079	0.001756	23921.6	5.374522	-2.094716	81.8301	1.151445	0.042700	0.042297	86.567	23921.6	0.039986	0.063992	1352.78	86397.2
1126	2.000000	1.154283	7.37607e+06	-56439.1	1055.82	-29738.9	0.000000	0.000000	7.158473	96.647	NaN	0.000000	0.001530	0.001743	28.0822	44.6217	0.001846	24176.3	4.562813	179.057	92.4272	1.153995	0.045135	0.044847	96.647	24176.3	0.042137	0.069667	1387.28	83685.6
1126	2.000000	1.156881	7.37607e+06	-56439.1	1055.82	-29738.9	0.000000	0.000000	7.161419	105.075	NaN	0.000000	0.001594	0.001684	28.0825	47.1522	0.001737	27146.2	3.391048	-2.000659	100.985	1.156488	0.047734	0.047340	105.075	27146.2	0.044831	0.077107	1362.71	89317.1
1126	2.000000	1.159352	7.37607e+06	-56439.1	1055.82	-29738.9	0.000000	0.000000	7.164266	114.215	NaN	0.000000	0.001565	0.001713	28.0822	51.0891	0.001868	27342.4	7.041506	174.82	113.322	1.159095	0.050205	0.049947	114.215	27342.4	0.047072	0.083577	1366.58	86410.4
1126	2.000000	1.161942	7.37607e+06	-56439.1	1055.82	-29738.9	0.000000	0.000000	7.167204	122.69	NaN	0.000000	0.001606	0.001710	28.0824	52.2555	0.001881	27787.3	5.250794	-2.639595	123.553	1.161480	0.052794	0.052332	122.69	27787.3	0.049483	0.090822	1350.89	84241.4
1126	2.000000	1.164336	7.37607e+06	-56439.1	1055.82	-29738.9	0.000000	0.000000	7.170278	139.212	NaN	0.000000	0.001625	0.001684	28.0823	53.6651	0.001765	30411	4.538409	176.954	137.145	1.163997	0.055188	0.054849	139.212	30411	0.051755	0.097915	1421.77	88793.4
1126	2.000000	1.166803	7.37607e+06	-56439.1	1055.82	-29738.9	0.000000	0.000000	7.173141	148.86	NaN	0.000000	0.001612	0.001723	28.0829	57.2135	0.001837	31144.2	8.298402	-7.738254	144.173	1.166426	0.057655	0.057278	148.86	31144.2	0.054070	0.105408	1412.23	87642.2
1126	2.000000	1.169372	7.37607e+06	-56439.1	1055.82	-29738.9	0.000000	0.000000	7.176197	160.683	NaN	0.000000	0.001614	0.001718	28.0827	59.5657	0.001891	31503.4	7.319525	173.937	160.953	1.168972	0.060224	0.059824	160.683	31503.4	0.056399	0.113212	1419.31	85543
1126	2.000000	1.171857	7.37607e+06	-56439.1	1055.82	-29738.9	0.000000	0.000000	7.179225	173.902	NaN	0.000000	0.001590	0.001730	28.0823	61.4224	0.001842	33344.8	5.788115	-5.751107	169.47	1.171477	0.062709	0.062329	173.902	33344.8	0.058797	0.121531	1430.92	87389.1
1126	2.000000	1.174344	7.37607e+06	-56439.1	1055.82	-29738.9	0.000000	0.000000	7.182192	185.567	NaN	0.000000	0.001578	0.001726	28.0822	63.1537	0.001665	37937.6	3.886817	174.588	185.219	1.174014	0.065196	0.064867	185.567	37937.6	0.061527	0.131342	1412.86	95640.5
1126	2.000000	1.176910	7.37607e+06	-56439.1	1055.82	-29738.9	0.000000	0.000000	7.185140	194.828	NaN	0.000000	0.001603	0.001674	28.0825	67.2734	0.001771	37994.8	6.216749	-7.973896	195.623	1.176576	0.067762	0.067428	194.828	37994.8	0.063916	0.140225	1389.39	92701
1126	2.000000	1.179289	7.37607e+06	-56439.1	1055.82	-29738.9	0.000000	0.000000	7.187963	205.612	NaN	0.000000	0.001608	0.001709	28.0824	69.3458	0.001811	38285.9	2.579304	175.763	202.355	1.179133	0.070142	0.069985	205.612	38285.9	0.066114	0.148640	1383.29	90728.8
1126	2.000000	1.181852	7.37607e+06	-56439.1	1055.82	-29738.9	0.000000	0.000000	7.191444	227.924	NaN	0.000000	0.001599	0.001725	28.0826	71.2948	0.001862	38293.9	4.628243	-5.912347	223.854	1.181383	0.072704	0.072235	227.924	38293.9	0.068240	0.157004	1451.71	88297.2
1126	2.000000	1.184343	7.37607e+06	-56439.1	1055.82	-29738.9	0.000000	0.000000	7.194454	240.563	NaN	0.000000	0.001590	0.001709	28.0825	72.6174	0.001761	41231.3	2.720476	174.623	238.015	1.183936	0.075195	0.074788	240.563	41231.3	0.070819	0.167437	1436.74	92060.7
1126	2.000000	1.186827	7.37607e+06	-56439.1	1055.82	-29738.9	0.000000	0.000000	7.197511	254.493	NaN	0.000000	0.001591	0.001684	28.0841	77.1102	0.001795	42968.9	8.982835	-11.6883	252.578	1.186491	0.077679	0.077343	254.493	42968.9	0.073237	0.177504	1433.73	93180.3
1126	2.000000	1.189374	7.37607e+06	-56439.1	1055.82	-29738.9	0.000000	0.000000	7.200443	263.836	NaN	0.000000	0.001560	0.001704	28.0835	79.1424	0.001822	43440.5	3.819815	172.858	264.511	1.189123	0.080227	0.079975	263.836	43440.5	0.075671	0.187921	1403.97	91554.7
1126	2.000000	1.191853	7.37607e+06	-56439.1	1055.82	-29738.9	0.000000	0.000000	7.203668	281.986	NaN	0.000000	0.001542	0.001655	28.0833	80.6556	0.001850	43603.4	3.881550	-6.663514	279.311	1.191537	0.082705	0.082390	281.986	43603.4	0.077854	0.197499	1427.79	89642
1126	2.000000	1.194362	7.37607e+06	-56439.1	1055.82	-29738.9	0.000000	0.000000	7.206819	297.59	NaN	0.000000	0.001577	0.001673	28.0836	82.9303	0.001833	45231.5	5.069424	171.404	296.939	1.194007	0.085214	0.084859	297.59	45231.5	0.080280	0.208400	1427.97	90524.4
1126	2.000000	1.196733	7.37607e+06	-56439.1	1055.82	-29738.9	0.000000	0.000000	7.209961	316.316	NaN	0.000000	0.001558	0.001709	28.0836	85.1184	0.001778	47885.9	3.638867	-7.351783	309.468	1.196382	0.087585	0.087234	316.316	47885.9	0.082631	0.219231	1442.85	93439.4
1126	2.000000	1.199272	7.37607e+06	-56439.1	1055.82	-29738.9	0.000000	0.000000	7.212794	323.479	NaN	0.000000	0.001571	0.001700	28.0837	87.8486	0.001749	50229.6	0.578553	174.999	320.2	1.199142	0.090124	0.089994	323.479	50229.6	0.085294	0.231805	1395.48	95317.3
1126	2.000000	1.201834	7.37607e+06	-56439.1	1055.82	-29738.9	0.000000	0.000000	7.216379	348.338	NaN	0.000000	0.001599	0.001650	28.0837	90.6368	0.001851	48978.3	5.751790	-9.849291	345.087	1.201555	0.092686	0.092407	348.338	48978.3	0.087352	0.241751	1440.9	91010.9
1126	2.000000	1.204199	7.37607e+06	-56439.1	1055.82	-29738.9	0.000000	0.000000	7.219319	362.301	NaN	0.000000	0.001595	0.001642	28.084	91.6741	0.001791	51175.8	0.504983	175.056	355.423	1.203947	0.095051	0.094799	362.301	51175.8	0.089742	0.253539	1428.97	92857
1126	2.000000	1.206704	7.37607e+06	-56439.1	1055.82	-29738.9	0.000000	0.000000	7.222705	383.709	NaN	0.000000	0.001590	0.001695	28.0838	94.8828	0.001780	53301.2	7.719303	-11.6704	374.199	1.206219	0.097556	0.097071	383.709	53301.2	0.092157	0.265723	1444.02	94470.4
1126	2.000000	1.209304	7.37607e+06	-56439.1	1055.82	-29738.9	0.000000	0.000000	7.226281	407.447	NaN	0.000000	0.001593	0.001650	28.0839	98.5069	0.001848	53302.2	7.292040	168.628	405.582	1.208882	0.100156	0.099734	407.447	53302.2	0.094423	0.277394	1468.84	92463.4
1126	2.000000	1.211732	7.37607e+06	-56439.1	1055.82	-29738.9	0.000000	0.000000	7.229473	426.024	NaN	0.000000	0.001579	0.001691	28.0838	99.1295	0.001688	58733.5	6.150580	-11.2082	416.589	1.211295	0.102584	0.102147	426.024	58733.5	0.097144	0.291719	1460.39	99352
1126	2.000000	1.214208	7.37607e+06	-56439.1	1055.82	-29738.9	0.000000	0.000000	7.232421	437.487	NaN	0.000000	0.001639	0.001657	28.0837	101.018	0.001730	58383	2.769298	171.742	431.217	1.214016	0.105060	0.104869	437.487	58383	0.099440	0.304069	1438.78	96732.7
1126	2.000000	1.216785	7.37607e+06	-56439.1	1055.82	-29738.9	0.000000	0.000000	7.235933	460.211	NaN	0.000000	0.001614	0.001715	28.0837	105.314	0.001895	55572.2	6.989052	-11.7034	456.694	1.216425	0.107637	0.107277	460.211	55572.2	0.101426	0.314948	1461.23	90471.4