File: remote_trans/data/nanoindenter/0828-1/data/Data_2025-08-06,11h17m57s/2025-07-22_16-23-58_1_334.txt
2025-07-22, 16:23:58, 1
Index	Phase	Displacement	Time	Pos X	Pos Y	Pos Z	Rot A	Rot B	Piezo Z	Force A	Force B	Gripper	Voltage A	Voltage B	Temperature	Amplitude force	Amplitude pos	Stiffness	Phase shift	Phase excitation	Force A raw	Displacement raw	HMax	HMax raw	Real Force	Real Stiffness	Contact Depth	Area	Hardness	Reduced Mod.
[#]	[#]	[um]	[s]	[um]	[um]	[um]	[m°]	[m°]	[um]	[uN]	[uN]	[V]	[V]	[V]	[°C]	[uN]	[um]	[N/m]	[°]	[°]	[uN]	[um]	[um]	[um]	[uN]	[N/m]	[um]	[um^2]	[MPa]	[MPa]
334	1.000000	0.002307	7.36833e+06	-55339.1	955.818	-29742	0.000000	0.000000	6.002823	0.015704	NaN	0.000000	0.001566	0.001629	28.081	0.046380	0.000876	52.9585	166.958	-167.874	-0.017232	0.000965	-1.027296	-1.028638	0.015704	52.9585	-1.027519	-5.322372E+13	-2.950590E-16	NaN
334	1.000000	0.010237	7.36833e+06	-55339.1	955.819	-29742	0.000000	0.000000	6.010752	-0.023667	NaN	0.000000	0.001581	0.001636	28.0806	0.051399	0.000901	57.063	-59.3526	-157.407	0.007766	0.008933	-1.019366	-1.020670	-0.023667	57.063	-1.019055	-4.094821E+13	5.779858E-16	NaN
334	1.000000	0.018252	7.36833e+06	-55339.1	955.819	-29742	0.000000	0.000000	6.018766	-0.045870	NaN	0.000000	0.001567	0.001673	28.0807	0.047592	0.001702	27.9575	-57.1693	-168.757	0.000292	0.016903	-1.011351	-1.012701	-0.045870	27.9575	-1.010120	-3.104586E+13	1.477497E-15	NaN
334	1.000000	0.026287	7.36833e+06	-55339.1	955.819	-29742	0.000000	0.000000	6.026798	-0.099737	NaN	0.000000	0.001619	0.001645	28.0805	0.090285	0.001846	48.9124	-44.8858	-165.138	-0.037845	0.024962	-1.003317	-1.004642	-0.099737	48.9124	-1.001787	-2.397900E+13	4.159338E-15	NaN
334	1.000000	0.034220	7.36833e+06	-55339.1	955.819	-29742	0.000000	0.000000	6.034735	0.005304	NaN	0.000000	0.001560	0.001646	28.0803	0.050523	0.001864	27.0981	-145.067	-165.172	-0.094186	0.032902	-0.995383	-0.996701	0.005304	27.0981	-0.995530	-1.975083E+13	-2.685349E-16	NaN
334	1.000000	0.042222	7.36833e+06	-55339.1	955.819	-29742	0.000000	0.000000	6.042735	-0.058493	NaN	0.000000	0.001563	0.001660	28.0804	0.036360	0.001973	18.4324	-173.267	-164.59	0.045178	0.040877	-0.987382	-0.988726	-0.058493	18.4324	-0.985002	-1.424917E+13	4.105022E-15	NaN
334	1.000000	0.050210	7.36833e+06	-55339.1	955.82	-29742	0.000000	0.000000	6.050723	-0.060558	NaN	0.000000	0.001564	0.001665	28.0803	0.016475	0.002026	8.132503	172.177	-163.204	-0.048240	0.048931	-0.979393	-0.980672	-0.060558	8.132503	-0.973808	-1.006892E+13	6.014355E-15	NaN
334	1.000000	0.058229	7.36833e+06	-55339.1	955.819	-29742	0.000000	0.000000	6.058745	0.009312	NaN	0.000000	0.001575	0.001657	28.0807	0.025676	0.002058	12.4765	-85.3506	-167.009	-0.036194	0.056891	-0.971374	-0.972712	0.009312	12.4765	-0.971934	-9.500069E+12	-9.802470E-16	NaN
334	1.000000	0.066254	7.36833e+06	-55339.1	955.819	-29742	0.000000	0.000000	6.066768	-0.038515	NaN	0.000000	0.001556	0.001639	28.0807	0.048747	0.002038	23.9173	158.242	-167.628	-0.067858	0.064950	-0.963349	-0.964653	-0.038515	23.9173	-0.962141	-7.010325E+12	5.494076E-15	NaN
334	1.000000	0.074230	7.36833e+06	-55339.1	955.818	-29742	0.000000	0.000000	6.074745	-0.008610	NaN	0.000000	0.001555	0.001650	28.0806	0.071559	0.001896	37.7383	-123.692	-162.911	0.010075	0.072865	-0.955373	-0.956738	-0.008610	37.7383	-0.955202	-5.651647E+12	1.523538E-15	NaN
334	1.000000	0.082241	7.36833e+06	-55339.1	955.818	-29742	0.000000	0.000000	6.082757	0.010017	NaN	0.000000	0.001536	0.001639	28.0797	0.149897	0.001935	77.4478	43.5981	-163.01	0.025231	0.080975	-0.947362	-0.948628	0.010017	77.4478	-0.947459	-4.443848E+12	-2.254111E-15	NaN
334	1.000000	0.090232	7.36833e+06	-55339.1	955.818	-29742	0.000000	0.000000	6.090747	-0.023678	NaN	0.000000	0.001585	0.001659	28.0793	0.021317	0.001899	11.2269	-103.392	-163.485	-0.070542	0.088943	-0.939371	-0.940661	-0.023678	11.2269	-0.937789	-3.290842E+12	7.195097E-15	NaN
334	1.000000	0.098278	7.36833e+06	-55339.1	955.818	-29742	0.000000	0.000000	6.098796	0.060065	NaN	0.000000	0.001576	0.001673	28.0793	0.129615	0.001946	66.6127	151.037	-164.062	0.051447	0.096915	-0.931325	-0.932688	0.060065	66.6127	-0.932001	-2.749203E+12	-2.184824E-14	NaN
334	1.000000	0.106255	7.36833e+06	-55339.1	955.82	-29742	0.000000	0.000000	6.106771	0.003590	NaN	0.000000	0.001545	0.001655	28.0793	0.061979	0.001988	31.1709	117.186	-163.712	0.034992	0.104948	-0.923348	-0.924655	0.003590	31.1709	-0.923434	-2.106547E+12	-1.704305E-15	NaN
334	1.000000	0.114263	7.36833e+06	-55339.1	955.819	-29742	0.000000	0.000000	6.114778	-0.004492	NaN	0.000000	0.001583	0.001621	28.0795	0.036243	0.002065	17.5467	-121.388	-164.119	-0.023835	0.113006	-0.915340	-0.916597	-0.004492	17.5467	-0.915148	-1.628131E+12	2.759267E-15	NaN
334	1.000000	0.122269	7.36833e+06	-55339.1	955.82	-29742	0.000000	0.000000	6.122784	-0.010177	NaN	0.000000	0.001588	0.001631	28.0797	0.134656	0.001888	71.3195	64.5036	-166.164	-0.067083	0.120959	-0.907335	-0.908645	-0.010177	71.3195	-0.907228	-1.272665E+12	7.996576E-15	NaN
334	1.000000	0.130233	7.36833e+06	-55339.1	955.82	-29742	0.000000	0.000000	6.130749	0.018765	NaN	0.000000	0.001532	0.001642	28.0792	0.219814	0.001990	110.486	138.813	-167.45	0.030784	0.128926	-0.899370	-0.900677	0.018765	110.486	-0.899498	-1.000637E+12	-1.875331E-14	NaN
334	1.000000	0.138262	7.36833e+06	-55339.1	955.819	-29742	0.000000	0.000000	6.138775	-0.075958	NaN	0.000000	0.001590	0.001647	28.0792	0.063232	0.002010	31.4522	-122.433	-164.809	-0.097265	0.136915	-0.891341	-0.892688	-0.075958	31.4522	-0.889530	-7.337673E+11	1.035172E-13	NaN
334	1.000000	0.146285	7.36833e+06	-55339.1	955.818	-29742	0.000000	0.000000	6.146799	-0.050259	NaN	0.000000	0.001605	0.001646	28.0794	0.067910	0.002070	32.8144	136.085	-165.878	-0.082686	0.144986	-0.883318	-0.884617	-0.050259	32.8144	-0.882169	-5.835001E+11	8.613444E-14	NaN
334	1.000000	0.154261	7.36833e+06	-55339.1	955.819	-29742	0.000000	0.000000	6.154776	0.002241	NaN	0.000000	0.001599	0.001672	28.0794	0.092934	0.002076	44.7759	-27.8544	-165.115	0.048429	0.152969	-0.875343	-0.876635	0.002241	44.7759	-0.875380	-4.723092E+11	-4.743786E-15	NaN
334	1.000000	0.162281	7.36833e+06	-55339.1	955.819	-29742	0.000000	0.000000	6.162796	-0.008096	NaN	0.000000	0.001609	0.001646	28.0795	0.029978	0.001953	15.35	168.156	-165.293	0.021570	0.160985	-0.867322	-0.868618	-0.008096	15.35	-0.866926	-3.629575E+11	2.230695E-14	NaN
334	1.000000	0.170268	7.36833e+06	-55339.1	955.819	-29742	0.000000	0.000000	6.170785	0.053672	NaN	0.000000	0.001617	0.001628	28.0792	0.074397	0.002172	34.25	140.991	-164.231	-0.007104	0.168998	-0.859336	-0.860606	0.053672	34.25	-0.860511	-2.971919E+11	-1.805972E-13	NaN
334	1.000000	0.178284	7.36833e+06	-55339.1	955.818	-29742	0.000000	0.000000	6.178797	-0.045994	NaN	0.000000	0.001669	0.001645	28.0794	0.039352	0.001900	20.7131	86.7274	-165.962	-0.001034	0.176936	-0.851320	-0.852667	-0.045994	20.7131	-0.849654	-2.118625E+11	2.170922E-13	NaN
334	1.000000	0.186281	7.36833e+06	-55339.1	955.818	-29742	0.000000	0.000000	6.186795	-0.045998	NaN	0.000000	0.001682	0.001633	28.0791	0.041885	0.002065	20.2856	43.5017	-164.257	-0.009630	0.185010	-0.843322	-0.844593	-0.045998	20.2856	-0.841621	-1.649133E+11	2.789244E-13	NaN
334	1.000000	0.194280	7.36833e+06	-55339.1	955.818	-29742	0.000000	0.000000	6.194794	-0.039448	NaN	0.000000	0.001657	0.001591	28.0793	0.082171	0.002131	38.552	-85.022	-162.101	0.018933	0.192953	-0.835323	-0.836650	-0.039448	38.552	-0.834555	-1.322882E+11	2.981971E-13	NaN
334	1.000000	0.202310	7.36833e+06	-55339.1	955.819	-29742.1	0.000000	0.000000	6.202825	-0.005597	NaN	0.000000	0.001691	0.001608	28.0794	0.032440	0.001986	16.331	52.826	-162.65	0.006128	0.200977	-0.827293	-0.828626	-0.005597	16.331	-0.827036	-1.046189E+11	5.349424E-14	NaN
334	1.000000	0.210295	7.36833e+06	-55339.1	955.819	-29742.1	0.000000	0.000000	6.210809	-0.035306	NaN	0.000000	0.001661	0.001624	28.0794	0.076964	0.001936	39.7604	63.8408	-165.922	-0.017568	0.209005	-0.819308	-0.820598	-0.035306	39.7604	-0.818642	-8.049975E+10	4.385816E-13	NaN
334	1.000000	0.218279	7.36833e+06	-55339.1	955.818	-29742.1	0.000000	0.000000	6.218793	-0.018558	NaN	0.000000	0.001600	0.001602	28.0806	0.035722	0.002057	17.3684	40.5784	-163.434	-0.045363	0.217030	-0.811325	-0.812573	-0.018558	17.3684	-0.810523	-6.246991E+10	2.970765E-13	NaN
334	1.000000	0.226323	7.36833e+06	-55339.1	955.819	-29742.1	0.000000	0.000000	6.226835	-0.076033	NaN	0.000000	0.001626	0.001602	28.0807	0.052251	0.001872	27.9167	125.792	-162.724	-0.094563	0.224954	-0.803280	-0.804649	-0.076033	27.9167	-0.801238	-4.673709E+10	1.626823E-12	NaN
334	1.000000	0.234302	7.36833e+06	-55339.1	955.819	-29742.1	0.000000	0.000000	6.234815	-0.061997	NaN	0.000000	0.001626	0.001625	28.0807	0.053566	0.001917	27.9473	-133.457	-163.372	-0.063230	0.233060	-0.795301	-0.796543	-0.061997	27.9473	-0.793637	-3.685346E+10	1.682261E-12	NaN
334	1.000000	0.242288	7.36833e+06	-55339.1	955.818	-29742.1	0.000000	0.000000	6.242806	0.052460	NaN	0.000000	0.001576	0.001623	28.0806	0.031461	0.002001	15.7225	-47.0744	-166.162	0.017291	0.241029	-0.787315	-0.788574	0.052460	15.7225	-0.789818	-3.270454E+10	-1.604057E-12	NaN
334	1.000000	0.250311	7.36833e+06	-55339.1	955.818	-29742.1	0.000000	0.000000	6.250827	0.029297	NaN	0.000000	0.001599	0.001645	28.0806	0.090386	0.001966	45.9655	175.291	-166.123	0.019507	0.249036	-0.779292	-0.780567	0.029297	45.9655	-0.779770	-2.388427E+10	-1.226605E-12	NaN
334	1.000000	0.258327	7.36833e+06	-55339.1	955.819	-29742.1	0.000000	0.000000	6.258839	-0.085173	NaN	0.000000	0.001583	0.001649	28.0808	0.032524	0.001978	16.4461	-80.1402	-162.036	-0.091770	0.257061	-0.771276	-0.772542	-0.085173	16.4461	-0.767392	-1.621220E+10	5.253617E-12	NaN
334	1.000000	0.266309	7.36833e+06	-55339.1	955.818	-29742.1	0.000000	0.000000	6.266823	-0.045592	NaN	0.000000	0.001543	0.001628	28.0807	0.041082	0.002065	19.898	30.645	-163.311	-0.052807	0.264988	-0.763294	-0.764615	-0.045592	19.898	-0.761575	-1.351245E+10	3.374070E-12	NaN
334	1.000000	0.274304	7.36833e+06	-55339.1	955.818	-29742.1	0.000000	0.000000	6.274820	0.003812	NaN	0.000000	0.001622	0.001625	28.0804	0.041757	0.002007	20.8011	-158.451	-165.257	-0.028978	0.273055	-0.755299	-0.756548	0.003812	20.8011	-0.755437	-1.114843E+10	-3.419146E-13	NaN
334	1.000000	0.282325	7.36833e+06	-55339.1	955.818	-29742.1	0.000000	0.000000	6.282838	-0.052920	NaN	0.000000	0.001605	0.001619	28.0804	0.073312	0.001929	38.0037	151.189	-160.906	-0.041060	0.281047	-0.747278	-0.748556	-0.052920	38.0037	-0.746234	-8.354994E+9	6.333995E-12	NaN
334	1.000000	0.290340	7.36833e+06	-55339.1	955.819	-29742.1	0.000000	0.000000	6.290854	-0.041600	NaN	0.000000	0.001578	0.001676	28.0806	0.101524	0.001950	52.0511	73.3206	-165.347	-0.004845	0.289044	-0.739263	-0.740559	-0.041600	52.0511	-0.738664	-6.589509E+9	6.313138E-12	NaN
334	1.000000	0.298384	7.36833e+06	-55339.1	955.819	-29742.1	0.000000	0.000000	6.298901	0.040562	NaN	0.000000	0.001609	0.001644	28.0805	0.026156	0.001935	13.5194	115.015	-165.665	0.081634	0.297063	-0.731220	-0.732540	0.040562	13.5194	-0.733470	-5.598797E+9	-7.244770E-12	NaN
334	1.000000	0.306349	7.36833e+06	-55339.1	955.818	-29742.1	0.000000	0.000000	6.306865	0.000290	NaN	0.000000	0.001589	0.001651	28.0807	0.060306	0.002024	29.7931	-128.239	-164.286	-0.039402	0.305030	-0.723254	-0.724573	0.000290	29.7931	-0.723261	-4.063940E+9	-7.127773E-14	NaN
334	1.000000	0.314313	7.36833e+06	-55339.1	955.82	-29742.1	0.000000	0.000000	6.314826	-0.061714	NaN	0.000000	0.001607	0.001634	28.0808	0.065603	0.002038	32.1951	-35.6009	-165.751	-0.098743	0.313011	-0.715290	-0.716592	-0.061714	32.1951	-0.713852	-3.024222E+9	2.040649E-11	NaN
334	1.000000	0.322360	7.36833e+06	-55339.1	955.818	-29742.1	0.000000	0.000000	6.322877	0.025545	NaN	0.000000	0.001600	0.001623	28.0807	0.083858	0.002118	39.6004	151.066	-159.628	-0.008844	0.321005	-0.707243	-0.708598	0.025545	39.6004	-0.707727	-2.494714E+9	-1.023972E-11	NaN
334	1.000000	0.330370	7.36833e+06	-55339.1	955.818	-29742.1	0.000000	0.000000	6.330884	-0.028372	NaN	0.000000	0.001545	0.001633	28.081	0.101399	0.002063	49.1535	140.449	-165.832	-0.062425	0.329039	-0.699233	-0.700565	-0.028372	49.1535	-0.698800	-1.884298E+9	1.505729E-11	NaN
334	1.000000	0.338361	7.36833e+06	-55339.1	955.819	-29742.1	0.000000	0.000000	6.338874	-0.051727	NaN	0.000000	0.001568	0.001652	28.0808	0.050468	0.001880	26.8374	-173.777	-166.937	-0.013462	0.337084	-0.691242	-0.692519	-0.051727	26.8374	-0.689797	-1.419506E+9	3.643991E-11	NaN
334	1.000000	0.346385	7.36833e+06	-55339.1	955.819	-29742.1	0.000000	0.000000	6.346900	-0.017985	NaN	0.000000	0.001574	0.001636	28.0808	0.066143	0.001907	34.6816	-140.192	-164.179	0.012822	0.345078	-0.683218	-0.684526	-0.017985	34.6816	-0.682829	-1.139967E+9	1.577683E-11	NaN
334	1.000000	0.354347	7.36833e+06	-55339.1	955.819	-29742.1	0.000000	0.000000	6.354863	0.005448	NaN	0.000000	0.001559	0.001684	28.0797	0.034581	0.002047	16.8934	11.0434	-164.451	-0.063402	0.353085	-0.675256	-0.676518	0.005448	16.8934	-0.675498	-9.049399E+8	-6.020091E-12	NaN
334	1.000000	0.362368	7.36833e+06	-55339.1	955.818	-29742.1	0.000000	0.000000	6.362883	-0.015047	NaN	0.000000	0.001579	0.001656	28.0794	0.008122	0.002057	3.948406	4.969496	-164.258	-0.071187	0.361029	-0.667235	-0.668575	-0.015047	3.948406	-0.664377	-6.373982E+8	2.360667E-11	NaN
334	1.000000	0.370385	7.36833e+06	-55339.1	955.819	-29742.1	0.000000	0.000000	6.370899	-0.027423	NaN	0.000000	0.001576	0.001673	28.0796	0.027718	0.001964	14.1112	-136.984	-164.347	-0.005923	0.369030	-0.659218	-0.660574	-0.027423	14.1112	-0.657761	-5.173642E+8	5.300601E-11	NaN
334	1.000000	0.378373	7.36833e+06	-55339.1	955.818	-29742.1	0.000000	0.000000	6.378886	-0.056574	NaN	0.000000	0.001557	0.001684	28.0795	0.036560	0.001888	19.3601	-63.5401	-163.561	-0.041320	0.377027	-0.651231	-0.652576	-0.056574	19.3601	-0.649039	-3.928818E+8	1.439971E-10	NaN
334	1.000000	0.386411	7.36833e+06	-55339.1	955.819	-29742.1	0.000000	0.000000	6.386929	0.069711	NaN	0.000000	0.001569	0.001676	28.0794	0.081614	0.001985	41.1122	-123.544	-164.552	0.054402	0.385060	-0.643193	-0.644543	0.069711	41.1122	-0.644464	-3.400415E+8	-2.050076E-10	NaN
334	1.000000	0.394383	7.36833e+06	-55339.1	955.818	-29742.1	0.000000	0.000000	6.394900	0.026266	NaN	0.000000	0.001582	0.001660	28.0796	0.030852	0.002196	14.0487	-168.018	-164.827	0.015430	0.393100	-0.635220	-0.636503	0.026266	14.0487	-0.636622	-2.654219E+8	-9.895795E-11	NaN
334	1.000000	0.402406	7.36833e+06	-55339.1	955.819	-29742.1	0.000000	0.000000	6.402920	-0.044994	NaN	0.000000	0.001554	0.001669	28.0796	0.117420	0.001952	60.1509	145.718	-165.698	-0.016384	0.401051	-0.627197	-0.628552	-0.044994	60.1509	-0.626636	-1.935630E+8	2.324496E-10	NaN
334	1.000000	0.410366	7.36833e+06	-55339.1	955.818	-29742.1	0.000000	0.000000	6.410881	-0.012988	NaN	0.000000	0.001536	0.001686	28.0805	0.089017	0.001864	47.7437	-118.46	-165.774	0.027171	0.409068	-0.619237	-0.620535	-0.012988	47.7437	-0.619033	-1.521755E+8	8.535009E-11	NaN
334	1.000000	0.418419	7.36833e+06	-55339.1	955.819	-29742.1	0.000000	0.000000	6.418933	-0.046687	NaN	0.000000	0.001547	0.001699	28.0793	0.106619	0.001991	53.5638	8.103509	-163.161	-0.005675	0.417118	-0.611184	-0.612485	-0.046687	53.5638	-0.610530	-1.162545E+8	4.015960E-10	NaN
334	1.000000	0.426393	7.36833e+06	-55339.1	955.82	-29742.1	0.000000	0.000000	6.426906	-0.056557	NaN	0.000000	0.001550	0.001665	28.0792	0.013603	0.002135	6.371499	2.037252	-163.26	-0.058151	0.425077	-0.603211	-0.604526	-0.056557	6.371499	-0.596553	-7.464191E+7	7.577059E-10	NaN
334	1.000000	0.434387	7.36833e+06	-55339.1	955.819	-29742.1	0.000000	0.000000	6.434902	-0.023314	NaN	0.000000	0.001576	0.001686	28.0795	0.139683	0.001973	70.7968	84.7235	-168.045	-0.074064	0.433061	-0.595216	-0.596542	-0.023314	70.7968	-0.594969	-7.098328E+7	3.284429E-10	NaN
334	1.000000	0.442417	7.36833e+06	-55339.1	955.817	-29742.1	0.000000	0.000000	6.442930	-0.052238	NaN	0.000000	0.001563	0.001692	28.0794	0.052036	0.002048	25.4126	104.34	-165.651	-0.020742	0.441080	-0.587186	-0.588524	-0.052238	25.4126	-0.585645	-5.279670E+7	9.894189E-10	NaN
334	1.000000	0.450407	7.36833e+06	-55339.1	955.819	-29742.1	0.000000	0.000000	6.450924	0.038065	NaN	0.000000	0.001544	0.001677	28.0793	0.009220	0.002003	4.604445	139.09	-164.204	0.050230	0.449090	-0.579196	-0.580513	0.038065	4.604445	-0.585396	-5.238132E+7	-7.266833E-10	NaN
334	1.000000	0.458375	7.36833e+06	-55339.1	955.818	-29742.1	0.000000	0.000000	6.458890	-0.019648	NaN	0.000000	0.001585	0.001691	28.0793	0.013221	0.001991	6.640477	77.4398	-164.682	-0.070243	0.457097	-0.571228	-0.572507	-0.019648	6.640477	-0.569009	-3.111240E+7	6.315072E-10	NaN
334	1.000000	0.466421	7.36833e+06	-55339.1	955.819	-29742.1	0.000000	0.000000	6.466937	-0.005156	NaN	0.000000	0.001565	0.001659	28.0793	0.034079	0.001954	17.441	-53.0956	-162.646	-0.020958	0.465125	-0.563182	-0.564478	-0.005156	17.441	-0.562960	-2.566378E+7	2.008913E-10	NaN
334	1.000000	0.474387	7.36833e+06	-55339.1	955.819	-29742.1	0.000000	0.000000	6.474902	-0.024431	NaN	0.000000	0.001589	0.001665	28.0796	0.049127	0.002012	24.4221	15.5711	-165.499	-0.049957	0.473112	-0.555216	-0.556491	-0.024431	24.4221	-0.554466	-1.957901E+7	1.247808E-9	NaN
334	1.000000	0.482446	7.36833e+06	-55339.1	955.819	-29742.1	0.000000	0.000000	6.482959	-0.060109	NaN	0.000000	0.001599	0.001658	28.0795	0.057738	0.001914	30.1665	-109.308	-165.54	-0.047721	0.481114	-0.547157	-0.548490	-0.060109	30.1665	-0.545663	-1.478645E+7	4.065131E-9	NaN
334	1.000000	0.490456	7.36833e+06	-55339.1	955.818	-29742.1	0.000000	0.000000	6.490972	0.013496	NaN	0.000000	0.001577	0.001707	28.0808	0.071330	0.001969	36.2238	171.075	-164.586	0.047649	0.489137	-0.539147	-0.540466	0.013496	36.2238	-0.539427	-1.211734E+7	-1.113786E-9	NaN
334	1.000000	0.498430	7.36833e+06	-55339.1	955.819	-29742.1	0.000000	0.000000	6.498946	-0.004974	NaN	0.000000	0.001584	0.001675	28.0809	0.028183	0.002068	13.6298	-20.8456	-167.044	-0.079342	0.497141	-0.531173	-0.532462	-0.004974	13.6298	-0.530899	-9.22703e+06	5.390380E-10	NaN
334	1.000000	0.506431	7.36833e+06	-55339.1	955.819	-29742.1	0.000000	0.000000	6.506945	-0.044430	NaN	0.000000	0.001587	0.001609	28.0808	0.028178	0.001978	14.245	-169.52	-165.114	-0.055111	0.505098	-0.523172	-0.524505	-0.044430	14.245	-0.520833	-6.68616e+06	6.645078E-9	NaN
334	1.000000	0.514425	7.36833e+06	-55339.1	955.819	-29742.1	0.000000	0.000000	6.514938	-0.049026	NaN	0.000000	0.001594	0.001691	28.081	0.070265	0.001959	35.8603	148.278	-162.69	-0.061630	0.513153	-0.515178	-0.516450	-0.049026	35.8603	-0.514153	-5.39814e+06	9.081988E-9	NaN
334	1.000000	0.522401	7.36833e+06	-55339.1	955.818	-29742.1	0.000000	0.000000	6.522918	0.031409	NaN	0.000000	0.001578	0.001686	28.081	0.058839	0.001931	30.4785	-2.943214	-162.697	0.013673	0.521116	-0.507202	-0.508487	0.031409	30.4785	-0.507975	-4.42799e+06	-7.093362E-9	NaN
334	1.000000	0.530435	7.36833e+06	-55339.1	955.819	-29742.1	0.000000	0.000000	6.530951	-0.003199	NaN	0.000000	0.001602	0.001669	28.081	0.092420	0.002032	45.488	136.079	-164.062	-0.072904	0.529143	-0.499168	-0.500460	-0.003199	45.488	-0.499115	-3.33176e+06	9.600246E-10	NaN
334	1.000000	0.538462	7.36833e+06	-55339.1	955.819	-29742.1	0.000000	0.000000	6.538977	-0.012331	NaN	0.000000	0.001609	0.001651	28.0814	0.049408	0.001994	24.7782	133.379	-164.035	-0.032832	0.537091	-0.491141	-0.492513	-0.012331	24.7782	-0.490768	-2.54756e+06	4.840161E-9	NaN
334	1.000000	0.546438	7.36833e+06	-55339.1	955.819	-29742.1	0.000000	0.000000	6.546952	-0.041483	NaN	0.000000	0.001601	0.001676	28.0812	0.083264	0.001986	41.928	119.274	-163.483	-0.065274	0.545095	-0.483165	-0.484508	-0.041483	41.928	-0.482423	-1.94736e+06	2.130235E-8	NaN
334	1.000000	0.554454	7.36833e+06	-55339.1	955.819	-29742.1	0.000000	0.000000	6.554967	-0.048193	NaN	0.000000	0.001577	0.001675	28.0811	0.068684	0.002039	33.6914	-108.926	-165.03	-0.033942	0.553119	-0.475149	-0.476484	-0.048193	33.6914	-0.474077	-1.48785e+06	3.239115E-8	NaN
334	1.000000	0.562455	7.36833e+06	-55339.1	955.819	-29742.1	0.000000	0.000000	6.562970	-0.005843	NaN	0.000000	0.001569	0.001659	28.081	0.069774	0.001927	36.2034	-18.7254	-164.911	0.056396	0.561172	-0.467148	-0.468431	-0.005843	36.2034	-0.467027	-1.18496e+06	4.930859E-9	NaN
334	1.000000	0.570464	7.36833e+06	-55339.1	955.817	-29742.1	0.000000	0.000000	6.570977	-0.055411	NaN	0.000000	0.001604	0.001701	28.0809	0.054317	0.001977	27.471	-40.1405	-166.01	-0.001725	0.569169	-0.459139	-0.460435	-0.055411	27.471	-0.457627	-874293	6.337799E-8	NaN
334	1.000000	0.578463	7.36833e+06	-55339.1	955.819	-29742.1	0.000000	0.000000	6.578977	-0.039020	NaN	0.000000	0.001562	0.001667	28.081	0.123886	0.001977	62.65	-63.6636	-167.884	-0.064728	0.577109	-0.451140	-0.452494	-0.039020	62.65	-0.450673	-697938	5.590781E-8	NaN
334	1.000000	0.586459	7.36833e+06	-55339.1	955.819	-29742.1	0.000000	0.000000	6.586976	0.030429	NaN	0.000000	0.001556	0.001682	28.081	0.045315	0.001925	23.5459	160.583	-164.194	-0.014574	0.585183	-0.443144	-0.444420	0.030429	23.5459	-0.444113	-564144	-5.393862E-8	NaN
334	1.000000	0.594436	7.36833e+06	-55339.1	955.819	-29742.1	0.000000	0.000000	6.594951	-0.011095	NaN	0.000000	0.001596	0.001662	28.0808	0.094373	0.002038	46.3032	46.768	-166.623	0.001215	0.593182	-0.435167	-0.436421	-0.011095	46.3032	-0.434987	-419347	2.645664E-8	NaN
334	1.000000	0.602458	7.36833e+06	-55339.1	955.819	-29742.1	0.000000	0.000000	6.602971	-0.055004	NaN	0.000000	0.001628	0.001680	28.081	0.052570	0.001991	26.399	-1.117063	-166.757	-0.058075	0.601160	-0.427146	-0.428444	-0.055004	26.399	-0.425583	-308701	1.781797E-7	NaN
334	1.000000	0.610487	7.36833e+06	-55339.1	955.82	-29742.1	0.000000	0.000000	6.611004	0.035411	NaN	0.000000	0.001624	0.001672	28.0807	0.031484	0.002053	15.3367	51.6018	-164.132	0.051292	0.609125	-0.419116	-0.420478	0.035411	15.3367	-0.420848	-264505	-1.338771E-7	NaN
334	1.000000	0.618488	7.36833e+06	-55339.1	955.82	-29742.1	0.000000	0.000000	6.619003	-0.009701	NaN	0.000000	0.001595	0.001638	28.0809	0.104224	0.001884	55.3255	-65.403	-165.579	-0.092156	0.617213	-0.411115	-0.412390	-0.009701	55.3255	-0.410984	-191596	5.063405E-8	NaN
334	1.000000	0.626480	7.36833e+06	-55339.1	955.819	-29742.1	0.000000	0.000000	6.626995	-0.023067	NaN	0.000000	0.001586	0.001642	28.0798	0.065417	0.001949	33.5697	-9.193291	-166.221	0.014878	0.625136	-0.403123	-0.404468	-0.023067	33.5697	-0.402607	-145601	1.584286E-7	NaN
334	1.000000	0.634486	7.36833e+06	-55339.1	955.82	-29742.1	0.000000	0.000000	6.635002	0.010679	NaN	0.000000	0.001593	0.001661	28.0797	0.007611	0.001939	3.924552	-179.163	-167.939	0.056354	0.633160	-0.395117	-0.396443	0.010679	3.924552	-0.397158	-121742	-8.771836E-8	NaN
334	1.000000	0.642501	7.36833e+06	-55339.1	955.818	-29742.1	0.000000	0.000000	6.643016	-0.003910	NaN	0.000000	0.001564	0.001643	28.0801	0.052124	0.001972	26.429	57.3349	-166.74	0.008293	0.641159	-0.387103	-0.388444	-0.003910	26.429	-0.386992	-87119.1	4.487936E-8	NaN
334	1.000000	0.650507	7.36833e+06	-55339.1	955.819	-29742.1	0.000000	0.000000	6.651021	-0.039321	NaN	0.000000	0.001577	0.001647	28.0794	0.064067	0.001943	32.9713	130.112	-165.885	-0.064997	0.649255	-0.379096	-0.380348	-0.039321	32.9713	-0.378202	-65174.4	6.033182E-7	NaN
334	1.000000	0.658470	7.36833e+06	-55339.1	955.818	-29742.1	0.000000	0.000000	6.658984	-0.036580	NaN	0.000000	0.001580	0.001668	28.0797	0.072484	0.002025	35.7925	-68.1131	-164.646	-0.012568	0.657199	-0.371133	-0.372404	-0.036580	35.7925	-0.370367	-50281.9	7.274918E-7	NaN
334	1.000000	0.666498	7.36833e+06	-55339.1	955.82	-29742.1	0.000000	0.000000	6.667011	-0.059297	NaN	0.000000	0.001566	0.001676	28.0796	0.004897	0.002093	2.340204	-141.14	-165.525	0.023583	0.665226	-0.363105	-0.364378	-0.059297	2.340204	-0.344102	-20954.9	2.829751E-6	NaN
334	1.000000	0.674494	7.36833e+06	-55339.1	955.819	-29742.1	0.000000	0.000000	6.675008	-0.031295	NaN	0.000000	0.001558	0.001644	28.0797	0.015652	0.001991	7.860210	41.8332	-163.297	0.009593	0.673203	-0.355109	-0.356400	-0.031295	7.860210	-0.352123	-27403.2	1.142029E-6	NaN
334	1.000000	0.682497	7.36833e+06	-55339.1	955.818	-29742.1	0.000000	0.000000	6.683010	-0.063155	NaN	0.000000	0.001566	0.001632	28.0798	0.047105	0.001958	24.06	83.4158	-163.389	0.038874	0.681141	-0.347106	-0.348462	-0.063155	24.06	-0.345138	-21695	2.911057E-6	NaN
334	1.000000	0.690496	7.36833e+06	-55339.1	955.819	-29742.1	0.000000	0.000000	6.691013	0.017753	NaN	0.000000	0.001578	0.001681	28.0795	0.038986	0.001969	19.801	72.8095	-159.626	-0.019284	0.689191	-0.339107	-0.340413	0.017753	19.801	-0.339779	-18127.4	-9.793381E-7	NaN
334	1.000000	0.698497	7.36833e+06	-55339.1	955.818	-29742.1	0.000000	0.000000	6.699014	0.026471	NaN	0.000000	0.001585	0.001695	28.0796	0.070957	0.002052	34.5725	2.117483	-159.037	-0.047432	0.697172	-0.331106	-0.332431	0.026471	34.5725	-0.331680	-13805.3	-1.917447E-6	NaN
334	1.000000	0.706503	7.36833e+06	-55339.1	955.818	-29742.1	0.000000	0.000000	6.707020	0.016667	NaN	0.000000	0.001595	0.001676	28.0792	0.026177	0.002131	12.2836	61.6834	-165.216	-0.088963	0.705217	-0.323100	-0.324386	0.016667	12.2836	-0.324117	-10694.9	-1.558382E-6	NaN
334	1.000000	0.714479	7.36833e+06	-55339.1	955.818	-29742.1	0.000000	0.000000	6.714996	0.042744	NaN	0.000000	0.001594	0.001654	28.0792	0.044609	0.002021	22.0729	-3.102188	-163.501	0.056250	0.713155	-0.315124	-0.316448	0.042744	22.0729	-0.316577	-8283.38	-5.160191E-6	NaN
334	1.000000	0.722516	7.36833e+06	-55339.1	955.82	-29742.1	0.000000	0.000000	6.723032	0.014770	NaN	0.000000	0.001605	0.001677	28.0792	0.066762	0.002027	32.9313	-74.8708	-164.766	0.030187	0.721244	-0.307087	-0.308360	0.014770	32.9313	-0.307424	-6066	-2.434869E-6	NaN
334	1.000000	0.730535	7.36833e+06	-55339.1	955.819	-29742.1	0.000000	0.000000	6.731049	-0.023601	NaN	0.000000	0.001587	0.001695	28.0791	0.063815	0.001996	31.9776	-149.294	-168.046	-0.031117	0.729204	-0.299069	-0.300399	-0.023601	31.9776	-0.298515	-4472.18	5.277180E-6	NaN
334	1.000000	0.738509	7.36833e+06	-55339.1	955.818	-29742.1	0.000000	0.000000	6.739024	-0.018160	NaN	0.000000	0.001595	0.001699	28.0792	0.089837	0.001828	49.1362	-149.592	-166.037	-0.053600	0.737211	-0.291094	-0.292392	-0.018160	49.1362	-0.290817	-3431.94	5.291588E-6	NaN
334	1.000000	0.746555	7.36833e+06	-55339.1	955.819	-29742.1	0.000000	0.000000	6.747071	-0.000536	NaN	0.000000	0.001656	0.001686	28.0791	0.054828	0.001966	27.8842	-63.8766	-165.565	-0.009821	0.745183	-0.283048	-0.284421	-0.000536	27.8842	-0.283033	-2622.31	2.043293E-7	NaN
334	1.000000	0.754559	7.36833e+06	-55339.1	955.818	-29742.1	0.000000	0.000000	6.755073	-0.021050	NaN	0.000000	0.001645	0.001708	28.0791	0.077484	0.002010	38.5527	-133.454	-165.76	0.009440	0.753264	-0.275044	-0.276339	-0.021050	38.5527	-0.274635	-1958.26	1.074929E-5	NaN
334	1.000000	0.762518	7.36833e+06	-55339.1	955.818	-29742.1	0.000000	0.000000	6.763032	-0.020449	NaN	0.000000	0.001668	0.001710	28.0805	0.077712	0.002028	38.3254	-46.2114	-165.385	-0.005994	0.761232	-0.267086	-0.268371	-0.020449	38.3254	-0.266685	-1482.84	1.379054E-5	NaN
334	1.000000	0.770537	7.36833e+06	-55339.1	955.819	-29742.1	0.000000	0.000000	6.771050	-0.056647	NaN	0.000000	0.001659	0.001681	28.0806	0.058390	0.002189	26.6781	107.659	-164.23	-0.015784	0.769239	-0.259066	-0.260364	-0.056647	26.6781	-0.257473	-1071.89	5.284812E-5	NaN
334	1.000000	0.778542	7.36833e+06	-55339.1	955.82	-29742.1	0.000000	0.000000	6.779057	-0.012613	NaN	0.000000	0.001636	0.001680	28.0806	0.069984	0.002089	33.5001	179.707	-164.846	-0.040858	0.777246	-0.251061	-0.252357	-0.012613	33.5001	-0.250779	-845.297	1.492118E-5	NaN
334	1.000000	0.786511	7.36833e+06	-55339.1	955.819	-29742.1	0.000000	0.000000	6.787025	-0.052154	NaN	0.000000	0.001630	0.001646	28.0806	0.055658	0.001798	30.9486	161.223	-164.424	-0.006999	0.785273	-0.243092	-0.244330	-0.052154	30.9486	-0.241828	-613.876	8.495877E-5	NaN
334	1.000000	0.794547	7.36833e+06	-55339.1	955.818	-29742.1	0.000000	0.000000	6.795063	0.006251	NaN	0.000000	0.001609	0.001673	28.0805	0.054930	0.002009	27.3355	72.4425	-166.391	0.041718	0.793256	-0.235056	-0.236347	0.006251	27.3355	-0.235228	-483.977	-1.291561E-5	NaN
334	1.000000	0.802570	7.36833e+06	-55339.1	955.819	-29742.1	0.000000	0.000000	6.803086	0.016640	NaN	0.000000	0.001630	0.001679	28.081	0.057029	0.002017	28.2709	-142.223	-163.065	0.018402	0.801264	-0.227033	-0.228339	0.016640	28.2709	-0.227474	-365.241	-4.555798E-5	NaN
334	1.000000	0.810548	7.36833e+06	-55339.1	955.819	-29742.1	0.000000	0.000000	6.811064	0.030982	NaN	0.000000	0.001645	0.001634	28.0805	0.044397	0.002034	21.8281	169.022	-163.909	-0.012673	0.809245	-0.219056	-0.220358	0.030982	21.8281	-0.220120	-278.995	-0.000111	NaN
334	1.000000	0.818552	7.36833e+06	-55339.1	955.818	-29742.1	0.000000	0.000000	6.819066	-0.022363	NaN	0.000000	0.001661	0.001628	28.0805	0.054185	0.001909	28.3842	118.838	-165.418	0.016397	0.817285	-0.211052	-0.212318	-0.022363	28.3842	-0.210461	-195.109	0.000115	NaN
334	1.000000	0.826554	7.36834e+06	-55339.1	955.818	-29742.1	0.000000	0.000000	6.827068	-0.034216	NaN	0.000000	0.001667	0.001648	28.0806	0.072353	0.002022	35.7862	-81.1131	-164.305	0.004173	0.825273	-0.203049	-0.204331	-0.034216	35.7862	-0.202332	-143.863	0.000238	NaN
334	1.000000	0.834566	7.36834e+06	-55339.1	955.818	-29742.1	0.000000	0.000000	6.835079	-0.054410	NaN	0.000000	0.001605	0.001669	28.0804	0.072705	0.002013	36.1102	163.752	-165.639	-0.096992	0.833312	-0.195037	-0.196291	-0.054410	36.1102	-0.193907	-104.493	0.000521	NaN
334	1.000000	0.842555	7.36834e+06	-55339.1	955.818	-29742.1	0.000000	0.000000	6.843067	-0.066167	NaN	0.000000	0.001607	0.001646	28.0805	0.054382	0.002024	26.8667	118.198	-165.885	-0.049775	0.841266	-0.187049	-0.188337	-0.066167	26.8667	-0.185201	-74.7355	0.000885	NaN
334	1.000000	0.850580	7.36834e+06	-55339.1	955.819	-29742.1	0.000000	0.000000	6.851097	0.022103	NaN	0.000000	0.001595	0.001674	28.0804	0.040847	0.002153	18.9759	53.2121	-169.241	-0.003591	0.849309	-0.179023	-0.180295	0.022103	18.9759	-0.179897	-60.7725	-0.000364	NaN
334	1.000000	0.858584	7.36834e+06	-55339.1	955.82	-29742.1	0.000000	0.000000	6.859098	-0.029762	NaN	0.000000	0.001584	0.001647	28.0807	0.084784	0.001839	46.11	9.069365	-163.687	-0.100610	0.857277	-0.171020	-0.172326	-0.029762	46.11	-0.170535	-41.9669	0.000709	NaN
334	1.000000	0.866594	7.36834e+06	-55339.1	955.819	-29742.1	0.000000	0.000000	6.867109	-0.016434	NaN	0.000000	0.001592	0.001616	28.0808	0.108583	0.002038	53.2907	150.109	-166.399	0.041798	0.865302	-0.163009	-0.164302	-0.016434	53.2907	-0.162778	-30.703	0.000535	NaN
334	1.000000	0.874559	7.36834e+06	-55339.1	955.818	-29742.1	0.000000	0.000000	6.875076	0.033287	NaN	0.000000	0.001559	0.001623	28.0807	0.061823	0.002032	30.4269	102.765	-164.869	0.040961	0.873255	-0.155044	-0.156348	0.033287	30.4269	-0.155865	-23.1275	-0.001439	NaN
334	1.000000	0.882567	7.36834e+06	-55339.1	955.818	-29742.1	0.000000	0.000000	6.883085	0.061851	NaN	0.000000	0.001568	0.001629	28.0806	0.108458	0.002053	52.8333	158.704	-165.899	0.108410	0.881307	-0.147037	-0.148296	0.061851	52.8333	-0.147915	-16.5906	-0.003728	NaN
334	1.000000	0.890567	7.36834e+06	-55339.1	955.818	-29742.1	0.000000	0.000000	6.891081	-0.028838	NaN	0.000000	0.001568	0.001640	28.0807	0.116302	0.002107	55.1979	158.363	-166.448	-0.076161	0.889302	-0.139036	-0.140301	-0.028838	55.1979	-0.138644	-11.1544	0.002585	NaN
334	1.000000	0.898609	7.36834e+06	-55339.1	955.818	-29742.1	0.000000	0.000000	6.899123	-0.040089	NaN	0.000000	0.001630	0.001625	28.0795	0.095869	0.001978	48.4718	-109.025	-163.786	-0.051833	0.897283	-0.130994	-0.132320	-0.040089	48.4718	-0.130374	-7.749524	0.005173	NaN
334	1.000000	0.906606	7.36834e+06	-55339.1	955.818	-29742.1	0.000000	0.000000	6.907121	0.002052	NaN	0.000000	0.001610	0.001640	28.0796	0.139507	0.002092	66.6814	-84.9783	-163.988	-0.077569	0.905279	-0.122998	-0.124325	0.002052	66.6814	-0.123021	-5.554947	-0.000369	NaN
334	1.000000	0.914631	7.36834e+06	-55339.1	955.819	-29742.1	0.000000	0.000000	6.915144	-0.065772	NaN	0.000000	0.001607	0.001660	28.0794	0.064572	0.002057	31.3914	-137.816	-164.536	-0.060177	0.913279	-0.114972	-0.116324	-0.065772	31.3914	-0.113401	-3.540150	0.018579	NaN
334	1.000000	0.922616	7.36834e+06	-55339.1	955.819	-29742.1	0.000000	0.000000	6.923131	-0.011170	NaN	0.000000	0.001592	0.001625	28.0793	0.097547	0.002116	46.0895	41.3073	-166.086	-0.010912	0.921350	-0.106987	-0.108253	-0.011170	46.0895	-0.106805	-2.570342	0.004346	NaN
334	1.000000	0.930582	7.36834e+06	-55339.1	955.819	-29742.1	0.000000	0.000000	6.931098	0.026447	NaN	0.000000	0.001580	0.001657	28.0795	0.079430	0.001986	40.0027	-109.078	-163.956	0.031285	0.929282	-0.099021	-0.100322	0.026447	40.0027	-0.099517	-1.782623	-0.014836	NaN
334	1.000000	0.938573	7.36834e+06	-55339.1	955.819	-29742.1	0.000000	0.000000	6.939090	0.036604	NaN	0.000000	0.001607	0.001638	28.0798	0.145336	0.001997	72.7712	83.9684	-163.59	0.015510	0.937288	-0.091030	-0.092315	0.036604	72.7712	-0.091407	-1.166010	-0.031392	NaN
334	1.000000	0.946625	7.36834e+06	-55339.1	955.819	-29742.1	0.000000	0.000000	6.947140	-0.022346	NaN	0.000000	0.001577	0.001676	28.0796	0.066047	0.001952	33.8343	163.699	-161.811	-0.097219	0.945273	-0.082978	-0.084330	-0.022346	33.8343	-0.082483	-0.713275	0.031329	NaN
334	1.000000	0.954606	7.36834e+06	-55339.1	955.818	-29742.1	0.000000	0.000000	6.955123	0.022749	NaN	0.000000	0.001585	0.001680	28.0797	0.077203	0.001997	38.657	-101.907	-164.2	-0.096240	0.953296	-0.074997	-0.076307	0.022749	38.657	-0.075438	-0.474065	-0.047987	NaN
334	1.000000	0.962624	7.36834e+06	-55339.1	955.818	-29742.1	0.000000	0.000000	6.963139	-0.006049	NaN	0.000000	0.001564	0.001690	28.0798	0.048195	0.001901	25.3488	-32.8967	-166.856	-0.051748	0.961319	-0.066979	-0.068284	-0.006049	25.3488	-0.066800	-0.279388	0.021649	NaN
334	1.000000	0.970601	7.36834e+06	-55339.1	955.817	-29742.1	0.000000	0.000000	6.971114	-0.065987	NaN	0.000000	0.001581	0.001669	28.0796	0.020072	0.001925	10.4281	-67.8733	-160.801	-0.056453	0.969298	-0.059002	-0.060305	-0.065987	10.4281	-0.054256	-0.122407	0.539075	NaN
334	1.000000	0.978622	7.36834e+06	-55339.1	955.818	-29742.1	0.000000	0.000000	6.979137	-0.008097	NaN	0.000000	0.001567	0.001693	28.0797	0.107062	0.002121	50.4715	-148.798	-164.733	0.028744	0.977338	-0.050981	-0.052265	-0.008097	50.4715	-0.050861	-0.096877	0.083584	NaN
334	1.000000	0.986625	7.36834e+06	-55339.1	955.818	-29742.1	0.000000	0.000000	6.987139	-0.015414	NaN	0.000000	0.001591	0.001702	28.0795	0.101260	0.001898	53.3628	3.510138	-162.958	-0.035314	0.985255	-0.042979	-0.044348	-0.015414	53.3628	-0.042762	-0.054897	0.280787	NaN
334	1.000000	0.994606	7.36834e+06	-55339.1	955.818	-29742.1	0.000000	0.000000	6.995122	0.015296	NaN	0.000000	0.001579	0.001693	28.0795	0.051449	0.002007	25.6316	124.982	-162.037	-0.016716	0.993391	-0.034997	-0.036212	0.015296	25.6316	-0.035445	-0.033007	-0.463408	NaN
334	1.000000	1.002656	7.36834e+06	-55339.1	955.818	-29742.1	0.000000	0.000000	7.003172	0.006405	NaN	0.000000	0.001567	0.001678	28.0797	0.040767	0.002106	19.3595	-41.9908	-159.747	-0.067227	1.001337	-0.026947	-0.028266	0.006405	19.3595	-0.027195	-0.019286	-0.332087	NaN
334	1.000000	1.010615	7.36834e+06	-55339.1	955.818	-29742.1	0.000000	0.000000	7.011129	-0.035492	NaN	0.000000	0.001586	0.001643	28.0797	0.094762	0.001987	47.6876	-129.437	-164.889	-0.048751	1.009319	-0.018988	-0.020284	-0.035492	47.6876	-0.018430	-0.011452	3.099254	NaN
334	1.000000	1.018618	7.36834e+06	-55339.1	955.818	-29742.1	0.000000	0.000000	7.019130	-0.077305	NaN	0.000000	0.001563	0.001639	28.0796	0.063998	0.001948	32.8471	-157.775	-164.671	-0.147725	1.017394	-0.010985	-0.012209	-0.077305	32.8471	-0.009220	-0.005940	13.0144	NaN
334	1.000000	1.026605	7.36834e+06	-55339.1	955.818	-29742.1	0.000000	0.000000	7.027133	0.299794	NaN	0.000000	0.001577	0.001650	28.0795	0.595060	0.001930	308.382	21.4476	-165.864	0.045862	1.025315	-0.002998	-0.004288	0.299794	308.382	-0.003727	-0.002601	-115.253	NaN
334	1.000000	1.034643	7.36834e+06	-55339.1	955.818	-29742.1	0.000000	0.000000	7.035265	2.594511	NaN	0.000000	0.001594	0.001648	28.0807	3.396128	0.001885	1801.19	19.9368	-168.651	2.006968	1.033354	0.005040	0.003751	2.594511	1801.19	0.003959	0.003203	809.907	29075.1
334	2.000000	1.041190	7.36834e+06	-55339.1	955.818	-29742.1	0.000000	0.000000	7.042093	9.409876	NaN	0.000000	0.001567	0.001682	28.0809	8.560016	0.001651	5185.8	10.3208	-173.144	9.348929	1.040801	0.011587	0.011198	9.409876	5185.8	0.010226	0.009434	997.481	48780.8
334	2.000000	1.043147	7.36834e+06	-55339.1	955.819	-29742.1	0.000000	0.000000	7.044206	13.2178	NaN	0.000000	0.001575	0.001687	28.0808	9.772216	0.001627	6007.66	7.429571	-171.458	12.5881	1.042870	0.013544	0.013266	13.2178	6007.66	0.011894	0.011363	1163.23	51491
334	2.000000	1.045139	7.36834e+06	-55339.1	955.819	-29742.1	0.000000	0.000000	7.046239	14.209	NaN	0.000000	0.001540	0.001652	28.0807	12.2476	0.001803	6794.44	10.0088	-175.661	13.6681	1.044832	0.015536	0.015229	14.209	6794.44	0.013968	0.013933	1019.78	52589.4
334	2.000000	1.047175	7.36834e+06	-55339.1	955.819	-29742.1	0.000000	0.000000	7.048495	19.5576	NaN	0.000000	0.001587	0.001671	28.0807	14.1263	0.001887	7484.64	9.087605	-175.181	18.97	1.046836	0.017572	0.017233	19.5576	7484.64	0.015612	0.016110	1213.97	53875.4
334	2.000000	1.049131	7.36834e+06	-55339.1	955.819	-29742.1	0.000000	0.000000	7.050521	21.2682	NaN	0.000000	0.001583	0.001669	28.0809	15.3903	0.001926	7989.97	9.764615	-176.379	21.5211	1.048898	0.019528	0.019295	21.2682	7989.97	0.017531	0.018811	1130.66	53225.3
334	2.000000	1.051101	7.36834e+06	-55339.1	955.82	-29742.1	0.000000	0.000000	7.052743	27.3861	NaN	0.000000	0.001615	0.001655	28.0809	16.9903	0.001894	8968.66	8.166977	-177.063	26.4017	1.050796	0.021498	0.021193	27.3861	8968.66	0.019208	0.021313	1284.96	56128.2
334	2.000000	1.053118	7.36834e+06	-55339.1	955.819	-29742.1	0.000000	0.000000	7.054830	29.0984	NaN	0.000000	0.001621	0.001617	28.0807	17.8448	0.001827	9769.2	7.578224	-176.392	28.2565	1.052821	0.023515	0.023218	29.0984	9769.2	0.021281	0.024595	1183.11	56912.8
334	2.000000	1.055106	7.36834e+06	-55339.1	955.819	-29742.1	0.000000	0.000000	7.057068	35.1805	NaN	0.000000	0.001595	0.001596	28.0808	18.7108	0.001673	11181.3	2.975168	-174.327	34.7272	1.054778	0.025503	0.025175	35.1805	11181.3	0.023143	0.027723	1268.98	61354
334	2.000000	1.057136	7.36834e+06	-55339.1	955.82	-29742.1	0.000000	0.000000	7.059407	42.6847	NaN	0.000000	0.001610	0.001621	28.0806	20.9592	0.001663	12602.7	6.303513	-178.719	41.3151	1.056780	0.027533	0.027177	42.6847	12602.7	0.024992	0.031002	1376.85	65394.8
334	2.000000	1.059100	7.36834e+06	-55339.1	955.819	-29742.1	0.000000	0.000000	7.061515	46.182	NaN	0.000000	0.001619	0.001624	28.0806	22.802	0.001901	11996	5.952733	-177.719	46.2911	1.058781	0.029497	0.029178	46.182	11996	0.026610	0.034009	1357.93	59430.6
334	2.000000	1.061098	7.36834e+06	-55339.1	955.819	-29742.1	0.000000	0.000000	7.063971	57.3202	NaN	0.000000	0.001601	0.001638	28.0818	24.6593	0.001815	13588.5	7.160054	-179.853	56.5196	1.060808	0.031494	0.031205	57.3202	13588.5	0.028331	0.037355	1534.47	64234.9
334	2.000000	1.063076	7.36834e+06	-55339.1	955.818	-29742.1	0.000000	0.000000	7.066256	64.7621	NaN	0.000000	0.001612	0.001653	28.0808	24.8998	0.001760	14147.6	1.701472	-175.881	63.5476	1.062857	0.033473	0.033254	64.7621	14147.6	0.030040	0.040826	1586.31	63972
334	2.000000	1.065035	7.36834e+06	-55339.1	955.818	-29742.1	0.000000	0.000000	7.068125	62.5899	NaN	0.000000	0.001614	0.001658	28.0807	27.928	0.001911	14617.1	3.076543	-177.004	59.5991	1.064733	0.035431	0.035130	62.5899	14617.1	0.032220	0.045471	1376.49	62628
334	2.000000	1.067065	7.36834e+06	-55339.1	955.819	-29742.1	0.000000	0.000000	7.070462	70.0662	NaN	0.000000	0.001570	0.001640	28.0807	28.8047	0.001684	17100.5	4.938303	179.537	68.1021	1.066770	0.037461	0.037167	70.0662	17100.5	0.034388	0.050331	1392.1	69640.6
334	2.000000	1.069066	7.36834e+06	-55339.1	955.819	-29742.1	0.000000	0.000000	7.072906	80.8034	NaN	0.000000	0.001583	0.001620	28.0809	30.4605	0.001745	17455.7	3.993234	-179.113	80.447	1.068751	0.039463	0.039148	80.8034	17455.7	0.035991	0.054079	1494.18	68579.8
334	2.000000	1.071069	7.36834e+06	-55339.1	955.819	-29742.1	0.000000	0.000000	7.075130	86.1708	NaN	0.000000	0.001634	0.001638	28.0818	32.6216	0.001849	17644.3	3.608922	-179.53	84.6441	1.070791	0.041466	0.041188	86.1708	17644.3	0.037803	0.058475	1473.65	66664.5
334	2.000000	1.073021	7.36834e+06	-55339.1	955.819	-29742.1	0.000000	0.000000	7.077527	97.017	NaN	0.000000	0.001597	0.001641	28.0803	33.5117	0.001721	19470.8	4.762705	177.886	94.9277	1.072799	0.043418	0.043196	97.017	19470.8	0.039681	0.063206	1534.94	70758.5
334	2.000000	1.075033	7.36834e+06	-55339.1	955.82	-29742.1	0.000000	0.000000	7.079883	105.371	NaN	0.000000	0.001607	0.001640	28.0798	35.1276	0.001800	19511.4	1.368449	-177.609	102.812	1.074702	0.045429	0.045099	105.371	19511.4	0.041379	0.067641	1557.81	68542
334	2.000000	1.077042	7.36834e+06	-55339.1	955.82	-29742.1	0.000000	0.000000	7.082377	117.153	NaN	0.000000	0.001640	0.001607	28.0796	37.9295	0.001870	20287.6	5.763392	177.407	115.373	1.076731	0.047439	0.047128	117.153	20287.6	0.043108	0.072306	1620.23	68931
334	2.000000	1.079171	7.36834e+06	-55339.1	955.82	-29742.1	0.000000	0.000000	7.084886	126.375	NaN	0.000000	0.001629	0.001654	28.0797	38.6661	0.001936	19967.9	9.772583	176.04	130.267	1.078635	0.049568	0.049032	126.375	19967.9	0.044822	0.077081	1639.5	65710
334	2.000000	1.080973	7.36834e+06	-55339.1	955.818	-29742.1	0.000000	0.000000	7.086974	133.328	NaN	0.000000	0.001648	0.001638	28.0803	40.9299	0.001946	21037.4	1.935320	-179.114	129.906	1.080732	0.051370	0.051129	133.328	21037.4	0.046617	0.082244	1621.13	67021.3
334	2.000000	1.082952	7.36834e+06	-55339.1	955.819	-29742.1	0.000000	0.000000	7.089385	143.844	NaN	0.000000	0.001594	0.001634	28.0799	41.1515	0.001747	23553.1	1.825547	-179.348	138.447	1.082689	0.053349	0.053086	143.844	23553.1	0.048769	0.088645	1622.7	72275.9
334	2.000000	1.084957	7.36834e+06	-55339.1	955.819	-29742.1	0.000000	0.000000	7.091897	156.165	NaN	0.000000	0.001617	0.001620	28.0796	44.1403	0.001853	23818.4	0.901397	-178.699	150.46	1.084617	0.055354	0.055014	156.165	23818.4	0.050436	0.093767	1665.45	71065.7
334	2.000000	1.087046	7.36834e+06	-55339.1	955.819	-29742.1	0.000000	0.000000	7.094223	161.927	NaN	0.000000	0.001580	0.001631	28.0796	46.5611	0.001922	24231.6	5.982582	177.26	160.715	1.086692	0.057443	0.057089	161.927	24231.6	0.052431	0.100076	1618.04	69982.5
334	2.000000	1.088964	7.36834e+06	-55339.1	955.819	-29742.1	0.000000	0.000000	7.096700	175.51	NaN	0.000000	0.001572	0.001660	28.0796	47.9997	0.001840	26091.9	4.048554	176.73	172.274	1.088711	0.059361	0.059107	175.51	26091.9	0.054316	0.106219	1652.34	73143.7
334	2.000000	1.091016	7.36834e+06	-55339.1	955.82	-29742.1	0.000000	0.000000	7.099427	191.931	NaN	0.000000	0.001555	0.001628	28.0797	51.0043	0.001969	25898	8.775889	172.462	191.13	1.090697	0.061413	0.061094	191.931	25898	0.055854	0.111363	1723.46	70903.5
334	2.000000	1.092986	7.36834e+06	-55339.1	955.819	-29742.1	0.000000	0.000000	7.101853	203.014	NaN	0.000000	0.001583	0.001655	28.0797	50.9941	0.001807	28219.1	4.688951	175.145	199.405	1.092773	0.063382	0.063170	203.014	28219.1	0.057987	0.118688	1710.48	74836.3
334	2.000000	1.094953	7.36834e+06	-55339.1	955.82	-29742.1	0.000000	0.000000	7.104412	217.406	NaN	0.000000	0.001552	0.001636	28.0798	52.2584	0.001831	28538.6	5.508823	175.642	212.412	1.094603	0.065349	0.065000	217.406	28538.6	0.059636	0.124506	1746.15	73894.1
334	2.000000	1.097049	7.36834e+06	-55339.1	955.82	-29742.1	0.000000	0.000000	7.107058	230.792	NaN	0.000000	0.001519	0.001628	28.0798	54.79	0.001826	30012.8	5.215344	174.677	229.95	1.096712	0.067446	0.067108	230.792	30012.8	0.061678	0.131895	1749.82	75503.1
334	2.000000	1.098981	7.36834e+06	-55339.1	955.82	-29742.1	0.000000	0.000000	7.109632	246.373	NaN	0.000000	0.001542	0.001667	28.0795	56.3315	0.001875	30046.5	6.528125	173.324	244.678	1.098646	0.069378	0.069043	246.373	30046.5	0.063228	0.137639	1789.99	73993.9
334	2.000000	1.101052	7.36834e+06	-55339.1	955.818	-29742.1	0.000000	0.000000	7.112298	260.844	NaN	0.000000	0.001585	0.001640	28.0796	58.407	0.001886	30960.7	5.389240	174.179	263.159	1.100758	0.071448	0.071155	260.844	30960.7	0.065130	0.144842	1800.88	74325.3
334	2.000000	1.103000	7.36834e+06	-55339.1	955.82	-29742.1	0.000000	0.000000	7.114954	278.052	NaN	0.000000	0.001601	0.001672	28.0792	58.9473	0.001813	32514.6	6.350571	173.496	276.375	1.102643	0.073397	0.073040	278.052	32514.6	0.066983	0.152032	1828.91	76187.7
334	2.000000	1.104973	7.36834e+06	-55339.1	955.82	-29742.1	0.000000	0.000000	7.117494	291.845	NaN	0.000000	0.001579	0.001634	28.0798	61.2165	0.001739	35192.5	8.089946	170.415	287.559	1.104639	0.075369	0.075036	291.845	35192.5	0.069150	0.160647	1816.69	80220.9
334	2.000000	1.107047	7.36834e+06	-55339.1	955.82	-29742.1	0.000000	0.000000	7.120110	305.011	NaN	0.000000	0.001600	0.001646	28.0804	62.851	0.001879	33440.6	5.653503	173.307	302.764	1.106740	0.077444	0.077136	305.011	33440.6	0.070603	0.166550	1831.35	74864.4
334	2.000000	1.108993	7.36834e+06	-55339.1	955.819	-29742.1	0.000000	0.000000	7.122941	326.545	NaN	0.000000	0.001621	0.001632	28.0805	63.5382	0.001696	37472.1	2.629466	175.23	324.256	1.108684	0.079389	0.079080	326.545	37472.1	0.072854	0.175890	1856.53	81632
334	2.000000	1.111068	7.36834e+06	-55339.1	955.82	-29742.1	0.000000	0.000000	7.125685	342.802	NaN	0.000000	0.001615	0.001673	28.0807	67.7622	0.001932	35079.8	4.204237	174.253	345.037	1.110678	0.081465	0.081075	342.802	35079.8	0.074136	0.181317	1890.62	75268.2
334	2.000000	1.113093	7.36834e+06	-55339.1	955.821	-29742.1	0.000000	0.000000	7.127456	336.619	NaN	0.000000	0.001600	0.001685	28.0807	67.3148	0.001798	37436.9	1.711752	176.053	337.199	1.113035	0.083490	0.083432	336.619	37436.9	0.076746	0.192608	1747.69	77935.6
334	2.000000	1.114962	7.36834e+06	-55339.1	955.82	-29742.1	0.000000	0.000000	7.130643	368.668	NaN	0.000000	0.001637	0.001717	28.0811	70.1669	0.001917	36602.5	5.565888	173.319	364.312	1.114603	0.085358	0.084999	368.668	36602.5	0.077804	0.197276	1868.79	75291.7
334	2.000000	1.117013	7.36834e+06	-55339.1	955.819	-29742.1	0.000000	0.000000	7.133497	388.167	NaN	0.000000	0.001562	0.001673	28.0807	71.4203	0.001735	41163.6	4.676309	172.617	385.614	1.116665	0.087410	0.087061	388.167	41163.6	0.080337	0.208662	1860.27	82331.2
334	2.000000	1.118854	7.36834e+06	-55339.1	955.821	-29742.1	0.000000	0.000000	7.135985	403.92	NaN	0.000000	0.001560	0.001673	28.0806	72.3913	0.001822	39728.1	2.804924	175.051	395.373	1.118524	0.089251	0.088921	403.92	39728.1	0.081625	0.214566	1882.5	78359.3
334	2.000000	1.121129	7.36834e+06	-55339.1	955.82	-29742.1	0.000000	0.000000	7.138951	420.701	NaN	0.000000	0.001530	0.001667	28.0808	75.3735	0.001748	43125	4.616045	171.751	425.964	1.120792	0.091526	0.091189	420.701	43125	0.084210	0.226645	1856.21	82761.6
334	2.000000	1.123054	7.36834e+06	-55339.1	955.82	-29742.1	0.000000	0.000000	7.141906	445.742	NaN	0.000000	0.001519	0.001706	28.0805	75.8654	0.001759	43127.9	6.087513	170.804	446.525	1.122749	0.093451	0.093145	445.742	43127.9	0.085700	0.233750	1906.92	81499.7
334	2.000000	1.124942	7.36834e+06	-55339.1	955.82	-29742.1	0.000000	0.000000	7.144578	464.786	NaN	0.000000	0.001543	0.001697	28.0809	78.293	0.001767	44313.1	1.629469	174.902	458.753	1.124546	0.095339	0.094942	464.786	44313.1	0.087472	0.242337	1917.94	82242.4
334	2.000000	1.127097	7.36834e+06	-55339.1	955.82	-29742.1	0.000000	0.000000	7.146910	469.104	NaN	0.000000	0.001521	0.001668	28.0806	81.1755	0.001828	44409	4.170517	172.505	469.607	1.126822	0.097494	0.097219	469.104	44409	0.089571	0.252691	1856.43	80714.2
334	2.000000	1.129004	7.36834e+06	-55339.1	955.819	-29742.1	0.000000	0.000000	7.150224	503.316	NaN	0.000000	0.001519	0.001667	28.0806	81.6931	0.001865	43814.5	3.394207	174.212	501.879	1.128491	0.099401	0.098888	503.316	43814.5	0.090785	0.258769	1945.04	78692.8
334	2.000000	1.131185	7.36834e+06	-55339.1	955.818	-29742.1	0.000000	0.000000	7.152633	508.862	NaN	0.000000	0.001582	0.001686	28.081	85.5922	0.001768	48418.9	5.443279	170.865	523.049	1.130745	0.101582	0.101142	508.862	48418.9	0.093699	0.273641	1859.6	84566.3
334	2.000000	1.132935	7.36834e+06	-55339.1	955.819	-29742.1	0.000000	0.000000	7.155816	543.673	NaN	0.000000	0.001586	0.001659	28.0806	85.4629	0.001863	45861.6	3.828112	172.269	540.665	1.132611	0.103332	0.103008	543.673	45861.6	0.094441	0.277489	1959.26	79542.6
334	2.000000	1.135034	7.36834e+06	-55339.1	955.82	-29742.1	0.000000	0.000000	7.158576	559.756	NaN	0.000000	0.001548	0.001646	28.0807	88.97	0.001859	47859	9.795021	167.811	562.378	1.134618	0.105430	0.105015	559.756	47859	0.096658	0.289139	1935.94	81317.4
334	2.000000	1.136868	7.36834e+06	-55339.1	955.82	-29742.1	0.000000	0.000000	7.161199	578.944	NaN	0.000000	0.001579	0.001658	28.0808	88.4768	0.001892	46755.9	4.163901	172.154	571.413	1.136503	0.107264	0.106899	578.944	46755.9	0.097978	0.296176	1954.73	78493.7
334	2.000000	1.139069	7.36834e+06	-55339.1	955.819	-29742.1	0.000000	0.000000	7.163981	593.042	NaN	0.000000	0.001559	0.001656	28.0807	89.8344	0.001773	50666.9	2.890377	173.097	597.374	1.138756	0.109466	0.109153	593.042	50666.9	0.100688	0.310883	1907.61	83023.3