File: remote_trans/data/nanoindenter/0828-1/data/Data_2025-08-06,11h17m57s/2025-07-22_16-23-58_1_715.txt
2025-07-22, 16:23:58, 1
Index	Phase	Displacement	Time	Pos X	Pos Y	Pos Z	Rot A	Rot B	Piezo Z	Force A	Force B	Gripper	Voltage A	Voltage B	Temperature	Amplitude force	Amplitude pos	Stiffness	Phase shift	Phase excitation	Force A raw	Displacement raw	HMax	HMax raw	Real Force	Real Stiffness	Contact Depth	Area	Hardness	Reduced Mod.
[#]	[#]	[um]	[s]	[um]	[um]	[um]	[m°]	[m°]	[um]	[uN]	[uN]	[V]	[V]	[V]	[°C]	[uN]	[um]	[N/m]	[°]	[°]	[uN]	[um]	[um]	[um]	[uN]	[N/m]	[um]	[um^2]	[MPa]	[MPa]
715	1.000000	0.002033	7.37205e+06	-41339.1	1005.82	-29786.5	0.000000	0.000000	6.002748	-0.020018	NaN	0.000000	0.001682	0.001729	28.0826	0.146201	0.001012	144.443	140.605	-167.581	0.039344	0.000819	-1.137209	-1.138422	-0.020018	144.443	-1.137105	-1.577304E+15	1.269109E-17	NaN
715	1.000000	0.012146	7.37205e+06	-41339.1	1005.82	-29786.5	0.000000	0.000000	6.012862	-0.008929	NaN	0.000000	0.001700	0.001747	28.083	0.034877	0.001165	29.9256	55.0084	14.0134	0.019209	0.010678	-1.127095	-1.128564	-0.008929	29.9256	-1.126872	-1.149899E+15	7.764814E-18	NaN
715	1.000000	0.022018	7.37205e+06	-41339.1	1005.82	-29786.5	0.000000	0.000000	6.022733	-0.042703	NaN	0.000000	0.001713	0.001744	28.0831	0.097470	0.001806	53.983	116.008	-167.4	-0.063856	0.020746	-1.117223	-1.118496	-0.042703	53.983	-1.116630	-8.380284E+14	5.095697E-17	NaN
715	1.000000	0.032032	7.37205e+06	-41339.1	1005.82	-29786.5	0.000000	0.000000	6.032746	-0.034476	NaN	0.000000	0.001618	0.001762	28.0829	0.099030	0.002024	48.9268	-156.086	12.8489	0.082521	0.030671	-1.107210	-1.108570	-0.034476	48.9268	-1.106681	-6.162401E+14	5.594529E-17	NaN
715	1.000000	0.042038	7.37205e+06	-41339.1	1005.82	-29786.5	0.000000	0.000000	6.042750	-0.080251	NaN	0.000000	0.001653	0.001717	28.0831	0.058420	0.001973	29.6149	35.7861	-164.286	-0.059350	0.040661	-1.097204	-1.098580	-0.080251	29.6149	-1.095172	-4.317676E+14	1.858661E-16	NaN
715	1.000000	0.052052	7.37205e+06	-41339.1	1005.82	-29786.5	0.000000	0.000000	6.052767	-0.043554	NaN	0.000000	0.001664	0.001679	28.0828	0.102324	0.002010	50.9018	22.9574	15.0382	0.073004	0.050624	-1.087189	-1.088618	-0.043554	50.9018	-1.086547	-3.307124E+14	1.316976E-16	NaN
715	1.000000	0.062041	7.37205e+06	-41339.1	1005.82	-29786.5	0.000000	0.000000	6.062759	0.036826	NaN	0.000000	0.001664	0.001711	28.0827	0.019420	0.001917	10.129	66.6633	-166.396	0.048525	0.060756	-1.077201	-1.078486	0.036826	10.129	-1.079928	-2.694920E+14	-1.366485E-16	NaN
715	1.000000	0.072024	7.37205e+06	-41339.1	1005.82	-29786.5	0.000000	0.000000	6.072742	0.054317	NaN	0.000000	0.001681	0.001706	28.0831	0.047239	0.002030	23.2663	49.4116	13.6583	0.028339	0.070704	-1.067218	-1.068537	0.054317	23.2663	-1.068969	-1.920151E+14	-2.828811E-16	NaN
715	1.000000	0.082037	7.37205e+06	-41339.1	1005.82	-29786.5	0.000000	0.000000	6.082751	-0.042846	NaN	0.000000	0.001630	0.001727	28.0828	0.021376	0.001855	11.5238	75.1501	-166.519	0.000375	0.080659	-1.057205	-1.058583	-0.042846	11.5238	-1.054416	-1.223978E+14	3.500586E-16	NaN
715	1.000000	0.092045	7.37205e+06	-41339.1	1005.82	-29786.5	0.000000	0.000000	6.092760	-0.024464	NaN	0.000000	0.001616	0.001738	28.0827	0.080954	0.001906	42.4711	157.201	13.9651	-0.109569	0.090687	-1.047197	-1.048555	-0.024464	42.4711	-1.046765	-9.658737E+13	2.532808E-16	NaN
715	1.000000	0.102077	7.37205e+06	-41339.1	1005.82	-29786.5	0.000000	0.000000	6.102793	-0.008479	NaN	0.000000	0.001636	0.001710	28.083	0.055454	0.002061	26.9127	61.0645	-167.445	0.034393	0.100715	-1.037165	-1.038526	-0.008479	26.9127	-1.036929	-7.123047E+13	1.190334E-16	NaN
715	1.000000	0.112053	7.37205e+06	-41339.1	1005.82	-29786.5	0.000000	0.000000	6.112765	-0.110666	NaN	0.000000	0.001644	0.001698	28.0832	0.047171	0.002090	22.5749	70.4633	14.0029	-0.035510	0.110710	-1.027188	-1.028532	-0.110666	22.5749	-1.023512	-4.701093E+13	2.354054E-15	NaN
715	1.000000	0.122067	7.37205e+06	-41339.1	1005.82	-29786.5	0.000000	0.000000	6.122783	-0.017382	NaN	0.000000	0.001645	0.001745	28.0833	0.079281	0.002050	38.6822	142.602	-163.493	0.001586	0.120763	-1.017175	-1.018478	-0.017382	38.6822	-1.016838	-3.822958E+13	4.546821E-16	NaN
715	1.000000	0.132057	7.37205e+06	-41339.1	1005.82	-29786.5	0.000000	0.000000	6.132773	-0.003266	NaN	0.000000	0.001655	0.001695	28.083	0.017868	0.002082	8.583836	-124.975	13.7375	0.000813	0.130695	-1.007185	-1.008547	-0.003266	8.583836	-1.006900	-2.809655E+13	1.162511E-16	NaN
715	1.000000	0.142066	7.37205e+06	-41339.1	1005.82	-29786.5	0.000000	0.000000	6.142783	0.012954	NaN	0.000000	0.001625	0.001724	28.0833	0.021067	0.002061	10.222	88.4116	-166.385	0.010182	0.140777	-0.997176	-0.998464	0.012954	10.222	-0.998126	-2.140609E+13	-6.051658E-16	NaN
715	1.000000	0.152075	7.37205e+06	-41339.1	1005.82	-29786.5	0.000000	0.000000	6.152789	-0.050617	NaN	0.000000	0.001617	0.001707	28.0816	0.127313	0.002037	62.5124	-175.29	13.4069	0.042887	0.150739	-0.987167	-0.988502	-0.050617	62.5124	-0.986560	-1.495469E+13	3.384723E-15	NaN
715	1.000000	0.162087	7.37205e+06	-41339.1	1005.82	-29786.5	0.000000	0.000000	6.162803	-0.021149	NaN	0.000000	0.001565	0.001711	28.0817	0.073839	0.001869	39.4969	-127.233	-169.601	0.036684	0.160767	-0.977154	-0.978475	-0.021149	39.4969	-0.976753	-1.103216E+13	1.917046E-15	NaN
715	1.000000	0.172068	7.37205e+06	-41339.1	1005.82	-29786.5	0.000000	0.000000	6.172782	-0.047928	NaN	0.000000	0.001549	0.001752	28.0816	0.147008	0.001872	78.5338	-18.371	16.5644	-0.069405	0.170726	-0.967174	-0.968516	-0.047928	78.5338	-0.966716	-8.079905E+12	5.931720E-15	NaN
715	1.000000	0.182050	7.37205e+06	-41339.1	1005.82	-29786.5	0.000000	0.000000	6.182764	-0.057861	NaN	0.000000	0.001593	0.001709	28.0819	0.077712	0.002069	37.554	18.9061	-164.341	-0.035187	0.180758	-0.957192	-0.958483	-0.057861	37.554	-0.956036	-5.800005E+12	9.976015E-15	NaN
715	1.000000	0.192080	7.37205e+06	-41339.1	1005.82	-29786.5	0.000000	0.000000	6.192795	-0.022813	NaN	0.000000	0.001647	0.001714	28.0818	0.057284	0.002012	28.4734	-167.124	17.5468	-0.061530	0.190707	-0.947162	-0.948535	-0.022813	28.4734	-0.946561	-4.321559E+12	5.278787E-15	NaN
715	1.000000	0.202100	7.37205e+06	-41339.1	1005.82	-29786.5	0.000000	0.000000	6.202817	0.011885	NaN	0.000000	0.001638	0.001715	28.0817	0.028977	0.002021	14.3378	56.3936	-167.341	-0.039254	0.200786	-0.937142	-0.938456	0.011885	14.3378	-0.937763	-3.288202E+12	-3.614441E-15	NaN
715	1.000000	0.212125	7.37205e+06	-41339.1	1005.82	-29786.5	0.000000	0.000000	6.212841	-0.016930	NaN	0.000000	0.001615	0.001711	28.0818	0.087703	0.001994	43.9905	-153.513	17.2217	-0.047775	0.210773	-0.927116	-0.928469	-0.016930	43.9905	-0.926828	-2.340883E+12	7.232509E-15	NaN
715	1.000000	0.222098	7.37205e+06	-41339.1	1005.82	-29786.5	0.000000	0.000000	6.222814	0.006718	NaN	0.000000	0.001609	0.001737	28.0819	0.066566	0.002047	32.5256	111.974	-166.179	-0.008193	0.220782	-0.917144	-0.918460	0.006718	32.5256	-0.917299	-1.740730E+12	-3.859283E-15	NaN
715	1.000000	0.232068	7.37205e+06	-41339.1	1005.82	-29786.5	0.000000	0.000000	6.232779	-0.131222	NaN	0.000000	0.001626	0.001737	28.0823	0.043733	0.002014	21.7161	175.545	19.5502	-0.106051	0.230733	-0.907173	-0.908508	-0.131222	21.7161	-0.902641	-1.103454E+12	1.189192E-13	NaN
715	1.000000	0.242115	7.37205e+06	-41339.1	1005.82	-29786.5	0.000000	0.000000	6.242832	0.016472	NaN	0.000000	0.001600	0.001737	28.0817	0.021418	0.002063	10.3801	-121.776	-163.804	-0.085216	0.240785	-0.897127	-0.898456	0.016472	10.3801	-0.898317	-9.645407E+11	-1.707719E-14	NaN
715	1.000000	0.252098	7.37205e+06	-41339.1	1005.82	-29786.5	0.000000	0.000000	6.252813	-0.031879	NaN	0.000000	0.001674	0.001716	28.0821	0.072392	0.002003	36.1423	7.040157	15.5813	-0.066949	0.250741	-0.887144	-0.888501	-0.031879	36.1423	-0.886482	-6.673547E+11	4.776895E-14	NaN
715	1.000000	0.262139	7.37205e+06	-41339.1	1005.82	-29786.5	0.000000	0.000000	6.262856	0.016603	NaN	0.000000	0.001616	0.001735	28.0817	0.051250	0.002017	25.4039	-77.3545	-164.238	-0.026872	0.260796	-0.877102	-0.878446	0.016603	25.4039	-0.877592	-5.059963E+11	-3.281204E-14	NaN
715	1.000000	0.272118	7.37205e+06	-41339.1	1005.82	-29786.5	0.000000	0.000000	6.272833	-0.037792	NaN	0.000000	0.001626	0.001772	28.0817	0.073199	0.001907	38.3858	49.8321	16.4317	0.088689	0.270734	-0.867123	-0.868508	-0.037792	38.3858	-0.866385	-3.568883E+11	1.058943E-13	NaN
715	1.000000	0.282133	7.37205e+06	-41339.1	1005.82	-29786.5	0.000000	0.000000	6.282850	0.027592	NaN	0.000000	0.001642	0.001743	28.0825	0.068592	0.001940	35.3633	-73.991	-165.648	0.008743	0.280842	-0.857109	-0.858400	0.027592	35.3633	-0.857694	-2.722122E+11	-1.013631E-13	NaN
715	1.000000	0.292145	7.37205e+06	-41339.1	1005.82	-29786.5	0.000000	0.000000	6.292863	0.039721	NaN	0.000000	0.001624	0.001762	28.0829	0.029571	0.002045	14.4601	124.038	15.3114	0.035978	0.290749	-0.847097	-0.848492	0.039721	14.4601	-0.849157	-2.086035E+11	-1.904128E-13	NaN
715	1.000000	0.302135	7.37205e+06	-41339.1	1005.82	-29786.5	0.000000	0.000000	6.302848	-0.077111	NaN	0.000000	0.001641	0.001766	28.0828	0.071777	0.002017	35.5809	111.661	-170.475	0.019324	0.300827	-0.837106	-0.838415	-0.077111	35.5809	-0.835481	-1.361636E+11	5.663121E-13	NaN
715	1.000000	0.312131	7.37205e+06	-41339.1	1005.82	-29786.5	0.000000	0.000000	6.312843	-0.095678	NaN	0.000000	0.001624	0.001794	28.083	0.085015	0.002142	39.6977	-40.8011	16.3582	-0.055573	0.310793	-0.827111	-0.828449	-0.095678	39.6977	-0.825303	-9.911006E+10	9.653743E-13	NaN
715	1.000000	0.322173	7.37205e+06	-41339.1	1005.82	-29786.5	0.000000	0.000000	6.322889	-0.007998	NaN	0.000000	0.001614	0.001797	28.0832	0.047795	0.002022	23.6333	-119.536	-167.321	-0.053509	0.320867	-0.817069	-0.818375	-0.007998	23.6333	-0.816815	-7.603577E+10	1.051854E-13	NaN
715	1.000000	0.332158	7.37205e+06	-41339.1	1005.82	-29786.5	0.000000	0.000000	6.332872	-0.057749	NaN	0.000000	0.001626	0.001815	28.0829	0.015866	0.002004	7.917466	-112.985	13.8906	-0.053659	0.330790	-0.807084	-0.808451	-0.057749	7.917466	-0.801613	-4.728917E+10	1.221194E-12	NaN
715	1.000000	0.342151	7.37205e+06	-41339.1	1005.82	-29786.5	0.000000	0.000000	6.342868	0.007463	NaN	0.000000	0.001648	0.001801	28.0828	0.124556	0.002051	60.7194	2.686725	-167.559	-0.019508	0.340823	-0.797091	-0.798418	0.007463	60.7194	-0.797183	-4.117343E+10	-1.812547E-13	NaN
715	1.000000	0.352156	7.37205e+06	-41339.1	1005.82	-29786.5	0.000000	0.000000	6.352874	0.053478	NaN	0.000000	0.001640	0.001809	28.0831	0.107471	0.001784	60.2305	-172.461	16.3052	0.036199	0.350826	-0.787086	-0.788416	0.053478	60.2305	-0.787752	-3.065840E+10	-1.744309E-12	NaN
715	1.000000	0.362167	7.37205e+06	-41339.1	1005.82	-29786.5	0.000000	0.000000	6.362885	0.030218	NaN	0.000000	0.001590	0.001798	28.0831	0.075409	0.002016	37.4137	-48.8145	-164.919	0.006661	0.360889	-0.777074	-0.778353	0.030218	37.4137	-0.777680	-2.237196E+10	-1.350718E-12	NaN
715	1.000000	0.372152	7.37205e+06	-41339.1	1005.82	-29786.5	0.000000	0.000000	6.372867	-0.032304	NaN	0.000000	0.001638	0.001748	28.0831	0.096668	0.002062	46.8836	18.543	14.7457	-0.043976	0.370795	-0.767089	-0.768447	-0.032304	46.8836	-0.766572	-1.580147E+10	2.044390E-12	NaN
715	1.000000	0.382173	7.37205e+06	-41339.1	1005.82	-29786.5	0.000000	0.000000	6.382888	-0.013389	NaN	0.000000	0.001622	0.001735	28.083	0.067342	0.001992	33.8049	84.9135	-165.461	-0.003698	0.380846	-0.757069	-0.758396	-0.013389	33.8049	-0.756772	-1.162476E+10	1.151766E-12	NaN
715	1.000000	0.392189	7.37205e+06	-41339.1	1005.82	-29786.5	0.000000	0.000000	6.392904	-0.038792	NaN	0.000000	0.001594	0.001767	28.0831	0.143874	0.002063	69.7404	-157.141	15.4638	0.026582	0.390771	-0.747053	-0.748470	-0.038792	69.7404	-0.746635	-8.460898E+9	4.584827E-12	NaN
715	1.000000	0.402168	7.37205e+06	-41339.1	1005.82	-29786.5	0.000000	0.000000	6.402885	0.017596	NaN	0.000000	0.001596	0.001724	28.0829	0.053402	0.002036	26.2275	33.6295	-168.587	0.032131	0.400877	-0.737074	-0.738365	0.017596	26.2275	-0.737577	-6.368692E+9	-2.762855E-12	NaN
715	1.000000	0.412170	7.37205e+06	-41339.1	1005.82	-29786.5	0.000000	0.000000	6.412887	0.004532	NaN	0.000000	0.001586	0.001778	28.083	0.087260	0.002025	43.1008	162.571	13.7037	-0.061052	0.410834	-0.727071	-0.728407	0.004532	43.1008	-0.727150	-4.591602E+9	-9.870602E-13	NaN
715	1.000000	0.422179	7.37205e+06	-41339.1	1005.82	-29786.5	0.000000	0.000000	6.422895	-0.010862	NaN	0.000000	0.001635	0.001753	28.0817	0.072026	0.001977	36.435	-165.562	-164.834	0.031330	0.420880	-0.717063	-0.718362	-0.010862	36.435	-0.716839	-3.321698E+9	3.270133E-12	NaN
715	1.000000	0.432213	7.37205e+06	-41339.1	1005.82	-29786.5	0.000000	0.000000	6.432929	-0.010539	NaN	0.000000	0.001603	0.001728	28.0818	0.040850	0.002102	19.4356	-22.2255	14.8196	0.022622	0.430793	-0.707029	-0.708449	-0.010539	19.4356	-0.706622	-2.409603E+9	4.373670E-12	NaN
715	1.000000	0.442236	7.37205e+06	-41339.1	1005.82	-29786.5	0.000000	0.000000	6.442954	0.058142	NaN	0.000000	0.001618	0.001749	28.0818	0.071096	0.001818	39.1003	63.1809	-166.031	0.048409	0.440856	-0.697006	-0.698385	0.058142	39.1003	-0.698121	-1.844457E+9	-3.152283E-11	NaN
715	1.000000	0.452206	7.37205e+06	-41339.1	1005.82	-29786.5	0.000000	0.000000	6.452922	-0.002958	NaN	0.000000	0.001590	0.001737	28.0818	0.015289	0.001947	7.852386	146.862	15.0217	0.004653	0.450888	-0.687036	-0.688353	-0.002958	7.852386	-0.686753	-1.289856E+9	2.293316E-12	NaN
715	1.000000	0.462189	7.37205e+06	-41339.1	1005.82	-29786.5	0.000000	0.000000	6.462906	0.024208	NaN	0.000000	0.001595	0.001767	28.082	0.111065	0.001872	59.319	-108.291	-163.474	0.012312	0.460902	-0.677053	-0.678340	0.024208	59.319	-0.677359	-9.595848E+8	-2.522802E-11	NaN
715	1.000000	0.472204	7.37205e+06	-41339.1	1005.82	-29786.5	0.000000	0.000000	6.472920	-0.011559	NaN	0.000000	0.001622	0.001747	28.0817	0.049156	0.001951	25.2014	-58.6564	14.5202	-0.032032	0.470842	-0.667038	-0.668400	-0.011559	25.2014	-0.666694	-6.856959E+8	1.685741E-11	NaN
715	1.000000	0.482219	7.37205e+06	-41339.1	1005.82	-29786.5	0.000000	0.000000	6.482933	-0.049887	NaN	0.000000	0.001609	0.001728	28.0818	0.139337	0.001890	73.7179	109.981	-169.895	-0.039231	0.480895	-0.657022	-0.658347	-0.049887	73.7179	-0.656515	-4.974202E+8	1.002910E-10	NaN
715	1.000000	0.492221	7.37205e+06	-41339.1	1005.82	-29786.5	0.000000	0.000000	6.492937	-0.019914	NaN	0.000000	0.001588	0.001710	28.0816	0.080753	0.002063	39.1389	-117.341	14.6406	0.010348	0.490792	-0.647020	-0.648450	-0.019914	39.1389	-0.646639	-3.642090E+8	5.467634E-11	NaN
715	1.000000	0.502214	7.37205e+06	-41339.1	1005.82	-29786.5	0.000000	0.000000	6.502931	0.006668	NaN	0.000000	0.001604	0.001698	28.082	0.093359	0.001948	47.9304	76.3163	-166.924	0.018879	0.500881	-0.637027	-0.638361	0.006668	47.9304	-0.637131	-2.697285E+8	-2.472011E-11	NaN
715	1.000000	0.512207	7.37205e+06	-41339.1	1005.82	-29786.5	0.000000	0.000000	6.512924	0.015977	NaN	0.000000	0.001609	0.001733	28.0816	0.062242	0.002270	27.4247	123.447	13.4916	-0.014321	0.510857	-0.627035	-0.628385	0.015977	27.4247	-0.627472	-1.987452E+8	-8.038922E-11	NaN
715	1.000000	0.522227	7.37205e+06	-41339.1	1005.82	-29786.5	0.000000	0.000000	6.522943	-0.006076	NaN	0.000000	0.001589	0.001717	28.0819	0.008165	0.001980	4.124489	177.261	-167.908	-0.012619	0.520925	-0.617014	-0.618317	-0.006076	4.124489	-0.615910	-1.378476E+8	4.407564E-11	NaN
715	1.000000	0.532239	7.37205e+06	-41339.1	1005.82	-29786.5	0.000000	0.000000	6.532956	0.021025	NaN	0.000000	0.001638	0.001687	28.0816	0.124023	0.001968	63.0325	-89.7357	12.6511	-0.010506	0.530891	-0.607003	-0.608351	0.021025	63.0325	-0.607253	-1.047893E+8	-2.006424E-10	NaN
715	1.000000	0.542229	7.37205e+06	-41339.1	1005.82	-29786.5	0.000000	0.000000	6.542945	-0.005782	NaN	0.000000	0.001630	0.001718	28.0818	0.064555	0.001989	32.457	32.3446	-169.987	0.044719	0.540943	-0.597013	-0.598299	-0.005782	32.457	-0.596879	-7.541714E+7	7.666511E-11	NaN
715	1.000000	0.552224	7.37205e+06	-41339.1	1005.82	-29786.5	0.000000	0.000000	6.552941	0.018161	NaN	0.000000	0.001630	0.001727	28.0816	0.043912	0.001928	22.7724	157.035	14.4547	0.022255	0.550892	-0.587017	-0.588350	0.018161	22.7724	-0.587616	-5.620689E+7	-3.231135E-10	NaN
715	1.000000	0.562250	7.37205e+06	-41339.1	1005.82	-29786.5	0.000000	0.000000	6.562966	-0.009469	NaN	0.000000	0.001633	0.001709	28.0829	0.025631	0.002025	12.6603	-77.9977	-164.833	-0.088086	0.560991	-0.576992	-0.578251	-0.009469	12.6603	-0.576431	-3.939624E+7	2.403438E-10	NaN
715	1.000000	0.572228	7.37205e+06	-41339.1	1005.82	-29786.5	0.000000	0.000000	6.572939	-0.102490	NaN	0.000000	0.001594	0.001765	28.0831	0.020226	0.001947	10.3887	143.806	12.9869	-0.152660	0.570886	-0.567014	-0.568356	-0.102490	10.3887	-0.559615	-2.307020E+7	4.442515E-9	NaN
715	1.000000	0.582253	7.37205e+06	-41339.1	1005.82	-29786.5	0.000000	0.000000	6.582968	-0.035531	NaN	0.000000	0.001629	0.001749	28.0831	0.030643	0.001982	15.4637	61.2306	-169.246	-0.026168	0.580921	-0.556989	-0.558321	-0.035531	15.4637	-0.555265	-2.008448E+7	1.769067E-9	NaN
715	1.000000	0.592273	7.37205e+06	-41339.1	1005.82	-29786.5	0.000000	0.000000	6.592989	-0.016681	NaN	0.000000	0.001616	0.001751	28.083	0.107072	0.001871	57.2391	-111.202	10.6115	-0.001697	0.590914	-0.546968	-0.548328	-0.016681	57.2391	-0.546750	-1.530824E+7	1.089659E-9	NaN
715	1.000000	0.602267	7.37205e+06	-41339.1	1005.82	-29786.5	0.000000	0.000000	6.602984	0.014055	NaN	0.000000	0.001624	0.001707	28.0833	0.009285	0.002170	4.278454	64.1779	-167.037	-0.008192	0.600962	-0.536975	-0.538280	0.014055	4.278454	-0.539438	-1.212185E+7	-1.159445E-9	NaN
715	1.000000	0.612262	7.37205e+06	-41339.1	1005.82	-29786.5	0.000000	0.000000	6.612977	-0.035092	NaN	0.000000	0.001615	0.001755	28.0831	0.038351	0.002122	18.0711	-163.215	12.0342	-0.023396	0.610920	-0.526979	-0.528321	-0.035092	18.0711	-0.525523	-7.76927e+06	4.516751E-9	NaN
715	1.000000	0.622275	7.37205e+06	-41339.1	1005.82	-29786.5	0.000000	0.000000	6.622992	0.011999	NaN	0.000000	0.001599	0.001711	28.083	0.037403	0.002092	17.8796	23.6251	-165.504	0.076079	0.620940	-0.516967	-0.518302	0.011999	17.8796	-0.517470	-6.00348e+06	-1.998727E-9	NaN
715	1.000000	0.632258	7.37205e+06	-41339.1	1005.82	-29786.5	0.000000	0.000000	6.632973	-0.034122	NaN	0.000000	0.001653	0.001723	28.0828	0.041882	0.001938	21.6075	-5.897898	15.2209	0.000226	0.630892	-0.506984	-0.508349	-0.034122	21.6075	-0.505799	-4.1294e+06	8.263131E-9	NaN
715	1.000000	0.642284	7.37205e+06	-41339.1	1005.82	-29786.5	0.000000	0.000000	6.642999	-0.015381	NaN	0.000000	0.001594	0.001737	28.0835	0.084078	0.001930	43.5577	57.3252	-162.989	0.048163	0.641001	-0.496958	-0.498240	-0.015381	43.5577	-0.496693	-3.08227e+06	4.990115E-9	NaN
715	1.000000	0.652293	7.37205e+06	-41339.1	1005.82	-29786.5	0.000000	0.000000	6.653007	-0.070391	NaN	0.000000	0.001609	0.001749	28.0828	0.052699	0.002093	25.1818	93.082	13.4772	-0.152594	0.650885	-0.486948	-0.488356	-0.070391	25.1818	-0.484852	-2.10581e+06	3.342699E-8	NaN
715	1.000000	0.662277	7.37205e+06	-41339.1	1005.82	-29786.5	0.000000	0.000000	6.662992	-0.024932	NaN	0.000000	0.001601	0.001706	28.0828	0.029848	0.002026	14.732	-88.3483	-170.161	-0.038509	0.660973	-0.476965	-0.478269	-0.024932	14.732	-0.475695	-1.56763e+06	1.590414E-8	NaN
715	1.000000	0.672312	7.37205e+06	-41339.1	1005.82	-29786.5	0.000000	0.000000	6.673030	0.034380	NaN	0.000000	0.001620	0.001746	28.0827	0.100135	0.001935	51.7481	-60.1401	13.2088	0.010559	0.670938	-0.466930	-0.468303	0.034380	51.7481	-0.467428	-1.20039e+06	-2.864019E-8	NaN
715	1.000000	0.682299	7.37205e+06	-41339.1	1005.82	-29786.5	0.000000	0.000000	6.683014	-0.029874	NaN	0.000000	0.001603	0.001759	28.083	0.071698	0.002005	35.7587	-120.348	-165.861	0.023244	0.680983	-0.456943	-0.458258	-0.029874	35.7587	-0.456316	-837978	3.564998E-8	NaN
715	1.000000	0.692307	7.37205e+06	-41339.1	1005.82	-29786.5	0.000000	0.000000	6.693022	-0.017560	NaN	0.000000	0.001624	0.001744	28.0819	0.115042	0.002134	53.913	-152.004	15.628	-0.012301	0.690905	-0.446935	-0.448337	-0.017560	53.913	-0.446691	-613369	2.862838E-8	NaN
715	1.000000	0.702331	7.37205e+06	-41339.1	1005.82	-29786.5	0.000000	0.000000	6.703043	-0.083736	NaN	0.000000	0.001581	0.001712	28.0819	0.040493	0.002015	20.095	-32.9301	-164.184	-0.026747	0.701016	-0.436911	-0.438225	-0.083736	20.095	-0.433786	-403268	2.076438E-7	NaN
715	1.000000	0.712308	7.37205e+06	-41339.1	1005.82	-29786.5	0.000000	0.000000	6.713025	0.023876	NaN	0.000000	0.001582	0.001739	28.0819	0.026271	0.001914	13.7245	-21.0213	12.8104	-0.008243	0.711001	-0.426934	-0.428241	0.023876	13.7245	-0.428239	-336620	-7.092713E-8	NaN
715	1.000000	0.722329	7.37205e+06	-41339.1	1005.82	-29786.5	0.000000	0.000000	6.723044	-0.022421	NaN	0.000000	0.001613	0.001737	28.0817	0.018206	0.001894	9.614778	-12.0375	-162.108	0.020743	0.721040	-0.416913	-0.418202	-0.022421	9.614778	-0.415164	-219674	1.020662E-7	NaN
715	1.000000	0.732326	7.37205e+06	-41339.1	1005.82	-29786.5	0.000000	0.000000	6.733043	0.019010	NaN	0.000000	0.001592	0.001720	28.0817	0.040594	0.002040	19.9029	-35.6549	12.4268	-0.010573	0.730963	-0.406916	-0.408279	0.019010	19.9029	-0.407632	-171680	-1.107305E-7	NaN
715	1.000000	0.742310	7.37205e+06	-41339.1	1005.82	-29786.5	0.000000	0.000000	6.743026	-0.018225	NaN	0.000000	0.001593	0.001703	28.0816	0.091275	0.002086	43.757	97.2183	-162.173	-0.025559	0.741011	-0.396931	-0.398230	-0.018225	43.757	-0.396619	-119605	1.523782E-7	NaN
715	1.000000	0.752300	7.37205e+06	-41339.1	1005.82	-29786.5	0.000000	0.000000	6.753016	-0.009041	NaN	0.000000	0.001564	0.001699	28.0817	0.024443	0.001954	12.508	-96.9748	15.247	-0.020050	0.750953	-0.386941	-0.388289	-0.009041	12.508	-0.386399	-85433.8	1.058265E-7	NaN
715	1.000000	0.762335	7.37205e+06	-41339.1	1005.82	-29786.5	0.000000	0.000000	6.763048	-0.080048	NaN	0.000000	0.001598	0.001718	28.0818	0.022727	0.002085	10.9013	-72.1002	-168.9	-0.091090	0.761031	-0.376906	-0.378211	-0.080048	10.9013	-0.371399	-52031.9	1.538447E-6	NaN
715	1.000000	0.772332	7.37205e+06	-41339.1	1005.82	-29786.5	0.000000	0.000000	6.773049	0.013396	NaN	0.000000	0.001599	0.001732	28.0815	0.099102	0.002013	49.2319	-1.498347	12.529	0.090749	0.770956	-0.366909	-0.368285	0.013396	49.2319	-0.367113	-45137	-2.967872E-7	NaN
715	1.000000	0.782348	7.37205e+06	-41339.1	1005.82	-29786.5	0.000000	0.000000	6.783065	0.014944	NaN	0.000000	0.001591	0.001731	28.0818	0.044611	0.002006	22.239	134.969	-166.322	0.033777	0.780991	-0.356893	-0.358250	0.014944	22.239	-0.357397	-32674.2	-4.573493E-7	NaN
715	1.000000	0.792332	7.37205e+06	-41339.1	1005.82	-29786.5	0.000000	0.000000	6.793049	0.005432	NaN	0.000000	0.001592	0.001721	28.0816	0.021730	0.001800	12.0698	13.253	13.6309	-0.035864	0.790961	-0.346909	-0.348280	0.005432	12.0698	-0.347247	-23281.9	-2.332932E-7	NaN
715	1.000000	0.802364	7.37205e+06	-41339.1	1005.82	-29786.5	0.000000	0.000000	6.803078	-0.066879	NaN	0.000000	0.001592	0.001719	28.0816	0.081854	0.002045	40.0246	148.498	-167.276	-0.123325	0.801098	-0.336877	-0.338144	-0.066879	40.0246	-0.335624	-15765.4	4.242127E-6	NaN
715	1.000000	0.812351	7.37205e+06	-41339.1	1005.82	-29786.5	0.000000	0.000000	6.813068	0.021278	NaN	0.000000	0.001681	0.001753	28.0817	0.053617	0.002038	26.3061	167.195	15.238	-0.042980	0.811004	-0.326891	-0.328238	0.021278	26.3061	-0.327497	-11988.9	-1.774840E-6	NaN
715	1.000000	0.822353	7.37205e+06	-41339.1	1005.82	-29786.5	0.000000	0.000000	6.823068	-0.024453	NaN	0.000000	0.001593	0.001739	28.0821	0.097939	0.002005	48.8438	-67.7944	-166.357	-0.059758	0.821059	-0.316889	-0.318183	-0.024453	48.8438	-0.316513	-8265.57	2.958373E-6	NaN
715	1.000000	0.832356	7.37205e+06	-41339.1	1005.82	-29786.5	0.000000	0.000000	6.833071	-0.047854	NaN	0.000000	0.001593	0.001717	28.083	0.021289	0.002006	10.6138	-33.7859	13.3233	-0.057407	0.830997	-0.306885	-0.308244	-0.047854	10.6138	-0.303504	-5305.64	9.019449E-6	NaN
715	1.000000	0.842355	7.37205e+06	-41339.1	1005.82	-29786.5	0.000000	0.000000	6.843071	-0.018131	NaN	0.000000	0.001573	0.001709	28.0829	0.030953	0.002013	15.3791	105.845	-167.278	-0.000176	0.841019	-0.296886	-0.298223	-0.018131	15.3791	-0.296002	-4102.47	4.419607E-6	NaN
715	1.000000	0.852357	7.37205e+06	-41339.1	1005.82	-29786.5	0.000000	0.000000	6.853075	0.049463	NaN	0.000000	0.001602	0.001704	28.0832	0.068725	0.001975	34.8004	-175.806	11.8871	-0.024126	0.850962	-0.286884	-0.288280	0.049463	34.8004	-0.287950	-3108.66	-1.591135E-5	NaN
715	1.000000	0.862383	7.37205e+06	-41339.1	1005.82	-29786.5	0.000000	0.000000	6.863100	0.031174	NaN	0.000000	0.001607	0.001747	28.0831	0.055904	0.002098	26.6485	55.0938	-163.546	0.067976	0.861068	-0.276859	-0.278173	0.031174	26.6485	-0.277736	-2181.69	-1.428879E-5	NaN
715	1.000000	0.872394	7.37205e+06	-41339.1	1005.82	-29786.5	0.000000	0.000000	6.873111	0.029230	NaN	0.000000	0.001617	0.001759	28.0833	0.055978	0.002011	27.8369	38.3523	11.7501	-0.018384	0.871022	-0.266848	-0.268219	0.029230	27.8369	-0.267635	-1533.08	-1.906641E-5	NaN
715	1.000000	0.882397	7.37205e+06	-41339.1	1005.82	-29786.5	0.000000	0.000000	6.883111	-0.054255	NaN	0.000000	0.001681	0.001735	28.083	0.056770	0.002014	28.1829	-14.0521	-168.817	-0.008064	0.881053	-0.256845	-0.258189	-0.054255	28.1829	-0.255401	-996.07	5.446951E-5	NaN
715	1.000000	0.892368	7.37205e+06	-41339.1	1005.82	-29786.5	0.000000	0.000000	6.893082	-0.040289	NaN	0.000000	0.001682	0.001757	28.0834	0.113777	0.001974	57.6317	-120.466	14.3625	-0.067424	0.891051	-0.246874	-0.248190	-0.040289	57.6317	-0.246349	-721.788	5.581830E-5	NaN
715	1.000000	0.902366	7.37205e+06	-41339.1	1005.82	-29786.5	0.000000	0.000000	6.903081	-0.036105	NaN	0.000000	0.001708	0.001769	28.0831	0.036985	0.001910	19.3607	-70.0204	-165.381	-0.068785	0.901046	-0.236876	-0.238196	-0.036105	19.3607	-0.235477	-488.359	7.393129E-5	NaN
715	1.000000	0.912368	7.37205e+06	-41339.1	1005.82	-29786.5	0.000000	0.000000	6.913085	0.007156	NaN	0.000000	0.001698	0.001799	28.0831	0.013023	0.002165	6.016641	64.4783	16.0188	-0.015894	0.911023	-0.226873	-0.228219	0.007156	6.016641	-0.227765	-369.135	-1.938617E-5	NaN
715	1.000000	0.922372	7.37205e+06	-41339.1	1005.82	-29786.5	0.000000	0.000000	6.923088	-0.000987	NaN	0.000000	0.001709	0.001731	28.0831	0.073248	0.001959	37.3985	118.76	-165.893	-0.070837	0.921100	-0.216869	-0.218141	-0.000987	37.3985	-0.216850	-247.302	3.989754E-6	NaN
715	1.000000	0.932418	7.37205e+06	-41339.1	1005.82	-29786.5	0.000000	0.000000	6.933134	-0.016976	NaN	0.000000	0.001677	0.001753	28.0833	0.093753	0.002062	45.474	44.1038	15.9588	0.018082	0.931035	-0.206824	-0.208207	-0.016976	45.474	-0.206544	-168.542	0.000101	NaN
715	1.000000	0.942396	7.37205e+06	-41339.1	1005.82	-29786.5	0.000000	0.000000	6.943112	-0.010573	NaN	0.000000	0.001653	0.001747	28.0831	0.041722	0.001999	20.8741	150.955	-165.095	0.001821	0.941019	-0.196845	-0.198223	-0.010573	20.8741	-0.196465	-115.198	9.178498E-5	NaN
715	1.000000	0.952394	7.37205e+06	-41339.1	1005.82	-29786.5	0.000000	0.000000	6.953112	0.045201	NaN	0.000000	0.001671	0.001751	28.0831	0.086499	0.001815	47.6609	149.988	14.6832	0.043072	0.950984	-0.186848	-0.188258	0.045201	47.6609	-0.187559	-81.877	-0.000552	NaN
715	1.000000	0.962416	7.37205e+06	-41339.1	1005.82	-29786.5	0.000000	0.000000	6.963130	-0.046755	NaN	0.000000	0.001710	0.001714	28.0832	0.061338	0.001938	31.6431	101.722	-169.019	0.000326	0.961115	-0.176826	-0.178126	-0.046755	31.6431	-0.175718	-51.5586	0.000907	NaN
715	1.000000	0.972410	7.37205e+06	-41339.1	1005.82	-29786.5	0.000000	0.000000	6.973127	0.015787	NaN	0.000000	0.001677	0.001718	28.0819	0.018331	0.001918	9.559248	144.223	12.5857	0.014124	0.971052	-0.166831	-0.168190	0.015787	9.559248	-0.168070	-38.0214	-0.000415	NaN
715	1.000000	0.982417	7.37205e+06	-41339.1	1005.82	-29786.5	0.000000	0.000000	6.983134	0.024708	NaN	0.000000	0.001714	0.001743	28.082	0.042431	0.001965	21.592	-111.786	-167.76	-0.050697	0.981134	-0.156825	-0.158108	0.024708	21.592	-0.157683	-24.9287	-0.000991	NaN
715	1.000000	0.992388	7.37205e+06	-41339.1	1005.82	-29786.5	0.000000	0.000000	6.993100	-0.108059	NaN	0.000000	0.001709	0.001761	28.0819	0.026519	0.002056	12.898	-53.061	14.5068	-0.066887	0.991042	-0.146853	-0.148199	-0.108059	12.898	-0.140570	-12.1244	0.008913	NaN
715	1.000000	1.002414	7.37205e+06	-41339.1	1005.82	-29786.5	0.000000	0.000000	7.003130	-0.015744	NaN	0.000000	0.001661	0.001739	28.0821	0.065395	0.001901	34.4078	8.132546	-166.571	-0.012950	1.001084	-0.136827	-0.138157	-0.015744	34.4078	-0.136484	-10.152	0.001551	NaN
715	1.000000	1.012406	7.37205e+06	-41339.1	1005.82	-29786.5	0.000000	0.000000	7.013121	-0.008007	NaN	0.000000	0.001699	0.001758	28.082	0.054196	0.001914	28.3103	113.509	12.9657	-0.044497	1.011121	-0.126836	-0.128120	-0.008007	28.3103	-0.126624	-6.546813	0.001223	NaN
715	1.000000	1.022397	7.37205e+06	-41339.1	1005.82	-29786.5	0.000000	0.000000	7.023114	0.018353	NaN	0.000000	0.001711	0.001792	28.0819	0.052308	0.001861	28.1118	-151.701	-164.578	-0.056992	1.021099	-0.116844	-0.118142	0.018353	28.1118	-0.117334	-4.265592	-0.004303	NaN
715	1.000000	1.032449	7.37205e+06	-41339.1	1005.82	-29786.5	0.000000	0.000000	7.033165	-0.001654	NaN	0.000000	0.001690	0.001753	28.0821	0.095873	0.001964	48.8191	-69.8733	12.9633	-0.019244	1.031140	-0.106793	-0.108102	-0.001654	48.8191	-0.106767	-2.565559	0.000645	NaN
715	1.000000	1.042426	7.37205e+06	-41339.1	1005.82	-29786.5	0.000000	0.000000	7.043141	-0.022963	NaN	0.000000	0.001706	0.001753	28.0821	0.046799	0.002022	23.1482	176.875	-164.571	-0.040407	1.041119	-0.096816	-0.098123	-0.022963	23.1482	-0.096072	-1.491987	0.015391	NaN
715	1.000000	1.052456	7.37205e+06	-41339.1	1005.82	-29786.5	0.000000	0.000000	7.053170	-0.063402	NaN	0.000000	0.001716	0.001762	28.082	0.067621	0.001936	34.9364	55.6209	15.3663	-0.030825	1.051072	-0.086785	-0.088169	-0.063402	34.9364	-0.085424	-0.841258	0.075366	NaN
715	1.000000	1.062466	7.37205e+06	-41339.1	1005.82	-29786.5	0.000000	0.000000	7.063181	-0.039093	NaN	0.000000	0.001685	0.001772	28.082	0.088831	0.002101	42.2814	39.8164	-168.793	-0.027873	1.061181	-0.076775	-0.078060	-0.039093	42.2814	-0.076082	-0.492493	0.079379	NaN
715	1.000000	1.072459	7.37205e+06	-41339.1	1005.82	-29786.5	0.000000	0.000000	7.073176	0.015103	NaN	0.000000	0.001665	0.001746	28.082	0.012488	0.001978	6.312816	-7.716256	15.2557	0.029958	1.071123	-0.066783	-0.068118	0.015103	6.312816	-0.068577	-0.312305	-0.048361	NaN
715	1.000000	1.082442	7.37205e+06	-41339.1	1005.82	-29786.5	0.000000	0.000000	7.083159	0.007472	NaN	0.000000	0.001705	0.001766	28.0821	0.076772	0.002087	36.7907	-51.1113	-165.509	-0.055787	1.081193	-0.056800	-0.058048	0.007472	36.7907	-0.056952	-0.146967	-0.050843	NaN
715	1.000000	1.092432	7.37205e+06	-41339.1	1005.82	-29786.5	0.000000	0.000000	7.093146	-0.044359	NaN	0.000000	0.001664	0.001740	28.0819	0.039355	0.001960	20.0774	129.833	10.3903	-0.028370	1.091066	-0.046810	-0.048175	-0.044359	20.0774	-0.045153	-0.064963	0.682841	NaN
715	1.000000	1.102473	7.37205e+06	-41339.1	1005.82	-29786.5	0.000000	0.000000	7.103189	-0.004098	NaN	0.000000	0.001657	0.001760	28.0832	0.057299	0.001895	30.2403	113.738	-162.897	-0.052528	1.101196	-0.036769	-0.038046	-0.004098	30.2403	-0.036667	-0.035886	0.114196	NaN
715	1.000000	1.112469	7.37205e+06	-41339.1	1005.82	-29786.5	0.000000	0.000000	7.113186	0.012826	NaN	0.000000	0.001627	0.001711	28.0833	0.069936	0.001854	37.7118	23.3493	15.4971	0.027558	1.111100	-0.026772	-0.028142	0.012826	37.7118	-0.027028	-0.019087	-0.671984	NaN
715	1.000000	1.122463	7.37205e+06	-41339.1	1005.82	-29786.5	0.000000	0.000000	7.123180	0.009171	NaN	0.000000	0.001668	0.001713	28.0834	0.108242	0.002173	49.8044	-5.286099	-162.991	0.048756	1.121213	-0.016778	-0.018028	0.009171	49.8044	-0.016917	-0.010457	-0.876962	NaN
715	1.000000	1.132484	7.37205e+06	-41339.1	1005.82	-29786.5	0.000000	0.000000	7.133204	0.107903	NaN	0.000000	0.001688	0.001716	28.083	0.206014	0.002080	99.0336	29.4715	15.3792	0.106617	1.131083	-0.006758	-0.008159	0.107903	99.0336	-0.007575	-0.004982	-21.6589	NaN
715	1.000000	1.142367	7.37205e+06	-41339.1	1005.82	-29786.5	0.000000	0.000000	7.143375	7.105712	NaN	0.000000	0.001695	0.001788	28.0835	6.506198	0.001782	3651.05	12.6128	-173.131	5.318797	1.141109	0.003125	0.001867	7.105712	3651.05	0.001665	0.001286	5525.08	93015.7
715	2.000000	1.145688	7.37205e+06	-41339.1	1005.82	-29786.5	0.000000	0.000000	7.146874	11.4362	NaN	0.000000	0.001690	0.001787	28.0833	9.739574	0.001659	5871.78	9.981660	2.476610	10.9152	1.145333	0.006446	0.006091	11.4362	5871.78	0.004985	0.004120	2775.78	83578.6
715	2.000000	1.148146	7.37205e+06	-41339.1	1005.82	-29786.5	0.000000	0.000000	7.149491	15.3061	NaN	0.000000	0.001639	0.001745	28.0834	12.5418	0.001691	7416.93	3.480834	-172.27	14.4512	1.147845	0.008904	0.008603	15.3061	7416.93	0.007356	0.006389	2395.79	84779.2
715	2.000000	1.150658	7.37205e+06	-41339.1	1005.82	-29786.5	0.000000	0.000000	7.152235	20.9491	NaN	0.000000	0.001608	0.001704	28.0831	15.0413	0.001856	8103.08	9.001594	3.748323	20.2946	1.150246	0.011416	0.011004	20.9491	8103.08	0.009477	0.008607	2434.08	79801
715	2.000000	1.153084	7.37205e+06	-41339.1	1005.82	-29786.5	0.000000	0.000000	7.154890	26.5128	NaN	0.000000	0.001626	0.001747	28.0842	17.7311	0.001841	9629.14	5.802338	-175.861	25.127	1.152781	0.013842	0.013539	26.5128	9629.14	0.011777	0.011224	2362.12	83039.4
715	2.000000	1.155549	7.37205e+06	-41339.1	1005.82	-29786.5	0.000000	0.000000	7.157593	32.2985	NaN	0.000000	0.001626	0.001772	28.0831	20.3981	0.001936	10538	6.321733	4.148111	30.9237	1.155200	0.016308	0.015958	32.2985	10538	0.014009	0.013987	2309.26	81409.7
715	2.000000	1.158039	7.37205e+06	-41339.1	1005.82	-29786.5	0.000000	0.000000	7.160295	37.4465	NaN	0.000000	0.001613	0.001786	28.0839	22.3538	0.001865	11988.6	1.624694	-173.562	37.0044	1.157755	0.018798	0.018514	37.4465	11988.6	0.016455	0.017275	2167.66	83335.8
715	2.000000	1.160648	7.37205e+06	-41339.1	1005.82	-29786.5	0.000000	0.000000	7.163203	44.7332	NaN	0.000000	0.001639	0.001733	28.0831	24.4945	0.001731	14149	5.787603	0.956634	45.4524	1.160211	0.021407	0.020969	44.7332	14149	0.019035	0.021049	2125.18	89101.1
715	2.000000	1.163086	7.37205e+06	-41339.1	1005.82	-29786.5	0.000000	0.000000	7.165877	50.4833	NaN	0.000000	0.001631	0.001726	28.0837	26.7038	0.001728	15456.4	4.481630	-179.761	50.2576	1.162752	0.023845	0.023510	50.4833	15456.4	0.021395	0.024782	2037.07	89704
715	2.000000	1.165590	7.37205e+06	-41339.1	1005.82	-29786.5	0.000000	0.000000	7.168685	57.8904	NaN	0.000000	0.001644	0.001792	28.0833	28.6408	0.001545	18542.9	4.589870	-1.821353	56.9448	1.165248	0.026348	0.026006	57.8904	18542.9	0.024007	0.029234	1980.25	99084.8
715	2.000000	1.168094	7.37205e+06	-41339.1	1005.82	-29786.5	0.000000	0.000000	7.171592	67.7054	NaN	0.000000	0.001689	0.001755	28.0821	33.6339	0.002020	16652.3	6.491619	178.502	67.8046	1.167777	0.028852	0.028535	67.7054	16652.3	0.025803	0.032492	2083.75	84402.9
715	2.000000	1.170583	7.37205e+06	-41339.1	1005.82	-29786.5	0.000000	0.000000	7.174548	79.0651	NaN	0.000000	0.001675	0.001774	28.0822	34.749	0.001738	19993.9	2.912012	0.553007	78.1809	1.170171	0.031341	0.030929	79.0651	19993.9	0.028375	0.037443	2111.6	94402.9
715	2.000000	1.173011	7.37205e+06	-41339.1	1005.82	-29786.5	0.000000	0.000000	7.177476	91.209	NaN	0.000000	0.001656	0.001755	28.0823	36.8748	0.001821	20250.6	7.285095	176.003	89.722	1.172700	0.033769	0.033458	91.209	20250.6	0.030391	0.041559	2194.7	90757
715	2.000000	1.175535	7.37205e+06	-41339.1	1005.82	-29786.5	0.000000	0.000000	7.180344	99.583	NaN	0.000000	0.001634	0.001736	28.0819	39.1073	0.001762	22194.2	3.218744	-1.414887	96.1696	1.175174	0.036293	0.035932	99.583	22194.2	0.032928	0.047031	2117.38	93501.5
715	2.000000	1.178036	7.37205e+06	-41339.1	1005.82	-29786.5	0.000000	0.000000	7.183136	106.675	NaN	0.000000	0.001632	0.001751	28.0831	42.7597	0.001856	23039	5.229290	176.231	104.985	1.177725	0.038794	0.038484	106.675	23039	0.035321	0.052497	2032.03	91869
715	2.000000	1.180594	7.37205e+06	-41339.1	1005.82	-29786.5	0.000000	0.000000	7.186298	121.357	NaN	0.000000	0.001626	0.001726	28.0822	44.4229	0.001817	24451.3	5.365869	-3.067645	120.663	1.180166	0.041353	0.040925	121.357	24451.3	0.037630	0.058047	2090.66	92722.3
715	2.000000	1.183043	7.37205e+06	-41339.1	1005.82	-29786.5	0.000000	0.000000	7.189149	131.147	NaN	0.000000	0.001650	0.001749	28.0827	46.3146	0.001849	25050.7	2.787535	178.384	130.359	1.182753	0.043801	0.043512	131.147	25050.7	0.039875	0.063705	2058.67	90679.1
715	2.000000	1.185543	7.37205e+06	-41339.1	1005.82	-29786.5	0.000000	0.000000	7.192104	142.207	NaN	0.000000	0.001664	0.001783	28.082	49.4473	0.001819	27182.7	3.869719	-3.653559	140.087	1.185172	0.046302	0.045930	142.207	27182.7	0.042378	0.070318	2022.34	93655.3
715	2.000000	1.188032	7.37205e+06	-41339.1	1005.82	-29786.5	0.000000	0.000000	7.194992	151.935	NaN	0.000000	0.001663	0.001748	28.0832	52.612	0.001837	28647.9	5.506830	173.995	151.177	1.187885	0.048790	0.048643	151.935	28647.9	0.044813	0.077057	1971.73	94288.9
715	2.000000	1.190545	7.37205e+06	-41339.1	1005.82	-29786.5	0.000000	0.000000	7.198223	169.404	NaN	0.000000	0.001603	0.001712	28.082	54.012	0.001843	29312.9	7.247337	-6.729794	168.567	1.190141	0.051303	0.050899	169.404	29312.9	0.046969	0.083274	2034.29	92806
715	2.000000	1.193029	7.37205e+06	-41339.1	1005.82	-29786.5	0.000000	0.000000	7.201253	182.668	NaN	0.000000	0.001607	0.001715	28.082	55.5539	0.001797	30913.8	5.172817	174.403	183.245	1.192720	0.053788	0.053478	182.668	30913.8	0.049356	0.090433	2019.94	93921
715	2.000000	1.195479	7.37205e+06	-41339.1	1005.82	-29786.5	0.000000	0.000000	7.204435	200.5	NaN	0.000000	0.001667	0.001718	28.0819	57.1648	0.001671	34216.4	4.536419	-6.016328	197.046	1.195146	0.056237	0.055905	200.5	34216.4	0.051842	0.098193	2041.89	99762.4
715	2.000000	1.198062	7.37205e+06	-41339.1	1005.82	-29786.5	0.000000	0.000000	7.207423	210.342	NaN	0.000000	0.001679	0.001729	28.0824	60.9853	0.001913	31879.4	5.322101	174.504	209.836	1.197752	0.058821	0.058510	210.342	31879.4	0.053872	0.104756	2007.92	89990
715	2.000000	1.200474	7.37205e+06	-41339.1	1005.82	-29786.5	0.000000	0.000000	7.210689	231.149	NaN	0.000000	0.001659	0.001756	28.0821	62.2412	0.001840	33826.8	5.713254	-5.969803	226.222	1.200132	0.061232	0.060891	231.149	33826.8	0.056107	0.112220	2059.79	92257.2
715	2.000000	1.202992	7.37205e+06	-41339.1	1005.82	-29786.5	0.000000	0.000000	7.213883	247.568	NaN	0.000000	0.001657	0.001725	28.0833	64.1678	0.001739	36896.9	5.160701	173.344	245.629	1.202584	0.063750	0.063343	247.568	36896.9	0.058718	0.121252	2041.76	96809.7
715	2.000000	1.205478	7.37205e+06	-41339.1	1005.82	-29786.5	0.000000	0.000000	7.216807	258.233	NaN	0.000000	0.001640	0.001760	28.0832	67.3514	0.001811	37199.9	3.788258	-5.990110	255.611	1.205259	0.066236	0.066017	258.233	37199.9	0.061030	0.129528	1993.65	94435.1
715	2.000000	1.207988	7.37205e+06	-41339.1	1005.82	-29786.5	0.000000	0.000000	7.220038	275.78	NaN	0.000000	0.001649	0.001773	28.0835	70.0368	0.001780	39339.9	2.333058	175.228	273.584	1.207675	0.068747	0.068433	275.78	39339.9	0.063489	0.138616	1989.53	96538.3
715	2.000000	1.210473	7.37205e+06	-41339.1	1005.82	-29786.5	0.000000	0.000000	7.222953	286.266	NaN	0.000000	0.001592	0.001745	28.0832	71.6699	0.001723	41585	4.928410	-7.144716	279.485	1.210159	0.071231	0.070917	286.266	41585	0.066068	0.148462	1928.21	98605.8
715	2.000000	1.212902	7.37205e+06	-41339.1	1005.82	-29786.5	0.000000	0.000000	7.225967	300.468	NaN	0.000000	0.001593	0.001748	28.0831	74.0889	0.001826	40581.4	2.320941	174.772	294.868	1.212707	0.073661	0.073465	300.468	40581.4	0.068108	0.156476	1920.22	93729.5
715	2.000000	1.215567	7.37205e+06	-41339.1	1005.82	-29786.5	0.000000	0.000000	7.229568	323.254	NaN	0.000000	0.001609	0.001720	28.0832	77.0415	0.001743	44197.8	4.748328	-8.109150	324.619	1.215136	0.076325	0.075894	323.254	44197.8	0.070840	0.167521	1929.63	98659.4
715	2.000000	1.218032	7.37205e+06	-41339.1	1005.82	-29786.5	0.000000	0.000000	7.232659	338.487	NaN	0.000000	0.001599	0.001752	28.0833	80.6192	0.001845	43702.6	7.208865	169.693	338.401	1.217616	0.078790	0.078374	338.487	43702.6	0.072981	0.176427	1918.57	95060
715	2.000000	1.220482	7.37205e+06	-41339.1	1005.82	-29786.5	0.000000	0.000000	7.235747	354.006	NaN	0.000000	0.001581	0.001720	28.0832	82.0119	0.001894	43309.2	5.499727	-8.483235	349.86	1.220244	0.081240	0.081002	354.006	43309.2	0.075110	0.185494	1908.45	91873.1
715	2.000000	1.222939	7.37205e+06	-41339.1	1005.82	-29786.5	0.000000	0.000000	7.238997	373.293	NaN	0.000000	0.001613	0.001741	28.0833	83.6278	0.001678	49838.6	4.658199	170.984	370.988	1.222741	0.083697	0.083500	373.293	49838.6	0.078080	0.198500	1880.57	102202
715	2.000000	1.225437	7.37205e+06	-41339.1	1005.82	-29786.5	0.000000	0.000000	7.242324	393.487	NaN	0.000000	0.001622	0.001704	28.0837	87.4121	0.001911	45746.7	5.107591	-8.275796	390.387	1.225119	0.086195	0.085877	393.487	45746.7	0.079744	0.205969	1910.42	92094
715	2.000000	1.227930	7.37205e+06	-41339.1	1005.82	-29786.5	0.000000	0.000000	7.245907	419.993	NaN	0.000000	0.001613	0.001733	28.0833	88.1515	0.001636	53868.3	3.237574	172.245	416.956	1.227630	0.088688	0.088389	419.993	53868.3	0.082841	0.220209	1907.25	104879
715	2.000000	1.230444	7.37205e+06	-41339.1	1005.82	-29786.5	0.000000	0.000000	7.249270	440.65	NaN	0.000000	0.001611	0.001719	28.0834	91.3195	0.001810	50463.6	7.324157	-10.1451	436.572	1.229983	0.091202	0.090741	440.65	50463.6	0.084653	0.228751	1926.33	96398.3
715	2.000000	1.233001	7.37205e+06	-41339.1	1005.82	-29786.5	0.000000	0.000000	7.252683	461.474	NaN	0.000000	0.001611	0.001753	28.0834	94.2332	0.001724	54672.9	9.852375	166.039	461.941	1.232576	0.093760	0.093334	461.474	54672.9	0.087429	0.242126	1905.93	101514
715	2.000000	1.235445	7.37205e+06	-41339.1	1005.82	-29786.5	0.000000	0.000000	7.255917	480.723	NaN	0.000000	0.001614	0.001733	28.0822	95.8713	0.001853	51752.2	3.833648	-7.435766	476.06	1.235037	0.096203	0.095796	480.723	51752.2	0.089236	0.251024	1915.05	94372.2
715	2.000000	1.237979	7.37205e+06	-41339.1	1005.82	-29786.5	0.000000	0.000000	7.259400	503.795	NaN	0.000000	0.001602	0.001758	28.0822	98.5052	0.001827	53919.3	5.939724	169.463	503.05	1.237682	0.098737	0.098440	503.795	53919.3	0.091730	0.263548	1911.59	95959.4
715	2.000000	1.240475	7.37205e+06	-41339.1	1005.82	-29786.5	0.000000	0.000000	7.262791	525.577	NaN	0.000000	0.001638	0.001736	28.0822	99.1335	0.001768	56067.8	4.696158	-8.541905	520.21	1.239990	0.101234	0.100748	525.577	56067.8	0.094203	0.276252	1902.52	97461.6
715	2.000000	1.241832	7.37205e+06	-41339.1	1005.82	-29786.5	0.000000	0.000000	7.264596	536.477	NaN	0.000000	0.001570	0.001751	28.0823	102.423	0.001877	54569.9	7.451151	168.292	528.135	1.241484	0.102590	0.102242	536.477	54569.9	0.095217	0.281541	1905.5	93962.8