File: remote_trans/data/nanoindenter/0828-1/data/Data_2025-08-06,11h17m57s/2025-07-22_16-23-58_1_453.txt
2025-07-22, 16:23:58, 1
Index	Phase	Displacement	Time	Pos X	Pos Y	Pos Z	Rot A	Rot B	Piezo Z	Force A	Force B	Gripper	Voltage A	Voltage B	Temperature	Amplitude force	Amplitude pos	Stiffness	Phase shift	Phase excitation	Force A raw	Displacement raw	HMax	HMax raw	Real Force	Real Stiffness	Contact Depth	Area	Hardness	Reduced Mod.
[#]	[#]	[um]	[s]	[um]	[um]	[um]	[m°]	[m°]	[um]	[uN]	[uN]	[V]	[V]	[V]	[°C]	[uN]	[um]	[N/m]	[°]	[°]	[uN]	[um]	[um]	[um]	[uN]	[N/m]	[um]	[um^2]	[MPa]	[MPa]
453	1.000000	0.002506	7.36949e+06	-54439.1	1005.82	-29743.7	0.000000	0.000000	6.002784	-0.058157	NaN	0.000000	0.001647	0.001776	28.0803	0.048567	0.001073	45.2742	-88.3157	-168.913	-0.096690	0.001231	-1.031448	-1.032723	-0.058157	45.2742	-1.030485	-5.834464E+13	9.967794E-16	NaN
453	1.000000	0.010470	7.36949e+06	-54439.1	1005.82	-29743.7	0.000000	0.000000	6.010748	-0.083742	NaN	0.000000	0.001674	0.001783	28.08	0.060303	0.001037	58.1526	-92.1647	-163.782	-0.114769	0.009190	-1.023483	-1.024763	-0.083742	58.1526	-1.022403	-4.542433E+13	1.843550E-15	NaN
453	1.000000	0.018492	7.36949e+06	-54439.1	1005.82	-29743.7	0.000000	0.000000	6.018771	-0.050113	NaN	0.000000	0.001646	0.001800	28.08	0.043506	0.001808	24.0679	119.293	-165.396	-0.006850	0.017173	-1.015462	-1.016780	-0.050113	24.0679	-1.013901	-3.490412E+13	1.435722E-15	NaN
453	1.000000	0.026508	7.36949e+06	-54439.1	1005.82	-29743.7	0.000000	0.000000	6.026787	-0.052109	NaN	0.000000	0.001690	0.001782	28.0799	0.087752	0.001992	44.0556	-28.1519	-166.334	0.004649	0.025110	-1.007446	-1.008843	-0.052109	44.0556	-1.006559	-2.780146E+13	1.874319E-15	NaN
453	1.000000	0.034462	7.36949e+06	-54439.1	1005.82	-29743.7	0.000000	0.000000	6.034740	-0.079325	NaN	0.000000	0.001685	0.001765	28.08	0.128091	0.001926	66.5122	-159.234	-164.468	-0.056837	0.033163	-0.999491	-1.000791	-0.079325	66.5122	-0.998597	-2.172092E+13	3.651987E-15	NaN
453	1.000000	0.042465	7.36949e+06	-54439.1	1005.82	-29743.7	0.000000	0.000000	6.042746	-0.014772	NaN	0.000000	0.001659	0.001757	28.0805	0.061963	0.001839	33.6893	15.4147	-163.092	0.106565	0.041182	-0.991489	-0.992772	-0.014772	33.6893	-0.991160	-1.724775E+13	8.564624E-16	NaN
453	1.000000	0.050440	7.36949e+06	-54439.1	1005.82	-29743.7	0.000000	0.000000	6.050721	-0.011303	NaN	0.000000	0.001657	0.001782	28.0801	0.100966	0.001930	52.305	-123.562	-160.444	-0.014541	0.049138	-0.983514	-0.984816	-0.011303	52.305	-0.983351	-1.353819E+13	8.349251E-16	NaN
453	1.000000	0.058468	7.36949e+06	-54439.1	1005.82	-29743.7	0.000000	0.000000	6.058747	-0.057710	NaN	0.000000	0.001671	0.001765	28.0804	0.142524	0.001961	72.6848	-148.144	-166.934	-0.062029	0.057161	-0.975486	-0.976792	-0.057710	72.6848	-0.974890	-1.041271E+13	5.542263E-15	NaN
453	1.000000	0.066456	7.36949e+06	-54439.1	1005.82	-29743.7	0.000000	0.000000	6.066736	-0.034816	NaN	0.000000	0.001684	0.001759	28.0801	0.082860	0.001975	41.9454	29.0403	-167.79	-0.015808	0.065213	-0.967497	-0.968741	-0.034816	41.9454	-0.966875	-8.119790E+12	4.287797E-15	NaN
453	1.000000	0.074470	7.36949e+06	-54439.1	1005.82	-29743.7	0.000000	0.000000	6.074750	-0.030690	NaN	0.000000	0.001652	0.001757	28.0803	0.051492	0.001979	26.0136	-160.151	-168.667	-0.017502	0.073189	-0.959483	-0.960765	-0.030690	26.0136	-0.958598	-6.280191E+12	4.886803E-15	NaN
453	1.000000	0.082493	7.36949e+06	-54439.1	1005.82	-29743.7	0.000000	0.000000	6.082773	-0.036629	NaN	0.000000	0.001662	0.001769	28.0805	0.078926	0.002099	37.6069	-160.589	-168.268	0.018427	0.081199	-0.951461	-0.952754	-0.036629	37.6069	-0.950730	-4.918955E+12	7.446452E-15	NaN
453	1.000000	0.090484	7.36949e+06	-54439.1	1005.82	-29743.7	0.000000	0.000000	6.090765	0.005231	NaN	0.000000	0.001654	0.001769	28.0803	0.073255	0.002001	36.6159	-17.4439	-163.13	-0.053435	0.089192	-0.943470	-0.944761	0.005231	36.6159	-0.943577	-3.939061E+12	-1.328020E-15	NaN
453	1.000000	0.098473	7.36949e+06	-54439.1	1005.82	-29743.7	0.000000	0.000000	6.098752	-0.064154	NaN	0.000000	0.001637	0.001772	28.0815	0.149129	0.002003	74.4546	-146.789	-165.925	-0.047154	0.097131	-0.935480	-0.936823	-0.064154	74.4546	-0.934834	-3.002169E+12	2.136936E-14	NaN
453	1.000000	0.106486	7.36949e+06	-54439.1	1005.82	-29743.7	0.000000	0.000000	6.106768	0.029098	NaN	0.000000	0.001618	0.001797	28.0816	0.033772	0.001848	18.273	-55.902	-163.94	0.028082	0.105188	-0.927468	-0.928766	0.029098	18.273	-0.928662	-2.478222E+12	-1.174151E-14	NaN
453	1.000000	0.114486	7.36949e+06	-54439.1	1005.82	-29743.7	0.000000	0.000000	6.114766	-0.034112	NaN	0.000000	0.001615	0.001769	28.0814	0.069625	0.001831	38.0192	67.2298	-164.877	0.004127	0.113188	-0.919467	-0.920765	-0.034112	38.0192	-0.918794	-1.823592E+12	1.870620E-14	NaN
453	1.000000	0.122482	7.36949e+06	-54439.1	1005.82	-29743.7	0.000000	0.000000	6.122762	-0.021055	NaN	0.000000	0.001618	0.001794	28.0813	0.059671	0.002083	28.6499	110.461	-166.736	-0.028109	0.121164	-0.911472	-0.912790	-0.021055	28.6499	-0.910921	-1.427583E+12	1.474880E-14	NaN
453	1.000000	0.130496	7.36949e+06	-54439.1	1005.82	-29743.7	0.000000	0.000000	6.130776	-0.036017	NaN	0.000000	0.001675	0.001781	28.0816	0.017627	0.002172	8.116180	-58.1124	-165.159	-0.108951	0.129175	-0.903458	-0.904778	-0.036017	8.116180	-0.900129	-1.020501E+12	3.529343E-14	NaN
453	1.000000	0.138487	7.36949e+06	-54439.1	1005.82	-29743.7	0.000000	0.000000	6.138768	-0.003456	NaN	0.000000	0.001659	0.001782	28.0816	0.124849	0.002041	61.163	-178.668	-166.087	-0.068151	0.137159	-0.895467	-0.896794	-0.003456	61.163	-0.895425	-8.815257E+11	3.920670E-15	NaN
453	1.000000	0.146470	7.36949e+06	-54439.1	1005.82	-29743.7	0.000000	0.000000	6.146749	-0.061398	NaN	0.000000	0.001672	0.001780	28.0816	0.036315	0.002074	17.5075	74.8937	-166.06	-0.002382	0.145202	-0.887484	-0.888752	-0.061398	17.5075	-0.884854	-6.343653E+11	9.678610E-14	NaN
453	1.000000	0.154506	7.36949e+06	-54439.1	1005.82	-29743.7	0.000000	0.000000	6.154782	-0.113347	NaN	0.000000	0.001658	0.001801	28.0818	0.103991	0.002066	50.3432	-154.227	-165.02	-0.143924	0.153224	-0.879448	-0.880730	-0.113347	50.3432	-0.877760	-5.086377E+11	2.228434E-13	NaN
453	1.000000	0.162502	7.36949e+06	-54439.1	1005.82	-29743.7	0.000000	0.000000	6.162783	-0.016496	NaN	0.000000	0.001679	0.001790	28.0814	0.073177	0.001914	38.2377	-51.705	-165.987	-0.001788	0.161251	-0.871451	-0.872703	-0.016496	38.2377	-0.871128	-4.137155E+11	3.987356E-14	NaN
453	1.000000	0.170517	7.36949e+06	-54439.1	1005.82	-29743.7	0.000000	0.000000	6.170798	0.005798	NaN	0.000000	0.001668	0.001803	28.0817	0.078797	0.002094	37.6276	-114.166	-164.88	0.046658	0.169198	-0.863437	-0.864755	0.005798	37.6276	-0.863553	-3.267395E+11	-1.774471E-14	NaN
453	1.000000	0.178515	7.36949e+06	-54439.1	1005.82	-29743.7	0.000000	0.000000	6.178797	0.002996	NaN	0.000000	0.001639	0.001824	28.0812	0.049790	0.001977	25.18	-133.236	-162.796	0.076776	0.177224	-0.855438	-0.856730	0.002996	25.18	-0.855528	-2.544375E+11	-1.177512E-14	NaN
453	1.000000	0.186537	7.36949e+06	-54439.1	1005.82	-29743.7	0.000000	0.000000	6.186816	-0.065012	NaN	0.000000	0.001673	0.001805	28.0815	0.090453	0.001881	48.094	-127.331	-163.925	-0.020347	0.185285	-0.847417	-0.848668	-0.065012	48.094	-0.846403	-1.914351E+11	3.396058E-13	NaN
453	1.000000	0.194523	7.36949e+06	-54439.1	1005.82	-29743.7	0.000000	0.000000	6.194804	-0.013271	NaN	0.000000	0.001679	0.001812	28.0818	0.082447	0.001982	41.5973	149.237	-165.636	-0.006160	0.193231	-0.839431	-0.840723	-0.013271	41.5973	-0.839191	-1.528750E+11	8.680896E-14	NaN
453	1.000000	0.202551	7.36949e+06	-54439.1	1005.82	-29743.7	0.000000	0.000000	6.202830	-0.033709	NaN	0.000000	0.001689	0.001829	28.0815	0.103447	0.001964	52.6709	143.106	-163.62	-0.002631	0.201119	-0.831403	-0.832834	-0.033709	52.6709	-0.830923	-1.181126E+11	2.853980E-13	NaN
453	1.000000	0.210515	7.36949e+06	-54439.1	1005.82	-29743.7	0.000000	0.000000	6.210795	-0.028102	NaN	0.000000	0.001692	0.001828	28.0817	0.078928	0.001882	41.9351	-78.2838	-166.508	-0.044860	0.209219	-0.823439	-0.824735	-0.028102	41.9351	-0.822936	-9.205106E+10	3.052872E-13	NaN
453	1.000000	0.218543	7.36949e+06	-54439.1	1005.82	-29743.7	0.000000	0.000000	6.218822	-0.047156	NaN	0.000000	0.001686	0.001759	28.0815	0.078462	0.001975	39.7293	175.134	-165.593	-0.053189	0.217158	-0.815411	-0.816795	-0.047156	39.7293	-0.814520	-7.077718E+10	6.662581E-13	NaN
453	1.000000	0.226553	7.36949e+06	-54439.1	1005.82	-29743.7	0.000000	0.000000	6.226836	0.044585	NaN	0.000000	0.001668	0.001797	28.0816	0.021652	0.002067	10.4761	96.0997	-166.218	-0.041854	0.225232	-0.807401	-0.808722	0.044585	10.4761	-0.810593	-6.260526E+10	-7.121618E-13	NaN
453	1.000000	0.234529	7.36949e+06	-54439.1	1005.82	-29743.7	0.000000	0.000000	6.234811	0.004105	NaN	0.000000	0.001682	0.001793	28.0805	0.046551	0.002013	23.1271	-88.5886	-164.979	0.058036	0.233251	-0.799425	-0.800703	0.004105	23.1271	-0.799558	-4.434631E+10	-9.255574E-14	NaN
453	1.000000	0.242544	7.36949e+06	-54439.1	1005.82	-29743.7	0.000000	0.000000	6.242825	-0.008849	NaN	0.000000	0.001642	0.001759	28.0802	0.084189	0.001984	42.4375	3.398197	-163.903	-0.060820	0.241269	-0.791410	-0.792685	-0.008849	42.4375	-0.791253	-3.420618E+10	2.587029E-13	NaN
453	1.000000	0.250568	7.36949e+06	-54439.1	1005.82	-29743.7	0.000000	0.000000	6.250846	-0.087674	NaN	0.000000	0.001627	0.001781	28.0807	0.150877	0.002062	73.1751	25.4605	-165.417	-0.069394	0.249263	-0.783386	-0.784691	-0.087674	73.1751	-0.782487	-2.600307E+10	3.371688E-12	NaN
453	1.000000	0.258570	7.36949e+06	-54439.1	1005.82	-29743.7	0.000000	0.000000	6.258851	-0.012097	NaN	0.000000	0.001647	0.001763	28.0804	0.066708	0.001930	34.5658	-65.3088	-167.743	0.015174	0.257210	-0.775384	-0.776744	-0.012097	34.5658	-0.775121	-2.065016E+10	5.857907E-13	NaN
453	1.000000	0.266572	7.36949e+06	-54439.1	1005.82	-29743.7	0.000000	0.000000	6.266852	-0.040770	NaN	0.000000	0.001661	0.001782	28.0805	0.042791	0.002054	20.8299	21.4096	-166.414	-0.002545	0.265278	-0.767381	-0.768676	-0.040770	20.8299	-0.765913	-1.547876E+10	2.633939E-12	NaN
453	1.000000	0.274567	7.36949e+06	-54439.1	1005.82	-29743.7	0.000000	0.000000	6.274846	-0.050647	NaN	0.000000	0.001640	0.001792	28.0804	0.046079	0.001966	23.4323	-179.784	-163.034	-0.012261	0.273276	-0.759387	-0.760678	-0.050647	23.4323	-0.757766	-1.199230E+10	4.223312E-12	NaN
453	1.000000	0.282588	7.36949e+06	-54439.1	1005.82	-29743.7	0.000000	0.000000	6.282867	-0.055692	NaN	0.000000	0.001681	0.001793	28.0801	0.016151	0.002078	7.772982	-77.9991	-163.704	-0.108213	0.281305	-0.751366	-0.752649	-0.055692	7.772982	-0.745993	-8.292077E+9	6.716233E-12	NaN
453	1.000000	0.290591	7.36949e+06	-54439.1	1005.82	-29743.7	0.000000	0.000000	6.290871	-0.022083	NaN	0.000000	0.001653	0.001785	28.0804	0.058751	0.001985	29.5984	136.194	-163.921	-0.012468	0.289250	-0.743363	-0.744704	-0.022083	29.5984	-0.742804	-7.503056E+9	2.943144E-12	NaN
453	1.000000	0.298566	7.36949e+06	-54439.1	1005.82	-29743.7	0.000000	0.000000	6.298843	-0.120336	NaN	0.000000	0.001686	0.001795	28.0801	0.046795	0.002033	23.0231	27.2422	-161.092	-0.049232	0.297250	-0.735387	-0.736704	-0.120336	23.0231	-0.731467	-5.257808E+9	2.288713E-11	NaN
453	1.000000	0.306581	7.36949e+06	-54439.1	1005.82	-29743.7	0.000000	0.000000	6.306860	-0.048316	NaN	0.000000	0.001656	0.001773	28.0803	0.078848	0.002123	37.1425	-26.7109	-165.922	-0.083060	0.305293	-0.727373	-0.728660	-0.048316	37.1425	-0.726397	-4.484383E+9	1.077426E-11	NaN
453	1.000000	0.314599	7.36949e+06	-54439.1	1005.82	-29743.7	0.000000	0.000000	6.314880	-0.009753	NaN	0.000000	0.001693	0.001748	28.0802	0.028082	0.001905	14.7392	-60.0245	-166.459	-0.019698	0.313255	-0.719354	-0.720699	-0.009753	14.7392	-0.718858	-3.539158E+9	2.755777E-12	NaN
453	1.000000	0.322588	7.36949e+06	-54439.1	1005.82	-29743.7	0.000000	0.000000	6.322869	-0.007809	NaN	0.000000	0.001671	0.001768	28.0803	0.098761	0.002044	48.3139	-130.208	-166.197	-0.007236	0.321298	-0.711365	-0.712655	-0.007809	48.3139	-0.711244	-2.786292E+9	2.802696E-12	NaN
453	1.000000	0.330590	7.36949e+06	-54439.1	1005.82	-29743.7	0.000000	0.000000	6.330869	-0.065699	NaN	0.000000	0.001700	0.001764	28.0803	0.012885	0.002031	6.344072	97.5876	-164.69	-0.027457	0.329304	-0.703364	-0.704650	-0.065699	6.344072	-0.695597	-1.703681E+9	3.856289E-11	NaN
453	1.000000	0.338619	7.36949e+06	-54439.1	1005.82	-29743.7	0.000000	0.000000	6.338897	-0.072310	NaN	0.000000	0.001676	0.001799	28.0802	0.072317	0.001969	36.7211	75.6234	-167.775	-0.045283	0.337267	-0.695335	-0.696687	-0.072310	36.7211	-0.693858	-1.613020E+9	4.482895E-11	NaN
453	1.000000	0.346611	7.36949e+06	-54439.1	1005.82	-29743.7	0.000000	0.000000	6.346893	0.017715	NaN	0.000000	0.001726	0.001817	28.0805	0.031245	0.001962	15.9292	-39.8196	-163.925	0.040169	0.345301	-0.687343	-0.688652	0.017715	15.9292	-0.688177	-1.348962E+9	-1.313227E-11	NaN
453	1.000000	0.354590	7.36949e+06	-54439.1	1005.82	-29743.7	0.000000	0.000000	6.354872	0.018094	NaN	0.000000	0.001696	0.001778	28.0802	0.057072	0.002028	28.1353	60.7073	-169.3	0.000870	0.353306	-0.679364	-0.680648	0.018094	28.1353	-0.679846	-1.037774E+9	-1.743529E-11	NaN
453	1.000000	0.362619	7.36949e+06	-54439.1	1005.82	-29743.7	0.000000	0.000000	6.362899	-0.043707	NaN	0.000000	0.001708	0.001849	28.0804	0.052377	0.001975	26.5249	25.6467	-166.41	0.009058	0.361293	-0.671335	-0.672660	-0.043707	26.5249	-0.670099	-7.633834E+8	5.725485E-11	NaN
453	1.000000	0.370592	7.36949e+06	-54439.1	1005.82	-29743.7	0.000000	0.000000	6.370873	0.009096	NaN	0.000000	0.001698	0.001814	28.0815	0.044752	0.001946	22.9963	-35.4491	-167.828	-0.044559	0.369295	-0.663362	-0.664659	0.009096	22.9963	-0.663659	-6.231307E+8	-1.459780E-11	NaN
453	1.000000	0.378607	7.36949e+06	-54439.1	1005.82	-29743.7	0.000000	0.000000	6.378887	-0.028576	NaN	0.000000	0.001680	0.001812	28.0814	0.029817	0.001991	14.9795	-66.2243	-167.415	0.007150	0.377276	-0.655347	-0.656678	-0.028576	14.9795	-0.653916	-4.582597E+8	6.235673E-11	NaN
453	1.000000	0.386592	7.36949e+06	-54439.1	1005.82	-29743.7	0.000000	0.000000	6.386871	-0.051427	NaN	0.000000	0.001658	0.001862	28.0815	0.030206	0.002031	14.8702	-57.9892	-164.872	-0.069336	0.385325	-0.647361	-0.648628	-0.051427	14.8702	-0.644768	-3.433142E+8	1.497954E-10	NaN
453	1.000000	0.394607	7.36949e+06	-54439.1	1005.82	-29743.7	0.000000	0.000000	6.394887	-0.022673	NaN	0.000000	0.001632	0.001801	28.0815	0.072815	0.001977	36.8299	65.7248	-165.337	-0.066455	0.393298	-0.639347	-0.640656	-0.022673	36.8299	-0.638885	-2.850966E+8	7.952647E-11	NaN
453	1.000000	0.402621	7.36949e+06	-54439.1	1005.82	-29743.7	0.000000	0.000000	6.402902	0.004232	NaN	0.000000	0.001655	0.001807	28.0816	0.048346	0.001958	24.6929	-85.6612	-163.379	0.007348	0.401307	-0.631333	-0.632647	0.004232	24.6929	-0.631461	-2.254701E+8	-1.876956E-11	NaN
453	1.000000	0.410639	7.36949e+06	-54439.1	1005.82	-29743.7	0.000000	0.000000	6.410920	0.003172	NaN	0.000000	0.001646	0.001780	28.0816	0.071763	0.002090	34.3361	-158.682	-162.94	-0.002675	0.409355	-0.623315	-0.624599	0.003172	34.3361	-0.623384	-1.746403E+8	-1.816372E-11	NaN
453	1.000000	0.418611	7.36949e+06	-54439.1	1005.82	-29743.7	0.000000	0.000000	6.418896	0.081268	NaN	0.000000	0.001649	0.001808	28.0819	0.039147	0.001906	20.5383	84.6973	-167.889	0.000548	0.417266	-0.615342	-0.616688	0.081268	20.5383	-0.618310	-1.487309E+8	-5.464095E-10	NaN
453	1.000000	0.426635	7.36949e+06	-54439.1	1005.82	-29743.7	0.000000	0.000000	6.426917	0.005460	NaN	0.000000	0.001699	0.001770	28.0814	0.176676	0.002051	86.1389	122.338	-163.911	0.014621	0.425310	-0.607318	-0.608644	0.005460	86.1389	-0.607366	-1.051642E+8	-5.192291E-11	NaN
453	1.000000	0.434653	7.36949e+06	-54439.1	1005.82	-29743.7	0.000000	0.000000	6.434934	0.010023	NaN	0.000000	0.001662	0.001774	28.0815	0.073659	0.002067	35.6383	165.84	-166.523	0.073315	0.433374	-0.599301	-0.600580	0.010023	35.6383	-0.599512	-8.198614E+7	-1.222519E-10	NaN
453	1.000000	0.442625	7.36949e+06	-54439.1	1005.82	-29743.7	0.000000	0.000000	6.442905	-0.022322	NaN	0.000000	0.001698	0.001773	28.0815	0.205568	0.001914	107.384	178.262	-161.632	-0.070699	0.441350	-0.591329	-0.592604	-0.022322	107.384	-0.591173	-6.292750E+7	3.547275E-10	NaN
453	1.000000	0.450644	7.36949e+06	-54439.1	1005.82	-29743.7	0.000000	0.000000	6.450925	-0.001763	NaN	0.000000	0.001687	0.001770	28.0816	0.102559	0.002063	49.7083	176.434	-163.328	-0.035150	0.449379	-0.583310	-0.584575	-0.001763	49.7083	-0.583284	-4.898186E+7	3.600082E-11	NaN
453	1.000000	0.458654	7.36949e+06	-54439.1	1005.82	-29743.7	0.000000	0.000000	6.458934	-0.035731	NaN	0.000000	0.001716	0.001755	28.0817	0.035249	0.002146	16.4262	-70.5959	-163.052	-0.065152	0.457368	-0.575300	-0.576586	-0.035731	16.4262	-0.573668	-3.608309E+7	9.902554E-10	NaN
453	1.000000	0.466653	7.36949e+06	-54439.1	1005.82	-29743.7	0.000000	0.000000	6.466933	-0.022955	NaN	0.000000	0.001682	0.001769	28.0817	0.056699	0.001977	28.673	-69.4504	-165.256	-0.054541	0.465321	-0.567301	-0.568633	-0.022955	28.673	-0.566700	-2.890891E+7	7.940607E-10	NaN
453	1.000000	0.474664	7.36949e+06	-54439.1	1005.82	-29743.7	0.000000	0.000000	6.474945	-0.000452	NaN	0.000000	0.001680	0.001733	28.0816	0.055915	0.001977	28.2756	-104.516	-163.101	0.009759	0.473363	-0.559290	-0.560591	-0.000452	28.2756	-0.559278	-2.282365E+7	1.979618E-11	NaN
453	1.000000	0.482630	7.36949e+06	-54439.1	1005.82	-29743.7	0.000000	0.000000	6.482912	0.018217	NaN	0.000000	0.001699	0.001786	28.0814	0.060546	0.001924	31.4702	155.336	-168.395	0.006096	0.481342	-0.551324	-0.552612	0.018217	31.4702	-0.551758	-1.795990E+7	-1.014309E-9	NaN
453	1.000000	0.490640	7.36949e+06	-54439.1	1005.82	-29743.7	0.000000	0.000000	6.490920	-0.040141	NaN	0.000000	0.001687	0.001788	28.0816	0.042825	0.001986	21.5622	54.5953	-164.725	-0.009145	0.489381	-0.543314	-0.544573	-0.040141	21.5622	-0.541918	-1.312045E+7	3.059451E-9	NaN
453	1.000000	0.498658	7.36949e+06	-54439.1	1005.82	-29743.7	0.000000	0.000000	6.498938	-0.034394	NaN	0.000000	0.001716	0.001771	28.0815	0.107647	0.001938	55.5411	37.5853	-163.455	-0.035759	0.497392	-0.535295	-0.536562	-0.034394	55.5411	-0.534831	-1.046265E+7	3.287328E-9	NaN
453	1.000000	0.506675	7.36949e+06	-54439.1	1005.82	-29743.7	0.000000	0.000000	6.506954	-0.034966	NaN	0.000000	0.001695	0.001775	28.0803	0.021679	0.001984	10.9259	-0.013727	-164.683	-0.007436	0.505320	-0.527279	-0.528634	-0.034966	10.9259	-0.524879	-7.61075e+06	4.594235E-9	NaN
453	1.000000	0.514670	7.36949e+06	-54439.1	1005.82	-29743.7	0.000000	0.000000	6.514950	-0.018991	NaN	0.000000	0.001656	0.001791	28.0806	0.041119	0.002092	19.6523	172.471	-166.601	-0.026932	0.513374	-0.519284	-0.520580	-0.018991	19.6523	-0.518559	-6.21667e+06	3.054927E-9	NaN
453	1.000000	0.522672	7.36949e+06	-54439.1	1005.82	-29743.7	0.000000	0.000000	6.522954	0.010278	NaN	0.000000	0.001668	0.001794	28.0804	0.100253	0.001931	51.9067	68.1391	-161.64	-0.006835	0.521364	-0.511282	-0.512589	0.010278	51.9067	-0.511430	-4.9469e+06	-2.077665E-9	NaN
453	1.000000	0.530677	7.36949e+06	-54439.1	1005.82	-29743.7	0.000000	0.000000	6.530957	-0.019123	NaN	0.000000	0.001661	0.001810	28.0805	0.031453	0.002069	15.2033	126.97	-165.095	-0.068233	0.529363	-0.503277	-0.504591	-0.019123	15.2033	-0.502333	-3.69459e+06	5.175866E-9	NaN
453	1.000000	0.538653	7.36949e+06	-54439.1	1005.82	-29743.7	0.000000	0.000000	6.538933	-0.033070	NaN	0.000000	0.001686	0.001829	28.0811	0.035200	0.001987	17.7117	89.0484	-168.733	-0.043435	0.537356	-0.495301	-0.496597	-0.033070	17.7117	-0.493900	-2.81761e+06	1.173685E-8	NaN
453	1.000000	0.546681	7.36949e+06	-54439.1	1005.82	-29743.7	0.000000	0.000000	6.546960	-0.035635	NaN	0.000000	0.001638	0.001822	28.0803	0.053826	0.001936	27.8002	-13.7709	-164.535	-0.089606	0.545381	-0.487273	-0.488573	-0.035635	27.8002	-0.486312	-2.20717e+06	1.614526E-8	NaN
453	1.000000	0.554673	7.36949e+06	-54439.1	1005.82	-29743.7	0.000000	0.000000	6.554954	-0.012167	NaN	0.000000	0.001675	0.001804	28.0805	0.055182	0.002083	26.4853	23.7593	-167.274	-0.018560	0.553350	-0.479281	-0.480604	-0.012167	26.4853	-0.478936	-1.74033e+06	6.990922E-9	NaN
453	1.000000	0.562707	7.36949e+06	-54439.1	1005.82	-29743.7	0.000000	0.000000	6.562986	-0.054468	NaN	0.000000	0.001671	0.001794	28.0804	0.026546	0.001990	13.3409	104.562	-164.924	-0.115197	0.561339	-0.471246	-0.472614	-0.054468	13.3409	-0.468184	-1.23009e+06	4.427921E-8	NaN
453	1.000000	0.570696	7.36949e+06	-54439.1	1005.82	-29743.7	0.000000	0.000000	6.570977	-0.016799	NaN	0.000000	0.001654	0.001789	28.0804	0.062617	0.001914	32.719	-127.634	-167.368	-0.026911	0.569383	-0.463257	-0.464571	-0.016799	32.719	-0.462872	-1.03603e+06	1.621458E-8	NaN
453	1.000000	0.578678	7.36949e+06	-54439.1	1005.82	-29743.7	0.000000	0.000000	6.578958	-0.036441	NaN	0.000000	0.001646	0.001802	28.0803	0.049698	0.001900	26.1585	32.4542	-164.246	-0.060100	0.577381	-0.455276	-0.456573	-0.036441	26.1585	-0.454231	-783249	4.652599E-8	NaN
453	1.000000	0.586704	7.36949e+06	-54439.1	1005.82	-29743.7	0.000000	0.000000	6.586984	-0.041482	NaN	0.000000	0.001648	0.001799	28.0802	0.139173	0.001901	73.2113	-130.51	-162.777	-0.023405	0.585352	-0.447250	-0.448601	-0.041482	73.2113	-0.446825	-616045	6.733656E-8	NaN
453	1.000000	0.594684	7.36949e+06	-54439.1	1005.82	-29743.7	0.000000	0.000000	6.594965	-0.003887	NaN	0.000000	0.001643	0.001780	28.0804	0.110576	0.001770	62.4793	-27.9405	-161.904	0.049841	0.593414	-0.439270	-0.440539	-0.003887	62.4793	-0.439223	-481284	8.075423E-9	NaN
453	1.000000	0.602695	7.36949e+06	-54439.1	1005.82	-29743.7	0.000000	0.000000	6.602975	-0.017979	NaN	0.000000	0.001641	0.001778	28.0804	0.031514	0.002116	14.8905	3.243828	-166.182	0.034926	0.601439	-0.431259	-0.432515	-0.017979	14.8905	-0.430353	-360626	4.985625E-8	NaN
453	1.000000	0.610701	7.36949e+06	-54439.1	1005.82	-29743.7	0.000000	0.000000	6.610979	-0.082004	NaN	0.000000	0.001661	0.001783	28.0805	0.121551	0.002134	56.9696	-138.777	-164.786	-0.065812	0.609426	-0.423253	-0.424528	-0.082004	56.9696	-0.422173	-276204	2.968954E-7	NaN
453	1.000000	0.618710	7.36949e+06	-54439.1	1005.82	-29743.7	0.000000	0.000000	6.618990	-0.016755	NaN	0.000000	0.001694	0.001783	28.0804	0.137400	0.001982	69.3381	106.039	-166.252	-0.028610	0.617402	-0.415244	-0.416552	-0.016755	69.3381	-0.415063	-218952	7.652448E-8	NaN
453	1.000000	0.626713	7.36949e+06	-54439.1	1005.82	-29743.7	0.000000	0.000000	6.626994	-0.020812	NaN	0.000000	0.001687	0.001804	28.0805	0.048239	0.002108	22.8844	120.05	-166.633	-0.089732	0.625378	-0.407241	-0.408576	-0.020812	22.8844	-0.406558	-165743	1.255672E-7	NaN
453	1.000000	0.634728	7.36949e+06	-54439.1	1005.82	-29743.7	0.000000	0.000000	6.635008	-0.014471	NaN	0.000000	0.001668	0.001793	28.0804	0.084778	0.002048	41.3951	139.242	-161.325	0.007987	0.633423	-0.399226	-0.400530	-0.014471	41.3951	-0.398964	-129186	1.120176E-7	NaN
453	1.000000	0.642732	7.36949e+06	-54439.1	1005.82	-29743.7	0.000000	0.000000	6.643009	-0.090678	NaN	0.000000	0.001687	0.001801	28.0815	0.043010	0.001954	22.0106	94.3352	-165.742	-0.020028	0.641418	-0.391222	-0.392535	-0.090678	22.0106	-0.388132	-90457.2	1.002439E-6	NaN
453	1.000000	0.650730	7.36949e+06	-54439.1	1005.82	-29743.7	0.000000	0.000000	6.651010	-0.047669	NaN	0.000000	0.001632	0.001792	28.0817	0.058855	0.002118	27.7942	163.587	-162.818	-0.036622	0.649411	-0.383223	-0.384543	-0.047669	27.7942	-0.381937	-73735.7	6.464872E-7	NaN
453	1.000000	0.658744	7.36949e+06	-54439.1	1005.82	-29743.7	0.000000	0.000000	6.659023	-0.055586	NaN	0.000000	0.001674	0.001785	28.0819	0.093942	0.002079	45.1877	-163.351	-165.24	-0.063078	0.657397	-0.375210	-0.376557	-0.055586	45.1877	-0.374287	-57255.9	9.708328E-7	NaN
453	1.000000	0.666715	7.36949e+06	-54439.1	1005.82	-29743.7	0.000000	0.000000	6.666995	-0.035599	NaN	0.000000	0.001675	0.001750	28.0817	0.079787	0.001915	41.663	-134.562	-165.726	-0.088025	0.665428	-0.367239	-0.368526	-0.035599	41.663	-0.366598	-44371.4	8.023055E-7	NaN
453	1.000000	0.674730	7.36949e+06	-54439.1	1005.82	-29743.7	0.000000	0.000000	6.675010	-0.027277	NaN	0.000000	0.001652	0.001791	28.0815	0.083229	0.002049	40.6143	26.4137	-163.903	-0.078751	0.673384	-0.359224	-0.360570	-0.027277	40.6143	-0.358720	-34146.4	7.988204E-7	NaN
453	1.000000	0.682747	7.36949e+06	-54439.1	1005.82	-29743.7	0.000000	0.000000	6.683027	-0.041431	NaN	0.000000	0.001647	0.001780	28.0816	0.058376	0.002034	28.6942	130.479	-165.752	-0.027918	0.681422	-0.351207	-0.352531	-0.041431	28.6942	-0.350124	-25632.8	1.616341E-6	NaN
453	1.000000	0.690715	7.36949e+06	-54439.1	1005.82	-29743.7	0.000000	0.000000	6.690996	0.004117	NaN	0.000000	0.001678	0.001783	28.0815	0.102536	0.001995	51.3903	-57.2206	-166.768	-0.071132	0.689461	-0.343239	-0.344493	0.004117	51.3903	-0.343299	-20398.9	-2.018329E-7	NaN
453	1.000000	0.698711	7.36949e+06	-54439.1	1005.82	-29743.7	0.000000	0.000000	6.698992	-0.015626	NaN	0.000000	0.001642	0.001801	28.0816	0.092370	0.002070	44.6253	26.4196	-165.188	-0.059938	0.697425	-0.335242	-0.336529	-0.015626	44.6253	-0.334980	-15427.3	1.012877E-6	NaN
453	1.000000	0.706729	7.36949e+06	-54439.1	1005.82	-29743.7	0.000000	0.000000	6.707009	-0.014546	NaN	0.000000	0.001661	0.001789	28.0814	0.006794	0.002026	3.353326	-89.5624	-165.894	-0.040084	0.705480	-0.327225	-0.328474	-0.014546	3.353326	-0.323972	-10642.4	1.366759E-6	NaN
453	1.000000	0.714747	7.36949e+06	-54439.1	1005.82	-29743.7	0.000000	0.000000	6.715027	-0.033727	NaN	0.000000	0.001650	0.001772	28.0815	0.037566	0.001989	18.8863	-56.9553	-169.321	-0.034740	0.713460	-0.319207	-0.320493	-0.033727	18.8863	-0.317867	-8654.24	3.897202E-6	NaN
453	1.000000	0.722702	7.36949e+06	-54439.1	1005.82	-29743.7	0.000000	0.000000	6.722978	-0.117419	NaN	0.000000	0.001673	0.001782	28.0818	0.077400	0.001852	41.8015	-113.557	-163.17	-0.039100	0.721445	-0.311252	-0.312508	-0.117419	41.8015	-0.309145	-6432.9	1.825282E-5	NaN
453	1.000000	0.730769	7.36949e+06	-54439.1	1005.82	-29743.7	0.000000	0.000000	6.731048	-0.040920	NaN	0.000000	0.001642	0.001797	28.0818	0.030122	0.002019	14.9224	-127.988	-166.902	-0.058978	0.729460	-0.303185	-0.304493	-0.040920	14.9224	-0.301128	-4891.34	8.365773E-6	NaN
453	1.000000	0.738738	7.36949e+06	-54439.1	1005.82	-29743.7	0.000000	0.000000	6.739020	0.002318	NaN	0.000000	0.001655	0.001844	28.0816	0.078432	0.001844	42.5373	-48.539	-167.67	-0.000175	0.737437	-0.295215	-0.296517	0.002318	42.5373	-0.295256	-3998.67	-5.796970E-7	NaN
453	1.000000	0.746795	7.36949e+06	-54439.1	1005.82	-29743.7	0.000000	0.000000	6.747074	-0.048581	NaN	0.000000	0.001644	0.001787	28.0816	0.035483	0.001997	17.7657	31.3845	-166.146	0.047534	0.745453	-0.287159	-0.288501	-0.048581	17.7657	-0.285108	-2817.66	1.724157E-5	NaN
453	1.000000	0.754745	7.36949e+06	-54439.1	1005.82	-29743.7	0.000000	0.000000	6.755024	-0.061581	NaN	0.000000	0.001676	0.001773	28.0816	0.034713	0.002040	17.0178	102.964	-163.996	-0.003321	0.753454	-0.279208	-0.280499	-0.061581	17.0178	-0.276495	-2089.38	2.947332E-5	NaN
453	1.000000	0.762774	7.36949e+06	-54439.1	1005.82	-29743.7	0.000000	0.000000	6.763053	-0.053694	NaN	0.000000	0.001657	0.001771	28.0818	0.148015	0.002095	70.6482	120.978	-165.272	-0.075163	0.761456	-0.271180	-0.272497	-0.053694	70.6482	-0.270610	-1701.41	3.155827E-5	NaN
453	1.000000	0.770756	7.36949e+06	-54439.1	1005.82	-29743.7	0.000000	0.000000	6.771034	-0.068671	NaN	0.000000	0.001690	0.001790	28.0816	0.030955	0.002012	15.389	90.1352	-166.324	-0.047357	0.769456	-0.263198	-0.264498	-0.068671	15.389	-0.259851	-1165.84	5.890274E-5	NaN
453	1.000000	0.778800	7.36949e+06	-54439.1	1005.82	-29743.7	0.000000	0.000000	6.779079	-0.040304	NaN	0.000000	0.001666	0.001774	28.0805	0.182553	0.002068	88.2965	-59.378	-164.464	0.012310	0.777417	-0.255154	-0.256536	-0.040304	88.2965	-0.254812	-975.476	4.131730E-5	NaN
453	1.000000	0.786804	7.36949e+06	-54439.1	1005.82	-29743.7	0.000000	0.000000	6.787084	-0.017049	NaN	0.000000	0.001682	0.001771	28.0806	0.126137	0.002006	62.8804	-31.2179	-163.731	-0.021502	0.785461	-0.247150	-0.248492	-0.017049	62.8804	-0.246947	-737.352	2.312203E-5	NaN
453	1.000000	0.794767	7.36949e+06	-54439.1	1005.82	-29743.7	0.000000	0.000000	6.795050	0.025671	NaN	0.000000	0.001682	0.001765	28.0805	0.054352	0.001936	28.0745	-70.7177	-165.595	0.030653	0.793456	-0.239186	-0.240498	0.025671	28.0745	-0.239872	-572.213	-4.486312E-5	NaN
453	1.000000	0.802781	7.36949e+06	-54439.1	1005.82	-29743.7	0.000000	0.000000	6.803058	-0.100456	NaN	0.000000	0.001694	0.001799	28.0807	0.005786	0.001935	2.989711	-41.1742	-164.378	-0.041101	0.801469	-0.231173	-0.232485	-0.100456	2.989711	-0.205972	-164.97	0.000609	NaN
453	1.000000	0.810787	7.36949e+06	-54439.1	1005.82	-29743.7	0.000000	0.000000	6.811067	-0.028322	NaN	0.000000	0.001678	0.001789	28.0804	0.048299	0.002016	23.9532	-26.695	-168.044	-0.006072	0.809453	-0.223167	-0.224500	-0.028322	23.9532	-0.222280	-302.041	9.376801E-5	NaN
453	1.000000	0.818792	7.36949e+06	-54439.1	1005.82	-29743.7	0.000000	0.000000	6.819071	-0.048937	NaN	0.000000	0.001660	0.001769	28.0806	0.132322	0.002020	65.4897	150.435	-162.481	-0.010023	0.817514	-0.215162	-0.216439	-0.048937	65.4897	-0.214601	-227.562	0.000215	NaN
453	1.000000	0.826786	7.36949e+06	-54439.1	1005.82	-29743.7	0.000000	0.000000	6.827067	-0.016174	NaN	0.000000	0.001648	0.001727	28.0803	0.018017	0.002026	8.890569	14.7568	-165.839	-0.034024	0.825510	-0.207168	-0.208444	-0.016174	8.890569	-0.205803	-163.928	9.866284E-5	NaN
453	1.000000	0.834784	7.36949e+06	-54439.1	1005.82	-29743.7	0.000000	0.000000	6.835061	-0.091633	NaN	0.000000	0.001654	0.001749	28.0806	0.029416	0.002071	14.2021	173.056	-165.552	-0.207652	0.833455	-0.199170	-0.200498	-0.091633	14.2021	-0.194331	-106.197	0.000863	NaN
453	1.000000	0.842824	7.36949e+06	-54439.1	1005.82	-29743.7	0.000000	0.000000	6.843106	0.013180	NaN	0.000000	0.001644	0.001806	28.0805	0.018244	0.001941	9.398982	167.435	-164.479	0.039543	0.841459	-0.191129	-0.192494	0.013180	9.398982	-0.192181	-97.8129	-0.000135	NaN
453	1.000000	0.850815	7.36949e+06	-54439.1	1005.82	-29743.7	0.000000	0.000000	6.851090	-0.146458	NaN	0.000000	0.001638	0.001775	28.0805	0.053828	0.002000	26.9189	-161.989	-163.814	-0.092068	0.849452	-0.183139	-0.184501	-0.146458	26.9189	-0.179059	-58.8079	0.002490	NaN
453	1.000000	0.858787	7.36949e+06	-54439.1	1005.82	-29743.7	0.000000	0.000000	6.859066	-0.048547	NaN	0.000000	0.001630	0.001759	28.0806	0.097677	0.002014	48.5027	-125.129	-163.527	-0.011619	0.857483	-0.175167	-0.176471	-0.048547	48.5027	-0.174416	-48.9714	0.000991	NaN
453	1.000000	0.866805	7.36949e+06	-54439.1	1005.82	-29743.7	0.000000	0.000000	6.867087	0.000808	NaN	0.000000	0.001617	0.001762	28.0804	0.074322	0.001977	37.5947	1.064099	-168.615	-0.122938	0.865563	-0.167148	-0.168391	0.000808	37.5947	-0.167165	-36.6624	-2.203448E-5	NaN
453	1.000000	0.874791	7.36949e+06	-54439.1	1005.82	-29743.7	0.000000	0.000000	6.875070	-0.060975	NaN	0.000000	0.001643	0.001728	28.0804	0.082062	0.002068	39.6807	-155.806	-167.72	-0.005589	0.873513	-0.159163	-0.160441	-0.060975	39.6807	-0.158010	-25.2662	0.002413	NaN
453	1.000000	0.882784	7.36949e+06	-54439.1	1005.82	-29743.7	0.000000	0.000000	6.883061	-0.106338	NaN	0.000000	0.001653	0.001747	28.0807	0.113411	0.002115	53.6287	-159.808	-167.411	-0.003574	0.881522	-0.151170	-0.152432	-0.106338	53.6287	-0.149682	-17.8736	0.005949	NaN
453	1.000000	0.890825	7.36949e+06	-54439.1	1005.82	-29743.7	0.000000	0.000000	6.891107	0.001501	NaN	0.000000	0.001605	0.001783	28.0805	0.066659	0.002008	33.1984	-87.6469	-167.097	0.063455	0.889498	-0.143128	-0.144456	0.001501	33.1984	-0.143162	-13.5543	-0.000111	NaN
453	1.000000	0.898837	7.36949e+06	-54439.1	1005.82	-29743.7	0.000000	0.000000	6.899116	-0.036092	NaN	0.000000	0.001646	0.001774	28.0806	0.063383	0.001975	32.1007	60.1672	-163.57	-0.060373	0.897491	-0.135117	-0.136463	-0.036092	32.1007	-0.134274	-9.213209	0.003917	NaN
453	1.000000	0.906804	7.36949e+06	-54439.1	1005.82	-29743.7	0.000000	0.000000	6.907084	-0.037394	NaN	0.000000	0.001620	0.001791	28.0805	0.040870	0.002084	19.6087	-111.989	-165.665	-0.024856	0.905550	-0.127150	-0.128403	-0.037394	19.6087	-0.125719	-6.283618	0.005951	NaN
453	1.000000	0.914859	7.36949e+06	-54439.1	1005.82	-29743.7	0.000000	0.000000	6.915136	-0.097167	NaN	0.000000	0.001654	0.001782	28.0818	0.066779	0.002174	30.7168	169.506	-162.547	0.024035	0.913529	-0.119095	-0.120425	-0.097167	30.7168	-0.116722	-4.144506	0.023445	NaN
453	1.000000	0.922838	7.36949e+06	-54439.1	1005.82	-29743.7	0.000000	0.000000	6.923116	-0.089922	NaN	0.000000	0.001635	0.001795	28.0817	0.022377	0.001864	12.0069	40.1463	-164.961	-0.062214	0.921517	-0.111115	-0.112437	-0.089922	12.0069	-0.105498	-2.409497	0.037320	NaN
453	1.000000	0.930822	7.36949e+06	-54439.1	1005.82	-29743.7	0.000000	0.000000	6.931106	0.076648	NaN	0.000000	0.001628	0.001803	28.0816	0.087012	0.001952	44.5752	-93.3201	-165.848	0.051281	0.929526	-0.103132	-0.104428	0.076648	44.5752	-0.104422	-2.283812	-0.033562	NaN
453	1.000000	0.938845	7.36949e+06	-54439.1	1005.82	-29743.7	0.000000	0.000000	6.939127	0.005862	NaN	0.000000	0.001656	0.001777	28.0817	0.078987	0.001972	40.0466	36.1358	-166.779	-0.067337	0.937537	-0.095109	-0.096417	0.005862	40.0466	-0.095218	-1.426880	-0.004108	NaN
453	1.000000	0.946822	7.36949e+06	-54439.1	1005.82	-29743.7	0.000000	0.000000	6.947104	0.011923	NaN	0.000000	0.001692	0.001802	28.0818	0.128149	0.002044	62.7068	-119.214	-163.731	-0.008669	0.945520	-0.087131	-0.088433	0.011923	62.7068	-0.087274	-0.931801	-0.012795	NaN
453	1.000000	0.954839	7.36949e+06	-54439.1	1005.82	-29743.7	0.000000	0.000000	6.955118	-0.069206	NaN	0.000000	0.001650	0.001771	28.082	0.061876	0.001963	31.5195	-155.181	-165.109	-0.011809	0.953531	-0.079114	-0.080423	-0.069206	31.5195	-0.077468	-0.534347	0.129514	NaN
453	1.000000	0.962840	7.36949e+06	-54439.1	1005.82	-29743.7	0.000000	0.000000	6.963119	-0.046759	NaN	0.000000	0.001676	0.001780	28.0816	0.017882	0.002121	8.429577	146.807	-164.139	-0.128232	0.961567	-0.071114	-0.072387	-0.046759	8.429577	-0.066953	-0.282099	0.165754	NaN
453	1.000000	0.970832	7.36949e+06	-54439.1	1005.82	-29743.7	0.000000	0.000000	6.971115	0.048643	NaN	0.000000	0.001631	0.001826	28.0817	0.023122	0.002054	11.2545	-15.7096	-163.801	0.014717	0.969551	-0.063122	-0.064403	0.048643	11.2545	-0.066364	-0.271783	-0.178979	NaN
453	1.000000	0.978853	7.36949e+06	-54439.1	1005.82	-29743.7	0.000000	0.000000	6.979132	-0.060360	NaN	0.000000	0.001674	0.001806	28.0818	0.052228	0.002088	25.0185	-93.3009	-166.493	-0.066937	0.977556	-0.055101	-0.056398	-0.060360	25.0185	-0.053291	-0.114581	0.526790	NaN
453	1.000000	0.986873	7.36949e+06	-54439.1	1005.82	-29743.7	0.000000	0.000000	6.987153	-0.012364	NaN	0.000000	0.001649	0.001827	28.0817	0.051906	0.001995	26.0133	-171.514	-167.03	-0.044670	0.985587	-0.047081	-0.048367	-0.012364	26.0133	-0.046725	-0.072558	0.170394	NaN
453	1.000000	0.994886	7.36949e+06	-54439.1	1005.82	-29743.7	0.000000	0.000000	6.995167	-0.020547	NaN	0.000000	0.001682	0.001792	28.0818	0.113286	0.001934	58.5669	-111.625	-164.543	-0.011562	0.993540	-0.039068	-0.040414	-0.020547	58.5669	-0.038804	-0.041603	0.493870	NaN
453	1.000000	1.002858	7.36949e+06	-54439.1	1005.82	-29743.7	0.000000	0.000000	7.003138	-0.024151	NaN	0.000000	0.001628	0.001784	28.0817	0.077883	0.001951	39.917	56.5135	-166.563	-0.064837	1.001584	-0.031096	-0.032370	-0.024151	39.917	-0.030642	-0.023985	1.006913	NaN
453	1.000000	1.010865	7.36949e+06	-54439.1	1005.82	-29743.7	0.000000	0.000000	7.011144	-0.065252	NaN	0.000000	0.001630	0.001775	28.082	0.116442	0.001991	58.4947	128.452	-165.319	-0.055243	1.009583	-0.023089	-0.024371	-0.065252	58.4947	-0.022252	-0.014331	4.553080	NaN
453	1.000000	1.018878	7.36949e+06	-54439.1	1005.82	-29743.7	0.000000	0.000000	7.019158	-0.043371	NaN	0.000000	0.001644	0.001782	28.0818	0.147834	0.001926	76.7573	-173.176	-164.608	-0.046562	1.017554	-0.015075	-0.016400	-0.043371	76.7573	-0.014652	-0.009068	4.783096	NaN
453	1.000000	1.026855	7.36949e+06	-54439.1	1005.82	-29743.7	0.000000	0.000000	7.027134	-0.043570	NaN	0.000000	0.001649	0.001775	28.0819	0.056740	0.001989	28.5263	-22.2657	-165.495	-0.116673	1.025557	-0.007099	-0.008396	-0.043570	28.5263	-0.005953	-0.004008	10.8712	NaN
453	1.000000	1.034842	7.36949e+06	-54439.1	1005.82	-29743.7	0.000000	0.000000	7.035154	0.751697	NaN	0.000000	0.001667	0.001779	28.0816	1.097410	0.001951	562.367	8.278972	-166.426	0.187807	1.033569	0.000888	-0.000385	0.751697	562.367	-0.000114	-8.532625E-5	-8809.68	NaN
453	2.000000	1.042385	7.36949e+06	-54439.1	1005.82	-29743.7	0.000000	0.000000	7.042979	7.603222	NaN	0.000000	0.001675	0.001755	28.0817	8.694626	0.001731	5021.79	14.1266	-175.521	7.179538	1.041559	0.008431	0.007605	7.603222	5021.79	0.007296	0.006328	1201.54	57676.9
453	2.000000	1.044543	7.36949e+06	-54439.1	1005.82	-29743.7	0.000000	0.000000	7.045267	10.7507	NaN	0.000000	0.001655	0.001736	28.081	10.8467	0.001625	6674.7	10.5433	-176.35	10.3203	1.044217	0.010590	0.010263	10.7507	6674.7	0.009382	0.008502	1264.42	66135.1
453	2.000000	1.046522	7.36949e+06	-54439.1	1005.82	-29743.7	0.000000	0.000000	7.047354	13.3806	NaN	0.000000	0.001680	0.001779	28.0805	13.6217	0.001832	7436.61	9.174219	-175.89	13.1143	1.046212	0.012568	0.012258	13.3806	7436.61	0.011219	0.010568	1266.18	66093.5
453	2.000000	1.048562	7.36949e+06	-54439.1	1005.82	-29743.7	0.000000	0.000000	7.049510	16.2099	NaN	0.000000	0.001658	0.001752	28.0805	15.5937	0.001848	8439.08	9.014798	-176.692	15.5853	1.048214	0.014608	0.014261	16.2099	8439.08	0.013168	0.012919	1254.74	67835.3
453	2.000000	1.050511	7.36949e+06	-54439.1	1005.82	-29743.7	0.000000	0.000000	7.051673	21.4174	NaN	0.000000	0.001690	0.001783	28.0807	16.7665	0.001621	10340.8	2.963799	-172.765	20.6121	1.050102	0.016557	0.016148	21.4174	10340.8	0.015004	0.015290	1400.72	76404.2
453	2.000000	1.052455	7.36949e+06	-54439.1	1005.82	-29743.7	0.000000	0.000000	7.053721	23.9398	NaN	0.000000	0.001639	0.001822	28.0805	20.0389	0.001761	11376.8	8.283567	179.756	22.2038	1.052242	0.018501	0.018289	23.9398	11376.8	0.016923	0.017936	1334.75	77612.9
453	2.000000	1.054464	7.36949e+06	-54439.1	1005.82	-29743.7	0.000000	0.000000	7.055931	28.8289	NaN	0.000000	0.001623	0.001780	28.0805	21.2238	0.001646	12898	6.357075	179.922	27.4625	1.054165	0.020510	0.020212	28.8289	12898	0.018833	0.020742	1389.86	81821.6
453	2.000000	1.056512	7.36949e+06	-54439.1	1005.82	-29743.7	0.000000	0.000000	7.058069	31.0243	NaN	0.000000	0.001676	0.001778	28.0805	23.0491	0.001817	12683.4	1.103269	-174.145	30.4812	1.056264	0.022558	0.022310	31.0243	12683.4	0.020723	0.023692	1309.49	75285
453	2.000000	1.058566	7.36949e+06	-54439.1	1005.82	-29743.7	0.000000	0.000000	7.060283	34.9084	NaN	0.000000	0.001697	0.001814	28.0807	24.9903	0.001873	13339	5.994642	-177.87	36.4691	1.058209	0.024612	0.024255	34.9084	13339	0.022649	0.026877	1298.8	74336.6
453	2.000000	1.060467	7.36949e+06	-54439.1	1005.82	-29743.7	0.000000	0.000000	7.062517	43.0085	NaN	0.000000	0.001678	0.001811	28.0808	26.3552	0.001770	14887.6	4.881963	-177.155	43.1707	1.060055	0.026513	0.026101	43.0085	14887.6	0.024347	0.029838	1441.41	78743.7
453	2.000000	1.062529	7.36949e+06	-54439.1	1005.82	-29743.7	0.000000	0.000000	7.064643	44.5597	NaN	0.000000	0.001695	0.001790	28.0806	29.7244	0.001895	15682.6	7.645805	-179.659	46.9585	1.062144	0.028575	0.028190	44.5597	15682.6	0.026444	0.033696	1322.42	78055.7
453	2.000000	1.064475	7.36949e+06	-54439.1	1005.82	-29743.7	0.000000	0.000000	7.066941	53.1195	NaN	0.000000	0.001671	0.001759	28.0805	30.9801	0.001802	17196.8	0.889880	-175.914	53.105	1.064128	0.030521	0.030174	53.1195	17196.8	0.028205	0.037105	1431.61	81565.2
453	2.000000	1.066463	7.36949e+06	-54439.1	1005.82	-29743.7	0.000000	0.000000	7.069097	57.1848	NaN	0.000000	0.001674	0.001761	28.0804	32.7494	0.001882	17403.4	-0.134911	-175.039	56.2181	1.066168	0.032510	0.032214	57.1848	17403.4	0.030045	0.040838	1400.3	78682.2
453	2.000000	1.068447	7.36949e+06	-54439.1	1005.82	-29743.7	0.000000	0.000000	7.071442	65.9697	NaN	0.000000	0.001658	0.001762	28.0804	34.7173	0.001789	19403.8	2.876267	-178.604	63.7052	1.068165	0.034493	0.034212	65.9697	19403.8	0.031943	0.044868	1470.31	83693.8
453	2.000000	1.070457	7.36949e+06	-54439.1	1005.82	-29743.7	0.000000	0.000000	7.073727	72.6459	NaN	0.000000	0.001642	0.001750	28.0808	36.8953	0.001789	20627	5.609211	177.382	72.7977	1.070124	0.036504	0.036170	72.6459	20627	0.033862	0.049130	1478.65	85023.2
453	2.000000	1.072458	7.36949e+06	-54439.1	1005.82	-29743.7	0.000000	0.000000	7.075874	76.1968	NaN	0.000000	0.001642	0.001762	28.0805	39.3593	0.001903	20683.1	3.427311	179.719	75.948	1.072212	0.038505	0.038258	76.1968	20683.1	0.035742	0.053487	1424.58	81708.1
453	2.000000	1.074362	7.36949e+06	-54439.1	1005.82	-29743.7	0.000000	0.000000	7.078395	91.2085	NaN	0.000000	0.001646	0.001811	28.0805	39.681	0.001750	22671.6	1.642757	-178.454	87.3966	1.074066	0.040409	0.040112	91.2085	22671.6	0.037391	0.057460	1587.33	86411.5
453	2.000000	1.076451	7.36949e+06	-54439.1	1005.82	-29743.7	0.000000	0.000000	7.080473	90.9418	NaN	0.000000	0.001676	0.001788	28.0805	41.7729	0.001811	23066.3	1.879220	-179.018	91.273	1.076142	0.042497	0.042188	90.9418	23066.3	0.039540	0.062846	1447.06	84064.4
453	2.000000	1.078513	7.36949e+06	-54439.1	1005.82	-29743.7	0.000000	0.000000	7.082931	100.575	NaN	0.000000	0.001684	0.001790	28.0813	44.665	0.001843	24234.4	6.937906	175.476	100.942	1.078221	0.044559	0.044267	100.575	24234.4	0.041447	0.067821	1482.95	85020.5
453	2.000000	1.080459	7.36949e+06	-54439.1	1005.82	-29743.7	0.000000	0.000000	7.085215	108.793	NaN	0.000000	0.001652	0.001768	28.0831	46.1755	0.001729	26713.4	5.520941	174.638	110.776	1.080184	0.046505	0.046230	108.793	26713.4	0.043451	0.073250	1485.22	90177.5
453	2.000000	1.082457	7.36949e+06	-54439.1	1005.82	-29743.7	0.000000	0.000000	7.087547	116.912	NaN	0.000000	0.001692	0.001774	28.0818	48.6681	0.001833	26555.3	4.190000	176.451	117.932	1.082132	0.048503	0.048179	116.912	26555.3	0.045201	0.078160	1495.81	86782.7
453	2.000000	1.084454	7.36949e+06	-54439.1	1005.82	-29743.7	0.000000	0.000000	7.090066	129.611	NaN	0.000000	0.001687	0.001777	28.0816	49.8653	0.001817	27443.5	8.514393	172.794	131.245	1.084037	0.050500	0.050084	129.611	27443.5	0.046958	0.083243	1557.03	86904.1
453	2.000000	1.086443	7.36949e+06	-54439.1	1005.82	-29743.7	0.000000	0.000000	7.092334	136.376	NaN	0.000000	0.001683	0.001751	28.0819	51.6719	0.001788	28905.3	6.857402	173.573	135.99	1.086116	0.052489	0.052163	136.376	28905.3	0.048951	0.089198	1528.92	88424.8
453	2.000000	1.088406	7.36949e+06	-54439.1	1005.82	-29743.7	0.000000	0.000000	7.094802	148.663	NaN	0.000000	0.001666	0.001765	28.0818	53.5157	0.001756	30469.5	3.764642	176.171	145.306	1.088135	0.054452	0.054181	148.663	30469.5	0.050793	0.094879	1566.86	90376.1
453	2.000000	1.090435	7.36949e+06	-54439.1	1005.82	-29743.7	0.000000	0.000000	7.097199	157.589	NaN	0.000000	0.001671	0.001742	28.0819	55.0302	0.001736	31701.5	3.897680	175.437	157.975	1.090057	0.056482	0.056103	157.589	31701.5	0.052753	0.101113	1558.54	91085.4
453	2.000000	1.092460	7.36949e+06	-54439.1	1005.82	-29743.7	0.000000	0.000000	7.099444	162.966	NaN	0.000000	0.001715	0.001735	28.0818	58.5958	0.001890	31002.2	3.816991	175.619	163.86	1.092191	0.058506	0.058237	162.966	31002.2	0.054563	0.107038	1522.5	86575.8
453	2.000000	1.094429	7.36949e+06	-54439.1	1005.82	-29743.7	0.000000	0.000000	7.102073	178.995	NaN	0.000000	0.001684	0.001747	28.0817	58.6608	0.001697	34570.4	6.493611	172.8	179.21	1.094021	0.060475	0.060067	178.995	34570.4	0.056592	0.113872	1571.89	93598.4
453	2.000000	1.096445	7.36949e+06	-54439.1	1005.82	-29743.7	0.000000	0.000000	7.104461	188.035	NaN	0.000000	0.001660	0.001761	28.0821	61.6745	0.001859	33170.2	6.047003	174.018	187.985	1.096021	0.062491	0.062067	188.035	33170.2	0.058240	0.119572	1572.57	87640.9
453	2.000000	1.098407	7.36949e+06	-54439.1	1005.82	-29743.7	0.000000	0.000000	7.106913	199.949	NaN	0.000000	0.001756	0.001760	28.0817	64.6067	0.001865	34645.6	10.0915	169.277	200.093	1.098098	0.064454	0.064144	199.949	34645.6	0.060125	0.126257	1583.66	89082.7
453	2.000000	1.100372	7.36949e+06	-54439.1	1005.82	-29743.7	0.000000	0.000000	7.109290	209.983	NaN	0.000000	0.001742	0.001793	28.0819	64.3926	0.001824	35294	2.064347	176.588	205.638	1.100034	0.066418	0.066080	209.983	35294	0.061956	0.132915	1579.83	88448
453	2.000000	1.102367	7.36949e+06	-54439.1	1005.82	-29743.7	0.000000	0.000000	7.111779	221.985	NaN	0.000000	0.001763	0.001788	28.0815	66.7399	0.001816	36760.1	2.606313	176.138	220.931	1.102086	0.068413	0.068132	221.985	36760.1	0.063884	0.140104	1584.44	89727.6
453	2.000000	1.104349	7.36949e+06	-54439.1	1005.82	-29743.7	0.000000	0.000000	7.114222	233.171	NaN	0.000000	0.001762	0.001797	28.0816	67.5975	0.001807	37402.8	4.447281	173.676	229.617	1.104167	0.070396	0.070213	233.171	37402.8	0.065720	0.147115	1584.96	89094.3
453	2.000000	1.106354	7.36949e+06	-54439.1	1005.82	-29743.7	0.000000	0.000000	7.116918	249.987	NaN	0.000000	0.001728	0.001803	28.0819	69.7018	0.001784	39071.7	2.896171	175.53	246.676	1.105969	0.072400	0.072015	249.987	39071.7	0.067602	0.154468	1618.37	90827.3
453	2.000000	1.108434	7.36949e+06	-54439.1	1005.82	-29743.7	0.000000	0.000000	7.119326	257.953	NaN	0.000000	0.001691	0.001797	28.0817	73.1079	0.001906	38360.7	5.756966	173.063	257.427	1.108088	0.074480	0.074134	257.953	38360.7	0.069437	0.161804	1594.23	87129.6
453	2.000000	1.110516	7.36949e+06	-54439.1	1005.82	-29743.7	0.000000	0.000000	7.121863	269.028	NaN	0.000000	0.001713	0.001815	28.0826	74.6324	0.001869	39923.7	8.575720	170.165	273.157	1.110099	0.076562	0.076146	269.028	39923.7	0.071508	0.170277	1579.94	88394.8
453	2.000000	1.112434	7.36949e+06	-54439.1	1005.82	-29743.7	0.000000	0.000000	7.124514	286.835	NaN	0.000000	0.001725	0.001758	28.0812	76.2808	0.001775	42978.7	8.433693	169.599	288.41	1.111950	0.078480	0.077997	286.835	42978.7	0.073474	0.178508	1606.84	92939
453	2.000000	1.114327	7.36949e+06	-54439.1	1005.82	-29743.7	0.000000	0.000000	7.126685	293.605	NaN	0.000000	0.001681	0.001778	28.0806	76.0687	0.001783	42667.2	2.945804	174.355	289.409	1.114096	0.080373	0.080142	293.605	42667.2	0.075212	0.185933	1579.09	90404.1
453	2.000000	1.116319	7.36949e+06	-54439.1	1005.82	-29743.7	0.000000	0.000000	7.129350	309.976	NaN	0.000000	0.001687	0.001793	28.0806	80.2353	0.001843	43542.7	7.156672	169.732	304.177	1.115993	0.082365	0.082039	309.976	43542.7	0.077026	0.193836	1599.17	90359
453	2.000000	1.118420	7.36949e+06	-54439.1	1005.82	-29743.7	0.000000	0.000000	7.131881	320.406	NaN	0.000000	0.001732	0.001809	28.0812	81.9346	0.001855	44181.2	9.760394	168.779	320.403	1.117971	0.084466	0.084017	320.406	44181.2	0.079027	0.202734	1580.43	89649.4
453	2.000000	1.120300	7.36949e+06	-54439.1	1005.82	-29743.7	0.000000	0.000000	7.134291	333.286	NaN	0.000000	0.001659	0.001844	28.0807	82.227	0.001886	43587.6	3.420011	174.401	329.249	1.120001	0.086347	0.086047	333.286	43587.6	0.080612	0.209915	1587.72	86919
453	2.000000	1.122330	7.36949e+06	-54439.1	1005.82	-29743.7	0.000000	0.000000	7.136918	347.812	NaN	0.000000	0.001680	0.001813	28.0804	85.1225	0.001771	48062.2	5.427100	171.632	343.742	1.121968	0.088377	0.088014	347.812	48062.2	0.082949	0.220715	1575.84	93467.6
453	2.000000	1.124334	7.36949e+06	-54439.1	1005.82	-29743.7	0.000000	0.000000	7.139275	356.386	NaN	0.000000	0.001681	0.001771	28.0808	85.8515	0.001777	48301.3	4.229049	171.97	351.846	1.124059	0.090381	0.090105	356.386	48301.3	0.084847	0.229672	1551.72	92082.8
453	2.000000	1.126304	7.36949e+06	-54439.1	1005.82	-29743.7	0.000000	0.000000	7.141863	371.415	NaN	0.000000	0.001667	0.001760	28.0806	88.6891	0.001827	48538.3	4.216300	172.3	366.539	1.125991	0.092350	0.092038	371.415	48538.3	0.086611	0.238146	1559.61	90873.3
453	2.000000	1.128468	7.36949e+06	-54439.1	1005.82	-29743.7	0.000000	0.000000	7.144472	382.222	NaN	0.000000	0.001707	0.001739	28.0805	91.8866	0.001849	49699.3	7.030838	169.522	385.212	1.128046	0.094514	0.094093	382.222	49699.3	0.088746	0.248596	1537.53	91070.2
453	2.000000	1.130361	7.36949e+06	-54439.1	1005.82	-29743.7	0.000000	0.000000	7.147208	402.705	NaN	0.000000	0.001712	0.001751	28.0806	91.5459	0.001855	49338	2.330562	174.185	401.924	1.130036	0.096408	0.096082	402.705	49338	0.090286	0.256261	1571.46	89045.7
453	2.000000	1.132310	7.36949e+06	-54439.1	1005.82	-29743.7	0.000000	0.000000	7.149468	410.304	NaN	0.000000	0.001687	0.001730	28.0805	94.5618	0.001794	52719.9	4.051984	171.825	406.049	1.132061	0.098356	0.098107	410.304	52719.9	0.092519	0.267570	1533.45	93117.1
453	2.000000	1.134493	7.36949e+06	-54439.1	1005.82	-29743.7	0.000000	0.000000	7.152366	427.673	NaN	0.000000	0.001676	0.001752	28.0809	95.8011	0.001869	51266.9	6.704392	169.379	433.548	1.134101	0.100539	0.100147	427.673	51266.9	0.094282	0.276663	1545.83	89050.3
453	2.000000	1.136373	7.3695e+06	-54439.1	1005.82	-29743.7	0.000000	0.000000	7.154830	441.879	NaN	0.000000	0.001669	0.001751	28.0802	96.9214	0.001805	53692.1	6.270380	169.398	442.094	1.136133	0.102419	0.102179	441.879	53692.1	0.096246	0.286957	1539.88	91574.6
453	2.000000	1.138415	7.3695e+06	-54439.1	1005.82	-29743.7	0.000000	0.000000	7.157407	454.851	NaN	0.000000	0.001680	0.001758	28.0803	98.1645	0.001741	56388.1	4.862110	171.161	455.896	1.137988	0.104462	0.104034	454.851	56388.1	0.098412	0.298511	1523.73	94293.3
453	2.000000	1.140282	7.3695e+06	-54439.1	1005.82	-29743.7	0.000000	0.000000	7.159624	463.375	NaN	0.000000	0.001682	0.001771	28.0801	99.5627	0.001744	57089.3	3.868079	170.968	455.984	1.140051	0.106328	0.106098	463.375	57089.3	0.100241	0.308434	1502.35	93917.5
453	2.000000	1.140686	7.3695e+06	-54439.1	1005.82	-29743.7	0.000000	0.000000	7.160687	479.409	NaN	0.000000	0.001694	0.001766	28.0803	98.9475	0.001740	56857.5	2.529587	-7.057292	467.034	1.140433	0.106732	0.106480	479.409	56857.5	0.100408	0.309350	1549.73	93397.6