File: remote_trans/data/nanoindenter/0828-1/data/Data_2025-08-06,11h17m57s/2025-07-22_16-23-58_1_267.txt
2025-07-22, 16:23:58, 1
Index	Phase	Displacement	Time	Pos X	Pos Y	Pos Z	Rot A	Rot B	Piezo Z	Force A	Force B	Gripper	Voltage A	Voltage B	Temperature	Amplitude force	Amplitude pos	Stiffness	Phase shift	Phase excitation	Force A raw	Displacement raw	HMax	HMax raw	Real Force	Real Stiffness	Contact Depth	Area	Hardness	Reduced Mod.
[#]	[#]	[um]	[s]	[um]	[um]	[um]	[m°]	[m°]	[um]	[uN]	[uN]	[V]	[V]	[V]	[°C]	[uN]	[um]	[N/m]	[°]	[°]	[uN]	[um]	[um]	[um]	[uN]	[N/m]	[um]	[um^2]	[MPa]	[MPa]
267	1.000000	0.002363	7.36766e+06	-51989.1	955.817	-29750.7	0.000000	0.000000	6.002804	0.068337	NaN	0.000000	0.001638	0.001721	28.08	0.018654	0.000929	20.0784	-99.5952	-163.465	0.078856	0.001088	-1.168133	-1.169409	0.068337	20.0784	-1.170686	-4.447101E+15	-1.536660E-17	NaN
267	1.000000	0.012433	7.36766e+06	-51989.1	955.819	-29750.7	0.000000	0.000000	6.012870	-0.009402	NaN	0.000000	0.001624	0.001744	28.0794	0.090230	0.001199	75.2655	-151.409	16.6363	0.078832	0.010998	-1.158063	-1.159499	-0.009402	75.2655	-1.157970	-3.003693E+15	3.130126E-18	NaN
267	1.000000	0.022332	7.36766e+06	-51989.1	955.818	-29750.7	0.000000	0.000000	6.022772	0.058826	NaN	0.000000	0.001618	0.001728	28.0794	0.112657	0.001745	64.5623	-52.9927	-168.057	0.044795	0.021016	-1.148165	-1.149481	0.058826	64.5623	-1.148848	-2.266596E+15	-2.595358E-17	NaN
267	1.000000	0.032329	7.36766e+06	-51989.1	955.818	-29750.7	0.000000	0.000000	6.032766	0.000870	NaN	0.000000	0.001623	0.001720	28.0794	0.068783	0.001927	35.6878	-115.356	14.1088	0.009060	0.030929	-1.138168	-1.139568	0.000870	35.6878	-1.138186	-1.630857E+15	-5.335348E-19	NaN
267	1.000000	0.042299	7.36766e+06	-51989.1	955.819	-29750.7	0.000000	0.000000	6.042738	0.038266	NaN	0.000000	0.001636	0.001701	28.0795	0.090381	0.001975	45.7577	-178.144	-165.953	0.033369	0.041005	-1.128198	-1.129492	0.038266	45.7577	-1.128825	-1.221419E+15	-3.132886E-17	NaN
267	1.000000	0.052320	7.36766e+06	-51989.1	955.818	-29750.7	0.000000	0.000000	6.052758	0.010944	NaN	0.000000	0.001621	0.001713	28.0795	0.063821	0.002029	31.4568	-78.5554	13.9107	-0.014685	0.050870	-1.118176	-1.119627	0.010944	31.4568	-1.118437	-8.861435E+14	-1.234986E-17	NaN
267	1.000000	0.062307	7.36766e+06	-51989.1	955.817	-29750.7	0.000000	0.000000	6.062745	-0.005387	NaN	0.000000	0.001643	0.001713	28.0799	0.065031	0.001954	33.2818	17.2861	-166.702	-0.004774	0.061052	-1.108189	-1.109445	-0.005387	33.2818	-1.108068	-6.432165E+14	8.375112E-18	NaN
267	1.000000	0.072303	7.36766e+06	-51989.1	955.818	-29750.7	0.000000	0.000000	6.072743	0.055181	NaN	0.000000	0.001630	0.001688	28.0797	0.044859	0.001956	22.939	159.289	14.0442	-0.080518	0.070922	-1.098193	-1.099574	0.055181	22.939	-1.099997	-5.012265E+14	-1.100926E-16	NaN
267	1.000000	0.082316	7.36766e+06	-51989.1	955.818	-29750.7	0.000000	0.000000	6.082754	0.023655	NaN	0.000000	0.001613	0.001689	28.0796	0.056616	0.001902	29.7711	149.369	-167.142	0.022562	0.080989	-1.088181	-1.089508	0.023655	29.7711	-1.088777	-3.543134E+14	-6.676180E-17	NaN
267	1.000000	0.092316	7.36766e+06	-51989.1	955.818	-29750.7	0.000000	0.000000	6.092756	0.055220	NaN	0.000000	0.001599	0.001710	28.0793	0.032231	0.001996	16.1505	-51.8306	13.2879	0.133228	0.090978	-1.078180	-1.079518	0.055220	16.1505	-1.080745	-2.763895E+14	-1.997904E-16	NaN
267	1.000000	0.102351	7.36766e+06	-51989.1	955.818	-29750.7	0.000000	0.000000	6.102789	0.020338	NaN	0.000000	0.001688	0.001735	28.0792	0.097740	0.002101	46.52	159.073	-167.526	0.018962	0.101017	-1.068146	-1.069480	0.020338	46.52	-1.068473	-1.890946E+14	-1.075535E-16	NaN
267	1.000000	0.112325	7.36766e+06	-51989.1	955.819	-29750.7	0.000000	0.000000	6.112763	0.017885	NaN	0.000000	0.001734	0.001712	28.0791	0.228720	0.001971	116.02	24.7238	13.5946	0.026493	0.110995	-1.058172	-1.059501	0.017885	116.02	-1.058288	-1.379781E+14	-1.296256E-16	NaN
267	1.000000	0.122356	7.36766e+06	-51989.1	955.818	-29750.7	0.000000	0.000000	6.122792	-0.028568	NaN	0.000000	0.001652	0.001726	28.0792	0.096801	0.001980	48.8893	-89.153	-168.99	-0.040970	0.120971	-1.048141	-1.049526	-0.028568	48.8893	-1.047703	-9.943286E+13	2.873120E-16	NaN
267	1.000000	0.132337	7.36767e+06	-51989.1	955.818	-29750.7	0.000000	0.000000	6.132775	0.015244	NaN	0.000000	0.001678	0.001716	28.0781	0.063463	0.002019	31.4317	-26.7185	13.057	0.009745	0.130952	-1.038160	-1.039544	0.015244	31.4317	-1.038523	-7.483628E+13	-2.037037E-16	NaN
267	1.000000	0.142340	7.36767e+06	-51989.1	955.818	-29750.7	0.000000	0.000000	6.142779	0.028961	NaN	0.000000	0.001667	0.001745	28.0779	0.037538	0.002038	18.4211	178.491	-163.529	0.023647	0.141042	-1.028157	-1.029454	0.028961	18.4211	-1.029336	-5.630472E+13	-5.143578E-16	NaN
267	1.000000	0.152367	7.36767e+06	-51989.1	955.817	-29750.7	0.000000	0.000000	6.152806	0.021300	NaN	0.000000	0.001628	0.001743	28.078	0.058112	0.002064	28.1498	-35.7634	15.1296	0.010207	0.150980	-1.018129	-1.019517	0.021300	28.1498	-1.018697	-4.049663E+13	-5.259666E-16	NaN
267	1.000000	0.162382	7.36767e+06	-51989.1	955.819	-29750.7	0.000000	0.000000	6.162818	-0.047041	NaN	0.000000	0.001665	0.001705	28.078	0.101859	0.001959	51.9926	57.2077	-164.217	-0.138220	0.161024	-1.008115	-1.009473	-0.047041	51.9926	-1.007436	-2.856745E+13	1.646647E-15	NaN
267	1.000000	0.172347	7.36767e+06	-51989.1	955.817	-29750.7	0.000000	0.000000	6.172784	-0.010464	NaN	0.000000	0.001681	0.001735	28.078	0.043327	0.001990	21.7767	170.675	14.3333	-0.025841	0.170983	-0.998149	-0.999514	-0.010464	21.7767	-0.997789	-2.118349E+13	4.939812E-16	NaN
267	1.000000	0.182373	7.36767e+06	-51989.1	955.818	-29750.7	0.000000	0.000000	6.182810	0.002860	NaN	0.000000	0.001646	0.001700	28.078	0.081295	0.001803	45.0781	33.3451	-164.323	-0.050973	0.181050	-0.988124	-0.989447	0.002860	45.0781	-0.988172	-1.572128E+13	-1.819503E-16	NaN
267	1.000000	0.192355	7.36767e+06	-51989.1	955.818	-29750.7	0.000000	0.000000	6.192792	-0.028162	NaN	0.000000	0.001663	0.001729	28.0784	0.066193	0.001878	35.2414	10.7304	13.4251	-0.028341	0.191014	-0.978141	-0.979483	-0.028162	35.2414	-0.977542	-1.130556E+13	2.490989E-15	NaN
267	1.000000	0.202358	7.36767e+06	-51989.1	955.818	-29750.7	0.000000	0.000000	6.202796	0.003551	NaN	0.000000	0.001670	0.001743	28.0783	0.021679	0.002022	10.7235	-155.245	-167.741	0.039857	0.201059	-0.968138	-0.969438	0.003551	10.7235	-0.968387	-8.509840E+12	-4.172846E-16	NaN
267	1.000000	0.212390	7.36767e+06	-51989.1	955.818	-29750.7	0.000000	0.000000	6.212829	0.029144	NaN	0.000000	0.001663	0.001741	28.0784	0.038368	0.002147	17.8728	2.272407	13.0349	0.008451	0.210975	-0.958107	-0.959522	0.029144	17.8728	-0.959330	-6.424361E+12	-4.536443E-15	NaN
267	1.000000	0.222357	7.36767e+06	-51989.1	955.818	-29750.7	0.000000	0.000000	6.222794	0.004771	NaN	0.000000	0.001666	0.001684	28.0783	0.026921	0.001938	13.8906	-126.211	-167.403	-0.021200	0.221077	-0.948140	-0.949420	0.004771	13.8906	-0.948398	-4.575282E+12	-1.042813E-15	NaN
267	1.000000	0.232375	7.36767e+06	-51989.1	955.818	-29750.7	0.000000	0.000000	6.232812	-0.008336	NaN	0.000000	0.001663	0.001724	28.0785	0.107406	0.002124	50.5771	98.4276	10.4867	0.077537	0.231072	-0.938122	-0.939425	-0.008336	50.5771	-0.937998	-3.312294E+12	2.516776E-15	NaN
267	1.000000	0.242358	7.36767e+06	-51989.1	955.818	-29750.7	0.000000	0.000000	6.242795	-0.025783	NaN	0.000000	0.001654	0.001761	28.0785	0.069023	0.002008	34.3796	-121.728	-169.308	-0.011887	0.241122	-0.928138	-0.929374	-0.025783	34.3796	-0.927576	-2.395961E+12	1.076118E-14	NaN
267	1.000000	0.252373	7.36767e+06	-51989.1	955.818	-29750.7	0.000000	0.000000	6.252813	0.064940	NaN	0.000000	0.001692	0.001745	28.0783	0.037402	0.001838	20.345	160.148	11.3987	0.149777	0.251089	-0.918123	-0.919408	0.064940	20.345	-0.920517	-1.923930E+12	-3.375392E-14	NaN
267	1.000000	0.262368	7.36767e+06	-51989.1	955.817	-29750.7	0.000000	0.000000	6.262805	-0.002879	NaN	0.000000	0.001674	0.001803	28.0797	0.030495	0.001985	15.3655	138.745	-164.873	0.110989	0.261097	-0.908128	-0.909399	-0.002879	15.3655	-0.907988	-1.303120E+12	2.209647E-15	NaN
267	1.000000	0.272373	7.36767e+06	-51989.1	955.818	-29750.7	0.000000	0.000000	6.272810	-0.002422	NaN	0.000000	0.001653	0.001779	28.0795	0.016400	0.002011	8.156723	149.21	13.4481	-0.036167	0.271027	-0.898124	-0.899469	-0.002422	8.156723	-0.897901	-9.521414E+11	2.543693E-15	NaN
267	1.000000	0.282429	7.36767e+06	-51989.1	955.818	-29750.7	0.000000	0.000000	6.282867	0.033440	NaN	0.000000	0.001687	0.001764	28.0797	0.010215	0.002024	5.046675	-16.5826	-165.95	0.077542	0.281067	-0.888068	-0.889430	0.033440	5.046675	-0.893038	-8.184184E+11	-4.085929E-14	NaN
267	1.000000	0.292370	7.36767e+06	-51989.1	955.818	-29750.7	0.000000	0.000000	6.292810	0.048057	NaN	0.000000	0.001636	0.001735	28.0802	0.082247	0.002031	40.4938	-96.5239	12.1893	0.036255	0.291049	-0.878126	-0.879448	0.048057	40.4938	-0.879016	-5.289377E+11	-9.085562E-14	NaN
267	1.000000	0.302424	7.36767e+06	-51989.1	955.819	-29750.7	0.000000	0.000000	6.302860	-0.037314	NaN	0.000000	0.001669	0.001757	28.08	0.071083	0.002024	35.1129	134.504	-170.205	0.022987	0.301152	-0.868072	-0.869345	-0.037314	35.1129	-0.867275	-3.669260E+11	1.016928E-13	NaN
267	1.000000	0.312384	7.36767e+06	-51989.1	955.817	-29750.7	0.000000	0.000000	6.312822	0.020555	NaN	0.000000	0.001628	0.001719	28.0797	0.074822	0.002008	37.2564	-139.569	15.3917	0.009108	0.311025	-0.858112	-0.859472	0.020555	37.2564	-0.858526	-2.793653E+11	-7.357815E-14	NaN
267	1.000000	0.322442	7.36767e+06	-51989.1	955.819	-29750.7	0.000000	0.000000	6.322881	0.029612	NaN	0.000000	0.001664	0.001734	28.0798	0.059684	0.002083	28.6468	39.6492	-167.557	0.069839	0.321143	-0.848055	-0.849353	0.029612	28.6468	-0.848830	-2.064876E+11	-1.434096E-13	NaN
267	1.000000	0.332402	7.36767e+06	-51989.1	955.817	-29750.7	0.000000	0.000000	6.332839	0.010731	NaN	0.000000	0.001674	0.001759	28.0796	0.056752	0.002143	26.484	-133.713	8.508119	0.057711	0.331071	-0.838095	-0.839426	0.010731	26.484	-0.838399	-1.491421E+11	-7.194852E-14	NaN
267	1.000000	0.342426	7.36767e+06	-51989.1	955.818	-29750.7	0.000000	0.000000	6.342864	-2.816512E-5	NaN	0.000000	0.001681	0.001724	28.0798	0.072382	0.001960	36.9359	81.3013	-169.969	0.035443	0.341142	-0.828070	-0.829354	-2.816512E-5	36.9359	-0.828070	-1.080485E+11	2.606710E-16	NaN
267	1.000000	0.352444	7.36767e+06	-51989.1	955.817	-29750.7	0.000000	0.000000	6.352883	0.039684	NaN	0.000000	0.001696	0.001764	28.0795	0.014997	0.001970	7.612722	-65.7518	12.9495	0.106104	0.351030	-0.818053	-0.819466	0.039684	7.612722	-0.821963	-8.929455E+10	-4.444187E-13	NaN
267	1.000000	0.362445	7.36767e+06	-51989.1	955.818	-29750.7	0.000000	0.000000	6.362884	0.041468	NaN	0.000000	0.001693	0.001721	28.0797	0.049749	0.002111	23.5641	77.4852	-168.925	-0.011279	0.361097	-0.808051	-0.809399	0.041468	23.5641	-0.809371	-6.026141E+10	-6.881391E-13	NaN
267	1.000000	0.372422	7.36767e+06	-51989.1	955.818	-29750.7	0.000000	0.000000	6.372859	0.002300	NaN	0.000000	0.001694	0.001770	28.0798	0.128684	0.001992	64.5987	113.1	13.4822	0.050524	0.371116	-0.798075	-0.799380	0.002300	64.5987	-0.798102	-4.237339E+10	-5.428281E-14	NaN
267	1.000000	0.382419	7.36767e+06	-51989.1	955.818	-29750.7	0.000000	0.000000	6.382860	0.081608	NaN	0.000000	0.001692	0.001750	28.0797	0.088903	0.001759	50.5527	80.5807	-164.745	0.049556	0.381165	-0.788077	-0.789331	0.081608	50.5527	-0.789288	-3.216728E+10	-2.536993E-12	NaN
267	1.000000	0.392475	7.36767e+06	-51989.1	955.818	-29750.7	0.000000	0.000000	6.392912	0.001338	NaN	0.000000	0.001652	0.001715	28.0797	0.081186	0.001976	41.0835	-145.259	14.2365	-0.021128	0.391074	-0.778022	-0.779423	0.001338	41.0835	-0.778046	-2.262974E+10	-5.911204E-14	NaN
267	1.000000	0.402437	7.36767e+06	-51989.1	955.818	-29750.7	0.000000	0.000000	6.402875	0.009197	NaN	0.000000	0.001668	0.001688	28.0785	0.064556	0.002201	29.3353	152.995	-166.138	0.040176	0.401146	-0.768059	-0.769350	0.009197	29.3353	-0.768295	-1.667696E+10	-5.515078E-13	NaN
267	1.000000	0.412440	7.36767e+06	-51989.1	955.818	-29750.7	0.000000	0.000000	6.412878	0.022851	NaN	0.000000	0.001697	0.001706	28.0786	0.055266	0.001987	27.8187	58.3119	14.9562	0.067705	0.411099	-0.758057	-0.759398	0.022851	27.8187	-0.758673	-1.233815E+10	-1.852083E-12	NaN
267	1.000000	0.422476	7.36767e+06	-51989.1	955.817	-29750.7	0.000000	0.000000	6.422917	0.089060	NaN	0.000000	0.001595	0.001701	28.0785	0.014279	0.002070	6.899379	-58.8788	-168.811	0.053383	0.421173	-0.748021	-0.749324	0.089060	6.899379	-0.757702	-1.196855E+10	-7.441135E-12	NaN
267	1.000000	0.432463	7.36767e+06	-51989.1	955.818	-29750.7	0.000000	0.000000	6.432900	-0.005226	NaN	0.000000	0.001622	0.001673	28.0787	0.022495	0.001968	11.4292	141.284	10.1642	0.002678	0.431077	-0.738034	-0.739419	-0.005226	11.4292	-0.737691	-6.391566E+9	8.175779E-13	NaN
267	1.000000	0.442498	7.36767e+06	-51989.1	955.818	-29750.7	0.000000	0.000000	6.442935	-0.012440	NaN	0.000000	0.001611	0.001719	28.0787	0.038730	0.002146	18.049	25.6193	-166.686	-0.043878	0.441211	-0.727999	-0.729285	-0.012440	18.049	-0.727482	-4.639642E+9	2.681269E-12	NaN
267	1.000000	0.452483	7.36767e+06	-51989.1	955.817	-29750.7	0.000000	0.000000	6.452921	0.025972	NaN	0.000000	0.001598	0.001694	28.0789	0.126601	0.001946	65.0553	72.2134	15.7842	0.012017	0.451092	-0.718014	-0.719405	0.025972	65.0553	-0.718313	-3.479129E+9	-7.465046E-12	NaN
267	1.000000	0.462503	7.36767e+06	-51989.1	955.818	-29750.7	0.000000	0.000000	6.462941	0.027030	NaN	0.000000	0.001580	0.001724	28.0787	0.019479	0.002212	8.806046	-140.892	-162.798	0.062392	0.461228	-0.707994	-0.709269	0.027030	8.806046	-0.710296	-2.704509E+9	-9.994605E-12	NaN
267	1.000000	0.472488	7.36767e+06	-51989.1	955.818	-29750.7	0.000000	0.000000	6.472927	0.034607	NaN	0.000000	0.001604	0.001732	28.0787	0.047721	0.001864	25.5993	-124.427	13.5719	0.071756	0.471105	-0.698008	-0.699392	0.034607	25.5993	-0.699022	-1.897477E+9	-1.823829E-11	NaN
267	1.000000	0.482501	7.36767e+06	-51989.1	955.819	-29750.7	0.000000	0.000000	6.482938	-0.013344	NaN	0.000000	0.001533	0.001696	28.0787	0.014387	0.002138	6.729212	39.062	-165.242	-0.022115	0.481236	-0.687995	-0.689261	-0.013344	6.729212	-0.686508	-1.279940E+9	1.042567E-11	NaN
267	1.000000	0.492488	7.36767e+06	-51989.1	955.817	-29750.7	0.000000	0.000000	6.492925	-0.020860	NaN	0.000000	0.001587	0.001729	28.0788	0.051794	0.002021	25.6273	89.2739	10.1322	-0.107198	0.491181	-0.678008	-0.679316	-0.020860	25.6273	-0.677398	-9.607604E+8	2.171234E-11	NaN
267	1.000000	0.502502	7.36767e+06	-51989.1	955.818	-29750.7	0.000000	0.000000	6.502942	0.047839	NaN	0.000000	0.001568	0.001723	28.0785	0.127088	0.002008	63.2838	-174.841	-166.424	0.004114	0.501198	-0.667994	-0.669299	0.047839	63.2838	-0.668561	-7.272728E+8	-6.577827E-11	NaN
267	1.000000	0.512543	7.36767e+06	-51989.1	955.818	-29750.7	0.000000	0.000000	6.512977	-0.069020	NaN	0.000000	0.001592	0.001738	28.0784	0.127818	0.002085	61.2996	-66.0069	9.896194	0.001257	0.511109	-0.657954	-0.659387	-0.069020	61.2996	-0.657110	-5.068416E+8	1.361773E-10	NaN
267	1.000000	0.522484	7.36767e+06	-51989.1	955.818	-29750.7	0.000000	0.000000	6.522921	-0.012312	NaN	0.000000	0.001613	0.001730	28.0785	0.090960	0.001993	45.6394	-130.567	-164.502	-0.031207	0.521189	-0.648013	-0.649308	-0.012312	45.6394	-0.647811	-3.779362E+8	3.257801E-11	NaN
267	1.000000	0.532533	7.36767e+06	-51989.1	955.818	-29750.7	0.000000	0.000000	6.532969	-0.023103	NaN	0.000000	0.001583	0.001705	28.079	0.015432	0.002007	7.689947	-111.631	15.9787	0.096801	0.531149	-0.637964	-0.639348	-0.023103	7.689947	-0.635711	-2.578853E+8	8.958789E-11	NaN
267	1.000000	0.542498	7.36767e+06	-51989.1	955.818	-29750.7	0.000000	0.000000	6.542937	0.023664	NaN	0.000000	0.001588	0.001709	28.0798	0.120244	0.002084	57.6946	-17.555	-164.899	0.054349	0.541158	-0.627998	-0.629338	0.023664	57.6946	-0.628306	-2.040608E+8	-1.159673E-10	NaN
267	1.000000	0.552521	7.36767e+06	-51989.1	955.818	-29750.7	0.000000	0.000000	6.552960	0.042327	NaN	0.000000	0.001569	0.001666	28.0798	0.035257	0.001952	18.0608	137.524	17.668	0.082803	0.551142	-0.617976	-0.619355	0.042327	18.0608	-0.619733	-1.555851E+8	-2.720521E-10	NaN
267	1.000000	0.562517	7.36767e+06	-51989.1	955.818	-29750.7	0.000000	0.000000	6.562958	0.093834	NaN	0.000000	0.001596	0.001665	28.0799	0.096343	0.002050	46.9891	-19.3523	-165.917	0.076963	0.561204	-0.607980	-0.609292	0.093834	46.9891	-0.609477	-1.124405E+8	-8.345187E-10	NaN
267	1.000000	0.572539	7.36767e+06	-51989.1	955.818	-29750.7	0.000000	0.000000	6.572977	0.009668	NaN	0.000000	0.001604	0.001691	28.0797	0.074428	0.001967	37.8467	154.662	12.531	0.048778	0.571207	-0.597958	-0.599289	0.009668	37.8467	-0.598149	-7.851854E+7	-1.231311E-10	NaN
267	1.000000	0.582537	7.36767e+06	-51989.1	955.819	-29750.7	0.000000	0.000000	6.582976	0.045081	NaN	0.000000	0.001563	0.001691	28.0796	0.053871	0.001935	27.8348	12.9725	-171.929	-0.024610	0.581234	-0.587960	-0.589262	0.045081	27.8348	-0.589175	-5.905913E+7	-7.633216E-10	NaN
267	1.000000	0.592535	7.36767e+06	-51989.1	955.818	-29750.7	0.000000	0.000000	6.592972	-0.020074	NaN	0.000000	0.001587	0.001704	28.0798	0.060825	0.001975	30.8028	131.339	14.2569	0.005837	0.591220	-0.577962	-0.579277	-0.020074	30.8028	-0.577473	-4.072318E+7	4.929440E-10	NaN
267	1.000000	0.602544	7.36767e+06	-51989.1	955.818	-29750.7	0.000000	0.000000	6.602981	-0.011786	NaN	0.000000	0.001592	0.001717	28.0798	0.113821	0.002048	55.568	-54.7825	-168.387	-0.105496	0.601270	-0.567953	-0.569226	-0.011786	55.568	-0.567794	-2.993274E+7	3.937647E-10	NaN
267	1.000000	0.612530	7.36767e+06	-51989.1	955.818	-29750.7	0.000000	0.000000	6.612965	-0.044244	NaN	0.000000	0.001600	0.001698	28.0797	0.054797	0.002010	27.2599	117.688	13.0022	0.071883	0.611182	-0.557967	-0.559315	-0.044244	27.2599	-0.556750	-2.105747E+7	2.101106E-9	NaN
267	1.000000	0.622527	7.36767e+06	-51989.1	955.817	-29750.7	0.000000	0.000000	6.622962	-0.038573	NaN	0.000000	0.001577	0.001715	28.0797	0.043892	0.002013	21.8044	-63.5561	-166.124	-0.073325	0.621254	-0.547970	-0.549243	-0.038573	21.8044	-0.546643	-1.525647E+7	2.528327E-9	NaN
267	1.000000	0.632555	7.36767e+06	-51989.1	955.817	-29750.7	0.000000	0.000000	6.632995	0.056652	NaN	0.000000	0.001565	0.001708	28.0798	0.040484	0.002015	20.0881	118.504	16.3663	0.048760	0.631172	-0.537941	-0.539325	0.056652	20.0881	-0.540057	-1.236355E+7	-4.582201E-9	NaN
267	1.000000	0.642565	7.36767e+06	-51989.1	955.818	-29750.7	0.000000	0.000000	6.643005	0.060215	NaN	0.000000	0.001624	0.001704	28.0797	0.073593	0.002001	36.7715	-17.934	-162.677	-0.022325	0.641258	-0.527932	-0.529239	0.060215	36.7715	-0.529160	-8.72786e+06	-6.899185E-9	NaN
267	1.000000	0.652561	7.36767e+06	-51989.1	955.818	-29750.7	0.000000	0.000000	6.652999	0.000256	NaN	0.000000	0.001631	0.001707	28.0798	0.134470	0.001994	67.4287	157.942	11.0829	0.023711	0.651204	-0.517935	-0.519293	0.000256	67.4287	-0.517938	-6.09424e+06	-4.207250E-11	NaN
267	1.000000	0.662573	7.36767e+06	-51989.1	955.818	-29750.7	0.000000	0.000000	6.663012	0.044924	NaN	0.000000	0.001614	0.001691	28.08	0.085895	0.001952	44.0108	23.949	-164.147	0.005824	0.661266	-0.507924	-0.509231	0.044924	44.0108	-0.508689	-4.53064e+06	-9.915702E-9	NaN
267	1.000000	0.672579	7.36767e+06	-51989.1	955.818	-29750.7	0.000000	0.000000	6.673020	0.091743	NaN	0.000000	0.001596	0.001687	28.0786	0.103841	0.001937	53.6182	59.5585	13.8424	0.031476	0.671254	-0.497918	-0.499242	0.091743	53.6182	-0.499201	-3.34094e+06	-2.746023E-8	NaN
267	1.000000	0.682566	7.36767e+06	-51989.1	955.818	-29750.7	0.000000	0.000000	6.683005	0.042040	NaN	0.000000	0.001623	0.001712	28.0785	0.041987	0.002124	19.7713	-173.487	-167.705	-0.070130	0.681257	-0.487931	-0.489240	0.042040	19.7713	-0.489525	-2.44771e+06	-1.717529E-8	NaN
267	1.000000	0.692568	7.36767e+06	-51989.1	955.817	-29750.7	0.000000	0.000000	6.693007	0.047343	NaN	0.000000	0.001681	0.001732	28.0785	0.133191	0.001885	70.6431	-169.421	13.1459	0.068786	0.691204	-0.477929	-0.479293	0.047343	70.6431	-0.478431	-1.71223e+06	-2.764961E-8	NaN
267	1.000000	0.702567	7.36767e+06	-51989.1	955.818	-29750.7	0.000000	0.000000	6.703004	-0.014700	NaN	0.000000	0.001664	0.001740	28.0786	0.062793	0.001959	32.0581	-103.46	-163.795	-0.069778	0.701234	-0.467930	-0.469263	-0.014700	32.0581	-0.467586	-1.20653e+06	1.218380E-8	NaN
267	1.000000	0.712578	7.36767e+06	-51989.1	955.817	-29750.7	0.000000	0.000000	6.713017	0.038035	NaN	0.000000	0.001652	0.001721	28.0787	0.077593	0.002072	37.4436	65.864	12.3361	0.057591	0.711165	-0.457919	-0.459332	0.038035	37.4436	-0.458680	-904632	-4.204465E-8	NaN
267	1.000000	0.722600	7.36767e+06	-51989.1	955.818	-29750.7	0.000000	0.000000	6.723036	-0.028354	NaN	0.000000	0.001610	0.001757	28.0787	0.066891	0.001957	34.1764	1.589368	-169.037	0.061962	0.721246	-0.447897	-0.449250	-0.028354	34.1764	-0.447275	-625107	4.535808E-8	NaN
267	1.000000	0.732598	7.36767e+06	-51989.1	955.818	-29750.7	0.000000	0.000000	6.733034	-0.032488	NaN	0.000000	0.001648	0.001766	28.0786	0.086468	0.002049	42.1998	92.4075	13.8248	0.003999	0.731252	-0.437899	-0.439245	-0.032488	42.1998	-0.437322	-452427	7.180749E-8	NaN
267	1.000000	0.742611	7.36767e+06	-51989.1	955.819	-29750.7	0.000000	0.000000	6.743051	0.046662	NaN	0.000000	0.001633	0.001747	28.079	0.066639	0.002000	33.3182	-149.898	-165.137	0.019748	0.741304	-0.427885	-0.429193	0.046662	33.3182	-0.428936	-344352	-1.355062E-7	NaN
267	1.000000	0.752639	7.36767e+06	-51989.1	955.818	-29750.7	0.000000	0.000000	6.753079	0.060243	NaN	0.000000	0.001630	0.001732	28.0786	0.070187	0.002018	34.7728	-118.288	13.3368	0.046624	0.751229	-0.417857	-0.419268	0.060243	34.7728	-0.419157	-250295	-2.406878E-7	NaN
267	1.000000	0.762626	7.36767e+06	-51989.1	955.818	-29750.7	0.000000	0.000000	6.763064	0.027209	NaN	0.000000	0.001640	0.001771	28.0788	0.050884	0.001991	25.5513	56.4365	-167.033	0.013969	0.761294	-0.407871	-0.409202	0.027209	25.5513	-0.408670	-177616	-1.531900E-7	NaN
267	1.000000	0.772601	7.36767e+06	-51989.1	955.818	-29750.7	0.000000	0.000000	6.773040	0.045641	NaN	0.000000	0.001646	0.001761	28.0786	0.109422	0.001940	56.3981	-95.2149	14.7674	0.036684	0.771283	-0.397896	-0.399214	0.045641	56.3981	-0.398503	-127243	-3.586939E-7	NaN
267	1.000000	0.782628	7.36767e+06	-51989.1	955.819	-29750.7	0.000000	0.000000	6.783065	-0.008672	NaN	0.000000	0.001607	0.001731	28.079	0.061440	0.001835	33.4811	139.162	-169.118	0.075960	0.781312	-0.387869	-0.389185	-0.008672	33.4811	-0.387674	-89102.1	9.733007E-8	NaN
267	1.000000	0.792615	7.36767e+06	-51989.1	955.817	-29750.7	0.000000	0.000000	6.793051	-0.034073	NaN	0.000000	0.001625	0.001745	28.0788	0.098616	0.002020	48.8163	-105.69	9.577061	-0.009586	0.791233	-0.377881	-0.379263	-0.034073	48.8163	-0.377358	-63379.9	5.375938E-7	NaN
267	1.000000	0.802629	7.36767e+06	-51989.1	955.818	-29750.7	0.000000	0.000000	6.803067	0.003996	NaN	0.000000	0.001586	0.001699	28.0789	0.085228	0.002028	42.0352	159.475	-169.407	-0.026842	0.801320	-0.367868	-0.369176	0.003996	42.0352	-0.367939	-46390.9	-8.614480E-8	NaN
267	1.000000	0.812645	7.36767e+06	-51989.1	955.818	-29750.7	0.000000	0.000000	6.813085	0.057029	NaN	0.000000	0.001650	0.001673	28.0802	0.050552	0.001886	26.7972	-113.147	10.9783	0.077474	0.811284	-0.357852	-0.359212	0.057029	26.7972	-0.359448	-34983.2	-1.630171E-6	NaN
267	1.000000	0.822627	7.36767e+06	-51989.1	955.817	-29750.7	0.000000	0.000000	6.823066	0.046917	NaN	0.000000	0.001635	0.001665	28.0802	0.103522	0.001950	53.0801	-32.5779	-166.022	0.048956	0.821355	-0.347869	-0.349142	0.046917	53.0801	-0.348532	-24305	-1.930364E-6	NaN
267	1.000000	0.832644	7.36767e+06	-51989.1	955.817	-29750.7	0.000000	0.000000	6.833084	0.066971	NaN	0.000000	0.001651	0.001688	28.08	0.067549	0.002050	32.9462	20.9053	14.6519	0.014157	0.831287	-0.337852	-0.339210	0.066971	32.9462	-0.339377	-17884.3	-3.744677E-6	NaN
267	1.000000	0.842653	7.36767e+06	-51989.1	955.817	-29750.7	0.000000	0.000000	6.843090	-0.020207	NaN	0.000000	0.001598	0.001723	28.0802	0.068397	0.001859	36.7964	135.968	-165.089	-0.039717	0.841360	-0.327844	-0.329137	-0.020207	36.7964	-0.327432	-11962.3	1.689196E-6	NaN
267	1.000000	0.852669	7.36767e+06	-51989.1	955.818	-29750.7	0.000000	0.000000	6.853108	0.039199	NaN	0.000000	0.001602	0.001682	28.0805	0.135345	0.002031	66.6484	-145.977	14.2521	0.021873	0.851244	-0.317828	-0.319253	0.039199	66.6484	-0.318269	-8773.08	-4.468048E-6	NaN
267	1.000000	0.862677	7.36767e+06	-51989.1	955.818	-29750.7	0.000000	0.000000	6.863114	-0.004344	NaN	0.000000	0.001590	0.001724	28.0806	0.108064	0.002000	54.028	-149.177	-169.581	-0.008990	0.861303	-0.307820	-0.309193	-0.004344	54.028	-0.307759	-6135.86	7.080407E-7	NaN
267	1.000000	0.872638	7.36767e+06	-51989.1	955.818	-29750.7	0.000000	0.000000	6.873076	-0.003937	NaN	0.000000	0.001590	0.001704	28.0801	0.118873	0.002081	57.1365	79.28	12.3086	0.142131	0.871294	-0.297858	-0.299203	-0.003937	57.1365	-0.297807	-4364.78	9.019053E-7	NaN
267	1.000000	0.882662	7.36767e+06	-51989.1	955.818	-29750.7	0.000000	0.000000	6.883099	-0.008381	NaN	0.000000	0.001651	0.001734	28.0801	0.118891	0.001852	64.2105	138.787	-163.589	-0.003629	0.881357	-0.287834	-0.289140	-0.008381	64.2105	-0.287736	-3085.77	2.715898E-6	NaN
267	1.000000	0.892693	7.36767e+06	-51989.1	955.819	-29750.7	0.000000	0.000000	6.893130	-0.015612	NaN	0.000000	0.001622	0.001706	28.0803	0.041368	0.001976	20.9381	172.137	11.7275	0.057261	0.891360	-0.277804	-0.279137	-0.015612	20.9381	-0.277244	-2144.65	7.279495E-6	NaN
267	1.000000	0.902660	7.36767e+06	-51989.1	955.817	-29750.7	0.000000	0.000000	6.903099	0.039033	NaN	0.000000	0.001628	0.001709	28.0801	0.042881	0.001982	21.6395	-33.9518	-166.325	0.008895	0.901367	-0.267836	-0.269130	0.039033	21.6395	-0.269189	-1618.88	-2.411105E-5	NaN
267	1.000000	0.912672	7.36767e+06	-51989.1	955.818	-29750.7	0.000000	0.000000	6.913110	0.000350	NaN	0.000000	0.001552	0.001737	28.08	0.067470	0.002013	33.5245	5.872958	15.8366	-0.040920	0.911301	-0.257824	-0.259196	0.000350	33.5245	-0.257832	-1085.58	-3.221802E-7	NaN
267	1.000000	0.922666	7.36767e+06	-51989.1	955.818	-29750.7	0.000000	0.000000	6.923104	0.020299	NaN	0.000000	0.001571	0.001723	28.0802	0.068681	0.001965	34.9457	-113.772	-163.106	0.035375	0.921329	-0.247831	-0.249168	0.020299	34.9457	-0.248266	-772.916	-2.626268E-5	NaN
267	1.000000	0.932717	7.36767e+06	-51989.1	955.818	-29750.7	0.000000	0.000000	6.933151	-0.080526	NaN	0.000000	0.001572	0.001700	28.08	0.059365	0.001902	31.2088	140.305	15.0252	0.010449	0.931301	-0.237780	-0.239195	-0.080526	31.2088	-0.235844	-494.883	0.000163	NaN
267	1.000000	0.942697	7.36767e+06	-51989.1	955.818	-29750.7	0.000000	0.000000	6.943133	-0.033635	NaN	0.000000	0.001544	0.001691	28.0794	0.026507	0.001893	14.0029	35.0468	-165.389	-0.009503	0.941351	-0.227799	-0.229146	-0.033635	14.0029	-0.225998	-346.078	9.718792E-5	NaN
267	1.000000	0.952680	7.36767e+06	-51989.1	955.818	-29750.7	0.000000	0.000000	6.953116	-0.046202	NaN	0.000000	0.001554	0.001698	28.0784	0.045604	0.002039	22.3682	12.0451	11.9455	-0.065579	0.951327	-0.217817	-0.219169	-0.046202	22.3682	-0.216267	-242.038	0.000191	NaN
267	1.000000	0.962693	7.36767e+06	-51989.1	955.818	-29750.7	0.000000	0.000000	6.963131	0.012261	NaN	0.000000	0.001539	0.001707	28.0787	0.052874	0.002070	25.5439	-20.6865	-170.991	0.094394	0.961360	-0.207804	-0.209136	0.012261	25.5439	-0.208164	-179.079	-6.846889E-5	NaN
267	1.000000	0.972696	7.36767e+06	-51989.1	955.818	-29750.7	0.000000	0.000000	6.973136	0.044282	NaN	0.000000	0.001556	0.001719	28.0785	0.137272	0.001941	70.7316	165.642	14.9332	0.058574	0.971353	-0.197800	-0.199144	0.044282	70.7316	-0.198270	-123.374	-0.000359	NaN
267	1.000000	0.982658	7.36767e+06	-51989.1	955.819	-29750.7	0.000000	0.000000	6.983096	0.037889	NaN	0.000000	0.001579	0.001720	28.0785	0.062167	0.001941	32.0231	73.0798	-168.906	0.056859	0.981400	-0.187839	-0.189096	0.037889	32.0231	-0.188726	-85.6505	-0.000442	NaN
267	1.000000	0.992728	7.36767e+06	-51989.1	955.816	-29750.7	0.000000	0.000000	6.993167	0.048631	NaN	0.000000	0.001560	0.001693	28.0787	0.023453	0.002037	11.515	-80.4699	11.5968	-0.022333	0.991347	-0.177769	-0.179150	0.048631	11.515	-0.180936	-63.2971	-0.000768	NaN
267	1.000000	1.002732	7.36767e+06	-51989.1	955.816	-29750.7	0.000000	0.000000	7.003170	-0.000620	NaN	0.000000	0.001580	0.001725	28.0788	0.079771	0.002127	37.4974	-137.985	-162.648	0.007231	1.001330	-0.167764	-0.169167	-0.000620	37.4974	-0.167752	-37.5386	1.652715E-5	NaN
267	1.000000	1.012706	7.36767e+06	-51989.1	955.816	-29750.7	0.000000	0.000000	7.013143	-0.016998	NaN	0.000000	0.001608	0.001727	28.0788	0.107230	0.001950	54.9922	-131.919	14.6546	0.019088	1.011290	-0.157791	-0.159206	-0.016998	54.9922	-0.157559	-24.8014	0.000685	NaN
267	1.000000	1.022706	7.36767e+06	-51989.1	955.816	-29750.7	0.000000	0.000000	7.023145	0.022038	NaN	0.000000	0.001639	0.001696	28.0785	0.089020	0.002023	44.0006	-128.699	-165.789	-0.023530	1.021390	-0.147790	-0.149106	0.022038	44.0006	-0.148166	-16.7676	-0.001314	NaN
267	1.000000	1.032722	7.36767e+06	-51989.1	955.817	-29750.7	0.000000	0.000000	7.033158	-0.029375	NaN	0.000000	0.001654	0.001689	28.0788	0.074914	0.002079	36.0314	-86.6817	17.1523	-0.041797	1.031354	-0.137774	-0.139143	-0.029375	36.0314	-0.137163	-10.4577	0.002809	NaN
267	1.000000	1.042715	7.36767e+06	-51989.1	955.816	-29750.7	0.000000	0.000000	7.043152	-0.027764	NaN	0.000000	0.001676	0.001712	28.0786	0.013687	0.001888	7.250966	-147.502	-165.914	-0.010788	1.041423	-0.127781	-0.129073	-0.027764	7.250966	-0.124910	-6.056264	0.004584	NaN
267	1.000000	1.052717	7.36767e+06	-51989.1	955.815	-29750.7	0.000000	0.000000	7.053157	0.067663	NaN	0.000000	0.001650	0.001699	28.0786	0.114239	0.002003	57.0398	-11.8576	12.0242	0.077629	1.051398	-0.117780	-0.119099	0.067663	57.0398	-0.118669	-4.541007	-0.014900	NaN
267	1.000000	1.062706	7.36767e+06	-51989.1	955.817	-29750.7	0.000000	0.000000	7.063145	0.031391	NaN	0.000000	0.001658	0.001711	28.0786	0.124153	0.001975	62.861	123.683	-168.351	0.010911	1.061447	-0.107791	-0.109050	0.031391	62.861	-0.108165	-2.747986	-0.011423	NaN
267	1.000000	1.072700	7.36767e+06	-51989.1	955.817	-29750.7	0.000000	0.000000	7.073137	-0.018827	NaN	0.000000	0.001635	0.001714	28.0789	0.099045	0.001991	49.7467	97.3275	12.0905	-0.055946	1.071327	-0.097797	-0.099169	-0.018827	49.7467	-0.097513	-1.607933	0.011709	NaN
267	1.000000	1.082736	7.36767e+06	-51989.1	955.816	-29750.7	0.000000	0.000000	7.083174	0.022276	NaN	0.000000	0.001608	0.001735	28.0798	0.151409	0.002005	75.5102	-170.81	-166.061	0.048329	1.081487	-0.087761	-0.089010	0.022276	75.5102	-0.087982	-0.968674	-0.022996	NaN
267	1.000000	1.092760	7.36767e+06	-51989.1	955.816	-29750.7	0.000000	0.000000	7.093200	0.063068	NaN	0.000000	0.001556	0.001738	28.0797	0.074875	0.002001	37.4233	164.756	10.7321	0.035296	1.091324	-0.077737	-0.079172	0.063068	37.4233	-0.079001	-0.584274	-0.107943	NaN
267	1.000000	1.102743	7.36767e+06	-51989.1	955.817	-29750.7	0.000000	0.000000	7.103181	0.017939	NaN	0.000000	0.001563	0.001697	28.0797	0.066687	0.002045	32.6139	-144.469	-168.892	-0.001797	1.101438	-0.067754	-0.069059	0.017939	32.6139	-0.068166	-0.304407	-0.058930	NaN
267	1.000000	1.112742	7.36767e+06	-51989.1	955.816	-29750.7	0.000000	0.000000	7.113180	0.014407	NaN	0.000000	0.001557	0.001695	28.0797	0.152608	0.002082	73.282	-106.982	11.9214	0.028680	1.111429	-0.057754	-0.059067	0.014407	73.282	-0.057902	-0.156642	-0.091977	NaN
267	1.000000	1.122757	7.36767e+06	-51989.1	955.817	-29750.7	0.000000	0.000000	7.123198	0.066220	NaN	0.000000	0.001547	0.001708	28.0799	0.159109	0.002040	77.9889	-47.6431	-170.584	0.087380	1.121478	-0.047739	-0.049019	0.066220	77.9889	-0.048376	-0.081469	-0.812832	NaN
267	1.000000	1.132748	7.36767e+06	-51989.1	955.817	-29750.7	0.000000	0.000000	7.133183	-0.052299	NaN	0.000000	0.001561	0.001695	28.0799	0.082000	0.001945	42.166	-49.2635	16.8622	-0.081670	1.131351	-0.037749	-0.039145	-0.052299	42.166	-0.036818	-0.036261	1.442313	NaN
267	1.000000	1.142746	7.36767e+06	-51989.1	955.817	-29750.7	0.000000	0.000000	7.143182	-0.026240	NaN	0.000000	0.001600	0.001673	28.0798	0.068317	0.001852	36.8954	-10.9574	-167.379	-0.025091	1.141488	-0.027751	-0.029009	-0.026240	36.8954	-0.027217	-0.019312	1.358724	NaN
267	1.000000	1.152791	7.36767e+06	-51989.1	955.817	-29750.7	0.000000	0.000000	7.153229	0.026079	NaN	0.000000	0.001631	0.001732	28.0798	0.055619	0.001996	27.866	-38.1731	13.8938	-0.037932	1.151439	-0.017706	-0.019058	0.026079	27.866	-0.018408	-0.011437	-2.280266	NaN
267	1.000000	1.162753	7.36767e+06	-51989.1	955.818	-29750.7	0.000000	0.000000	7.163191	0.010292	NaN	0.000000	0.001580	0.001733	28.0797	0.067734	0.001955	34.6548	151.835	-166.642	0.004915	1.161492	-0.007743	-0.009005	0.010292	34.6548	-0.007966	-0.005212	-1.974787	NaN
267	1.000000	1.172772	7.36767e+06	-51989.1	955.818	-29750.7	0.000000	0.000000	7.173264	1.327658	NaN	0.000000	0.001589	0.001719	28.0799	1.906675	0.002023	942.287	8.216305	11.8799	0.482349	1.171430	0.002276	0.000933	1.327658	942.287	0.001219	0.000933	1422.96	28184.4
267	2.000000	1.181387	7.36767e+06	-51989.1	955.818	-29750.7	0.000000	0.000000	7.182162	8.223422	NaN	0.000000	0.001568	0.001699	28.0798	9.252529	0.001708	5416.3	10.8322	-175.991	7.461126	1.181020	0.010890	0.010524	8.223422	5416.3	0.009751	0.008906	923.314	52435.4
267	2.000000	1.183906	7.36767e+06	-51989.1	955.817	-29750.7	0.000000	0.000000	7.184791	10.8944	NaN	0.000000	0.001629	0.001712	28.0802	11.6376	0.001627	7150.64	5.423285	5.149636	10.4232	1.183597	0.013409	0.013100	10.8944	7150.64	0.012266	0.011811	922.427	60115
267	2.000000	1.186370	7.36767e+06	-51989.1	955.818	-29750.7	0.000000	0.000000	7.187342	13.004	NaN	0.000000	0.001584	0.001733	28.0798	14.1934	0.001925	7373.15	6.298750	-174.022	12.8715	1.186090	0.015873	0.015593	13.004	7373.15	0.014550	0.014691	885.194	55578.6
267	2.000000	1.188907	7.36767e+06	-51989.1	955.818	-29750.7	0.000000	0.000000	7.190083	17.9776	NaN	0.000000	0.001569	0.001763	28.0801	16.3264	0.001761	9272.64	3.695724	6.727763	16.7225	1.188503	0.018410	0.018006	17.9776	9272.64	0.016956	0.017983	999.706	63175.3
267	2.000000	1.191355	7.36767e+06	-51989.1	955.817	-29750.7	0.000000	0.000000	7.192726	22.7142	NaN	0.000000	0.001530	0.001717	28.0787	18.2594	0.001585	11519.8	5.356247	-178.775	22.5098	1.191072	0.020858	0.020575	22.7142	11519.8	0.019379	0.021576	1052.75	71652.6
267	2.000000	1.193868	7.36767e+06	-51989.1	955.817	-29750.7	0.000000	0.000000	7.195410	26.8704	NaN	0.000000	0.001576	0.001731	28.0788	20.8804	0.001867	11182.6	8.553398	1.238415	28.285	1.193497	0.023371	0.023000	26.8704	11182.6	0.021569	0.025068	1071.92	64529.6
267	2.000000	1.196345	7.36767e+06	-51989.1	955.818	-29750.7	0.000000	0.000000	7.198109	32.2484	NaN	0.000000	0.001570	0.001733	28.0782	23.4815	0.001680	13974.5	7.826708	177.582	31.7225	1.196003	0.025848	0.025507	32.2484	13974.5	0.024118	0.029430	1095.78	74424.3
267	2.000000	1.198822	7.36767e+06	-51989.1	955.817	-29750.7	0.000000	0.000000	7.200849	38.635	NaN	0.000000	0.001541	0.001729	28.0787	25.898	0.001747	14826.1	4.144956	0.985014	35.682	1.198451	0.028326	0.027955	38.635	14826.1	0.026371	0.033557	1151.31	73944.6
267	2.000000	1.201293	7.36767e+06	-51989.1	955.818	-29750.7	0.000000	0.000000	7.203704	47.9783	NaN	0.000000	0.001548	0.001720	28.0787	28.369	0.001824	15550.7	6.041742	179.589	45.3879	1.200980	0.030796	0.030483	47.9783	15550.7	0.028482	0.037657	1274.08	73214.8
267	2.000000	1.203807	7.36767e+06	-51989.1	955.818	-29750.7	0.000000	0.000000	7.206414	52.7581	NaN	0.000000	0.001596	0.001715	28.0788	31.8264	0.001805	17630.7	9.018018	-4.478145	51.854	1.203473	0.033310	0.032976	52.7581	17630.7	0.031066	0.042982	1227.44	77696.1
267	2.000000	1.206330	7.36767e+06	-51989.1	955.817	-29750.7	0.000000	0.000000	7.209303	61.6496	NaN	0.000000	0.001626	0.001691	28.0785	34.5927	0.001851	18690.2	7.747164	176.149	62.8034	1.205998	0.035833	0.035501	61.6496	18690.2	0.033359	0.047995	1284.51	77945.3
267	2.000000	1.208802	7.36767e+06	-51989.1	955.818	-29750.7	0.000000	0.000000	7.212123	70.1059	NaN	0.000000	0.001571	0.001731	28.0786	35.8915	0.001717	20901.2	5.360796	-2.691074	67.835	1.208468	0.038305	0.037971	70.1059	20901.2	0.035790	0.053601	1307.92	82481.5
267	2.000000	1.211318	7.36767e+06	-51989.1	955.816	-29750.7	0.000000	0.000000	7.214980	78.4038	NaN	0.000000	0.001605	0.001723	28.0787	37.9705	0.001689	22482.7	3.569208	177.842	79.5914	1.210983	0.040821	0.040486	78.4038	22482.7	0.038206	0.059473	1318.31	84228.9
267	2.000000	1.213757	7.36767e+06	-51989.1	955.817	-29750.7	0.000000	0.000000	7.217731	86.0073	NaN	0.000000	0.001570	0.001740	28.0785	41.1966	0.001799	22899.8	6.238360	-4.233359	83.7701	1.213490	0.043260	0.042994	86.0073	22899.8	0.040443	0.065179	1319.55	81950.3
267	2.000000	1.216257	7.36767e+06	-51989.1	955.816	-29750.7	0.000000	0.000000	7.220770	99.1038	NaN	0.000000	0.001615	0.001711	28.0784	43.4365	0.001791	24257.6	3.404005	178.019	96.7703	1.215912	0.045760	0.045415	99.1038	24257.6	0.042696	0.071181	1392.27	83068.9
267	2.000000	1.218834	7.36767e+06	-51989.1	955.817	-29750.7	0.000000	0.000000	7.223691	107.47	NaN	0.000000	0.001625	0.001680	28.0785	45.8276	0.001803	25411.2	4.805529	-3.497897	106.591	1.218446	0.048337	0.047949	107.47	25411.2	0.045165	0.078057	1376.81	83098.1
267	2.000000	1.221252	7.36767e+06	-51989.1	955.819	-29750.7	0.000000	0.000000	7.226501	117.003	NaN	0.000000	0.001596	0.001703	28.0785	47.7044	0.001642	29052.9	4.666459	174.847	114.951	1.220986	0.050756	0.050489	117.003	29052.9	0.047735	0.085541	1367.79	90755.8
267	2.000000	1.223799	7.36767e+06	-51989.1	955.818	-29750.7	0.000000	0.000000	7.229459	126.991	NaN	0.000000	0.001561	0.001724	28.0793	50.0541	0.001805	27730.2	4.191492	-3.323977	125.783	1.223479	0.053302	0.052982	126.991	27730.2	0.049867	0.092004	1380.28	83526.5
267	2.000000	1.226278	7.36767e+06	-51989.1	955.818	-29750.7	0.000000	0.000000	7.232512	140.955	NaN	0.000000	0.001529	0.001739	28.0798	53.0967	0.001885	28166.3	4.323262	176.085	140.115	1.225972	0.055781	0.055475	140.955	28166.3	0.052028	0.098784	1426.9	81876.7
267	2.000000	1.228793	7.36767e+06	-51989.1	955.818	-29750.7	0.000000	0.000000	7.235513	152.757	NaN	0.000000	0.001577	0.001712	28.0797	54.8005	0.001920	28534.8	4.105189	-3.450712	150.452	1.228501	0.058297	0.058005	152.757	28534.8	0.054282	0.106105	1439.68	80035
267	2.000000	1.231216	7.36767e+06	-51989.1	955.817	-29750.7	0.000000	0.000000	7.238388	163.774	NaN	0.000000	0.001508	0.001700	28.0797	57.2062	0.001806	31677	5.913449	172.466	160.295	1.230983	0.060719	0.060486	163.774	31677	0.056841	0.114726	1427.53	85445.1
267	2.000000	1.233732	7.36767e+06	-51989.1	955.818	-29750.7	0.000000	0.000000	7.241437	176.735	NaN	0.000000	0.001545	0.001755	28.0797	58.9157	0.001828	32232.4	2.135464	-3.512247	173.034	1.233410	0.063235	0.062913	176.735	32232.4	0.059123	0.122681	1440.61	84077.1
267	2.000000	1.236455	7.36767e+06	-51989.1	955.818	-29750.7	0.000000	0.000000	7.244297	180.027	NaN	0.000000	0.001519	0.001722	28.0796	63.1349	0.001868	33796.3	9.025846	169.709	192.367	1.236110	0.065959	0.065614	180.027	33796.3	0.061964	0.132943	1354.16	84685.6
267	2.000000	1.238827	7.36767e+06	-51989.1	955.819	-29750.7	0.000000	0.000000	7.247761	206.595	NaN	0.000000	0.001538	0.001720	28.0796	63.6702	0.001795	35464	3.600683	-4.519406	208.032	1.238394	0.068330	0.067898	206.595	35464	0.063961	0.140394	1471.53	86474.1
267	2.000000	1.241284	7.36767e+06	-51989.1	955.82	-29750.7	0.000000	0.000000	7.250653	217.19	NaN	0.000000	0.001575	0.001726	28.0797	66.2975	0.001817	36481.7	2.422124	175.809	217.232	1.240969	0.070787	0.070472	217.19	36481.7	0.066322	0.149449	1453.27	86218.6
267	2.000000	1.243696	7.36767e+06	-51989.1	955.819	-29750.7	0.000000	0.000000	7.253570	229.46	NaN	0.000000	0.001552	0.001688	28.0796	69.4186	0.001854	37432.8	3.362387	-5.572633	225.394	1.243434	0.073199	0.072937	229.46	37432.8	0.068602	0.158446	1448.19	85918.2
267	2.000000	1.246172	7.36767e+06	-51989.1	955.818	-29750.7	0.000000	0.000000	7.256630	243.654	NaN	0.000000	0.001529	0.001695	28.0797	71.9788	0.001793	40145.1	3.064039	173.818	239.177	1.245948	0.075675	0.075451	243.654	40145.1	0.071123	0.168688	1444.41	89302.4
267	2.000000	1.248671	7.36767e+06	-51989.1	955.818	-29750.7	0.000000	0.000000	7.259978	264.284	NaN	0.000000	0.001575	0.001715	28.0795	73.701	0.001759	41891	5.424437	-8.527396	257.055	1.248329	0.078174	0.077832	264.284	41891	0.073443	0.178374	1481.63	90620.9
267	2.000000	1.251266	7.36767e+06	-51989.1	955.82	-29750.7	0.000000	0.000000	7.263042	275.701	NaN	0.000000	0.001613	0.001699	28.08	76.1654	0.001798	42369.6	6.761650	169.819	277.359	1.250901	0.080769	0.080404	275.701	42369.6	0.075889	0.188865	1459.78	89074.2
267	2.000000	1.253673	7.36767e+06	-51989.1	955.818	-29750.7	0.000000	0.000000	7.266187	293.646	NaN	0.000000	0.001587	0.001722	28.0795	78.2858	0.001799	43515.9	4.663004	-8.322152	285.993	1.253325	0.083177	0.082828	293.646	43515.9	0.078116	0.198659	1478.14	89200.6
267	2.000000	1.256182	7.36767e+06	-51989.1	955.819	-29750.7	0.000000	0.000000	7.269281	307.883	NaN	0.000000	0.001596	0.001738	28.0797	80.8811	0.001779	45471.5	3.302737	172.934	303.341	1.256011	0.085685	0.085514	307.883	45471.5	0.080607	0.209892	1466.86	90680.5
267	2.000000	1.258743	7.36767e+06	-51989.1	955.82	-29750.7	0.000000	0.000000	7.272817	331.581	NaN	0.000000	0.001605	0.001745	28.0783	82.5483	0.001845	44739.2	7.797378	-10.5216	326.658	1.258311	0.088246	0.087814	331.581	44739.2	0.082687	0.219494	1510.66	87247
267	2.000000	1.261225	7.36767e+06	-51989.1	955.817	-29750.7	0.000000	0.000000	7.275593	338.741	NaN	0.000000	0.001598	0.001766	28.0788	84.9582	0.001795	47342	3.668869	172.316	337.546	1.261025	0.090728	0.090528	338.741	47342	0.085362	0.232131	1459.27	89774.7
267	2.000000	1.263668	7.36767e+06	-51989.1	955.818	-29750.7	0.000000	0.000000	7.278950	360.956	NaN	0.000000	0.001573	0.001684	28.0783	88.1595	0.001873	47075.9	6.594833	-10.1371	355.788	1.263413	0.093171	0.092916	360.956	47075.9	0.087420	0.242083	1491.04	87415.8
267	2.000000	1.266233	7.36767e+06	-51989.1	955.817	-29750.7	0.000000	0.000000	7.282039	373.702	NaN	0.000000	0.001619	0.001713	28.0784	90.4986	0.001776	50970.4	5.288458	169.92	373.858	1.265987	0.095736	0.095491	373.702	50970.4	0.090237	0.256017	1459.68	92035.6
267	2.000000	1.268740	7.36767e+06	-51989.1	955.818	-29750.7	0.000000	0.000000	7.285536	397.752	NaN	0.000000	0.001628	0.001686	28.0784	92.1389	0.001860	49536.9	6.039436	-9.432766	394.416	1.268313	0.098244	0.097816	397.752	49536.9	0.092222	0.266051	1495.02	87744.4
267	2.000000	1.271169	7.36767e+06	-51989.1	955.817	-29750.7	0.000000	0.000000	7.288360	407.361	NaN	0.000000	0.001609	0.001744	28.0788	93.8625	0.001785	52572.4	4.581241	170.442	404.83	1.271061	0.100673	0.100564	407.361	52572.4	0.094861	0.279678	1456.53	90824.1
267	2.000000	1.273694	7.36767e+06	-51989.1	955.817	-29750.7	0.000000	0.000000	7.291760	428.637	NaN	0.000000	0.001579	0.001767	28.0782	96.2288	0.001764	54551	5.261863	-9.718514	424.904	1.273254	0.103198	0.102758	428.637	54551	0.097305	0.292576	1465.04	92141.8
267	2.000000	1.276205	7.36767e+06	-51989.1	955.817	-29750.7	0.000000	0.000000	7.294866	443.116	NaN	0.000000	0.001572	0.001722	28.0787	99.3411	0.001855	53565.7	3.338065	171.572	440.723	1.276028	0.105708	0.105531	443.116	53565.7	0.099504	0.304418	1455.62	88700.3
267	2.000000	1.278661	7.36767e+06	-51989.1	955.818	-29750.7	0.000000	0.000000	7.298428	470.006	NaN	0.000000	0.001558	0.001733	28.0784	99.8526	0.001749	57077.8	3.700456	-8.739396	463.166	1.278400	0.108164	0.107904	470.006	57077.8	0.101989	0.318060	1477.73	92466.8
267	2.000000	1.279206	7.36767e+06	-51989.1	955.819	-29750.7	0.000000	0.000000	7.299327	478.615	NaN	0.000000	0.001585	0.001736	28.0782	101.662	0.001770	57435.4	6.872444	168.131	475.176	1.278819	0.108709	0.108322	478.615	57435.4	0.102459	0.320675	1492.52	92666