File: remote_trans/data/nanoindenter/0828-1/data/Data_2025-08-06,11h17m57s/2025-07-22_16-23-58_1_456.txt
2025-07-22, 16:23:58, 1
Index	Phase	Displacement	Time	Pos X	Pos Y	Pos Z	Rot A	Rot B	Piezo Z	Force A	Force B	Gripper	Voltage A	Voltage B	Temperature	Amplitude force	Amplitude pos	Stiffness	Phase shift	Phase excitation	Force A raw	Displacement raw	HMax	HMax raw	Real Force	Real Stiffness	Contact Depth	Area	Hardness	Reduced Mod.
[#]	[#]	[um]	[s]	[um]	[um]	[um]	[m°]	[m°]	[um]	[uN]	[uN]	[V]	[V]	[V]	[°C]	[uN]	[um]	[N/m]	[°]	[°]	[uN]	[um]	[um]	[um]	[uN]	[N/m]	[um]	[um^2]	[MPa]	[MPa]
456	1.000000	0.002068	7.36952e+06	-54289.1	1005.82	-29743.9	0.000000	0.000000	6.002829	-0.004017	NaN	0.000000	0.001504	0.001752	28.0803	0.117610	0.000904	130.14	137.193	-168.496	0.042049	0.000782	-1.176369	-1.177655	-0.004017	130.14	-1.176346	-5.295583E+15	7.585335E-19	NaN
456	1.000000	0.012086	7.36952e+06	-54289.1	1005.82	-29743.9	0.000000	0.000000	6.012850	0.089377	NaN	0.000000	0.001565	0.001758	28.0802	0.067910	0.001165	58.2921	146.793	21.6351	-0.014216	0.010651	-1.166352	-1.167787	0.089377	58.2921	-1.167502	-4.030934E+15	-2.217282E-17	NaN
456	1.000000	0.022011	7.36952e+06	-54289.1	1005.82	-29743.9	0.000000	0.000000	6.022772	0.004703	NaN	0.000000	0.001521	0.001822	28.08	0.132408	0.001776	74.5391	43.881	-166.1	-0.005008	0.020663	-1.156426	-1.157774	0.004703	74.5391	-1.156474	-2.868156E+15	-1.639835E-18	NaN
456	1.000000	0.031961	7.36952e+06	-54289.1	1005.82	-29743.9	0.000000	0.000000	6.032723	0.016962	NaN	0.000000	0.001556	0.001770	28.0798	0.068183	0.001907	35.7562	-140.975	15.7604	0.003904	0.030668	-1.146476	-1.147769	0.016962	35.7562	-1.146832	-2.129825E+15	-7.964250E-18	NaN
456	1.000000	0.041989	7.36952e+06	-54289.1	1005.82	-29743.9	0.000000	0.000000	6.042749	-0.023440	NaN	0.000000	0.001575	0.001772	28.0805	0.064408	0.002090	30.8193	123.064	-169.647	-0.033819	0.040681	-1.136448	-1.137756	-0.023440	30.8193	-1.135878	-1.518654E+15	1.543466E-17	NaN
456	1.000000	0.052036	7.36952e+06	-54289.1	1005.82	-29743.9	0.000000	0.000000	6.052798	0.014575	NaN	0.000000	0.001576	0.001791	28.0803	0.116709	0.001955	59.709	80.1252	14.0794	0.047482	0.050634	-1.126401	-1.127803	0.014575	59.709	-1.126584	-1.139730E+15	-1.278852E-17	NaN
456	1.000000	0.061979	7.36952e+06	-54289.1	1005.82	-29743.9	0.000000	0.000000	6.062740	-0.004405	NaN	0.000000	0.001565	0.001819	28.0804	0.028174	0.002012	14.0028	138.507	-166.651	0.001730	0.060686	-1.116458	-1.117751	-0.004405	14.0028	-1.116222	-8.275321E+14	5.322973E-18	NaN
456	1.000000	0.071973	7.36952e+06	-54289.1	1005.82	-29743.9	0.000000	0.000000	6.072733	-0.022429	NaN	0.000000	0.001606	0.001868	28.0817	0.057687	0.002045	28.2097	172.968	14.5808	0.067308	0.070597	-1.106464	-1.107841	-0.022429	28.2097	-1.105868	-6.009428E+14	3.732283E-17	NaN
456	1.000000	0.082000	7.36952e+06	-54289.1	1005.82	-29743.9	0.000000	0.000000	6.082759	-0.021100	NaN	0.000000	0.001590	0.001823	28.0819	0.045164	0.002001	22.573	40.2754	-166.674	0.044170	0.080648	-1.096438	-1.097789	-0.021100	22.573	-1.095737	-4.393743E+14	4.802182E-17	NaN
456	1.000000	0.091984	7.36952e+06	-54289.1	1005.82	-29743.9	0.000000	0.000000	6.092743	-0.039529	NaN	0.000000	0.001581	0.001870	28.0813	0.071578	0.002003	35.7398	89.083	16.8369	-0.014764	0.090669	-1.086453	-1.087769	-0.039529	35.7398	-1.085624	-3.214023E+14	1.229886E-16	NaN
456	1.000000	0.101979	7.36952e+06	-54289.1	1005.82	-29743.9	0.000000	0.000000	6.102742	0.035292	NaN	0.000000	0.001589	0.001808	28.0817	0.024910	0.002020	12.3303	90.4154	-164.001	0.075474	0.100666	-1.076458	-1.077772	0.035292	12.3303	-1.078605	-2.586884E+14	-1.364260E-16	NaN
456	1.000000	0.112001	7.36952e+06	-54289.1	1005.82	-29743.9	0.000000	0.000000	6.112761	-0.024100	NaN	0.000000	0.001568	0.001850	28.0816	0.083943	0.001978	42.4434	103.037	13.2649	-0.073717	0.110648	-1.066436	-1.067789	-0.024100	42.4434	-1.066011	-1.752219E+14	1.375424E-16	NaN
456	1.000000	0.122019	7.36952e+06	-54289.1	1005.82	-29743.9	0.000000	0.000000	6.122777	-0.056163	NaN	0.000000	0.001556	0.001803	28.0815	0.075713	0.002029	37.311	7.899634	-165.113	-0.002372	0.120711	-1.056418	-1.057726	-0.056163	37.311	-1.055289	-1.257512E+14	4.466176E-16	NaN
456	1.000000	0.132010	7.36952e+06	-54289.1	1005.82	-29743.9	0.000000	0.000000	6.132772	0.033318	NaN	0.000000	0.001593	0.001833	28.0814	0.040752	0.002019	20.182	-175.932	14.637	0.029969	0.130666	-1.046428	-1.047771	0.033318	20.182	-1.047666	-9.931953E+13	-3.354596E-16	NaN
456	1.000000	0.142019	7.36952e+06	-54289.1	1005.82	-29743.9	0.000000	0.000000	6.142780	0.001401	NaN	0.000000	0.001568	0.001829	28.0818	0.096655	0.002019	47.8826	39.5144	-169.182	0.059865	0.140690	-1.036418	-1.037747	0.001401	47.8826	-1.036440	-7.016098E+13	-1.997429E-17	NaN
456	1.000000	0.152032	7.36952e+06	-54289.1	1005.82	-29743.9	0.000000	0.000000	6.152792	-0.010245	NaN	0.000000	0.001584	0.001859	28.0818	0.072218	0.001985	36.3742	146.149	12.9723	-0.009933	0.150685	-1.026406	-1.027752	-0.010245	36.3742	-1.026194	-5.108450E+13	2.005433E-16	NaN
456	1.000000	0.162049	7.36952e+06	-54289.1	1005.82	-29743.9	0.000000	0.000000	6.162808	-0.036060	NaN	0.000000	0.001572	0.001888	28.0819	0.076439	0.002029	37.6665	-21.9517	-162.614	0.050609	0.160698	-1.016388	-1.017739	-0.036060	37.6665	-1.015670	-3.687187E+13	9.779883E-16	NaN
456	1.000000	0.172060	7.36952e+06	-54289.1	1005.82	-29743.9	0.000000	0.000000	6.172822	0.034944	NaN	0.000000	0.001574	0.001856	28.0816	0.147534	0.001959	75.3188	84.6216	15.0213	-0.055222	0.170639	-1.006377	-1.007798	0.034944	75.3188	-1.006725	-2.794503E+13	-1.250440E-15	NaN
456	1.000000	0.182035	7.36952e+06	-54289.1	1005.82	-29743.9	0.000000	0.000000	6.182793	-0.046698	NaN	0.000000	0.001542	0.001847	28.0818	0.048017	0.001946	24.6776	-40.7858	-162.794	-0.078319	0.180763	-0.996403	-0.997675	-0.046698	24.6776	-0.994983	-1.941882E+13	2.404774E-15	NaN
456	1.000000	0.192038	7.36952e+06	-54289.1	1005.82	-29743.9	0.000000	0.000000	6.192795	-0.074734	NaN	0.000000	0.001575	0.001771	28.082	0.082255	0.002090	39.36	145.386	13.4352	-0.099031	0.190703	-0.986400	-0.987734	-0.074734	39.36	-0.984976	-1.423761E+13	5.249020E-15	NaN
456	1.000000	0.202014	7.36952e+06	-54289.1	1005.82	-29743.9	0.000000	0.000000	6.202775	-0.008561	NaN	0.000000	0.001576	0.001740	28.0814	0.181250	0.002015	89.9513	102.532	-162.975	0.038375	0.200695	-0.976423	-0.977743	-0.008561	89.9513	-0.976351	-1.089561E+13	7.857347E-16	NaN
456	1.000000	0.212029	7.36952e+06	-54289.1	1005.82	-29743.9	0.000000	0.000000	6.212789	-0.017159	NaN	0.000000	0.001572	0.001760	28.0807	0.050889	0.002016	25.239	-89.0965	12.8642	-0.110282	0.210688	-0.966409	-0.967749	-0.017159	25.239	-0.965899	-7.877451E+12	2.178205E-15	NaN
456	1.000000	0.222028	7.36952e+06	-54289.1	1005.82	-29743.9	0.000000	0.000000	6.222788	-0.018265	NaN	0.000000	0.001569	0.001755	28.0808	0.044632	0.002036	21.9195	-98.958	-168.259	0.003227	0.220762	-0.956409	-0.957676	-0.018265	21.9195	-0.955784	-5.754782E+12	3.173956E-15	NaN
456	1.000000	0.232075	7.36952e+06	-54289.1	1005.82	-29743.9	0.000000	0.000000	6.232831	-0.112275	NaN	0.000000	0.001587	0.001770	28.0807	0.053601	0.001925	27.8388	178.455	9.944397	-0.043317	0.230680	-0.946363	-0.947757	-0.112275	27.8388	-0.943338	-3.909912E+12	2.871543E-14	NaN
456	1.000000	0.242087	7.36952e+06	-54289.1	1005.82	-29743.9	0.000000	0.000000	6.242850	0.031088	NaN	0.000000	0.001535	0.001781	28.0805	0.072233	0.002019	35.7838	-64.3875	-165.167	0.076383	0.240738	-0.936350	-0.937699	0.031088	35.7838	-0.937001	-3.211286E+12	-9.680980E-15	NaN
456	1.000000	0.252071	7.36952e+06	-54289.1	1005.82	-29743.9	0.000000	0.000000	6.252830	-0.046395	NaN	0.000000	0.001542	0.001750	28.0805	0.063701	0.002005	31.769	143.968	12.2197	0.025756	0.250761	-0.926366	-0.927676	-0.046395	31.769	-0.925270	-2.230280E+12	2.080216E-14	NaN
456	1.000000	0.262060	7.36952e+06	-54289.1	1005.82	-29743.9	0.000000	0.000000	6.262824	0.092465	NaN	0.000000	0.001565	0.001748	28.0807	0.013617	0.001924	7.077822	102.677	-164.125	0.148996	0.260753	-0.916378	-0.917684	0.092465	7.077822	-0.926176	-2.293926E+12	-4.030882E-14	NaN
456	1.000000	0.272085	7.36952e+06	-54289.1	1005.82	-29743.9	0.000000	0.000000	6.272846	0.001092	NaN	0.000000	0.001518	0.001761	28.0806	0.159105	0.001876	84.8286	161.694	13.2174	0.009588	0.270771	-0.906352	-0.907666	0.001092	84.8286	-0.906362	-1.238848E+12	-8.811339E-16	NaN
456	1.000000	0.282099	7.36952e+06	-54289.1	1005.82	-29743.9	0.000000	0.000000	6.282861	0.027344	NaN	0.000000	0.001553	0.001735	28.0806	0.090694	0.002081	43.5823	-15.5496	-165.559	-0.011347	0.280819	-0.896339	-0.897618	0.027344	43.5823	-0.896809	-9.203362E+11	-2.971034E-14	NaN
456	1.000000	0.292099	7.36952e+06	-54289.1	1005.82	-29743.9	0.000000	0.000000	6.292860	-0.007654	NaN	0.000000	0.001495	0.001695	28.0806	0.045794	0.002190	20.9066	46.4424	12.7639	-0.031845	0.290727	-0.886338	-0.887711	-0.007654	20.9066	-0.886063	-6.587137E+11	1.161972E-14	NaN
456	1.000000	0.302088	7.36952e+06	-54289.1	1005.82	-29743.9	0.000000	0.000000	6.302849	0.009103	NaN	0.000000	0.001532	0.001733	28.0801	0.105677	0.002029	52.0762	145.655	-161.626	0.014519	0.300728	-0.876350	-0.877709	0.009103	52.0762	-0.876481	-4.887769E+11	-1.862352E-14	NaN
456	1.000000	0.312086	7.36952e+06	-54289.1	1005.82	-29743.9	0.000000	0.000000	6.312848	0.029996	NaN	0.000000	0.001544	0.001728	28.0801	0.075860	0.001992	38.0909	-51.6963	14.8144	0.041051	0.310746	-0.866352	-0.867691	0.029996	38.0909	-0.866942	-3.631391E+11	-8.260226E-14	NaN
456	1.000000	0.322121	7.36952e+06	-54289.1	1005.82	-29743.9	0.000000	0.000000	6.322879	-0.065868	NaN	0.000000	0.001531	0.001752	28.0802	0.060474	0.001915	31.5713	9.010133	-164.656	-0.048543	0.320779	-0.856316	-0.857658	-0.065868	31.5713	-0.854751	-2.483531E+11	2.652192E-13	NaN
456	1.000000	0.332091	7.36952e+06	-54289.1	1005.82	-29743.9	0.000000	0.000000	6.332849	-0.067781	NaN	0.000000	0.001540	0.001690	28.0806	0.114762	0.002075	55.3104	16.6048	13.2981	-0.088249	0.330788	-0.846346	-0.847649	-0.067781	55.3104	-0.845427	-1.856981E+11	3.650070E-13	NaN
456	1.000000	0.342123	7.36952e+06	-54289.1	1005.82	-29743.9	0.000000	0.000000	6.342884	-0.013080	NaN	0.000000	0.001534	0.001764	28.0816	0.098568	0.002102	46.8845	-40.0645	-164.397	-0.028685	0.340799	-0.836314	-0.837638	-0.013080	46.8845	-0.836104	-1.388395E+11	9.421297E-14	NaN
456	1.000000	0.352128	7.36952e+06	-54289.1	1005.82	-29743.9	0.000000	0.000000	6.352888	-0.004396	NaN	0.000000	0.001565	0.001715	28.0818	0.058344	0.002062	28.2926	160.64	14.7003	0.025071	0.350722	-0.826310	-0.827715	-0.004396	28.2926	-0.826193	-1.019016E+11	4.314185E-14	NaN
456	1.000000	0.362158	7.36952e+06	-54289.1	1005.82	-29743.9	0.000000	0.000000	6.362917	-0.041229	NaN	0.000000	0.001527	0.001696	28.0819	0.082786	0.002040	40.5893	46.9638	-166.444	-0.002956	0.360823	-0.816280	-0.817614	-0.041229	40.5893	-0.815518	-7.301700E+10	5.646428E-13	NaN
456	1.000000	0.372090	7.36952e+06	-54289.1	1005.82	-29743.9	0.000000	0.000000	6.372849	-0.047400	NaN	0.000000	0.001541	0.001744	28.0819	0.084346	0.002129	39.6206	-113.269	13.9784	0.035074	0.370786	-0.806347	-0.807652	-0.047400	39.6206	-0.805450	-5.331310E+10	8.890953E-13	NaN
456	1.000000	0.382139	7.36952e+06	-54289.1	1005.82	-29743.9	0.000000	0.000000	6.382900	0.013901	NaN	0.000000	0.001518	0.001726	28.0816	0.060534	0.001961	30.871	-153.492	-164.597	0.017534	0.380781	-0.796299	-0.797656	0.013901	30.871	-0.796636	-4.047616E+10	-3.434489E-13	NaN
456	1.000000	0.392128	7.36952e+06	-54289.1	1005.82	-29743.9	0.000000	0.000000	6.392887	-0.021750	NaN	0.000000	0.001577	0.001718	28.0817	0.045841	0.002024	22.6522	28.3655	16.2385	-0.062050	0.390803	-0.786310	-0.787635	-0.021750	22.6522	-0.785590	-2.865343E+10	7.590826E-13	NaN
456	1.000000	0.402122	7.36952e+06	-54289.1	1005.82	-29743.9	0.000000	0.000000	6.402880	-0.063894	NaN	0.000000	0.001543	0.001727	28.0818	0.031922	0.002166	14.7364	58.4398	-166.161	-0.120625	0.400769	-0.776316	-0.777668	-0.063894	14.7364	-0.773064	-1.936230E+10	3.299937E-12	NaN
456	1.000000	0.412151	7.36952e+06	-54289.1	1005.82	-29743.9	0.000000	0.000000	6.412915	0.070763	NaN	0.000000	0.001513	0.001759	28.0819	0.042100	0.001910	22.0402	-112.412	17.3041	0.027349	0.410808	-0.766286	-0.767630	0.070763	22.0402	-0.768694	-1.688680E+10	-4.190415E-12	NaN
456	1.000000	0.422143	7.36952e+06	-54289.1	1005.82	-29743.9	0.000000	0.000000	6.422901	-0.065207	NaN	0.000000	0.001583	0.001703	28.0817	0.052376	0.002027	25.8334	-165.974	-164.251	-0.080016	0.420844	-0.756294	-0.757593	-0.065207	25.8334	-0.754401	-1.079242E+10	6.041970E-12	NaN
456	1.000000	0.432141	7.36952e+06	-54289.1	1005.82	-29743.9	0.000000	0.000000	6.432900	-0.025564	NaN	0.000000	0.001516	0.001710	28.0818	0.043605	0.001946	22.4046	148.088	13.5729	-0.051023	0.430801	-0.746297	-0.747636	-0.025564	22.4046	-0.745441	-8.149881E+9	3.136709E-12	NaN
456	1.000000	0.442126	7.36952e+06	-54289.1	1005.82	-29743.9	0.000000	0.000000	6.442883	-0.083835	NaN	0.000000	0.001507	0.001731	28.0819	0.051115	0.002039	25.066	-141.626	-165.122	-0.077417	0.440846	-0.736311	-0.737592	-0.083835	25.066	-0.733803	-5.657612E+9	1.481812E-11	NaN
456	1.000000	0.452168	7.36952e+06	-54289.1	1005.82	-29743.9	0.000000	0.000000	6.452926	-0.068256	NaN	0.000000	0.001575	0.001714	28.0816	0.015591	0.001930	8.076525	53.1374	12.1599	-0.046181	0.450828	-0.726269	-0.727609	-0.068256	8.076525	-0.719931	-3.660396E+9	1.864724E-11	NaN
456	1.000000	0.462137	7.36952e+06	-54289.1	1005.82	-29743.9	0.000000	0.000000	6.462899	0.038097	NaN	0.000000	0.001555	0.001731	28.0816	0.156038	0.001907	81.8412	54.9798	-163.037	-0.015181	0.460828	-0.716301	-0.717609	0.038097	81.8412	-0.716650	-3.301995E+9	-1.153767E-11	NaN
456	1.000000	0.472165	7.36952e+06	-54289.1	1005.82	-29743.9	0.000000	0.000000	6.472925	-0.004228	NaN	0.000000	0.001565	0.001737	28.0816	0.040001	0.001956	20.4493	-123.964	15.9688	-0.054688	0.470849	-0.706272	-0.707588	-0.004228	20.4493	-0.706117	-2.371673E+9	1.782649E-12	NaN
456	1.000000	0.482184	7.36952e+06	-54289.1	1005.82	-29743.9	0.000000	0.000000	6.482945	0.011585	NaN	0.000000	0.001525	0.001727	28.0805	0.061935	0.002025	30.5797	10.1285	-165.623	-0.007114	0.480887	-0.696253	-0.697550	0.011585	30.5797	-0.696537	-1.754840E+9	-6.601499E-12	NaN
456	1.000000	0.492167	7.36952e+06	-54289.1	1005.82	-29743.9	0.000000	0.000000	6.492928	0.009043	NaN	0.000000	0.001550	0.001671	28.0804	0.112800	0.001915	58.916	-123.617	10.8583	0.030387	0.490817	-0.686271	-0.687621	0.009043	58.916	-0.686386	-1.275025E+9	-7.092736E-12	NaN
456	1.000000	0.502202	7.36952e+06	-54289.1	1005.82	-29743.9	0.000000	0.000000	6.502963	0.008236	NaN	0.000000	0.001537	0.001665	28.0807	0.038372	0.001909	20.1036	-90.1484	-164.095	0.005574	0.500833	-0.676235	-0.677605	0.008236	20.1036	-0.676543	-9.352210E+8	-8.806244E-12	NaN
456	1.000000	0.512152	7.36952e+06	-54289.1	1005.82	-29743.9	0.000000	0.000000	6.512911	-0.036344	NaN	0.000000	0.001566	0.001688	28.0808	0.059940	0.001969	30.4371	-108.311	14.544	-0.096826	0.510774	-0.666285	-0.667663	-0.036344	30.4371	-0.665389	-6.580759E+8	5.522720E-11	NaN
456	1.000000	0.522171	7.36952e+06	-54289.1	1005.82	-29743.9	0.000000	0.000000	6.522932	0.021140	NaN	0.000000	0.001539	0.001723	28.0803	0.076994	0.002012	38.2703	-172.578	-167.403	0.031031	0.520900	-0.656267	-0.657537	0.021140	38.2703	-0.656681	-5.000336E+8	-4.227617E-11	NaN
456	1.000000	0.532202	7.36952e+06	-54289.1	1005.82	-29743.9	0.000000	0.000000	6.532962	-0.038174	NaN	0.000000	0.001553	0.001721	28.0801	0.072875	0.001998	36.4728	169.717	15.332	0.033530	0.530777	-0.646235	-0.647660	-0.038174	36.4728	-0.645450	-3.507909E+8	1.088226E-10	NaN
456	1.000000	0.542196	7.36952e+06	-54289.1	1005.82	-29743.9	0.000000	0.000000	6.542956	-0.035292	NaN	0.000000	0.001551	0.001726	28.0803	0.084670	0.001895	44.6817	-6.490136	-165.289	-0.040484	0.540895	-0.636241	-0.637543	-0.035292	44.6817	-0.635648	-2.573789E+8	1.371222E-10	NaN
456	1.000000	0.552169	7.36952e+06	-54289.1	1005.82	-29743.9	0.000000	0.000000	6.552928	-0.033811	NaN	0.000000	0.001543	0.001722	28.0803	0.094478	0.002071	45.6257	113.164	14.6267	-0.023764	0.550869	-0.626268	-0.627568	-0.033811	45.6257	-0.625713	-1.879904E+8	1.798554E-10	NaN
456	1.000000	0.562161	7.36952e+06	-54289.1	1005.82	-29743.9	0.000000	0.000000	6.562923	0.019636	NaN	0.000000	0.001533	0.001736	28.08	0.034083	0.001933	17.6307	-15.0709	-167.354	-0.055833	0.560940	-0.616276	-0.617497	0.019636	17.6307	-0.617111	-1.431931E+8	-1.371261E-10	NaN
456	1.000000	0.572197	7.36952e+06	-54289.1	1005.82	-29743.9	0.000000	0.000000	6.572957	-0.030055	NaN	0.000000	0.001553	0.001715	28.0797	0.078051	0.001972	39.5703	-158.918	12.016	-0.012973	0.570873	-0.606240	-0.607564	-0.030055	39.5703	-0.605671	-9.966319E+7	3.015636E-10	NaN
456	1.000000	0.582214	7.36952e+06	-54289.1	1005.82	-29743.9	0.000000	0.000000	6.582974	-0.011545	NaN	0.000000	0.001566	0.001734	28.0805	0.052656	0.001949	27.0201	108.656	-167.302	-0.018136	0.580906	-0.596223	-0.597531	-0.011545	27.0201	-0.595903	-7.311696E+7	1.578932E-10	NaN
456	1.000000	0.592218	7.36952e+06	-54289.1	1005.82	-29743.9	0.000000	0.000000	6.592977	-0.051714	NaN	0.000000	0.001562	0.001749	28.0803	0.065169	0.001989	32.7707	-21.8987	14.5263	0.018573	0.590872	-0.586219	-0.587565	-0.051714	32.7707	-0.585036	-5.178509E+7	9.986323E-10	NaN
456	1.000000	0.602217	7.36952e+06	-54289.1	1005.82	-29743.9	0.000000	0.000000	6.602974	-0.077424	NaN	0.000000	0.001549	0.001727	28.0805	0.112625	0.001965	57.3013	152.617	-162.803	-0.041219	0.600926	-0.576220	-0.577511	-0.077424	57.3013	-0.575207	-3.789288E+7	2.043228E-9	NaN
456	1.000000	0.612259	7.36952e+06	-54289.1	1005.82	-29743.9	0.000000	0.000000	6.613020	0.021421	NaN	0.000000	0.001588	0.001752	28.0809	0.141048	0.001886	74.7834	-26.2315	11.8413	-0.066715	0.610842	-0.566179	-0.567595	0.021421	74.7834	-0.566393	-2.862777E+7	-7.482523E-10	NaN
456	1.000000	0.622266	7.36952e+06	-54289.1	1005.82	-29743.9	0.000000	0.000000	6.623026	-0.002529	NaN	0.000000	0.001558	0.001739	28.082	0.028901	0.002054	14.0717	-17.1178	-165.809	-0.040361	0.620939	-0.556172	-0.557498	-0.002529	14.0717	-0.556037	-2.058448E+7	1.228748E-10	NaN
456	1.000000	0.632232	7.36952e+06	-54289.1	1005.82	-29743.9	0.000000	0.000000	6.632989	-0.087443	NaN	0.000000	0.001574	0.001710	28.0814	0.057565	0.002063	27.9039	-146.993	12.6886	-0.056835	0.630855	-0.546205	-0.547583	-0.087443	27.9039	-0.543855	-1.395751E+7	6.264975E-9	NaN
456	1.000000	0.642250	7.36952e+06	-54289.1	1005.82	-29743.9	0.000000	0.000000	6.643010	-0.008795	NaN	0.000000	0.001559	0.001692	28.0817	0.062928	0.001982	31.7462	-109.286	-162.434	0.009334	0.640950	-0.536187	-0.537487	-0.008795	31.7462	-0.535979	-1.085381E+7	8.103436E-10	NaN
456	1.000000	0.652234	7.36952e+06	-54289.1	1005.82	-29743.9	0.000000	0.000000	6.652994	-0.009412	NaN	0.000000	0.001626	0.001673	28.0815	0.053467	0.002117	25.2511	-143.203	15.7571	-0.017096	0.650886	-0.526203	-0.527551	-0.009412	25.2511	-0.525924	-7.86948e+06	1.196070E-9	NaN
456	1.000000	0.662231	7.36952e+06	-54289.1	1005.82	-29743.9	0.000000	0.000000	6.662990	-0.050825	NaN	0.000000	0.001571	0.001716	28.0817	0.038738	0.001988	19.4842	-70.8616	-171.234	-0.049751	0.661010	-0.516206	-0.517427	-0.050825	19.4842	-0.514250	-5.41489e+06	9.386144E-9	NaN
456	1.000000	0.672261	7.36952e+06	-54289.1	1005.82	-29743.9	0.000000	0.000000	6.673023	0.023593	NaN	0.000000	0.001550	0.001696	28.0814	0.045182	0.002052	22.0168	-50.9206	14.5197	0.082089	0.670886	-0.506176	-0.507551	0.023593	22.0168	-0.506980	-4.28879e+06	-5.501134E-9	NaN
456	1.000000	0.682239	7.36952e+06	-54289.1	1005.82	-29743.9	0.000000	0.000000	6.682999	-0.018667	NaN	0.000000	0.001577	0.001671	28.0812	0.108131	0.001961	55.1381	97.9913	-162.231	-0.042027	0.680944	-0.496198	-0.497493	-0.018667	55.1381	-0.495944	-3.00897e+06	6.203625E-9	NaN
456	1.000000	0.692265	7.36952e+06	-54289.1	1005.82	-29743.9	0.000000	0.000000	6.693027	0.043678	NaN	0.000000	0.001535	0.001711	28.0816	0.042570	0.001927	22.0966	-105.242	14.4603	0.040456	0.690899	-0.486173	-0.487538	0.043678	22.0966	-0.487655	-2.30473e+06	-1.895158E-8	NaN
456	1.000000	0.702275	7.36952e+06	-54289.1	1005.82	-29743.9	0.000000	0.000000	6.703036	0.001937	NaN	0.000000	0.001560	0.001746	28.0814	0.105774	0.001955	54.1077	-172.09	-164.645	-0.013985	0.700946	-0.476162	-0.477492	0.001937	54.1077	-0.476189	-1.59278e+06	-1.216257E-9	NaN
456	1.000000	0.712249	7.36952e+06	-54289.1	1005.82	-29743.9	0.000000	0.000000	6.713008	-0.040148	NaN	0.000000	0.001593	0.001700	28.0815	0.040276	0.002059	19.5579	-124.844	13.4535	-0.002278	0.710912	-0.466188	-0.467526	-0.040148	19.5579	-0.464649	-1.09728e+06	3.658836E-8	NaN
456	1.000000	0.722258	7.36952e+06	-54289.1	1005.82	-29743.9	0.000000	0.000000	6.723020	0.035545	NaN	0.000000	0.001590	0.001737	28.0817	0.055259	0.001862	29.6702	39.9431	-168.087	-0.030624	0.720955	-0.456180	-0.457482	0.035545	29.6702	-0.457078	-858902	-4.138446E-8	NaN
456	1.000000	0.732282	7.36952e+06	-54289.1	1005.82	-29743.9	0.000000	0.000000	6.733041	-0.036969	NaN	0.000000	0.001571	0.001748	28.0818	0.067465	0.002054	32.8503	174.657	15.8262	-0.030255	0.730897	-0.446155	-0.447540	-0.036969	32.8503	-0.445311	-586515	6.303173E-8	NaN
456	1.000000	0.742305	7.36952e+06	-54289.1	1005.82	-29743.9	0.000000	0.000000	6.743065	-0.009699	NaN	0.000000	0.001588	0.001741	28.0816	0.099224	0.002006	49.4539	61.9861	-168.254	-0.006268	0.741000	-0.436132	-0.437437	-0.009699	49.4539	-0.435985	-433186	2.238982E-8	NaN
456	1.000000	0.752297	7.36952e+06	-54289.1	1005.82	-29743.9	0.000000	0.000000	6.753059	0.010663	NaN	0.000000	0.001591	0.001741	28.0803	0.035369	0.002021	17.503	-104.575	16.7738	0.032956	0.750895	-0.426140	-0.427542	0.010663	17.503	-0.426597	-319078	-3.341758E-8	NaN
456	1.000000	0.762291	7.36952e+06	-54289.1	1005.82	-29743.9	0.000000	0.000000	6.763052	-0.009409	NaN	0.000000	0.001572	0.001749	28.0805	0.073039	0.001908	38.2878	-84.8735	-164.436	-0.037180	0.761013	-0.416146	-0.417424	-0.009409	38.2878	-0.415962	-225480	4.172877E-8	NaN
456	1.000000	0.772280	7.36952e+06	-54289.1	1005.82	-29743.9	0.000000	0.000000	6.773040	-0.025024	NaN	0.000000	0.001564	0.001738	28.0803	0.043874	0.001948	22.5191	-34.4589	16.5576	-0.036007	0.771002	-0.406157	-0.407435	-0.025024	22.5191	-0.405324	-159169	1.572187E-7	NaN
456	1.000000	0.782294	7.36952e+06	-54289.1	1005.82	-29743.9	0.000000	0.000000	6.783053	-0.042581	NaN	0.000000	0.001570	0.001745	28.0804	0.127149	0.001929	65.9099	-98.4686	-165.796	-0.010838	0.781030	-0.396143	-0.397407	-0.042581	65.9099	-0.395659	-115888	3.674344E-7	NaN
456	1.000000	0.792305	7.36952e+06	-54289.1	1005.82	-29743.9	0.000000	0.000000	6.793066	0.015638	NaN	0.000000	0.001584	0.001770	28.0804	0.051133	0.002047	24.9787	-110.663	13.679	0.007756	0.790929	-0.386133	-0.387508	0.015638	24.9787	-0.386602	-86007.6	-1.818173E-7	NaN
456	1.000000	0.802299	7.36952e+06	-54289.1	1005.82	-29743.9	0.000000	0.000000	6.803060	-0.001993	NaN	0.000000	0.001591	0.001727	28.0804	0.125329	0.001930	64.941	-143.734	-166.236	0.001993	0.801016	-0.376138	-0.377421	-0.001993	64.941	-0.376115	-60827.3	3.277092E-8	NaN
456	1.000000	0.812299	7.36952e+06	-54289.1	1005.82	-29743.9	0.000000	0.000000	6.813060	0.001815	NaN	0.000000	0.001546	0.001736	28.0803	0.092618	0.001958	47.298	-137.333	16.3453	0.038539	0.811016	-0.366138	-0.367421	0.001815	47.298	-0.366167	-43741.2	-4.149800E-8	NaN
456	1.000000	0.822305	7.36952e+06	-54289.1	1005.82	-29743.9	0.000000	0.000000	6.823069	0.070078	NaN	0.000000	0.001601	0.001745	28.0803	0.051814	0.002154	24.055	-67.4705	-166.259	0.044920	0.821019	-0.356132	-0.357418	0.070078	24.055	-0.358317	-33690.7	-2.080046E-6	NaN
456	1.000000	0.832301	7.36952e+06	-54289.1	1005.82	-29743.9	0.000000	0.000000	6.833062	-0.004221	NaN	0.000000	0.001639	0.001756	28.0807	0.138292	0.001932	71.5886	-34.1698	10.6658	0.000343	0.830899	-0.346136	-0.347539	-0.004221	71.5886	-0.346092	-22399.2	1.884513E-7	NaN
456	1.000000	0.842324	7.36952e+06	-54289.1	1005.82	-29743.9	0.000000	0.000000	6.843083	-0.051478	NaN	0.000000	0.001624	0.001721	28.0804	0.081110	0.001943	41.7495	-157.269	-168.186	-0.025316	0.841071	-0.336113	-0.337366	-0.051478	41.7495	-0.335189	-15536.1	3.313452E-6	NaN
456	1.000000	0.852337	7.36952e+06	-54289.1	1005.82	-29743.9	0.000000	0.000000	6.853098	0.006554	NaN	0.000000	0.001626	0.001768	28.0807	0.055774	0.002053	27.169	148.486	15.0626	0.010260	0.851006	-0.326100	-0.327431	0.006554	27.169	-0.326281	-11506.3	-5.695693E-7	NaN
456	1.000000	0.862315	7.36952e+06	-54289.1	1005.82	-29743.9	0.000000	0.000000	6.863074	-0.057506	NaN	0.000000	0.001658	0.001705	28.0805	0.010202	0.002073	4.922467	-105.793	-165.736	-0.078255	0.861015	-0.316122	-0.317423	-0.057506	4.922467	-0.307360	-6052.9	9.500496E-6	NaN
456	1.000000	0.872326	7.36952e+06	-54289.1	1005.82	-29743.9	0.000000	0.000000	6.873086	-0.015896	NaN	0.000000	0.001638	0.001710	28.0807	0.033408	0.002025	16.4943	-158.319	15.367	0.025783	0.870965	-0.306112	-0.307472	-0.015896	16.4943	-0.305389	-5658.79	2.809117E-6	NaN
456	1.000000	0.882354	7.36952e+06	-54289.1	1005.82	-29743.9	0.000000	0.000000	6.883116	0.033195	NaN	0.000000	0.001638	0.001737	28.0802	0.010995	0.001979	5.557192	4.857148	-166.692	0.014597	0.881043	-0.296083	-0.297394	0.033195	5.557192	-0.300563	-4797.57	-6.919163E-6	NaN
456	1.000000	0.892336	7.36952e+06	-54289.1	1005.82	-29743.9	0.000000	0.000000	6.893097	0.021938	NaN	0.000000	0.001604	0.001724	28.0818	0.112577	0.002004	56.1763	-146.721	14.8957	-0.007481	0.890926	-0.286102	-0.287512	0.021938	56.1763	-0.286395	-2945.92	-7.446923E-6	NaN
456	1.000000	0.902336	7.36952e+06	-54289.1	1005.82	-29743.9	0.000000	0.000000	6.903097	0.001102	NaN	0.000000	0.001575	0.001706	28.0816	0.036556	0.001959	18.6588	109.637	-168.556	0.007247	0.901043	-0.276101	-0.277394	0.001102	18.6588	-0.276146	-2064.16	-5.338758E-7	NaN
456	1.000000	0.912322	7.36952e+06	-54289.1	1005.82	-29743.9	0.000000	0.000000	6.913083	0.010543	NaN	0.000000	0.001558	0.001735	28.0819	0.062897	0.002068	30.4098	-98.2144	11.7891	0.017829	0.910948	-0.266115	-0.267489	0.010543	30.4098	-0.266375	-1466.77	-7.187900E-6	NaN
456	1.000000	0.922337	7.36952e+06	-54289.1	1005.82	-29743.9	0.000000	0.000000	6.923097	-0.010195	NaN	0.000000	0.001535	0.001753	28.0816	0.051946	0.002012	25.819	-82.4666	-166.197	0.013520	0.921051	-0.256101	-0.257386	-0.010195	25.819	-0.255805	-1010.41	1.009006E-5	NaN
456	1.000000	0.932369	7.36952e+06	-54289.1	1005.82	-29743.9	0.000000	0.000000	6.933129	-0.000211	NaN	0.000000	0.001560	0.001727	28.0819	0.058364	0.002013	28.9939	7.497732	16.4775	-0.062799	0.930954	-0.246069	-0.247483	-0.000211	28.9939	-0.246063	-714.442	2.948726E-7	NaN
456	1.000000	0.942365	7.36952e+06	-54289.1	1005.82	-29743.9	0.000000	0.000000	6.943129	0.081105	NaN	0.000000	0.001550	0.001723	28.082	0.064989	0.001942	33.4581	-174.321	-167.672	0.067445	0.941033	-0.236072	-0.237405	0.081105	33.4581	-0.237890	-532.798	-0.000152	NaN
456	1.000000	0.952350	7.36952e+06	-54289.1	1005.82	-29743.9	0.000000	0.000000	6.953109	-0.033847	NaN	0.000000	0.001555	0.001732	28.0816	0.136651	0.002012	67.9123	-108.049	13.9087	-0.029483	0.951014	-0.226088	-0.227423	-0.033847	67.9123	-0.225714	-342.504	9.882268E-5	NaN
456	1.000000	0.962359	7.36952e+06	-54289.1	1005.82	-29743.9	0.000000	0.000000	6.963119	-0.041303	NaN	0.000000	0.001574	0.001740	28.0813	0.067791	0.001865	36.3575	125.495	-162.356	-0.056818	0.961078	-0.216078	-0.217359	-0.041303	36.3575	-0.215226	-232.887	0.000177	NaN
456	1.000000	0.972390	7.36952e+06	-54289.1	1005.82	-29743.9	0.000000	0.000000	6.973150	-0.025924	NaN	0.000000	0.001576	0.001712	28.0816	0.089184	0.002097	42.5285	71.4956	14.7186	-0.002481	0.970990	-0.206047	-0.207448	-0.025924	42.5285	-0.205590	-162.62	0.000159	NaN
456	1.000000	0.982385	7.36952e+06	-54289.1	1005.82	-29743.9	0.000000	0.000000	6.983146	0.010538	NaN	0.000000	0.001544	0.001694	28.0818	0.051410	0.002108	24.3853	-41.4339	-165.701	-0.078696	0.981021	-0.196052	-0.197416	0.010538	24.3853	-0.196376	-114.808	-9.178915E-5	NaN
456	1.000000	0.992411	7.36952e+06	-54289.1	1005.82	-29743.9	0.000000	0.000000	6.993172	-0.007011	NaN	0.000000	0.001511	0.001702	28.0815	0.080854	0.001995	40.5183	-28.5427	16.6127	-0.036660	0.991041	-0.186026	-0.187397	-0.007011	40.5183	-0.185896	-76.7754	9.131543E-5	NaN
456	1.000000	1.002398	7.36952e+06	-54289.1	1005.82	-29743.9	0.000000	0.000000	7.003156	-0.061467	NaN	0.000000	0.001528	0.001727	28.0817	0.035133	0.001980	17.7471	103.78	-164.862	-0.030771	1.001053	-0.176039	-0.177384	-0.061467	17.7471	-0.173441	-47.1145	0.001305	NaN
456	1.000000	1.012410	7.36952e+06	-54289.1	1005.82	-29743.9	0.000000	0.000000	7.013168	-0.077008	NaN	0.000000	0.001591	0.001672	28.0816	0.074787	0.001996	37.462	78.9567	13.6473	-0.066538	1.011056	-0.166027	-0.167382	-0.077008	37.462	-0.164485	-32.905	0.002340	NaN
456	1.000000	1.022360	7.36952e+06	-54289.1	1005.82	-29743.9	0.000000	0.000000	7.023122	0.027706	NaN	0.000000	0.001545	0.001733	28.0808	0.061779	0.001914	32.2762	122.551	-163.243	0.023425	1.021071	-0.156078	-0.157366	0.027706	32.2762	-0.156721	-23.96	-0.001156	NaN
456	1.000000	1.032378	7.36952e+06	-54289.1	1005.82	-29743.9	0.000000	0.000000	7.033139	0.005690	NaN	0.000000	0.001537	0.001731	28.0803	0.094854	0.002135	44.4184	-61.9224	13.1191	-0.037976	1.031015	-0.146059	-0.147422	0.005690	44.4184	-0.146155	-15.3994	-0.000369	NaN
456	1.000000	1.042384	7.36952e+06	-54289.1	1005.82	-29743.9	0.000000	0.000000	7.043147	0.062844	NaN	0.000000	0.001541	0.001729	28.0802	0.085054	0.001987	42.7966	-73.0481	-168.456	-0.011026	1.041128	-0.136054	-0.137309	0.062844	42.7966	-0.137155	-10.454	-0.006011	NaN
456	1.000000	1.052397	7.36952e+06	-54289.1	1005.82	-29743.9	0.000000	0.000000	7.053157	-0.028062	NaN	0.000000	0.001495	0.001711	28.0804	0.065779	0.002084	31.5623	-1.075003	14.4331	-0.102759	1.051064	-0.126040	-0.127374	-0.028062	31.5623	-0.125373	-6.185546	0.004537	NaN
456	1.000000	1.062410	7.36952e+06	-54289.1	1005.82	-29743.9	0.000000	0.000000	7.063173	0.049255	NaN	0.000000	0.001550	0.001715	28.0804	0.048499	0.001933	25.0943	-102.324	-166.305	0.075427	1.061097	-0.116028	-0.117340	0.049255	25.0943	-0.117500	-4.298885	-0.011458	NaN
456	1.000000	1.072395	7.36952e+06	-54289.1	1005.82	-29743.9	0.000000	0.000000	7.073156	-0.010677	NaN	0.000000	0.001552	0.001719	28.0804	0.107110	0.002144	49.9554	18.3577	15.9196	-0.001938	1.071086	-0.106042	-0.107352	-0.010677	49.9554	-0.105881	-2.455689	0.004348	NaN
456	1.000000	1.082428	7.36952e+06	-54289.1	1005.82	-29743.9	0.000000	0.000000	7.083189	-0.010599	NaN	0.000000	0.001580	0.001711	28.0804	0.037971	0.001998	19.0018	-74.9157	-166.205	0.037008	1.081087	-0.096009	-0.097351	-0.010599	19.0018	-0.095591	-1.454951	0.007285	NaN
456	1.000000	1.092399	7.36952e+06	-54289.1	1005.82	-29743.9	0.000000	0.000000	7.093157	-0.077235	NaN	0.000000	0.001504	0.001692	28.0804	0.106545	0.002033	52.42	174.976	11.7692	-0.100340	1.091024	-0.086038	-0.087413	-0.077235	52.42	-0.084933	-0.818587	0.094351	NaN
456	1.000000	1.102417	7.36952e+06	-54289.1	1005.82	-29743.9	0.000000	0.000000	7.103177	-0.018682	NaN	0.000000	0.001538	0.001719	28.0803	0.076921	0.002071	37.1417	-51.4442	-166.106	-0.012758	1.101154	-0.076020	-0.077283	-0.018682	37.1417	-0.075643	-0.479862	0.038933	NaN
456	1.000000	1.112426	7.36952e+06	-54289.1	1005.82	-29743.9	0.000000	0.000000	7.113186	-0.000227	NaN	0.000000	0.001523	0.001717	28.0802	0.040268	0.001845	21.8234	-103.104	14.3539	0.027044	1.111065	-0.066012	-0.067372	-0.000227	21.8234	-0.066004	-0.265659	0.000853	NaN
456	1.000000	1.122435	7.36952e+06	-54289.1	1005.82	-29743.9	0.000000	0.000000	7.123196	-0.007376	NaN	0.000000	0.001515	0.001685	28.0804	0.055194	0.002077	26.5763	51.2559	-164.026	-0.024990	1.121121	-0.056002	-0.057316	-0.007376	26.5763	-0.055794	-0.135909	0.054269	NaN
456	1.000000	1.132427	7.36952e+06	-54289.1	1005.82	-29743.9	0.000000	0.000000	7.133187	-0.010583	NaN	0.000000	0.001529	0.001730	28.0802	0.094583	0.002162	43.757	-79.4271	13.1116	-0.015028	1.131104	-0.046010	-0.047334	-0.010583	43.757	-0.045829	-0.068129	0.155344	NaN
456	1.000000	1.142429	7.36952e+06	-54289.1	1005.82	-29743.9	0.000000	0.000000	7.143188	-0.049345	NaN	0.000000	0.001552	0.001755	28.0804	0.094287	0.001979	47.6371	15.0451	-165.452	-0.031229	1.141105	-0.036008	-0.037332	-0.049345	47.6371	-0.035231	-0.032531	1.516869	NaN
456	1.000000	1.152452	7.36952e+06	-54289.1	1005.82	-29743.9	0.000000	0.000000	7.153210	-0.087062	NaN	0.000000	0.001540	0.001726	28.0802	0.004027	0.001888	2.133013	-134.923	13.2795	-0.009181	1.151070	-0.025985	-0.027367	-0.087062	2.133013	0.004627	0.003796	-22.9357	31.6307
456	1.000000	1.162456	7.36952e+06	-54289.1	1005.82	-29743.9	0.000000	0.000000	7.163218	0.048557	NaN	0.000000	0.001520	0.001759	28.0821	0.106596	0.002036	52.3461	-41.5338	-168.546	0.064051	1.161096	-0.015982	-0.017342	0.048557	52.3461	-0.016677	-0.010306	-4.711724	NaN
456	1.000000	1.172479	7.36952e+06	-54289.1	1005.82	-29743.9	0.000000	0.000000	7.173239	-0.007654	NaN	0.000000	0.001534	0.001738	28.0815	0.075929	0.002000	37.973	1.116610	13.0922	0.031611	1.171081	-0.005958	-0.007357	-0.007654	37.973	-0.005807	-0.003918	1.953405	NaN
456	1.000000	1.182427	7.36952e+06	-54289.1	1005.82	-29743.9	0.000000	0.000000	7.183259	1.732503	NaN	0.000000	0.001507	0.001763	28.0819	2.690885	0.001890	1423.87	8.785608	-168.15	0.682336	1.181120	0.003990	0.002683	1.732503	1423.87	0.003077	0.002445	708.63	26309.7
456	2.000000	1.189602	7.36952e+06	-54289.1	1005.82	-29743.9	0.000000	0.000000	7.190749	9.409817	NaN	0.000000	0.001492	0.001740	28.0816	9.537326	0.001606	5939.68	5.805154	8.479452	8.362693	1.189245	0.011164	0.010808	9.409817	5939.68	0.009976	0.009155	1027.82	56715.9
456	2.000000	1.192069	7.36952e+06	-54289.1	1005.82	-29743.9	0.000000	0.000000	7.193319	11.8954	NaN	0.000000	0.001527	0.001743	28.0824	12.4552	0.001785	6978.75	9.191010	-176.221	11.8428	1.191820	0.013632	0.013382	11.8954	6978.75	0.012354	0.011916	998.242	58408.8
456	2.000000	1.194569	7.36952e+06	-54289.1	1005.82	-29743.9	0.000000	0.000000	7.196032	17.0832	NaN	0.000000	0.001478	0.001698	28.0813	15.0458	0.001704	8831.91	7.926658	5.181346	16.6218	1.194226	0.016131	0.015788	17.0832	8831.91	0.014681	0.014862	1149.45	66189.4
456	2.000000	1.197044	7.36952e+06	-54289.1	1005.82	-29743.9	0.000000	0.000000	7.198657	20.7085	NaN	0.000000	0.001532	0.001692	28.0822	18.0675	0.001697	10646.1	6.002430	-176.682	19.819	1.196690	0.018607	0.018252	20.7085	10646.1	0.017148	0.018258	1134.23	71984.4
456	2.000000	1.199521	7.36952e+06	-54289.1	1005.82	-29743.9	0.000000	0.000000	7.201422	27.7305	NaN	0.000000	0.001533	0.001752	28.0818	20.5883	0.001856	11091.3	1.651374	8.437714	26.1224	1.199121	0.021084	0.020684	27.7305	11091.3	0.019208	0.021314	1301.07	69410.6
456	2.000000	1.202039	7.36952e+06	-54289.1	1005.82	-29743.9	0.000000	0.000000	7.204076	31.023	NaN	0.000000	0.001566	0.001753	28.0826	23.0918	0.001891	12210.8	4.633868	-175.311	30.6719	1.201694	0.023602	0.023257	31.023	12210.8	0.021696	0.025278	1227.27	70168.9
456	2.000000	1.204522	7.36952e+06	-54289.1	1005.82	-29743.9	0.000000	0.000000	7.206855	38.2317	NaN	0.000000	0.001531	0.001788	28.0816	24.9249	0.001800	13849.1	2.600335	5.818858	37.6987	1.204154	0.026085	0.025717	38.2317	13849.1	0.024014	0.029247	1307.2	73986.6
456	2.000000	1.206998	7.36952e+06	-54289.1	1005.82	-29743.9	0.000000	0.000000	7.209586	44.4102	NaN	0.000000	0.001535	0.001730	28.0823	27.373	0.001654	16549	2.090262	-177.41	42.7319	1.206680	0.028561	0.028243	44.4102	16549	0.026548	0.033892	1310.33	82128.5
456	2.000000	1.209500	7.36952e+06	-54289.1	1005.82	-29743.9	0.000000	0.000000	7.212272	48.9164	NaN	0.000000	0.001594	0.001769	28.0818	30.7458	0.001791	17163.3	6.623264	-1.589451	47.3606	1.209142	0.031062	0.030705	48.9164	17163.3	0.028925	0.038545	1269.09	79871.6
456	2.000000	1.211993	7.36952e+06	-54289.1	1005.82	-29743.9	0.000000	0.000000	7.215077	56.4913	NaN	0.000000	0.001566	0.001718	28.0821	32.0588	0.001713	18714.6	0.677342	-176.601	55.1133	1.211749	0.033555	0.033312	56.4913	18714.6	0.031292	0.043463	1299.75	82014.8
456	2.000000	1.214554	7.36952e+06	-54289.1	1005.82	-29743.9	0.000000	0.000000	7.217943	63.9166	NaN	0.000000	0.001588	0.001725	28.0816	34.633	0.001838	18839.1	6.990752	-1.790882	65.6013	1.214182	0.036116	0.035745	63.9166	18839.1	0.033572	0.048473	1318.61	78178
456	2.000000	1.216986	7.36952e+06	-54289.1	1005.82	-29743.9	0.000000	0.000000	7.220843	75.2533	NaN	0.000000	0.001571	0.001736	28.0806	36.3962	0.001808	20129.4	3.967897	-179.852	74.4746	1.216651	0.038549	0.038214	75.2533	20129.4	0.035745	0.053496	1406.72	79514.2
456	2.000000	1.219431	7.36952e+06	-54289.1	1005.82	-29743.9	0.000000	0.000000	7.223561	81.9139	NaN	0.000000	0.001579	0.001722	28.0807	39.2021	0.001866	21010.1	5.161748	-1.521037	78.6466	1.219167	0.040994	0.040730	81.9139	21010.1	0.038070	0.059135	1385.21	78936.9
456	2.000000	1.221945	7.36952e+06	-54289.1	1005.82	-29743.9	0.000000	0.000000	7.226415	90.1872	NaN	0.000000	0.001630	0.001773	28.0805	41.6622	0.001924	21659.6	3.833803	179.39	88.728	1.221670	0.043507	0.043233	90.1872	21659.6	0.040385	0.065026	1386.94	77603.2
456	2.000000	1.224484	7.36952e+06	-54289.1	1005.82	-29743.9	0.000000	0.000000	7.229489	103.185	NaN	0.000000	0.001610	0.001769	28.0803	43.1004	0.001882	22901.8	6.116143	-1.592327	101.962	1.224080	0.046047	0.045642	103.185	22901.8	0.042668	0.071104	1451.17	78468.5
456	2.000000	1.226924	7.36952e+06	-54289.1	1005.82	-29743.9	0.000000	0.000000	7.232191	109.542	NaN	0.000000	0.001588	0.001741	28.0804	45.2204	0.001791	25250.4	2.719451	179.656	106.875	1.226712	0.048487	0.048275	109.542	25250.4	0.045233	0.078251	1399.88	82470.3
456	2.000000	1.229426	7.36952e+06	-54289.1	1005.82	-29743.9	0.000000	0.000000	7.235338	125.227	NaN	0.000000	0.001646	0.001734	28.0807	48.7171	0.001854	26271.7	6.544154	-4.843187	121.848	1.229074	0.050989	0.050637	125.227	26271.7	0.047414	0.084588	1480.43	82529.1
456	2.000000	1.231999	7.36952e+06	-54289.1	1005.82	-29743.9	0.000000	0.000000	7.238166	131.428	NaN	0.000000	0.001629	0.001756	28.0806	51.2622	0.001940	26426	8.713216	174.258	130.575	1.231627	0.053562	0.053190	131.428	26426	0.049832	0.091895	1430.2	79645.2
456	2.000000	1.234454	7.36952e+06	-54289.1	1005.82	-29743.9	0.000000	0.000000	7.241197	145.413	NaN	0.000000	0.001639	0.001716	28.0804	51.6128	0.001863	27701.5	3.974633	-1.092609	143.672	1.234102	0.056017	0.055664	145.413	27701.5	0.052080	0.098951	1469.54	80457.3
456	2.000000	1.236903	7.36952e+06	-54289.1	1005.82	-29743.9	0.000000	0.000000	7.244130	157.191	NaN	0.000000	0.001618	0.001714	28.0804	53.0615	0.001659	31979.2	2.523430	177.293	153.658	1.236626	0.058466	0.058188	157.191	31979.2	0.054780	0.107757	1458.75	89005.9
456	2.000000	1.239469	7.36952e+06	-54289.1	1005.82	-29743.9	0.000000	0.000000	7.247010	164.841	NaN	0.000000	0.001644	0.001705	28.0806	57.3846	0.001754	32721.2	5.429818	-5.644680	164.3	1.239219	0.061032	0.060782	164.841	32721.2	0.057254	0.116145	1419.27	87720.9
456	2.000000	1.241923	7.36952e+06	-54289.1	1005.82	-29743.9	0.000000	0.000000	7.250117	180.706	NaN	0.000000	0.001628	0.001716	28.0804	60.0869	0.001886	31853.3	2.451154	177.696	178.143	1.241587	0.063486	0.063150	180.706	31853.3	0.059231	0.123065	1468.38	82958.5
456	2.000000	1.244499	7.36952e+06	-54289.1	1005.82	-29743.9	0.000000	0.000000	7.253237	193.94	NaN	0.000000	0.001613	0.001721	28.0804	61.0983	0.001680	36377.5	2.619921	-3.241257	192.344	1.244096	0.066061	0.065659	193.94	36377.5	0.062063	0.133310	1454.81	91028.1
456	2.000000	1.246947	7.36952e+06	-54289.1	1005.82	-29743.9	0.000000	0.000000	7.256339	209.829	NaN	0.000000	0.001603	0.001694	28.0806	64.0663	0.001903	33666.3	6.268954	173.881	208.984	1.246627	0.068510	0.068190	209.829	33666.3	0.063836	0.139920	1499.63	82229.5
456	2.000000	1.249503	7.36952e+06	-54289.1	1005.82	-29743.9	0.000000	0.000000	7.259405	222.212	NaN	0.000000	0.001609	0.001722	28.0818	67.4942	0.001812	37255.4	9.739473	-10.4042	223.63	1.249035	0.071066	0.070598	222.212	37255.4	0.066593	0.150505	1476.44	87738
456	2.000000	1.251831	7.36952e+06	-54289.1	1005.82	-29743.9	0.000000	0.000000	7.262404	238.536	NaN	0.000000	0.001635	0.001715	28.0818	67.8667	0.001719	39471.1	3.377504	175.272	233.574	1.251670	0.073394	0.073232	238.536	39471.1	0.068861	0.159487	1495.65	90300.6
456	2.000000	1.254392	7.36952e+06	-54289.1	1005.82	-29743.9	0.000000	0.000000	7.265484	251.177	NaN	0.000000	0.001604	0.001719	28.0815	68.6997	0.001653	41550.4	1.397392	-2.973572	245.851	1.253977	0.075954	0.075540	251.177	41550.4	0.071421	0.169915	1478.25	92094.3
456	2.000000	1.256819	7.36952e+06	-54289.1	1005.82	-29743.9	0.000000	0.000000	7.268613	268.213	NaN	0.000000	0.001620	0.001747	28.082	72.0327	0.001701	42353.6	2.971156	175.209	263.218	1.256617	0.078382	0.078179	268.213	42353.6	0.073632	0.179177	1496.91	91415.9
456	2.000000	1.259429	7.36952e+06	-54289.1	1005.82	-29743.9	0.000000	0.000000	7.271686	279.492	NaN	0.000000	0.001570	0.001732	28.0818	74.8485	0.001774	42190.7	6.208654	-7.545452	276.287	1.259021	0.080992	0.080584	279.492	42190.7	0.076024	0.189450	1475.28	88561
456	2.000000	1.261931	7.36952e+06	-54289.1	1005.82	-29743.9	0.000000	0.000000	7.274924	297.361	NaN	0.000000	0.001563	0.001720	28.0821	77.6915	0.001857	41842.6	3.011393	175.42	296.71	1.261639	0.083494	0.083202	297.361	41842.6	0.078164	0.198874	1495.22	85724
456	2.000000	1.264433	7.36952e+06	-54289.1	1005.82	-29743.9	0.000000	0.000000	7.278071	313.062	NaN	0.000000	0.001533	0.001728	28.0816	79.4028	0.001684	47147.9	6.157394	-8.664445	310.414	1.264057	0.085995	0.085620	313.062	47147.9	0.081015	0.211761	1478.37	93607.9
456	2.000000	1.266914	7.36952e+06	-54289.1	1005.82	-29743.9	0.000000	0.000000	7.281436	334.539	NaN	0.000000	0.001515	0.001693	28.0821	80.5997	0.001785	45161.5	7.285433	171.46	332.955	1.266510	0.088477	0.088073	334.539	45161.5	0.082921	0.220585	1516.6	87852.3
456	2.000000	1.269282	7.36952e+06	-54289.1	1005.82	-29743.9	0.000000	0.000000	7.284364	348.154	NaN	0.000000	0.001581	0.001698	28.0818	83.913	0.001781	47105.1	4.771372	-6.798262	338.286	1.269005	0.090845	0.090568	348.154	47105.1	0.085302	0.231843	1501.68	89380.9
456	2.000000	1.271922	7.36952e+06	-54289.1	1005.82	-29743.9	0.000000	0.000000	7.287667	364.277	NaN	0.000000	0.001584	0.001724	28.082	86.9266	0.001826	47592	2.547204	175.028	364.17	1.271664	0.093485	0.093226	364.277	47592	0.087744	0.243665	1494.99	88086.8
456	2.000000	1.274456	7.36952e+06	-54289.1	1005.82	-29743.9	0.000000	0.000000	7.290953	382.568	NaN	0.000000	0.001603	0.001696	28.0816	88.2073	0.001911	46152.8	2.725773	-4.109374	383.186	1.273949	0.096018	0.095512	382.568	46152.8	0.089801	0.253837	1507.14	83693.7
456	2.000000	1.276952	7.36952e+06	-54289.1	1005.82	-29743.9	0.000000	0.000000	7.294229	401.526	NaN	0.000000	0.001519	0.001705	28.0823	91.0903	0.001715	53113.6	7.851453	168.739	402.981	1.276555	0.098515	0.098117	401.526	53113.6	0.092845	0.269243	1491.32	93520.6
456	2.000000	1.279403	7.36952e+06	-54289.1	1005.82	-29743.9	0.000000	0.000000	7.297357	417.995	NaN	0.000000	0.001514	0.001739	28.0816	93.684	0.001763	53132.2	4.697209	-8.164175	414.467	1.279112	0.100966	0.100674	417.995	53132.2	0.095065	0.280745	1488.88	91616.7
456	2.000000	1.281956	7.36952e+06	-54289.1	1005.82	-29743.9	0.000000	0.000000	7.300486	431.966	NaN	0.000000	0.001549	0.001722	28.0818	95.166	0.001657	57435.8	0.375554	175.896	432.796	1.281683	0.103519	0.103246	431.966	57435.8	0.097879	0.295645	1461.1	96509.6
456	2.000000	1.284377	7.36952e+06	-54289.1	1005.82	-29743.9	0.000000	0.000000	7.304028	459.229	NaN	0.000000	0.001587	0.001735	28.0804	98.3686	0.001761	55850.3	7.221168	-10.4383	453.835	1.283980	0.105940	0.105543	459.229	55850.3	0.099773	0.305883	1501.32	92261.6
456	2.000000	1.286868	7.36952e+06	-54289.1	1005.82	-29743.9	0.000000	0.000000	7.307310	478.478	NaN	0.000000	0.001549	0.001718	28.0806	100.839	0.001867	53999.9	6.375268	170.928	476.749	1.286464	0.108430	0.108027	478.478	53999.9	0.101785	0.316931	1509.72	87636.2