File: remote_trans/data/nanoindenter/0828-1/data/Data_2025-08-06,11h17m57s/2025-07-22_16-23-58_1_360.txt
2025-07-22, 16:23:58, 1
Index	Phase	Displacement	Time	Pos X	Pos Y	Pos Z	Rot A	Rot B	Piezo Z	Force A	Force B	Gripper	Voltage A	Voltage B	Temperature	Amplitude force	Amplitude pos	Stiffness	Phase shift	Phase excitation	Force A raw	Displacement raw	HMax	HMax raw	Real Force	Real Stiffness	Contact Depth	Area	Hardness	Reduced Mod.
[#]	[#]	[um]	[s]	[um]	[um]	[um]	[m°]	[m°]	[um]	[uN]	[uN]	[V]	[V]	[V]	[°C]	[uN]	[um]	[N/m]	[°]	[°]	[uN]	[um]	[um]	[um]	[uN]	[N/m]	[um]	[um^2]	[MPa]	[MPa]
360	1.000000	0.003053	7.36858e+06	-56639.1	955.819	-29738.8	0.000000	0.000000	6.002811	0.020970	NaN	0.000000	0.001607	0.001764	28.082	0.022071	0.001001	22.0486	0.533923	-161.1	-0.044256	0.001798	-1.026244	-1.027499	0.020970	22.0486	-1.026957	-5.230570E+13	-4.009120E-16	NaN
360	1.000000	0.011038	7.36858e+06	-56639.1	955.818	-29738.8	0.000000	0.000000	6.010793	-0.048230	NaN	0.000000	0.001627	0.001722	28.082	0.031531	0.000934	33.7514	-130.877	-168.749	-0.057605	0.009697	-1.018258	-1.019600	-0.048230	33.7514	-1.017187	-3.864533E+13	1.248025E-15	NaN
360	1.000000	0.019026	7.36858e+06	-56639.1	955.818	-29738.8	0.000000	0.000000	6.018785	0.039731	NaN	0.000000	0.001589	0.001734	28.0819	0.027181	0.001773	15.3272	-159.86	-166.316	0.057911	0.017729	-1.010271	-1.011567	0.039731	15.3272	-1.012215	-3.312792E+13	-1.199318E-15	NaN
360	1.000000	0.027035	7.36858e+06	-56639.1	955.819	-29738.8	0.000000	0.000000	6.026794	0.050110	NaN	0.000000	0.001580	0.001731	28.082	0.054846	0.001877	29.2128	125.26	-162.986	0.027695	0.025728	-1.002262	-1.003568	0.050110	29.2128	-1.003549	-2.532471E+13	-1.978706E-15	NaN
360	1.000000	0.035001	7.36858e+06	-56639.1	955.818	-29738.8	0.000000	0.000000	6.034755	-0.071596	NaN	0.000000	0.001600	0.001738	28.0817	0.025437	0.001952	13.0331	-78.9205	-161.329	-0.033849	0.033727	-0.994296	-0.995569	-0.071596	13.0331	-0.990176	-1.672948E+13	4.279606E-15	NaN
360	1.000000	0.043010	7.36858e+06	-56639.1	955.818	-29738.8	0.000000	0.000000	6.042766	-0.017333	NaN	0.000000	0.001593	0.001722	28.0824	0.076166	0.001936	39.3475	-146.912	-161.904	-0.054384	0.041636	-0.986287	-0.987661	-0.017333	39.3475	-0.985957	-1.467759E+13	1.180939E-15	NaN
360	1.000000	0.050970	7.36858e+06	-56639.1	955.818	-29738.8	0.000000	0.000000	6.050728	0.025980	NaN	0.000000	0.001591	0.001725	28.0818	0.030757	0.001871	16.4384	96.4606	-166.486	-0.001071	0.049682	-0.978327	-0.979615	0.025980	16.4384	-0.979512	-1.201819E+13	-2.161688E-15	NaN
360	1.000000	0.059005	7.36858e+06	-56639.1	955.819	-29738.8	0.000000	0.000000	6.058761	-0.015552	NaN	0.000000	0.001604	0.001668	28.0819	0.021268	0.002051	10.3672	-166.263	-163.237	-0.030399	0.057662	-0.970292	-0.971635	-0.015552	10.3672	-0.969167	-8.718387E+12	1.783760E-15	NaN
360	1.000000	0.067013	7.36858e+06	-56639.1	955.818	-29738.8	0.000000	0.000000	6.066772	0.044535	NaN	0.000000	0.001605	0.001688	28.0819	0.157053	0.001999	78.5473	-100.153	-165.081	-0.049428	0.065698	-0.962284	-0.963599	0.044535	78.5473	-0.962709	-7.134875E+12	-6.241929E-15	NaN
360	1.000000	0.075030	7.36858e+06	-56639.1	955.818	-29738.8	0.000000	0.000000	6.074785	-0.064350	NaN	0.000000	0.001567	0.001733	28.0819	0.114068	0.002144	53.2001	123.486	-165.956	-0.094841	0.073700	-0.954266	-0.955597	-0.064350	53.2001	-0.953359	-5.337396E+12	1.205650E-14	NaN
360	1.000000	0.082982	7.36858e+06	-56639.1	955.819	-29738.8	0.000000	0.000000	6.082738	-0.015022	NaN	0.000000	0.001571	0.001696	28.0809	0.059509	0.001996	29.8162	-174.013	-167.837	-0.009023	0.081696	-0.946315	-0.947601	-0.015022	29.8162	-0.945937	-4.238703E+12	3.543914E-15	NaN
360	1.000000	0.091016	7.36858e+06	-56639.1	955.819	-29738.8	0.000000	0.000000	6.090772	-0.019950	NaN	0.000000	0.001547	0.001687	28.0808	0.085486	0.001964	43.5196	-22.4878	-163.485	-0.015793	0.089760	-0.938281	-0.939537	-0.019950	43.5196	-0.937937	-3.306044E+12	6.034511E-15	NaN
360	1.000000	0.099052	7.36858e+06	-56639.1	955.82	-29738.8	0.000000	0.000000	6.098811	0.029202	NaN	0.000000	0.001517	0.001710	28.0809	0.056262	0.001975	28.4882	139.62	-166.972	-0.016445	0.097691	-0.930245	-0.931606	0.029202	28.4882	-0.931013	-2.666080E+12	-1.095307E-14	NaN
360	1.000000	0.107030	7.36858e+06	-56639.1	955.818	-29738.8	0.000000	0.000000	6.106787	-0.005098	NaN	0.000000	0.001540	0.001733	28.0807	0.068187	0.002015	33.8356	-161.158	-168.962	0.003190	0.105697	-0.922267	-0.923599	-0.005098	33.8356	-0.922154	-2.024347E+12	2.518251E-15	NaN
360	1.000000	0.115000	7.36858e+06	-56639.1	955.818	-29738.8	0.000000	0.000000	6.114761	0.076813	NaN	0.000000	0.001538	0.001714	28.0809	0.060372	0.001865	32.3698	-14.9333	-165.948	0.004311	0.113713	-0.914296	-0.915584	0.076813	32.3698	-0.916076	-1.675807E+12	-4.583637E-14	NaN
360	1.000000	0.123024	7.36858e+06	-56639.1	955.818	-29738.8	0.000000	0.000000	6.122781	-0.002448	NaN	0.000000	0.001490	0.001718	28.0809	0.077108	0.001990	38.7534	81.1544	-166.799	-0.023143	0.121698	-0.906273	-0.907598	-0.002448	38.7534	-0.906226	-1.233612E+12	1.984618E-15	NaN
360	1.000000	0.131006	7.36858e+06	-56639.1	955.819	-29738.8	0.000000	0.000000	6.130762	-0.021145	NaN	0.000000	0.001509	0.001714	28.0807	0.080704	0.002010	40.1498	-130.576	-166.674	0.004548	0.129750	-0.898291	-0.899546	-0.021145	40.1498	-0.897896	-9.520027E+11	2.221061E-14	NaN
360	1.000000	0.139001	7.36858e+06	-56639.1	955.818	-29738.8	0.000000	0.000000	6.138757	-0.024702	NaN	0.000000	0.001515	0.001737	28.081	0.117948	0.001984	59.4451	131.883	-164.283	0.033145	0.137735	-0.890296	-0.891562	-0.024702	59.4451	-0.889984	-7.442126E+11	3.319229E-14	NaN
360	1.000000	0.147033	7.36858e+06	-56639.1	955.818	-29738.8	0.000000	0.000000	6.146787	-0.054681	NaN	0.000000	0.001552	0.001745	28.0806	0.048300	0.002076	23.2671	72.3765	-163.55	0.008772	0.145721	-0.882264	-0.883575	-0.054681	23.2671	-0.880502	-5.539768E+11	9.870578E-14	NaN
360	1.000000	0.155052	7.36858e+06	-56639.1	955.818	-29738.8	0.000000	0.000000	6.154807	-0.047499	NaN	0.000000	0.001560	0.001747	28.0806	0.109107	0.001976	55.212	141.875	-167.516	-0.062281	0.153737	-0.874245	-0.875560	-0.047499	55.212	-0.873600	-4.468307E+11	1.063026E-13	NaN
360	1.000000	0.163025	7.36858e+06	-56639.1	955.818	-29738.8	0.000000	0.000000	6.162783	0.006161	NaN	0.000000	0.001570	0.001768	28.0807	0.081504	0.001858	43.8708	163.808	-166.909	0.000735	0.161714	-0.866271	-0.867583	0.006161	43.8708	-0.866377	-3.567958E+11	-1.726860E-14	NaN
360	1.000000	0.171029	7.36858e+06	-56639.1	955.818	-29738.8	0.000000	0.000000	6.170788	0.028198	NaN	0.000000	0.001550	0.001711	28.0807	0.053390	0.001930	27.6592	-23.3517	-162.937	0.023910	0.169743	-0.858267	-0.859554	0.028198	27.6592	-0.859032	-2.838044E+11	-9.935755E-14	NaN
360	1.000000	0.179036	7.36858e+06	-56639.1	955.819	-29738.8	0.000000	0.000000	6.178794	0.013085	NaN	0.000000	0.001516	0.001728	28.0809	0.071972	0.001908	37.7216	-147.683	-168.185	0.015024	0.177704	-0.850261	-0.851593	0.013085	37.7216	-0.850521	-2.176672E+11	-6.011293E-14	NaN
360	1.000000	0.187053	7.36858e+06	-56639.1	955.819	-29738.8	0.000000	0.000000	6.186811	0.034644	NaN	0.000000	0.001568	0.001693	28.0806	0.106479	0.002109	50.4936	-146.303	-166.071	-0.033794	0.185754	-0.842244	-0.843542	0.034644	50.4936	-0.842758	-1.708680E+11	-2.027509E-13	NaN
360	1.000000	0.195086	7.36858e+06	-56639.1	955.818	-29738.8	0.000000	0.000000	6.194844	0.011704	NaN	0.000000	0.001544	0.001711	28.0809	0.038693	0.002010	19.2525	151.922	-163.346	0.049397	0.193722	-0.834211	-0.835575	0.011704	19.2525	-0.834667	-1.327481E+11	-8.816906E-14	NaN
360	1.000000	0.203071	7.36858e+06	-56639.1	955.818	-29738.8	0.000000	0.000000	6.202826	-0.043664	NaN	0.000000	0.001525	0.001729	28.0809	0.124451	0.002074	59.9932	-178.649	-167.004	0.019405	0.201759	-0.826226	-0.827538	-0.043664	59.9932	-0.825680	-1.002837E+11	4.354096E-13	NaN
360	1.000000	0.211055	7.36858e+06	-56639.1	955.818	-29738.8	0.000000	0.000000	6.210812	-0.006331	NaN	0.000000	0.001492	0.001775	28.0809	0.086489	0.001985	43.5755	-151.319	-167.45	-0.023896	0.209779	-0.818242	-0.819518	-0.006331	43.5755	-0.818133	-7.922977E+10	7.990435E-14	NaN
360	1.000000	0.219052	7.36858e+06	-56639.1	955.819	-29738.8	0.000000	0.000000	6.218809	-0.008854	NaN	0.000000	0.001613	0.001724	28.0821	0.079211	0.002038	38.8597	81.6344	-164.258	-0.030146	0.217753	-0.810244	-0.811544	-0.008854	38.8597	-0.810074	-6.159843E+10	1.437439E-13	NaN
360	1.000000	0.227042	7.36858e+06	-56639.1	955.819	-29738.8	0.000000	0.000000	6.226800	0.022647	NaN	0.000000	0.001611	0.001714	28.0821	0.122899	0.001895	64.848	-108.979	-164.726	0.052119	0.225767	-0.802254	-0.803530	0.022647	64.848	-0.802516	-4.864274E+10	-4.655732E-13	NaN
360	1.000000	0.235067	7.36858e+06	-56639.1	955.818	-29738.8	0.000000	0.000000	6.234824	-0.009877	NaN	0.000000	0.001549	0.001717	28.0828	0.037839	0.001958	19.3211	-134.529	-168.981	0.024719	0.233805	-0.794229	-0.795492	-0.009877	19.3211	-0.793846	-3.709473E+10	2.662536E-13	NaN
360	1.000000	0.243048	7.36858e+06	-56639.1	955.819	-29738.8	0.000000	0.000000	6.242807	0.056621	NaN	0.000000	0.001527	0.001736	28.0821	0.128266	0.002102	61.021	78.4168	-167.422	-0.002584	0.241788	-0.786249	-0.787508	0.056621	61.021	-0.786945	-2.989433E+10	-1.894034E-12	NaN
360	1.000000	0.251073	7.36858e+06	-56639.1	955.819	-29738.8	0.000000	0.000000	6.250831	0.009897	NaN	0.000000	0.001543	0.001784	28.0821	0.044921	0.002016	22.2845	99.8365	-167.124	0.001338	0.249809	-0.778223	-0.779488	0.009897	22.2845	-0.778556	-2.299397E+10	-4.304259E-13	NaN
360	1.000000	0.259087	7.36858e+06	-56639.1	955.818	-29738.8	0.000000	0.000000	6.258843	-0.028721	NaN	0.000000	0.001538	0.001737	28.0823	0.132013	0.001943	67.9318	-156.932	-165.84	-0.048689	0.257768	-0.770210	-0.771529	-0.028721	67.9318	-0.769893	-1.753252E+10	1.638158E-12	NaN
360	1.000000	0.267120	7.36858e+06	-56639.1	955.819	-29738.8	0.000000	0.000000	6.266875	-0.043118	NaN	0.000000	0.001515	0.001749	28.0822	0.022222	0.002008	11.0649	12.0375	-167.85	-0.070162	0.265781	-0.762177	-0.763516	-0.043118	11.0649	-0.759254	-1.256481E+10	3.431674E-12	NaN
360	1.000000	0.275088	7.36858e+06	-56639.1	955.818	-29738.8	0.000000	0.000000	6.274843	-0.051656	NaN	0.000000	0.001537	0.001704	28.0825	0.049917	0.002115	23.5986	-97.0073	-167.398	-0.056153	0.273786	-0.754209	-0.755511	-0.051656	23.5986	-0.752567	-1.018979E+10	5.069421E-12	NaN
360	1.000000	0.283094	7.36858e+06	-56639.1	955.818	-29738.8	0.000000	0.000000	6.282850	-0.018483	NaN	0.000000	0.001513	0.001733	28.0821	0.022426	0.001937	11.5774	-167.85	-166.948	-0.013544	0.281760	-0.746203	-0.747536	-0.018483	11.5774	-0.745006	-8.039439E+9	2.299086E-12	NaN
360	1.000000	0.291096	7.36858e+06	-56639.1	955.818	-29738.8	0.000000	0.000000	6.290850	-0.058702	NaN	0.000000	0.001535	0.001727	28.082	0.073920	0.001931	38.2804	64.5978	-164.431	-0.115847	0.289769	-0.738201	-0.739528	-0.058702	38.2804	-0.737051	-6.264514E+9	9.370634E-12	NaN
360	1.000000	0.299110	7.36858e+06	-56639.1	955.819	-29738.8	0.000000	0.000000	6.298866	-0.043761	NaN	0.000000	0.001533	0.001718	28.0823	0.028369	0.002008	14.1307	-167.858	-163.935	-0.077081	0.297725	-0.730186	-0.731572	-0.043761	14.1307	-0.727864	-4.695583E+9	9.319559E-12	NaN
360	1.000000	0.307073	7.36858e+06	-56639.1	955.819	-29738.8	0.000000	0.000000	6.306830	0.000395	NaN	0.000000	0.001539	0.001761	28.0836	0.032903	0.001953	16.843	163.823	-167.51	-0.011639	0.305778	-0.722224	-0.723519	0.000395	16.843	-0.722242	-3.935889E+9	-1.003613E-13	NaN
360	1.000000	0.315124	7.36858e+06	-56639.1	955.818	-29738.8	0.000000	0.000000	6.314879	-0.046141	NaN	0.000000	0.001537	0.001759	28.086	0.071914	0.001817	39.5849	-170.103	-165.984	-0.085100	0.313798	-0.714173	-0.715499	-0.046141	39.5849	-0.713299	-2.972087E+9	1.552464E-11	NaN
360	1.000000	0.323112	7.36858e+06	-56639.1	955.818	-29738.8	0.000000	0.000000	6.322866	-0.066619	NaN	0.000000	0.001519	0.001748	28.0826	0.068729	0.001982	34.684	87.858	-163.37	0.002640	0.321772	-0.706185	-0.707525	-0.066619	34.684	-0.704745	-2.271509E+9	2.932795E-11	NaN
360	1.000000	0.331094	7.36858e+06	-56639.1	955.819	-29738.8	0.000000	0.000000	6.330851	-0.013042	NaN	0.000000	0.001523	0.001722	28.0829	0.081195	0.002139	37.9643	-37.5209	-165.928	-0.087904	0.329802	-0.698202	-0.699494	-0.013042	37.9643	-0.697945	-1.834264E+9	7.110212E-12	NaN
360	1.000000	0.339127	7.36858e+06	-56639.1	955.819	-29738.8	0.000000	0.000000	6.338885	0.029615	NaN	0.000000	0.001533	0.001711	28.082	0.066099	0.002045	32.3275	49.0839	-166.702	0.048610	0.337777	-0.690170	-0.691520	0.029615	32.3275	-0.690857	-1.467687E+9	-2.017805E-11	NaN
360	1.000000	0.347124	7.36858e+06	-56639.1	955.819	-29738.8	0.000000	0.000000	6.346882	0.027446	NaN	0.000000	0.001536	0.001691	28.0822	0.116563	0.002048	56.909	64.3237	-166.652	-0.016328	0.345827	-0.682173	-0.683469	0.027446	56.909	-0.682534	-1.129441E+9	-2.430034E-11	NaN
360	1.000000	0.355113	7.36858e+06	-56639.1	955.819	-29738.8	0.000000	0.000000	6.354872	0.044622	NaN	0.000000	0.001542	0.001708	28.0812	0.078914	0.001994	39.578	-18.1933	-165.717	0.041289	0.353810	-0.674184	-0.675487	0.044622	39.578	-0.675029	-8.916817E+8	-5.004260E-11	NaN
360	1.000000	0.363103	7.36858e+06	-56639.1	955.818	-29738.8	0.000000	0.000000	6.362858	-0.034678	NaN	0.000000	0.001529	0.001713	28.0806	0.110855	0.002006	55.2637	-75.8349	-167.093	-0.041619	0.361800	-0.666194	-0.667496	-0.034678	55.2637	-0.665723	-6.650391E+8	5.214416E-11	NaN
360	1.000000	0.371139	7.36858e+06	-56639.1	955.818	-29738.8	0.000000	0.000000	6.370896	0.004545	NaN	0.000000	0.001533	0.001710	28.0805	0.015013	0.001978	7.591810	125.949	-165.162	-0.052759	0.369852	-0.658158	-0.659445	0.004545	7.591810	-0.658607	-5.313614E+8	-8.553285E-12	NaN
360	1.000000	0.379155	7.36858e+06	-56639.1	955.819	-29738.8	0.000000	0.000000	6.378912	-0.003293	NaN	0.000000	0.001522	0.001706	28.0806	0.129785	0.001840	70.5218	-114.684	-170.605	0.034073	0.377811	-0.650142	-0.651486	-0.003293	70.5218	-0.650107	-4.063517E+8	8.103378E-12	NaN
360	1.000000	0.387135	7.36858e+06	-56639.1	955.818	-29738.8	0.000000	0.000000	6.386889	-0.072732	NaN	0.000000	0.001495	0.001709	28.0807	0.048011	0.002011	23.879	-127.964	-166.062	-0.046169	0.385772	-0.642162	-0.643525	-0.072732	23.879	-0.639878	-2.941792E+8	2.472355E-10	NaN
360	1.000000	0.395138	7.36858e+06	-56639.1	955.819	-29738.8	0.000000	0.000000	6.394895	-0.002405	NaN	0.000000	0.001534	0.001705	28.081	0.099488	0.001993	49.9252	100.143	-162.368	-0.087183	0.393827	-0.634159	-0.635470	-0.002405	49.9252	-0.634123	-2.452605E+8	9.806626E-12	NaN
360	1.000000	0.403143	7.36858e+06	-56639.1	955.819	-29738.8	0.000000	0.000000	6.402899	-0.017750	NaN	0.000000	0.001512	0.001735	28.0808	0.108755	0.002030	53.5685	-18.1144	-166.565	-0.054481	0.401832	-0.626154	-0.627465	-0.017750	53.5685	-0.625905	-1.891381E+8	9.384769E-11	NaN
360	1.000000	0.411139	7.36858e+06	-56639.1	955.818	-29738.8	0.000000	0.000000	6.410894	-0.052283	NaN	0.000000	0.001545	0.001722	28.0808	0.050101	0.001949	25.708	118.09	-164.895	-0.039462	0.409840	-0.618157	-0.619456	-0.052283	25.708	-0.616632	-1.410367E+8	3.707048E-10	NaN
360	1.000000	0.419132	7.36858e+06	-56639.1	955.818	-29738.8	0.000000	0.000000	6.418887	-0.056581	NaN	0.000000	0.001495	0.001721	28.0805	0.008927	0.002112	4.227179	156.267	-164.764	-0.095637	0.417846	-0.610164	-0.611451	-0.056581	4.227179	-0.600126	-8.359670E+7	6.768364E-10	NaN
360	1.000000	0.427154	7.36858e+06	-56639.1	955.817	-29738.8	0.000000	0.000000	6.426911	0.004926	NaN	0.000000	0.001513	0.001738	28.0806	0.023803	0.001937	12.2892	2.700022	-163.35	0.013705	0.425845	-0.602143	-0.603452	0.004926	12.2892	-0.602443	-8.997162E+7	-5.475183E-11	NaN
360	1.000000	0.435151	7.36858e+06	-56639.1	955.819	-29738.8	0.000000	0.000000	6.434906	-0.070046	NaN	0.000000	0.001513	0.001735	28.0807	0.052281	0.001982	26.3795	-16.5424	-166.317	-0.062827	0.433862	-0.594145	-0.595435	-0.070046	26.3795	-0.592154	-6.491683E+7	1.079013E-9	NaN
360	1.000000	0.443147	7.36858e+06	-56639.1	955.817	-29738.8	0.000000	0.000000	6.442902	-0.043451	NaN	0.000000	0.001548	0.001737	28.081	0.116512	0.001982	58.7777	89.3118	-165.261	0.030850	0.441884	-0.586150	-0.587413	-0.043451	58.7777	-0.585595	-5.271386E+7	8.242726E-10	NaN
360	1.000000	0.451165	7.36858e+06	-56639.1	955.819	-29738.8	0.000000	0.000000	6.450922	0.001374	NaN	0.000000	0.001542	0.001756	28.0808	0.039548	0.001927	20.5249	142.298	-165.971	0.046588	0.449892	-0.578132	-0.579405	0.001374	20.5249	-0.578182	-4.165209E+7	-3.298421E-11	NaN
360	1.000000	0.459174	7.36858e+06	-56639.1	955.818	-29738.8	0.000000	0.000000	6.458934	0.064600	NaN	0.000000	0.001511	0.001751	28.0807	0.061031	0.001965	31.0562	-137.382	-168.298	0.018723	0.457806	-0.570122	-0.571491	0.064600	31.0562	-0.571683	-3.387491E+7	-1.907030E-9	NaN
360	1.000000	0.467201	7.36858e+06	-56639.1	955.818	-29738.8	0.000000	0.000000	6.466957	-0.015478	NaN	0.000000	0.001531	0.001705	28.0807	0.019321	0.002022	9.553134	85.5676	-168.24	-0.037905	0.465871	-0.562096	-0.563426	-0.015478	9.553134	-0.560881	-2.401926E+7	6.443969E-10	NaN
360	1.000000	0.475246	7.36858e+06	-56639.1	955.818	-29738.8	0.000000	0.000000	6.475003	0.001990	NaN	0.000000	0.001519	0.001707	28.0807	0.051789	0.002049	25.2772	83.0498	-163.028	-0.021963	0.473882	-0.554051	-0.555415	0.001990	25.2772	-0.554110	-1.935844E+7	-1.028046E-10	NaN
360	1.000000	0.483172	7.36858e+06	-56639.1	955.818	-29738.8	0.000000	0.000000	6.482931	0.037586	NaN	0.000000	0.001608	0.001751	28.0808	0.099134	0.002119	46.7912	-2.144179	-165.065	0.010329	0.481853	-0.546124	-0.547444	0.037586	46.7912	-0.546727	-1.529719E+7	-2.457057E-9	NaN
360	1.000000	0.491203	7.36858e+06	-56639.1	955.818	-29738.8	0.000000	0.000000	6.490960	-0.004627	NaN	0.000000	0.001570	0.001739	28.0813	0.088703	0.001913	46.3667	128.608	-162.802	-0.058811	0.489866	-0.538094	-0.539431	-0.004627	46.3667	-0.538019	-1.158457E+7	3.993688E-10	NaN
360	1.000000	0.499171	7.36858e+06	-56639.1	955.818	-29738.8	0.000000	0.000000	6.498929	0.023251	NaN	0.000000	0.001542	0.001732	28.082	0.052308	0.001891	27.6615	-51.413	-165.283	0.027888	0.497919	-0.530126	-0.531378	0.023251	27.6615	-0.530756	-9.18493e+06	-2.531414E-9	NaN
360	1.000000	0.507196	7.36858e+06	-56639.1	955.819	-29738.8	0.000000	0.000000	6.506949	-0.113879	NaN	0.000000	0.001536	0.001736	28.0821	0.063158	0.002092	30.1973	83.2235	-167.452	-0.074521	0.505851	-0.522100	-0.523446	-0.113879	30.1973	-0.519272	-6.36024e+06	1.790485E-8	NaN
360	1.000000	0.515164	7.36858e+06	-56639.1	955.819	-29738.8	0.000000	0.000000	6.514921	0.000720	NaN	0.000000	0.001525	0.001727	28.0819	0.010481	0.002070	5.062819	-41.5521	-167.574	0.073075	0.513914	-0.514133	-0.515383	0.000720	5.062819	-0.514240	-5.41317e+06	-1.330401E-10	NaN
360	1.000000	0.523219	7.36858e+06	-56639.1	955.818	-29738.8	0.000000	0.000000	6.522973	-0.078123	NaN	0.000000	0.001521	0.001769	28.0818	0.096082	0.001877	51.2001	-52.5851	-166.269	-0.021037	0.521890	-0.506078	-0.507407	-0.078123	51.2001	-0.504934	-4.01625e+06	1.945159E-8	NaN
360	1.000000	0.531197	7.36858e+06	-56639.1	955.818	-29738.8	0.000000	0.000000	6.530954	-0.003694	NaN	0.000000	0.001563	0.001729	28.0819	0.042449	0.002028	20.9334	149.868	-167.142	-0.006636	0.529833	-0.498100	-0.499463	-0.003694	20.9334	-0.497967	-3.2111e+06	1.150423E-9	NaN
360	1.000000	0.539215	7.36858e+06	-56639.1	955.819	-29738.8	0.000000	0.000000	6.538972	0.005383	NaN	0.000000	0.001509	0.001711	28.082	0.035134	0.001919	18.3057	-105.51	-165.968	-0.012017	0.537913	-0.490082	-0.491384	0.005383	18.3057	-0.490302	-2.50967e+06	-2.144822E-9	NaN
360	1.000000	0.547208	7.36858e+06	-56639.1	955.818	-29738.8	0.000000	0.000000	6.546965	-0.000378	NaN	0.000000	0.001514	0.001748	28.0822	0.009108	0.001958	4.650675	-140.883	-164.982	0.046156	0.545876	-0.482089	-0.483421	-0.000378	4.650675	-0.482028	-1.9227e+06	1.965998E-10	NaN
360	1.000000	0.555195	7.36858e+06	-56639.1	955.819	-29738.8	0.000000	0.000000	6.554950	-0.055767	NaN	0.000000	0.001513	0.001742	28.0819	0.196863	0.002071	95.0533	-163.782	-163.279	-0.062204	0.553931	-0.474102	-0.475366	-0.055767	95.0533	-0.473662	-1.46807e+06	3.798682E-8	NaN
360	1.000000	0.563218	7.36858e+06	-56639.1	955.818	-29738.8	0.000000	0.000000	6.562978	0.061651	NaN	0.000000	0.001520	0.001708	28.0819	0.037658	0.001938	19.4273	-131.72	-169.036	0.042906	0.561907	-0.466078	-0.467389	0.061651	19.4273	-0.468458	-1.24103e+06	-4.967689E-8	NaN
360	1.000000	0.571246	7.36858e+06	-56639.1	955.818	-29738.8	0.000000	0.000000	6.570999	-0.103807	NaN	0.000000	0.001496	0.001735	28.082	0.091898	0.001918	47.9049	99.3548	-169.129	-0.032394	0.569917	-0.458051	-0.459380	-0.103807	47.9049	-0.456426	-840949	1.234399E-7	NaN
360	1.000000	0.579254	7.36858e+06	-56639.1	955.818	-29738.8	0.000000	0.000000	6.579013	0.034859	NaN	0.000000	0.001494	0.001741	28.082	0.021478	0.001877	11.443	-41.2233	-162.247	-0.023779	0.577904	-0.450043	-0.451393	0.034859	11.443	-0.452327	-736395	-4.733682E-8	NaN
360	1.000000	0.587211	7.36858e+06	-56639.1	955.819	-29738.8	0.000000	0.000000	6.586967	-0.004822	NaN	0.000000	0.001491	0.001773	28.0822	0.047524	0.002146	22.148	133.378	-167.842	-0.005484	0.585906	-0.442086	-0.443391	-0.004822	22.148	-0.441923	-525409	9.177585E-9	NaN
360	1.000000	0.595205	7.36858e+06	-56639.1	955.817	-29738.8	0.000000	0.000000	6.594961	-0.017791	NaN	0.000000	0.001535	0.001738	28.082	0.139548	0.002112	66.0763	-95.1476	-168.087	-0.033480	0.593914	-0.434092	-0.435383	-0.017791	66.0763	-0.433890	-404640	4.396831E-8	NaN
360	1.000000	0.603195	7.36858e+06	-56639.1	955.818	-29738.8	0.000000	0.000000	6.602955	0.056942	NaN	0.000000	0.001536	0.001733	28.0823	0.073540	0.001936	37.9814	146.867	-166.302	0.002864	0.602012	-0.426101	-0.427285	0.056942	37.9814	-0.427226	-325688	-1.748362E-7	NaN
360	1.000000	0.611245	7.36858e+06	-56639.1	955.818	-29738.8	0.000000	0.000000	6.611002	0.005619	NaN	0.000000	0.001521	0.001708	28.082	0.053364	0.001931	27.6318	167.443	-168.411	-0.024565	0.609920	-0.418052	-0.419376	0.005619	27.6318	-0.418205	-242631	-2.315846E-8	NaN
360	1.000000	0.619237	7.36858e+06	-56639.1	955.819	-29738.8	0.000000	0.000000	6.618990	-0.110606	NaN	0.000000	0.001518	0.001692	28.082	0.023719	0.002142	11.072	-74.4062	-167.782	-0.042475	0.617973	-0.410060	-0.411324	-0.110606	11.072	-0.402567	-145410	7.606458E-7	NaN
360	1.000000	0.627224	7.36858e+06	-56639.1	955.819	-29738.8	0.000000	0.000000	6.626978	-0.085430	NaN	0.000000	0.001499	0.001717	28.0818	0.058350	0.002118	27.5514	66.2257	-165.694	-0.012082	0.625951	-0.402072	-0.403346	-0.085430	27.5514	-0.399747	-132551	6.445080E-7	NaN
360	1.000000	0.635234	7.36858e+06	-56639.1	955.818	-29738.8	0.000000	0.000000	6.634991	0.004445	NaN	0.000000	0.001537	0.001737	28.0809	0.030095	0.002024	14.872	-52.2428	-169.769	-0.053190	0.633892	-0.394063	-0.395404	0.004445	14.872	-0.394287	-110779	-4.012343E-8	NaN
360	1.000000	0.643239	7.36858e+06	-56639.1	955.818	-29738.8	0.000000	0.000000	6.642994	-0.043533	NaN	0.000000	0.001504	0.001687	28.081	0.028500	0.002081	13.6963	-35.5898	-163.889	-0.024920	0.641955	-0.386058	-0.387342	-0.043533	13.6963	-0.383674	-78087.8	5.574839E-7	NaN
360	1.000000	0.651227	7.36858e+06	-56639.1	955.818	-29738.8	0.000000	0.000000	6.650984	0.013150	NaN	0.000000	0.001495	0.001723	28.0808	0.021902	0.002008	10.9081	96.1681	-170.397	0.078954	0.649949	-0.378070	-0.379348	0.013150	10.9081	-0.378974	-66860.1	-1.966803E-7	NaN
360	1.000000	0.659259	7.36858e+06	-56639.1	955.819	-29738.8	0.000000	0.000000	6.659015	-0.005932	NaN	0.000000	0.001526	0.001706	28.0809	0.061374	0.001930	31.8065	176.275	-166.092	0.005663	0.657919	-0.370038	-0.371377	-0.005932	31.8065	-0.369898	-49506.7	1.198290E-7	NaN
360	1.000000	0.667287	7.36858e+06	-56639.1	955.819	-29738.8	0.000000	0.000000	6.667044	0.005274	NaN	0.000000	0.001541	0.001712	28.0809	0.068128	0.002011	33.8831	-0.071674	-166.635	0.001610	0.665947	-0.362010	-0.363350	0.005274	33.8831	-0.362127	-38245	-1.378896E-7	NaN
360	1.000000	0.675255	7.36858e+06	-56639.1	955.818	-29738.8	0.000000	0.000000	6.675014	0.053156	NaN	0.000000	0.001551	0.001739	28.0812	0.061383	0.002012	30.5074	-66.0434	-168.292	0.010171	0.673968	-0.354042	-0.355329	0.053156	30.5074	-0.355349	-30517.7	-1.741814E-6	NaN
360	1.000000	0.683261	7.36858e+06	-56639.1	955.819	-29738.8	0.000000	0.000000	6.683017	-0.024796	NaN	0.000000	0.001538	0.001714	28.0813	0.047617	0.002089	22.7908	-89.3265	-162.431	-0.014127	0.681953	-0.346036	-0.347344	-0.024796	22.7908	-0.345220	-21755	1.139765E-6	NaN
360	1.000000	0.691240	7.36858e+06	-56639.1	955.819	-29738.8	0.000000	0.000000	6.690997	0.011023	NaN	0.000000	0.001502	0.001721	28.0813	0.122795	0.002094	58.6392	63.8527	-168.669	0.037568	0.689892	-0.338057	-0.339405	0.011023	58.6392	-0.338198	-17190.1	-6.412277E-7	NaN
360	1.000000	0.699249	7.36858e+06	-56639.1	955.818	-29738.8	0.000000	0.000000	6.699004	-0.050726	NaN	0.000000	0.001545	0.001750	28.0813	0.034388	0.002017	17.0496	39.7279	-163.96	-0.050925	0.697962	-0.330048	-0.331335	-0.050726	17.0496	-0.327817	-12118.7	4.185754E-6	NaN
360	1.000000	0.707258	7.36858e+06	-56639.1	955.818	-29738.8	0.000000	0.000000	6.707013	-0.035548	NaN	0.000000	0.001541	0.001734	28.0811	0.088377	0.002040	43.316	-158.287	-164.931	-0.089152	0.705953	-0.322039	-0.323344	-0.035548	43.316	-0.321423	-9762.94	3.641150E-6	NaN
360	1.000000	0.715262	7.36858e+06	-56639.1	955.819	-29738.8	0.000000	0.000000	6.715016	-0.060925	NaN	0.000000	0.001536	0.001768	28.0811	0.114511	0.002108	54.3175	-110.05	-166.127	-0.055686	0.713999	-0.314035	-0.315298	-0.060925	54.3175	-0.313194	-7383.77	8.251167E-6	NaN
360	1.000000	0.723250	7.36858e+06	-56639.1	955.819	-29738.8	0.000000	0.000000	6.723005	-0.047948	NaN	0.000000	0.001525	0.001735	28.081	0.072629	0.001957	37.1152	-79.6689	-163.968	-0.056103	0.721945	-0.306047	-0.307352	-0.047948	37.1152	-0.305078	-5599.06	8.563592E-6	NaN
360	1.000000	0.731260	7.36858e+06	-56639.1	955.818	-29738.8	0.000000	0.000000	6.731016	-0.038988	NaN	0.000000	0.001527	0.001731	28.0813	0.080738	0.001915	42.169	15.1113	-168.206	-0.102381	0.729985	-0.298036	-0.299312	-0.038988	42.169	-0.297343	-4295.84	9.075794E-6	NaN
360	1.000000	0.739297	7.36858e+06	-56639.1	955.818	-29738.8	0.000000	0.000000	6.739054	0.007923	NaN	0.000000	0.001495	0.001735	28.0811	0.016113	0.001943	8.292550	151.98	-168.946	0.014336	0.737996	-0.290000	-0.291301	0.007923	8.292550	-0.290716	-3420.05	-2.316723E-6	NaN
360	1.000000	0.747303	7.36858e+06	-56639.1	955.818	-29738.8	0.000000	0.000000	6.747058	-0.051227	NaN	0.000000	0.001526	0.001720	28.081	0.041539	0.001907	21.7791	-61.7889	-164.366	0.022570	0.746010	-0.281994	-0.283287	-0.051227	21.7791	-0.280230	-2379.26	2.153064E-5	NaN
360	1.000000	0.755299	7.36858e+06	-56639.1	955.818	-29738.8	0.000000	0.000000	6.755055	-0.020925	NaN	0.000000	0.001536	0.001741	28.081	0.035227	0.002021	17.4334	-37.2072	-163.412	0.005369	0.753973	-0.273998	-0.275324	-0.020925	17.4334	-0.273098	-1855.98	1.127447E-5	NaN
360	1.000000	0.763315	7.36858e+06	-56639.1	955.819	-29738.8	0.000000	0.000000	6.763072	0.004901	NaN	0.000000	0.001510	0.001730	28.0811	0.078865	0.001985	39.7266	75.6691	-166.666	0.033455	0.762034	-0.265982	-0.267263	0.004901	39.7266	-0.266074	-1451.37	-3.376798E-6	NaN
360	1.000000	0.771308	7.36858e+06	-56639.1	955.818	-29738.8	0.000000	0.000000	6.771064	-0.022010	NaN	0.000000	0.001549	0.001738	28.0824	0.047118	0.001941	24.2784	48.184	-167.198	-0.111033	0.769978	-0.257989	-0.259319	-0.022010	24.2784	-0.257309	-1065.67	2.065387E-5	NaN
360	1.000000	0.779339	7.36858e+06	-56639.1	955.818	-29738.8	0.000000	0.000000	6.779095	-0.037618	NaN	0.000000	0.001557	0.001736	28.0826	0.010175	0.001897	5.364861	-143.608	-166.633	0.044953	0.777962	-0.249958	-0.251335	-0.037618	5.364861	-0.244699	-680.406	5.528688E-5	NaN
360	1.000000	0.787275	7.36858e+06	-56639.1	955.818	-29738.8	0.000000	0.000000	6.787033	0.015751	NaN	0.000000	0.001536	0.001730	28.0823	0.025652	0.002073	12.3757	-20.6802	-165.2	0.047121	0.785961	-0.242022	-0.243335	0.015751	12.3757	-0.242976	-639.686	-2.462228E-5	NaN
360	1.000000	0.795310	7.36858e+06	-56639.1	955.819	-29738.8	0.000000	0.000000	6.795068	0.028851	NaN	0.000000	0.001536	0.001703	28.0826	0.072571	0.001948	37.2443	77.3245	-165.49	0.100575	0.793940	-0.233987	-0.235357	0.028851	37.2443	-0.234568	-472.567	-6.105113E-5	NaN
360	1.000000	0.803292	7.36858e+06	-56639.1	955.818	-29738.8	0.000000	0.000000	6.803050	0.033098	NaN	0.000000	0.001532	0.001740	28.0822	0.075906	0.002034	37.3131	64.8473	-167.413	0.043116	0.801985	-0.226005	-0.227312	0.033098	37.3131	-0.226670	-354.682	-9.331602E-5	NaN
360	1.000000	0.811326	7.36858e+06	-56639.1	955.818	-29738.8	0.000000	0.000000	6.811085	0.052104	NaN	0.000000	0.001511	0.001739	28.0823	0.100160	0.002072	48.3371	-140.358	-166.752	0.055429	0.810034	-0.217971	-0.219263	0.052104	48.3371	-0.218780	-265.557	-0.000196	NaN
360	1.000000	0.819336	7.36858e+06	-56639.1	955.819	-29738.8	0.000000	0.000000	6.819096	0.072714	NaN	0.000000	0.001512	0.001716	28.0824	0.027601	0.002023	13.6432	93.6444	-166.896	-0.020403	0.818022	-0.209961	-0.211274	0.072714	13.6432	-0.213958	-222.203	-0.000327	NaN
360	1.000000	0.827331	7.36858e+06	-56639.1	955.818	-29738.8	0.000000	0.000000	6.827087	-0.016850	NaN	0.000000	0.001556	0.001767	28.0823	0.011428	0.001934	5.908724	-62.8136	-164.666	-0.016405	0.826015	-0.201966	-0.203282	-0.016850	5.908724	-0.199827	-130.874	0.000129	NaN
360	1.000000	0.835304	7.36858e+06	-56639.1	955.818	-29738.8	0.000000	0.000000	6.835059	-0.053547	NaN	0.000000	0.001518	0.001731	28.0826	0.088388	0.002054	43.0331	158.131	-166.337	-0.090937	0.833978	-0.193993	-0.195319	-0.053547	43.0331	-0.193060	-101.159	0.000529	NaN
360	1.000000	0.843314	7.36858e+06	-56639.1	955.818	-29738.8	0.000000	0.000000	6.843070	-0.043334	NaN	0.000000	0.001530	0.001707	28.0822	0.018090	0.002014	8.981790	78.7058	-165.384	-0.072811	0.841973	-0.185982	-0.187323	-0.043334	8.981790	-0.182364	-66.9259	0.000647	NaN
360	1.000000	0.851313	7.36858e+06	-56639.1	955.819	-29738.8	0.000000	0.000000	6.851070	-0.001420	NaN	0.000000	0.001556	0.001718	28.0821	0.074326	0.001975	37.6328	-69.2227	-165.834	-0.069938	0.850035	-0.177983	-0.179261	-0.001420	37.6328	-0.177955	-56.3126	2.521935E-5	NaN
360	1.000000	0.859337	7.36859e+06	-56639.1	955.818	-29738.8	0.000000	0.000000	6.859093	-0.014646	NaN	0.000000	0.001526	0.001666	28.0823	0.086474	0.002065	41.8787	-61.2749	-164.499	-0.050355	0.858053	-0.169960	-0.171243	-0.014646	41.8787	-0.169698	-40.5844	0.000361	NaN
360	1.000000	0.867334	7.36859e+06	-56639.1	955.819	-29738.8	0.000000	0.000000	6.867090	-0.042637	NaN	0.000000	0.001540	0.001723	28.0824	0.077402	0.002158	35.8618	-69.8032	-167.512	-0.031174	0.866028	-0.161963	-0.163269	-0.042637	35.8618	-0.161071	-28.6411	0.001489	NaN
360	1.000000	0.875364	7.36859e+06	-56639.1	955.818	-29738.8	0.000000	0.000000	6.875120	-0.015437	NaN	0.000000	0.001482	0.001727	28.0826	0.127346	0.001998	63.7221	7.233556	-167.776	0.027697	0.874069	-0.153933	-0.155228	-0.015437	63.7221	-0.153751	-21.1873	0.000729	NaN
360	1.000000	0.883351	7.36859e+06	-56639.1	955.819	-29738.8	0.000000	0.000000	6.883107	-0.013907	NaN	0.000000	0.001505	0.001720	28.082	0.050196	0.001935	25.9413	101.164	-168.828	-0.030041	0.882028	-0.145946	-0.147269	-0.013907	25.9413	-0.145544	-15.0045	0.000927	NaN
360	1.000000	0.891359	7.36859e+06	-56639.1	955.819	-29738.8	0.000000	0.000000	6.891116	-0.012108	NaN	0.000000	0.001516	0.001765	28.0822	0.066568	0.002104	31.6416	-102.329	-167.993	-0.114041	0.890071	-0.137938	-0.139226	-0.012108	31.6416	-0.137651	-10.6825	0.001133	NaN
360	1.000000	0.899339	7.36859e+06	-56639.1	955.818	-29738.8	0.000000	0.000000	6.899096	-0.016145	NaN	0.000000	0.001534	0.001762	28.0821	0.011605	0.002057	5.641625	-154.457	-165.168	-0.044807	0.898046	-0.129957	-0.131251	-0.016145	5.641625	-0.127811	-6.907555	0.002337	NaN
360	1.000000	0.907356	7.36859e+06	-56639.1	955.819	-29738.8	0.000000	0.000000	6.907114	0.031165	NaN	0.000000	0.001515	0.001764	28.0811	0.011701	0.001957	5.978349	61.8683	-171.399	0.013648	0.906037	-0.121941	-0.123260	0.031165	5.978349	-0.125851	-6.321286	-0.004930	NaN
360	1.000000	0.915369	7.36859e+06	-56639.1	955.819	-29738.8	0.000000	0.000000	6.915124	-0.046623	NaN	0.000000	0.001540	0.001775	28.0811	0.064257	0.002010	31.961	-103.854	-167.749	0.000333	0.914088	-0.113928	-0.115209	-0.046623	31.961	-0.112834	-3.445362	0.013532	NaN
360	1.000000	0.923357	7.36859e+06	-56639.1	955.818	-29738.8	0.000000	0.000000	6.923112	-0.030037	NaN	0.000000	0.001562	0.001746	28.0811	0.027307	0.002002	13.6428	105.148	-164.326	-0.065235	0.922007	-0.105940	-0.107290	-0.030037	13.6428	-0.104289	-2.268749	0.013240	NaN
360	1.000000	0.931354	7.36859e+06	-56639.1	955.818	-29738.8	0.000000	0.000000	6.931111	-0.001301	NaN	0.000000	0.001543	0.001741	28.0813	0.081765	0.001998	40.9276	-142.824	-166.724	0.010611	0.930049	-0.097942	-0.099248	-0.001301	40.9276	-0.097919	-1.642006	0.000792	NaN
360	1.000000	0.939335	7.36859e+06	-56639.1	955.819	-29738.8	0.000000	0.000000	6.939090	-0.061704	NaN	0.000000	0.001527	0.001695	28.081	0.080566	0.001910	42.1861	165.161	-162.611	0.061606	0.938070	-0.089962	-0.091227	-0.061704	42.1861	-0.088865	-1.016448	0.060705	NaN
360	1.000000	0.947368	7.36859e+06	-56639.1	955.818	-29738.8	0.000000	0.000000	6.947125	-0.000181	NaN	0.000000	0.001527	0.001733	28.0812	0.059695	0.002138	27.9155	-29.6257	-167.135	-0.032157	0.946057	-0.081929	-0.083239	-0.000181	27.9155	-0.081924	-0.691012	0.000261	NaN
360	1.000000	0.955349	7.36859e+06	-56639.1	955.818	-29738.8	0.000000	0.000000	6.955110	0.095736	NaN	0.000000	0.001543	0.001728	28.0809	0.023792	0.001978	12.0298	-0.795122	-166.407	0.088814	0.954039	-0.073947	-0.075258	0.095736	12.0298	-0.079916	-0.616006	-0.155415	NaN
360	1.000000	0.963366	7.36859e+06	-56639.1	955.819	-29738.8	0.000000	0.000000	6.963122	-0.032521	NaN	0.000000	0.001599	0.001735	28.0813	0.089085	0.002052	43.4077	-88.1795	-165.708	0.000732	0.962072	-0.065931	-0.067225	-0.032521	43.4077	-0.065369	-0.255150	0.127461	NaN
360	1.000000	0.971373	7.36859e+06	-56639.1	955.819	-29738.8	0.000000	0.000000	6.971128	-0.037630	NaN	0.000000	0.001611	0.001721	28.0812	0.071424	0.002031	35.1676	18.8565	-165.004	-0.068278	0.970085	-0.057924	-0.059212	-0.037630	35.1676	-0.057121	-0.148653	0.253141	NaN
360	1.000000	0.979392	7.36859e+06	-56639.1	955.818	-29738.8	0.000000	0.000000	6.979150	0.024512	NaN	0.000000	0.001586	0.001717	28.0813	0.077837	0.002065	37.6916	128.859	-162.565	0.092879	0.978087	-0.049905	-0.051210	0.024512	37.6916	-0.050393	-0.093780	-0.261381	NaN
360	1.000000	0.987359	7.36859e+06	-56639.1	955.819	-29738.8	0.000000	0.000000	6.987114	-0.053554	NaN	0.000000	0.001571	0.001751	28.0811	0.040611	0.002011	20.1941	57.2758	-166.726	-0.051519	0.986084	-0.041937	-0.043213	-0.053554	20.1941	-0.039948	-0.045059	1.188539	NaN
360	1.000000	0.995390	7.36859e+06	-56639.1	955.819	-29738.8	0.000000	0.000000	6.995149	0.045155	NaN	0.000000	0.001558	0.001735	28.081	0.018485	0.002043	9.049608	-79.4871	-169.848	-0.034008	0.994070	-0.033907	-0.035227	0.045155	9.049608	-0.037649	-0.038399	-1.175938	NaN
360	1.000000	1.003372	7.36859e+06	-56639.1	955.819	-29738.8	0.000000	0.000000	7.003130	0.022886	NaN	0.000000	0.001549	0.001735	28.081	0.046279	0.002064	22.4234	122.353	-166.458	-0.005230	1.002089	-0.025925	-0.027208	0.022886	22.4234	-0.026691	-0.018696	-1.224134	NaN
360	1.000000	1.011401	7.36859e+06	-56639.1	955.819	-29738.8	0.000000	0.000000	7.011157	-0.039076	NaN	0.000000	0.001501	0.001743	28.0812	0.092012	0.002124	43.3188	-90.6294	-164.826	-0.025167	1.010060	-0.017895	-0.019237	-0.039076	43.3188	-0.017219	-0.010651	3.668785	NaN
360	1.000000	1.019358	7.36859e+06	-56639.1	955.819	-29738.8	0.000000	0.000000	7.019115	-0.011598	NaN	0.000000	0.001512	0.001763	28.0812	0.115964	0.001967	58.9677	-173.579	-166.391	-0.020360	1.018094	-0.009939	-0.011203	-0.011598	58.9677	-0.009791	-0.006268	1.850354	NaN
360	1.000000	1.027425	7.36859e+06	-56639.1	955.819	-29738.8	0.000000	0.000000	7.027184	0.059467	NaN	0.000000	0.001501	0.001740	28.0813	0.075220	0.002025	37.1393	-168.149	-171.02	-0.042344	1.026093	-0.001872	-0.003203	0.059467	37.1393	-0.003073	-0.002169	-27.4149	NaN
360	1.000000	1.035383	7.36859e+06	-56639.1	955.818	-29738.8	0.000000	0.000000	7.035335	4.721724	NaN	0.000000	0.001487	0.001759	28.0811	5.331605	0.001745	3054.76	12.904	-172.715	3.203306	1.034027	0.006087	0.004730	4.721724	3054.76	0.004927	0.004067	1160.92	43762.3
360	2.000000	1.040994	7.36859e+06	-56639.1	955.819	-29738.8	0.000000	0.000000	7.041148	9.649429	NaN	0.000000	0.001511	0.001751	28.0824	10.3229	0.001618	6381.8	1.818475	-170.97	8.777112	1.040685	0.011697	0.011389	9.649429	6381.8	0.010563	0.009814	983.21	58855.7
360	2.000000	1.042957	7.36859e+06	-56639.1	955.819	-29738.8	0.000000	0.000000	7.043200	11.8283	NaN	0.000000	0.001531	0.001722	28.0823	11.973	0.001656	7231.56	6.403555	-175.12	10.7557	1.042657	0.013660	0.013360	11.8283	7231.56	0.012433	0.012013	984.616	60280.5
360	2.000000	1.044942	7.36859e+06	-56639.1	955.818	-29738.8	0.000000	0.000000	7.045264	13.7164	NaN	0.000000	0.001517	0.001731	28.0828	14.2193	0.001706	8335.21	4.664205	-174.304	13.5362	1.044643	0.015645	0.015347	13.7164	8335.21	0.014411	0.014508	945.414	63223.8
360	2.000000	1.046963	7.36859e+06	-56639.1	955.818	-29738.8	0.000000	0.000000	7.047389	16.2744	NaN	0.000000	0.001496	0.001713	28.0823	16.7279	0.001833	9127.18	9.154969	-178.234	16.0727	1.046610	0.017666	0.017313	16.2744	9127.18	0.016329	0.017098	951.82	63772.6
360	2.000000	1.048942	7.36859e+06	-56639.1	955.818	-29738.8	0.000000	0.000000	7.049536	20.3485	NaN	0.000000	0.001485	0.001714	28.0823	18.4877	0.001764	10478.5	6.006000	-177.769	20.9047	1.048657	0.019645	0.019360	20.3485	10478.5	0.018189	0.019776	1028.96	68077.5
360	2.000000	1.050946	7.36859e+06	-56639.1	955.819	-29738.8	0.000000	0.000000	7.051623	22.3662	NaN	0.000000	0.001517	0.001728	28.0826	20.8607	0.001908	10933.6	6.614299	-177.765	22.8143	1.050639	0.021649	0.021343	22.3662	10933.6	0.020115	0.022723	984.318	66268.5
360	2.000000	1.052913	7.36859e+06	-56639.1	955.818	-29738.8	0.000000	0.000000	7.053691	24.8329	NaN	0.000000	0.001514	0.001705	28.0823	22.4186	0.001972	11371	8.903411	-179.844	24.215	1.052580	0.023616	0.023284	24.8329	11371	0.021978	0.025746	964.529	64746.5
360	2.000000	1.054947	7.36859e+06	-56639.1	955.819	-29738.8	0.000000	0.000000	7.056090	33.6689	NaN	0.000000	0.001543	0.001715	28.083	23.5652	0.001708	13797	2.019492	-175.351	34.4332	1.054574	0.025651	0.025277	33.6689	13797	0.023820	0.028905	1164.83	74143.5
360	2.000000	1.056952	7.36859e+06	-56639.1	955.819	-29738.8	0.000000	0.000000	7.058224	36.8214	NaN	0.000000	0.001488	0.001731	28.0824	25.632	0.001726	14851.8	5.135356	-179.143	36.5144	1.056568	0.027655	0.027271	36.8214	14851.8	0.025796	0.032479	1133.69	75292.1
360	2.000000	1.058928	7.36859e+06	-56639.1	955.818	-29738.8	0.000000	0.000000	7.060313	39.5632	NaN	0.000000	0.001518	0.001697	28.0823	28.0634	0.001768	15870	9.678084	175.347	41.123	1.058579	0.029632	0.029282	39.5632	15870	0.027762	0.036232	1091.93	76172.9
360	2.000000	1.060898	7.36859e+06	-56639.1	955.818	-29738.8	0.000000	0.000000	7.062354	41.3001	NaN	0.000000	0.001526	0.001726	28.0827	29.6935	0.001857	15991.2	2.731981	-178.379	39.7415	1.060567	0.031601	0.031270	41.3001	15991.2	0.029664	0.040050	1031.21	73004.8
360	2.000000	1.062911	7.36859e+06	-56639.1	955.818	-29738.8	0.000000	0.000000	7.064549	45.7025	NaN	0.000000	0.001535	0.001714	28.0823	31.1935	0.001723	18106.5	6.742484	177.289	46.0114	1.062534	0.033615	0.033237	45.7025	18106.5	0.031722	0.044387	1029.63	78519.4
360	2.000000	1.064889	7.36859e+06	-56639.1	955.818	-29738.8	0.000000	0.000000	7.066814	52.711	NaN	0.000000	0.001531	0.001708	28.0831	33.4157	0.001745	19149.8	4.541667	178.811	52.9028	1.064505	0.035592	0.035209	52.711	19149.8	0.033527	0.048373	1089.68	79549.3
360	2.000000	1.066941	7.36859e+06	-56639.1	955.819	-29738.8	0.000000	0.000000	7.069056	57.2928	NaN	0.000000	0.001537	0.001714	28.0827	36.0223	0.001896	19000.9	7.221211	177.617	56.847	1.066573	0.037645	0.037276	57.2928	19000.9	0.035383	0.052642	1088.35	75662.7
360	2.000000	1.068862	7.36859e+06	-56639.1	955.819	-29738.8	0.000000	0.000000	7.071317	65.578	NaN	0.000000	0.001543	0.001729	28.0823	36.6921	0.001738	21108.2	6.051440	175.767	64.287	1.068571	0.039565	0.039274	65.578	21108.2	0.037235	0.057078	1148.92	80721.8
360	2.000000	1.070913	7.36859e+06	-56639.1	955.82	-29738.8	0.000000	0.000000	7.073476	68.1805	NaN	0.000000	0.001562	0.001739	28.0826	39.3266	0.001767	22256.9	3.905100	178.405	69.8295	1.070591	0.041617	0.041294	68.1805	22256.9	0.039319	0.062281	1094.73	81482.1
360	2.000000	1.072941	7.36859e+06	-56639.1	955.82	-29738.8	0.000000	0.000000	7.075700	72.9656	NaN	0.000000	0.001551	0.001729	28.0824	40.2785	0.001774	22704.5	3.133611	178.566	77.5805	1.072623	0.043644	0.043326	72.9656	22704.5	0.041234	0.067256	1084.89	79986.6
360	2.000000	1.074826	7.36859e+06	-56639.1	955.819	-29738.8	0.000000	0.000000	7.077953	81.9104	NaN	0.000000	0.001651	0.001719	28.0815	42.9804	0.001737	24744.2	4.300802	176.559	78.2946	1.074537	0.045530	0.045240	81.9104	24744.2	0.043047	0.072140	1135.44	84170.3
360	2.000000	1.076867	7.36859e+06	-56639.1	955.819	-29738.8	0.000000	0.000000	7.080308	89.5454	NaN	0.000000	0.001641	0.001727	28.0813	45.7873	0.001887	24264.5	5.591111	175.431	87.8722	1.076520	0.047571	0.047224	89.5454	24264.5	0.044803	0.077028	1162.5	79876.6
360	2.000000	1.078891	7.36859e+06	-56639.1	955.82	-29738.8	0.000000	0.000000	7.082525	94.2317	NaN	0.000000	0.001582	0.001729	28.0813	47.75	0.001881	25386.5	4.314214	176.635	95.1219	1.078507	0.049594	0.049211	94.2317	25386.5	0.046810	0.082809	1137.94	80600.4
360	2.000000	1.080808	7.36859e+06	-56639.1	955.819	-29738.8	0.000000	0.000000	7.084975	107.204	NaN	0.000000	0.001601	0.001744	28.0816	49.2151	0.001752	28089.3	6.656334	173.38	104.503	1.080468	0.051511	0.051171	107.204	28089.3	0.048649	0.088282	1214.34	86373.1
360	2.000000	1.082892	7.36859e+06	-56639.1	955.819	-29738.8	0.000000	0.000000	7.087069	107.427	NaN	0.000000	0.001501	0.001761	28.0811	50.4532	0.001782	28314.3	5.249403	174.872	109.514	1.082583	0.053595	0.053286	107.427	28314.3	0.050750	0.094745	1133.86	84042.7
360	2.000000	1.084885	7.36859e+06	-56639.1	955.819	-29738.8	0.000000	0.000000	7.089599	120.472	NaN	0.000000	0.001510	0.001743	28.0815	52.5939	0.001627	32325.1	1.835690	176.664	121.258	1.084554	0.055588	0.055257	120.472	32325.1	0.052793	0.101242	1189.94	92818.1
360	2.000000	1.086998	7.36859e+06	-56639.1	955.819	-29738.8	0.000000	0.000000	7.091923	125.62	NaN	0.000000	0.001514	0.001791	28.0814	56.6814	0.001833	30924.6	7.930135	172.585	128.391	1.086493	0.057701	0.057197	125.62	30924.6	0.054654	0.107341	1170.29	86237.1
360	2.000000	1.088776	7.36859e+06	-56639.1	955.82	-29738.8	0.000000	0.000000	7.094305	140.312	NaN	0.000000	0.001539	0.001756	28.0812	57.928	0.001921	30148.8	3.122193	176.33	138.253	1.088521	0.059479	0.059224	140.312	30148.8	0.055988	0.111817	1254.84	82373.9
360	2.000000	1.090881	7.36859e+06	-56639.1	955.819	-29738.8	0.000000	0.000000	7.096659	146.348	NaN	0.000000	0.001507	0.001743	28.0815	60.8564	0.001817	33490	4.273816	174.53	148.038	1.090558	0.061584	0.061261	146.348	33490	0.058307	0.119806	1221.54	88399.4
360	2.000000	1.092776	7.36859e+06	-56639.1	955.819	-29738.8	0.000000	0.000000	7.099082	159.182	NaN	0.000000	0.001509	0.001743	28.0812	61.5988	0.001821	33817.7	5.995936	172.176	156.252	1.092520	0.063479	0.063223	159.182	33817.7	0.059948	0.125624	1267.14	87173
360	2.000000	1.094849	7.36859e+06	-56639.1	955.82	-29738.8	0.000000	0.000000	7.101580	169.508	NaN	0.000000	0.001520	0.001699	28.0816	63.5473	0.001711	37147.5	5.753498	171.91	168.827	1.094463	0.065553	0.065166	169.508	37147.5	0.062130	0.133558	1269.18	92868.5
360	2.000000	1.096929	7.36859e+06	-56639.1	955.819	-29738.8	0.000000	0.000000	7.103925	175.947	NaN	0.000000	0.001478	0.001715	28.0814	65.8771	0.001888	34895.6	5.054511	173.928	177.684	1.096602	0.067632	0.067305	175.947	34895.6	0.063851	0.139978	1256.97	85214.7
360	2.000000	1.098768	7.36859e+06	-56639.1	955.82	-29738.8	0.000000	0.000000	7.106072	183.439	NaN	0.000000	0.001575	0.001740	28.0812	67.9268	0.001816	37411	5.584848	171.116	180.348	1.098652	0.069471	0.069356	183.439	37411	0.065794	0.147400	1244.5	89027.3
360	2.000000	1.100885	7.36859e+06	-56639.1	955.819	-29738.8	0.000000	0.000000	7.108898	200.657	NaN	0.000000	0.001544	0.001741	28.0816	70.5601	0.001818	38819.9	7.973508	169.197	201.87	1.100473	0.071588	0.071176	200.657	38819.9	0.067712	0.154904	1295.36	90114.7
360	2.000000	1.102835	7.36859e+06	-56639.1	955.819	-29738.8	0.000000	0.000000	7.111368	213.302	NaN	0.000000	0.001563	0.001739	28.0814	70.9447	0.001769	40105.3	3.651567	173.64	213.09	1.102490	0.073539	0.073193	213.302	40105.3	0.069550	0.162261	1314.56	90963.5
360	2.000000	1.104812	7.36859e+06	-56639.1	955.82	-29738.8	0.000000	0.000000	7.113930	227.545	NaN	0.000000	0.001538	0.001704	28.0814	72.7308	0.001727	42116.9	7.903894	169.117	226.837	1.104530	0.075515	0.075234	227.545	42116.9	0.071463	0.170089	1337.8	93302
360	2.000000	1.106909	7.36859e+06	-56639.1	955.818	-29738.8	0.000000	0.000000	7.116467	238.223	NaN	0.000000	0.001538	0.001694	28.0812	76.0368	0.001929	39413.2	10.1041	168.68	241.499	1.106455	0.077612	0.077158	238.223	39413.2	0.073079	0.176837	1347.13	85630.4
360	2.000000	1.108753	7.36859e+06	-56639.1	955.818	-29738.8	0.000000	0.000000	7.118714	248.026	NaN	0.000000	0.001536	0.001727	28.0825	76.3697	0.001834	41641.9	2.074870	174.659	244.597	1.108534	0.079456	0.079237	248.026	41641.9	0.074989	0.184971	1340.89	88461
360	2.000000	1.110851	7.36859e+06	-56639.1	955.819	-29738.8	0.000000	0.000000	7.121041	253.587	NaN	0.000000	0.001529	0.001726	28.0827	78.7725	0.001753	44925.9	3.237988	173.022	256.672	1.110475	0.081554	0.081178	253.587	44925.9	0.077320	0.195135	1299.55	92918.5
360	2.000000	1.112892	7.36859e+06	-56639.1	955.819	-29738.8	0.000000	0.000000	7.123899	273.446	NaN	0.000000	0.001498	0.001691	28.0824	79.5389	0.001744	45616.9	9.032406	168.023	276.363	1.112531	0.083595	0.083234	273.446	45616.9	0.079099	0.203060	1346.63	92488.3
360	2.000000	1.114798	7.36859e+06	-56639.1	955.819	-29738.8	0.000000	0.000000	7.126414	288.246	NaN	0.000000	0.001483	0.001732	28.0824	82.5148	0.001805	45706.8	6.493330	170.281	287.365	1.114417	0.085501	0.085120	288.246	45706.8	0.080771	0.210643	1368.41	90987.4
360	2.000000	1.116835	7.36859e+06	-56639.1	955.819	-29738.8	0.000000	0.000000	7.129034	302.421	NaN	0.000000	0.001555	0.001725	28.0823	84.5949	0.001863	45407.6	5.814123	170.597	301.22	1.116497	0.087538	0.087200	302.421	45407.6	0.082543	0.218820	1382.05	88686.6
360	2.000000	1.118710	7.36859e+06	-56639.1	955.819	-29738.8	0.000000	0.000000	7.131367	313.542	NaN	0.000000	0.001555	0.001759	28.0823	85.2651	0.001854	45980.9	0.370581	175.538	307.523	1.118526	0.089414	0.089229	313.542	45980.9	0.084299	0.227071	1380.81	88159.7
360	2.000000	1.120794	7.36859e+06	-56639.1	955.819	-29738.8	0.000000	0.000000	7.133803	322.103	NaN	0.000000	0.001563	0.001705	28.0824	87.4334	0.001822	47989.2	0.902961	174.8	321.738	1.120591	0.091497	0.091294	322.103	47989.2	0.086463	0.237430	1356.62	89980.8
360	2.000000	1.122797	7.36859e+06	-56639.1	955.818	-29738.8	0.000000	0.000000	7.136665	342.973	NaN	0.000000	0.001565	0.001734	28.0822	87.9946	0.001636	53792	4.181562	170.68	341.758	1.122380	0.093500	0.093083	342.973	53792	0.088719	0.248459	1380.4	98596.9
360	2.000000	1.124801	7.36859e+06	-56639.1	955.819	-29738.8	0.000000	0.000000	7.139380	360.259	NaN	0.000000	0.001554	0.001730	28.0826	91.2008	0.001792	50906.9	3.647616	171.867	358.744	1.124401	0.095504	0.095105	360.259	50906.9	0.090196	0.255812	1408.3	91957.9
360	2.000000	1.126707	7.36859e+06	-56639.1	955.819	-29738.8	0.000000	0.000000	7.141970	376.903	NaN	0.000000	0.001521	0.001720	28.0824	92.9969	0.001876	49562.5	2.571529	173.319	369.724	1.126448	0.097410	0.097151	376.903	49562.5	0.091706	0.263429	1430.76	88225.6
360	2.000000	1.128850	7.36859e+06	-56639.1	955.819	-29738.8	0.000000	0.000000	7.144527	386.934	NaN	0.000000	0.001560	0.001738	28.0824	94.4383	0.001770	53367.2	6.104074	169.916	388.234	1.128372	0.099553	0.099075	386.934	53367.2	0.094116	0.275797	1402.97	92843.8
360	2.000000	1.130819	7.36859e+06	-56639.1	955.819	-29738.8	0.000000	0.000000	7.147224	404.649	NaN	0.000000	0.001555	0.001723	28.0825	96.357	0.001734	55565	1.994813	172.75	405.011	1.130390	0.101522	0.101093	404.649	55565	0.096060	0.285974	1414.99	94931.8
360	2.000000	1.132805	7.36859e+06	-56639.1	955.819	-29738.8	0.000000	0.000000	7.149710	416.798	NaN	0.000000	0.001543	0.001756	28.0822	97.5102	0.001864	52320.2	4.477418	171.137	415.294	1.132489	0.103508	0.103192	416.798	52320.2	0.097534	0.293798	1418.65	88189.7
360	2.000000	1.134783	7.36859e+06	-56639.1	955.819	-29738.8	0.000000	0.000000	7.152328	432.361	NaN	0.000000	0.001515	0.001728	28.0825	100.667	0.001720	58532	5.227548	169.428	431.559	1.134416	0.105486	0.105119	432.361	58532	0.099946	0.306826	1409.14	96542.9
360	2.000000	1.136818	7.36859e+06	-56639.1	955.82	-29738.8	0.000000	0.000000	7.155079	449.758	NaN	0.000000	0.001536	0.001726	28.0823	102.516	0.001786	57407.4	4.526608	170.274	448.905	1.136476	0.107521	0.107179	449.758	57407.4	0.101645	0.316158	1422.58	93280.2
360	2.000000	1.138788	7.36859e+06	-56639.1	955.819	-29738.8	0.000000	0.000000	7.157802	468.076	NaN	0.000000	0.001524	0.001701	28.0826	103.929	0.001733	59979.8	6.753673	167.714	467.211	1.138411	0.109491	0.109114	468.076	59979.8	0.103638	0.327272	1430.23	95790.8