File: remote_trans/data/nanoindenter/0828-1/data/Data_2025-08-06,11h17m57s/2025-07-22_16-23-58_1_652.txt
2025-07-22, 16:23:58, 1
Index	Phase	Displacement	Time	Pos X	Pos Y	Pos Z	Rot A	Rot B	Piezo Z	Force A	Force B	Gripper	Voltage A	Voltage B	Temperature	Amplitude force	Amplitude pos	Stiffness	Phase shift	Phase excitation	Force A raw	Displacement raw	HMax	HMax raw	Real Force	Real Stiffness	Contact Depth	Area	Hardness	Reduced Mod.
[#]	[#]	[um]	[s]	[um]	[um]	[um]	[m°]	[m°]	[um]	[uN]	[uN]	[V]	[V]	[V]	[°C]	[uN]	[um]	[N/m]	[°]	[°]	[uN]	[um]	[um]	[um]	[uN]	[N/m]	[um]	[um^2]	[MPa]	[MPa]
652	1.000000	0.002850	7.37143e+06	-44489.1	1005.82	-29775.7	0.000000	0.000000	6.002798	0.048773	NaN	0.000000	0.001603	0.001731	28.0838	0.055955	0.001052	53.1847	112.372	-159.58	0.069073	0.001598	-1.095321	-1.096572	0.048773	53.1847	-1.096008	-4.430791E+14	-1.100767E-16	NaN
652	1.000000	0.012903	7.37143e+06	-44489.1	1005.82	-29775.7	0.000000	0.000000	6.012852	0.059013	NaN	0.000000	0.001594	0.001760	28.0838	0.067855	0.001294	52.4334	8.646702	21.4096	0.088843	0.011393	-1.085268	-1.086777	0.059013	52.4334	-1.086112	-3.262869E+14	-1.808631E-16	NaN
652	1.000000	0.022766	7.37143e+06	-44489.1	1005.82	-29775.7	0.000000	0.000000	6.022715	0.044705	NaN	0.000000	0.001623	0.001767	28.0838	0.150481	0.001706	88.2177	122.103	-164.216	-0.023906	0.021514	-1.075404	-1.076656	0.044705	88.2177	-1.075784	-2.370788E+14	-1.885656E-16	NaN
652	1.000000	0.032800	7.37143e+06	-44489.1	1005.82	-29775.7	0.000000	0.000000	6.032746	-0.010033	NaN	0.000000	0.001627	0.001740	28.0835	0.032147	0.001906	16.8663	176.892	17.8654	-0.034471	0.031496	-1.065370	-1.066675	-0.010033	16.8663	-1.064924	-1.694301E+14	5.921566E-17	NaN
652	1.000000	0.042800	7.37143e+06	-44489.1	1005.82	-29775.7	0.000000	0.000000	6.042743	-0.077166	NaN	0.000000	0.001608	0.001735	28.0835	0.074772	0.002133	35.0564	-144.237	-165.313	-0.066158	0.041510	-1.055370	-1.056660	-0.077166	35.0564	-1.053719	-1.197874E+14	6.441916E-16	NaN
652	1.000000	0.052787	7.37143e+06	-44489.1	1005.82	-29775.7	0.000000	0.000000	6.052735	0.037008	NaN	0.000000	0.001599	0.001790	28.084	0.107097	0.001975	54.2359	-101.456	13.3585	0.019393	0.051436	-1.045384	-1.046734	0.037008	54.2359	-1.045896	-9.402332E+13	-3.936024E-16	NaN
652	1.000000	0.062768	7.37143e+06	-44489.1	1005.82	-29775.7	0.000000	0.000000	6.062718	0.081122	NaN	0.000000	0.001584	0.001716	28.0837	0.084010	0.001962	42.8114	169.116	-164.528	-0.055063	0.061524	-1.035403	-1.036646	0.081122	42.8114	-1.036824	-7.099986E+13	-1.142564E-15	NaN
652	1.000000	0.072770	7.37143e+06	-44489.1	1005.82	-29775.7	0.000000	0.000000	6.072717	0.015801	NaN	0.000000	0.001629	0.001715	28.0835	0.110535	0.002014	54.8827	-179.726	16.5246	0.102647	0.071498	-1.025401	-1.026672	0.015801	54.8827	-1.025616	-5.017821E+13	-3.149072E-16	NaN
652	1.000000	0.082870	7.37143e+06	-44489.1	1005.82	-29775.7	0.000000	0.000000	6.082818	0.011598	NaN	0.000000	0.001624	0.001774	28.0837	0.022891	0.002103	10.8837	-53.2925	-165.239	-0.004866	0.081508	-1.015300	-1.016663	0.011598	10.8837	-1.016099	-3.736475E+13	-3.103878E-16	NaN
652	1.000000	0.092791	7.37143e+06	-44489.1	1005.82	-29775.7	0.000000	0.000000	6.092735	-0.061374	NaN	0.000000	0.001643	0.001727	28.0839	0.062969	0.002156	29.2115	68.6297	18.9156	-0.033447	0.091479	-1.005379	-1.006692	-0.061374	29.2115	-1.003803	-2.552536E+13	2.404426E-15	NaN
652	1.000000	0.102819	7.37143e+06	-44489.1	1005.82	-29775.7	0.000000	0.000000	6.102766	0.001620	NaN	0.000000	0.001665	0.001764	28.0837	0.097665	0.002059	47.4267	-155.115	-164.32	-0.003249	0.101518	-0.995351	-0.996653	0.001620	47.4267	-0.995377	-1.965712E+13	-8.241447E-17	NaN
652	1.000000	0.112829	7.37143e+06	-44489.1	1005.82	-29775.7	0.000000	0.000000	6.112773	-0.070207	NaN	0.000000	0.001624	0.001714	28.0836	0.095422	0.002065	46.2019	69.2624	14.2435	-0.020895	0.111493	-0.985341	-0.986678	-0.070207	46.2019	-0.984201	-1.389984E+13	5.050933E-15	NaN
652	1.000000	0.122855	7.37143e+06	-44489.1	1005.82	-29775.7	0.000000	0.000000	6.122800	-0.054601	NaN	0.000000	0.001666	0.001706	28.0837	0.021817	0.002089	10.4442	118.946	-166.16	-0.070397	0.121541	-0.975315	-0.976629	-0.054601	10.4442	-0.971394	-9.342212E+12	5.844518E-15	NaN
652	1.000000	0.132828	7.37143e+06	-44489.1	1005.82	-29775.7	0.000000	0.000000	6.132777	0.064201	NaN	0.000000	0.001664	0.001705	28.0837	0.090731	0.002005	45.2446	-172.65	13.498	0.064712	0.131492	-0.965343	-0.966679	0.064201	45.2446	-0.966407	-8.002673E+12	-8.022450E-15	NaN
652	1.000000	0.142827	7.37143e+06	-44489.1	1005.82	-29775.7	0.000000	0.000000	6.142776	0.036817	NaN	0.000000	0.001645	0.001732	28.0824	0.052250	0.001916	27.2696	-126.655	-164.462	0.038374	0.141499	-0.955343	-0.956672	0.036817	27.2696	-0.956355	-5.857744E+12	-6.285204E-15	NaN
652	1.000000	0.152838	7.37143e+06	-44489.1	1005.82	-29775.7	0.000000	0.000000	6.152785	-0.005261	NaN	0.000000	0.001663	0.001715	28.0823	0.041574	0.001897	21.9155	28.1453	15.2008	-0.087681	0.151484	-0.945332	-0.946686	-0.005261	21.9155	-0.945152	-4.136558E+12	1.271721E-15	NaN
652	1.000000	0.162847	7.37143e+06	-44489.1	1005.82	-29775.7	0.000000	0.000000	6.162793	-0.003171	NaN	0.000000	0.001669	0.001701	28.0824	0.094849	0.001882	50.39	178.065	-164.675	0.046616	0.161505	-0.935323	-0.936665	-0.003171	50.39	-0.935276	-3.043695E+12	1.041745E-15	NaN
652	1.000000	0.172888	7.37143e+06	-44489.1	1005.82	-29775.7	0.000000	0.000000	6.172833	-0.043365	NaN	0.000000	0.001622	0.001690	28.082	0.093492	0.001993	46.9201	-152.062	15.6558	-0.021265	0.171445	-0.925283	-0.926725	-0.043365	46.9201	-0.924589	-2.183560E+12	1.985960E-14	NaN
652	1.000000	0.182853	7.37143e+06	-44489.1	1005.82	-29775.7	0.000000	0.000000	6.182801	0.033934	NaN	0.000000	0.001643	0.001686	28.0821	0.100846	0.002179	46.284	-51.2522	-165.934	0.088334	0.181555	-0.915317	-0.916615	0.033934	46.284	-0.915867	-1.664957E+12	-2.038132E-14	NaN
652	1.000000	0.192865	7.37143e+06	-44489.1	1005.82	-29775.7	0.000000	0.000000	6.192811	-0.017297	NaN	0.000000	0.001635	0.001744	28.0821	0.021763	0.002011	10.8197	149.99	18.2803	-0.017915	0.191446	-0.905305	-0.906725	-0.017297	10.8197	-0.904106	-1.154897E+12	1.497705E-14	NaN
652	1.000000	0.202886	7.37143e+06	-44489.1	1005.82	-29775.7	0.000000	0.000000	6.202829	-0.088064	NaN	0.000000	0.001632	0.001691	28.0822	0.053365	0.001975	27.0171	-37.3251	-165.161	0.008892	0.201567	-0.895284	-0.896604	-0.088064	27.0171	-0.892839	-8.133792E+11	1.082691E-13	NaN
652	1.000000	0.212891	7.37143e+06	-44489.1	1005.82	-29775.7	0.000000	0.000000	6.212840	0.064668	NaN	0.000000	0.001605	0.001715	28.0821	0.094926	0.001886	50.3186	120.417	13.0892	0.093204	0.211466	-0.885280	-0.886704	0.064668	50.3186	-0.886244	-6.624199E+11	-9.762351E-14	NaN
652	1.000000	0.222897	7.37143e+06	-44489.1	1005.82	-29775.7	0.000000	0.000000	6.222845	0.031683	NaN	0.000000	0.001613	0.001720	28.0823	0.090215	0.001934	46.6425	-102.855	-165.384	0.037423	0.221576	-0.875273	-0.876594	0.031683	46.6425	-0.875783	-4.782670E+11	-6.624628E-14	NaN
652	1.000000	0.232876	7.37143e+06	-44489.1	1005.82	-29775.7	0.000000	0.000000	6.232824	0.015435	NaN	0.000000	0.001635	0.001740	28.0826	0.041949	0.001987	21.1126	87.3149	12.0471	0.068246	0.231478	-0.865294	-0.866693	0.015435	21.1126	-0.865842	-3.509027E+11	-4.398670E-14	NaN
652	1.000000	0.242880	7.37143e+06	-44489.1	1005.82	-29775.7	0.000000	0.000000	6.242826	-0.001463	NaN	0.000000	0.001640	0.001738	28.0827	0.017860	0.002018	8.849473	-69.7963	-164.78	0.033454	0.241575	-0.855290	-0.856595	-0.001463	8.849473	-0.855166	-2.515879E+11	5.815293E-15	NaN
652	1.000000	0.252896	7.37143e+06	-44489.1	1005.82	-29775.7	0.000000	0.000000	6.252841	-0.039257	NaN	0.000000	0.001611	0.001754	28.0824	0.077928	0.001900	41.0102	-171.512	14.307	-0.026238	0.251525	-0.845274	-0.846646	-0.039257	41.0102	-0.844556	-1.807239E+11	2.172212E-13	NaN
652	1.000000	0.262913	7.37143e+06	-44489.1	1005.82	-29775.7	0.000000	0.000000	6.262863	0.074677	NaN	0.000000	0.001582	0.001710	28.0826	0.051906	0.002047	25.3571	-163.701	-167.001	0.037073	0.261537	-0.835257	-0.836633	0.074677	25.3571	-0.837466	-1.448643E+11	-5.154963E-13	NaN
652	1.000000	0.272856	7.37143e+06	-44489.1	1005.82	-29775.7	0.000000	0.000000	6.272803	-0.007872	NaN	0.000000	0.001639	0.001700	28.0825	0.094472	0.001820	51.911	-150.656	11.6857	-0.046190	0.271480	-0.825314	-0.826690	-0.007872	51.911	-0.825200	-9.879201E+10	7.968060E-14	NaN
652	1.000000	0.282907	7.37143e+06	-44489.1	1005.82	-29775.7	0.000000	0.000000	6.282855	0.028183	NaN	0.000000	0.001657	0.001751	28.0836	0.036397	0.002130	17.0858	-13.9309	-164.811	0.014749	0.281649	-0.815263	-0.816522	0.028183	17.0858	-0.816500	-7.529172E+10	-3.743171E-13	NaN
652	1.000000	0.292910	7.37143e+06	-44489.1	1005.82	-29775.7	0.000000	0.000000	6.292856	-0.020420	NaN	0.000000	0.001654	0.001731	28.0837	0.143487	0.001960	73.2049	20.2732	15.8407	-0.003042	0.291512	-0.805260	-0.806658	-0.020420	73.2049	-0.805051	-5.265260E+10	3.878262E-13	NaN
652	1.000000	0.302897	7.37143e+06	-44489.1	1005.82	-29775.7	0.000000	0.000000	6.302844	0.000927	NaN	0.000000	0.001610	0.001723	28.0839	0.042329	0.002082	20.3328	126.699	-164.043	0.075513	0.301595	-0.795273	-0.796575	0.000927	20.3328	-0.795307	-3.882906E+10	-2.387820E-14	NaN
652	1.000000	0.312891	7.37143e+06	-44489.1	1005.82	-29775.7	0.000000	0.000000	6.312834	-0.089133	NaN	0.000000	0.001666	0.001739	28.0835	0.061941	0.001984	31.2174	167.262	13.1219	-0.075860	0.311527	-0.785279	-0.786643	-0.089133	31.2174	-0.783137	-2.653764E+10	3.358726E-12	NaN
652	1.000000	0.322910	7.37143e+06	-44489.1	1005.82	-29775.7	0.000000	0.000000	6.322856	-0.019484	NaN	0.000000	0.001678	0.001757	28.0835	0.160038	0.002031	78.7835	-142.823	-163.442	0.077060	0.321612	-0.775260	-0.776559	-0.019484	78.7835	-0.775074	-2.062005E+10	9.448868E-13	NaN
652	1.000000	0.332933	7.37143e+06	-44489.1	1005.82	-29775.7	0.000000	0.000000	6.332881	0.022927	NaN	0.000000	0.001645	0.001734	28.0837	0.093833	0.001923	48.7918	-156.822	14.4154	0.015231	0.331624	-0.765237	-0.766546	0.022927	48.7918	-0.765590	-1.532262E+10	-1.496307E-12	NaN
652	1.000000	0.342919	7.37143e+06	-44489.1	1005.82	-29775.7	0.000000	0.000000	6.342866	0.004475	NaN	0.000000	0.001699	0.001750	28.0834	0.075688	0.001966	38.5075	-73.8627	-160.788	-0.004194	0.341595	-0.755251	-0.756575	0.004475	38.5075	-0.755338	-1.111407E+10	-4.026621E-13	NaN
652	1.000000	0.352882	7.37143e+06	-44489.1	1005.82	-29775.7	0.000000	0.000000	6.352830	0.041388	NaN	0.000000	0.001727	0.001742	28.0836	0.063380	0.001943	32.6168	141.826	13.2069	0.065348	0.351561	-0.745289	-0.746609	0.041388	32.6168	-0.746240	-8.356744E+9	-4.952629E-12	NaN
652	1.000000	0.362914	7.37143e+06	-44489.1	1005.82	-29775.7	0.000000	0.000000	6.362860	-0.011280	NaN	0.000000	0.001645	0.001742	28.0833	0.071984	0.002009	35.8315	48.5881	-161.95	0.038154	0.361646	-0.735257	-0.736524	-0.011280	35.8315	-0.735021	-5.877923E+9	1.919124E-12	NaN
652	1.000000	0.372939	7.37143e+06	-44489.1	1005.82	-29775.7	0.000000	0.000000	6.372888	0.055106	NaN	0.000000	0.001653	0.001706	28.0836	0.043782	0.002062	21.2371	71.6605	15.4622	0.018573	0.371560	-0.725232	-0.726611	0.055106	21.2371	-0.727178	-4.595556E+9	-1.199123E-11	NaN
652	1.000000	0.382909	7.37143e+06	-44489.1	1005.82	-29775.7	0.000000	0.000000	6.382855	-0.020431	NaN	0.000000	0.001676	0.001693	28.0833	0.115079	0.001961	58.6856	160.9	-167.483	-0.030735	0.381615	-0.715261	-0.716556	-0.020431	58.6856	-0.715000	-3.135269E+9	6.516456E-12	NaN
652	1.000000	0.392924	7.37143e+06	-44489.1	1005.82	-29775.7	0.000000	0.000000	6.392873	0.059292	NaN	0.000000	0.001639	0.001686	28.0835	0.097560	0.002112	46.2039	-133.989	14.7382	0.118225	0.391629	-0.705246	-0.706541	0.059292	46.2039	-0.706209	-2.378501E+9	-2.492831E-11	NaN
652	1.000000	0.402939	7.37143e+06	-44489.1	1005.82	-29775.7	0.000000	0.000000	6.402887	0.039352	NaN	0.000000	0.001669	0.001702	28.0834	0.028267	0.002081	13.5814	-94.2751	-166.319	0.033517	0.401662	-0.695232	-0.696508	0.039352	13.5814	-0.697405	-1.803366E+9	-2.182117E-11	NaN
652	1.000000	0.412939	7.37143e+06	-44489.1	1005.82	-29775.7	0.000000	0.000000	6.412888	0.051274	NaN	0.000000	0.001671	0.001615	28.0826	0.129971	0.002039	63.7531	-51.9098	15.8659	-0.022612	0.411556	-0.685231	-0.686615	0.051274	63.7531	-0.685834	-1.253071E+9	-4.091839E-11	NaN
652	1.000000	0.422936	7.37143e+06	-44489.1	1005.82	-29775.7	0.000000	0.000000	6.422885	0.035973	NaN	0.000000	0.001636	0.001629	28.0824	0.055091	0.001773	31.0661	-65.068	-166.496	0.061691	0.421641	-0.675234	-0.676530	0.035973	31.0661	-0.676102	-9.223423E+8	-3.900193E-11	NaN
652	1.000000	0.432972	7.37143e+06	-44489.1	1005.82	-29775.7	0.000000	0.000000	6.432918	-0.007239	NaN	0.000000	0.001676	0.001589	28.0825	0.059112	0.002033	29.0772	116.562	16.0999	0.089237	0.431593	-0.665199	-0.666577	-0.007239	29.0772	-0.665012	-6.502914E+8	1.113120E-11	NaN
652	1.000000	0.442947	7.37143e+06	-44489.1	1005.82	-29775.7	0.000000	0.000000	6.442895	0.046489	NaN	0.000000	0.001653	0.001583	28.0824	0.032908	0.001921	17.132	111.171	-161.57	0.103014	0.441669	-0.655224	-0.656502	0.046489	17.132	-0.657259	-5.092355E+8	-9.129115E-11	NaN
652	1.000000	0.452956	7.37143e+06	-44489.1	1005.82	-29775.7	0.000000	0.000000	6.452904	0.045443	NaN	0.000000	0.001647	0.001646	28.0825	0.123485	0.001888	65.4158	-64.0043	15.3143	0.005185	0.451641	-0.645215	-0.646529	0.045443	65.4158	-0.645736	-3.539697E+8	-1.283807E-10	NaN
652	1.000000	0.462958	7.37143e+06	-44489.1	1005.82	-29775.7	0.000000	0.000000	6.462908	0.081293	NaN	0.000000	0.001635	0.001631	28.082	0.046304	0.001870	24.7654	112.025	-165.773	-0.025501	0.461688	-0.635212	-0.636482	0.081293	24.7654	-0.637674	-2.743930E+8	-2.962657E-10	NaN
652	1.000000	0.472976	7.37143e+06	-44489.1	1005.82	-29775.7	0.000000	0.000000	6.472923	0.012978	NaN	0.000000	0.001655	0.001650	28.0823	0.040543	0.001919	21.1253	55.8263	15.1305	0.029473	0.471639	-0.625195	-0.626532	0.012978	21.1253	-0.625655	-1.876492E+8	-6.916083E-11	NaN
652	1.000000	0.482964	7.37143e+06	-44489.1	1005.82	-29775.7	0.000000	0.000000	6.482914	0.068592	NaN	0.000000	0.001631	0.001639	28.0823	0.059792	0.002129	28.0795	146.676	-164.959	0.122532	0.481679	-0.615206	-0.616491	0.068592	28.0795	-0.617038	-1.428608E+8	-4.801319E-10	NaN
652	1.000000	0.492996	7.37143e+06	-44489.1	1005.82	-29775.7	0.000000	0.000000	6.492946	0.068146	NaN	0.000000	0.001644	0.001659	28.0824	0.034062	0.002000	17.0307	-149.991	16.3831	0.082833	0.491643	-0.605174	-0.606527	0.068146	17.0307	-0.608175	-1.078947E+8	-6.315958E-10	NaN
652	1.000000	0.503007	7.37143e+06	-44489.1	1005.82	-29775.7	0.000000	0.000000	6.502952	-0.034532	NaN	0.000000	0.001649	0.001639	28.0821	0.033038	0.002120	15.5825	-141.338	-164.371	0.008056	0.501669	-0.595164	-0.596501	-0.034532	15.5825	-0.593502	-6.775346E+7	5.096709E-10	NaN
652	1.000000	0.512995	7.37143e+06	-44489.1	1005.82	-29775.7	0.000000	0.000000	6.512944	0.072208	NaN	0.000000	0.001692	0.001645	28.0823	0.009207	0.001962	4.693152	-167.06	15.7861	0.023547	0.511678	-0.585176	-0.586493	0.072208	4.693152	-0.596715	-7.502560E+7	-9.624449E-10	NaN
652	1.000000	0.522980	7.37143e+06	-44489.1	1005.82	-29775.7	0.000000	0.000000	6.522928	0.037208	NaN	0.000000	0.001654	0.001634	28.0821	0.068501	0.002138	32.043	35.8252	-163.121	0.020310	0.521701	-0.575191	-0.576469	0.037208	32.043	-0.576062	-3.893648E+7	-9.556167E-10	NaN
652	1.000000	0.533021	7.37143e+06	-44489.1	1005.82	-29775.7	0.000000	0.000000	6.532966	-0.031043	NaN	0.000000	0.001644	0.001651	28.0822	0.085196	0.001984	42.9477	-134.385	15.2889	-0.036829	0.531641	-0.565150	-0.566529	-0.031043	42.9477	-0.564608	-2.704587E+7	1.147775E-9	NaN
652	1.000000	0.543021	7.37143e+06	-44489.1	1005.82	-29775.7	0.000000	0.000000	6.542967	-0.025418	NaN	0.000000	0.001651	0.001666	28.082	0.090718	0.002069	43.8396	91.9873	-166.238	0.002529	0.541727	-0.555149	-0.556444	-0.025418	43.8396	-0.554715	-1.973498E+7	1.287963E-9	NaN
652	1.000000	0.552999	7.37143e+06	-44489.1	1005.82	-29775.7	0.000000	0.000000	6.552946	0.007678	NaN	0.000000	0.001661	0.001640	28.0837	0.075829	0.001890	40.1175	107.504	14.7226	0.014402	0.551649	-0.545172	-0.546521	0.007678	40.1175	-0.545315	-1.462339E+7	-5.250414E-10	NaN
652	1.000000	0.563053	7.37143e+06	-44489.1	1005.82	-29775.7	0.000000	0.000000	6.562999	-0.003187	NaN	0.000000	0.001666	0.001668	28.083	0.047602	0.002074	22.9563	-125.465	-164.92	0.039517	0.561692	-0.535118	-0.536478	-0.003187	22.9563	-0.535014	-1.052395E+7	3.028429E-10	NaN
652	1.000000	0.573021	7.37143e+06	-44489.1	1005.82	-29775.7	0.000000	0.000000	6.572966	-0.043713	NaN	0.000000	0.001662	0.001647	28.0834	0.050085	0.002006	24.9664	142.276	16.831	-0.041870	0.571706	-0.525149	-0.526465	-0.043713	24.9664	-0.523836	-7.36095e+06	5.938470E-9	NaN
652	1.000000	0.583026	7.37143e+06	-44489.1	1005.82	-29775.7	0.000000	0.000000	6.582971	-0.041957	NaN	0.000000	0.001686	0.001673	28.0833	0.079057	0.002016	39.2107	-130.023	-165.019	-0.076857	0.581737	-0.515145	-0.516433	-0.041957	39.2107	-0.514342	-5.43093e+06	7.725549E-9	NaN
652	1.000000	0.593024	7.37143e+06	-44489.1	1005.82	-29775.7	0.000000	0.000000	6.592973	0.038058	NaN	0.000000	0.001622	0.001657	28.0836	0.041982	0.002020	20.7795	-119.552	13.4072	0.026402	0.591693	-0.505146	-0.506477	0.038058	20.7795	-0.506520	-4.22595e+06	-9.005752E-9	NaN
652	1.000000	0.603036	7.37143e+06	-44489.1	1005.82	-29775.7	0.000000	0.000000	6.602985	0.050137	NaN	0.000000	0.001710	0.001637	28.0834	0.053071	0.001874	28.3226	-170.049	-166.258	0.029341	0.601740	-0.495134	-0.496431	0.050137	28.3226	-0.496462	-3.05945e+06	-1.638753E-8	NaN
652	1.000000	0.613014	7.37143e+06	-44489.1	1005.82	-29775.7	0.000000	0.000000	6.612960	-0.009202	NaN	0.000000	0.001693	0.001636	28.0833	0.046806	0.002013	23.2495	-72.9052	13.1975	-0.016007	0.611681	-0.485156	-0.486489	-0.009202	23.2495	-0.484859	-2.10632e+06	4.368962E-9	NaN
652	1.000000	0.623063	7.37143e+06	-44489.1	1005.82	-29775.7	0.000000	0.000000	6.623009	-0.012766	NaN	0.000000	0.001628	0.001660	28.0835	0.077679	0.001941	40.0149	73.7002	-165.698	-0.022708	0.621724	-0.475107	-0.476446	-0.012766	40.0149	-0.474868	-1.52632e+06	8.364096E-9	NaN
652	1.000000	0.633048	7.37143e+06	-44489.1	1005.82	-29775.7	0.000000	0.000000	6.632994	-0.006276	NaN	0.000000	0.001663	0.001655	28.0835	0.048649	0.002000	24.3225	-171.583	15.9054	0.027334	0.631733	-0.465123	-0.466438	-0.006276	24.3225	-0.464929	-1.10726e+06	5.668309E-9	NaN
652	1.000000	0.643042	7.37143e+06	-44489.1	1005.82	-29775.7	0.000000	0.000000	6.642988	-0.020622	NaN	0.000000	0.001676	0.001628	28.0835	0.027141	0.001982	13.6961	129.912	-165.752	-0.025122	0.641748	-0.455128	-0.456423	-0.020622	13.6961	-0.453999	-777374	2.652781E-8	NaN
652	1.000000	0.653037	7.37143e+06	-44489.1	1005.82	-29775.7	0.000000	0.000000	6.652983	-0.013609	NaN	0.000000	0.001662	0.001614	28.0833	0.041725	0.001981	21.0626	140.073	15.0327	-0.055503	0.651698	-0.445133	-0.446473	-0.013609	21.0626	-0.444649	-574038	2.370685E-8	NaN
652	1.000000	0.663063	7.37143e+06	-44489.1	1005.82	-29775.7	0.000000	0.000000	6.663009	-0.003297	NaN	0.000000	0.001654	0.001663	28.0835	0.093805	0.001943	48.2826	-63.8214	-164.63	0.049937	0.661745	-0.435108	-0.436425	-0.003297	48.2826	-0.435056	-420292	7.845536E-9	NaN
652	1.000000	0.673065	7.37143e+06	-44489.1	1005.82	-29775.7	0.000000	0.000000	6.673012	0.022484	NaN	0.000000	0.001643	0.001644	28.0834	0.042237	0.002130	19.8314	110.641	14.9874	0.037538	0.671666	-0.425106	-0.426504	0.022484	19.8314	-0.425956	-312481	-7.195296E-8	NaN
652	1.000000	0.683061	7.37143e+06	-44489.1	1005.82	-29775.7	0.000000	0.000000	6.683010	0.061594	NaN	0.000000	0.001740	0.001642	28.0831	0.054223	0.001945	27.8772	-20.9684	-168.55	0.017619	0.681788	-0.415109	-0.416382	0.061594	27.8772	-0.416766	-231492	-2.660759E-7	NaN
652	1.000000	0.693092	7.37143e+06	-44489.1	1005.82	-29775.7	0.000000	0.000000	6.693041	0.060785	NaN	0.000000	0.001714	0.001661	28.0821	0.140664	0.002024	69.5126	-115.66	12.8698	0.108834	0.691702	-0.405078	-0.406468	0.060785	69.5126	-0.405734	-161323	-3.767901E-7	NaN
652	1.000000	0.703079	7.37143e+06	-44489.1	1005.82	-29775.7	0.000000	0.000000	6.703025	-0.024858	NaN	0.000000	0.001733	0.001638	28.0824	0.044654	0.002054	21.7446	-108.576	-165.328	0.007081	0.701752	-0.395091	-0.396418	-0.024858	21.7446	-0.394234	-110584	2.247902E-7	NaN
652	1.000000	0.713083	7.37143e+06	-44489.1	1005.82	-29775.7	0.000000	0.000000	6.713030	0.008179	NaN	0.000000	0.001720	0.001635	28.0823	0.080406	0.001992	40.368	176.458	16.8984	0.000467	0.711776	-0.385087	-0.386395	0.008179	40.368	-0.385239	-82226.4	-9.946428E-8	NaN
652	1.000000	0.723079	7.37143e+06	-44489.1	1005.82	-29775.7	0.000000	0.000000	6.723026	0.015267	NaN	0.000000	0.001722	0.001631	28.0823	0.032084	0.001963	16.3426	103.7	-163.757	-0.035478	0.721766	-0.375091	-0.376404	0.015267	16.3426	-0.375792	-60180.5	-2.536851E-7	NaN
652	1.000000	0.733098	7.37143e+06	-44489.1	1005.82	-29775.7	0.000000	0.000000	6.733045	0.014579	NaN	0.000000	0.001681	0.001640	28.0824	0.028592	0.002171	13.1675	120.123	17.4591	-0.018625	0.731759	-0.365073	-0.366412	0.014579	13.1675	-0.365903	-43359.3	-3.362277E-7	NaN
652	1.000000	0.743078	7.37143e+06	-44489.1	1005.82	-29775.7	0.000000	0.000000	6.743025	0.026508	NaN	0.000000	0.001718	0.001639	28.0829	0.091729	0.001921	47.7586	-179.436	-164.837	0.028211	0.741820	-0.355093	-0.356350	0.026508	47.7586	-0.355509	-30681	-8.639732E-7	NaN
652	1.000000	0.753095	7.37143e+06	-44489.1	1005.82	-29775.7	0.000000	0.000000	6.753041	-0.023298	NaN	0.000000	0.001716	0.001665	28.0823	0.092320	0.001953	47.2629	174.04	13.1314	-0.106374	0.751726	-0.345075	-0.346444	-0.023298	47.2629	-0.344705	-21383.1	1.089555E-6	NaN
652	1.000000	0.763124	7.37143e+06	-44489.1	1005.82	-29775.7	0.000000	0.000000	6.763069	-0.024646	NaN	0.000000	0.001714	0.001638	28.0825	0.098354	0.002028	48.509	-144.905	-162.934	-0.001170	0.761751	-0.335047	-0.336420	-0.024646	48.509	-0.334666	-15265.2	1.614497E-6	NaN
652	1.000000	0.773128	7.37143e+06	-44489.1	1005.82	-29775.7	0.000000	0.000000	6.773077	0.054729	NaN	0.000000	0.001725	0.001623	28.0824	0.114490	0.002068	55.3665	-130.688	15.4183	0.005108	0.771708	-0.325042	-0.326462	0.054729	55.3665	-0.325784	-11314.6	-4.836991E-6	NaN
652	1.000000	0.783130	7.37143e+06	-44489.1	1005.82	-29775.7	0.000000	0.000000	6.783079	0.054719	NaN	0.000000	0.001762	0.001678	28.0822	0.037655	0.002064	18.2455	-87.7841	-165.863	0.095242	0.781835	-0.315040	-0.316335	0.054719	18.2455	-0.317289	-8486.18	-6.448011E-6	NaN
652	1.000000	0.793105	7.37143e+06	-44489.1	1005.82	-29775.7	0.000000	0.000000	6.793054	0.054972	NaN	0.000000	0.001672	0.001627	28.0822	0.069348	0.001965	35.2933	46.4382	15.7395	-0.055277	0.791765	-0.305065	-0.306405	0.054972	35.2933	-0.306233	-5824.45	-9.438228E-6	NaN
652	1.000000	0.803123	7.37143e+06	-44489.1	1005.82	-29775.7	0.000000	0.000000	6.803068	-0.059619	NaN	0.000000	0.001688	0.001651	28.0829	0.093180	0.002007	46.4286	15.6308	-162.681	-0.037234	0.801844	-0.295047	-0.296326	-0.059619	46.4286	-0.294084	-3840.63	1.552322E-5	NaN
652	1.000000	0.813126	7.37143e+06	-44489.1	1005.82	-29775.7	0.000000	0.000000	6.813075	0.050543	NaN	0.000000	0.001673	0.001625	28.0825	0.057492	0.002048	28.0693	-79.592	13.8305	-0.028960	0.811787	-0.285044	-0.286383	0.050543	28.0693	-0.286395	-2945.93	-1.715682E-5	NaN
652	1.000000	0.823143	7.37143e+06	-44489.1	1005.82	-29775.7	0.000000	0.000000	6.823090	-0.001833	NaN	0.000000	0.001650	0.001614	28.0835	0.039293	0.002068	19.0046	-160.466	-164.352	-0.081208	0.821836	-0.275027	-0.276335	-0.001833	19.0046	-0.274955	-1980.24	9.257422E-7	NaN
652	1.000000	0.833112	7.37143e+06	-44489.1	1005.82	-29775.7	0.000000	0.000000	6.833062	0.098030	NaN	0.000000	0.001629	0.001647	28.0835	0.138363	0.002018	68.5564	165.803	16.0611	0.072912	0.831751	-0.265059	-0.266420	0.098030	68.5564	-0.266131	-1454.26	-6.740868E-5	NaN
652	1.000000	0.843125	7.37143e+06	-44489.1	1005.82	-29775.7	0.000000	0.000000	6.843070	-0.045171	NaN	0.000000	0.001650	0.001659	28.0836	0.019927	0.001830	10.8914	-71.6148	-166.631	0.027602	0.841799	-0.255045	-0.256371	-0.045171	10.8914	-0.251934	-880.76	5.128604E-5	NaN
652	1.000000	0.853132	7.37143e+06	-44489.1	1005.82	-29775.7	0.000000	0.000000	6.853079	-0.001274	NaN	0.000000	0.001650	0.001675	28.0838	0.044185	0.002019	21.8893	124.341	14.0439	-0.030927	0.851810	-0.245038	-0.246360	-0.001274	21.8893	-0.244994	-687.644	1.853169E-6	NaN
652	1.000000	0.863144	7.37143e+06	-44489.1	1005.82	-29775.7	0.000000	0.000000	6.863092	0.034696	NaN	0.000000	0.001650	0.001662	28.0837	0.034596	0.002089	16.5641	132.354	-166.694	0.058257	0.861849	-0.235027	-0.236321	0.034696	16.5641	-0.236598	-508.526	-6.822791E-5	NaN
652	1.000000	0.873133	7.37143e+06	-44489.1	1005.82	-29775.7	0.000000	0.000000	6.873082	0.038476	NaN	0.000000	0.001673	0.001655	28.0836	0.020194	0.002058	9.811604	-177.519	13.1329	-0.054661	0.871833	-0.225037	-0.226338	0.038476	9.811604	-0.227978	-372.007	-0.000103	NaN
652	1.000000	0.883168	7.37143e+06	-44489.1	1005.82	-29775.7	0.000000	0.000000	6.883118	0.080337	NaN	0.000000	0.001645	0.001664	28.0836	0.046484	0.002042	22.7624	-176.5	-165.273	0.001489	0.881832	-0.215002	-0.216338	0.080337	22.7624	-0.217649	-254.714	-0.000315	NaN
652	1.000000	0.893176	7.37143e+06	-44489.1	1005.82	-29775.7	0.000000	0.000000	6.893122	-0.004992	NaN	0.000000	0.001665	0.001658	28.0837	0.097157	0.001976	49.1732	-37.354	14.7765	0.017575	0.891813	-0.204995	-0.206357	-0.004992	49.1732	-0.204919	-158.573	3.148167E-5	NaN
652	1.000000	0.903201	7.37143e+06	-44489.1	1005.82	-29775.7	0.000000	0.000000	6.903148	0.010240	NaN	0.000000	0.001671	0.001648	28.0836	0.129605	0.002251	57.5862	176.46	-164.71	0.055175	0.901821	-0.194969	-0.196349	0.010240	57.5862	-0.195103	-109.372	-9.362104E-5	NaN
652	1.000000	0.913153	7.37143e+06	-44489.1	1005.82	-29775.7	0.000000	0.000000	6.913100	0.012773	NaN	0.000000	0.001680	0.001660	28.0838	0.028619	0.002130	13.436	92.7956	15.6497	-0.005936	0.911851	-0.185017	-0.186320	0.012773	13.436	-0.185730	-76.2836	-0.000167	NaN
652	1.000000	0.923141	7.37143e+06	-44489.1	1005.82	-29775.7	0.000000	0.000000	6.923086	-0.028844	NaN	0.000000	0.001670	0.001683	28.0838	0.125089	0.001929	64.8552	37.8187	-167.594	0.032410	0.921863	-0.175029	-0.176307	-0.028844	64.8552	-0.174696	-49.5168	0.000583	NaN
652	1.000000	0.933193	7.37143e+06	-44489.1	1005.82	-29775.7	0.000000	0.000000	6.933140	0.004022	NaN	0.000000	0.001671	0.001698	28.0838	0.100890	0.002043	49.3793	25.0258	15.4149	0.073349	0.931805	-0.164977	-0.166365	0.004022	49.3793	-0.165038	-33.6495	-0.000120	NaN
652	1.000000	0.943189	7.37143e+06	-44489.1	1005.82	-29775.7	0.000000	0.000000	6.943136	-0.007214	NaN	0.000000	0.001649	0.001640	28.0836	0.066468	0.002139	31.0705	69.9217	-163.661	0.021932	0.941880	-0.154981	-0.156290	-0.007214	31.0705	-0.154807	-22.1363	0.000326	NaN
652	1.000000	0.953190	7.37143e+06	-44489.1	1005.82	-29775.7	0.000000	0.000000	6.953137	0.001068	NaN	0.000000	0.001662	0.001666	28.0839	0.035414	0.002092	16.9296	-115.851	15.0192	0.027318	0.951783	-0.144980	-0.146387	0.001068	16.9296	-0.145027	-14.6783	-7.277911E-5	NaN
652	1.000000	0.963166	7.37143e+06	-44489.1	1005.82	-29775.7	0.000000	0.000000	6.963114	0.040300	NaN	0.000000	0.001637	0.001667	28.0826	0.068666	0.001991	34.4963	-122.48	-164.024	0.058380	0.961857	-0.135005	-0.136313	0.040300	34.4963	-0.135881	-9.887366	-0.004076	NaN
652	1.000000	0.973194	7.37143e+06	-44489.1	1005.82	-29775.7	0.000000	0.000000	6.973141	-0.002889	NaN	0.000000	0.001663	0.001664	28.0827	0.061161	0.001849	33.0755	-60.4708	15.2738	0.030848	0.971820	-0.124976	-0.126350	-0.002889	33.0755	-0.124910	-6.056459	0.000477	NaN
652	1.000000	0.983195	7.37143e+06	-44489.1	1005.82	-29775.7	0.000000	0.000000	6.983141	-0.009514	NaN	0.000000	0.001660	0.001626	28.0825	0.084546	0.001960	43.1296	98.1679	-167.042	0.048905	0.981926	-0.114976	-0.116244	-0.009514	43.1296	-0.114810	-3.786073	0.002513	NaN
652	1.000000	0.993194	7.37143e+06	-44489.1	1005.82	-29775.7	0.000000	0.000000	6.993143	0.053277	NaN	0.000000	0.001637	0.001637	28.0829	0.068431	0.002119	32.2997	-65.4139	14.2949	0.045520	0.991802	-0.104976	-0.106369	0.053277	32.2997	-0.106213	-2.496364	-0.021342	NaN
652	1.000000	1.003195	7.37143e+06	-44489.1	1005.82	-29775.7	0.000000	0.000000	7.003139	-0.058932	NaN	0.000000	0.001673	0.001630	28.0824	0.039172	0.001958	20.0045	103.345	-166.939	-0.008455	1.001916	-0.094975	-0.096255	-0.058932	20.0045	-0.092766	-1.253674	0.047007	NaN
652	1.000000	1.013209	7.37143e+06	-44489.1	1005.82	-29775.7	0.000000	0.000000	7.013155	-0.015983	NaN	0.000000	0.001662	0.001666	28.0827	0.092686	0.001878	49.351	-3.304405	16.1539	-0.034519	1.011877	-0.084962	-0.086294	-0.015983	49.351	-0.084719	-0.808843	0.019761	NaN
652	1.000000	1.023224	7.37143e+06	-44489.1	1005.82	-29775.7	0.000000	0.000000	7.023172	0.015685	NaN	0.000000	0.001656	0.001668	28.0827	0.099093	0.001950	50.8268	-32.9758	-164.39	0.058028	1.021933	-0.074946	-0.076237	0.015685	50.8268	-0.075177	-0.466776	-0.033602	NaN
652	1.000000	1.033214	7.37143e+06	-44489.1	1005.82	-29775.7	0.000000	0.000000	7.033159	-0.051637	NaN	0.000000	0.001671	0.001630	28.0828	0.086299	0.001952	44.2159	111.178	15.7362	-0.040718	1.031878	-0.064956	-0.066292	-0.051637	44.2159	-0.064080	-0.234953	0.219775	NaN
652	1.000000	1.043230	7.37143e+06	-44489.1	1005.82	-29775.7	0.000000	0.000000	7.043177	0.009945	NaN	0.000000	0.001666	0.001658	28.0822	0.035436	0.002007	17.6519	67.3906	-167.329	0.044251	1.041893	-0.054940	-0.056277	0.009945	17.6519	-0.055363	-0.131995	-0.075342	NaN
652	1.000000	1.053203	7.37143e+06	-44489.1	1005.82	-29775.7	0.000000	0.000000	7.053151	0.038700	NaN	0.000000	0.001675	0.001681	28.0827	0.041461	0.002119	19.5658	-31.4304	15.0404	0.018461	1.051850	-0.044967	-0.046320	0.038700	19.5658	-0.046451	-0.071175	-0.543735	NaN
652	1.000000	1.063226	7.37143e+06	-44489.1	1005.82	-29775.7	0.000000	0.000000	7.063173	0.007403	NaN	0.000000	0.001699	0.001671	28.0826	0.055906	0.002012	27.7903	-116.866	-168.549	0.005007	1.061931	-0.034945	-0.036239	0.007403	27.7903	-0.035144	-0.032340	-0.228897	NaN
652	1.000000	1.073230	7.37143e+06	-44489.1	1005.82	-29775.7	0.000000	0.000000	7.073175	-0.040077	NaN	0.000000	0.001703	0.001660	28.0832	0.044668	0.002105	21.2238	112.481	14.2329	0.057485	1.071808	-0.024940	-0.026362	-0.040077	21.2238	-0.023524	-0.015448	2.594342	NaN
652	1.000000	1.083236	7.37143e+06	-44489.1	1005.82	-29775.7	0.000000	0.000000	7.083183	0.005306	NaN	0.000000	0.001680	0.001684	28.0827	0.057185	0.001965	29.0987	-8.437357	-165.097	0.030455	1.081939	-0.014935	-0.016231	0.005306	29.0987	-0.015071	-0.009318	-0.569427	NaN
652	1.000000	1.093239	7.37143e+06	-44489.1	1005.82	-29775.7	0.000000	0.000000	7.093191	0.137403	NaN	0.000000	0.001700	0.001710	28.0831	0.107222	0.002010	53.3375	-23.9894	13.6352	0.048725	1.091891	-0.004931	-0.006280	0.137403	53.3375	-0.006863	-0.004559	-30.1407	NaN
652	1.000000	1.103201	7.37143e+06	-44489.1	1005.82	-29775.7	0.000000	0.000000	7.103440	7.113011	NaN	0.000000	0.001676	0.001667	28.0838	6.896789	0.001729	3988.87	11.4193	-172.934	5.657218	1.101918	0.005031	0.003747	7.113011	3988.87	0.003693	0.002972	2393.48	66851.6
652	2.000000	1.107238	7.37143e+06	-44489.1	1005.82	-29775.7	0.000000	0.000000	7.107663	11.6321	NaN	0.000000	0.001681	0.001633	28.0843	10.9616	0.001669	6568.86	1.434110	12.3255	10.5634	1.106948	0.009068	0.008778	11.6321	6568.86	0.007740	0.006776	1716.59	72906.8
652	2.000000	1.109788	7.37143e+06	-44489.1	1005.82	-29775.7	0.000000	0.000000	7.110413	16.5133	NaN	0.000000	0.001685	0.001645	28.0838	14.2883	0.001834	7789.08	9.972762	-176.711	18.45	1.109516	0.011617	0.011346	16.5133	7789.08	0.010027	0.009212	1792.64	74146.2
652	2.000000	1.112248	7.37143e+06	-44489.1	1005.82	-29775.7	0.000000	0.000000	7.113170	23.7277	NaN	0.000000	0.001661	0.001640	28.084	16.6402	0.001699	9796.03	4.436904	3.434650	22.9396	1.111921	0.014077	0.013751	23.7277	9796.03	0.012261	0.011804	2010.18	82378.3
652	2.000000	1.114737	7.37143e+06	-44489.1	1005.82	-29775.7	0.000000	0.000000	7.115674	24.0987	NaN	0.000000	0.001685	0.001691	28.0839	18.6812	0.001783	10479.8	4.697759	-174.008	24.2619	1.114401	0.016567	0.016231	24.0987	10479.8	0.014842	0.015076	1598.51	77981.1
652	2.000000	1.117223	7.37143e+06	-44489.1	1005.82	-29775.7	0.000000	0.000000	7.118459	31.3682	NaN	0.000000	0.001667	0.001692	28.0841	21.5498	0.001730	12459.9	8.448239	0.089495	30.604	1.116870	0.019053	0.018700	31.3682	12459.9	0.017165	0.018281	1715.89	84195.1
652	2.000000	1.119675	7.37143e+06	-44489.1	1005.82	-29775.7	0.000000	0.000000	7.121178	37.8696	NaN	0.000000	0.001662	0.001672	28.084	25.0422	0.001932	12962.9	3.473581	-175.331	37.105	1.119459	0.021504	0.021289	37.8696	12962.9	0.019313	0.021475	1763.45	80818.9
652	2.000000	1.122195	7.37143e+06	-44489.1	1005.82	-29775.7	0.000000	0.000000	7.124160	49.1025	NaN	0.000000	0.001687	0.001672	28.0841	27.1431	0.001900	14287.8	6.115747	2.248858	47.0187	1.121804	0.024025	0.023633	49.1025	14287.8	0.021447	0.024867	1974.57	82779.7
652	2.000000	1.124682	7.37143e+06	-44489.1	1005.82	-29775.7	0.000000	0.000000	7.126927	55.9201	NaN	0.000000	0.001671	0.001666	28.084	29.0245	0.001748	16604.4	4.160534	-177.79	56.8602	1.124413	0.026511	0.026242	55.9201	16604.4	0.023986	0.029196	1915.34	88784.3
652	2.000000	1.127175	7.37143e+06	-44489.1	1005.82	-29775.7	0.000000	0.000000	7.129790	64.9153	NaN	0.000000	0.001674	0.001650	28.0841	32.4253	0.001718	18876.2	5.898860	-1.342933	62.6818	1.126764	0.029005	0.028594	64.9153	18876.2	0.026426	0.033661	1928.51	93999.2
652	2.000000	1.129755	7.37143e+06	-44489.1	1005.82	-29775.7	0.000000	0.000000	7.132601	70.526	NaN	0.000000	0.001649	0.001692	28.0839	35.2706	0.001821	19363.6	4.438698	179.719	72.4344	1.129344	0.031585	0.031174	70.526	19363.6	0.028853	0.038401	1836.58	90279.6
652	2.000000	1.132189	7.37143e+06	-44489.1	1005.82	-29775.7	0.000000	0.000000	7.135567	83.4725	NaN	0.000000	0.001635	0.001645	28.0839	36.4192	0.001805	20173.5	2.182715	2.119483	82.0393	1.131818	0.034018	0.033648	83.4725	20173.5	0.030915	0.042662	1956.61	89234.9
652	2.000000	1.134670	7.37143e+06	-44489.1	1005.82	-29775.7	0.000000	0.000000	7.138434	92.8605	NaN	0.000000	0.001598	0.001629	28.084	38.3908	0.001686	22776.4	2.171121	-179.273	92.5312	1.134372	0.036500	0.036201	92.8605	22776.4	0.033442	0.048181	1927.32	94802.5
652	2.000000	1.137145	7.37143e+06	-44489.1	1005.82	-29775.7	0.000000	0.000000	7.141479	106.735	NaN	0.000000	0.001600	0.001628	28.0827	41.3548	0.001843	22434.2	4.572833	-0.691072	105.288	1.136719	0.038975	0.038549	106.735	22434.2	0.035407	0.052698	2025.42	89286.8
652	2.000000	1.139604	7.37143e+06	-44489.1	1005.82	-29775.7	0.000000	0.000000	7.144262	114.623	NaN	0.000000	0.001633	0.001648	28.0828	43.4034	0.001681	25813.8	2.798129	178.561	111.021	1.139328	0.041434	0.041157	114.623	25813.8	0.038104	0.059220	1935.55	96915.4
652	2.000000	1.142120	7.37143e+06	-44489.1	1005.82	-29775.7	0.000000	0.000000	7.147352	128.579	NaN	0.000000	0.001614	0.001649	28.0827	45.1027	0.001700	26529.2	3.950638	-1.379804	125.755	1.141783	0.043950	0.043612	128.579	26529.2	0.040315	0.064845	1982.86	95182.8
652	2.000000	1.144638	7.37143e+06	-44489.1	1005.82	-29775.7	0.000000	0.000000	7.150348	140.227	NaN	0.000000	0.001626	0.001648	28.0826	46.9202	0.001687	27808.6	3.131383	178.408	139.215	1.144333	0.046467	0.046163	140.227	27808.6	0.042685	0.071153	1970.79	95248.2
652	2.000000	1.147114	7.37143e+06	-44489.1	1005.82	-29775.7	0.000000	0.000000	7.153315	152.16	NaN	0.000000	0.001623	0.001613	28.0826	50.463	0.001725	29246.2	9.168899	-8.238763	149.328	1.146752	0.048943	0.048582	152.16	29246.2	0.045041	0.077705	1958.18	95855.7
652	2.000000	1.149612	7.37143e+06	-44489.1	1005.82	-29775.7	0.000000	0.000000	7.156187	161.255	NaN	0.000000	0.001628	0.001634	28.0825	52.2482	0.001743	29976.5	0.394985	-179.896	158.462	1.149377	0.051442	0.051207	161.255	29976.5	0.047407	0.084568	1906.82	94178.6
652	2.000000	1.152196	7.37143e+06	-44489.1	1005.82	-29775.7	0.000000	0.000000	7.159333	174.916	NaN	0.000000	0.001624	0.001646	28.0824	53.825	0.001720	31287.3	2.835465	-1.134033	176.892	1.151690	0.054026	0.053520	174.916	31287.3	0.049833	0.091898	1903.38	94295.1
652	2.000000	1.154551	7.37143e+06	-44489.1	1005.82	-29775.7	0.000000	0.000000	7.162333	190.611	NaN	0.000000	0.001659	0.001609	28.0826	57.1111	0.001828	31239.8	5.621533	175.073	187.574	1.154260	0.056381	0.056090	190.611	31239.8	0.051804	0.098072	1943.58	91140
652	2.000000	1.157109	7.37143e+06	-44489.1	1005.82	-29775.7	0.000000	0.000000	7.165371	202.285	NaN	0.000000	0.001636	0.001653	28.0826	59.977	0.001828	32803.4	6.407179	-5.334112	200.493	1.156708	0.058939	0.058538	202.285	32803.4	0.054314	0.106213	1904.53	91961.1
652	2.000000	1.159662	7.37143e+06	-44489.1	1005.82	-29775.7	0.000000	0.000000	7.168199	208.99	NaN	0.000000	0.001625	0.001645	28.0824	62.3949	0.001853	33678.7	4.656239	174.425	208.898	1.159449	0.061492	0.061279	208.99	33678.7	0.056838	0.114714	1821.84	90848.8
652	2.000000	1.162138	7.37143e+06	-44489.1	1005.82	-29775.7	0.000000	0.000000	7.171469	228.292	NaN	0.000000	0.001668	0.001619	28.0827	63.9667	0.001845	34662.3	5.786510	-6.051820	225.634	1.161843	0.063968	0.063673	228.292	34662.3	0.059028	0.122347	1865.93	90538.5
652	2.000000	1.164622	7.37143e+06	-44489.1	1005.82	-29775.7	0.000000	0.000000	7.174589	243.775	NaN	0.000000	0.001596	0.001656	28.0824	65.7847	0.001883	34940.7	4.929521	174.75	243.727	1.164274	0.066452	0.066104	243.775	34940.7	0.061219	0.130217	1872.06	88464.8
652	2.000000	1.167047	7.37143e+06	-44489.1	1005.82	-29775.7	0.000000	0.000000	7.177678	259.914	NaN	0.000000	0.001642	0.001633	28.0825	67.7567	0.001810	37432.8	5.202186	-5.238379	253.606	1.166705	0.068877	0.068535	259.914	37432.8	0.063669	0.139294	1865.93	91634.4
652	2.000000	1.169611	7.37143e+06	-44489.1	1005.82	-29775.7	0.000000	0.000000	7.180907	276.092	NaN	0.000000	0.001619	0.001658	28.0824	71.8569	0.001923	37375.2	5.532924	174.101	274.844	1.169256	0.071441	0.071086	276.092	37375.2	0.065901	0.147814	1867.83	88817.6
652	2.000000	1.172080	7.37143e+06	-44489.1	1005.82	-29775.7	0.000000	0.000000	7.184178	295.621	NaN	0.000000	0.001619	0.001636	28.0839	72.5232	0.001898	38218.4	3.037676	-3.798716	291.528	1.171731	0.073910	0.073561	295.621	38218.4	0.068109	0.156479	1889.2	88270.9
652	2.000000	1.174669	7.37143e+06	-44489.1	1005.82	-29775.7	0.000000	0.000000	7.187159	305.151	NaN	0.000000	0.001610	0.001638	28.0837	75.4303	0.001815	41562.8	7.449846	170.582	306.318	1.174252	0.076499	0.076082	305.151	41562.8	0.070993	0.168149	1814.76	92604.2
652	2.000000	1.176923	7.37143e+06	-44489.1	1005.82	-29775.7	0.000000	0.000000	7.190229	324.997	NaN	0.000000	0.001598	0.001617	28.0837	77.1065	0.001882	40966.3	4.947578	-6.240400	315.213	1.176694	0.078753	0.078524	324.997	40966.3	0.072803	0.175677	1849.97	89298.3
652	2.000000	1.179618	7.37143e+06	-44489.1	1005.82	-29775.7	0.000000	0.000000	7.193724	344.478	NaN	0.000000	0.001649	0.001607	28.0839	79.7211	0.001759	45317.2	6.599322	171.613	344.896	1.179260	0.081447	0.081089	344.478	45317.2	0.075746	0.188245	1829.94	95427.7
652	2.000000	1.182058	7.37143e+06	-44489.1	1005.82	-29775.7	0.000000	0.000000	7.196995	364.705	NaN	0.000000	0.001629	0.001637	28.0837	81.1057	0.001864	43521.9	3.458211	-4.714890	359.214	1.181703	0.083887	0.083532	364.705	43521.9	0.077603	0.196382	1857.12	89728.5
652	2.000000	1.184687	7.37143e+06	-44489.1	1005.82	-29775.7	0.000000	0.000000	7.200113	376.582	NaN	0.000000	0.001625	0.001633	28.0838	83.894	0.001784	47032	5.776637	171.989	380.447	1.184302	0.086517	0.086132	376.582	47032	0.080512	0.209458	1797.89	93889.8
652	2.000000	1.187099	7.37143e+06	-44489.1	1005.82	-29775.7	0.000000	0.000000	7.203377	397.322	NaN	0.000000	0.001593	0.001646	28.0839	85.9795	0.001812	47450.8	6.620128	-8.814336	396.7	1.186784	0.088929	0.088613	397.322	47450.8	0.082649	0.219313	1811.67	92573.1
652	2.000000	1.189604	7.37143e+06	-44489.1	1005.82	-29775.7	0.000000	0.000000	7.206615	415.144	NaN	0.000000	0.001631	0.001672	28.084	88.684	0.001831	48440	4.789365	172.974	415.578	1.189336	0.091433	0.091165	415.144	48440	0.085006	0.230428	1801.62	92195.4
652	2.000000	1.192027	7.37143e+06	-44489.1	1005.82	-29775.7	0.000000	0.000000	7.209999	438.522	NaN	0.000000	0.001644	0.001649	28.0838	90.1185	0.001800	50055	8.584901	-10.9404	433.952	1.191575	0.093856	0.093405	438.522	50055	0.087286	0.241426	1816.38	93074.1
652	2.000000	1.194540	7.37143e+06	-44489.1	1005.82	-29775.7	0.000000	0.000000	7.212944	449.028	NaN	0.000000	0.001646	0.001684	28.0836	91.1369	0.001771	51475.1	5.683887	171.042	446.581	1.194322	0.096370	0.096152	449.028	51475.1	0.089827	0.253966	1768.06	93321.7
652	2.000000	1.197191	7.37143e+06	-44489.1	1005.82	-29775.7	0.000000	0.000000	7.216401	468.661	NaN	0.000000	0.001609	0.001581	28.0839	94.6337	0.001766	53586.8	6.935665	-9.752597	471.735	1.196557	0.099020	0.098386	468.661	53586.8	0.092461	0.267274	1753.49	94700.7
652	2.000000	1.199642	7.37143e+06	-44489.1	1005.82	-29775.7	0.000000	0.000000	7.219358	480.952	NaN	0.000000	0.001619	0.001591	28.0837	97.423	0.001857	52465.2	2.370475	174.253	481.611	1.199484	0.101472	0.101314	480.952	52465.2	0.094597	0.278299	1728.19	90863.4
652	2.000000	1.202070	7.37143e+06	-44489.1	1005.82	-29775.7	0.000000	0.000000	7.222823	506.158	NaN	0.000000	0.001622	0.001625	28.0837	99.0661	0.001865	53127.3	4.414638	-7.656793	500.498	1.201729	0.103900	0.103559	506.158	53127.3	0.096755	0.289650	1747.48	90189.1
652	2.000000	1.203483	7.37143e+06	-44489.1	1005.82	-29775.7	0.000000	0.000000	7.225092	526.998	NaN	0.000000	0.001629	0.001581	28.0838	100.224	0.001708	58668.2	7.573865	169.255	520.222	1.203073	0.105313	0.104903	526.998	58668.2	0.098576	0.299394	1760.22	97961.4