File: remote_trans/data/nanoindenter/0828-1/data/Data_2025-08-06,11h17m57s/2025-07-22_16-23-58_1_616.txt
2025-07-22, 16:23:58, 1
Index	Phase	Displacement	Time	Pos X	Pos Y	Pos Z	Rot A	Rot B	Piezo Z	Force A	Force B	Gripper	Voltage A	Voltage B	Temperature	Amplitude force	Amplitude pos	Stiffness	Phase shift	Phase excitation	Force A raw	Displacement raw	HMax	HMax raw	Real Force	Real Stiffness	Contact Depth	Area	Hardness	Reduced Mod.
[#]	[#]	[um]	[s]	[um]	[um]	[um]	[m°]	[m°]	[um]	[uN]	[uN]	[V]	[V]	[V]	[°C]	[uN]	[um]	[N/m]	[°]	[°]	[uN]	[um]	[um]	[um]	[uN]	[N/m]	[um]	[um^2]	[MPa]	[MPa]
616	1.000000	0.002444	7.37108e+06	-46289.1	1005.82	-29769.7	0.000000	0.000000	6.002802	-0.026116	NaN	0.000000	0.001605	0.001713	28.0827	0.140121	0.001012	138.516	-54.1641	-163.242	0.000851	0.001144	-1.084895	-1.086195	-0.026116	138.516	-1.084754	-3.128671E+14	8.347309E-17	NaN
616	1.000000	0.012507	7.37108e+06	-46289.1	1005.82	-29769.7	0.000000	0.000000	6.012864	-0.053691	NaN	0.000000	0.001607	0.001743	28.0811	0.101589	0.001170	86.7986	98.4988	15.3681	-0.011164	0.011163	-1.074832	-1.076176	-0.053691	86.7986	-1.074368	-2.269194E+14	2.366085E-16	NaN
616	1.000000	0.022402	7.37108e+06	-46289.1	1005.82	-29769.7	0.000000	0.000000	6.022760	-0.023411	NaN	0.000000	0.001628	0.001711	28.0811	0.141263	0.001765	80.0422	-111.296	-166.982	-0.025254	0.021105	-1.064937	-1.066234	-0.023411	80.0422	-1.064718	-1.683504E+14	1.390628E-16	NaN
616	1.000000	0.032379	7.37108e+06	-46289.1	1005.82	-29769.7	0.000000	0.000000	6.032741	0.053659	NaN	0.000000	0.001620	0.001700	28.0813	0.093570	0.001960	47.7412	104.073	15.83	0.018735	0.031047	-1.054960	-1.056292	0.053659	47.7412	-1.055803	-1.277658E+14	-4.199765E-16	NaN
616	1.000000	0.042397	7.37108e+06	-46289.1	1005.82	-29769.7	0.000000	0.000000	6.042754	-0.050928	NaN	0.000000	0.001608	0.001710	28.0818	0.059594	0.002050	29.075	-16.6409	-166.687	-0.026444	0.041088	-1.044942	-1.046251	-0.050928	29.075	-1.043628	-8.765060E+13	5.810375E-16	NaN
616	1.000000	0.052408	7.37108e+06	-46289.1	1005.82	-29769.7	0.000000	0.000000	6.052767	-0.021254	NaN	0.000000	0.001627	0.001741	28.0815	0.062802	0.001933	32.4909	121.852	11.3652	0.015772	0.051035	-1.034931	-1.036304	-0.021254	32.4909	-1.034440	-6.594773E+13	3.222864E-16	NaN
616	1.000000	0.062373	7.37108e+06	-46289.1	1005.82	-29769.7	0.000000	0.000000	6.062730	-0.049579	NaN	0.000000	0.001600	0.001701	28.0816	0.101123	0.001945	51.9831	-46.5408	-167.026	-0.050216	0.061097	-1.024966	-1.026242	-0.049579	51.9831	-1.024251	-4.810013E+13	1.030743E-15	NaN
616	1.000000	0.072408	7.37108e+06	-46289.1	1005.82	-29769.7	0.000000	0.000000	6.072767	-0.007089	NaN	0.000000	0.001612	0.001730	28.0819	0.038932	0.002087	18.6516	-3.679859	11.1911	0.011665	0.071040	-1.014931	-1.016299	-0.007089	18.6516	-1.014646	-3.572002E+13	1.984551E-16	NaN
616	1.000000	0.082390	7.37108e+06	-46289.1	1005.82	-29769.7	0.000000	0.000000	6.082750	0.014201	NaN	0.000000	0.001616	0.001701	28.0819	0.130260	0.001988	65.5199	55.7368	-164.686	0.014343	0.081085	-1.004949	-1.006254	0.014201	65.5199	-1.005111	-2.658139E+13	-5.342341E-16	NaN
616	1.000000	0.092389	7.37108e+06	-46289.1	1005.82	-29769.7	0.000000	0.000000	6.092747	-0.026721	NaN	0.000000	0.001587	0.001721	28.0817	0.095423	0.001972	48.3824	-68.6165	15.9978	-0.113685	0.091026	-0.994950	-0.996313	-0.026721	48.3824	-0.994536	-1.915111E+13	1.395264E-15	NaN
616	1.000000	0.102412	7.37108e+06	-46289.1	1005.82	-29769.7	0.000000	0.000000	6.102772	0.018449	NaN	0.000000	0.001616	0.001688	28.0817	0.120342	0.001948	61.7743	-66.6319	-168.095	-0.022558	0.101128	-0.984927	-0.986211	0.018449	61.7743	-0.985151	-1.431515E+13	-1.288809E-15	NaN
616	1.000000	0.112392	7.37108e+06	-46289.1	1005.82	-29769.7	0.000000	0.000000	6.112749	-0.053471	NaN	0.000000	0.001625	0.001707	28.0818	0.039140	0.002141	18.2777	13.9123	11.6875	-0.070021	0.111041	-0.974947	-0.976298	-0.053471	18.2777	-0.972753	-9.744482E+12	5.487316E-15	NaN
616	1.000000	0.122412	7.37108e+06	-46289.1	1005.82	-29769.7	0.000000	0.000000	6.122771	-0.002434	NaN	0.000000	0.001618	0.001735	28.0817	0.160029	0.002084	76.7733	-97.2342	-164.098	-0.016670	0.121105	-0.964927	-0.966234	-0.002434	76.7733	-0.964903	-7.637841E+12	3.186633E-16	NaN
616	1.000000	0.132422	7.37108e+06	-46289.1	1005.82	-29769.7	0.000000	0.000000	6.132782	0.031953	NaN	0.000000	0.001615	0.001750	28.0815	0.054604	0.001947	28.0465	92.9674	14.6636	0.057009	0.131084	-0.954917	-0.956255	0.031953	28.0465	-0.955772	-5.752532E+12	-5.554658E-15	NaN
616	1.000000	0.142422	7.37108e+06	-46289.1	1005.82	-29769.7	0.000000	0.000000	6.142778	-0.080670	NaN	0.000000	0.001569	0.001765	28.0819	0.041052	0.001988	20.6499	92.7557	-166.419	-0.002680	0.141103	-0.944917	-0.946236	-0.080670	20.6499	-0.941987	-3.749227E+12	2.151653E-14	NaN
616	1.000000	0.152397	7.37108e+06	-46289.1	1005.82	-29769.7	0.000000	0.000000	6.152756	-0.018089	NaN	0.000000	0.001610	0.001762	28.0827	0.056844	0.002047	27.7716	-161.789	14.4964	-0.043926	0.151090	-0.934942	-0.936249	-0.018089	27.7716	-0.934453	-2.966871E+12	6.096969E-15	NaN
616	1.000000	0.162422	7.37108e+06	-46289.1	1005.82	-29769.7	0.000000	0.000000	6.162781	-0.025113	NaN	0.000000	0.001569	0.001726	28.0827	0.028167	0.001912	14.7355	57.3072	-165.931	-0.038536	0.161121	-0.924917	-0.926218	-0.025113	14.7355	-0.923639	-2.119966E+12	1.184586E-14	NaN
616	1.000000	0.172469	7.37108e+06	-46289.1	1005.82	-29769.7	0.000000	0.000000	6.172831	0.066523	NaN	0.000000	0.001591	0.001722	28.0827	0.093821	0.001861	50.4249	21.4671	13.1852	0.040178	0.171133	-0.914870	-0.916206	0.066523	50.4249	-0.915860	-1.664562E+12	-3.996435E-14	NaN
616	1.000000	0.182427	7.37108e+06	-46289.1	1005.82	-29769.7	0.000000	0.000000	6.182787	0.013034	NaN	0.000000	0.001589	0.001708	28.0828	0.023906	0.001860	12.8493	-30.2263	-165.587	-0.035828	0.181138	-0.904912	-0.906201	0.013034	12.8493	-0.905673	-1.212583E+12	-1.074857E-14	NaN
616	1.000000	0.192471	7.37108e+06	-46289.1	1005.82	-29769.7	0.000000	0.000000	6.192830	-0.003242	NaN	0.000000	0.001542	0.001750	28.0827	0.064643	0.002024	31.9352	-111.8	16.58	0.028992	0.191120	-0.894868	-0.896219	-0.003242	31.9352	-0.894792	-8.643324E+11	3.750800E-15	NaN
616	1.000000	0.202450	7.37108e+06	-46289.1	1005.82	-29769.7	0.000000	0.000000	6.202809	-0.010148	NaN	0.000000	0.001572	0.001710	28.0827	0.116514	0.001888	61.7111	141.669	-170.376	-0.076888	0.201147	-0.884889	-0.886192	-0.010148	61.7111	-0.884766	-6.326319E+11	1.604167E-14	NaN
616	1.000000	0.212487	7.37108e+06	-46289.1	1005.82	-29769.7	0.000000	0.000000	6.212843	-0.074573	NaN	0.000000	0.001537	0.001709	28.0826	0.118659	0.001987	59.7102	-176.527	13.3014	-0.060813	0.211093	-0.874852	-0.876246	-0.074573	59.7102	-0.873916	-4.512484E+11	1.652592E-13	NaN
616	1.000000	0.222451	7.37108e+06	-46289.1	1005.82	-29769.7	0.000000	0.000000	6.222812	0.035667	NaN	0.000000	0.001590	0.001686	28.0829	0.057767	0.002003	28.8335	-55.6901	-163.135	0.128693	0.221145	-0.864888	-0.866194	0.035667	28.8335	-0.865816	-3.506139E+11	-1.017271E-13	NaN
616	1.000000	0.232477	7.37108e+06	-46289.1	1005.82	-29769.7	0.000000	0.000000	6.232835	-0.039900	NaN	0.000000	0.001605	0.001734	28.0828	0.036344	0.001901	19.1141	-50.7961	10.4318	-0.062499	0.231130	-0.854862	-0.856209	-0.039900	19.1141	-0.853296	-2.373379E+11	1.681154E-13	NaN
616	1.000000	0.242443	7.37108e+06	-46289.1	1005.82	-29769.7	0.000000	0.000000	6.242805	0.052212	NaN	0.000000	0.001592	0.001715	28.0825	0.081659	0.002076	39.3368	-22.2276	-165.516	-0.027837	0.241149	-0.844896	-0.846190	0.052212	39.3368	-0.845891	-1.884058E+11	-2.771234E-13	NaN
616	1.000000	0.252447	7.37108e+06	-46289.1	1005.82	-29769.7	0.000000	0.000000	6.252809	0.066409	NaN	0.000000	0.001602	0.001750	28.0826	0.064302	0.001997	32.1971	-40.8036	15.224	0.041244	0.251099	-0.834892	-0.836240	0.066409	32.1971	-0.836439	-1.402939E+11	-4.733582E-13	NaN
616	1.000000	0.262460	7.37108e+06	-46289.1	1005.82	-29769.7	0.000000	0.000000	6.262820	0.012017	NaN	0.000000	0.001584	0.001743	28.0826	0.112472	0.002039	55.1653	-176.144	-164.976	0.049439	0.261197	-0.824879	-0.826142	0.012017	55.1653	-0.825042	-9.830614E+10	-1.222362E-13	NaN
616	1.000000	0.272495	7.37108e+06	-46289.1	1005.82	-29769.7	0.000000	0.000000	6.272855	-0.001074	NaN	0.000000	0.001570	0.001734	28.0825	0.090713	0.002007	45.1966	160.305	11.3197	-0.054588	0.271160	-0.814844	-0.816179	-0.001074	45.1966	-0.814826	-7.145571E+10	1.503478E-14	NaN
616	1.000000	0.282483	7.37108e+06	-46289.1	1005.82	-29769.7	0.000000	0.000000	6.282842	-0.017805	NaN	0.000000	0.001523	0.001705	28.0811	0.054165	0.002004	27.0283	85.2411	-166.8	0.044528	0.281201	-0.804856	-0.806138	-0.017805	27.0283	-0.804361	-5.152998E+10	3.455192E-13	NaN
616	1.000000	0.292457	7.37108e+06	-46289.1	1005.82	-29769.7	0.000000	0.000000	6.292816	-0.003025	NaN	0.000000	0.001519	0.001682	28.0814	0.071127	0.001964	36.2093	-79.6837	10.2692	-0.028122	0.291143	-0.794882	-0.796196	-0.003025	36.2093	-0.794820	-3.824118E+10	7.910074E-14	NaN
616	1.000000	0.302456	7.37108e+06	-46289.1	1005.82	-29769.7	0.000000	0.000000	6.302812	-0.076088	NaN	0.000000	0.001546	0.001740	28.0812	0.041588	0.002086	19.9397	-154.672	-166.677	-0.032614	0.301200	-0.784883	-0.786139	-0.076088	19.9397	-0.782021	-2.562686E+10	2.969092E-12	NaN
616	1.000000	0.312487	7.37108e+06	-46289.1	1005.82	-29769.7	0.000000	0.000000	6.312846	-0.003209	NaN	0.000000	0.001528	0.001717	28.0813	0.112223	0.001907	58.8372	144.191	12.1339	-0.027156	0.311150	-0.774852	-0.776189	-0.003209	58.8372	-0.774811	-2.045060E+10	1.568912E-13	NaN
616	1.000000	0.322531	7.37108e+06	-46289.1	1005.82	-29769.7	0.000000	0.000000	6.322890	-0.004791	NaN	0.000000	0.001507	0.001746	28.0812	0.114766	0.002129	53.9	-11.2348	-164.011	0.005310	0.321149	-0.764808	-0.766190	-0.004791	53.9	-0.764742	-1.492103E+10	3.210692E-13	NaN
616	1.000000	0.332508	7.37108e+06	-46289.1	1005.82	-29769.7	0.000000	0.000000	6.332864	-0.056684	NaN	0.000000	0.001543	0.001750	28.0815	0.034071	0.002030	16.7835	-11.5597	13.2057	-0.033052	0.331147	-0.754831	-0.756192	-0.056684	16.7835	-0.752298	-1.010427E+10	5.609904E-12	NaN
616	1.000000	0.342532	7.37108e+06	-46289.1	1005.82	-29769.7	0.000000	0.000000	6.342891	-0.021572	NaN	0.000000	0.001511	0.001755	28.0812	0.151370	0.001909	79.2826	-72.3969	-165.432	-0.051263	0.341222	-0.744807	-0.746117	-0.021572	79.2826	-0.744603	-7.938527E+9	2.717443E-12	NaN
616	1.000000	0.352545	7.37108e+06	-46289.1	1005.82	-29769.7	0.000000	0.000000	6.352902	-0.070536	NaN	0.000000	0.001530	0.001755	28.0813	0.087897	0.001980	44.3936	-103.268	14.27	-0.032556	0.351166	-0.734794	-0.736173	-0.070536	44.3936	-0.733602	-5.622055E+9	1.254634E-11	NaN
616	1.000000	0.362522	7.37108e+06	-46289.1	1005.82	-29769.7	0.000000	0.000000	6.362886	0.111498	NaN	0.000000	0.001517	0.001729	28.0812	0.079158	0.001906	41.5278	86.3259	-164.322	0.045810	0.361229	-0.724817	-0.726110	0.111498	41.5278	-0.726831	-4.545800E+9	-2.452778E-11	NaN
616	1.000000	0.372512	7.37108e+06	-46289.1	1005.82	-29769.7	0.000000	0.000000	6.372870	-0.021440	NaN	0.000000	0.001490	0.001720	28.0815	0.096676	0.001963	49.247	11.7319	16.2121	0.045943	0.371162	-0.714827	-0.716177	-0.021440	49.247	-0.714501	-3.086472E+9	6.946402E-12	NaN
616	1.000000	0.382518	7.37108e+06	-46289.1	1005.82	-29769.7	0.000000	0.000000	6.382878	0.015271	NaN	0.000000	0.001488	0.001745	28.0812	0.074921	0.001857	40.3379	-22.7608	-166.695	-0.010083	0.381195	-0.704821	-0.706144	0.015271	40.3379	-0.705105	-2.297409E+9	-6.647076E-12	NaN
616	1.000000	0.392536	7.37108e+06	-46289.1	1005.82	-29769.7	0.000000	0.000000	6.392896	0.018301	NaN	0.000000	0.001507	0.001731	28.0813	0.021774	0.002074	10.5011	-79.9725	15.2504	0.020666	0.391178	-0.694803	-0.696161	0.018301	10.5011	-0.696110	-1.731404E+9	-1.057032E-11	NaN
616	1.000000	0.402525	7.37108e+06	-46289.1	1005.82	-29769.7	0.000000	0.000000	6.402887	0.046222	NaN	0.000000	0.001506	0.001765	28.0812	0.067499	0.001978	34.1193	-104.308	-167.989	0.038113	0.401283	-0.684813	-0.686056	0.046222	34.1193	-0.685830	-1.252895E+9	-3.689208E-11	NaN
616	1.000000	0.412538	7.37108e+06	-46289.1	1005.82	-29769.7	0.000000	0.000000	6.412894	-0.070111	NaN	0.000000	0.001484	0.001712	28.0813	0.130155	0.001891	68.8369	-81.6504	19.8113	-0.005372	0.411157	-0.674801	-0.676182	-0.070111	68.8369	-0.674037	-8.642483E+8	8.112397E-11	NaN
616	1.000000	0.422563	7.37108e+06	-46289.1	1005.82	-29769.7	0.000000	0.000000	6.422922	-0.019521	NaN	0.000000	0.001536	0.001709	28.0824	0.050848	0.002027	25.0863	-75.107	-165.088	-0.001734	0.421286	-0.664776	-0.666053	-0.019521	25.0863	-0.664192	-6.336998E+8	3.080419E-11	NaN
616	1.000000	0.432548	7.37108e+06	-46289.1	1005.82	-29769.7	0.000000	0.000000	6.432904	-0.058917	NaN	0.000000	0.001537	0.001720	28.0824	0.033961	0.001977	17.1792	-61.4716	15.6611	-0.010766	0.431194	-0.654791	-0.656145	-0.058917	17.1792	-0.652219	-4.343666E+8	1.356393E-10	NaN
616	1.000000	0.442555	7.37108e+06	-46289.1	1005.82	-29769.7	0.000000	0.000000	6.442917	0.074857	NaN	0.000000	0.001541	0.001721	28.0826	0.038851	0.002104	18.462	28.3114	-165.514	0.046941	0.441292	-0.644784	-0.646047	0.074857	18.462	-0.647825	-3.781125E+8	-1.979757E-10	NaN
616	1.000000	0.452558	7.37108e+06	-46289.1	1005.82	-29769.7	0.000000	0.000000	6.452916	-0.027062	NaN	0.000000	0.001531	0.001694	28.0823	0.101685	0.002028	50.1397	-51.3363	14.8631	-0.017417	0.451230	-0.634781	-0.636109	-0.027062	50.1397	-0.634376	-2.472364E+8	1.094575E-10	NaN
616	1.000000	0.462555	7.37108e+06	-46289.1	1005.82	-29769.7	0.000000	0.000000	6.462913	-0.014617	NaN	0.000000	0.001510	0.001707	28.0825	0.147348	0.001876	78.5635	-2.592837	-169.617	-0.015067	0.461227	-0.624784	-0.626112	-0.014617	78.5635	-0.624645	-1.817449E+8	8.042692E-11	NaN
616	1.000000	0.472572	7.37108e+06	-46289.1	1005.82	-29769.7	0.000000	0.000000	6.472931	-0.007488	NaN	0.000000	0.001507	0.001731	28.0825	0.040096	0.001899	21.118	15.6352	14.3742	-0.088285	0.471180	-0.614767	-0.616159	-0.007488	21.118	-0.614501	-1.318325E+8	5.680184E-11	NaN
616	1.000000	0.482543	7.37108e+06	-46289.1	1005.82	-29769.7	0.000000	0.000000	6.482901	-0.037703	NaN	0.000000	0.001518	0.001732	28.0826	0.057113	0.002104	27.14	-134.506	-162.24	-0.034539	0.481257	-0.604796	-0.606082	-0.037703	27.14	-0.603754	-9.378973E+7	4.019978E-10	NaN
616	1.000000	0.492551	7.37108e+06	-46289.1	1005.82	-29769.7	0.000000	0.000000	6.492909	-0.024195	NaN	0.000000	0.001503	0.001688	28.0822	0.013057	0.002008	6.501790	-121.028	15.5706	0.050414	0.491214	-0.594788	-0.596125	-0.024195	6.501790	-0.591997	-6.459477E+7	3.745663E-10	NaN
616	1.000000	0.502556	7.37108e+06	-46289.1	1005.82	-29769.7	0.000000	0.000000	6.502914	-0.035222	NaN	0.000000	0.001513	0.001721	28.0824	0.180976	0.002026	89.3141	-146.582	-166.666	-0.070445	0.501321	-0.584783	-0.586018	-0.035222	89.3141	-0.584487	-5.089079E+7	6.921153E-10	NaN
616	1.000000	0.512600	7.37108e+06	-46289.1	1005.82	-29769.7	0.000000	0.000000	6.512955	-0.089009	NaN	0.000000	0.001513	0.001670	28.0823	0.127185	0.002034	62.5229	-50.129	11.7507	-0.096032	0.511215	-0.574739	-0.576124	-0.089009	62.5229	-0.573672	-3.608713E+7	2.466511E-9	NaN
616	1.000000	0.522592	7.37108e+06	-46289.1	1005.82	-29769.7	0.000000	0.000000	6.522951	-0.012014	NaN	0.000000	0.001509	0.001722	28.0829	0.071581	0.002009	35.6385	-108.017	-163.915	0.021448	0.521268	-0.564747	-0.566071	-0.012014	35.6385	-0.564494	-2.694822E+7	4.458181E-10	NaN
616	1.000000	0.532591	7.37108e+06	-46289.1	1005.82	-29769.7	0.000000	0.000000	6.532953	0.049903	NaN	0.000000	0.001501	0.001743	28.0824	0.021756	0.001994	10.909	-73.5437	15.852	0.045658	0.531248	-0.554748	-0.556091	0.049903	10.909	-0.558179	-2.203837E+7	-2.264379E-9	NaN
616	1.000000	0.542571	7.37108e+06	-46289.1	1005.82	-29769.7	0.000000	0.000000	6.542930	-0.010217	NaN	0.000000	0.001553	0.001760	28.0824	0.138497	0.002059	67.2787	21.0561	-162.239	0.010160	0.541264	-0.544768	-0.546075	-0.010217	67.2787	-0.544654	-1.431799E+7	7.135689E-10	NaN
616	1.000000	0.552598	7.37108e+06	-46289.1	1005.82	-29769.7	0.000000	0.000000	6.552957	-0.007218	NaN	0.000000	0.001552	0.001732	28.0824	0.162465	0.001896	85.6775	71.5537	16.4831	0.068628	0.551267	-0.534741	-0.536072	-0.007218	85.6775	-0.534677	-1.041148E+7	6.932835E-10	NaN
616	1.000000	0.562609	7.37108e+06	-46289.1	1005.82	-29769.7	0.000000	0.000000	6.562966	-0.057970	NaN	0.000000	0.001521	0.001705	28.0812	0.041328	0.002034	20.3189	-104.421	-168.279	-0.046152	0.561227	-0.524730	-0.526112	-0.057970	20.3189	-0.522590	-7.07309e+06	8.195803E-9	NaN
616	1.000000	0.572590	7.37108e+06	-46289.1	1005.82	-29769.7	0.000000	0.000000	6.572952	0.059274	NaN	0.000000	0.001513	0.001711	28.081	0.056847	0.001958	29.0279	-35.9562	14.1357	-0.005984	0.571216	-0.514749	-0.516123	0.059274	29.0279	-0.516281	-5.77901e+06	-1.025677E-8	NaN
616	1.000000	0.582625	7.37108e+06	-46289.1	1005.82	-29769.7	0.000000	0.000000	6.582984	0.013987	NaN	0.000000	0.001513	0.001761	28.0811	0.070003	0.001994	35.1019	-64.5138	-168.375	-0.088036	0.581409	-0.504714	-0.505930	0.013987	35.1019	-0.505013	-4.02652e+06	-3.473794E-9	NaN
616	1.000000	0.592660	7.37108e+06	-46289.1	1005.82	-29769.7	0.000000	0.000000	6.593018	-0.035001	NaN	0.000000	0.001524	0.001721	28.0818	0.030232	0.001892	15.9828	-83.2888	16.1885	-0.082716	0.591242	-0.494679	-0.496097	-0.035001	15.9828	-0.493037	-2.74041e+06	1.277213E-8	NaN
616	1.000000	0.602608	7.37108e+06	-46289.1	1005.82	-29769.7	0.000000	0.000000	6.602967	-0.027556	NaN	0.000000	0.001493	0.001721	28.0813	0.051538	0.002027	25.4211	116.287	-166.755	-0.079574	0.601295	-0.484731	-0.486044	-0.027556	25.4211	-0.483918	-2.04338e+06	1.348571E-8	NaN
616	1.000000	0.612648	7.37108e+06	-46289.1	1005.82	-29769.7	0.000000	0.000000	6.613008	0.013365	NaN	0.000000	0.001595	0.001720	28.0811	0.106809	0.001927	55.4157	-135.757	15.5452	0.083298	0.611279	-0.474691	-0.476060	0.013365	55.4157	-0.474872	-1.52654e+06	-8.755260E-9	NaN
616	1.000000	0.622621	7.37108e+06	-46289.1	1005.82	-29769.7	0.000000	0.000000	6.622980	-0.008547	NaN	0.000000	0.001582	0.001739	28.0811	0.010077	0.002015	5.000257	165.322	-165.337	-0.074693	0.621281	-0.464718	-0.466058	-0.008547	5.000257	-0.463436	-1.05508e+06	8.101155E-9	NaN
616	1.000000	0.632679	7.37108e+06	-46289.1	1005.82	-29769.7	0.000000	0.000000	6.633038	-0.019016	NaN	0.000000	0.001522	0.001713	28.0812	0.072408	0.001943	37.2739	140.654	14.4317	-0.002688	0.631256	-0.454659	-0.456083	-0.019016	37.2739	-0.454277	-784411	2.424213E-8	NaN
616	1.000000	0.642647	7.37108e+06	-46289.1	1005.82	-29769.7	0.000000	0.000000	6.643004	-0.054679	NaN	0.000000	0.001532	0.001703	28.0811	0.159808	0.002044	78.1722	49.0004	-168.106	0.057196	0.641313	-0.444692	-0.446026	-0.054679	78.1722	-0.444167	-565133	9.675504E-8	NaN
616	1.000000	0.652646	7.37108e+06	-46289.1	1005.82	-29769.7	0.000000	0.000000	6.653005	-0.008317	NaN	0.000000	0.001513	0.001679	28.0811	0.043722	0.001986	22.0198	-20.818	13.7496	-0.018571	0.651287	-0.434693	-0.436052	-0.008317	22.0198	-0.434409	-411536	2.020849E-8	NaN
616	1.000000	0.662636	7.37108e+06	-46289.1	1005.82	-29769.7	0.000000	0.000000	6.662994	-0.025565	NaN	0.000000	0.001532	0.001706	28.0813	0.061109	0.001877	32.5602	83.4635	-163.28	-0.046798	0.661331	-0.424703	-0.426008	-0.025565	32.5602	-0.424115	-294266	8.687887E-8	NaN
616	1.000000	0.672697	7.37108e+06	-46289.1	1005.82	-29769.7	0.000000	0.000000	6.673057	0.022935	NaN	0.000000	0.001515	0.001698	28.0812	0.045417	0.001942	23.3836	84.3777	13.7706	0.037815	0.671261	-0.414642	-0.416078	0.022935	23.3836	-0.415378	-221219	-1.036767E-7	NaN
616	1.000000	0.682643	7.37108e+06	-46289.1	1005.82	-29769.7	0.000000	0.000000	6.683002	0.003441	NaN	0.000000	0.001497	0.001707	28.0814	0.014146	0.002172	6.513660	101.26	-164.728	-0.014486	0.681388	-0.404696	-0.405951	0.003441	6.513660	-0.405092	-157966	-2.178583E-8	NaN
616	1.000000	0.692636	7.37108e+06	-46289.1	1005.82	-29769.7	0.000000	0.000000	6.692995	-0.010062	NaN	0.000000	0.001499	0.001714	28.0825	0.024942	0.002018	12.3574	-166.105	16.4713	0.000684	0.691352	-0.394703	-0.395987	-0.010062	12.3574	-0.394092	-110069	9.141892E-8	NaN
616	1.000000	0.702685	7.37108e+06	-46289.1	1005.82	-29769.7	0.000000	0.000000	6.703041	-0.096469	NaN	0.000000	0.001511	0.001720	28.0827	0.091907	0.001997	46.0126	-9.168877	-167.075	-0.040467	0.701361	-0.384654	-0.385978	-0.096469	46.0126	-0.383081	-76574.5	1.259806E-6	NaN
616	1.000000	0.712721	7.37108e+06	-46289.1	1005.82	-29769.7	0.000000	0.000000	6.713080	-0.018602	NaN	0.000000	0.001487	0.001711	28.0824	0.094974	0.001928	49.2506	-127.355	16.1607	0.025138	0.711300	-0.374618	-0.376039	-0.018602	49.2506	-0.374334	-57345.7	3.243755E-7	NaN
616	1.000000	0.722664	7.37108e+06	-46289.1	1005.82	-29769.7	0.000000	0.000000	6.723023	-0.027296	NaN	0.000000	0.001514	0.001724	28.0825	0.042906	0.001948	22.0253	-17.937	-163.288	-0.095233	0.721337	-0.364675	-0.366002	-0.027296	22.0253	-0.363745	-40359.2	6.763245E-7	NaN
616	1.000000	0.732651	7.37108e+06	-46289.1	1005.82	-29769.7	0.000000	0.000000	6.733011	0.005149	NaN	0.000000	0.001533	0.001687	28.0827	0.045642	0.001963	23.2563	15.556	13.6776	-0.016498	0.731309	-0.354688	-0.356030	0.005149	23.2563	-0.354854	-30018.1	-1.715458E-7	NaN
616	1.000000	0.742665	7.37108e+06	-46289.1	1005.82	-29769.7	0.000000	0.000000	6.743025	0.023460	NaN	0.000000	0.001517	0.001656	28.0829	0.026352	0.002066	12.7557	-137.633	-165.37	0.109465	0.741392	-0.344674	-0.345947	0.023460	12.7557	-0.346054	-22370.7	-1.048707E-6	NaN
616	1.000000	0.752689	7.37108e+06	-46289.1	1005.82	-29769.7	0.000000	0.000000	6.753051	0.058423	NaN	0.000000	0.001551	0.001631	28.0826	0.188492	0.002020	93.2933	-88.764	12.6854	-0.010877	0.751286	-0.334650	-0.336053	0.058423	93.2933	-0.335120	-15500.2	-3.769160E-6	NaN
616	1.000000	0.762691	7.37108e+06	-46289.1	1005.82	-29769.7	0.000000	0.000000	6.763049	-0.027132	NaN	0.000000	0.001522	0.001691	28.0824	0.081347	0.001858	43.7873	-9.176194	-165.555	-0.091760	0.761373	-0.324648	-0.325966	-0.027132	43.7873	-0.324183	-10718.7	2.531290E-6	NaN
616	1.000000	0.772718	7.37108e+06	-46289.1	1005.82	-29769.7	0.000000	0.000000	6.773073	-0.086006	NaN	0.000000	0.001539	0.001689	28.0834	0.084150	0.002044	41.1632	-145.991	15.1831	-0.082974	0.771327	-0.314621	-0.316012	-0.086006	41.1632	-0.313054	-7348.83	1.170340E-5	NaN
616	1.000000	0.782687	7.37108e+06	-46289.1	1005.82	-29769.7	0.000000	0.000000	6.783045	-0.032311	NaN	0.000000	0.001551	0.001709	28.0825	0.058595	0.002024	28.953	-152.827	-165.758	-0.022340	0.781437	-0.304652	-0.305902	-0.032311	28.953	-0.303815	-5362.38	6.025460E-6	NaN
616	1.000000	0.792690	7.37108e+06	-46289.1	1005.82	-29769.7	0.000000	0.000000	6.793050	0.011021	NaN	0.000000	0.001541	0.001740	28.0827	0.086898	0.001978	43.9225	-113.305	15.2335	0.060973	0.791347	-0.294649	-0.295992	0.011021	43.9225	-0.294837	-3941.42	-2.796211E-6	NaN
616	1.000000	0.802739	7.37108e+06	-46289.1	1005.82	-29769.7	0.000000	0.000000	6.803100	0.046241	NaN	0.000000	0.001519	0.001698	28.0826	0.051129	0.001965	26.0203	-64.8542	-167.75	0.049099	0.801403	-0.284600	-0.285936	0.046241	26.0203	-0.285933	-2899.27	-1.594927E-5	NaN
616	1.000000	0.812709	7.37108e+06	-46289.1	1005.82	-29769.7	0.000000	0.000000	6.813067	-0.019458	NaN	0.000000	0.001551	0.001722	28.0827	0.030114	0.001992	15.1159	-140.907	16.2369	-0.011450	0.811373	-0.274630	-0.275966	-0.019458	15.1159	-0.273665	-1893.1	1.027811E-5	NaN
616	1.000000	0.822723	7.37108e+06	-46289.1	1005.82	-29769.7	0.000000	0.000000	6.823080	-0.045199	NaN	0.000000	0.001498	0.001684	28.0824	0.165662	0.002076	79.807	-48.2334	-160.583	-0.041139	0.821434	-0.264616	-0.265905	-0.045199	79.807	-0.264191	-1358.45	3.327269E-5	NaN
616	1.000000	0.832731	7.37108e+06	-46289.1	1005.82	-29769.7	0.000000	0.000000	6.833087	-0.077585	NaN	0.000000	0.001546	0.001735	28.0812	0.043383	0.002014	21.545	-8.288947	10.6107	-0.091123	0.831302	-0.254608	-0.256037	-0.077585	21.545	-0.251908	-879.919	8.817323E-5	NaN
616	1.000000	0.842738	7.37108e+06	-46289.1	1005.82	-29769.7	0.000000	0.000000	6.843099	0.034533	NaN	0.000000	0.001555	0.001738	28.0814	0.091748	0.001958	46.8675	-45.9874	-167.672	0.090536	0.841400	-0.244601	-0.245939	0.034533	46.8675	-0.245153	-691.571	-4.993451E-5	NaN
616	1.000000	0.852733	7.37108e+06	-46289.1	1005.82	-29769.7	0.000000	0.000000	6.853088	-0.105570	NaN	0.000000	0.001561	0.001741	28.0813	0.035035	0.002081	16.832	86.4418	17.1368	-0.080390	0.851336	-0.234606	-0.236003	-0.105570	16.832	-0.229902	-398.991	0.000265	NaN
616	1.000000	0.862741	7.37108e+06	-46289.1	1005.82	-29769.7	0.000000	0.000000	6.863097	-0.070691	NaN	0.000000	0.001516	0.001739	28.0811	0.043563	0.001954	22.2989	95.7563	-164.381	-0.030249	0.861437	-0.224598	-0.225902	-0.070691	22.2989	-0.222220	-301.377	0.000235	NaN
616	1.000000	0.872742	7.37108e+06	-46289.1	1005.82	-29769.7	0.000000	0.000000	6.873099	-0.055320	NaN	0.000000	0.001522	0.001733	28.0812	0.049409	0.002121	23.2973	-97.7022	12.2086	-0.072831	0.871409	-0.214597	-0.215930	-0.055320	23.2973	-0.212816	-212.978	0.000260	NaN
616	1.000000	0.882743	7.37108e+06	-46289.1	1005.82	-29769.7	0.000000	0.000000	6.883101	-0.051490	NaN	0.000000	0.001520	0.001757	28.0814	0.093744	0.001994	47.0128	179.843	-165.256	-0.016307	0.881421	-0.204596	-0.205918	-0.051490	47.0128	-0.203774	-151.896	0.000339	NaN
616	1.000000	0.892736	7.37108e+06	-46289.1	1005.82	-29769.7	0.000000	0.000000	6.893095	-0.001787	NaN	0.000000	0.001539	0.001740	28.0812	0.060367	0.001988	30.3599	-13.3294	12.7933	0.001862	0.891412	-0.194603	-0.195927	-0.001787	30.3599	-0.194559	-107.127	1.667719E-5	NaN
616	1.000000	0.902726	7.37108e+06	-46289.1	1005.82	-29769.7	0.000000	0.000000	6.903085	-0.019285	NaN	0.000000	0.001508	0.001731	28.0812	0.091754	0.001913	47.9601	100.45	-167.845	-0.037558	0.901493	-0.184613	-0.185846	-0.019285	47.9601	-0.184311	-72.1968	0.000267	NaN
616	1.000000	0.912759	7.37108e+06	-46289.1	1005.82	-29769.7	0.000000	0.000000	6.913121	0.059291	NaN	0.000000	0.001526	0.001729	28.0813	0.048615	0.002042	23.8074	148.712	14.5867	0.007427	0.911386	-0.174580	-0.175953	0.059291	23.8074	-0.176448	-53.0662	-0.001117	NaN
616	1.000000	0.922763	7.37108e+06	-46289.1	1005.82	-29769.7	0.000000	0.000000	6.923121	-0.025842	NaN	0.000000	0.001513	0.001756	28.0814	0.038484	0.002013	19.1211	57.1336	-164.53	-0.058733	0.921414	-0.164576	-0.165925	-0.025842	19.1211	-0.163562	-31.6971	0.000815	NaN
616	1.000000	0.932740	7.37108e+06	-46289.1	1005.82	-29769.7	0.000000	0.000000	6.933101	0.034254	NaN	0.000000	0.001519	0.001730	28.0812	0.057992	0.002075	27.954	-32.3644	12.9507	0.065208	0.931360	-0.154599	-0.155979	0.034254	27.954	-0.155518	-22.7976	-0.001503	NaN
616	1.000000	0.942755	7.37108e+06	-46289.1	1005.82	-29769.7	0.000000	0.000000	6.943114	-0.006215	NaN	0.000000	0.001559	0.001774	28.0813	0.048429	0.002064	23.4673	-144.559	-159.873	0.007029	0.941427	-0.144584	-0.145912	-0.006215	23.4673	-0.144386	-14.2821	0.000435	NaN
616	1.000000	0.952782	7.37108e+06	-46289.1	1005.82	-29769.7	0.000000	0.000000	6.953141	0.001529	NaN	0.000000	0.001520	0.001746	28.0812	0.048866	0.001922	25.4217	-174.672	15.3798	0.001961	0.951401	-0.134557	-0.135938	0.001529	25.4217	-0.134602	-9.347286	-0.000164	NaN
616	1.000000	0.962759	7.37108e+06	-46289.1	1005.82	-29769.7	0.000000	0.000000	6.963117	-0.024301	NaN	0.000000	0.001554	0.001728	28.082	0.121297	0.001955	62.0467	79.0389	-166.161	-0.004310	0.961478	-0.124580	-0.125861	-0.024301	62.0467	-0.124287	-5.886510	0.004128	NaN
616	1.000000	0.972768	7.37108e+06	-46289.1	1005.82	-29769.7	0.000000	0.000000	6.973125	-0.047000	NaN	0.000000	0.001516	0.001756	28.0827	0.075522	0.001956	38.6172	160.308	14.5784	-0.056572	0.971407	-0.114571	-0.115932	-0.047000	38.6172	-0.113658	-3.583949	0.013114	NaN
616	1.000000	0.982777	7.37108e+06	-46289.1	1005.82	-29769.7	0.000000	0.000000	6.983135	-0.032767	NaN	0.000000	0.001628	0.001713	28.0833	0.084253	0.002045	41.1915	21.5491	-164.126	-0.067394	0.981437	-0.104562	-0.105902	-0.032767	41.1915	-0.103965	-2.232378	0.014678	NaN
616	1.000000	0.992817	7.37108e+06	-46289.1	1005.82	-29769.7	0.000000	0.000000	6.993174	-0.043742	NaN	0.000000	0.001594	0.001696	28.0828	0.060502	0.001910	31.6762	-125.382	13.2283	-0.022804	0.991425	-0.094522	-0.095914	-0.043742	31.6762	-0.093487	-1.302511	0.033583	NaN
616	1.000000	1.002766	7.37108e+06	-46289.1	1005.82	-29769.7	0.000000	0.000000	7.003128	0.065277	NaN	0.000000	0.001530	0.001749	28.0828	0.026090	0.002063	12.6486	73.4113	-164.37	-0.004238	1.001489	-0.084573	-0.085850	0.065277	12.6486	-0.088444	-0.993420	-0.065709	NaN
616	1.000000	1.012783	7.37108e+06	-46289.1	1005.82	-29769.7	0.000000	0.000000	7.013141	-0.036815	NaN	0.000000	0.001578	0.001706	28.0827	0.032060	0.002052	15.626	121.9	15.1853	-0.001003	1.011429	-0.074556	-0.075910	-0.036815	15.626	-0.072789	-0.404470	0.091020	NaN
616	1.000000	1.022813	7.37108e+06	-46289.1	1005.82	-29769.7	0.000000	0.000000	7.023169	-0.092137	NaN	0.000000	0.001524	0.001717	28.0828	0.055230	0.001965	28.1045	-72.0701	-164.643	-0.095768	1.021516	-0.064526	-0.065823	-0.092137	28.1045	-0.062067	-0.206249	0.446726	NaN
616	1.000000	1.032788	7.37108e+06	-46289.1	1005.82	-29769.7	0.000000	0.000000	7.033146	-0.033459	NaN	0.000000	0.001595	0.001757	28.0828	0.051100	0.002079	24.5771	-144.841	15.7959	-0.027316	1.031391	-0.054551	-0.055948	-0.033459	24.5771	-0.053530	-0.116471	0.287271	NaN
616	1.000000	1.042804	7.37108e+06	-46289.1	1005.82	-29769.7	0.000000	0.000000	7.043165	0.030807	NaN	0.000000	0.001562	0.001792	28.0827	0.090373	0.001988	45.4635	48.7617	-164.427	-0.035643	1.041477	-0.044535	-0.045862	0.030807	45.4635	-0.045043	-0.064464	-0.477892	NaN
616	1.000000	1.052816	7.37108e+06	-46289.1	1005.82	-29769.7	0.000000	0.000000	7.053172	-0.084673	NaN	0.000000	0.001600	0.001732	28.0825	0.107337	0.002112	50.822	-30.7362	14.1414	-0.120797	1.051462	-0.034523	-0.035877	-0.084673	50.822	-0.033273	-0.028512	2.969679	NaN
616	1.000000	1.062800	7.37108e+06	-46289.1	1005.82	-29769.7	0.000000	0.000000	7.063156	-0.072911	NaN	0.000000	0.001591	0.001723	28.0829	0.048535	0.001894	25.62	-148.92	-167.377	-0.091261	1.061537	-0.024539	-0.025802	-0.072911	25.62	-0.022404	-0.014460	5.042108	NaN
616	1.000000	1.072829	7.37108e+06	-46289.1	1005.82	-29769.7	0.000000	0.000000	7.073186	-0.066987	NaN	0.000000	0.001504	0.001769	28.0827	0.061357	0.001939	31.6359	-169.283	13.6713	0.037728	1.071447	-0.014510	-0.015892	-0.066987	31.6359	-0.012921	-0.008057	8.314036	NaN
616	1.000000	1.082812	7.37108e+06	-46289.1	1005.82	-29769.7	0.000000	0.000000	7.083186	0.346074	NaN	0.000000	0.001533	0.001776	28.083	0.513909	0.001971	260.686	20.1991	-166.424	-0.015446	1.081488	-0.004527	-0.005851	0.346074	260.686	-0.005523	-0.003743	-92.469	NaN
616	2.000000	1.091817	7.37108e+06	-46289.1	1005.82	-29769.7	0.000000	0.000000	7.092575	9.696926	NaN	0.000000	0.001496	0.001764	28.0828	9.909850	0.001558	6360.91	10.0789	4.539656	8.711520	1.091226	0.004478	0.003887	9.696926	6360.91	0.003335	0.002664	3640.17	112599
616	2.000000	1.094351	7.37108e+06	-46289.1	1005.82	-29769.7	0.000000	0.000000	7.095286	14.0008	NaN	0.000000	0.001522	0.001779	28.0817	12.4283	0.001661	7482.05	6.985412	-174.066	13.6008	1.094022	0.007012	0.006683	14.0008	7482.05	0.005609	0.004696	2981.48	99754.7
616	2.000000	1.096826	7.37108e+06	-46289.1	1005.82	-29769.7	0.000000	0.000000	7.097947	18.5347	NaN	0.000000	0.001519	0.001782	28.0815	15.4822	0.001653	9368.24	7.028578	4.441976	18.9558	1.096567	0.009487	0.009228	18.5347	9368.24	0.008003	0.007045	2630.83	101973
616	2.000000	1.099312	7.37108e+06	-46289.1	1005.82	-29769.7	0.000000	0.000000	7.100599	22.5736	NaN	0.000000	0.001509	0.001771	28.0816	18.918	0.001910	9902.43	9.777463	-176.944	22.8085	1.099004	0.011973	0.011665	22.5736	9902.43	0.010263	0.009475	2382.41	92944.2
616	2.000000	1.101818	7.37108e+06	-46289.1	1005.82	-29769.7	0.000000	0.000000	7.103324	27.8987	NaN	0.000000	0.001573	0.001799	28.0815	20.7817	0.001706	12181.5	-0.190242	9.392939	27.064	1.101537	0.014479	0.014198	27.8987	12181.5	0.012761	0.012415	2247.24	99886.8
616	2.000000	1.104320	7.37108e+06	-46289.1	1005.82	-29769.7	0.000000	0.000000	7.106055	33.4809	NaN	0.000000	0.001572	0.001760	28.0816	23.5756	0.001767	13339.9	6.333440	-178.431	32.9497	1.103930	0.016981	0.016591	33.4809	13339.9	0.015098	0.015417	2171.72	98158.9
616	2.000000	1.106840	7.37108e+06	-46289.1	1005.82	-29769.7	0.000000	0.000000	7.108839	39.8941	NaN	0.000000	0.001555	0.001727	28.0814	25.5823	0.001789	14302	5.424716	2.569680	42.7466	1.106356	0.019501	0.019017	39.8941	14302	0.017409	0.018633	2141.05	95725.5
616	2.000000	1.109325	7.37108e+06	-46289.1	1005.82	-29769.7	0.000000	0.000000	7.111531	44.9061	NaN	0.000000	0.001567	0.001708	28.0815	28.2255	0.001771	15940.8	6.542052	-179.306	46.4382	1.108968	0.021986	0.021629	44.9061	15940.8	0.019873	0.022344	2009.77	97432.5
616	2.000000	1.111814	7.37108e+06	-46289.1	1005.82	-29769.7	0.000000	0.000000	7.114373	53.4864	NaN	0.000000	0.001541	0.001701	28.0817	30.0308	0.001750	17164.6	7.208813	0.213131	54.4466	1.111431	0.024475	0.024092	53.4864	17164.6	0.022138	0.026015	2056.02	97229.5
616	2.000000	1.114263	7.37108e+06	-46289.1	1005.82	-29769.7	0.000000	0.000000	7.116976	57.2468	NaN	0.000000	0.001545	0.001722	28.0817	32.3524	0.001842	17561.4	4.308430	-177.724	56.8883	1.113883	0.026924	0.026544	57.2468	17561.4	0.024480	0.030076	1903.43	92517.7
616	2.000000	1.116768	7.37108e+06	-46289.1	1005.82	-29769.7	0.000000	0.000000	7.119777	64.461	NaN	0.000000	0.001575	0.001704	28.0815	36.1282	0.001773	20375.2	6.164862	-2.766192	64.2027	1.116443	0.029429	0.029104	64.461	20375.2	0.027056	0.034862	1849.03	99700.6
616	2.000000	1.119280	7.37108e+06	-46289.1	1005.82	-29769.7	0.000000	0.000000	7.122709	74.6762	NaN	0.000000	0.001541	0.001719	28.0815	38.5402	0.001824	21132.4	6.997496	177.224	75.4756	1.118890	0.031941	0.031551	74.6762	21132.4	0.029291	0.039286	1900.83	97409.9
616	2.000000	1.121784	7.37108e+06	-46289.1	1005.82	-29769.7	0.000000	0.000000	7.125341	77.7842	NaN	0.000000	0.001535	0.001724	28.0818	40.7516	0.001852	21998.3	8.298572	-3.451833	78.9111	1.121365	0.034445	0.034026	77.7842	21998.3	0.031793	0.044542	1746.32	95231.1
616	2.000000	1.124191	7.37108e+06	-46289.1	1005.82	-29769.7	0.000000	0.000000	7.128240	89.7603	NaN	0.000000	0.001511	0.001748	28.0815	42.1219	0.001853	22729.6	4.616315	179.218	87.6503	1.123834	0.036852	0.036495	89.7603	22729.6	0.033890	0.049193	1824.64	93629
616	2.000000	1.126681	7.37108e+06	-46289.1	1005.82	-29769.7	0.000000	0.000000	7.131003	96.3985	NaN	0.000000	0.001553	0.001748	28.0815	44.3313	0.001820	24356.5	3.699546	-1.095724	93.7927	1.126438	0.039342	0.039099	96.3985	24356.5	0.036373	0.054992	1752.96	94894.2
616	2.000000	1.129253	7.37108e+06	-46289.1	1005.82	-29769.7	0.000000	0.000000	7.133844	102.929	NaN	0.000000	0.001563	0.001751	28.0826	47.1742	0.001787	26402.5	2.821422	179.301	102.374	1.128966	0.041914	0.041627	102.929	26402.5	0.038990	0.061444	1675.16	97314.5
616	2.000000	1.131686	7.37108e+06	-46289.1	1005.82	-29769.7	0.000000	0.000000	7.137110	123.2	NaN	0.000000	0.001575	0.001718	28.0829	49.4353	0.001787	27667	6.012866	-3.998715	119.195	1.131336	0.044347	0.043997	123.2	27667	0.041007	0.066657	1848.28	97906.7
616	2.000000	1.134231	7.37108e+06	-46289.1	1005.82	-29769.7	0.000000	0.000000	7.140041	132.596	NaN	0.000000	0.001554	0.001737	28.0827	50.6735	0.001833	27640.6	2.726011	-179.536	132.539	1.133874	0.046892	0.046535	132.596	27640.6	0.043294	0.072819	1820.91	93583.5
616	2.000000	1.136710	7.37108e+06	-46289.1	1005.82	-29769.7	0.000000	0.000000	7.142898	141.786	NaN	0.000000	0.001553	0.001697	28.0826	53.1196	0.001633	32529.1	1.468103	-1.696628	140.248	1.136441	0.049371	0.049102	141.786	32529.1	0.046102	0.080747	1755.93	104588
616	2.000000	1.139216	7.37108e+06	-46289.1	1005.82	-29769.7	0.000000	0.000000	7.145928	154.54	NaN	0.000000	0.001529	0.001759	28.0828	58.0156	0.001960	29595	5.609672	175.22	151.893	1.138918	0.051877	0.051579	154.54	29595	0.047960	0.086213	1792.54	92088.6
616	2.000000	1.141842	7.37108e+06	-46289.1	1005.82	-29769.7	0.000000	0.000000	7.148979	164.876	NaN	0.000000	0.001517	0.001726	28.0826	59.6377	0.001851	32217	7.587575	-5.926717	170.133	1.141372	0.054503	0.054033	164.876	32217	0.050665	0.094478	1745.13	95761.7
616	2.000000	1.144178	7.37108e+06	-46289.1	1005.82	-29769.7	0.000000	0.000000	7.152066	183.144	NaN	0.000000	0.001493	0.001771	28.0827	60.7855	0.001797	33832.3	4.595496	175.751	180.509	1.143954	0.056839	0.056615	183.144	33832.3	0.052779	0.101195	1809.82	97168.6
616	2.000000	1.146656	7.37108e+06	-46289.1	1005.82	-29769.7	0.000000	0.000000	7.155058	195.656	NaN	0.000000	0.001525	0.001705	28.0826	63.142	0.001779	35497.3	5.664697	-5.746258	192.902	1.146297	0.059317	0.058958	195.656	35497.3	0.055183	0.109103	1793.31	98186.1
616	2.000000	1.149194	7.37108e+06	-46289.1	1005.82	-29769.7	0.000000	0.000000	7.158007	205.637	NaN	0.000000	0.001505	0.001725	28.0827	66.3588	0.001785	37180.6	5.246252	173.217	203.119	1.148972	0.061855	0.061633	205.637	37180.6	0.057707	0.117715	1746.9	99008.6
616	2.000000	1.151745	7.37108e+06	-46289.1	1005.82	-29769.7	0.000000	0.000000	7.161307	223.874	NaN	0.000000	0.001499	0.001729	28.0825	67.6553	0.001767	38281.8	5.694755	-6.138619	223.336	1.151332	0.064406	0.063993	223.874	38281.8	0.060020	0.125879	1778.48	98579.9
616	2.000000	1.154161	7.37108e+06	-46289.1	1005.82	-29769.7	0.000000	0.000000	7.164326	238.538	NaN	0.000000	0.001482	0.001717	28.0827	69.9435	0.001831	38206.3	5.335095	173.934	235.406	1.153839	0.066822	0.066500	238.538	38206.3	0.062139	0.133591	1785.59	95503.7
616	2.000000	1.156707	7.37108e+06	-46289.1	1005.82	-29769.7	0.000000	0.000000	7.167051	242.883	NaN	0.000000	0.001500	0.001725	28.0828	74.2946	0.001871	39712.1	8.198772	-10.1188	240.68	1.156438	0.069368	0.069099	242.883	39712.1	0.064781	0.143507	1692.49	95776.8
616	2.000000	1.159189	7.37108e+06	-46289.1	1005.82	-29769.7	0.000000	0.000000	7.170684	270.881	NaN	0.000000	0.001472	0.001719	28.0828	75.7169	0.001812	41775	6.515028	172.068	269.877	1.158848	0.071850	0.071509	270.881	41775	0.066987	0.152048	1781.55	97881.2
616	2.000000	1.161633	7.37108e+06	-46289.1	1005.82	-29769.7	0.000000	0.000000	7.173800	287.229	NaN	0.000000	0.001500	0.001705	28.0821	76.9127	0.001795	42857.6	6.117000	-7.301311	281.61	1.161362	0.074294	0.074023	287.229	42857.6	0.069267	0.161120	1782.7	97549.8
616	2.000000	1.164087	7.37108e+06	-46289.1	1005.82	-29769.7	0.000000	0.000000	7.176875	302.33	NaN	0.000000	0.001459	0.001708	28.0815	79.0819	0.001856	42600	4.068009	174.192	295.703	1.163906	0.076748	0.076567	302.33	42600	0.071425	0.169935	1779.09	94415.1
616	2.000000	1.166632	7.37108e+06	-46289.1	1005.82	-29769.7	0.000000	0.000000	7.180443	327.229	NaN	0.000000	0.001508	0.001717	28.0817	81.0291	0.001673	48427.4	7.534052	-8.844195	321.041	1.166118	0.079293	0.078779	327.229	48427.4	0.074225	0.181697	1800.95	103798
616	2.000000	1.169149	7.37108e+06	-46289.1	1005.82	-29769.7	0.000000	0.000000	7.183329	336.203	NaN	0.000000	0.001510	0.001708	28.0814	85.4147	0.001810	47186.8	3.587525	173.945	334.604	1.168937	0.081810	0.081598	336.203	47186.8	0.076466	0.191380	1756.73	98547.3
616	2.000000	1.171711	7.37108e+06	-46289.1	1005.82	-29769.7	0.000000	0.000000	7.186936	361.621	NaN	0.000000	0.001515	0.001716	28.0814	88.2758	0.001914	46124.5	7.026594	-8.215820	359.046	1.171157	0.084372	0.083818	361.621	46124.5	0.078492	0.200338	1805.06	94150.6
616	2.000000	1.174179	7.37108e+06	-46289.1	1005.82	-29769.7	0.000000	0.000000	7.190009	376.323	NaN	0.000000	0.001484	0.001693	28.0813	90.3374	0.001822	49583.7	4.337185	172.926	375.194	1.173844	0.086840	0.086505	376.323	49583.7	0.081148	0.212370	1772.01	98302.6
616	2.000000	1.176655	7.37108e+06	-46289.1	1005.82	-29769.7	0.000000	0.000000	7.192914	386.762	NaN	0.000000	0.001565	0.001711	28.0812	92.3147	0.001836	50273.9	3.103264	-6.034229	383.988	1.176405	0.089316	0.089066	386.762	50273.9	0.083546	0.223516	1730.35	97154.2
616	2.000000	1.179235	7.37108e+06	-46289.1	1005.82	-29769.7	0.000000	0.000000	7.196049	400.263	NaN	0.000000	0.001591	0.001689	28.0812	93.8999	0.001706	55053.2	0.629844	175.836	401.428	1.179039	0.091896	0.091700	400.263	55053.2	0.086443	0.237334	1686.5	103247
616	2.000000	1.181631	7.37108e+06	-46289.1	1005.82	-29769.7	0.000000	0.000000	7.199805	433.348	NaN	0.000000	0.001523	0.001712	28.0816	95.5625	0.001800	53101.4	3.154251	-5.959724	427.064	1.181340	0.094292	0.094001	433.348	53101.4	0.088171	0.245762	1763.28	97863.7
616	2.000000	1.184086	7.37108e+06	-46289.1	1005.82	-29769.7	0.000000	0.000000	7.202967	450.561	NaN	0.000000	0.001548	0.001688	28.0813	97.8152	0.001803	54263.1	1.966630	174.692	443.878	1.183813	0.096747	0.096474	450.561	54263.1	0.090519	0.257432	1750.22	97711.8
616	2.000000	1.186688	7.37108e+06	-46289.1	1005.82	-29769.7	0.000000	0.000000	7.206364	469.867	NaN	0.000000	0.001568	0.001716	28.0817	101.461	0.001789	56702.7	8.289080	-11.551	469.682	1.186231	0.099349	0.098892	469.867	56702.7	0.093134	0.270728	1735.57	99565.9
616	2.000000	1.189090	7.37108e+06	-46289.1	1005.82	-29769.7	0.000000	0.000000	7.209754	493.918	NaN	0.000000	0.001568	0.001692	28.0812	103.588	0.001779	58242.5	6.392578	170.229	489.123	1.188830	0.101751	0.101491	493.918	58242.5	0.095391	0.282452	1748.68	100125
616	2.000000	1.190157	7.37108e+06	-46289.1	1005.82	-29769.7	0.000000	0.000000	7.210857	494.787	NaN	0.000000	0.001530	0.001702	28.0815	102.771	0.001765	58226.1	0.620684	175.895	493.332	1.189906	0.102818	0.102567	494.787	58226.1	0.096445	0.288006	1717.97	99126.5