File: remote_trans/data/nanoindenter/0828-1/data/Data_2025-08-06,11h17m57s/2025-07-22_16-23-58_1_435.txt
2025-07-22, 16:23:58, 1
Index	Phase	Displacement	Time	Pos X	Pos Y	Pos Z	Rot A	Rot B	Piezo Z	Force A	Force B	Gripper	Voltage A	Voltage B	Temperature	Amplitude force	Amplitude pos	Stiffness	Phase shift	Phase excitation	Force A raw	Displacement raw	HMax	HMax raw	Real Force	Real Stiffness	Contact Depth	Area	Hardness	Reduced Mod.
[#]	[#]	[um]	[s]	[um]	[um]	[um]	[m°]	[m°]	[um]	[uN]	[uN]	[V]	[V]	[V]	[°C]	[uN]	[um]	[N/m]	[°]	[°]	[uN]	[um]	[um]	[um]	[uN]	[N/m]	[um]	[um^2]	[MPa]	[MPa]
435	1.000000	0.002465	7.36931e+06	-55339.1	1005.82	-29741.8	0.000000	0.000000	6.002803	0.024450	NaN	0.000000	0.001610	0.001809	28.0823	0.048626	0.001140	42.6498	-58.8475	-168.048	0.043294	0.001188	-1.169308	-1.170585	0.024450	42.6498	-1.169738	-4.318889E+15	-5.661236E-18	NaN
435	1.000000	0.012506	7.36931e+06	-55339.1	1005.82	-29741.8	0.000000	0.000000	6.012844	0.026200	NaN	0.000000	0.001637	0.001802	28.0809	0.059108	0.001251	47.2669	51.1594	15.2434	0.058684	0.011017	-1.159267	-1.160756	0.026200	47.2669	-1.159682	-3.166733E+15	-8.273581E-18	NaN
435	1.000000	0.022398	7.36931e+06	-55339.1	1005.82	-29741.8	0.000000	0.000000	6.022735	-0.003702	NaN	0.000000	0.001626	0.001788	28.0804	0.020914	0.001672	12.5099	0.277496	-164.606	-0.076972	0.021104	-1.149374	-1.150669	-0.003702	12.5099	-1.149153	-2.288012E+15	1.618030E-18	NaN
435	1.000000	0.032406	7.36931e+06	-55339.1	1005.82	-29741.8	0.000000	0.000000	6.032742	-0.045116	NaN	0.000000	0.001561	0.001809	28.0805	0.182483	0.001899	96.0999	-89.9591	15.3975	-0.086091	0.030987	-1.139366	-1.140786	-0.045116	96.0999	-1.139014	-1.673095E+15	2.696578E-17	NaN
435	1.000000	0.042420	7.36931e+06	-55339.1	1005.82	-29741.8	0.000000	0.000000	6.042757	0.021013	NaN	0.000000	0.001624	0.001826	28.0809	0.037303	0.001873	19.9131	-40.3547	-165.286	0.022573	0.041076	-1.129353	-1.130697	0.021013	19.9131	-1.130145	-1.272225E+15	-1.651657E-17	NaN
435	1.000000	0.052396	7.36931e+06	-55339.1	1005.82	-29741.8	0.000000	0.000000	6.052731	-0.069038	NaN	0.000000	0.001599	0.001774	28.0807	0.064038	0.002081	30.7729	161.172	16.3895	-0.098037	0.051049	-1.119376	-1.120724	-0.069038	30.7729	-1.117694	-8.660232E+14	7.971879E-17	NaN
435	1.000000	0.062442	7.36931e+06	-55339.1	1005.82	-29741.8	0.000000	0.000000	6.062780	0.034025	NaN	0.000000	0.001582	0.001778	28.0807	0.038555	0.001851	20.8239	-158.181	-164.57	0.060123	0.061117	-1.109331	-1.110656	0.034025	20.8239	-1.110556	-6.946284E+14	-4.898350E-17	NaN
435	1.000000	0.072379	7.36931e+06	-55339.1	1005.82	-29741.8	0.000000	0.000000	6.072718	0.043577	NaN	0.000000	0.001600	0.001810	28.0811	0.138591	0.002071	66.9263	-118.475	13.0526	0.016176	0.071084	-1.099394	-1.100689	0.043577	66.9263	-1.099882	-4.994440E+14	-8.725033E-17	NaN
435	1.000000	0.082435	7.36931e+06	-55339.1	1005.82	-29741.8	0.000000	0.000000	6.082772	0.007660	NaN	0.000000	0.001605	0.001814	28.0808	0.142084	0.001966	72.2862	111.972	-165.462	0.041707	0.081139	-1.089338	-1.090634	0.007660	72.2862	-1.089418	-3.614039E+14	-2.119619E-17	NaN
435	1.000000	0.092423	7.36931e+06	-55339.1	1005.82	-29741.8	0.000000	0.000000	6.092761	0.014772	NaN	0.000000	0.001552	0.001786	28.081	0.119662	0.001984	60.3231	114.365	12.5819	-0.051660	0.091049	-1.079350	-1.080724	0.014772	60.3231	-1.079533	-2.662255E+14	-5.548684E-17	NaN
435	1.000000	0.102430	7.36931e+06	-55339.1	1005.82	-29741.8	0.000000	0.000000	6.102768	0.037841	NaN	0.000000	0.001606	0.001793	28.0806	0.084928	0.002099	40.4655	31.0482	-163.537	-0.002920	0.101170	-1.069343	-1.070602	0.037841	40.4655	-1.070045	-1.985128E+14	-1.906218E-16	NaN
435	1.000000	0.112409	7.36931e+06	-55339.1	1005.82	-29741.8	0.000000	0.000000	6.112746	0.002669	NaN	0.000000	0.001633	0.001808	28.0808	0.082039	0.001940	42.2865	-75.6366	12.6605	-0.012228	0.111042	-1.059364	-1.060731	0.002669	42.2865	-1.059411	-1.428604E+14	-1.868564E-17	NaN
435	1.000000	0.122435	7.36931e+06	-55339.1	1005.82	-29741.8	0.000000	0.000000	6.122775	0.061144	NaN	0.000000	0.001604	0.001836	28.0807	0.073425	0.002051	35.7991	127.031	-164.407	0.045451	0.121140	-1.049338	-1.050633	0.061144	35.7991	-1.050619	-1.088257E+14	-5.618503E-16	NaN
435	1.000000	0.132474	7.36931e+06	-55339.1	1005.82	-29741.8	0.000000	0.000000	6.132808	-0.092918	NaN	0.000000	0.001595	0.001800	28.0813	0.022831	0.001986	11.4948	-70.6166	15.8321	-0.101062	0.131081	-1.039298	-1.040692	-0.092918	11.4948	-1.033236	-6.353348E+13	1.462504E-15	NaN
435	1.000000	0.142451	7.36931e+06	-55339.1	1005.82	-29741.8	0.000000	0.000000	6.142789	0.016067	NaN	0.000000	0.001639	0.001782	28.0808	0.028982	0.001905	15.2151	48.7042	-164.801	-0.026605	0.141165	-1.029321	-1.030608	0.016067	15.2151	-1.030113	-5.767737E+13	-2.785645E-16	NaN
435	1.000000	0.152448	7.36931e+06	-55339.1	1005.82	-29741.8	0.000000	0.000000	6.152785	-0.000651	NaN	0.000000	0.001579	0.001801	28.0829	0.071157	0.001970	36.1142	115.808	13.8515	-0.008335	0.151100	-1.019325	-1.020673	-0.000651	36.1142	-1.019311	-4.127457E+13	1.577511E-17	NaN
435	1.000000	0.162435	7.36931e+06	-55339.1	1005.82	-29741.8	0.000000	0.000000	6.162771	-0.026496	NaN	0.000000	0.001604	0.001787	28.0822	0.073655	0.002076	35.4753	44.5395	-166.001	-0.089655	0.161175	-1.009338	-1.010598	-0.026496	35.4753	-1.008777	-2.978012E+13	8.897115E-16	NaN
435	1.000000	0.172470	7.36931e+06	-55339.1	1005.82	-29741.8	0.000000	0.000000	6.172807	0.009426	NaN	0.000000	0.001614	0.001787	28.0829	0.060668	0.001990	30.4883	-158.504	13.5148	-0.045442	0.171089	-0.999303	-1.000684	0.009426	30.4883	-0.999535	-2.236191E+13	-4.215029E-16	NaN
435	1.000000	0.182469	7.36931e+06	-55339.1	1005.82	-29741.8	0.000000	0.000000	6.182805	-0.018995	NaN	0.000000	0.001605	0.001796	28.0817	0.072969	0.001998	36.528	-178.82	-168.43	-0.038765	0.181128	-0.989304	-0.990645	-0.018995	36.528	-0.988914	-1.608739E+13	1.180760E-15	NaN
435	1.000000	0.192490	7.36931e+06	-55339.1	1005.82	-29741.8	0.000000	0.000000	6.192824	-0.057927	NaN	0.000000	0.001613	0.001813	28.0821	0.098797	0.002005	49.277	-41.6647	18.8874	-0.060962	0.191125	-0.979283	-0.980648	-0.057927	49.277	-0.978401	-1.161109E+13	4.988905E-15	NaN
435	1.000000	0.202483	7.36931e+06	-55339.1	1005.82	-29741.8	0.000000	0.000000	6.202823	0.073689	NaN	0.000000	0.001596	0.001781	28.0819	0.020849	0.002064	10.1024	154.391	-164.203	0.048862	0.201196	-0.969290	-0.970577	0.073689	10.1024	-0.974760	-1.037077E+13	-7.105471E-15	NaN
435	1.000000	0.212474	7.36931e+06	-55339.1	1005.82	-29741.8	0.000000	0.000000	6.212812	0.031164	NaN	0.000000	0.001691	0.001785	28.0819	0.094032	0.001886	49.848	129.939	16.0633	0.054678	0.211101	-0.959299	-0.960672	0.031164	49.848	-0.959768	-6.512371E+12	-4.785329E-15	NaN
435	1.000000	0.222467	7.36931e+06	-55339.1	1005.82	-29741.8	0.000000	0.000000	6.222808	0.088538	NaN	0.000000	0.001684	0.001758	28.0821	0.010976	0.002074	5.291921	-115.986	-164.353	0.014991	0.221173	-0.949305	-0.950600	0.088538	5.291921	-0.961853	-6.947947E+12	-1.274306E-14	NaN
435	1.000000	0.232497	7.36931e+06	-55339.1	1005.82	-29741.8	0.000000	0.000000	6.232833	-0.029538	NaN	0.000000	0.001617	0.001735	28.0821	0.119591	0.002043	58.5372	-35.2811	15.7918	0.019809	0.231154	-0.939276	-0.940619	-0.029538	58.5372	-0.938897	-3.406129E+12	8.672136E-15	NaN
435	1.000000	0.242485	7.36931e+06	-55339.1	1005.82	-29741.8	0.000000	0.000000	6.242822	0.002850	NaN	0.000000	0.001638	0.001784	28.0816	0.145369	0.002031	71.5827	-155.599	-165.567	-0.087771	0.241209	-0.929287	-0.930564	0.002850	71.5827	-0.929317	-2.529202E+12	-1.126666E-15	NaN
435	1.000000	0.252499	7.36931e+06	-55339.1	1005.82	-29741.8	0.000000	0.000000	6.252839	0.056320	NaN	0.000000	0.001571	0.001782	28.0818	0.065328	0.001866	35.0101	34.8227	16.0014	0.097556	0.251134	-0.919274	-0.920639	0.056320	35.0101	-0.920480	-1.921716E+12	-2.930726E-14	NaN
435	1.000000	0.262488	7.36931e+06	-55339.1	1005.82	-29741.8	0.000000	0.000000	6.262823	-0.055045	NaN	0.000000	0.001598	0.001798	28.0818	0.063462	0.001927	32.9308	-6.459077	-169.038	-0.004529	0.261287	-0.909285	-0.910486	-0.055045	32.9308	-0.908031	-1.304881E+12	4.218389E-14	NaN
435	1.000000	0.272505	7.36931e+06	-55339.1	1005.82	-29741.8	0.000000	0.000000	6.272840	-0.057094	NaN	0.000000	0.001608	0.001762	28.0818	0.062678	0.002163	28.9801	-114.48	14.3004	-0.033937	0.271161	-0.899267	-0.900612	-0.057094	28.9801	-0.897790	-9.488579E+11	6.017178E-14	NaN
435	1.000000	0.282502	7.36931e+06	-55339.1	1005.82	-29741.8	0.000000	0.000000	6.282841	0.046115	NaN	0.000000	0.001609	0.001780	28.0814	0.052041	0.002013	25.8543	-34.6196	-166.149	0.007458	0.281179	-0.889271	-0.890594	0.046115	25.8543	-0.890609	-7.588266E+11	-6.077125E-14	NaN
435	1.000000	0.292513	7.36931e+06	-55339.1	1005.82	-29741.8	0.000000	0.000000	6.292850	-0.006631	NaN	0.000000	0.001629	0.001800	28.0804	0.103852	0.002039	50.9364	-57.0507	16.0877	-0.019655	0.291163	-0.879260	-0.880610	-0.006631	50.9364	-0.879162	-5.313419E+11	1.248018E-14	NaN
435	1.000000	0.302509	7.36931e+06	-55339.1	1005.82	-29741.8	0.000000	0.000000	6.302844	-0.059820	NaN	0.000000	0.001616	0.001806	28.0806	0.100928	0.002028	49.7774	169.916	-164.579	-0.029805	0.301178	-0.869264	-0.870594	-0.059820	49.7774	-0.868362	-3.795673E+11	1.576011E-13	NaN
435	1.000000	0.312511	7.36931e+06	-55339.1	1005.82	-29741.8	0.000000	0.000000	6.312849	0.016575	NaN	0.000000	0.001609	0.001769	28.0807	0.081571	0.002033	40.133	-77.7133	15.3113	0.042177	0.311150	-0.859261	-0.860623	0.016575	40.133	-0.859571	-2.886138E+11	-5.742892E-14	NaN
435	1.000000	0.322548	7.36931e+06	-55339.1	1005.82	-29741.8	0.000000	0.000000	6.322886	0.023994	NaN	0.000000	0.001698	0.001808	28.0808	0.040076	0.002115	18.9514	45.6969	-163.827	0.000299	0.321205	-0.849225	-0.850568	0.023994	18.9514	-0.850174	-2.153267E+11	-1.114314E-13	NaN
435	1.000000	0.332523	7.36931e+06	-55339.1	1005.82	-29741.8	0.000000	0.000000	6.332858	-0.050069	NaN	0.000000	0.001648	0.001820	28.0809	0.006433	0.002068	3.110349	-5.233239	14.6347	-0.028857	0.331147	-0.839250	-0.840626	-0.050069	3.110349	-0.827176	-1.050776E+11	4.764961E-13	NaN
435	1.000000	0.342538	7.36931e+06	-55339.1	1005.82	-29741.8	0.000000	0.000000	6.342875	-0.015035	NaN	0.000000	0.001669	0.001802	28.0808	0.055965	0.001996	28.0428	-96.5682	-161.768	0.023418	0.341191	-0.829235	-0.830582	-0.015035	28.0428	-0.828833	-1.106521E+11	1.358798E-13	NaN
435	1.000000	0.352527	7.36931e+06	-55339.1	1005.82	-29741.8	0.000000	0.000000	6.352864	-0.005696	NaN	0.000000	0.001714	0.001823	28.0804	0.014597	0.001947	7.498603	-42.4977	15.0472	0.052235	0.351184	-0.819245	-0.820589	-0.005696	7.498603	-0.818676	-8.058476E+10	7.068470E-14	NaN
435	1.000000	0.362542	7.36931e+06	-55339.1	1005.82	-29741.8	0.000000	0.000000	6.362880	0.023159	NaN	0.000000	0.001654	0.001812	28.081	0.011269	0.002004	5.623944	-25.1817	-165.578	0.065522	0.361204	-0.809231	-0.810569	0.023159	5.623944	-0.812319	-6.607477E+10	-3.504923E-13	NaN
435	1.000000	0.372539	7.36931e+06	-55339.1	1005.82	-29741.8	0.000000	0.000000	6.372875	-0.013721	NaN	0.000000	0.001651	0.001791	28.0811	0.049155	0.002142	22.9455	45.2608	14.1572	0.075971	0.371184	-0.799234	-0.800588	-0.013721	22.9455	-0.798786	-4.328923E+10	3.169537E-13	NaN
435	1.000000	0.382550	7.36931e+06	-55339.1	1005.82	-29741.8	0.000000	0.000000	6.382889	0.064301	NaN	0.000000	0.001654	0.001805	28.081	0.074780	0.001925	38.8518	-14.513	-165.72	0.000123	0.381203	-0.789223	-0.790570	0.064301	38.8518	-0.790465	-3.337283E+10	-1.926741E-12	NaN
435	1.000000	0.392548	7.36931e+06	-55339.1	1005.82	-29741.8	0.000000	0.000000	6.392886	0.021598	NaN	0.000000	0.001587	0.001811	28.0808	0.182351	0.002040	89.3805	33.3162	12.555	-0.026972	0.391161	-0.779225	-0.780612	0.021598	89.3805	-0.779406	-2.361370E+10	-9.146188E-13	NaN
435	1.000000	0.402548	7.36931e+06	-55339.1	1005.82	-29741.8	0.000000	0.000000	6.402886	0.024540	NaN	0.000000	0.001571	0.001776	28.0812	0.107715	0.002011	53.5647	53.812	-163.7	0.099469	0.401198	-0.769225	-0.770575	0.024540	53.5647	-0.769568	-1.735545E+10	-1.413954E-12	NaN
435	1.000000	0.412552	7.36931e+06	-55339.1	1005.82	-29741.8	0.000000	0.000000	6.412888	-0.015957	NaN	0.000000	0.001622	0.001772	28.0806	0.070314	0.001896	37.0875	175.223	14.6837	0.025839	0.411250	-0.759221	-0.760523	-0.015957	37.0875	-0.758898	-1.242541E+10	1.284242E-12	NaN
435	1.000000	0.422577	7.36931e+06	-55339.1	1005.82	-29741.8	0.000000	0.000000	6.422917	0.052687	NaN	0.000000	0.001630	0.001774	28.0819	0.137690	0.001943	70.8635	137.92	-165.371	-0.013466	0.421255	-0.749195	-0.750517	0.052687	70.8635	-0.749753	-9.329486E+9	-5.647397E-12	NaN
435	1.000000	0.432610	7.36932e+06	-55339.1	1005.82	-29741.8	0.000000	0.000000	6.432946	-0.017535	NaN	0.000000	0.001625	0.001774	28.0818	0.006642	0.001974	3.363907	143.419	16.7601	-0.069231	0.431219	-0.739163	-0.740554	-0.017535	3.363907	-0.735253	-5.920969E+9	2.961558E-12	NaN
435	1.000000	0.442595	7.36932e+06	-55339.1	1005.82	-29741.8	0.000000	0.000000	6.442935	0.080756	NaN	0.000000	0.001618	0.001810	28.0822	0.117862	0.001975	59.664	-101.744	-166.546	0.081963	0.441230	-0.729178	-0.730543	0.080756	59.664	-0.730193	-5.051684E+9	-1.598595E-11	NaN
435	1.000000	0.452587	7.36932e+06	-55339.1	1005.82	-29741.8	0.000000	0.000000	6.452923	-0.025439	NaN	0.000000	0.001617	0.001805	28.082	0.070703	0.001995	35.4349	-57.8915	15.2541	-0.010225	0.451246	-0.719186	-0.720527	-0.025439	35.4349	-0.718647	-3.515793E+9	7.235584E-12	NaN
435	1.000000	0.462575	7.36932e+06	-55339.1	1005.82	-29741.8	0.000000	0.000000	6.462913	0.038915	NaN	0.000000	0.001616	0.001837	28.0819	0.038861	0.002063	18.8353	5.388194	-162.85	0.066965	0.461249	-0.709198	-0.710524	0.038915	18.8353	-0.710748	-2.743153E+9	-1.418623E-11	NaN
435	1.000000	0.472581	7.36932e+06	-55339.1	1005.82	-29741.8	0.000000	0.000000	6.472920	0.026944	NaN	0.000000	0.001611	0.001818	28.082	0.038511	0.001871	20.5881	-27.1551	14.4784	-0.078937	0.471163	-0.699191	-0.700610	0.026944	20.5881	-0.700173	-1.967399E+9	-1.369520E-11	NaN
435	1.000000	0.482592	7.36932e+06	-55339.1	1005.82	-29741.8	0.000000	0.000000	6.482930	0.027470	NaN	0.000000	0.001629	0.001822	28.0821	0.071502	0.002221	32.1921	-39.007	-164.279	0.005456	0.481286	-0.689181	-0.690487	0.027470	32.1921	-0.689821	-1.420612E+9	-1.933684E-11	NaN
435	1.000000	0.492575	7.36932e+06	-55339.1	1005.82	-29741.8	0.000000	0.000000	6.492915	0.070835	NaN	0.000000	0.001618	0.001819	28.082	0.043052	0.002057	20.9331	-16.8703	17.601	0.000185	0.491250	-0.679197	-0.680523	0.070835	20.9331	-0.681735	-1.101381E+9	-6.431446E-11	NaN
435	1.000000	0.502597	7.36932e+06	-55339.1	1005.82	-29741.8	0.000000	0.000000	6.502936	0.048359	NaN	0.000000	0.001648	0.001837	28.0821	0.073316	0.002103	34.8707	-39.2681	-166.421	0.002159	0.501296	-0.669176	-0.670477	0.048359	34.8707	-0.670216	-7.662156E+8	-6.311468E-11	NaN
435	1.000000	0.512590	7.36932e+06	-55339.1	1005.82	-29741.8	0.000000	0.000000	6.512929	0.061975	NaN	0.000000	0.001617	0.001828	28.0821	0.115736	0.001923	60.1848	34.1019	12.1586	0.119148	0.511238	-0.659183	-0.660535	0.061975	60.1848	-0.659955	-5.544456E+8	-1.117783E-10	NaN
435	1.000000	0.522617	7.36932e+06	-55339.1	1005.82	-29741.8	0.000000	0.000000	6.522952	-0.054454	NaN	0.000000	0.001594	0.001822	28.0819	0.068064	0.002000	34.0379	-122.426	-162.856	0.011966	0.521341	-0.649156	-0.650431	-0.054454	34.0379	-0.647956	-3.796719E+8	1.434250E-10	NaN
435	1.000000	0.532625	7.36932e+06	-55339.1	1005.82	-29741.8	0.000000	0.000000	6.532963	0.009950	NaN	0.000000	0.001600	0.001833	28.0819	0.027835	0.002068	13.4622	-176.629	12.4362	-0.007947	0.531279	-0.639148	-0.640494	0.009950	13.4622	-0.639702	-2.925500E+8	-3.401170E-11	NaN
435	1.000000	0.542634	7.36932e+06	-55339.1	1005.82	-29741.8	0.000000	0.000000	6.542969	-0.038186	NaN	0.000000	0.001610	0.001840	28.0817	0.021181	0.002022	10.4774	79.5529	-166.017	-0.070644	0.541321	-0.629139	-0.630452	-0.038186	10.4774	-0.626406	-1.921576E+8	1.987219E-10	NaN
435	1.000000	0.552629	7.36932e+06	-55339.1	1005.82	-29741.8	0.000000	0.000000	6.552966	0.004357	NaN	0.000000	0.001626	0.001819	28.0822	0.086399	0.001979	43.6471	20.4595	15.3602	-0.055419	0.551312	-0.619144	-0.620461	0.004357	43.6471	-0.619218	-1.530700E+8	-2.846480E-11	NaN
435	1.000000	0.562643	7.36932e+06	-55339.1	1005.82	-29741.8	0.000000	0.000000	6.562981	0.032988	NaN	0.000000	0.001629	0.001814	28.0808	0.083060	0.002003	41.4682	9.471930	-165.308	0.026464	0.561289	-0.609130	-0.610483	0.032988	41.4682	-0.609727	-1.133319E+8	-2.910717E-10	NaN
435	1.000000	0.572638	7.36932e+06	-55339.1	1005.82	-29741.8	0.000000	0.000000	6.572976	0.015638	NaN	0.000000	0.001642	0.001776	28.0808	0.087446	0.002125	41.1469	35.724	14.5036	0.043579	0.571268	-0.599135	-0.600504	0.015638	41.1469	-0.599420	-8.174602E+7	-1.912939E-10	NaN
435	1.000000	0.582638	7.36932e+06	-55339.1	1005.82	-29741.8	0.000000	0.000000	6.582975	-0.002603	NaN	0.000000	0.001614	0.001775	28.0809	0.058423	0.002109	27.703	-69.4198	-160.128	0.037032	0.581309	-0.589134	-0.590464	-0.002603	27.703	-0.589064	-5.885201E+7	4.423576E-11	NaN
435	1.000000	0.592646	7.36932e+06	-55339.1	1005.82	-29741.8	0.000000	0.000000	6.592984	0.037543	NaN	0.000000	0.001613	0.001762	28.0808	0.135931	0.002063	65.8872	-80.9562	14.0065	-0.042730	0.591298	-0.579127	-0.580475	0.037543	65.8872	-0.579554	-4.350866E+7	-8.628774E-10	NaN
435	1.000000	0.602640	7.36932e+06	-55339.1	1005.82	-29741.8	0.000000	0.000000	6.602976	-0.023826	NaN	0.000000	0.001638	0.001799	28.081	0.009170	0.001954	4.691680	135.011	-165.182	-0.032860	0.601343	-0.569133	-0.570429	-0.023826	4.691680	-0.565325	-2.767019E+7	8.610858E-10	NaN
435	1.000000	0.612644	7.36932e+06	-55339.1	1005.82	-29741.8	0.000000	0.000000	6.612981	0.002356	NaN	0.000000	0.001617	0.001779	28.081	0.050241	0.001934	25.9739	-54.4711	19.3243	-0.011779	0.611270	-0.559129	-0.560503	0.002356	25.9739	-0.559197	-2.276499E+7	-1.034802E-10	NaN
435	1.000000	0.622658	7.36932e+06	-55339.1	1005.82	-29741.8	0.000000	0.000000	6.622994	-0.044288	NaN	0.000000	0.001574	0.001808	28.081	0.054489	0.001992	27.3572	66.713	-168.545	-0.011389	0.621411	-0.549114	-0.550362	-0.044288	27.3572	-0.547900	-1.588070E+7	2.788780E-9	NaN
435	1.000000	0.632653	7.36932e+06	-55339.1	1005.82	-29741.8	0.000000	0.000000	6.632988	-0.048800	NaN	0.000000	0.001620	0.001833	28.0811	0.038074	0.001963	19.3992	168.013	15.044	0.015283	0.631239	-0.539120	-0.540534	-0.048800	19.3992	-0.537233	-1.129740E+7	4.319557E-9	NaN
435	1.000000	0.642695	7.36932e+06	-55339.1	1005.82	-29741.8	0.000000	0.000000	6.643035	0.073012	NaN	0.000000	0.001627	0.001816	28.0812	0.132744	0.001930	68.7957	-90.7359	-165.853	0.035786	0.641323	-0.529078	-0.530450	0.073012	68.7957	-0.529874	-8.92941e+06	-8.176540E-9	NaN
435	1.000000	0.652672	7.36932e+06	-55339.1	1005.82	-29741.8	0.000000	0.000000	6.653009	-0.004003	NaN	0.000000	0.001586	0.001820	28.0811	0.071416	0.001927	37.0527	-167.469	13.713	0.022037	0.651369	-0.519101	-0.520403	-0.004003	37.0527	-0.519020	-6.30911e+06	6.345267E-10	NaN
435	1.000000	0.662660	7.36932e+06	-55339.1	1005.82	-29741.8	0.000000	0.000000	6.662997	0.012545	NaN	0.000000	0.001596	0.001792	28.0804	0.057568	0.002033	28.3118	-137.782	-166.603	0.022265	0.661444	-0.509113	-0.510329	0.012545	28.3118	-0.509446	-4.64188e+06	-2.702466E-9	NaN
435	1.000000	0.672676	7.36932e+06	-55339.1	1005.82	-29741.8	0.000000	0.000000	6.673015	0.058159	NaN	0.000000	0.001600	0.001821	28.0807	0.023337	0.001924	12.1292	-178.417	13.8971	0.017485	0.671287	-0.499097	-0.500486	0.058159	12.1292	-0.502693	-3.73751e+06	-1.556090E-8	NaN
435	1.000000	0.682678	7.36932e+06	-55339.1	1005.82	-29741.8	0.000000	0.000000	6.683015	-0.013721	NaN	0.000000	0.001628	0.001772	28.0806	0.010327	0.001943	5.315272	-116.384	-162.798	-0.024823	0.681390	-0.489095	-0.490383	-0.013721	5.315272	-0.487159	-2.26818e+06	6.049405E-9	NaN
435	1.000000	0.692697	7.36932e+06	-55339.1	1005.82	-29741.8	0.000000	0.000000	6.693037	0.079553	NaN	0.000000	0.001641	0.001767	28.0814	0.015066	0.001978	7.616390	-170.002	12.4346	0.061039	0.691277	-0.479076	-0.480496	0.079553	7.616390	-0.486910	-2.25008e+06	-3.535574E-8	NaN
435	1.000000	0.702681	7.36932e+06	-55339.1	1005.82	-29741.8	0.000000	0.000000	6.703019	0.009308	NaN	0.000000	0.001689	0.001785	28.0819	0.104971	0.001882	55.7774	176.012	-167.759	0.044882	0.701385	-0.469092	-0.470388	0.009308	55.7774	-0.469217	-1.27181e+06	-7.319022E-9	NaN
435	1.000000	0.712680	7.36932e+06	-55339.1	1005.82	-29741.8	0.000000	0.000000	6.713020	0.070012	NaN	0.000000	0.001678	0.001775	28.082	0.039969	0.002034	19.6541	94.0729	15.4613	0.015017	0.711394	-0.459093	-0.460379	0.070012	19.6541	-0.461764	-999552	-7.004293E-8	NaN
435	1.000000	0.722715	7.36932e+06	-55339.1	1005.82	-29741.8	0.000000	0.000000	6.723050	-0.038667	NaN	0.000000	0.001690	0.001799	28.0818	0.063087	0.002194	28.757	138.349	-167.146	-0.032007	0.721404	-0.449058	-0.450369	-0.038667	28.757	-0.448049	-641014	6.032096E-8	NaN
435	1.000000	0.732680	7.36932e+06	-55339.1	1005.82	-29741.8	0.000000	0.000000	6.733018	0.024046	NaN	0.000000	0.001701	0.001736	28.0821	0.134532	0.001939	69.3834	110.48	11.8477	0.094077	0.731335	-0.439093	-0.440438	0.024046	69.3834	-0.439353	-483316	-4.975289E-8	NaN
435	1.000000	0.742692	7.36932e+06	-55339.1	1005.82	-29741.8	0.000000	0.000000	6.743029	-0.002099	NaN	0.000000	0.001749	0.001778	28.0814	0.024928	0.002054	12.1391	-141.088	-163.807	-0.046478	0.741368	-0.429081	-0.430405	-0.002099	12.1391	-0.428951	-344523	6.092919E-9	NaN
435	1.000000	0.752701	7.36932e+06	-55339.1	1005.82	-29741.8	0.000000	0.000000	6.753039	0.027279	NaN	0.000000	0.001690	0.001810	28.0817	0.091413	0.001964	46.547	-75.9975	15.9893	-0.033559	0.751334	-0.419072	-0.420439	0.027279	46.547	-0.419511	-253212	-1.077325E-7	NaN
435	1.000000	0.762719	7.36932e+06	-55339.1	1005.82	-29741.8	0.000000	0.000000	6.763057	0.026697	NaN	0.000000	0.001704	0.001790	28.0818	0.055462	0.002132	26.0117	-107.851	-165.424	-0.034462	0.761414	-0.409054	-0.410359	0.026697	26.0117	-0.409824	-184456	-1.447351E-7	NaN
435	1.000000	0.772720	7.36932e+06	-55339.1	1005.82	-29741.8	0.000000	0.000000	6.773057	0.013283	NaN	0.000000	0.001681	0.001836	28.0819	0.120283	0.002098	57.3442	-166.952	13.9733	-0.014165	0.771345	-0.399053	-0.400428	0.013283	57.3442	-0.399227	-130307	-1.019398E-7	NaN
435	1.000000	0.782710	7.36932e+06	-55339.1	1005.82	-29741.8	0.000000	0.000000	6.783048	0.018453	NaN	0.000000	0.001668	0.001785	28.0818	0.011840	0.002057	5.756121	127.213	-165.91	0.072043	0.781407	-0.389063	-0.390366	0.018453	5.756121	-0.391467	-100960	-1.827788E-7	NaN
435	1.000000	0.792723	7.36932e+06	-55339.1	1005.82	-29741.8	0.000000	0.000000	6.793060	0.009855	NaN	0.000000	0.001696	0.001773	28.0819	0.094752	0.002083	45.4901	40.3752	13.4179	0.012697	0.791363	-0.379050	-0.380409	0.009855	45.4901	-0.379212	-67388	-1.462373E-7	NaN
435	1.000000	0.802778	7.36932e+06	-55339.1	1005.82	-29741.8	0.000000	0.000000	6.803116	0.009524	NaN	0.000000	0.001643	0.001788	28.0819	0.008210	0.001989	4.128087	42.0305	-166.864	0.014385	0.801417	-0.368994	-0.370356	0.009524	4.128087	-0.370725	-50882	-1.871734E-7	NaN
435	1.000000	0.812764	7.36932e+06	-55339.1	1005.82	-29741.8	0.000000	0.000000	6.813101	0.011848	NaN	0.000000	0.001666	0.001775	28.0816	0.054700	0.001906	28.7059	-168.444	11.1745	0.005877	0.811371	-0.359009	-0.360402	0.011848	28.7059	-0.359319	-34833.2	-3.401329E-7	NaN
435	1.000000	0.822733	7.36932e+06	-55339.1	1005.82	-29741.8	0.000000	0.000000	6.823074	0.079923	NaN	0.000000	0.001662	0.001789	28.0817	0.150015	0.002082	72.0415	-108.995	-165.616	0.079640	0.821453	-0.349039	-0.350320	0.079923	72.0415	-0.349872	-25417.8	-3.144388E-6	NaN
435	1.000000	0.832750	7.36932e+06	-55339.1	1005.82	-29741.8	0.000000	0.000000	6.833085	-0.043204	NaN	0.000000	0.001660	0.001779	28.0806	0.095076	0.001986	47.8829	-142.571	12.3593	0.038039	0.831381	-0.339023	-0.340392	-0.043204	47.8829	-0.338347	-17276	2.500804E-6	NaN
435	1.000000	0.842731	7.36932e+06	-55339.1	1005.82	-29741.8	0.000000	0.000000	6.843068	-0.002133	NaN	0.000000	0.001582	0.001713	28.0807	0.077753	0.002061	37.7272	-71.5562	-165.811	0.039994	0.841404	-0.329041	-0.330369	-0.002133	37.7272	-0.328999	-12612.1	1.691075E-7	NaN
435	1.000000	0.852743	7.36932e+06	-55339.1	1005.82	-29741.8	0.000000	0.000000	6.853084	0.106139	NaN	0.000000	0.001599	0.001767	28.0805	0.061302	0.002218	27.6413	-32.4294	13.5503	0.061948	0.851386	-0.319030	-0.320387	0.106139	27.6413	-0.321910	-9925.06	-1.069409E-5	NaN
435	1.000000	0.862760	7.36932e+06	-55339.1	1005.82	-29741.8	0.000000	0.000000	6.863097	-0.011296	NaN	0.000000	0.001626	0.001752	28.0806	0.018375	0.002115	8.689591	147.278	-163.252	0.037623	0.861455	-0.309013	-0.310318	-0.011296	8.689591	-0.308038	-6194.46	1.823492E-6	NaN
435	1.000000	0.872778	7.36932e+06	-55339.1	1005.82	-29741.8	0.000000	0.000000	6.873114	-0.035156	NaN	0.000000	0.001622	0.001768	28.0807	0.110891	0.001950	56.8716	143.158	15.0428	0.010848	0.871412	-0.298994	-0.300361	-0.035156	56.8716	-0.298531	-4474.61	7.856732E-6	NaN
435	1.000000	0.882719	7.36932e+06	-55339.1	1005.82	-29741.8	0.000000	0.000000	6.883058	0.030014	NaN	0.000000	0.001640	0.001752	28.0807	0.024789	0.001970	12.5842	15.6176	-166.364	0.011337	0.881460	-0.289053	-0.290313	0.030014	12.5842	-0.290842	-3434.92	-8.737798E-6	NaN
435	1.000000	0.892788	7.36932e+06	-55339.1	1005.82	-29741.8	0.000000	0.000000	6.893123	-0.051722	NaN	0.000000	0.001641	0.001757	28.0806	0.098496	0.002004	49.1502	125.576	13.7684	0.002544	0.891437	-0.278985	-0.280336	-0.051722	49.1502	-0.278196	-2216.82	2.333184E-5	NaN
435	1.000000	0.902784	7.36932e+06	-55339.1	1005.82	-29741.8	0.000000	0.000000	6.903124	0.079410	NaN	0.000000	0.001597	0.001734	28.0808	0.020427	0.002038	10.0233	36.3538	-164.567	-0.046004	0.901453	-0.268989	-0.270319	0.079410	10.0233	-0.274931	-1978.58	-4.013479E-5	NaN
435	1.000000	0.912738	7.36932e+06	-55339.1	1005.82	-29741.8	0.000000	0.000000	6.913076	0.021432	NaN	0.000000	0.001614	0.001751	28.0811	0.061738	0.001926	32.0492	-80.0842	12.0904	0.061525	0.911390	-0.259035	-0.260383	0.021432	32.0492	-0.259537	-1152.96	-1.858878E-5	NaN
435	1.000000	0.922759	7.36932e+06	-55339.1	1005.82	-29741.8	0.000000	0.000000	6.923096	-0.007360	NaN	0.000000	0.001610	0.001772	28.0807	0.110433	0.002017	54.7595	32.5538	-168.004	0.032879	0.921520	-0.249014	-0.250252	-0.007360	54.7595	-0.248913	-790.943	9.304920E-6	NaN
435	1.000000	0.932821	7.36932e+06	-55339.1	1005.82	-29741.8	0.000000	0.000000	6.933156	-0.036312	NaN	0.000000	0.001590	0.001747	28.0808	0.044214	0.001952	22.6463	74.139	11.0587	0.011626	0.931417	-0.238952	-0.240356	-0.036312	22.6463	-0.237749	-530.099	6.850082E-5	NaN
435	1.000000	0.942823	7.36932e+06	-55339.1	1005.82	-29741.8	0.000000	0.000000	6.943159	-0.003066	NaN	0.000000	0.001630	0.001763	28.0809	0.052298	0.002091	25.0079	-123.389	-166.931	0.096776	0.941468	-0.228950	-0.230305	-0.003066	25.0079	-0.228858	-384.13	7.981463E-6	NaN
435	1.000000	0.952769	7.36932e+06	-55339.1	1005.82	-29741.8	0.000000	0.000000	6.953104	-0.049061	NaN	0.000000	0.001624	0.001725	28.0808	0.139575	0.001938	72.0038	-46.1844	15.7459	-0.015186	0.951415	-0.219004	-0.220357	-0.049061	72.0038	-0.218493	-262.763	0.000187	NaN
435	1.000000	0.962812	7.36932e+06	-55339.1	1005.82	-29741.8	0.000000	0.000000	6.963148	-0.024100	NaN	0.000000	0.001589	0.001681	28.0806	0.082276	0.002067	39.8081	-172.792	-167.917	-0.037646	0.961533	-0.208961	-0.210239	-0.024100	39.8081	-0.208507	-181.391	0.000133	NaN
435	1.000000	0.972806	7.36932e+06	-55339.1	1005.82	-29741.8	0.000000	0.000000	6.973143	-0.005552	NaN	0.000000	0.001599	0.001723	28.0819	0.053872	0.001986	27.1256	-16.8233	17.5868	0.014349	0.971393	-0.198967	-0.200379	-0.005552	27.1256	-0.198813	-125.945	4.408083E-5	NaN
435	1.000000	0.982816	7.36932e+06	-55339.1	1005.82	-29741.8	0.000000	0.000000	6.983151	-0.058275	NaN	0.000000	0.001584	0.001750	28.0828	0.035300	0.002033	17.3633	-64.8981	-165.166	-0.069592	0.981539	-0.188956	-0.190234	-0.058275	17.3633	-0.186439	-78.4076	0.000743	NaN
435	1.000000	0.992791	7.36932e+06	-55339.1	1005.82	-29741.8	0.000000	0.000000	6.993127	-0.031155	NaN	0.000000	0.001576	0.001743	28.0821	0.057514	0.002074	27.7336	-106.867	11.8009	-0.034435	0.991434	-0.178982	-0.180339	-0.031155	27.7336	-0.178139	-56.7223	0.000549	NaN
435	1.000000	1.002809	7.36932e+06	-55339.1	1005.82	-29741.8	0.000000	0.000000	7.003146	-0.005856	NaN	0.000000	0.001578	0.001721	28.0816	0.103682	0.002093	49.537	176.116	-164.747	-0.033935	1.001494	-0.168964	-0.170279	-0.005856	49.537	-0.168875	-39.2693	0.000149	NaN
435	1.000000	1.012822	7.36932e+06	-55339.1	1005.82	-29741.8	0.000000	0.000000	7.013156	-0.088941	NaN	0.000000	0.001590	0.001747	28.0821	0.058094	0.001809	32.1128	27.3794	15.9687	-0.018787	1.011431	-0.158950	-0.160341	-0.088941	32.1128	-0.156873	-24.1106	0.003689	NaN
435	1.000000	1.022818	7.36932e+06	-55339.1	1005.82	-29741.8	0.000000	0.000000	7.023158	0.063207	NaN	0.000000	0.001606	0.001732	28.0823	0.077095	0.001904	40.481	115.7	-168.116	-0.025593	1.021557	-0.148955	-0.150216	0.063207	40.481	-0.150126	-18.2096	-0.003471	NaN
435	1.000000	1.032780	7.36932e+06	-55339.1	1005.82	-29741.8	0.000000	0.000000	7.033118	0.007713	NaN	0.000000	0.001569	0.001754	28.0819	0.058696	0.001984	29.5907	-121.892	11.773	-0.038642	1.031420	-0.138992	-0.140353	0.007713	29.5907	-0.139188	-11.4207	-0.000675	NaN
435	1.000000	1.042835	7.36932e+06	-55339.1	1005.82	-29741.8	0.000000	0.000000	7.043170	-0.050473	NaN	0.000000	0.001572	0.001720	28.0818	0.034002	0.001997	17.0288	-17.6976	-169.175	-0.057137	1.041474	-0.128937	-0.130298	-0.050473	17.0288	-0.126714	-6.573666	0.007678	NaN
435	1.000000	1.052779	7.36932e+06	-55339.1	1005.82	-29741.8	0.000000	0.000000	7.053117	0.023759	NaN	0.000000	0.001567	0.001724	28.0818	0.064466	0.002095	30.7742	-104.4	10.5147	-0.009265	1.051471	-0.118994	-0.120301	0.023759	30.7742	-0.119573	-4.736549	-0.005016	NaN
435	1.000000	1.062819	7.36932e+06	-55339.1	1005.82	-29741.8	0.000000	0.000000	7.063153	-0.057830	NaN	0.000000	0.001615	0.001692	28.0818	0.047713	0.002067	23.0785	-141.658	-164.427	-0.087619	1.061515	-0.108954	-0.110258	-0.057830	23.0785	-0.107075	-2.604748	0.022202	NaN
435	1.000000	1.072847	7.36932e+06	-55339.1	1005.82	-29741.8	0.000000	0.000000	7.073186	0.038571	NaN	0.000000	0.001584	0.001752	28.0818	0.100344	0.001985	50.5491	173.043	14.7392	-0.032528	1.071503	-0.098926	-0.100270	0.038571	50.5491	-0.099498	-1.780869	-0.021658	NaN
435	1.000000	1.082844	7.36932e+06	-55339.1	1005.82	-29741.8	0.000000	0.000000	7.083182	0.041524	NaN	0.000000	0.001612	0.001753	28.0817	0.033245	0.002000	16.6212	31.8639	-163.861	0.033142	1.081516	-0.088929	-0.090257	0.041524	16.6212	-0.090803	-1.128775	-0.036787	NaN
435	1.000000	1.092856	7.36932e+06	-55339.1	1005.82	-29741.8	0.000000	0.000000	7.093191	-0.062720	NaN	0.000000	0.001573	0.001791	28.0818	0.025063	0.002110	11.8775	52.536	14.2918	-0.021467	1.091523	-0.078916	-0.080250	-0.062720	11.8775	-0.074956	-0.460660	0.136152	NaN
435	1.000000	1.102852	7.36932e+06	-55339.1	1005.82	-29741.8	0.000000	0.000000	7.103190	0.006137	NaN	0.000000	0.001627	0.001766	28.0813	0.042928	0.002043	21.0129	51.8298	-165.859	0.062067	1.101556	-0.068920	-0.070217	0.006137	21.0129	-0.069139	-0.323422	-0.018974	NaN
435	1.000000	1.112844	7.36932e+06	-55339.1	1005.82	-29741.8	0.000000	0.000000	7.113180	-0.018357	NaN	0.000000	0.001614	0.001782	28.0805	0.023413	0.002056	11.3872	7.987131	12.9208	0.004489	1.111488	-0.058929	-0.060285	-0.018357	11.3872	-0.057720	-0.154747	0.118624	NaN
435	1.000000	1.122838	7.36932e+06	-55339.1	1005.82	-29741.8	0.000000	0.000000	7.123178	0.068543	NaN	0.000000	0.001610	0.001785	28.0805	0.094769	0.001965	48.2244	-42.644	-166.069	0.043546	1.121531	-0.048935	-0.050242	0.068543	48.2244	-0.050001	-0.091254	-0.751119	NaN
435	1.000000	1.132881	7.36932e+06	-55339.1	1005.82	-29741.8	0.000000	0.000000	7.133218	0.009971	NaN	0.000000	0.001614	0.001769	28.0809	0.109997	0.002030	54.1755	-43.5708	14.0046	-0.108330	1.131516	-0.038892	-0.040257	0.009971	54.1755	-0.039030	-0.042261	-0.235925	NaN
435	1.000000	1.142861	7.36932e+06	-55339.1	1005.82	-29741.8	0.000000	0.000000	7.143197	-0.010906	NaN	0.000000	0.001598	0.001810	28.0804	0.081910	0.001974	41.4886	37.3852	-165.74	-0.029760	1.141535	-0.028912	-0.030237	-0.010906	41.4886	-0.028715	-0.021206	0.514307	NaN
435	1.000000	1.152842	7.36932e+06	-55339.1	1005.82	-29741.8	0.000000	0.000000	7.153182	0.051080	NaN	0.000000	0.001625	0.001809	28.0807	0.173708	0.002080	83.5073	64.3003	12.5012	0.051613	1.151531	-0.018930	-0.020242	0.051080	83.5073	-0.019389	-0.012119	-4.214943	NaN
435	1.000000	1.162887	7.36932e+06	-55339.1	1005.82	-29741.8	0.000000	0.000000	7.163227	0.090762	NaN	0.000000	0.001593	0.001777	28.0806	0.084331	0.002080	40.5415	17.8051	-165.575	0.120616	1.161644	-0.008886	-0.010129	0.090762	40.5415	-0.010565	-0.006710	-13.526	NaN
435	1.000000	1.172889	7.36932e+06	-55339.1	1005.82	-29741.8	0.000000	0.000000	7.173246	0.483810	NaN	0.000000	0.001550	0.001721	28.0806	0.787418	0.001916	410.91	19.387	13.5851	0.270349	1.171477	0.001116	-0.000296	0.483810	410.91	0.000233	0.000175	2769.07	28402.1
435	1.000000	1.182845	7.36932e+06	-55339.1	1005.82	-29741.8	0.000000	0.000000	7.183462	6.814294	NaN	0.000000	0.001610	0.001722	28.0809	6.890932	0.001653	4167.73	14.5973	-173.576	5.839427	1.181541	0.011072	0.009768	6.814294	4167.73	0.009846	0.009011	756.226	40113.3
435	2.000000	1.186918	7.36932e+06	-55339.1	1005.82	-29741.8	0.000000	0.000000	7.187643	9.423252	NaN	0.000000	0.001623	0.001747	28.0813	10.3881	0.001725	6023.08	8.533425	4.478958	8.846503	1.186578	0.015145	0.014805	9.423252	6023.08	0.013972	0.013939	676.048	46610.1
435	2.000000	1.189371	7.36932e+06	-55339.1	1005.82	-29741.8	0.000000	0.000000	7.190254	13.2642	NaN	0.000000	0.001613	0.001717	28.0809	12.9207	0.001790	7216.36	8.244111	-174.973	13.196	1.189103	0.017598	0.017330	13.2642	7216.36	0.016219	0.016946	782.732	50647.4
435	2.000000	1.191895	7.36932e+06	-55339.1	1005.82	-29741.8	0.000000	0.000000	7.192864	15.3712	NaN	0.000000	0.001604	0.001675	28.0805	14.533	0.001818	7993.63	6.692439	6.145480	14.6333	1.191560	0.020122	0.019787	15.3712	7993.63	0.018680	0.020510	749.455	50996
435	2.000000	1.194374	7.36932e+06	-55339.1	1005.82	-29741.8	0.000000	0.000000	7.195525	19.792	NaN	0.000000	0.001611	0.001714	28.0809	17.1036	0.001731	9883.24	2.584997	-173.332	19.3242	1.194005	0.022601	0.022232	19.792	9883.24	0.021099	0.024299	814.534	57927.2
435	2.000000	1.196826	7.36932e+06	-55339.1	1005.82	-29741.8	0.000000	0.000000	7.198130	23.5093	NaN	0.000000	0.001588	0.001732	28.0809	19.9269	0.001772	11242.7	7.425875	0.478072	22.5022	1.196506	0.025053	0.024733	23.5093	11242.7	0.023485	0.028316	830.24	61041.6
435	2.000000	1.199376	7.36932e+06	-55339.1	1005.82	-29741.8	0.000000	0.000000	7.200902	28.8849	NaN	0.000000	0.001582	0.001672	28.0821	22.5429	0.001855	12153	8.597204	179.632	28.6842	1.199005	0.027603	0.027232	28.8849	12153	0.025821	0.032526	888.057	61566.1
435	2.000000	1.201845	7.36932e+06	-55339.1	1005.82	-29741.8	0.000000	0.000000	7.203461	31.0933	NaN	0.000000	0.001608	0.001675	28.0822	24.3666	0.001824	13359.3	8.038644	-1.823556	30.5343	1.201566	0.030072	0.029793	31.0933	13359.3	0.028326	0.037346	832.579	63159.1
435	2.000000	1.204349	7.36932e+06	-55339.1	1005.82	-29741.8	0.000000	0.000000	7.206298	39.1886	NaN	0.000000	0.001614	0.001710	28.0822	26.5149	0.001784	14862.1	5.901510	179.773	39.0417	1.203962	0.032576	0.032189	39.1886	14862.1	0.030599	0.041994	933.195	66261.2
435	2.000000	1.206759	7.36932e+06	-55339.1	1005.82	-29741.8	0.000000	0.000000	7.209019	46.747	NaN	0.000000	0.001677	0.001721	28.083	27.7534	0.001787	15528.5	3.399257	1.732058	43.4859	1.206460	0.034986	0.034687	46.747	15528.5	0.032728	0.046588	1003.41	65730
435	2.000000	1.209328	7.36932e+06	-55339.1	1005.82	-29741.8	0.000000	0.000000	7.211698	49.4314	NaN	0.000000	0.001667	0.001727	28.0821	30.7865	0.001804	17066.7	4.521561	179.715	49.414	1.209051	0.037555	0.037279	49.4314	17066.7	0.035383	0.052641	939.026	67960.8
435	2.000000	1.211843	7.36932e+06	-55339.1	1005.82	-29741.8	0.000000	0.000000	7.214573	58.1712	NaN	0.000000	0.001609	0.001745	28.0831	32.5471	0.001683	19340.6	2.444036	0.738525	56.6022	1.211482	0.040070	0.039709	58.1712	19340.6	0.037814	0.058501	994.354	73056.8
435	2.000000	1.214268	7.36932e+06	-55339.1	1005.82	-29741.8	0.000000	0.000000	7.217250	64.2917	NaN	0.000000	0.001621	0.001739	28.082	35.0693	0.001773	19779	6.482645	176.473	63.3046	1.213950	0.042495	0.042177	64.2917	19779	0.040057	0.064177	1001.79	71332.8
435	2.000000	1.216768	7.36932e+06	-55339.1	1005.82	-29741.8	0.000000	0.000000	7.219968	69.5918	NaN	0.000000	0.001628	0.001728	28.0825	37.0163	0.001903	19455	3.652781	-0.813557	66.2338	1.216443	0.044995	0.044671	69.5918	19455	0.042313	0.070141	992.165	67114.6
435	2.000000	1.219276	7.36932e+06	-55339.1	1005.82	-29741.8	0.000000	0.000000	7.222861	78.9681	NaN	0.000000	0.001586	0.001716	28.082	39.7887	0.001845	21566.6	7.118417	174.952	77.4797	1.218980	0.047503	0.047207	78.9681	21566.6	0.044757	0.076898	1026.93	71055.5
435	2.000000	1.221869	7.36932e+06	-55339.1	1005.82	-29741.8	0.000000	0.000000	7.225797	87.2799	NaN	0.000000	0.001615	0.001724	28.0829	41.2327	0.001821	22647.1	7.572001	-5.502017	88.0971	1.221411	0.050096	0.049638	87.2799	22647.1	0.047206	0.083973	1039.38	71403
435	2.000000	1.224281	7.36932e+06	-55339.1	1005.82	-29741.8	0.000000	0.000000	7.228687	98.9108	NaN	0.000000	0.001619	0.001718	28.0819	44.0416	0.001851	23788.8	4.200223	177.269	99.3281	1.223963	0.052508	0.052190	98.9108	23788.8	0.049390	0.090537	1092.49	72232.6
435	2.000000	1.226686	7.36932e+06	-55339.1	1005.82	-29741.8	0.000000	0.000000	7.231660	112.724	NaN	0.000000	0.001600	0.001745	28.0822	45.8821	0.001751	26203.4	0.482511	0.099373	106.607	1.226359	0.054913	0.054586	112.724	26203.4	0.051686	0.097697	1153.81	76593.3
435	2.000000	1.229264	7.36932e+06	-55339.1	1005.82	-29741.8	0.000000	0.000000	7.234446	117.775	NaN	0.000000	0.001619	0.001739	28.082	49.7944	0.001808	27542.9	2.970278	177.012	115.216	1.229039	0.057491	0.057266	117.775	27542.9	0.054284	0.106113	1109.89	77249.8
435	2.000000	1.231771	7.36932e+06	-55339.1	1005.82	-29741.8	0.000000	0.000000	7.237537	131.956	NaN	0.000000	0.001630	0.001772	28.082	51.256	0.001760	29120	3.464002	-2.906459	131.223	1.231311	0.059999	0.059538	131.956	29120	0.056600	0.113899	1158.53	78832.4
435	2.000000	1.234276	7.36932e+06	-55339.1	1005.82	-29741.8	0.000000	0.000000	7.240498	143.046	NaN	0.000000	0.001629	0.001788	28.0808	53.4198	0.001753	30468.9	2.126584	177.078	140.826	1.233955	0.062504	0.062182	143.046	30468.9	0.058982	0.122185	1170.73	79638.2
435	2.000000	1.236822	7.36932e+06	-55339.1	1005.82	-29741.8	0.000000	0.000000	7.243438	152.654	NaN	0.000000	0.001624	0.001723	28.081	56.4185	0.001681	33570	7.859927	-8.536767	155.064	1.236373	0.065049	0.064600	152.654	33570	0.061638	0.131748	1158.68	84499.1
435	2.000000	1.239249	7.36932e+06	-55339.1	1005.82	-29741.8	0.000000	0.000000	7.246199	160.762	NaN	0.000000	0.001607	0.001735	28.0807	59.9313	0.001785	33581.6	5.369883	172.45	159.066	1.239100	0.067476	0.067327	160.762	33581.6	0.063885	0.140108	1147.41	81967.7
435	2.000000	1.241755	7.36932e+06	-55339.1	1005.82	-29741.8	0.000000	0.000000	7.249733	185.731	NaN	0.000000	0.001661	0.001715	28.0808	61.181	0.001787	34242.4	3.974329	-5.333840	183.178	1.241347	0.069982	0.069574	185.731	34242.4	0.065914	0.147866	1256.08	81358.6
435	2.000000	1.244321	7.36932e+06	-55339.1	1005.82	-29741.8	0.000000	0.000000	7.252538	191.571	NaN	0.000000	0.001684	0.001685	28.0809	63.6436	0.001882	33819.8	5.294803	173.11	192.591	1.243960	0.072548	0.072187	191.571	33819.8	0.068300	0.157240	1218.34	77922.6
435	2.000000	1.246679	7.36932e+06	-55339.1	1005.82	-29741.8	0.000000	0.000000	7.255454	205.109	NaN	0.000000	0.001685	0.001679	28.081	65.0789	0.001699	38294	2.163690	-5.087364	198.153	1.246339	0.074906	0.074567	205.109	38294	0.070889	0.167724	1222.89	85429.1
435	2.000000	1.249214	7.36932e+06	-55339.1	1005.82	-29741.8	0.000000	0.000000	7.258510	217.787	NaN	0.000000	0.001667	0.001729	28.081	68.8258	0.001794	38367.7	4.283510	172.517	214.935	1.249018	0.077441	0.077245	217.787	38367.7	0.073184	0.177282	1228.48	83254.5
435	2.000000	1.251743	7.36932e+06	-55339.1	1005.82	-29741.8	0.000000	0.000000	7.261873	238.071	NaN	0.000000	0.001666	0.001728	28.0809	69.7821	0.001701	41023.2	2.148857	-5.546344	234.577	1.251372	0.079970	0.079599	238.071	41023.2	0.075617	0.187686	1268.45	86514.2
435	2.000000	1.254329	7.36932e+06	-55339.1	1005.82	-29741.8	0.000000	0.000000	7.264727	244.574	NaN	0.000000	0.001714	0.001776	28.0814	73.119	0.001777	41139.2	5.577170	171.563	250.725	1.253962	0.082556	0.082189	244.574	41139.2	0.078098	0.198579	1231.62	84345.7
435	2.000000	1.256715	7.36932e+06	-55339.1	1005.82	-29741.8	0.000000	0.000000	7.268076	267.98	NaN	0.000000	0.001670	0.001783	28.081	75.1498	0.001905	39451	2.989274	-5.767941	263.934	1.256329	0.084942	0.084556	267.98	39451	0.079848	0.206439	1298.11	79329.6
435	2.000000	1.259201	7.36932e+06	-55339.1	1005.82	-29741.8	0.000000	0.000000	7.271179	282.97	NaN	0.000000	0.001676	0.001756	28.0809	77.4257	0.001756	44085.6	6.388842	170.041	280.446	1.258951	0.087428	0.087178	282.97	44085.6	0.082614	0.219151	1291.21	86039.4
435	2.000000	1.261688	7.36932e+06	-55339.1	1005.82	-29741.8	0.000000	0.000000	7.274352	299.659	NaN	0.000000	0.001640	0.001732	28.0809	77.9194	0.001625	47946	3.763730	-7.630763	293.541	1.261369	0.089915	0.089596	299.659	47946	0.085228	0.231489	1294.49	91045.9
435	2.000000	1.264179	7.36932e+06	-55339.1	1005.82	-29741.8	0.000000	0.000000	7.277555	316.961	NaN	0.000000	0.001638	0.001731	28.0811	81.0752	0.001773	45715.1	7.644284	168.584	312.885	1.263840	0.092406	0.092067	316.961	45715.1	0.087206	0.241039	1314.98	85072.6
435	2.000000	1.266704	7.36932e+06	-55339.1	1005.82	-29741.8	0.000000	0.000000	7.281127	342.41	NaN	0.000000	0.001681	0.001731	28.0814	83.1714	0.001693	49121.1	4.845850	-9.206525	336.814	1.266343	0.094931	0.094570	342.41	49121.1	0.089703	0.253347	1351.54	89162.6
435	2.000000	1.269223	7.36932e+06	-55339.1	1005.82	-29741.8	0.000000	0.000000	7.284196	355.791	NaN	0.000000	0.001705	0.001702	28.082	86.8271	0.001672	51924.4	8.067615	167.701	354.841	1.268933	0.097450	0.097160	355.791	51924.4	0.092311	0.266508	1335.01	91894.5
435	2.000000	1.271767	7.36932e+06	-55339.1	1005.82	-29741.8	0.000000	0.000000	7.287587	376.381	NaN	0.000000	0.001677	0.001710	28.082	88.0761	0.001851	47576.8	5.987477	-9.101382	373.736	1.271385	0.099994	0.099612	376.381	47576.8	0.094061	0.275513	1366.11	82812.8
435	2.000000	1.274202	7.36932e+06	-55339.1	1005.82	-29741.8	0.000000	0.000000	7.290777	394.745	NaN	0.000000	0.001689	0.001673	28.0822	91.4487	0.001701	53768	5.899495	169.269	392.425	1.273836	0.102429	0.102063	394.745	53768	0.096923	0.290542	1358.65	91136.6
435	2.000000	1.276764	7.36932e+06	-55339.1	1005.82	-29741.8	0.000000	0.000000	7.294084	412.823	NaN	0.000000	0.001651	0.001696	28.0819	93.6966	0.001766	53052.3	5.001809	-9.411213	413.13	1.276351	0.104991	0.104578	412.823	53052.3	0.099155	0.302526	1364.59	88124.4
435	2.000000	1.279081	7.36932e+06	-55339.1	1005.82	-29741.8	0.000000	0.000000	7.297254	433.581	NaN	0.000000	0.001679	0.001720	28.082	98.2267	0.001720	57123.1	8.547685	165.861	425.651	1.278893	0.107308	0.107120	433.581	57123.1	0.101615	0.315992	1372.12	92842.5
435	2.000000	1.281738	7.36932e+06	-55339.1	1005.82	-29741.8	0.000000	0.000000	7.300748	453.922	NaN	0.000000	0.001640	0.001688	28.0822	100.149	0.001790	55956.6	8.222925	-12.5901	452.728	1.281363	0.109965	0.109590	453.922	55956.6	0.103881	0.328642	1381.21	89179.1
435	2.000000	1.283158	7.36932e+06	-55339.1	1005.82	-29741.8	0.000000	0.000000	7.302433	460.359	NaN	0.000000	0.001601	0.001674	28.0821	102.168	0.001832	55753.6	1.757525	172.611	456.239	1.282866	0.111385	0.111093	460.359	55753.6	0.105193	0.336066	1369.85	87868.7