File: remote_trans/data/nanoindenter/0828-1/data/Data_2025-08-06,11h17m57s/2025-07-22_16-23-58_1_2.txt
2025-07-22, 16:23:58, 1
Index	Phase	Displacement	Time	Pos X	Pos Y	Pos Z	Rot A	Rot B	Piezo Z	Force A	Force B	Gripper	Voltage A	Voltage B	Temperature	Amplitude force	Amplitude pos	Stiffness	Phase shift	Phase excitation	Force A raw	Displacement raw	HMax	HMax raw	Real Force	Real Stiffness	Contact Depth	Area	Hardness	Reduced Mod.
[#]	[#]	[um]	[s]	[um]	[um]	[um]	[m°]	[m°]	[um]	[uN]	[uN]	[V]	[V]	[V]	[°C]	[uN]	[um]	[N/m]	[°]	[°]	[uN]	[um]	[um]	[um]	[uN]	[N/m]	[um]	[um^2]	[MPa]	[MPa]
2.000000	1.000000	0.002571	7.36506e+06	-38739.1	955.818	-29797.1	0.000000	0.000000	6.002810	0.073798	NaN	0.000000	0.001600	0.001679	28.0836	0.079880	0.000997	80.1084	-56.3197	-165.781	0.050595	0.001336	-1.062628	-1.063863	0.073798	80.1084	-1.063319	-1.612205E+14	-4.577438E-16	NaN
2.000000	1.000000	0.012661	7.36506e+06	-38739.1	955.819	-29797.1	0.000000	0.000000	6.012899	0.035814	NaN	0.000000	0.001577	0.001658	28.1216	0.024526	0.001236	19.8365	121.51	16.4114	0.029471	0.011234	-1.052537	-1.053965	0.035814	19.8365	-1.053891	-1.204268E+14	-2.973902E-16	NaN
2.000000	1.000000	0.022546	7.36506e+06	-38739.1	955.819	-29797.1	0.000000	0.000000	6.022783	0.010705	NaN	0.000000	0.001587	0.001636	28.1197	0.095591	0.001856	51.5031	141.561	-165.221	0.013919	0.021230	-1.042653	-1.043968	0.010705	51.5031	-1.042809	-8.545495E+13	-1.252689E-16	NaN
2.000000	1.000000	0.032537	7.36506e+06	-38739.1	955.819	-29797.1	0.000000	0.000000	6.032777	0.077638	NaN	0.000000	0.001579	0.001688	28.0838	0.062591	0.001867	33.524	115.944	14.0673	0.016243	0.031204	-1.032662	-1.033995	0.077638	33.524	-1.034399	-6.586340E+13	-1.178767E-15	NaN
2.000000	1.000000	0.042513	7.36506e+06	-38739.1	955.818	-29797.1	0.000000	0.000000	6.042750	0.011762	NaN	0.000000	0.001585	0.001700	28.0848	0.036633	0.001913	19.1491	136.905	-166.507	0.020530	0.041260	-1.022686	-1.023939	0.011762	19.1491	-1.023147	-4.648263E+13	-2.530367E-16	NaN
2.000000	1.000000	0.052525	7.36506e+06	-38739.1	955.818	-29797.1	0.000000	0.000000	6.052760	-0.027957	NaN	0.000000	0.001603	0.001685	28.1218	0.100393	0.002074	48.4142	159.318	12.8617	0.003314	0.051160	-1.012674	-1.014039	-0.027957	48.4142	-1.012241	-3.315428E+13	8.432411E-16	NaN
2.000000	1.000000	0.062538	7.36506e+06	-38739.1	955.819	-29797.1	0.000000	0.000000	6.062776	0.027422	NaN	0.000000	0.001603	0.001700	28.1226	0.042663	0.002069	20.6201	38.994	-166.608	0.077195	0.061202	-1.002660	-1.003997	0.027422	20.6201	-1.003658	-2.541040E+13	-1.079170E-15	NaN
2.000000	1.000000	0.072541	7.36506e+06	-38739.1	955.819	-29797.1	0.000000	0.000000	6.072778	0.018753	NaN	0.000000	0.001589	0.001666	28.0852	0.106378	0.002060	51.639	-146.079	13.9346	0.002975	0.071167	-0.992658	-0.994032	0.018753	51.639	-0.992930	-1.822111E+13	-1.029195E-15	NaN
2.000000	1.000000	0.082553	7.36506e+06	-38739.1	955.817	-29797.1	0.000000	0.000000	6.082792	0.052901	NaN	0.000000	0.001567	0.001666	28.0852	0.062120	0.002034	30.5364	59.6253	-164.815	0.094245	0.081215	-0.982645	-0.983984	0.052901	30.5364	-0.983945	-1.378964E+13	-3.836310E-15	NaN
2.000000	1.000000	0.092533	7.36506e+06	-38739.1	955.819	-29797.1	0.000000	0.000000	6.092775	0.142991	NaN	0.000000	0.001597	0.001694	28.1221	0.055487	0.002071	26.7858	178.605	14.6425	0.104825	0.091156	-0.972666	-0.974043	0.142991	26.7858	-0.976670	-1.100370E+13	-1.299478E-14	NaN
2.000000	1.000000	0.102540	7.36506e+06	-38739.1	955.818	-29797.1	0.000000	0.000000	6.102776	-0.003411	NaN	0.000000	0.001588	0.001686	28.1219	0.088444	0.001983	44.6027	105.159	-165.125	-0.009432	0.101248	-0.962659	-0.963951	-0.003411	44.6027	-0.962602	-7.111235E+12	4.797197E-16	NaN
2.000000	1.000000	0.112567	7.36506e+06	-38739.1	955.819	-29797.1	0.000000	0.000000	6.112804	0.018937	NaN	0.000000	0.001558	0.001629	28.0864	0.056211	0.002004	28.0444	5.570500	15.5273	0.000194	0.111201	-0.952632	-0.953997	0.018937	28.0444	-0.953138	-5.300897E+12	-3.572342E-15	NaN
2.000000	1.000000	0.122560	7.36506e+06	-38739.1	955.819	-29797.1	0.000000	0.000000	6.122797	0.024696	NaN	0.000000	0.001587	0.001639	28.0864	0.082254	0.001884	43.6587	-108.039	-164.041	0.073349	0.121280	-0.942639	-0.943918	0.024696	43.6587	-0.943063	-3.876727E+12	-6.370291E-15	NaN
2.000000	1.000000	0.132547	7.36506e+06	-38739.1	955.818	-29797.1	0.000000	0.000000	6.132786	0.059817	NaN	0.000000	0.001589	0.001618	28.1231	0.047997	0.001925	24.9349	113.261	15.8178	0.102902	0.131220	-0.932652	-0.933979	0.059817	24.9349	-0.934451	-2.966624E+12	-2.016318E-14	NaN
2.000000	1.000000	0.142568	7.36506e+06	-38739.1	955.819	-29797.1	0.000000	0.000000	6.142805	0.007569	NaN	0.000000	0.001597	0.001602	28.1232	0.041668	0.002034	20.4884	-81.5439	-164.927	-0.030617	0.141283	-0.922631	-0.923916	0.007569	20.4884	-0.922908	-2.072352E+12	-3.652310E-15	NaN
2.000000	1.000000	0.152545	7.36506e+06	-38739.1	955.819	-29797.1	0.000000	0.000000	6.152784	0.061918	NaN	0.000000	0.001660	0.001606	28.0871	0.055741	0.002101	26.5304	137.741	16.3533	0.059489	0.151192	-0.912654	-0.914007	0.061918	26.5304	-0.914404	-1.590900E+12	-3.891995E-14	NaN
2.000000	1.000000	0.162537	7.36506e+06	-38739.1	955.819	-29797.1	0.000000	0.000000	6.162777	0.084608	NaN	0.000000	0.001669	0.001612	28.0847	0.122706	0.002031	60.4163	-37.2673	-165.562	0.125957	0.161254	-0.902662	-0.903945	0.084608	60.4163	-0.903712	-1.140822E+12	-7.416394E-14	NaN
2.000000	1.000000	0.172600	7.36506e+06	-38739.1	955.818	-29797.1	0.000000	0.000000	6.172841	0.093818	NaN	0.000000	0.001678	0.001596	28.1221	0.061165	0.002054	29.7775	-173.13	16.9761	0.125036	0.171239	-0.892598	-0.893960	0.093818	29.7775	-0.894961	-8.689125E+11	-1.079715E-13	NaN
2.000000	1.000000	0.182554	7.36506e+06	-38739.1	955.818	-29797.1	0.000000	0.000000	6.182792	0.034348	NaN	0.000000	0.001706	0.001643	28.1225	0.041630	0.002081	20.0054	138.551	-167.252	5.087987E-5	0.181286	-0.882644	-0.883913	0.034348	20.0054	-0.883932	-6.164263E+11	-5.572185E-14	NaN
2.000000	1.000000	0.192580	7.36506e+06	-38739.1	955.818	-29797.1	0.000000	0.000000	6.192815	-0.031024	NaN	0.000000	0.001662	0.001629	28.0853	0.070293	0.002237	31.4183	1.302904	12.5564	-0.023319	0.191208	-0.872619	-0.873991	-0.031024	31.4183	-0.871878	-4.235037E+11	7.325601E-14	NaN
2.000000	1.000000	0.202584	7.36506e+06	-38739.1	955.818	-29797.1	0.000000	0.000000	6.202823	0.057137	NaN	0.000000	0.001674	0.001630	28.0868	0.086603	0.001892	45.7818	42.7721	-166.285	0.071691	0.201260	-0.862615	-0.863939	0.057137	45.7818	-0.863551	-3.267219E+11	-1.748804E-13	NaN
2.000000	1.000000	0.212613	7.36506e+06	-38739.1	955.818	-29797.1	0.000000	0.000000	6.212850	-0.010578	NaN	0.000000	0.001714	0.001596	28.1232	0.065790	0.001917	34.3278	49.2867	16.6611	0.064454	0.211250	-0.852585	-0.853948	-0.010578	34.3278	-0.852354	-2.304704E+11	4.589559E-14	NaN
2.000000	1.000000	0.222597	7.36506e+06	-38739.1	955.818	-29797.1	0.000000	0.000000	6.222836	0.060606	NaN	0.000000	0.001665	0.001649	28.1223	0.184244	0.001988	92.6651	-179.135	-164.042	0.062614	0.221304	-0.842602	-0.843895	0.060606	92.6651	-0.843092	-1.726557E+11	-3.510251E-13	NaN
2.000000	1.000000	0.232601	7.36506e+06	-38739.1	955.819	-29797.1	0.000000	0.000000	6.232840	0.050299	NaN	0.000000	0.001606	0.001624	28.0846	0.044935	0.002050	21.9196	170.794	17.6602	0.007007	0.231285	-0.832598	-0.833914	0.050299	21.9196	-0.834319	-1.313145E+11	-3.830456E-13	NaN
2.000000	1.000000	0.242601	7.36506e+06	-38739.1	955.818	-29797.1	0.000000	0.000000	6.242841	0.090132	NaN	0.000000	0.001617	0.001635	28.0842	0.046259	0.002003	23.098	-117.766	-166.188	0.079812	0.241263	-0.822598	-0.823936	0.090132	23.098	-0.825524	-9.979659E+10	-9.031571E-13	NaN
2.000000	1.000000	0.252595	7.36506e+06	-38739.1	955.818	-29797.1	0.000000	0.000000	6.252835	0.070260	NaN	0.000000	0.001629	0.001603	28.12	0.008357	0.002037	4.103219	-87.629	14.0029	0.048532	0.251223	-0.812604	-0.813976	0.070260	4.103219	-0.825446	-9.955263E+10	-7.057597E-13	NaN
2.000000	1.000000	0.262603	7.36506e+06	-38739.1	955.819	-29797.1	0.000000	0.000000	6.262842	0.039032	NaN	0.000000	0.001605	0.001577	28.1219	0.049364	0.002004	24.6387	23.4236	-161.534	0.024585	0.261286	-0.802595	-0.803913	0.039032	24.6387	-0.803783	-5.060746E+10	-7.712689E-13	NaN
2.000000	1.000000	0.272582	7.36506e+06	-38739.1	955.818	-29797.1	0.000000	0.000000	6.272821	0.076762	NaN	0.000000	0.001621	0.001620	28.0838	0.046678	0.002101	22.2159	-27.2867	12.9888	0.135994	0.271269	-0.792617	-0.793930	0.076762	22.2159	-0.795209	-3.870926E+10	-1.983045E-12	NaN
2.000000	1.000000	0.282623	7.36506e+06	-38739.1	955.819	-29797.1	0.000000	0.000000	6.282862	0.056638	NaN	0.000000	0.001635	0.001634	28.0861	0.015615	0.001924	8.116592	-109.102	-166.239	0.001864	0.281333	-0.782575	-0.783865	0.056638	8.116592	-0.787809	-3.071303E+10	-1.844089E-12	NaN
2.000000	1.000000	0.292622	7.36506e+06	-38739.1	955.818	-29797.1	0.000000	0.000000	6.292858	-0.007968	NaN	0.000000	0.001638	0.001654	28.1216	0.078262	0.001924	40.6674	-155.339	16.7393	0.057930	0.291309	-0.772577	-0.773889	-0.007968	40.6674	-0.772430	-1.898193E+10	4.197915E-13	NaN
2.000000	1.000000	0.302607	7.36506e+06	-38739.1	955.819	-29797.1	0.000000	0.000000	6.302847	0.063358	NaN	0.000000	0.001634	0.001603	28.124	0.127969	0.002008	63.7397	88.6573	-162.292	0.002259	0.301353	-0.762591	-0.763845	0.063358	63.7397	-0.763337	-1.427884E+10	-4.437164E-12	NaN
2.000000	1.000000	0.312628	7.36506e+06	-38739.1	955.819	-29797.1	0.000000	0.000000	6.312866	0.020560	NaN	0.000000	0.001637	0.001620	28.0855	0.071439	0.002073	34.4582	58.4483	15.6084	-0.025698	0.311223	-0.752571	-0.753975	0.020560	34.4582	-0.753018	-1.033473E+10	-1.989438E-12	NaN
2.000000	1.000000	0.322637	7.36506e+06	-38739.1	955.819	-29797.1	0.000000	0.000000	6.322875	0.023919	NaN	0.000000	0.001623	0.001614	28.0843	0.048792	0.001868	26.1166	-98.1731	-164.059	-0.008047	0.321342	-0.742561	-0.743857	0.023919	26.1166	-0.743248	-7.608430E+9	-3.143767E-12	NaN
2.000000	1.000000	0.332664	7.36506e+06	-38739.1	955.819	-29797.1	0.000000	0.000000	6.332903	0.050147	NaN	0.000000	0.001626	0.001624	28.1201	0.064655	0.002004	32.2669	-153.297	16.4419	-0.000486	0.331273	-0.732535	-0.733925	0.050147	32.2669	-0.733700	-5.639397E+9	-8.892198E-12	NaN
2.000000	1.000000	0.342634	7.36506e+06	-38739.1	955.818	-29797.1	0.000000	0.000000	6.342873	0.039124	NaN	0.000000	0.001614	0.001617	28.1224	0.023129	0.002042	11.3258	-120.309	-164.313	0.115889	0.341330	-0.722564	-0.723868	0.039124	11.3258	-0.725155	-4.312887E+9	-9.071402E-12	NaN
2.000000	1.000000	0.352658	7.36506e+06	-38739.1	955.818	-29797.1	0.000000	0.000000	6.352895	0.005956	NaN	0.000000	0.001653	0.001618	28.0847	0.034374	0.002031	16.9261	-19.8061	12.8002	0.056811	0.351290	-0.712541	-0.713909	0.005956	16.9261	-0.712805	-2.926340E+9	-2.035365E-12	NaN
2.000000	1.000000	0.362662	7.36506e+06	-38739.1	955.819	-29797.1	0.000000	0.000000	6.362898	-0.011863	NaN	0.000000	0.001574	0.001641	28.087	0.049562	0.002061	24.0448	44.9017	-167.422	0.010965	0.361334	-0.702536	-0.703865	-0.011863	24.0448	-0.702166	-2.094661E+9	5.663681E-12	NaN
2.000000	1.000000	0.372695	7.36506e+06	-38739.1	955.819	-29797.1	0.000000	0.000000	6.372934	0.048131	NaN	0.000000	0.001607	0.001626	28.1226	0.058273	0.002029	28.7256	46.5236	14.1582	0.062112	0.371315	-0.692503	-0.693884	0.048131	28.7256	-0.693760	-1.608039E+9	-2.993159E-11	NaN
2.000000	1.000000	0.382669	7.36506e+06	-38739.1	955.818	-29797.1	0.000000	0.000000	6.382907	0.032381	NaN	0.000000	0.001573	0.001621	28.1247	0.085109	0.002097	40.5848	91.4104	-164.902	0.055042	0.381424	-0.682530	-0.683774	0.032381	40.5848	-0.683128	-1.150744E+9	-2.813893E-11	NaN
2.000000	1.000000	0.392634	7.36506e+06	-38739.1	955.819	-29797.1	0.000000	0.000000	6.392875	0.099190	NaN	0.000000	0.001588	0.001602	28.087	0.068724	0.002070	33.1961	-148.656	13.6842	0.089370	0.391311	-0.672565	-0.673888	0.099190	33.1961	-0.674806	-8.854325E+8	-1.120247E-10	NaN
2.000000	1.000000	0.402684	7.36506e+06	-38739.1	955.818	-29797.1	0.000000	0.000000	6.402923	0.060355	NaN	0.000000	0.001606	0.001612	28.0859	0.063764	0.001985	32.1189	131.764	-165.55	0.020725	0.401342	-0.662515	-0.663857	0.060355	32.1189	-0.663924	-6.283623E+8	-9.605170E-11	NaN
2.000000	1.000000	0.412689	7.36507e+06	-38739.1	955.818	-29797.1	0.000000	0.000000	6.412930	0.112532	NaN	0.000000	0.001625	0.001638	28.121	0.089128	0.001950	45.7168	141.518	14.171	0.042325	0.411312	-0.652510	-0.653887	0.112532	45.7168	-0.654356	-4.646718E+8	-2.421758E-10	NaN
2.000000	1.000000	0.422705	7.36507e+06	-38739.1	955.818	-29797.1	0.000000	0.000000	6.422946	0.102348	NaN	0.000000	0.001632	0.001639	28.1226	0.045094	0.001966	22.9405	113.975	-162.196	0.058776	0.421409	-0.642494	-0.643789	0.102348	22.9405	-0.645840	-3.551360E+8	-2.881943E-10	NaN
2.000000	1.000000	0.432702	7.36507e+06	-38739.1	955.818	-29797.1	0.000000	0.000000	6.432940	0.028931	NaN	0.000000	0.001624	0.001634	28.0848	0.051513	0.001980	26.02	21.7372	14.7354	0.094944	0.431326	-0.632496	-0.633873	0.028931	26.02	-0.633330	-2.391950E+8	-1.209528E-10	NaN
2.000000	1.000000	0.442668	7.36507e+06	-38739.1	955.819	-29797.1	0.000000	0.000000	6.442905	0.020601	NaN	0.000000	0.001629	0.001655	28.0852	0.027394	0.001937	14.1413	-75.989	-165.466	0.056618	0.441423	-0.622531	-0.623776	0.020601	14.1413	-0.623624	-1.759684E+8	-1.170708E-10	NaN
2.000000	1.000000	0.452699	7.36507e+06	-38739.1	955.819	-29797.1	0.000000	0.000000	6.452941	0.123723	NaN	0.000000	0.001628	0.001621	28.1214	0.112385	0.002017	55.7166	149.249	12.1861	0.063506	0.451342	-0.612500	-0.613857	0.123723	55.7166	-0.614165	-1.304402E+8	-9.485031E-10	NaN
2.000000	1.000000	0.462660	7.36507e+06	-38739.1	955.818	-29797.1	0.000000	0.000000	6.462896	-0.007910	NaN	0.000000	0.001635	0.001641	28.124	0.044705	0.002065	21.6477	132.077	-168.297	0.027802	0.461479	-0.602539	-0.603719	-0.007910	21.6477	-0.602265	-8.946399E+7	8.841252E-11	NaN
2.000000	1.000000	0.472720	7.36507e+06	-38739.1	955.818	-29797.1	0.000000	0.000000	6.472959	0.044857	NaN	0.000000	0.001657	0.001634	28.0861	0.120692	0.002079	58.0491	55.8911	14.1599	0.056549	0.471354	-0.592478	-0.593845	0.044857	58.0491	-0.593058	-6.680652E+7	-6.714441E-10	NaN
2.000000	1.000000	0.482720	7.36507e+06	-38739.1	955.818	-29797.1	0.000000	0.000000	6.482960	0.071169	NaN	0.000000	0.001653	0.001652	28.0844	0.031689	0.001879	16.8643	67.5274	-162.529	0.008084	0.481404	-0.582478	-0.583795	0.071169	16.8643	-0.585643	-5.279455E+7	-1.348031E-9	NaN
2.000000	1.000000	0.492725	7.36507e+06	-38739.1	955.818	-29797.1	0.000000	0.000000	6.492963	0.033666	NaN	0.000000	0.001622	0.001609	28.1195	0.051180	0.002028	25.2336	-75.8199	15.7033	0.059064	0.491358	-0.572473	-0.573841	0.033666	25.2336	-0.573474	-3.586123E+7	-9.387911E-10	NaN
2.000000	1.000000	0.502736	7.36507e+06	-38739.1	955.819	-29797.1	0.000000	0.000000	6.502976	0.068279	NaN	0.000000	0.001627	0.001646	28.1221	0.092521	0.001954	47.3494	-68.6097	-168.133	0.044103	0.501436	-0.562462	-0.563763	0.068279	47.3494	-0.563544	-2.614523E+7	-2.611523E-9	NaN
2.000000	1.000000	0.512709	7.36507e+06	-38739.1	955.818	-29797.1	0.000000	0.000000	6.512946	0.020767	NaN	0.000000	0.001671	0.001663	28.0841	0.077324	0.002021	38.2634	124.25	15.9915	0.108559	0.511284	-0.552490	-0.553915	0.020767	38.2634	-0.552897	-1.862421E+7	-1.115068E-9	NaN
2.000000	1.000000	0.522753	7.36507e+06	-38739.1	955.818	-29797.1	0.000000	0.000000	6.522992	0.062636	NaN	0.000000	0.001632	0.001639	28.0865	0.031508	0.002013	15.6525	105.77	-166.687	0.064278	0.521414	-0.542446	-0.543785	0.062636	15.6525	-0.545447	-1.468502E+7	-4.265277E-9	NaN
2.000000	1.000000	0.532712	7.36507e+06	-38739.1	955.819	-29797.1	0.000000	0.000000	6.532953	0.099489	NaN	0.000000	0.001616	0.001652	28.1207	0.110918	0.002018	54.9554	-142.346	12.3703	0.039970	0.531377	-0.532486	-0.533821	0.099489	54.9554	-0.533844	-1.013788E+7	-9.813629E-9	NaN
2.000000	1.000000	0.542727	7.36507e+06	-38739.1	955.818	-29797.1	0.000000	0.000000	6.542966	0.062384	NaN	0.000000	0.001659	0.001624	28.125	0.078641	0.001955	40.2177	-170.047	-162.327	0.143254	0.541422	-0.522472	-0.523777	0.062384	40.2177	-0.523635	-7.31375e+06	-8.529622E-9	NaN
2.000000	1.000000	0.552735	7.36507e+06	-38739.1	955.818	-29797.1	0.000000	0.000000	6.552970	-0.035734	NaN	0.000000	0.001626	0.001634	28.0844	0.131530	0.002026	64.9169	70.6584	15.9536	0.003833	0.551424	-0.512464	-0.513774	-0.035734	64.9169	-0.512051	-5.04636e+06	7.081066E-9	NaN
2.000000	1.000000	0.562724	7.36507e+06	-38739.1	955.818	-29797.1	0.000000	0.000000	6.562963	0.060367	NaN	0.000000	0.001645	0.001656	28.0849	0.038401	0.001991	19.2842	-79.2065	-169.056	0.045292	0.561393	-0.502474	-0.503805	0.060367	19.2842	-0.504822	-4.00189e+06	-1.508451E-8	NaN
2.000000	1.000000	0.572752	7.36507e+06	-38739.1	955.817	-29797.1	0.000000	0.000000	6.572991	0.059638	NaN	0.000000	0.001643	0.001663	28.1194	0.032435	0.002085	15.5551	-145.024	15.85	0.065522	0.571362	-0.492447	-0.493837	0.059638	15.5551	-0.495322	-2.9494e+06	-2.022042E-8	NaN
2.000000	1.000000	0.582729	7.36507e+06	-38739.1	955.819	-29797.1	0.000000	0.000000	6.582967	0.044890	NaN	0.000000	0.001627	0.001669	28.1244	0.040031	0.002024	19.7747	92.0929	-165.495	0.050823	0.581448	-0.482470	-0.483750	0.044890	19.7747	-0.484172	-2.06022e+06	-2.178894E-8	NaN
2.000000	1.000000	0.592756	7.36507e+06	-38739.1	955.818	-29797.1	0.000000	0.000000	6.592992	0.004828	NaN	0.000000	0.001614	0.001628	28.0842	0.115813	0.002089	55.4268	16.2541	15.4029	-0.080177	0.591385	-0.472443	-0.473813	0.004828	55.4268	-0.472508	-1.41443e+06	-3.413105E-9	NaN
2.000000	1.000000	0.602750	7.36507e+06	-38739.1	955.819	-29797.1	0.000000	0.000000	6.602990	0.082008	NaN	0.000000	0.001615	0.001638	28.0838	0.009371	0.001934	4.844991	-82.7812	-167.408	0.068475	0.601411	-0.462448	-0.463787	0.082008	4.844991	-0.475143	-1.53995e+06	-5.325381E-8	NaN
2.000000	1.000000	0.612767	7.36507e+06	-38739.1	955.817	-29797.1	0.000000	0.000000	6.613008	0.107206	NaN	0.000000	0.001618	0.001600	28.1192	0.128806	0.002035	63.2947	136.337	15.0846	0.084953	0.611408	-0.452431	-0.453791	0.107206	63.2947	-0.453702	-769928	-1.392421E-7	NaN
2.000000	1.000000	0.622766	7.36507e+06	-38739.1	955.818	-29797.1	0.000000	0.000000	6.623006	0.077791	NaN	0.000000	0.001643	0.001625	28.1251	0.012883	0.001909	6.746928	23.0494	-165.116	0.070603	0.621478	-0.442432	-0.443720	0.077791	6.746928	-0.451080	-707203	-1.099975E-7	NaN
2.000000	1.000000	0.632764	7.36507e+06	-38739.1	955.818	-29797.1	0.000000	0.000000	6.633002	0.030063	NaN	0.000000	0.001629	0.001649	28.0887	0.085475	0.002015	42.4092	55.2845	16.5793	0.014487	0.631388	-0.432435	-0.433810	0.030063	42.4092	-0.432967	-392660	-7.656240E-8	NaN
2.000000	1.000000	0.642780	7.36507e+06	-38739.1	955.819	-29797.1	0.000000	0.000000	6.643020	0.070073	NaN	0.000000	0.001591	0.001659	28.0853	0.036554	0.002069	17.6703	74.1605	-164.753	0.063970	0.641491	-0.422419	-0.423708	0.070073	17.6703	-0.425393	-306792	-2.284046E-7	NaN
2.000000	1.000000	0.652762	7.36507e+06	-38739.1	955.819	-29797.1	0.000000	0.000000	6.653001	0.073281	NaN	0.000000	0.001622	0.001628	28.1195	0.091821	0.002048	44.8281	-59.0222	17.0098	0.149770	0.651387	-0.412437	-0.413812	0.073281	44.8281	-0.413663	-209153	-3.503676E-7	NaN
2.000000	1.000000	0.662775	7.36507e+06	-38739.1	955.819	-29797.1	0.000000	0.000000	6.663014	0.053983	NaN	0.000000	0.001575	0.001651	28.1248	0.046308	0.002045	22.6396	174.811	-165.126	0.002514	0.661482	-0.402424	-0.403717	0.053983	22.6396	-0.404212	-153472	-3.517430E-7	NaN
2.000000	1.000000	0.672778	7.36507e+06	-38739.1	955.818	-29797.1	0.000000	0.000000	6.673020	0.133609	NaN	0.000000	0.001608	0.001635	28.0867	0.040080	0.002133	18.7918	83.6602	15.6286	0.082509	0.671424	-0.392421	-0.393774	0.133609	18.7918	-0.397753	-124148	-1.076209E-6	NaN
2.000000	1.000000	0.682818	7.36507e+06	-38739.1	955.818	-29797.1	0.000000	0.000000	6.683057	0.042089	NaN	0.000000	0.001614	0.001588	28.0867	0.048442	0.001959	24.7217	-29.1562	-163.396	0.104452	0.681449	-0.382380	-0.383749	0.042089	24.7217	-0.383657	-78044.4	-5.392910E-7	NaN
2.000000	1.000000	0.692799	7.36507e+06	-38739.1	955.819	-29797.1	0.000000	0.000000	6.693037	0.034532	NaN	0.000000	0.001619	0.001611	28.1205	0.127495	0.001928	66.1235	-130.953	18.7829	0.060185	0.691507	-0.372399	-0.373691	0.034532	66.1235	-0.372791	-54488.5	-6.337571E-7	NaN
2.000000	1.000000	0.702813	7.36507e+06	-38739.1	955.818	-29797.1	0.000000	0.000000	6.703051	0.031446	NaN	0.000000	0.001614	0.001603	28.126	0.033691	0.001949	17.2824	-114.973	-162.834	0.033946	0.701497	-0.362386	-0.363702	0.031446	17.2824	-0.363750	-40366.2	-7.790085E-7	NaN
2.000000	1.000000	0.712806	7.36507e+06	-38739.1	955.819	-29797.1	0.000000	0.000000	6.713046	0.079837	NaN	0.000000	0.001632	0.001652	28.0876	0.060531	0.001938	31.2386	-47.9071	10.6062	0.079787	0.711427	-0.352392	-0.353772	0.079837	31.2386	-0.354309	-29477.4	-2.708426E-6	NaN
2.000000	1.000000	0.722810	7.36507e+06	-38739.1	955.818	-29797.1	0.000000	0.000000	6.723047	0.028097	NaN	0.000000	0.001596	0.001659	28.0845	0.094332	0.002017	46.7651	138.486	-164.247	0.044838	0.721484	-0.342389	-0.343715	0.028097	46.7651	-0.342840	-20087.3	-1.398752E-6	NaN
2.000000	1.000000	0.732768	7.36507e+06	-38739.1	955.817	-29797.1	0.000000	0.000000	6.733009	0.113730	NaN	0.000000	0.001614	0.001725	28.1196	0.071853	0.002105	34.1342	-6.263825	14.818	0.170706	0.731434	-0.332431	-0.333765	0.113730	34.1342	-0.334930	-15401.5	-7.384377E-6	NaN
2.000000	1.000000	0.742826	7.36507e+06	-38739.1	955.818	-29797.1	0.000000	0.000000	6.743065	0.064646	NaN	0.000000	0.001653	0.001713	28.1252	0.032567	0.002075	15.6919	-105.685	-165.415	0.025922	0.741518	-0.322373	-0.323681	0.064646	15.6919	-0.325463	-11192.6	-5.775792E-6	NaN
2.000000	1.000000	0.752848	7.36507e+06	-38739.1	955.818	-29797.1	0.000000	0.000000	6.753083	-0.048828	NaN	0.000000	0.001622	0.001715	28.0861	0.104058	0.002091	49.775	-171.637	14.5836	-0.019183	0.751401	-0.312351	-0.313798	-0.048828	49.775	-0.311615	-6997.53	6.977941E-6	NaN
2.000000	1.000000	0.762822	7.36507e+06	-38739.1	955.819	-29797.1	0.000000	0.000000	6.763062	0.078874	NaN	0.000000	0.001655	0.001731	28.085	0.059967	0.002041	29.3812	102.011	-167.404	0.081358	0.761464	-0.302376	-0.303735	0.078874	29.3812	-0.304390	-5468.87	-1.442238E-5	NaN
2.000000	1.000000	0.772810	7.36507e+06	-38739.1	955.818	-29797.1	0.000000	0.000000	6.773048	0.041388	NaN	0.000000	0.001638	0.001725	28.1187	0.027993	0.002017	13.8801	-34.9131	15.303	0.032827	0.771453	-0.292389	-0.293745	0.041388	13.8801	-0.294625	-3912.79	-1.057767E-5	NaN
2.000000	1.000000	0.782820	7.36507e+06	-38739.1	955.817	-29797.2	0.000000	0.000000	6.783057	0.009605	NaN	0.000000	0.001637	0.001744	28.1259	0.055201	0.001978	27.9118	-40.0659	-171.506	0.007404	0.781515	-0.282378	-0.283684	0.009605	27.9118	-0.282636	-2586.47	-3.713588E-6	NaN
2.000000	1.000000	0.792836	7.36507e+06	-38739.1	955.819	-29797.2	0.000000	0.000000	6.793074	0.015112	NaN	0.000000	0.001649	0.001652	28.0865	0.054237	0.001969	27.5443	-49.021	15.7448	0.006906	0.791450	-0.272362	-0.273749	0.015112	27.5443	-0.272774	-1835.12	-8.234828E-6	NaN
2.000000	1.000000	0.802806	7.36507e+06	-38739.1	955.819	-29797.2	0.000000	0.000000	6.803047	0.127062	NaN	0.000000	0.001635	0.001686	28.0835	0.046761	0.001994	23.4531	160.491	-165.951	0.095929	0.801570	-0.262393	-0.263628	0.127062	23.4531	-0.266456	-1470.97	-8.637975E-5	NaN
2.000000	1.000000	0.812865	7.36507e+06	-38739.1	955.818	-29797.2	0.000000	0.000000	6.813103	0.028727	NaN	0.000000	0.001648	0.001649	28.1181	0.026459	0.002140	12.3667	-154.462	15.5013	0.102807	0.811483	-0.252334	-0.253716	0.028727	12.3667	-0.254076	-950.35	-3.022807E-5	NaN
2.000000	1.000000	0.822852	7.36507e+06	-38739.1	955.819	-29797.2	0.000000	0.000000	6.823086	-0.049877	NaN	0.000000	0.001637	0.001638	28.1245	0.092680	0.002109	43.9443	-84.6244	-166.442	-0.026089	0.821519	-0.242347	-0.243680	-0.049877	43.9443	-0.241496	-606.593	8.222556E-5	NaN
2.000000	1.000000	0.832866	7.36507e+06	-38739.1	955.819	-29797.2	0.000000	0.000000	6.833106	0.073460	NaN	0.000000	0.001651	0.001624	28.0853	0.045359	0.001979	22.9152	26.0092	13.3641	0.067223	0.831480	-0.232332	-0.233719	0.073460	22.9152	-0.234737	-475.46	-0.000155	NaN
2.000000	1.000000	0.842854	7.36507e+06	-38739.1	955.818	-29797.2	0.000000	0.000000	6.843093	0.056027	NaN	0.000000	0.001653	0.001641	28.084	0.033449	0.001997	16.7487	-43.947	-165.084	0.001260	0.841566	-0.222344	-0.223633	0.056027	16.7487	-0.224853	-331.896	-0.000169	NaN
2.000000	1.000000	0.852863	7.36507e+06	-38739.1	955.819	-29797.2	0.000000	0.000000	6.853102	0.057865	NaN	0.000000	0.001695	0.001627	28.1182	0.070285	0.002112	33.2852	-46.1275	15.5639	0.011756	0.851499	-0.212336	-0.213699	0.057865	33.2852	-0.213640	-219.59	-0.000264	NaN
2.000000	1.000000	0.862887	7.36507e+06	-38739.1	955.819	-29797.2	0.000000	0.000000	6.863123	-0.021007	NaN	0.000000	0.001682	0.001590	28.1256	0.075377	0.002044	36.8684	-115.038	-165.248	0.011206	0.861575	-0.202312	-0.203624	-0.021007	36.8684	-0.201884	-141.456	0.000149	NaN
2.000000	1.000000	0.872868	7.36507e+06	-38739.1	955.818	-29797.2	0.000000	0.000000	6.873107	0.047685	NaN	0.000000	0.001676	0.001635	28.087	0.060982	0.002017	30.2386	84.2002	14.6321	0.075661	0.871532	-0.192330	-0.193667	0.047685	30.2386	-0.193513	-102.929	-0.000463	NaN
2.000000	1.000000	0.882879	7.36507e+06	-38739.1	955.818	-29797.2	0.000000	0.000000	6.883120	0.110280	NaN	0.000000	0.001689	0.001656	28.0835	0.034724	0.001904	18.2348	53.8414	-164.809	0.097017	0.881547	-0.182320	-0.183652	0.110280	18.2348	-0.186856	-79.6814	-0.001384	NaN
2.000000	1.000000	0.892896	7.36507e+06	-38739.1	955.819	-29797.2	0.000000	0.000000	6.893133	0.009350	NaN	0.000000	0.001686	0.001671	28.1177	0.110236	0.002059	53.5404	26.9076	12.8502	0.040553	0.891515	-0.172303	-0.173684	0.009350	53.5404	-0.172434	-45.2655	-0.000207	NaN
2.000000	1.000000	0.902872	7.36507e+06	-38739.1	955.818	-29797.2	0.000000	0.000000	6.903112	0.082467	NaN	0.000000	0.001687	0.001640	28.1254	0.031525	0.001984	15.8936	139.456	-164.925	0.041364	0.901586	-0.162327	-0.163612	0.082467	15.8936	-0.166218	-35.2915	-0.002337	NaN
2.000000	1.000000	0.912888	7.36507e+06	-38739.1	955.818	-29797.2	0.000000	0.000000	6.913127	0.044786	NaN	0.000000	0.001682	0.001659	28.0871	0.124222	0.002104	59.0335	-170.543	13.9077	0.050465	0.911538	-0.152310	-0.153661	0.044786	59.0335	-0.152879	-20.432	-0.002192	NaN
2.000000	1.000000	0.922886	7.36507e+06	-38739.1	955.818	-29797.2	0.000000	0.000000	6.923124	0.015117	NaN	0.000000	0.001739	0.001639	28.0856	0.124031	0.001896	65.4051	88.1821	-163.756	0.049923	0.921537	-0.142312	-0.143661	0.015117	65.4051	-0.142486	-13.1667	-0.001148	NaN
2.000000	1.000000	0.932874	7.36507e+06	-38739.1	955.818	-29797.2	0.000000	0.000000	6.933113	0.052486	NaN	0.000000	0.001689	0.001668	28.1203	0.022262	0.001991	11.1841	130.336	13.6291	0.067189	0.931513	-0.132324	-0.133686	0.052486	11.1841	-0.135844	-9.871430	-0.005317	NaN
2.000000	1.000000	0.942890	7.36507e+06	-38739.1	955.819	-29797.2	0.000000	0.000000	6.943128	0.030601	NaN	0.000000	0.001626	0.001719	28.1272	0.049488	0.002021	24.4926	129.15	-166.345	0.045943	0.941550	-0.122308	-0.123648	0.030601	24.4926	-0.123246	-5.612535	-0.005452	NaN
2.000000	1.000000	0.952913	7.36507e+06	-38739.1	955.819	-29797.2	0.000000	0.000000	6.953153	0.063523	NaN	0.000000	0.001635	0.001701	28.0893	0.156396	0.002017	77.5553	-118.399	13.3845	0.178363	0.951543	-0.112285	-0.113656	0.063523	77.5553	-0.112900	-3.456266	-0.018379	NaN
2.000000	1.000000	0.962876	7.36507e+06	-38739.1	955.818	-29797.2	0.000000	0.000000	6.963112	-0.022378	NaN	0.000000	0.001648	0.001740	28.0844	0.010245	0.001938	5.287282	-66.056	-163.53	0.020614	0.961613	-0.102322	-0.103585	-0.022378	5.287282	-0.099148	-1.749216	0.012793	NaN
2.000000	1.000000	0.972898	7.36507e+06	-38739.1	955.818	-29797.2	0.000000	0.000000	6.973138	0.075956	NaN	0.000000	0.001638	0.001741	28.1179	0.115685	0.002057	56.2484	155.301	13.8071	0.124197	0.971541	-0.092300	-0.093657	0.075956	56.2484	-0.093313	-1.290609	-0.058853	NaN
2.000000	1.000000	0.982906	7.36507e+06	-38739.1	955.818	-29797.2	0.000000	0.000000	6.983145	0.044700	NaN	0.000000	0.001651	0.001714	28.1267	0.053252	0.001953	27.269	168.13	-165.255	0.116640	0.981621	-0.082292	-0.083577	0.044700	27.269	-0.083522	-0.756370	-0.059098	NaN
2.000000	1.000000	0.992905	7.36507e+06	-38739.1	955.818	-29797.2	0.000000	0.000000	6.993147	0.136002	NaN	0.000000	0.001632	0.001689	28.086	0.102247	0.002046	49.9643	75.8653	11.6494	0.138364	0.991588	-0.072294	-0.073611	0.136002	49.9643	-0.074335	-0.443898	-0.306381	NaN
2.000000	1.000000	1.002902	7.36507e+06	-38739.1	955.818	-29797.2	0.000000	0.000000	7.003141	0.061617	NaN	0.000000	0.001617	0.001652	28.085	0.078778	0.002024	38.9211	23.7035	-166.449	-0.028009	1.001630	-0.062296	-0.063569	0.061617	38.9211	-0.063484	-0.226098	-0.272523	NaN
2.000000	1.000000	1.012902	7.36507e+06	-38739.1	955.819	-29797.2	0.000000	0.000000	7.013141	0.049446	NaN	0.000000	0.001602	0.001664	28.1193	0.044681	0.002101	21.2619	158.385	14.0761	0.039379	1.011579	-0.052297	-0.053620	0.049446	21.2619	-0.054041	-0.120620	-0.409930	NaN
2.000000	1.000000	1.022938	7.36507e+06	-38739.1	955.818	-29797.2	0.000000	0.000000	7.023177	0.050652	NaN	0.000000	0.001559	0.001658	28.1277	0.044444	0.002080	21.3694	-163.093	-164.946	0.033789	1.021630	-0.042260	-0.043568	0.050652	21.3694	-0.044038	-0.060059	-0.843378	NaN
2.000000	1.000000	1.032943	7.36507e+06	-38739.1	955.818	-29797.2	0.000000	0.000000	7.033183	0.094772	NaN	0.000000	0.001605	0.001645	28.0895	0.025678	0.002036	12.6106	-98.8695	14.8208	0.111348	1.031527	-0.032256	-0.033672	0.094772	12.6106	-0.037892	-0.039051	-2.426891	NaN
2.000000	1.000000	1.042949	7.36507e+06	-38739.1	955.819	-29797.2	0.000000	0.000000	7.043192	0.158933	NaN	0.000000	0.001671	0.001686	28.0828	0.075671	0.002024	37.3853	20.8012	-164.717	0.099879	1.041627	-0.022249	-0.023572	0.158933	37.3853	-0.025438	-0.017322	-9.175368	NaN
2.000000	1.000000	1.052954	7.36507e+06	-38739.1	955.818	-29797.2	0.000000	0.000000	7.053202	0.281314	NaN	0.000000	0.001614	0.001667	28.1161	0.183289	0.002005	91.3955	42.6941	13.8007	0.273509	1.051558	-0.012245	-0.013640	0.281314	91.3955	-0.014554	-0.009009	-31.2244	NaN
2.000000	1.000000	1.062937	7.36507e+06	-38739.1	955.817	-29797.2	0.000000	0.000000	7.063193	0.473990	NaN	0.000000	0.001613	0.001708	28.1255	0.299487	0.001983	151.02	37.5199	-164.853	0.419585	1.061664	-0.002262	-0.003535	0.473990	151.02	-0.004616	-0.003174	-149.342	NaN
2.000000	1.000000	1.072885	7.36507e+06	-38739.1	955.818	-29797.2	0.000000	0.000000	7.073444	7.853216	NaN	0.000000	0.001643	0.001687	28.086	7.128218	0.001794	3972.92	10.3741	10.2185	6.102037	1.071563	0.007686	0.006364	7.853216	3972.92	0.006204	0.005259	1493.3	50053.2
2.000000	2.000000	1.076478	7.36507e+06	-38739.1	955.818	-29797.2	0.000000	0.000000	7.077166	10.9855	NaN	0.000000	0.001642	0.001680	28.0844	9.974411	0.001650	6043.47	3.250978	-171.26	10.4044	1.076247	0.011279	0.011048	10.9855	6043.47	0.009916	0.009088	1208.75	57918.7
2.000000	2.000000	1.078962	7.36507e+06	-38739.1	955.817	-29797.2	0.000000	0.000000	7.079881	16.6153	NaN	0.000000	0.001637	0.001683	28.1174	13.1014	0.001705	7685.51	9.598386	2.655626	15.7904	1.078576	0.013763	0.013377	16.6153	7685.51	0.012142	0.011660	1424.94	65026.4
2.000000	2.000000	1.081443	7.36507e+06	-38739.1	955.818	-29797.2	0.000000	0.000000	7.082539	20.9269	NaN	0.000000	0.001674	0.001677	28.1265	14.7984	0.001658	8923.67	5.545969	-175.535	19.9604	1.081112	0.016244	0.015914	20.9269	8923.67	0.014485	0.014605	1432.85	67462.9
2.000000	2.000000	1.083925	7.36507e+06	-38739.1	955.818	-29797.2	0.000000	0.000000	7.085213	25.5929	NaN	0.000000	0.001749	0.001692	28.0867	17.9274	0.001929	9293.01	5.838936	4.673834	24.5638	1.083568	0.018726	0.018370	25.5929	9293.01	0.016661	0.017564	1457.13	64064.7
2.000000	2.000000	1.086385	7.36507e+06	-38739.1	955.818	-29797.2	0.000000	0.000000	7.087945	32.205	NaN	0.000000	0.001720	0.001643	28.0836	19.9248	0.001900	10487.2	8.451780	-177.368	32.6585	1.086114	0.021186	0.020915	32.205	10487.2	0.018883	0.020817	1547.03	66408.3
2.000000	2.000000	1.088910	7.36507e+06	-38739.1	955.818	-29797.2	0.000000	0.000000	7.090784	39.8422	NaN	0.000000	0.001683	0.001626	28.1166	21.2739	0.001648	12905.9	2.085432	5.579135	38.428	1.088538	0.023712	0.023339	39.8422	12905.9	0.021396	0.024784	1607.56	74898.8
2.000000	2.000000	1.091365	7.36507e+06	-38739.1	955.817	-29797.2	0.000000	0.000000	7.093391	43.5631	NaN	0.000000	0.001676	0.001650	28.1256	23.1537	0.001809	12799.8	3.128243	-175.558	42.3119	1.091096	0.026166	0.025897	43.5631	12799.8	0.023613	0.028541	1526.34	69221.4
2.000000	2.000000	1.093898	7.36507e+06	-38739.1	955.817	-29797.2	0.000000	0.000000	7.096234	51.086	NaN	0.000000	0.001726	0.001650	28.088	25.659	0.001782	14395.1	4.962518	1.632179	49.8648	1.093523	0.028700	0.028324	51.086	14395.1	0.026038	0.032931	1551.3	72474.3
2.000000	2.000000	1.096368	7.36507e+06	-38739.1	955.817	-29797.2	0.000000	0.000000	7.098968	57.4924	NaN	0.000000	0.001655	0.001661	28.084	28.4516	0.001876	15167.3	6.423630	-179.027	57.9099	1.096047	0.031170	0.030848	57.4924	15167.3	0.028327	0.037347	1539.41	71705.6
2.000000	2.000000	1.098849	7.36507e+06	-38739.1	955.819	-29797.2	0.000000	0.000000	7.101844	67.1303	NaN	0.000000	0.001639	0.001650	28.1191	29.7684	0.001747	17039.7	4.560177	1.087558	64.3914	1.098520	0.033650	0.033322	67.1303	17039.7	0.030695	0.042197	1590.86	75786.6
2.000000	2.000000	1.101352	7.36507e+06	-38739.1	955.817	-29797.2	0.000000	0.000000	7.104669	74.9668	NaN	0.000000	0.001658	0.001655	28.1278	32.1733	0.001773	18144.9	6.145107	179.503	74.2529	1.101011	0.036153	0.035813	74.9668	18144.9	0.033055	0.047313	1584.47	76214.2
2.000000	2.000000	1.103862	7.36507e+06	-38739.1	955.818	-29797.2	0.000000	0.000000	7.107537	83.6794	NaN	0.000000	0.001601	0.001651	28.0901	34.5606	0.001782	19399.6	6.197771	-2.250664	81.8834	1.103593	0.038664	0.038395	83.6794	19399.6	0.035428	0.052748	1586.39	77172.4
2.000000	2.000000	1.106348	7.36507e+06	-38739.1	955.819	-29797.2	0.000000	0.000000	7.110436	93.7224	NaN	0.000000	0.001558	0.001751	28.0825	37.2577	0.001898	19632.9	4.517599	178.898	91.6943	1.106052	0.041149	0.040853	93.7224	19632.9	0.037569	0.057897	1618.79	74547.1
2.000000	2.000000	1.108841	7.36507e+06	-38739.1	955.819	-29797.2	0.000000	0.000000	7.113444	106.251	NaN	0.000000	0.001597	0.001668	28.1172	38.7874	0.001900	20410	5.512932	-0.650381	103.93	1.108467	0.043642	0.043269	106.251	20410	0.039738	0.063352	1677.15	74085.9
2.000000	2.000000	1.111349	7.36507e+06	-38739.1	955.819	-29797.2	0.000000	0.000000	7.116454	118.47	NaN	0.000000	0.001609	0.001673	28.1276	39.5527	0.001674	23632.8	-0.215356	-177.044	116.99	1.110960	0.046150	0.045761	118.47	23632.8	0.042390	0.070352	1683.96	81404.9
2.000000	2.000000	1.113869	7.36507e+06	-38739.1	955.818	-29797.2	0.000000	0.000000	7.119252	125.239	NaN	0.000000	0.001593	0.001664	28.089	43.6005	0.001722	25325.1	3.631201	-1.805803	123.815	1.113582	0.048670	0.048383	125.239	25325.1	0.044961	0.077478	1616.46	83125.9
2.000000	2.000000	1.116308	7.36507e+06	-38739.1	955.818	-29797.2	0.000000	0.000000	7.122319	140.513	NaN	0.000000	0.001642	0.001701	28.0853	47.3007	0.001912	24739.8	4.800472	177.82	137.655	1.115985	0.051109	0.050786	140.513	24739.8	0.046850	0.082925	1694.47	78492.3
2.000000	2.000000	1.118869	7.36507e+06	-38739.1	955.818	-29797.2	0.000000	0.000000	7.125256	149.69	NaN	0.000000	0.001657	0.001678	28.1178	48.5952	0.001847	26312.6	3.078370	-0.990878	149.417	1.118561	0.053670	0.053362	149.69	26312.6	0.049403	0.090577	1652.63	79878
2.000000	2.000000	1.121358	7.36507e+06	-38739.1	955.817	-29797.2	0.000000	0.000000	7.128352	164.442	NaN	0.000000	0.001624	0.001692	28.1282	50.3251	0.001828	27537	5.466053	176.27	164.252	1.120988	0.056159	0.055790	164.442	27537	0.051681	0.097679	1683.5	80499.1
2.000000	2.000000	1.123771	7.36507e+06	-38739.1	955.819	-29797.2	0.000000	0.000000	7.131253	176.31	NaN	0.000000	0.001608	0.001654	28.0883	53.1594	0.001762	30173.1	6.909369	-6.358486	172.52	1.123573	0.058573	0.058374	176.31	30173.1	0.054190	0.105804	1666.39	84750.5
2.000000	2.000000	1.126306	7.36507e+06	-38739.1	955.818	-29797.2	0.000000	0.000000	7.134408	191.4	NaN	0.000000	0.001635	0.001692	28.0835	55.1199	0.001789	30808.5	2.669806	178.189	190.581	1.126016	0.061108	0.060817	191.4	30808.5	0.056448	0.113381	1688.11	83593.7
2.000000	2.000000	1.128854	7.36507e+06	-38739.1	955.817	-29797.2	0.000000	0.000000	7.137511	204.907	NaN	0.000000	0.001648	0.001617	28.1162	56.757	0.001784	31819.8	-0.256045	1.167605	202.765	1.128478	0.063655	0.063280	204.907	31819.8	0.058826	0.121631	1684.66	83358.2
2.000000	2.000000	1.131359	7.36507e+06	-38739.1	955.818	-29797.2	0.000000	0.000000	7.140721	222.068	NaN	0.000000	0.001652	0.001680	28.1272	59.9474	0.001898	31581.8	5.146230	175.444	222.712	1.130972	0.066160	0.065773	222.068	31581.8	0.060886	0.129006	1721.39	80335.1
2.000000	2.000000	1.133788	7.36507e+06	-38739.1	955.818	-29797.2	0.000000	0.000000	7.143947	241.472	NaN	0.000000	0.001599	0.001690	28.0865	60.9111	0.001752	34758.1	2.182106	-2.163790	239.565	1.133390	0.068589	0.068192	241.472	34758.1	0.063379	0.138202	1747.24	85422.3
2.000000	2.000000	1.136286	7.36507e+06	-38739.1	955.818	-29797.2	0.000000	0.000000	7.147079	256.894	NaN	0.000000	0.001612	0.001650	28.0842	63.9688	0.001767	36196.4	3.542281	176.329	255.607	1.135998	0.071087	0.070799	256.894	36196.4	0.065764	0.147285	1744.2	86170.6
2.000000	2.000000	1.138787	7.36507e+06	-38739.1	955.818	-29797.2	0.000000	0.000000	7.150372	276.19	NaN	0.000000	0.001616	0.001673	28.116	65.3644	0.001779	36742.5	5.021786	-5.255601	270.541	1.138469	0.073588	0.073270	276.19	36742.5	0.067950	0.155850	1772.16	85033.2
2.000000	2.000000	1.141277	7.36507e+06	-38739.1	955.819	-29797.2	0.000000	0.000000	7.153380	288.791	NaN	0.000000	0.001651	0.001671	28.1274	68.6608	0.001789	38371.2	4.873311	173.942	285.252	1.140991	0.076078	0.075792	288.791	38371.2	0.070433	0.165855	1741.22	86082.4
2.000000	2.000000	1.143782	7.36507e+06	-38739.1	955.819	-29797.2	0.000000	0.000000	7.156554	305.068	NaN	0.000000	0.001674	0.001662	28.0877	70.6045	0.001726	40898	2.551306	-3.788889	302.17	1.143485	0.078583	0.078286	305.068	40898	0.072989	0.176458	1728.84	88951.8
2.000000	2.000000	1.146240	7.36507e+06	-38739.1	955.818	-29797.2	0.000000	0.000000	7.159886	326.336	NaN	0.000000	0.001656	0.001674	28.082	73.6975	0.001818	40535.4	1.643495	177.308	322.9	1.145959	0.081041	0.080760	326.336	40535.4	0.075003	0.185034	1763.66	86095.7
2.000000	2.000000	1.148730	7.36507e+06	-38739.1	955.817	-29797.2	0.000000	0.000000	7.163130	344.667	NaN	0.000000	0.001615	0.001686	28.115	75.9022	0.001785	42524.6	4.817915	-5.938729	337.787	1.148401	0.083531	0.083202	344.667	42524.6	0.077453	0.195718	1761.04	87820.9
2.000000	2.000000	1.151204	7.36507e+06	-38739.1	955.817	-29797.2	0.000000	0.000000	7.165978	353.787	NaN	0.000000	0.001698	0.001671	28.1264	77.7064	0.001850	42008.7	1.095652	177.236	348.678	1.151120	0.086005	0.085921	353.787	42008.7	0.079689	0.205718	1719.77	84620.7
2.000000	2.000000	1.153853	7.36507e+06	-38739.1	955.817	-29797.2	0.000000	0.000000	7.169650	378.668	NaN	0.000000	0.001699	0.001687	28.0856	80.9461	0.001893	42767.7	5.980171	-7.313028	379.87	1.153351	0.088654	0.088153	378.668	42767.7	0.082013	0.216361	1750.17	84004
2.000000	2.000000	1.156275	7.36507e+06	-38739.1	955.817	-29797.2	0.000000	0.000000	7.173031	402.002	NaN	0.000000	0.001658	0.001685	28.0833	82.9095	0.001766	46952.6	4.247190	173.908	400.142	1.155952	0.091076	0.090753	402.002	46952.6	0.084655	0.228758	1757.32	89690
2.000000	2.000000	1.158813	7.36507e+06	-38739.1	955.818	-29797.2	0.000000	0.000000	7.176345	420.884	NaN	0.000000	0.001642	0.001684	28.1149	85.3289	0.001757	48573.8	8.414718	-10.2593	418.282	1.158328	0.093614	0.093130	420.884	48573.8	0.087116	0.240597	1749.33	90475.3
2.000000	2.000000	1.161276	7.36507e+06	-38739.1	955.817	-29797.2	0.000000	0.000000	7.179771	444.333	NaN	0.000000	0.001655	0.001687	28.1271	85.397	0.001688	50604.2	1.292988	176.15	442.815	1.160904	0.096077	0.095706	444.333	50604.2	0.089491	0.252292	1761.18	92046.6
2.000000	2.000000	1.163794	7.36507e+06	-38739.1	955.818	-29797.2	0.000000	0.000000	7.183167	465.707	NaN	0.000000	0.001647	0.001684	28.0869	89.9667	0.001767	50912.5	6.802896	-9.340827	464.257	1.163252	0.098595	0.098053	465.707	50912.5	0.091734	0.263572	1766.91	90604.2
2.000000	2.000000	1.166322	7.36507e+06	-38739.1	955.817	-29797.2	0.000000	0.000000	7.186416	483.241	NaN	0.000000	0.001622	0.001701	28.081	91.7973	0.001739	52794.9	5.510636	171.346	484.703	1.166030	0.101123	0.100831	483.241	52794.9	0.094259	0.276539	1747.46	91724.9
2.000000	2.000000	1.168811	7.36507e+06	-38739.1	955.818	-29797.2	0.000000	0.000000	7.189787	504.712	NaN	0.000000	0.001588	0.001686	28.1155	94.4114	0.001834	51477.9	7.281971	-10.0896	503.272	1.168406	0.103612	0.103208	504.712	51477.9	0.096259	0.287024	1758.43	87788
2.000000	2.000000	1.171237	7.36507e+06	-38739.1	955.818	-29797.2	0.000000	0.000000	7.193189	528.455	NaN	0.000000	0.001637	0.001668	28.1272	95.7552	0.001740	55036.9	3.425423	173.104	526.459	1.170953	0.106038	0.105754	528.455	55036.9	0.098837	0.300804	1756.81	91682.3
2.000000	2.000000	1.172793	7.36507e+06	-38739.1	955.819	-29797.2	0.000000	0.000000	7.195266	541.121	NaN	0.000000	0.001619	0.001692	28.115	98.0516	0.001859	52731.8	1.237081	-4.361346	539.112	1.172503	0.107595	0.107305	541.121	52731.8	0.099898	0.306565	1765.11	87013.1