File: remote_trans/data/nanoindenter/0828-1/data/Data_2025-08-06,11h17m57s/2025-07-22_16-23-58_1_230.txt
2025-07-22, 16:23:58, 1
Index	Phase	Displacement	Time	Pos X	Pos Y	Pos Z	Rot A	Rot B	Piezo Z	Force A	Force B	Gripper	Voltage A	Voltage B	Temperature	Amplitude force	Amplitude pos	Stiffness	Phase shift	Phase excitation	Force A raw	Displacement raw	HMax	HMax raw	Real Force	Real Stiffness	Contact Depth	Area	Hardness	Reduced Mod.
[#]	[#]	[um]	[s]	[um]	[um]	[um]	[m°]	[m°]	[um]	[uN]	[uN]	[V]	[V]	[V]	[°C]	[uN]	[um]	[N/m]	[°]	[°]	[uN]	[um]	[um]	[um]	[uN]	[N/m]	[um]	[um^2]	[MPa]	[MPa]
230	1.000000	0.002237	7.36729e+06	-50139.1	955.82	-29757	0.000000	0.000000	6.002793	-0.088800	NaN	0.000000	0.001598	0.001672	28.0802	0.034816	0.000976	35.6772	144.548	-167.516	-0.064352	0.001020	-1.081165	-1.082382	-0.088800	35.6772	-1.079298	-2.642967E+14	3.359872E-16	NaN
230	1.000000	0.010202	7.36729e+06	-50139.1	955.818	-29757	0.000000	0.000000	6.010759	-0.059036	NaN	0.000000	0.001568	0.001690	28.0803	0.057302	0.000903	63.4628	-27.6625	-169.307	-0.065029	0.008852	-1.073200	-1.074550	-0.059036	63.4628	-1.072502	-2.141945E+14	2.756205E-16	NaN
230	1.000000	0.018185	7.36729e+06	-50139.1	955.818	-29757	0.000000	0.000000	6.018745	-0.010555	NaN	0.000000	0.001576	0.001718	28.0793	0.047069	0.001616	29.1216	-29.4079	-163.61	-0.074484	0.016890	-1.065217	-1.066512	-0.010555	29.1216	-1.064945	-1.695397E+14	6.225510E-17	NaN
230	1.000000	0.026237	7.3673e+06	-50139.1	955.818	-29757	0.000000	0.000000	6.026796	-0.020750	NaN	0.000000	0.001594	0.001675	28.0791	0.106257	0.001967	54.0061	-176.192	-165.479	-0.064954	0.024900	-1.057165	-1.058502	-0.020750	54.0061	-1.056877	-1.320829E+14	1.571003E-16	NaN
230	1.000000	0.034195	7.3673e+06	-50139.1	955.819	-29757	0.000000	0.000000	6.034755	-0.006919	NaN	0.000000	0.001532	0.001715	28.0789	0.009044	0.001988	4.549761	-111.551	-164.959	-0.124072	0.032886	-1.049206	-1.050515	-0.006919	4.549761	-1.048066	-1.005575E+14	6.880336E-17	NaN
230	1.000000	0.042201	7.3673e+06	-50139.1	955.819	-29757	0.000000	0.000000	6.042760	-0.035764	NaN	0.000000	0.001509	0.001669	28.0792	0.081420	0.001982	41.0811	80.5022	-164.085	-0.124998	0.040847	-1.041201	-1.042555	-0.035764	41.0811	-1.040548	-7.967660E+13	4.488629E-16	NaN
230	1.000000	0.050187	7.3673e+06	-50139.1	955.817	-29757	0.000000	0.000000	6.050747	0.003978	NaN	0.000000	0.001516	0.001678	28.0788	0.092273	0.002021	45.6659	30.7738	-165.218	-0.022224	0.048881	-1.033215	-1.034521	0.003978	45.6659	-1.033280	-6.362092E+13	-6.251983E-17	NaN
230	1.000000	0.058187	7.3673e+06	-50139.1	955.819	-29757	0.000000	0.000000	6.058746	-0.034302	NaN	0.000000	0.001605	0.001649	28.0792	0.151945	0.001936	78.4961	-90.458	-164.541	-0.023075	0.056893	-1.025215	-1.026509	-0.034302	78.4961	-1.024887	-4.905702E+13	6.992353E-16	NaN
230	1.000000	0.066201	7.3673e+06	-50139.1	955.819	-29757	0.000000	0.000000	6.066759	-0.041933	NaN	0.000000	0.001615	0.001678	28.0791	0.081647	0.002020	40.4249	31.633	-167.141	-0.048509	0.064886	-1.017201	-1.018516	-0.041933	40.4249	-1.016423	-3.774202E+13	1.111039E-15	NaN
230	1.000000	0.074249	7.3673e+06	-50139.1	955.818	-29757	0.000000	0.000000	6.074809	-0.001445	NaN	0.000000	0.001633	0.001688	28.0788	0.106142	0.001879	56.4751	-15.7207	-161.035	-0.013796	0.072862	-1.009153	-1.010540	-0.001445	56.4751	-1.009133	-3.011059E+13	4.799374E-17	NaN
230	1.000000	0.082185	7.3673e+06	-50139.1	955.818	-29757	0.000000	0.000000	6.082744	-0.010737	NaN	0.000000	0.001581	0.001717	28.0793	0.111202	0.001944	57.1914	24.7592	-166.272	-0.027892	0.080827	-1.001217	-1.002574	-0.010737	57.1914	-1.001076	-2.345637E+13	4.577576E-16	NaN
230	1.000000	0.090191	7.3673e+06	-50139.1	955.819	-29757	0.000000	0.000000	6.090748	-0.061993	NaN	0.000000	0.001539	0.001703	28.0789	0.085546	0.001919	44.5706	-45.6319	-168.462	-0.031686	0.088946	-0.993211	-0.994456	-0.061993	44.5706	-0.992168	-1.779552E+13	3.483608E-15	NaN
230	1.000000	0.098184	7.3673e+06	-50139.1	955.818	-29757	0.000000	0.000000	6.098744	-0.005900	NaN	0.000000	0.001604	0.001695	28.0791	0.064062	0.001854	34.5498	18.7086	-168.916	-0.036676	0.096876	-0.985218	-0.986526	-0.005900	34.5498	-0.985090	-1.428823E+13	4.129119E-16	NaN
230	1.000000	0.106242	7.3673e+06	-50139.1	955.819	-29757	0.000000	0.000000	6.106800	-0.034349	NaN	0.000000	0.001559	0.001675	28.0789	0.094081	0.002079	45.2494	106.841	-164.809	-0.011477	0.104910	-0.977160	-0.978491	-0.034349	45.2494	-0.976591	-1.097691E+13	3.129162E-15	NaN
230	1.000000	0.114199	7.3673e+06	-50139.1	955.819	-29757	0.000000	0.000000	6.114760	0.007256	NaN	0.000000	0.001564	0.001672	28.0789	0.029110	0.002121	13.7275	-116.075	-162.553	0.015009	0.112907	-0.969202	-0.970495	0.007256	13.7275	-0.969599	-8.836029E+12	-8.212250E-16	NaN
230	1.000000	0.122205	7.3673e+06	-50139.1	955.817	-29757	0.000000	0.000000	6.122763	-0.029984	NaN	0.000000	0.001591	0.001684	28.079	0.025328	0.002081	12.1681	71.147	-164.39	-0.023381	0.120959	-0.961197	-0.962443	-0.029984	12.1681	-0.959349	-6.428260E+12	4.664420E-15	NaN
230	1.000000	0.130239	7.3673e+06	-50139.1	955.818	-29757	0.000000	0.000000	6.130797	-0.050169	NaN	0.000000	0.001587	0.001665	28.0787	0.051701	0.002049	25.2375	-163.202	-165.79	-0.048073	0.128863	-0.953163	-0.954539	-0.050169	25.2375	-0.951672	-5.064971E+12	9.905169E-15	NaN
230	1.000000	0.138236	7.3673e+06	-50139.1	955.819	-29757	0.000000	0.000000	6.138793	-0.078873	NaN	0.000000	0.001574	0.001722	28.079	0.087367	0.002006	43.5492	131.587	-160.782	-0.044934	0.136929	-0.945165	-0.946473	-0.078873	43.5492	-0.943807	-3.967317E+12	1.988074E-14	NaN
230	1.000000	0.146244	7.3673e+06	-50139.1	955.818	-29757	0.000000	0.000000	6.146801	-0.081497	NaN	0.000000	0.001579	0.001716	28.0788	0.025811	0.002042	12.6383	-147.366	-164.909	-0.119803	0.145015	-0.937158	-0.938387	-0.081497	12.6383	-0.932321	-2.776692E+12	2.935039E-14	NaN
230	1.000000	0.154221	7.3673e+06	-50139.1	955.819	-29757	0.000000	0.000000	6.154779	-0.048268	NaN	0.000000	0.001562	0.001667	28.08	0.075195	0.001947	38.6283	56.0356	-167.219	-0.066534	0.152963	-0.929181	-0.930439	-0.048268	38.6283	-0.928244	-2.446236E+12	1.973161E-14	NaN
230	1.000000	0.162212	7.3673e+06	-50139.1	955.818	-29757	0.000000	0.000000	6.162769	-0.073715	NaN	0.000000	0.001578	0.001693	28.0803	0.068943	0.001910	36.089	60.2793	-163.583	-0.035905	0.160923	-0.921189	-0.922479	-0.073715	36.089	-0.919658	-1.873191E+12	3.935241E-14	NaN
230	1.000000	0.170266	7.3673e+06	-50139.1	955.82	-29757	0.000000	0.000000	6.170826	0.000642	NaN	0.000000	0.001565	0.001722	28.0797	0.025928	0.002061	12.5824	-159.551	-164.534	0.057527	0.168953	-0.913136	-0.914449	0.000642	12.5824	-0.913174	-1.531193E+12	-4.192079E-16	NaN
230	1.000000	0.178253	7.3673e+06	-50139.1	955.818	-29757	0.000000	0.000000	6.178813	-0.002413	NaN	0.000000	0.001600	0.001721	28.08	0.188664	0.002102	89.7656	68.3776	-163.601	-0.017475	0.176944	-0.905148	-0.906458	-0.002413	89.7656	-0.905128	-1.192214E+12	2.024060E-15	NaN
230	1.000000	0.186219	7.3673e+06	-50139.1	955.818	-29757	0.000000	0.000000	6.186779	-0.013611	NaN	0.000000	0.001556	0.001699	28.0797	0.036059	0.001925	18.7306	-111.026	-167.826	0.071824	0.184907	-0.897183	-0.898494	-0.013611	18.7306	-0.896638	-9.154392E+11	1.486838E-14	NaN
230	1.000000	0.194231	7.3673e+06	-50139.1	955.818	-29757	0.000000	0.000000	6.194794	0.052624	NaN	0.000000	0.001568	0.001658	28.0798	0.067955	0.001893	35.8906	-109.18	-165.431	0.052389	0.192922	-0.889171	-0.890480	0.052624	35.8906	-0.890270	-7.508748E+11	-7.008366E-14	NaN
230	1.000000	0.202190	7.3673e+06	-50139.1	955.818	-29757	0.000000	0.000000	6.202746	-0.083173	NaN	0.000000	0.001575	0.001651	28.0801	0.026952	0.002062	13.0709	-36.1111	-165.19	-0.115464	0.200962	-0.881212	-0.882440	-0.083173	13.0709	-0.876440	-4.881553E+11	1.703825E-13	NaN
230	1.000000	0.210268	7.3673e+06	-50139.1	955.818	-29757	0.000000	0.000000	6.210825	-0.073249	NaN	0.000000	0.001550	0.001626	28.0799	0.015018	0.002145	7.002390	59.0451	-166.716	0.010996	0.208942	-0.873134	-0.874460	-0.073249	7.002390	-0.865288	-3.448990E+11	2.123795E-13	NaN
230	1.000000	0.218249	7.3673e+06	-50139.1	955.819	-29757	0.000000	0.000000	6.218808	-0.032278	NaN	0.000000	0.001561	0.001661	28.0803	0.053756	0.002020	26.6093	-115.729	-164.711	-0.023999	0.216961	-0.865152	-0.866441	-0.032278	26.6093	-0.864243	-3.338424E+11	9.668492E-14	NaN
230	1.000000	0.226235	7.3673e+06	-50139.1	955.818	-29757	0.000000	0.000000	6.226792	-0.083455	NaN	0.000000	0.001587	0.001645	28.0801	0.155113	0.002068	74.9922	-163.316	-164.754	-0.067549	0.224973	-0.857167	-0.858429	-0.083455	74.9922	-0.856332	-2.608990E+11	3.198759E-13	NaN
230	1.000000	0.234277	7.3673e+06	-50139.1	955.819	-29757	0.000000	0.000000	6.234833	-0.094590	NaN	0.000000	0.001606	0.001674	28.0802	0.125761	0.002005	62.725	-0.146185	-165.327	-0.122551	0.232981	-0.849125	-0.850421	-0.094590	62.725	-0.847994	-2.011722E+11	4.701923E-13	NaN
230	1.000000	0.242243	7.3673e+06	-50139.1	955.817	-29757	0.000000	0.000000	6.242803	-0.008288	NaN	0.000000	0.001607	0.001668	28.0815	0.043933	0.002005	21.9079	-127.346	-166.534	-0.097405	0.240981	-0.841159	-0.842421	-0.008288	21.9079	-0.840875	-1.611194E+11	5.144022E-14	NaN
230	1.000000	0.250256	7.3673e+06	-50139.1	955.819	-29757	0.000000	0.000000	6.250815	-0.024774	NaN	0.000000	0.001580	0.001673	28.08	0.098928	0.002051	48.2379	-149.701	-165.192	0.041802	0.248946	-0.833146	-0.834456	-0.024774	48.2379	-0.832761	-1.250849E+11	1.980561E-13	NaN
230	1.000000	0.258281	7.3673e+06	-50139.1	955.818	-29757	0.000000	0.000000	6.258839	-0.040655	NaN	0.000000	0.001577	0.001651	28.0804	0.072995	0.002006	36.3877	-107.676	-166.392	-0.035834	0.256941	-0.825121	-0.826461	-0.040655	36.3877	-0.824283	-9.600331E+10	4.234715E-13	NaN
230	1.000000	0.266280	7.3673e+06	-50139.1	955.818	-29757	0.000000	0.000000	6.266839	-0.030666	NaN	0.000000	0.001609	0.001677	28.0804	0.045238	0.002010	22.5081	142.629	-162.09	-0.031262	0.264978	-0.817122	-0.818424	-0.030666	22.5081	-0.816100	-7.435724E+10	4.124126E-13	NaN
230	1.000000	0.274306	7.3673e+06	-50139.1	955.819	-29757	0.000000	0.000000	6.274866	-0.008126	NaN	0.000000	0.001631	0.001688	28.0804	0.036113	0.002119	17.0421	-117.63	-163.316	-0.060178	0.272987	-0.809096	-0.810415	-0.008126	17.0421	-0.808738	-5.908124E+10	1.375350E-13	NaN
230	1.000000	0.282278	7.3673e+06	-50139.1	955.819	-29757	0.000000	0.000000	6.282838	-0.017229	NaN	0.000000	0.001633	0.001704	28.0803	0.065539	0.001951	33.5972	-121.026	-166.873	0.006092	0.280957	-0.801124	-0.802445	-0.017229	33.5972	-0.800739	-4.601437E+10	3.744234E-13	NaN
230	1.000000	0.290274	7.3673e+06	-50139.1	955.819	-29757	0.000000	0.000000	6.290829	-0.108209	NaN	0.000000	0.001604	0.001671	28.0793	0.067616	0.001943	34.794	100.798	-163.351	-0.097860	0.288993	-0.793128	-0.794409	-0.108209	34.794	-0.790796	-3.372009E+10	3.209025E-12	NaN
230	1.000000	0.298302	7.3673e+06	-50139.1	955.818	-29757	0.000000	0.000000	6.298862	-0.000257	NaN	0.000000	0.001595	0.001668	28.0794	0.120800	0.002114	57.1494	-169.577	-166.779	-0.094692	0.296964	-0.785100	-0.786438	-0.000257	57.1494	-0.785096	-2.821471E+10	9.114083E-15	NaN
230	1.000000	0.306293	7.3673e+06	-50139.1	955.818	-29757	0.000000	0.000000	6.306851	-0.041500	NaN	0.000000	0.001611	0.001674	28.0793	0.028179	0.002134	13.2068	175.645	-167.83	-0.059667	0.304946	-0.777109	-0.778456	-0.041500	13.2068	-0.774752	-2.041314E+10	2.032990E-12	NaN
230	1.000000	0.314282	7.3673e+06	-50139.1	955.818	-29757	0.000000	0.000000	6.314842	0.012320	NaN	0.000000	0.001582	0.001666	28.0795	0.120262	0.001831	65.6988	91.9843	-163.743	-0.116241	0.312992	-0.769120	-0.770410	0.012320	65.6988	-0.769261	-1.718922E+10	-7.167515E-13	NaN
230	1.000000	0.322330	7.3673e+06	-50139.1	955.818	-29757	0.000000	0.000000	6.322887	-0.089422	NaN	0.000000	0.001593	0.001695	28.0791	0.124252	0.001918	64.7725	114.412	-163.583	-0.091450	0.320963	-0.761072	-0.762439	-0.089422	64.7725	-0.760036	-1.287646E+10	6.944648E-12	NaN
230	1.000000	0.330279	7.3673e+06	-50139.1	955.818	-29757	0.000000	0.000000	6.330839	-0.003743	NaN	0.000000	0.001607	0.001693	28.0791	0.061894	0.002012	30.7687	-86.9004	-163.645	0.051003	0.328976	-0.753123	-0.754426	-0.003743	30.7687	-0.753032	-1.033915E+10	3.619991E-13	NaN
230	1.000000	0.338293	7.3673e+06	-50139.1	955.818	-29757	0.000000	0.000000	6.338850	-0.059331	NaN	0.000000	0.001587	0.001686	28.0792	0.034988	0.002055	17.0267	17.4083	-166.137	-0.107493	0.337047	-0.745109	-0.746355	-0.059331	17.0267	-0.742496	-7.430974E+9	7.984318E-12	NaN
230	1.000000	0.346314	7.3673e+06	-50139.1	955.818	-29757	0.000000	0.000000	6.346873	-0.025318	NaN	0.000000	0.001610	0.001662	28.0792	0.040950	0.002014	20.3283	-80.2811	-164.145	0.000167	0.344948	-0.737088	-0.738454	-0.025318	20.3283	-0.736154	-6.090588E+9	4.156937E-12	NaN
230	1.000000	0.354312	7.3673e+06	-50139.1	955.819	-29757	0.000000	0.000000	6.354870	-0.041644	NaN	0.000000	0.001613	0.001676	28.0795	0.024142	0.001965	12.2848	18.9148	-167.033	-0.048120	0.352966	-0.729090	-0.730436	-0.041644	12.2848	-0.726547	-4.505548E+9	9.242932E-12	NaN
230	1.000000	0.362322	7.3673e+06	-50139.1	955.818	-29757	0.000000	0.000000	6.362883	0.012540	NaN	0.000000	0.001605	0.001678	28.0792	0.091507	0.002050	44.6287	-146.986	-166.33	-0.007159	0.361052	-0.721080	-0.722350	0.012540	44.6287	-0.721291	-3.820088E+9	-3.282522E-12	NaN
230	1.000000	0.370326	7.3673e+06	-50139.1	955.818	-29757	0.000000	0.000000	6.370884	-0.042804	NaN	0.000000	0.001596	0.001650	28.0795	0.126080	0.001961	64.307	132.732	-162.325	-0.130299	0.369002	-0.713076	-0.714400	-0.042804	64.307	-0.712577	-2.905441E+9	1.473241E-11	NaN
230	1.000000	0.378328	7.3673e+06	-50139.1	955.818	-29757	0.000000	0.000000	6.378886	-0.057978	NaN	0.000000	0.001617	0.001676	28.0792	0.074912	0.001974	37.9543	81.1849	-164.769	-0.025654	0.377071	-0.705074	-0.706331	-0.057978	37.9543	-0.703928	-2.213941E+9	2.618770E-11	NaN
230	1.000000	0.386353	7.3673e+06	-50139.1	955.819	-29757	0.000000	0.000000	6.386909	-0.087961	NaN	0.000000	0.001590	0.001665	28.0791	0.032815	0.001991	16.4815	147.516	-165.864	-0.082512	0.385069	-0.697049	-0.698332	-0.087961	16.4815	-0.693046	-1.572339E+9	5.594286E-11	NaN
230	1.000000	0.394343	7.3673e+06	-50139.1	955.818	-29757	0.000000	0.000000	6.394902	-0.030201	NaN	0.000000	0.001609	0.001660	28.0794	0.125073	0.002029	61.6328	153.23	-169.056	0.014842	0.393067	-0.689059	-0.690335	-0.030201	61.6328	-0.688691	-1.370970E+9	2.202906E-11	NaN
230	1.000000	0.402340	7.3673e+06	-50139.1	955.819	-29757	0.000000	0.000000	6.402900	0.007260	NaN	0.000000	0.001576	0.001644	28.0793	0.047823	0.002016	23.718	-68.9173	-165.057	-0.021327	0.401055	-0.681062	-0.682347	0.007260	23.718	-0.681292	-1.086098E+9	-6.684365E-12	NaN
230	1.000000	0.410322	7.3673e+06	-50139.1	955.818	-29757	0.000000	0.000000	6.410882	-0.012350	NaN	0.000000	0.001575	0.001688	28.0797	0.083071	0.002009	41.345	-172.058	-165.27	-0.011540	0.409007	-0.673080	-0.674395	-0.012350	41.345	-0.672856	-8.326662E+8	1.483218E-11	NaN
230	1.000000	0.418333	7.3673e+06	-50139.1	955.818	-29757	0.000000	0.000000	6.418891	-0.028361	NaN	0.000000	0.001568	0.001666	28.079	0.036469	0.002089	17.4612	-117.993	-164.245	-0.043028	0.417022	-0.665069	-0.666380	-0.028361	17.4612	-0.663851	-6.269220E+8	4.523769E-11	NaN
230	1.000000	0.426336	7.3673e+06	-50139.1	955.818	-29757	0.000000	0.000000	6.426895	-0.020887	NaN	0.000000	0.001557	0.001669	28.0801	0.052229	0.002077	25.141	-53.1523	-165.338	-0.054645	0.425001	-0.657066	-0.658401	-0.020887	25.141	-0.656443	-4.962929E+8	4.208615E-11	NaN
230	1.000000	0.434341	7.3673e+06	-50139.1	955.819	-29757	0.000000	0.000000	6.434900	-0.026987	NaN	0.000000	0.001584	0.001686	28.0803	0.105382	0.001942	54.2768	-114.782	-161.334	-0.056152	0.433048	-0.649061	-0.650354	-0.026987	54.2768	-0.648688	-3.885507E+8	6.945590E-11	NaN
230	1.000000	0.442331	7.3673e+06	-50139.1	955.818	-29757	0.000000	0.000000	6.442891	0.005245	NaN	0.000000	0.001559	0.001681	28.0803	0.095933	0.002116	45.339	-124.808	-165.311	-0.030312	0.441037	-0.641071	-0.642365	0.005245	45.339	-0.641158	-3.063168E+8	-1.712263E-11	NaN
230	1.000000	0.450341	7.3673e+06	-50139.1	955.819	-29757	0.000000	0.000000	6.450901	-0.008027	NaN	0.000000	0.001578	0.001691	28.0807	0.104111	0.002092	49.7558	45.0135	-162.302	-0.019984	0.449061	-0.633061	-0.634341	-0.008027	49.7558	-0.632940	-2.362613E+8	3.397607E-11	NaN
230	1.000000	0.458372	7.3673e+06	-50139.1	955.819	-29757	0.000000	0.000000	6.458931	-0.028349	NaN	0.000000	0.001589	0.001691	28.0801	0.099754	0.002058	48.4616	24.8423	-164.682	-0.069951	0.457070	-0.625030	-0.626332	-0.028349	48.4616	-0.624591	-1.814370E+8	1.562467E-10	NaN
230	1.000000	0.466367	7.3673e+06	-50139.1	955.818	-29757	0.000000	0.000000	6.466925	-0.054340	NaN	0.000000	0.001623	0.001690	28.0802	0.066244	0.002161	30.6572	-73.0521	-165.701	-0.046473	0.465019	-0.617035	-0.618383	-0.054340	30.6572	-0.615705	-1.369579E+8	3.967662E-10	NaN
230	1.000000	0.474388	7.3673e+06	-50139.1	955.819	-29757	0.000000	0.000000	6.474946	-0.041561	NaN	0.000000	0.001578	0.001695	28.0802	0.048127	0.001895	25.3908	-37.7437	-165.896	-0.086779	0.473076	-0.609014	-0.610326	-0.041561	25.3908	-0.607787	-1.065760E+8	3.899691E-10	NaN
230	1.000000	0.482385	7.3673e+06	-50139.1	955.819	-29757	0.000000	0.000000	6.482943	-0.063641	NaN	0.000000	0.001576	0.001651	28.0801	0.039375	0.002047	19.2313	29.1895	-166.077	-0.034268	0.481058	-0.601017	-0.602344	-0.063641	19.2313	-0.598535	-7.948390E+7	8.006747E-10	NaN
230	1.000000	0.490368	7.3673e+06	-50139.1	955.817	-29757	0.000000	0.000000	6.490926	-0.045363	NaN	0.000000	0.001624	0.001665	28.0801	0.052811	0.002067	25.553	-116.445	-163.28	0.015477	0.489059	-0.593034	-0.594343	-0.045363	25.553	-0.591702	-6.399329E+7	7.088672E-10	NaN
230	1.000000	0.498379	7.3673e+06	-50139.1	955.818	-29757	0.000000	0.000000	6.498936	-0.067279	NaN	0.000000	0.001641	0.001674	28.0802	0.053914	0.002083	25.8817	161.716	-164.085	-0.091623	0.497071	-0.585023	-0.586331	-0.067279	25.8817	-0.583074	-4.865645E+7	1.382735E-9	NaN
230	1.000000	0.506384	7.3673e+06	-50139.1	955.819	-29757	0.000000	0.000000	6.506943	-0.031103	NaN	0.000000	0.001649	0.001634	28.0804	0.027262	0.002129	12.808	25.5108	-164.666	-0.003431	0.505117	-0.577018	-0.578285	-0.031103	12.808	-0.575196	-3.788002E+7	8.211015E-10	NaN
230	1.000000	0.514381	7.3673e+06	-50139.1	955.819	-29757	0.000000	0.000000	6.514940	-0.023466	NaN	0.000000	0.001691	0.001669	28.0802	0.149650	0.001848	80.9915	-82.7681	-167.4	0.035064	0.513049	-0.569021	-0.570353	-0.023466	80.9915	-0.568803	-3.090992E+7	7.591786E-10	NaN
230	1.000000	0.522399	7.3673e+06	-50139.1	955.818	-29757	0.000000	0.000000	6.522957	-0.051523	NaN	0.000000	0.001684	0.001671	28.0803	0.086490	0.002042	42.3469	71.2313	-166.229	0.017179	0.521092	-0.561003	-0.562310	-0.051523	42.3469	-0.560090	-2.342225E+7	2.199737E-9	NaN
230	1.000000	0.530400	7.3673e+06	-50139.1	955.819	-29757	0.000000	0.000000	6.530962	0.046095	NaN	0.000000	0.001700	0.001681	28.0803	0.124006	0.001962	63.2141	106.61	-168.028	0.033944	0.529089	-0.553002	-0.554313	0.046095	63.2141	-0.553549	-1.901528E+7	-2.424114E-9	NaN
230	1.000000	0.538396	7.3673e+06	-50139.1	955.818	-29757	0.000000	0.000000	6.538954	-0.053509	NaN	0.000000	0.001686	0.001659	28.0804	0.043340	0.002051	21.131	-34.3056	-166.594	-0.027959	0.537107	-0.545005	-0.546295	-0.053509	21.131	-0.543106	-1.362793E+7	3.926387E-9	NaN
230	1.000000	0.546384	7.3673e+06	-50139.1	955.819	-29757	0.000000	0.000000	6.546941	-0.060002	NaN	0.000000	0.001705	0.001671	28.0811	0.067218	0.001989	33.7994	-133.367	-164.835	-0.025511	0.545141	-0.537018	-0.538261	-0.060002	33.7994	-0.535687	-1.075274E+7	5.580134E-9	NaN
230	1.000000	0.554386	7.3673e+06	-50139.1	955.818	-29757	0.000000	0.000000	6.554945	-0.033192	NaN	0.000000	0.001711	0.001714	28.0805	0.085245	0.001845	46.1983	-147.545	-165.745	-0.013894	0.553120	-0.529016	-0.530282	-0.033192	46.1983	-0.528477	-8.5392e+06	3.886972E-9	NaN
230	1.000000	0.562406	7.3673e+06	-50139.1	955.819	-29757	0.000000	0.000000	6.562961	-0.127513	NaN	0.000000	0.001700	0.001735	28.0799	0.013458	0.002075	6.486648	84.5814	-163.842	-0.147538	0.561105	-0.520996	-0.522297	-0.127513	6.486648	-0.506252	-4.18987e+06	3.043359E-8	NaN
230	1.000000	0.570414	7.3673e+06	-50139.1	955.819	-29757	0.000000	0.000000	6.570973	-0.013027	NaN	0.000000	0.001678	0.001666	28.0793	0.057810	0.001994	28.9941	159.896	-162.834	-0.017213	0.569111	-0.512988	-0.514291	-0.013027	28.9941	-0.512651	-5.14445e+06	2.532290E-9	NaN
230	1.000000	0.578426	7.3673e+06	-50139.1	955.819	-29757	0.000000	0.000000	6.578984	-0.050648	NaN	0.000000	0.001708	0.001691	28.0792	0.097481	0.002036	47.883	-135.501	-165.477	-0.078961	0.577097	-0.504976	-0.506304	-0.050648	47.883	-0.504183	-3.92063e+06	1.291827E-8	NaN
230	1.000000	0.586388	7.3673e+06	-50139.1	955.819	-29757	0.000000	0.000000	6.586944	-0.106986	NaN	0.000000	0.001705	0.001674	28.0794	0.036855	0.002092	17.6202	69.3977	-163.309	-0.109688	0.585051	-0.497014	-0.498351	-0.106986	17.6202	-0.492460	-2.69008e+06	3.977077E-8	NaN
230	1.000000	0.594426	7.3673e+06	-50139.1	955.818	-29757	0.000000	0.000000	6.594982	-0.097990	NaN	0.000000	0.001682	0.001700	28.0791	0.118015	0.002004	58.8811	-131.903	-163.598	-0.111177	0.593186	-0.488976	-0.490216	-0.097990	58.8811	-0.487728	-2.3101e+06	4.241807E-8	NaN
230	1.000000	0.602413	7.3673e+06	-50139.1	955.817	-29757	0.000000	0.000000	6.602972	-0.029881	NaN	0.000000	0.001678	0.001692	28.0794	0.070828	0.001927	36.7496	44.8761	-162.212	-0.016813	0.601074	-0.480989	-0.482328	-0.029881	36.7496	-0.480379	-1.82319e+06	1.638962E-8	NaN
230	1.000000	0.610434	7.3673e+06	-50139.1	955.818	-29757	0.000000	0.000000	6.610996	0.044700	NaN	0.000000	0.001618	0.001693	28.0791	0.033432	0.001900	17.5993	6.804791	-163.652	-0.006444	0.609120	-0.472968	-0.474282	0.044700	17.5993	-0.474873	-1.52658e+06	-2.928116E-8	NaN
230	1.000000	0.618430	7.3673e+06	-50139.1	955.818	-29757	0.000000	0.000000	6.618988	-0.053197	NaN	0.000000	0.001645	0.001641	28.079	0.008628	0.001898	4.545638	53.7705	-164.809	-0.026508	0.617116	-0.464971	-0.466286	-0.053197	4.545638	-0.456194	-834671	6.373436E-8	NaN
230	1.000000	0.626458	7.3673e+06	-50139.1	955.818	-29757	0.000000	0.000000	6.627018	0.012837	NaN	0.000000	0.001630	0.001660	28.0791	0.075195	0.002042	36.8242	112.389	-165.779	-0.126393	0.625104	-0.456944	-0.458298	0.012837	36.8242	-0.457205	-862452	-1.488464E-8	NaN
230	1.000000	0.634451	7.3673e+06	-50139.1	955.819	-29757	0.000000	0.000000	6.635009	-0.064934	NaN	0.000000	0.001628	0.001657	28.0791	0.044163	0.002140	20.6362	10.3141	-163.731	-0.073558	0.633158	-0.448951	-0.450243	-0.064934	20.6362	-0.446591	-611385	1.062087E-7	NaN
230	1.000000	0.642439	7.3673e+06	-50139.1	955.819	-29757	0.000000	0.000000	6.642999	0.013240	NaN	0.000000	0.001623	0.001679	28.0796	0.068918	0.001855	37.1588	68.5153	-162.654	-0.035292	0.641112	-0.440963	-0.442290	0.013240	37.1588	-0.441231	-513722	-2.577235E-8	NaN
230	1.000000	0.650452	7.3673e+06	-50139.1	955.82	-29757	0.000000	0.000000	6.651011	-0.025966	NaN	0.000000	0.001670	0.001669	28.0792	0.062680	0.002012	31.1554	-166.711	-165.484	-0.093817	0.649107	-0.432950	-0.434295	-0.025966	31.1554	-0.432325	-384539	6.752595E-8	NaN
230	1.000000	0.658446	7.3673e+06	-50139.1	955.818	-29757	0.000000	0.000000	6.659003	-0.065468	NaN	0.000000	0.001616	0.001688	28.0795	0.085437	0.001844	46.3371	-46.5244	-162.869	-0.018308	0.657177	-0.424956	-0.426225	-0.065468	46.3371	-0.423896	-292179	2.240668E-7	NaN
230	1.000000	0.666477	7.3673e+06	-50139.1	955.818	-29757	0.000000	0.000000	6.667035	-0.062471	NaN	0.000000	0.001634	0.001715	28.0793	0.036859	0.002107	17.4903	131.961	-162.001	-0.044066	0.665105	-0.416925	-0.418297	-0.062471	17.4903	-0.414246	-213179	2.930461E-7	NaN
230	1.000000	0.674464	7.3673e+06	-50139.1	955.818	-29757	0.000000	0.000000	6.675023	-0.018362	NaN	0.000000	0.001595	0.001702	28.0791	0.032053	0.002198	14.5846	26.9343	-168.566	-0.000210	0.673197	-0.408938	-0.410205	-0.018362	14.5846	-0.407993	-173724	1.056959E-7	NaN
230	1.000000	0.682440	7.3673e+06	-50139.1	955.818	-29757	0.000000	0.000000	6.682999	-0.029181	NaN	0.000000	0.001576	0.001683	28.0792	0.064862	0.001937	33.4774	54.0649	-167.342	-0.081952	0.681176	-0.400961	-0.402226	-0.029181	33.4774	-0.400308	-135015	2.161290E-7	NaN
230	1.000000	0.690476	7.3673e+06	-50139.1	955.818	-29757	0.000000	0.000000	6.691039	0.069265	NaN	0.000000	0.001592	0.001675	28.079	0.142230	0.001973	72.1049	140.943	-165.765	0.065767	0.689130	-0.392926	-0.394271	0.069265	72.1049	-0.393646	-108466	-6.385866E-7	NaN
230	1.000000	0.698480	7.3673e+06	-50139.1	955.818	-29757	0.000000	0.000000	6.699040	-0.022187	NaN	0.000000	0.001603	0.001688	28.0796	0.068571	0.002033	33.7285	-85.5768	-160.62	-0.028800	0.697122	-0.384922	-0.386280	-0.022187	33.7285	-0.384428	-80055.8	2.771389E-7	NaN
230	1.000000	0.706470	7.3673e+06	-50139.1	955.818	-29757	0.000000	0.000000	6.707029	-0.034907	NaN	0.000000	0.001607	0.001661	28.0806	0.042051	0.001977	21.2672	134.959	-164.234	0.036786	0.705195	-0.376931	-0.378207	-0.034907	21.2672	-0.375700	-59998.4	5.817924E-7	NaN
230	1.000000	0.714465	7.3673e+06	-50139.1	955.818	-29757	0.000000	0.000000	6.715020	-0.103266	NaN	0.000000	0.001625	0.001701	28.0804	0.121150	0.001920	63.0951	65.3018	-164.509	-0.039805	0.713177	-0.368937	-0.370224	-0.103266	63.0951	-0.367710	-46039.6	2.242989E-6	NaN
230	1.000000	0.722477	7.3673e+06	-50139.1	955.819	-29757	0.000000	0.000000	6.723036	-0.006623	NaN	0.000000	0.001608	0.001694	28.0807	0.062246	0.002025	30.7357	54.1944	-165.929	-0.048518	0.721200	-0.360925	-0.362201	-0.006623	30.7357	-0.360764	-36549.7	1.812032E-7	NaN
230	1.000000	0.730482	7.3673e+06	-50139.1	955.819	-29757	0.000000	0.000000	6.731039	-0.073016	NaN	0.000000	0.001593	0.001686	28.0804	0.088007	0.001921	45.8217	59.0463	-163.403	-0.052734	0.729177	-0.352920	-0.354225	-0.073016	45.8217	-0.351725	-27041.4	2.700155E-6	NaN
230	1.000000	0.738457	7.3673e+06	-50139.1	955.818	-29757	0.000000	0.000000	6.739016	-0.028567	NaN	0.000000	0.001598	0.001696	28.0808	0.019858	0.001960	10.1335	142.933	-164.777	-0.123930	0.737134	-0.344945	-0.346268	-0.028567	10.1335	-0.342830	-20080.9	1.422588E-6	NaN
230	1.000000	0.746476	7.3673e+06	-50139.1	955.818	-29757	0.000000	0.000000	6.747034	-0.038171	NaN	0.000000	0.001583	0.001718	28.0806	0.070659	0.002083	33.9254	36.4521	-164.057	-0.015731	0.745105	-0.336926	-0.338297	-0.038171	33.9254	-0.336082	-16010.2	2.384139E-6	NaN
230	1.000000	0.754471	7.3673e+06	-50139.1	955.818	-29757	0.000000	0.000000	6.755025	-0.142203	NaN	0.000000	0.001592	0.001680	28.0803	0.014792	0.001936	7.638883	139.715	-165.17	-0.035484	0.753185	-0.328931	-0.330217	-0.142203	7.638883	-0.314969	-7843.19	1.813081E-5	NaN
230	1.000000	0.762476	7.3673e+06	-50139.1	955.818	-29757	0.000000	0.000000	6.763033	-0.060012	NaN	0.000000	0.001573	0.001694	28.0805	0.029377	0.002057	14.2824	-94.701	-165.058	-0.028067	0.761185	-0.320926	-0.322217	-0.060012	14.2824	-0.317775	-8627.16	6.956130E-6	NaN
230	1.000000	0.770482	7.3673e+06	-50139.1	955.819	-29757	0.000000	0.000000	6.771041	-0.024590	NaN	0.000000	0.001620	0.001668	28.0805	0.054779	0.001996	27.4451	-11.9086	-167.31	-0.080979	0.769243	-0.312920	-0.314159	-0.024590	27.4451	-0.312248	-7150.03	3.439212E-6	NaN
230	1.000000	0.778511	7.3673e+06	-50139.1	955.818	-29757	0.000000	0.000000	6.779070	-0.036477	NaN	0.000000	0.001587	0.001701	28.0808	0.052731	0.001981	26.6197	-31.1476	-164.801	0.026640	0.777200	-0.304891	-0.306202	-0.036477	26.6197	-0.303863	-5371.27	6.791095E-6	NaN
230	1.000000	0.786502	7.3673e+06	-50139.1	955.819	-29757	0.000000	0.000000	6.787060	-0.043546	NaN	0.000000	0.001614	0.001649	28.0803	0.122525	0.002103	58.2515	68.7142	-165.424	-0.025178	0.785211	-0.296900	-0.298191	-0.043546	58.2515	-0.296339	-4150.27	1.049226E-5	NaN
230	1.000000	0.794531	7.3673e+06	-50139.1	955.819	-29757	0.000000	0.000000	6.795088	-0.069038	NaN	0.000000	0.001551	0.001664	28.0804	0.025048	0.002019	12.406	-116.625	-164.864	-0.062133	0.793160	-0.288871	-0.290242	-0.069038	12.406	-0.284697	-2777.88	2.485288E-5	NaN
230	1.000000	0.802516	7.3673e+06	-50139.1	955.819	-29757	0.000000	0.000000	6.803071	-0.124989	NaN	0.000000	0.001603	0.001700	28.0803	0.012564	0.002115	5.939927	97.4253	-167.751	-0.068670	0.801202	-0.280886	-0.282200	-0.124989	5.939927	-0.265105	-1402.76	8.910244E-5	NaN
230	1.000000	0.810531	7.3673e+06	-50139.1	955.818	-29757	0.000000	0.000000	6.811092	0.026161	NaN	0.000000	0.001581	0.001710	28.0804	0.136636	0.002007	68.0936	76.1658	-166.216	-0.052835	0.809196	-0.272871	-0.274206	0.026161	68.0936	-0.273159	-1859.99	-1.406510E-5	NaN
230	1.000000	0.818523	7.3673e+06	-50139.1	955.819	-29757	0.000000	0.000000	6.819083	-0.012550	NaN	0.000000	0.001586	0.001685	28.0806	0.092693	0.001982	46.7674	-159.425	-165.406	-0.098470	0.817222	-0.264879	-0.266180	-0.012550	46.7674	-0.264677	-1381.86	9.082333E-6	NaN
230	1.000000	0.826509	7.3673e+06	-50139.1	955.818	-29757	0.000000	0.000000	6.827066	-0.056516	NaN	0.000000	0.001569	0.001673	28.0802	0.019302	0.001893	10.1979	171.812	-169.102	-0.024641	0.825174	-0.256893	-0.258228	-0.056516	10.1979	-0.252737	-906.231	6.236409E-5	NaN
230	1.000000	0.834531	7.3673e+06	-50139.1	955.819	-29757	0.000000	0.000000	6.835088	-0.068173	NaN	0.000000	0.001587	0.001680	28.0802	0.057196	0.002029	28.1832	-43.8914	-165.896	-0.022340	0.833208	-0.248871	-0.250194	-0.068173	28.1832	-0.247056	-740.251	9.209471E-5	NaN
230	1.000000	0.842519	7.3673e+06	-50139.1	955.818	-29757	0.000000	0.000000	6.843078	-0.021565	NaN	0.000000	0.001570	0.001708	28.0792	0.053192	0.001992	26.6961	115.665	-163.221	-0.002878	0.841214	-0.240883	-0.242188	-0.021565	26.6961	-0.240277	-580.601	3.714185E-5	NaN
230	1.000000	0.850530	7.3673e+06	-50139.1	955.819	-29757	0.000000	0.000000	6.851091	0.014629	NaN	0.000000	0.001578	0.001691	28.0793	0.058291	0.001999	29.1648	130.842	-163.005	-0.054303	0.849239	-0.232872	-0.234162	0.014629	29.1648	-0.233248	-450.513	-3.247129E-5	NaN
230	1.000000	0.858545	7.3673e+06	-50139.1	955.818	-29757	0.000000	0.000000	6.859103	-0.038331	NaN	0.000000	0.001620	0.001666	28.0791	0.055671	0.002001	27.8245	-58.8311	-166.003	0.006956	0.857214	-0.224857	-0.226188	-0.038331	27.8245	-0.223824	-319.623	0.000120	NaN
230	1.000000	0.866544	7.3673e+06	-50139.1	955.817	-29757	0.000000	0.000000	6.867100	-0.087463	NaN	0.000000	0.001613	0.001676	28.0792	0.047260	0.001993	23.7086	-30.4262	-164.058	-0.109172	0.865247	-0.216858	-0.218155	-0.087463	23.7086	-0.214091	-223.301	0.000392	NaN
230	1.000000	0.874524	7.3673e+06	-50139.1	955.819	-29757	0.000000	0.000000	6.875084	-0.006585	NaN	0.000000	0.001599	0.001645	28.0795	0.052814	0.002008	26.2993	-157.521	-161.119	-0.025167	0.873271	-0.208878	-0.210131	-0.006585	26.2993	-0.208690	-182.636	3.605671E-5	NaN
230	1.000000	0.882554	7.3673e+06	-50139.1	955.818	-29757	0.000000	0.000000	6.883114	0.000168	NaN	0.000000	0.001603	0.001676	28.0793	0.034521	0.001801	19.1704	-11.9116	-162.767	-0.010825	0.881262	-0.200848	-0.202140	0.000168	19.1704	-0.200854	-136.059	-1.237802E-6	NaN
230	1.000000	0.890544	7.3673e+06	-50139.1	955.818	-29757	0.000000	0.000000	6.891101	-0.067690	NaN	0.000000	0.001625	0.001668	28.0792	0.053784	0.002014	26.7048	-56.8776	-165.21	-0.082902	0.889242	-0.192858	-0.194160	-0.067690	26.7048	-0.190957	-93.3261	0.000725	NaN
230	1.000000	0.898558	7.3673e+06	-50139.1	955.819	-29757	0.000000	0.000000	6.899116	-0.056444	NaN	0.000000	0.001578	0.001647	28.0789	0.074651	0.001937	38.5353	-8.764998	-165.308	0.035693	0.897296	-0.184844	-0.186106	-0.056444	38.5353	-0.183745	-70.6251	0.000799	NaN
230	1.000000	0.906572	7.3673e+06	-50139.1	955.818	-29757	0.000000	0.000000	6.907130	-0.045179	NaN	0.000000	0.001581	0.001645	28.0792	0.142910	0.001965	72.7249	-175.803	-165.682	-0.073684	0.905243	-0.176830	-0.178159	-0.045179	72.7249	-0.176364	-52.8919	0.000854	NaN
230	1.000000	0.914564	7.3673e+06	-50139.1	955.819	-29757	0.000000	0.000000	6.915123	-0.010682	NaN	0.000000	0.001572	0.001721	28.0792	0.047866	0.001945	24.6128	39.7074	-165.002	-0.072912	0.913253	-0.168838	-0.170149	-0.010682	24.6128	-0.168513	-38.7032	0.000276	NaN
230	1.000000	0.922563	7.3673e+06	-50139.1	955.817	-29757	0.000000	0.000000	6.923120	-0.066780	NaN	0.000000	0.001656	0.001650	28.0791	0.019759	0.002103	9.393609	22.6717	-166.923	0.043651	0.921254	-0.160839	-0.162148	-0.066780	9.393609	-0.155507	-22.7878	0.002931	NaN
230	1.000000	0.930575	7.3673e+06	-50139.1	955.818	-29757	0.000000	0.000000	6.931137	0.034082	NaN	0.000000	0.001673	0.001655	28.0791	0.140140	0.002097	66.816	-155.967	-167.039	-0.093060	0.929246	-0.152827	-0.154156	0.034082	66.816	-0.153209	-20.7149	-0.001645	NaN
230	1.000000	0.938546	7.3673e+06	-50139.1	955.818	-29757	0.000000	0.000000	6.939105	-0.007235	NaN	0.000000	0.001690	0.001689	28.0789	0.016985	0.001943	8.741697	78.8865	-164.678	-0.069800	0.937254	-0.144856	-0.146148	-0.007235	8.741697	-0.144236	-14.1909	0.000510	NaN
230	1.000000	0.946581	7.3673e+06	-50139.1	955.818	-29757	0.000000	0.000000	6.947139	-0.034658	NaN	0.000000	0.001693	0.001688	28.0792	0.075676	0.002093	36.1568	130.135	-162.079	-0.006216	0.945212	-0.136821	-0.138190	-0.034658	36.1568	-0.136102	-9.983853	0.003471	NaN
230	1.000000	0.954573	7.3673e+06	-50139.1	955.818	-29757	0.000000	0.000000	6.955134	0.002927	NaN	0.000000	0.001675	0.001706	28.079	0.026636	0.002087	12.7657	-80.5957	-164.735	-0.091996	0.953282	-0.128828	-0.130120	0.002927	12.7657	-0.129000	-7.287208	-0.000402	NaN
230	1.000000	0.962579	7.3673e+06	-50139.1	955.819	-29757	0.000000	0.000000	6.963135	-0.096056	NaN	0.000000	0.001691	0.001680	28.079	0.033746	0.001901	17.751	-157.134	-162.415	-0.099345	0.961226	-0.120823	-0.122176	-0.096056	17.751	-0.116765	-4.152845	0.023130	NaN
230	1.000000	0.970560	7.3673e+06	-50139.1	955.818	-29757	0.000000	0.000000	6.971119	-0.038632	NaN	0.000000	0.001665	0.001704	28.0792	0.088393	0.002163	40.8729	-73.0025	-165.09	0.012813	0.969278	-0.112842	-0.114124	-0.038632	40.8729	-0.112133	-3.331357	0.011597	NaN
230	1.000000	0.978610	7.3673e+06	-50139.1	955.817	-29757	0.000000	0.000000	6.979166	-0.092547	NaN	0.000000	0.001588	0.001736	28.0802	0.058124	0.002120	27.4123	-66.4642	-168.423	-0.028708	0.977275	-0.104792	-0.106127	-0.092547	27.4123	-0.102260	-2.049139	0.045164	NaN
230	1.000000	0.986533	7.3673e+06	-50139.1	955.818	-29757	0.000000	0.000000	6.987091	-0.040540	NaN	0.000000	0.001575	0.001737	28.0805	0.072803	0.001990	36.5905	-157.327	-164.223	-0.031181	0.985255	-0.096869	-0.098146	-0.040540	36.5905	-0.096038	-1.489355	0.027220	NaN
230	1.000000	0.994576	7.3673e+06	-50139.1	955.816	-29757	0.000000	0.000000	6.995137	0.033325	NaN	0.000000	0.001575	0.001697	28.0804	0.119437	0.002057	58.0703	102.637	-165.076	-0.068792	0.993296	-0.088826	-0.090106	0.033325	58.0703	-0.089256	-1.038315	-0.032095	NaN
230	1.000000	1.002611	7.3673e+06	-50139.1	955.817	-29757	0.000000	0.000000	7.003171	0.011835	NaN	0.000000	0.001570	0.001731	28.0804	0.034039	0.001939	17.5595	159.002	-163.816	-0.094110	1.001323	-0.080791	-0.082079	0.011835	17.5595	-0.081297	-0.666757	-0.017750	NaN
230	1.000000	1.010586	7.3673e+06	-50139.1	955.817	-29757	0.000000	0.000000	7.011144	-0.028861	NaN	0.000000	0.001571	0.001710	28.0806	0.020101	0.001876	10.7161	-5.035672	-164.957	-0.030118	1.009307	-0.072816	-0.074095	-0.028861	10.7161	-0.070796	-0.358235	0.080565	NaN
230	1.000000	1.018590	7.3673e+06	-50139.1	955.818	-29757	0.000000	0.000000	7.019149	-0.039346	NaN	0.000000	0.001570	0.001716	28.0803	0.103915	0.002019	51.4655	68.3666	-164.903	-0.056632	1.017261	-0.064812	-0.066141	-0.039346	51.4655	-0.064238	-0.237352	0.165771	NaN
230	1.000000	1.026591	7.3673e+06	-50139.1	955.817	-29757	0.000000	0.000000	7.027148	-0.084939	NaN	0.000000	0.001568	0.001738	28.0805	0.116464	0.001922	60.6001	80.9934	-169.065	-0.082464	1.025286	-0.056811	-0.058116	-0.084939	60.6001	-0.055760	-0.135597	0.626412	NaN
230	1.000000	1.034586	7.3673e+06	-50139.1	955.817	-29757	0.000000	0.000000	7.035141	-0.124307	NaN	0.000000	0.001537	0.001684	28.0803	0.131695	0.002066	63.7405	146.645	-163.87	-0.077844	1.033256	-0.048816	-0.050146	-0.124307	63.7405	-0.047353	-0.075831	1.639260	NaN
230	1.000000	1.042617	7.3673e+06	-50139.1	955.819	-29757	0.000000	0.000000	7.043177	-0.009440	NaN	0.000000	0.001625	0.001708	28.0804	0.055214	0.001968	28.053	38.3959	-164.114	0.008343	1.041284	-0.040785	-0.042118	-0.009440	28.053	-0.040533	-0.046939	0.201101	NaN
230	1.000000	1.050601	7.3673e+06	-50139.1	955.818	-29757	0.000000	0.000000	7.051159	-0.044320	NaN	0.000000	0.001555	0.001702	28.0803	0.026355	0.001969	13.3878	164.04	-167.277	-0.088727	1.049332	-0.032801	-0.034070	-0.044320	13.3878	-0.030318	-0.023489	1.886885	NaN
230	1.000000	1.058624	7.3673e+06	-50139.1	955.819	-29757	0.000000	0.000000	7.059184	0.014518	NaN	0.000000	0.001565	0.001669	28.0802	0.070184	0.002084	33.6816	-80.7635	-161.846	-0.010583	1.057331	-0.024778	-0.026071	0.014518	33.6816	-0.025101	-0.016974	-0.855340	NaN
230	1.000000	1.066608	7.3673e+06	-50139.1	955.818	-29757	0.000000	0.000000	7.067165	-0.069962	NaN	0.000000	0.001554	0.001672	28.0806	0.046125	0.002036	22.6538	74.3082	-167.151	-0.083089	1.065328	-0.016794	-0.018074	-0.069962	22.6538	-0.014478	-0.008965	7.804360	NaN
230	1.000000	1.074625	7.3673e+06	-50139.1	955.818	-29757	0.000000	0.000000	7.075192	0.161384	NaN	0.000000	0.001568	0.001705	28.0808	0.235780	0.001930	122.161	26.2258	-166.004	0.046302	1.073292	-0.008777	-0.010109	0.161384	122.161	-0.009767	-0.006254	-25.8041	NaN
230	1.000000	1.082595	7.3673e+06	-50139.1	955.818	-29757	0.000000	0.000000	7.083250	2.327897	NaN	0.000000	0.001566	0.001712	28.0804	1.275657	0.001939	657.823	4.379224	-167.536	1.816545	1.081303	-0.000807	-0.002099	2.327897	657.823	-0.003461	-0.002427	-959.199	NaN
230	1.000000	1.090616	7.3673e+06	-50139.1	955.819	-29757	0.000000	0.000000	7.091412	5.733237	NaN	0.000000	0.001563	0.001707	28.0804	1.832339	0.001932	948.557	16.1229	-169.524	5.399932	1.089327	0.007214	0.005925	5.733237	948.557	0.002681	0.002113	2712.88	18851.8
230	2.000000	1.097133	7.3673e+06	-50139.1	955.818	-29757	0.000000	0.000000	7.098097	9.835415	NaN	0.000000	0.001578	0.001705	28.0802	6.874825	0.001923	3575.31	8.412016	-169.366	9.559306	1.096768	0.013731	0.013366	9.835415	3575.31	0.011668	0.011094	886.536	31012.6
230	2.000000	1.099131	7.3673e+06	-50139.1	955.82	-29757	0.000000	0.000000	7.100173	11.7142	NaN	0.000000	0.001579	0.001744	28.0805	8.885682	0.001676	5300.68	8.371677	-171.795	12.4064	1.098771	0.015729	0.015369	11.7142	5300.68	0.014072	0.014068	832.701	40831.2
230	2.000000	1.101072	7.3673e+06	-50139.1	955.819	-29757	0.000000	0.000000	7.102247	14.9519	NaN	0.000000	0.001562	0.001718	28.079	10.8079	0.001649	6555.33	8.999041	-174.546	14.2415	1.100747	0.017670	0.017345	14.9519	6555.33	0.015959	0.016586	901.491	46505.1
230	2.000000	1.103054	7.3673e+06	-50139.1	955.819	-29757	0.000000	0.000000	7.104389	18.8394	NaN	0.000000	0.001610	0.001689	28.0793	13.5851	0.001767	7688.16	8.042805	-174.213	17.9705	1.102804	0.019652	0.019402	18.8394	7688.16	0.017814	0.019223	980.039	50662.2
230	2.000000	1.105062	7.3673e+06	-50139.1	955.819	-29757	0.000000	0.000000	7.106563	22.8778	NaN	0.000000	0.001592	0.001711	28.0791	15.7499	0.001658	9497.19	7.771213	-177.453	22.0937	1.104714	0.021660	0.021312	22.8778	9497.19	0.019854	0.022313	1025.31	58088.3
230	2.000000	1.107034	7.3673e+06	-50139.1	955.819	-29757	0.000000	0.000000	7.108742	27.9368	NaN	0.000000	0.001597	0.001720	28.0793	18.6127	0.001866	9976.1	8.232677	-177.071	27.0867	1.106720	0.023632	0.023318	27.9368	9976.1	0.021531	0.025006	1117.2	57638.3
230	2.000000	1.109049	7.3673e+06	-50139.1	955.819	-29757	0.000000	0.000000	7.110935	32.2437	NaN	0.000000	0.001602	0.001710	28.079	20.7214	0.001771	11699.3	5.056937	-176.55	31.8922	1.108744	0.025647	0.025342	32.2437	11699.3	0.023580	0.028484	1132.01	63333.5
230	2.000000	1.111008	7.3673e+06	-50139.1	955.819	-29757	0.000000	0.000000	7.113185	39.321	NaN	0.000000	0.001583	0.001742	28.0792	22.2772	0.001657	13443.9	7.455082	-179.671	38.6722	1.110694	0.027606	0.027292	39.321	13443.9	0.025412	0.031770	1237.68	68911.4
230	2.000000	1.112997	7.3673e+06	-50139.1	955.819	-29757	0.000000	0.000000	7.115378	44.2919	NaN	0.000000	0.001653	0.001704	28.0794	25.625	0.001690	15158.6	4.240763	-178.059	42.9669	1.112749	0.029595	0.029347	44.2919	15158.6	0.027404	0.035534	1246.46	73470
230	2.000000	1.115001	7.3673e+06	-50139.1	955.818	-29757	0.000000	0.000000	7.117738	52.9539	NaN	0.000000	0.001648	0.001720	28.0795	27.5017	0.001832	15015.1	5.029920	-177.965	51.2691	1.114682	0.031599	0.031281	52.9539	15015.1	0.028954	0.038603	1371.76	69821.6
230	2.000000	1.116987	7.3673e+06	-50139.1	955.819	-29757	0.000000	0.000000	7.119896	57.1264	NaN	0.000000	0.001669	0.001746	28.0794	29.5383	0.001756	16821	1.768175	-176.968	55.325	1.116720	0.033585	0.033318	57.1264	16821	0.031038	0.042922	1330.93	74179.5
230	2.000000	1.119113	7.3673e+06	-50139.1	955.818	-29757	0.000000	0.000000	7.122305	63.9901	NaN	0.000000	0.001669	0.001747	28.0792	31.9783	0.001832	17458.5	7.171132	179.664	66.0549	1.118692	0.035711	0.035290	63.9901	17458.5	0.032962	0.047108	1358.38	73490.9
230	2.000000	1.120970	7.3673e+06	-50139.1	955.818	-29757	0.000000	0.000000	7.124446	70.9306	NaN	0.000000	0.001651	0.001695	28.0791	33.1825	0.001679	19768.3	2.027653	-178.315	68.0804	1.120658	0.037568	0.037256	70.9306	19768.3	0.034877	0.051459	1378.38	79617.8
230	2.000000	1.122996	7.3673e+06	-50139.1	955.818	-29757	0.000000	0.000000	7.126747	77.5997	NaN	0.000000	0.001662	0.001667	28.0791	36.2891	0.001857	19546.5	5.068778	179.816	76.6762	1.122704	0.039594	0.039302	77.5997	19546.5	0.036617	0.055577	1396.25	75752.1
230	2.000000	1.125022	7.3673e+06	-50139.1	955.818	-29757	0.000000	0.000000	7.129063	84.6383	NaN	0.000000	0.001643	0.001696	28.079	36.9181	0.001725	21399.5	4.053106	-179.8	84.4993	1.124692	0.041620	0.041290	84.6383	21399.5	0.038654	0.060596	1396.76	79424.6
230	2.000000	1.127020	7.3673e+06	-50139.1	955.818	-29757	0.000000	0.000000	7.131258	89.4454	NaN	0.000000	0.001663	0.001706	28.0803	40.1511	0.001842	21793.6	5.834655	178.407	90.5291	1.126724	0.043618	0.043322	89.4454	21793.6	0.040540	0.065432	1366.99	77840.6
230	2.000000	1.129015	7.3673e+06	-50139.1	955.818	-29757	0.000000	0.000000	7.133741	101.322	NaN	0.000000	0.001661	0.001698	28.079	41.6537	0.001813	22972.7	4.218925	179.627	101.478	1.128631	0.045613	0.045229	101.322	22972.7	0.042305	0.070121	1444.96	79261.2
230	2.000000	1.130944	7.3673e+06	-50139.1	955.819	-29757	0.000000	0.000000	7.136004	109.436	NaN	0.000000	0.001652	0.001691	28.079	43.3327	0.001787	24249.6	5.913146	176.878	106.482	1.130591	0.047542	0.047189	109.436	24249.6	0.044158	0.075214	1455	80784.8
230	2.000000	1.132986	7.3673e+06	-50139.1	955.819	-29757	0.000000	0.000000	7.138150	111.967	NaN	0.000000	0.001671	0.001666	28.0791	45.7129	0.001837	24878.9	3.996602	177.908	110.101	1.132775	0.049584	0.049373	111.967	24878.9	0.046208	0.081055	1381.37	79838.7
230	2.000000	1.134919	7.3673e+06	-50139.1	955.819	-29757	0.000000	0.000000	7.140662	126.038	NaN	0.000000	0.001687	0.001691	28.0804	46.1941	0.001782	25928.2	2.257437	179.598	120.949	1.134636	0.051517	0.051234	126.038	25928.2	0.047871	0.085947	1466.47	80803.6
230	2.000000	1.136930	7.3673e+06	-50139.1	955.819	-29757	0.000000	0.000000	7.143148	137.599	NaN	0.000000	0.001632	0.001710	28.0815	49.1949	0.001854	26541.6	2.074456	179.516	134.911	1.136657	0.053528	0.053255	137.599	26541.6	0.049640	0.091303	1507.06	80252.3
230	2.000000	1.138939	7.3673e+06	-50139.1	955.819	-29757	0.000000	0.000000	7.145516	146.333	NaN	0.000000	0.001616	0.001684	28.0802	51.1562	0.001716	29818.7	4.233975	177.006	144.046	1.138646	0.055537	0.055244	146.333	29818.7	0.051856	0.098237	1489.6	86921
230	2.000000	1.140966	7.3673e+06	-50139.1	955.819	-29757	0.000000	0.000000	7.148021	157.964	NaN	0.000000	0.001651	0.001705	28.0802	52.2018	0.001743	29951.6	3.207447	177.418	156.003	1.140661	0.057564	0.057259	157.964	29951.6	0.053608	0.103892	1520.46	84898.9
230	2.000000	1.142977	7.3673e+06	-50139.1	955.82	-29757	0.000000	0.000000	7.150357	165.86	NaN	0.000000	0.001653	0.001707	28.08	55.724	0.001774	31412.6	4.802604	175.417	166.265	1.142615	0.059575	0.059213	165.86	31412.6	0.055615	0.110556	1500.23	86314.9
230	2.000000	1.144966	7.3673e+06	-50139.1	955.818	-29757	0.000000	0.000000	7.152502	169.659	NaN	0.000000	0.001631	0.001724	28.0801	55.5892	0.001656	33573.6	1.985836	177.055	168.052	1.144872	0.061564	0.061470	169.659	33573.6	0.057774	0.117946	1438.44	89315.9
230	2.000000	1.146939	7.3673e+06	-50139.1	955.819	-29757	0.000000	0.000000	7.155136	185.707	NaN	0.000000	0.001676	0.001686	28.0807	58.1135	0.001741	33381.8	1.699899	178.742	183.821	1.146621	0.063537	0.063219	185.707	33381.8	0.059365	0.123542	1503.2	86771.3
230	2.000000	1.148959	7.3673e+06	-50139.1	955.819	-29757	0.000000	0.000000	7.157498	194.035	NaN	0.000000	0.001652	0.001699	28.0801	61.2907	0.001858	32979.5	6.993412	173.065	190.861	1.148583	0.065557	0.065181	194.035	32979.5	0.061144	0.129943	1493.23	83587.3
230	2.000000	1.150944	7.3673e+06	-50139.1	955.819	-29757	0.000000	0.000000	7.159930	204.898	NaN	0.000000	0.001684	0.001693	28.0805	62.1537	0.001697	36625.4	4.207215	174.644	203.724	1.150717	0.067542	0.067315	204.898	36625.4	0.063346	0.138081	1483.9	90051.2
230	2.000000	1.152901	7.3673e+06	-50139.1	955.819	-29757	0.000000	0.000000	7.162346	216.074	NaN	0.000000	0.001659	0.001680	28.0801	64.3195	0.001666	38597.2	4.309344	174.167	212.508	1.152685	0.069499	0.069283	216.074	38597.2	0.065300	0.145498	1485.07	92448.8
230	2.000000	1.154950	7.3673e+06	-50139.1	955.819	-29757	0.000000	0.000000	7.164981	230.323	NaN	0.000000	0.001685	0.001683	28.0801	65.6274	0.001707	38445.8	6.749019	171.885	228.468	1.154669	0.071548	0.071267	230.323	38445.8	0.067055	0.152313	1512.17	90002.3
230	2.000000	1.156893	7.3673e+06	-50139.1	955.818	-29757	0.000000	0.000000	7.167440	242.865	NaN	0.000000	0.001656	0.001668	28.0804	68.3659	0.001893	36118.7	2.760176	177.795	239.743	1.156536	0.073491	0.073134	242.865	36118.7	0.068448	0.157832	1538.76	83063
230	2.000000	1.158887	7.3673e+06	-50139.1	955.819	-29757	0.000000	0.000000	7.169924	254.795	NaN	0.000000	0.001657	0.001709	28.0804	70.7734	0.001717	41223	3.654649	175.663	252.775	1.158494	0.075485	0.075093	254.795	41223	0.070849	0.167559	1520.63	92008.8
230	2.000000	1.160864	7.3673e+06	-50139.1	955.818	-29757	0.000000	0.000000	7.172404	267.025	NaN	0.000000	0.001680	0.001703	28.0807	71.1049	0.001842	38598.6	0.559848	178.531	262.675	1.160620	0.077462	0.077218	267.025	38598.6	0.072273	0.173458	1539.42	84673.4
230	2.000000	1.162923	7.3673e+06	-50139.1	955.819	-29757	0.000000	0.000000	7.174792	275.003	NaN	0.000000	0.001692	0.001687	28.0804	74.2559	0.001728	42978.2	3.560863	174.884	272.737	1.162700	0.079521	0.079298	275.003	42978.2	0.074722	0.183827	1495.99	91583.4
230	2.000000	1.164847	7.3673e+06	-50139.1	955.819	-29757	0.000000	0.000000	7.177454	292.969	NaN	0.000000	0.001665	0.001693	28.0803	74.7434	0.001813	41230.2	4.173661	174.11	287.645	1.164634	0.081445	0.081232	292.969	41230.2	0.076115	0.189851	1543.16	86453.6
230	2.000000	1.166967	7.3673e+06	-50139.1	955.819	-29757	0.000000	0.000000	7.179969	302.577	NaN	0.000000	0.001660	0.001695	28.0806	78.1868	0.001891	41344.4	4.561397	173.478	302.742	1.166617	0.083565	0.083215	302.577	41344.4	0.078076	0.198482	1524.45	84787
230	2.000000	1.168944	7.3673e+06	-50139.1	955.819	-29757	0.000000	0.000000	7.182614	318.826	NaN	0.000000	0.001672	0.001679	28.079	78.2674	0.001722	45463.3	3.062362	175.001	317.056	1.168567	0.085542	0.085165	318.826	45463.3	0.080282	0.208411	1529.8	90985.9
230	2.000000	1.170949	7.3673e+06	-50139.1	955.818	-29757	0.000000	0.000000	7.185233	333.762	NaN	0.000000	0.001675	0.001690	28.0796	79.9541	0.001716	46580	2.839927	175.191	332.592	1.170494	0.087547	0.087092	333.762	46580	0.082173	0.217099	1537.37	91336.3
230	2.000000	1.172868	7.3673e+06	-50139.1	955.819	-29757	0.000000	0.000000	7.187740	348.042	NaN	0.000000	0.001664	0.001680	28.079	82.7266	0.001748	47321.1	2.478008	175.003	342.368	1.172651	0.089467	0.089249	348.042	47321.1	0.083950	0.225420	1543.97	91060.9
230	2.000000	1.174976	7.3673e+06	-50139.1	955.819	-29757	0.000000	0.000000	7.190429	362.176	NaN	0.000000	0.001648	0.001721	28.079	84.982	0.001849	45952	10.0672	168.876	363.669	1.174475	0.091574	0.091073	362.176	45952	0.085663	0.233574	1550.59	86869.2
230	2.000000	1.176947	7.3673e+06	-50139.1	955.818	-29757	0.000000	0.000000	7.192763	371.006	NaN	0.000000	0.001685	0.001680	28.0793	87.6051	0.001851	47326.7	7.328370	170.291	372.321	1.176678	0.093545	0.093277	371.006	47326.7	0.087666	0.243283	1524.99	87664.4
230	2.000000	1.178919	7.3673e+06	-50139.1	955.819	-29757	0.000000	0.000000	7.195566	391.196	NaN	0.000000	0.001681	0.001708	28.0791	88.6182	0.001783	49710.3	5.511144	172.403	387.901	1.178462	0.095518	0.095060	391.196	49710.3	0.089615	0.252910	1546.78	90310.3
230	2.000000	1.180920	7.3673e+06	-50139.1	955.819	-29757	0.000000	0.000000	7.197926	399.928	NaN	0.000000	0.001696	0.001698	28.0793	89.6189	0.001840	48712.7	2.487114	174.614	398.318	1.180651	0.097518	0.097249	399.928	48712.7	0.091361	0.261677	1528.33	87002.6
230	2.000000	1.182873	7.3673e+06	-50139.1	955.82	-29757	0.000000	0.000000	7.200665	419.061	NaN	0.000000	0.001682	0.001636	28.079	91.9715	0.001705	53944.8	4.047699	172.092	416.357	1.182737	0.099471	0.099335	419.061	53944.8	0.093645	0.273360	1533	94266
230	2.000000	1.184921	7.3673e+06	-50139.1	955.819	-29757	0.000000	0.000000	7.203571	439.925	NaN	0.000000	0.001655	0.001670	28.0791	91.6163	0.001757	52143	3.641405	173.414	438.599	1.184616	0.101519	0.101214	439.925	52143	0.095191	0.281404	1563.32	89805.8
230	2.000000	1.186947	7.3673e+06	-50139.1	955.82	-29757	0.000000	0.000000	7.206146	453.261	NaN	0.000000	0.001654	0.001691	28.0793	94.4218	0.001792	52703.2	-0.967209	178.123	455.148	1.186627	0.103545	0.103225	453.261	52703.2	0.097095	0.291460	1555.14	89190.9
230	2.000000	1.188929	7.3673e+06	-50139.1	955.819	-29757	0.000000	0.000000	7.208755	468.54	NaN	0.000000	0.001674	0.001698	28.0789	97.8214	0.001968	49693.8	4.244468	173.266	466.599	1.188674	0.105527	0.105272	468.54	49693.8	0.098455	0.298744	1568.36	83066.5
230	2.000000	1.190949	7.3673e+06	-50139.1	955.82	-29757	0.000000	0.000000	7.211745	492.098	NaN	0.000000	0.001672	0.001671	28.0792	98.6847	0.001736	56840.6	4.825353	171.558	493.521	1.190577	0.107547	0.107175	492.098	56840.6	0.101054	0.312897	1572.72	92839.2
230	2.000000	1.192919	7.3673e+06	-50139.1	955.82	-29757	0.000000	0.000000	7.214075	500.887	NaN	0.000000	0.001635	0.001750	28.0788	102.51	0.001787	57360	5.364235	170.616	499.952	1.192691	0.109517	0.109289	500.887	57360	0.102967	0.323511	1548.28	92137.7
230	2.000000	1.194857	7.3673e+06	-50139.1	955.821	-29757	0.000000	0.000000	7.216973	524.223	NaN	0.000000	0.001645	0.001759	28.0792	103.456	0.001779	58160	3.008215	173.366	523.196	1.194548	0.111455	0.111146	524.223	58160	0.104695	0.333239	1573.12	92049.2