File: remote_trans/data/nanoindenter/0828-1/data/Data_2025-08-06,11h17m57s/2025-07-22_16-23-58_1_1165.txt
2025-07-22, 16:23:58, 1
Index	Phase	Displacement	Time	Pos X	Pos Y	Pos Z	Rot A	Rot B	Piezo Z	Force A	Force B	Gripper	Voltage A	Voltage B	Temperature	Amplitude force	Amplitude pos	Stiffness	Phase shift	Phase excitation	Force A raw	Displacement raw	HMax	HMax raw	Real Force	Real Stiffness	Contact Depth	Area	Hardness	Reduced Mod.
[#]	[#]	[um]	[s]	[um]	[um]	[um]	[m°]	[m°]	[um]	[uN]	[uN]	[V]	[V]	[V]	[°C]	[uN]	[um]	[N/m]	[°]	[°]	[uN]	[um]	[um]	[um]	[uN]	[N/m]	[um]	[um^2]	[MPa]	[MPa]
1165	1.000000	0.002894	7.37644e+06	-57339.1	1105.82	-29736.9	0.000000	0.000000	6.002807	-0.007376	NaN	0.000000	0.001622	0.001687	28.0838	0.033264	0.000902	36.8865	-168.114	-157.194	0.011390	0.001567	-1.036823	-1.038151	-0.007376	36.8865	-1.036673	-7.066925E+13	1.043694E-16	NaN
1165	1.000000	0.010824	7.37644e+06	-57339.1	1105.82	-29736.9	0.000000	0.000000	6.010737	0.008266	NaN	0.000000	0.001625	0.001665	28.0837	0.033610	0.000885	37.9722	-165.84	-160.972	-0.011487	0.009542	-1.028894	-1.030176	0.008266	37.9722	-1.029057	-5.582100E+13	-1.480797E-16	NaN
1165	1.000000	0.018865	7.37644e+06	-57339.1	1105.82	-29736.9	0.000000	0.000000	6.018780	0.042957	NaN	0.000000	0.001659	0.001659	28.0837	0.069091	0.001832	37.7195	-102.16	-163.353	0.090757	0.017576	-1.020853	-1.022142	0.042957	37.7195	-1.021707	-4.445440E+13	-9.663193E-16	NaN
1165	1.000000	0.026871	7.37644e+06	-57339.1	1105.82	-29736.9	0.000000	0.000000	6.026785	0.019364	NaN	0.000000	0.001612	0.001660	28.0837	0.075530	0.001783	42.3708	2.868755	-166.063	0.117280	0.025511	-1.012847	-1.014207	0.019364	42.3708	-1.013189	-3.414340E+13	-5.671388E-16	NaN
1165	1.000000	0.034828	7.37644e+06	-57339.1	1105.82	-29736.9	0.000000	0.000000	6.034741	0.009838	NaN	0.000000	0.001660	0.001700	28.0837	0.156252	0.001995	78.3057	-143.745	-163.991	0.015067	0.033547	-1.004890	-1.006170	0.009838	78.3057	-1.004984	-2.647707E+13	-3.715751E-16	NaN
1165	1.000000	0.042834	7.37645e+06	-57339.1	1105.82	-29736.9	0.000000	0.000000	6.042751	0.092387	NaN	0.000000	0.001660	0.001693	28.0839	0.113751	0.001930	58.9445	124.582	-162.335	0.088532	0.041530	-0.996883	-0.998187	0.092387	58.9445	-0.998059	-2.136162E+13	-4.324884E-15	NaN
1165	1.000000	0.050818	7.37645e+06	-57339.1	1105.82	-29736.9	0.000000	0.000000	6.050731	0.014273	NaN	0.000000	0.001645	0.001717	28.0843	0.069197	0.001875	36.8969	86.7227	-165.302	-0.021880	0.049538	-0.988900	-0.990179	0.014273	36.8969	-0.989190	-1.622575E+13	-8.796589E-16	NaN
1165	1.000000	0.058837	7.37645e+06	-57339.1	1105.82	-29736.9	0.000000	0.000000	6.058751	0.010703	NaN	0.000000	0.001608	0.001737	28.0841	0.065794	0.001908	34.4854	152.908	-165.971	0.094733	0.057469	-0.980881	-0.982249	0.010703	34.4854	-0.981113	-1.263022E+13	-8.474019E-16	NaN
1165	1.000000	0.066860	7.37645e+06	-57339.1	1105.82	-29736.9	0.000000	0.000000	6.066778	0.116603	NaN	0.000000	0.001635	0.001728	28.0842	0.088817	0.001942	45.7245	53.9882	-164.203	0.094656	0.065454	-0.972858	-0.974264	0.116603	45.7245	-0.974771	-1.037413E+13	-1.123974E-14	NaN
1165	1.000000	0.074844	7.37645e+06	-57339.1	1105.82	-29736.9	0.000000	0.000000	6.074759	0.041944	NaN	0.000000	0.001647	0.001705	28.0843	0.053861	0.001995	26.9999	53.9899	-166.636	-0.007652	0.073593	-0.964874	-0.966125	0.041944	26.9999	-0.966039	-7.911799E+12	-5.301436E-15	NaN
1165	1.000000	0.082854	7.37645e+06	-57339.1	1105.82	-29736.9	0.000000	0.000000	6.082770	0.077454	NaN	0.000000	0.001655	0.001710	28.0842	0.157720	0.001923	82.0335	-40.5549	-159.668	0.098450	0.081506	-0.956864	-0.958211	0.077454	82.0335	-0.957572	-6.083207E+12	-1.273245E-14	NaN
1165	1.000000	0.090868	7.37645e+06	-57339.1	1105.82	-29736.9	0.000000	0.000000	6.090781	-0.011471	NaN	0.000000	0.001641	0.001718	28.0841	0.031260	0.001946	16.0614	112.193	-163.147	0.007061	0.089546	-0.948850	-0.950172	-0.011471	16.0614	-0.948314	-4.563391E+12	2.513782E-15	NaN
1165	1.000000	0.098822	7.37645e+06	-57339.1	1105.82	-29736.9	0.000000	0.000000	6.098735	-0.007925	NaN	0.000000	0.001658	0.001699	28.0844	0.102966	0.002068	49.7956	150.578	-161.024	-0.057758	0.097545	-0.940895	-0.942173	-0.007925	49.7956	-0.940776	-3.610821E+12	2.194726E-15	NaN
1165	1.000000	0.106835	7.37645e+06	-57339.1	1105.82	-29736.9	0.000000	0.000000	6.106747	-0.022616	NaN	0.000000	0.001643	0.001754	28.0842	0.000747	0.001935	0.386064	-169.121	-162.865	-0.020053	0.105531	-0.932883	-0.934186	-0.022616	0.386064	-0.888948	-7.205981E+11	3.138456E-14	NaN
1165	1.000000	0.114854	7.37645e+06	-57339.1	1105.82	-29736.9	0.000000	0.000000	6.114767	-0.021423	NaN	0.000000	0.001627	0.001739	28.084	0.116952	0.001983	58.9904	101.614	-162.713	-0.009446	0.113550	-0.924863	-0.926167	-0.021423	58.9904	-0.924591	-2.183675E+12	9.810386E-15	NaN
1165	1.000000	0.122876	7.37645e+06	-57339.1	1105.82	-29736.9	0.000000	0.000000	6.122788	-0.031682	NaN	0.000000	0.001627	0.001722	28.0841	0.152773	0.001848	82.6701	-64.2042	-167.356	-0.030158	0.121556	-0.916842	-0.918162	-0.031682	82.6701	-0.916554	-1.700894E+12	1.862670E-14	NaN
1165	1.000000	0.130846	7.37645e+06	-57339.1	1105.82	-29736.9	0.000000	0.000000	6.130760	0.036352	NaN	0.000000	0.001626	0.001774	28.0832	0.092371	0.002029	45.5344	-144.574	-161.649	-0.047560	0.129539	-0.908872	-0.910179	0.036352	45.5344	-0.909471	-1.364626E+12	-2.663879E-14	NaN
1165	1.000000	0.138898	7.37645e+06	-57339.1	1105.82	-29736.9	0.000000	0.000000	6.138814	0.089553	NaN	0.000000	0.001627	0.001671	28.0833	0.075455	0.001960	38.4929	-132.928	-165.892	0.089554	0.137598	-0.900820	-0.902120	0.089553	38.4929	-0.902565	-1.100837E+12	-8.135000E-14	NaN
1165	1.000000	0.146836	7.37645e+06	-57339.1	1105.82	-29736.9	0.000000	0.000000	6.146750	0.019511	NaN	0.000000	0.001677	0.001675	28.0828	0.040984	0.001960	20.9076	-32.8367	-165.475	0.008347	0.145571	-0.892882	-0.894147	0.019511	20.9076	-0.893582	-8.323937E+11	-2.344012E-14	NaN
1165	1.000000	0.154866	7.37645e+06	-57339.1	1105.82	-29736.9	0.000000	0.000000	6.154778	-0.042074	NaN	0.000000	0.001668	0.001679	28.083	0.050445	0.002010	25.1022	72.6344	-162.11	-0.022291	0.153525	-0.884852	-0.886193	-0.042074	25.1022	-0.883594	-6.099778E+11	6.897701E-14	NaN
1165	1.000000	0.162882	7.37645e+06	-57339.1	1105.82	-29736.9	0.000000	0.000000	6.162795	-0.001773	NaN	0.000000	0.001635	0.001708	28.0829	0.020085	0.001831	10.968	114.277	-162.716	-0.005940	0.161541	-0.876836	-0.878176	-0.001773	10.968	-0.876714	-4.923464E+11	3.601860E-15	NaN
1165	1.000000	0.170904	7.37645e+06	-57339.1	1105.82	-29736.9	0.000000	0.000000	6.170818	0.031529	NaN	0.000000	0.001635	0.001713	28.0827	0.034599	0.001940	17.8298	178.736	-163.744	0.031704	0.169568	-0.868814	-0.870150	0.031529	17.8298	-0.870140	-4.011811E+11	-7.859091E-14	NaN
1165	1.000000	0.178900	7.37645e+06	-57339.1	1105.82	-29736.9	0.000000	0.000000	6.178813	0.006168	NaN	0.000000	0.001665	0.001720	28.0827	0.055962	0.001910	29.3041	110.653	-163.086	0.051608	0.177577	-0.860818	-0.862141	0.006168	29.3041	-0.860976	-3.015268E+11	-2.045703E-14	NaN
1165	1.000000	0.186901	7.37645e+06	-57339.1	1105.82	-29736.9	0.000000	0.000000	6.186815	0.015104	NaN	0.000000	0.001616	0.001685	28.0831	0.070514	0.001995	35.3366	-152.769	-158.03	0.028145	0.185601	-0.852816	-0.854117	0.015104	35.3366	-0.853137	-2.361644E+11	-6.395450E-14	NaN
1165	1.000000	0.194878	7.37645e+06	-57339.1	1105.82	-29736.9	0.000000	0.000000	6.194792	0.028954	NaN	0.000000	0.001651	0.001696	28.0832	0.004264	0.001982	2.150690	-130.184	-162.931	0.100250	0.193571	-0.844840	-0.846146	0.028954	2.150690	-0.854937	-2.497936E+11	-1.159098E-13	NaN
1165	1.000000	0.202921	7.37645e+06	-57339.1	1105.82	-29736.9	0.000000	0.000000	6.202836	0.050631	NaN	0.000000	0.001659	0.001677	28.083	0.083306	0.001843	45.2007	24.0813	-166.033	0.030133	0.201539	-0.836797	-0.838179	0.050631	45.2007	-0.837637	-1.456385E+11	-3.476502E-13	NaN
1165	1.000000	0.210890	7.37645e+06	-57339.1	1105.82	-29736.9	0.000000	0.000000	6.210804	0.014559	NaN	0.000000	0.001686	0.001692	28.0829	0.044997	0.001949	23.0896	-51.9433	-165.206	0.058387	0.209600	-0.828827	-0.830118	0.014559	23.0896	-0.829300	-1.122793E+11	-1.296669E-13	NaN
1165	1.000000	0.218907	7.37645e+06	-57339.1	1105.82	-29736.9	0.000000	0.000000	6.218821	0.024473	NaN	0.000000	0.001642	0.001653	28.0828	0.046890	0.001983	23.6505	33.7449	-167.543	0.033705	0.217643	-0.820811	-0.822074	0.024473	23.6505	-0.821587	-8.825334E+10	-2.773057E-13	NaN
1165	1.000000	0.226904	7.37645e+06	-57339.1	1105.82	-29736.9	0.000000	0.000000	6.226818	0.020411	NaN	0.000000	0.001665	0.001711	28.083	0.034824	0.002106	16.5334	-123.816	-166.917	-0.062197	0.225622	-0.812814	-0.814096	0.020411	16.5334	-0.813740	-6.907248E+10	-2.954981E-13	NaN
1165	1.000000	0.234920	7.37645e+06	-57339.1	1105.82	-29736.9	0.000000	0.000000	6.234832	-0.018967	NaN	0.000000	0.001657	0.001689	28.0825	0.028188	0.002107	13.3797	-52.9757	-164.406	-0.055209	0.233630	-0.804798	-0.806087	-0.018967	13.3797	-0.803735	-5.053058E+10	3.753479E-13	NaN
1165	1.000000	0.242906	7.37645e+06	-57339.1	1105.82	-29736.9	0.000000	0.000000	6.242820	0.028523	NaN	0.000000	0.001661	0.001679	28.0829	0.138687	0.002068	67.0718	145.754	-165.946	0.038617	0.241672	-0.796812	-0.798046	0.028523	67.0718	-0.797131	-4.110684E+10	-6.938817E-13	NaN
1165	1.000000	0.250939	7.37645e+06	-57339.1	1105.82	-29736.9	0.000000	0.000000	6.250855	0.063395	NaN	0.000000	0.001686	0.001688	28.0828	0.049121	0.002013	24.4009	-83.39	-161.672	0.138781	0.249664	-0.788779	-0.790054	0.063395	24.4009	-0.790727	-3.364834E+10	-1.884040E-12	NaN
1165	1.000000	0.258923	7.37645e+06	-57339.1	1105.82	-29736.9	0.000000	0.000000	6.258837	0.011499	NaN	0.000000	0.001682	0.001717	28.0827	0.077365	0.001973	39.2098	45.1741	-164.693	0.012028	0.257585	-0.780795	-0.782132	0.011499	39.2098	-0.781015	-2.483253E+10	-4.630627E-13	NaN
1165	1.000000	0.266930	7.37645e+06	-57339.1	1105.82	-29736.9	0.000000	0.000000	6.266843	0.009673	NaN	0.000000	0.001687	0.001680	28.0839	0.031306	0.001908	16.4074	143.132	-161.937	0.036349	0.265591	-0.772788	-0.774126	0.009673	16.4074	-0.773230	-1.946339E+10	-4.969801E-13	NaN
1165	1.000000	0.274946	7.37645e+06	-57339.1	1105.82	-29736.9	0.000000	0.000000	6.274858	-0.042673	NaN	0.000000	0.001674	0.001670	28.084	0.065433	0.002036	32.1413	-128.581	-166.795	-0.059448	0.273658	-0.764771	-0.766060	-0.042673	32.1413	-0.763776	-1.447642E+10	2.947758E-12	NaN
1165	1.000000	0.282950	7.37645e+06	-57339.1	1105.82	-29736.9	0.000000	0.000000	6.282865	0.044233	NaN	0.000000	0.001676	0.001702	28.0841	0.126499	0.002069	61.1502	-102.312	-162.692	0.046758	0.281627	-0.756768	-0.758091	0.044233	61.1502	-0.757311	-1.182255E+10	-3.741449E-12	NaN
1165	1.000000	0.290931	7.37645e+06	-57339.1	1105.82	-29736.9	0.000000	0.000000	6.290847	0.073845	NaN	0.000000	0.001626	0.001703	28.0842	0.063471	0.001997	31.7877	76.7276	-164.481	0.134258	0.289648	-0.748786	-0.750070	0.073845	31.7877	-0.750529	-9.559125E+9	-7.725102E-12	NaN
1165	1.000000	0.298926	7.37645e+06	-57339.1	1105.82	-29736.9	0.000000	0.000000	6.298839	0.000800	NaN	0.000000	0.001575	0.001660	28.0838	0.084190	0.002041	41.2495	35.9282	-164.002	-0.001036	0.297648	-0.740791	-0.742069	0.000800	41.2495	-0.740806	-7.047488E+9	-1.134771E-13	NaN
1165	1.000000	0.306955	7.37645e+06	-57339.1	1105.82	-29736.9	0.000000	0.000000	6.306870	0.025791	NaN	0.000000	0.001579	0.001703	28.0841	0.041559	0.002106	19.7368	-147.951	-165.047	0.067843	0.305649	-0.732762	-0.734069	0.025791	19.7368	-0.733742	-5.646876E+9	-4.567346E-12	NaN
1165	1.000000	0.314941	7.37645e+06	-57339.1	1105.82	-29736.9	0.000000	0.000000	6.314855	-0.001634	NaN	0.000000	0.001609	0.001682	28.0838	0.026736	0.002156	12.3984	-149.287	-162.864	0.059136	0.313647	-0.724776	-0.726070	-0.001634	12.3984	-0.724677	-4.248661E+9	3.846082E-13	NaN
1165	1.000000	0.322961	7.37645e+06	-57339.1	1105.82	-29736.9	0.000000	0.000000	6.322873	-0.022939	NaN	0.000000	0.001619	0.001681	28.0842	0.140921	0.002024	69.6318	114.862	-165.269	-0.005709	0.321632	-0.716757	-0.718085	-0.022939	69.6318	-0.716510	-3.287500E+9	6.977521E-12	NaN
1165	1.000000	0.330931	7.37645e+06	-57339.1	1105.82	-29736.9	0.000000	0.000000	6.330846	0.059412	NaN	0.000000	0.001588	0.001667	28.084	0.011660	0.001983	5.878659	-62.2647	-164.972	0.013672	0.329645	-0.708787	-0.710073	0.059412	5.878659	-0.716367	-3.272770E+9	-1.815347E-11	NaN
1165	1.000000	0.338960	7.37645e+06	-57339.1	1105.82	-29736.9	0.000000	0.000000	6.338876	0.061417	NaN	0.000000	0.001585	0.001680	28.0838	0.124916	0.002000	62.4509	-71.7424	-162.221	0.025125	0.337646	-0.700758	-0.702072	0.061417	62.4509	-0.701495	-2.050933E+9	-2.994612E-11	NaN
1165	1.000000	0.346962	7.37645e+06	-57339.1	1105.82	-29736.9	0.000000	0.000000	6.346876	0.034597	NaN	0.000000	0.001621	0.001660	28.0841	0.194733	0.001899	102.546	-58.8555	-164.189	0.052421	0.345611	-0.692756	-0.694107	0.034597	102.546	-0.693009	-1.570486E+9	-2.202924E-11	NaN
1165	1.000000	0.354962	7.37645e+06	-57339.1	1105.82	-29736.9	0.000000	0.000000	6.354876	0.003760	NaN	0.000000	0.001570	0.001660	28.0838	0.101320	0.001979	51.1885	-157.917	-165.392	0.009907	0.353628	-0.684755	-0.686089	0.003760	51.1885	-0.684810	-1.213338E+9	-3.099256E-12	NaN
1165	1.000000	0.362971	7.37645e+06	-57339.1	1105.82	-29736.9	0.000000	0.000000	6.362884	0.004103	NaN	0.000000	0.001586	0.001667	28.084	0.096150	0.001969	48.8358	-127.37	-163.038	-0.067817	0.361627	-0.676747	-0.678091	0.004103	48.8358	-0.676810	-9.431192E+8	-4.350507E-12	NaN
1165	1.000000	0.370969	7.37645e+06	-57339.1	1105.82	-29736.9	0.000000	0.000000	6.370882	-0.005269	NaN	0.000000	0.001560	0.001649	28.0838	0.053041	0.002089	25.3881	179.177	-167.257	0.000652	0.369635	-0.668749	-0.670082	-0.005269	25.3881	-0.668593	-7.280075E+8	7.237800E-12	NaN
1165	1.000000	0.378965	7.37645e+06	-57339.1	1105.82	-29736.9	0.000000	0.000000	6.378876	-0.052516	NaN	0.000000	0.001566	0.001669	28.0839	0.077355	0.002001	38.656	150.938	-165.926	-0.009700	0.377626	-0.660753	-0.662092	-0.052516	38.656	-0.659734	-5.505818E+8	9.538342E-11	NaN
1165	1.000000	0.386982	7.37645e+06	-57339.1	1105.82	-29736.9	0.000000	0.000000	6.386901	0.121907	NaN	0.000000	0.001606	0.001705	28.0839	0.061224	0.002100	29.1505	96.7727	-166.817	0.126903	0.385633	-0.652735	-0.654084	0.121907	29.1505	-0.655872	-4.874305E+8	-2.501019E-10	NaN
1165	1.000000	0.394968	7.37645e+06	-57339.1	1105.82	-29736.9	0.000000	0.000000	6.394884	0.079910	NaN	0.000000	0.001558	0.001688	28.0839	0.060388	0.002020	29.9022	95.3113	-165.009	-0.029046	0.393704	-0.644750	-0.646014	0.079910	29.9022	-0.646754	-3.655401E+8	-2.186081E-10	NaN
1165	1.000000	0.402971	7.37645e+06	-57339.1	1105.82	-29736.9	0.000000	0.000000	6.402888	0.108534	NaN	0.000000	0.001566	0.001731	28.0828	0.046542	0.001970	23.6295	-160.881	-166.474	0.065321	0.401667	-0.636747	-0.638050	0.108534	23.6295	-0.640192	-2.971141E+8	-3.652951E-10	NaN
1165	1.000000	0.410976	7.37645e+06	-57339.1	1105.82	-29736.9	0.000000	0.000000	6.410890	0.019355	NaN	0.000000	0.001610	0.001692	28.0827	0.039460	0.001843	21.4154	-48.4706	-162.58	0.042691	0.409715	-0.628741	-0.630003	0.019355	21.4154	-0.629419	-2.113714E+8	-9.156763E-11	NaN
1165	1.000000	0.418991	7.37645e+06	-57339.1	1105.82	-29736.9	0.000000	0.000000	6.418909	0.100801	NaN	0.000000	0.001575	0.001652	28.0827	0.057166	0.002075	27.5477	-105.577	-165.496	0.009604	0.417666	-0.620726	-0.622051	0.100801	27.5477	-0.623471	-1.751184E+8	-5.756173E-10	NaN
1165	1.000000	0.426983	7.37645e+06	-57339.1	1105.82	-29736.9	0.000000	0.000000	6.426900	0.096698	NaN	0.000000	0.001590	0.001632	28.0827	0.049367	0.002049	24.096	39.8975	-165.549	0.089338	0.425736	-0.612735	-0.613982	0.096698	24.096	-0.615745	-1.371302E+8	-7.051547E-10	NaN
1165	1.000000	0.435020	7.37645e+06	-57339.1	1105.82	-29736.9	0.000000	0.000000	6.434933	-0.013559	NaN	0.000000	0.001598	0.001641	28.0827	0.028397	0.001900	14.9462	-171.816	-165.083	0.019395	0.433709	-0.604697	-0.606009	-0.013559	14.9462	-0.604017	-9.457404E+7	1.433686E-10	NaN
1165	1.000000	0.442999	7.37645e+06	-57339.1	1105.82	-29736.9	0.000000	0.000000	6.442915	0.064979	NaN	0.000000	0.001574	0.001690	28.0828	0.061368	0.002044	30.0189	156.863	-163.447	0.009131	0.441732	-0.596718	-0.597986	0.064979	30.0189	-0.598342	-7.899844E+7	-8.225399E-10	NaN
1165	1.000000	0.450997	7.37645e+06	-57339.1	1105.82	-29736.9	0.000000	0.000000	6.450909	-0.028173	NaN	0.000000	0.001553	0.001662	28.0826	0.054461	0.002061	26.4269	66.5608	-168.314	0.022868	0.449681	-0.588721	-0.590036	-0.028173	26.4269	-0.587921	-5.675467E+7	4.963923E-10	NaN
1165	1.000000	0.459026	7.37645e+06	-57339.1	1105.82	-29736.9	0.000000	0.000000	6.458940	0.017162	NaN	0.000000	0.001536	0.001656	28.0828	0.027517	0.001976	13.9223	-109.532	-164.863	-0.088108	0.457726	-0.580691	-0.581991	0.017162	13.9223	-0.581616	-4.645426E+7	-3.694405E-10	NaN
1165	1.000000	0.466999	7.37645e+06	-57339.1	1105.82	-29736.9	0.000000	0.000000	6.466916	0.076701	NaN	0.000000	0.001578	0.001676	28.0826	0.027445	0.002057	13.3417	102.508	-162.981	-0.010180	0.465636	-0.572718	-0.574082	0.076701	13.3417	-0.577030	-4.015372E+7	-1.910173E-9	NaN
1165	1.000000	0.474989	7.37645e+06	-57339.1	1105.82	-29736.9	0.000000	0.000000	6.474903	0.041674	NaN	0.000000	0.001601	0.001640	28.0827	0.114214	0.002118	53.9315	103.059	-160.487	0.074090	0.473679	-0.564729	-0.566039	0.041674	53.9315	-0.565309	-2.765621E+7	-1.506868E-9	NaN
1165	1.000000	0.483018	7.37645e+06	-57339.1	1105.82	-29736.9	0.000000	0.000000	6.482933	0.038709	NaN	0.000000	0.001541	0.001680	28.0829	0.085205	0.001887	45.1459	164.33	-163.828	0.068494	0.481692	-0.556700	-0.558026	0.038709	45.1459	-0.557343	-2.145926E+7	-1.803831E-9	NaN
1165	1.000000	0.491027	7.37645e+06	-57339.1	1105.82	-29736.9	0.000000	0.000000	6.490942	0.028605	NaN	0.000000	0.001594	0.001676	28.0824	0.035458	0.002075	17.0889	-105.555	-164.626	0.032464	0.489702	-0.548690	-0.550015	0.028605	17.0889	-0.549946	-1.695136E+7	-1.687462E-9	NaN
1165	1.000000	0.499024	7.37645e+06	-57339.1	1105.82	-29736.9	0.000000	0.000000	6.498938	0.002509	NaN	0.000000	0.001591	0.001675	28.0824	0.047483	0.002016	23.5504	-160.023	-164.592	0.100258	0.497753	-0.540693	-0.541964	0.002509	23.5504	-0.540773	-1.264970E+7	-1.983724E-10	NaN
1165	1.000000	0.507010	7.37645e+06	-57339.1	1105.82	-29736.9	0.000000	0.000000	6.506925	0.050166	NaN	0.000000	0.001548	0.001643	28.0824	0.096071	0.001913	50.2164	42.8152	-165.554	-0.060140	0.505749	-0.532708	-0.533968	0.050166	50.2164	-0.533457	-1.001333E+7	-5.009916E-9	NaN
1165	1.000000	0.515075	7.37645e+06	-57339.1	1105.82	-29736.9	0.000000	0.000000	6.514992	0.079148	NaN	0.000000	0.001567	0.001682	28.0825	0.050179	0.002083	24.0885	142.671	-164.875	0.038711	0.513747	-0.524643	-0.525970	0.079148	24.0885	-0.527107	-8.1731e+06	-9.684000E-9	NaN
1165	1.000000	0.523037	7.37645e+06	-57339.1	1105.82	-29736.9	0.000000	0.000000	6.522953	0.059126	NaN	0.000000	0.001571	0.001653	28.0827	0.107435	0.001981	54.2434	4.503687	-163.29	0.045117	0.521668	-0.516680	-0.518050	0.059126	54.2434	-0.517498	-6.00887e+06	-9.839712E-9	NaN
1165	1.000000	0.531048	7.37645e+06	-57339.1	1105.82	-29736.9	0.000000	0.000000	6.530964	0.074640	NaN	0.000000	0.001563	0.001682	28.0823	0.151730	0.002110	71.9223	146.368	-166.207	0.133727	0.529767	-0.508670	-0.509950	0.074640	71.9223	-0.509448	-4.64224e+06	-1.607851E-8	NaN
1165	1.000000	0.539039	7.37645e+06	-57339.1	1105.82	-29736.9	0.000000	0.000000	6.538950	-0.053080	NaN	0.000000	0.001573	0.001628	28.0839	0.102480	0.001904	53.8102	-34.481	-167.211	0.053469	0.537699	-0.500679	-0.502019	-0.053080	53.8102	-0.499939	-3.42111e+06	1.551554E-8	NaN
1165	1.000000	0.547040	7.37645e+06	-57339.1	1105.82	-29736.9	0.000000	0.000000	6.546953	0.004363	NaN	0.000000	0.001591	0.001627	28.0835	0.058550	0.001982	29.5334	-125.058	-166.597	-0.023945	0.545755	-0.492678	-0.493962	0.004363	29.5334	-0.492789	-2.71865e+06	-1.604887E-9	NaN
1165	1.000000	0.555018	7.37645e+06	-57339.1	1105.82	-29736.9	0.000000	0.000000	6.554934	0.069461	NaN	0.000000	0.001588	0.001662	28.0848	0.050242	0.002032	24.7234	-115.028	-166.107	-0.012378	0.553740	-0.484699	-0.485978	0.069461	24.7234	-0.486807	-2.24261e+06	-3.097327E-8	NaN
1165	1.000000	0.563052	7.37645e+06	-57339.1	1105.82	-29736.9	0.000000	0.000000	6.562966	0.037938	NaN	0.000000	0.001523	0.001633	28.0837	0.144381	0.001979	72.9612	88.4503	-162.171	0.081677	0.561717	-0.476666	-0.478001	0.037938	72.9612	-0.477056	-1.63796e+06	-2.316141E-8	NaN
1165	1.000000	0.571018	7.37645e+06	-57339.1	1105.82	-29736.9	0.000000	0.000000	6.570931	0.004809	NaN	0.000000	0.001570	0.001638	28.0837	0.028645	0.002015	14.2183	38.5273	-164.481	-0.056784	0.569710	-0.468700	-0.470008	0.004809	14.2183	-0.468953	-1.26103e+06	-3.813301E-9	NaN
1165	1.000000	0.579038	7.37645e+06	-57339.1	1105.82	-29736.9	0.000000	0.000000	6.578951	-0.006409	NaN	0.000000	0.001586	0.001660	28.0839	0.042077	0.001899	22.1603	-175.34	-163.235	0.033756	0.577794	-0.460680	-0.461924	-0.006409	22.1603	-0.460463	-958340	6.687277E-9	NaN
1165	1.000000	0.587065	7.37645e+06	-57339.1	1105.82	-29736.9	0.000000	0.000000	6.586978	-0.013554	NaN	0.000000	0.001627	0.001654	28.0837	0.062079	0.001928	32.1958	105.61	-166.465	-0.013053	0.585724	-0.452653	-0.453993	-0.013554	32.1958	-0.452337	-736621	1.840071E-8	NaN
1165	1.000000	0.595062	7.37645e+06	-57339.1	1105.82	-29736.9	0.000000	0.000000	6.594974	-0.042033	NaN	0.000000	0.001568	0.001640	28.0839	0.076067	0.001994	38.1418	168.445	-163.697	0.038519	0.593752	-0.444655	-0.445965	-0.042033	38.1418	-0.443829	-558958	7.519835E-8	NaN
1165	1.000000	0.603068	7.37645e+06	-57339.1	1105.82	-29736.9	0.000000	0.000000	6.602980	-0.030122	NaN	0.000000	0.001568	0.001687	28.0838	0.132109	0.001931	68.4195	-85.0211	-162.355	0.024515	0.601758	-0.436650	-0.437960	-0.030122	68.4195	-0.436319	-437920	6.878471E-8	NaN
1165	1.000000	0.611071	7.37645e+06	-57339.1	1105.82	-29736.9	0.000000	0.000000	6.610987	0.056159	NaN	0.000000	0.001609	0.001671	28.0838	0.029453	0.002021	14.5735	-34.935	-162.994	0.051585	0.609743	-0.428647	-0.429974	0.056159	14.5735	-0.431537	-374799	-1.498378E-7	NaN
1165	1.000000	0.619077	7.37645e+06	-57339.1	1105.82	-29736.9	0.000000	0.000000	6.618994	0.102163	NaN	0.000000	0.001576	0.001669	28.0837	0.114258	0.001988	57.4661	34.0381	-163.532	0.143019	0.617773	-0.420641	-0.421945	0.102163	57.4661	-0.421974	-274414	-3.722964E-7	NaN
1165	1.000000	0.627078	7.37645e+06	-57339.1	1105.82	-29736.9	0.000000	0.000000	6.626994	0.065379	NaN	0.000000	0.001599	0.001647	28.0835	0.103719	0.001922	53.9763	150.537	-164.894	0.060488	0.625793	-0.412640	-0.413924	0.065379	53.9763	-0.413548	-208369	-3.137652E-7	NaN
1165	1.000000	0.635086	7.37645e+06	-57339.1	1105.82	-29736.9	0.000000	0.000000	6.634997	-0.046441	NaN	0.000000	0.001630	0.001682	28.0837	0.081902	0.002051	39.9251	-59.1901	-165.643	0.036096	0.633767	-0.404632	-0.405951	-0.046441	39.9251	-0.403760	-151211	3.071306E-7	NaN
1165	1.000000	0.643084	7.37645e+06	-57339.1	1105.82	-29736.9	0.000000	0.000000	6.642996	-0.038224	NaN	0.000000	0.001579	0.001686	28.0836	0.054355	0.001940	28.0162	165.198	-168.09	0.022785	0.641759	-0.396633	-0.397959	-0.038224	28.0162	-0.395610	-115703	3.303652E-7	NaN
1165	1.000000	0.651069	7.37645e+06	-57339.1	1105.82	-29736.9	0.000000	0.000000	6.650983	0.019965	NaN	0.000000	0.001588	0.001688	28.084	0.084771	0.002047	41.419	-156.574	-162.223	-0.013174	0.649762	-0.388648	-0.389956	0.019965	41.419	-0.389010	-93111.4	-2.144207E-7	NaN
1165	1.000000	0.659106	7.37645e+06	-57339.1	1105.82	-29736.9	0.000000	0.000000	6.659020	0.020572	NaN	0.000000	0.001619	0.001672	28.0838	0.005237	0.002078	2.520363	-103.556	-162.873	-0.022691	0.657771	-0.380612	-0.381947	0.020572	2.520363	-0.386734	-86381.3	-2.381567E-7	NaN
1165	1.000000	0.667108	7.37645e+06	-57339.1	1105.82	-29736.9	0.000000	0.000000	6.667022	0.009532	NaN	0.000000	0.001595	0.001641	28.0838	0.013730	0.001965	6.987371	-9.073059	-162.983	0.001793	0.665816	-0.372609	-0.373901	0.009532	6.987371	-0.373632	-56028.1	-1.701207E-7	NaN
1165	1.000000	0.675088	7.37645e+06	-57339.1	1105.82	-29736.9	0.000000	0.000000	6.675004	0.064670	NaN	0.000000	0.001605	0.001687	28.0827	0.041244	0.002082	19.8084	167.449	-168.293	0.024172	0.673831	-0.364630	-0.365887	0.064670	19.8084	-0.367078	-45084.8	-1.434413E-6	NaN
1165	1.000000	0.683109	7.37645e+06	-57339.1	1105.82	-29736.9	0.000000	0.000000	6.683022	-0.007626	NaN	0.000000	0.001647	0.001689	28.0823	0.076436	0.002005	38.13	37.4037	-163.953	-0.057668	0.681807	-0.356608	-0.357910	-0.007626	38.13	-0.356458	-31667.3	2.408166E-7	NaN
1165	1.000000	0.691088	7.37645e+06	-57339.1	1105.82	-29736.9	0.000000	0.000000	6.691003	0.046501	NaN	0.000000	0.001644	0.001683	28.0822	0.013781	0.001898	7.260054	-173.136	-164.325	0.070049	0.689749	-0.348629	-0.349968	0.046501	7.260054	-0.353433	-28628.3	-1.624310E-6	NaN
1165	1.000000	0.699094	7.37645e+06	-57339.1	1105.82	-29736.9	0.000000	0.000000	6.699008	0.017021	NaN	0.000000	0.001645	0.001694	28.0822	0.020210	0.001918	10.5359	-25.6667	-165.671	-0.019223	0.697801	-0.340623	-0.341917	0.017021	10.5359	-0.341835	-19422	-8.763984E-7	NaN
1165	1.000000	0.707102	7.37645e+06	-57339.1	1105.82	-29736.9	0.000000	0.000000	6.707014	-0.016735	NaN	0.000000	0.001620	0.001695	28.0825	0.031516	0.002049	15.3796	-95.4677	-164.992	0.028818	0.705833	-0.332616	-0.333885	-0.016735	15.3796	-0.331800	-13861	1.207315E-6	NaN
1165	1.000000	0.715105	7.37645e+06	-57339.1	1105.82	-29736.9	0.000000	0.000000	6.715018	-0.003329	NaN	0.000000	0.001620	0.001676	28.0825	0.043241	0.002059	21	-175.134	-163.873	0.045350	0.713809	-0.324612	-0.325908	-0.003329	21	-0.324493	-10831.7	3.073158E-7	NaN
1165	1.000000	0.723135	7.37645e+06	-57339.1	1105.82	-29736.9	0.000000	0.000000	6.723047	-0.015196	NaN	0.000000	0.001624	0.001688	28.0824	0.028343	0.001940	14.6099	-67.0992	-163.527	0.031503	0.721826	-0.316583	-0.317891	-0.015196	14.6099	-0.315803	-8068.51	1.883316E-6	NaN
1165	1.000000	0.731143	7.37645e+06	-57339.1	1105.82	-29737	0.000000	0.000000	6.731052	-0.117135	NaN	0.000000	0.001666	0.001725	28.0827	0.069646	0.001946	35.7832	-13.3459	-163.904	-0.072219	0.729831	-0.308574	-0.309886	-0.117135	35.7832	-0.306119	-5801.74	2.018961E-5	NaN
1165	1.000000	0.739124	7.37645e+06	-57339.1	1105.82	-29737	0.000000	0.000000	6.739036	-0.026621	NaN	0.000000	0.001601	0.001707	28.0825	0.121886	0.002009	60.6802	-177.693	-163.917	-0.066801	0.737865	-0.300593	-0.301852	-0.026621	60.6802	-0.300264	-4748.66	5.606053E-6	NaN
1165	1.000000	0.747109	7.37645e+06	-57339.1	1105.82	-29737	0.000000	0.000000	6.747023	0.020725	NaN	0.000000	0.001593	0.001681	28.0827	0.060394	0.001917	31.4988	-13.6214	-163.942	-0.045358	0.745841	-0.292609	-0.293877	0.020725	31.4988	-0.293102	-3713.06	-5.581544E-6	NaN
1165	1.000000	0.755136	7.37645e+06	-57339.1	1105.82	-29737	0.000000	0.000000	6.755045	-0.100946	NaN	0.000000	0.001576	0.001703	28.0827	0.105481	0.002025	52.1013	-122.6	-163.548	-0.042380	0.753848	-0.284582	-0.285870	-0.100946	52.1013	-0.283128	-2630.96	3.836864E-5	NaN
1165	1.000000	0.763123	7.37645e+06	-57339.1	1105.82	-29737	0.000000	0.000000	6.763036	-0.011270	NaN	0.000000	0.001597	0.001711	28.0828	0.058620	0.001918	30.5557	93.7363	-164.188	-0.009233	0.761819	-0.276595	-0.277898	-0.011270	30.5557	-0.276318	-2076.57	5.426987E-6	NaN
1165	1.000000	0.771149	7.37645e+06	-57339.1	1105.82	-29737	0.000000	0.000000	6.771063	0.019771	NaN	0.000000	0.001606	0.001720	28.0829	0.074394	0.002075	35.8524	-72.0715	-162.022	0.048222	0.769784	-0.268569	-0.269933	0.019771	35.8524	-0.268983	-1607.21	-1.230147E-5	NaN
1165	1.000000	0.779156	7.37645e+06	-57339.1	1105.82	-29737	0.000000	0.000000	6.779072	0.061753	NaN	0.000000	0.001643	0.001706	28.0828	0.076878	0.001966	39.1029	-114.771	-164.123	0.043677	0.777800	-0.260562	-0.261918	0.061753	39.1029	-0.261746	-1246.41	-4.954494E-5	NaN
1165	1.000000	0.787157	7.37645e+06	-57339.1	1105.82	-29737	0.000000	0.000000	6.787072	0.049309	NaN	0.000000	0.001616	0.001747	28.0829	0.067407	0.001996	33.7714	149.667	-169.415	0.009538	0.785821	-0.252561	-0.253897	0.049309	33.7714	-0.253656	-936.288	-5.266403E-5	NaN
1165	1.000000	0.795156	7.37645e+06	-57339.1	1105.82	-29737	0.000000	0.000000	6.795068	-0.021927	NaN	0.000000	0.001618	0.001719	28.0826	0.028456	0.002021	14.0785	122.358	-163.595	0.043805	0.793823	-0.244562	-0.245895	-0.021927	14.0785	-0.243394	-649.331	3.376797E-5	NaN
1165	1.000000	0.803166	7.37645e+06	-57339.1	1105.82	-29737	0.000000	0.000000	6.803081	0.050998	NaN	0.000000	0.001636	0.001698	28.0827	0.111649	0.002000	55.8223	-46.081	-168.049	0.054020	0.801816	-0.236552	-0.237901	0.050998	55.8223	-0.237237	-520.392	-9.799874E-5	NaN
1165	1.000000	0.811142	7.37645e+06	-57339.1	1105.82	-29737	0.000000	0.000000	6.811059	0.083219	NaN	0.000000	0.001699	0.001708	28.0837	0.025925	0.001873	13.8427	-36.8141	-164.447	-0.081962	0.809832	-0.228576	-0.229886	0.083219	13.8427	-0.233084	-447.855	-0.000186	NaN
1165	1.000000	0.819195	7.37645e+06	-57339.1	1105.82	-29737	0.000000	0.000000	6.819110	0.023908	NaN	0.000000	0.001657	0.001682	28.0838	0.021195	0.002025	10.4684	-116.044	-165.499	0.064770	0.817867	-0.220522	-0.221851	0.023908	10.4684	-0.222235	-301.541	-7.928560E-5	NaN
1165	1.000000	0.827164	7.37645e+06	-57339.1	1105.82	-29737	0.000000	0.000000	6.827080	0.053414	NaN	0.000000	0.001671	0.001708	28.084	0.043499	0.002011	21.626	162.153	-165.65	-0.011541	0.825885	-0.212553	-0.213833	0.053414	21.626	-0.214406	-225.919	-0.000236	NaN
1165	1.000000	0.835154	7.37645e+06	-57339.1	1105.82	-29737	0.000000	0.000000	6.835068	0.024052	NaN	0.000000	0.001685	0.001679	28.0838	0.056604	0.001987	28.4929	-175.867	-163.92	0.035520	0.833830	-0.204564	-0.205888	0.024052	28.4929	-0.205197	-160.239	-0.000150	NaN
1165	1.000000	0.843182	7.37645e+06	-57339.1	1105.82	-29737	0.000000	0.000000	6.843095	0.005367	NaN	0.000000	0.001682	0.001665	28.0838	0.062893	0.002127	29.5645	107.753	-165.611	-0.016127	0.841895	-0.196536	-0.197823	0.005367	29.5645	-0.196672	-116.108	-4.622084E-5	NaN
1165	1.000000	0.851195	7.37645e+06	-57339.1	1105.82	-29737	0.000000	0.000000	6.851105	-0.057692	NaN	0.000000	0.001663	0.001637	28.0836	0.081219	0.002044	39.7416	3.924827	-163.922	-0.061484	0.849911	-0.188523	-0.189806	-0.057692	39.7416	-0.187434	-81.4839	0.000708	NaN
1165	1.000000	0.859190	7.37645e+06	-57339.1	1105.82	-29737	0.000000	0.000000	6.859105	0.029697	NaN	0.000000	0.001667	0.001662	28.0838	0.072334	0.001890	38.2784	-117.128	-166.434	0.086949	0.857917	-0.180527	-0.181800	0.029697	38.2784	-0.181109	-63.7264	-0.000466	NaN
1165	1.000000	0.867169	7.37645e+06	-57339.1	1105.82	-29737	0.000000	0.000000	6.867082	0.001868	NaN	0.000000	0.001693	0.001672	28.084	0.144104	0.001971	73.1014	-95.5347	-165.737	0.065896	0.865824	-0.172549	-0.173894	0.001868	73.1014	-0.172568	-45.5075	-4.105088E-5	NaN
1165	1.000000	0.875151	7.37645e+06	-57339.1	1105.82	-29737	0.000000	0.000000	6.875066	0.034195	NaN	0.000000	0.001684	0.001697	28.0838	0.197043	0.001978	99.6092	-103.344	-163.234	0.032558	0.873886	-0.164567	-0.165831	0.034195	99.6092	-0.164824	-33.3593	-0.001025	NaN
1165	1.000000	0.883178	7.37645e+06	-57339.1	1105.82	-29737	0.000000	0.000000	6.883092	0.020958	NaN	0.000000	0.001678	0.001627	28.0837	0.039871	0.002062	19.3363	81.9078	-165.584	-0.041331	0.881889	-0.156539	-0.157828	0.020958	19.3363	-0.157352	-24.5913	-0.000852	NaN
1165	1.000000	0.891203	7.37645e+06	-57339.1	1105.82	-29737	0.000000	0.000000	6.891118	0.044286	NaN	0.000000	0.001674	0.001678	28.0838	0.081606	0.001959	41.6521	-48.5484	-160.536	0.031825	0.889871	-0.148515	-0.149846	0.044286	41.6521	-0.149312	-17.5974	-0.002517	NaN
1165	1.000000	0.899173	7.37645e+06	-57339.1	1105.82	-29737	0.000000	0.000000	6.899087	0.004252	NaN	0.000000	0.001700	0.001675	28.0839	0.165703	0.002089	79.3103	56.4123	-167.294	-0.046764	0.897887	-0.140544	-0.141831	0.004252	79.3103	-0.140585	-12.1321	-0.000350	NaN
1165	1.000000	0.907187	7.37645e+06	-57339.1	1105.82	-29737	0.000000	0.000000	6.907101	-0.003342	NaN	0.000000	0.001696	0.001679	28.0836	0.087197	0.002001	43.5705	167.937	-166.06	0.022424	0.905914	-0.132530	-0.133804	-0.003342	43.5705	-0.132473	-8.508098	0.000393	NaN
1165	1.000000	0.915184	7.37645e+06	-57339.1	1105.82	-29737	0.000000	0.000000	6.915097	-0.016184	NaN	0.000000	0.001707	0.001683	28.0837	0.032214	0.001972	16.3357	127.052	-159.825	0.030101	0.913844	-0.124533	-0.125874	-0.016184	16.3357	-0.123790	-5.754445	0.002812	NaN
1165	1.000000	0.923211	7.37645e+06	-57339.1	1105.82	-29737	0.000000	0.000000	6.923123	-0.019380	NaN	0.000000	0.001712	0.001663	28.0839	0.041361	0.001900	21.7683	108.41	-166.384	-0.018106	0.921844	-0.116507	-0.117873	-0.019380	21.7683	-0.115839	-3.975308	0.004875	NaN
1165	1.000000	0.931220	7.37645e+06	-57339.1	1105.82	-29737	0.000000	0.000000	6.931135	0.039593	NaN	0.000000	0.001695	0.001675	28.0837	0.064202	0.002027	31.6771	163.077	-165.281	-0.032596	0.929889	-0.108498	-0.109829	0.039593	31.6771	-0.109435	-2.923806	-0.013542	NaN
1165	1.000000	0.939200	7.37645e+06	-57339.1	1105.82	-29737	0.000000	0.000000	6.939113	-0.022834	NaN	0.000000	0.001694	0.001675	28.084	0.069816	0.002121	32.9133	-84.6864	-163.999	-0.031583	0.937923	-0.100517	-0.101795	-0.022834	32.9133	-0.099997	-1.826858	0.012499	NaN
1165	1.000000	0.947193	7.37645e+06	-57339.1	1105.82	-29737	0.000000	0.000000	6.947108	0.043466	NaN	0.000000	0.001658	0.001694	28.0829	0.071220	0.002042	34.8819	-149.768	-167.991	0.067807	0.945872	-0.092525	-0.093846	0.043466	34.8819	-0.093459	-1.300626	-0.033420	NaN
1165	1.000000	0.955204	7.37645e+06	-57339.1	1105.82	-29737	0.000000	0.000000	6.955117	-0.004370	NaN	0.000000	0.001637	0.001692	28.0824	0.134856	0.001894	71.207	-100.774	-167.722	-0.015234	0.953886	-0.084513	-0.085831	-0.004370	71.207	-0.084467	-0.797564	0.005479	NaN
1165	1.000000	0.963238	7.37645e+06	-57339.1	1105.82	-29737	0.000000	0.000000	6.963152	0.018287	NaN	0.000000	0.001647	0.001722	28.0825	0.002927	0.002023	1.446688	61.7002	-166.128	0.036213	0.961908	-0.076480	-0.077809	0.018287	1.446688	-0.085960	-0.866664	-0.021100	NaN
1165	1.000000	0.971225	7.37645e+06	-57339.1	1105.82	-29737	0.000000	0.000000	6.971140	0.030862	NaN	0.000000	0.001617	0.001665	28.0824	0.102541	0.002049	50.0407	-157.616	-165.021	0.048365	0.969900	-0.068492	-0.069817	0.030862	50.0407	-0.068955	-0.319735	-0.096525	NaN
1165	1.000000	0.979235	7.37645e+06	-57339.1	1105.82	-29737	0.000000	0.000000	6.979146	-0.047055	NaN	0.000000	0.001630	0.001708	28.0825	0.051477	0.002065	24.9266	104.122	-166.161	0.001346	0.977938	-0.060483	-0.061779	-0.047055	24.9266	-0.059067	-0.169296	0.277943	NaN
1165	1.000000	0.987223	7.37645e+06	-57339.1	1105.82	-29737	0.000000	0.000000	6.987138	0.058833	NaN	0.000000	0.001645	0.001722	28.0822	0.055766	0.001874	29.7595	-7.348832	-168.187	-0.007259	0.985922	-0.052495	-0.053796	0.058833	29.7595	-0.053978	-0.120100	-0.489866	NaN
1165	1.000000	0.995216	7.37645e+06	-57339.1	1105.82	-29737	0.000000	0.000000	6.995129	-0.008563	NaN	0.000000	0.001636	0.001665	28.0827	0.044938	0.001983	22.6619	150.304	-168.119	-2.411730E-5	0.993889	-0.044502	-0.045829	-0.008563	22.6619	-0.044218	-0.060825	0.140774	NaN
1165	1.000000	1.003236	7.37645e+06	-57339.1	1105.82	-29737	0.000000	0.000000	7.003150	0.017698	NaN	0.000000	0.001614	0.001675	28.0824	0.062848	0.001992	31.5518	108.381	-165.689	-0.005402	1.001896	-0.036481	-0.037822	0.017698	31.5518	-0.036902	-0.036469	-0.485284	NaN
1165	1.000000	1.011243	7.37645e+06	-57339.1	1105.82	-29737	0.000000	0.000000	7.011157	0.022332	NaN	0.000000	0.001634	0.001666	28.0825	0.087509	0.002115	41.3702	140.281	-163.994	-0.013225	1.009896	-0.028474	-0.029822	0.022332	41.3702	-0.028879	-0.021427	-1.042246	NaN
1165	1.000000	1.019245	7.37645e+06	-57339.1	1105.82	-29737	0.000000	0.000000	7.019160	0.033046	NaN	0.000000	0.001618	0.001695	28.0825	0.068584	0.001939	35.3731	-122.278	-165.338	-0.067239	1.017910	-0.020472	-0.021808	0.033046	35.3731	-0.021173	-0.013453	-2.456346	NaN
1165	1.000000	1.027270	7.37645e+06	-57339.1	1105.82	-29737	0.000000	0.000000	7.027188	0.114110	NaN	0.000000	0.001603	0.001630	28.0823	0.056112	0.002094	26.8024	-156.143	-164.793	0.107553	1.025923	-0.012447	-0.013794	0.114110	26.8024	-0.015640	-0.009662	-11.8096	NaN
1165	1.000000	1.035223	7.37645e+06	-57339.1	1105.82	-29737	0.000000	0.000000	7.035168	0.761805	NaN	0.000000	0.001630	0.001690	28.0829	1.125433	0.002064	545.211	7.531204	-162.754	0.091200	1.033923	-0.004495	-0.005794	0.761805	545.211	-0.005543	-0.003755	-202.88	NaN
1165	1.000000	1.043107	7.37645e+06	-57339.1	1105.82	-29737	0.000000	0.000000	7.043366	8.387114	NaN	0.000000	0.001642	0.001681	28.0821	8.131317	0.001653	4919.75	8.097925	-170.632	6.387129	1.041909	0.003390	0.002192	8.387114	4919.75	0.002111	0.001645	5098.6	110824
1165	2.000000	1.045783	7.37645e+06	-57339.1	1105.82	-29737	0.000000	0.000000	7.046114	10.153	NaN	0.000000	0.001581	0.001680	28.0824	10.55	0.001466	7195.27	8.792881	-176.758	10.3009	1.045532	0.006065	0.005814	10.153	7195.27	0.005007	0.004140	2452.47	102171
1165	2.000000	1.047712	7.37645e+06	-57339.1	1105.82	-29737	0.000000	0.000000	7.048199	13.9495	NaN	0.000000	0.001620	0.001696	28.0823	13.9604	0.001604	8704.93	8.818681	-177.05	13.4207	1.047410	0.007994	0.007692	13.9495	8704.93	0.006792	0.005829	2392.97	104167
1165	2.000000	1.049805	7.37645e+06	-57339.1	1105.82	-29737	0.000000	0.000000	7.050422	17.1127	NaN	0.000000	0.001645	0.001683	28.0822	16.0509	0.001643	9768.25	6.668509	-173.996	18.0497	1.049425	0.010087	0.009708	17.1127	9768.25	0.008773	0.007850	2179.96	100729
1165	2.000000	1.051751	7.37645e+06	-57339.1	1105.82	-29737	0.000000	0.000000	7.052444	18.9549	NaN	0.000000	0.001629	0.001636	28.0822	18.3053	0.001879	9744.42	5.525538	-174.017	19.0184	1.051477	0.012033	0.011760	18.9549	9744.42	0.010575	0.009827	1928.85	89808.7
1165	2.000000	1.053701	7.37645e+06	-57339.1	1105.82	-29737	0.000000	0.000000	7.054557	22.9219	NaN	0.000000	0.001604	0.001705	28.0827	20.5614	0.001777	11573.8	10.3538	179.219	22.4695	1.053424	0.013983	0.013706	22.9219	11573.8	0.012498	0.012092	1895.69	96162.6
1165	2.000000	1.055671	7.37645e+06	-57339.1	1105.82	-29737	0.000000	0.000000	7.056768	28.7771	NaN	0.000000	0.001632	0.001655	28.0838	22.1369	0.001653	13395.1	7.384424	-179.297	27.2119	1.055327	0.015954	0.015610	28.7771	13395.1	0.014342	0.014418	1995.88	101921
1165	2.000000	1.057622	7.37645e+06	-57339.1	1105.82	-29737	0.000000	0.000000	7.058870	32.4405	NaN	0.000000	0.001625	0.001630	28.0834	25.0583	0.001789	14008.6	3.421338	-175.744	28.8699	1.057337	0.017904	0.017620	32.4405	14008.6	0.016167	0.016874	1922.54	98528.2
1165	2.000000	1.059743	7.37645e+06	-57339.1	1105.82	-29737	0.000000	0.000000	7.061163	36.6217	NaN	0.000000	0.001619	0.001676	28.0835	27.629	0.001882	14684.3	6.747006	-179.399	35.8223	1.059382	0.020026	0.019664	36.6217	14684.3	0.018155	0.019726	1856.53	95523.3
1165	2.000000	1.061680	7.37645e+06	-57339.1	1105.82	-29737	0.000000	0.000000	7.063311	41.7486	NaN	0.000000	0.001627	0.001681	28.0835	28.799	0.001775	16222.2	6.370114	178.932	41.0813	1.061434	0.021963	0.021717	41.7486	16222.2	0.020033	0.022594	1847.81	98603
1165	2.000000	1.063718	7.37645e+06	-57339.1	1105.82	-29737	0.000000	0.000000	7.065540	46.4088	NaN	0.000000	0.001644	0.001650	28.0834	30.2924	0.001701	17813.4	1.471746	-176.699	46.9188	1.063411	0.024000	0.023693	46.4088	17813.4	0.022046	0.025860	1794.62	101206
1165	2.000000	1.065700	7.37645e+06	-57339.1	1105.82	-29737	0.000000	0.000000	7.067819	53.6156	NaN	0.000000	0.001612	0.001616	28.0837	32.2308	0.001632	19745.1	6.106907	177.576	54.2529	1.065424	0.025982	0.025706	53.6156	19745.1	0.023946	0.029126	1840.83	105705
1165	2.000000	1.067662	7.37645e+06	-57339.1	1105.82	-29737	0.000000	0.000000	7.069943	57.5438	NaN	0.000000	0.001620	0.001630	28.0836	35.4578	0.001761	20135	6.936875	177.162	56.3992	1.067376	0.027944	0.027658	57.5438	20135	0.025801	0.032489	1771.2	102061
1165	2.000000	1.069719	7.37645e+06	-57339.1	1105.82	-29737	0.000000	0.000000	7.072289	64.5728	NaN	0.000000	0.001612	0.001644	28.084	37.4423	0.001793	20882	5.497820	178.334	63.3588	1.069318	0.030001	0.029600	64.5728	20882	0.027682	0.036077	1789.88	100446
1165	2.000000	1.071695	7.37645e+06	-57339.1	1105.82	-29737	0.000000	0.000000	7.074369	67.0846	NaN	0.000000	0.001655	0.001666	28.0838	38.6578	0.001718	22507.9	2.014300	-179.22	66.4486	1.071408	0.031978	0.031690	67.0846	22507.9	0.029742	0.040211	1668.3	102550
1165	2.000000	1.073751	7.37645e+06	-57339.1	1105.82	-29737	0.000000	0.000000	7.076611	71.6251	NaN	0.000000	0.001647	0.001628	28.0835	42.3955	0.001859	22801.1	7.069747	175.847	75.7437	1.073434	0.034033	0.033716	71.6251	22801.1	0.031677	0.044292	1617.1	98984.1
1165	2.000000	1.075717	7.37645e+06	-57339.1	1105.82	-29737	0.000000	0.000000	7.079054	83.2269	NaN	0.000000	0.001612	0.001681	28.0839	42.8874	0.001816	23611	5.633959	177.769	83.9936	1.075285	0.035999	0.035567	83.2269	23611	0.033356	0.047986	1734.38	98475.7
1165	2.000000	1.077625	7.37645e+06	-57339.1	1105.82	-29737	0.000000	0.000000	7.081355	92.7681	NaN	0.000000	0.001684	0.001609	28.0837	44.9194	0.001826	24604.9	1.631208	-178.957	88.8815	1.077298	0.037908	0.037581	92.7681	24604.9	0.035080	0.051932	1786.32	98645
1165	2.000000	1.079691	7.37645e+06	-57339.1	1105.82	-29737	0.000000	0.000000	7.083667	98.7425	NaN	0.000000	0.001715	0.001646	28.0836	47.822	0.001782	26842.2	8.891816	173.126	98.5116	1.079340	0.039974	0.039622	98.7425	26842.2	0.037215	0.057029	1731.46	102694
1165	2.000000	1.081681	7.37645e+06	-57339.1	1105.82	-29737	0.000000	0.000000	7.085819	102.679	NaN	0.000000	0.001697	0.001632	28.0836	48.866	0.001701	28719.4	3.241054	176.888	105.075	1.081403	0.041963	0.041686	102.679	28719.4	0.039282	0.062185	1651.19	105222
1165	2.000000	1.083605	7.37645e+06	-57339.1	1105.82	-29737	0.000000	0.000000	7.088326	116.86	NaN	0.000000	0.001719	0.001618	28.0836	50.6467	0.001766	28682.2	2.078202	177.917	114.356	1.083399	0.043887	0.043681	116.86	28682.2	0.040831	0.066194	1765.41	101853
1165	2.000000	1.085697	7.37645e+06	-57339.1	1105.82	-29737	0.000000	0.000000	7.090632	122.042	NaN	0.000000	0.001700	0.001660	28.0841	51.7551	0.001722	30047.7	3.380111	176.914	122.65	1.085355	0.045980	0.045638	122.042	30047.7	0.042933	0.071829	1699.07	102432
1165	2.000000	1.087744	7.37645e+06	-57339.1	1105.82	-29737	0.000000	0.000000	7.093172	134.04	NaN	0.000000	0.001675	0.001704	28.0833	54.7346	0.001722	31784.4	7.955878	171.951	138.592	1.087281	0.048026	0.047563	134.04	31784.4	0.044864	0.077200	1736.27	104515
1165	2.000000	1.089730	7.37645e+06	-57339.1	1105.82	-29737	0.000000	0.000000	7.095589	144.518	NaN	0.000000	0.001696	0.001701	28.0826	56.315	0.001803	31240.5	5.046808	175.967	146.949	1.089376	0.050012	0.049658	144.518	31240.5	0.046542	0.082026	1761.85	99658.6
1165	2.000000	1.091666	7.37645e+06	-57339.1	1105.82	-29737	0.000000	0.000000	7.097940	154.599	NaN	0.000000	0.001650	0.001699	28.0826	58.551	0.001756	33335.9	8.113329	172.39	154.725	1.091240	0.051948	0.051522	154.599	33335.9	0.048470	0.087743	1761.96	102821
1165	2.000000	1.093647	7.37645e+06	-57339.1	1105.82	-29737	0.000000	0.000000	7.100253	162.657	NaN	0.000000	0.001641	0.001708	28.0823	61.5836	0.001822	33797.9	7.093094	172.76	162.12	1.093276	0.053930	0.053559	162.657	33797.9	0.050320	0.093405	1741.41	101036
1165	2.000000	1.095640	7.37645e+06	-57339.1	1105.82	-29737	0.000000	0.000000	7.102897	178.475	NaN	0.000000	0.001664	0.001673	28.0829	62.2225	0.001607	38724.3	4.657586	173.452	179.069	1.095258	0.055923	0.055540	178.475	38724.3	0.052466	0.100187	1781.41	111776
1165	2.000000	1.097566	7.37645e+06	-57339.1	1105.82	-29737	0.000000	0.000000	7.105107	185.399	NaN	0.000000	0.001599	0.001669	28.0823	66.2389	0.001802	36762	4.349834	174.308	181.678	1.097311	0.057848	0.057593	185.399	36762	0.054066	0.105394	1759.11	103458
1165	2.000000	1.099649	7.37645e+06	-57339.1	1105.82	-29737	0.000000	0.000000	7.107705	197.909	NaN	0.000000	0.001591	0.001634	28.0827	68.4924	0.001761	38889.2	4.516744	174.208	196.252	1.099258	0.059932	0.059540	197.909	38889.2	0.056115	0.112246	1763.17	106052
1165	2.000000	1.101527	7.37645e+06	-57339.1	1105.82	-29737	0.000000	0.000000	7.110036	208.918	NaN	0.000000	0.001596	0.001661	28.0824	70.1524	0.001800	38971.4	3.611682	174.23	202.156	1.101285	0.061810	0.061568	208.918	38971.4	0.057789	0.117999	1770.51	103652
1165	2.000000	1.103593	7.37645e+06	-57339.1	1105.82	-29737	0.000000	0.000000	7.112303	213.796	NaN	0.000000	0.001613	0.001673	28.0825	71.6557	0.001724	41567.6	2.154083	174.8	211.162	1.103426	0.063876	0.063708	213.796	41567.6	0.060018	0.125874	1698.49	107043
1165	2.000000	1.105581	7.37645e+06	-57339.1	1105.82	-29737	0.000000	0.000000	7.115083	233.06	NaN	0.000000	0.001581	0.001656	28.0828	73.799	0.001691	43638	9.223034	168.175	230.247	1.105238	0.065863	0.065521	233.06	43638	0.061857	0.132553	1758.24	109507
1165	2.000000	1.107580	7.37645e+06	-57339.1	1105.82	-29737	0.000000	0.000000	7.117793	250.33	NaN	0.000000	0.001590	0.001690	28.0826	75.9335	0.001820	41714.1	3.948678	173.322	249.281	1.107373	0.067862	0.067655	250.33	41714.1	0.063362	0.138138	1812.18	102542
1165	2.000000	1.109673	7.37645e+06	-57339.1	1105.82	-29737	0.000000	0.000000	7.120371	262.135	NaN	0.000000	0.001598	0.001646	28.0828	78.0752	0.001721	45353.8	6.300523	170.9	262.621	1.109218	0.069955	0.069500	262.135	45353.8	0.065620	0.146729	1786.53	108175
1165	2.000000	1.111555	7.37645e+06	-57339.1	1105.82	-29737	0.000000	0.000000	7.123012	280.56	NaN	0.000000	0.001598	0.001658	28.0826	79.2181	0.001721	46043.5	5.769492	170.92	276.161	1.111164	0.071837	0.071446	280.56	46043.5	0.067267	0.153150	1831.93	107494
1165	2.000000	1.113569	7.37645e+06	-57339.1	1105.82	-29737	0.000000	0.000000	7.125241	285.801	NaN	0.000000	0.001632	0.001681	28.0829	82.5074	0.001846	44695.8	3.154893	173.941	283.442	1.113399	0.073851	0.073682	285.801	44695.8	0.069055	0.160266	1783.29	102004
1165	2.000000	1.115519	7.37645e+06	-57339.1	1105.82	-29737	0.000000	0.000000	7.127891	302.823	NaN	0.000000	0.001561	0.001662	28.0827	83.7091	0.001802	46466.1	5.632719	171.112	297.345	1.115214	0.075801	0.075496	302.823	46466.1	0.070913	0.167823	1804.42	103630
1165	2.000000	1.117586	7.37645e+06	-57339.1	1105.82	-29737	0.000000	0.000000	7.130528	316.674	NaN	0.000000	0.001570	0.001653	28.0828	86.1596	0.001884	45725.2	3.262793	173.443	315.073	1.117263	0.077868	0.077545	316.674	45725.2	0.072674	0.175134	1808.18	99825.9
1165	2.000000	1.119526	7.37645e+06	-57339.1	1105.82	-29737	0.000000	0.000000	7.133273	336.241	NaN	0.000000	0.001574	0.001640	28.0827	86.6064	0.001746	49602.7	3.000667	172.934	329.615	1.119184	0.079808	0.079467	336.241	49602.7	0.074724	0.183834	1829.05	105698
1165	2.000000	1.121600	7.37645e+06	-57339.1	1105.82	-29737	0.000000	0.000000	7.135230	333.384	NaN	0.000000	0.001595	0.001663	28.0829	87.955	0.001652	53248.9	3.345599	171.688	331.881	1.121422	0.081882	0.081704	333.384	53248.9	0.077186	0.194543	1713.68	110300
1165	2.000000	1.123617	7.37645e+06	-57339.1	1105.82	-29737	0.000000	0.000000	7.138039	352.631	NaN	0.000000	0.001615	0.001650	28.0849	91.2144	0.001822	50075.9	4.245551	171.834	352.47	1.123384	0.083900	0.083666	352.631	50075.9	0.078618	0.200901	1755.24	102073
1165	2.000000	1.125629	7.37645e+06	-57339.1	1105.82	-29737	0.000000	0.000000	7.140941	374.247	NaN	0.000000	0.001542	0.001639	28.0841	92.3911	0.001677	55093.2	6.004034	169.032	375.304	1.125250	0.085912	0.085533	374.247	55093.2	0.080817	0.210852	1774.93	109618
1165	2.000000	1.127632	7.37645e+06	-57339.1	1105.82	-29737	0.000000	0.000000	7.143689	392.362	NaN	0.000000	0.001619	0.001637	28.0839	95.6411	0.001852	51645.6	7.038395	169.451	393.345	1.127221	0.087915	0.087503	392.362	51645.6	0.082217	0.217304	1805.58	101221
1165	2.000000	1.129500	7.37645e+06	-57339.1	1105.82	-29737	0.000000	0.000000	7.145844	399.357	NaN	0.000000	0.001610	0.001649	28.0842	96.0794	0.001720	55846.5	3.359915	172.049	391.858	1.129313	0.089782	0.089595	399.357	55846.5	0.084419	0.227637	1754.36	106942
1165	2.000000	1.131486	7.37645e+06	-57339.1	1105.82	-29737	0.000000	0.000000	7.148698	420.436	NaN	0.000000	0.001584	0.001670	28.0839	97.9153	0.001834	53402	4.684514	171.087	415.711	1.131247	0.091769	0.091529	420.436	53402	0.085864	0.234540	1792.6	100745
1165	2.000000	1.133538	7.37645e+06	-57339.1	1105.82	-29737	0.000000	0.000000	7.151177	430.824	NaN	0.000000	0.001601	0.001674	28.084	100.453	0.001703	58978.1	1.033416	173.625	427.309	1.133288	0.093820	0.093570	430.824	58978.1	0.088342	0.246600	1747.06	108509
1165	2.000000	1.135608	7.37645e+06	-57339.1	1105.82	-29737	0.000000	0.000000	7.154176	453.401	NaN	0.000000	0.001598	0.001674	28.0839	101.864	0.001745	58362.8	5.103051	170.294	454.46	1.135303	0.095890	0.095586	453.401	58362.8	0.090064	0.255147	1777.02	105564
1165	2.000000	1.137631	7.37645e+06	-57339.1	1105.82	-29737	0.000000	0.000000	7.156550	461.937	NaN	0.000000	0.001626	0.001660	28.0839	106.857	0.001876	56971.1	8.177939	166.867	465.851	1.137356	0.097914	0.097638	461.937	56971.1	0.091832	0.264069	1749.3	101291
1165	2.000000	1.139643	7.37645e+06	-57339.1	1105.82	-29737	0.000000	0.000000	7.159374	481.678	NaN	0.000000	0.001627	0.001662	28.084	107.891	0.001797	60051.8	8.840112	166.6	481.946	1.139225	0.099925	0.099508	481.678	60051.8	0.093909	0.274728	1753.29	104676
1165	2.000000	1.141536	7.37645e+06	-57339.1	1105.82	-29737	0.000000	0.000000	7.162176	503.742	NaN	0.000000	0.001597	0.001701	28.0837	109.649	0.001880	58336.4	7.785148	167.942	500.881	1.141110	0.101819	0.101392	503.742	58336.4	0.095342	0.282197	1785.07	100331
1165	2.000000	1.142583	7.37645e+06	-57339.1	1105.82	-29737	0.000000	0.000000	7.163022	498.869	NaN	0.000000	0.001614	0.001657	28.0838	109.692	0.001742	62980.3	4.231580	169.934	496.511	1.142410	0.102865	0.102692	498.869	62980.3	0.096924	0.290552	1716.97	106750