File: remote_trans/data/nanoindenter/0828-1/data/Data_2025-08-06,11h17m57s/2025-07-22_16-23-58_1_438.txt
2025-07-22, 16:23:58, 1
Index	Phase	Displacement	Time	Pos X	Pos Y	Pos Z	Rot A	Rot B	Piezo Z	Force A	Force B	Gripper	Voltage A	Voltage B	Temperature	Amplitude force	Amplitude pos	Stiffness	Phase shift	Phase excitation	Force A raw	Displacement raw	HMax	HMax raw	Real Force	Real Stiffness	Contact Depth	Area	Hardness	Reduced Mod.
[#]	[#]	[um]	[s]	[um]	[um]	[um]	[m°]	[m°]	[um]	[uN]	[uN]	[V]	[V]	[V]	[°C]	[uN]	[um]	[N/m]	[°]	[°]	[uN]	[um]	[um]	[um]	[uN]	[N/m]	[um]	[um^2]	[MPa]	[MPa]
438	1.000000	0.002646	7.36934e+06	-55189.1	1005.82	-29742.2	0.000000	0.000000	6.002815	-0.008752	NaN	0.000000	0.001684	0.001679	28.0817	0.084317	0.001043	80.8056	80.9815	-162.905	-0.075315	0.001394	-1.054440	-1.055692	-0.008752	80.8056	-1.054359	-1.221805E+14	7.163544E-17	NaN
438	1.000000	0.010604	7.36934e+06	-55189.1	1005.82	-29742.2	0.000000	0.000000	6.010771	-0.063627	NaN	0.000000	0.001684	0.001655	28.0815	0.074648	0.001071	69.67	140.63	-162.432	-0.071637	0.009274	-1.046482	-1.047812	-0.063627	69.67	-1.045797	-9.373638E+13	6.787818E-16	NaN
438	1.000000	0.018599	7.36934e+06	-55189.1	1005.82	-29742.2	0.000000	0.000000	6.018771	0.057475	NaN	0.000000	0.001688	0.001684	28.0815	0.093268	0.001747	53.3864	-49.0851	-163.648	0.059317	0.017317	-1.038487	-1.039769	0.057475	53.3864	-1.039294	-7.664388E+13	-7.498939E-16	NaN
438	1.000000	0.026597	7.36934e+06	-55189.1	1005.82	-29742.2	0.000000	0.000000	6.026765	-0.036733	NaN	0.000000	0.001625	0.001669	28.0817	0.042861	0.001719	24.9327	132.192	-163.299	-0.014927	0.025347	-1.030489	-1.031739	-0.036733	24.9327	-1.029384	-5.638884E+13	6.514189E-16	NaN
438	1.000000	0.034612	7.36934e+06	-55189.1	1005.82	-29742.2	0.000000	0.000000	6.034781	-0.028224	NaN	0.000000	0.001667	0.001685	28.0815	0.136626	0.001788	76.4262	60.2715	-165.821	0.046447	0.033306	-1.022474	-1.023780	-0.028224	76.4262	-1.022197	-4.513471E+13	6.253286E-16	NaN
438	1.000000	0.042572	7.36934e+06	-55189.1	1005.82	-29742.2	0.000000	0.000000	6.042740	-0.056251	NaN	0.000000	0.001666	0.001698	28.0822	0.099571	0.001975	50.4234	-178.467	-166.217	-0.108491	0.041287	-1.014514	-1.015799	-0.056251	50.4234	-1.013677	-3.466340E+13	1.622792E-15	NaN
438	1.000000	0.050615	7.36934e+06	-55189.1	1005.82	-29742.2	0.000000	0.000000	6.050784	-0.024594	NaN	0.000000	0.001671	0.001724	28.0816	0.115658	0.002051	56.3957	-83.2073	-163.222	0.011079	0.049327	-1.006471	-1.007759	-0.024594	56.3957	-1.006144	-2.744567E+13	8.960848E-16	NaN
438	1.000000	0.058557	7.36934e+06	-55189.1	1005.82	-29742.2	0.000000	0.000000	6.058724	-0.068712	NaN	0.000000	0.001694	0.001644	28.0816	0.037632	0.001951	19.291	-152.054	-163.156	-0.019554	0.057239	-0.998529	-0.999847	-0.068712	19.291	-0.995858	-1.995255E+13	3.443751E-15	NaN
438	1.000000	0.066598	7.36934e+06	-55189.1	1005.82	-29742.2	0.000000	0.000000	6.066766	-0.054833	NaN	0.000000	0.001679	0.001685	28.0816	0.042879	0.002210	19.4004	-48.2484	-162.345	-0.054541	0.065346	-0.990488	-0.991740	-0.054833	19.4004	-0.988368	-1.581732E+13	3.466673E-15	NaN
438	1.000000	0.074584	7.36934e+06	-55189.1	1005.82	-29742.2	0.000000	0.000000	6.074753	-0.019195	NaN	0.000000	0.001698	0.001647	28.0814	0.061066	0.002081	29.3492	4.408228	-163.072	0.015774	0.073285	-0.982502	-0.983801	-0.019195	29.3492	-0.982011	-1.298700E+13	1.478025E-15	NaN
438	1.000000	0.082575	7.36934e+06	-55189.1	1005.82	-29742.2	0.000000	0.000000	6.082741	-0.110217	NaN	0.000000	0.001691	0.001678	28.082	0.107621	0.002042	52.7032	8.532462	-164.688	-0.161946	0.081237	-0.974511	-0.975849	-0.110217	52.7032	-0.972942	-9.801941E+12	1.124444E-14	NaN
438	1.000000	0.090594	7.36934e+06	-55189.1	1005.82	-29742.2	0.000000	0.000000	6.090761	-0.063041	NaN	0.000000	0.001681	0.001668	28.0814	0.124274	0.002085	59.5966	-122.998	-164.868	-0.037846	0.089300	-0.966493	-0.967786	-0.063041	59.5966	-0.965699	-7.828817E+12	8.052477E-15	NaN
438	1.000000	0.098619	7.36934e+06	-55189.1	1005.82	-29742.2	0.000000	0.000000	6.098788	-0.006230	NaN	0.000000	0.001685	0.001673	28.0814	0.041546	0.002007	20.705	40.6562	-166.034	-0.011661	0.097249	-0.958467	-0.959837	-0.006230	20.705	-0.958241	-6.210963E+12	1.003076E-15	NaN
438	1.000000	0.106628	7.36934e+06	-55189.1	1005.82	-29742.2	0.000000	0.000000	6.106799	0.022202	NaN	0.000000	0.001678	0.001706	28.0808	0.018325	0.002045	8.959647	-17.1488	-164.573	-0.044908	0.105337	-0.950458	-0.951749	0.022202	8.959647	-0.952317	-5.167358E+12	-4.296553E-15	NaN
438	1.000000	0.114592	7.36934e+06	-55189.1	1005.82	-29742.2	0.000000	0.000000	6.114763	0.035381	NaN	0.000000	0.001672	0.001665	28.08	0.073424	0.001978	37.1225	-157.737	-164.055	0.003281	0.113251	-0.942494	-0.943835	0.035381	37.1225	-0.943209	-3.894247E+12	-9.085494E-15	NaN
438	1.000000	0.122625	7.36934e+06	-55189.1	1005.82	-29742.2	0.000000	0.000000	6.122793	-0.046166	NaN	0.000000	0.001654	0.001641	28.0802	0.087694	0.001891	46.3639	132.425	-166.752	-0.134414	0.121312	-0.934461	-0.935774	-0.046166	46.3639	-0.933714	-2.899517E+12	1.592208E-14	NaN
438	1.000000	0.130603	7.36934e+06	-55189.1	1005.82	-29742.2	0.000000	0.000000	6.130771	-0.057832	NaN	0.000000	0.001621	0.001647	28.0801	0.052033	0.001965	26.4831	83.791	-167.166	-0.063557	0.129327	-0.926483	-0.927759	-0.057832	26.4831	-0.924845	-2.200961E+12	2.627575E-14	NaN
438	1.000000	0.138605	7.36934e+06	-55189.1	1005.82	-29742.2	0.000000	0.000000	6.138775	0.024815	NaN	0.000000	0.001625	0.001659	28.0803	0.156707	0.002038	76.899	-137.509	-165.351	-0.006524	0.137313	-0.918481	-0.919773	0.024815	76.899	-0.918723	-1.819577E+12	-1.363778E-14	NaN
438	1.000000	0.146638	7.36934e+06	-55189.1	1005.82	-29742.2	0.000000	0.000000	6.146807	0.004486	NaN	0.000000	0.001650	0.001682	28.0804	0.092381	0.002060	44.856	148.606	-166.069	-0.012358	0.145336	-0.910448	-0.911751	0.004486	44.856	-0.910523	-1.410043E+12	-3.181297E-15	NaN
438	1.000000	0.154632	7.36934e+06	-55189.1	1005.82	-29742.2	0.000000	0.000000	6.154799	-0.060565	NaN	0.000000	0.001632	0.001685	28.0812	0.027416	0.002051	13.3681	126.106	-164.083	-0.083954	0.153290	-0.902454	-0.903796	-0.060565	13.3681	-0.899056	-9.869862E+11	6.136403E-14	NaN
438	1.000000	0.162652	7.36934e+06	-55189.1	1005.82	-29742.2	0.000000	0.000000	6.162823	0.032096	NaN	0.000000	0.001607	0.001695	28.0815	0.093253	0.001952	47.7836	-74.6986	-162.418	0.106746	0.161331	-0.894434	-0.895755	0.032096	47.7836	-0.894938	-8.682684E+11	-3.696597E-14	NaN
438	1.000000	0.170624	7.36934e+06	-55189.1	1005.82	-29742.2	0.000000	0.000000	6.170794	0.009838	NaN	0.000000	0.001634	0.001658	28.0816	0.063175	0.002005	31.5055	-72.6529	-163.001	-0.025583	0.169304	-0.886462	-0.887782	0.009838	31.5055	-0.886696	-6.718233E+11	-1.464316E-14	NaN
438	1.000000	0.178611	7.36934e+06	-55189.1	1005.82	-29742.2	0.000000	0.000000	6.178781	-0.009507	NaN	0.000000	0.001608	0.001678	28.0807	0.015120	0.001909	7.919057	172.246	-162.807	-0.060363	0.177298	-0.878475	-0.879788	-0.009507	7.919057	-0.877574	-5.057095E+11	1.879943E-14	NaN
438	1.000000	0.186664	7.36934e+06	-55189.1	1005.82	-29742.2	0.000000	0.000000	6.186833	-0.028493	NaN	0.000000	0.001644	0.001680	28.0805	0.056051	0.001951	28.7361	162.295	-163.098	-0.014312	0.185289	-0.870422	-0.871797	-0.028493	28.7361	-0.869678	-3.954501E+11	7.205262E-14	NaN
438	1.000000	0.194613	7.36934e+06	-55189.1	1005.82	-29742.2	0.000000	0.000000	6.194782	-0.008892	NaN	0.000000	0.001652	0.001678	28.0804	0.050724	0.002093	24.2341	-174.038	-166.672	-0.026139	0.193334	-0.862473	-0.863752	-0.008892	24.2341	-0.862198	-3.132343E+11	2.838807E-14	NaN
438	1.000000	0.202624	7.36934e+06	-55189.1	1005.82	-29742.2	0.000000	0.000000	6.202793	-0.001050	NaN	0.000000	0.001610	0.001669	28.0803	0.056597	0.002068	27.364	-149.184	-164.625	-0.010982	0.201334	-0.854462	-0.855752	-0.001050	27.364	-0.854433	-2.459044E+11	4.269598E-15	NaN
438	1.000000	0.210653	7.36934e+06	-55189.1	1005.82	-29742.2	0.000000	0.000000	6.210822	-0.035020	NaN	0.000000	0.001614	0.001681	28.0803	0.092907	0.001982	46.8677	71.4343	-163.672	0.052370	0.209333	-0.846433	-0.847753	-0.035020	46.8677	-0.845872	-1.882937E+11	1.859884E-13	NaN
438	1.000000	0.218652	7.36934e+06	-55189.1	1005.82	-29742.2	0.000000	0.000000	6.218820	-0.031296	NaN	0.000000	0.001583	0.001666	28.0804	0.106767	0.001968	54.2405	-115.084	-163.64	-0.004317	0.217296	-0.838434	-0.839790	-0.031296	54.2405	-0.838002	-1.473053E+11	2.124599E-13	NaN
438	1.000000	0.226650	7.36934e+06	-55189.1	1005.82	-29742.2	0.000000	0.000000	6.226818	-0.054240	NaN	0.000000	0.001663	0.001677	28.0804	0.004985	0.001892	2.634937	-16.9552	-169.069	0.008728	0.225421	-0.830436	-0.831665	-0.054240	2.634937	-0.814997	-7.183907E+10	7.550234E-13	NaN
438	1.000000	0.234673	7.36934e+06	-55189.1	1005.82	-29742.2	0.000000	0.000000	6.234840	-0.064309	NaN	0.000000	0.001660	0.001665	28.0807	0.092831	0.001961	47.3438	-177.977	-164.028	-0.038291	0.233367	-0.822413	-0.823719	-0.064309	47.3438	-0.821394	-8.772439E+10	7.330767E-13	NaN
438	1.000000	0.242688	7.36934e+06	-55189.1	1005.82	-29742.2	0.000000	0.000000	6.242855	-0.072292	NaN	0.000000	0.001633	0.001658	28.0809	0.130307	0.001900	68.5928	13.625	-163.765	-0.066876	0.241355	-0.814398	-0.815731	-0.072292	68.5928	-0.813607	-6.878687E+10	1.050960E-12	NaN
438	1.000000	0.250672	7.36934e+06	-55189.1	1005.82	-29742.2	0.000000	0.000000	6.250841	-0.017421	NaN	0.000000	0.001606	0.001657	28.0817	0.020557	0.001813	11.3364	90.5359	-168.296	-0.016158	0.249336	-0.806414	-0.807750	-0.017421	11.3364	-0.805261	-5.299909E+10	3.287047E-13	NaN
438	1.000000	0.258673	7.36934e+06	-55189.1	1005.82	-29742.2	0.000000	0.000000	6.258840	-0.064127	NaN	0.000000	0.001615	0.001679	28.0818	0.028388	0.001926	14.7422	-66.9801	-167.968	-0.106513	0.257422	-0.798413	-0.799664	-0.064127	14.7422	-0.795150	-3.863870E+10	1.659651E-12	NaN
438	1.000000	0.266688	7.36934e+06	-55189.1	1005.82	-29742.2	0.000000	0.000000	6.266855	-0.066305	NaN	0.000000	0.001612	0.001696	28.0816	0.026613	0.002072	12.8417	92.5303	-166.373	-0.149218	0.265354	-0.790398	-0.791732	-0.066305	12.8417	-0.786525	-2.950442E+10	2.247274E-12	NaN
438	1.000000	0.274688	7.36934e+06	-55189.1	1005.82	-29742.2	0.000000	0.000000	6.274858	0.012631	NaN	0.000000	0.001563	0.001666	28.0818	0.147905	0.001986	74.4675	-84.6996	-165.235	0.017463	0.273347	-0.782398	-0.783739	0.012631	74.4675	-0.782525	-2.603423E+10	-4.851640E-13	NaN
438	1.000000	0.282659	7.36934e+06	-55189.1	1005.82	-29742.2	0.000000	0.000000	6.282826	-0.068836	NaN	0.000000	0.001598	0.001657	28.0816	0.065055	0.002007	32.4068	154.166	-165.078	-0.038455	0.281376	-0.774427	-0.775710	-0.068836	32.4068	-0.772834	-1.922337E+10	3.580870E-12	NaN
438	1.000000	0.290663	7.36934e+06	-55189.1	1005.82	-29742.2	0.000000	0.000000	6.290833	-0.002751	NaN	0.000000	0.001563	0.001705	28.0816	0.082828	0.001936	42.7731	3.097807	-166.644	-0.037086	0.289422	-0.766423	-0.767664	-0.002751	42.7731	-0.766375	-1.570392E+10	1.751588E-13	NaN
438	1.000000	0.298692	7.36934e+06	-55189.1	1005.82	-29742.2	0.000000	0.000000	6.298857	-0.118259	NaN	0.000000	0.001606	0.001681	28.0816	0.062858	0.002036	30.8733	-111.551	-161.408	-0.083178	0.297355	-0.758394	-0.759731	-0.118259	30.8733	-0.755521	-1.117802E+10	1.057962E-11	NaN
438	1.000000	0.306701	7.36934e+06	-55189.1	1005.82	-29742.2	0.000000	0.000000	6.306869	-0.054212	NaN	0.000000	0.001585	0.001706	28.0815	0.141776	0.002053	69.0703	-55.4424	-162.243	-0.015346	0.305357	-0.750385	-0.751729	-0.054212	69.0703	-0.749796	-9.342052E+9	5.803017E-12	NaN
438	1.000000	0.314685	7.36934e+06	-55189.1	1005.82	-29742.2	0.000000	0.000000	6.314854	-0.006352	NaN	0.000000	0.001572	0.001735	28.0821	0.027145	0.002096	12.9481	166.988	-165.513	0.009024	0.313359	-0.742401	-0.743727	-0.006352	12.9481	-0.742033	-7.323956E+9	8.673410E-13	NaN
438	1.000000	0.322664	7.36934e+06	-55189.1	1005.82	-29742.2	0.000000	0.000000	6.322833	-0.002560	NaN	0.000000	0.001615	0.001630	28.0817	0.104118	0.001907	54.5923	-18.8587	-164.077	0.035964	0.321426	-0.734422	-0.735660	-0.002560	54.5923	-0.734387	-5.762283E+9	4.442932E-13	NaN
438	1.000000	0.330711	7.36934e+06	-55189.1	1005.82	-29742.2	0.000000	0.000000	6.330880	-0.020544	NaN	0.000000	0.001638	0.001641	28.0822	0.058739	0.001929	30.4486	126.364	-164.056	-0.011164	0.329369	-0.726375	-0.727717	-0.020544	30.4486	-0.725869	-4.410618E+9	4.657838E-12	NaN
438	1.000000	0.338709	7.36934e+06	-55189.1	1005.82	-29742.2	0.000000	0.000000	6.338877	-0.033746	NaN	0.000000	0.001629	0.001615	28.0818	0.049721	0.001937	25.6718	105.057	-160.976	-0.075919	0.337384	-0.718377	-0.719702	-0.033746	25.6718	-0.717391	-3.379798E+9	9.984612E-12	NaN
438	1.000000	0.346698	7.36934e+06	-55189.1	1005.82	-29742.2	0.000000	0.000000	6.346866	-0.043638	NaN	0.000000	0.001626	0.001660	28.0819	0.048705	0.001925	25.3033	-161.336	-166.052	0.009337	0.345413	-0.710388	-0.711673	-0.043638	25.3033	-0.709095	-2.604308E+9	1.675614E-11	NaN
438	1.000000	0.354693	7.36934e+06	-55189.1	1005.82	-29742.2	0.000000	0.000000	6.354860	-0.066402	NaN	0.000000	0.001674	0.001694	28.0819	0.034893	0.001985	17.5766	80.2758	-164.719	-0.020993	0.353408	-0.702393	-0.703678	-0.066402	17.5766	-0.699560	-1.929847E+9	3.440781E-11	NaN
438	1.000000	0.362714	7.36934e+06	-55189.1	1005.82	-29742.2	0.000000	0.000000	6.362884	0.001946	NaN	0.000000	0.001675	0.001627	28.0818	0.015590	0.001980	7.872285	91.0682	-163.005	0.028566	0.361418	-0.694372	-0.695668	0.001946	7.872285	-0.694557	-1.648876E+9	-1.179947E-12	NaN
438	1.000000	0.370712	7.36934e+06	-55189.1	1005.82	-29742.2	0.000000	0.000000	6.370880	-0.030433	NaN	0.000000	0.001679	0.001654	28.0821	0.015930	0.002076	7.671833	-25.7357	-165.973	-0.081182	0.369425	-0.686374	-0.687661	-0.030433	7.671833	-0.683399	-1.160607E+9	2.622177E-11	NaN
438	1.000000	0.378707	7.36934e+06	-55189.1	1005.82	-29742.2	0.000000	0.000000	6.378878	0.044461	NaN	0.000000	0.001663	0.001655	28.0814	0.047536	0.002083	22.8247	26.1251	-162.898	0.020681	0.377380	-0.678379	-0.679706	0.044461	22.8247	-0.679840	-1.037569E+9	-4.285075E-11	NaN
438	1.000000	0.386705	7.36934e+06	-55189.1	1005.82	-29742.2	0.000000	0.000000	6.386875	0.018920	NaN	0.000000	0.001654	0.001651	28.0805	0.056246	0.002000	28.1224	-143.835	-164.94	0.010059	0.385427	-0.670381	-0.671660	0.018920	28.1224	-0.670886	-7.825547E+8	-2.417732E-11	NaN
438	1.000000	0.394719	7.36934e+06	-55189.1	1005.82	-29742.2	0.000000	0.000000	6.394886	-0.060627	NaN	0.000000	0.001592	0.001674	28.0804	0.018097	0.002047	8.839591	13.6722	-166.673	-0.029822	0.393371	-0.662367	-0.663715	-0.060627	8.839591	-0.657224	-5.086665E+8	1.191881E-10	NaN
438	1.000000	0.402737	7.36934e+06	-55189.1	1005.82	-29742.2	0.000000	0.000000	6.402905	-0.038921	NaN	0.000000	0.001616	0.001665	28.0802	0.073908	0.001929	38.3123	-148.115	-160.933	-0.054276	0.401368	-0.654349	-0.655718	-0.038921	38.3123	-0.653587	-4.535248E+8	8.581816E-11	NaN
438	1.000000	0.410764	7.36934e+06	-55189.1	1005.82	-29742.2	0.000000	0.000000	6.410931	-0.058898	NaN	0.000000	0.001629	0.001638	28.0804	0.039361	0.001892	20.8007	-156.958	-166.11	-0.001912	0.409465	-0.646322	-0.647621	-0.058898	20.8007	-0.644199	-3.371987E+8	1.746699E-10	NaN
438	1.000000	0.418759	7.36934e+06	-55189.1	1005.82	-29742.2	0.000000	0.000000	6.418926	-0.057748	NaN	0.000000	0.001605	0.001629	28.0801	0.087636	0.002014	43.5049	52.8435	-166.332	-0.093064	0.417413	-0.638327	-0.639673	-0.057748	43.5049	-0.637332	-2.714406E+8	2.127466E-10	NaN
438	1.000000	0.426739	7.36934e+06	-55189.1	1005.82	-29742.2	0.000000	0.000000	6.426908	-0.036132	NaN	0.000000	0.001587	0.001667	28.0802	0.091632	0.002031	45.1141	-156.581	-167.061	-0.047977	0.425391	-0.630347	-0.631695	-0.036132	45.1141	-0.629746	-2.135673E+8	1.691831E-10	NaN
438	1.000000	0.434740	7.36934e+06	-55189.1	1005.82	-29742.2	0.000000	0.000000	6.434911	0.029241	NaN	0.000000	0.001610	0.001665	28.0801	0.050413	0.001970	25.5856	151.343	-165.582	0.068882	0.433422	-0.622346	-0.623664	0.029241	25.5856	-0.623203	-1.736405E+8	-1.683973E-10	NaN
438	1.000000	0.442779	7.36934e+06	-55189.1	1005.82	-29742.2	0.000000	0.000000	6.442946	-0.063070	NaN	0.000000	0.001589	0.001666	28.0802	0.032488	0.002006	16.1932	129.555	-166.582	0.006737	0.441467	-0.614307	-0.615619	-0.063070	16.1932	-0.611386	-1.194488E+8	5.280057E-10	NaN
438	1.000000	0.450773	7.36934e+06	-55189.1	1005.82	-29742.2	0.000000	0.000000	6.450940	-0.072318	NaN	0.000000	0.001575	0.001709	28.0805	0.029565	0.001999	14.7894	-134.733	-162.564	-0.112333	0.449453	-0.606313	-0.607633	-0.072318	14.7894	-0.602645	-9.054965E+7	7.986546E-10	NaN
438	1.000000	0.458759	7.36934e+06	-55189.1	1005.82	-29742.2	0.000000	0.000000	6.458931	0.072650	NaN	0.000000	0.001598	0.001652	28.0802	0.111049	0.001812	61.2875	131.894	-161.252	0.012625	0.457447	-0.598328	-0.599639	0.072650	61.2875	-0.599217	-8.122135E+7	-8.944732E-10	NaN
438	1.000000	0.466781	7.36934e+06	-55189.1	1005.82	-29742.2	0.000000	0.000000	6.466951	0.012212	NaN	0.000000	0.001641	0.001666	28.0805	0.033026	0.001979	16.6901	95.0876	-165.441	-0.016153	0.465464	-0.590305	-0.591622	0.012212	16.6901	-0.590854	-6.229355E+7	-1.960432E-10	NaN
438	1.000000	0.474744	7.36934e+06	-55189.1	1005.82	-29742.2	0.000000	0.000000	6.474908	-0.120674	NaN	0.000000	0.001594	0.001700	28.0803	0.086475	0.002118	40.8344	162.693	-164.598	-0.089079	0.473465	-0.582342	-0.583621	-0.120674	40.8344	-0.580126	-4.430611E+7	2.723639E-9	NaN
438	1.000000	0.482760	7.36934e+06	-55189.1	1005.82	-29742.2	0.000000	0.000000	6.482930	-0.001549	NaN	0.000000	0.001592	0.001678	28.0805	0.063144	0.001943	32.4937	106.142	-165.174	-0.000685	0.481509	-0.574326	-0.575577	-0.001549	32.4937	-0.574290	-3.680359E+7	4.209428E-11	NaN
438	1.000000	0.490767	7.36934e+06	-55189.1	1005.82	-29742.2	0.000000	0.000000	6.490934	-0.049425	NaN	0.000000	0.001622	0.001708	28.0804	0.130505	0.001923	67.862	175.947	-165.359	-0.016339	0.489443	-0.566319	-0.567643	-0.049425	67.862	-0.565773	-2.806823E+7	1.760900E-9	NaN
438	1.000000	0.498765	7.36934e+06	-55189.1	1005.82	-29742.2	0.000000	0.000000	6.498932	-0.069444	NaN	0.000000	0.001623	0.001680	28.0803	0.115685	0.002025	57.1285	-78.5117	-165.924	-0.022478	0.497464	-0.558321	-0.559622	-0.069444	57.1285	-0.557409	-2.150440E+7	3.229298E-9	NaN
438	1.000000	0.506775	7.36934e+06	-55189.1	1005.82	-29742.2	0.000000	0.000000	6.506944	-0.002501	NaN	0.000000	0.001621	0.001665	28.0804	0.013533	0.002006	6.747378	152.976	-166.63	0.001637	0.505506	-0.550311	-0.551580	-0.002501	6.747378	-0.550033	-1.699874E+7	1.471014E-10	NaN
438	1.000000	0.514780	7.36935e+06	-55189.1	1005.82	-29742.2	0.000000	0.000000	6.514946	-0.075527	NaN	0.000000	0.001587	0.001681	28.0805	0.116570	0.002108	55.3037	-89.9304	-166.34	0.048982	0.513472	-0.542306	-0.543614	-0.075527	55.3037	-0.541282	-1.285687E+7	5.874432E-9	NaN
438	1.000000	0.522773	7.36935e+06	-55189.1	1005.82	-29742.2	0.000000	0.000000	6.522942	0.005156	NaN	0.000000	0.001594	0.001730	28.0819	0.045472	0.002066	22.0149	108.555	-160.545	0.000819	0.521484	-0.534313	-0.535602	0.005156	22.0149	-0.534489	-1.034903E+7	-4.982325E-10	NaN
438	1.000000	0.530799	7.36935e+06	-55189.1	1005.82	-29742.2	0.000000	0.000000	6.530966	-0.068394	NaN	0.000000	0.001576	0.001707	28.0815	0.059120	0.001913	30.9113	172.118	-164.518	0.042871	0.529527	-0.526287	-0.527559	-0.068394	30.9113	-0.524627	-7.54968e+06	9.059232E-9	NaN
438	1.000000	0.538766	7.36935e+06	-55189.1	1005.82	-29742.2	0.000000	0.000000	6.538932	-0.085848	NaN	0.000000	0.001594	0.001724	28.0814	0.052472	0.001994	26.3191	142.925	-163.785	-0.056647	0.537509	-0.518320	-0.519577	-0.085848	26.3191	-0.515873	-5.7041e+06	1.505020E-8	NaN
438	1.000000	0.546766	7.36935e+06	-55189.1	1005.82	-29742.2	0.000000	0.000000	6.546934	-0.046019	NaN	0.000000	0.001623	0.001706	28.0816	0.058306	0.002079	28.0516	123.017	-167.611	-0.076961	0.545505	-0.510320	-0.511581	-0.046019	28.0516	-0.509090	-4.58917e+06	1.002767E-8	NaN
438	1.000000	0.554770	7.36935e+06	-55189.1	1005.82	-29742.2	0.000000	0.000000	6.554940	-0.002535	NaN	0.000000	0.001597	0.001711	28.0814	0.084356	0.001998	42.2187	45.0688	-166.13	0.027077	0.553489	-0.502316	-0.503597	-0.002535	42.2187	-0.502271	-3.68717e+06	6.876036E-10	NaN
438	1.000000	0.562785	7.36935e+06	-55189.1	1005.82	-29742.2	0.000000	0.000000	6.562954	-0.009460	NaN	0.000000	0.001613	0.001728	28.0815	0.041805	0.002008	20.8158	80.8881	-164.872	0.013045	0.561481	-0.494301	-0.495605	-0.009460	20.8158	-0.493960	-2.82304e+06	3.351113E-9	NaN
438	1.000000	0.570797	7.36935e+06	-55189.1	1005.82	-29742.2	0.000000	0.000000	6.570966	-0.021549	NaN	0.000000	0.001646	0.001711	28.0814	0.051033	0.002013	25.3542	65.1957	-164.315	0.023096	0.569525	-0.486289	-0.487561	-0.021549	25.3542	-0.485651	-2.16072e+06	9.972858E-9	NaN
438	1.000000	0.578790	7.36935e+06	-55189.1	1005.82	-29742.2	0.000000	0.000000	6.578956	-0.075347	NaN	0.000000	0.001649	0.001674	28.0821	0.143923	0.002158	66.6903	-126.364	-165.107	-0.029345	0.577504	-0.478296	-0.479582	-0.075347	66.6903	-0.477449	-1.65885e+06	4.542118E-8	NaN
438	1.000000	0.586801	7.36935e+06	-55189.1	1005.82	-29742.2	0.000000	0.000000	6.586969	-0.051551	NaN	0.000000	0.001634	0.001690	28.0818	0.064540	0.002050	31.4764	138.222	-162.998	-0.047907	0.585496	-0.470285	-0.471590	-0.051551	31.4764	-0.469056	-1.26523e+06	4.074399E-8	NaN
438	1.000000	0.594794	7.36935e+06	-55189.1	1005.82	-29742.2	0.000000	0.000000	6.594962	-0.038858	NaN	0.000000	0.001626	0.001699	28.0825	0.062302	0.001956	31.8573	31.6212	-165.061	0.011684	0.593439	-0.462292	-0.463647	-0.038858	31.8573	-0.461377	-987107	3.936503E-8	NaN
438	1.000000	0.602816	7.36935e+06	-55189.1	1005.82	-29742.2	0.000000	0.000000	6.602986	-0.000522	NaN	0.000000	0.001635	0.001679	28.0816	0.066383	0.001982	33.4899	2.747372	-163.457	-0.019297	0.601544	-0.454270	-0.455542	-0.000522	33.4899	-0.454258	-783932	6.653784E-10	NaN
438	1.000000	0.610822	7.36935e+06	-55189.1	1005.82	-29742.2	0.000000	0.000000	6.610990	-0.026504	NaN	0.000000	0.001632	0.001707	28.0812	0.094941	0.001983	47.8786	155.661	-166.113	-0.027222	0.609513	-0.446264	-0.447573	-0.026504	47.8786	-0.445849	-596846	4.440639E-8	NaN
438	1.000000	0.618835	7.36935e+06	-55189.1	1005.82	-29742.2	0.000000	0.000000	6.619003	-0.048439	NaN	0.000000	0.001594	0.001694	28.0815	0.042394	0.001982	21.3907	-176.323	-167.873	-0.105156	0.617484	-0.438251	-0.439602	-0.048439	21.3907	-0.436552	-441250	1.097780E-7	NaN
438	1.000000	0.626809	7.36935e+06	-55189.1	1005.82	-29742.2	0.000000	0.000000	6.626979	0.015450	NaN	0.000000	0.001591	0.001696	28.0814	0.081901	0.002038	40.1808	-72.6489	-164.838	0.003486	0.625481	-0.430277	-0.431605	0.015450	40.1808	-0.430565	-363127	-4.254605E-8	NaN
438	1.000000	0.634851	7.36935e+06	-55189.1	1005.82	-29742.2	0.000000	0.000000	6.635020	-0.009010	NaN	0.000000	0.001567	0.001709	28.0817	0.094391	0.002003	47.1309	-104.985	-163.198	0.029124	0.633543	-0.422235	-0.423543	-0.009010	47.1309	-0.422092	-275468	3.270933E-8	NaN
438	1.000000	0.642828	7.36935e+06	-55189.1	1005.82	-29742.2	0.000000	0.000000	6.642996	-0.055895	NaN	0.000000	0.001636	0.001652	28.0815	0.034675	0.002056	16.8616	7.508272	-166.09	-0.067830	0.641579	-0.414258	-0.415507	-0.055895	16.8616	-0.411771	-196601	2.843054E-7	NaN
438	1.000000	0.650879	7.36935e+06	-55189.1	1005.82	-29742.2	0.000000	0.000000	6.651046	-0.048155	NaN	0.000000	0.001603	0.001698	28.0813	0.096102	0.002075	46.3104	118.664	-166.372	-0.048869	0.649535	-0.406207	-0.407551	-0.048155	46.3104	-0.405427	-159711	3.015133E-7	NaN
438	1.000000	0.658852	7.36935e+06	-55189.1	1005.82	-29742.2	0.000000	0.000000	6.659020	-0.041644	NaN	0.000000	0.001588	0.001729	28.0802	0.057723	0.002124	27.171	-14.6561	-162.601	-0.072108	0.657528	-0.398234	-0.399558	-0.041644	27.171	-0.397084	-121449	3.428947E-7	NaN
438	1.000000	0.666835	7.36935e+06	-55189.1	1005.82	-29742.2	0.000000	0.000000	6.667002	-0.059365	NaN	0.000000	0.001592	0.001691	28.0801	0.062876	0.001965	31.9994	-16.1002	-162.049	-0.052200	0.665521	-0.390251	-0.391565	-0.059365	31.9994	-0.388860	-92652	6.407258E-7	NaN
438	1.000000	0.674843	7.36935e+06	-55189.1	1005.82	-29742.2	0.000000	0.000000	6.675011	-0.038928	NaN	0.000000	0.001597	0.001699	28.0802	0.105039	0.001856	56.5904	149.013	-165.725	-0.141662	0.673546	-0.382243	-0.383540	-0.038928	56.5904	-0.381727	-73225.6	5.316160E-7	NaN
438	1.000000	0.682852	7.36935e+06	-55189.1	1005.82	-29742.2	0.000000	0.000000	6.683020	-0.034382	NaN	0.000000	0.001614	0.001700	28.0799	0.106714	0.001977	53.9669	84.2784	-164.353	-0.036692	0.681474	-0.374234	-0.375612	-0.034382	53.9669	-0.373756	-56258.3	6.111392E-7	NaN
438	1.000000	0.690829	7.36935e+06	-55189.1	1005.82	-29742.2	0.000000	0.000000	6.690998	-0.031091	NaN	0.000000	0.001606	0.001711	28.08	0.098857	0.001918	51.541	-36.0781	-167.084	-0.006527	0.689555	-0.366257	-0.367531	-0.031091	51.541	-0.365804	-43217.1	7.194220E-7	NaN
438	1.000000	0.698854	7.36935e+06	-55189.1	1005.82	-29742.2	0.000000	0.000000	6.699021	-0.083154	NaN	0.000000	0.001598	0.001716	28.0807	0.046860	0.002026	23.1267	26.5779	-167.757	-0.029105	0.697547	-0.358232	-0.359539	-0.083154	23.1267	-0.355535	-30707.6	2.707923E-6	NaN
438	1.000000	0.706888	7.36935e+06	-55189.1	1005.82	-29742.2	0.000000	0.000000	6.707058	0.008123	NaN	0.000000	0.001603	0.001707	28.0801	0.081069	0.001990	40.739	83.5334	-165.701	0.048540	0.705511	-0.350198	-0.351575	0.008123	40.739	-0.350347	-25825.2	-3.145235E-7	NaN
438	1.000000	0.714863	7.36935e+06	-55189.1	1005.82	-29742.2	0.000000	0.000000	6.715033	-0.000692	NaN	0.000000	0.001612	0.001699	28.0802	0.092567	0.002016	45.9048	-139.459	-162.493	-0.039823	0.713538	-0.342223	-0.343548	-0.000692	45.9048	-0.342211	-19668.5	3.520035E-8	NaN
438	1.000000	0.722877	7.36935e+06	-55189.1	1005.82	-29742.2	0.000000	0.000000	6.723046	-0.029619	NaN	0.000000	0.001598	0.001698	28.0803	0.062496	0.001956	31.9442	-22.058	-169.115	-0.067619	0.721479	-0.334209	-0.335607	-0.029619	31.9442	-0.333513	-14684.6	2.017018E-6	NaN
438	1.000000	0.730824	7.36935e+06	-55189.1	1005.82	-29742.2	0.000000	0.000000	6.730993	-0.016204	NaN	0.000000	0.001617	0.001715	28.0805	0.065767	0.002014	32.6616	-26.4778	-164.238	-0.106285	0.729515	-0.326262	-0.327571	-0.016204	32.6616	-0.325890	-11355.5	1.426964E-6	NaN
438	1.000000	0.738856	7.36935e+06	-55189.1	1005.82	-29742.2	0.000000	0.000000	6.739025	-0.035746	NaN	0.000000	0.001599	0.001689	28.0798	0.043811	0.001941	22.5758	91.5116	-162.705	-0.086153	0.737508	-0.318230	-0.319578	-0.035746	22.5758	-0.317042	-8415.24	4.247786E-6	NaN
438	1.000000	0.746894	7.36935e+06	-55189.1	1005.82	-29742.2	0.000000	0.000000	6.747065	0.015067	NaN	0.000000	0.001595	0.001724	28.0801	0.059087	0.002060	28.6842	165.911	-166.897	-0.010874	0.745563	-0.310192	-0.311523	0.015067	28.6842	-0.310586	-6756.53	-2.230063E-6	NaN
438	1.000000	0.754868	7.36935e+06	-55189.1	1005.82	-29742.2	0.000000	0.000000	6.755037	-0.012209	NaN	0.000000	0.001550	0.001689	28.0802	0.010389	0.002072	5.013121	149.021	-164.662	-0.012178	0.753618	-0.302218	-0.303468	-0.012209	5.013121	-0.300391	-4769.35	2.559960E-6	NaN
438	1.000000	0.762877	7.36935e+06	-55189.1	1005.82	-29742.2	0.000000	0.000000	6.763043	-0.092737	NaN	0.000000	0.001595	0.001667	28.08	0.077828	0.001954	39.8213	-56.0225	-165.991	-0.009416	0.761577	-0.294209	-0.295509	-0.092737	39.8213	-0.292462	-3632.16	2.553232E-5	NaN
438	1.000000	0.770878	7.36935e+06	-55189.1	1005.82	-29742.2	0.000000	0.000000	6.771045	-0.066414	NaN	0.000000	0.001578	0.001734	28.0799	0.046250	0.001968	23.4978	155.889	-165.412	-0.022565	0.769595	-0.286208	-0.287491	-0.066414	23.4978	-0.284088	-2719.93	2.441736E-5	NaN
438	1.000000	0.778861	7.36935e+06	-55189.1	1005.82	-29742.2	0.000000	0.000000	6.779031	0.014580	NaN	0.000000	0.001598	0.001680	28.0801	0.040638	0.002126	19.1127	-23.4876	-165.886	-0.016539	0.777580	-0.278225	-0.279506	0.014580	19.1127	-0.278797	-2263.7	-6.440835E-6	NaN
438	1.000000	0.786861	7.36935e+06	-55189.1	1005.82	-29742.2	0.000000	0.000000	6.787029	-0.027870	NaN	0.000000	0.001587	0.001682	28.0799	0.023884	0.001846	12.9367	-133.262	-167.884	-0.031656	0.785571	-0.270225	-0.271515	-0.027870	12.9367	-0.268609	-1586.34	1.756905E-5	NaN
438	1.000000	0.794895	7.36935e+06	-55189.1	1005.82	-29742.2	0.000000	0.000000	6.795061	-0.084756	NaN	0.000000	0.001601	0.001682	28.0813	0.083049	0.001953	42.5199	-82.8861	-161.704	-0.010447	0.793578	-0.262191	-0.263508	-0.084756	42.5199	-0.260696	-1201.12	7.056441E-5	NaN
438	1.000000	0.802882	7.36935e+06	-55189.1	1005.82	-29742.2	0.000000	0.000000	6.803051	-0.021315	NaN	0.000000	0.001587	0.001659	28.0817	0.069185	0.001960	35.3041	-18.1249	-164.27	-0.094429	0.801597	-0.254204	-0.255489	-0.021315	35.3041	-0.253751	-939.472	2.268877E-5	NaN
438	1.000000	0.810908	7.36935e+06	-55189.1	1005.82	-29742.2	0.000000	0.000000	6.811076	-0.045695	NaN	0.000000	0.001597	0.001658	28.0813	0.041108	0.002012	20.4277	82.9795	-163.816	0.005871	0.809622	-0.246178	-0.247464	-0.045695	20.4277	-0.244500	-675.584	6.763727E-5	NaN
438	1.000000	0.818882	7.36935e+06	-55189.1	1005.82	-29742.2	0.000000	0.000000	6.819051	-0.018872	NaN	0.000000	0.001609	0.001685	28.0814	0.025659	0.001924	13.3352	-43.8076	-165.457	0.032843	0.817541	-0.238204	-0.239545	-0.018872	13.3352	-0.237143	-518.631	3.638776E-5	NaN
438	1.000000	0.826885	7.36935e+06	-55189.1	1005.82	-29742.2	0.000000	0.000000	6.827054	-0.016669	NaN	0.000000	0.001572	0.001669	28.0812	0.059186	0.002050	28.8707	94.097	-163.878	-0.004180	0.825591	-0.230201	-0.231495	-0.016669	28.8707	-0.229768	-397.063	4.198002E-5	NaN
438	1.000000	0.834928	7.36935e+06	-55189.1	1005.82	-29742.2	0.000000	0.000000	6.835095	-0.060003	NaN	0.000000	0.001603	0.001728	28.0812	0.071339	0.002033	35.0825	-35.1539	-168.375	-0.068123	0.833545	-0.222158	-0.223541	-0.060003	35.0825	-0.220876	-286.855	0.000209	NaN
438	1.000000	0.842936	7.36935e+06	-55189.1	1005.82	-29742.2	0.000000	0.000000	6.843104	-0.041476	NaN	0.000000	0.001544	0.001694	28.0811	0.088740	0.002101	42.247	53.8844	-165.631	-0.055684	0.841598	-0.214150	-0.215488	-0.041476	42.247	-0.213414	-217.757	0.000190	NaN
438	1.000000	0.850922	7.36935e+06	-55189.1	1005.82	-29742.2	0.000000	0.000000	6.851091	-0.034626	NaN	0.000000	0.001574	0.001753	28.0815	0.027463	0.002065	13.2989	52.5008	-165.528	-0.046275	0.849632	-0.206164	-0.207454	-0.034626	13.2989	-0.204211	-154.412	0.000224	NaN
438	1.000000	0.858938	7.36935e+06	-55189.1	1005.82	-29742.2	0.000000	0.000000	6.859107	-0.024177	NaN	0.000000	0.001595	0.001694	28.0812	0.039229	0.001860	21.0868	156.059	-165.615	0.048504	0.857594	-0.198148	-0.199492	-0.024177	21.0868	-0.197288	-118.861	0.000203	NaN
438	1.000000	0.866924	7.36935e+06	-55189.1	1005.82	-29742.2	0.000000	0.000000	6.867092	-0.031245	NaN	0.000000	0.001582	0.001695	28.0819	0.063472	0.001956	32.4489	-78.8514	-166.731	-0.006485	0.865629	-0.190162	-0.191457	-0.031245	32.4489	-0.189440	-88.0381	0.000355	NaN
438	1.000000	0.874956	7.36935e+06	-55189.1	1005.82	-29742.2	0.000000	0.000000	6.875123	-0.063715	NaN	0.000000	0.001620	0.001682	28.0813	0.023499	0.002037	11.5368	-11.5073	-162.732	-0.062405	0.873603	-0.182130	-0.183483	-0.063715	11.5368	-0.177988	-56.3867	0.001130	NaN
438	1.000000	0.882911	7.36935e+06	-55189.1	1005.82	-29742.2	0.000000	0.000000	6.883079	-0.052260	NaN	0.000000	0.001612	0.001664	28.0815	0.055934	0.002035	27.4919	84.4795	-169.33	-0.036773	0.881638	-0.174175	-0.175448	-0.052260	27.4919	-0.172749	-45.8368	0.001140	NaN
438	1.000000	0.890922	7.36935e+06	-55189.1	1005.82	-29742.2	0.000000	0.000000	6.891089	-0.068752	NaN	0.000000	0.001613	0.001681	28.0815	0.116387	0.001955	59.5376	-139.884	-163.613	-0.065504	0.889602	-0.166164	-0.167484	-0.068752	59.5376	-0.165298	-34.0045	0.002022	NaN
438	1.000000	0.898958	7.36935e+06	-55189.1	1005.82	-29742.2	0.000000	0.000000	6.899127	-0.026697	NaN	0.000000	0.001589	0.001677	28.0811	0.068185	0.002032	33.5618	-107.328	-164.493	-0.046430	0.897633	-0.158128	-0.159453	-0.026697	33.5618	-0.157531	-24.7733	0.001078	NaN
438	1.000000	0.906954	7.36935e+06	-55189.1	1005.82	-29742.2	0.000000	0.000000	6.907125	0.038943	NaN	0.000000	0.001595	0.001704	28.0815	0.041225	0.002005	20.5559	4.897920	-166.667	-0.033161	0.905581	-0.150132	-0.151505	0.038943	20.5559	-0.151553	-19.3316	-0.002014	NaN
438	1.000000	0.914963	7.36935e+06	-55189.1	1005.82	-29742.2	0.000000	0.000000	6.915134	0.030081	NaN	0.000000	0.001603	0.001707	28.0813	0.049927	0.001980	25.2209	156.048	-169.4	-0.004809	0.913647	-0.142123	-0.143439	0.030081	25.2209	-0.143017	-13.4705	-0.002233	NaN
438	1.000000	0.922958	7.36935e+06	-55189.1	1005.82	-29742.2	0.000000	0.000000	6.923125	-0.063803	NaN	0.000000	0.001596	0.001668	28.0815	0.133341	0.002045	65.1922	-26.0325	-166.549	-0.106106	0.921665	-0.134128	-0.135421	-0.063803	65.1922	-0.133394	-8.862272	0.007199	NaN
438	1.000000	0.930951	7.36935e+06	-55189.1	1005.82	-29742.2	0.000000	0.000000	6.931118	-0.062822	NaN	0.000000	0.001607	0.001647	28.0801	0.075655	0.001896	39.8919	-119.086	-163.644	-0.050906	0.929609	-0.126135	-0.127477	-0.062822	39.8919	-0.124954	-6.068609	0.010352	NaN
438	1.000000	0.938954	7.36935e+06	-55189.1	1005.82	-29742.2	0.000000	0.000000	6.939122	-0.051984	NaN	0.000000	0.001622	0.001690	28.08	0.087848	0.001909	46.0126	-98.4074	-167.427	0.032232	0.937598	-0.118132	-0.119488	-0.051984	46.0126	-0.117285	-4.255670	0.012215	NaN
438	1.000000	0.946994	7.36935e+06	-55189.1	1005.82	-29742.2	0.000000	0.000000	6.947159	-0.129027	NaN	0.000000	0.001613	0.001625	28.0806	0.068967	0.001962	35.1478	27.7341	-166.04	-0.132892	0.945633	-0.110092	-0.111453	-0.129027	35.1478	-0.107339	-2.638771	0.048896	NaN
438	1.000000	0.954969	7.36935e+06	-55189.1	1005.82	-29742.2	0.000000	0.000000	6.955134	-0.114830	NaN	0.000000	0.001614	0.001671	28.0802	0.094125	0.001904	49.4336	20.5165	-162.36	-0.124087	0.953665	-0.102117	-0.103421	-0.114830	49.4336	-0.100374	-1.862360	0.061658	NaN
438	1.000000	0.962968	7.36935e+06	-55189.1	1005.82	-29742.2	0.000000	0.000000	6.963136	-0.041399	NaN	0.000000	0.001601	0.001645	28.0802	0.074304	0.002042	36.3817	144.074	-164.004	-0.010266	0.961670	-0.094118	-0.095416	-0.041399	36.3817	-0.093265	-1.287314	0.032159	NaN
438	1.000000	0.970991	7.36935e+06	-55189.1	1005.82	-29742.2	0.000000	0.000000	6.971158	-0.059059	NaN	0.000000	0.001586	0.001659	28.0801	0.034255	0.002036	16.8271	-110.172	-163.155	0.059051	0.969687	-0.086095	-0.087399	-0.059059	16.8271	-0.083463	-0.753875	0.078340	NaN
438	1.000000	0.978960	7.36935e+06	-55189.1	1005.82	-29742.2	0.000000	0.000000	6.979127	-0.054533	NaN	0.000000	0.001602	0.001667	28.0802	0.036943	0.001924	19.2007	-15.703	-163.811	-0.039086	0.977680	-0.078126	-0.079406	-0.054533	19.2007	-0.075996	-0.490008	0.111289	NaN
438	1.000000	0.986972	7.36935e+06	-55189.1	1005.82	-29742.2	0.000000	0.000000	6.987140	-0.044177	NaN	0.000000	0.001619	0.001618	28.0805	0.023622	0.001936	12.2032	97.1075	-166.338	0.012062	0.985717	-0.070114	-0.071369	-0.044177	12.2032	-0.067399	-0.290123	0.152270	NaN
438	1.000000	0.994959	7.36935e+06	-55189.1	1005.82	-29742.2	0.000000	0.000000	6.995130	0.021183	NaN	0.000000	0.001613	0.001681	28.0803	0.033222	0.001898	17.5022	152.129	-161.742	0.011920	0.993627	-0.062127	-0.063459	0.021183	17.5022	-0.063035	-0.219628	-0.096450	NaN
438	1.000000	1.002981	7.36935e+06	-55189.1	1005.82	-29742.2	0.000000	0.000000	7.003148	-0.055705	NaN	0.000000	0.001584	0.001666	28.0804	0.124042	0.002014	61.5937	179.861	-166.51	-0.031865	1.001665	-0.054105	-0.055421	-0.055705	61.5937	-0.053427	-0.115653	0.481652	NaN
438	1.000000	1.010958	7.36935e+06	-55189.1	1005.82	-29742.2	0.000000	0.000000	7.011127	-0.022537	NaN	0.000000	0.001576	0.001658	28.0804	0.061067	0.002010	30.3759	172.162	-160.504	-0.080782	1.009701	-0.046128	-0.047385	-0.022537	30.3759	-0.045571	-0.066906	0.336847	NaN
438	1.000000	1.018972	7.36935e+06	-55189.1	1005.82	-29742.2	0.000000	0.000000	7.019138	-0.084716	NaN	0.000000	0.001587	0.001726	28.0804	0.075742	0.001909	39.6857	6.202035	-165.401	-0.051051	1.017644	-0.038114	-0.039442	-0.084716	39.6857	-0.036513	-0.035508	2.385814	NaN
438	1.000000	1.026972	7.36935e+06	-55189.1	1005.82	-29742.2	0.000000	0.000000	7.027140	-0.052328	NaN	0.000000	0.001574	0.001693	28.0804	0.137864	0.002045	67.4316	-145.249	-164.088	0.009192	1.025592	-0.030114	-0.031494	-0.052328	67.4316	-0.029532	-0.022334	2.343004	NaN
438	1.000000	1.034985	7.36935e+06	-55189.1	1005.82	-29742.2	0.000000	0.000000	7.035155	0.004198	NaN	0.000000	0.001599	0.001665	28.0802	0.082445	0.002055	40.129	-70.0864	-165.322	0.095114	1.033657	-0.022101	-0.023429	0.004198	40.129	-0.022179	-0.014271	-0.294201	NaN
438	1.000000	1.042986	7.36935e+06	-55189.1	1005.82	-29742.2	0.000000	0.000000	7.043155	-0.027120	NaN	0.000000	0.001581	0.001682	28.0802	0.046085	0.001976	23.3233	47.8186	-165.545	-0.032967	1.041639	-0.014100	-0.015447	-0.027120	23.3233	-0.013228	-0.008234	3.293702	NaN
438	1.000000	1.051023	7.36935e+06	-55189.1	1005.82	-29742.2	0.000000	0.000000	7.051189	-0.092488	NaN	0.000000	0.001571	0.001685	28.0803	0.089889	0.001891	47.5279	95.2616	-161.387	-0.015912	1.049657	-0.006063	-0.007430	-0.092488	47.5279	-0.004603	-0.003166	29.2139	NaN
438	1.000000	1.058981	7.36935e+06	-55189.1	1005.82	-29742.2	0.000000	0.000000	7.059158	0.168274	NaN	0.000000	0.001570	0.001694	28.08	0.301280	0.002030	148.428	26.4682	-164.567	0.064372	1.057660	0.001895	0.000574	0.168274	148.428	0.001045	0.000797	211.124	4803.4
438	1.000000	1.066980	7.36935e+06	-55189.1	1005.82	-29742.2	0.000000	0.000000	7.067371	5.381674	NaN	0.000000	0.001581	0.001679	28.0816	5.442292	0.001837	2961.88	13.6066	-167.371	4.258645	1.065660	0.009894	0.008574	5.381674	2961.88	0.008532	0.007595	708.595	31051.4
438	2.000000	1.071587	7.36935e+06	-55189.1	1005.82	-29742.2	0.000000	0.000000	7.072153	9.625932	NaN	0.000000	0.001549	0.001661	28.0813	8.998116	0.001699	5296.93	7.700429	-170.728	9.096215	1.071302	0.014501	0.014216	9.625932	5296.93	0.013138	0.012882	747.218	42638.3
438	2.000000	1.073578	7.36935e+06	-55189.1	1005.82	-29742.2	0.000000	0.000000	7.074253	12.2652	NaN	0.000000	0.001547	0.001653	28.0817	11.7748	0.001721	6842.22	7.185226	-173.221	12.1549	1.073322	0.016492	0.016236	12.2652	6842.22	0.015148	0.015483	792.161	50238.9
438	2.000000	1.075568	7.36935e+06	-55189.1	1005.82	-29742.2	0.000000	0.000000	7.076386	15.771	NaN	0.000000	0.001561	0.001656	28.0816	13.5626	0.001702	7967.02	8.149438	-176.043	15.7782	1.075211	0.018482	0.018125	15.771	7967.02	0.016997	0.018042	874.138	54191.3
438	2.000000	1.077539	7.36935e+06	-55189.1	1005.82	-29742.2	0.000000	0.000000	7.078506	19.3726	NaN	0.000000	0.001573	0.001622	28.0818	15.8852	0.001689	9402.64	5.808818	-174.462	19.1337	1.077232	0.020453	0.020146	19.3726	9402.64	0.018908	0.020855	928.918	59486.4
438	2.000000	1.079613	7.36935e+06	-55189.1	1005.82	-29742.2	0.000000	0.000000	7.080770	24	NaN	0.000000	0.001604	0.001654	28.0815	18.179	0.001837	9895.89	6.509296	-174.853	24.4538	1.079195	0.022527	0.022109	24	9895.89	0.020708	0.023667	1014.06	58769.9
438	2.000000	1.081497	7.36935e+06	-55189.1	1005.82	-29742.2	0.000000	0.000000	7.082808	27.7507	NaN	0.000000	0.001578	0.001662	28.0814	20.3503	0.001832	11106.2	5.886892	-175.993	26.2925	1.081213	0.024411	0.024127	27.7507	11106.2	0.022537	0.026686	1039.9	62114.9
438	2.000000	1.083565	7.36935e+06	-55189.1	1005.82	-29742.2	0.000000	0.000000	7.085040	31.7301	NaN	0.000000	0.001561	0.001613	28.0814	22.0632	0.001749	12616	6.600330	-177.665	32.55	1.083158	0.026479	0.026072	31.7301	12616	0.024593	0.030278	1047.94	66241.3
438	2.000000	1.085503	7.36935e+06	-55189.1	1005.82	-29742.2	0.000000	0.000000	7.087207	37.2843	NaN	0.000000	0.001543	0.001662	28.0814	23.4938	0.001700	13820	7.914904	179.362	37.2364	1.085201	0.028417	0.028115	37.2843	13820	0.026394	0.033600	1109.65	68883.2
438	2.000000	1.087467	7.36935e+06	-55189.1	1005.82	-29742.2	0.000000	0.000000	7.089381	42.4001	NaN	0.000000	0.001503	0.001645	28.0818	25.8369	0.001724	14985.4	3.906337	-177.074	40.2766	1.087123	0.030381	0.030037	42.4001	14985.4	0.028259	0.037213	1139.39	70972.9
438	2.000000	1.089515	7.36935e+06	-55189.1	1005.82	-29742.2	0.000000	0.000000	7.091646	47.684	NaN	0.000000	0.001567	0.001666	28.0815	28.1048	0.001703	16501.3	1.940040	-175.839	46.3719	1.089217	0.032429	0.032131	47.684	16501.3	0.030262	0.041288	1154.92	74195.9
438	2.000000	1.091438	7.36935e+06	-55189.1	1005.82	-29742.2	0.000000	0.000000	7.093763	52.3899	NaN	0.000000	0.001594	0.001672	28.0815	29.2632	0.001717	17044.7	2.435787	-175.957	50.4244	1.091220	0.034352	0.034134	52.3899	17044.7	0.032047	0.045093	1161.83	73334.5
438	2.000000	1.093506	7.36935e+06	-55189.1	1005.82	-29742.2	0.000000	0.000000	7.096058	57.9234	NaN	0.000000	0.001616	0.001664	28.0812	33.0178	0.001841	17934.6	3.957046	-178.923	57.2418	1.093175	0.036420	0.036089	57.9234	17934.6	0.033997	0.049437	1171.65	73694.9
438	2.000000	1.095509	7.36935e+06	-55189.1	1005.82	-29742.2	0.000000	0.000000	7.098347	64.8642	NaN	0.000000	0.001603	0.001672	28.0814	34.1843	0.001834	18639.5	8.622249	177.822	65.6828	1.095176	0.038423	0.038090	64.8642	18639.5	0.035813	0.053656	1208.89	73518.7
438	2.000000	1.097477	7.36935e+06	-55189.1	1005.82	-29742.2	0.000000	0.000000	7.100619	72.2551	NaN	0.000000	0.001629	0.001689	28.0816	36.9055	0.001844	20018.4	3.875973	-178.909	71.1046	1.097068	0.040391	0.039982	72.2551	20018.4	0.037684	0.058180	1241.93	75825.7
438	2.000000	1.099505	7.36935e+06	-55189.1	1005.82	-29742.2	0.000000	0.000000	7.102999	80.8027	NaN	0.000000	0.001597	0.001656	28.0814	38.7292	0.001843	21012	7.784293	177.569	81.0669	1.099072	0.042419	0.041986	80.8027	21012	0.039535	0.062833	1286	76585.6
438	2.000000	1.101428	7.36935e+06	-55189.1	1005.82	-29742.2	0.000000	0.000000	7.105021	83.2126	NaN	0.000000	0.001601	0.001660	28.0815	39.9611	0.001833	21798	4.204154	179.209	80.9412	1.101170	0.044342	0.044084	83.2126	21798	0.041479	0.067906	1225.41	76424.8
438	2.000000	1.103455	7.36935e+06	-55189.1	1005.82	-29742.2	0.000000	0.000000	7.107441	92.7647	NaN	0.000000	0.001587	0.001654	28.0801	41.9736	0.001871	22433.9	4.983932	178.789	91.3252	1.103171	0.046369	0.046085	92.7647	22433.9	0.043268	0.072746	1275.19	75993
438	2.000000	1.105414	7.36935e+06	-55189.1	1005.82	-29742.2	0.000000	0.000000	7.109744	101.118	NaN	0.000000	0.001594	0.001655	28.0803	42.8008	0.001866	22941	4.679193	178.867	98.0329	1.105175	0.048328	0.048089	101.118	22941	0.045023	0.077652	1302.21	75216.1
438	2.000000	1.107436	7.36935e+06	-55189.1	1005.82	-29742.2	0.000000	0.000000	7.112242	112.707	NaN	0.000000	0.001581	0.001670	28.0806	45.0992	0.001943	23209.5	4.957247	179.057	111.662	1.107075	0.050350	0.049989	112.707	23209.5	0.046708	0.082511	1365.97	73821.7
438	2.000000	1.109434	7.36935e+06	-55189.1	1005.82	-29742.2	0.000000	0.000000	7.114596	121.371	NaN	0.000000	0.001623	0.001689	28.0801	45.8961	0.001672	27454.3	1.050406	-179.205	118.852	1.109091	0.052348	0.052005	121.371	27454.3	0.049032	0.089445	1356.93	83869.7
438	2.000000	1.111411	7.36935e+06	-55189.1	1005.82	-29742.2	0.000000	0.000000	7.116856	128.248	NaN	0.000000	0.001611	0.001703	28.0802	46.9278	0.001632	28749.6	2.639935	178.883	125.084	1.111089	0.054325	0.054003	128.248	28749.6	0.050979	0.095463	1343.42	85013.3
438	2.000000	1.113459	7.36935e+06	-55189.1	1005.82	-29742.2	0.000000	0.000000	7.119105	133.118	NaN	0.000000	0.001615	0.001681	28.0802	51.2366	0.001845	27768.2	2.529948	178.993	131.424	1.113192	0.056373	0.056106	133.118	27768.2	0.052777	0.101191	1315.51	79753.6
438	2.000000	1.115395	7.36935e+06	-55189.1	1005.82	-29742.2	0.000000	0.000000	7.121520	144.782	NaN	0.000000	0.001599	0.001684	28.0805	52.1603	0.001805	28900.2	3.832564	177.429	141.163	1.115155	0.058309	0.058069	144.782	28900.2	0.054551	0.106998	1353.12	80720.9
438	2.000000	1.117383	7.36935e+06	-55189.1	1005.82	-29742.2	0.000000	0.000000	7.124067	158.34	NaN	0.000000	0.001622	0.001647	28.0805	54.5101	0.001843	29573.8	2.646284	178.805	154.626	1.117162	0.060297	0.060076	158.34	29573.8	0.056282	0.112814	1403.56	80444.9
438	2.000000	1.119521	7.36935e+06	-55189.1	1005.82	-29742.2	0.000000	0.000000	7.126596	167.86	NaN	0.000000	0.001588	0.001699	28.0805	56.7244	0.001828	31034.5	6.223491	175.011	169.822	1.119119	0.062435	0.062033	167.86	31034.5	0.058379	0.120059	1398.15	81831.6
438	2.000000	1.121407	7.36935e+06	-55189.1	1005.82	-29742.2	0.000000	0.000000	7.129086	182.529	NaN	0.000000	0.001608	0.001668	28.0807	58.6525	0.001828	32087.3	6.938553	173.422	179.955	1.121136	0.064321	0.064050	182.529	32087.3	0.060055	0.126006	1448.57	82586.9
438	2.000000	1.123402	7.36935e+06	-55189.1	1005.82	-29742.2	0.000000	0.000000	7.131357	189.257	NaN	0.000000	0.001613	0.001686	28.0803	61.0516	0.001776	34377.1	5.293280	174.337	186.099	1.123118	0.066316	0.066032	189.257	34377.1	0.062187	0.133768	1414.81	85874.9
438	2.000000	1.125477	7.36935e+06	-55189.1	1005.82	-29742.2	0.000000	0.000000	7.133817	198.599	NaN	0.000000	0.001609	0.001688	28.0802	61.2639	0.001684	36383	3.859158	175.721	198.215	1.125149	0.068391	0.068063	198.599	36383	0.064297	0.141667	1401.87	88315.6
438	2.000000	1.127364	7.36935e+06	-55189.1	1005.82	-29742.2	0.000000	0.000000	7.136391	215.328	NaN	0.000000	0.001647	0.001702	28.0803	64.2704	0.001676	38347.9	2.763367	176.236	210.389	1.127047	0.070278	0.069961	215.328	38347.9	0.066066	0.148455	1450.46	90932.2
438	2.000000	1.129404	7.36935e+06	-55189.1	1005.82	-29742.2	0.000000	0.000000	7.138931	227.462	NaN	0.000000	0.001530	0.001689	28.0804	67.1648	0.001922	34951.6	3.340086	177.219	224.36	1.129092	0.072318	0.072006	227.462	34951.6	0.067437	0.153820	1478.76	81420.5
438	2.000000	1.131386	7.36935e+06	-55189.1	1005.82	-29742.2	0.000000	0.000000	7.141321	237.38	NaN	0.000000	0.001598	0.001675	28.0805	68.6657	0.001707	40219.4	6.115271	173.549	234.51	1.131069	0.074300	0.073983	237.38	40219.4	0.069874	0.163575	1451.2	90855.3
438	2.000000	1.133404	7.36935e+06	-55189.1	1005.82	-29742.2	0.000000	0.000000	7.143821	249.091	NaN	0.000000	0.001588	0.001711	28.0804	70.0508	0.001837	38124.5	-0.956344	-179.063	248.48	1.133125	0.076318	0.076039	249.091	38124.5	0.071418	0.169903	1466.08	84503.9
438	2.000000	1.135367	7.36935e+06	-55189.1	1005.82	-29742.2	0.000000	0.000000	7.146392	263.886	NaN	0.000000	0.001585	0.001672	28.0806	71.3619	0.001788	39916.8	2.798444	176.224	259.586	1.135077	0.078281	0.077991	263.886	39916.8	0.073323	0.177866	1483.62	86473.3
438	2.000000	1.137347	7.36935e+06	-55189.1	1005.82	-29742.2	0.000000	0.000000	7.148664	270.969	NaN	0.000000	0.001598	0.001688	28.0817	74.5089	0.001885	39529.7	4.369889	174.526	265.696	1.137017	0.080261	0.079931	270.969	39529.7	0.075120	0.185538	1460.45	83845.8
438	2.000000	1.139325	7.36935e+06	-55189.1	1005.82	-29742.2	0.000000	0.000000	7.150763	273.934	NaN	0.000000	0.001545	0.001708	28.0818	75.4346	0.001773	42554.3	0.608519	177.704	267.889	1.139205	0.082239	0.082119	273.934	42554.3	0.077411	0.195535	1400.95	87923.6
438	2.000000	1.141475	7.36935e+06	-55189.1	1005.82	-29742.2	0.000000	0.000000	7.153927	298.57	NaN	0.000000	0.001619	0.001694	28.0814	77.5654	0.001820	42618.1	5.193926	173.37	299.774	1.141087	0.084389	0.084001	298.57	42618.1	0.079135	0.203218	1469.21	86374.5
438	2.000000	1.143331	7.36935e+06	-55189.1	1005.82	-29742.2	0.000000	0.000000	7.156349	312.33	NaN	0.000000	0.001608	0.001671	28.0815	79.4808	0.001782	44597.2	4.567545	173.332	307.558	1.143087	0.086245	0.086001	312.33	44597.2	0.080993	0.211657	1475.64	88565.5
438	2.000000	1.145335	7.36935e+06	-55189.1	1005.82	-29742.2	0.000000	0.000000	7.158958	327.026	NaN	0.000000	0.001595	0.001689	28.0816	79.2774	0.001845	42975.6	0.763635	177.805	322.412	1.145194	0.088249	0.088108	327.026	42975.6	0.082542	0.218817	1494.52	83937.3
438	2.000000	1.147451	7.36935e+06	-55189.1	1005.82	-29742.2	0.000000	0.000000	7.161753	343.55	NaN	0.000000	0.001564	0.001669	28.0816	82.3064	0.001794	45885.6	5.625408	173.539	342.622	1.146966	0.090365	0.089880	343.55	45885.6	0.084750	0.229209	1498.85	87565.7
438	2.000000	1.149509	7.36935e+06	-55189.1	1005.82	-29742.2	0.000000	0.000000	7.164282	354.982	NaN	0.000000	0.001573	0.001656	28.0817	85.8536	0.001904	45086.6	8.998449	170.237	357.265	1.149030	0.092423	0.091944	354.982	45086.6	0.086518	0.237697	1493.42	84490.6
438	2.000000	1.151340	7.36935e+06	-55189.1	1005.82	-29742.2	0.000000	0.000000	7.166746	370.38	NaN	0.000000	0.001554	0.001640	28.0814	86.6575	0.001836	47191.5	3.500907	174.492	366.372	1.151135	0.094254	0.094049	370.38	47191.5	0.088368	0.246728	1501.17	86801.6
438	2.000000	1.153377	7.36935e+06	-55189.1	1005.82	-29742.2	0.000000	0.000000	7.169407	385.535	NaN	0.000000	0.001539	0.001639	28.0816	88.1968	0.001806	48825.6	2.375826	174.994	384.15	1.153149	0.096291	0.096063	385.535	48825.6	0.090369	0.256679	1502.01	88049.2
438	2.000000	1.155294	7.36935e+06	-55189.1	1005.82	-29742.2	0.000000	0.000000	7.171733	395.487	NaN	0.000000	0.001588	0.001667	28.0814	89.2132	0.001748	51027	5.419263	171.463	390.87	1.155117	0.098208	0.098031	395.487	51027	0.092395	0.266936	1481.58	90233.8
438	2.000000	1.157363	7.36935e+06	-55189.1	1005.82	-29742.2	0.000000	0.000000	7.174423	410.606	NaN	0.000000	0.001596	0.001654	28.0816	90.5051	0.001702	53184.8	2.897276	173.868	409.192	1.157012	0.100277	0.099926	410.606	53184.8	0.094486	0.277724	1478.47	92205
438	2.000000	1.159436	7.36935e+06	-55189.1	1005.82	-29742.2	0.000000	0.000000	7.177446	433.687	NaN	0.000000	0.001561	0.001672	28.0814	92.2028	0.001771	52061.9	0.216159	177.518	432.411	1.159040	0.102350	0.101954	433.687	52061.9	0.096102	0.286193	1515.36	88912.7
438	2.000000	1.161482	7.36935e+06	-55189.1	1005.82	-29742.2	0.000000	0.000000	7.179729	439.433	NaN	0.000000	0.001587	0.001679	28.0814	95.201	0.001802	52820.4	6.245239	170.604	443.556	1.161202	0.104396	0.104116	439.433	52820.4	0.098156	0.297137	1478.89	88531.2
438	2.000000	1.163372	7.36935e+06	-55189.1	1005.82	-29742.2	0.000000	0.000000	7.182553	462.143	NaN	0.000000	0.001583	0.001684	28.0816	97.5533	0.001767	55202.5	4.598864	172.2	458.577	1.163069	0.106286	0.105983	462.143	55202.5	0.100008	0.307161	1504.57	91001.6
438	2.000000	1.165280	7.36935e+06	-55189.1	1005.82	-29742.2	0.000000	0.000000	7.185271	481.839	NaN	0.000000	0.001599	0.001673	28.0816	97.4204	0.001662	58630.9	3.122395	173.748	473.925	1.164853	0.108194	0.107767	481.839	58630.9	0.102030	0.318289	1513.84	94948.6
438	2.000000	1.167313	7.36935e+06	-55189.1	1005.82	-29742.2	0.000000	0.000000	7.187785	493.516	NaN	0.000000	0.001606	0.001664	28.0817	101.294	0.001827	55455.7	5.016630	171.177	487.948	1.167042	0.110227	0.109956	493.516	55455.7	0.103553	0.326793	1510.18	88630.5
438	2.000000	1.168943	7.36935e+06	-55189.1	1005.82	-29742.2	0.000000	0.000000	7.189326	491.369	NaN	0.000000	0.001574	0.001662	28.0814	100.246	0.001802	55624	-1.049623	-2.661893	491.254	1.168777	0.111857	0.111691	491.369	55624	0.105232	0.336290	1461.15	87635.1