File: remote_trans/data/nanoindenter/0828-1/data/Data_2025-08-06,11h17m57s/2025-07-22_16-23-58_1_222.txt
2025-07-22, 16:23:58, 1
Index	Phase	Displacement	Time	Pos X	Pos Y	Pos Z	Rot A	Rot B	Piezo Z	Force A	Force B	Gripper	Voltage A	Voltage B	Temperature	Amplitude force	Amplitude pos	Stiffness	Phase shift	Phase excitation	Force A raw	Displacement raw	HMax	HMax raw	Real Force	Real Stiffness	Contact Depth	Area	Hardness	Reduced Mod.
[#]	[#]	[um]	[s]	[um]	[um]	[um]	[m°]	[m°]	[um]	[uN]	[uN]	[V]	[V]	[V]	[°C]	[uN]	[um]	[N/m]	[°]	[°]	[uN]	[um]	[um]	[um]	[uN]	[N/m]	[um]	[um^2]	[MPa]	[MPa]
222	1.000000	0.002883	7.36722e+06	-49739.1	955.818	-29758.3	0.000000	0.000000	6.002817	-0.036544	NaN	0.000000	0.001551	0.001722	28.08	0.037422	0.000935	40.0226	-77.1921	-161.328	-0.003283	0.001575	-1.014487	-1.015795	-0.036544	40.0226	-1.013802	-3.479749E+13	1.050205E-15	NaN
222	1.000000	0.010819	7.36722e+06	-49739.1	955.819	-29758.3	0.000000	0.000000	6.010750	-0.109270	NaN	0.000000	0.001571	0.001681	28.0796	0.108841	0.000831	130.994	-118.898	-162.446	-0.066849	0.009520	-1.006550	-1.007849	-0.109270	130.994	-1.005924	-2.725986E+13	4.008459E-15	NaN
222	1.000000	0.018816	7.36722e+06	-49739.1	955.818	-29758.3	0.000000	0.000000	6.018751	-0.004874	NaN	0.000000	0.001575	0.001722	28.0798	0.028906	0.001748	16.5382	-19.5789	-165.085	-0.018583	0.017504	-0.998554	-0.999866	-0.004874	16.5382	-0.998333	-2.154363E+13	2.262187E-16	NaN
222	1.000000	0.026852	7.36722e+06	-49739.1	955.818	-29758.3	0.000000	0.000000	6.026789	0.034522	NaN	0.000000	0.001559	0.001706	28.0798	0.047084	0.001910	24.6572	-125.794	-164.879	0.046180	0.025534	-0.990517	-0.991835	0.034522	24.6572	-0.991567	-1.746697E+13	-1.976435E-15	NaN
222	1.000000	0.034817	7.36722e+06	-49739.1	955.818	-29758.3	0.000000	0.000000	6.034749	-0.084838	NaN	0.000000	0.001569	0.001723	28.0796	0.084398	0.001929	43.7627	121.552	-167.804	-0.062478	0.033525	-0.982552	-0.983844	-0.084838	43.7627	-0.981099	-1.262437E+13	6.720150E-15	NaN
222	1.000000	0.042823	7.36722e+06	-49739.1	955.819	-29758.3	0.000000	0.000000	6.042756	-0.046447	NaN	0.000000	0.001566	0.001710	28.08	0.097830	0.001954	50.0564	19.5993	-164.484	-0.010081	0.041492	-0.974547	-0.975877	-0.046447	50.0564	-0.973851	-1.008223E+13	4.606798E-15	NaN
222	1.000000	0.050830	7.36722e+06	-49739.1	955.818	-29758.3	0.000000	0.000000	6.050765	-0.013389	NaN	0.000000	0.001600	0.001714	28.0798	0.053187	0.001896	28.0496	32.8625	-163.441	0.027818	0.049538	-0.966539	-0.967831	-0.013389	28.0496	-0.966181	-7.946841E+12	1.684800E-15	NaN
222	1.000000	0.058764	7.36722e+06	-49739.1	955.819	-29758.3	0.000000	0.000000	6.058696	-0.090210	NaN	0.000000	0.001582	0.001695	28.08	0.048857	0.002108	23.1717	-34.7589	-165.461	-0.135958	0.057523	-0.958606	-0.959846	-0.090210	23.1717	-0.955686	-5.737204E+12	1.572376E-14	NaN
222	1.000000	0.066800	7.36722e+06	-49739.1	955.82	-29758.3	0.000000	0.000000	6.066734	-0.015909	NaN	0.000000	0.001613	0.001705	28.0796	0.009207	0.001984	4.639564	-156.183	-163.195	-0.009020	0.065456	-0.950570	-0.951914	-0.015909	4.639564	-0.947998	-4.518838E+12	3.520584E-15	NaN
222	1.000000	0.074806	7.36722e+06	-49739.1	955.819	-29758.3	0.000000	0.000000	6.074741	-0.011817	NaN	0.000000	0.001660	0.001700	28.0797	0.040208	0.002015	19.9496	39.7805	-165.463	-0.029733	0.073540	-0.942564	-0.943829	-0.011817	19.9496	-0.942119	-3.764693E+12	3.138981E-15	NaN
222	1.000000	0.082810	7.36722e+06	-49739.1	955.817	-29758.3	0.000000	0.000000	6.082745	0.001858	NaN	0.000000	0.001628	0.001675	28.08	0.080960	0.002021	40.0503	108.25	-166.579	-0.079620	0.081494	-0.934560	-0.935876	0.001858	40.0503	-0.934594	-2.979884E+12	-6.235434E-16	NaN
222	1.000000	0.090836	7.36722e+06	-49739.1	955.818	-29758.3	0.000000	0.000000	6.090769	-0.067414	NaN	0.000000	0.001604	0.001668	28.0799	0.089272	0.001978	45.1219	72.182	-166.143	-0.073526	0.089524	-0.926533	-0.927845	-0.067414	45.1219	-0.925413	-2.240177E+12	3.009305E-14	NaN
222	1.000000	0.098867	7.36722e+06	-49739.1	955.818	-29758.3	0.000000	0.000000	6.098801	-0.043906	NaN	0.000000	0.001610	0.001707	28.0801	0.038027	0.001871	20.326	-153.323	-165.914	-0.034154	0.097544	-0.918502	-0.919825	-0.043906	20.326	-0.916882	-1.718335E+12	2.555175E-14	NaN
222	1.000000	0.106863	7.36722e+06	-49739.1	955.819	-29758.3	0.000000	0.000000	6.106796	-0.053924	NaN	0.000000	0.001611	0.001666	28.079	0.044437	0.002016	22.038	127.27	-163.531	-0.093425	0.105543	-0.910507	-0.911827	-0.053924	22.038	-0.908672	-1.331127E+12	4.051004E-14	NaN
222	1.000000	0.114827	7.36722e+06	-49739.1	955.819	-29758.3	0.000000	0.000000	6.114760	-0.046411	NaN	0.000000	0.001596	0.001653	28.0786	0.061138	0.002022	30.2338	86.7058	-164.722	-0.024073	0.113526	-0.902543	-0.903843	-0.046411	30.2338	-0.901391	-1.061371E+12	4.372716E-14	NaN
222	1.000000	0.122849	7.36722e+06	-49739.1	955.819	-29758.3	0.000000	0.000000	6.122784	-0.018637	NaN	0.000000	0.001579	0.001667	28.0789	0.084160	0.001851	45.4646	16.9777	-161.431	-0.047447	0.121495	-0.894520	-0.895874	-0.018637	45.4646	-0.894213	-8.488970E+11	2.195405E-14	NaN
222	1.000000	0.130847	7.36722e+06	-49739.1	955.819	-29758.3	0.000000	0.000000	6.130782	-0.025586	NaN	0.000000	0.001601	0.001665	28.0787	0.049954	0.002140	23.3399	83.9927	-162.964	0.028575	0.129531	-0.886522	-0.887838	-0.025586	23.3399	-0.885700	-6.513019E+11	3.928504E-14	NaN
222	1.000000	0.138852	7.36722e+06	-49739.1	955.818	-29758.3	0.000000	0.000000	6.138785	-0.080380	NaN	0.000000	0.001622	0.001696	28.0788	0.059187	0.001893	31.2681	-139.55	-163.155	-0.008889	0.137503	-0.878517	-0.879866	-0.080380	31.2681	-0.876589	-4.904262E+11	1.638979E-13	NaN
222	1.000000	0.146870	7.36722e+06	-49739.1	955.818	-29758.3	0.000000	0.000000	6.146802	-0.075758	NaN	0.000000	0.001610	0.001644	28.0789	0.106846	0.002092	51.0679	101.31	-162.806	-0.024513	0.145560	-0.870499	-0.871809	-0.075758	51.0679	-0.869387	-3.918730E+11	1.933224E-13	NaN
222	1.000000	0.154859	7.36722e+06	-49739.1	955.817	-29758.3	0.000000	0.000000	6.154796	0.017646	NaN	0.000000	0.001606	0.001656	28.0786	0.060139	0.002036	29.5334	30.9601	-163.436	-0.122135	0.153565	-0.862510	-0.863805	0.017646	29.5334	-0.862958	-3.207430E+11	-5.501749E-14	NaN
222	1.000000	0.162838	7.36722e+06	-49739.1	955.818	-29758.3	0.000000	0.000000	6.162775	0.032649	NaN	0.000000	0.001585	0.001675	28.0791	0.039641	0.001946	20.3697	-81.329	-167.36	-0.000409	0.161555	-0.854531	-0.855814	0.032649	20.3697	-0.855733	-2.560707E+11	-1.274993E-13	NaN
222	1.000000	0.170859	7.36722e+06	-49739.1	955.818	-29758.3	0.000000	0.000000	6.170792	-0.065536	NaN	0.000000	0.001617	0.001756	28.0787	0.131698	0.002046	64.3605	115.038	-166.88	-0.081827	0.169578	-0.846510	-0.847791	-0.065536	64.3605	-0.845746	-1.875564E+11	3.494216E-13	NaN
222	1.000000	0.178850	7.36722e+06	-49739.1	955.818	-29758.3	0.000000	0.000000	6.178784	-0.025922	NaN	0.000000	0.001593	0.001744	28.0788	0.075596	0.001963	38.5142	-94.315	-162.956	0.008705	0.177556	-0.838520	-0.839813	-0.025922	38.5142	-0.838015	-1.473655E+11	1.759011E-13	NaN
222	1.000000	0.186866	7.36722e+06	-49739.1	955.82	-29758.3	0.000000	0.000000	6.186802	0.020597	NaN	0.000000	0.001605	0.001741	28.0788	0.045426	0.001918	23.6872	6.800098	-164.71	-0.006331	0.185572	-0.830503	-0.831797	0.020597	23.6872	-0.831155	-1.189722E+11	-1.731279E-13	NaN
222	1.000000	0.194873	7.36722e+06	-49739.1	955.818	-29758.3	0.000000	0.000000	6.194809	0.011004	NaN	0.000000	0.001615	0.001724	28.0788	0.087198	0.002008	43.4258	131.274	-161.505	-0.001223	0.193520	-0.822496	-0.823850	0.011004	43.4258	-0.822686	-9.133439E+10	-1.204850E-13	NaN
222	1.000000	0.202867	7.36722e+06	-49739.1	955.818	-29758.3	0.000000	0.000000	6.202805	0.043967	NaN	0.000000	0.001606	0.001738	28.0794	0.099644	0.001982	50.2712	-84.0942	-164.461	0.094869	0.201536	-0.814502	-0.815834	0.043967	50.2712	-0.815158	-7.220066E+10	-6.089526E-13	NaN
222	1.000000	0.210881	7.36722e+06	-49739.1	955.818	-29758.3	0.000000	0.000000	6.210813	-0.097271	NaN	0.000000	0.001629	0.001778	28.079	0.091160	0.001955	46.6193	136.048	-166.388	-0.077367	0.209569	-0.806488	-0.807801	-0.097271	46.6193	-0.804923	-5.244248E+10	1.854818E-12	NaN
222	1.000000	0.218871	7.36722e+06	-49739.1	955.819	-29758.3	0.000000	0.000000	6.218807	0.017083	NaN	0.000000	0.001690	0.001721	28.0789	0.034323	0.001971	17.4129	129.345	-166.579	-0.052975	0.217559	-0.798498	-0.799810	0.017083	17.4129	-0.799234	-4.390009E+10	-3.891349E-13	NaN
222	1.000000	0.226874	7.36722e+06	-49739.1	955.819	-29758.3	0.000000	0.000000	6.226808	-0.028080	NaN	0.000000	0.001685	0.001744	28.0788	0.044724	0.002161	20.6981	-123.363	-161.979	0.017515	0.225583	-0.790495	-0.791787	-0.028080	20.6981	-0.789478	-3.235865E+10	8.677675E-13	NaN
222	1.000000	0.234879	7.36722e+06	-49739.1	955.818	-29758.3	0.000000	0.000000	6.234812	-0.048702	NaN	0.000000	0.001672	0.001774	28.0788	0.117216	0.002156	54.3739	-154.347	-163.884	-0.079355	0.233583	-0.782491	-0.783786	-0.048702	54.3739	-0.781819	-2.546516E+10	1.912476E-12	NaN
222	1.000000	0.242885	7.36722e+06	-49739.1	955.819	-29758.3	0.000000	0.000000	6.242818	-0.052326	NaN	0.000000	0.001695	0.001741	28.0806	0.067102	0.001940	34.58	8.358758	-166.195	-0.019514	0.241566	-0.774485	-0.775803	-0.052326	34.58	-0.773350	-1.953653E+10	2.678345E-12	NaN
222	1.000000	0.250891	7.36722e+06	-49739.1	955.818	-29758.3	0.000000	0.000000	6.250825	-0.037770	NaN	0.000000	0.001662	0.001740	28.08	0.068702	0.002022	33.9838	56.754	-163.493	-0.005544	0.249584	-0.766478	-0.767785	-0.037770	33.9838	-0.765644	-1.534890E+10	2.460767E-12	NaN
222	1.000000	0.258892	7.36722e+06	-49739.1	955.819	-29758.4	0.000000	0.000000	6.258829	0.031942	NaN	0.000000	0.001673	0.001674	28.0802	0.093291	0.001933	48.271	-167.176	-165.925	-0.028748	0.257577	-0.758477	-0.759793	0.031942	48.271	-0.758973	-1.245475E+10	-2.564618E-12	NaN
222	1.000000	0.266899	7.36722e+06	-49739.1	955.819	-29758.4	0.000000	0.000000	6.266832	-0.057776	NaN	0.000000	0.001693	0.001698	28.08	0.120348	0.001891	63.6412	58.4981	-167.401	-0.062876	0.265618	-0.750470	-0.751752	-0.057776	63.6412	-0.749789	-9.340135E+9	6.185799E-12	NaN
222	1.000000	0.274907	7.36722e+06	-49739.1	955.819	-29758.4	0.000000	0.000000	6.274842	-0.007871	NaN	0.000000	0.001661	0.001711	28.0799	0.037364	0.001955	19.1128	-174.163	-165.831	0.046500	0.273574	-0.742463	-0.743795	-0.007871	19.1128	-0.742154	-7.351738E+9	1.070679E-12	NaN
222	1.000000	0.282913	7.36722e+06	-49739.1	955.818	-29758.4	0.000000	0.000000	6.282848	-0.010236	NaN	0.000000	0.001665	0.001673	28.0801	0.068409	0.002160	31.6677	95.4567	-165.775	0.002400	0.281637	-0.734457	-0.735732	-0.010236	31.6677	-0.734214	-5.731060E+9	1.786127E-12	NaN
222	1.000000	0.290867	7.36722e+06	-49739.1	955.819	-29758.4	0.000000	0.000000	6.290799	-0.087377	NaN	0.000000	0.001680	0.001700	28.0801	0.052167	0.002002	26.0621	-169.987	-163.774	-0.024835	0.289588	-0.726502	-0.727782	-0.087377	26.0621	-0.723987	-4.157633E+9	2.101608E-11	NaN
222	1.000000	0.298900	7.36722e+06	-49739.1	955.818	-29758.4	0.000000	0.000000	6.298834	-0.035215	NaN	0.000000	0.001695	0.001663	28.0805	0.095265	0.001992	47.8193	-147.703	-163.19	-0.021196	0.297604	-0.718469	-0.719765	-0.035215	47.8193	-0.717917	-3.436043E+9	1.024861E-11	NaN
222	1.000000	0.306932	7.36722e+06	-49739.1	955.819	-29758.4	0.000000	0.000000	6.306864	-0.088814	NaN	0.000000	0.001677	0.001672	28.0802	0.062374	0.002012	30.9938	-178.223	-163.431	-0.018361	0.305636	-0.710437	-0.711733	-0.088814	30.9938	-0.708288	-2.539100E+9	3.497866E-11	NaN
222	1.000000	0.314935	7.36722e+06	-49739.1	955.819	-29758.4	0.000000	0.000000	6.314865	-0.131358	NaN	0.000000	0.001698	0.001715	28.0801	0.035464	0.001862	19.0487	-81.4502	-160.658	-0.055149	0.313595	-0.702434	-0.703774	-0.131358	19.0487	-0.697263	-1.795328E+9	7.316659E-11	NaN
222	1.000000	0.322933	7.36722e+06	-49739.1	955.819	-29758.4	0.000000	0.000000	6.322869	0.006399	NaN	0.000000	0.001693	0.001704	28.0801	0.013967	0.001937	7.212265	138.624	-162.048	-0.013940	0.321647	-0.694436	-0.695722	0.006399	7.212265	-0.695101	-1.677347E+9	-3.815247E-12	NaN
222	1.000000	0.330951	7.36722e+06	-49739.1	955.819	-29758.4	0.000000	0.000000	6.330883	-0.078032	NaN	0.000000	0.001645	0.001673	28.0801	0.058792	0.001819	32.325	118.365	-162.904	-0.080471	0.329609	-0.686419	-0.687760	-0.078032	32.325	-0.684608	-1.205638E+9	6.472281E-11	NaN
222	1.000000	0.338961	7.36722e+06	-49739.1	955.818	-29758.4	0.000000	0.000000	6.338895	-0.022048	NaN	0.000000	0.001617	0.001708	28.0806	0.102772	0.002080	49.4076	-72.5332	-165.093	0.028579	0.337678	-0.678409	-0.679691	-0.022048	49.4076	-0.678074	-9.814400E+8	2.246461E-11	NaN
222	1.000000	0.346957	7.36722e+06	-49739.1	955.818	-29758.4	0.000000	0.000000	6.346891	-0.022773	NaN	0.000000	0.001654	0.001693	28.0808	0.051749	0.001917	26.9909	159.695	-165.635	-0.037415	0.345604	-0.670413	-0.671765	-0.022773	26.9909	-0.669780	-7.557487E+8	3.013329E-11	NaN
222	1.000000	0.354959	7.36722e+06	-49739.1	955.818	-29758.4	0.000000	0.000000	6.354891	-0.080303	NaN	0.000000	0.001639	0.001687	28.0804	0.086055	0.002024	42.5152	-5.782447	-165.36	-0.052356	0.353612	-0.662410	-0.663757	-0.080303	42.5152	-0.660994	-5.729006E+8	1.401686E-10	NaN
222	1.000000	0.362919	7.36722e+06	-49739.1	955.819	-29758.4	0.000000	0.000000	6.362854	-0.007296	NaN	0.000000	0.001645	0.001703	28.0804	0.113419	0.001964	57.7369	-166.064	-165.995	-0.037137	0.361588	-0.654450	-0.655781	-0.007296	57.7369	-0.654356	-4.646613E+8	1.570203E-11	NaN
222	1.000000	0.370943	7.36722e+06	-49739.1	955.819	-29758.4	0.000000	0.000000	6.370876	-0.066983	NaN	0.000000	0.001661	0.001684	28.0803	0.016663	0.001963	8.488932	165.711	-160.964	-0.070822	0.369640	-0.646426	-0.647729	-0.066983	8.488932	-0.640508	-3.000966E+8	2.232064E-10	NaN
222	1.000000	0.378976	7.36722e+06	-49739.1	955.817	-29758.4	0.000000	0.000000	6.378908	-0.080456	NaN	0.000000	0.001653	0.001677	28.0791	0.072381	0.001948	37.1632	-22.4344	-165.558	-0.072144	0.377601	-0.638393	-0.639768	-0.080456	37.1632	-0.636769	-2.666597E+8	3.017197E-10	NaN
222	1.000000	0.386954	7.36722e+06	-49739.1	955.819	-29758.4	0.000000	0.000000	6.386887	-0.063474	NaN	0.000000	0.001657	0.001685	28.0789	0.134726	0.002084	64.651	175.154	-164.758	-0.050015	0.385668	-0.630415	-0.631702	-0.063474	64.651	-0.629679	-2.131148E+8	2.978372E-10	NaN
222	1.000000	0.394949	7.36722e+06	-49739.1	955.818	-29758.4	0.000000	0.000000	6.394886	0.042614	NaN	0.000000	0.001616	0.001658	28.0792	0.118014	0.001920	61.4813	37.628	-165.465	-0.022155	0.393642	-0.622420	-0.623727	0.042614	61.4813	-0.622940	-1.722028E+8	-2.474668E-10	NaN
222	1.000000	0.402976	7.36722e+06	-49739.1	955.819	-29758.4	0.000000	0.000000	6.402910	-0.031061	NaN	0.000000	0.001653	0.001708	28.0789	0.082669	0.002117	39.0447	171.177	-163.684	0.040975	0.401667	-0.614393	-0.615703	-0.031061	39.0447	-0.613797	-1.289270E+8	2.409161E-10	NaN
222	1.000000	0.410946	7.36722e+06	-49739.1	955.818	-29758.4	0.000000	0.000000	6.410881	-0.008990	NaN	0.000000	0.001723	0.001709	28.0791	0.098567	0.002096	47.0336	-39.3581	-166.457	0.015681	0.409624	-0.606423	-0.607745	-0.008990	47.0336	-0.606280	-1.016059E+8	8.847737E-11	NaN
222	1.000000	0.418986	7.36722e+06	-49739.1	955.819	-29758.4	0.000000	0.000000	6.418921	-0.023454	NaN	0.000000	0.001669	0.001689	28.0789	0.018202	0.001957	9.302638	10.0929	-167.846	-0.016941	0.417665	-0.598383	-0.599704	-0.023454	9.302638	-0.596492	-7.449686E+7	3.148276E-10	NaN
222	1.000000	0.426962	7.36722e+06	-49739.1	955.818	-29758.4	0.000000	0.000000	6.426893	-0.102662	NaN	0.000000	0.001653	0.001667	28.0792	0.077519	0.002026	38.2682	163.977	-163.82	-0.146066	0.425664	-0.590407	-0.591706	-0.102662	38.2682	-0.588395	-5.761592E+7	1.781826E-9	NaN
222	1.000000	0.435003	7.36722e+06	-49739.1	955.818	-29758.4	0.000000	0.000000	6.434935	-0.071947	NaN	0.000000	0.001686	0.001702	28.0792	0.034900	0.001864	18.723	21.9539	-162.47	-0.093377	0.433661	-0.582367	-0.583708	-0.071947	18.723	-0.579484	-4.341209E+7	1.657314E-9	NaN
222	1.000000	0.442982	7.36722e+06	-49739.1	955.819	-29758.4	0.000000	0.000000	6.442915	-0.059054	NaN	0.000000	0.001696	0.001679	28.079	0.015086	0.001985	7.599416	-95.0086	-167.902	0.063149	0.441610	-0.574387	-0.575759	-0.059054	7.599416	-0.568559	-3.067022E+7	1.925436E-9	NaN
222	1.000000	0.450955	7.36722e+06	-49739.1	955.818	-29758.4	0.000000	0.000000	6.450890	-0.015577	NaN	0.000000	0.001680	0.001688	28.0794	0.045141	0.001995	22.6255	53.071	-165.075	-0.003162	0.449663	-0.566414	-0.567706	-0.015577	22.6255	-0.565898	-2.817974E+7	5.527757E-10	NaN
222	1.000000	0.459009	7.36722e+06	-49739.1	955.819	-29758.4	0.000000	0.000000	6.458942	-0.075256	NaN	0.000000	0.001605	0.001694	28.079	0.109841	0.001950	56.3163	-153.897	-166.964	-0.064114	0.457690	-0.558360	-0.559679	-0.075256	56.3163	-0.557358	-2.146952E+7	3.505255E-9	NaN
222	1.000000	0.466968	7.36722e+06	-49739.1	955.819	-29758.4	0.000000	0.000000	6.466901	-0.047650	NaN	0.000000	0.001589	0.001689	28.0789	0.086754	0.001900	45.6583	-176.112	-164.35	-0.066333	0.465714	-0.550402	-0.551656	-0.047650	45.6583	-0.549619	-1.677561E+7	2.840436E-9	NaN
222	1.000000	0.475000	7.36722e+06	-49739.1	955.818	-29758.4	0.000000	0.000000	6.474934	-0.040582	NaN	0.000000	0.001628	0.001698	28.0788	0.100987	0.001912	52.8088	63.0163	-162.771	-0.018544	0.473701	-0.542369	-0.543668	-0.040582	52.8088	-0.541793	-1.306835E+7	3.105391E-9	NaN
222	1.000000	0.483008	7.36722e+06	-49739.1	955.819	-29758.4	0.000000	0.000000	6.482940	-0.069927	NaN	0.000000	0.001599	0.001681	28.0788	0.071552	0.002054	34.8372	-63.763	-163.018	-0.084725	0.481726	-0.534362	-0.535644	-0.069927	34.8372	-0.532856	-9.82272e+06	7.118895E-9	NaN
222	1.000000	0.490994	7.36722e+06	-49739.1	955.818	-29758.4	0.000000	0.000000	6.490928	-0.054411	NaN	0.000000	0.001619	0.001678	28.0794	0.032704	0.002017	16.2148	-111.893	-164.4	0.016564	0.489721	-0.526375	-0.527648	-0.054411	16.2148	-0.523858	-7.36617e+06	7.386598E-9	NaN
222	1.000000	0.499024	7.36722e+06	-49739.1	955.819	-29758.4	0.000000	0.000000	6.498959	-0.014500	NaN	0.000000	0.001602	0.001708	28.0788	0.159959	0.001963	81.4853	70.7835	-166.809	0.032003	0.497699	-0.518346	-0.519671	-0.014500	81.4853	-0.518212	-6.14792e+06	2.358496E-9	NaN
222	1.000000	0.507023	7.36722e+06	-49739.1	955.818	-29758.4	0.000000	0.000000	6.506959	0.003405	NaN	0.000000	0.001600	0.001668	28.0787	0.070360	0.002083	33.7739	75.4439	-162.872	-0.011282	0.505685	-0.510346	-0.511685	0.003405	33.7739	-0.510422	-4.78953e+06	-7.108684E-10	NaN
222	1.000000	0.515027	7.36722e+06	-49739.1	955.819	-29758.4	0.000000	0.000000	6.514963	0.012511	NaN	0.000000	0.001634	0.001678	28.0802	0.090201	0.001930	46.7441	-163.545	-164.611	-0.034155	0.513744	-0.502343	-0.503625	0.012511	46.7441	-0.502543	-3.71957e+06	-3.363472E-9	NaN
222	1.000000	0.523013	7.36722e+06	-49739.1	955.818	-29758.4	0.000000	0.000000	6.522946	-0.070056	NaN	0.000000	0.001619	0.001672	28.0802	0.017555	0.002049	8.569334	-96.2452	-163.92	-0.140269	0.521702	-0.494356	-0.495667	-0.070056	8.569334	-0.488225	-2.34739e+06	2.984407E-8	NaN
222	1.000000	0.531013	7.36722e+06	-49739.1	955.818	-29758.4	0.000000	0.000000	6.530950	0.026920	NaN	0.000000	0.001654	0.001685	28.0804	0.019273	0.001911	10.0842	49.4121	-164.998	-0.009428	0.529709	-0.486356	-0.487661	0.026920	10.0842	-0.488358	-2.35749e+06	-1.141900E-8	NaN
222	1.000000	0.539017	7.36722e+06	-49739.1	955.818	-29758.4	0.000000	0.000000	6.538952	-0.016798	NaN	0.000000	0.001637	0.001703	28.0802	0.057510	0.002041	28.1823	155.171	-162.907	-0.014284	0.537687	-0.478352	-0.479682	-0.016798	28.1823	-0.477905	-1.68342e+06	9.978582E-9	NaN
222	1.000000	0.547044	7.36722e+06	-49739.1	955.819	-29758.4	0.000000	0.000000	6.546980	0.002692	NaN	0.000000	0.001603	0.001691	28.0802	0.069306	0.002040	33.9697	-175.615	-165.81	0.016004	0.545720	-0.470325	-0.471650	0.002692	33.9697	-0.470385	-1.3207e+06	-2.038583E-9	NaN
222	1.000000	0.555041	7.36722e+06	-49739.1	955.819	-29758.4	0.000000	0.000000	6.554976	-0.007476	NaN	0.000000	0.001613	0.001703	28.0802	0.072895	0.001984	36.7346	125.036	-164.765	-0.013697	0.553761	-0.462328	-0.463608	-0.007476	36.7346	-0.462175	-1.01294e+06	7.380196E-9	NaN
222	1.000000	0.563023	7.36722e+06	-49739.1	955.819	-29758.4	0.000000	0.000000	6.562957	-0.026138	NaN	0.000000	0.001636	0.001707	28.0802	0.105795	0.002079	50.8826	-67.7966	-164.183	-0.019982	0.561745	-0.454346	-0.455625	-0.026138	50.8826	-0.453961	-776430	3.366481E-8	NaN
222	1.000000	0.571052	7.36722e+06	-49739.1	955.819	-29758.4	0.000000	0.000000	6.570985	-0.053518	NaN	0.000000	0.001643	0.001703	28.0804	0.044249	0.002028	21.8181	31.5007	-164.949	-0.029969	0.569713	-0.446317	-0.447656	-0.053518	21.8181	-0.444477	-570855	9.375118E-8	NaN
222	1.000000	0.579088	7.36722e+06	-49739.1	955.819	-29758.4	0.000000	0.000000	6.579025	0.030921	NaN	0.000000	0.001638	0.001718	28.0801	0.075807	0.001917	39.5366	-166.516	-166.848	-0.000249	0.577740	-0.438281	-0.439629	0.030921	39.5366	-0.438868	-475755	-6.499368E-8	NaN
222	1.000000	0.587020	7.36722e+06	-49739.1	955.818	-29758.4	0.000000	0.000000	6.586955	-0.018224	NaN	0.000000	0.001636	0.001717	28.0805	0.109566	0.002035	53.8466	-139.963	-166.967	0.035375	0.585752	-0.430349	-0.431618	-0.018224	53.8466	-0.430095	-357610	5.096057E-8	NaN
222	1.000000	0.595046	7.36722e+06	-49739.1	955.819	-29758.4	0.000000	0.000000	6.594980	-0.035348	NaN	0.000000	0.001602	0.001718	28.0803	0.063440	0.002044	31.0437	-177.282	-167	-0.096828	0.593745	-0.422324	-0.423624	-0.035348	31.0437	-0.421470	-269933	1.309520E-7	NaN
222	1.000000	0.603042	7.36722e+06	-49739.1	955.818	-29758.4	0.000000	0.000000	6.602978	0.019004	NaN	0.000000	0.001621	0.001715	28.0802	0.023579	0.001892	12.4615	41.0375	-167.316	0.008873	0.601677	-0.414327	-0.415692	0.019004	12.4615	-0.415471	-221895	-8.564412E-8	NaN
222	1.000000	0.611028	7.36722e+06	-49739.1	955.818	-29758.4	0.000000	0.000000	6.610962	-0.027762	NaN	0.000000	0.001643	0.001710	28.0803	0.024860	0.002027	12.263	165.396	-164.654	0.021255	0.609781	-0.406342	-0.407588	-0.027762	12.263	-0.404644	-155659	1.783527E-7	NaN
222	1.000000	0.619036	7.36722e+06	-49739.1	955.818	-29758.4	0.000000	0.000000	6.618970	-0.045192	NaN	0.000000	0.001645	0.001747	28.0801	0.046862	0.002022	23.1734	151.272	-163.537	-0.021741	0.617789	-0.398333	-0.399580	-0.045192	23.1734	-0.396870	-120598	3.747337E-7	NaN
222	1.000000	0.627066	7.36722e+06	-49739.1	955.819	-29758.4	0.000000	0.000000	6.626999	-0.057154	NaN	0.000000	0.001686	0.001736	28.0805	0.093683	0.002091	44.8011	137.734	-164.719	-0.015273	0.625807	-0.390304	-0.391563	-0.057154	44.8011	-0.389347	-94150.2	6.070469E-7	NaN
222	1.000000	0.635038	7.36722e+06	-49739.1	955.817	-29758.4	0.000000	0.000000	6.634972	-0.046877	NaN	0.000000	0.001654	0.001734	28.0802	0.064478	0.002013	32.0378	26.4035	-165.379	0.045846	0.633787	-0.382331	-0.383583	-0.046877	32.0378	-0.381233	-72042.3	6.506889E-7	NaN
222	1.000000	0.643062	7.36722e+06	-49739.1	955.819	-29758.4	0.000000	0.000000	6.642997	-0.011545	NaN	0.000000	0.001655	0.001733	28.0803	0.129982	0.002012	64.5879	68.7426	-164.183	0.010720	0.641739	-0.374307	-0.375630	-0.011545	64.5879	-0.374173	-57039.8	2.024104E-7	NaN
222	1.000000	0.651074	7.36722e+06	-49739.1	955.82	-29758.4	0.000000	0.000000	6.651008	-0.029178	NaN	0.000000	0.001657	0.001752	28.079	0.106311	0.001977	53.767	25.8423	-164.136	-0.038505	0.649754	-0.366295	-0.367615	-0.029178	53.767	-0.365888	-43337.9	6.732610E-7	NaN
222	1.000000	0.659067	7.36722e+06	-49739.1	955.819	-29758.4	0.000000	0.000000	6.658999	-0.066630	NaN	0.000000	0.001605	0.001773	28.0791	0.073606	0.001987	37.0454	170.505	-166.135	0.015464	0.657714	-0.358303	-0.359655	-0.066630	37.0454	-0.356954	-32194.7	2.069606E-6	NaN
222	1.000000	0.667059	7.36722e+06	-49739.1	955.818	-29758.4	0.000000	0.000000	6.666992	-0.064292	NaN	0.000000	0.001630	0.001712	28.0789	0.062191	0.001959	31.7415	-127.831	-167.105	-0.090692	0.665729	-0.350310	-0.351640	-0.064292	31.7415	-0.348791	-24516	2.622461E-6	NaN
222	1.000000	0.675095	7.36722e+06	-49739.1	955.818	-29758.4	0.000000	0.000000	6.675031	0.002936	NaN	0.000000	0.001616	0.001716	28.079	0.128921	0.001966	65.5895	-171.629	-166.98	-0.017965	0.673777	-0.342274	-0.343592	0.002936	65.5895	-0.342308	-19732.1	-1.488126E-7	NaN
222	1.000000	0.683098	7.36722e+06	-49739.1	955.819	-29758.4	0.000000	0.000000	6.683030	-0.066245	NaN	0.000000	0.001578	0.001717	28.0794	0.076809	0.001953	39.3247	-25.1901	-165.371	-0.022787	0.681758	-0.334272	-0.335611	-0.066245	39.3247	-0.333008	-14436.9	4.588608E-6	NaN
222	1.000000	0.691056	7.36722e+06	-49739.1	955.818	-29758.4	0.000000	0.000000	6.690985	-0.143479	NaN	0.000000	0.001630	0.001726	28.0791	0.067592	0.002078	32.5298	53.099	-168.993	-0.146304	0.689718	-0.326314	-0.327651	-0.143479	32.5298	-0.323006	-10300.1	1.392986E-5	NaN
222	1.000000	0.699092	7.36722e+06	-49739.1	955.819	-29758.4	0.000000	0.000000	6.699028	-0.004078	NaN	0.000000	0.001635	0.001695	28.079	0.040564	0.002032	19.9636	124.147	-165.664	0.018853	0.697808	-0.318277	-0.319561	-0.004078	19.9636	-0.318124	-8729.93	4.671619E-7	NaN
222	1.000000	0.707052	7.36722e+06	-49739.1	955.818	-29758.4	0.000000	0.000000	6.706984	-0.078581	NaN	0.000000	0.001598	0.001693	28.0789	0.138096	0.002014	68.5604	-35.8598	-169.576	-0.086779	0.705760	-0.310318	-0.311609	-0.078581	68.5604	-0.309458	-6501.83	1.208606E-5	NaN
222	1.000000	0.715102	7.36722e+06	-49739.1	955.818	-29758.4	0.000000	0.000000	6.715036	-0.035085	NaN	0.000000	0.001612	0.001685	28.079	0.044134	0.002011	21.9424	-31.4558	-166.173	-0.019066	0.713736	-0.302268	-0.303634	-0.035085	21.9424	-0.301069	-4881.32	7.187644E-6	NaN
222	1.000000	0.723122	7.36722e+06	-49739.1	955.819	-29758.4	0.000000	0.000000	6.723057	-0.007863	NaN	0.000000	0.001610	0.001680	28.0792	0.033181	0.002106	15.7569	76.8615	-164.318	-0.015182	0.721802	-0.294247	-0.295567	-0.007863	15.7569	-0.293873	-3812.88	2.062102E-6	NaN
222	1.000000	0.731114	7.36722e+06	-49739.1	955.819	-29758.4	0.000000	0.000000	6.731047	-0.066590	NaN	0.000000	0.001615	0.001700	28.079	0.040224	0.001916	20.9886	-52.4906	-166.478	-0.123621	0.729762	-0.286255	-0.287607	-0.066590	20.9886	-0.283875	-2699.94	2.466358E-5	NaN
222	1.000000	0.739091	7.36722e+06	-49739.1	955.82	-29758.4	0.000000	0.000000	6.739024	-0.052361	NaN	0.000000	0.001623	0.001714	28.0792	0.058633	0.001961	29.906	179.482	-164.993	0.028921	0.737795	-0.278278	-0.279575	-0.052361	29.906	-0.276965	-2123.91	2.465316E-5	NaN
222	1.000000	0.747085	7.36722e+06	-49739.1	955.818	-29758.4	0.000000	0.000000	6.747022	0.031218	NaN	0.000000	0.001619	0.001699	28.0789	0.119257	0.002028	58.8028	160.957	-165.143	-0.031598	0.745796	-0.270284	-0.271573	0.031218	58.8028	-0.270682	-1705.72	-1.830197E-5	NaN
222	1.000000	0.755080	7.36722e+06	-49739.1	955.819	-29758.4	0.000000	0.000000	6.755016	-0.004709	NaN	0.000000	0.001601	0.001725	28.079	0.106563	0.001916	55.6138	-173.806	-165.51	-0.066017	0.753809	-0.262289	-0.263560	-0.004709	55.6138	-0.262226	-1267.64	3.714780E-6	NaN
222	1.000000	0.763127	7.36722e+06	-49739.1	955.818	-29758.4	0.000000	0.000000	6.763063	0.023001	NaN	0.000000	0.001597	0.001689	28.079	0.055085	0.001971	27.9518	174.238	-164.237	0.080434	0.761738	-0.254242	-0.255631	0.023001	27.9518	-0.254859	-977.129	-2.353959E-5	NaN
222	1.000000	0.771106	7.36722e+06	-49739.1	955.817	-29758.4	0.000000	0.000000	6.771038	-0.084323	NaN	0.000000	0.001651	0.001717	28.0789	0.123829	0.001972	62.7801	97.7236	-166.691	-0.025263	0.769833	-0.246263	-0.247536	-0.084323	62.7801	-0.245256	-694.106	0.000121	NaN
222	1.000000	0.779114	7.36722e+06	-49739.1	955.818	-29758.4	0.000000	0.000000	6.779048	-0.038811	NaN	0.000000	0.001634	0.001723	28.0794	0.054399	0.002022	26.9	-26.1656	-162.444	-0.050717	0.777775	-0.238255	-0.239595	-0.038811	26.9	-0.237173	-519.191	7.475206E-5	NaN
222	1.000000	0.787097	7.36722e+06	-49739.1	955.818	-29758.4	0.000000	0.000000	6.787033	0.015784	NaN	0.000000	0.001598	0.001686	28.08	0.017870	0.001955	9.139729	59.8924	-165.396	-0.065522	0.785815	-0.230273	-0.231555	0.015784	9.139729	-0.231568	-423.891	-3.723591E-5	NaN
222	1.000000	0.795093	7.36722e+06	-49739.1	955.818	-29758.4	0.000000	0.000000	6.795029	0.007432	NaN	0.000000	0.001624	0.001745	28.0802	0.102865	0.002063	49.8555	165.397	-164.654	0.006130	0.793853	-0.222276	-0.223516	0.007432	49.8555	-0.222388	-303.239	-2.450830E-5	NaN
222	1.000000	0.803128	7.36722e+06	-49739.1	955.819	-29758.4	0.000000	0.000000	6.803064	0.013486	NaN	0.000000	0.001619	0.001728	28.0802	0.033808	0.002043	16.5464	60.4033	-164.935	-0.047175	0.801803	-0.214241	-0.215566	0.013486	16.5464	-0.214853	-229.691	-5.871235E-5	NaN
222	1.000000	0.811124	7.36722e+06	-49739.1	955.819	-29758.4	0.000000	0.000000	6.811061	0.030460	NaN	0.000000	0.001605	0.001761	28.0802	0.065671	0.001974	33.2681	14.3679	-162.73	-0.024112	0.809812	-0.206245	-0.207557	0.030460	33.2681	-0.206932	-171.012	-0.000178	NaN
222	1.000000	0.819142	7.36722e+06	-49739.1	955.818	-29758.4	0.000000	0.000000	6.819074	-0.087862	NaN	0.000000	0.001596	0.001737	28.0806	0.081234	0.001964	41.3683	-76.6061	-163.761	-0.063773	0.817844	-0.198227	-0.199525	-0.087862	41.3683	-0.196634	-115.942	0.000758	NaN
222	1.000000	0.827190	7.36722e+06	-49739.1	955.818	-29758.4	0.000000	0.000000	6.827123	-0.063424	NaN	0.000000	0.001595	0.001704	28.0803	0.143571	0.001918	74.852	8.084766	-165.747	-0.017864	0.825836	-0.190180	-0.191533	-0.063424	74.852	-0.189544	-88.3912	0.000718	NaN
222	1.000000	0.835182	7.36722e+06	-49739.1	955.819	-29758.4	0.000000	0.000000	6.835117	-0.002783	NaN	0.000000	0.001611	0.001756	28.0804	0.057759	0.001873	30.8336	148.638	-164.986	-0.015719	0.833802	-0.182188	-0.183568	-0.002783	30.8336	-0.182120	-66.2922	4.197503E-5	NaN
222	1.000000	0.843171	7.36722e+06	-49739.1	955.817	-29758.4	0.000000	0.000000	6.843109	0.055080	NaN	0.000000	0.001601	0.001751	28.0803	0.022629	0.002011	11.2544	-127.574	-168.929	-0.007640	0.841885	-0.174198	-0.175485	0.055080	11.2544	-0.177868	-56.1211	-0.000981	NaN
222	1.000000	0.851150	7.36722e+06	-49739.1	955.819	-29758.4	0.000000	0.000000	6.851084	-0.029152	NaN	0.000000	0.001607	0.001712	28.0801	0.036630	0.002058	17.7947	155.47	-166.512	-0.003762	0.849873	-0.166220	-0.167496	-0.029152	17.7947	-0.164991	-33.5852	0.000868	NaN
222	1.000000	0.859165	7.36722e+06	-49739.1	955.817	-29758.4	0.000000	0.000000	6.859099	-0.019027	NaN	0.000000	0.001599	0.001713	28.0807	0.029631	0.002115	14.0076	174.724	-164.587	-0.011463	0.857830	-0.158205	-0.159540	-0.019027	14.0076	-0.157186	-24.4235	0.000779	NaN
222	1.000000	0.867150	7.36722e+06	-49739.1	955.818	-29758.4	0.000000	0.000000	6.867082	-0.096829	NaN	0.000000	0.001576	0.001746	28.0803	0.119624	0.002144	55.8004	155.38	-162.088	-0.039954	0.865841	-0.150219	-0.151528	-0.096829	55.8004	-0.148917	-17.3074	0.005595	NaN
222	1.000000	0.875138	7.36722e+06	-49739.1	955.819	-29758.4	0.000000	0.000000	6.875073	-0.031046	NaN	0.000000	0.001576	0.001748	28.0807	0.052937	0.001861	28.4524	-55.7231	-168.498	-0.012894	0.873836	-0.142231	-0.143533	-0.031046	28.4524	-0.141413	-12.5731	0.002469	NaN
222	1.000000	0.883168	7.36722e+06	-49739.1	955.818	-29758.4	0.000000	0.000000	6.883105	0.024922	NaN	0.000000	0.001589	0.001715	28.0803	0.054771	0.001938	28.2642	150.651	-165.863	-0.033740	0.881889	-0.134201	-0.135480	0.024922	28.2642	-0.134863	-9.455074	-0.002636	NaN
222	1.000000	0.891160	7.36722e+06	-49739.1	955.819	-29758.4	0.000000	0.000000	6.891093	-0.078304	NaN	0.000000	0.001590	0.001729	28.0803	0.098749	0.002038	48.4461	-105.725	-161.879	-0.168929	0.889875	-0.126209	-0.127495	-0.078304	48.4461	-0.124997	-6.080391	0.012878	NaN
222	1.000000	0.899173	7.36722e+06	-49739.1	955.819	-29758.4	0.000000	0.000000	6.899109	0.004166	NaN	0.000000	0.001581	0.001732	28.0813	0.084186	0.002040	41.2767	79.44	-166.912	0.004895	0.897918	-0.118196	-0.119451	0.004166	41.2767	-0.118272	-4.457421	-0.000935	NaN
222	1.000000	0.907184	7.36722e+06	-49739.1	955.819	-29758.4	0.000000	0.000000	6.907118	-0.026295	NaN	0.000000	0.001566	0.001676	28.0804	0.066959	0.002011	33.3001	-7.587074	-160.733	-0.051687	0.905821	-0.110185	-0.111549	-0.026295	33.3001	-0.109593	-2.946345	0.008925	NaN
222	1.000000	0.915153	7.36722e+06	-49739.1	955.819	-29758.4	0.000000	0.000000	6.915089	-0.005152	NaN	0.000000	0.001626	0.001733	28.0807	0.078588	0.001922	40.8885	130.896	-168.018	-0.056645	0.913849	-0.102216	-0.103520	-0.005152	40.8885	-0.102121	-2.034870	0.002532	NaN
222	1.000000	0.923167	7.36722e+06	-49739.1	955.817	-29758.4	0.000000	0.000000	6.923104	0.017262	NaN	0.000000	0.001571	0.001696	28.0795	0.079453	0.002035	39.044	-27.8261	-168.408	-0.014714	0.921858	-0.094202	-0.095511	0.017262	39.044	-0.094534	-1.376489	-0.012541	NaN
222	1.000000	0.931227	7.36722e+06	-49739.1	955.818	-29758.4	0.000000	0.000000	6.931162	-0.014610	NaN	0.000000	0.001604	0.001692	28.0792	0.058874	0.001911	30.8045	-69.8471	-163.476	-0.015072	0.929835	-0.086142	-0.087534	-0.014610	30.8045	-0.085786	-0.858351	0.017021	NaN
222	1.000000	0.939198	7.36722e+06	-49739.1	955.819	-29758.4	0.000000	0.000000	6.939133	-0.006213	NaN	0.000000	0.001673	0.001696	28.0792	0.064770	0.001930	33.5637	-38.8241	-165.869	-0.010258	0.937920	-0.078171	-0.079449	-0.006213	33.5637	-0.078032	-0.552279	0.011251	NaN
222	1.000000	0.947172	7.36722e+06	-49739.1	955.818	-29758.4	0.000000	0.000000	6.947106	-0.027149	NaN	0.000000	0.001680	0.001721	28.0791	0.097076	0.001971	49.2448	-2.912578	-163.299	-0.087771	0.945894	-0.070197	-0.071475	-0.027149	49.2448	-0.069784	-0.336584	0.080661	NaN
222	1.000000	0.955202	7.36722e+06	-49739.1	955.818	-29758.4	0.000000	0.000000	6.955136	-0.031720	NaN	0.000000	0.001666	0.001669	28.0795	0.053584	0.002030	26.393	144.632	-160.896	-0.070395	0.953869	-0.062167	-0.063500	-0.031720	26.393	-0.061266	-0.195730	0.162058	NaN
222	1.000000	0.963189	7.36722e+06	-49739.1	955.818	-29758.4	0.000000	0.000000	6.963122	-0.058749	NaN	0.000000	0.001652	0.001714	28.0792	0.094549	0.001969	48.0066	-25.6518	-161.734	-0.084552	0.961890	-0.054180	-0.055480	-0.058749	48.0066	-0.053262	-0.114352	0.513757	NaN
222	1.000000	0.971215	7.36722e+06	-49739.1	955.819	-29758.4	0.000000	0.000000	6.971151	0.012852	NaN	0.000000	0.001642	0.001699	28.0792	0.042862	0.002026	21.1516	-93.0788	-164.337	-0.036396	0.969847	-0.046154	-0.047522	0.012852	21.1516	-0.046610	-0.071975	-0.178559	NaN
222	1.000000	0.979205	7.36722e+06	-49739.1	955.819	-29758.4	0.000000	0.000000	6.979140	-0.030886	NaN	0.000000	0.001589	0.001737	28.079	0.078679	0.001864	42.2042	9.875163	-162.281	-0.087795	0.977871	-0.038164	-0.039498	-0.030886	42.2042	-0.037615	-0.038308	0.806235	NaN
222	1.000000	0.987204	7.36722e+06	-49739.1	955.819	-29758.4	0.000000	0.000000	6.987139	-0.011027	NaN	0.000000	0.001602	0.001743	28.0791	0.048891	0.001973	24.7774	-109.24	-162.724	-0.047420	0.985850	-0.030165	-0.031519	-0.011027	24.7774	-0.029831	-0.022765	0.484396	NaN
222	1.000000	0.995199	7.36722e+06	-49739.1	955.818	-29758.4	0.000000	0.000000	6.995136	0.037158	NaN	0.000000	0.001592	0.001709	28.0794	0.110912	0.002028	54.6858	-127.504	-164.02	-0.031730	0.993878	-0.022170	-0.023492	0.037158	54.6858	-0.022679	-0.014696	-2.528404	NaN
222	1.000000	1.003216	7.36722e+06	-49739.1	955.818	-29758.4	0.000000	0.000000	7.003151	-0.031959	NaN	0.000000	0.001601	0.001698	28.0791	0.050000	0.001907	26.2169	100.16	-166.793	-0.035196	1.001902	-0.014153	-0.015468	-0.031959	26.2169	-0.013239	-0.008240	3.878481	NaN
222	1.000000	1.011216	7.36722e+06	-49739.1	955.818	-29758.4	0.000000	0.000000	7.011152	0.012373	NaN	0.000000	0.001613	0.001689	28.0794	0.140963	0.001893	74.4489	-46.0807	-161.53	0.051040	1.009877	-0.006153	-0.007493	0.012373	74.4489	-0.006278	-0.004205	-2.942134	NaN
222	1.000000	1.019201	7.36722e+06	-49739.1	955.82	-29758.4	0.000000	0.000000	7.019169	0.769756	NaN	0.000000	0.001611	0.001679	28.079	1.287119	0.001853	694.491	4.617639	-163.651	0.206594	1.017901	0.001832	0.000532	0.769756	694.491	0.001001	0.000763	1009.18	22974.6
222	1.000000	1.027104	7.36722e+06	-49739.1	955.819	-29758.4	0.000000	0.000000	7.027383	8.360796	NaN	0.000000	0.001609	0.001677	28.0791	8.378919	0.001685	4972.27	13.3271	-173.936	6.811460	1.025892	0.009735	0.008522	8.360796	4972.27	0.008474	0.007534	1109.73	52337.6
222	2.000000	1.029756	7.36722e+06	-49739.1	955.819	-29758.4	0.000000	0.000000	7.030168	11.5817	NaN	0.000000	0.001639	0.001692	28.0792	11.2421	0.001555	7231.21	7.185644	-173.96	11.2461	1.029394	0.012387	0.012025	11.5817	7231.21	0.011186	0.010529	1099.97	64385.8
222	2.000000	1.031757	7.36722e+06	-49739.1	955.818	-29758.4	0.000000	0.000000	7.032247	13.4866	NaN	0.000000	0.001622	0.001677	28.0791	13.9906	0.001803	7758.93	7.398863	-173.368	13.4219	1.031456	0.014388	0.014086	13.4866	7758.93	0.013084	0.012815	1052.4	62620.4
222	2.000000	1.033660	7.36722e+06	-49739.1	955.818	-29758.4	0.000000	0.000000	7.034413	19.88	NaN	0.000000	0.001626	0.001708	28.0796	16.064	0.001693	9489.54	5.382716	-174.581	17.8868	1.033425	0.016291	0.016055	19.88	9489.54	0.014720	0.014913	1333.04	70995.6
222	2.000000	1.035683	7.36722e+06	-49739.1	955.819	-29758.4	0.000000	0.000000	7.036625	24.4763	NaN	0.000000	0.001612	0.001671	28.0802	18.1478	0.001670	10866.5	1.986877	-172.177	23.2663	1.035391	0.018313	0.018021	24.4763	10866.5	0.016624	0.017512	1397.66	75022.6
222	2.000000	1.037731	7.36722e+06	-49739.1	955.817	-29758.4	0.000000	0.000000	7.038875	29.3917	NaN	0.000000	0.001618	0.001702	28.0804	20.7444	0.001814	11435.3	4.764138	-174.035	29.4867	1.037365	0.020362	0.019996	29.3917	11435.3	0.018434	0.020141	1459.3	73617.6
222	2.000000	1.039671	7.36722e+06	-49739.1	955.819	-29758.4	0.000000	0.000000	7.040887	31.1398	NaN	0.000000	0.001612	0.001659	28.0803	22.6355	0.001752	12922.4	3.936717	-175.707	30.4042	1.039385	0.022302	0.022016	31.1398	12922.4	0.020494	0.023325	1335.04	77304.8
222	2.000000	1.041673	7.36722e+06	-49739.1	955.818	-29758.4	0.000000	0.000000	7.043245	39.8168	NaN	0.000000	0.001599	0.001698	28.0804	25.432	0.001770	14367	10.0816	177.548	38.9628	1.041317	0.024303	0.023948	39.8168	14367	0.022225	0.026160	1522.07	81156.3
222	2.000000	1.043619	7.36722e+06	-49739.1	955.818	-29758.4	0.000000	0.000000	7.045429	45.5792	NaN	0.000000	0.001601	0.001696	28.081	26.5703	0.001831	14514	4.543378	-177.222	42.7564	1.043331	0.026250	0.025962	45.5792	14514	0.023894	0.029035	1569.8	77821.2
222	2.000000	1.045615	7.36722e+06	-49739.1	955.818	-29758.4	0.000000	0.000000	7.047768	53.9318	NaN	0.000000	0.001577	0.001648	28.0804	29.2164	0.001801	16225.2	5.352942	-179.269	51.5646	1.045284	0.028245	0.027915	53.9318	16225.2	0.025752	0.032398	1664.64	82356.9
222	2.000000	1.047656	7.36722e+06	-49739.1	955.819	-29758.4	0.000000	0.000000	7.049935	56.9915	NaN	0.000000	0.001606	0.001647	28.0802	30.9294	0.001817	17020.1	4.053770	-177.577	55.279	1.047323	0.030287	0.029954	56.9915	17020.1	0.027775	0.036259	1571.78	81663.1
222	2.000000	1.049599	7.36722e+06	-49739.1	955.818	-29758.4	0.000000	0.000000	7.052129	63.1145	NaN	0.000000	0.001590	0.001663	28.0802	32.8916	0.001697	19384.1	4.828404	178.604	60.2357	1.049355	0.032229	0.031985	63.1145	19384.1	0.029787	0.040304	1565.97	88215.7
222	2.000000	1.051614	7.36722e+06	-49739.1	955.82	-29758.4	0.000000	0.000000	7.054507	71.9333	NaN	0.000000	0.001580	0.001653	28.0802	35.0978	0.001851	18963.8	5.580407	179.557	69.957	1.051298	0.034245	0.033929	71.9333	18963.8	0.031400	0.043695	1646.27	82886.6
222	2.000000	1.053619	7.36722e+06	-49739.1	955.818	-29758.4	0.000000	0.000000	7.056873	80.7248	NaN	0.000000	0.001580	0.001674	28.0806	35.9426	0.001609	22333.6	4.503739	178.63	78.2769	1.053281	0.036249	0.035912	80.7248	22333.6	0.033538	0.048397	1667.96	92751.6
222	2.000000	1.055578	7.36722e+06	-49739.1	955.819	-29758.4	0.000000	0.000000	7.059022	85.3326	NaN	0.000000	0.001563	0.001654	28.0803	38.8377	0.001836	21158.3	3.899599	-179.784	82.2719	1.055336	0.038209	0.037967	85.3326	21158.3	0.035184	0.052175	1635.5	84629.4
222	2.000000	1.057636	7.36722e+06	-49739.1	955.818	-29758.4	0.000000	0.000000	7.061399	93.0875	NaN	0.000000	0.001588	0.001619	28.0808	41.4465	0.001697	24423.9	6.585587	176.025	91.1128	1.057355	0.040267	0.039986	93.0875	24423.9	0.037408	0.057502	1618.85	93056.2
222	2.000000	1.059617	7.36722e+06	-49739.1	955.819	-29758.4	0.000000	0.000000	7.063708	101.046	NaN	0.000000	0.001570	0.001618	28.0806	42.1319	0.001752	24050.3	2.943203	-179.706	99.2814	1.059230	0.042248	0.041861	101.046	24050.3	0.039097	0.061716	1637.27	88449.5
222	2.000000	1.061626	7.36722e+06	-49739.1	955.819	-29758.4	0.000000	0.000000	7.065887	105.184	NaN	0.000000	0.001595	0.001659	28.0803	44.9147	0.001800	24947.6	3.141162	179.044	103.925	1.061382	0.044257	0.044013	105.184	24947.6	0.041095	0.066889	1572.53	88130.3
222	2.000000	1.063624	7.36722e+06	-49739.1	955.818	-29758.4	0.000000	0.000000	7.068191	112.645	NaN	0.000000	0.001586	0.001660	28.0804	45.182	0.001737	26013	1.429669	-179.378	111.563	1.063362	0.046255	0.045992	112.645	26013	0.043007	0.072030	1563.86	88553.6
222	2.000000	1.065565	7.36722e+06	-49739.1	955.819	-29758.4	0.000000	0.000000	7.070783	128.463	NaN	0.000000	0.001597	0.001643	28.0803	48.6407	0.001884	25815.1	4.762626	178.331	124.904	1.065251	0.048196	0.047882	128.463	25815.1	0.044463	0.076071	1688.72	85513.7
222	2.000000	1.067647	7.36722e+06	-49739.1	955.819	-29758.4	0.000000	0.000000	7.073099	134.169	NaN	0.000000	0.001611	0.001659	28.0807	50.0816	0.001725	29040.3	4.209074	177.201	133.372	1.067369	0.050278	0.050000	134.169	29040.3	0.046812	0.082816	1620.1	92197.2
222	2.000000	1.069566	7.36722e+06	-49739.1	955.819	-29758.4	0.000000	0.000000	7.075469	145.124	NaN	0.000000	0.001647	0.001660	28.0796	51.6301	0.001625	31763.4	4.453814	175.68	143.459	1.069262	0.052197	0.051893	145.124	31763.4	0.048770	0.088649	1637.06	97468.3
222	2.000000	1.071558	7.36722e+06	-49739.1	955.819	-29758.4	0.000000	0.000000	7.077946	156.931	NaN	0.000000	0.001554	0.001636	28.0792	54.7411	0.001821	30059.6	4.712810	176.309	153.505	1.071306	0.054189	0.053937	156.931	30059.6	0.050273	0.093260	1682.73	89931.2
222	2.000000	1.073581	7.36722e+06	-49739.1	955.819	-29758.4	0.000000	0.000000	7.080349	166.14	NaN	0.000000	0.001568	0.001650	28.0792	56.1395	0.001878	29888.5	5.070283	176.466	163.425	1.073302	0.056212	0.055933	166.14	29888.5	0.052043	0.098833	1681.02	86861.4
222	2.000000	1.075524	7.36722e+06	-49739.1	955.819	-29758.4	0.000000	0.000000	7.082767	177.719	NaN	0.000000	0.001570	0.001673	28.0791	58.1387	0.001789	32499.1	4.558752	175.282	172.079	1.075223	0.058154	0.057853	177.719	32499.1	0.054053	0.105352	1686.91	91479.6
222	2.000000	1.077677	7.36722e+06	-49739.1	955.819	-29758.4	0.000000	0.000000	7.085445	190.482	NaN	0.000000	0.001598	0.001686	28.0792	60.5759	0.001796	33722.6	10.5855	171.181	192.45	1.077226	0.060308	0.059857	190.482	33722.6	0.056072	0.112100	1699.22	92022.1
222	2.000000	1.079583	7.36722e+06	-49739.1	955.82	-29758.4	0.000000	0.000000	7.087880	203.347	NaN	0.000000	0.001570	0.001668	28.079	61.857	0.001784	34679.9	8.116568	171.453	202.866	1.079262	0.062213	0.061893	203.347	34679.9	0.057816	0.118092	1721.93	92201.9
222	2.000000	1.081665	7.36722e+06	-49739.1	955.819	-29758.4	0.000000	0.000000	7.090194	208.986	NaN	0.000000	0.001591	0.001644	28.0794	64.9918	0.001860	34932.5	5.901060	173.773	211.359	1.081312	0.064296	0.063942	208.986	34932.5	0.059809	0.125123	1670.25	90226.7
222	2.000000	1.083621	7.36722e+06	-49739.1	955.82	-29758.4	0.000000	0.000000	7.092622	220.475	NaN	0.000000	0.001644	0.001670	28.0793	64.6322	0.001830	35313.9	2.723525	176.587	219.799	1.083330	0.066251	0.065960	220.475	35313.9	0.061569	0.131494	1676.69	88974.6
222	2.000000	1.085547	7.36722e+06	-49739.1	955.819	-29758.4	0.000000	0.000000	7.095332	239.522	NaN	0.000000	0.001623	0.001664	28.0791	67.4491	0.001811	37252.7	4.926556	174.862	236.421	1.085251	0.068178	0.067881	239.522	37252.7	0.063356	0.138115	1734.22	91582
222	2.000000	1.087552	7.36722e+06	-49739.1	955.819	-29758.4	0.000000	0.000000	7.097864	252.35	NaN	0.000000	0.001570	0.001686	28.0794	69.9036	0.001889	37009.2	5.001656	175.39	249.02	1.087134	0.070182	0.069765	252.35	37009.2	0.065068	0.144608	1745.06	88917.5
222	2.000000	1.089536	7.36722e+06	-49739.1	955.819	-29758.4	0.000000	0.000000	7.100218	261.339	NaN	0.000000	0.001597	0.001667	28.079	71.0448	0.001763	40288.5	2.770112	175.572	257.103	1.089384	0.072167	0.072014	261.339	40288.5	0.067302	0.153286	1704.91	94016.1
222	2.000000	1.091507	7.36722e+06	-49739.1	955.819	-29758.4	0.000000	0.000000	7.102822	276.761	NaN	0.000000	0.001597	0.001677	28.0793	74.8971	0.001871	40021.1	7.881599	170.722	272.176	1.091207	0.074137	0.073838	276.761	40021.1	0.068951	0.159847	1731.42	91455.8
222	2.000000	1.093559	7.36722e+06	-49739.1	955.819	-29758.4	0.000000	0.000000	7.105545	293.055	NaN	0.000000	0.001600	0.001671	28.0792	75.2816	0.001790	42060.1	4.289988	174.485	291.472	1.093264	0.076190	0.075895	293.055	42060.1	0.070964	0.168033	1744.04	93744.7
222	2.000000	1.095578	7.36722e+06	-49739.1	955.819	-29758.4	0.000000	0.000000	7.107777	298.225	NaN	0.000000	0.001605	0.001666	28.0793	77.0796	0.001773	43466.4	2.145256	176.036	297.074	1.095390	0.078209	0.078021	298.225	43466.4	0.073063	0.176772	1687.06	94453.9
222	2.000000	1.097688	7.36722e+06	-49739.1	955.819	-29758.4	0.000000	0.000000	7.110809	320.655	NaN	0.000000	0.001569	0.001715	28.0793	80.2032	0.001797	44621.5	5.839549	173.262	323.335	1.097270	0.080319	0.079901	320.655	44621.5	0.074929	0.184716	1735.93	94855.9
222	2.000000	1.099557	7.36722e+06	-49739.1	955.82	-29758.4	0.000000	0.000000	7.113463	339.753	NaN	0.000000	0.001604	0.001691	28.0791	80.8098	0.001737	46513.1	5.369255	172.831	338.435	1.099214	0.082188	0.081844	339.753	46513.1	0.076709	0.192447	1765.44	96870.9
222	2.000000	1.101544	7.36722e+06	-49739.1	955.819	-29758.4	0.000000	0.000000	7.115776	347.698	NaN	0.000000	0.001584	0.001683	28.0791	84.7212	0.001859	45579.8	4.927591	173.841	343.493	1.101093	0.084174	0.083723	347.698	45579.8	0.078453	0.200164	1737.07	93079.2
222	2.000000	1.103497	7.36722e+06	-49739.1	955.82	-29758.4	0.000000	0.000000	7.118336	362.445	NaN	0.000000	0.001611	0.001687	28.0793	85.7036	0.001775	48277.1	8.377847	168.48	359.913	1.103281	0.086127	0.085911	362.445	48277.1	0.080497	0.209389	1730.97	96391.4
222	2.000000	1.105452	7.36722e+06	-49739.1	955.82	-29758.4	0.000000	0.000000	7.120698	372.346	NaN	0.000000	0.001581	0.001643	28.0804	87.6735	0.001823	48085.2	2.723812	174.434	364.418	1.105209	0.088083	0.087840	372.346	48085.2	0.082275	0.217575	1711.34	94184.6
222	2.000000	1.107523	7.36722e+06	-49739.1	955.82	-29758.4	0.000000	0.000000	7.123727	395.646	NaN	0.000000	0.001587	0.001677	28.0803	89.1242	0.001724	51710.4	4.606852	172.216	392.181	1.107263	0.090154	0.089894	395.646	51710.4	0.084415	0.227620	1738.18	99025.1
222	2.000000	1.109532	7.36722e+06	-49739.1	955.819	-29758.4	0.000000	0.000000	7.126449	412.983	NaN	0.000000	0.001597	0.001703	28.0803	91.4439	0.001813	50435.3	7.888943	169.218	410.16	1.109130	0.092163	0.091761	412.983	50435.3	0.086022	0.235299	1755.14	94994.3
222	2.000000	1.111469	7.36722e+06	-49739.1	955.819	-29758.4	0.000000	0.000000	7.128923	426.044	NaN	0.000000	0.001606	0.001684	28.0807	92.7027	0.001825	50808.3	5.781105	171.554	420.157	1.111257	0.094099	0.093888	426.044	50808.3	0.087811	0.243991	1746.15	93976.8
222	2.000000	1.113503	7.36722e+06	-49739.1	955.819	-29758.4	0.000000	0.000000	7.131956	450.33	NaN	0.000000	0.001607	0.001665	28.0804	92.5177	0.001687	54853.7	3.555644	173.233	443.939	1.113027	0.096133	0.095658	450.33	54853.7	0.089976	0.254710	1768.01	99301.5
222	2.000000	1.115455	7.36722e+06	-49739.1	955.819	-29758.4	0.000000	0.000000	7.134080	454.527	NaN	0.000000	0.001601	0.001716	28.0805	94.9962	0.001654	57436.2	0.441761	175.606	447.568	1.115254	0.098085	0.097884	454.527	57436.2	0.092150	0.265686	1710.77	101806
222	2.000000	1.117594	7.36722e+06	-49739.1	955.819	-29758.4	0.000000	0.000000	7.137192	478.18	NaN	0.000000	0.001607	0.001705	28.0806	98.7919	0.001848	53459.7	2.051071	175.265	476.372	1.117204	0.100225	0.099835	478.18	53459.7	0.093516	0.272696	1753.53	93532.1
222	2.000000	1.119438	7.36722e+06	-49739.1	955.819	-29758.4	0.000000	0.000000	7.139319	485.052	NaN	0.000000	0.001576	0.001698	28.0805	100.511	0.001829	54954.9	2.269744	174.119	477.986	1.119232	0.102069	0.101863	485.052	54954.9	0.095449	0.282757	1715.44	94422
222	2.000000	1.121578	7.36722e+06	-49739.1	955.819	-29758.4	0.000000	0.000000	7.142240	504.07	NaN	0.000000	0.001565	0.001694	28.0806	104.222	0.001774	58746.1	6.858439	168.457	504.168	1.121366	0.104208	0.103997	504.07	58746.1	0.097773	0.295080	1708.25	98805.8
222	2.000000	1.123595	7.36722e+06	-49739.1	955.818	-29758.4	0.000000	0.000000	7.144930	520.408	NaN	0.000000	0.001584	0.001673	28.0803	103.818	0.001702	60998.8	3.149331	172.586	520.433	1.123293	0.106226	0.105924	520.408	60998.8	0.099828	0.306178	1699.69	100718
222	2.000000	1.125625	7.36722e+06	-49739.1	955.819	-29758.4	0.000000	0.000000	7.147880	542.805	NaN	0.000000	0.001608	0.001678	28.0807	107.245	0.001888	56818.2	7.361666	169.347	545.69	1.125165	0.108255	0.107796	542.805	56818.2	0.101090	0.313097	1733.67	92773.1
222	2.000000	1.126382	7.36722e+06	-49739.1	955.818	-29758.4	0.000000	0.000000	7.148934	550.023	NaN	0.000000	0.001617	0.001673	28.0806	106.432	0.001812	58729.8	4.405021	171.342	540.442	1.126173	0.109013	0.108804	550.023	58729.8	0.101989	0.318061	1729.3	95142.8