File: remote_trans/data/nanoindenter/0828-1/data/Data_2025-08-06,11h17m57s/2025-07-22_16-23-58_1_480.txt
2025-07-22, 16:23:58, 1
Index	Phase	Displacement	Time	Pos X	Pos Y	Pos Z	Rot A	Rot B	Piezo Z	Force A	Force B	Gripper	Voltage A	Voltage B	Temperature	Amplitude force	Amplitude pos	Stiffness	Phase shift	Phase excitation	Force A raw	Displacement raw	HMax	HMax raw	Real Force	Real Stiffness	Contact Depth	Area	Hardness	Reduced Mod.
[#]	[#]	[um]	[s]	[um]	[um]	[um]	[m°]	[m°]	[um]	[uN]	[uN]	[V]	[V]	[V]	[°C]	[uN]	[um]	[N/m]	[°]	[°]	[uN]	[um]	[um]	[um]	[uN]	[N/m]	[um]	[um^2]	[MPa]	[MPa]
480	1.000000	0.002458	7.36975e+06	-53089.1	1005.82	-29747.4	0.000000	0.000000	6.002815	-0.033206	NaN	0.000000	0.001631	0.001714	28.0805	0.061840	0.001004	61.5853	-76.7286	-167.986	-0.018394	0.001218	-1.081790	-1.083029	-0.033206	61.5853	-1.081386	-2.819217E+14	1.177856E-16	NaN
480	1.000000	0.010415	7.36975e+06	-53089.1	1005.82	-29747.4	0.000000	0.000000	6.010773	-0.032319	NaN	0.000000	0.001632	0.001735	28.0806	0.073961	0.000988	74.857	-73.4378	-162.769	-0.038282	0.009120	-1.073832	-1.075128	-0.032319	74.857	-1.073508	-2.209644E+14	1.462639E-16	NaN
480	1.000000	0.018398	7.36975e+06	-53089.1	1005.82	-29747.4	0.000000	0.000000	6.018758	0.018761	NaN	0.000000	0.001619	0.001718	28.0807	0.098077	0.001671	58.698	161.844	-162.36	0.024533	0.017062	-1.065850	-1.067186	0.018761	58.698	-1.066090	-1.756510E+14	-1.068111E-16	NaN
480	1.000000	0.026397	7.36975e+06	-53089.1	1005.82	-29747.4	0.000000	0.000000	6.026758	0.048191	NaN	0.000000	0.001589	0.001743	28.0808	0.081942	0.001859	44.0817	-52.1968	-165.442	0.050164	0.025081	-1.057850	-1.059166	0.048191	44.0817	-1.058670	-1.396210E+14	-3.451560E-16	NaN
480	1.000000	0.034405	7.36975e+06	-53089.1	1005.82	-29747.4	0.000000	0.000000	6.034765	0.024140	NaN	0.000000	0.001600	0.001739	28.0806	0.101661	0.001930	52.6849	15.7203	-165.679	0.091587	0.033071	-1.049843	-1.051176	0.024140	52.6849	-1.050186	-1.073788E+14	-2.248146E-16	NaN
480	1.000000	0.042390	7.36975e+06	-53089.1	1005.82	-29747.4	0.000000	0.000000	6.042752	0.062185	NaN	0.000000	0.001604	0.001719	28.0809	0.103524	0.001947	53.1676	13.7027	-163.522	0.043929	0.041106	-1.041857	-1.043141	0.062185	53.1676	-1.042734	-8.525783E+13	-7.293764E-16	NaN
480	1.000000	0.050389	7.36975e+06	-53089.1	1005.82	-29747.4	0.000000	0.000000	6.050748	-0.005181	NaN	0.000000	0.001621	0.001755	28.0819	0.100900	0.001972	51.156	107.655	-167.85	0.059379	0.049114	-1.033858	-1.035133	-0.005181	51.156	-1.033782	-6.461818E+13	8.018108E-17	NaN
480	1.000000	0.058398	7.36975e+06	-53089.1	1005.82	-29747.4	0.000000	0.000000	6.058757	-0.015839	NaN	0.000000	0.001619	0.001722	28.082	0.017430	0.002071	8.416395	-44.9058	-164.77	-0.023478	0.057012	-1.025849	-1.027236	-0.015839	8.416395	-1.024438	-4.837955E+13	3.273867E-16	NaN
480	1.000000	0.066382	7.36975e+06	-53089.1	1005.82	-29747.4	0.000000	0.000000	6.066742	0.017221	NaN	0.000000	0.001599	0.001731	28.0819	0.032945	0.002016	16.3418	22.3891	-166.631	0.029778	0.065104	-1.017866	-1.019143	0.017221	16.3418	-1.018656	-4.044515E+13	-4.257763E-16	NaN
480	1.000000	0.074417	7.36975e+06	-53089.1	1005.82	-29747.4	0.000000	0.000000	6.074776	0.011532	NaN	0.000000	0.001632	0.001734	28.0819	0.060881	0.002135	28.5132	-4.089084	-164.386	-0.040173	0.073096	-1.009831	-1.011152	0.011532	28.5132	-1.010134	-3.105908E+13	-3.712866E-16	NaN
480	1.000000	0.082397	7.36975e+06	-53089.1	1005.82	-29747.4	0.000000	0.000000	6.082757	0.028384	NaN	0.000000	0.001648	0.001762	28.082	0.070107	0.002044	34.2996	-74.4312	-168.085	0.037344	0.081137	-1.001851	-1.003111	0.028384	34.2996	-1.002471	-2.449281E+13	-1.158863E-15	NaN
480	1.000000	0.090392	7.36975e+06	-53089.1	1005.82	-29747.4	0.000000	0.000000	6.090750	-0.019996	NaN	0.000000	0.001614	0.001766	28.0818	0.049423	0.001944	25.4273	92.1418	-165.686	-0.043309	0.089147	-0.993856	-0.995101	-0.019996	25.4273	-0.993266	-1.841181E+13	1.086027E-15	NaN
480	1.000000	0.098409	7.36975e+06	-53089.1	1005.82	-29747.4	0.000000	0.000000	6.098769	0.020450	NaN	0.000000	0.001613	0.001773	28.082	0.096210	0.001943	49.5241	-81.7057	-168.707	0.091849	0.097081	-0.985838	-0.987166	0.020450	49.5241	-0.986148	-1.476483E+13	-1.385064E-15	NaN
480	1.000000	0.106423	7.36975e+06	-53089.1	1005.82	-29747.4	0.000000	0.000000	6.106783	0.018873	NaN	0.000000	0.001646	0.001729	28.0819	0.070485	0.002032	34.679	113.805	-166.363	0.074256	0.105090	-0.977824	-0.979157	0.018873	34.679	-0.978233	-1.155043E+13	-1.633933E-15	NaN
480	1.000000	0.114417	7.36975e+06	-53089.1	1005.82	-29747.4	0.000000	0.000000	6.114780	0.085770	NaN	0.000000	0.001620	0.001735	28.0817	0.114102	0.001862	61.292	-144.695	-168.643	0.019062	0.113103	-0.969831	-0.971144	0.085770	61.292	-0.970880	-9.194435E+12	-9.328441E-15	NaN
480	1.000000	0.122424	7.36975e+06	-53089.1	1005.82	-29747.4	0.000000	0.000000	6.122786	0.051541	NaN	0.000000	0.001608	0.001758	28.0817	0.040520	0.002227	18.1927	-125.715	-164.775	0.054753	0.121100	-0.961823	-0.963148	0.051541	18.1927	-0.963948	-7.414624E+12	-6.951302E-15	NaN
480	1.000000	0.130410	7.36975e+06	-53089.1	1005.82	-29747.4	0.000000	0.000000	6.130764	-0.111525	NaN	0.000000	0.001610	0.001760	28.0816	0.019740	0.002024	9.754420	-6.726015	-170.038	-0.030450	0.129090	-0.953838	-0.955157	-0.111525	9.754420	-0.945263	-4.150822E+12	2.686821E-14	NaN
480	1.000000	0.138410	7.36975e+06	-53089.1	1005.82	-29747.4	0.000000	0.000000	6.138773	0.087042	NaN	0.000000	0.001616	0.001767	28.083	0.057193	0.002084	27.4477	109.432	-163.717	0.070390	0.137096	-0.945837	-0.947151	0.087042	27.4477	-0.948215	-4.549453E+12	-1.913230E-14	NaN
480	1.000000	0.146416	7.36975e+06	-53089.1	1005.82	-29747.4	0.000000	0.000000	6.146776	0.012552	NaN	0.000000	0.001605	0.001758	28.082	0.026039	0.001901	13.6944	-101.873	-163.704	-0.064821	0.145039	-0.937831	-0.939209	0.012552	13.6944	-0.938519	-3.366287E+12	-3.728760E-15	NaN
480	1.000000	0.154430	7.36975e+06	-53089.1	1005.82	-29747.4	0.000000	0.000000	6.154792	0.049632	NaN	0.000000	0.001605	0.001769	28.0817	0.058619	0.001940	30.2195	161.149	-168.251	0.029811	0.153118	-0.929817	-0.931129	0.049632	30.2195	-0.931049	-2.669027E+12	-1.859553E-14	NaN
480	1.000000	0.162451	7.36975e+06	-53089.1	1005.82	-29747.4	0.000000	0.000000	6.162812	0.030115	NaN	0.000000	0.001591	0.001746	28.0816	0.112955	0.002099	53.8174	12.0713	-164.739	0.051198	0.161127	-0.921796	-0.923120	0.030115	53.8174	-0.922216	-2.028274E+12	-1.484742E-14	NaN
480	1.000000	0.170394	7.36975e+06	-53089.1	1005.82	-29747.4	0.000000	0.000000	6.170755	0.031760	NaN	0.000000	0.001669	0.001763	28.0819	0.118356	0.002087	56.7042	-151.528	-163.409	-0.018148	0.169090	-0.913853	-0.915158	0.031760	56.7042	-0.914273	-1.584442E+12	-2.004469E-14	NaN
480	1.000000	0.178445	7.36975e+06	-53089.1	1005.82	-29747.4	0.000000	0.000000	6.178805	0.021685	NaN	0.000000	0.001689	0.001765	28.0822	0.076026	0.001899	40.0274	-145.555	-163.849	-0.034549	0.177146	-0.905802	-0.907101	0.021685	40.0274	-0.906208	-1.232954E+12	-1.758768E-14	NaN
480	1.000000	0.186440	7.36975e+06	-53089.1	1005.82	-29747.4	0.000000	0.000000	6.186800	0.019703	NaN	0.000000	0.001703	0.001747	28.0807	0.096132	0.001951	49.2827	-57.4989	-166.201	-0.001898	0.185169	-0.897807	-0.899078	0.019703	49.2827	-0.898107	-9.582657E+11	-2.056098E-14	NaN
480	1.000000	0.194464	7.36975e+06	-53089.1	1005.82	-29747.4	0.000000	0.000000	6.194826	0.061375	NaN	0.000000	0.001662	0.001754	28.0808	0.095251	0.001970	48.3412	-45.6837	-164.599	0.095361	0.193148	-0.889783	-0.891099	0.061375	48.3412	-0.890736	-7.618315E+11	-8.056204E-14	NaN
480	1.000000	0.202473	7.36975e+06	-53089.1	1005.82	-29747.4	0.000000	0.000000	6.202838	0.115495	NaN	0.000000	0.001669	0.001765	28.0809	0.067448	0.001925	35.0421	-18.9296	-166.028	0.051265	0.201137	-0.881774	-0.883110	0.115495	35.0421	-0.884246	-6.224767E+11	-1.855416E-13	NaN
480	1.000000	0.210462	7.36975e+06	-53089.1	1005.82	-29747.4	0.000000	0.000000	6.210823	0.050430	NaN	0.000000	0.001657	0.001740	28.0807	0.147250	0.001979	74.4014	-154.578	-169.244	-0.010610	0.209141	-0.873786	-0.875106	0.050430	74.4014	-0.874294	-4.566002E+11	-1.104461E-13	NaN
480	1.000000	0.218471	7.36975e+06	-53089.1	1005.82	-29747.4	0.000000	0.000000	6.218834	0.094616	NaN	0.000000	0.001681	0.001722	28.0808	0.058153	0.001967	29.5712	-79.5147	-163.206	0.124705	0.217079	-0.865777	-0.867168	0.094616	29.5712	-0.868176	-3.773731E+11	-2.507236E-13	NaN
480	1.000000	0.226482	7.36975e+06	-53089.1	1005.82	-29747.4	0.000000	0.000000	6.226840	-0.041223	NaN	0.000000	0.001653	0.001733	28.0808	0.048842	0.002126	22.9711	-131.536	-165.815	-0.032096	0.225173	-0.857765	-0.859075	-0.041223	22.9711	-0.856420	-2.616099E+11	1.575751E-13	NaN
480	1.000000	0.234483	7.36975e+06	-53089.1	1005.82	-29747.4	0.000000	0.000000	6.234843	0.007027	NaN	0.000000	0.001662	0.001757	28.0809	0.076119	0.002014	37.8023	76.1967	-165.569	0.029929	0.233136	-0.849764	-0.851112	0.007027	37.8023	-0.849904	-2.135167E+11	-3.290871E-14	NaN
480	1.000000	0.242483	7.36975e+06	-53089.1	1005.82	-29747.4	0.000000	0.000000	6.242844	0.028274	NaN	0.000000	0.001622	0.001710	28.0811	0.104392	0.001981	52.6991	15.7694	-166.001	0.056415	0.241150	-0.841764	-0.843098	0.028274	52.6991	-0.842166	-1.677421E+11	-1.685544E-13	NaN
480	1.000000	0.250480	7.36975e+06	-53089.1	1005.82	-29747.4	0.000000	0.000000	6.250842	0.073156	NaN	0.000000	0.001633	0.001729	28.0811	0.094573	0.002039	46.3897	137.769	-163.046	-0.001841	0.249165	-0.833768	-0.835083	0.073156	46.3897	-0.834951	-1.339294E+11	-5.462262E-13	NaN
480	1.000000	0.258464	7.36975e+06	-53089.1	1005.82	-29747.4	0.000000	0.000000	6.258826	0.058910	NaN	0.000000	0.001619	0.001722	28.0809	0.061562	0.002031	30.315	106.2	-167.468	0.079597	0.257169	-0.825783	-0.827079	0.058910	30.315	-0.827241	-1.052885E+11	-5.595127E-13	NaN
480	1.000000	0.266463	7.36975e+06	-53089.1	1005.82	-29747.4	0.000000	0.000000	6.266824	0.030999	NaN	0.000000	0.001677	0.001753	28.0807	0.073521	0.001918	38.3382	98.6095	-166.571	0.048790	0.265203	-0.817784	-0.819044	0.030999	38.3382	-0.818391	-7.987055E+10	-3.881154E-13	NaN
480	1.000000	0.274479	7.36975e+06	-53089.1	1005.82	-29747.4	0.000000	0.000000	6.274836	-0.044514	NaN	0.000000	0.001635	0.001757	28.0809	0.041255	0.001963	21.0162	128.266	-165.695	-0.093432	0.273198	-0.809769	-0.811050	-0.044514	21.0162	-0.808180	-5.806029E+10	7.666910E-13	NaN
480	1.000000	0.282473	7.36975e+06	-53089.1	1005.82	-29747.4	0.000000	0.000000	6.282832	-0.007402	NaN	0.000000	0.001603	0.001700	28.0808	0.130915	0.002076	63.059	-80.0059	-166.861	-0.012456	0.281208	-0.801774	-0.803040	-0.007402	63.059	-0.801686	-4.739694E+10	1.561711E-13	NaN
480	1.000000	0.290488	7.36975e+06	-53089.1	1005.82	-29747.4	0.000000	0.000000	6.290847	0.005307	NaN	0.000000	0.001566	0.001740	28.0809	0.016682	0.002028	8.227235	-85.0156	-169.421	0.025380	0.289194	-0.793760	-0.795053	0.005307	8.227235	-0.794244	-3.755871E+10	-1.412997E-13	NaN
480	1.000000	0.298496	7.36975e+06	-53089.1	1005.82	-29747.4	0.000000	0.000000	6.298855	-0.004096	NaN	0.000000	0.001607	0.001711	28.0809	0.111882	0.002214	50.5422	-154.961	-165.372	-0.062570	0.297151	-0.785751	-0.787096	-0.004096	50.5422	-0.785691	-2.874415E+10	1.424949E-13	NaN
480	1.000000	0.306487	7.36975e+06	-53089.1	1005.82	-29747.4	0.000000	0.000000	6.306848	0.038055	NaN	0.000000	0.001638	0.001706	28.081	0.063139	0.002012	31.3782	20.167	-163.666	0.061927	0.305155	-0.777760	-0.779093	0.038055	31.3782	-0.778670	-2.307563E+10	-1.649153E-12	NaN
480	1.000000	0.314513	7.36975e+06	-53089.1	1005.82	-29747.4	0.000000	0.000000	6.314872	-0.013969	NaN	0.000000	0.001639	0.001779	28.0808	0.088543	0.001999	44.2933	-30.0341	-164.144	-0.059352	0.313205	-0.769734	-0.771043	-0.013969	44.2933	-0.769498	-1.731711E+10	8.066605E-13	NaN
480	1.000000	0.322479	7.36975e+06	-53089.1	1005.82	-29747.4	0.000000	0.000000	6.322839	0.009212	NaN	0.000000	0.001630	0.001820	28.0821	0.021190	0.001993	10.6307	-37.0874	-166.054	0.052207	0.321232	-0.761769	-0.763016	0.009212	10.6307	-0.762418	-1.387399E+10	-6.639599E-13	NaN
480	1.000000	0.330496	7.36975e+06	-53089.1	1005.82	-29747.4	0.000000	0.000000	6.330860	0.117937	NaN	0.000000	0.001599	0.001792	28.0821	0.097132	0.001995	48.6944	-159.779	-170.087	0.142616	0.329207	-0.753751	-0.755041	0.117937	48.6944	-0.755568	-1.119434E+10	-1.053538E-11	NaN
480	1.000000	0.338519	7.36975e+06	-53089.1	1005.82	-29747.4	0.000000	0.000000	6.338879	0.004788	NaN	0.000000	0.001659	0.001836	28.0825	0.076130	0.002064	36.8903	90.8337	-165.157	0.033304	0.337206	-0.745728	-0.747042	0.004788	36.8903	-0.745825	-8.248716E+9	-5.804887E-13	NaN
480	1.000000	0.346513	7.36975e+06	-53089.1	1005.82	-29747.4	0.000000	0.000000	6.346874	0.026273	NaN	0.000000	0.001611	0.001801	28.0822	0.125633	0.002073	60.6061	-7.637772	-163.569	-0.038345	0.345201	-0.737734	-0.739047	0.026273	60.6061	-0.738059	-6.465810E+9	-4.063397E-12	NaN
480	1.000000	0.354539	7.36975e+06	-53089.1	1005.82	-29747.4	0.000000	0.000000	6.354900	0.025164	NaN	0.000000	0.001613	0.001782	28.0819	0.084575	0.002024	41.7759	132.392	-168.89	0.058658	0.353248	-0.729708	-0.730999	0.025164	41.7759	-0.730160	-5.046465E+9	-4.986467E-12	NaN
480	1.000000	0.362494	7.36975e+06	-53089.1	1005.82	-29747.4	0.000000	0.000000	6.362852	-0.022016	NaN	0.000000	0.001601	0.001823	28.0824	0.024360	0.002032	11.9883	-110.373	-165.561	-0.033544	0.361237	-0.721753	-0.723010	-0.022016	11.9883	-0.720376	-3.711949E+9	5.931241E-12	NaN
480	1.000000	0.370511	7.36975e+06	-53089.1	1005.82	-29747.4	0.000000	0.000000	6.370868	-0.047467	NaN	0.000000	0.001591	0.001818	28.0822	0.041347	0.002124	19.4672	-83.9304	-164.488	-0.027959	0.369189	-0.713737	-0.715058	-0.047467	19.4672	-0.711908	-2.845022E+9	1.668432E-11	NaN
480	1.000000	0.378517	7.36975e+06	-53089.1	1005.82	-29747.4	0.000000	0.000000	6.378876	0.013022	NaN	0.000000	0.001581	0.001785	28.0821	0.083726	0.002068	40.4819	138.222	-167.604	0.002350	0.377184	-0.705731	-0.707063	0.013022	40.4819	-0.705972	-2.360869E+9	-5.515684E-12	NaN
480	1.000000	0.386518	7.36975e+06	-53089.1	1005.82	-29747.4	0.000000	0.000000	6.386877	-0.012482	NaN	0.000000	0.001593	0.001802	28.0818	0.083727	0.001956	42.8157	-127.263	-164.17	-0.014477	0.385241	-0.697729	-0.699006	-0.012482	42.8157	-0.697510	-1.809378E+9	6.898482E-12	NaN
480	1.000000	0.394516	7.36975e+06	-53089.1	1005.82	-29747.4	0.000000	0.000000	6.394878	0.067153	NaN	0.000000	0.001555	0.001841	28.082	0.135553	0.001982	68.3973	-7.929013	-163.363	0.053008	0.393220	-0.689732	-0.691027	0.067153	68.3973	-0.690468	-1.449828E+9	-4.631799E-11	NaN
480	1.000000	0.402534	7.36975e+06	-53089.1	1005.82	-29747.4	0.000000	0.000000	6.402897	0.071021	NaN	0.000000	0.001590	0.001818	28.0824	0.023683	0.001984	11.937	-39.2446	-165.406	0.058179	0.401225	-0.681713	-0.683023	0.071021	11.937	-0.686175	-1.266611E+9	-5.607189E-11	NaN
480	1.000000	0.410558	7.36975e+06	-53089.1	1005.82	-29747.4	0.000000	0.000000	6.410920	0.055184	NaN	0.000000	0.001616	0.001776	28.0822	0.083690	0.001878	44.5604	10.0065	-168.161	0.125296	0.409221	-0.673689	-0.675026	0.055184	44.5604	-0.674618	-8.802114E+8	-6.269445E-11	NaN
480	1.000000	0.418544	7.36975e+06	-53089.1	1005.82	-29747.4	0.000000	0.000000	6.418907	0.099113	NaN	0.000000	0.001617	0.001792	28.0824	0.041331	0.002097	19.7122	40.0733	-162.885	0.149153	0.417199	-0.665704	-0.667048	0.099113	19.7122	-0.669475	-7.485212E+8	-1.324118E-10	NaN
480	1.000000	0.426567	7.36975e+06	-53089.1	1005.82	-29747.4	0.000000	0.000000	6.426926	0.008241	NaN	0.000000	0.001579	0.001823	28.0821	0.041579	0.002001	20.7762	-23.0315	-163.697	0.006682	0.425245	-0.657681	-0.659003	0.008241	20.7762	-0.657978	-5.209224E+8	-1.581979E-11	NaN
480	1.000000	0.434538	7.36975e+06	-53089.1	1005.82	-29747.4	0.000000	0.000000	6.434897	-0.004683	NaN	0.000000	0.001602	0.001816	28.0827	0.041852	0.002051	20.4046	-132.448	-165.837	0.066786	0.433253	-0.649709	-0.650995	-0.004683	20.4046	-0.649537	-3.991115E+8	1.173367E-11	NaN
480	1.000000	0.442548	7.36975e+06	-53089.1	1005.82	-29747.4	0.000000	0.000000	6.442910	0.067209	NaN	0.000000	0.001613	0.001761	28.0823	0.056043	0.001778	31.5278	102.8	-166.331	0.027880	0.441229	-0.641700	-0.643019	0.067209	31.5278	-0.643298	-3.277468E+8	-2.050630E-10	NaN
480	1.000000	0.450543	7.36975e+06	-53089.1	1005.82	-29747.4	0.000000	0.000000	6.450905	0.057043	NaN	0.000000	0.001608	0.001772	28.0822	0.060173	0.001879	32.0318	-47.7199	-165.821	0.069576	0.449275	-0.633704	-0.634973	0.057043	32.0318	-0.635040	-2.524769E+8	-2.259348E-10	NaN
480	1.000000	0.458566	7.36975e+06	-53089.1	1005.82	-29747.4	0.000000	0.000000	6.458927	0.022078	NaN	0.000000	0.001619	0.001770	28.081	0.016922	0.002058	8.223670	-8.291535	-166.727	-0.006061	0.457263	-0.625681	-0.626984	0.022078	8.223670	-0.627695	-2.001525E+8	-1.103036E-10	NaN
480	1.000000	0.466585	7.36975e+06	-53089.1	1005.82	-29747.4	0.000000	0.000000	6.466944	-0.010763	NaN	0.000000	0.001634	0.001788	28.0807	0.030684	0.001914	16.0304	-77.4723	-165.896	-0.066331	0.465264	-0.617662	-0.618983	-0.010763	16.0304	-0.617159	-1.434072E+8	7.505204E-11	NaN
480	1.000000	0.474536	7.36975e+06	-53089.1	1005.82	-29747.4	0.000000	0.000000	6.474894	-0.049718	NaN	0.000000	0.001639	0.001806	28.0809	0.051704	0.002004	25.7981	-125.696	-165.483	-0.010464	0.473304	-0.609711	-0.610943	-0.049718	25.7981	-0.608266	-1.082055E+8	4.594741E-10	NaN
480	1.000000	0.482587	7.36975e+06	-53089.1	1005.82	-29747.4	0.000000	0.000000	6.482947	0.021378	NaN	0.000000	0.001626	0.001821	28.0808	0.076741	0.001915	40.065	-124.337	-167.031	0.038857	0.481181	-0.601660	-0.603066	0.021378	40.065	-0.602061	-8.888683E+7	-2.405039E-10	NaN
480	1.000000	0.490562	7.36975e+06	-53089.1	1005.82	-29747.4	0.000000	0.000000	6.490922	0.020000	NaN	0.000000	0.001639	0.001823	28.0811	0.064322	0.001928	33.3572	96.5525	-163.374	-0.046889	0.489310	-0.593686	-0.594937	0.020000	33.3572	-0.594135	-6.912984E+7	-2.893121E-10	NaN
480	1.000000	0.498554	7.36975e+06	-53089.1	1005.82	-29747.4	0.000000	0.000000	6.498915	0.041236	NaN	0.000000	0.001630	0.001797	28.0808	0.037117	0.001943	19.101	-159.245	-163.768	0.048600	0.497262	-0.585694	-0.586985	0.041236	19.101	-0.587313	-5.566882E+7	-7.407326E-10	NaN
480	1.000000	0.506586	7.36975e+06	-53089.1	1005.82	-29747.4	0.000000	0.000000	6.506946	0.005524	NaN	0.000000	0.001627	0.001772	28.0807	0.071603	0.002050	34.9245	-16.1463	-165.239	0.109237	0.505219	-0.577661	-0.579029	0.005524	34.9245	-0.577780	-4.112265E+7	-1.343342E-10	NaN
480	1.000000	0.514581	7.36975e+06	-53089.1	1005.82	-29747.4	0.000000	0.000000	6.514941	0.010145	NaN	0.000000	0.001634	0.001779	28.0809	0.040072	0.002070	19.3615	-138.817	-164.086	-0.028345	0.513260	-0.569666	-0.570988	0.010145	19.3615	-0.570059	-3.216965E+7	-3.153457E-10	NaN
480	1.000000	0.522588	7.36975e+06	-53089.1	1005.82	-29747.4	0.000000	0.000000	6.522948	0.008833	NaN	0.000000	0.001625	0.001794	28.0808	0.092745	0.002145	43.2311	47.0003	-166.964	0.051869	0.521299	-0.561659	-0.562948	0.008833	43.2311	-0.561812	-2.474267E+7	-3.569786E-10	NaN
480	1.000000	0.530561	7.36975e+06	-53089.1	1005.82	-29747.4	0.000000	0.000000	6.530921	0.011167	NaN	0.000000	0.001621	0.001825	28.081	0.054283	0.002067	26.2599	-157.255	-168.301	0.018760	0.529278	-0.553686	-0.554970	0.011167	26.2599	-0.554005	-1.929389E+7	-5.787899E-10	NaN
480	1.000000	0.538581	7.36975e+06	-53089.1	1005.82	-29747.4	0.000000	0.000000	6.538941	0.032229	NaN	0.000000	0.001625	0.001804	28.0808	0.124338	0.001994	62.3715	175.893	-167.859	-0.064020	0.537250	-0.545667	-0.546997	0.032229	62.3715	-0.546054	-1.497244E+7	-2.152539E-9	NaN
480	1.000000	0.546607	7.36975e+06	-53089.1	1005.82	-29747.4	0.000000	0.000000	6.546967	0.005121	NaN	0.000000	0.001593	0.001786	28.0808	0.099108	0.002077	47.707	80.9298	-166.048	0.032738	0.545314	-0.537640	-0.538934	0.005121	47.707	-0.537721	-1.147470E+7	-4.462668E-10	NaN
480	1.000000	0.554566	7.36975e+06	-53089.1	1005.82	-29747.4	0.000000	0.000000	6.554928	0.066534	NaN	0.000000	0.001614	0.001808	28.0808	0.086071	0.001999	43.0489	-165.869	-166.961	0.051857	0.553270	-0.529682	-0.530978	0.066534	43.0489	-0.530841	-9.20985e+06	-7.224259E-9	NaN
480	1.000000	0.562603	7.36975e+06	-53089.1	1005.82	-29747.4	0.000000	0.000000	6.562963	0.023820	NaN	0.000000	0.001599	0.001773	28.0808	0.075735	0.001893	40.0072	164.806	-166.843	-0.007146	0.561321	-0.521644	-0.522926	0.023820	40.0072	-0.522091	-6.96101e+06	-3.421850E-9	NaN
480	1.000000	0.570599	7.36975e+06	-53089.1	1005.82	-29747.4	0.000000	0.000000	6.570958	-0.011292	NaN	0.000000	0.001624	0.001815	28.0811	0.038313	0.002086	18.3689	-15.995	-164.145	0.035748	0.569319	-0.513649	-0.514929	-0.011292	18.3689	-0.513187	-5.23362e+06	2.157583E-9	NaN
480	1.000000	0.578636	7.36975e+06	-53089.1	1005.82	-29747.4	0.000000	0.000000	6.578993	-0.053262	NaN	0.000000	0.001603	0.001788	28.0808	0.090865	0.001993	45.5849	-140.094	-168.046	0.037275	0.577279	-0.505611	-0.506969	-0.053262	45.5849	-0.504735	-3.9907e+06	1.334651E-8	NaN
480	1.000000	0.586621	7.36975e+06	-53089.1	1005.82	-29747.4	0.000000	0.000000	6.586981	0.008568	NaN	0.000000	0.001617	0.001790	28.081	0.041421	0.001941	21.3427	4.714849	-164.679	-0.102167	0.585318	-0.497626	-0.498930	0.008568	21.3427	-0.497928	-3.20701e+06	-2.671656E-9	NaN
480	1.000000	0.594636	7.36975e+06	-53089.1	1005.82	-29747.4	0.000000	0.000000	6.594996	0.003590	NaN	0.000000	0.001617	0.001798	28.0821	0.011853	0.002075	5.712630	-171.297	-164.419	-0.068331	0.593334	-0.489611	-0.490913	0.003590	5.712630	-0.490082	-2.49197e+06	-1.440451E-9	NaN
480	1.000000	0.602644	7.36975e+06	-53089.1	1005.82	-29747.4	0.000000	0.000000	6.603003	-0.002921	NaN	0.000000	0.001613	0.001817	28.0818	0.078087	0.002029	38.4916	176.137	-169.192	0.007054	0.601374	-0.481604	-0.482873	-0.002921	38.4916	-0.481547	-1.89311e+06	1.543113E-9	NaN
480	1.000000	0.610604	7.36975e+06	-53089.1	1005.82	-29747.4	0.000000	0.000000	6.610960	-0.075048	NaN	0.000000	0.001643	0.001780	28.0818	0.056113	0.001953	28.7314	-105.222	-166.006	-0.045306	0.609288	-0.473644	-0.474960	-0.075048	28.7314	-0.471684	-1.3773e+06	5.448933E-8	NaN
480	1.000000	0.618617	7.36975e+06	-53089.1	1005.82	-29747.4	0.000000	0.000000	6.618978	0.021229	NaN	0.000000	0.001633	0.001776	28.0818	0.066922	0.001918	34.8829	-47.3571	-167.864	0.099666	0.617259	-0.465630	-0.466989	0.021229	34.8829	-0.466086	-1.14947e+06	-1.846858E-8	NaN
480	1.000000	0.626641	7.36975e+06	-53089.1	1005.82	-29747.4	0.000000	0.000000	6.627001	0.010690	NaN	0.000000	0.001639	0.001778	28.0822	0.067365	0.001992	33.8181	-16.3339	-162.473	-0.004884	0.625281	-0.457606	-0.458967	0.010690	33.8181	-0.457843	-880447	-1.214178E-8	NaN
480	1.000000	0.634647	7.36975e+06	-53089.1	1005.82	-29747.4	0.000000	0.000000	6.635008	0.048538	NaN	0.000000	0.001643	0.001814	28.082	0.090898	0.001987	45.7426	92.1807	-164.478	0.004750	0.633283	-0.449601	-0.450964	0.048538	45.7426	-0.450397	-691716	-7.017018E-8	NaN
480	1.000000	0.642637	7.36975e+06	-53089.1	1005.82	-29747.4	0.000000	0.000000	6.642996	-0.008203	NaN	0.000000	0.001624	0.001839	28.0823	0.071024	0.002062	34.4361	-119.533	-163.645	0.018945	0.641356	-0.441611	-0.442892	-0.008203	34.4361	-0.441432	-517094	1.586400E-8	NaN
480	1.000000	0.650641	7.36975e+06	-53089.1	1005.82	-29747.4	0.000000	0.000000	6.651001	0.026480	NaN	0.000000	0.001627	0.001794	28.082	0.083387	0.002109	39.5339	166.27	-167.953	0.041652	0.649348	-0.433607	-0.434899	0.026480	39.5339	-0.434109	-407532	-6.497591E-8	NaN
480	1.000000	0.658652	7.36975e+06	-53089.1	1005.82	-29747.4	0.000000	0.000000	6.659010	-0.029019	NaN	0.000000	0.001646	0.001826	28.0821	0.049917	0.002131	23.4264	-24.5619	-166.272	0.022036	0.657327	-0.425595	-0.426921	-0.029019	23.4264	-0.424666	-299609	9.685703E-8	NaN
480	1.000000	0.666621	7.36975e+06	-53089.1	1005.82	-29747.4	0.000000	0.000000	6.666981	0.001870	NaN	0.000000	0.001640	0.001803	28.0821	0.031598	0.001880	16.8069	68.2841	-166.041	-0.009986	0.665300	-0.417626	-0.418948	0.001870	16.8069	-0.417710	-238737	-7.831414E-9	NaN
480	1.000000	0.674672	7.36975e+06	-53089.1	1005.82	-29747.4	0.000000	0.000000	6.675030	-0.026950	NaN	0.000000	0.001611	0.001787	28.082	0.067550	0.001927	35.0588	26.1654	-166.418	0.140795	0.673329	-0.409575	-0.410918	-0.026950	35.0588	-0.408999	-179540	1.501063E-7	NaN
480	1.000000	0.682633	7.36975e+06	-53089.1	1005.82	-29747.4	0.000000	0.000000	6.682992	-0.013841	NaN	0.000000	0.001652	0.001817	28.0823	0.053967	0.002044	26.4008	102.057	-166.953	-0.069998	0.681296	-0.401614	-0.402952	-0.013841	26.4008	-0.401221	-139125	9.948721E-8	NaN
480	1.000000	0.690651	7.36975e+06	-53089.1	1005.82	-29747.4	0.000000	0.000000	6.691011	0.018924	NaN	0.000000	0.001617	0.001788	28.0821	0.052130	0.002102	24.8005	177.083	-168.106	-0.066379	0.689339	-0.393597	-0.394908	0.018924	24.8005	-0.394169	-110349	-1.714936E-7	NaN
480	1.000000	0.698678	7.36975e+06	-53089.1	1005.82	-29747.4	0.000000	0.000000	6.699038	0.024766	NaN	0.000000	0.001596	0.001793	28.0823	0.101003	0.002052	49.22	-64.2591	-161.659	0.049647	0.697397	-0.385570	-0.386850	0.024766	49.22	-0.385947	-84169.4	-2.942372E-7	NaN
480	1.000000	0.706676	7.36975e+06	-53089.1	1005.82	-29747.4	0.000000	0.000000	6.707035	-0.003404	NaN	0.000000	0.001620	0.001807	28.0822	0.105500	0.002057	51.2832	156.216	-165.204	-0.031847	0.705353	-0.377572	-0.378894	-0.003404	51.2832	-0.377522	-63725.4	5.342138E-8	NaN
480	1.000000	0.714703	7.36975e+06	-53089.1	1005.82	-29747.4	0.000000	0.000000	6.715060	-0.042256	NaN	0.000000	0.001650	0.001748	28.0821	0.104735	0.002104	49.783	25.7221	-168.579	-0.107850	0.713349	-0.369545	-0.370898	-0.042256	49.783	-0.368908	-47907.2	8.820468E-7	NaN
480	1.000000	0.722679	7.36975e+06	-53089.1	1005.82	-29747.4	0.000000	0.000000	6.723041	0.064267	NaN	0.000000	0.001634	0.001785	28.0821	0.023637	0.002055	11.5042	150.163	-165.213	0.014564	0.721325	-0.361568	-0.362923	0.064267	11.5042	-0.365758	-43151	-1.489346E-6	NaN
480	1.000000	0.730648	7.36975e+06	-53089.1	1005.82	-29747.4	0.000000	0.000000	6.731007	-0.013947	NaN	0.000000	0.001608	0.001845	28.0811	0.058325	0.001941	30.0523	-30.6467	-167.536	-0.009345	0.729365	-0.353599	-0.354883	-0.013947	30.0523	-0.353251	-28454.7	4.901570E-7	NaN
480	1.000000	0.738689	7.36975e+06	-53089.1	1005.82	-29747.4	0.000000	0.000000	6.739049	0.004159	NaN	0.000000	0.001592	0.001809	28.0816	0.041916	0.002121	19.7637	113.075	-170.204	0.060824	0.737380	-0.345558	-0.346868	0.004159	19.7637	-0.345716	-22119.1	-1.880416E-7	NaN
480	1.000000	0.746664	7.36975e+06	-53089.1	1005.82	-29747.4	0.000000	0.000000	6.747025	0.026635	NaN	0.000000	0.001634	0.001800	28.0808	0.060637	0.002140	28.3304	3.893746	-166.404	0.086470	0.745380	-0.337583	-0.338868	0.026635	28.3304	-0.338288	-17242.2	-1.544731E-6	NaN
480	1.000000	0.754702	7.36975e+06	-53089.1	1005.82	-29747.4	0.000000	0.000000	6.755061	-0.000246	NaN	0.000000	0.001650	0.001808	28.081	0.049356	0.001918	25.7362	135.097	-165.816	0.002466	0.753395	-0.329546	-0.330852	-0.000246	25.7362	-0.329539	-12843.8	1.912932E-8	NaN
480	1.000000	0.762721	7.36975e+06	-53089.1	1005.82	-29747.4	0.000000	0.000000	6.763082	0.038344	NaN	0.000000	0.001624	0.001827	28.0811	0.048606	0.001950	24.9277	-27.6037	-168.432	0.177297	0.761384	-0.321527	-0.322863	0.038344	24.9277	-0.322680	-10187.3	-3.763935E-6	NaN
480	1.000000	0.770677	7.36975e+06	-53089.1	1005.82	-29747.4	0.000000	0.000000	6.771037	0.036942	NaN	0.000000	0.001605	0.001785	28.0809	0.032065	0.001928	16.6331	-101.395	-169.162	-0.002878	0.769365	-0.313571	-0.314882	0.036942	16.6331	-0.315237	-7914.78	-4.667515E-6	NaN
480	1.000000	0.778691	7.36975e+06	-53089.1	1005.82	-29747.4	0.000000	0.000000	6.779048	-0.051289	NaN	0.000000	0.001614	0.001702	28.0811	0.095698	0.002105	45.4555	-75.9508	-163.162	0.041056	0.777387	-0.305557	-0.306860	-0.051289	45.4555	-0.304710	-5529.11	9.276119E-6	NaN
480	1.000000	0.786708	7.36975e+06	-53089.1	1005.82	-29747.4	0.000000	0.000000	6.787066	-0.025436	NaN	0.000000	0.001643	0.001755	28.0811	0.055132	0.001910	28.8649	-17.9688	-170.226	0.025884	0.785371	-0.297539	-0.298877	-0.025436	28.8649	-0.296879	-4227.9	6.016292E-6	NaN
480	1.000000	0.794694	7.36975e+06	-53089.1	1005.82	-29747.4	0.000000	0.000000	6.795056	0.062038	NaN	0.000000	0.001626	0.001766	28.0812	0.068472	0.002055	33.3123	-31.7587	-166.842	0.021990	0.793446	-0.289553	-0.290801	0.062038	33.3123	-0.290950	-3447.73	-1.799387E-5	NaN
480	1.000000	0.802706	7.36975e+06	-53089.1	1005.82	-29747.4	0.000000	0.000000	6.803067	0.055120	NaN	0.000000	0.001665	0.001782	28.081	0.048430	0.001934	25.0384	-29.2617	-163.887	0.022953	0.801365	-0.281542	-0.282883	0.055120	25.0384	-0.283193	-2636.84	-2.090383E-5	NaN
480	1.000000	0.810691	7.36975e+06	-53089.1	1005.82	-29747.4	0.000000	0.000000	6.811051	0.027510	NaN	0.000000	0.001644	0.001781	28.081	0.123137	0.002041	60.3404	-111.911	-168.122	-0.014524	0.809441	-0.273557	-0.274806	0.027510	60.3404	-0.273899	-1908.62	-1.441347E-5	NaN
480	1.000000	0.818718	7.36975e+06	-53089.1	1005.82	-29747.4	0.000000	0.000000	6.819077	-0.005928	NaN	0.000000	0.001592	0.001777	28.0808	0.115708	0.001993	58.0628	-156.892	-165.47	-0.063608	0.817444	-0.265529	-0.266803	-0.005928	58.0628	-0.265453	-1420.04	4.174756E-6	NaN
480	1.000000	0.826712	7.36975e+06	-53089.1	1005.82	-29747.4	0.000000	0.000000	6.827072	0.002646	NaN	0.000000	0.001627	0.001774	28.081	0.025488	0.001808	14.0936	35.2696	-166.71	0.032814	0.825398	-0.257535	-0.258850	0.002646	14.0936	-0.257676	-1079.6	-2.451274E-6	NaN
480	1.000000	0.834712	7.36975e+06	-53089.1	1005.82	-29747.4	0.000000	0.000000	6.835073	0.029249	NaN	0.000000	0.001615	0.001785	28.0811	0.076771	0.002063	37.2138	9.191608	-171.181	0.031216	0.833416	-0.249535	-0.250832	0.029249	37.2138	-0.250125	-825.841	-3.541709E-5	NaN
480	1.000000	0.842739	7.36975e+06	-53089.1	1005.82	-29747.4	0.000000	0.000000	6.843098	-0.013515	NaN	0.000000	0.001632	0.001772	28.081	0.117917	0.002059	57.2741	-33.9738	-165.444	0.044416	0.841455	-0.241509	-0.242792	-0.013515	57.2741	-0.241332	-603.027	2.241263E-5	NaN
480	1.000000	0.850731	7.36975e+06	-53089.1	1005.82	-29747.4	0.000000	0.000000	6.851090	-0.005297	NaN	0.000000	0.001645	0.001777	28.0811	0.016279	0.002076	7.841084	-103.201	-167.244	0.102509	0.849432	-0.233517	-0.234815	-0.005297	7.841084	-0.233010	-446.646	1.185977E-5	NaN
480	1.000000	0.858707	7.36975e+06	-53089.1	1005.82	-29747.4	0.000000	0.000000	6.859069	0.046349	NaN	0.000000	0.001661	0.001791	28.0809	0.056842	0.002039	27.8746	14.9016	-164.355	0.009542	0.857422	-0.225540	-0.226825	0.046349	27.8746	-0.226787	-356.197	-0.000130	NaN
480	1.000000	0.866737	7.36975e+06	-53089.1	1005.82	-29747.4	0.000000	0.000000	6.867094	-0.050536	NaN	0.000000	0.001632	0.001780	28.0823	0.054090	0.001873	28.8838	-167.493	-163.813	-0.040416	0.865416	-0.217510	-0.218832	-0.050536	28.8838	-0.216198	-241.417	0.000209	NaN
480	1.000000	0.874737	7.36975e+06	-53089.1	1005.82	-29747.4	0.000000	0.000000	6.875099	0.073213	NaN	0.000000	0.001621	0.001750	28.0824	0.091722	0.002215	41.4063	98.0741	-165.945	0.049523	0.873509	-0.209510	-0.210738	0.073213	41.4063	-0.210836	-197.859	-0.000370	NaN
480	1.000000	0.882731	7.36975e+06	-53089.1	1005.82	-29747.4	0.000000	0.000000	6.883090	0.006899	NaN	0.000000	0.001683	0.001765	28.0823	0.073683	0.001998	36.8787	25.4421	-167.83	0.016667	0.881419	-0.201517	-0.202829	0.006899	36.8787	-0.201657	-140.248	-4.919376E-5	NaN
480	1.000000	0.890759	7.36975e+06	-53089.1	1005.82	-29747.4	0.000000	0.000000	6.891117	-0.037122	NaN	0.000000	0.001620	0.001747	28.0824	0.098195	0.001951	50.318	-150.477	-168.937	-0.101682	0.889423	-0.193488	-0.194825	-0.037122	50.318	-0.192935	-100.677	0.000369	NaN
480	1.000000	0.898756	7.36975e+06	-53089.1	1005.82	-29747.4	0.000000	0.000000	6.899115	0.001470	NaN	0.000000	0.001628	0.001792	28.0823	0.086822	0.001924	45.1204	-170.202	-166.414	-0.034434	0.897392	-0.185491	-0.186856	0.001470	45.1204	-0.185516	-75.6525	-1.942596E-5	NaN
480	1.000000	0.906727	7.36975e+06	-53089.1	1005.82	-29747.4	0.000000	0.000000	6.907085	-0.044336	NaN	0.000000	0.001624	0.001799	28.0822	0.068808	0.001936	35.5433	9.550725	-167.177	0.047875	0.905424	-0.177520	-0.178823	-0.044336	35.5433	-0.176585	-53.3543	0.000831	NaN
480	1.000000	0.914746	7.36975e+06	-53089.1	1005.82	-29747.4	0.000000	0.000000	6.915104	-0.029856	NaN	0.000000	0.001668	0.001815	28.082	0.086862	0.002068	42.0096	-72.9461	-166.473	-0.016036	0.913476	-0.169502	-0.170772	-0.029856	42.0096	-0.168969	-39.4171	0.000757	NaN
480	1.000000	0.922767	7.36975e+06	-53089.1	1005.82	-29747.4	0.000000	0.000000	6.923128	0.047760	NaN	0.000000	0.001665	0.001743	28.0822	0.080466	0.002025	39.742	121.672	-165.132	-0.019756	0.921396	-0.161481	-0.162851	0.047760	39.742	-0.162382	-30.2127	-0.001581	NaN
480	1.000000	0.930763	7.36975e+06	-53089.1	1005.82	-29747.4	0.000000	0.000000	6.931121	-0.042882	NaN	0.000000	0.001660	0.001802	28.0823	0.030124	0.001971	15.2816	1.419446	-167.885	-0.053642	0.929443	-0.153484	-0.154805	-0.042882	15.2816	-0.151380	-19.1921	0.002234	NaN
480	1.000000	0.938761	7.36975e+06	-53089.1	1005.82	-29747.4	0.000000	0.000000	6.939119	-0.031173	NaN	0.000000	0.001623	0.001814	28.0829	0.020444	0.001913	10.6868	-13.2717	-167.977	-0.084249	0.937427	-0.145486	-0.146820	-0.031173	10.6868	-0.143299	-13.6336	0.002287	NaN
480	1.000000	0.946783	7.36975e+06	-53089.1	1005.82	-29747.4	0.000000	0.000000	6.947144	0.028535	NaN	0.000000	0.001649	0.001800	28.0825	0.061080	0.002052	29.7676	88.771	-168.357	0.044398	0.945454	-0.137464	-0.138793	0.028535	29.7676	-0.138183	-10.9331	-0.002610	NaN
480	1.000000	0.954744	7.36975e+06	-53089.1	1005.82	-29747.4	0.000000	0.000000	6.955107	0.083251	NaN	0.000000	0.001656	0.001796	28.0825	0.132975	0.002017	65.9389	-153.232	-170.786	0.011987	0.953444	-0.129503	-0.130804	0.083251	65.9389	-0.130450	-7.775878	-0.010706	NaN
480	1.000000	0.962779	7.36975e+06	-53089.1	1005.82	-29747.4	0.000000	0.000000	6.963138	-0.004770	NaN	0.000000	0.001637	0.001752	28.0822	0.074235	0.001952	38.0337	134.321	-167.009	0.044154	0.961384	-0.121468	-0.122863	-0.004770	38.0337	-0.121374	-5.149179	0.000926	NaN
480	1.000000	0.970768	7.36975e+06	-53089.1	1005.82	-29747.4	0.000000	0.000000	6.971123	-0.090905	NaN	0.000000	0.001648	0.001751	28.0821	0.105435	0.002095	50.3235	133.198	-166.022	-0.035161	0.969455	-0.113480	-0.114793	-0.090905	50.3235	-0.112125	-3.330083	0.027298	NaN
480	1.000000	0.978765	7.36975e+06	-53089.1	1005.82	-29747.4	0.000000	0.000000	6.979126	0.052260	NaN	0.000000	0.001684	0.001750	28.082	0.044618	0.002052	21.7468	-50.0112	-166.955	0.075452	0.977448	-0.105483	-0.106799	0.052260	21.7468	-0.107285	-2.631833	-0.019857	NaN
480	1.000000	0.986802	7.36975e+06	-53089.1	1005.82	-29747.4	0.000000	0.000000	6.987160	-0.029314	NaN	0.000000	0.001720	0.001760	28.0824	0.070000	0.002046	34.2136	-178.092	-166.412	-0.044360	0.985467	-0.097446	-0.098780	-0.029314	34.2136	-0.096803	-1.549866	0.018914	NaN
480	1.000000	0.994781	7.36975e+06	-53089.1	1005.82	-29747.4	0.000000	0.000000	6.995138	-0.038864	NaN	0.000000	0.001652	0.001728	28.0822	0.112295	0.001948	57.6342	170.651	-164.833	0.011297	0.993529	-0.089467	-0.090718	-0.038864	57.6342	-0.088961	-1.021800	0.038035	NaN
480	1.000000	1.002791	7.36975e+06	-53089.1	1005.82	-29747.4	0.000000	0.000000	7.003153	0.047875	NaN	0.000000	0.001683	0.001741	28.081	0.003537	0.001936	1.826397	-17.5332	-169.014	-0.038449	1.001541	-0.081456	-0.082707	0.047875	1.826397	-0.101116	-1.933893	-0.024756	NaN
480	1.000000	1.010740	7.36975e+06	-53089.1	1005.82	-29747.4	0.000000	0.000000	7.011100	0.009812	NaN	0.000000	0.001675	0.001728	28.0808	0.050107	0.002070	24.2025	-141.699	-167.555	0.082816	1.009418	-0.073507	-0.074829	0.009812	24.2025	-0.073811	-0.430170	-0.022810	NaN
480	1.000000	1.018777	7.36975e+06	-53089.1	1005.82	-29747.4	0.000000	0.000000	7.019138	0.052004	NaN	0.000000	0.001675	0.001742	28.0808	0.075746	0.001957	38.6967	-159.366	-167.692	0.013575	1.017504	-0.065470	-0.066744	0.052004	38.6967	-0.066478	-0.273764	-0.189957	NaN
480	1.000000	1.026799	7.36975e+06	-53089.1	1005.82	-29747.4	0.000000	0.000000	7.027155	-0.075035	NaN	0.000000	0.001641	0.001760	28.0809	0.122973	0.002006	61.3105	162.597	-166.269	0.049970	1.025452	-0.057448	-0.058796	-0.075035	61.3105	-0.056530	-0.142851	0.525267	NaN
480	1.000000	1.034784	7.36975e+06	-53089.1	1005.82	-29747.4	0.000000	0.000000	7.035143	-0.017482	NaN	0.000000	0.001627	0.001796	28.0807	0.132567	0.001985	66.8004	-63.5465	-165.738	-0.031433	1.033447	-0.049463	-0.050800	-0.017482	66.8004	-0.049267	-0.086704	0.201630	NaN
480	1.000000	1.042799	7.36975e+06	-53089.1	1005.82	-29747.4	0.000000	0.000000	7.043160	0.022232	NaN	0.000000	0.001599	0.001781	28.0811	0.050585	0.001945	26.0017	-150.012	-168.04	0.017932	1.041485	-0.041448	-0.042763	0.022232	26.0017	-0.042089	-0.052360	-0.424594	NaN
480	1.000000	1.050819	7.36975e+06	-53089.1	1005.82	-29747.4	0.000000	0.000000	7.051179	0.018092	NaN	0.000000	0.001611	0.001748	28.0809	0.035193	0.001996	17.6298	-53.683	-167.068	0.012004	1.049507	-0.033428	-0.034741	0.018092	17.6298	-0.034198	-0.030335	-0.596420	NaN
480	1.000000	1.058819	7.36975e+06	-53089.1	1005.82	-29747.4	0.000000	0.000000	7.059180	0.050910	NaN	0.000000	0.001588	0.001757	28.081	0.063195	0.002053	30.7799	125.546	-164.663	0.060204	1.057514	-0.025429	-0.026733	0.050910	30.7799	-0.026669	-0.018671	-2.726674	NaN
480	1.000000	1.066811	7.36975e+06	-53089.1	1005.82	-29747.4	0.000000	0.000000	7.067170	-0.022626	NaN	0.000000	0.001608	0.001767	28.0808	0.057795	0.001938	29.8173	-152.327	-166.867	-0.047574	1.065486	-0.017436	-0.018761	-0.022626	29.8173	-0.016867	-0.010426	2.170231	NaN
480	1.000000	1.074795	7.36975e+06	-53089.1	1005.82	-29747.4	0.000000	0.000000	7.075154	-0.005713	NaN	0.000000	0.001587	0.001729	28.0808	0.066096	0.001944	34.0052	71.1783	-164.73	-0.018373	1.073525	-0.009452	-0.010722	-0.005713	34.0052	-0.009326	-0.006001	0.951971	NaN
480	1.000000	1.082830	7.36975e+06	-53089.1	1005.82	-29747.4	0.000000	0.000000	7.083246	1.379393	NaN	0.000000	0.001614	0.001731	28.0809	1.766590	0.001871	944.189	17.746	-166.064	0.897522	1.081471	-0.001417	-0.002776	1.379393	944.189	-0.002513	-0.001792	-769.914	NaN
480	1.000000	1.090690	7.36975e+06	-53089.1	1005.82	-29747.4	0.000000	0.000000	7.091342	7.105808	NaN	0.000000	0.001601	0.001736	28.081	6.761730	0.001703	3970.62	13.0955	-175.012	5.566429	1.089497	0.006443	0.005250	7.105808	3970.62	0.005101	0.004226	1681.64	55807.3
480	2.000000	1.093487	7.36975e+06	-53089.1	1005.82	-29747.4	0.000000	0.000000	7.094347	12.1786	NaN	0.000000	0.001565	0.001750	28.0811	10.0602	0.001637	6144.19	8.527565	-176.781	11.1137	1.093174	0.009239	0.008926	12.1786	6144.19	0.007753	0.006789	1793.81	68128.3
480	2.000000	1.095544	7.36975e+06	-53089.1	1005.82	-29747.4	0.000000	0.000000	7.096609	17.1401	NaN	0.000000	0.001624	0.001786	28.0808	12.3092	0.001689	7287.61	6.674074	-174.386	17.061	1.095181	0.011297	0.010933	17.1401	7287.61	0.009533	0.008667	1977.61	71519
480	2.000000	1.097462	7.36975e+06	-53089.1	1005.82	-29747.4	0.000000	0.000000	7.098553	17.8054	NaN	0.000000	0.001587	0.001769	28.0808	14.05	0.001867	7526.76	7.794010	-176.333	16.9571	1.097187	0.013214	0.012939	17.8054	7526.76	0.011440	0.010826	1644.67	66091.3
480	2.000000	1.099463	7.36975e+06	-53089.1	1005.82	-29747.4	0.000000	0.000000	7.100819	24.2415	NaN	0.000000	0.001573	0.001728	28.0809	16.1875	0.001751	9244.59	5.769076	-176.054	24.0024	1.099113	0.015215	0.014866	24.2415	9244.59	0.013249	0.013021	1861.79	74019.6
480	2.000000	1.101436	7.36975e+06	-53089.1	1005.82	-29747.4	0.000000	0.000000	7.102796	24.3279	NaN	0.000000	0.001578	0.001732	28.0816	16.9464	0.001659	10213.5	3.833463	-173.188	24.5285	1.101116	0.017189	0.016869	24.3279	10213.5	0.015403	0.015826	1537.21	74176.1
480	2.000000	1.103445	7.36975e+06	-53089.1	1005.82	-29747.4	0.000000	0.000000	7.105067	30.7078	NaN	0.000000	0.001618	0.001734	28.0827	20.1595	0.001718	11732.6	5.949885	-178.465	30.1543	1.103086	0.019197	0.018838	30.7078	11732.6	0.017234	0.018381	1670.59	79063.9
480	2.000000	1.105433	7.36975e+06	-53089.1	1005.82	-29747.4	0.000000	0.000000	7.107291	36.4362	NaN	0.000000	0.001595	0.001696	28.0824	22.5852	0.001810	12479	6.820632	-178.404	35.5747	1.105114	0.021185	0.020866	36.4362	12479	0.018996	0.020988	1736.01	78697.9
480	2.000000	1.107424	7.36975e+06	-53089.1	1005.82	-29747.4	0.000000	0.000000	7.109350	38.0907	NaN	0.000000	0.001606	0.001708	28.0824	23.8193	0.001812	13148.7	8.037549	179.941	38.6044	1.107077	0.023176	0.022830	38.0907	13148.7	0.021004	0.024144	1577.65	77312.7
480	2.000000	1.109411	7.36975e+06	-53089.1	1005.82	-29747.4	0.000000	0.000000	7.111526	42.6935	NaN	0.000000	0.001578	0.001713	28.0823	25.9779	0.001985	13089.4	6.012992	-177.508	42.2655	1.109150	0.025163	0.024903	42.6935	13089.4	0.022717	0.026993	1581.67	72789.7
480	2.000000	1.111441	7.36975e+06	-53089.1	1005.82	-29747.4	0.000000	0.000000	7.113762	47.677	NaN	0.000000	0.001644	0.001734	28.0832	27.3503	0.001735	15764.4	4.334301	-179.255	49.4951	1.111098	0.027194	0.026851	47.677	15764.4	0.024926	0.030881	1543.92	81961.1
480	2.000000	1.113421	7.36975e+06	-53089.1	1005.82	-29747.4	0.000000	0.000000	7.116129	57.1129	NaN	0.000000	0.001600	0.001755	28.0825	29.6789	0.001802	16468.2	5.501169	-179.407	56.792	1.113146	0.029174	0.028898	57.1129	16468.2	0.026572	0.033939	1682.83	81671.6
480	2.000000	1.115388	7.36975e+06	-53089.1	1005.82	-29747.4	0.000000	0.000000	7.118290	61.8138	NaN	0.000000	0.001606	0.001747	28.0822	32.0441	0.001843	17385.2	5.187891	178.816	59.0898	1.114981	0.031140	0.030733	61.8138	17385.2	0.028474	0.037640	1642.25	81871.2
480	2.000000	1.117400	7.36975e+06	-53089.1	1005.82	-29747.4	0.000000	0.000000	7.120593	68.8985	NaN	0.000000	0.001573	0.001736	28.0823	33.0906	0.001853	17861	8.401814	176.943	68.4924	1.117033	0.033152	0.032785	68.8985	17861	0.030259	0.041282	1668.95	80314.7
480	2.000000	1.119363	7.36975e+06	-53089.1	1005.82	-29747.4	0.000000	0.000000	7.122544	68.6027	NaN	0.000000	0.001589	0.001725	28.0824	35.3224	0.001921	18386.4	1.582808	-177.906	66.0282	1.119089	0.035116	0.034841	68.6027	18386.4	0.032317	0.045684	1501.68	78593.5
480	2.000000	1.121405	7.36975e+06	-53089.1	1005.82	-29747.4	0.000000	0.000000	7.125042	79.7033	NaN	0.000000	0.001614	0.001734	28.0824	36.5139	0.001826	19995.4	3.946047	179.022	80.0592	1.121105	0.037157	0.036858	79.7033	19995.4	0.034167	0.049825	1599.66	81842.3
480	2.000000	1.123390	7.36975e+06	-53089.1	1005.82	-29747.4	0.000000	0.000000	7.127365	87.8936	NaN	0.000000	0.001633	0.001708	28.0824	38.7626	0.001851	20941.7	5.527036	177.688	88.8346	1.123046	0.039143	0.038798	87.8936	20941.7	0.035995	0.054088	1625.01	82268.8
480	2.000000	1.125373	7.36975e+06	-53089.1	1005.82	-29747.4	0.000000	0.000000	7.129729	97.165	NaN	0.000000	0.001619	0.001684	28.0822	39.6116	0.001809	21893.8	5.029467	178.967	95.404	1.124984	0.041126	0.040737	97.165	21893.8	0.037797	0.058460	1662.07	82730.1
480	2.000000	1.127325	7.36975e+06	-53089.1	1005.82	-29747.4	0.000000	0.000000	7.131916	102.896	NaN	0.000000	0.001617	0.001679	28.0822	40.9341	0.001727	23700.1	3.532840	177.938	98.6259	1.126987	0.043077	0.042739	102.896	23700.1	0.039821	0.063567	1618.69	85882.8
480	2.000000	1.129333	7.36975e+06	-53089.1	1005.82	-29747.4	0.000000	0.000000	7.133973	104.088	NaN	0.000000	0.001592	0.001694	28.0821	43.96	0.001779	24706	4.142138	176.621	101.389	1.129253	0.045085	0.045006	104.088	24706	0.041926	0.069100	1506.35	85869.2
480	2.000000	1.131344	7.36975e+06	-53089.1	1005.82	-29747.4	0.000000	0.000000	7.136542	117.626	NaN	0.000000	0.001629	0.001699	28.0825	45.1126	0.001794	25149.5	4.802398	176.414	115.837	1.131022	0.047097	0.046774	117.626	25149.5	0.043589	0.073632	1597.48	84677.5
480	2.000000	1.133356	7.36975e+06	-53089.1	1005.82	-29747.4	0.000000	0.000000	7.138856	124.99	NaN	0.000000	0.001613	0.001634	28.0823	48.0764	0.001866	25760	3.419358	177.787	124.662	1.133061	0.049109	0.048814	124.99	25760	0.045470	0.078926	1583.64	83773.9
480	2.000000	1.135409	7.36975e+06	-53089.1	1005.82	-29747.4	0.000000	0.000000	7.140971	126.495	NaN	0.000000	0.001612	0.001667	28.0821	49.2396	0.001843	26713.5	3.689970	177.301	129.057	1.135073	0.051161	0.050826	126.495	26713.5	0.047610	0.085168	1485.24	83630.7
480	2.000000	1.137294	7.36975e+06	-53089.1	1005.82	-29747.4	0.000000	0.000000	7.143379	139.217	NaN	0.000000	0.001649	0.001665	28.0812	51.1381	0.001909	26786.6	7.264214	174.374	135.842	1.136962	0.053047	0.052714	139.217	26786.6	0.049149	0.089800	1550.3	81668.2
480	2.000000	1.139313	7.36975e+06	-53089.1	1005.82	-29747.4	0.000000	0.000000	7.145878	150.882	NaN	0.000000	0.001603	0.001675	28.0808	52.8631	0.001944	27193.6	4.314331	176.506	147.169	1.138982	0.055065	0.054735	150.882	27193.6	0.050904	0.095228	1584.43	80511.6
480	2.000000	1.141279	7.36975e+06	-53089.1	1005.82	-29747.4	0.000000	0.000000	7.148193	159.349	NaN	0.000000	0.001618	0.001700	28.0812	53.1736	0.001820	29224.1	2.598461	177.596	154.219	1.141031	0.057032	0.056783	159.349	29224.1	0.052943	0.101725	1566.47	83714.6
480	2.000000	1.143364	7.36975e+06	-53089.1	1005.82	-29747.4	0.000000	0.000000	7.150702	169.692	NaN	0.000000	0.001624	0.001706	28.0811	55.8113	0.001776	31426.9	3.522528	175.585	169.879	1.143091	0.059116	0.058843	169.692	31426.9	0.055067	0.108715	1560.89	87082.4
480	2.000000	1.145401	7.36975e+06	-53089.1	1005.82	-29747.4	0.000000	0.000000	7.153303	183.4	NaN	0.000000	0.001613	0.001711	28.081	58.5974	0.001812	32337.7	4.890986	174.389	183.247	1.145081	0.061153	0.060833	183.4	32337.7	0.056900	0.114926	1595.81	87151.1
480	2.000000	1.147326	7.36975e+06	-53089.1	1005.82	-29747.4	0.000000	0.000000	7.155593	192.284	NaN	0.000000	0.001641	0.001708	28.081	59.1541	0.001802	32823.8	4.775636	174.757	191.054	1.147038	0.063078	0.062791	192.284	32823.8	0.058685	0.121134	1587.37	86164.7
480	2.000000	1.149305	7.36975e+06	-53089.1	1005.82	-29747.4	0.000000	0.000000	7.158119	205.578	NaN	0.000000	0.001597	0.001710	28.0809	61.9676	0.001624	38148.6	2.987598	174.775	203.201	1.149076	0.065057	0.064829	205.578	38148.6	0.061015	0.129475	1587.78	96863.2
480	2.000000	1.151265	7.36975e+06	-53089.1	1005.82	-29747.4	0.000000	0.000000	7.160324	211.508	NaN	0.000000	0.001599	0.001708	28.081	62.5783	0.001694	36941.2	2.921609	175.18	205.957	1.150927	0.067018	0.066679	211.508	36941.2	0.062724	0.135756	1558	91602
480	2.000000	1.153290	7.36975e+06	-53089.1	1005.82	-29747.4	0.000000	0.000000	7.162961	226.417	NaN	0.000000	0.001615	0.001715	28.0812	64.968	0.001731	37523.3	1.026578	176.937	223.667	1.153016	0.069042	0.068768	226.417	37523.3	0.064517	0.142500	1588.88	90816.8
480	2.000000	1.155388	7.36975e+06	-53089.1	1005.82	-29747.4	0.000000	0.000000	7.165443	235.751	NaN	0.000000	0.001640	0.001691	28.081	68.0502	0.001810	37602.8	8.879190	169.859	235.978	1.155012	0.071140	0.070764	235.751	37602.8	0.066438	0.149901	1572.71	88734.2
480	2.000000	1.157350	7.36975e+06	-53089.1	1005.82	-29747.4	0.000000	0.000000	7.167863	246.865	NaN	0.000000	0.001601	0.001696	28.0812	68.9162	0.001685	40911.3	5.462517	171.835	246.164	1.156949	0.073102	0.072701	246.865	40911.3	0.068577	0.158346	1559.02	93931.7
480	2.000000	1.159284	7.36975e+06	-53089.1	1005.82	-29747.4	0.000000	0.000000	7.170228	257.342	NaN	0.000000	0.001630	0.001709	28.0809	71.4564	0.001931	37008.1	1.485300	176.523	253.988	1.159042	0.075036	0.074795	257.342	37008.1	0.069821	0.163361	1575.29	83655.7
480	2.000000	1.161310	7.36975e+06	-53089.1	1005.82	-29747.4	0.000000	0.000000	7.172801	270.65	NaN	0.000000	0.001666	0.001712	28.0809	72.3189	0.001649	43847.9	3.225433	173.286	269.876	1.160947	0.077063	0.076699	270.65	43847.9	0.072433	0.174127	1554.32	96004
480	2.000000	1.163340	7.36975e+06	-53089.1	1005.82	-29747.4	0.000000	0.000000	7.175225	280.225	NaN	0.000000	0.001672	0.001689	28.0809	74.9339	0.001790	41873.6	-0.180611	176.967	281.889	1.163105	0.079093	0.078858	280.225	41873.6	0.074074	0.181052	1547.76	89910.7
480	2.000000	1.165342	7.36975e+06	-53089.1	1005.82	-29747.4	0.000000	0.000000	7.177888	296.301	NaN	0.000000	0.001681	0.001721	28.0811	79.4331	0.001913	41525.1	8.154171	169.73	295.844	1.164983	0.081095	0.080736	296.301	41525.1	0.075743	0.188231	1574.13	87445.6
480	2.000000	1.167356	7.36975e+06	-53089.1	1005.82	-29747.4	0.000000	0.000000	7.180624	313.871	NaN	0.000000	0.001674	0.001709	28.0812	79.7939	0.001807	44155.4	8.214399	168.576	315.485	1.166934	0.083108	0.082687	313.871	44155.4	0.077777	0.197154	1592.01	90856
480	2.000000	1.169336	7.36975e+06	-53089.1	1005.82	-29747.4	0.000000	0.000000	7.182859	320.053	NaN	0.000000	0.001690	0.001663	28.0809	82.4936	0.001818	45378.6	6.383720	170.615	317.576	1.168943	0.085089	0.084696	320.053	45378.6	0.079799	0.206219	1552.01	91297.9
480	2.000000	1.171313	7.36975e+06	-53089.1	1005.82	-29747.4	0.000000	0.000000	7.185242	329.906	NaN	0.000000	0.001675	0.001708	28.082	82.1896	0.001756	46817.5	4.349491	171.823	330.212	1.170990	0.087066	0.086742	329.906	46817.5	0.081781	0.215285	1532.41	92188.1
480	2.000000	1.173236	7.36975e+06	-53089.1	1005.82	-29747.4	0.000000	0.000000	7.188106	352.815	NaN	0.000000	0.001696	0.001693	28.0822	84.39	0.001852	45561.7	1.186604	175.897	348.974	1.172811	0.088988	0.088563	352.815	45561.7	0.083181	0.221799	1590.7	88388.1
480	2.000000	1.175353	7.36975e+06	-53089.1	1005.82	-29747.4	0.000000	0.000000	7.190820	367.319	NaN	0.000000	0.001632	0.001691	28.0825	87.1376	0.001780	48940.8	9.892555	167.135	368.606	1.174973	0.091106	0.090725	367.319	48940.8	0.085477	0.232680	1578.64	92696.6
480	2.000000	1.177293	7.36975e+06	-53089.1	1005.82	-29747.4	0.000000	0.000000	7.193254	379.335	NaN	0.000000	0.001617	0.001729	28.0824	88.4289	0.001887	46864.8	7.468336	169.674	377.979	1.176886	0.093046	0.092639	379.335	46864.8	0.086975	0.239913	1581.14	87416.5
480	2.000000	1.179274	7.36975e+06	-53089.1	1005.82	-29747.4	0.000000	0.000000	7.195707	390.815	NaN	0.000000	0.001617	0.001729	28.0822	90.8633	0.001885	48207.9	4.221659	172.152	387.485	1.179071	0.095026	0.094823	390.815	48207.9	0.088946	0.249585	1565.86	88162.2
480	2.000000	1.181214	7.36975e+06	-53089.1	1005.82	-29747.4	0.000000	0.000000	7.198407	409.275	NaN	0.000000	0.001670	0.001712	28.0825	91.3479	0.001763	51805.1	3.461146	172.34	405.322	1.180914	0.096967	0.096667	409.275	51805.1	0.091042	0.260064	1573.75	92812.4
480	2.000000	1.183277	7.36975e+06	-53089.1	1005.82	-29747.4	0.000000	0.000000	7.200848	418.492	NaN	0.000000	0.001632	0.001708	28.082	94.0844	0.001782	52810.9	5.621866	169.589	417.388	1.183041	0.099029	0.098794	418.492	52810.9	0.093086	0.270478	1547.23	92774.8
480	2.000000	1.185283	7.36975e+06	-53089.1	1005.82	-29747.4	0.000000	0.000000	7.203499	434.144	NaN	0.000000	0.001687	0.001676	28.0826	96.4618	0.001832	52650.4	6.610967	169.118	430.66	1.184818	0.101036	0.100571	434.144	52650.4	0.094852	0.279628	1552.58	90967.1
480	2.000000	1.187265	7.36975e+06	-53089.1	1005.82	-29747.4	0.000000	0.000000	7.206131	449.955	NaN	0.000000	0.001705	0.001687	28.0822	97.2954	0.001772	54899.7	5.089598	170.517	446.41	1.186929	0.103018	0.102682	449.955	54899.7	0.096871	0.290267	1550.14	93098.9
480	2.000000	1.189364	7.36975e+06	-53089.1	1005.82	-29747.4	0.000000	0.000000	7.208371	453.383	NaN	0.000000	0.001678	0.001710	28.0823	98.4193	0.001688	58288.2	2.646953	172.352	455.271	1.189166	0.105116	0.104918	453.383	58288.2	0.099283	0.303216	1495.25	96711.4
480	2.000000	1.190219	7.36976e+06	-53089.1	1005.82	-29747.4	0.000000	0.000000	7.209759	466.353	NaN	0.000000	0.001697	0.001709	28.0826	99.7276	0.001876	53153.7	4.532351	170.915	460.581	1.189911	0.105971	0.105663	466.353	53153.7	0.099391	0.303804	1535.04	88106.9