File: remote_trans/data/nanoindenter/0828-1/data/Data_2025-08-06,11h17m57s/2025-07-22_16-23-58_1_770.txt
2025-07-22, 16:23:58, 1
Index	Phase	Displacement	Time	Pos X	Pos Y	Pos Z	Rot A	Rot B	Piezo Z	Force A	Force B	Gripper	Voltage A	Voltage B	Temperature	Amplitude force	Amplitude pos	Stiffness	Phase shift	Phase excitation	Force A raw	Displacement raw	HMax	HMax raw	Real Force	Real Stiffness	Contact Depth	Area	Hardness	Reduced Mod.
[#]	[#]	[um]	[s]	[um]	[um]	[um]	[m°]	[m°]	[um]	[uN]	[uN]	[V]	[V]	[V]	[°C]	[uN]	[um]	[N/m]	[°]	[°]	[uN]	[um]	[um]	[um]	[uN]	[N/m]	[um]	[um^2]	[MPa]	[MPa]
770	1.000000	0.002025	7.37259e+06	-38639.1	1055.82	-29793.6	0.000000	0.000000	6.002798	0.005897	NaN	0.000000	0.001646	0.001800	28.0811	0.123121	0.000907	135.81	176.629	-161.489	0.002853	0.000759	-1.074967	-1.076234	0.005897	135.81	-1.075000	-2.313953E+14	-2.548279E-17	NaN
770	1.000000	0.012079	7.37259e+06	-38639.1	1055.82	-29793.6	0.000000	0.000000	6.012855	0.112123	NaN	0.000000	0.001661	0.001836	28.0809	0.054801	0.001135	48.2794	-0.074444	14.653	0.140326	0.010676	-1.064914	-1.066316	0.112123	48.2794	-1.066656	-1.787534E+14	-6.272513E-16	NaN
770	1.000000	0.021943	7.37259e+06	-38639.1	1055.82	-29793.6	0.000000	0.000000	6.022715	-0.003969	NaN	0.000000	0.001673	0.001784	28.0812	0.078019	0.001744	44.7453	-6.634800	-164.936	0.054269	0.020635	-1.055049	-1.056357	-0.003969	44.7453	-1.054983	-1.245626E+14	3.186449E-17	NaN
770	1.000000	0.031985	7.37259e+06	-38639.1	1055.82	-29793.6	0.000000	0.000000	6.032756	-0.030429	NaN	0.000000	0.001714	0.001767	28.0808	0.085252	0.001891	45.0731	91.8966	13.3279	-0.029550	0.030579	-1.045008	-1.046414	-0.030429	45.0731	-1.044501	-9.005116E+13	3.379054E-16	NaN
770	1.000000	0.041956	7.37259e+06	-38639.1	1055.82	-29793.6	0.000000	0.000000	6.042726	-0.032480	NaN	0.000000	0.001656	0.001753	28.0814	0.050312	0.002124	23.6856	-111.541	-164.809	-0.046145	0.040748	-1.035037	-1.036245	-0.032480	23.6856	-1.034008	-6.507162E+13	4.991362E-16	NaN
770	1.000000	0.051969	7.37259e+06	-38639.1	1055.82	-29793.6	0.000000	0.000000	6.052745	0.089458	NaN	0.000000	0.001684	0.001741	28.0808	0.032935	0.001950	16.8927	7.277144	15.8318	0.102890	0.050610	-1.025023	-1.026382	0.089458	16.8927	-1.028995	-5.571344E+13	-1.605690E-15	NaN
770	1.000000	0.061982	7.37259e+06	-38639.1	1055.82	-29793.6	0.000000	0.000000	6.062754	0.007872	NaN	0.000000	0.001726	0.001683	28.0814	0.058364	0.002031	28.7385	110.434	-164.432	-0.030560	0.060693	-1.015010	-1.016299	0.007872	28.7385	-1.015216	-3.635607E+13	-2.165187E-16	NaN
770	1.000000	0.071984	7.37259e+06	-38639.1	1055.82	-29793.6	0.000000	0.000000	6.072755	-0.021812	NaN	0.000000	0.001694	0.001723	28.0808	0.042742	0.001943	21.9987	58.8541	16.2649	0.016145	0.070621	-1.005009	-1.006372	-0.021812	21.9987	-1.004265	-2.589351E+13	8.423584E-16	NaN
770	1.000000	0.081989	7.37259e+06	-38639.1	1055.82	-29793.6	0.000000	0.000000	6.082760	-0.043614	NaN	0.000000	0.001678	0.001703	28.081	0.079346	0.002152	36.8643	-165.356	-166.217	0.032413	0.080675	-0.995003	-0.996318	-0.043614	36.8643	-0.994116	-1.890338E+13	2.307202E-15	NaN
770	1.000000	0.091973	7.37259e+06	-38639.1	1055.82	-29793.6	0.000000	0.000000	6.092747	0.066902	NaN	0.000000	0.001674	0.001742	28.0809	0.031123	0.002051	15.1727	14.7733	12.4981	0.114299	0.090620	-0.985020	-0.986373	0.066902	15.1727	-0.988327	-1.579713E+13	-4.235063E-15	NaN
770	1.000000	0.101984	7.37259e+06	-38639.1	1055.82	-29793.6	0.000000	0.000000	6.102756	-0.003581	NaN	0.000000	0.001696	0.001784	28.0808	0.079134	0.002098	37.7211	124.324	-166.077	-0.019825	0.100685	-0.975008	-0.976308	-0.003581	37.7211	-0.974937	-1.042780E+13	3.434544E-16	NaN
770	1.000000	0.112020	7.37259e+06	-38639.1	1055.82	-29793.6	0.000000	0.000000	6.112790	-0.040519	NaN	0.000000	0.001696	0.001745	28.0808	0.013223	0.002083	6.348783	2.663816	15.7302	-0.003410	0.110659	-0.964973	-0.966333	-0.040519	6.348783	-0.960186	-6.597494E+12	6.141570E-15	NaN
770	1.000000	0.122021	7.37259e+06	-38639.1	1055.82	-29793.6	0.000000	0.000000	6.122793	0.008644	NaN	0.000000	0.001712	0.001762	28.0807	0.118266	0.001978	59.7904	-165.457	-163.23	0.029848	0.120705	-0.954972	-0.956288	0.008644	59.7904	-0.955080	-5.630397E+12	-1.535229E-15	NaN
770	1.000000	0.132025	7.37259e+06	-38639.1	1055.82	-29793.6	0.000000	0.000000	6.132799	0.034965	NaN	0.000000	0.001717	0.001759	28.0809	0.059237	0.001815	32.6323	23.483	15.8902	0.016787	0.130688	-0.944967	-0.946305	0.034965	32.6323	-0.945771	-4.216835E+12	-8.291690E-15	NaN
770	1.000000	0.142044	7.37259e+06	-38639.1	1055.82	-29793.6	0.000000	0.000000	6.142816	0.008466	NaN	0.000000	0.001672	0.001721	28.0818	0.018031	0.001992	9.053987	74.0014	-164.115	0.000530	0.140685	-0.934949	-0.936308	0.008466	9.053987	-0.935650	-3.079259E+12	-2.749437E-15	NaN
770	1.000000	0.152029	7.37259e+06	-38639.1	1055.82	-29793.6	0.000000	0.000000	6.152800	-0.007952	NaN	0.000000	0.001693	0.001750	28.0819	0.033959	0.002010	16.8975	26.2964	14.7177	-0.004725	0.150677	-0.924964	-0.926315	-0.007952	16.8975	-0.924611	-2.185022E+12	3.639354E-15	NaN
770	1.000000	0.162009	7.37259e+06	-38639.1	1055.82	-29793.6	0.000000	0.000000	6.162783	0.046965	NaN	0.000000	0.001697	0.001737	28.0818	0.109114	0.002053	53.1543	-120.29	-165.572	0.044596	0.160741	-0.914984	-0.916252	0.046965	53.1543	-0.915646	-1.653564E+12	-2.840232E-14	NaN
770	1.000000	0.171999	7.37259e+06	-38639.1	1055.82	-29793.6	0.000000	0.000000	6.172771	0.001876	NaN	0.000000	0.001699	0.001732	28.0818	0.082373	0.001974	41.7337	26.2534	11.5905	0.028542	0.170645	-0.904994	-0.906347	0.001876	41.7337	-0.905028	-1.188487E+12	-1.578624E-15	NaN
770	1.000000	0.182033	7.37259e+06	-38639.1	1055.82	-29793.6	0.000000	0.000000	6.182804	-0.020674	NaN	0.000000	0.001674	0.001714	28.0821	0.010648	0.001882	5.657038	-142.816	-170.128	-0.019042	0.180688	-0.894959	-0.896304	-0.020674	5.657038	-0.892218	-7.978156E+11	2.591296E-14	NaN
770	1.000000	0.192030	7.37259e+06	-38639.1	1055.82	-29793.6	0.000000	0.000000	6.192802	0.006395	NaN	0.000000	0.001698	0.001749	28.0817	0.071193	0.001896	37.544	178.595	11.9905	0.017759	0.190688	-0.884962	-0.886304	0.006395	37.544	-0.885090	-6.390540E+11	-1.000759E-14	NaN
770	1.000000	0.202045	7.37259e+06	-38639.1	1055.82	-29793.6	0.000000	0.000000	6.202819	0.059908	NaN	0.000000	0.001721	0.001726	28.0818	0.033271	0.002107	15.792	161.052	-168.04	0.086871	0.200748	-0.874948	-0.876244	0.059908	15.792	-0.877793	-5.091661E+11	-1.176590E-13	NaN
770	1.000000	0.212057	7.37259e+06	-38639.1	1055.82	-29793.6	0.000000	0.000000	6.212831	0.060432	NaN	0.000000	0.001695	0.001714	28.0818	0.048842	0.002066	23.637	114.284	16.1446	0.019089	0.210714	-0.864936	-0.866278	0.060432	23.637	-0.866853	-3.621321E+11	-1.668796E-13	NaN
770	1.000000	0.222071	7.37259e+06	-38639.1	1055.82	-29793.6	0.000000	0.000000	6.222844	0.007549	NaN	0.000000	0.001690	0.001736	28.0818	0.066128	0.002134	30.9816	-161.668	-165.972	0.056203	0.220732	-0.854921	-0.856260	0.007549	30.9816	-0.855104	-2.510971E+11	-3.006212E-14	NaN
770	1.000000	0.232053	7.37259e+06	-38639.1	1055.82	-29793.6	0.000000	0.000000	6.232827	0.054846	NaN	0.000000	0.001703	0.001738	28.0817	0.046182	0.001955	23.6166	150.898	11.4734	0.027374	0.230665	-0.844940	-0.846328	0.054846	23.6166	-0.846681	-1.931059E+11	-2.840195E-13	NaN
770	1.000000	0.242048	7.37259e+06	-38639.1	1055.82	-29793.6	0.000000	0.000000	6.242820	0.001887	NaN	0.000000	0.001699	0.001743	28.0819	0.068652	0.002063	33.2786	40.5919	-167.445	-0.039788	0.240786	-0.834944	-0.836206	0.001887	33.2786	-0.834987	-1.340803E+11	-1.407675E-14	NaN
770	1.000000	0.252043	7.37259e+06	-38639.1	1055.82	-29793.6	0.000000	0.000000	6.252814	-0.025358	NaN	0.000000	0.001687	0.001683	28.0818	0.038190	0.002035	18.7706	84.2889	16.6202	-0.083928	0.250702	-0.824949	-0.826291	-0.025358	18.7706	-0.823936	-9.496907E+10	2.670137E-13	NaN
770	1.000000	0.262058	7.37259e+06	-38639.1	1055.82	-29793.6	0.000000	0.000000	6.262828	-0.040106	NaN	0.000000	0.001702	0.001771	28.0816	0.037822	0.002140	17.6733	-178.688	-168.096	0.032398	0.260768	-0.814934	-0.816224	-0.040106	17.6733	-0.813232	-6.798664E+10	5.899149E-13	NaN
770	1.000000	0.272072	7.37259e+06	-38639.1	1055.82	-29793.6	0.000000	0.000000	6.272844	0.016060	NaN	0.000000	0.001677	0.001684	28.0817	0.028401	0.001916	14.8223	166.722	15.3468	0.085995	0.270767	-0.804921	-0.806225	0.016060	14.8223	-0.805734	-5.378747E+10	-2.985826E-13	NaN
770	1.000000	0.282078	7.37259e+06	-38639.1	1055.82	-29793.6	0.000000	0.000000	6.282851	0.015423	NaN	0.000000	0.001706	0.001727	28.0805	0.033438	0.001983	16.8641	92.9814	-166.747	0.044750	0.280747	-0.794914	-0.796245	0.015423	16.8641	-0.795600	-3.918573E+10	-3.935882E-13	NaN
770	1.000000	0.292082	7.37259e+06	-38639.1	1055.82	-29793.6	0.000000	0.000000	6.292853	-0.001895	NaN	0.000000	0.001721	0.001678	28.0806	0.008871	0.002147	4.132298	101.171	14.363	-0.010011	0.290749	-0.784911	-0.786244	-0.001895	4.132298	-0.784567	-2.775146E+10	6.826852E-14	NaN
770	1.000000	0.302091	7.37259e+06	-38639.1	1055.82	-29793.6	0.000000	0.000000	6.302862	-0.027266	NaN	0.000000	0.001697	0.001687	28.0805	0.084178	0.002152	39.1144	19.3039	-166.002	0.019567	0.300774	-0.774901	-0.776219	-0.027266	39.1144	-0.774378	-2.017560E+10	1.351422E-12	NaN
770	1.000000	0.312093	7.37259e+06	-38639.1	1055.82	-29793.6	0.000000	0.000000	6.312862	-0.070849	NaN	0.000000	0.001655	0.001687	28.0809	0.075022	0.001960	38.2757	60.1725	13.634	-0.016402	0.310684	-0.764899	-0.766308	-0.070849	38.2757	-0.763511	-1.435690E+10	4.934808E-12	NaN
770	1.000000	0.322104	7.37259e+06	-38639.1	1055.82	-29793.6	0.000000	0.000000	6.322875	-0.041753	NaN	0.000000	0.001686	0.001712	28.0805	0.058914	0.001996	29.5166	-28.6941	-166.003	-0.036281	0.320770	-0.754888	-0.756223	-0.041753	29.5166	-0.753827	-1.060010E+10	3.938925E-12	NaN
770	1.000000	0.332071	7.37259e+06	-38639.1	1055.82	-29793.6	0.000000	0.000000	6.332841	-0.057305	NaN	0.000000	0.001655	0.001692	28.0807	0.050755	0.001998	25.4079	-95.5146	15.3962	-0.005759	0.330687	-0.744921	-0.746305	-0.057305	25.4079	-0.743230	-7.604012E+9	7.536172E-12	NaN
770	1.000000	0.342073	7.37259e+06	-38639.1	1055.82	-29793.6	0.000000	0.000000	6.342844	-0.017963	NaN	0.000000	0.001661	0.001677	28.0803	0.071242	0.002078	34.2848	110.983	-165.861	-0.075239	0.340782	-0.734920	-0.736211	-0.017963	34.2848	-0.734527	-5.787564E+9	3.103666E-12	NaN
770	1.000000	0.352135	7.37259e+06	-38639.1	1055.82	-29793.6	0.000000	0.000000	6.352905	-0.037617	NaN	0.000000	0.001646	0.001681	28.0804	0.037137	0.001917	19.3706	-112.119	18.2916	-0.029161	0.350742	-0.724858	-0.726250	-0.037617	19.3706	-0.723402	-4.081861E+9	9.215549E-12	NaN
770	1.000000	0.362117	7.37259e+06	-38639.1	1055.82	-29793.6	0.000000	0.000000	6.362889	-0.002466	NaN	0.000000	0.001672	0.001681	28.0802	0.007396	0.001991	3.714027	92.7192	-165.917	-0.022662	0.360783	-0.714876	-0.716209	-0.002466	3.714027	-0.714378	-3.074542E+9	8.020702E-13	NaN
770	1.000000	0.372108	7.37259e+06	-38639.1	1055.82	-29793.6	0.000000	0.000000	6.372881	0.011242	NaN	0.000000	0.001639	0.001669	28.0805	0.098809	0.001934	51.1003	-44.3624	15.2054	0.062664	0.370803	-0.704884	-0.706190	0.011242	51.1003	-0.705049	-2.293370E+9	-4.901982E-12	NaN
770	1.000000	0.382135	7.37259e+06	-38639.1	1055.82	-29793.6	0.000000	0.000000	6.382910	0.062283	NaN	0.000000	0.001656	0.001661	28.0804	0.121518	0.001982	61.3014	117.239	-165.349	0.027492	0.380778	-0.694857	-0.696214	0.062283	61.3014	-0.695619	-1.704903E+9	-3.653150E-11	NaN
770	1.000000	0.392120	7.37259e+06	-38639.1	1055.82	-29793.6	0.000000	0.000000	6.392891	-0.022557	NaN	0.000000	0.001661	0.001674	28.0804	0.031783	0.002103	15.1156	121.658	12.4069	0.010159	0.390727	-0.684872	-0.686265	-0.022557	15.1156	-0.683753	-1.173622E+9	1.921977E-11	NaN
770	1.000000	0.402119	7.37259e+06	-38639.1	1055.82	-29793.6	0.000000	0.000000	6.402891	0.013989	NaN	0.000000	0.001656	0.001694	28.0802	0.040682	0.001916	21.2379	30.3655	-166.082	0.048031	0.400757	-0.674874	-0.676236	0.013989	21.2379	-0.675368	-9.012419E+8	-1.552228E-11	NaN
770	1.000000	0.412128	7.37259e+06	-38639.1	1055.82	-29793.6	0.000000	0.000000	6.412899	-0.017809	NaN	0.000000	0.001674	0.001751	28.0814	0.050233	0.001941	25.8806	34.7353	14.2361	0.067563	0.410736	-0.664864	-0.666256	-0.017809	25.8806	-0.664348	-6.368237E+8	2.796598E-11	NaN
770	1.000000	0.422152	7.37259e+06	-38639.1	1055.82	-29793.6	0.000000	0.000000	6.422929	0.119239	NaN	0.000000	0.001659	0.001662	28.0816	0.053668	0.002015	26.6403	138.349	-165.263	0.066691	0.420780	-0.654841	-0.656212	0.119239	26.6403	-0.658198	-5.245422E+8	-2.273207E-10	NaN
770	1.000000	0.432138	7.37259e+06	-38639.1	1055.82	-29793.6	0.000000	0.000000	6.432911	0.037929	NaN	0.000000	0.001655	0.001685	28.0816	0.038560	0.001975	19.5277	-23.6867	13.8921	0.095858	0.430753	-0.644855	-0.646239	0.037929	19.5277	-0.646312	-3.604666E+8	-1.052226E-10	NaN
770	1.000000	0.442111	7.37259e+06	-38639.1	1055.82	-29793.6	0.000000	0.000000	6.442884	0.017836	NaN	0.000000	0.001623	0.001651	28.0815	0.060513	0.001849	32.7206	39.5774	-165.456	0.012493	0.440854	-0.634882	-0.636138	0.017836	32.7206	-0.635290	-2.544830E+8	-7.008808E-11	NaN
770	1.000000	0.452145	7.37259e+06	-38639.1	1055.82	-29793.6	0.000000	0.000000	6.452922	0.104631	NaN	0.000000	0.001645	0.001654	28.082	0.035921	0.002039	17.6142	-136.053	13.8889	0.054919	0.450779	-0.624847	-0.626214	0.104631	17.6142	-0.629302	-2.105922E+8	-4.968410E-10	NaN
770	1.000000	0.462147	7.37259e+06	-38639.1	1055.82	-29793.6	0.000000	0.000000	6.462919	0.006702	NaN	0.000000	0.001653	0.001662	28.0816	0.064586	0.002007	32.1872	75.135	-166.287	-0.061869	0.460850	-0.614846	-0.616142	0.006702	32.1872	-0.615002	-1.339414E+8	-5.003701E-11	NaN
770	1.000000	0.472181	7.37259e+06	-38639.1	1055.82	-29793.6	0.000000	0.000000	6.472954	0.038011	NaN	0.000000	0.001651	0.001664	28.0818	0.020389	0.002064	9.877956	138.328	14.5408	0.108246	0.470764	-0.604812	-0.606229	0.038011	9.877956	-0.607698	-1.062768E+8	-3.576631E-10	NaN
770	1.000000	0.482158	7.37259e+06	-38639.1	1055.82	-29793.6	0.000000	0.000000	6.482932	0.057165	NaN	0.000000	0.001629	0.001695	28.0818	0.043859	0.001954	22.4414	-89.4097	-164.088	0.092321	0.480823	-0.594835	-0.596169	0.057165	22.4414	-0.596745	-7.509797E+7	-7.612088E-10	NaN
770	1.000000	0.492183	7.37259e+06	-38639.1	1055.82	-29793.6	0.000000	0.000000	6.492958	0.076845	NaN	0.000000	0.001617	0.001688	28.0819	0.107193	0.002011	53.3013	-43.5521	17.1451	0.038860	0.490882	-0.584810	-0.586111	0.076845	53.3013	-0.585891	-5.321109E+7	-1.444156E-9	NaN
770	1.000000	0.502166	7.37259e+06	-38639.1	1055.82	-29793.6	0.000000	0.000000	6.502936	-0.051657	NaN	0.000000	0.001637	0.001700	28.0815	0.088142	0.001999	44.0883	20.1711	-166.77	-0.006160	0.500916	-0.574826	-0.576076	-0.051657	44.0883	-0.573948	-3.640530E+7	1.418937E-9	NaN
770	1.000000	0.512166	7.37259e+06	-38639.1	1055.82	-29793.6	0.000000	0.000000	6.512938	-0.006849	NaN	0.000000	0.001626	0.001673	28.0815	0.069499	0.002013	34.5232	-44.8353	15.5722	0.015591	0.510859	-0.564827	-0.566133	-0.006849	34.5232	-0.564678	-2.710638E+7	2.526661E-10	NaN
770	1.000000	0.522177	7.37259e+06	-38639.1	1055.82	-29793.6	0.000000	0.000000	6.522951	0.028206	NaN	0.000000	0.001634	0.001703	28.0816	0.209581	0.001918	109.245	-151.05	-161.742	0.028342	0.520901	-0.554815	-0.556091	0.028206	109.245	-0.555009	-1.992088E+7	-1.415910E-9	NaN
770	1.000000	0.532169	7.37259e+06	-38639.1	1055.82	-29793.6	0.000000	0.000000	6.532942	0.037059	NaN	0.000000	0.001656	0.001692	28.0816	0.115866	0.002068	56.039	178.511	14.3864	0.073264	0.530815	-0.544824	-0.546177	0.037059	56.039	-0.545320	-1.462551E+7	-2.533865E-9	NaN
770	1.000000	0.542152	7.37259e+06	-38639.1	1055.82	-29793.6	0.000000	0.000000	6.542927	0.072892	NaN	0.000000	0.001667	0.001684	28.0817	0.059416	0.001943	30.5755	117.36	-164.834	0.094201	0.540837	-0.534840	-0.536156	0.072892	30.5755	-0.536628	-1.108119E+7	-6.577966E-9	NaN
770	1.000000	0.552186	7.37259e+06	-38639.1	1055.82	-29793.6	0.000000	0.000000	6.552960	0.031985	NaN	0.000000	0.001658	0.001723	28.0803	0.048316	0.001963	24.6103	88.6211	13.1276	-0.042455	0.550838	-0.524806	-0.526155	0.031985	24.6103	-0.525781	-7.83366e+06	-4.083037E-9	NaN
770	1.000000	0.562169	7.37259e+06	-38639.1	1055.82	-29793.6	0.000000	0.000000	6.562941	0.004399	NaN	0.000000	0.001648	0.001710	28.0809	0.087016	0.001976	44.0443	-175.09	-168.385	-0.012144	0.560916	-0.514824	-0.516077	0.004399	44.0443	-0.514899	-5.52873e+06	-7.955928E-10	NaN
770	1.000000	0.572188	7.37259e+06	-38639.1	1055.82	-29793.6	0.000000	0.000000	6.572961	0.028003	NaN	0.000000	0.001648	0.001696	28.0805	0.127216	0.001986	64.0439	55.4986	15.4891	0.020432	0.570825	-0.504804	-0.506168	0.028003	64.0439	-0.505132	-4.04194e+06	-6.928200E-9	NaN
770	1.000000	0.582196	7.37259e+06	-38639.1	1055.82	-29793.6	0.000000	0.000000	6.582968	0.009142	NaN	0.000000	0.001674	0.001690	28.0806	0.100973	0.002027	49.8236	-86.1419	-165.352	-0.022157	0.580884	-0.494797	-0.496109	0.009142	49.8236	-0.494934	-2.91286e+06	-3.138502E-9	NaN
770	1.000000	0.592172	7.37259e+06	-38639.1	1055.82	-29793.6	0.000000	0.000000	6.592945	0.013137	NaN	0.000000	0.001668	0.001686	28.0804	0.023089	0.002000	11.544	-49.3234	16.1869	0.018111	0.590858	-0.484820	-0.486135	0.013137	11.544	-0.485674	-2.16229e+06	-6.075647E-9	NaN
770	1.000000	0.602225	7.37259e+06	-38639.1	1055.82	-29793.6	0.000000	0.000000	6.602998	0.034402	NaN	0.000000	0.001639	0.001715	28.0808	0.061848	0.002050	30.1627	-141.748	-168.259	0.079381	0.600942	-0.474768	-0.476051	0.034402	30.1627	-0.475623	-1.56399e+06	-2.199644E-8	NaN
770	1.000000	0.612223	7.37259e+06	-38639.1	1055.82	-29793.6	0.000000	0.000000	6.612997	0.051547	NaN	0.000000	0.001639	0.001692	28.0804	0.083195	0.002095	39.7055	20.0853	13.4137	0.046800	0.610817	-0.464770	-0.466175	0.051547	39.7055	-0.465744	-1.1368e+06	-4.534420E-8	NaN
770	1.000000	0.622237	7.37259e+06	-38639.1	1055.82	-29793.6	0.000000	0.000000	6.623013	0.088406	NaN	0.000000	0.001655	0.001687	28.0803	0.046161	0.001880	24.5585	-71.4724	-163.967	0.019551	0.620881	-0.454755	-0.456111	0.088406	24.5585	-0.457455	-869455	-1.016796E-7	NaN
770	1.000000	0.632250	7.37259e+06	-38639.1	1055.82	-29793.6	0.000000	0.000000	6.633024	0.034555	NaN	0.000000	0.001663	0.001689	28.0804	0.064560	0.002109	30.6111	163.363	14.1103	0.012280	0.630802	-0.444742	-0.446191	0.034555	30.6111	-0.445589	-591823	-5.838808E-8	NaN
770	1.000000	0.642220	7.37259e+06	-38639.1	1055.82	-29793.6	0.000000	0.000000	6.642990	-0.040183	NaN	0.000000	0.001698	0.001724	28.0803	0.080922	0.001870	43.2729	-137.473	-165.087	-0.063856	0.640890	-0.434773	-0.436103	-0.040183	43.2729	-0.434077	-407103	9.870384E-8	NaN
770	1.000000	0.652235	7.37259e+06	-38639.1	1055.82	-29793.6	0.000000	0.000000	6.653008	0.017537	NaN	0.000000	0.001669	0.001735	28.0804	0.031625	0.001934	16.3509	-5.532534	14.9281	-0.058388	0.650898	-0.424757	-0.426095	0.017537	16.3509	-0.425562	-308488	-5.684936E-8	NaN
770	1.000000	0.662240	7.37259e+06	-38639.1	1055.82	-29793.6	0.000000	0.000000	6.663012	0.013489	NaN	0.000000	0.001677	0.001731	28.0804	0.150857	0.001887	79.9424	-173.241	-163.84	-0.015952	0.660891	-0.414753	-0.416102	0.013489	79.9424	-0.414879	-217640	-6.198022E-8	NaN
770	1.000000	0.672228	7.37259e+06	-38639.1	1055.82	-29793.6	0.000000	0.000000	6.672999	-0.030103	NaN	0.000000	0.001727	0.001743	28.0805	0.088147	0.001886	46.7398	142.256	13.1993	-0.108250	0.670857	-0.404764	-0.406135	-0.030103	46.7398	-0.404281	-153819	1.957058E-7	NaN
770	1.000000	0.682263	7.37259e+06	-38639.1	1055.82	-29793.6	0.000000	0.000000	6.683032	-0.083245	NaN	0.000000	0.001685	0.001776	28.0806	0.066446	0.002002	33.1939	87.5634	-168.232	-0.156454	0.680934	-0.394729	-0.396059	-0.083245	33.1939	-0.392849	-105657	7.878770E-7	NaN
770	1.000000	0.692261	7.37259e+06	-38639.1	1055.82	-29793.6	0.000000	0.000000	6.693034	0.014132	NaN	0.000000	0.001700	0.001743	28.0815	0.058889	0.001982	29.711	29.5979	13.937	0.031008	0.690884	-0.384731	-0.386108	0.014132	29.711	-0.385088	-81817.3	-1.727318E-7	NaN
770	1.000000	0.702245	7.37259e+06	-38639.1	1055.82	-29793.6	0.000000	0.000000	6.703020	0.088756	NaN	0.000000	0.001630	0.001719	28.0816	0.064937	0.002004	32.4029	131.626	-165.393	0.064622	0.700946	-0.374748	-0.376047	0.088756	32.4029	-0.376802	-62226.1	-1.426349E-6	NaN
770	1.000000	0.712259	7.37259e+06	-38639.1	1055.82	-29793.6	0.000000	0.000000	6.713033	0.053854	NaN	0.000000	0.001668	0.001734	28.0818	0.077135	0.002011	38.356	40.6931	13.0978	0.007301	0.710955	-0.364734	-0.366037	0.053854	38.356	-0.365787	-43192.1	-1.246861E-6	NaN
770	1.000000	0.722247	7.37259e+06	-38639.1	1055.82	-29793.6	0.000000	0.000000	6.723021	0.033874	NaN	0.000000	0.001676	0.001728	28.0816	0.057563	0.002018	28.5279	-96.5886	-164.217	0.094792	0.720952	-0.354745	-0.356041	0.033874	28.5279	-0.355636	-30810.9	-1.099413E-6	NaN
770	1.000000	0.732258	7.37259e+06	-38639.1	1055.82	-29793.6	0.000000	0.000000	6.733031	0.037310	NaN	0.000000	0.001689	0.001753	28.0816	0.080483	0.002122	37.9333	104.162	13.7531	-0.008801	0.730945	-0.344735	-0.346048	0.037310	37.9333	-0.345472	-21939.4	-1.700614E-6	NaN
770	1.000000	0.742286	7.37259e+06	-38639.1	1055.82	-29793.6	0.000000	0.000000	6.743058	-0.001044	NaN	0.000000	0.001658	0.001762	28.082	0.059056	0.001918	30.7876	-69.7216	-168.531	0.019023	0.740966	-0.334706	-0.336027	-0.001044	30.7876	-0.334681	-15272.9	6.836996E-8	NaN
770	1.000000	0.752265	7.37259e+06	-38639.1	1055.82	-29793.6	0.000000	0.000000	6.753040	0.065274	NaN	0.000000	0.001660	0.001707	28.0818	0.055263	0.001959	28.2058	177.166	12.0622	0.022736	0.750976	-0.324727	-0.326016	0.065274	28.2058	-0.326463	-11577.3	-5.638104E-6	NaN
770	1.000000	0.762292	7.37259e+06	-38639.1	1055.82	-29793.6	0.000000	0.000000	6.763064	0.011562	NaN	0.000000	0.001695	0.001711	28.0816	0.064740	0.002056	31.4868	38.0985	-167.003	0.088847	0.760964	-0.314700	-0.316029	0.011562	31.4868	-0.314976	-7844.98	-1.473770E-6	NaN
770	1.000000	0.772280	7.37259e+06	-38639.1	1055.82	-29793.6	0.000000	0.000000	6.773052	-0.006957	NaN	0.000000	0.001686	0.001736	28.0815	0.026117	0.002077	12.5713	53.397	16.8873	-0.043864	0.770942	-0.304712	-0.306051	-0.006957	12.5713	-0.304297	-5451.57	1.276140E-6	NaN
770	1.000000	0.782298	7.37259e+06	-38639.1	1055.82	-29793.6	0.000000	0.000000	6.783071	0.048770	NaN	0.000000	0.001622	0.001744	28.0819	0.044690	0.002092	21.3589	19.8111	-166.224	0.075034	0.780969	-0.294695	-0.296023	0.048770	21.3589	-0.296408	-4160.04	-1.172346E-5	NaN
770	1.000000	0.792290	7.37259e+06	-38639.1	1055.82	-29793.6	0.000000	0.000000	6.793061	-0.029653	NaN	0.000000	0.001664	0.001731	28.0817	0.052153	0.002012	25.9215	8.750056	12.587	0.006961	0.790943	-0.284702	-0.286050	-0.029653	25.9215	-0.283844	-2697.02	1.099488E-5	NaN
770	1.000000	0.802300	7.37259e+06	-38639.1	1055.82	-29793.6	0.000000	0.000000	6.803073	0.026025	NaN	0.000000	0.001671	0.001741	28.0818	0.035829	0.001954	18.3374	-153.822	-165.116	0.000704	0.800952	-0.274693	-0.276041	0.026025	18.3374	-0.275757	-2036.41	-1.277989E-5	NaN
770	1.000000	0.812262	7.37259e+06	-38639.1	1055.82	-29793.6	0.000000	0.000000	6.813035	0.025992	NaN	0.000000	0.001673	0.001742	28.0819	0.052104	0.001931	26.9799	149.39	12.5609	0.050749	0.810899	-0.264731	-0.266093	0.025992	26.9799	-0.265453	-1420.05	-1.830342E-5	NaN
770	1.000000	0.822292	7.37259e+06	-38639.1	1055.82	-29793.6	0.000000	0.000000	6.823070	0.131846	NaN	0.000000	0.001684	0.001737	28.0809	0.133761	0.001841	72.6381	60.2291	-163.334	0.024999	0.820974	-0.254700	-0.256018	0.131846	72.6381	-0.256062	-1019.65	-0.000129	NaN
770	1.000000	0.832322	7.37259e+06	-38639.1	1055.82	-29793.6	0.000000	0.000000	6.833095	0.027932	NaN	0.000000	0.001649	0.001729	28.0808	0.064480	0.001976	32.6328	54.9827	16.7009	-0.031401	0.830971	-0.244671	-0.246022	0.027932	32.6328	-0.245313	-695.521	-4.015977E-5	NaN
770	1.000000	0.842331	7.37259e+06	-38639.1	1055.82	-29793.6	0.000000	0.000000	6.843105	0.037509	NaN	0.000000	0.001650	0.001747	28.0806	0.038154	0.002040	18.7014	80.0151	-164.326	0.030588	0.840984	-0.234661	-0.236009	0.037509	18.7014	-0.236166	-500.659	-7.491942E-5	NaN
770	1.000000	0.852294	7.37259e+06	-38639.1	1055.82	-29793.6	0.000000	0.000000	6.853065	-0.016604	NaN	0.000000	0.001666	0.001758	28.081	0.069851	0.002013	34.6918	74.0775	15.0052	-0.070654	0.850959	-0.224699	-0.226034	-0.016604	34.6918	-0.224340	-325.719	5.097736E-5	NaN
770	1.000000	0.862341	7.37259e+06	-38639.1	1055.82	-29793.6	0.000000	0.000000	6.863114	0.017943	NaN	0.000000	0.001669	0.001760	28.0807	0.018010	0.001944	9.264925	-151.445	-167.974	0.023949	0.860979	-0.214651	-0.216013	0.017943	9.264925	-0.216104	-240.577	-7.458232E-5	NaN
770	1.000000	0.872316	7.37259e+06	-38639.1	1055.82	-29793.6	0.000000	0.000000	6.873091	0.063672	NaN	0.000000	0.001691	0.001774	28.0809	0.090674	0.002001	45.3233	65.2544	10.7481	-0.004122	0.870999	-0.204676	-0.205993	0.063672	45.3233	-0.205730	-163.476	-0.000389	NaN
770	1.000000	0.882334	7.37259e+06	-38639.1	1055.82	-29793.6	0.000000	0.000000	6.883107	0.035077	NaN	0.000000	0.001671	0.001756	28.0805	0.065286	0.001929	33.851	-8.161142	-163.46	0.030321	0.881063	-0.194659	-0.195929	0.035077	33.851	-0.195436	-110.771	-0.000317	NaN
770	1.000000	0.892358	7.37259e+06	-38639.1	1055.82	-29793.6	0.000000	0.000000	6.893129	-0.020824	NaN	0.000000	0.001683	0.001784	28.0811	0.128515	0.002013	63.8484	68.1802	14.1662	-0.043463	0.890997	-0.184635	-0.185995	-0.020824	63.8484	-0.184390	-72.4187	0.000288	NaN
770	1.000000	0.902311	7.37259e+06	-38639.1	1055.82	-29793.6	0.000000	0.000000	6.903085	0.055106	NaN	0.000000	0.001673	0.001759	28.0806	0.119561	0.001934	61.8273	147.51	-165.418	0.019955	0.901026	-0.174682	-0.175966	0.055106	61.8273	-0.175350	-50.8153	-0.001084	NaN
770	1.000000	0.912362	7.37259e+06	-38639.1	1055.82	-29793.6	0.000000	0.000000	6.913131	-0.072879	NaN	0.000000	0.001697	0.001714	28.0807	0.048477	0.002014	24.0709	-111.13	13.7368	-0.037049	0.910997	-0.164630	-0.165996	-0.072879	24.0709	-0.162360	-30.1853	0.002414	NaN
770	1.000000	0.922331	7.37259e+06	-38639.1	1055.82	-29793.6	0.000000	0.000000	6.923102	-0.025950	NaN	0.000000	0.001647	0.001775	28.0805	0.100241	0.002072	48.3861	148.361	-164.94	-0.086771	0.921001	-0.154661	-0.155991	-0.025950	48.3861	-0.154259	-21.6387	0.001199	NaN
770	1.000000	0.932354	7.37259e+06	-38639.1	1055.82	-29793.6	0.000000	0.000000	6.933126	0.012487	NaN	0.000000	0.001649	0.001773	28.0807	0.082159	0.001923	42.7165	155.973	15.3315	0.024217	0.930978	-0.144639	-0.146015	0.012487	42.7165	-0.144858	-14.5727	-0.000857	NaN
770	1.000000	0.942358	7.37259e+06	-38639.1	1055.82	-29793.6	0.000000	0.000000	6.943133	0.065753	NaN	0.000000	0.001614	0.001767	28.0804	0.076590	0.002118	36.1671	127.919	-166.794	0.057362	0.941066	-0.134634	-0.135926	0.065753	36.1671	-0.135998	-9.938257	-0.006616	NaN
770	1.000000	0.952336	7.37259e+06	-38639.1	1055.82	-29793.6	0.000000	0.000000	6.953111	0.068186	NaN	0.000000	0.001635	0.001851	28.0805	0.056077	0.001968	28.4936	159.876	13.372	0.045237	0.950987	-0.124656	-0.126005	0.068186	28.4936	-0.126451	-6.495757	-0.010497	NaN
770	1.000000	0.962318	7.37259e+06	-38639.1	1055.82	-29793.6	0.000000	0.000000	6.963091	0.019597	NaN	0.000000	0.001757	0.001743	28.0819	0.038083	0.001877	20.2914	-94.8037	-169.315	0.052974	0.961116	-0.114675	-0.115877	0.019597	20.2914	-0.115399	-3.893339	-0.005033	NaN
770	1.000000	0.972375	7.37259e+06	-38639.1	1055.82	-29793.6	0.000000	0.000000	6.973147	-0.012219	NaN	0.000000	0.001763	0.001782	28.082	0.098971	0.001946	50.865	-91.3893	17.3517	0.067220	0.970993	-0.104617	-0.105999	-0.012219	50.865	-0.104437	-2.285592	0.005346	NaN
770	1.000000	0.982363	7.37259e+06	-38639.1	1055.82	-29793.6	0.000000	0.000000	6.983134	-0.014707	NaN	0.000000	0.001723	0.001752	28.0817	0.071668	0.001986	36.0814	-86.302	-163.621	0.001478	0.981041	-0.094629	-0.095952	-0.014707	36.0814	-0.094324	-1.361366	0.010803	NaN
770	1.000000	0.992369	7.37259e+06	-38639.1	1055.82	-29793.6	0.000000	0.000000	6.993144	0.054819	NaN	0.000000	0.001772	0.001742	28.082	0.077552	0.002101	36.9093	-140.901	13.0403	-0.025115	0.991035	-0.084623	-0.085957	0.054819	36.9093	-0.085737	-0.856004	-0.064040	NaN
770	1.000000	1.002366	7.37259e+06	-38639.1	1055.82	-29793.6	0.000000	0.000000	7.003137	-0.003565	NaN	0.000000	0.001732	0.001772	28.0821	0.037545	0.001947	19.2822	104.517	-163.794	0.001689	1.001072	-0.074627	-0.075921	-0.003565	19.2822	-0.074488	-0.447978	0.007958	NaN
770	1.000000	1.012387	7.37259e+06	-38639.1	1055.82	-29793.6	0.000000	0.000000	7.013160	0.010299	NaN	0.000000	0.001751	0.001750	28.0819	0.038475	0.001974	19.489	-71.7042	13.869	0.007058	1.011007	-0.064605	-0.065985	0.010299	19.489	-0.065001	-0.249238	-0.041323	NaN
770	1.000000	1.022390	7.37259e+06	-38639.1	1055.82	-29793.6	0.000000	0.000000	7.023163	0.037850	NaN	0.000000	0.001762	0.001768	28.0819	0.038025	0.002150	17.6889	120.226	-164.337	-0.042948	1.021119	-0.054603	-0.055873	0.037850	17.6889	-0.056208	-0.139770	-0.270805	NaN
770	1.000000	1.032378	7.37259e+06	-38639.1	1055.82	-29793.6	0.000000	0.000000	7.033151	0.009947	NaN	0.000000	0.001726	0.001749	28.082	0.082595	0.001944	42.4898	107.546	13.5871	0.000266	1.031012	-0.044614	-0.045980	0.009947	42.4898	-0.044790	-0.063324	-0.157074	NaN
770	1.000000	1.042393	7.37259e+06	-38639.1	1055.82	-29793.6	0.000000	0.000000	7.043173	0.206152	NaN	0.000000	0.001754	0.001753	28.0819	0.276644	0.002151	128.598	3.757614	-168.672	0.123485	1.041063	-0.034600	-0.035930	0.206152	128.598	-0.035802	-0.033820	-6.095502	NaN
770	1.000000	1.052360	7.37259e+06	-38639.1	1055.82	-29793.6	0.000000	0.000000	7.053183	1.254396	NaN	0.000000	0.001753	0.001752	28.082	0.611559	0.001903	321.361	22.2595	12.7443	1.207818	1.051041	-0.024633	-0.025951	1.254396	321.361	-0.027561	-0.019728	-63.586	NaN
770	1.000000	1.062410	7.37259e+06	-38639.1	1055.82	-29793.6	0.000000	0.000000	7.063270	2.158718	NaN	0.000000	0.001748	0.001756	28.0818	0.790522	0.001991	396.975	12.522	-164.458	1.975919	1.061054	-0.014583	-0.015939	2.158718	396.975	-0.018661	-0.011610	-185.94	NaN
770	1.000000	1.072390	7.37259e+06	-38639.1	1055.82	-29793.6	0.000000	0.000000	7.073285	2.997266	NaN	0.000000	0.001783	0.001753	28.0821	1.008088	0.001859	542.31	11.7402	13.3061	2.914882	1.071018	-0.004603	-0.005974	2.997266	542.31	-0.008748	-0.005667	-528.893	NaN
770	1.000000	1.082399	7.37259e+06	-38639.1	1055.82	-29793.6	0.000000	0.000000	7.083348	4.313222	NaN	0.000000	0.001751	0.001771	28.0819	1.667332	0.001989	838.071	9.536902	-164.31	4.023879	1.081100	0.005406	0.004108	4.313222	838.071	0.001546	0.001191	3620.56	22184.1
770	1.000000	1.092395	7.37259e+06	-38639.1	1055.82	-29793.6	0.000000	0.000000	7.093445	6.757231	NaN	0.000000	0.001743	0.001751	28.0815	2.102315	0.002121	991.072	16.6712	12.0803	6.422046	1.091093	0.015403	0.014100	6.757231	991.072	0.010289	0.009504	710.96	9287.88
770	1.000000	1.102303	7.37259e+06	-38639.1	1055.82	-29793.6	0.000000	0.000000	7.103452	9.178883	NaN	0.000000	0.001771	0.001748	28.0807	2.866587	0.001992	1438.83	12.5248	-168.449	8.912499	1.101083	0.025311	0.024090	9.178883	1438.83	0.020526	0.023376	392.67	8598.1
770	2.000000	1.105439	7.37259e+06	-38639.1	1055.82	-29793.6	0.000000	0.000000	7.106592	9.287095	NaN	0.000000	0.001748	0.001746	28.0808	3.229639	0.002077	1555.14	7.738385	13.0163	9.085168	1.105068	0.028446	0.028075	9.287095	1555.14	0.023967	0.029164	318.449	8319.98
770	2.000000	1.107925	7.37259e+06	-38639.1	1055.82	-29793.6	0.000000	0.000000	7.109117	10.2325	NaN	0.000000	0.001766	0.001775	28.0807	3.486247	0.002048	1701.99	7.443168	-164.267	10.1059	1.107599	0.030932	0.030607	10.2325	1701.99	0.026423	0.033655	304.036	8476.25
770	2.000000	1.110430	7.37259e+06	-38639.1	1055.82	-29793.6	0.000000	0.000000	7.111679	11.6225	NaN	0.000000	0.001796	0.001732	28.0807	3.666948	0.002028	1807.97	11.6428	10.4535	11.3448	1.109993	0.033437	0.033001	11.6225	1807.97	0.028616	0.037923	306.475	8482.24
770	2.000000	1.112886	7.37259e+06	-38639.1	1055.82	-29793.6	0.000000	0.000000	7.114180	12.6848	NaN	0.000000	0.001744	0.001727	28.0808	3.683302	0.001913	1924.92	11.8871	-173.76	12.4112	1.112605	0.035894	0.035613	12.6848	1924.92	0.030952	0.042739	296.797	8506.95
770	2.000000	1.115383	7.37259e+06	-38639.1	1055.82	-29793.6	0.000000	0.000000	7.116715	13.6331	NaN	0.000000	0.001745	0.001713	28.0806	3.940582	0.001862	2116.63	8.705328	11.7015	13.2513	1.115023	0.038391	0.038030	13.6331	2116.63	0.033560	0.048446	281.411	8785.99
770	2.000000	1.117842	7.37259e+06	-38639.1	1055.82	-29793.6	0.000000	0.000000	7.119213	14.5763	NaN	0.000000	0.001703	0.001755	28.0806	4.183998	0.001971	2122.76	10.1987	-169.299	14.2488	1.117564	0.040850	0.040572	14.5763	2122.76	0.035700	0.053388	273.026	8393.7
770	2.000000	1.120337	7.37259e+06	-38639.1	1055.82	-29793.6	0.000000	0.000000	7.121760	15.8421	NaN	0.000000	0.001689	0.001731	28.0807	4.464490	0.001967	2269.16	7.883694	9.137630	15.5115	1.119997	0.043344	0.043005	15.8421	2269.16	0.038108	0.059231	267.462	8518.52
770	2.000000	1.122862	7.37259e+06	-38639.1	1055.82	-29793.6	0.000000	0.000000	7.124322	16.7305	NaN	0.000000	0.001666	0.001712	28.0811	4.697570	0.002081	2257.88	11.0263	-171.324	16.7551	1.122559	0.045870	0.045567	16.7305	2257.88	0.040313	0.064839	258.033	8101.34
770	2.000000	1.125354	7.37259e+06	-38639.1	1055.82	-29793.6	0.000000	0.000000	7.126864	17.9625	NaN	0.000000	0.001675	0.001718	28.0806	4.763892	0.002090	2279.78	11.6352	8.294248	17.6586	1.124972	0.048361	0.047979	17.9625	2279.78	0.042452	0.070519	254.72	7843.57
770	2.000000	1.127868	7.37259e+06	-38639.1	1055.82	-29793.6	0.000000	0.000000	7.129427	19.1538	NaN	0.000000	0.001649	0.001718	28.0808	4.746611	0.001910	2484.57	10.9233	-171.876	19.1286	1.127504	0.050875	0.050512	19.1538	2484.57	0.045094	0.077853	246.025	8135.54
770	2.000000	1.130386	7.37259e+06	-38639.1	1055.82	-29793.6	0.000000	0.000000	7.132008	20.6864	NaN	0.000000	0.001699	0.001719	28.0808	5.139796	0.001914	2685.58	9.032501	10.7553	20.2052	1.129998	0.053394	0.053006	20.6864	2685.58	0.047617	0.085189	242.831	8406.6
770	2.000000	1.132827	7.37259e+06	-38639.1	1055.82	-29793.6	0.000000	0.000000	7.134509	22.1575	NaN	0.000000	0.001701	0.001705	28.0809	5.332554	0.001991	2678.32	8.436585	-170.892	21.7106	1.132514	0.055834	0.055522	22.1575	2678.32	0.049630	0.091272	242.764	8099.66
770	2.000000	1.135335	7.37259e+06	-38639.1	1055.82	-29793.6	0.000000	0.000000	7.137090	23.9113	NaN	0.000000	0.001723	0.001694	28.0819	5.590805	0.001986	2815.01	7.554682	8.926613	23.3303	1.134904	0.058343	0.057912	23.9113	2815.01	0.051972	0.098606	242.493	8190.31
770	2.000000	1.137802	7.37259e+06	-38639.1	1055.82	-29793.6	0.000000	0.000000	7.139639	25.9192	NaN	0.000000	0.001671	0.001718	28.0822	5.944996	0.001991	2985.6	10.471	-171.341	25.2452	1.137474	0.060809	0.060481	25.9192	2985.6	0.054298	0.106160	244.152	8371.9
770	2.000000	1.140296	7.37259e+06	-38639.1	1055.82	-29793.6	0.000000	0.000000	7.142197	27.4771	NaN	0.000000	0.001700	0.001743	28.0822	6.001679	0.001943	3088.16	8.574491	9.207004	26.6522	1.140027	0.063304	0.063035	27.4771	3088.16	0.056630	0.114003	241.021	8356.31
770	2.000000	1.142827	7.37259e+06	-38639.1	1055.82	-29793.6	0.000000	0.000000	7.144804	29.3274	NaN	0.000000	0.001690	0.001726	28.083	6.460443	0.001953	3307.18	7.114782	-170.06	29.3073	1.142556	0.065834	0.065564	29.3274	3307.18	0.059183	0.122895	238.637	8619.13
770	2.000000	1.145302	7.37259e+06	-38639.1	1055.82	-29793.6	0.000000	0.000000	7.147365	31.4116	NaN	0.000000	0.001689	0.001701	28.0819	6.736117	0.002083	3233.23	9.471181	9.578367	31.337	1.145019	0.068310	0.068026	31.4116	3233.23	0.061024	0.129504	242.553	8208.59
770	2.000000	1.147812	7.37259e+06	-38639.1	1055.82	-29793.6	0.000000	0.000000	7.149984	34.0723	NaN	0.000000	0.001680	0.001737	28.0822	6.576916	0.001925	3415.97	5.741816	-169.543	33.9275	1.147503	0.070820	0.070510	34.0723	3415.97	0.063339	0.138053	246.805	8399.7
770	2.000000	1.150322	7.37259e+06	-38639.1	1055.82	-29793.6	0.000000	0.000000	7.152576	36.0791	NaN	0.000000	0.001689	0.001721	28.0822	7.130149	0.001956	3644.6	9.925828	5.855875	35.5825	1.149946	0.073329	0.072953	36.0791	3644.6	0.065904	0.147828	244.061	8660.52
770	2.000000	1.152820	7.37259e+06	-38639.1	1055.82	-29793.6	0.000000	0.000000	7.155146	37.8198	NaN	0.000000	0.001720	0.001687	28.0834	7.278979	0.001977	3681.11	11.4793	-174.316	37.573	1.152489	0.075827	0.075497	37.8198	3681.11	0.068121	0.156530	241.614	8500.65
770	2.000000	1.155324	7.37259e+06	-38639.1	1055.82	-29793.6	0.000000	0.000000	7.157726	39.6868	NaN	0.000000	0.001747	0.001702	28.0819	7.540829	0.001965	3838.04	7.166738	7.979200	39.4034	1.154998	0.078331	0.078005	39.6868	3838.04	0.070576	0.166439	238.447	8595.19
770	2.000000	1.157794	7.37259e+06	-38639.1	1055.82	-29793.6	0.000000	0.000000	7.160282	41.764	NaN	0.000000	0.001723	0.001719	28.0824	7.641539	0.001825	4187.2	7.315434	-172.411	41.5054	1.157514	0.080801	0.080521	41.764	4187.2	0.073321	0.177857	234.818	9071.13
770	2.000000	1.160295	7.37259e+06	-38639.1	1055.82	-29793.6	0.000000	0.000000	7.162863	43.7012	NaN	0.000000	0.001718	0.001739	28.0823	7.433169	0.002023	3673.94	5.293660	11.9647	43.2891	1.160010	0.083303	0.083017	43.7012	3673.94	0.074382	0.182368	239.632	7860.15
770	2.000000	1.162805	7.37259e+06	-38639.1	1055.82	-29793.6	0.000000	0.000000	7.165467	45.9948	NaN	0.000000	0.001708	0.001692	28.0823	8.056375	0.002013	4002.32	7.710098	-171.431	45.7844	1.162477	0.085812	0.085484	45.9948	4002.32	0.077193	0.194575	236.387	8289.76
770	2.000000	1.165306	7.37259e+06	-38639.1	1055.82	-29793.6	0.000000	0.000000	7.168054	48.1083	NaN	0.000000	0.001682	0.001723	28.0818	8.170586	0.001920	4254.77	8.320588	7.807911	48.1936	1.164974	0.088313	0.087982	48.1083	4254.77	0.079833	0.206371	233.115	8557.07
770	2.000000	1.167819	7.37259e+06	-38639.1	1055.82	-29793.6	0.000000	0.000000	7.170666	50.485	NaN	0.000000	0.001733	0.001701	28.0825	8.461460	0.002109	4011.88	8.973316	-171.798	50.6427	1.167450	0.090827	0.090458	50.485	4011.88	0.081389	0.213477	236.489	7933.15
770	2.000000	1.170280	7.37259e+06	-38639.1	1055.82	-29793.6	0.000000	0.000000	7.173236	53.1544	NaN	0.000000	0.001716	0.001732	28.0808	8.716483	0.001931	4513.62	7.702220	6.789796	52.7927	1.169932	0.093287	0.092939	53.1544	4513.62	0.084455	0.227807	233.331	8640.01
770	2.000000	1.172783	7.37259e+06	-38639.1	1055.82	-29793.6	0.000000	0.000000	7.175844	55.7194	NaN	0.000000	0.001688	0.001729	28.081	8.824288	0.002039	4327.44	7.060898	-170.262	55.0863	1.172437	0.095790	0.095444	55.7194	4327.44	0.086133	0.235837	236.262	8141.38
770	2.000000	1.175274	7.37259e+06	-38639.1	1055.82	-29793.6	0.000000	0.000000	7.178424	57.8693	NaN	0.000000	0.001708	0.001714	28.0806	8.926740	0.002089	4273.09	8.682675	7.989312	57.3315	1.174963	0.098281	0.097970	57.8693	4273.09	0.088124	0.245531	235.691	7878.84
770	2.000000	1.177799	7.37259e+06	-38639.1	1055.82	-29793.6	0.000000	0.000000	7.181049	60.2989	NaN	0.000000	0.001708	0.001742	28.0811	9.073407	0.002005	4525.21	6.355619	-170.717	60.0695	1.177471	0.100806	0.100479	60.2989	4525.21	0.090813	0.258908	232.897	8125.31
770	2.000000	1.180281	7.37259e+06	-38639.1	1055.82	-29793.6	0.000000	0.000000	7.183634	62.7963	NaN	0.000000	0.001651	0.001671	28.0806	9.319267	0.001951	4776.73	10.5231	4.528622	62.4692	1.179962	0.103289	0.102970	62.7963	4776.73	0.093429	0.272245	230.661	8364.18
770	2.000000	1.182768	7.37259e+06	-38639.1	1055.82	-29793.6	0.000000	0.000000	7.186229	65.4418	NaN	0.000000	0.001691	0.001702	28.0809	9.213711	0.001958	4704.91	5.152657	-170.242	65.2206	1.182495	0.105775	0.105503	65.4418	4704.91	0.095343	0.282203	231.896	8091.77
770	2.000000	1.185261	7.37259e+06	-38639.1	1055.82	-29793.6	0.000000	0.000000	7.188825	67.9605	NaN	0.000000	0.001680	0.001745	28.0807	9.752299	0.001913	5096.95	7.268175	7.312619	67.4469	1.184912	0.108268	0.107919	67.9605	5096.95	0.098268	0.297735	228.258	8534.31
770	2.000000	1.187814	7.37259e+06	-38639.1	1055.82	-29793.6	0.000000	0.000000	7.191492	70.725	NaN	0.000000	0.001652	0.001737	28.082	9.693727	0.001889	5132.46	5.458890	-171.239	70.8367	1.187472	0.110821	0.110480	70.725	5132.46	0.100486	0.309778	228.308	8425.06
770	2.000000	1.190299	7.37259e+06	-38639.1	1055.82	-29793.6	0.000000	0.000000	7.194093	73.5412	NaN	0.000000	0.001651	0.001751	28.0807	10.2664	0.002022	5077.41	8.185461	5.154315	73.5134	1.189938	0.113307	0.112945	73.5412	5077.41	0.102444	0.320590	229.393	8192.96
770	2.000000	1.192805	7.37259e+06	-38639.1	1055.82	-29793.6	0.000000	0.000000	7.196713	76.3161	NaN	0.000000	0.001666	0.001733	28.0808	10.5494	0.001949	5413.87	9.222628	-175.291	76.0777	1.192466	0.115813	0.115473	76.3161	5413.87	0.105240	0.336338	226.903	8528.9
770	2.000000	1.195274	7.37259e+06	-38639.1	1055.82	-29793.6	0.000000	0.000000	7.199294	79.0447	NaN	0.000000	0.001686	0.001733	28.0808	10.214	0.001864	5480.38	9.358962	3.904693	78.1884	1.194899	0.118281	0.117907	79.0447	5480.38	0.107464	0.349112	226.416	8474.26
770	2.000000	1.197778	7.37259e+06	-38639.1	1055.82	-29793.6	0.000000	0.000000	7.201907	81.7164	NaN	0.000000	0.001657	0.001730	28.0808	10.9237	0.002108	5182.21	6.754774	-171.426	81.0464	1.197458	0.120785	0.120465	81.7164	5182.21	0.108959	0.357826	228.369	7915.03
770	2.000000	1.200239	7.37259e+06	-38639.1	1055.82	-29793.6	0.000000	0.000000	7.204461	83.9603	NaN	0.000000	0.001706	0.001677	28.0806	10.9497	0.002030	5394.28	7.127421	7.698363	83.1908	1.199901	0.123246	0.122908	83.9603	5394.28	0.111573	0.373308	224.909	8066.28
770	2.000000	1.201779	7.37259e+06	-38639.1	1055.82	-29793.6	0.000000	0.000000	7.206064	85.4871	NaN	0.000000	0.001711	0.001697	28.0809	10.5744	0.001922	5500.87	3.461341	-170.02	85.505	1.201484	0.124787	0.124491	85.4871	5500.87	0.113131	0.382687	223.386	8124.24