File: remote_trans/data/nanoindenter/0828-1/data/Data_2025-08-06,11h17m57s/2025-07-22_16-23-58_1_629.txt
2025-07-22, 16:23:58, 1
Index	Phase	Displacement	Time	Pos X	Pos Y	Pos Z	Rot A	Rot B	Piezo Z	Force A	Force B	Gripper	Voltage A	Voltage B	Temperature	Amplitude force	Amplitude pos	Stiffness	Phase shift	Phase excitation	Force A raw	Displacement raw	HMax	HMax raw	Real Force	Real Stiffness	Contact Depth	Area	Hardness	Reduced Mod.
[#]	[#]	[um]	[s]	[um]	[um]	[um]	[m°]	[m°]	[um]	[uN]	[uN]	[V]	[V]	[V]	[°C]	[uN]	[um]	[N/m]	[°]	[°]	[uN]	[um]	[um]	[um]	[uN]	[N/m]	[um]	[um^2]	[MPa]	[MPa]
629	1.000000	0.003371	7.3712e+06	-45639.1	1005.82	-29771.8	0.000000	0.000000	6.002801	-0.069533	NaN	0.000000	0.001599	0.001709	28.0834	0.081833	0.000932	87.7928	175.376	-168.42	-0.016353	0.002110	-1.098384	-1.099644	-0.069533	87.7928	-1.097790	-4.681615E+14	1.485229E-16	NaN
629	1.000000	0.013419	7.3712e+06	-45639.1	1005.82	-29771.8	0.000000	0.000000	6.012852	-0.027123	NaN	0.000000	0.001578	0.001672	28.0834	0.115670	0.001250	92.5383	40.7839	13.9674	-0.089932	0.011985	-1.088335	-1.089769	-0.027123	92.5383	-1.088115	-3.471377E+14	7.813209E-17	NaN
629	1.000000	0.023343	7.3712e+06	-45639.1	1005.82	-29771.8	0.000000	0.000000	6.022776	-0.011364	NaN	0.000000	0.001614	0.001719	28.0833	0.115215	0.001736	66.3608	-97.4185	-167.902	-0.006534	0.022033	-1.078411	-1.079722	-0.011364	66.3608	-1.078283	-2.561251E+14	4.437085E-17	NaN
629	1.000000	0.033318	7.3712e+06	-45639.1	1005.82	-29771.8	0.000000	0.000000	6.032750	-0.027215	NaN	0.000000	0.001562	0.001711	28.0821	0.093389	0.001908	48.9569	-87.7278	12.4923	-0.027603	0.031987	-1.068437	-1.069767	-0.027215	48.9569	-1.068020	-1.864592E+14	1.459591E-16	NaN
629	1.000000	0.043294	7.3712e+06	-45639.1	1005.82	-29771.8	0.000000	0.000000	6.042727	-0.024360	NaN	0.000000	0.001580	0.001713	28.0825	0.115781	0.002099	55.1599	20.8132	-161.229	-0.014240	0.042001	-1.058460	-1.059753	-0.024360	55.1599	-1.058129	-1.373024E+14	1.774176E-16	NaN
629	1.000000	0.053340	7.3712e+06	-45639.1	1005.82	-29771.8	0.000000	0.000000	6.052771	-0.067046	NaN	0.000000	0.001572	0.001662	28.0822	0.097955	0.002041	47.9864	98.2493	14.7481	0.025017	0.051910	-1.048414	-1.049845	-0.067046	47.9864	-1.047366	-9.840322E+13	6.813434E-16	NaN
629	1.000000	0.063306	7.3712e+06	-45639.1	1005.82	-29771.8	0.000000	0.000000	6.062739	0.006415	NaN	0.000000	0.001575	0.001704	28.0822	0.095001	0.002080	45.6738	-54.3734	-165.257	-0.037290	0.061975	-1.038449	-1.039779	0.006415	45.6738	-1.038554	-7.490731E+13	-8.563273E-17	NaN
629	1.000000	0.073311	7.3712e+06	-45639.1	1005.82	-29771.8	0.000000	0.000000	6.072744	-0.020159	NaN	0.000000	0.001563	0.001742	28.0824	0.029899	0.001927	15.5174	27.6287	15.6686	0.061619	0.072055	-1.028443	-1.029700	-0.020159	15.5174	-1.027469	-5.314155E+13	3.793465E-16	NaN
629	1.000000	0.083289	7.3712e+06	-45639.1	1005.82	-29771.8	0.000000	0.000000	6.082723	0.011041	NaN	0.000000	0.001610	0.001715	28.0824	0.048869	0.001946	25.1097	-149.994	-164.13	0.032338	0.082005	-1.018465	-1.019749	0.011041	25.1097	-1.018795	-4.061994E+13	-2.718106E-16	NaN
629	1.000000	0.093321	7.3712e+06	-45639.1	1005.82	-29771.8	0.000000	0.000000	6.092753	-0.020804	NaN	0.000000	0.001607	0.001719	28.0822	0.064269	0.002054	31.2843	5.205150	16.6007	-0.007048	0.091984	-1.008434	-1.009770	-0.020804	31.2843	-1.007935	-2.901261E+13	7.170684E-16	NaN
629	1.000000	0.103352	7.3712e+06	-45639.1	1005.82	-29771.8	0.000000	0.000000	6.102783	-0.063115	NaN	0.000000	0.001586	0.001687	28.0823	0.122392	0.002110	57.994	174.144	-165.614	-0.060469	0.102043	-0.998402	-0.999711	-0.063115	57.994	-0.997586	-2.105072E+13	2.998229E-15	NaN
629	1.000000	0.113344	7.3712e+06	-45639.1	1005.82	-29771.8	0.000000	0.000000	6.112775	-0.061107	NaN	0.000000	0.001580	0.001730	28.0824	0.099813	0.002094	47.6738	-86.8395	14.4284	-0.105948	0.111982	-0.988410	-0.989772	-0.061107	47.6738	-0.987449	-1.537283E+13	3.975005E-15	NaN
629	1.000000	0.123350	7.3712e+06	-45639.1	1005.82	-29771.8	0.000000	0.000000	6.122784	0.015037	NaN	0.000000	0.001568	0.001723	28.0823	0.102945	0.001940	53.0758	-51.8941	-163.976	-0.007269	0.122028	-0.978404	-0.979726	0.015037	53.0758	-0.978617	-1.168894E+13	-1.286430E-15	NaN
629	1.000000	0.133341	7.3712e+06	-45639.1	1005.82	-29771.8	0.000000	0.000000	6.132777	0.050509	NaN	0.000000	0.001608	0.001708	28.0823	0.023840	0.002005	11.8895	-54.9193	13.8269	0.040010	0.132041	-0.968413	-0.969713	0.050509	11.8895	-0.971599	-9.401809E+12	-5.372236E-15	NaN
629	1.000000	0.143364	7.3712e+06	-45639.1	1005.82	-29771.8	0.000000	0.000000	6.142796	-0.025557	NaN	0.000000	0.001583	0.001729	28.0821	0.029354	0.002091	14.0396	170.428	-167.043	-0.034456	0.142015	-0.958390	-0.959739	-0.025557	14.0396	-0.957025	-5.980815E+12	4.273223E-15	NaN
629	1.000000	0.153338	7.3712e+06	-45639.1	1005.82	-29771.8	0.000000	0.000000	6.152772	0.020313	NaN	0.000000	0.001584	0.001699	28.0826	0.068085	0.002062	33.0268	-114.677	15.9793	0.022672	0.151996	-0.948417	-0.949758	0.020313	33.0268	-0.948878	-4.644013E+12	-4.374109E-15	NaN
629	1.000000	0.163379	7.3712e+06	-45639.1	1005.82	-29771.8	0.000000	0.000000	6.162812	-0.022613	NaN	0.000000	0.001586	0.001683	28.0822	0.061786	0.002105	29.3462	157.855	-164.142	-0.000456	0.162032	-0.938375	-0.939722	-0.022613	29.3462	-0.937797	-3.291672E+12	6.869889E-15	NaN
629	1.000000	0.173376	7.3712e+06	-45639.1	1005.82	-29771.8	0.000000	0.000000	6.172808	-0.034784	NaN	0.000000	0.001576	0.001675	28.0836	0.077047	0.002000	38.5163	-4.929696	13.6545	0.031476	0.172008	-0.928378	-0.929747	-0.034784	38.5163	-0.927701	-2.405301E+12	1.446136E-14	NaN
629	1.000000	0.183386	7.3712e+06	-45639.1	1005.82	-29771.8	0.000000	0.000000	6.182820	0.008693	NaN	0.000000	0.001562	0.001668	28.0835	0.140262	0.001969	71.2512	-119.606	-166.002	0.052750	0.182085	-0.918368	-0.919670	0.008693	71.2512	-0.918460	-1.804727E+12	-4.816861E-15	NaN
629	1.000000	0.193385	7.3712e+06	-45639.1	1005.82	-29771.8	0.000000	0.000000	6.192818	-0.020697	NaN	0.000000	0.001581	0.001725	28.0839	0.056917	0.002006	28.3718	-25.4436	12.7491	-0.012422	0.192053	-0.908369	-0.909702	-0.020697	28.3718	-0.907822	-1.296406E+12	1.596455E-14	NaN
629	1.000000	0.203367	7.3712e+06	-45639.1	1005.82	-29771.8	0.000000	0.000000	6.202799	-0.049174	NaN	0.000000	0.001568	0.001710	28.0836	0.028534	0.001926	14.817	103.64	-167.347	-0.012758	0.202049	-0.898387	-0.899705	-0.049174	14.817	-0.895898	-8.946191E+11	5.496647E-14	NaN
629	1.000000	0.213374	7.3712e+06	-45639.1	1005.82	-29771.8	0.000000	0.000000	6.212808	0.009514	NaN	0.000000	0.001594	0.001711	28.0835	0.104935	0.002039	51.4518	-118.356	13.51	-0.037740	0.211992	-0.888380	-0.889762	0.009514	51.4518	-0.888519	-7.110358E+11	-1.338087E-14	NaN
629	1.000000	0.223400	7.3712e+06	-45639.1	1005.82	-29771.8	0.000000	0.000000	6.222832	-0.026909	NaN	0.000000	0.001602	0.001705	28.0837	0.127043	0.001891	67.1813	-163.586	-165.804	-0.060539	0.222079	-0.878355	-0.879676	-0.026909	67.1813	-0.878054	-5.133275E+11	5.242117E-14	NaN
629	1.000000	0.233423	7.3712e+06	-45639.1	1005.82	-29771.8	0.000000	0.000000	6.232855	-0.029204	NaN	0.000000	0.001593	0.001707	28.0837	0.097879	0.002127	46.0067	-131.647	11.2378	-0.083189	0.232013	-0.868331	-0.869741	-0.029204	46.0067	-0.867855	-3.736157E+11	7.816669E-14	NaN
629	1.000000	0.243382	7.3712e+06	-45639.1	1005.82	-29771.8	0.000000	0.000000	6.242816	-0.003893	NaN	0.000000	0.001544	0.001734	28.0836	0.103135	0.001884	54.7441	-124.81	-164.205	-0.009302	0.242114	-0.858372	-0.859640	-0.003893	54.7441	-0.858319	-2.775633E+11	1.402487E-14	NaN
629	1.000000	0.253414	7.37121e+06	-45639.1	1005.82	-29771.8	0.000000	0.000000	6.252849	0.024373	NaN	0.000000	0.001579	0.001716	28.0836	0.021236	0.001888	11.2474	150.589	13.5436	-0.047235	0.252047	-0.848340	-0.849707	0.024373	11.2474	-0.849966	-2.139301E+11	-1.139308E-13	NaN
629	1.000000	0.263403	7.37121e+06	-45639.1	1005.82	-29771.8	0.000000	0.000000	6.262835	-0.051520	NaN	0.000000	0.001584	0.001713	28.084	0.079781	0.002016	39.5755	-41.8302	-165.85	-0.121422	0.262111	-0.838351	-0.839643	-0.051520	39.5755	-0.837375	-1.444518E+11	3.566563E-13	NaN
629	1.000000	0.273384	7.37121e+06	-45639.1	1005.82	-29771.8	0.000000	0.000000	6.272817	-0.011995	NaN	0.000000	0.001566	0.001724	28.0835	0.065665	0.001878	34.9705	52.4842	13.1916	0.053359	0.272063	-0.828371	-0.829691	-0.011995	34.9705	-0.828113	-1.081960E+11	1.108635E-13	NaN
629	1.000000	0.283438	7.37121e+06	-45639.1	1005.82	-29771.8	0.000000	0.000000	6.282872	0.012484	NaN	0.000000	0.001566	0.001745	28.0836	0.064709	0.001975	32.7717	-134.803	-166.619	0.002423	0.282095	-0.818316	-0.819659	0.012484	32.7717	-0.818602	-8.039952E+10	-1.552741E-13	NaN
629	1.000000	0.293414	7.37121e+06	-45639.1	1005.82	-29771.8	0.000000	0.000000	6.292847	-0.031590	NaN	0.000000	0.001568	0.001639	28.0835	0.010592	0.001971	5.374710	-43.2025	14.8218	-0.043527	0.292069	-0.808340	-0.809685	-0.031590	5.374710	-0.803932	-5.084278E+10	6.213348E-13	NaN
629	1.000000	0.303429	7.37121e+06	-45639.1	1005.82	-29771.8	0.000000	0.000000	6.302863	-0.006569	NaN	0.000000	0.001543	0.001685	28.0836	0.052738	0.001985	26.5695	66.5518	-169.94	0.005283	0.302100	-0.798325	-0.799654	-0.006569	26.5695	-0.798140	-4.242373E+10	1.548432E-13	NaN
629	1.000000	0.313431	7.37121e+06	-45639.1	1005.82	-29771.8	0.000000	0.000000	6.312864	-0.031490	NaN	0.000000	0.001568	0.001659	28.0822	0.027114	0.002001	13.5506	92.0432	13.2657	-0.075595	0.312077	-0.788323	-0.789677	-0.031490	13.5506	-0.786580	-2.955503E+10	1.065474E-12	NaN
629	1.000000	0.323436	7.37121e+06	-45639.1	1005.82	-29771.8	0.000000	0.000000	6.322869	-0.021203	NaN	0.000000	0.001555	0.001685	28.0823	0.068151	0.001976	34.4929	-92.0645	-169.46	0.037686	0.322106	-0.778318	-0.779648	-0.021203	34.4929	-0.777857	-2.249631E+10	9.425313E-13	NaN
629	1.000000	0.333426	7.37121e+06	-45639.1	1005.82	-29771.8	0.000000	0.000000	6.332857	-0.075460	NaN	0.000000	0.001611	0.001702	28.0824	0.011516	0.001924	5.986368	-32.2979	12.3297	-0.034648	0.332076	-0.768328	-0.769678	-0.075460	5.986368	-0.758874	-1.241603E+10	6.077602E-12	NaN
629	1.000000	0.343460	7.37121e+06	-45639.1	1005.82	-29771.8	0.000000	0.000000	6.342892	-0.059254	NaN	0.000000	0.001548	0.001713	28.0824	0.142292	0.002057	69.1715	-35.8655	-167.383	-0.016371	0.342123	-0.758294	-0.759631	-0.059254	69.1715	-0.757652	-1.194953E+10	4.958727E-12	NaN
629	1.000000	0.353460	7.37121e+06	-45639.1	1005.82	-29771.8	0.000000	0.000000	6.352894	-0.011164	NaN	0.000000	0.001589	0.001706	28.0822	0.086358	0.001959	44.0858	-134.099	11.2783	0.026734	0.352093	-0.748294	-0.749661	-0.011164	44.0858	-0.748104	-8.859518E+9	1.260147E-12	NaN
629	1.000000	0.363461	7.37121e+06	-45639.1	1005.82	-29771.8	0.000000	0.000000	6.362896	0.022737	NaN	0.000000	0.001546	0.001700	28.0823	0.143803	0.002169	66.3048	-28.6902	-166.527	0.011995	0.362198	-0.738293	-0.739557	0.022737	66.3048	-0.738550	-6.566152E+9	-3.462822E-12	NaN
629	1.000000	0.373453	7.37121e+06	-45639.1	1005.82	-29771.8	0.000000	0.000000	6.372885	-0.043145	NaN	0.000000	0.001591	0.001697	28.0825	0.065809	0.001886	34.8876	142.354	15.0369	-0.078173	0.372066	-0.728301	-0.729689	-0.043145	34.8876	-0.727373	-4.623882E+9	9.330879E-12	NaN
629	1.000000	0.383435	7.37121e+06	-45639.1	1005.82	-29771.8	0.000000	0.000000	6.382867	-0.038055	NaN	0.000000	0.001625	0.001671	28.0824	0.098506	0.001853	53.1684	29.9868	-170.358	-0.006497	0.382117	-0.718319	-0.719638	-0.038055	53.1684	-0.717782	-3.421593E+9	1.112215E-11	NaN
629	1.000000	0.393489	7.37121e+06	-45639.1	1005.82	-29771.8	0.000000	0.000000	6.392923	-0.009448	NaN	0.000000	0.001544	0.001705	28.0824	0.075105	0.001968	38.1662	29.9945	16.3504	-0.012799	0.392028	-0.708265	-0.709726	-0.009448	38.1662	-0.708079	-2.522511E+9	3.745562E-12	NaN
629	1.000000	0.403483	7.37121e+06	-45639.1	1005.82	-29771.8	0.000000	0.000000	6.402917	-0.000515	NaN	0.000000	0.001569	0.001665	28.0823	0.042924	0.002055	20.8854	-77.3476	-167.202	-0.132996	0.402141	-0.698271	-0.699613	-0.000515	20.8854	-0.698253	-1.852125E+9	2.780702E-13	NaN
629	1.000000	0.413469	7.37121e+06	-45639.1	1005.82	-29771.8	0.000000	0.000000	6.412901	-0.031892	NaN	0.000000	0.001560	0.001685	28.0823	0.097481	0.002119	46.0133	-114.476	12.7059	-0.070290	0.412111	-0.688285	-0.689644	-0.031892	46.0133	-0.687766	-1.331616E+9	2.394973E-11	NaN
629	1.000000	0.423461	7.37121e+06	-45639.1	1005.82	-29771.8	0.000000	0.000000	6.422895	0.025741	NaN	0.000000	0.001579	0.001670	28.0822	0.068139	0.002016	33.8001	-81.9909	-168.617	-0.068534	0.422167	-0.678294	-0.679587	0.025741	33.8001	-0.678865	-1.006185E+9	-2.558289E-11	NaN
629	1.000000	0.433485	7.37121e+06	-45639.1	1005.82	-29771.8	0.000000	0.000000	6.432921	0.056438	NaN	0.000000	0.001597	0.001699	28.0822	0.079437	0.002102	37.7904	-10.7544	13.1526	0.117523	0.432096	-0.668269	-0.669658	0.056438	37.7904	-0.669389	-7.465009E+8	-7.560379E-11	NaN
629	1.000000	0.443471	7.37121e+06	-45639.1	1005.82	-29771.8	0.000000	0.000000	6.442906	0.040308	NaN	0.000000	0.001605	0.001691	28.0837	0.071425	0.001993	35.8449	93.8618	-167.624	0.066876	0.442173	-0.658283	-0.659581	0.040308	35.8449	-0.659127	-5.401415E+8	-7.462575E-11	NaN
629	1.000000	0.453513	7.37121e+06	-45639.1	1005.82	-29771.8	0.000000	0.000000	6.452943	-0.075908	NaN	0.000000	0.001594	0.001660	28.0834	0.111793	0.002013	55.5467	-135.199	13.9164	0.038504	0.452145	-0.648242	-0.649610	-0.075908	55.5467	-0.647217	-3.709165E+8	2.046498E-10	NaN
629	1.000000	0.463505	7.37121e+06	-45639.1	1005.82	-29771.8	0.000000	0.000000	6.462937	-0.044410	NaN	0.000000	0.001581	0.001706	28.0834	0.047389	0.002102	22.5396	-152.084	-167.961	-0.011913	0.462184	-0.638249	-0.639570	-0.044410	22.5396	-0.636772	-2.666791E+8	1.665309E-10	NaN
629	1.000000	0.473505	7.37121e+06	-45639.1	1005.82	-29771.8	0.000000	0.000000	6.472939	0.005947	NaN	0.000000	0.001602	0.001659	28.0836	0.028598	0.002032	14.0755	130.139	11.8628	-0.090160	0.472116	-0.628249	-0.629638	0.005947	14.0755	-0.628566	-2.057450E+8	-2.890412E-11	NaN
629	1.000000	0.483517	7.37121e+06	-45639.1	1005.82	-29771.8	0.000000	0.000000	6.482952	0.022550	NaN	0.000000	0.001573	0.001699	28.0841	0.140975	0.001977	71.3219	104.743	-169.276	0.056821	0.482220	-0.618237	-0.619534	0.022550	71.3219	-0.618474	-1.495068E+8	-1.508285E-10	NaN
629	1.000000	0.493469	7.37121e+06	-45639.1	1005.82	-29771.8	0.000000	0.000000	6.492902	-0.021511	NaN	0.000000	0.001621	0.001707	28.084	0.077815	0.002026	38.407	-135.504	13.7184	-0.015578	0.492141	-0.608285	-0.609613	-0.021511	38.407	-0.607865	-1.068411E+8	2.013355E-10	NaN
629	1.000000	0.503509	7.37121e+06	-45639.1	1005.82	-29771.8	0.000000	0.000000	6.502942	-0.014344	NaN	0.000000	0.001583	0.001675	28.0834	0.098247	0.001967	49.9558	-113.123	-169.638	-0.012707	0.502193	-0.598245	-0.599561	-0.014344	49.9558	-0.598030	-7.822098E+7	1.833753E-10	NaN
629	1.000000	0.513503	7.37121e+06	-45639.1	1005.82	-29771.8	0.000000	0.000000	6.512935	-0.035200	NaN	0.000000	0.001582	0.001697	28.0837	0.007893	0.001971	4.003551	33.1368	13.6343	-0.032333	0.512195	-0.588251	-0.589559	-0.035200	4.003551	-0.581657	-4.651496E+7	7.567538E-10	NaN
629	1.000000	0.523491	7.37121e+06	-45639.1	1005.82	-29771.8	0.000000	0.000000	6.522923	-0.025248	NaN	0.000000	0.001604	0.001675	28.0838	0.081061	0.001979	40.9702	-22.8662	-167.506	0.070039	0.522251	-0.578264	-0.579503	-0.025248	40.9702	-0.577801	-4.115089E+7	6.135558E-10	NaN
629	1.000000	0.533526	7.37121e+06	-45639.1	1005.82	-29771.8	0.000000	0.000000	6.532961	0.034097	NaN	0.000000	0.001603	0.001675	28.0838	0.055946	0.002005	27.8996	-45.8993	12.6874	0.054439	0.532141	-0.568228	-0.569613	0.034097	27.8996	-0.569144	-3.124715E+7	-1.091204E-9	NaN
629	1.000000	0.543525	7.37121e+06	-45639.1	1005.82	-29771.8	0.000000	0.000000	6.542958	0.003037	NaN	0.000000	0.001579	0.001713	28.0835	0.058191	0.002044	28.4755	-108.848	-164.741	-0.005199	0.542232	-0.558230	-0.559522	0.003037	28.4755	-0.558310	-2.213056E+7	-1.372206E-10	NaN
629	1.000000	0.553530	7.37121e+06	-45639.1	1005.82	-29771.8	0.000000	0.000000	6.552961	-0.051012	NaN	0.000000	0.001579	0.001689	28.0837	0.026927	0.001980	13.6019	51.2777	15.9149	-0.080046	0.552149	-0.548225	-0.549606	-0.051012	13.6019	-0.545412	-1.466857E+7	3.477661E-9	NaN
629	1.000000	0.563518	7.37121e+06	-45639.1	1005.82	-29771.8	0.000000	0.000000	6.562951	0.002241	NaN	0.000000	0.001628	0.001687	28.0836	0.081203	0.001995	40.7017	-138.122	-166.623	-0.024763	0.562279	-0.538237	-0.539475	0.002241	40.7017	-0.538278	-1.168074E+7	-1.918505E-10	NaN
629	1.000000	0.573514	7.37121e+06	-45639.1	1005.82	-29771.8	0.000000	0.000000	6.572946	-0.021084	NaN	0.000000	0.001601	0.001664	28.0838	0.079604	0.002040	39.0281	-19.4337	15.3553	-0.041641	0.572208	-0.528241	-0.529546	-0.021084	39.0281	-0.527835	-8.36584e+06	2.520212E-9	NaN
629	1.000000	0.583551	7.37121e+06	-45639.1	1005.82	-29771.8	0.000000	0.000000	6.582987	0.064564	NaN	0.000000	0.001602	0.001676	28.0821	0.036070	0.002032	17.7541	-102.164	-164.54	0.038284	0.582210	-0.518204	-0.519545	0.064564	17.7541	-0.520931	-6.70726e+06	-9.625957E-9	NaN
629	1.000000	0.593540	7.37121e+06	-45639.1	1005.82	-29771.8	0.000000	0.000000	6.592972	-0.058344	NaN	0.000000	0.001597	0.001757	28.0828	0.128309	0.001990	64.4926	138.538	13.8563	-0.083662	0.592149	-0.508214	-0.509606	-0.058344	64.4926	-0.507535	-4.36595e+06	1.336337E-8	NaN
629	1.000000	0.603561	7.37121e+06	-45639.1	1005.82	-29771.8	0.000000	0.000000	6.602996	0.042572	NaN	0.000000	0.001589	0.001755	28.0823	0.035154	0.001958	17.952	-70.3771	-168.44	0.041450	0.602243	-0.498193	-0.499512	0.042572	17.952	-0.499972	-3.42474e+06	-1.243084E-8	NaN
629	1.000000	0.613575	7.37121e+06	-45639.1	1005.82	-29771.8	0.000000	0.000000	6.613008	-0.009700	NaN	0.000000	0.001614	0.001739	28.0823	0.100128	0.002024	49.4687	-88.0486	11.7361	-0.065046	0.612188	-0.488180	-0.489566	-0.009700	49.4687	-0.488033	-2.3329e+06	4.157709E-9	NaN
629	1.000000	0.623539	7.37121e+06	-45639.1	1005.82	-29771.8	0.000000	0.000000	6.622972	-0.024409	NaN	0.000000	0.001616	0.001689	28.0823	0.085275	0.002152	39.6329	-173.446	-169.493	-0.109686	0.622294	-0.478215	-0.479461	-0.024409	39.6329	-0.477753	-1.67521e+06	1.457059E-8	NaN
629	1.000000	0.633533	7.37121e+06	-45639.1	1005.82	-29771.8	0.000000	0.000000	6.632967	-0.002829	NaN	0.000000	0.001639	0.001681	28.0826	0.080895	0.002066	39.149	-125.409	14.864	0.037988	0.632168	-0.468221	-0.469586	-0.002829	39.149	-0.468167	-1.2294e+06	2.300755E-9	NaN
629	1.000000	0.643541	7.37121e+06	-45639.1	1005.82	-29771.8	0.000000	0.000000	6.642977	0.041361	NaN	0.000000	0.001670	0.001662	28.0824	0.049676	0.001988	24.985	-32.6006	-166.622	0.046959	0.642212	-0.458213	-0.459543	0.041361	24.985	-0.459454	-927576	-4.459013E-8	NaN
629	1.000000	0.653549	7.37121e+06	-45639.1	1005.82	-29771.8	0.000000	0.000000	6.652985	0.039848	NaN	0.000000	0.001655	0.001700	28.0824	0.051219	0.002033	25.1997	78.8617	13.5097	0.062708	0.652164	-0.448205	-0.449590	0.039848	25.1997	-0.449391	-669523	-5.951702E-8	NaN
629	1.000000	0.663571	7.37121e+06	-45639.1	1005.82	-29771.8	0.000000	0.000000	6.663004	-0.016823	NaN	0.000000	0.001689	0.001696	28.0826	0.077182	0.001904	40.5407	-129.179	-166.303	0.010039	0.662267	-0.438183	-0.439488	-0.016823	40.5407	-0.437872	-460601	3.652447E-8	NaN
629	1.000000	0.673619	7.37121e+06	-45639.1	1005.82	-29771.8	0.000000	0.000000	6.673054	0.049132	NaN	0.000000	0.001675	0.001687	28.0824	0.071380	0.001982	36.0054	-177.807	14.8931	0.084454	0.672232	-0.428136	-0.429522	0.049132	36.0054	-0.429159	-346868	-1.416462E-7	NaN
629	1.000000	0.683596	7.37121e+06	-45639.1	1005.82	-29771.8	0.000000	0.000000	6.683026	-0.083038	NaN	0.000000	0.001577	0.001670	28.0822	0.067621	0.002006	33.7028	-127.92	-169.399	-0.114015	0.682292	-0.418158	-0.419462	-0.083038	33.7028	-0.416310	-228065	3.640970E-7	NaN
629	1.000000	0.693615	7.37121e+06	-45639.1	1005.82	-29771.8	0.000000	0.000000	6.693047	-0.050940	NaN	0.000000	0.001593	0.001701	28.0825	0.121571	0.001953	62.2493	-55.0707	10.5874	-0.060039	0.692216	-0.408139	-0.409538	-0.050940	62.2493	-0.407525	-171080	2.977530E-7	NaN
629	1.000000	0.703584	7.37121e+06	-45639.1	1005.82	-29771.8	0.000000	0.000000	6.703017	-0.015254	NaN	0.000000	0.001562	0.001716	28.0827	0.113153	0.001952	57.9787	26.788	-165.89	0.006079	0.702252	-0.398170	-0.399503	-0.015254	57.9787	-0.397973	-125049	1.219826E-7	NaN
629	1.000000	0.713622	7.37121e+06	-45639.1	1005.82	-29771.8	0.000000	0.000000	6.713054	-0.043380	NaN	0.000000	0.001643	0.001666	28.083	0.031430	0.001913	16.4324	-32.2324	14.7251	-0.054932	0.712210	-0.388132	-0.389545	-0.043380	16.4324	-0.386152	-84740.3	5.119162E-7	NaN
629	1.000000	0.723595	7.37121e+06	-45639.1	1005.82	-29771.8	0.000000	0.000000	6.723028	-0.026910	NaN	0.000000	0.001617	0.001701	28.0838	0.076398	0.002045	37.3501	-148.917	-167.328	-0.068671	0.722281	-0.378159	-0.379473	-0.026910	37.3501	-0.377619	-63929.4	4.209371E-7	NaN
629	1.000000	0.733604	7.37121e+06	-45639.1	1005.82	-29771.8	0.000000	0.000000	6.733038	-0.002674	NaN	0.000000	0.001573	0.001700	28.0837	0.076144	0.002003	38.0072	29.3214	13.1002	-0.129184	0.732213	-0.368150	-0.369542	-0.002674	38.0072	-0.368097	-46635.4	5.733488E-8	NaN
629	1.000000	0.743618	7.37121e+06	-45639.1	1005.82	-29771.8	0.000000	0.000000	6.743051	-0.018841	NaN	0.000000	0.001614	0.001679	28.0839	0.040415	0.002004	20.1688	144.953	-167.079	0.014278	0.742275	-0.358136	-0.359479	-0.018841	20.1688	-0.357436	-32715.8	5.759135E-7	NaN
629	1.000000	0.753614	7.37121e+06	-45639.1	1005.82	-29771.8	0.000000	0.000000	6.753049	0.049343	NaN	0.000000	0.001597	0.001680	28.0835	0.109186	0.002081	52.4642	-70.091	15.016	0.095191	0.752209	-0.348141	-0.349546	0.049343	52.4642	-0.348846	-24561.3	-2.008964E-6	NaN
629	1.000000	0.763641	7.37121e+06	-45639.1	1005.82	-29771.8	0.000000	0.000000	6.763071	-0.086143	NaN	0.000000	0.001580	0.001727	28.0839	0.019372	0.002049	9.456621	3.210720	-167.07	-0.101418	0.762280	-0.338113	-0.339474	-0.086143	9.456621	-0.331281	-13621.1	6.324240E-6	NaN
629	1.000000	0.773640	7.37121e+06	-45639.1	1005.82	-29771.8	0.000000	0.000000	6.773073	-0.008842	NaN	0.000000	0.001620	0.001712	28.0837	0.136676	0.002082	65.6609	-97.5497	13.0404	0.064087	0.772279	-0.328114	-0.329475	-0.008842	65.6609	-0.328013	-12199.5	7.247556E-7	NaN
629	1.000000	0.783643	7.37121e+06	-45639.1	1005.82	-29771.8	0.000000	0.000000	6.783077	0.020792	NaN	0.000000	0.001626	0.001677	28.084	0.114922	0.002060	55.7759	-58.6193	-166.622	0.061226	0.782275	-0.318111	-0.319480	0.020792	55.7759	-0.318391	-8809.41	-2.360211E-6	NaN
629	1.000000	0.793619	7.37121e+06	-45639.1	1005.82	-29771.8	0.000000	0.000000	6.793055	0.060527	NaN	0.000000	0.001630	0.001683	28.0835	0.069646	0.002035	34.2293	-49.1508	15.8081	0.019330	0.792255	-0.308136	-0.309500	0.060527	34.2293	-0.309462	-6502.68	-9.307954E-6	NaN
629	1.000000	0.803659	7.37121e+06	-45639.1	1005.82	-29771.8	0.000000	0.000000	6.803092	-0.016808	NaN	0.000000	0.001643	0.001679	28.0837	0.025009	0.001925	12.9939	-90.5628	-167.453	-0.003162	0.802307	-0.298096	-0.299448	-0.016808	12.9939	-0.297125	-4263.88	3.941901E-6	NaN
629	1.000000	0.813621	7.37121e+06	-45639.1	1005.82	-29771.8	0.000000	0.000000	6.813056	0.016499	NaN	0.000000	0.001597	0.001664	28.0839	0.098090	0.001893	51.8149	-155.008	13.3443	-0.034928	0.812244	-0.288133	-0.289510	0.016499	51.8149	-0.288372	-3154.25	-5.230861E-6	NaN
629	1.000000	0.823656	7.37121e+06	-45639.1	1005.82	-29771.8	0.000000	0.000000	6.823091	0.013972	NaN	0.000000	0.001602	0.001718	28.0837	0.090706	0.002079	43.6335	-173.93	-166.061	-0.038177	0.822315	-0.278098	-0.279439	0.013972	43.6335	-0.278338	-2227.84	-6.271592E-6	NaN
629	1.000000	0.833650	7.37121e+06	-45639.1	1005.82	-29771.8	0.000000	0.000000	6.833084	0.018228	NaN	0.000000	0.001622	0.001697	28.0835	0.070179	0.001963	35.76	-20.5087	14.2997	-0.026996	0.832296	-0.268105	-0.269459	0.018228	35.76	-0.268487	-1579.55	-1.153986E-5	NaN
629	1.000000	0.843649	7.37121e+06	-45639.1	1005.82	-29771.8	0.000000	0.000000	6.843082	-0.006576	NaN	0.000000	0.001611	0.001703	28.0836	0.056641	0.001960	28.8966	106.674	-164.696	0.067587	0.842225	-0.258105	-0.259529	-0.006576	28.8966	-0.257935	-1089.52	6.035371E-6	NaN
629	1.000000	0.853625	7.37121e+06	-45639.1	1005.82	-29771.8	0.000000	0.000000	6.853059	0.002120	NaN	0.000000	0.001564	0.001714	28.0825	0.086439	0.002040	42.3679	75.5377	13.1117	0.040214	0.852323	-0.248129	-0.249432	0.002120	42.3679	-0.248167	-770.18	-2.752924E-6	NaN
629	1.000000	0.863658	7.37121e+06	-45639.1	1005.82	-29771.8	0.000000	0.000000	6.863090	-0.045513	NaN	0.000000	0.001623	0.001723	28.0821	0.045631	0.001953	23.3599	45.4164	-165.578	-0.079927	0.862321	-0.238096	-0.239434	-0.045513	23.3599	-0.236635	-509.213	8.937984E-5	NaN
629	1.000000	0.873624	7.37121e+06	-45639.1	1005.82	-29771.8	0.000000	0.000000	6.873058	0.014323	NaN	0.000000	0.001644	0.001704	28.0821	0.008147	0.001952	4.173662	151.803	14.1478	-0.017500	0.872311	-0.228130	-0.229443	0.014323	4.173662	-0.230704	-410.801	-3.486688E-5	NaN
629	1.000000	0.883684	7.37121e+06	-45639.1	1005.82	-29771.8	0.000000	0.000000	6.883118	-0.000260	NaN	0.000000	0.001615	0.001729	28.0823	0.040623	0.001990	20.4172	178.968	-166.626	0.012209	0.882400	-0.218070	-0.219354	-0.000260	20.4172	-0.218060	-258.606	1.003598E-6	NaN
629	1.000000	0.893653	7.37121e+06	-45639.1	1005.82	-29771.8	0.000000	0.000000	6.893089	0.049432	NaN	0.000000	0.001604	0.001732	28.0824	0.128095	0.002022	63.3606	-76.7074	13.6875	0.003293	0.892309	-0.208101	-0.209446	0.049432	63.3606	-0.208686	-182.611	-0.000271	NaN
629	1.000000	0.903650	7.37121e+06	-45639.1	1005.82	-29771.8	0.000000	0.000000	6.903084	0.009989	NaN	0.000000	0.001629	0.001699	28.0822	0.113692	0.001949	58.3221	163.791	-170.68	-0.053429	0.902357	-0.198105	-0.199398	0.009989	58.3221	-0.198233	-123.203	-8.107518E-5	NaN
629	1.000000	0.913672	7.37121e+06	-45639.1	1005.82	-29771.8	0.000000	0.000000	6.913106	0.006446	NaN	0.000000	0.001632	0.001719	28.0823	0.049415	0.002037	24.2585	-51.8685	12.3	0.080442	0.912346	-0.188082	-0.189409	0.006446	24.2585	-0.188281	-84.1924	-7.656185E-5	NaN
629	1.000000	0.923676	7.37121e+06	-45639.1	1005.82	-29771.8	0.000000	0.000000	6.923111	0.031877	NaN	0.000000	0.001622	0.001735	28.0826	0.049852	0.001954	25.5123	29.6995	-164.54	0.115805	0.922409	-0.178079	-0.179345	0.031877	25.5123	-0.179016	-58.709	-0.000543	NaN
629	1.000000	0.933686	7.37121e+06	-45639.1	1005.82	-29771.8	0.000000	0.000000	6.933119	-0.015585	NaN	0.000000	0.001612	0.001720	28.0823	0.054037	0.001997	27.0538	154.937	14.4702	-0.003423	0.932263	-0.168069	-0.169491	-0.015585	27.0538	-0.167637	-37.3651	0.000417	NaN
629	1.000000	0.943674	7.37121e+06	-45639.1	1005.82	-29771.8	0.000000	0.000000	6.943110	0.048709	NaN	0.000000	0.001571	0.001703	28.0822	0.076647	0.002089	36.6858	45.8194	-165.851	0.017191	0.942380	-0.158080	-0.159375	0.048709	36.6858	-0.159076	-26.3964	-0.001845	NaN
629	1.000000	0.953685	7.37121e+06	-45639.1	1005.82	-29771.8	0.000000	0.000000	6.953120	0.040709	NaN	0.000000	0.001602	0.001707	28.0826	0.046125	0.001952	23.6286	114.107	10.8368	0.007752	0.952328	-0.148070	-0.149426	0.040709	23.6286	-0.149362	-17.6342	-0.002309	NaN
629	1.000000	0.963710	7.37121e+06	-45639.1	1005.82	-29771.8	0.000000	0.000000	6.963142	-0.025080	NaN	0.000000	0.001563	0.001706	28.0824	0.096027	0.002012	47.7367	-111.865	-166.599	-0.026314	0.962361	-0.138045	-0.139394	-0.025080	47.7367	-0.137651	-10.6825	0.002348	NaN
629	1.000000	0.973707	7.37121e+06	-45639.1	1005.82	-29771.8	0.000000	0.000000	6.973141	0.006052	NaN	0.000000	0.001560	0.001691	28.0826	0.052419	0.002020	25.9522	-171.158	13.4753	-0.009673	0.972359	-0.128048	-0.129395	0.006052	25.9522	-0.128223	-7.036784	-0.000860	NaN
629	1.000000	0.983705	7.37121e+06	-45639.1	1005.82	-29771.8	0.000000	0.000000	6.983137	-0.043913	NaN	0.000000	0.001587	0.001730	28.0822	0.115638	0.002106	54.9148	-63.4262	-170.124	-0.061171	0.982433	-0.118049	-0.119321	-0.043913	54.9148	-0.117449	-4.288725	0.010239	NaN
629	1.000000	0.993735	7.37121e+06	-45639.1	1005.82	-29771.8	0.000000	0.000000	6.993170	0.027061	NaN	0.000000	0.001603	0.001697	28.084	0.066821	0.002017	33.127	95.4946	12.922	0.064401	0.992335	-0.108019	-0.109419	0.027061	33.127	-0.108632	-2.811483	-0.009625	NaN
629	1.000000	1.003714	7.37121e+06	-45639.1	1005.82	-29771.8	0.000000	0.000000	7.003143	-0.116823	NaN	0.000000	0.001580	0.001686	28.0836	0.084187	0.002035	41.3616	-90.6447	-166.031	-0.062632	1.002401	-0.098040	-0.099354	-0.116823	41.3616	-0.095922	-1.480360	0.078915	NaN
629	1.000000	1.013683	7.37121e+06	-45639.1	1005.82	-29771.8	0.000000	0.000000	7.013116	-0.024235	NaN	0.000000	0.001578	0.001689	28.0837	0.039272	0.002022	19.4272	-47.0161	15.0294	-0.129138	1.012341	-0.088071	-0.089414	-0.024235	19.4272	-0.087136	-0.924747	0.026207	NaN
629	1.000000	1.023729	7.37121e+06	-45639.1	1005.82	-29771.8	0.000000	0.000000	7.023163	0.000121	NaN	0.000000	0.001586	0.001675	28.0834	0.074300	0.002035	36.5129	156.466	-166.864	-0.150110	1.022362	-0.078025	-0.079392	0.000121	36.5129	-0.078028	-0.552132	-0.000219	NaN
629	1.000000	1.033730	7.37121e+06	-45639.1	1005.82	-29771.8	0.000000	0.000000	7.033162	-0.040348	NaN	0.000000	0.001583	0.001712	28.0838	0.028137	0.001874	15.0113	147.2	13.0964	-0.015094	1.032393	-0.068025	-0.069361	-0.040348	15.0113	-0.066009	-0.265742	0.151831	NaN
629	1.000000	1.043737	7.37121e+06	-45639.1	1005.82	-29771.8	0.000000	0.000000	7.043167	-0.088813	NaN	0.000000	0.001588	0.001644	28.0834	0.123870	0.002007	61.7204	25.2638	-165.871	-0.041408	1.042412	-0.058018	-0.059342	-0.088813	61.7204	-0.056938	-0.146834	0.604853	NaN
629	1.000000	1.053742	7.37121e+06	-45639.1	1005.82	-29771.8	0.000000	0.000000	7.053174	-0.034671	NaN	0.000000	0.001540	0.001673	28.0836	0.022501	0.001921	11.7101	-61.2653	13.8491	-0.049306	1.052353	-0.048013	-0.049401	-0.034671	11.7101	-0.045792	-0.067952	0.510231	NaN
629	1.000000	1.063738	7.37121e+06	-45639.1	1005.82	-29771.8	0.000000	0.000000	7.063170	-0.048556	NaN	0.000000	0.001551	0.001652	28.0833	0.057794	0.002086	27.7108	-111.957	-162.479	-0.086410	1.062378	-0.038016	-0.039377	-0.048556	27.7108	-0.036702	-0.035971	1.349889	NaN
629	1.000000	1.073747	7.37121e+06	-45639.1	1005.82	-29771.8	0.000000	0.000000	7.073180	-0.034018	NaN	0.000000	0.001561	0.001622	28.0837	0.075188	0.002127	35.3548	45.8718	14.5088	-0.001231	1.072391	-0.028007	-0.029363	-0.034018	35.3548	-0.027285	-0.019394	1.754057	NaN
629	1.000000	1.083759	7.37121e+06	-45639.1	1005.82	-29771.8	0.000000	0.000000	7.083187	-0.141138	NaN	0.000000	0.001570	0.001676	28.0834	0.091751	0.001984	46.2349	142.779	-164.589	-0.156873	1.082444	-0.017995	-0.019310	-0.141138	46.2349	-0.015705	-0.009702	14.5471	NaN
629	1.000000	1.093741	7.37121e+06	-45639.1	1005.82	-29771.8	0.000000	0.000000	7.093175	0.004325	NaN	0.000000	0.001580	0.001661	28.0836	0.101267	0.002027	49.9588	-142.2	11.5448	0.005242	1.092365	-0.008013	-0.009389	0.004325	49.9588	-0.008078	-0.005277	-0.819529	NaN
629	1.000000	1.103690	7.37121e+06	-45639.1	1005.82	-29771.8	0.000000	0.000000	7.103327	4.939810	NaN	0.000000	0.001620	0.001662	28.0837	5.316167	0.001746	3044.75	11.6112	-172.443	3.573308	1.102434	0.001936	0.000680	4.939810	3044.75	0.000719	0.000545	9063.13	119154
629	2.000000	1.108833	7.37121e+06	-45639.1	1005.82	-29771.8	0.000000	0.000000	7.108679	10.0226	NaN	0.000000	0.001574	0.001705	28.0836	10.1461	0.001749	5802.55	5.369818	8.782685	9.466642	1.108486	0.007079	0.006731	10.0226	5802.55	0.005783	0.004860	2062.42	76048.4
629	2.000000	1.111265	7.37121e+06	-45639.1	1005.82	-29771.8	0.000000	0.000000	7.111236	13.082	NaN	0.000000	0.001619	0.001716	28.0827	12.8283	0.001778	7216.63	0.759218	-168.31	12.3487	1.111036	0.009511	0.009282	13.082	7216.63	0.008151	0.007198	1817.43	77714.1
629	2.000000	1.113821	7.37121e+06	-45639.1	1005.82	-29771.8	0.000000	0.000000	7.114007	18.2993	NaN	0.000000	0.001629	0.001683	28.0823	14.9012	0.001728	8625.63	6.174619	7.241005	19.1627	1.113366	0.012067	0.011612	18.2993	8625.63	0.010475	0.009715	1883.7	79956.2
629	2.000000	1.116287	7.37121e+06	-45639.1	1005.82	-29771.8	0.000000	0.000000	7.116685	23.4601	NaN	0.000000	0.001618	0.001667	28.0826	18.2726	0.001831	9981.4	6.556673	-178.246	23.4322	1.116034	0.014533	0.014280	23.4601	9981.4	0.012770	0.012426	1887.99	81808.8
629	2.000000	1.118793	7.37121e+06	-45639.1	1005.82	-29771.8	0.000000	0.000000	7.119301	26.1416	NaN	0.000000	0.001615	0.001693	28.0825	20.1136	0.001818	11062.4	6.684328	2.597859	26.5075	1.118453	0.017038	0.016699	26.1416	11062.4	0.015266	0.015642	1671.26	80812.4
629	2.000000	1.121242	7.37121e+06	-45639.1	1005.82	-29771.8	0.000000	0.000000	7.122067	33.8551	NaN	0.000000	0.001616	0.001685	28.0823	23.2861	0.001865	12484.9	8.732571	177.993	33.0359	1.120967	0.019487	0.019213	33.8551	12484.9	0.017453	0.018698	1810.66	83418.8
629	2.000000	1.123744	7.37121e+06	-45639.1	1005.82	-29771.8	0.000000	0.000000	7.124811	39.7188	NaN	0.000000	0.001629	0.001649	28.0824	25.2684	0.001750	14438	5.541786	0.211586	37.8394	1.123353	0.021990	0.021599	39.7188	14438	0.019927	0.022428	1770.98	88082.3
629	2.000000	1.126277	7.37121e+06	-45639.1	1005.82	-29771.8	0.000000	0.000000	7.127693	48.2256	NaN	0.000000	0.001595	0.001624	28.0824	27.4028	0.001738	15764.6	7.107679	177.866	49.0426	1.125918	0.024523	0.024164	48.2256	15764.6	0.022229	0.026166	1843.05	89040.1
629	2.000000	1.128780	7.37121e+06	-45639.1	1005.82	-29771.8	0.000000	0.000000	7.130440	54.1709	NaN	0.000000	0.001589	0.001667	28.0824	29.8918	0.001810	16516.3	5.752924	-1.044510	54.6044	1.128422	0.027026	0.026668	54.1709	16516.3	0.024566	0.030230	1791.94	86788.9
629	2.000000	1.131202	7.37121e+06	-45639.1	1005.82	-29771.8	0.000000	0.000000	7.133157	61.3238	NaN	0.000000	0.001587	0.001643	28.0821	32.101	0.001856	17291.6	0.830945	-176.716	59.8298	1.130893	0.029448	0.029139	61.3238	17291.6	0.026788	0.034349	1785.33	85242
629	2.000000	1.133722	7.37121e+06	-45639.1	1005.82	-29771.8	0.000000	0.000000	7.136037	70.1013	NaN	0.000000	0.001591	0.001661	28.0823	34.5958	0.001831	18893.2	3.951263	-0.081544	67.158	1.133429	0.031967	0.031675	70.1013	18893.2	0.029184	0.039070	1794.23	87328.1
629	2.000000	1.136166	7.37121e+06	-45639.1	1005.82	-29771.8	0.000000	0.000000	7.138968	81.9393	NaN	0.000000	0.001624	0.001665	28.0822	37.2101	0.001786	20834.9	5.773533	176.549	79.0375	1.135906	0.034411	0.034152	81.9393	20834.9	0.031462	0.043828	1869.58	90926.3
629	2.000000	1.138672	7.37121e+06	-45639.1	1005.82	-29771.8	0.000000	0.000000	7.141890	92.0804	NaN	0.000000	0.001587	0.001690	28.0822	38.7935	0.001689	22971.3	3.812864	-2.762967	88.9194	1.138425	0.036917	0.036671	92.0804	22971.3	0.033911	0.049240	1870.02	94579.9
629	2.000000	1.141194	7.37121e+06	-45639.1	1005.82	-29771.8	0.000000	0.000000	7.144601	96.664	NaN	0.000000	0.001584	0.001684	28.082	41.9751	0.001729	24280.9	3.272350	177.638	95.348	1.140900	0.039439	0.039146	96.664	24280.9	0.036454	0.055185	1751.65	94434.1
629	2.000000	1.143827	7.37121e+06	-45639.1	1005.82	-29771.8	0.000000	0.000000	7.147689	107.711	NaN	0.000000	0.001570	0.001666	28.0823	44.0462	0.001653	26647.9	6.443467	-5.147743	110.643	1.143360	0.042073	0.041606	107.711	26647.9	0.039042	0.061575	1749.28	98114.8
629	2.000000	1.146209	7.37121e+06	-45639.1	1005.82	-29771.8	0.000000	0.000000	7.150506	118.301	NaN	0.000000	0.001625	0.001662	28.0831	47.3607	0.001847	25635.8	5.461510	174.821	117.671	1.145916	0.044455	0.044162	118.301	25635.8	0.040994	0.066623	1775.69	90742.2
629	2.000000	1.148611	7.37121e+06	-45639.1	1005.82	-29771.8	0.000000	0.000000	7.153499	132.688	NaN	0.000000	0.001622	0.001695	28.0833	49.3487	0.001725	28610.5	5.259440	-5.865914	127.248	1.148279	0.046857	0.046525	132.688	28610.5	0.043378	0.073051	1816.39	96713.4
629	2.000000	1.151237	7.37121e+06	-45639.1	1005.82	-29771.8	0.000000	0.000000	7.156547	142.937	NaN	0.000000	0.001619	0.001658	28.0832	51.6006	0.001795	28749.8	3.394841	176.646	143.308	1.150837	0.049483	0.049083	142.937	28749.8	0.045754	0.079743	1792.46	93017
629	2.000000	1.153758	7.37121e+06	-45639.1	1005.82	-29771.8	0.000000	0.000000	7.159550	154.683	NaN	0.000000	0.001570	0.001678	28.0834	54.3989	0.001859	29270	6.976315	-6.977378	155.978	1.153322	0.052004	0.051568	154.683	29270	0.048040	0.086452	1789.24	90951.3
629	2.000000	1.156138	7.37121e+06	-45639.1	1005.82	-29771.8	0.000000	0.000000	7.162519	168.999	NaN	0.000000	0.001602	0.001708	28.0833	55.9253	0.001738	32179.9	4.022533	175.056	166.995	1.155825	0.054384	0.054071	168.999	32179.9	0.050445	0.093793	1801.82	96000.3
629	2.000000	1.158621	7.37121e+06	-45639.1	1005.82	-29771.8	0.000000	0.000000	7.165455	180.025	NaN	0.000000	0.001602	0.001663	28.0833	59.3852	0.001831	32426.9	4.829585	-6.460435	175.027	1.158340	0.056866	0.056586	180.025	32426.9	0.052703	0.100949	1783.32	93245.4
629	2.000000	1.161199	7.37121e+06	-45639.1	1005.82	-29771.8	0.000000	0.000000	7.168313	186.84	NaN	0.000000	0.001609	0.001664	28.0842	62.8773	0.001798	34964	7.600365	170.389	187.387	1.160870	0.059445	0.059116	186.84	34964	0.055437	0.109957	1699.21	96334.9
629	2.000000	1.163716	7.37121e+06	-45639.1	1005.82	-29771.8	0.000000	0.000000	7.171515	203.488	NaN	0.000000	0.001576	0.001636	28.0834	64.3965	0.001929	33383.2	8.016723	-9.191237	203.257	1.163340	0.061962	0.061586	203.488	33383.2	0.057390	0.116617	1744.92	89314.1
629	2.000000	1.166231	7.37121e+06	-45639.1	1005.82	-29771.8	0.000000	0.000000	7.174424	213.078	NaN	0.000000	0.001595	0.001638	28.0834	65.9463	0.001727	38174.6	2.850846	174.74	216.848	1.165850	0.064477	0.064096	213.078	38174.6	0.060291	0.126852	1679.73	97926.1
629	2.000000	1.168790	7.37121e+06	-45639.1	1005.82	-29771.8	0.000000	0.000000	7.177852	234.222	NaN	0.000000	0.001587	0.001655	28.0832	69.5251	0.001880	36977.2	5.937560	-7.356802	238.073	1.168247	0.067035	0.066493	234.222	36977.2	0.062285	0.134128	1746.26	92246
629	2.000000	1.171190	7.37121e+06	-45639.1	1005.82	-29771.8	0.000000	0.000000	7.180755	246.449	NaN	0.000000	0.001564	0.001612	28.0836	71.3342	0.001885	37852.6	4.775098	172.807	248.018	1.170899	0.069436	0.069145	246.449	37852.6	0.064553	0.142639	1727.78	91569.2
629	2.000000	1.173676	7.37121e+06	-45639.1	1005.82	-29771.8	0.000000	0.000000	7.184038	265.859	NaN	0.000000	0.001620	0.001661	28.0834	72.246	0.001823	39632.8	3.774907	-6.321104	263.114	1.173382	0.071922	0.071627	265.859	39632.8	0.066891	0.151670	1752.88	92977.7
629	2.000000	1.176191	7.37121e+06	-45639.1	1005.82	-29771.8	0.000000	0.000000	7.187124	279.722	NaN	0.000000	0.001592	0.001666	28.0834	73.7317	0.001775	41541.2	6.558990	170.277	279.942	1.175838	0.074437	0.074084	279.722	41541.2	0.069387	0.161603	1730.92	94412.2
629	2.000000	1.178608	7.37121e+06	-45639.1	1005.82	-29771.8	0.000000	0.000000	7.190354	299.532	NaN	0.000000	0.001606	0.001631	28.0835	76.7528	0.001818	42215.3	7.414588	-9.768617	295.507	1.178263	0.076853	0.076509	299.532	42215.3	0.071532	0.170375	1758.07	93441.5
629	2.000000	1.181097	7.37121e+06	-45639.1	1005.82	-29771.8	0.000000	0.000000	7.193674	319.717	NaN	0.000000	0.001593	0.001660	28.0824	78.706	0.001816	43334.7	3.455350	173.725	316.05	1.180827	0.079343	0.079073	319.717	43334.7	0.073809	0.179928	1776.91	93338
629	2.000000	1.183677	7.37121e+06	-45639.1	1005.82	-29771.8	0.000000	0.000000	7.196816	333.4	NaN	0.000000	0.001613	0.001661	28.0822	80.0796	0.001719	46587.8	4.499880	-7.471456	331.089	1.183383	0.081923	0.081629	333.4	46587.8	0.076555	0.191772	1738.52	97197.2
629	2.000000	1.186253	7.37121e+06	-45639.1	1005.82	-29771.8	0.000000	0.000000	7.199908	345.943	NaN	0.000000	0.001535	0.001702	28.0825	83.1901	0.001755	47402.6	5.369842	170.696	353.018	1.185922	0.084499	0.084168	345.943	47402.6	0.079025	0.202727	1706.45	96187.6
629	2.000000	1.188730	7.37121e+06	-45639.1	1005.82	-29771.8	0.000000	0.000000	7.203119	363.812	NaN	0.000000	0.001555	0.001664	28.0826	86.2702	0.001698	50818	4.689128	-8.922107	365.403	1.188274	0.086976	0.086519	363.812	50818	0.081606	0.214479	1696.26	100253
629	2.000000	1.191256	7.37121e+06	-45639.1	1005.82	-29771.8	0.000000	0.000000	7.206245	378.398	NaN	0.000000	0.001590	0.001650	28.0825	90.5072	0.001937	46734.3	6.496213	169.999	383.176	1.190828	0.089502	0.089073	378.398	46734.3	0.083429	0.222965	1697.12	90425.4
629	2.000000	1.193572	7.37121e+06	-45639.1	1005.82	-29771.8	0.000000	0.000000	7.209676	405.516	NaN	0.000000	0.001571	0.001648	28.0822	91.4303	0.001838	49756.6	6.700978	-11.0309	397.663	1.193186	0.091818	0.091432	405.516	49756.6	0.085706	0.233779	1734.61	94020.2
629	2.000000	1.196070	7.37121e+06	-45639.1	1005.82	-29771.8	0.000000	0.000000	7.212942	424.199	NaN	0.000000	0.001577	0.001641	28.0822	92.0125	0.001764	52165.7	6.476593	169.621	417.471	1.195724	0.094316	0.093970	424.199	52165.7	0.088217	0.245987	1724.48	96095.4
629	2.000000	1.198654	7.37121e+06	-45639.1	1005.82	-29771.8	0.000000	0.000000	7.215973	435.098	NaN	0.000000	0.001574	0.001599	28.0826	95.6522	0.001767	54128.3	6.008258	-10.6425	431.999	1.198181	0.096900	0.096427	435.098	54128.3	0.090871	0.259201	1678.61	97135.7
629	2.000000	1.201089	7.37121e+06	-45639.1	1005.82	-29771.8	0.000000	0.000000	7.218977	448.915	NaN	0.000000	0.001599	0.001571	28.0823	97.6932	0.001799	54295.4	1.519360	173.747	446.346	1.200833	0.099335	0.099078	448.915	54295.4	0.093134	0.270725	1658.19	95339.2
629	2.000000	1.203503	7.37121e+06	-45639.1	1005.82	-29771.8	0.000000	0.000000	7.222561	477.401	NaN	0.000000	0.001610	0.001591	28.0823	100.172	0.001794	55847.9	6.724482	-11.933	465.98	1.203199	0.101749	0.101445	477.401	55847.9	0.095337	0.282171	1691.89	96055.9
629	2.000000	1.205544	7.37121e+06	-45639.1	1005.82	-29771.8	0.000000	0.000000	7.225223	492.499	NaN	0.000000	0.001591	0.001559	28.083	100.771	0.001681	59960.1	5.216493	-10.8952	484.862	1.205168	0.103790	0.103413	492.499	59960.1	0.097630	0.294312	1673.39	100979