File: remote_trans/data/nanoindenter/0828-1/data/Data_2025-08-06,11h17m57s/2025-07-22_16-23-58_1_70.txt
2025-07-22, 16:23:58, 1
Index	Phase	Displacement	Time	Pos X	Pos Y	Pos Z	Rot A	Rot B	Piezo Z	Force A	Force B	Gripper	Voltage A	Voltage B	Temperature	Amplitude force	Amplitude pos	Stiffness	Phase shift	Phase excitation	Force A raw	Displacement raw	HMax	HMax raw	Real Force	Real Stiffness	Contact Depth	Area	Hardness	Reduced Mod.
[#]	[#]	[um]	[s]	[um]	[um]	[um]	[m°]	[m°]	[um]	[uN]	[uN]	[V]	[V]	[V]	[°C]	[uN]	[um]	[N/m]	[°]	[°]	[uN]	[um]	[um]	[um]	[uN]	[N/m]	[um]	[um^2]	[MPa]	[MPa]
70	1.000000	0.003122	7.36573e+06	-42139.1	955.819	-29784.3	0.000000	0.000000	6.002779	0.015043	NaN	0.000000	0.001728	0.001656	28.0942	0.091735	0.001025	89.5127	-175.987	-165.148	0.021326	0.001874	-1.051088	-1.052335	0.015043	89.5127	-1.051214	-1.108483E+14	-1.357114E-16	NaN
70	1.000000	0.011094	7.36573e+06	-42139.1	955.819	-29784.3	0.000000	0.000000	6.010750	-0.035699	NaN	0.000000	0.001733	0.001645	28.0937	0.092002	0.000873	105.338	-174.46	-164.273	-0.082885	0.009749	-1.043115	-1.044460	-0.035699	105.338	-1.042861	-8.559212E+13	4.170826E-16	NaN
70	1.000000	0.019103	7.36573e+06	-42139.1	955.818	-29784.3	0.000000	0.000000	6.018760	0.014704	NaN	0.000000	0.001713	0.001638	28.0933	0.115178	0.001828	63.0172	96.1857	-169.857	0.032544	0.017785	-1.035107	-1.036425	0.014704	63.0172	-1.035282	-6.768875E+13	-2.172331E-16	NaN
70	1.000000	0.027125	7.36573e+06	-42139.1	955.818	-29784.3	0.000000	0.000000	6.026782	0.007127	NaN	0.000000	0.001691	0.001665	28.0956	0.086641	0.001851	46.8078	-172.285	-168.047	-0.001605	0.025821	-1.027085	-1.028389	0.007127	46.8078	-1.027199	-5.269871E+13	-1.352441E-16	NaN
70	1.000000	0.035123	7.36573e+06	-42139.1	955.818	-29784.3	0.000000	0.000000	6.034779	-0.009844	NaN	0.000000	0.001743	0.001614	28.095	0.078550	0.001979	39.6906	-74.8103	-168.619	0.034322	0.033763	-1.019086	-1.020447	-0.009844	39.6906	-1.018900	-4.075239E+13	2.415569E-16	NaN
70	1.000000	0.043104	7.36573e+06	-42139.1	955.818	-29784.3	0.000000	0.000000	6.042761	0.014117	NaN	0.000000	0.001601	0.001586	28.0954	0.176472	0.001899	92.9308	-83.5792	-166.268	-0.024278	0.041799	-1.011105	-1.012410	0.014117	92.9308	-1.011219	-3.212106E+13	-4.395089E-16	NaN
70	1.000000	0.051095	7.36573e+06	-42139.1	955.818	-29784.3	0.000000	0.000000	6.050751	-0.034726	NaN	0.000000	0.001577	0.001630	28.0957	0.095340	0.001970	48.4016	21.4345	-167.228	-0.012092	0.049835	-1.003114	-1.004375	-0.034726	48.4016	-1.002576	-2.457243E+13	1.413196E-15	NaN
70	1.000000	0.059111	7.36573e+06	-42139.1	955.818	-29784.3	0.000000	0.000000	6.058767	-0.020982	NaN	0.000000	0.001587	0.001637	28.0927	0.033048	0.001981	16.6858	-17.7407	-167.576	-0.103894	0.057809	-0.995098	-0.996400	-0.020982	16.6858	-0.994155	-1.892625E+13	1.108604E-15	NaN
70	1.000000	0.067126	7.36573e+06	-42139.1	955.818	-29784.3	0.000000	0.000000	6.066781	-0.033313	NaN	0.000000	0.001595	0.001624	28.0927	0.044035	0.002054	21.437	-117.845	-166.549	-0.028692	0.065777	-0.987084	-0.988432	-0.033313	21.437	-0.985918	-1.466002E+13	2.272387E-15	NaN
70	1.000000	0.075118	7.36573e+06	-42139.1	955.818	-29784.3	0.000000	0.000000	6.074774	-0.013266	NaN	0.000000	0.001589	0.001625	28.0934	0.133782	0.002078	64.3649	-171.074	-168.488	0.074655	0.073775	-0.979092	-0.980434	-0.013266	64.3649	-0.978937	-1.180566E+13	1.123707E-15	NaN
70	1.000000	0.083119	7.36573e+06	-42139.1	955.818	-29784.3	0.000000	0.000000	6.082775	-0.032054	NaN	0.000000	0.001614	0.001620	28.095	0.048998	0.001874	26.1407	114.188	-164.059	0.011596	0.081775	-0.971090	-0.972434	-0.032054	26.1407	-0.970170	-8.994152E+12	3.563891E-15	NaN
70	1.000000	0.091113	7.36573e+06	-42139.1	955.818	-29784.3	0.000000	0.000000	6.090771	0.023589	NaN	0.000000	0.001590	0.001642	28.0925	0.049031	0.002058	23.8213	95.4553	-163.936	0.044319	0.089793	-0.963096	-0.964416	0.023589	23.8213	-0.963839	-7.389606E+12	-3.192160E-15	NaN
70	1.000000	0.099087	7.36573e+06	-42139.1	955.818	-29784.3	0.000000	0.000000	6.098746	0.061471	NaN	0.000000	0.001565	0.001627	28.0949	0.186381	0.001907	97.7401	177.849	-165.023	0.018143	0.097800	-0.955123	-0.956409	0.061471	97.7401	-0.955594	-5.720971E+12	-1.074479E-14	NaN
70	1.000000	0.107120	7.36573e+06	-42139.1	955.819	-29784.3	0.000000	0.000000	6.106773	-0.090020	NaN	0.000000	0.001591	0.001635	28.0951	0.040349	0.002017	20.0023	8.712945	-169.453	-0.079057	0.105769	-0.947089	-0.948440	-0.090020	20.0023	-0.943714	-3.955839E+12	2.275614E-14	NaN
70	1.000000	0.115128	7.36573e+06	-42139.1	955.819	-29784.3	0.000000	0.000000	6.114784	-0.029488	NaN	0.000000	0.001602	0.001606	28.0949	0.109045	0.002057	53.0122	29.139	-165.194	-0.090735	0.113823	-0.939081	-0.940386	-0.029488	53.0122	-0.938664	-3.381483E+12	8.720574E-15	NaN
70	1.000000	0.123121	7.36573e+06	-42139.1	955.818	-29784.3	0.000000	0.000000	6.122781	0.069268	NaN	0.000000	0.001543	0.001668	28.0944	0.029644	0.002134	13.8886	-18.729	-165.651	0.034709	0.121787	-0.931088	-0.932423	0.069268	13.8886	-0.934829	-3.001646E+12	-2.307662E-14	NaN
70	1.000000	0.131146	7.36573e+06	-42139.1	955.818	-29784.3	0.000000	0.000000	6.130801	-0.044048	NaN	0.000000	0.001596	0.001647	28.0943	0.100287	0.002097	47.8292	85.1692	-166.842	-0.056359	0.129821	-0.923063	-0.924388	-0.044048	47.8292	-0.922372	-2.038152E+12	2.161171E-14	NaN
70	1.000000	0.139138	7.36573e+06	-42139.1	955.819	-29784.3	0.000000	0.000000	6.138798	0.075295	NaN	0.000000	0.001569	0.001652	28.0923	0.056998	0.002024	28.1625	-165.56	-167.674	-0.053195	0.137824	-0.915071	-0.916385	0.075295	28.1625	-0.917076	-1.728723E+12	-4.355553E-14	NaN
70	1.000000	0.147131	7.36573e+06	-42139.1	955.817	-29784.3	0.000000	0.000000	6.146788	-0.007702	NaN	0.000000	0.001549	0.001639	28.0909	0.063528	0.001928	32.9437	53.8057	-163.563	-0.062751	0.145810	-0.907078	-0.908399	-0.007702	32.9437	-0.906903	-1.259869E+12	6.113667E-15	NaN
70	1.000000	0.155130	7.36573e+06	-42139.1	955.819	-29784.3	0.000000	0.000000	6.154786	-0.021489	NaN	0.000000	0.001544	0.001657	28.092	0.065959	0.001813	36.373	-76.3486	-167.089	-0.051025	0.153835	-0.899079	-0.900374	-0.021489	36.373	-0.898636	-9.741815E+11	2.205884E-14	NaN
70	1.000000	0.163136	7.36573e+06	-42139.1	955.818	-29784.3	0.000000	0.000000	6.162795	0.059416	NaN	0.000000	0.001603	0.001718	28.0926	0.087906	0.002067	42.5216	-69.1763	-166.484	0.011705	0.161829	-0.891073	-0.892380	0.059416	42.5216	-0.892121	-7.954111E+11	-7.469837E-14	NaN
70	1.000000	0.171137	7.36573e+06	-42139.1	955.818	-29784.3	0.000000	0.000000	6.170793	-0.015149	NaN	0.000000	0.001606	0.001622	28.0915	0.089318	0.002020	44.2081	-100.59	-167.269	-0.067106	0.169843	-0.883072	-0.884366	-0.015149	44.2081	-0.882815	-5.953608E+11	2.544546E-14	NaN
70	1.000000	0.179162	7.36573e+06	-42139.1	955.818	-29784.3	0.000000	0.000000	6.178820	0.019081	NaN	0.000000	0.001596	0.001655	28.0931	0.066465	0.001986	33.4623	-127.381	-169.151	-0.010844	0.177869	-0.875047	-0.876341	0.019081	33.4623	-0.875475	-4.737038E+11	-4.027965E-14	NaN
70	1.000000	0.187168	7.36573e+06	-42139.1	955.817	-29784.3	0.000000	0.000000	6.186826	0.040271	NaN	0.000000	0.001575	0.001650	28.0934	0.015558	0.001986	7.831986	-104.939	-164.364	0.050761	0.185893	-0.867042	-0.868316	0.040271	7.831986	-0.870898	-4.107650E+11	-9.803936E-14	NaN
70	1.000000	0.195166	7.36573e+06	-42139.1	955.818	-29784.3	0.000000	0.000000	6.194820	-0.060910	NaN	0.000000	0.001567	0.001603	28.0929	0.120223	0.002030	59.2303	-67.5995	-167.6	-0.011004	0.193842	-0.859043	-0.860367	-0.060910	59.2303	-0.858272	-2.771606E+11	2.197653E-13	NaN
70	1.000000	0.203176	7.36573e+06	-42139.1	955.819	-29784.3	0.000000	0.000000	6.202831	-0.037117	NaN	0.000000	0.001567	0.001683	28.0922	0.056063	0.002012	27.8657	47.4267	-164.798	0.040661	0.201882	-0.851033	-0.852327	-0.037117	27.8657	-0.850034	-2.143878E+11	1.731317E-13	NaN
70	1.000000	0.211171	7.36573e+06	-42139.1	955.818	-29784.3	0.000000	0.000000	6.210829	0.017597	NaN	0.000000	0.001553	0.001671	28.0928	0.090949	0.001999	45.5034	156.398	-165.116	0.006543	0.209845	-0.843038	-0.844364	0.017597	45.5034	-0.843328	-1.739306E+11	-1.011730E-13	NaN
70	1.000000	0.219174	7.36573e+06	-42139.1	955.817	-29784.3	0.000000	0.000000	6.218830	-0.026556	NaN	0.000000	0.001565	0.001662	28.0916	0.054826	0.002038	26.9005	107.918	-163.393	-0.101408	0.217914	-0.835035	-0.836295	-0.026556	26.9005	-0.834295	-1.312175E+11	2.023799E-13	NaN
70	1.000000	0.227135	7.36573e+06	-42139.1	955.818	-29784.3	0.000000	0.000000	6.226788	-0.078750	NaN	0.000000	0.001591	0.001608	28.092	0.066555	0.002019	32.9611	-121.993	-169.574	-0.103978	0.225855	-0.827075	-0.828354	-0.078750	32.9611	-0.825283	-9.904648E+10	7.950766E-13	NaN
70	1.000000	0.235178	7.36573e+06	-42139.1	955.818	-29784.3	0.000000	0.000000	6.234836	0.017833	NaN	0.000000	0.001590	0.001598	28.0921	0.079628	0.002040	39.0319	28.0242	-171.033	0.037826	0.233860	-0.819031	-0.820349	0.017833	39.0319	-0.819374	-8.236047E+10	-2.165278E-13	NaN
70	1.000000	0.243189	7.36573e+06	-42139.1	955.818	-29784.3	0.000000	0.000000	6.242845	-0.017228	NaN	0.000000	0.001598	0.001640	28.0916	0.039745	0.002004	19.834	-17.1989	-167.867	-0.055257	0.241904	-0.811020	-0.812306	-0.017228	19.834	-0.810369	-6.216925E+10	2.771113E-13	NaN
70	1.000000	0.251159	7.36573e+06	-42139.1	955.818	-29784.3	0.000000	0.000000	6.250816	0.008177	NaN	0.000000	0.001594	0.001631	28.0916	0.007408	0.002055	3.604502	68.0219	-164.118	-0.088879	0.249919	-0.803050	-0.804291	0.008177	3.604502	-0.804752	-5.216212E+10	-1.567552E-13	NaN
70	1.000000	0.259185	7.36573e+06	-42139.1	955.818	-29784.3	0.000000	0.000000	6.258839	-0.067979	NaN	0.000000	0.001591	0.001637	28.0929	0.087126	0.002056	42.374	-141.795	-166.415	-0.043133	0.257848	-0.795024	-0.796362	-0.067979	42.374	-0.793821	-3.706588E+10	1.834011E-12	NaN
70	1.000000	0.267189	7.36573e+06	-42139.1	955.819	-29784.3	0.000000	0.000000	6.266846	-0.010774	NaN	0.000000	0.001595	0.001636	28.0924	0.073706	0.002084	35.3735	-99.6542	-167.527	0.006937	0.265928	-0.787020	-0.788282	-0.010774	35.3735	-0.786791	-2.975102E+10	3.621459E-13	NaN
70	1.000000	0.275187	7.36573e+06	-42139.1	955.818	-29784.3	0.000000	0.000000	6.274844	0.012962	NaN	0.000000	0.001575	0.001646	28.0935	0.030150	0.002046	14.7327	11.9253	-166.653	0.014525	0.273895	-0.779022	-0.780314	0.012962	14.7327	-0.779682	-2.381844E+10	-5.442094E-13	NaN
70	1.000000	0.283198	7.36573e+06	-42139.1	955.818	-29784.3	0.000000	0.000000	6.282855	0.006707	NaN	0.000000	0.001564	0.001623	28.0934	0.110261	0.002038	54.1111	124.557	-166.819	0.105678	0.281943	-0.771011	-0.772266	0.006707	54.1111	-0.771104	-1.821043E+10	-3.682823E-13	NaN
70	1.000000	0.291179	7.36573e+06	-42139.1	955.818	-29784.3	0.000000	0.000000	6.290836	-0.002449	NaN	0.000000	0.001598	0.001646	28.0941	0.164492	0.002073	79.3446	68.2545	-165.649	-0.061607	0.289869	-0.763030	-0.764340	-0.002449	79.3446	-0.763007	-1.413203E+10	1.732873E-13	NaN
70	1.000000	0.299214	7.36573e+06	-42139.1	955.818	-29784.3	0.000000	0.000000	6.298868	-0.084573	NaN	0.000000	0.001594	0.001627	28.0928	0.080528	0.002075	38.8087	-105.188	-163.563	-0.011620	0.297893	-0.754995	-0.756316	-0.084573	38.8087	-0.753360	-1.044619E+10	8.096065E-12	NaN
70	1.000000	0.307195	7.36573e+06	-42139.1	955.819	-29784.3	0.000000	0.000000	6.306851	-0.017728	NaN	0.000000	0.001645	0.001672	28.0922	0.007276	0.002070	3.514330	-113.615	-166.943	0.056570	0.305890	-0.747015	-0.748319	-0.017728	3.514330	-0.743231	-7.604320E+9	2.331363E-12	NaN
70	1.000000	0.315235	7.36573e+06	-42139.1	955.819	-29784.3	0.000000	0.000000	6.314891	-0.013026	NaN	0.000000	0.001653	0.001654	28.0925	0.116759	0.001911	61.0833	-56.3824	-165.608	-0.016571	0.313894	-0.738974	-0.740315	-0.013026	61.0833	-0.738814	-6.620678E+9	1.967463E-12	NaN
70	1.000000	0.323203	7.36573e+06	-42139.1	955.818	-29784.3	0.000000	0.000000	6.322860	0.007493	NaN	0.000000	0.001606	0.001645	28.0936	0.045191	0.002028	22.2792	-63.9616	-165.773	-0.021734	0.321889	-0.731006	-0.732321	0.007493	22.2792	-0.731258	-5.223398E+9	-1.434509E-12	NaN
70	1.000000	0.331235	7.36573e+06	-42139.1	955.818	-29784.3	0.000000	0.000000	6.330889	-0.068069	NaN	0.000000	0.001614	0.001684	28.0929	0.077144	0.002145	35.9593	-71.2145	-165.681	-0.068476	0.329907	-0.722974	-0.724303	-0.068069	35.9593	-0.721554	-3.851827E+9	1.767178E-11	NaN
70	1.000000	0.339224	7.36573e+06	-42139.1	955.819	-29784.3	0.000000	0.000000	6.338882	0.030499	NaN	0.000000	0.001652	0.001654	28.0936	0.060827	0.002001	30.3966	139.36	-166.231	0.146690	0.337895	-0.714985	-0.716314	0.030499	30.3966	-0.715738	-3.208739E+9	-9.504868E-12	NaN
70	1.000000	0.347247	7.36573e+06	-42139.1	955.818	-29784.3	0.000000	0.000000	6.346905	0.045577	NaN	0.000000	0.001597	0.001659	28.094	0.093473	0.002034	45.9661	-99.7275	-163.358	0.065383	0.345941	-0.706963	-0.708268	0.045577	45.9661	-0.707706	-2.493118E+9	-1.828129E-11	NaN
70	1.000000	0.355233	7.36573e+06	-42139.1	955.818	-29784.3	0.000000	0.000000	6.354888	-0.046883	NaN	0.000000	0.001605	0.001670	28.0938	0.027946	0.001992	14.027	-114.503	-167.143	-0.020004	0.353925	-0.698976	-0.700284	-0.046883	14.027	-0.696470	-1.751105E+9	2.677333E-11	NaN
70	1.000000	0.363234	7.36573e+06	-42139.1	955.818	-29784.3	0.000000	0.000000	6.362889	-0.056950	NaN	0.000000	0.001566	0.001647	28.0937	0.079312	0.001995	39.763	27.4646	-166.171	-0.053422	0.361902	-0.690975	-0.692307	-0.056950	39.763	-0.689901	-1.424163E+9	3.998868E-11	NaN
70	1.000000	0.371233	7.36573e+06	-42139.1	955.818	-29784.3	0.000000	0.000000	6.370888	-0.039123	NaN	0.000000	0.001604	0.001645	28.0932	0.076455	0.002095	36.4961	108.009	-163.101	0.010859	0.369953	-0.682976	-0.684256	-0.039123	36.4961	-0.682172	-1.116636E+9	3.503679E-11	NaN
70	1.000000	0.379259	7.36573e+06	-42139.1	955.819	-29784.3	0.000000	0.000000	6.378915	-0.019666	NaN	0.000000	0.001568	0.001659	28.093	0.094920	0.001990	47.6895	-11.112	-166.557	0.013406	0.377906	-0.674950	-0.676303	-0.019666	47.6895	-0.674641	-8.808491E+8	2.232595E-11	NaN
70	1.000000	0.387242	7.36573e+06	-42139.1	955.818	-29784.3	0.000000	0.000000	6.386898	0.003183	NaN	0.000000	0.001590	0.001635	28.0932	0.064842	0.002035	31.8643	166.648	-166.422	-0.061191	0.385977	-0.666968	-0.668232	0.003183	31.8643	-0.667043	-6.932812E+8	-4.591593E-12	NaN
70	1.000000	0.395237	7.36573e+06	-42139.1	955.818	-29784.3	0.000000	0.000000	6.394891	-0.077224	NaN	0.000000	0.001585	0.001649	28.0915	0.095939	0.001892	50.707	-175.069	-165.088	-0.039546	0.393945	-0.658972	-0.660264	-0.077224	50.707	-0.657830	-5.184881E+8	1.489409E-10	NaN
70	1.000000	0.403237	7.36573e+06	-42139.1	955.818	-29784.3	0.000000	0.000000	6.402894	0.007951	NaN	0.000000	0.001603	0.001656	28.0929	0.161104	0.002043	78.8669	-176.717	-164.7	-0.035309	0.401927	-0.650972	-0.652282	0.007951	78.8669	-0.651048	-4.186022E+8	-1.899441E-11	NaN
70	1.000000	0.411257	7.36573e+06	-42139.1	955.818	-29784.3	0.000000	0.000000	6.410913	-0.020093	NaN	0.000000	0.001622	0.001643	28.0912	0.021226	0.001947	10.9003	-88.6137	-163.591	-0.051441	0.409891	-0.642952	-0.644319	-0.020093	10.9003	-0.641570	-3.103318E+8	6.474785E-11	NaN
70	1.000000	0.419219	7.36573e+06	-42139.1	955.818	-29784.3	0.000000	0.000000	6.418874	-0.044670	NaN	0.000000	0.001573	0.001645	28.0924	0.041770	0.001842	22.6799	-160.952	-171.296	-0.018613	0.417910	-0.634990	-0.636300	-0.044670	22.6799	-0.633513	-2.405790E+8	1.856789E-10	NaN
70	1.000000	0.427270	7.36573e+06	-42139.1	955.818	-29784.3	0.000000	0.000000	6.426924	-0.062649	NaN	0.000000	0.001564	0.001675	28.092	0.011203	0.002086	5.370984	-66.8476	-165.269	-0.121864	0.425960	-0.626939	-0.628249	-0.062649	5.370984	-0.618191	-1.481725E+8	4.228128E-10	NaN
70	1.000000	0.435270	7.36573e+06	-42139.1	955.818	-29784.3	0.000000	0.000000	6.434924	-0.073433	NaN	0.000000	0.001572	0.001675	28.0918	0.054699	0.002084	26.2465	-110.613	-168.931	-0.139853	0.433946	-0.618939	-0.620263	-0.073433	26.2465	-0.616841	-1.419717E+8	5.172380E-10	NaN
70	1.000000	0.443251	7.36573e+06	-42139.1	955.818	-29784.3	0.000000	0.000000	6.442907	-0.018629	NaN	0.000000	0.001567	0.001650	28.0927	0.142591	0.001870	76.2433	53.6917	-167.718	0.030774	0.441968	-0.610958	-0.612241	-0.018629	76.2433	-0.610775	-1.171601E+8	1.590083E-10	NaN
70	1.000000	0.451260	7.36573e+06	-42139.1	955.818	-29784.3	0.000000	0.000000	6.450915	-0.037697	NaN	0.000000	0.001580	0.001636	28.0924	0.056467	0.001977	28.564	-151.306	-167.231	0.056568	0.449968	-0.602949	-0.604241	-0.037697	28.564	-0.601959	-8.860204E+7	4.254600E-10	NaN
70	1.000000	0.459270	7.36573e+06	-42139.1	955.818	-29784.3	0.000000	0.000000	6.458927	0.021169	NaN	0.000000	0.001563	0.001671	28.0902	0.162498	0.002030	80.0321	179.27	-167.148	-0.026583	0.457968	-0.594940	-0.596241	0.021169	80.0321	-0.595138	-7.136479E+7	-2.966369E-10	NaN
70	1.000000	0.467277	7.36573e+06	-42139.1	955.818	-29784.3	0.000000	0.000000	6.466932	-0.033617	NaN	0.000000	0.001570	0.001640	28.0902	0.036328	0.001995	18.2112	-81.4861	-164.561	0.018282	0.466003	-0.586932	-0.588206	-0.033617	18.2112	-0.585548	-5.263448E+7	6.386834E-10	NaN
70	1.000000	0.475245	7.36573e+06	-42139.1	955.818	-29784.3	0.000000	0.000000	6.474901	-0.027670	NaN	0.000000	0.001578	0.001647	28.0904	0.147621	0.002018	73.1398	-28.7481	-165.327	-0.045767	0.473938	-0.578964	-0.580272	-0.027670	73.1398	-0.578680	-4.231625E+7	6.538976E-10	NaN
70	1.000000	0.483266	7.36573e+06	-42139.1	955.819	-29784.3	0.000000	0.000000	6.482923	0.006692	NaN	0.000000	0.001585	0.001669	28.0908	0.075638	0.001819	41.5918	49.7164	-172.845	0.072194	0.481962	-0.570943	-0.572247	0.006692	41.5918	-0.571063	-3.321431E+7	-2.014691E-10	NaN
70	1.000000	0.491271	7.36573e+06	-42139.1	955.819	-29784.3	0.000000	0.000000	6.490924	-0.094957	NaN	0.000000	0.001566	0.001655	28.0906	0.024156	0.001946	12.4103	151.592	-164.913	-0.079574	0.489932	-0.562938	-0.564277	-0.094957	12.4103	-0.557199	-2.136142E+7	4.445242E-9	NaN
70	1.000000	0.499302	7.36573e+06	-42139.1	955.818	-29784.3	0.000000	0.000000	6.498959	0.008149	NaN	0.000000	0.001577	0.001632	28.0917	0.014513	0.001934	7.503287	-160.556	-164.341	0.009650	0.497949	-0.554907	-0.556260	0.008149	7.503287	-0.555722	-2.037868E+7	-3.999013E-10	NaN
70	1.000000	0.507304	7.36573e+06	-42139.1	955.818	-29784.3	0.000000	0.000000	6.506958	-0.062046	NaN	0.000000	0.001583	0.001673	28.0909	0.043471	0.001968	22.0911	-83.9497	-166.781	-0.027352	0.506015	-0.546906	-0.548195	-0.062046	22.0911	-0.544799	-1.438455E+7	4.313350E-9	NaN
70	1.000000	0.515269	7.36573e+06	-42139.1	955.819	-29784.3	0.000000	0.000000	6.514924	-0.045393	NaN	0.000000	0.001599	0.001653	28.0914	0.014440	0.001962	7.358643	128.1	-168.43	0.002914	0.514012	-0.538941	-0.540198	-0.045393	7.358643	-0.534314	-1.029127E+7	4.410857E-9	NaN
70	1.000000	0.523286	7.36573e+06	-42139.1	955.818	-29784.3	0.000000	0.000000	6.522942	-0.007791	NaN	0.000000	0.001602	0.001639	28.0917	0.053295	0.002001	26.6344	-100.322	-165.015	0.048141	0.521975	-0.530924	-0.532234	-0.007791	26.6344	-0.530704	-9.16971e+06	8.496501E-10	NaN
70	1.000000	0.531278	7.36573e+06	-42139.1	955.818	-29784.3	0.000000	0.000000	6.530931	-0.092328	NaN	0.000000	0.001601	0.001637	28.0906	0.113317	0.002020	56.1004	-22.0998	-165.008	-0.081007	0.530032	-0.522931	-0.524178	-0.092328	56.1004	-0.521697	-6.87376e+06	1.343189E-8	NaN
70	1.000000	0.539278	7.36573e+06	-42139.1	955.817	-29784.3	0.000000	0.000000	6.538934	-0.008730	NaN	0.000000	0.001579	0.001633	28.0897	0.089968	0.002011	44.7346	32.078	-167.705	0.007074	0.538002	-0.514931	-0.516207	-0.008730	44.7346	-0.514785	-5.50855e+06	1.584772E-9	NaN
70	1.000000	0.547334	7.36573e+06	-42139.1	955.818	-29784.3	0.000000	0.000000	6.546990	-0.033984	NaN	0.000000	0.001564	0.001644	28.0924	0.054574	0.001989	27.4349	19.1934	-165.723	0.064673	0.546032	-0.506875	-0.508177	-0.033984	27.4349	-0.505946	-4.14885e+06	8.191288E-9	NaN
70	1.000000	0.555331	7.36573e+06	-42139.1	955.818	-29784.3	0.000000	0.000000	6.554991	0.094640	NaN	0.000000	0.001551	0.001630	28.0925	0.054556	0.002002	27.2506	75.2375	-170.199	0.018198	0.553955	-0.498879	-0.500254	0.094640	27.2506	-0.501483	-3.5951e+06	-2.632485E-8	NaN
70	1.000000	0.563308	7.36573e+06	-42139.1	955.818	-29784.3	0.000000	0.000000	6.562962	-0.053411	NaN	0.000000	0.001561	0.001663	28.0914	0.014146	0.002019	7.005352	-142.953	-164.643	0.016447	0.562064	-0.490902	-0.492145	-0.053411	7.005352	-0.485183	-2.12841e+06	2.509426E-8	NaN
70	1.000000	0.571325	7.36573e+06	-42139.1	955.819	-29784.3	0.000000	0.000000	6.570981	-0.010220	NaN	0.000000	0.001570	0.001698	28.0915	0.030951	0.001934	16.0025	-136.521	-164.803	-0.016333	0.569974	-0.482884	-0.484235	-0.010220	16.0025	-0.482405	-1.94621e+06	5.251233E-9	NaN
70	1.000000	0.579310	7.36573e+06	-42139.1	955.818	-29784.3	0.000000	0.000000	6.578967	0.001307	NaN	0.000000	0.001605	0.001686	28.0922	0.038839	0.002096	18.5308	50.988	-168.173	0.090963	0.578020	-0.474899	-0.476189	0.001307	18.5308	-0.474952	-1.53049e+06	-8.541455E-10	NaN
70	1.000000	0.587325	7.36573e+06	-42139.1	955.819	-29784.3	0.000000	0.000000	6.586981	-0.012324	NaN	0.000000	0.001566	0.001686	28.0921	0.196222	0.002113	92.8749	172.13	-164.983	0.007621	0.586044	-0.466884	-0.468165	-0.012324	92.8749	-0.466784	-1.1757e+06	1.048272E-8	NaN
70	1.000000	0.595325	7.36573e+06	-42139.1	955.817	-29784.3	0.000000	0.000000	6.594982	0.005685	NaN	0.000000	0.001571	0.001707	28.0923	0.014987	0.002016	7.434566	-148.718	-163.656	0.007652	0.594045	-0.458884	-0.460164	0.005685	7.434566	-0.459457	-927663	-6.127860E-9	NaN
70	1.000000	0.603337	7.36573e+06	-42139.1	955.818	-29784.3	0.000000	0.000000	6.602994	-0.005200	NaN	0.000000	0.001529	0.001655	28.0926	0.033448	0.001954	17.1203	-131.849	-165.234	0.029512	0.602005	-0.450872	-0.452204	-0.005200	17.1203	-0.450644	-697294	7.457664E-9	NaN
70	1.000000	0.611338	7.36573e+06	-42139.1	955.819	-29784.3	0.000000	0.000000	6.610993	-0.039470	NaN	0.000000	0.001531	0.001684	28.0926	0.102704	0.001992	51.5571	125.794	-165.661	-0.052839	0.610054	-0.442871	-0.444155	-0.039470	51.5571	-0.442297	-531829	7.421499E-8	NaN
70	1.000000	0.619339	7.36573e+06	-42139.1	955.818	-29784.3	0.000000	0.000000	6.618995	-0.019393	NaN	0.000000	0.001544	0.001688	28.0923	0.038971	0.001984	19.6427	-74.5002	-166.796	0.069004	0.618039	-0.434870	-0.436170	-0.019393	19.6427	-0.434130	-407811	4.755451E-8	NaN
70	1.000000	0.627328	7.36573e+06	-42139.1	955.817	-29784.3	0.000000	0.000000	6.626983	-0.044201	NaN	0.000000	0.001557	0.001663	28.0918	0.020042	0.001888	10.6163	-155.549	-167.643	-0.031724	0.626029	-0.426881	-0.428181	-0.044201	10.6163	-0.423758	-290865	1.519657E-7	NaN
70	1.000000	0.635365	7.36573e+06	-42139.1	955.818	-29784.3	0.000000	0.000000	6.635024	0.037577	NaN	0.000000	0.001574	0.001665	28.0917	0.073899	0.001979	37.3468	-14.9813	-169.251	0.020462	0.634020	-0.418844	-0.420189	0.037577	37.3468	-0.419599	-253934	-1.479804E-7	NaN
70	1.000000	0.643383	7.36573e+06	-42139.1	955.819	-29784.3	0.000000	0.000000	6.643037	-0.064593	NaN	0.000000	0.001544	0.001650	28.0915	0.082347	0.001898	43.3928	-174.89	-167.426	-0.024644	0.642036	-0.410826	-0.412173	-0.064593	43.3928	-0.409710	-183771	3.514857E-7	NaN
70	1.000000	0.651371	7.36573e+06	-42139.1	955.818	-29784.3	0.000000	0.000000	6.651026	-0.052643	NaN	0.000000	0.001572	0.001659	28.091	0.059623	0.001953	30.5277	80.0738	-165.581	-0.040655	0.650012	-0.402838	-0.404197	-0.052643	30.5277	-0.401545	-140612	3.743813E-7	NaN
70	1.000000	0.659355	7.36573e+06	-42139.1	955.818	-29784.3	0.000000	0.000000	6.659007	-0.107589	NaN	0.000000	0.001580	0.001647	28.0931	0.070542	0.001990	35.4489	158.939	-163.813	-0.074174	0.657986	-0.394854	-0.396224	-0.107589	35.4489	-0.392578	-104719	1.027406E-6	NaN
70	1.000000	0.667351	7.36573e+06	-42139.1	955.818	-29784.3	0.000000	0.000000	6.667004	-0.078411	NaN	0.000000	0.001598	0.001634	28.0925	0.050163	0.001835	27.3343	29.1185	-165.806	-0.062851	0.666058	-0.386859	-0.388152	-0.078411	27.3343	-0.384707	-80796.1	9.704781E-7	NaN
70	1.000000	0.675374	7.36573e+06	-42139.1	955.818	-29784.3	0.000000	0.000000	6.675030	-0.022873	NaN	0.000000	0.001617	0.001647	28.0921	0.068401	0.002025	33.7742	-119.034	-164.749	4.916198E-5	0.674034	-0.378835	-0.380176	-0.022873	33.7742	-0.378327	-65444.4	3.494953E-7	NaN
70	1.000000	0.683338	7.36573e+06	-42139.1	955.818	-29784.3	0.000000	0.000000	6.682992	-0.057082	NaN	0.000000	0.001632	0.001677	28.0901	0.048425	0.002064	23.4593	162.216	-165.52	-0.077002	0.682068	-0.370871	-0.372142	-0.057082	23.4593	-0.369047	-48127.5	1.186064E-6	NaN
70	1.000000	0.691364	7.36573e+06	-42139.1	955.818	-29784.3	0.000000	0.000000	6.691018	-0.068003	NaN	0.000000	0.001624	0.001665	28.0903	0.086613	0.001954	44.3177	-153.886	-164.079	-0.064261	0.690033	-0.362845	-0.364176	-0.068003	44.3177	-0.361694	-37699.1	1.803846E-6	NaN
70	1.000000	0.699396	7.36573e+06	-42139.1	955.818	-29784.3	0.000000	0.000000	6.699051	-0.031177	NaN	0.000000	0.001611	0.001678	28.0904	0.082679	0.002008	41.1748	-73.3978	-164.578	-0.046997	0.698056	-0.354813	-0.356153	-0.031177	41.1748	-0.354245	-29414.8	1.059907E-6	NaN
70	1.000000	0.707355	7.36573e+06	-42139.1	955.818	-29784.3	0.000000	0.000000	6.707013	0.031053	NaN	0.000000	0.001576	0.001642	28.0883	0.090996	0.001924	47.2911	175.47	-161.178	-0.074877	0.706059	-0.346854	-0.348150	0.031053	47.2911	-0.347347	-23360.1	-1.329320E-6	NaN
70	1.000000	0.715371	7.36573e+06	-42139.1	955.819	-29784.3	0.000000	0.000000	6.715026	-0.043949	NaN	0.000000	0.001560	0.001663	28.0893	0.116816	0.002040	57.2587	-119.711	-166.095	0.009763	0.714042	-0.338838	-0.340167	-0.043949	57.2587	-0.338262	-17227.2	2.551132E-6	NaN
70	1.000000	0.723379	7.36573e+06	-42139.1	955.818	-29784.3	0.000000	0.000000	6.723036	-0.009125	NaN	0.000000	0.001579	0.001642	28.0899	0.138760	0.001987	69.8423	62.4167	-165.913	-0.014706	0.722111	-0.330830	-0.332099	-0.009125	69.8423	-0.330732	-13371.1	6.824596E-7	NaN
70	1.000000	0.731377	7.36573e+06	-42139.1	955.819	-29784.3	0.000000	0.000000	6.731029	-0.119618	NaN	0.000000	0.001604	0.001659	28.09	0.179583	0.002095	85.6998	-46.8233	-164.8	-0.074698	0.730045	-0.322832	-0.324164	-0.119618	85.6998	-0.321786	-9883.41	1.210291E-5	NaN
70	1.000000	0.739397	7.36573e+06	-42139.1	955.818	-29784.4	0.000000	0.000000	6.739054	-0.000538	NaN	0.000000	0.001592	0.001683	28.0905	0.041722	0.002065	20.205	-50.8813	-170.09	-0.002827	0.738109	-0.314812	-0.316101	-0.000538	20.205	-0.314792	-7796.17	6.901467E-8	NaN
70	1.000000	0.747374	7.36573e+06	-42139.1	955.819	-29784.3	0.000000	0.000000	6.747033	0.059315	NaN	0.000000	0.001578	0.001662	28.0906	0.101466	0.001879	54.0078	-51.3661	-168.139	0.110526	0.746103	-0.306835	-0.308106	0.059315	54.0078	-0.307659	-6114.84	-9.700204E-6	NaN
70	1.000000	0.755398	7.36573e+06	-42139.1	955.818	-29784.4	0.000000	0.000000	6.755056	0.042677	NaN	0.000000	0.001538	0.001679	28.0902	0.112599	0.002011	55.9984	-160.552	-163.525	0.037732	0.754117	-0.298811	-0.300093	0.042677	55.9984	-0.299383	-4607.31	-9.262951E-6	NaN
70	1.000000	0.763384	7.36573e+06	-42139.1	955.818	-29784.3	0.000000	0.000000	6.763041	0.022079	NaN	0.000000	0.001590	0.001657	28.0903	0.091759	0.001995	46.0058	96.288	-165.584	0.010839	0.762084	-0.290826	-0.292125	0.022079	46.0058	-0.291185	-3475.81	-6.352151E-6	NaN
70	1.000000	0.771402	7.36573e+06	-42139.1	955.818	-29784.4	0.000000	0.000000	6.771059	0.007026	NaN	0.000000	0.001589	0.001675	28.0901	0.082431	0.001977	41.6868	-81.7444	-165.755	-0.048846	0.770108	-0.282807	-0.284102	0.007026	41.6868	-0.282934	-2613.27	-2.688672E-6	NaN
70	1.000000	0.779382	7.36573e+06	-42139.1	955.818	-29784.4	0.000000	0.000000	6.779040	0.026699	NaN	0.000000	0.001583	0.001690	28.0896	0.070562	0.002095	33.6784	-58.082	-166.018	0.010365	0.778153	-0.274827	-0.276056	0.026699	33.6784	-0.275421	-2012.71	-1.326499E-5	NaN
70	1.000000	0.787411	7.36573e+06	-42139.1	955.818	-29784.4	0.000000	0.000000	6.787069	0.029731	NaN	0.000000	0.001578	0.001688	28.089	0.169349	0.002027	83.5579	145.971	-165.069	-0.019028	0.786062	-0.266799	-0.268147	0.029731	83.5579	-0.267065	-1502.74	-1.978433E-5	NaN
70	1.000000	0.795386	7.36573e+06	-42139.1	955.818	-29784.4	0.000000	0.000000	6.795043	0.015409	NaN	0.000000	0.001577	0.001674	28.0899	0.028759	0.002000	14.3795	-1.339399	-163.532	-0.009240	0.794051	-0.258823	-0.260158	0.015409	14.3795	-0.259627	-1156.65	-1.332182E-5	NaN
70	1.000000	0.803431	7.36573e+06	-42139.1	955.817	-29784.4	0.000000	0.000000	6.803085	-0.063579	NaN	0.000000	0.001564	0.001661	28.0895	0.072375	0.002090	34.634	-37.9249	-162.41	-0.069190	0.802104	-0.250778	-0.252106	-0.063579	34.634	-0.249401	-804.832	7.899645E-5	NaN
70	1.000000	0.811383	7.36573e+06	-42139.1	955.818	-29784.4	0.000000	0.000000	6.811037	-0.080375	NaN	0.000000	0.001603	0.001685	28.0892	0.035951	0.002124	16.9291	88.5657	-165.237	0.002798	0.810147	-0.242826	-0.244063	-0.080375	16.9291	-0.239265	-559.846	0.000144	NaN
70	1.000000	0.819428	7.36573e+06	-42139.1	955.818	-29784.4	0.000000	0.000000	6.819083	-0.043342	NaN	0.000000	0.001569	0.001684	28.0908	0.071500	0.001958	36.5144	-158.715	-167.18	-0.076551	0.818093	-0.234781	-0.236116	-0.043342	36.5144	-0.233891	-461.129	9.399048E-5	NaN
70	1.000000	0.827406	7.36573e+06	-42139.1	955.818	-29784.4	0.000000	0.000000	6.827061	-0.057150	NaN	0.000000	0.001567	0.001711	28.0914	0.030661	0.001932	15.8741	-123.768	-161.19	-0.051825	0.826123	-0.226803	-0.228087	-0.057150	15.8741	-0.224103	-322.907	0.000177	NaN
70	1.000000	0.835412	7.36573e+06	-42139.1	955.817	-29784.4	0.000000	0.000000	6.835068	-0.006510	NaN	0.000000	0.001599	0.001701	28.0919	0.068613	0.002050	33.4768	-6.593457	-164.768	0.001818	0.834111	-0.218797	-0.220098	-0.006510	33.4768	-0.218651	-264.306	2.463144E-5	NaN
70	1.000000	0.843438	7.36573e+06	-42139.1	955.819	-29784.4	0.000000	0.000000	6.843093	-0.028925	NaN	0.000000	0.001612	0.001659	28.0905	0.023533	0.001952	12.0558	8.008340	-167.202	0.067534	0.842087	-0.210771	-0.212122	-0.028925	12.0558	-0.208972	-184.569	0.000157	NaN
70	1.000000	0.851444	7.36573e+06	-42139.1	955.818	-29784.4	0.000000	0.000000	6.851097	-0.070298	NaN	0.000000	0.001613	0.001678	28.0916	0.053507	0.001956	27.3536	158.031	-162.471	-0.034417	0.850141	-0.202766	-0.204068	-0.070298	27.3536	-0.200838	-135.977	0.000517	NaN
70	1.000000	0.859442	7.36573e+06	-42139.1	955.818	-29784.4	0.000000	0.000000	6.859097	-0.030040	NaN	0.000000	0.001642	0.001677	28.09	0.024872	0.001914	12.9969	39.3386	-170.499	0.092681	0.858161	-0.194767	-0.196048	-0.030040	12.9969	-0.193034	-101.06	0.000297	NaN
70	1.000000	0.867454	7.36573e+06	-42139.1	955.819	-29784.4	0.000000	0.000000	6.867111	-0.003607	NaN	0.000000	0.001624	0.001693	28.0913	0.086757	0.001958	44.3164	130.473	-165.002	-0.039932	0.866160	-0.186755	-0.188049	-0.003607	44.3164	-0.186694	-79.1836	4.555175E-5	NaN
70	1.000000	0.875449	7.36573e+06	-42139.1	955.819	-29784.4	0.000000	0.000000	6.875107	0.024625	NaN	0.000000	0.001606	0.001712	28.0904	0.052585	0.002078	25.3026	156.999	-165.026	-0.030186	0.874156	-0.178760	-0.180053	0.024625	25.3026	-0.179490	-59.8126	-0.000412	NaN
70	1.000000	0.883429	7.36573e+06	-42139.1	955.818	-29784.4	0.000000	0.000000	6.883086	0.003900	NaN	0.000000	0.001606	0.001673	28.0908	0.108832	0.002052	53.0301	-147.284	-165.603	-0.091773	0.882178	-0.170780	-0.172031	0.003900	53.0301	-0.170835	-42.4719	-9.182977E-5	NaN
70	1.000000	0.891471	7.36573e+06	-42139.1	955.818	-29784.4	0.000000	0.000000	6.891127	-0.003570	NaN	0.000000	0.001612	0.001644	28.0907	0.043377	0.001994	21.7568	39.6973	-162.326	0.025965	0.890141	-0.162738	-0.164068	-0.003570	21.7568	-0.162615	-30.5009	0.000117	NaN
70	1.000000	0.899459	7.36573e+06	-42139.1	955.818	-29784.4	0.000000	0.000000	6.899114	-0.028660	NaN	0.000000	0.001605	0.001659	28.0906	0.094610	0.002000	47.3113	82.764	-165.045	-0.041464	0.898169	-0.154750	-0.156040	-0.028660	47.3113	-0.154296	-21.6721	0.001322	NaN
70	1.000000	0.907447	7.36573e+06	-42139.1	955.818	-29784.4	0.000000	0.000000	6.907103	-0.004686	NaN	0.000000	0.001622	0.001693	28.0922	0.096033	0.002000	48.0084	38.4243	-167.292	-0.055544	0.906180	-0.146762	-0.148029	-0.004686	48.0084	-0.146689	-15.7521	0.000298	NaN
70	1.000000	0.915492	7.36573e+06	-42139.1	955.818	-29784.4	0.000000	0.000000	6.915148	-0.009648	NaN	0.000000	0.001596	0.001660	28.0906	0.059557	0.002088	28.5224	-179.89	-166.519	0.079296	0.914200	-0.138718	-0.140009	-0.009648	28.5224	-0.138464	-11.0674	0.000872	NaN
70	1.000000	0.923493	7.36573e+06	-42139.1	955.818	-29784.4	0.000000	0.000000	6.923150	0.007689	NaN	0.000000	0.001647	0.001655	28.0916	0.125125	0.001840	68.0092	-107.385	-166.235	-0.029786	0.922187	-0.130716	-0.132022	0.007689	68.0092	-0.130801	-7.898566	-0.000973	NaN
70	1.000000	0.931462	7.36573e+06	-42139.1	955.818	-29784.4	0.000000	0.000000	6.931118	-0.014241	NaN	0.000000	0.001610	0.001673	28.0919	0.087959	0.002004	43.8887	89.7677	-163.708	-0.106978	0.930229	-0.122747	-0.123981	-0.014241	43.8887	-0.122504	-5.424541	0.002625	NaN
70	1.000000	0.939476	7.36573e+06	-42139.1	955.818	-29784.4	0.000000	0.000000	6.939135	0.044363	NaN	0.000000	0.001566	0.001679	28.0897	0.047261	0.002074	22.7817	174.884	-164.386	0.102652	0.938104	-0.114733	-0.116105	0.044363	22.7817	-0.116194	-4.042485	-0.010974	NaN
70	1.000000	0.947449	7.36573e+06	-42139.1	955.818	-29784.4	0.000000	0.000000	6.947104	-0.031109	NaN	0.000000	0.001587	0.001612	28.0899	0.011485	0.001925	5.965113	-149.111	-161.041	-0.017578	0.946161	-0.106761	-0.108049	-0.031109	5.965113	-0.102849	-2.110862	0.014738	NaN
70	1.000000	0.955461	7.36573e+06	-42139.1	955.818	-29784.4	0.000000	0.000000	6.955115	-0.060125	NaN	0.000000	0.001605	0.001653	28.0891	0.066513	0.001922	34.6021	-72.1483	-165.077	-0.009562	0.954217	-0.098748	-0.099992	-0.060125	34.6021	-0.097445	-1.602294	0.037524	NaN
70	1.000000	0.963480	7.36573e+06	-42139.1	955.818	-29784.4	0.000000	0.000000	6.963137	0.009088	NaN	0.000000	0.001584	0.001664	28.0888	0.109841	0.002057	53.4051	150.941	-165.184	0.053625	0.962206	-0.090729	-0.092003	0.009088	53.4051	-0.090857	-1.132060	-0.008027	NaN
70	1.000000	0.971492	7.36573e+06	-42139.1	955.816	-29784.4	0.000000	0.000000	6.971150	0.031098	NaN	0.000000	0.001563	0.001684	28.0882	0.049221	0.002000	24.6048	155.179	-162.356	0.031674	0.970152	-0.082717	-0.084057	0.031098	24.6048	-0.083665	-0.762488	-0.040785	NaN
70	1.000000	0.979500	7.36573e+06	-42139.1	955.817	-29784.4	0.000000	0.000000	6.979155	-0.056682	NaN	0.000000	0.001566	0.001689	28.0896	0.095975	0.001917	50.0644	169.61	-163.833	-0.011264	0.978121	-0.074709	-0.076088	-0.056682	50.0644	-0.073860	-0.431426	0.131382	NaN
70	1.000000	0.987498	7.36573e+06	-42139.1	955.818	-29784.4	0.000000	0.000000	6.987151	-0.079735	NaN	0.000000	0.001586	0.001660	28.0897	0.075940	0.002026	37.4816	-59.7847	-163.423	-0.012712	0.986192	-0.066712	-0.068017	-0.079735	37.4816	-0.065116	-0.251070	0.317583	NaN
70	1.000000	0.995505	7.36573e+06	-42139.1	955.818	-29784.4	0.000000	0.000000	6.995163	0.045123	NaN	0.000000	0.001590	0.001661	28.0909	0.102082	0.001860	54.8681	-51.803	-164.314	-0.008839	0.994183	-0.058704	-0.060026	0.045123	54.8681	-0.059321	-0.172180	-0.262068	NaN
70	1.000000	1.003509	7.36573e+06	-42139.1	955.819	-29784.4	0.000000	0.000000	7.003164	-0.042897	NaN	0.000000	0.001595	0.001682	28.0895	0.031871	0.002039	15.6325	5.411401	-164.535	-0.007518	1.002162	-0.050701	-0.052048	-0.042897	15.6325	-0.048642	-0.083002	0.516825	NaN
70	1.000000	1.011491	7.36573e+06	-42139.1	955.819	-29784.4	0.000000	0.000000	7.011146	-0.051413	NaN	0.000000	0.001558	0.001666	28.089	0.068613	0.002130	32.2127	-116.21	-165.886	0.016862	1.010199	-0.042718	-0.044011	-0.051413	32.2127	-0.041521	-0.050311	1.021902	NaN
70	1.000000	1.019511	7.36573e+06	-42139.1	955.818	-29784.4	0.000000	0.000000	7.019169	0.017067	NaN	0.000000	0.001573	0.001700	28.0879	0.094005	0.002040	46.0711	-109.498	-163.497	-0.017975	1.018225	-0.034698	-0.035984	0.017067	46.0711	-0.034976	-0.031972	-0.533828	NaN
70	1.000000	1.027484	7.36573e+06	-42139.1	955.818	-29784.4	0.000000	0.000000	7.027141	-0.005467	NaN	0.000000	0.001552	0.001684	28.0884	0.021054	0.001919	10.9726	1.268008	-165.36	0.013622	1.026147	-0.026725	-0.028062	-0.005467	10.9726	-0.026351	-0.018311	0.298583	NaN
70	1.000000	1.035502	7.36573e+06	-42139.1	955.818	-29784.4	0.000000	0.000000	7.035157	-0.031713	NaN	0.000000	0.001532	0.001674	28.0896	0.124071	0.001950	63.6186	62.029	-166.992	0.063715	1.034164	-0.018708	-0.020046	-0.031713	63.6186	-0.018334	-0.011387	2.785136	NaN
70	1.000000	1.043503	7.36573e+06	-42139.1	955.819	-29784.4	0.000000	0.000000	7.043158	-0.049159	NaN	0.000000	0.001562	0.001669	28.0893	0.162980	0.002047	79.6203	9.050352	-165.459	-0.044133	1.042161	-0.010706	-0.012049	-0.049159	79.6203	-0.010243	-0.006526	7.532553	NaN
70	1.000000	1.051511	7.36573e+06	-42139.1	955.818	-29784.4	0.000000	0.000000	7.051166	-0.046443	NaN	0.000000	0.001583	0.001670	28.0882	0.015321	0.001906	8.037280	168.568	-166.014	-0.066162	1.050173	-0.002699	-0.004036	-0.046443	8.037280	0.001635	0.001262	-36.7992	206.7
70	1.000000	1.059474	7.36573e+06	-42139.1	955.818	-29784.4	0.000000	0.000000	7.059401	6.589044	NaN	0.000000	0.001606	0.001630	28.0895	6.526636	0.001671	3906.95	10.9416	-172.109	4.480066	1.058117	0.005265	0.003908	6.589044	3906.95	0.004000	0.003239	2034.5	62723.3
70	2.000000	1.063103	7.36573e+06	-42139.1	955.819	-29784.4	0.000000	0.000000	7.063209	10.9393	NaN	0.000000	0.001583	0.001657	28.0889	10.932	0.001749	6251.34	7.658131	-171.377	10.6242	1.062765	0.008893	0.008556	10.9393	6251.34	0.007581	0.006615	1653.72	70223.7
70	2.000000	1.065007	7.36573e+06	-42139.1	955.819	-29784.4	0.000000	0.000000	7.065324	16.0564	NaN	0.000000	0.001571	0.001654	28.0885	13.3994	0.001763	7601.34	4.688999	-171.471	15.0024	1.064681	0.010798	0.010471	16.0564	7601.34	0.009213	0.008320	1929.75	76135.9
70	2.000000	1.067007	7.36573e+06	-42139.1	955.818	-29784.4	0.000000	0.000000	7.067499	20.3026	NaN	0.000000	0.001572	0.001620	28.0888	16.3891	0.001750	9365.04	5.065711	-174.524	19.7834	1.066737	0.012798	0.012527	20.3026	9365.04	0.011172	0.010514	1931.08	83446.2
70	2.000000	1.069012	7.36573e+06	-42139.1	955.819	-29784.4	0.000000	0.000000	7.069580	22.184	NaN	0.000000	0.001604	0.001655	28.0903	17.379	0.001561	11129.8	1.921627	-174.001	21.529	1.068671	0.014803	0.014462	22.184	11129.8	0.013308	0.013095	1694.14	88861.6
70	2.000000	1.070993	7.36573e+06	-42139.1	955.818	-29784.4	0.000000	0.000000	7.071720	26.0544	NaN	0.000000	0.001585	0.001634	28.0886	20.4873	0.001739	11782.4	5.848702	-175.254	26.4672	1.070664	0.016783	0.016455	26.0544	11782.4	0.015125	0.015452	1686.11	86598.3
70	2.000000	1.072975	7.36573e+06	-42139.1	955.818	-29784.4	0.000000	0.000000	7.073993	33.1248	NaN	0.000000	0.001596	0.001656	28.0892	22.936	0.001754	13074.6	4.937349	-176.769	32.0726	1.072685	0.018765	0.018476	33.1248	13074.6	0.016865	0.017854	1855.36	89400.2
70	2.000000	1.074978	7.36573e+06	-42139.1	955.817	-29784.4	0.000000	0.000000	7.076222	38.6325	NaN	0.000000	0.001573	0.001658	28.0895	24.8791	0.001829	13604	7.191157	-177.849	39.9634	1.074665	0.020769	0.020455	38.6325	13604	0.018639	0.020448	1889.27	86917.9
70	2.000000	1.076961	7.36573e+06	-42139.1	955.818	-29784.4	0.000000	0.000000	7.078383	42.9484	NaN	0.000000	0.001578	0.001693	28.09	26.9961	0.001873	14411.5	6.820304	-178.615	43.1036	1.076657	0.022752	0.022447	42.9484	14411.5	0.020517	0.023361	1838.48	86146.4
70	2.000000	1.078972	7.36573e+06	-42139.1	955.818	-29784.4	0.000000	0.000000	7.080624	48.5488	NaN	0.000000	0.001605	0.001670	28.0903	28.2388	0.001768	15970.7	5.150270	-178.221	47.6497	1.078615	0.024763	0.024406	48.5488	15970.7	0.022483	0.026595	1825.47	89473.5
70	2.000000	1.080954	7.36573e+06	-42139.1	955.819	-29784.4	0.000000	0.000000	7.082749	52.0306	NaN	0.000000	0.001575	0.001633	28.09	30.7282	0.001845	16651.3	5.944207	-179.203	50.7477	1.080704	0.026744	0.026495	52.0306	16651.3	0.024401	0.029934	1738.15	87929.5
70	2.000000	1.082954	7.36573e+06	-42139.1	955.819	-29784.4	0.000000	0.000000	7.084921	56.2156	NaN	0.000000	0.001540	0.001674	28.0912	32.8129	0.001890	17360.1	5.568090	-179.371	54.2054	1.082625	0.028745	0.028415	56.2156	17360.1	0.026316	0.033454	1680.38	86716.3
70	2.000000	1.084884	7.36573e+06	-42139.1	955.818	-29784.4	0.000000	0.000000	7.087170	63.9758	NaN	0.000000	0.001604	0.001677	28.091	34.4025	0.001759	19563.3	8.553373	175.828	62.3376	1.084631	0.030675	0.030421	63.9758	19563.3	0.028222	0.037140	1722.58	92746.3
70	2.000000	1.086919	7.36573e+06	-42139.1	955.818	-29784.4	0.000000	0.000000	7.089434	69.5346	NaN	0.000000	0.001586	0.001635	28.0898	36.9338	0.001789	20641.9	5.632045	179.098	68.6702	1.086613	0.032710	0.032404	69.5346	20641.9	0.030183	0.041125	1690.81	92997.3
70	2.000000	1.088863	7.36573e+06	-42139.1	955.819	-29784.4	0.000000	0.000000	7.091751	78.6316	NaN	0.000000	0.001575	0.001649	28.09	37.1916	0.001683	22100.8	2.913973	-179.222	74.382	1.088531	0.034654	0.034322	78.6316	22100.8	0.031985	0.044959	1748.95	95229.6
70	2.000000	1.090897	7.36573e+06	-42139.1	955.818	-29784.4	0.000000	0.000000	7.094018	84.278	NaN	0.000000	0.001571	0.001621	28.0898	40.0635	0.001707	23467.4	4.166209	178.986	81.8782	1.090596	0.036688	0.036387	84.278	23467.4	0.033995	0.049431	1704.97	96435.9
70	2.000000	1.092953	7.36573e+06	-42139.1	955.818	-29784.4	0.000000	0.000000	7.096336	90.6803	NaN	0.000000	0.001569	0.001671	28.0897	42.3692	0.001751	24202.8	5.600347	177.338	88.3801	1.092573	0.038743	0.038364	90.6803	24202.8	0.035933	0.053942	1681.08	95208.5
70	2.000000	1.094867	7.36573e+06	-42139.1	955.818	-29784.4	0.000000	0.000000	7.098550	97.9571	NaN	0.000000	0.001559	0.001660	28.0894	44.1373	0.001788	24689.4	5.036174	178.286	94.5754	1.094613	0.040658	0.040403	97.9571	24689.4	0.037683	0.058176	1683.79	93521.2
70	2.000000	1.096964	7.36573e+06	-42139.1	955.818	-29784.4	0.000000	0.000000	7.100983	106.158	NaN	0.000000	0.001533	0.001632	28.0894	46.2322	0.001772	26083.3	1.160926	-178.533	107.289	1.096586	0.042754	0.042377	106.158	26083.3	0.039702	0.063261	1678.11	94748
70	2.000000	1.098927	7.36573e+06	-42139.1	955.818	-29784.4	0.000000	0.000000	7.103439	118.122	NaN	0.000000	0.001555	0.001675	28.0901	47.8549	0.001711	27976.4	7.435875	174.517	117.221	1.098534	0.044718	0.044324	118.122	27976.4	0.041552	0.068100	1734.54	97947.5
70	2.000000	1.100951	7.36573e+06	-42139.1	955.818	-29784.4	0.000000	0.000000	7.105758	125.296	NaN	0.000000	0.001575	0.001672	28.0915	49.6653	0.001776	27970.8	1.417683	-179.049	123.994	1.100575	0.046742	0.046366	125.296	27970.8	0.043382	0.073062	1714.93	94543.8
70	2.000000	1.102901	7.36573e+06	-42139.1	955.819	-29784.4	0.000000	0.000000	7.108186	136.945	NaN	0.000000	0.001577	0.001676	28.0901	52.1753	0.001799	29010.3	2.384755	-179.999	134.233	1.102558	0.048692	0.048348	136.945	29010.3	0.045152	0.078019	1755.28	94891.3
70	2.000000	1.104910	7.36573e+06	-42139.1	955.819	-29784.4	0.000000	0.000000	7.110595	146.665	NaN	0.000000	0.001551	0.001646	28.0887	54.1778	0.001772	30574	6.208227	175.473	145.666	1.104546	0.050701	0.050337	146.665	30574	0.047103	0.083671	1752.89	96569.3
70	2.000000	1.106955	7.36573e+06	-42139.1	955.818	-29784.4	0.000000	0.000000	7.112852	151.858	NaN	0.000000	0.001578	0.001666	28.0889	57.4294	0.001809	31751.4	4.501463	176.265	152.6	1.106701	0.052745	0.052492	151.858	31751.4	0.049158	0.089829	1690.53	96789.5
70	2.000000	1.108895	7.36573e+06	-42139.1	955.819	-29784.4	0.000000	0.000000	7.115531	169.804	NaN	0.000000	0.001595	0.001657	28.0904	57.5963	0.001737	33161.5	4.917663	175.862	168.132	1.108544	0.054686	0.054335	169.804	33161.5	0.050846	0.095045	1786.57	98275.1
70	2.000000	1.110898	7.36573e+06	-42139.1	955.818	-29784.4	0.000000	0.000000	7.117812	176.586	NaN	0.000000	0.001585	0.001644	28.0873	60.0637	0.001871	32100.2	5.596050	175.604	176.554	1.110542	0.056689	0.056333	176.586	32100.2	0.052563	0.100500	1757.08	92512.2
70	2.000000	1.112907	7.36573e+06	-42139.1	955.819	-29784.4	0.000000	0.000000	7.120232	186.594	NaN	0.000000	0.001585	0.001657	28.0881	61.2752	0.001760	34824.2	4.606164	175.624	184.621	1.112563	0.058697	0.058354	186.594	34824.2	0.054679	0.107421	1737.03	97075.5
70	2.000000	1.114856	7.36573e+06	-42139.1	955.819	-29784.4	0.000000	0.000000	7.122869	203.303	NaN	0.000000	0.001556	0.001661	28.0865	62.8722	0.001738	36168.9	6.379267	174.186	201.998	1.114495	0.060647	0.060286	203.303	36168.9	0.056432	0.113324	1794	98163
70	2.000000	1.116868	7.36573e+06	-42139.1	955.819	-29784.4	0.000000	0.000000	7.125059	207.652	NaN	0.000000	0.001557	0.001642	28.0886	66.8161	0.001820	36713.5	6.197680	173.256	204.235	1.116612	0.062658	0.062403	207.652	36713.5	0.058416	0.120190	1727.69	96752.8
70	2.000000	1.118805	7.36573e+06	-42139.1	955.819	-29784.4	0.000000	0.000000	7.127935	230.495	NaN	0.000000	0.001572	0.001660	28.088	67.5073	0.001698	39747.7	8.781950	170.183	225.621	1.118550	0.064596	0.064341	230.495	39747.7	0.060247	0.126695	1819.3	102025
70	2.000000	1.120754	7.36573e+06	-42139.1	955.818	-29784.4	0.000000	0.000000	7.129942	231.928	NaN	0.000000	0.001573	0.001651	28.0889	70.7384	0.001780	39745	7.214794	171.669	223.384	1.120489	0.066544	0.066280	231.928	39745	0.062168	0.133696	1734.74	99310.6
70	2.000000	1.122880	7.36573e+06	-42139.1	955.819	-29784.4	0.000000	0.000000	7.132675	246.682	NaN	0.000000	0.001583	0.001649	28.0872	72.4887	0.001754	41335.8	5.957045	173.121	243.698	1.122502	0.068671	0.068293	246.682	41335.8	0.064195	0.141278	1746.07	100476
70	2.000000	1.124797	7.36573e+06	-42139.1	955.818	-29784.4	0.000000	0.000000	7.135305	264.005	NaN	0.000000	0.001561	0.001676	28.0878	73.5868	0.001791	41077	3.746438	175.209	258.801	1.124469	0.070588	0.070260	264.005	41077	0.065768	0.147300	1792.3	97784.7
70	2.000000	1.126845	7.36573e+06	-42139.1	955.819	-29784.4	0.000000	0.000000	7.137673	271.822	NaN	0.000000	0.001566	0.001657	28.0881	77.1379	0.001825	42270	6.904426	170.843	269.072	1.126646	0.072635	0.072437	271.822	42270	0.067813	0.155303	1750.27	97997.5
70	2.000000	1.128844	7.36573e+06	-42139.1	955.819	-29784.4	0.000000	0.000000	7.140398	289.482	NaN	0.000000	0.001591	0.001686	28.0891	77.2451	0.001767	43720.6	5.218903	173.386	288.067	1.128459	0.074635	0.074250	289.482	43720.6	0.069669	0.162745	1778.75	99016.1
70	2.000000	1.130829	7.36573e+06	-42139.1	955.819	-29784.4	0.000000	0.000000	7.142937	302.96	NaN	0.000000	0.001586	0.001638	28.0884	80.033	0.001791	44691.8	6.506172	172.1	299.199	1.130534	0.076620	0.076325	302.96	44691.8	0.071536	0.170392	1778.02	98918.2
70	2.000000	1.132924	7.36573e+06	-42139.1	955.817	-29784.4	0.000000	0.000000	7.145706	319.364	NaN	0.000000	0.001582	0.001654	28.0865	82.6535	0.001744	47392.2	7.633411	170.903	318.753	1.132500	0.078715	0.078291	319.364	47392.2	0.073660	0.179296	1781.21	102257
70	2.000000	1.134884	7.36574e+06	-42139.1	955.818	-29784.4	0.000000	0.000000	7.147820	323.124	NaN	0.000000	0.001582	0.001689	28.0873	83.595	0.001850	45198	3.747165	174.113	321.374	1.134701	0.080674	0.080491	323.124	45198	0.075313	0.186368	1733.8	95654.9
70	2.000000	1.136924	7.36574e+06	-42139.1	955.818	-29784.4	0.000000	0.000000	7.150557	340.053	NaN	0.000000	0.001573	0.001664	28.0883	86.5547	0.001841	47016.8	4.541500	173.589	339.886	1.136539	0.082715	0.082330	340.053	47016.8	0.077290	0.195002	1743.85	97276.3
70	2.000000	1.138879	7.36574e+06	-42139.1	955.818	-29784.4	0.000000	0.000000	7.153320	359.724	NaN	0.000000	0.001566	0.001682	28.0894	87.4392	0.001820	48031	8.082010	169.859	359.756	1.138471	0.084670	0.084261	359.724	48031	0.079053	0.202850	1773.35	97433.2
70	2.000000	1.140926	7.36574e+06	-42139.1	955.818	-29784.4	0.000000	0.000000	7.155690	367.576	NaN	0.000000	0.001568	0.001676	28.0893	90.2505	0.001775	50839.6	5.002129	172.081	367.609	1.140660	0.086717	0.086451	367.576	50839.6	0.081295	0.213043	1725.36	100633
70	2.000000	1.142863	7.36574e+06	-42139.1	955.819	-29784.4	0.000000	0.000000	7.158628	391.936	NaN	0.000000	0.001545	0.001629	28.089	91.5319	0.001837	49835.7	3.949831	174.212	389.366	1.142502	0.088654	0.088292	391.936	49835.7	0.082755	0.219810	1783.07	97115.8
70	2.000000	1.144747	7.36574e+06	-42139.1	955.818	-29784.4	0.000000	0.000000	7.161076	405.659	NaN	0.000000	0.001600	0.001642	28.0905	93.2394	0.001850	50393.4	5.541769	172.232	400.195	1.144385	0.090537	0.090175	405.659	50393.4	0.084500	0.228023	1779.03	96418
70	2.000000	1.146825	7.36574e+06	-42139.1	955.818	-29784.4	0.000000	0.000000	7.163801	421.388	NaN	0.000000	0.001582	0.001663	28.0898	95.2724	0.001804	52798.4	7.473432	169.709	419.797	1.146542	0.092616	0.092333	421.388	52798.4	0.086630	0.238240	1768.75	98829.5
70	2.000000	1.148768	7.36574e+06	-42139.1	955.818	-29784.4	0.000000	0.000000	7.166540	440.788	NaN	0.000000	0.001587	0.001651	28.0898	94.5544	0.001768	53487.3	2.360793	175.227	434.109	1.148419	0.094558	0.094210	440.788	53487.3	0.088378	0.246778	1786.17	98371.8
70	2.000000	1.150858	7.36574e+06	-42139.1	955.819	-29784.4	0.000000	0.000000	7.169036	450.631	NaN	0.000000	0.001564	0.001612	28.0894	99.1035	0.001942	51021.1	3.758749	173.926	449.357	1.150452	0.096649	0.096243	450.631	51021.1	0.090025	0.254953	1767.5	92319.3
70	2.000000	1.152869	7.36574e+06	-42139.1	955.818	-29784.4	0.000000	0.000000	7.171979	473.325	NaN	0.000000	0.001549	0.001698	28.0886	100.592	0.001748	57531.9	6.538253	170.138	473.421	1.152522	0.098660	0.098313	473.325	57531.9	0.092489	0.267419	1769.97	101645
70	2.000000	1.154885	7.36574e+06	-42139.1	955.818	-29784.4	0.000000	0.000000	7.174525	486.224	NaN	0.000000	0.001544	0.001726	28.0884	101.345	0.001793	56520.1	5.196121	171.882	488.348	1.154496	0.100676	0.100287	486.224	56520.1	0.094224	0.276359	1759.39	98228.9
70	2.000000	1.156841	7.36574e+06	-42139.1	955.819	-29784.4	0.000000	0.000000	7.177345	507.229	NaN	0.000000	0.001533	0.001714	28.0886	104.57	0.001886	55451.9	6.038740	171.041	504.781	1.156431	0.102632	0.102221	507.229	55451.9	0.095772	0.284453	1783.17	94991.4
70	2.000000	1.158802	7.36574e+06	-42139.1	955.817	-29784.4	0.000000	0.000000	7.180019	524.596	NaN	0.000000	0.001534	0.001725	28.0886	103.529	0.001750	59176.4	2.534428	174.079	521.254	1.158433	0.104593	0.104224	524.596	59176.4	0.097944	0.295996	1772.31	99375.4
70	2.000000	1.159850	7.36574e+06	-42139.1	955.818	-29784.4	0.000000	0.000000	7.181509	535.358	NaN	0.000000	0.001543	0.001750	28.1118	106.569	0.001726	61731.2	3.227308	173.257	534.735	1.159546	0.105641	0.105337	535.358	61731.2	0.099136	0.302424	1770.22	102558