File: remote_trans/data/nanoindenter/0828-1/data/Data_2025-08-06,11h17m57s/2025-07-22_16-23-58_1_446.txt
2025-07-22, 16:23:58, 1
Index	Phase	Displacement	Time	Pos X	Pos Y	Pos Z	Rot A	Rot B	Piezo Z	Force A	Force B	Gripper	Voltage A	Voltage B	Temperature	Amplitude force	Amplitude pos	Stiffness	Phase shift	Phase excitation	Force A raw	Displacement raw	HMax	HMax raw	Real Force	Real Stiffness	Contact Depth	Area	Hardness	Reduced Mod.
[#]	[#]	[um]	[s]	[um]	[um]	[um]	[m°]	[m°]	[um]	[uN]	[uN]	[V]	[V]	[V]	[°C]	[uN]	[um]	[N/m]	[°]	[°]	[uN]	[um]	[um]	[um]	[uN]	[N/m]	[um]	[um^2]	[MPa]	[MPa]
446	1.000000	0.002265	7.36942e+06	-54789.1	1005.82	-29743	0.000000	0.000000	6.002847	-0.007320	NaN	0.000000	0.001577	0.001714	28.0825	0.060665	0.000854	71.0397	124.513	-161.308	-0.023748	0.000983	-1.081375	-1.082657	-0.007320	71.0397	-1.081298	-2.811574E+14	2.603640E-17	NaN
446	1.000000	0.010194	7.36942e+06	-54789.1	1005.82	-29743	0.000000	0.000000	6.010775	-0.014837	NaN	0.000000	0.001602	0.001716	28.082	0.042089	0.000914	46.0559	34.6074	-165.942	0.032003	0.008839	-1.073446	-1.074801	-0.014837	46.0559	-1.073205	-2.188971E+14	6.778292E-17	NaN
446	1.000000	0.018165	7.36942e+06	-54789.1	1005.82	-29743	0.000000	0.000000	6.018745	-0.066661	NaN	0.000000	0.001597	0.001759	28.0823	0.096376	0.001662	57.9772	-168.293	-164.324	8.788851E-5	0.016842	-1.065475	-1.066798	-0.066661	57.9772	-1.064612	-1.678043E+14	3.972540E-16	NaN
446	1.000000	0.026210	7.36942e+06	-54789.1	1005.82	-29743	0.000000	0.000000	6.026793	0.005242	NaN	0.000000	0.001594	0.001694	28.0824	0.097229	0.001728	56.253	-69.1193	-167.556	0.018033	0.024877	-1.057430	-1.058763	0.005242	56.253	-1.057499	-1.346530E+14	-3.892744E-17	NaN
446	1.000000	0.034190	7.36942e+06	-54789.1	1005.82	-29743	0.000000	0.000000	6.034773	0.033162	NaN	0.000000	0.001591	0.001698	28.0823	0.092880	0.001935	48.0084	159.416	-164.724	0.028071	0.032872	-1.049450	-1.050768	0.033162	48.0084	-1.049968	-1.066566E+14	-3.109203E-16	NaN
446	1.000000	0.042159	7.36942e+06	-54789.1	1005.82	-29743	0.000000	0.000000	6.042743	0.026228	NaN	0.000000	0.001553	0.001670	28.0823	0.082023	0.001955	41.9649	67.7657	-163.703	0.089449	0.040884	-1.041481	-1.042756	0.026228	41.9649	-1.041950	-8.321129E+13	-3.152011E-16	NaN
446	1.000000	0.050157	7.36942e+06	-54789.1	1005.82	-29743	0.000000	0.000000	6.050739	-0.004135	NaN	0.000000	0.001575	0.001715	28.0823	0.038878	0.001901	20.4484	128.083	-164.977	0.024332	0.048826	-1.033483	-1.034814	-0.004135	20.4484	-1.033331	-6.372123E+13	6.489771E-17	NaN
446	1.000000	0.058188	7.36942e+06	-54789.1	1005.82	-29743	0.000000	0.000000	6.058767	-0.064012	NaN	0.000000	0.001569	0.001705	28.0829	0.012542	0.002045	6.133531	150.249	-162.681	-0.045099	0.056828	-1.025452	-1.026812	-0.064012	6.133531	-1.017625	-3.917378E+13	1.634045E-15	NaN
446	1.000000	0.066178	7.36942e+06	-54789.1	1005.82	-29743	0.000000	0.000000	6.066762	0.039120	NaN	0.000000	0.001549	0.001693	28.0821	0.077208	0.002035	37.9362	-117.196	-166.351	0.014799	0.064845	-1.017462	-1.018795	0.039120	37.9362	-1.018235	-3.992145E+13	-9.799322E-16	NaN
446	1.000000	0.074191	7.36942e+06	-54789.1	1005.82	-29743	0.000000	0.000000	6.074774	0.017709	NaN	0.000000	0.001593	0.001728	28.0823	0.010286	0.002069	4.972699	48.2595	-165.214	-0.035332	0.072879	-1.009449	-1.010760	0.017709	4.972699	-1.012120	-3.303013E+13	-5.361469E-16	NaN
446	1.000000	0.082196	7.36942e+06	-54789.1	1005.82	-29743	0.000000	0.000000	6.082778	-0.013174	NaN	0.000000	0.001608	0.001713	28.0823	0.054089	0.002008	26.9413	-17.4313	-167.397	-0.002257	0.080807	-1.001444	-1.002832	-0.013174	26.9413	-1.001077	-2.345666E+13	5.616244E-16	NaN
446	1.000000	0.090233	7.36942e+06	-54789.1	1005.82	-29743	0.000000	0.000000	6.090815	-0.003975	NaN	0.000000	0.001594	0.001726	28.0823	0.089527	0.001895	47.2316	-159.042	-166.243	0.032000	0.088819	-0.993407	-0.994821	-0.003975	47.2316	-0.993344	-1.845647E+13	2.153516E-16	NaN
446	1.000000	0.098189	7.36942e+06	-54789.1	1005.82	-29743	0.000000	0.000000	6.098773	0.026134	NaN	0.000000	0.001596	0.001731	28.0826	0.067388	0.002004	33.6213	136.196	-163.245	0.026429	0.096905	-0.985451	-0.986735	0.026134	33.6213	-0.986034	-1.471263E+13	-1.776285E-15	NaN
446	1.000000	0.106190	7.36942e+06	-54789.1	1005.82	-29743	0.000000	0.000000	6.106774	0.025982	NaN	0.000000	0.001593	0.001729	28.0824	0.063511	0.001950	32.5719	117.997	-163.669	-0.005602	0.104863	-0.977449	-0.978777	0.025982	32.5719	-0.978048	-1.148439E+13	-2.262337E-15	NaN
446	1.000000	0.114180	7.36942e+06	-54789.1	1005.82	-29743	0.000000	0.000000	6.114762	0.007875	NaN	0.000000	0.001585	0.001727	28.081	0.070288	0.001894	37.1062	10.9349	-166.478	0.013843	0.112912	-0.969460	-0.970728	0.007875	37.1062	-0.969619	-8.841622E+12	-8.906237E-16	NaN
446	1.000000	0.122211	7.36942e+06	-54789.1	1005.82	-29743	0.000000	0.000000	6.122792	-0.024974	NaN	0.000000	0.001570	0.001724	28.0811	0.017711	0.002037	8.696457	-120.793	-163.673	0.092189	0.120878	-0.961429	-0.962761	-0.024974	8.696457	-0.959275	-6.413496E+12	3.893972E-15	NaN
446	1.000000	0.130204	7.36942e+06	-54789.1	1005.82	-29743	0.000000	0.000000	6.130785	-0.027503	NaN	0.000000	0.001622	0.001759	28.081	0.029800	0.002004	14.8732	51.5178	-164.322	-0.035221	0.128926	-0.953436	-0.954714	-0.027503	14.8732	-0.952049	-5.124586E+12	5.366834E-15	NaN
446	1.000000	0.138217	7.36942e+06	-54789.1	1005.82	-29743	0.000000	0.000000	6.138800	0.009259	NaN	0.000000	0.001614	0.001712	28.081	0.041585	0.002076	20.0344	-19.6401	-166.419	0.053054	0.136871	-0.945423	-0.946769	0.009259	20.0344	-0.945769	-4.216627E+12	-2.195949E-15	NaN
446	1.000000	0.146217	7.36942e+06	-54789.1	1005.82	-29743	0.000000	0.000000	6.146800	0.034305	NaN	0.000000	0.001583	0.001714	28.0811	0.079795	0.002084	38.2887	-138.869	-164.193	0.034025	0.144893	-0.937423	-0.938747	0.034305	38.2887	-0.938095	-3.322291E+12	-1.032564E-14	NaN
446	1.000000	0.154226	7.36942e+06	-54789.1	1005.82	-29743	0.000000	0.000000	6.154807	-0.030722	NaN	0.000000	0.001572	0.001756	28.0814	0.039686	0.002059	19.2714	94.4849	-167.31	-0.002198	0.152859	-0.929414	-0.930781	-0.030722	19.2714	-0.928218	-2.444258E+12	1.256908E-14	NaN
446	1.000000	0.162217	7.36942e+06	-54789.1	1005.82	-29743	0.000000	0.000000	6.162803	0.081553	NaN	0.000000	0.001558	0.001712	28.0812	0.125348	0.001803	69.5214	-88.2894	-164.879	-0.001858	0.160904	-0.921423	-0.922736	0.081553	69.5214	-0.922302	-2.033722E+12	-4.010015E-14	NaN
446	1.000000	0.170217	7.36942e+06	-54789.1	1005.82	-29743	0.000000	0.000000	6.170799	-0.013572	NaN	0.000000	0.001608	0.001746	28.0814	0.101422	0.001805	56.2026	-97.3773	-164.692	-0.037022	0.168858	-0.913423	-0.914782	-0.013572	56.2026	-0.913242	-1.534420E+12	8.845123E-15	NaN
446	1.000000	0.178183	7.36942e+06	-54789.1	1005.82	-29743	0.000000	0.000000	6.178765	-0.013710	NaN	0.000000	0.001579	0.001709	28.0812	0.013745	0.001944	7.070091	14.4568	-163.06	0.009347	0.176913	-0.905457	-0.906727	-0.013710	7.070091	-0.904002	-1.151175E+12	1.190924E-14	NaN
446	1.000000	0.186242	7.36942e+06	-54789.1	1005.82	-29743	0.000000	0.000000	6.186822	-0.037535	NaN	0.000000	0.001565	0.001749	28.0812	0.052305	0.001947	26.8705	40.0404	-165.055	-0.012841	0.184948	-0.897398	-0.898691	-0.037535	26.8705	-0.896351	-9.073021E+11	4.137024E-14	NaN
446	1.000000	0.194252	7.36942e+06	-54789.1	1005.82	-29743	0.000000	0.000000	6.194838	0.075403	NaN	0.000000	0.001587	0.001709	28.0813	0.113258	0.002009	56.3782	-104.018	-164.669	0.062811	0.192941	-0.889388	-0.890699	0.075403	56.3782	-0.890391	-7.536956E+11	-1.000440E-13	NaN
446	1.000000	0.202237	7.36942e+06	-54789.1	1005.82	-29743	0.000000	0.000000	6.202823	0.089683	NaN	0.000000	0.001575	0.001713	28.0809	0.071240	0.002015	35.3611	168.537	-160.552	0.128172	0.200957	-0.881403	-0.882683	0.089683	35.3611	-0.883305	-6.045110E+11	-1.483569E-13	NaN
446	1.000000	0.210246	7.36942e+06	-54789.1	1005.82	-29743	0.000000	0.000000	6.210830	0.039531	NaN	0.000000	0.001582	0.001711	28.0812	0.069724	0.002007	34.7477	120.077	-163.279	0.073754	0.208922	-0.873394	-0.874718	0.039531	34.7477	-0.874247	-4.559280E+11	-8.670362E-14	NaN
446	1.000000	0.218218	7.36942e+06	-54789.1	1005.82	-29743	0.000000	0.000000	6.218802	0.047575	NaN	0.000000	0.001572	0.001703	28.0811	0.046963	0.001851	25.3665	72.5595	-169.969	0.041349	0.216864	-0.865422	-0.866776	0.047575	25.3665	-0.866829	-3.618540E+11	-1.314770E-13	NaN
446	1.000000	0.226245	7.36942e+06	-54789.1	1005.82	-29743	0.000000	0.000000	6.226830	0.066200	NaN	0.000000	0.001567	0.001712	28.0813	0.036959	0.001984	18.6253	-110.605	-162.648	0.068299	0.224972	-0.857395	-0.858668	0.066200	18.6253	-0.860061	-2.930494E+11	-2.258991E-13	NaN
446	1.000000	0.234232	7.36942e+06	-54789.1	1005.82	-29743	0.000000	0.000000	6.234818	0.080484	NaN	0.000000	0.001557	0.001745	28.081	0.030562	0.002011	15.1965	-113.57	-165.624	0.065067	0.232975	-0.849408	-0.850664	0.080484	15.1965	-0.853380	-2.379605E+11	-3.382224E-13	NaN
446	1.000000	0.242245	7.36942e+06	-54789.1	1005.82	-29743	0.000000	0.000000	6.242827	0.008009	NaN	0.000000	0.001580	0.001701	28.0809	0.016031	0.002011	7.972546	113.458	-167.651	0.011457	0.240958	-0.841395	-0.842682	0.008009	7.972546	-0.842149	-1.676490E+11	-4.777186E-14	NaN
446	1.000000	0.250260	7.36942e+06	-54789.1	1005.82	-29743	0.000000	0.000000	6.250846	0.079991	NaN	0.000000	0.001592	0.001774	28.082	0.056073	0.001893	29.6248	136.637	-164.822	0.057514	0.248987	-0.833380	-0.834653	0.079991	29.6248	-0.835405	-1.358419E+11	-5.888572E-13	NaN
446	1.000000	0.258221	7.36942e+06	-54789.1	1005.82	-29743	0.000000	0.000000	6.258804	0.022930	NaN	0.000000	0.001609	0.001749	28.0817	0.109923	0.002093	52.5207	90.8265	-162.367	0.011044	0.256915	-0.825419	-0.826725	0.022930	52.5207	-0.825747	-1.004914E+11	-2.281742E-13	NaN
446	1.000000	0.266276	7.36942e+06	-54789.1	1005.82	-29743	0.000000	0.000000	6.266859	0.023444	NaN	0.000000	0.001608	0.001759	28.0824	0.065805	0.002102	31.3026	-90.0922	-165.939	0.087390	0.264905	-0.817364	-0.818734	0.023444	31.3026	-0.817926	-7.871951E+10	-2.978113E-13	NaN
446	1.000000	0.274249	7.36942e+06	-54789.1	1005.82	-29743	0.000000	0.000000	6.274833	0.041875	NaN	0.000000	0.001619	0.001762	28.082	0.031922	0.001982	16.1092	-101.939	-168.267	0.082888	0.272939	-0.809390	-0.810700	0.041875	16.1092	-0.811340	-6.408438E+10	-6.534378E-13	NaN
446	1.000000	0.282290	7.36942e+06	-54789.1	1005.82	-29743	0.000000	0.000000	6.282874	0.019401	NaN	0.000000	0.001586	0.001760	28.0821	0.118549	0.002007	59.0589	106.748	-168.628	0.062626	0.280976	-0.801350	-0.802664	0.019401	59.0589	-0.801596	-4.726339E+10	-4.104766E-13	NaN
446	1.000000	0.290266	7.36942e+06	-54789.1	1005.82	-29743	0.000000	0.000000	6.290853	0.107083	NaN	0.000000	0.001591	0.001763	28.0822	0.011345	0.001979	5.732814	-134.341	-168.055	0.040781	0.288990	-0.793374	-0.794650	0.107083	5.732814	-0.807383	-5.663261E+10	-1.890831E-12	NaN
446	1.000000	0.298297	7.36942e+06	-54789.1	1005.82	-29743	0.000000	0.000000	6.298882	0.073027	NaN	0.000000	0.001605	0.001776	28.082	0.035169	0.002051	17.1469	142.421	-166.387	-0.005135	0.296976	-0.785343	-0.786664	0.073027	17.1469	-0.788537	-3.142059E+10	-2.324188E-12	NaN
446	1.000000	0.306254	7.36942e+06	-54789.1	1005.82	-29743	0.000000	0.000000	6.306834	-0.059180	NaN	0.000000	0.001586	0.001760	28.0823	0.088536	0.002069	42.7861	-58.091	-164.281	-0.066686	0.304974	-0.777386	-0.778666	-0.059180	42.7861	-0.776349	-2.145911E+10	2.757780E-12	NaN
446	1.000000	0.314251	7.36942e+06	-54789.1	1005.82	-29743	0.000000	0.000000	6.314837	0.073155	NaN	0.000000	0.001596	0.001760	28.0822	0.056287	0.002039	27.6072	47.8965	-165.692	0.054753	0.312988	-0.769389	-0.770652	0.073155	27.6072	-0.771376	-1.836598E+10	-3.983157E-12	NaN
446	1.000000	0.322313	7.36942e+06	-54789.1	1005.82	-29743	0.000000	0.000000	6.322896	0.014480	NaN	0.000000	0.001649	0.001750	28.0823	0.146983	0.001940	75.7724	-76.6792	-164.13	0.090901	0.320878	-0.761327	-0.762762	0.014480	75.7724	-0.761470	-1.346800E+10	-1.075142E-12	NaN
446	1.000000	0.330272	7.36942e+06	-54789.1	1005.82	-29743	0.000000	0.000000	6.330855	0.028251	NaN	0.000000	0.001639	0.001753	28.0827	0.109726	0.001959	56.0252	-178.937	-164.442	0.048565	0.328986	-0.753368	-0.754654	0.028251	56.0252	-0.753746	-1.057333E+10	-2.671871E-12	NaN
446	1.000000	0.338278	7.36942e+06	-54789.1	1005.82	-29743	0.000000	0.000000	6.338861	0.028527	NaN	0.000000	0.001634	0.001781	28.0822	0.088340	0.002098	42.1031	149.404	-163.388	0.039372	0.336991	-0.745362	-0.746649	0.028527	42.1031	-0.745870	-8.260305E+9	-3.453540E-12	NaN
446	1.000000	0.346271	7.36942e+06	-54789.1	1005.82	-29743	0.000000	0.000000	6.346854	0.036099	NaN	0.000000	0.001592	0.001778	28.0823	0.065226	0.001959	33.2968	42.2289	-165.049	0.044320	0.344967	-0.737369	-0.738673	0.036099	33.2968	-0.738182	-6.490797E+9	-5.561546E-12	NaN
446	1.000000	0.354270	7.36942e+06	-54789.1	1005.82	-29743	0.000000	0.000000	6.354850	-0.053176	NaN	0.000000	0.001603	0.001757	28.0823	0.145834	0.001972	73.9476	23.6089	-164.253	-0.073090	0.352982	-0.729370	-0.730658	-0.053176	73.9476	-0.728830	-4.840238E+9	1.098624E-11	NaN
446	1.000000	0.362286	7.36942e+06	-54789.1	1005.82	-29743	0.000000	0.000000	6.362871	0.061927	NaN	0.000000	0.001586	0.001754	28.0824	0.037857	0.002056	18.4145	-18.2833	-162.56	0.030297	0.361003	-0.721354	-0.722637	0.061927	18.4145	-0.723876	-4.143145E+9	-1.494675E-11	NaN
446	1.000000	0.370296	7.36942e+06	-54789.1	1005.82	-29743	0.000000	0.000000	6.370878	-0.019752	NaN	0.000000	0.001591	0.001730	28.0825	0.134261	0.002035	65.9723	137.833	-166.098	0.009393	0.369044	-0.713344	-0.714596	-0.019752	65.9723	-0.713119	-2.955385E+9	6.683415E-12	NaN
446	1.000000	0.378312	7.36942e+06	-54789.1	1005.82	-29743	0.000000	0.000000	6.378895	-0.001828	NaN	0.000000	0.001626	0.001722	28.0823	0.098201	0.002032	48.3155	-156.316	-164.745	0.005310	0.377003	-0.705327	-0.706637	-0.001828	48.3155	-0.705299	-2.311450E+9	7.908887E-13	NaN
446	1.000000	0.386289	7.36942e+06	-54789.1	1005.82	-29743	0.000000	0.000000	6.386872	0.008687	NaN	0.000000	0.001592	0.001734	28.0816	0.096520	0.002012	47.9741	12.8038	-165.807	0.020354	0.385001	-0.697351	-0.698639	0.008687	47.9741	-0.697486	-1.808013E+9	-4.804906E-12	NaN
446	1.000000	0.394315	7.36942e+06	-54789.1	1005.82	-29743	0.000000	0.000000	6.394899	0.036701	NaN	0.000000	0.001601	0.001733	28.0811	0.135708	0.001921	70.6619	154.451	-166.753	-0.019376	0.392996	-0.689325	-0.690644	0.036701	70.6619	-0.689714	-1.415828E+9	-2.592180E-11	NaN
446	1.000000	0.402342	7.36942e+06	-54789.1	1005.82	-29743	0.000000	0.000000	6.402926	0.021518	NaN	0.000000	0.001615	0.001728	28.082	0.139083	0.001911	72.7753	18.313	-164.778	0.034054	0.401089	-0.681298	-0.682551	0.021518	72.7753	-0.681519	-1.093914E+9	-1.967042E-11	NaN
446	1.000000	0.410318	7.36942e+06	-54789.1	1005.82	-29743	0.000000	0.000000	6.410902	0.036069	NaN	0.000000	0.001602	0.001723	28.0847	0.075006	0.001991	37.6737	147.595	-161.45	0.017844	0.409032	-0.673322	-0.674608	0.036069	37.6737	-0.674040	-8.643251E+8	-4.173051E-11	NaN
446	1.000000	0.418311	7.36942e+06	-54789.1	1005.82	-29743	0.000000	0.000000	6.418891	-0.048048	NaN	0.000000	0.001609	0.001744	28.082	0.089116	0.001960	45.4629	-165.182	-162.955	-0.022697	0.417080	-0.665329	-0.666560	-0.048048	45.4629	-0.664536	-6.406090E+8	7.500375E-11	NaN
446	1.000000	0.426338	7.36942e+06	-54789.1	1005.82	-29743	0.000000	0.000000	6.426921	0.027678	NaN	0.000000	0.001621	0.001738	28.0815	0.117959	0.002047	57.6296	82.4321	-164.559	0.016443	0.425057	-0.657302	-0.658583	0.027678	57.6296	-0.657662	-5.157568E+8	-5.366419E-11	NaN
446	1.000000	0.434328	7.36942e+06	-54789.1	1005.82	-29743	0.000000	0.000000	6.434909	-0.036165	NaN	0.000000	0.001639	0.001734	28.081	0.049639	0.002000	24.8151	84.9755	-162.174	0.050086	0.432966	-0.649312	-0.650674	-0.036165	24.8151	-0.648219	-3.828396E+8	9.446477E-11	NaN
446	1.000000	0.442328	7.36942e+06	-54789.1	1005.82	-29743	0.000000	0.000000	6.442908	-0.054267	NaN	0.000000	0.001573	0.001744	28.0815	0.097724	0.001945	50.2414	-77.0911	-167.572	-0.030665	0.440965	-0.641312	-0.642675	-0.054267	50.2414	-0.640502	-3.000371E+8	1.808687E-10	NaN
446	1.000000	0.450337	7.36942e+06	-54789.1	1005.82	-29743	0.000000	0.000000	6.450919	-0.011404	NaN	0.000000	0.001592	0.001741	28.0812	0.115115	0.001941	59.3085	-28.6527	-166.041	-0.093312	0.449044	-0.633303	-0.634596	-0.011404	59.3085	-0.633158	-2.378977E+8	4.793675E-11	NaN
446	1.000000	0.458328	7.36942e+06	-54789.1	1005.82	-29743	0.000000	0.000000	6.458909	-0.019109	NaN	0.000000	0.001587	0.001734	28.0807	0.053279	0.001941	27.4529	-27.2995	-163.589	-0.067292	0.457043	-0.625312	-0.626597	-0.019109	27.4529	-0.624790	-1.825825E+8	1.046571E-10	NaN
446	1.000000	0.466339	7.36942e+06	-54789.1	1005.82	-29743	0.000000	0.000000	6.466924	0.053541	NaN	0.000000	0.001617	0.001750	28.081	0.070386	0.001946	36.1726	-73.4907	-162.09	0.076377	0.465061	-0.617301	-0.618579	0.053541	36.1726	-0.618411	-1.492058E+8	-3.588369E-10	NaN
446	1.000000	0.474349	7.36942e+06	-54789.1	1005.82	-29743	0.000000	0.000000	6.474931	-0.007064	NaN	0.000000	0.001590	0.001720	28.0809	0.037101	0.001975	18.7886	171.508	-164.507	-0.006360	0.473024	-0.609291	-0.610616	-0.007064	18.7886	-0.609009	-1.107829E+8	6.376717E-11	NaN
446	1.000000	0.482368	7.36942e+06	-54789.1	1005.82	-29743	0.000000	0.000000	6.482951	0.024369	NaN	0.000000	0.001570	0.001722	28.0811	0.034534	0.001934	17.8569	-66.588	-164.971	0.127152	0.481049	-0.601272	-0.602591	0.024369	17.8569	-0.602296	-8.955157E+7	-2.721172E-10	NaN
446	1.000000	0.490363	7.36942e+06	-54789.1	1005.82	-29743	0.000000	0.000000	6.490947	0.033184	NaN	0.000000	0.001593	0.001749	28.0809	0.027572	0.002064	13.3571	-173.369	-166.007	0.133615	0.489056	-0.593277	-0.594584	0.033184	13.3571	-0.595140	-7.136883E+7	-4.649695E-10	NaN
446	1.000000	0.498365	7.36942e+06	-54789.1	1005.82	-29743	0.000000	0.000000	6.498949	0.021934	NaN	0.000000	0.001585	0.001746	28.0812	0.052551	0.002022	25.9897	-149.2	-166.007	0.012106	0.497105	-0.585275	-0.586535	0.021934	25.9897	-0.585908	-5.323936E+7	-4.119947E-10	NaN
446	1.000000	0.506339	7.36942e+06	-54789.1	1005.82	-29743	0.000000	0.000000	6.506923	0.044141	NaN	0.000000	0.001577	0.001748	28.081	0.033381	0.002056	16.2365	39.5522	-165.633	0.099037	0.505033	-0.577301	-0.578606	0.044141	16.2365	-0.579340	-4.321291E+7	-1.021486E-9	NaN
446	1.000000	0.514355	7.36942e+06	-54789.1	1005.82	-29743	0.000000	0.000000	6.514937	-0.011942	NaN	0.000000	0.001595	0.001721	28.081	0.023960	0.002023	11.842	-94.2658	-164.328	0.029599	0.513046	-0.569285	-0.570594	-0.011942	11.842	-0.568529	-3.064082E+7	3.897533E-10	NaN
446	1.000000	0.522349	7.36942e+06	-54789.1	1005.82	-29743	0.000000	0.000000	6.522934	0.064817	NaN	0.000000	0.001547	0.001767	28.0815	0.103638	0.002008	51.6235	-67.9482	-163.308	0.015623	0.521090	-0.561291	-0.562550	0.064817	51.6235	-0.562232	-2.507582E+7	-2.584856E-9	NaN
446	1.000000	0.530379	7.36942e+06	-54789.1	1005.82	-29743	0.000000	0.000000	6.530963	0.037914	NaN	0.000000	0.001568	0.001714	28.0821	0.066624	0.002004	33.2446	-130.675	-162.985	0.049737	0.529084	-0.553261	-0.554556	0.037914	33.2446	-0.554116	-1.936228E+7	-1.958129E-9	NaN
446	1.000000	0.538363	7.36942e+06	-54789.1	1005.82	-29743	0.000000	0.000000	6.538944	-0.039776	NaN	0.000000	0.001595	0.001729	28.0826	0.041730	0.002050	20.3514	171.988	-165.023	-0.035338	0.537039	-0.545276	-0.546601	-0.039776	20.3514	-0.543811	-1.393777E+7	2.853804E-9	NaN
446	1.000000	0.546343	7.36942e+06	-54789.1	1005.82	-29743	0.000000	0.000000	6.546927	0.033806	NaN	0.000000	0.001578	0.001756	28.0821	0.044272	0.002012	22	-49.3075	-165.848	0.024580	0.545097	-0.537297	-0.538543	0.033806	22	-0.538449	-1.174492E+7	-2.878377E-9	NaN
446	1.000000	0.554380	7.36942e+06	-54789.1	1005.82	-29743	0.000000	0.000000	6.554958	-0.103457	NaN	0.000000	0.001591	0.001765	28.0826	0.009000	0.002020	4.455998	-112.923	-164.557	-0.065975	0.553079	-0.529260	-0.530561	-0.103457	4.455998	-0.511847	-5.01342e+06	2.063608E-8	NaN
446	1.000000	0.562379	7.36942e+06	-54789.1	1005.82	-29743	0.000000	0.000000	6.562957	-0.103190	NaN	0.000000	0.001573	0.001745	28.0819	0.098776	0.002140	46.1533	127.998	-166.318	-0.071834	0.561135	-0.521261	-0.522505	-0.103190	46.1533	-0.519584	-6.42416e+06	1.606288E-8	NaN
446	1.000000	0.570405	7.36942e+06	-54789.1	1005.82	-29743	0.000000	0.000000	6.570992	0.116535	NaN	0.000000	0.001581	0.001745	28.0821	0.024592	0.001991	12.3535	149.028	-164.42	0.071736	0.569083	-0.513235	-0.514557	0.116535	12.3535	-0.520310	-6.57523e+06	-1.772329E-8	NaN
446	1.000000	0.578379	7.36942e+06	-54789.1	1005.82	-29743	0.000000	0.000000	6.578960	-0.038966	NaN	0.000000	0.001602	0.001753	28.0823	0.096994	0.001982	48.9381	-169.02	-164.161	0.006745	0.577067	-0.505261	-0.506573	-0.038966	48.9381	-0.504664	-3.98162e+06	9.786462E-9	NaN
446	1.000000	0.586403	7.36942e+06	-54789.1	1005.82	-29743	0.000000	0.000000	6.586984	-0.034763	NaN	0.000000	0.001599	0.001784	28.0821	0.020549	0.002026	10.142	-178.879	-165.305	-0.039019	0.585077	-0.497237	-0.498563	-0.034763	10.142	-0.494666	-2.88783e+06	1.203761E-8	NaN
446	1.000000	0.594382	7.36942e+06	-54789.1	1005.82	-29743	0.000000	0.000000	6.594964	-0.001194	NaN	0.000000	0.001542	0.001808	28.0836	0.048259	0.001931	24.9861	-91.057	-162.312	0.076360	0.593056	-0.489258	-0.490584	-0.001194	24.9861	-0.489223	-2.42397e+06	4.924298E-10	NaN
446	1.000000	0.602410	7.36942e+06	-54789.1	1005.82	-29743	0.000000	0.000000	6.602991	-0.042956	NaN	0.000000	0.001580	0.001756	28.0822	0.063028	0.002061	30.5771	-141.7	-164.735	-0.070652	0.601113	-0.481230	-0.482527	-0.042956	30.5771	-0.480176	-1.81131e+06	2.371559E-8	NaN
446	1.000000	0.610421	7.36942e+06	-54789.1	1005.82	-29743	0.000000	0.000000	6.611001	-0.044606	NaN	0.000000	0.001528	0.001742	28.0822	0.111036	0.002011	55.2224	59.9387	-166.417	-0.047892	0.609048	-0.473219	-0.474592	-0.044606	55.2224	-0.472613	-1.41922e+06	3.142967E-8	NaN
446	1.000000	0.618392	7.36942e+06	-54789.1	1005.82	-29743	0.000000	0.000000	6.618978	0.083683	NaN	0.000000	0.001553	0.001793	28.0823	0.063263	0.002140	29.5666	-35.9038	-166.135	0.050379	0.617101	-0.465248	-0.466539	0.083683	29.5666	-0.467371	-1.19818e+06	-6.984168E-8	NaN
446	1.000000	0.626413	7.36942e+06	-54789.1	1005.82	-29743	0.000000	0.000000	6.626996	0.013187	NaN	0.000000	0.001572	0.001764	28.082	0.128798	0.002046	62.9363	170.588	-167.15	0.024988	0.625091	-0.457227	-0.458549	0.013187	62.9363	-0.457384	-867453	-1.520181E-8	NaN
446	1.000000	0.634440	7.36942e+06	-54789.1	1005.82	-29743	0.000000	0.000000	6.635024	0.029789	NaN	0.000000	0.001569	0.001773	28.0824	0.029044	0.001947	14.9152	-157.073	-161.803	0.014260	0.633099	-0.449200	-0.450541	0.029789	14.9152	-0.450698	-698504	-4.264708E-8	NaN
446	1.000000	0.642393	7.36942e+06	-54789.1	1005.82	-29743	0.000000	0.000000	6.642976	0.007736	NaN	0.000000	0.001574	0.001746	28.0822	0.196637	0.002083	94.4202	-160.491	-167.341	-0.030197	0.641103	-0.441247	-0.442537	0.007736	94.4202	-0.441308	-515023	-1.502038E-8	NaN
446	1.000000	0.650437	7.36942e+06	-54789.1	1005.82	-29743	0.000000	0.000000	6.651017	-0.069044	NaN	0.000000	0.001521	0.001793	28.0825	0.072837	0.002069	35.1997	-139.065	-165.745	-0.079456	0.649097	-0.433203	-0.434543	-0.069044	35.1997	-0.431732	-377186	1.830511E-7	NaN
446	1.000000	0.658450	7.36942e+06	-54789.1	1005.82	-29743	0.000000	0.000000	6.659036	0.085505	NaN	0.000000	0.001562	0.001747	28.0821	0.110041	0.001921	57.292	35.053	-164.351	0.063076	0.657113	-0.425190	-0.426527	0.085505	57.292	-0.426309	-316102	-2.704989E-7	NaN
446	1.000000	0.666430	7.36942e+06	-54789.1	1005.82	-29743	0.000000	0.000000	6.667011	-0.023654	NaN	0.000000	0.001585	0.001762	28.081	0.051853	0.002033	25.5038	-123.463	-162.742	0.071243	0.665114	-0.417210	-0.418526	-0.023654	25.5038	-0.416514	-229592	1.030269E-7	NaN
446	1.000000	0.674460	7.36942e+06	-54789.1	1005.82	-29743	0.000000	0.000000	6.675041	-0.040443	NaN	0.000000	0.001567	0.001774	28.081	0.051181	0.002030	25.2098	-163.704	-166.268	-0.067481	0.673149	-0.409179	-0.410491	-0.040443	25.2098	-0.407976	-173626	2.329320E-7	NaN
446	1.000000	0.682417	7.36942e+06	-54789.1	1005.82	-29743	0.000000	0.000000	6.682998	-0.020095	NaN	0.000000	0.001551	0.001761	28.0811	0.076869	0.001850	41.5402	64.5297	-165.165	-0.103387	0.681139	-0.401223	-0.402501	-0.020095	41.5402	-0.400861	-137488	1.461589E-7	NaN
446	1.000000	0.690438	7.36942e+06	-54789.1	1005.82	-29743	0.000000	0.000000	6.691023	0.065553	NaN	0.000000	0.001560	0.001732	28.081	0.025452	0.001978	12.8673	171.715	-164.133	-0.089040	0.689102	-0.393202	-0.394538	0.065553	12.8673	-0.397023	-121204	-5.408534E-7	NaN
446	1.000000	0.698438	7.36942e+06	-54789.1	1005.82	-29743	0.000000	0.000000	6.699021	0.026970	NaN	0.000000	0.001587	0.001736	28.0809	0.063821	0.002017	31.6467	51.6981	-167.205	0.001276	0.697155	-0.385202	-0.386485	0.026970	31.6467	-0.385842	-83876.8	-3.215414E-7	NaN
446	1.000000	0.706442	7.36942e+06	-54789.1	1005.82	-29743	0.000000	0.000000	6.707025	0.023946	NaN	0.000000	0.001578	0.001747	28.0813	0.044248	0.001912	23.1403	44.992	-164.757	0.096884	0.705130	-0.377198	-0.378510	0.023946	23.1403	-0.377974	-64685	-3.701910E-7	NaN
446	1.000000	0.714457	7.36942e+06	-54789.1	1005.82	-29743	0.000000	0.000000	6.715040	0.009181	NaN	0.000000	0.001616	0.001747	28.081	0.048333	0.002006	24.0913	-82.3458	-162.808	0.034051	0.713095	-0.369182	-0.370545	0.009181	24.0913	-0.369468	-48805.6	-1.881138E-7	NaN
446	1.000000	0.722460	7.36942e+06	-54789.1	1005.82	-29743	0.000000	0.000000	6.723043	0.002047	NaN	0.000000	0.001625	0.001744	28.081	0.095094	0.001995	47.6777	126.896	-166.972	-0.060972	0.721117	-0.361180	-0.362523	0.002047	47.6777	-0.361212	-37098.9	-5.516894E-8	NaN
446	1.000000	0.730437	7.36942e+06	-54789.1	1005.82	-29743	0.000000	0.000000	6.731021	0.027836	NaN	0.000000	0.001638	0.001728	28.081	0.037703	0.001965	19.1855	73.742	-163.462	0.045151	0.729146	-0.353203	-0.354494	0.027836	19.1855	-0.354291	-29459.5	-9.449052E-7	NaN
446	1.000000	0.738448	7.36942e+06	-54789.1	1005.82	-29743	0.000000	0.000000	6.739031	0.016021	NaN	0.000000	0.001680	0.001770	28.0809	0.059794	0.002019	29.6112	176.598	-165.01	-0.057850	0.737146	-0.345192	-0.346494	0.016021	29.6112	-0.345598	-22031.6	-7.271599E-7	NaN
446	1.000000	0.746467	7.36942e+06	-54789.1	1005.82	-29743	0.000000	0.000000	6.747052	0.070005	NaN	0.000000	0.001678	0.001758	28.0813	0.056710	0.002083	27.2193	-92.7821	-165.586	-0.010915	0.745154	-0.337173	-0.338486	0.070005	27.2193	-0.339102	-17719.7	-3.950679E-6	NaN
446	1.000000	0.754444	7.36942e+06	-54789.1	1005.82	-29743	0.000000	0.000000	6.755023	-0.071986	NaN	0.000000	0.001674	0.001752	28.0812	0.060460	0.001946	31.0682	-175.236	-163.66	-0.085121	0.753104	-0.329196	-0.330536	-0.071986	31.0682	-0.327459	-11973.2	6.012296E-6	NaN
446	1.000000	0.762481	7.36942e+06	-54789.1	1005.82	-29743	0.000000	0.000000	6.763062	-0.050758	NaN	0.000000	0.001618	0.001727	28.0813	0.072940	0.001950	37.4003	-30.0233	-164.509	-0.018038	0.761112	-0.321159	-0.322528	-0.050758	37.4003	-0.320141	-9347.81	5.429895E-6	NaN
446	1.000000	0.770458	7.36942e+06	-54789.1	1005.82	-29743	0.000000	0.000000	6.771040	-0.012773	NaN	0.000000	0.001644	0.001737	28.081	0.093060	0.002018	46.1137	169.359	-162.456	0.052701	0.769166	-0.313182	-0.314474	-0.012773	46.1137	-0.312974	-7328.73	1.742853E-6	NaN
446	1.000000	0.778471	7.36942e+06	-54789.1	1005.82	-29743	0.000000	0.000000	6.779052	-0.034600	NaN	0.000000	0.001570	0.001732	28.0811	0.142847	0.001981	72.0961	102.247	-166.615	-0.052457	0.777136	-0.305169	-0.306504	-0.034600	72.0961	-0.304809	-5547.86	6.236654E-6	NaN
446	1.000000	0.786488	7.36942e+06	-54789.1	1005.82	-29743	0.000000	0.000000	6.787073	0.056537	NaN	0.000000	0.001553	0.001764	28.0812	0.058149	0.001909	30.4681	-132.194	-163.342	0.067192	0.785187	-0.297152	-0.298453	0.056537	30.4681	-0.298544	-4476.56	-1.262961E-5	NaN
446	1.000000	0.794471	7.36942e+06	-54789.1	1005.82	-29743	0.000000	0.000000	6.795053	-0.008193	NaN	0.000000	0.001535	0.001723	28.0811	0.051399	0.001983	25.9137	-105.538	-167.332	0.022716	0.793163	-0.289169	-0.290477	-0.008193	25.9137	-0.288931	-3215.79	2.547595E-6	NaN
446	1.000000	0.802486	7.36942e+06	-54789.1	1005.82	-29743	0.000000	0.000000	6.803069	-0.000601	NaN	0.000000	0.001550	0.001753	28.0825	0.057581	0.001997	28.8335	-134.746	-165.694	-0.020268	0.801186	-0.281154	-0.282454	-0.000601	28.8335	-0.281138	-2455.45	2.445593E-7	NaN
446	1.000000	0.810474	7.36942e+06	-54789.1	1005.82	-29743	0.000000	0.000000	6.811056	-0.020960	NaN	0.000000	0.001548	0.001754	28.0822	0.081833	0.001992	41.0791	72.5701	-165.774	-0.080215	0.809157	-0.273165	-0.274483	-0.020960	41.0791	-0.272783	-1835.69	1.141790E-5	NaN
446	1.000000	0.818475	7.36942e+06	-54789.1	1005.82	-29743	0.000000	0.000000	6.819059	0.036158	NaN	0.000000	0.001586	0.001758	28.0822	0.098807	0.001982	49.8533	15.7807	-166.987	-0.042545	0.817186	-0.265165	-0.266454	0.036158	49.8533	-0.265709	-1432.87	-2.523427E-5	NaN
446	1.000000	0.826492	7.36942e+06	-54789.1	1005.82	-29743	0.000000	0.000000	6.827075	0.017880	NaN	0.000000	0.001570	0.001761	28.0823	0.059324	0.001944	30.5156	-29.4137	-165.46	-0.040557	0.825209	-0.257148	-0.258431	0.017880	30.5156	-0.257587	-1076.22	-1.661405E-5	NaN
446	1.000000	0.834493	7.36942e+06	-54789.1	1005.82	-29743	0.000000	0.000000	6.835073	-0.051540	NaN	0.000000	0.001534	0.001753	28.0821	0.093031	0.001839	50.5831	-83.684	-164.205	-0.004175	0.833209	-0.249147	-0.250431	-0.051540	50.5831	-0.248383	-776.135	6.640654E-5	NaN
446	1.000000	0.842490	7.36942e+06	-54789.1	1005.82	-29743	0.000000	0.000000	6.843075	0.054279	NaN	0.000000	0.001544	0.001734	28.0824	0.075041	0.002061	36.4142	-107.22	-164.983	0.042335	0.841167	-0.241150	-0.242473	0.054279	36.4142	-0.242268	-623.642	-8.703566E-5	NaN
446	1.000000	0.850499	7.36942e+06	-54789.1	1005.82	-29743	0.000000	0.000000	6.851082	0.023207	NaN	0.000000	0.001524	0.001733	28.0824	0.105681	0.002167	48.7686	-107.435	-167.398	0.006250	0.849178	-0.233141	-0.234462	0.023207	48.7686	-0.233498	-454.612	-5.104871E-5	NaN
446	1.000000	0.858481	7.36942e+06	-54789.1	1005.82	-29743	0.000000	0.000000	6.859062	-0.015812	NaN	0.000000	0.001524	0.001755	28.0824	0.053621	0.001936	27.6929	-105.433	-168.832	-0.007360	0.857211	-0.225159	-0.226428	-0.015812	27.6929	-0.224731	-330.418	4.785519E-5	NaN
446	1.000000	0.866520	7.36942e+06	-54789.1	1005.82	-29743	0.000000	0.000000	6.867103	0.014371	NaN	0.000000	0.001535	0.001713	28.0825	0.096502	0.002023	47.7142	-178.307	-160.436	0.052118	0.865179	-0.217120	-0.218461	0.014371	47.7142	-0.217346	-251.88	-5.705488E-5	NaN
446	1.000000	0.874496	7.36942e+06	-54789.1	1005.82	-29743	0.000000	0.000000	6.875078	-0.016884	NaN	0.000000	0.001576	0.001731	28.0823	0.045567	0.001961	23.2411	-60.5227	-170.141	0.015667	0.873214	-0.209143	-0.210426	-0.016884	23.2411	-0.208599	-182.012	9.276531E-5	NaN
446	1.000000	0.882508	7.36942e+06	-54789.1	1005.82	-29743	0.000000	0.000000	6.883090	0.000801	NaN	0.000000	0.001542	0.001742	28.0825	0.043485	0.001937	22.4533	121.833	-163.066	0.028722	0.881181	-0.201132	-0.202459	0.000801	22.4533	-0.201159	-137.636	-5.820859E-6	NaN
446	1.000000	0.890515	7.36942e+06	-54789.1	1005.82	-29743	0.000000	0.000000	6.891098	0.017064	NaN	0.000000	0.001524	0.001653	28.0824	0.056726	0.001962	28.9123	136.785	-164.371	-0.021193	0.889231	-0.193125	-0.194409	0.017064	28.9123	-0.193568	-103.145	-0.000165	NaN
446	1.000000	0.898534	7.36942e+06	-54789.1	1005.82	-29743	0.000000	0.000000	6.899115	-0.029257	NaN	0.000000	0.001566	0.001738	28.0823	0.074396	0.001977	37.6394	105.073	-163.777	-0.038067	0.897209	-0.185106	-0.186431	-0.029257	37.6394	-0.184523	-72.7938	0.000402	NaN
446	1.000000	0.906517	7.36942e+06	-54789.1	1005.82	-29743	0.000000	0.000000	6.907099	-0.001701	NaN	0.000000	0.001571	0.001721	28.0825	0.049229	0.002026	24.3028	-166.772	-163.571	-0.013498	0.905197	-0.177123	-0.178443	-0.001701	24.3028	-0.177070	-54.3854	3.127125E-5	NaN
446	1.000000	0.914530	7.36942e+06	-54789.1	1005.82	-29743	0.000000	0.000000	6.915113	0.002784	NaN	0.000000	0.001561	0.001689	28.0823	0.184488	0.002047	90.1136	-21.3663	-163.656	-0.016573	0.913217	-0.169110	-0.170423	0.002784	90.1136	-0.169133	-39.6775	-7.017829E-5	NaN
446	1.000000	0.922534	7.36942e+06	-54789.1	1005.82	-29743	0.000000	0.000000	6.923112	-0.097888	NaN	0.000000	0.001544	0.001729	28.0823	0.048716	0.002064	23.6006	23.0208	-164.96	-0.086845	0.921229	-0.161106	-0.162411	-0.097888	23.6006	-0.157995	-25.2507	0.003877	NaN
446	1.000000	0.930531	7.36942e+06	-54789.1	1005.82	-29743	0.000000	0.000000	6.931115	0.046545	NaN	0.000000	0.001570	0.001737	28.0822	0.134814	0.002059	65.4828	-164.292	-164.458	0.028460	0.929292	-0.153109	-0.154348	0.046545	65.4828	-0.153642	-21.0913	-0.002207	NaN
446	1.000000	0.938534	7.36942e+06	-54789.1	1005.82	-29743	0.000000	0.000000	6.939116	-0.028582	NaN	0.000000	0.001554	0.001755	28.0811	0.007956	0.002030	3.919684	127.005	-167.553	-0.003389	0.937250	-0.145105	-0.146390	-0.028582	3.919684	-0.139637	-11.6449	0.002454	NaN
446	1.000000	0.946517	7.36942e+06	-54789.1	1005.82	-29743	0.000000	0.000000	6.947098	-0.036540	NaN	0.000000	0.001572	0.001756	28.0812	0.033623	0.001968	17.0875	-124.938	-166.22	0.018778	0.945164	-0.137123	-0.138476	-0.036540	17.0875	-0.135519	-9.731854	0.003755	NaN
446	1.000000	0.954562	7.36943e+06	-54789.1	1005.82	-29743	0.000000	0.000000	6.955143	-0.017704	NaN	0.000000	0.001571	0.001756	28.0813	0.107142	0.001999	53.6045	127.595	-163.868	-0.007618	0.953217	-0.129078	-0.130423	-0.017704	53.6045	-0.128830	-7.231777	0.002448	NaN
446	1.000000	0.962549	7.36943e+06	-54789.1	1005.82	-29743	0.000000	0.000000	6.963131	-0.009492	NaN	0.000000	0.001551	0.001768	28.0812	0.040523	0.001962	20.6537	142.005	-163.207	-0.085850	0.961223	-0.121091	-0.122417	-0.009492	20.6537	-0.120746	-5.001751	0.001898	NaN
446	1.000000	0.970550	7.36943e+06	-54789.1	1005.82	-29743	0.000000	0.000000	6.971135	0.072029	NaN	0.000000	0.001558	0.001764	28.081	0.064573	0.002047	31.5378	-49.0421	-165.675	0.059607	0.969211	-0.113090	-0.114429	0.072029	31.5378	-0.114803	-3.784822	-0.019031	NaN
446	1.000000	0.978551	7.36943e+06	-54789.1	1005.82	-29743	0.000000	0.000000	6.979133	-0.002128	NaN	0.000000	0.001588	0.001760	28.0811	0.094279	0.001979	47.6481	-174.162	-165.498	-0.099748	0.977265	-0.105089	-0.106375	-0.002128	47.6481	-0.105055	-2.357045	0.000903	NaN
446	1.000000	0.986559	7.36943e+06	-54789.1	1005.82	-29743	0.000000	0.000000	6.987139	-0.056726	NaN	0.000000	0.001588	0.001743	28.081	0.037680	0.001982	19.0068	-81.2616	-167.286	0.071074	0.985248	-0.097081	-0.098392	-0.056726	19.0068	-0.094842	-1.398997	0.040548	NaN
446	1.000000	0.994561	7.36943e+06	-54789.1	1005.82	-29743	0.000000	0.000000	6.995146	0.064754	NaN	0.000000	0.001591	0.001759	28.0813	0.047389	0.002007	23.6139	131.065	-164.727	0.008250	0.993246	-0.089079	-0.090394	0.064754	23.6139	-0.091136	-1.149161	-0.056349	NaN
446	1.000000	1.002585	7.36943e+06	-54789.1	1005.82	-29743	0.000000	0.000000	7.003166	-0.044800	NaN	0.000000	0.001575	0.001789	28.081	0.122884	0.002034	60.4124	-103.59	-165.148	0.002620	1.001232	-0.081055	-0.082408	-0.044800	60.4124	-0.080499	-0.636991	0.070331	NaN
446	1.000000	1.010566	7.36943e+06	-54789.1	1005.82	-29743	0.000000	0.000000	7.011149	-0.002794	NaN	0.000000	0.001609	0.001757	28.0813	0.022926	0.001981	11.5726	-23.4995	-163.607	0.003450	1.009269	-0.073074	-0.074371	-0.002794	11.5726	-0.072892	-0.407003	0.006865	NaN
446	1.000000	1.018562	7.36943e+06	-54789.1	1005.82	-29743	0.000000	0.000000	7.019146	0.039090	NaN	0.000000	0.001588	0.001738	28.0812	0.045713	0.001998	22.8782	43.6314	-163.686	0.017041	1.017224	-0.065078	-0.066416	0.039090	22.8782	-0.066360	-0.271716	-0.143862	NaN
446	1.000000	1.026550	7.36943e+06	-54789.1	1005.82	-29743	0.000000	0.000000	7.027133	-0.002349	NaN	0.000000	0.001555	0.001788	28.0809	0.068127	0.001910	35.6763	116.448	-166.238	0.046196	1.025234	-0.057090	-0.058405	-0.002349	35.6763	-0.057040	-0.147842	0.015890	NaN
446	1.000000	1.034590	7.36943e+06	-54789.1	1005.82	-29743	0.000000	0.000000	7.035171	-0.046621	NaN	0.000000	0.001596	0.001760	28.0813	0.079266	0.002040	38.8648	-135.363	-162.37	-0.081828	1.033242	-0.049050	-0.050398	-0.046621	38.8648	-0.048150	-0.080189	0.581386	NaN
446	1.000000	1.042570	7.36943e+06	-54789.1	1005.82	-29743	0.000000	0.000000	7.043155	0.073713	NaN	0.000000	0.001648	0.001740	28.081	0.098199	0.002006	48.9618	172.722	-166.246	0.036038	1.041340	-0.041070	-0.042300	0.073713	48.9618	-0.042199	-0.052766	-1.396988	NaN
446	1.000000	1.050604	7.36943e+06	-54789.1	1005.82	-29743	0.000000	0.000000	7.051185	-0.026105	NaN	0.000000	0.001640	0.001775	28.0812	0.020240	0.001965	10.3023	-110.995	-167.493	0.013459	1.049256	-0.033036	-0.034384	-0.026105	10.3023	-0.031136	-0.024765	1.054096	NaN
446	1.000000	1.058613	7.36943e+06	-54789.1	1005.82	-29743	0.000000	0.000000	7.059195	-0.012459	NaN	0.000000	0.001638	0.001772	28.0811	0.089146	0.002011	44.3196	-171.992	-164.868	0.068059	1.057274	-0.025026	-0.026366	-0.012459	44.3196	-0.024816	-0.016684	0.746731	NaN
446	1.000000	1.066593	7.36943e+06	-54789.1	1005.82	-29743	0.000000	0.000000	7.067177	0.045334	NaN	0.000000	0.001658	0.001751	28.0811	0.058608	0.001928	30.406	32.7237	-163.411	0.051436	1.065281	-0.017047	-0.018359	0.045334	30.406	-0.018165	-0.011273	-4.021448	NaN
446	1.000000	1.074597	7.36943e+06	-54789.1	1005.82	-29743	0.000000	0.000000	7.075180	0.037892	NaN	0.000000	0.001647	0.001753	28.0826	0.042540	0.002075	20.4981	79.412	-164.802	0.007152	1.073344	-0.009043	-0.010296	0.037892	20.4981	-0.010430	-0.006633	-5.712787	NaN
446	1.000000	1.082616	7.36943e+06	-54789.1	1005.82	-29743	0.000000	0.000000	7.083197	-0.024851	NaN	0.000000	0.001647	0.001751	28.0824	0.080897	0.001936	41.7929	112.602	-164.813	0.015696	1.081310	-0.001024	-0.002330	-0.024851	41.7929	-0.000578	-0.000427	58.1637	NaN
446	1.000000	1.090586	7.36943e+06	-54789.1	1005.82	-29743	0.000000	0.000000	7.091381	5.154249	NaN	0.000000	0.001675	0.001733	28.0826	5.818024	0.001853	3139.09	12.0496	-168.295	4.161658	1.089253	0.006946	0.005613	5.154249	3139.09	0.005715	0.004795	1074.86	41416.2
446	2.000000	1.095116	7.36943e+06	-54789.1	1005.82	-29743	0.000000	0.000000	7.096167	11.3995	NaN	0.000000	0.001629	0.001739	28.0823	10.4668	0.001618	6468.24	7.064260	-174.175	10.357	1.094794	0.011476	0.011154	11.3995	6468.24	0.010154	0.009354	1218.73	61104.2
446	2.000000	1.097175	7.36943e+06	-54789.1	1005.82	-29743	0.000000	0.000000	7.098323	13.7432	NaN	0.000000	0.001663	0.001769	28.0823	12.6475	0.001601	7899.09	5.511004	-171.472	14.202	1.096817	0.013535	0.013177	13.7432	7899.09	0.012230	0.011767	1167.97	66530.7
446	2.000000	1.099112	7.36943e+06	-54789.1	1005.82	-29743	0.000000	0.000000	7.100377	16.5926	NaN	0.000000	0.001630	0.001766	28.0831	14.4921	0.001704	8505.33	6.981634	-172.495	16.3119	1.098716	0.015472	0.015076	16.5926	8505.33	0.014009	0.013986	1186.34	65707
446	2.000000	1.101151	7.36943e+06	-54789.1	1005.82	-29743	0.000000	0.000000	7.102487	18.3121	NaN	0.000000	0.001621	0.001768	28.0822	17.6304	0.001754	10050	11.2403	-179.462	20.0386	1.100816	0.017511	0.017176	18.3121	10050	0.016145	0.016842	1087.28	70752.3
446	2.000000	1.103071	7.36943e+06	-54789.1	1005.82	-29743	0.000000	0.000000	7.104601	23.0471	NaN	0.000000	0.001610	0.001784	28.0824	18.792	0.001723	10908.5	6.988136	-177.783	22.5107	1.102773	0.019431	0.019133	23.0471	10908.5	0.017846	0.019270	1195.98	71794.6
446	2.000000	1.105048	7.36943e+06	-54789.1	1005.82	-29743	0.000000	0.000000	7.106826	29.0534	NaN	0.000000	0.001615	0.001780	28.0822	21.194	0.001754	12079.8	4.574547	-174.179	28.5508	1.104809	0.021408	0.021169	29.0534	12079.8	0.019605	0.021925	1325.14	74535.9
446	2.000000	1.107073	7.36943e+06	-54789.1	1005.82	-29743	0.000000	0.000000	7.108978	32.1544	NaN	0.000000	0.001574	0.001738	28.0822	23.5263	0.001892	12434.6	7.192991	-176.617	31.9114	1.106705	0.023433	0.023065	32.1544	12434.6	0.021493	0.024943	1289.1	71932.9
446	2.000000	1.109024	7.36943e+06	-54789.1	1005.82	-29743	0.000000	0.000000	7.111190	38.4953	NaN	0.000000	0.001583	0.001739	28.0829	25.3033	0.001658	15257.2	2.470172	-176.749	36.5423	1.108730	0.025384	0.025090	38.4953	15257.2	0.023492	0.028329	1358.88	82820.1
446	2.000000	1.111086	7.36943e+06	-54789.1	1005.82	-29743	0.000000	0.000000	7.113312	39.9623	NaN	0.000000	0.001593	0.001735	28.0823	28.31	0.001813	15611.5	4.602202	-177.278	41.8511	1.110756	0.027446	0.027116	39.9623	15611.5	0.025526	0.031979	1249.64	79759.9
446	2.000000	1.112987	7.36943e+06	-54789.1	1005.82	-29743	0.000000	0.000000	7.115300	42.0663	NaN	0.000000	0.001612	0.001728	28.0825	29.274	0.001752	16707.7	3.020825	-176.907	40.9516	1.112801	0.029347	0.029161	42.0663	16707.7	0.027459	0.035642	1180.25	80855.6
446	2.000000	1.115014	7.36943e+06	-54789.1	1005.82	-29743	0.000000	0.000000	7.117721	51.6561	NaN	0.000000	0.001622	0.001718	28.0823	31.6803	0.001726	18349.9	3.263877	-179.136	50.0103	1.114771	0.031374	0.031131	51.6561	18349.9	0.029262	0.039229	1316.8	84646
446	2.000000	1.117051	7.36943e+06	-54789.1	1005.82	-29743	0.000000	0.000000	7.120009	57.7373	NaN	0.000000	0.001584	0.001693	28.0822	33.9803	0.001846	18406.1	4.698110	-179.043	56.7246	1.116767	0.033412	0.033127	57.7373	18406.1	0.031059	0.042967	1343.76	81127.5
446	2.000000	1.119072	7.36943e+06	-54789.1	1005.82	-29743	0.000000	0.000000	7.122234	62.7223	NaN	0.000000	0.001626	0.001740	28.0827	35.7661	0.001790	19984.1	5.003638	179.067	63.2735	1.118744	0.035432	0.035104	62.7223	19984.1	0.033078	0.047365	1324.22	83893.3
446	2.000000	1.121015	7.36943e+06	-54789.1	1005.82	-29743	0.000000	0.000000	7.124521	71.0627	NaN	0.000000	0.001586	0.001710	28.0825	38.2094	0.001887	20245.8	4.310654	-179.117	70.3885	1.120762	0.037375	0.037122	71.0627	20245.8	0.034743	0.051149	1389.32	81788
446	2.000000	1.123011	7.36943e+06	-54789.1	1005.82	-29743	0.000000	0.000000	7.126960	81.825	NaN	0.000000	0.001608	0.001763	28.081	39.1326	0.001662	23540	3.389910	179.779	81.8168	1.122647	0.039371	0.039007	81.825	23540	0.036764	0.055934	1462.88	90937.1
446	2.000000	1.125001	7.36943e+06	-54789.1	1005.82	-29743	0.000000	0.000000	7.129179	87.4098	NaN	0.000000	0.001569	0.001738	28.0809	42.0364	0.001746	24076.2	2.708158	-179.11	86.5663	1.124674	0.041361	0.041034	87.4098	24076.2	0.038638	0.060556	1443.46	89388.9
446	2.000000	1.127060	7.36943e+06	-54789.1	1005.82	-29743	0.000000	0.000000	7.131498	93.7324	NaN	0.000000	0.001582	0.001748	28.0811	45.2926	0.001825	24820.4	7.422961	175.893	94.2617	1.126722	0.043420	0.043082	93.7324	24820.4	0.040588	0.065557	1429.79	88567.3
446	2.000000	1.128987	7.36943e+06	-54789.1	1005.82	-29743	0.000000	0.000000	7.134007	107.879	NaN	0.000000	0.001589	0.001732	28.082	46.9604	0.001683	27896.2	4.112433	177.352	106.228	1.128664	0.045347	0.045024	107.879	27896.2	0.042447	0.070504	1530.11	95986.4
446	2.000000	1.131045	7.36943e+06	-54789.1	1005.82	-29743	0.000000	0.000000	7.136435	116.877	NaN	0.000000	0.001586	0.001718	28.081	48.7679	0.001789	27252.9	2.770478	179.005	117.49	1.130758	0.047405	0.047118	116.877	27252.9	0.044188	0.075300	1552.15	90737.7
446	2.000000	1.132979	7.36943e+06	-54789.1	1005.82	-29743	0.000000	0.000000	7.138754	126.239	NaN	0.000000	0.001584	0.001729	28.0809	50.1886	0.001654	30349.9	2.114047	178.216	122.269	1.132669	0.049339	0.049029	126.239	30349.9	0.046220	0.081087	1556.83	97376.5
446	2.000000	1.135002	7.36943e+06	-54789.1	1005.82	-29743	0.000000	0.000000	7.141077	133.518	NaN	0.000000	0.001626	0.001713	28.0809	52.127	0.001709	30508.8	3.183320	177.251	133.901	1.134754	0.051362	0.051114	133.518	30508.8	0.048080	0.086570	1542.31	94735.9
446	2.000000	1.137087	7.36943e+06	-54789.1	1005.82	-29743	0.000000	0.000000	7.143714	146.942	NaN	0.000000	0.001653	0.001705	28.081	55.1702	0.001842	29956.9	5.792006	176.105	147.683	1.136661	0.053447	0.053021	146.942	29956.9	0.049768	0.091699	1602.44	90383.3
446	2.000000	1.138928	7.36943e+06	-54789.1	1005.82	-29743	0.000000	0.000000	7.145908	155.519	NaN	0.000000	0.001650	0.001765	28.0815	55.8639	0.001775	31468.5	3.813152	176.608	152.858	1.138730	0.055288	0.055090	155.519	31468.5	0.051582	0.097365	1597.28	92140.1
446	2.000000	1.140931	7.36943e+06	-54789.1	1005.82	-29743	0.000000	0.000000	7.148475	169.251	NaN	0.000000	0.001654	0.001714	28.0809	57.9228	0.001761	32896.6	5.030160	175.844	164.851	1.140628	0.057291	0.056988	169.251	32896.6	0.053432	0.103316	1638.18	93506.2
446	2.000000	1.143059	7.36943e+06	-54789.1	1005.82	-29743	0.000000	0.000000	7.150804	174.133	NaN	0.000000	0.001630	0.001696	28.0809	59.674	0.001875	31833.7	9.055858	171.503	175.975	1.142738	0.059419	0.059098	174.133	31833.7	0.055316	0.109550	1589.52	87872.6
446	2.000000	1.144945	7.36943e+06	-54789.1	1005.82	-29743	0.000000	0.000000	7.153282	188.524	NaN	0.000000	0.001637	0.001750	28.0809	61.4877	0.001791	34329.9	1.733798	178.387	184.226	1.144657	0.061305	0.061017	188.524	34329.9	0.057186	0.115913	1626.43	92125.5
446	2.000000	1.147066	7.36943e+06	-54789.1	1005.82	-29743	0.000000	0.000000	7.155854	199.469	NaN	0.000000	0.001620	0.001742	28.081	64.1085	0.001814	35349	6.765978	173.556	201.718	1.146591	0.063426	0.062951	199.469	35349	0.059194	0.122934	1622.58	92111.8
446	2.000000	1.148921	7.36943e+06	-54789.1	1005.82	-29743	0.000000	0.000000	7.158209	211.634	NaN	0.000000	0.001621	0.001762	28.0812	65.1372	0.001806	36074.6	6.329996	174.053	209.12	1.148597	0.065281	0.064957	211.634	36074.6	0.060881	0.128987	1640.74	91770.3
446	2.000000	1.150968	7.36943e+06	-54789.1	1005.82	-29743	0.000000	0.000000	7.160081	207.394	NaN	0.000000	0.001667	0.001704	28.0811	68.1932	0.001953	34914.9	2.927331	176.544	206.023	1.150853	0.067328	0.067213	207.394	34914.9	0.062873	0.136311	1521.47	86400.7
446	2.000000	1.153044	7.36943e+06	-54789.1	1005.82	-29743	0.000000	0.000000	7.163088	230.022	NaN	0.000000	0.001640	0.001744	28.0809	68.5398	0.001685	40669.8	1.903810	177.027	232.822	1.152675	0.069404	0.069035	230.022	40669.8	0.065162	0.144967	1586.72	97591.4
446	2.000000	1.154989	7.36943e+06	-54789.1	1005.82	-29743	0.000000	0.000000	7.165416	239.333	NaN	0.000000	0.001658	0.001739	28.0811	71.6942	0.001899	37745	5.254824	174.414	241.047	1.154761	0.071349	0.071121	239.333	37745	0.066593	0.150506	1590.19	88890.7
446	2.000000	1.157054	7.36943e+06	-54789.1	1005.82	-29743	0.000000	0.000000	7.167941	250.487	NaN	0.000000	0.001635	0.001732	28.0823	73.3948	0.001850	39673.4	4.572549	174.573	253.391	1.156706	0.073414	0.073066	250.487	39673.4	0.068679	0.158756	1577.81	90971.8
446	2.000000	1.158914	7.36943e+06	-54789.1	1005.82	-29743	0.000000	0.000000	7.170540	268.465	NaN	0.000000	0.001625	0.001729	28.0824	72.0074	0.001642	43855.5	0.161892	178.347	262.928	1.158586	0.075274	0.074946	268.465	43855.5	0.070683	0.166878	1608.75	98083.7
446	2.000000	1.160989	7.36943e+06	-54789.1	1005.82	-29743	0.000000	0.000000	7.172652	269.375	NaN	0.000000	0.001638	0.001737	28.0826	76.767	0.001885	40716.2	3.560853	174.96	267.865	1.160742	0.077349	0.077103	269.375	40716.2	0.072387	0.173933	1548.73	89196.8
446	2.000000	1.162976	7.36943e+06	-54789.1	1005.82	-29743	0.000000	0.000000	7.175222	283.53	NaN	0.000000	0.001592	0.001756	28.0824	76.4594	0.001727	44283.2	2.424721	175.57	282.557	1.162698	0.079336	0.079058	283.53	44283.2	0.074534	0.183021	1549.17	94571.8
446	2.000000	1.164969	7.36943e+06	-54789.1	1005.82	-29743	0.000000	0.000000	7.177839	298.694	NaN	0.000000	0.001580	0.001750	28.0827	78.7558	0.001771	44465.1	2.953634	175.424	298.505	1.164666	0.081329	0.081026	298.694	44465.1	0.076291	0.190617	1566.98	93048.9
446	2.000000	1.166993	7.36943e+06	-54789.1	1005.82	-29743	0.000000	0.000000	7.180510	314.444	NaN	0.000000	0.001565	0.001733	28.0824	81.3974	0.001860	43752.2	4.639324	174.041	312.372	1.166687	0.083353	0.083048	314.444	43752.2	0.077963	0.197981	1588.25	89838.2
446	2.000000	1.168948	7.36943e+06	-54789.1	1005.82	-29743	0.000000	0.000000	7.182929	325.72	NaN	0.000000	0.001572	0.001735	28.0831	83.6773	0.001772	47227	6.167869	172.165	323.916	1.168559	0.085308	0.084919	325.72	47227	0.080135	0.207743	1567.9	94667.5
446	2.000000	1.170973	7.36943e+06	-54789.1	1005.82	-29743	0.000000	0.000000	7.185335	334.986	NaN	0.000000	0.001557	0.001722	28.0825	86.645	0.001857	46663.3	10.0973	168.731	335.041	1.170606	0.087333	0.086967	334.986	46663.3	0.081949	0.216064	1550.4	91718.5
446	2.000000	1.172880	7.36943e+06	-54789.1	1005.82	-29743	0.000000	0.000000	7.187610	343.932	NaN	0.000000	0.001598	0.001737	28.0826	86.1511	0.001783	48311	3.083119	174.315	339.647	1.172725	0.089240	0.089085	343.932	48311	0.083901	0.225187	1527.32	93013.8
446	2.000000	1.174893	7.36943e+06	-54789.1	1005.82	-29743	0.000000	0.000000	7.190174	357.313	NaN	0.000000	0.001609	0.001754	28.0825	89.3574	0.001811	49350.7	4.519850	173.011	354	1.174610	0.091253	0.090970	357.313	49350.7	0.085823	0.234343	1524.74	93141
446	2.000000	1.176917	7.36943e+06	-54789.1	1005.82	-29743	0.000000	0.000000	7.192722	370.064	NaN	0.000000	0.001595	0.001740	28.0824	91.2907	0.001804	50608.8	4.159631	173.092	366.482	1.176658	0.093277	0.093018	370.064	50608.8	0.087793	0.243906	1517.24	93624.1
446	2.000000	1.178896	7.36943e+06	-54789.1	1005.82	-29743	0.000000	0.000000	7.195458	388.472	NaN	0.000000	0.001572	0.001740	28.0824	92.1364	0.001749	52671.9	3.777951	173.929	385.634	1.178467	0.095256	0.094828	388.472	52671.9	0.089725	0.253454	1532.71	95587.7
446	2.000000	1.181007	7.36943e+06	-54789.1	1005.82	-29743	0.000000	0.000000	7.197983	398.51	NaN	0.000000	0.001592	0.001768	28.0825	96.5702	0.001897	50917.8	7.631487	169.983	401.16	1.180704	0.097367	0.097064	398.51	50917.8	0.091498	0.262369	1518.89	90821
446	2.000000	1.182890	7.36943e+06	-54789.1	1005.82	-29743	0.000000	0.000000	7.200743	419.848	NaN	0.000000	0.001550	0.001767	28.0827	96.341	0.001731	55656.5	6.480585	170.557	416.507	1.182535	0.099250	0.098895	419.848	55656.5	0.093592	0.273087	1537.41	97305.7
446	2.000000	1.184899	7.36943e+06	-54789.1	1005.82	-29743	0.000000	0.000000	7.202742	419.597	NaN	0.000000	0.001653	0.001724	28.0827	97.9839	0.001744	56167.6	2.007166	174.127	416.328	1.184757	0.101259	0.101117	419.597	56167.6	0.095656	0.283845	1478.26	96320.4
446	2.000000	1.187002	7.36943e+06	-54789.1	1005.82	-29743	0.000000	0.000000	7.205603	438.036	NaN	0.000000	0.001593	0.001767	28.0826	100.104	0.001752	57140.5	2.183088	174.297	437.28	1.186757	0.103362	0.103117	438.036	57140.5	0.097612	0.294220	1488.8	96245.8
446	2.000000	1.188795	7.36943e+06	-54789.1	1005.82	-29743	0.000000	0.000000	7.207705	445.55	NaN	0.000000	0.001606	0.001779	28.0827	101.369	0.001847	54889.5	2.330279	173.874	437.122	1.188687	0.105155	0.105047	445.55	54889.5	0.099067	0.302047	1475.1	91248.4
446	2.000000	1.191074	7.36943e+06	-54789.1	1005.82	-29743	0.000000	0.000000	7.211077	472.121	NaN	0.000000	0.001613	0.001784	28.0816	104.65	0.001717	60948.5	6.731020	169.634	480.779	1.190718	0.107434	0.107078	472.121	60948.5	0.101624	0.316041	1493.86	99052.3
446	2.000000	1.192366	7.36943e+06	-54789.1	1005.82	-29743	0.000000	0.000000	7.213098	489.826	NaN	0.000000	0.001578	0.001779	28.0814	104.134	0.001863	55890.5	4.154993	-6.451245	483.726	1.192015	0.108726	0.108375	489.826	55890.5	0.102153	0.318975	1535.63	90413.5