File: remote_trans/data/nanoindenter/0828-1/data/Data_2025-08-06,11h17m57s/2025-07-22_16-23-58_1_61.txt
2025-07-22, 16:23:58, 1
Index	Phase	Displacement	Time	Pos X	Pos Y	Pos Z	Rot A	Rot B	Piezo Z	Force A	Force B	Gripper	Voltage A	Voltage B	Temperature	Amplitude force	Amplitude pos	Stiffness	Phase shift	Phase excitation	Force A raw	Displacement raw	HMax	HMax raw	Real Force	Real Stiffness	Contact Depth	Area	Hardness	Reduced Mod.
[#]	[#]	[um]	[s]	[um]	[um]	[um]	[m°]	[m°]	[um]	[uN]	[uN]	[V]	[V]	[V]	[°C]	[uN]	[um]	[N/m]	[°]	[°]	[uN]	[um]	[um]	[um]	[uN]	[N/m]	[um]	[um^2]	[MPa]	[MPa]
61	1.000000	0.002752	7.36564e+06	-41689.1	955.819	-29786	0.000000	0.000000	6.002778	0.018328	NaN	0.000000	0.001584	0.001674	28.0973	0.105192	0.000945	111.369	-168.565	-168.564	-0.060334	0.001555	-1.087154	-1.088351	0.018328	111.369	-1.087277	-3.382597E+14	-5.418334E-17	NaN
61	1.000000	0.010779	7.36564e+06	-41689.1	955.819	-29786	0.000000	0.000000	6.010804	0.010049	NaN	0.000000	0.001591	0.001650	28.0967	0.152737	0.001111	137.514	32.7658	-168.814	0.047962	0.009452	-1.079127	-1.080454	0.010049	137.514	-1.079182	-2.633514E+14	-3.815639E-17	NaN
61	1.000000	0.018749	7.36564e+06	-41689.1	955.819	-29786	0.000000	0.000000	6.018776	0.053458	NaN	0.000000	0.001645	0.001671	28.0971	0.043852	0.001714	25.5772	1.082313	-168.747	0.002260	0.017469	-1.071157	-1.072437	0.053458	25.5772	-1.072725	-2.156742E+14	-2.478624E-16	NaN
61	1.000000	0.026759	7.36564e+06	-41689.1	955.818	-29786	0.000000	0.000000	6.026785	0.009350	NaN	0.000000	0.001656	0.001656	28.0982	0.069673	0.001799	38.7265	-52.1459	-161.2	0.022119	0.025451	-1.063147	-1.064455	0.009350	38.7265	-1.063328	-1.612656E+14	-5.797914E-17	NaN
61	1.000000	0.034747	7.36564e+06	-41689.1	955.819	-29786	0.000000	0.000000	6.034773	0.018770	NaN	0.000000	0.001672	0.001666	28.0975	0.156235	0.001859	84.0538	-104.309	-161.692	0.032938	0.033387	-1.055159	-1.056519	0.018770	84.0538	-1.055326	-1.258950E+14	-1.490941E-16	NaN
61	1.000000	0.042727	7.36564e+06	-41689.1	955.817	-29786	0.000000	0.000000	6.042756	0.093329	NaN	0.000000	0.001655	0.001634	28.0983	0.050971	0.001904	26.7699	54.5897	-167.389	-0.007508	0.041431	-1.047179	-1.048475	0.093329	26.7699	-1.049794	-1.060820E+14	-8.797774E-16	NaN
61	1.000000	0.050750	7.36564e+06	-41689.1	955.819	-29786	0.000000	0.000000	6.050777	0.050437	NaN	0.000000	0.001683	0.001628	28.0993	0.103552	0.001876	55.1896	0.537855	-160.75	0.031564	0.049393	-1.039156	-1.040513	0.050437	55.1896	-1.039842	-7.795392E+13	-6.470054E-16	NaN
61	1.000000	0.058714	7.36564e+06	-41689.1	955.819	-29786	0.000000	0.000000	6.058740	0.017905	NaN	0.000000	0.001660	0.001648	28.0984	0.048160	0.002016	23.8898	116.389	-164.123	0.030510	0.057440	-1.031192	-1.032466	0.017905	23.8898	-1.031754	-6.068371E+13	-2.950493E-16	NaN
61	1.000000	0.066733	7.36564e+06	-41689.1	955.819	-29786	0.000000	0.000000	6.066761	0.071324	NaN	0.000000	0.001671	0.001671	28.0991	0.040887	0.001963	20.8325	165.357	-163.03	0.074902	0.065416	-1.023173	-1.024491	0.071324	20.8325	-1.025741	-5.037228E+13	-1.415938E-15	NaN
61	1.000000	0.074747	7.36564e+06	-41689.1	955.818	-29786	0.000000	0.000000	6.074772	0.016958	NaN	0.000000	0.001647	0.001652	28.0976	0.100292	0.002077	48.2885	129.006	-165.501	0.012360	0.073445	-1.015160	-1.016462	0.016958	48.2885	-1.015423	-3.659023E+13	-4.634587E-16	NaN
61	1.000000	0.082736	7.36564e+06	-41689.1	955.819	-29786	0.000000	0.000000	6.082761	0.013343	NaN	0.000000	0.001657	0.001661	28.0991	0.021333	0.001903	11.209	-154.981	-168.401	0.075721	0.081414	-1.007170	-1.008492	0.013343	11.209	-1.008063	-2.912792E+13	-4.580863E-16	NaN
61	1.000000	0.090722	7.36564e+06	-41689.1	955.818	-29786	0.000000	0.000000	6.090748	0.032768	NaN	0.000000	0.001664	0.001692	28.0983	0.073696	0.001982	37.1818	-117.137	-163.299	-0.029830	0.089489	-0.999184	-1.000417	0.032768	37.1818	-0.999845	-2.257796E+13	-1.451316E-15	NaN
61	1.000000	0.098742	7.36564e+06	-41689.1	955.818	-29786	0.000000	0.000000	6.098769	0.049029	NaN	0.000000	0.001674	0.001708	28.099	0.071138	0.001885	37.7362	-76.3715	-164.351	0.036647	0.097421	-0.991164	-0.992485	0.049029	37.7362	-0.992139	-1.777929E+13	-2.757667E-15	NaN
61	1.000000	0.106766	7.36564e+06	-41689.1	955.818	-29786	0.000000	0.000000	6.106794	0.071043	NaN	0.000000	0.001687	0.001678	28.1002	0.049173	0.001983	24.7979	128.35	-159.975	0.098554	0.105454	-0.983140	-0.984452	0.071043	24.7979	-0.985289	-1.437650E+13	-4.941618E-15	NaN
61	1.000000	0.114730	7.36564e+06	-41689.1	955.819	-29786	0.000000	0.000000	6.114757	0.036378	NaN	0.000000	0.001679	0.001677	28.0997	0.108273	0.002022	53.546	-34.0176	-165.602	0.011567	0.113431	-0.975176	-0.976475	0.036378	53.546	-0.975685	-1.067281E+13	-3.408471E-15	NaN
61	1.000000	0.122761	7.36564e+06	-41689.1	955.817	-29786	0.000000	0.000000	6.122786	0.017978	NaN	0.000000	0.001674	0.001691	28.0992	0.074913	0.002042	36.6901	-51.4718	-167.227	0.091759	0.121460	-0.967146	-0.968446	0.017978	36.6901	-0.967513	-8.282189E+12	-2.170740E-15	NaN
61	1.000000	0.130758	7.36564e+06	-41689.1	955.818	-29786	0.000000	0.000000	6.130784	0.051056	NaN	0.000000	0.001697	0.001700	28.0994	0.064246	0.002131	30.1532	163.344	-165.338	-0.018271	0.129471	-0.959149	-0.960436	0.051056	30.1532	-0.960419	-6.645254E+12	-7.683138E-15	NaN
61	1.000000	0.138766	7.36564e+06	-41689.1	955.818	-29786	0.000000	0.000000	6.138790	-0.017508	NaN	0.000000	0.001644	0.001686	28.0997	0.049252	0.001882	26.1754	-152.125	-160.873	0.060068	0.137458	-0.951140	-0.952448	-0.017508	26.1754	-0.950639	-4.905001E+12	3.569364E-15	NaN
61	1.000000	0.146804	7.36564e+06	-41689.1	955.819	-29786	0.000000	0.000000	6.146831	0.045331	NaN	0.000000	0.001671	0.001635	28.0984	0.137559	0.002083	66.0481	-25.1243	-165.651	0.056765	0.145471	-0.943102	-0.944435	0.045331	66.0481	-0.943617	-3.943951E+12	-1.149386E-14	NaN
61	1.000000	0.154789	7.36564e+06	-41689.1	955.818	-29786	0.000000	0.000000	6.154815	0.030976	NaN	0.000000	0.001656	0.001656	28.0989	0.100274	0.002114	47.4378	-108.468	-165.787	-0.003690	0.153434	-0.935118	-0.936473	0.030976	47.4378	-0.935607	-3.075179E+12	-1.007284E-14	NaN
61	1.000000	0.162811	7.36564e+06	-41689.1	955.817	-29786	0.000000	0.000000	6.162834	-0.026728	NaN	0.000000	0.001659	0.001633	28.0983	0.173664	0.002107	82.417	-122.39	-165.486	-0.014828	0.161465	-0.927095	-0.928441	-0.026728	82.417	-0.926852	-2.342669E+12	1.140901E-14	NaN
61	1.000000	0.170795	7.36564e+06	-41689.1	955.817	-29786	0.000000	0.000000	6.170819	-0.010713	NaN	0.000000	0.001697	0.001642	28.0984	0.047016	0.002015	23.3321	46.3822	-165.17	-0.008074	0.169469	-0.919112	-0.920437	-0.010713	23.3321	-0.918767	-1.822054E+12	5.879372E-15	NaN
61	1.000000	0.178788	7.36564e+06	-41689.1	955.818	-29786	0.000000	0.000000	6.178813	-0.004621	NaN	0.000000	0.001666	0.001633	28.0977	0.035006	0.001914	18.2904	62.4554	-162.739	0.041109	0.177475	-0.911118	-0.912431	-0.004621	18.2904	-0.910928	-1.427918E+12	3.235956E-15	NaN
61	1.000000	0.186809	7.36564e+06	-41689.1	955.819	-29786	0.000000	0.000000	6.186835	0.047877	NaN	0.000000	0.001685	0.001676	28.0996	0.066698	0.002040	32.703	66.7551	-163.633	0.008127	0.185474	-0.903098	-0.904432	0.047877	32.703	-0.904196	-1.158121E+12	-4.134025E-14	NaN
61	1.000000	0.194781	7.36564e+06	-41689.1	955.817	-29786	0.000000	0.000000	6.194808	0.069523	NaN	0.000000	0.001666	0.001651	28.0986	0.062837	0.002056	30.5583	129.64	-161.614	0.043002	0.193465	-0.895125	-0.896441	0.069523	30.5583	-0.896832	-9.209834E+11	-7.548747E-14	NaN
61	1.000000	0.202774	7.36564e+06	-41689.1	955.818	-29786	0.000000	0.000000	6.202800	0.030874	NaN	0.000000	0.001611	0.001668	28.0982	0.078157	0.001996	39.1582	-83.9897	-162.093	0.062854	0.201448	-0.887132	-0.888458	0.030874	39.1582	-0.887723	-6.936439E+11	-4.450983E-14	NaN
61	1.000000	0.210790	7.36564e+06	-41689.1	955.819	-29786	0.000000	0.000000	6.210814	-0.013283	NaN	0.000000	0.001674	0.001650	28.0978	0.111287	0.001961	56.7356	71.5764	-165.337	-0.021156	0.209470	-0.879116	-0.880436	-0.013283	56.7356	-0.878941	-5.276939E+11	2.517108E-14	NaN
61	1.000000	0.218776	7.36564e+06	-41689.1	955.818	-29786	0.000000	0.000000	6.218800	-0.024543	NaN	0.000000	0.001605	0.001660	28.0972	0.014701	0.002004	7.334925	-52.7704	-167.379	0.029136	0.217499	-0.871130	-0.872407	-0.024543	7.334925	-0.868621	-3.826318E+11	6.414255E-14	NaN
61	1.000000	0.226806	7.36564e+06	-41689.1	955.818	-29786	0.000000	0.000000	6.226834	0.087575	NaN	0.000000	0.001632	0.001633	28.0967	0.058375	0.001994	29.2822	-119.164	-165.148	-0.049080	0.225482	-0.863100	-0.864424	0.087575	29.2822	-0.865343	-3.454905E+11	-2.534796E-13	NaN
61	1.000000	0.234801	7.36564e+06	-41689.1	955.817	-29786	0.000000	0.000000	6.234828	0.042248	NaN	0.000000	0.001642	0.001642	28.0961	0.055908	0.001975	28.3027	135.851	-164.286	0.026568	0.233484	-0.855105	-0.856422	0.042248	28.3027	-0.856224	-2.600237E+11	-1.624761E-13	NaN
61	1.000000	0.242785	7.36564e+06	-41689.1	955.819	-29786	0.000000	0.000000	6.242811	0.026288	NaN	0.000000	0.001677	0.001639	28.0965	0.058750	0.002030	28.9365	119.414	-164.913	0.024337	0.241496	-0.847121	-0.848410	0.026288	28.9365	-0.847802	-1.999757E+11	-1.314553E-13	NaN
61	1.000000	0.250811	7.36564e+06	-41689.1	955.819	-29786	0.000000	0.000000	6.250834	-0.024570	NaN	0.000000	0.001674	0.001664	28.0964	0.065706	0.002017	32.5719	-173.652	-163.625	-0.052748	0.249498	-0.839096	-0.840408	-0.024570	32.5719	-0.838530	-1.497535E+11	1.640703E-13	NaN
61	1.000000	0.258821	7.36564e+06	-41689.1	955.819	-29786	0.000000	0.000000	6.258848	0.042933	NaN	0.000000	0.001672	0.001659	28.0969	0.045885	0.001942	23.6281	32.1999	-166.502	0.034884	0.257562	-0.831085	-0.832344	0.042933	23.6281	-0.832448	-1.238690E+11	-3.466009E-13	NaN
61	1.000000	0.266816	7.36564e+06	-41689.1	955.818	-29786	0.000000	0.000000	6.266843	0.044704	NaN	0.000000	0.001661	0.001631	28.0972	0.042897	0.002067	20.7561	103.508	-163.979	0.038615	0.265516	-0.823090	-0.824391	0.044704	20.7561	-0.824705	-9.727697E+10	-4.595501E-13	NaN
61	1.000000	0.274810	7.36564e+06	-41689.1	955.818	-29786	0.000000	0.000000	6.274836	0.039171	NaN	0.000000	0.001680	0.001652	28.0977	0.020815	0.002115	9.840943	-43.8257	-165.04	0.003292	0.273566	-0.815097	-0.816341	0.039171	9.840943	-0.818082	-7.910447E+10	-4.951843E-13	NaN
61	1.000000	0.282814	7.36564e+06	-41689.1	955.818	-29786	0.000000	0.000000	6.282840	0.031030	NaN	0.000000	0.001687	0.001655	28.0975	0.039064	0.001886	20.7105	12.3749	-162.894	-0.025724	0.281550	-0.807092	-0.808356	0.031030	20.7105	-0.808216	-5.812559E+10	-5.338487E-13	NaN
61	1.000000	0.290809	7.36564e+06	-41689.1	955.819	-29786	0.000000	0.000000	6.290835	0.021588	NaN	0.000000	0.001686	0.001697	28.0975	0.104994	0.001944	54.002	176.102	-164.769	0.030416	0.289535	-0.799097	-0.800371	0.021588	54.002	-0.799397	-4.412404E+10	-4.892616E-13	NaN
61	1.000000	0.298832	7.36564e+06	-41689.1	955.818	-29786	0.000000	0.000000	6.298854	-0.063505	NaN	0.000000	0.001677	0.001710	28.0971	0.035772	0.002047	17.4715	108.315	-165.935	-0.039039	0.297532	-0.791074	-0.792374	-0.063505	17.4715	-0.788348	-3.123543E+10	2.033108E-12	NaN
61	1.000000	0.306831	7.36564e+06	-41689.1	955.818	-29786	0.000000	0.000000	6.306858	0.047730	NaN	0.000000	0.001665	0.001691	28.0957	0.053125	0.002066	25.7193	33.1296	-163.547	0.093963	0.305523	-0.783075	-0.784383	0.047730	25.7193	-0.784467	-2.766485E+10	-1.725308E-12	NaN
61	1.000000	0.314851	7.36564e+06	-41689.1	955.818	-29786	0.000000	0.000000	6.314875	-0.002921	NaN	0.000000	0.001667	0.001691	28.0971	0.093305	0.001917	48.6627	-124.28	-161.639	0.005536	0.313495	-0.775056	-0.776412	-0.002921	48.6627	-0.775011	-2.057890E+10	1.419177E-13	NaN
61	1.000000	0.322845	7.36564e+06	-41689.1	955.818	-29786	0.000000	0.000000	6.322872	0.053891	NaN	0.000000	0.001655	0.001693	28.096	0.067437	0.001989	33.9063	-128.07	-167.311	0.021659	0.321532	-0.767061	-0.768374	0.053891	33.9063	-0.768253	-1.665519E+10	-3.235675E-12	NaN
61	1.000000	0.330835	7.36564e+06	-41689.1	955.818	-29786	0.000000	0.000000	6.330860	-0.009176	NaN	0.000000	0.001681	0.001726	28.0955	0.029351	0.002105	13.9469	23.3799	-166.42	-0.027928	0.329539	-0.759071	-0.760368	-0.009176	13.9469	-0.758578	-1.230131E+10	7.459195E-13	NaN
61	1.000000	0.338852	7.36564e+06	-41689.1	955.818	-29786	0.000000	0.000000	6.338878	0.026249	NaN	0.000000	0.001600	0.001705	28.0968	0.096190	0.002034	47.2991	161.314	-167.796	0.003841	0.337503	-0.751054	-0.752403	0.026249	47.2991	-0.751470	-9.845446E+9	-2.666075E-12	NaN
61	1.000000	0.346812	7.36564e+06	-41689.1	955.818	-29786	0.000000	0.000000	6.346835	-0.027071	NaN	0.000000	0.001610	0.001716	28.0988	0.053541	0.002054	26.0664	173.867	-163.569	-0.034465	0.345583	-0.743095	-0.744323	-0.027071	26.0664	-0.742316	-7.389152E+9	3.663548E-12	NaN
61	1.000000	0.354851	7.36564e+06	-41689.1	955.818	-29786	0.000000	0.000000	6.354880	0.100287	NaN	0.000000	0.001587	0.001723	28.0987	0.054971	0.001969	27.9185	-165.701	-165.943	0.050873	0.353560	-0.735055	-0.736346	0.100287	27.9185	-0.737750	-6.403265E+9	-1.566188E-11	NaN
61	1.000000	0.362849	7.36564e+06	-41689.1	955.818	-29786	0.000000	0.000000	6.362872	-0.023033	NaN	0.000000	0.001611	0.001781	28.0984	0.046838	0.002008	23.3235	169.953	-165.203	0.030630	0.361605	-0.727058	-0.728301	-0.023033	23.3235	-0.726317	-4.473077E+9	5.149181E-12	NaN
61	1.000000	0.370860	7.36564e+06	-41689.1	955.819	-29786	0.000000	0.000000	6.370886	0.035748	NaN	0.000000	0.001585	0.001723	28.0982	0.098074	0.001973	49.702	-154.967	-164.612	0.017931	0.369518	-0.719046	-0.720388	0.035748	49.702	-0.719586	-3.620950E+9	-9.872589E-12	NaN
61	1.000000	0.378876	7.36564e+06	-41689.1	955.819	-29786	0.000000	0.000000	6.378905	0.081674	NaN	0.000000	0.001596	0.001754	28.099	0.096389	0.001881	51.2373	141.43	-164.805	0.098717	0.377531	-0.711030	-0.712376	0.081674	51.2373	-0.712225	-2.873528E+9	-2.842304E-11	NaN
61	1.000000	0.386833	7.36564e+06	-41689.1	955.818	-29786	0.000000	0.000000	6.386861	0.076625	NaN	0.000000	0.001601	0.001720	28.0973	0.063006	0.002023	31.1382	20.8813	-166.053	0.066749	0.385559	-0.703073	-0.704347	0.076625	31.1382	-0.704919	-2.283994E+9	-3.354855E-11	NaN
61	1.000000	0.394895	7.36564e+06	-41689.1	955.818	-29786	0.000000	0.000000	6.394921	0.020896	NaN	0.000000	0.001628	0.001708	28.0977	0.054472	0.002101	25.9317	-102.23	-168.136	0.043223	0.393539	-0.695011	-0.696367	0.020896	25.9317	-0.695615	-1.704687E+9	-1.225808E-11	NaN
61	1.000000	0.402898	7.36564e+06	-41689.1	955.819	-29786	0.000000	0.000000	6.402922	-0.003926	NaN	0.000000	0.001619	0.001677	28.0972	0.081112	0.002002	40.5102	-159.997	-164.369	0.046262	0.401526	-0.687008	-0.688380	-0.003926	40.5102	-0.686936	-1.297289E+9	3.026573E-12	NaN
61	1.000000	0.410854	7.36564e+06	-41689.1	955.819	-29786	0.000000	0.000000	6.410880	0.035259	NaN	0.000000	0.001599	0.001716	28.0971	0.013193	0.001923	6.860400	76.7086	-162.488	-0.026671	0.409533	-0.679052	-0.680373	0.035259	6.860400	-0.682907	-1.142759E+9	-3.085418E-11	NaN
61	1.000000	0.418886	7.36564e+06	-41689.1	955.819	-29786	0.000000	0.000000	6.418914	0.072993	NaN	0.000000	0.001611	0.001719	28.0977	0.028784	0.001876	15.3421	-119.13	-164.54	0.115858	0.417571	-0.671020	-0.672335	0.072993	15.3421	-0.674588	-8.793868E+8	-8.300489E-11	NaN
61	1.000000	0.426914	7.36564e+06	-41689.1	955.818	-29786	0.000000	0.000000	6.426941	0.055808	NaN	0.000000	0.001617	0.001777	28.0984	0.042274	0.001934	21.8535	-151.549	-167.125	0.115937	0.425627	-0.662992	-0.664279	0.055808	21.8535	-0.664907	-6.481443E+8	-8.610397E-11	NaN
61	1.000000	0.434851	7.36564e+06	-41689.1	955.818	-29786	0.000000	0.000000	6.434876	0.019275	NaN	0.000000	0.001596	0.001754	28.0978	0.049495	0.002071	23.9014	152.89	-167.351	0.037945	0.433544	-0.655055	-0.656362	0.019275	23.9014	-0.655660	-4.841855E+8	-3.980832E-11	NaN
61	1.000000	0.442907	7.36564e+06	-41689.1	955.819	-29786	0.000000	0.000000	6.442932	-0.004204	NaN	0.000000	0.001614	0.001795	28.0981	0.014398	0.002007	7.174447	-84.4151	-166.478	0.031788	0.441581	-0.646999	-0.648325	-0.004204	7.174447	-0.646560	-3.632996E+8	1.157150E-11	NaN
61	1.000000	0.450888	7.36564e+06	-41689.1	955.819	-29786	0.000000	0.000000	6.450914	0.011162	NaN	0.000000	0.001586	0.001790	28.0977	0.085976	0.001946	44.1745	61.5666	-165.514	0.028618	0.449600	-0.639018	-0.640306	0.011162	44.1745	-0.639207	-2.880144E+8	-3.875343E-11	NaN
61	1.000000	0.458897	7.36564e+06	-41689.1	955.819	-29786	0.000000	0.000000	6.458924	0.062353	NaN	0.000000	0.001600	0.001793	28.0989	0.058840	0.002002	29.3962	-117.301	-163.085	0.014917	0.457630	-0.631009	-0.632277	0.062353	29.3962	-0.632600	-2.337361E+8	-2.667680E-10	NaN
61	1.000000	0.466925	7.36564e+06	-41689.1	955.818	-29786	0.000000	0.000000	6.466953	0.068326	NaN	0.000000	0.001562	0.001760	28.0963	0.042634	0.002026	21.0424	-126.957	-165.229	-0.011096	0.465625	-0.622981	-0.624281	0.068326	21.0424	-0.625416	-1.862372E+8	-3.668768E-10	NaN
61	1.000000	0.474902	7.36564e+06	-41689.1	955.818	-29786	0.000000	0.000000	6.474926	-0.018871	NaN	0.000000	0.001604	0.001759	28.0951	0.074575	0.002157	34.577	-70.3857	-164.294	-0.024794	0.473642	-0.615004	-0.616264	-0.018871	34.577	-0.614595	-1.322260E+8	1.427190E-10	NaN
61	1.000000	0.482932	7.36564e+06	-41689.1	955.819	-29786	0.000000	0.000000	6.482957	0.019371	NaN	0.000000	0.001618	0.001739	28.0964	0.077616	0.001978	39.2336	-119.716	-164.993	0.061717	0.481626	-0.606974	-0.608280	0.019371	39.2336	-0.607345	-1.050932E+8	-1.843181E-10	NaN
61	1.000000	0.490927	7.36564e+06	-41689.1	955.818	-29786	0.000000	0.000000	6.490950	-0.042607	NaN	0.000000	0.001604	0.001737	28.096	0.083599	0.001913	43.6929	16.1422	-164.755	-0.031309	0.489544	-0.598979	-0.600362	-0.042607	43.6929	-0.598248	-7.876422E+7	5.409496E-10	NaN
61	1.000000	0.498936	7.36564e+06	-41689.1	955.819	-29786	0.000000	0.000000	6.498963	0.065426	NaN	0.000000	0.001586	0.001804	28.0954	0.082033	0.001934	42.4269	-155.532	-164.864	0.154399	0.497675	-0.590971	-0.592231	0.065426	42.4269	-0.592127	-6.486207E+7	-1.008695E-9	NaN
61	1.000000	0.506944	7.36564e+06	-41689.1	955.818	-29786	0.000000	0.000000	6.506969	-0.003076	NaN	0.000000	0.001593	0.001781	28.0957	0.057594	0.001970	29.2361	-148.95	-163.252	0.023995	0.505609	-0.582962	-0.584297	-0.003076	29.2361	-0.582883	-4.836324E+7	6.360215E-11	NaN
61	1.000000	0.514942	7.36564e+06	-41689.1	955.818	-29786	0.000000	0.000000	6.514966	-0.005548	NaN	0.000000	0.001584	0.001764	28.096	0.120311	0.002064	58.288	173.681	-161.412	0.008885	0.513603	-0.574965	-0.576303	-0.005548	58.288	-0.574893	-3.751672E+7	1.478684E-10	NaN
61	1.000000	0.522914	7.36564e+06	-41689.1	955.82	-29786	0.000000	0.000000	6.522941	0.065631	NaN	0.000000	0.001632	0.001756	28.0971	0.024924	0.002109	11.8151	-31.5399	-162.574	0.028357	0.521624	-0.566993	-0.568282	0.065631	11.8151	-0.571159	-3.331505E+7	-1.970022E-9	NaN
61	1.000000	0.530925	7.36564e+06	-41689.1	955.82	-29786	0.000000	0.000000	6.530950	0.017838	NaN	0.000000	0.001617	0.001775	28.0952	0.022580	0.001915	11.7935	-69.3651	-165.21	0.084366	0.529619	-0.558981	-0.560287	0.017838	11.7935	-0.560116	-2.344114E+7	-7.609489E-10	NaN
61	1.000000	0.538948	7.36564e+06	-41689.1	955.818	-29786	0.000000	0.000000	6.538973	-0.003974	NaN	0.000000	0.001629	0.001742	28.0966	0.022805	0.002049	11.1308	4.487422	-166.27	-0.051109	0.537684	-0.550958	-0.552223	-0.003974	11.1308	-0.550690	-1.735851E+7	2.289521E-10	NaN
61	1.000000	0.546922	7.36564e+06	-41689.1	955.818	-29786	0.000000	0.000000	6.546947	-0.004452	NaN	0.000000	0.001596	0.001758	28.0956	0.066520	0.001928	34.496	88.2775	-167.2	-0.000437	0.545620	-0.542984	-0.544286	-0.004452	34.496	-0.542887	-1.353297E+7	3.289903E-10	NaN
61	1.000000	0.554926	7.36564e+06	-41689.1	955.817	-29786	0.000000	0.000000	6.554952	0.030692	NaN	0.000000	0.001609	0.001759	28.0946	0.065084	0.001747	37.2509	66.5817	-165.083	0.010579	0.553695	-0.534980	-0.536211	0.030692	37.2509	-0.535598	-1.072241E+7	-2.862391E-9	NaN
61	1.000000	0.562955	7.36564e+06	-41689.1	955.818	-29786	0.000000	0.000000	6.562981	0.044088	NaN	0.000000	0.001613	0.001760	28.0939	0.063683	0.002016	31.5816	90.0258	-164.793	-0.032855	0.561621	-0.526951	-0.528286	0.044088	31.5816	-0.527998	-8.40957e+06	-5.242643E-9	NaN
61	1.000000	0.570913	7.36564e+06	-41689.1	955.818	-29786	0.000000	0.000000	6.570940	0.056452	NaN	0.000000	0.001620	0.001752	28.0951	0.072603	0.002056	35.3113	-165.476	-164.779	0.027145	0.569658	-0.518993	-0.520248	0.056452	35.3113	-0.520192	-6.55036e+06	-8.618136E-9	NaN
61	1.000000	0.578921	7.36564e+06	-41689.1	955.818	-29786	0.000000	0.000000	6.578947	0.033900	NaN	0.000000	0.001613	0.001764	28.0943	0.100372	0.002001	50.1595	-2.126798	-166.775	0.097667	0.577654	-0.510985	-0.512252	0.033900	50.1595	-0.511492	-4.95669e+06	-6.839263E-9	NaN
61	1.000000	0.586955	7.36564e+06	-41689.1	955.819	-29786	0.000000	0.000000	6.586981	0.034943	NaN	0.000000	0.001600	0.001770	28.0962	0.019361	0.002052	9.435292	126.611	-167.848	0.004217	0.585630	-0.502951	-0.504276	0.034943	9.435292	-0.505729	-4.12006e+06	-8.481060E-9	NaN
61	1.000000	0.594943	7.36564e+06	-41689.1	955.818	-29786	0.000000	0.000000	6.594967	-0.029466	NaN	0.000000	0.001590	0.001731	28.0954	0.109912	0.002111	52.0641	-179.576	-167.876	-0.036875	0.593632	-0.494963	-0.496274	-0.029466	52.0641	-0.494538	-2.876e+06	1.024544E-8	NaN
61	1.000000	0.602941	7.36564e+06	-41689.1	955.819	-29786	0.000000	0.000000	6.602968	0.054052	NaN	0.000000	0.001672	0.001719	28.0959	0.008249	0.001912	4.314960	-87.7492	-163.228	0.038721	0.601665	-0.486965	-0.488241	0.054052	4.314960	-0.496360	-3.04943e+06	-1.772510E-8	NaN
61	1.000000	0.610975	7.36564e+06	-41689.1	955.819	-29786	0.000000	0.000000	6.611001	0.036771	NaN	0.000000	0.001675	0.001764	28.0973	0.072273	0.001905	37.933	75.0633	-164.668	-0.030061	0.609680	-0.478931	-0.480226	0.036771	37.933	-0.479658	-1.78132e+06	-2.064262E-8	NaN
61	1.000000	0.618949	7.36564e+06	-41689.1	955.818	-29786	0.000000	0.000000	6.618976	0.065741	NaN	0.000000	0.001675	0.001757	28.0966	0.093028	0.002031	45.8059	-129.346	-164.444	0.002240	0.617629	-0.470958	-0.472277	0.065741	45.8059	-0.472034	-1.39294e+06	-4.719582E-8	NaN
61	1.000000	0.626967	7.36564e+06	-41689.1	955.818	-29786	0.000000	0.000000	6.626995	0.061614	NaN	0.000000	0.001700	0.001713	28.0958	0.118041	0.001969	59.9459	3.777666	-166.235	0.157185	0.625687	-0.462939	-0.464220	0.061614	59.9459	-0.463710	-1.06447e+06	-5.788266E-8	NaN
61	1.000000	0.634983	7.36564e+06	-41689.1	955.819	-29786	0.000000	0.000000	6.635010	0.032664	NaN	0.000000	0.001665	0.001708	28.0957	0.020479	0.001987	10.3083	-87.8007	-163.807	0.042929	0.633699	-0.454923	-0.456207	0.032664	10.3083	-0.457299	-865077	-3.775802E-8	NaN
61	1.000000	0.642984	7.36564e+06	-41689.1	955.818	-29786	0.000000	0.000000	6.643009	0.001201	NaN	0.000000	0.001670	0.001708	28.0956	0.045570	0.002040	22.341	-13.6948	-166.915	0.036009	0.641680	-0.446922	-0.448227	0.001201	22.341	-0.446962	-618804	-1.940271E-9	NaN
61	1.000000	0.650987	7.36564e+06	-41689.1	955.818	-29786	0.000000	0.000000	6.651014	0.050830	NaN	0.000000	0.001600	0.001731	28.0954	0.052053	0.001939	26.8522	-163.893	-163.768	-0.012965	0.649690	-0.438919	-0.440216	0.050830	26.8522	-0.440339	-499052	-1.018527E-7	NaN
61	1.000000	0.658967	7.36564e+06	-41689.1	955.818	-29786	0.000000	0.000000	6.658993	0.048681	NaN	0.000000	0.001621	0.001741	28.0958	0.078652	0.001973	39.8732	42.6995	-161.861	0.072624	0.657664	-0.430940	-0.432242	0.048681	39.8732	-0.431855	-378705	-1.285471E-7	NaN
61	1.000000	0.666994	7.36564e+06	-41689.1	955.819	-29786	0.000000	0.000000	6.667022	0.087726	NaN	0.000000	0.001619	0.001749	28.0973	0.067884	0.002112	32.1362	-98.2348	-162.203	0.095960	0.665683	-0.422912	-0.424223	0.087726	32.1362	-0.424960	-302489	-2.900122E-7	NaN
61	1.000000	0.674989	7.36564e+06	-41689.1	955.819	-29786	0.000000	0.000000	6.675015	0.008551	NaN	0.000000	0.001644	0.001733	28.0968	0.121761	0.002028	60.0312	-63.1189	-164.659	0.005522	0.673688	-0.414917	-0.416218	0.008551	60.0312	-0.415024	-218671	-3.910562E-8	NaN
61	1.000000	0.683014	7.36564e+06	-41689.1	955.819	-29786	0.000000	0.000000	6.683039	0.017602	NaN	0.000000	0.001632	0.001717	28.0965	0.068927	0.002038	33.8125	173.602	-166.699	-0.019308	0.681706	-0.406893	-0.408201	0.017602	33.8125	-0.407283	-169726	-1.037100E-7	NaN
61	1.000000	0.691007	7.36564e+06	-41689.1	955.819	-29786	0.000000	0.000000	6.691034	0.046441	NaN	0.000000	0.001608	0.001726	28.0968	0.042683	0.002141	19.9405	3.147476	-162.994	0.009600	0.689698	-0.398899	-0.400208	0.046441	19.9405	-0.400646	-136522	-3.401754E-7	NaN
61	1.000000	0.698968	7.36564e+06	-41689.1	955.818	-29786	0.000000	0.000000	6.698994	0.043421	NaN	0.000000	0.001624	0.001734	28.0963	0.126926	0.002067	61.3956	-117.762	-165.655	0.085875	0.697661	-0.390939	-0.392245	0.043421	61.3956	-0.391469	-100966	-4.300560E-7	NaN
61	1.000000	0.707007	7.36564e+06	-41689.1	955.819	-29786	0.000000	0.000000	6.707034	0.044352	NaN	0.000000	0.001596	0.001732	28.0964	0.076559	0.002012	38.0565	-123.938	-163.117	0.044730	0.705641	-0.382899	-0.384265	0.044352	38.0565	-0.383773	-78343.5	-5.661283E-7	NaN
61	1.000000	0.715018	7.36564e+06	-41689.1	955.817	-29786	0.000000	0.000000	6.715044	0.031867	NaN	0.000000	0.001621	0.001740	28.0955	0.086906	0.002090	41.5905	-18.6127	-163.035	0.050447	0.713675	-0.374888	-0.376231	0.031867	41.5905	-0.375463	-59527.9	-5.353206E-7	NaN
61	1.000000	0.723001	7.36564e+06	-41689.1	955.819	-29786	0.000000	0.000000	6.723030	0.086566	NaN	0.000000	0.001622	0.001704	28.0966	0.067009	0.002071	32.362	168.148	-165.17	0.096929	0.721721	-0.366905	-0.368185	0.086566	32.362	-0.368911	-47911.6	-1.806793E-6	NaN
61	1.000000	0.731006	7.36564e+06	-41689.1	955.818	-29786	0.000000	0.000000	6.731031	0.011717	NaN	0.000000	0.001608	0.001716	28.0951	0.070030	0.001997	35.0651	-15.7968	-164.952	0.032147	0.729656	-0.358900	-0.360250	0.011717	35.0651	-0.359151	-34639.1	-3.382694E-7	NaN
61	1.000000	0.739012	7.36564e+06	-41689.1	955.819	-29786	0.000000	0.000000	6.739037	0.030443	NaN	0.000000	0.001571	0.001739	28.0955	0.018732	0.001916	9.774050	117.604	-164.023	-0.014832	0.737732	-0.350895	-0.352174	0.030443	9.774050	-0.353231	-28435.5	-1.070599E-6	NaN
61	1.000000	0.747013	7.36564e+06	-41689.1	955.82	-29786	0.000000	0.000000	6.747039	0.010998	NaN	0.000000	0.001572	0.001749	28.0948	0.117683	0.002042	57.6419	-51.6793	-164.69	0.052821	0.745692	-0.342893	-0.344214	0.010998	57.6419	-0.343036	-20219.9	-5.439160E-7	NaN
61	1.000000	0.755003	7.36564e+06	-41689.1	955.818	-29786	0.000000	0.000000	6.755030	0.073324	NaN	0.000000	0.001568	0.001752	28.0945	0.049246	0.001871	26.3145	-63.0674	-166.804	0.001009	0.753713	-0.334904	-0.336193	0.073324	26.3145	-0.336993	-16508.1	-4.441711E-6	NaN
61	1.000000	0.763045	7.36564e+06	-41689.1	955.818	-29786	0.000000	0.000000	6.763073	0.078288	NaN	0.000000	0.001608	0.001703	28.0951	0.105825	0.002065	51.249	-12.93	-166.305	0.092874	0.761706	-0.326861	-0.328201	0.078288	51.249	-0.328007	-12196.9	-6.418666E-6	NaN
61	1.000000	0.771026	7.36564e+06	-41689.1	955.818	-29786	0.000000	0.000000	6.771050	-0.019997	NaN	0.000000	0.001578	0.001721	28.0956	0.102470	0.002053	49.9013	146.13	-167.861	-0.054724	0.769751	-0.318880	-0.320155	-0.019997	49.9013	-0.318579	-8865.81	2.255487E-6	NaN
61	1.000000	0.779036	7.36564e+06	-41689.1	955.818	-29786	0.000000	0.000000	6.779060	-0.006638	NaN	0.000000	0.001581	0.001725	28.0955	0.105922	0.001990	53.2306	131.805	-164.66	0.086110	0.777688	-0.310870	-0.312219	-0.006638	53.2306	-0.310777	-6800.61	9.760912E-7	NaN
61	1.000000	0.787049	7.36564e+06	-41689.1	955.817	-29786	0.000000	0.000000	6.787073	-0.034706	NaN	0.000000	0.001591	0.001706	28.0939	0.064853	0.001927	33.6504	80.0086	-167.451	0.050423	0.785755	-0.302857	-0.304152	-0.034706	33.6504	-0.302083	-5053.96	6.867132E-6	NaN
61	1.000000	0.795058	7.36564e+06	-41689.1	955.818	-29786	0.000000	0.000000	6.795082	-0.007021	NaN	0.000000	0.001602	0.001728	28.0942	0.077632	0.002024	38.3584	-37.1038	-165.473	-0.004758	0.793718	-0.294849	-0.296188	-0.007021	38.3584	-0.294711	-3924.43	1.789073E-6	NaN
61	1.000000	0.803066	7.36564e+06	-41689.1	955.818	-29786	0.000000	0.000000	6.803092	0.027957	NaN	0.000000	0.001590	0.001726	28.095	0.072294	0.002028	35.6438	-43.9015	-165.252	-0.014071	0.801758	-0.286840	-0.288148	0.027957	35.6438	-0.287428	-3053.1	-9.157040E-6	NaN
61	1.000000	0.811045	7.36564e+06	-41689.1	955.818	-29786	0.000000	0.000000	6.811072	0.049610	NaN	0.000000	0.001576	0.001723	28.0943	0.040160	0.001948	20.6197	168.322	-164.39	0.087685	0.809742	-0.278861	-0.280164	0.049610	20.6197	-0.280666	-2415.52	-2.053786E-5	NaN
61	1.000000	0.819056	7.36564e+06	-41689.1	955.818	-29786	0.000000	0.000000	6.819086	0.146959	NaN	0.000000	0.001590	0.001732	28.0943	0.065258	0.001923	33.9381	-113.848	-165.287	0.241848	0.817771	-0.270851	-0.272135	0.146959	33.9381	-0.274098	-1921.95	-7.646371E-5	NaN
61	1.000000	0.827061	7.36564e+06	-41689.1	955.818	-29786	0.000000	0.000000	6.827089	0.057130	NaN	0.000000	0.001591	0.001752	28.095	0.100498	0.001954	51.439	113.903	-163.986	-0.001579	0.825724	-0.262845	-0.264182	0.057130	51.439	-0.263678	-1334.13	-4.282227E-5	NaN
61	1.000000	0.835040	7.36564e+06	-41689.1	955.818	-29786	0.000000	0.000000	6.835070	0.118564	NaN	0.000000	0.001601	0.001729	28.0953	0.058561	0.002016	29.055	-0.055759	-163.319	0.063517	0.833741	-0.254866	-0.256165	0.118564	29.055	-0.257927	-1089.2	-0.000109	NaN
61	1.000000	0.843057	7.36564e+06	-41689.1	955.818	-29786	0.000000	0.000000	6.843087	0.131443	NaN	0.000000	0.001598	0.001709	28.0949	0.036029	0.001902	18.9391	170.62	-160.866	0.082062	0.841753	-0.246849	-0.248154	0.131443	18.9391	-0.252054	-884.519	-0.000149	NaN
61	1.000000	0.851056	7.36564e+06	-41689.1	955.818	-29786	0.000000	0.000000	6.851081	0.004853	NaN	0.000000	0.001598	0.001729	28.0958	0.108983	0.001951	55.8617	162.37	-166.727	-0.013721	0.849760	-0.238850	-0.240146	0.004853	55.8617	-0.238915	-552.84	-8.778163E-6	NaN
61	1.000000	0.859048	7.36564e+06	-41689.1	955.819	-29786	0.000000	0.000000	6.859075	0.052142	NaN	0.000000	0.001600	0.001711	28.0954	0.115471	0.001956	59.0229	75.3909	-163.388	0.075465	0.857764	-0.230859	-0.232143	0.052142	59.0229	-0.231521	-423.171	-0.000123	NaN
61	1.000000	0.867077	7.36564e+06	-41689.1	955.818	-29786	0.000000	0.000000	6.867106	0.108171	NaN	0.000000	0.001594	0.001713	28.0931	0.039809	0.002011	19.7997	-154.525	-167.707	0.125065	0.865801	-0.222829	-0.224106	0.108171	19.7997	-0.226927	-358.015	-0.000302	NaN
61	1.000000	0.875087	7.36564e+06	-41689.1	955.818	-29786	0.000000	0.000000	6.875113	0.034175	NaN	0.000000	0.001604	0.001738	28.0952	0.030514	0.002014	15.1531	-9.280506	-164.044	0.051506	0.873755	-0.214819	-0.216151	0.034175	15.1531	-0.216511	-244.223	-0.000140	NaN
61	1.000000	0.883075	7.36564e+06	-41689.1	955.817	-29786	0.000000	0.000000	6.883102	0.049631	NaN	0.000000	0.001621	0.001719	28.0981	0.014658	0.002008	7.299367	-126.995	-167.837	0.067210	0.881793	-0.206831	-0.208113	0.049631	7.299367	-0.211930	-206.082	-0.000241	NaN
61	1.000000	0.891091	7.36564e+06	-41689.1	955.818	-29786	0.000000	0.000000	6.891115	-0.025433	NaN	0.000000	0.001605	0.001755	28.0973	0.006298	0.001886	3.340154	60.9097	-166.626	0.034699	0.889774	-0.198815	-0.200132	-0.025433	3.340154	-0.193104	-101.333	0.000251	NaN
61	1.000000	0.899088	7.36564e+06	-41689.1	955.819	-29786	0.000000	0.000000	6.899113	0.000948	NaN	0.000000	0.001606	0.001734	28.0949	0.071768	0.001941	36.9799	124.546	-168.135	0.037778	0.897802	-0.190818	-0.192104	0.000948	36.9799	-0.190837	-92.8973	-1.020004E-5	NaN
61	1.000000	0.907087	7.36564e+06	-41689.1	955.817	-29786	0.000000	0.000000	6.907113	0.043736	NaN	0.000000	0.001566	0.001707	28.0963	0.189460	0.002095	90.4199	70.5535	-166.791	0.036444	0.905754	-0.182820	-0.184152	0.043736	90.4199	-0.183182	-69.0951	-0.000633	NaN
61	1.000000	0.915101	7.36564e+06	-41689.1	955.819	-29786	0.000000	0.000000	6.915128	0.073697	NaN	0.000000	0.001612	0.001703	28.0959	0.102680	0.001946	52.7614	58.0815	-164.414	0.062356	0.913757	-0.174806	-0.176149	0.073697	52.7614	-0.175853	-51.8356	-0.001422	NaN
61	1.000000	0.923061	7.36564e+06	-41689.1	955.818	-29786	0.000000	0.000000	6.923088	0.039988	NaN	0.000000	0.001617	0.001734	28.0965	0.020950	0.002011	10.4198	-126.16	-165.184	0.020971	0.921797	-0.166845	-0.168109	0.039988	10.4198	-0.169723	-40.6261	-0.000984	NaN
61	1.000000	0.931086	7.36564e+06	-41689.1	955.818	-29786	0.000000	0.000000	6.931114	0.079125	NaN	0.000000	0.001619	0.001737	28.0962	0.103802	0.002119	48.9871	137.394	-164.864	0.041250	0.929728	-0.158820	-0.160178	0.079125	48.9871	-0.160032	-27.4506	-0.002882	NaN
61	1.000000	0.939064	7.36564e+06	-41689.1	955.818	-29786	0.000000	0.000000	6.939088	-0.011961	NaN	0.000000	0.001619	0.001753	28.0973	0.155467	0.002124	73.2077	127.114	-165.134	-7.022218E-5	0.937745	-0.150842	-0.152162	-0.011961	73.2077	-0.150720	-18.6689	0.000641	NaN
61	1.000000	0.947096	7.36564e+06	-41689.1	955.818	-29786	0.000000	0.000000	6.947122	0.030743	NaN	0.000000	0.001597	0.001728	28.0955	0.055862	0.001991	28.0584	-81.5031	-163.737	0.017934	0.945818	-0.142810	-0.144088	0.030743	28.0584	-0.143632	-13.8295	-0.002223	NaN
61	1.000000	0.955096	7.36564e+06	-41689.1	955.819	-29786	0.000000	0.000000	6.955121	-0.012371	NaN	0.000000	0.001620	0.001735	28.0944	0.022459	0.001954	11.4918	68.8532	-166.724	0.034294	0.953821	-0.134810	-0.136085	-0.012371	11.4918	-0.134002	-9.103620	0.001359	NaN
61	1.000000	0.963115	7.36564e+06	-41689.1	955.817	-29786	0.000000	0.000000	6.963139	0.000244	NaN	0.000000	0.001617	0.001707	28.095	0.044780	0.001980	22.6206	-116.375	-164.907	-0.001970	0.961812	-0.126792	-0.128094	0.000244	22.6206	-0.126800	-6.599058	-3.692999E-5	NaN
61	1.000000	0.971118	7.36564e+06	-41689.1	955.819	-29786	0.000000	0.000000	6.971142	-0.022727	NaN	0.000000	0.001596	0.001679	28.0959	0.072674	0.001990	36.5253	115.606	-165.188	-0.014645	0.969845	-0.118788	-0.120061	-0.022727	36.5253	-0.118322	-4.467752	0.005087	NaN
61	1.000000	0.979096	7.36564e+06	-41689.1	955.818	-29786	0.000000	0.000000	6.979119	-0.062388	NaN	0.000000	0.001619	0.001665	28.0947	0.056284	0.001993	28.2425	-128.258	-167.582	-0.067018	0.977802	-0.110810	-0.112104	-0.062388	28.2425	-0.109153	-2.883883	0.021633	NaN
61	1.000000	0.987105	7.36564e+06	-41689.1	955.819	-29786	0.000000	0.000000	6.987131	0.034106	NaN	0.000000	0.001616	0.001698	28.0961	0.042583	0.001948	21.857	-8.412975	-165.627	-0.001358	0.985849	-0.102801	-0.104057	0.034106	21.857	-0.103971	-2.233050	-0.015273	NaN
61	1.000000	0.995106	7.36564e+06	-41689.1	955.818	-29786	0.000000	0.000000	6.995132	0.036630	NaN	0.000000	0.001584	0.001665	28.0961	0.107500	0.001922	55.9299	-122.367	-161.147	0.027298	0.993800	-0.094800	-0.096107	0.036630	55.9299	-0.095292	-1.432362	-0.025573	NaN
61	1.000000	1.003114	7.36564e+06	-41689.1	955.819	-29786	0.000000	0.000000	7.003138	-0.016366	NaN	0.000000	0.001619	0.001658	28.096	0.039806	0.002041	19.5059	125.914	-164.543	0.057658	1.001812	-0.086793	-0.088095	-0.016366	19.5059	-0.086163	-0.876460	0.018672	NaN
61	1.000000	1.011148	7.36564e+06	-41689.1	955.818	-29786	0.000000	0.000000	7.011175	0.063999	NaN	0.000000	0.001645	0.001713	28.0961	0.167733	0.001983	84.577	105.957	-164.653	0.015351	1.009864	-0.078758	-0.080042	0.063999	84.577	-0.079326	-0.595370	-0.107495	NaN
61	1.000000	1.019102	7.36564e+06	-41689.1	955.818	-29786	0.000000	0.000000	7.019130	0.079055	NaN	0.000000	0.001622	0.001685	28.0944	0.076066	0.002080	36.5659	-137.664	-163.737	0.080445	1.017825	-0.070804	-0.072082	0.079055	36.5659	-0.072425	-0.395652	-0.199810	NaN
61	1.000000	1.027098	7.36564e+06	-41689.1	955.818	-29786	0.000000	0.000000	7.027125	0.048282	NaN	0.000000	0.001636	0.001656	28.0931	0.039116	0.002072	18.8819	-78.289	-164.889	0.035222	1.025824	-0.062808	-0.064083	0.048282	18.8819	-0.064726	-0.244882	-0.197164	NaN
61	1.000000	1.035145	7.36564e+06	-41689.1	955.819	-29786	0.000000	0.000000	7.035173	0.081207	NaN	0.000000	0.001641	0.001660	28.0938	0.092577	0.002066	44.8113	-173.43	-165.782	0.140688	1.033814	-0.054762	-0.056093	0.081207	44.8113	-0.056121	-0.138951	-0.584432	NaN
61	1.000000	1.043128	7.36564e+06	-41689.1	955.82	-29786	0.000000	0.000000	7.043154	0.049202	NaN	0.000000	0.001638	0.001674	28.0924	0.032287	0.002004	16.1121	44.8431	-163.891	0.022467	1.041846	-0.046779	-0.048060	0.049202	16.1121	-0.049069	-0.085514	-0.575371	NaN
61	1.000000	1.051124	7.36564e+06	-41689.1	955.818	-29786	0.000000	0.000000	7.051149	-0.007437	NaN	0.000000	0.001630	0.001690	28.0934	0.040138	0.002021	19.86	-50.537	-164.085	0.005857	1.049849	-0.038782	-0.040057	-0.007437	19.86	-0.038501	-0.040735	0.182574	NaN
61	1.000000	1.059130	7.36564e+06	-41689.1	955.818	-29786	0.000000	0.000000	7.059156	0.030021	NaN	0.000000	0.001602	0.001692	28.0933	0.007385	0.001999	3.694343	-50.4034	-165.732	0.108992	1.057823	-0.030776	-0.032083	0.030021	3.694343	-0.036870	-0.036391	-0.824968	NaN
61	1.000000	1.067144	7.36564e+06	-41689.1	955.819	-29786	0.000000	0.000000	7.067172	0.071460	NaN	0.000000	0.001652	0.001659	28.0943	0.181674	0.001951	93.1211	68.9317	-165.492	0.070945	1.065882	-0.022762	-0.024024	0.071460	93.1211	-0.023338	-0.015278	-4.677153	NaN
61	1.000000	1.075156	7.36564e+06	-41689.1	955.818	-29786	0.000000	0.000000	7.075181	0.021631	NaN	0.000000	0.001630	0.001662	28.0948	0.043620	0.002121	20.5674	-132.038	-160.648	0.018122	1.073792	-0.014750	-0.016114	0.021631	20.5674	-0.015539	-0.009601	-2.253023	NaN
61	1.000000	1.083177	7.36564e+06	-41689.1	955.818	-29786	0.000000	0.000000	7.083204	0.059911	NaN	0.000000	0.001634	0.001666	28.0939	0.074705	0.002005	37.2509	168.531	-166.546	0.033848	1.081892	-0.006729	-0.008014	0.059911	37.2509	-0.007936	-0.005194	-11.5347	NaN
61	1.000000	1.091146	7.36564e+06	-41689.1	955.819	-29786	0.000000	0.000000	7.091203	0.775577	NaN	0.000000	0.001685	0.001670	28.0941	1.264407	0.001790	706.23	2.574767	-166.909	0.115876	1.089865	0.001240	-4.075930E-5	0.775577	706.23	0.000416	0.000314	2473.43	36438.1
61	2.000000	1.098563	7.36564e+06	-41689.1	955.818	-29786	0.000000	0.000000	7.098973	9.388176	NaN	0.000000	0.001644	0.001686	28.0943	8.558577	0.001540	5557.35	8.409199	-172.512	8.751796	1.097802	0.008656	0.007895	9.388176	5557.35	0.007389	0.006422	1461.92	63359.6
61	2.000000	1.100744	7.36564e+06	-41689.1	955.817	-29786	0.000000	0.000000	7.101312	13.2119	NaN	0.000000	0.001643	0.001668	28.092	11.4393	0.001777	6438.86	6.247333	-171.288	12.4979	1.100398	0.010838	0.010492	13.2119	6438.86	0.009299	0.008413	1570.44	64137.2
61	2.000000	1.102660	7.36564e+06	-41689.1	955.817	-29786	0.000000	0.000000	7.103363	16.4999	NaN	0.000000	0.001611	0.001669	28.0934	13.1768	0.001619	8140.47	6.666984	-175.033	15.9002	1.102302	0.012754	0.012396	16.4999	8140.47	0.011234	0.010585	1558.81	72290.1
61	2.000000	1.104652	7.36564e+06	-41689.1	955.817	-29786	0.000000	0.000000	7.105501	20.073	NaN	0.000000	0.001647	0.001684	28.0928	15.7654	0.001702	9262.31	1.113859	-170.859	19.4321	1.104323	0.014745	0.014417	20.073	9262.31	0.013120	0.012859	1560.96	74624.6
61	2.000000	1.106617	7.36564e+06	-41689.1	955.818	-29786	0.000000	0.000000	7.107653	24.6089	NaN	0.000000	0.001604	0.001640	28.0933	17.2092	0.001768	9732.76	5.226039	-174.883	23.3004	1.106308	0.016711	0.016401	24.6089	9732.76	0.014815	0.015039	1636.33	72510.1
61	2.000000	1.108605	7.36564e+06	-41689.1	955.817	-29786	0.000000	0.000000	7.109778	27.9397	NaN	0.000000	0.001633	0.001634	28.093	18.9094	0.001697	11139.6	3.205011	-173.902	26.9185	1.108278	0.018699	0.018372	27.9397	11139.6	0.016818	0.017787	1570.83	76312.4
61	2.000000	1.110663	7.36564e+06	-41689.1	955.818	-29786	0.000000	0.000000	7.112018	32.3848	NaN	0.000000	0.001635	0.001645	28.0944	21.585	0.001758	12276.8	5.338037	-175.924	31.0459	1.110303	0.020756	0.020397	32.3848	12276.8	0.018778	0.020658	1567.65	78039.4
61	2.000000	1.112640	7.36564e+06	-41689.1	955.817	-29786	0.000000	0.000000	7.114161	36.4029	NaN	0.000000	0.001633	0.001635	28.0941	23.6901	0.001783	13284.7	5.499218	-178.507	36.8295	1.112244	0.022734	0.022338	36.4029	13284.7	0.020679	0.023620	1541.18	78974.1
61	2.000000	1.114651	7.36564e+06	-41689.1	955.818	-29786	0.000000	0.000000	7.116405	42.0796	NaN	0.000000	0.001635	0.001675	28.096	25.9125	0.001815	14279.9	6.707799	-178.778	43.3226	1.114302	0.024745	0.024396	42.0796	14279.9	0.022535	0.026682	1577.05	79870.5
61	2.000000	1.116639	7.36564e+06	-41689.1	955.818	-29786	0.000000	0.000000	7.118566	46.302	NaN	0.000000	0.001623	0.001655	28.0946	27.7366	0.001868	14845.3	5.729991	-179.411	46.5761	1.116356	0.026732	0.026449	46.302	14845.3	0.024393	0.029921	1547.48	78410.7
61	2.000000	1.118594	7.36564e+06	-41689.1	955.818	-29786	0.000000	0.000000	7.120826	53.7207	NaN	0.000000	0.001591	0.001635	28.0954	30.58	0.001918	15941	9.231153	177.507	52.7933	1.118217	0.028688	0.028310	53.7207	15941	0.026160	0.033160	1620.04	79979.9
61	2.000000	1.120666	7.36564e+06	-41689.1	955.818	-29786	0.000000	0.000000	7.123085	58.2541	NaN	0.000000	0.001535	0.001688	28.0934	31.6639	0.001760	17988.9	7.399465	178.233	59.906	1.120300	0.030759	0.030393	58.2541	17988.9	0.028331	0.037355	1559.48	85036.4
61	2.000000	1.122607	7.36564e+06	-41689.1	955.818	-29786	0.000000	0.000000	7.125345	66.0109	NaN	0.000000	0.001578	0.001662	28.094	32.7237	0.001784	18345	6.400442	179.343	66.067	1.122241	0.032701	0.032335	66.0109	18345	0.030002	0.040748	1619.96	83030
61	2.000000	1.124571	7.36564e+06	-41689.1	955.818	-29786	0.000000	0.000000	7.127586	72.7508	NaN	0.000000	0.001612	0.001660	28.0934	34.9071	0.001836	19014.6	4.198530	-178.896	72.3217	1.124241	0.034665	0.034335	72.7508	19014.6	0.031795	0.044547	1633.13	82309.8
61	2.000000	1.126579	7.36564e+06	-41689.1	955.817	-29786	0.000000	0.000000	7.129761	76.8378	NaN	0.000000	0.001570	0.001669	28.0933	35.8836	0.001691	21215.5	3.233842	179.745	76.253	1.126358	0.036672	0.036452	76.8378	21215.5	0.033956	0.049343	1557.22	87259.7
61	2.000000	1.128615	7.36564e+06	-41689.1	955.817	-29786	0.000000	0.000000	7.132077	83.6272	NaN	0.000000	0.001611	0.001662	28.0943	37.9912	0.001954	19444.3	1.298656	-176.129	85.4619	1.128314	0.038709	0.038408	83.6272	19444.3	0.035483	0.052877	1581.54	77256
61	2.000000	1.130587	7.36564e+06	-41689.1	955.817	-29786	0.000000	0.000000	7.134438	93.0836	NaN	0.000000	0.001600	0.001672	28.0953	40.1327	0.001797	22337.7	5.115498	178.447	92.3692	1.130302	0.040681	0.040396	93.0836	22337.7	0.037556	0.057865	1608.64	84840.9
61	2.000000	1.132601	7.36564e+06	-41689.1	955.817	-29786	0.000000	0.000000	7.136805	101.703	NaN	0.000000	0.001588	0.001698	28.0948	41.3585	0.001803	22932.8	8.404228	174.784	102.277	1.132229	0.042695	0.042322	101.703	22932.8	0.039369	0.062407	1629.68	83871.7
61	2.000000	1.134633	7.36564e+06	-41689.1	955.817	-29786	0.000000	0.000000	7.138965	104.8	NaN	0.000000	0.001598	0.001674	28.0949	44.0711	0.001803	24445.8	5.122152	177.611	105.89	1.134305	0.044727	0.044398	104.8	24445.8	0.041512	0.067994	1541.3	85652.9
61	2.000000	1.136570	7.36564e+06	-41689.1	955.817	-29786	0.000000	0.000000	7.141247	113.198	NaN	0.000000	0.001595	0.001666	28.0933	44.4514	0.001710	25988.2	3.382382	177.892	111.876	1.136317	0.046663	0.046411	113.198	25988.2	0.043397	0.073101	1548.53	87819.2
61	2.000000	1.138485	7.36564e+06	-41689.1	955.819	-29786	0.000000	0.000000	7.143630	124.593	NaN	0.000000	0.001624	0.001642	28.0957	46.6063	0.001714	27186.4	0.809223	-179.069	120.356	1.138236	0.048579	0.048330	124.593	27186.4	0.045142	0.077990	1597.56	88942.1
61	2.000000	1.140539	7.36564e+06	-41689.1	955.818	-29786	0.000000	0.000000	7.146068	133.936	NaN	0.000000	0.001628	0.001641	28.0936	48.3496	0.001701	28431.5	2.543913	179.265	130.47	1.140213	0.050633	0.050307	133.936	28431.5	0.047100	0.083659	1600.97	89808.2
61	2.000000	1.142580	7.36564e+06	-41689.1	955.817	-29786	0.000000	0.000000	7.148010	131.54	NaN	0.000000	0.001616	0.001677	28.0937	50.7245	0.001740	29150.8	1.718410	178.813	130.594	1.142374	0.052673	0.052467	131.54	29150.8	0.049289	0.090229	1457.85	88664.7
61	2.000000	1.144576	7.36564e+06	-41689.1	955.818	-29786	0.000000	0.000000	7.150674	147.773	NaN	0.000000	0.001572	0.001666	28.0941	53.2975	0.001878	28375.9	1.721251	179.47	148.595	1.144274	0.054670	0.054368	147.773	28375.9	0.050764	0.094790	1558.95	84205.5
61	2.000000	1.146510	7.36564e+06	-41689.1	955.819	-29786	0.000000	0.000000	7.152978	156.785	NaN	0.000000	0.001611	0.001656	28.0923	54.7245	0.001879	29126.4	4.281355	176.707	154.435	1.146279	0.056604	0.056373	156.785	29126.4	0.052566	0.100510	1559.89	83937.1
61	2.000000	1.148561	7.36564e+06	-41689.1	955.818	-29786	0.000000	0.000000	7.155468	167.464	NaN	0.000000	0.001644	0.001667	28.0929	56.7875	0.001884	30145.1	4.691971	176.593	168.082	1.148216	0.058655	0.058310	167.464	30145.1	0.054488	0.106789	1568.18	84280.5
61	2.000000	1.150527	7.36564e+06	-41689.1	955.818	-29786	0.000000	0.000000	7.157905	178.932	NaN	0.000000	0.001617	0.001676	28.0928	58.3311	0.001837	31761.6	5.394598	175.422	175.814	1.150182	0.060620	0.060275	178.932	31761.6	0.056395	0.113200	1580.67	86248.5
61	2.000000	1.152570	7.36564e+06	-41689.1	955.818	-29786	0.000000	0.000000	7.160276	186.905	NaN	0.000000	0.001608	0.001676	28.0938	58.9601	0.001835	32125.5	3.265883	177.17	187.309	1.152217	0.062664	0.062311	186.905	32125.5	0.058300	0.119783	1560.36	84805.5
61	2.000000	1.154544	7.36564e+06	-41689.1	955.82	-29786	0.000000	0.000000	7.162708	198.043	NaN	0.000000	0.001634	0.001674	28.0946	61.7355	0.001899	32514.9	6.272878	175.387	197.609	1.154104	0.064638	0.064198	198.043	32514.9	0.060070	0.126060	1571.03	83669.7
61	2.000000	1.156520	7.36564e+06	-41689.1	955.819	-29786	0.000000	0.000000	7.165241	211.584	NaN	0.000000	0.001639	0.001690	28.0934	62.2732	0.001822	34183.8	4.546722	175.569	210.131	1.156185	0.066614	0.066279	211.584	34183.8	0.061972	0.132975	1591.16	85646.4
61	2.000000	1.158460	7.36564e+06	-41689.1	955.818	-29786	0.000000	0.000000	7.167578	221.278	NaN	0.000000	0.001635	0.001682	28.0938	65.39	0.001824	35843.9	3.695512	175.964	216.259	1.158163	0.068553	0.068257	221.278	35843.9	0.063923	0.140252	1577.72	87444.9
61	2.000000	1.160562	7.36564e+06	-41689.1	955.819	-29786	0.000000	0.000000	7.170001	229.082	NaN	0.000000	0.001621	0.001674	28.0917	66.8926	0.001844	36274.2	4.605674	175.219	228.655	1.160216	0.070656	0.070310	229.082	36274.2	0.065919	0.147885	1549.06	86180.6
61	2.000000	1.162522	7.36564e+06	-41689.1	955.818	-29786	0.000000	0.000000	7.172439	240.71	NaN	0.000000	0.001649	0.001708	28.0929	68.2847	0.001749	39037.4	4.030215	174.957	240.638	1.162218	0.072615	0.072312	240.71	39037.4	0.067991	0.156011	1542.91	90297.6
61	2.000000	1.164543	7.36564e+06	-41689.1	955.818	-29786	0.000000	0.000000	7.174865	250.568	NaN	0.000000	0.001613	0.001674	28.0917	71.6846	0.001839	38975.9	5.834682	173.386	251.843	1.164276	0.074636	0.074370	250.568	38975.9	0.069815	0.163335	1534.07	88110.9
61	2.000000	1.166520	7.36564e+06	-41689.1	955.818	-29786	0.000000	0.000000	7.177465	265.722	NaN	0.000000	0.001621	0.001683	28.0921	72.0799	0.001799	40077.6	1.984476	176.929	264.031	1.166200	0.076613	0.076293	265.722	40077.6	0.071641	0.170826	1555.51	88592.6
61	2.000000	1.168361	7.36564e+06	-41689.1	955.819	-29786	0.000000	0.000000	7.179378	267.461	NaN	0.000000	0.001638	0.001687	28.0919	74.0415	0.001782	41544.9	1.539797	176.873	258.558	1.168111	0.078455	0.078205	267.461	41544.9	0.073627	0.179153	1492.91	89676.4
61	2.000000	1.170540	7.36564e+06	-41689.1	955.82	-29786	0.000000	0.000000	7.182264	284.673	NaN	0.000000	0.001653	0.001666	28.0931	77.8184	0.001885	41280.2	6.776793	171.942	282.626	1.170202	0.080633	0.080296	284.673	41280.2	0.075461	0.187010	1522.23	87213.1
61	2.000000	1.172546	7.36564e+06	-41689.1	955.819	-29786	0.000000	0.000000	7.184796	297.451	NaN	0.000000	0.001617	0.001649	28.093	78.072	0.001795	43486.3	3.155533	175.092	299.426	1.172259	0.082640	0.082353	297.451	43486.3	0.077510	0.195972	1517.83	89748.9
61	2.000000	1.174511	7.36564e+06	-41689.1	955.819	-29786	0.000000	0.000000	7.187171	307.445	NaN	0.000000	0.001587	0.001691	28.0929	80.9181	0.001684	48062.1	0.138222	176.845	307.181	1.174345	0.084605	0.084439	307.445	48062.1	0.079807	0.206255	1490.61	96688.4
61	2.000000	1.176453	7.36564e+06	-41689.1	955.819	-29786	0.000000	0.000000	7.189883	326.183	NaN	0.000000	0.001597	0.001682	28.0936	82.1124	0.001831	44850.9	4.541224	173.268	322.127	1.176160	0.086546	0.086254	326.183	44850.9	0.081092	0.212113	1537.78	88973.7
61	2.000000	1.178547	7.36564e+06	-41689.1	955.82	-29786	0.000000	0.000000	7.192594	341.206	NaN	0.000000	0.001616	0.001734	28.0925	86.6226	0.001804	48014.6	7.808020	169.049	342.493	1.178163	0.088641	0.088257	341.206	48014.6	0.083311	0.222410	1534.13	93018.5
61	2.000000	1.180550	7.36564e+06	-41689.1	955.82	-29786	0.000000	0.000000	7.195082	353	NaN	0.000000	0.001553	0.001754	28.0932	86.8301	0.001773	48983.2	3.545884	174.39	352.355	1.180111	0.090643	0.090205	353	48983.2	0.085239	0.231541	1524.57	93005
61	2.000000	1.182571	7.36565e+06	-41689.1	955.82	-29786	0.000000	0.000000	7.197497	362.577	NaN	0.000000	0.001576	0.001693	28.0934	89.6063	0.001854	48343.2	4.673142	172.803	365.997	1.182234	0.092665	0.092328	362.577	48343.2	0.087040	0.240227	1509.31	90115.1
61	2.000000	1.184531	7.36565e+06	-41689.1	955.818	-29786	0.000000	0.000000	7.200099	378.198	NaN	0.000000	0.001545	0.001675	28.093	91.1928	0.001811	50362.4	6.273792	171.344	377.763	1.184150	0.094625	0.094244	378.198	50362.4	0.088993	0.249815	1513.91	92059.9
61	2.000000	1.186500	7.36565e+06	-41689.1	955.818	-29786	0.000000	0.000000	7.202468	387.95	NaN	0.000000	0.001579	0.001684	28.0932	90.9277	0.001812	50184.6	1.387413	175.832	387.172	1.186156	0.096593	0.096250	387.95	50184.6	0.090795	0.258822	1498.91	90124.6
61	2.000000	1.188519	7.36565e+06	-41689.1	955.819	-29786	0.000000	0.000000	7.205368	409.36	NaN	0.000000	0.001623	0.001627	28.0937	94.2941	0.001927	48930.8	9.310855	168.317	409.692	1.188171	0.098613	0.098265	409.36	48930.8	0.092338	0.266647	1535.22	86574
61	2.000000	1.190456	7.36565e+06	-41689.1	955.818	-29786	0.000000	0.000000	7.207918	424.281	NaN	0.000000	0.001589	0.001685	28.0942	94.822	0.001784	53155.8	4.709621	172.055	419.969	1.190176	0.100550	0.100270	424.281	53155.8	0.094564	0.278126	1525.5	92088
61	2.000000	1.192394	7.36565e+06	-41689.1	955.819	-29786	0.000000	0.000000	7.210535	440.788	NaN	0.000000	0.001581	0.001676	28.0931	95.7602	0.001700	56331.6	5.622755	171.138	434.601	1.191879	0.102488	0.101973	440.788	56331.6	0.096620	0.288933	1525.57	95747.5
61	2.000000	1.194475	7.36565e+06	-41689.1	955.818	-29786	0.000000	0.000000	7.212857	446.667	NaN	0.000000	0.001581	0.001655	28.0948	98.4704	0.001785	55177.1	1.839784	174.212	444.289	1.194232	0.104569	0.104326	446.667	55177.1	0.098498	0.298973	1494	92196.9
61	2.000000	1.196452	7.36565e+06	-41689.1	955.819	-29786	0.000000	0.000000	7.215729	468.444	NaN	0.000000	0.001647	0.001689	28.0935	99.4053	0.001805	55077.6	4.128468	172.435	466.249	1.196258	0.106546	0.106352	468.444	55077.6	0.100167	0.308033	1520.76	90667.1
61	2.000000	1.196960	7.36565e+06	-41689.1	955.819	-29786	0.000000	0.000000	7.216563	476.388	NaN	0.000000	0.001656	0.001699	28.131	100.374	0.001850	54252	3.505411	-6.621979	470.118	1.196529	0.107054	0.106623	476.388	54252	0.100468	0.309678	1538.33	89070.6