File: remote_trans/data/nanoindenter/0828-1/data/Data_2025-08-06,11h17m57s/2025-07-22_16-23-58_1_425.txt
2025-07-22, 16:23:58, 1
Index	Phase	Displacement	Time	Pos X	Pos Y	Pos Z	Rot A	Rot B	Piezo Z	Force A	Force B	Gripper	Voltage A	Voltage B	Temperature	Amplitude force	Amplitude pos	Stiffness	Phase shift	Phase excitation	Force A raw	Displacement raw	HMax	HMax raw	Real Force	Real Stiffness	Contact Depth	Area	Hardness	Reduced Mod.
[#]	[#]	[um]	[s]	[um]	[um]	[um]	[m°]	[m°]	[um]	[uN]	[uN]	[V]	[V]	[V]	[°C]	[uN]	[um]	[N/m]	[°]	[°]	[uN]	[um]	[um]	[um]	[uN]	[N/m]	[um]	[um^2]	[MPa]	[MPa]
425	1.000000	0.002594	7.36921e+06	-55839.1	1005.82	-29740.6	0.000000	0.000000	6.002796	-0.014439	NaN	0.000000	0.001615	0.001745	28.0812	0.038227	0.001008	37.934	165.141	-165	-0.028235	0.001384	-1.135124	-1.136334	-0.014439	37.934	-1.134839	-1.470702E+15	9.817725E-18	NaN
425	1.000000	0.012613	7.36921e+06	-55839.1	1005.82	-29740.6	0.000000	0.000000	6.012819	0.066708	NaN	0.000000	0.001589	0.001759	28.0812	0.023626	0.001337	17.6723	95.5303	17.6466	0.033235	0.011218	-1.125106	-1.126501	0.066708	17.6723	-1.127937	-1.188349E+15	-5.613512E-17	NaN
425	1.000000	0.022542	7.36921e+06	-55839.1	1005.82	-29740.6	0.000000	0.000000	6.022745	-0.006945	NaN	0.000000	0.001580	0.001729	28.0802	0.059442	0.001604	37.0569	59.698	-165.268	0.023605	0.021234	-1.115176	-1.116485	-0.006945	37.0569	-1.115035	-7.977340E+14	8.705857E-18	NaN
425	1.000000	0.032539	7.36921e+06	-55839.1	1005.82	-29740.6	0.000000	0.000000	6.032743	0.017952	NaN	0.000000	0.001606	0.001719	28.0801	0.099474	0.001809	54.9745	-6.956441	13.9	0.029450	0.031200	-1.105180	-1.106518	0.017952	54.9745	-1.105424	-5.927603E+14	-3.028460E-17	NaN
425	1.000000	0.042527	7.36921e+06	-55839.1	1005.82	-29740.6	0.000000	0.000000	6.042729	-0.019556	NaN	0.000000	0.001611	0.001733	28.08	0.039748	0.002183	18.2116	-104.798	-164.277	0.090992	0.041254	-1.095192	-1.096464	-0.019556	18.2116	-1.094386	-4.214082E+14	4.640689E-17	NaN
425	1.000000	0.052560	7.36921e+06	-55839.1	1005.82	-29740.6	0.000000	0.000000	6.052762	-0.038235	NaN	0.000000	0.001591	0.001714	28.0801	0.122195	0.002077	58.8305	-61.7368	19.7775	-0.020129	0.051180	-1.085158	-1.086539	-0.038235	58.8305	-1.084671	-3.120699E+14	1.225197E-16	NaN
425	1.000000	0.062547	7.36921e+06	-55839.1	1005.82	-29740.6	0.000000	0.000000	6.062752	0.037257	NaN	0.000000	0.001605	0.001738	28.0803	0.040803	0.002001	20.393	-113.206	-166.418	-0.011324	0.061192	-1.075171	-1.076526	0.037257	20.393	-1.076541	-2.426970E+14	-1.535106E-16	NaN
425	1.000000	0.072570	7.36921e+06	-55839.1	1005.82	-29740.6	0.000000	0.000000	6.072774	0.023835	NaN	0.000000	0.001613	0.001712	28.0803	0.068991	0.002085	33.0895	2.129364	14.8512	0.012116	0.071191	-1.065148	-1.066528	0.023835	33.0895	-1.065688	-1.734845E+14	-1.373897E-16	NaN
425	1.000000	0.082568	7.36921e+06	-55839.1	1005.82	-29740.6	0.000000	0.000000	6.082771	-0.015845	NaN	0.000000	0.001624	0.001775	28.0802	0.017902	0.002088	8.574049	-42.824	-165.135	0.041898	0.081198	-1.055150	-1.056520	-0.015845	8.574049	-1.053764	-1.199528E+14	1.320928E-16	NaN
425	1.000000	0.092591	7.36921e+06	-55839.1	1005.82	-29740.6	0.000000	0.000000	6.092792	-0.052152	NaN	0.000000	0.001639	0.001750	28.0802	0.070281	0.002040	34.4567	-19.5727	19.8695	-0.033403	0.091247	-1.045127	-1.046471	-0.052152	34.4567	-1.043992	-8.864366E+13	5.883307E-16	NaN
425	1.000000	0.102577	7.36922e+06	-55839.1	1005.82	-29740.6	0.000000	0.000000	6.102779	-0.026912	NaN	0.000000	0.001576	0.001744	28.0801	0.005173	0.002046	2.527696	-110.048	-165.823	-0.035038	0.101291	-1.035142	-1.036427	-0.026912	2.527696	-1.027157	-5.262990E+13	5.113443E-16	NaN
425	1.000000	0.112585	7.36922e+06	-55839.1	1005.82	-29740.6	0.000000	0.000000	6.112788	-0.004155	NaN	0.000000	0.001641	0.001763	28.0801	0.063918	0.002037	31.3838	95.8599	14.7503	0.080859	0.111200	-1.025133	-1.026518	-0.004155	31.3838	-1.025034	-4.928094E+13	8.431489E-17	NaN
425	1.000000	0.122585	7.36922e+06	-55839.1	1005.82	-29740.6	0.000000	0.000000	6.122790	0.045033	NaN	0.000000	0.001643	0.001752	28.0799	0.056760	0.001939	29.2657	-32.4739	-164.408	0.056213	0.121265	-1.015134	-1.016453	0.045033	29.2657	-1.016288	-3.758384E+13	-1.198206E-15	NaN
425	1.000000	0.132566	7.36922e+06	-55839.1	1005.82	-29740.6	0.000000	0.000000	6.132769	0.016477	NaN	0.000000	0.001621	0.001711	28.0799	0.119758	0.002090	57.2962	125.099	16.4861	0.041105	0.131254	-1.005153	-1.006465	0.016477	57.2962	-1.005368	-2.679413E+13	-6.149406E-16	NaN
425	1.000000	0.142562	7.36922e+06	-55839.1	1005.82	-29740.6	0.000000	0.000000	6.142763	-0.051588	NaN	0.000000	0.001653	0.001714	28.0799	0.006499	0.001768	3.675776	-112.724	-163.477	-0.070556	0.141272	-0.995156	-0.996447	-0.051588	3.675776	-0.984630	-1.408600E+13	3.662353E-15	NaN
425	1.000000	0.152581	7.36922e+06	-55839.1	1005.82	-29740.6	0.000000	0.000000	6.152784	0.006371	NaN	0.000000	0.001637	0.001728	28.0802	0.109458	0.002027	53.9873	69.0991	16.6512	0.037171	0.151255	-0.985137	-0.986463	0.006371	53.9873	-0.985226	-1.434860E+13	-4.440387E-16	NaN
425	1.000000	0.162573	7.36922e+06	-55839.1	1005.82	-29740.6	0.000000	0.000000	6.162777	0.018532	NaN	0.000000	0.001631	0.001757	28.0811	0.062013	0.002033	30.5025	-6.812686	-168.109	-0.047980	0.161334	-0.975145	-0.976384	0.018532	30.5025	-0.975601	-1.064487E+13	-1.740952E-15	NaN
425	1.000000	0.172585	7.36922e+06	-55839.1	1005.82	-29740.6	0.000000	0.000000	6.172787	-0.043777	NaN	0.000000	0.001612	0.001747	28.0812	0.045911	0.001992	23.0425	119.998	17.6816	-0.107354	0.171245	-0.965133	-0.966473	-0.043777	23.0425	-0.963708	-7.359653E+12	5.948241E-15	NaN
425	1.000000	0.182584	7.36922e+06	-55839.1	1005.82	-29740.6	0.000000	0.000000	6.182787	0.006362	NaN	0.000000	0.001635	0.001733	28.0811	0.041358	0.001889	21.8932	15.5673	-164.455	0.016684	0.181242	-0.955134	-0.956476	0.006362	21.8932	-0.955352	-5.678111E+12	-1.120454E-15	NaN
425	1.000000	0.192589	7.36922e+06	-55839.1	1005.82	-29740.6	0.000000	0.000000	6.192795	0.051614	NaN	0.000000	0.001630	0.001791	28.0813	0.022272	0.002048	10.8773	58.6582	17.4927	-0.007908	0.191221	-0.945129	-0.946497	0.051614	10.8773	-0.948688	-4.616704E+12	-1.117974E-14	NaN
425	1.000000	0.202643	7.36922e+06	-55839.1	1005.82	-29740.6	0.000000	0.000000	6.202849	0.059010	NaN	0.000000	0.001635	0.001727	28.0813	0.092998	0.001989	46.76	132.297	-163.035	0.062318	0.201322	-0.935075	-0.936397	0.059010	46.76	-0.936022	-3.115024E+12	-1.894359E-14	NaN
425	1.000000	0.212613	7.36922e+06	-55839.1	1005.82	-29740.6	0.000000	0.000000	6.212817	0.028127	NaN	0.000000	0.001674	0.001740	28.0812	0.040905	0.001901	21.5172	-142.816	15.7411	-0.000269	0.211271	-0.925105	-0.926447	0.028127	21.5172	-0.926086	-2.287518E+12	-1.229595E-14	NaN
425	1.000000	0.222618	7.36922e+06	-55839.1	1005.82	-29740.6	0.000000	0.000000	6.222821	-0.008524	NaN	0.000000	0.001678	0.001709	28.0816	0.033600	0.001987	16.9131	125.163	-158.677	-0.037399	0.221296	-0.915100	-0.916422	-0.008524	16.9131	-0.914722	-1.606704E+12	5.305477E-15	NaN
425	1.000000	0.232624	7.36922e+06	-55839.1	1005.82	-29740.6	0.000000	0.000000	6.232827	-0.005418	NaN	0.000000	0.001621	0.001726	28.0812	0.013518	0.002035	6.640994	108.445	17.5778	-0.029542	0.231255	-0.905094	-0.906464	-0.005418	6.640994	-0.904482	-1.168489E+12	4.636605E-15	NaN
425	1.000000	0.242620	7.36922e+06	-55839.1	1005.82	-29740.6	0.000000	0.000000	6.242822	-0.024457	NaN	0.000000	0.001626	0.001773	28.0815	0.091613	0.001892	48.4189	-22.2073	-162.78	-0.044642	0.241342	-0.895098	-0.896376	-0.024457	48.4189	-0.894719	-8.623914E+11	2.835938E-14	NaN
425	1.000000	0.252649	7.36922e+06	-55839.1	1005.82	-29740.6	0.000000	0.000000	6.252854	0.047420	NaN	0.000000	0.001619	0.001764	28.0814	0.031383	0.001998	15.7103	151.476	14.3899	0.082052	0.251254	-0.885069	-0.886464	0.047420	15.7103	-0.887333	-6.852665E+11	-6.919918E-14	NaN
425	1.000000	0.262626	7.36922e+06	-55839.1	1005.82	-29740.6	0.000000	0.000000	6.262832	0.070747	NaN	0.000000	0.001617	0.001766	28.0817	0.088610	0.002114	41.9179	99.4384	-164.856	-0.011990	0.261360	-0.875092	-0.876359	0.070747	41.9179	-0.876358	-4.869142E+11	-1.452967E-13	NaN
425	1.000000	0.272637	7.36922e+06	-55839.1	1005.82	-29740.6	0.000000	0.000000	6.272839	-0.021912	NaN	0.000000	0.001634	0.001765	28.0813	0.135118	0.002031	66.5423	9.156065	12.6168	0.002334	0.271264	-0.865081	-0.866454	-0.021912	66.5423	-0.864834	-3.400535E+11	6.443799E-14	NaN
425	1.000000	0.282629	7.36922e+06	-55839.1	1005.82	-29740.6	0.000000	0.000000	6.282832	0.014175	NaN	0.000000	0.001565	0.001759	28.0815	0.067002	0.002099	31.9146	-84.5305	-166.605	0.000619	0.281323	-0.855090	-0.856396	0.014175	31.9146	-0.855423	-2.536071E+11	-5.589248E-14	NaN
425	1.000000	0.292617	7.36922e+06	-55839.1	1005.82	-29740.6	0.000000	0.000000	6.292820	0.015192	NaN	0.000000	0.001628	0.001719	28.0815	0.047003	0.001935	24.2879	-53.9148	13.8789	0.051752	0.291280	-0.845102	-0.846438	0.015192	24.2879	-0.845571	-1.865329E+11	-8.144224E-14	NaN
425	1.000000	0.302643	7.36922e+06	-55839.1	1005.82	-29740.6	0.000000	0.000000	6.302846	-0.023627	NaN	0.000000	0.001633	0.001741	28.0804	0.093959	0.001993	47.1534	13.7456	-165.649	-0.030785	0.301325	-0.835075	-0.836394	-0.023627	47.1534	-0.834699	-1.328835E+11	1.778035E-13	NaN
425	1.000000	0.312666	7.36922e+06	-55839.1	1005.82	-29740.6	0.000000	0.000000	6.312871	0.054395	NaN	0.000000	0.001607	0.001722	28.08	0.022660	0.001941	11.6716	72.9214	15.3013	-0.002277	0.311310	-0.825053	-0.826408	0.054395	11.6716	-0.828548	-1.096741E+11	-4.959648E-13	NaN
425	1.000000	0.322643	7.36922e+06	-55839.1	1005.82	-29740.6	0.000000	0.000000	6.322844	-0.054402	NaN	0.000000	0.001624	0.001723	28.0801	0.065099	0.002001	32.5405	-170.627	-161.164	-0.056953	0.321356	-0.815075	-0.816363	-0.054402	32.5405	-0.813821	-6.924870E+10	7.856082E-13	NaN
425	1.000000	0.332679	7.36922e+06	-55839.1	1005.82	-29740.6	0.000000	0.000000	6.332883	0.018785	NaN	0.000000	0.001653	0.001758	28.0804	0.049359	0.001877	26.2992	115.241	15.3299	0.114856	0.331267	-0.805039	-0.806451	0.018785	26.2992	-0.805575	-5.352125E+10	-3.509878E-13	NaN
425	1.000000	0.342673	7.36922e+06	-55839.1	1005.82	-29740.6	0.000000	0.000000	6.342876	-0.011441	NaN	0.000000	0.001628	0.001769	28.0807	0.098026	0.002006	48.8693	115.753	-164.006	-0.000628	0.341395	-0.795045	-0.796323	-0.011441	48.8693	-0.794870	-3.830112E+10	2.987171E-13	NaN
425	1.000000	0.352673	7.36922e+06	-55839.1	1005.82	-29740.6	0.000000	0.000000	6.352878	0.039247	NaN	0.000000	0.001649	0.001715	28.0804	0.064093	0.001916	33.4589	-129.14	15.7018	0.078487	0.351346	-0.785045	-0.786372	0.039247	33.4589	-0.785925	-2.895537E+10	-1.355427E-12	NaN
425	1.000000	0.362654	7.36922e+06	-55839.1	1005.82	-29740.6	0.000000	0.000000	6.362857	-0.003707	NaN	0.000000	0.001636	0.001729	28.0806	0.080113	0.002000	40.0505	-68.932	-163.886	0.050334	0.361405	-0.775065	-0.776313	-0.003707	40.0505	-0.774995	-2.056910E+10	1.802282E-13	NaN
425	1.000000	0.372699	7.36922e+06	-55839.1	1005.82	-29740.6	0.000000	0.000000	6.372903	0.001810	NaN	0.000000	0.001622	0.001728	28.0806	0.082973	0.001959	42.3551	-90.324	16.6261	-0.016319	0.371328	-0.765019	-0.766391	0.001810	42.3551	-0.765051	-1.506637E+10	-1.201200E-13	NaN
425	1.000000	0.382679	7.36922e+06	-55839.1	1005.82	-29740.6	0.000000	0.000000	6.382882	-0.010379	NaN	0.000000	0.001602	0.001720	28.0807	0.074692	0.002091	35.7175	-139.949	-165.085	-0.066889	0.381374	-0.755039	-0.756344	-0.010379	35.7175	-0.754821	-1.093554E+10	9.491082E-13	NaN
425	1.000000	0.392705	7.36922e+06	-55839.1	1005.82	-29740.6	0.000000	0.000000	6.392908	0.007290	NaN	0.000000	0.001655	0.001750	28.0804	0.083398	0.001924	43.3348	13.2318	19.7039	0.112216	0.391374	-0.745014	-0.746345	0.007290	43.3348	-0.745140	-8.073322E+9	-9.029580E-13	NaN
425	1.000000	0.402666	7.36922e+06	-55839.1	1005.82	-29740.6	0.000000	0.000000	6.402868	-0.035639	NaN	0.000000	0.001634	0.001756	28.0806	0.057210	0.001966	29.0935	-177.497	-161.385	0.008360	0.401373	-0.735053	-0.736346	-0.035639	29.0935	-0.734134	-5.716634E+9	6.234262E-12	NaN
425	1.000000	0.412695	7.36922e+06	-55839.1	1005.82	-29740.6	0.000000	0.000000	6.412899	0.027196	NaN	0.000000	0.001645	0.001748	28.0806	0.068546	0.001999	34.2866	-150.33	14.2974	-0.000398	0.411300	-0.725023	-0.726418	0.027196	34.2866	-0.725618	-4.376017E+9	-6.214711E-12	NaN
425	1.000000	0.422701	7.36922e+06	-55839.1	1005.82	-29740.6	0.000000	0.000000	6.422905	0.036331	NaN	0.000000	0.001648	0.001757	28.0805	0.041286	0.001971	20.9484	125.011	-166.994	0.064529	0.421387	-0.715018	-0.716331	0.036331	20.9484	-0.716318	-3.267813E+9	-1.111782E-11	NaN
425	1.000000	0.432749	7.36922e+06	-55839.1	1005.82	-29740.6	0.000000	0.000000	6.432952	0.015409	NaN	0.000000	0.001650	0.001731	28.0813	0.082713	0.001848	44.7551	5.101814	19.1838	0.072583	0.431352	-0.704970	-0.706366	0.015409	44.7551	-0.705228	-2.306283E+9	-6.681227E-12	NaN
425	1.000000	0.442702	7.36922e+06	-55839.1	1005.82	-29740.6	0.000000	0.000000	6.442905	-0.022259	NaN	0.000000	0.001632	0.001753	28.0817	0.061110	0.001962	31.1453	131.813	-164.416	0.003259	0.441431	-0.695016	-0.696287	-0.022259	31.1453	-0.694480	-1.644874E+9	1.353208E-11	NaN
425	1.000000	0.452733	7.36922e+06	-55839.1	1005.82	-29740.6	0.000000	0.000000	6.452939	0.074198	NaN	0.000000	0.001653	0.001728	28.0816	0.068871	0.002002	34.4081	-30.8393	15.5169	0.062769	0.451360	-0.684985	-0.686359	0.074198	34.4081	-0.686603	-1.283762E+9	-5.779726E-11	NaN
425	1.000000	0.462724	7.36922e+06	-55839.1	1005.82	-29740.6	0.000000	0.000000	6.462928	0.004526	NaN	0.000000	0.001591	0.001736	28.0814	0.082557	0.001944	42.4646	-69.9341	-162.893	0.018296	0.461425	-0.674994	-0.676293	0.004526	42.4646	-0.675074	-8.929419E+8	-5.069075E-12	NaN
425	1.000000	0.472737	7.36922e+06	-55839.1	1005.82	-29740.6	0.000000	0.000000	6.472939	-0.034395	NaN	0.000000	0.001637	0.001742	28.0816	0.012851	0.001930	6.658044	140.634	17.8995	-0.030094	0.471379	-0.664981	-0.666339	-0.034395	6.658044	-0.661106	-5.749413E+8	5.982319E-11	NaN
425	1.000000	0.482710	7.36922e+06	-55839.1	1005.82	-29740.6	0.000000	0.000000	6.482913	-0.004355	NaN	0.000000	0.001585	0.001757	28.0818	0.132719	0.001987	66.8033	23.6843	-164.487	-0.069601	0.481432	-0.655008	-0.656286	-0.004355	66.8033	-0.654960	-4.736015E+8	9.195947E-12	NaN
425	1.000000	0.492725	7.36922e+06	-55839.1	1005.82	-29740.6	0.000000	0.000000	6.492931	0.054154	NaN	0.000000	0.001585	0.001736	28.0816	0.017132	0.002066	8.291245	158.739	16.2307	0.129658	0.491417	-0.644993	-0.646302	0.054154	8.291245	-0.649892	-4.036004E+8	-1.341782E-10	NaN
425	1.000000	0.502723	7.36922e+06	-55839.1	1005.82	-29740.6	0.000000	0.000000	6.502924	-0.072925	NaN	0.000000	0.001641	0.001714	28.0815	0.103187	0.001864	55.3695	1.945416	-163.948	-0.001675	0.501413	-0.634995	-0.636305	-0.072925	55.3695	-0.634007	-2.443675E+8	2.984232E-10	NaN
425	1.000000	0.512759	7.36922e+06	-55839.1	1005.82	-29740.6	0.000000	0.000000	6.512962	-0.008599	NaN	0.000000	0.001651	0.001730	28.0815	0.018391	0.002056	8.943493	-55.906	14.8311	0.003944	0.511379	-0.624959	-0.626339	-0.008599	8.943493	-0.624238	-1.794208E+8	4.792662E-11	NaN
425	1.000000	0.522722	7.36922e+06	-55839.1	1005.82	-29740.6	0.000000	0.000000	6.522926	0.011645	NaN	0.000000	0.001614	0.001723	28.0818	0.057833	0.001913	30.2284	131.332	-162.011	0.010988	0.521456	-0.614996	-0.616262	0.011645	30.2284	-0.615285	-1.351473E+8	-8.616558E-11	NaN
425	1.000000	0.532754	7.36922e+06	-55839.1	1005.82	-29740.6	0.000000	0.000000	6.532956	-0.012712	NaN	0.000000	0.001648	0.001735	28.0813	0.071353	0.001904	37.4732	61.6643	13.7075	-0.034851	0.531354	-0.604965	-0.606364	-0.012712	37.4732	-0.604710	-9.667546E+7	1.314912E-10	NaN
425	1.000000	0.542773	7.36922e+06	-55839.1	1005.82	-29740.6	0.000000	0.000000	6.542974	-0.051797	NaN	0.000000	0.001626	0.001682	28.0814	0.067293	0.001985	33.9049	-110.749	-165.317	-0.052956	0.541490	-0.594946	-0.596229	-0.051797	33.9049	-0.593800	-6.839818E+7	7.572868E-10	NaN
425	1.000000	0.552792	7.36922e+06	-55839.1	1005.82	-29740.6	0.000000	0.000000	6.552998	0.063596	NaN	0.000000	0.001621	0.001735	28.0817	0.054091	0.002027	26.6847	-33.2043	17.6051	0.043837	0.551413	-0.584927	-0.586305	0.063596	26.6847	-0.586714	-5.462047E+7	-1.164319E-9	NaN
425	1.000000	0.562758	7.36922e+06	-55839.1	1005.82	-29740.6	0.000000	0.000000	6.562963	0.053886	NaN	0.000000	0.001600	0.001699	28.0816	0.024365	0.001841	13.2372	-102.706	-163.977	-0.044053	0.561479	-0.574960	-0.576239	0.053886	13.2372	-0.578014	-4.142922E+7	-1.300666E-9	NaN
425	1.000000	0.572786	7.36922e+06	-55839.1	1005.82	-29740.6	0.000000	0.000000	6.572989	-0.004872	NaN	0.000000	0.001613	0.001721	28.0802	0.020574	0.002104	9.778332	-41.3549	19.6484	0.027477	0.571388	-0.564933	-0.566331	-0.004872	9.778332	-0.564559	-2.700401E+7	1.804326E-10	NaN
425	1.000000	0.582744	7.36922e+06	-55839.1	1005.82	-29740.6	0.000000	0.000000	6.582945	-0.036679	NaN	0.000000	0.001605	0.001733	28.0802	0.103157	0.002050	50.3105	-9.344007	-166.258	-0.070085	0.581507	-0.554975	-0.556211	-0.036679	50.3105	-0.554428	-1.955551E+7	1.875656E-9	NaN
425	1.000000	0.592770	7.36922e+06	-55839.1	1005.82	-29740.6	0.000000	0.000000	6.592974	0.012795	NaN	0.000000	0.001571	0.001677	28.0803	0.042236	0.002184	19.3356	21.4449	14.864	-0.015340	0.591389	-0.544948	-0.546329	0.012795	19.3356	-0.545444	-1.468377E+7	-8.713818E-10	NaN
425	1.000000	0.602762	7.36922e+06	-55839.1	1005.82	-29740.6	0.000000	0.000000	6.602966	0.035546	NaN	0.000000	0.001615	0.001684	28.0802	0.076793	0.001924	39.9216	-120.283	-164.387	0.021574	0.601495	-0.534957	-0.536223	0.035546	39.9216	-0.535624	-1.073137E+7	-3.312365E-9	NaN
425	1.000000	0.612782	7.36922e+06	-55839.1	1005.82	-29740.6	0.000000	0.000000	6.612986	0.029606	NaN	0.000000	0.001611	0.001723	28.0802	0.160452	0.001994	80.4612	45.0701	15.5285	-0.032287	0.611397	-0.524936	-0.526322	0.029606	80.4612	-0.525212	-7.69239e+06	-3.848718E-9	NaN
425	1.000000	0.622822	7.36922e+06	-55839.1	1005.82	-29740.6	0.000000	0.000000	6.623024	-0.015103	NaN	0.000000	0.001581	0.001721	28.0802	0.047639	0.001926	24.7368	159.346	-166.436	0.012194	0.621494	-0.514897	-0.516224	-0.015103	24.7368	-0.514439	-5.4478e+06	2.772395E-9	NaN
425	1.000000	0.632782	7.36922e+06	-55839.1	1005.82	-29740.6	0.000000	0.000000	6.632985	0.008020	NaN	0.000000	0.001591	0.001710	28.0812	0.111663	0.002022	55.2296	-111.878	9.792224	-0.105971	0.631452	-0.504937	-0.506266	0.008020	55.2296	-0.505046	-4.03069e+06	-1.989722E-9	NaN
425	1.000000	0.642765	7.36922e+06	-55839.1	1005.82	-29740.6	0.000000	0.000000	6.642969	0.018992	NaN	0.000000	0.001634	0.001692	28.0801	0.056923	0.002092	27.2087	65.2988	-162.435	0.018172	0.641511	-0.494953	-0.496207	0.018992	27.2087	-0.495476	-2.96406e+06	-6.407410E-9	NaN
425	1.000000	0.652783	7.36922e+06	-55839.1	1005.82	-29740.6	0.000000	0.000000	6.652988	0.050430	NaN	0.000000	0.001563	0.001713	28.0804	0.061509	0.001849	33.2582	-115.106	16.0591	0.008832	0.651428	-0.484935	-0.486290	0.050430	33.2582	-0.486073	-2.19025e+06	-2.302481E-8	NaN
425	1.000000	0.662797	7.36922e+06	-55839.1	1005.82	-29740.6	0.000000	0.000000	6.663001	0.012029	NaN	0.000000	0.001580	0.001686	28.0804	0.126173	0.001878	67.1756	-151.245	-164.189	-0.039373	0.661514	-0.474921	-0.476205	0.012029	67.1756	-0.475056	-1.53561e+06	-7.833269E-9	NaN
425	1.000000	0.672806	7.36922e+06	-55839.1	1005.82	-29740.6	0.000000	0.000000	6.673011	0.029112	NaN	0.000000	0.001612	0.001708	28.0808	0.088089	0.001992	44.2128	-38.1203	15.8352	0.105040	0.671488	-0.464912	-0.466230	0.029112	44.2128	-0.465406	-1.12447e+06	-2.588987E-8	NaN
425	1.000000	0.682821	7.36922e+06	-55839.1	1005.82	-29740.6	0.000000	0.000000	6.683025	0.014336	NaN	0.000000	0.001591	0.001681	28.0805	0.069420	0.002001	34.6923	155.326	-163.708	0.011967	0.681520	-0.454897	-0.456198	0.014336	34.6923	-0.455207	-808405	-1.773309E-8	NaN
425	1.000000	0.692818	7.36922e+06	-55839.1	1005.82	-29740.6	0.000000	0.000000	6.693020	-0.020304	NaN	0.000000	0.001608	0.001686	28.0807	0.098690	0.002035	48.4894	-55.048	15.5986	-0.019481	0.691403	-0.444901	-0.446316	-0.020304	48.4894	-0.444587	-572879	3.544128E-8	NaN
425	1.000000	0.702838	7.36922e+06	-55839.1	1005.82	-29740.6	0.000000	0.000000	6.703041	-0.026419	NaN	0.000000	0.001560	0.001701	28.0804	0.113099	0.001954	57.8757	-11.1496	-165.108	0.022963	0.701534	-0.434880	-0.436184	-0.026419	57.8757	-0.434538	-413256	6.392887E-8	NaN
425	1.000000	0.712819	7.36922e+06	-55839.1	1005.82	-29740.6	0.000000	0.000000	6.713021	-0.043738	NaN	0.000000	0.001564	0.001704	28.0819	0.051114	0.002004	25.5018	88.2944	15.8597	-0.057165	0.711481	-0.424899	-0.426237	-0.043738	25.5018	-0.423613	-289488	1.510891E-7	NaN
425	1.000000	0.722819	7.36922e+06	-55839.1	1005.82	-29740.6	0.000000	0.000000	6.723025	0.060561	NaN	0.000000	0.001622	0.001667	28.0818	0.145352	0.001950	74.5272	87.3358	-165.13	0.063494	0.721550	-0.414899	-0.416168	0.060561	74.5272	-0.415509	-222166	-2.725958E-7	NaN
425	1.000000	0.732838	7.36922e+06	-55839.1	1005.82	-29740.6	0.000000	0.000000	6.733040	-0.032295	NaN	0.000000	0.001625	0.001671	28.0817	0.098663	0.002026	48.6885	158.984	12.7672	-0.068543	0.731467	-0.404880	-0.406251	-0.032295	48.6885	-0.404383	-154333	2.092560E-7	NaN
425	1.000000	0.742827	7.36922e+06	-55839.1	1005.82	-29740.6	0.000000	0.000000	6.743030	0.006901	NaN	0.000000	0.001586	0.001722	28.0818	0.103207	0.002010	51.3441	53.2433	-163.723	-0.047185	0.741532	-0.394891	-0.396187	0.006901	51.3441	-0.394992	-113377	-6.087213E-8	NaN
425	1.000000	0.752856	7.36922e+06	-55839.1	1005.82	-29740.6	0.000000	0.000000	6.753058	-0.023216	NaN	0.000000	0.001539	0.001710	28.0817	0.066851	0.002124	31.4684	26.8191	14.7263	0.029820	0.751466	-0.384863	-0.386252	-0.023216	31.4684	-0.384309	-79742.2	2.911348E-7	NaN
425	1.000000	0.762826	7.36922e+06	-55839.1	1005.82	-29740.6	0.000000	0.000000	6.763031	0.033646	NaN	0.000000	0.001529	0.001699	28.0814	0.064174	0.002017	31.8115	3.955002	-165.986	0.023464	0.761527	-0.374892	-0.376191	0.033646	31.8115	-0.375686	-59968.8	-5.610545E-7	NaN
425	1.000000	0.772855	7.36922e+06	-55839.1	1005.82	-29740.6	0.000000	0.000000	6.773058	0.002173	NaN	0.000000	0.001579	0.001713	28.0816	0.050895	0.001973	25.7992	67.0185	13.7961	-0.007833	0.771523	-0.364863	-0.366196	0.002173	25.7992	-0.364926	-41975.1	-5.176308E-8	NaN
425	1.000000	0.782834	7.36922e+06	-55839.1	1005.82	-29740.6	0.000000	0.000000	6.783038	0.005003	NaN	0.000000	0.001557	0.001755	28.0817	0.081334	0.001821	44.6604	-53.7975	-167.67	0.000545	0.781545	-0.354884	-0.356174	0.005003	44.6604	-0.354968	-30132.4	-1.660215E-7	NaN
425	1.000000	0.792873	7.36922e+06	-55839.1	1005.82	-29740.6	0.000000	0.000000	6.793074	-0.047297	NaN	0.000000	0.001578	0.001704	28.0816	0.130440	0.001918	68.0186	-124.716	13.1678	-0.070387	0.791497	-0.344845	-0.346222	-0.047297	68.0186	-0.344324	-21111.6	2.240313E-6	NaN
425	1.000000	0.802855	7.36922e+06	-55839.1	1005.82	-29740.6	0.000000	0.000000	6.803059	0.038235	NaN	0.000000	0.001572	0.001719	28.0817	0.102990	0.002129	48.3781	-87.6855	-164.531	-0.015755	0.801576	-0.334864	-0.336143	0.038235	48.3781	-0.335456	-15676.7	-2.438945E-6	NaN
425	1.000000	0.812855	7.36922e+06	-55839.1	1005.82	-29740.6	0.000000	0.000000	6.813061	0.068032	NaN	0.000000	0.001653	0.001702	28.0816	0.114728	0.001971	58.2131	37.8002	20.0266	0.027046	0.811500	-0.324863	-0.326218	0.068032	58.2131	-0.325739	-11297.7	-6.021751E-6	NaN
425	1.000000	0.822897	7.36922e+06	-55839.1	1005.82	-29740.6	0.000000	0.000000	6.823100	0.010434	NaN	0.000000	0.001662	0.001715	28.0819	0.110522	0.002057	53.7401	-70.3108	-168.398	0.015616	0.821545	-0.314822	-0.316173	0.010434	53.7401	-0.314967	-7842.65	-1.330453E-6	NaN
425	1.000000	0.832856	7.36922e+06	-55839.1	1005.82	-29740.6	0.000000	0.000000	6.833058	-0.023633	NaN	0.000000	0.001672	0.001715	28.0815	0.079148	0.001932	40.9593	4.502858	10.0865	0.041026	0.831524	-0.304863	-0.306194	-0.023633	40.9593	-0.304430	-5476.37	4.315365E-6	NaN
425	1.000000	0.842874	7.36922e+06	-55839.1	1005.82	-29740.6	0.000000	0.000000	6.843077	-0.010021	NaN	0.000000	0.001684	0.001680	28.0805	0.020360	0.001972	10.3259	49.38	-165.304	0.041067	0.841587	-0.294845	-0.296131	-0.010021	10.3259	-0.294117	-3844.97	2.606341E-6	NaN
425	1.000000	0.852902	7.36922e+06	-55839.1	1005.82	-29740.6	0.000000	0.000000	6.853106	0.036741	NaN	0.000000	0.001672	0.001717	28.0803	0.064168	0.002047	31.3446	167.169	13.4878	-0.008643	0.851523	-0.284817	-0.286196	0.036741	31.3446	-0.285696	-2875.58	-1.277693E-5	NaN
425	1.000000	0.862904	7.36922e+06	-55839.1	1005.82	-29740.6	0.000000	0.000000	6.863110	0.064727	NaN	0.000000	0.001640	0.001699	28.0803	0.008404	0.001992	4.218147	63.2234	-163.144	0.051315	0.861609	-0.274814	-0.276109	0.064727	4.218147	-0.286323	-2938.6	-2.202646E-5	NaN
425	1.000000	0.872930	7.36922e+06	-55839.1	1005.82	-29740.6	0.000000	0.000000	6.873133	-0.018621	NaN	0.000000	0.001698	0.001712	28.0801	0.136415	0.001911	71.3995	-14.6825	14.099	0.001313	0.871489	-0.264788	-0.266230	-0.018621	71.3995	-0.264593	-1377.75	1.351575E-5	NaN
425	1.000000	0.882879	7.36922e+06	-55839.1	1005.82	-29740.6	0.000000	0.000000	6.883082	0.014617	NaN	0.000000	0.001672	0.001718	28.08	0.078909	0.002038	38.7176	170.751	-165.629	-0.066636	0.881593	-0.254840	-0.256125	0.014617	38.7176	-0.255123	-986.297	-1.482032E-5	NaN
425	1.000000	0.892871	7.36922e+06	-55839.1	1005.82	-29740.6	0.000000	0.000000	6.893072	-0.065973	NaN	0.000000	0.001609	0.001729	28.0804	0.106446	0.001985	53.6387	44.314	16.6029	-0.016390	0.891537	-0.244847	-0.246181	-0.065973	53.6387	-0.243925	-661.806	9.968696E-5	NaN
425	1.000000	0.902891	7.36922e+06	-55839.1	1005.82	-29740.6	0.000000	0.000000	6.903093	-0.028145	NaN	0.000000	0.001587	0.001701	28.0804	0.070612	0.001866	37.8438	87.6654	-165.214	-0.025718	0.901581	-0.234828	-0.236138	-0.028145	37.8438	-0.234270	-467.498	6.020443E-5	NaN
425	1.000000	0.912915	7.36922e+06	-55839.1	1005.82	-29740.6	0.000000	0.000000	6.913125	0.158968	NaN	0.000000	0.001608	0.001700	28.0805	0.030987	0.002068	14.9859	41.79	13.8901	0.090096	0.911520	-0.224804	-0.226199	0.158968	14.9859	-0.232759	-442.611	-0.000359	NaN
425	1.000000	0.922908	7.36922e+06	-55839.1	1005.82	-29740.6	0.000000	0.000000	6.923111	0.005191	NaN	0.000000	0.001598	0.001731	28.0807	0.052331	0.001896	27.5986	2.398627	-163.072	-0.057248	0.921612	-0.214810	-0.216107	0.005191	27.5986	-0.214951	-230.532	-2.251544E-5	NaN
425	1.000000	0.932948	7.36922e+06	-55839.1	1005.82	-29740.6	0.000000	0.000000	6.933150	-0.025596	NaN	0.000000	0.001617	0.001762	28.0804	0.088398	0.001917	46.1172	118.318	14.002	-0.016937	0.931605	-0.204770	-0.206114	-0.025596	46.1172	-0.204354	-155.244	0.000165	NaN
425	1.000000	0.942917	7.36922e+06	-55839.1	1005.82	-29740.6	0.000000	0.000000	6.943122	0.026569	NaN	0.000000	0.001627	0.001728	28.0804	0.029762	0.001947	15.2837	-174.528	-164.356	-0.007800	0.941610	-0.194801	-0.196108	0.026569	15.2837	-0.196105	-113.628	-0.000234	NaN
425	1.000000	0.952917	7.36922e+06	-55839.1	1005.82	-29740.6	0.000000	0.000000	6.953121	0.020433	NaN	0.000000	0.001599	0.001736	28.0804	0.033045	0.001869	17.6841	164.65	16.8113	0.033088	0.951626	-0.184801	-0.186092	0.020433	17.6841	-0.185668	-76.0995	-0.000269	NaN
425	1.000000	0.962948	7.36922e+06	-55839.1	1005.82	-29740.6	0.000000	0.000000	6.963151	-0.007852	NaN	0.000000	0.001601	0.001730	28.0808	0.028271	0.002123	13.319	-87.8964	-164.196	0.002528	0.961639	-0.174770	-0.176080	-0.007852	13.319	-0.174328	-48.8009	0.000161	NaN
425	1.000000	0.972933	7.36922e+06	-55839.1	1005.82	-29740.6	0.000000	0.000000	6.973138	0.040692	NaN	0.000000	0.001614	0.001726	28.0804	0.112752	0.002059	54.7641	149.444	17.0103	0.053831	0.971561	-0.164785	-0.166157	0.040692	54.7641	-0.165343	-34.0658	-0.001195	NaN
425	1.000000	0.982934	7.36922e+06	-55839.1	1005.82	-29740.6	0.000000	0.000000	6.983138	0.018524	NaN	0.000000	0.001585	0.001750	28.0818	0.024923	0.001932	12.8967	154.637	-162.848	-0.040883	0.981667	-0.154784	-0.156051	0.018524	12.8967	-0.155861	-23.124	-0.000801	NaN
425	1.000000	0.992956	7.36922e+06	-55839.1	1005.82	-29740.6	0.000000	0.000000	6.993159	0.007575	NaN	0.000000	0.001558	0.001707	28.0818	0.134712	0.001940	69.4463	31.4641	17.081	-0.059319	0.991554	-0.144763	-0.146164	0.007575	69.4463	-0.144845	-14.5644	-0.000520	NaN
425	1.000000	1.002930	7.36922e+06	-55839.1	1005.82	-29740.6	0.000000	0.000000	7.003133	-0.009581	NaN	0.000000	0.001596	0.001726	28.0818	0.021243	0.002014	10.547	-78.8535	-162.936	0.032722	1.001643	-0.134788	-0.136075	-0.009581	10.547	-0.134107	-9.145638	0.001048	NaN
425	1.000000	1.012938	7.36922e+06	-55839.1	1005.82	-29740.6	0.000000	0.000000	7.013145	0.094186	NaN	0.000000	0.001583	0.001730	28.0814	0.090876	0.001963	46.2917	-13.8253	13.4625	0.089595	1.011632	-0.124780	-0.126086	0.094186	46.2917	-0.126306	-6.453217	-0.014595	NaN
425	1.000000	1.022942	7.36922e+06	-55839.1	1005.82	-29740.6	0.000000	0.000000	7.023145	-0.013773	NaN	0.000000	0.001558	0.001734	28.0815	0.137506	0.002045	67.237	-144.664	-165.849	0.082997	1.021659	-0.114776	-0.116060	-0.013773	67.237	-0.114623	-3.752488	0.003670	NaN
425	1.000000	1.032956	7.36922e+06	-55839.1	1005.82	-29740.6	0.000000	0.000000	7.033163	0.106372	NaN	0.000000	0.001565	0.001737	28.0814	0.023228	0.001830	12.6927	154.755	14.0516	-0.031843	1.031584	-0.104762	-0.106135	0.106372	12.6927	-0.111048	-3.161663	-0.033644	NaN
425	1.000000	1.042968	7.36922e+06	-55839.1	1005.82	-29740.6	0.000000	0.000000	7.043172	0.019080	NaN	0.000000	0.001570	0.001733	28.0816	0.053271	0.001955	27.253	-116.966	-169.342	0.042777	1.041661	-0.094750	-0.096058	0.019080	27.253	-0.095275	-1.431114	-0.013332	NaN
425	1.000000	1.052961	7.36922e+06	-55839.1	1005.82	-29740.6	0.000000	0.000000	7.053166	0.031753	NaN	0.000000	0.001571	0.001715	28.0813	0.035098	0.001902	18.4546	-138.462	13.0728	0.015427	1.051569	-0.084757	-0.086149	0.031753	18.4546	-0.086047	-0.870852	-0.036462	NaN
425	1.000000	1.062966	7.36922e+06	-55839.1	1005.82	-29740.6	0.000000	0.000000	7.063169	-0.017344	NaN	0.000000	0.001602	0.001762	28.0813	0.089742	0.002071	43.3282	-135.713	-166.389	-0.005862	1.061709	-0.074752	-0.076009	-0.017344	43.3282	-0.074452	-0.447000	0.038800	NaN
425	1.000000	1.072960	7.36922e+06	-55839.1	1005.82	-29740.6	0.000000	0.000000	7.073162	-0.019692	NaN	0.000000	0.001581	0.001827	28.0815	0.086912	0.001993	43.6174	117.532	15.3792	0.008383	1.071602	-0.064759	-0.066116	-0.019692	43.6174	-0.064420	-0.240134	0.082004	NaN
425	1.000000	1.082979	7.36922e+06	-55839.1	1005.82	-29740.6	0.000000	0.000000	7.083183	-0.001063	NaN	0.000000	0.001563	0.001782	28.0813	0.018650	0.002106	8.856863	106.09	-165.386	0.021765	1.081659	-0.054739	-0.056059	-0.001063	8.856863	-0.054649	-0.125734	0.008450	NaN
425	1.000000	1.092992	7.36922e+06	-55839.1	1005.82	-29740.6	0.000000	0.000000	7.093196	0.015105	NaN	0.000000	0.001591	0.001802	28.0814	0.029112	0.001966	14.8062	7.922607	14.4683	0.000788	1.091638	-0.044726	-0.046080	0.015105	14.8062	-0.045492	-0.066531	-0.227034	NaN
425	1.000000	1.102976	7.36922e+06	-55839.1	1005.82	-29740.6	0.000000	0.000000	7.103179	-0.012913	NaN	0.000000	0.001597	0.001767	28.0814	0.141324	0.002036	69.3977	-141.923	-161.954	0.064527	1.101670	-0.034742	-0.036049	-0.012913	69.3977	-0.034603	-0.031175	0.414197	NaN
425	1.000000	1.112982	7.36922e+06	-55839.1	1005.82	-29740.6	0.000000	0.000000	7.113188	0.062118	NaN	0.000000	0.001609	0.001817	28.0816	0.037716	0.002058	18.3234	-22.3903	12.8405	-0.054531	1.111587	-0.024736	-0.026131	0.062118	18.3234	-0.027279	-0.019386	-3.204233	NaN
425	1.000000	1.122982	7.36922e+06	-55839.1	1005.82	-29740.6	0.000000	0.000000	7.123209	0.589498	NaN	0.000000	0.001605	0.001795	28.0801	0.718883	0.002009	357.752	6.686054	-167.857	0.324840	1.121621	-0.014737	-0.016097	0.589498	357.752	-0.015973	-0.009866	-59.7496	NaN
425	1.000000	1.133009	7.36922e+06	-55839.1	1005.82	-29740.6	0.000000	0.000000	7.133354	3.444322	NaN	0.000000	0.001609	0.001750	28.0803	1.580433	0.001937	816.098	8.986155	12.4318	3.002481	1.131696	-0.004709	-0.006022	3.444322	816.098	-0.007874	-0.005158	-667.771	NaN
425	1.000000	1.142963	7.36922e+06	-55839.1	1005.82	-29740.6	0.000000	0.000000	7.143434	6.497531	NaN	0.000000	0.001571	0.001756	28.0803	6.027449	0.001777	3392.8	7.714141	-168.414	4.780380	1.141650	0.005245	0.003932	6.497531	3392.8	0.003809	0.003072	2115.25	55929
425	2.000000	1.147061	7.36922e+06	-55839.1	1005.82	-29740.6	0.000000	0.000000	7.147720	11.0873	NaN	0.000000	0.001566	0.001732	28.0808	10.8868	0.001643	6626.35	8.594739	7.133721	11.7133	1.146673	0.009343	0.008955	11.0873	6626.35	0.008088	0.007133	1554.38	71682.5
425	2.000000	1.149486	7.36922e+06	-55839.1	1005.82	-29740.6	0.000000	0.000000	7.150365	16.4312	NaN	0.000000	0.001593	0.001738	28.0796	14.667	0.001832	8004.11	7.550790	-174.231	15.67	1.149218	0.011768	0.011500	16.4312	8004.11	0.010228	0.009436	1741.28	75281.1
425	2.000000	1.152006	7.36922e+06	-55839.1	1005.82	-29740.6	0.000000	0.000000	7.153035	20.0781	NaN	0.000000	0.001609	0.001717	28.0802	16.6996	0.001705	9792.07	6.688310	4.675963	18.6474	1.151627	0.014287	0.013909	20.0781	9792.07	0.012749	0.012400	1619.16	80340.1
425	2.000000	1.154488	7.36922e+06	-55839.1	1005.82	-29740.6	0.000000	0.000000	7.155570	21.3471	NaN	0.000000	0.001557	0.001730	28.0803	18.9962	0.001831	10376.3	8.471338	-177.461	20.3825	1.154174	0.016770	0.016456	21.3471	10376.3	0.015227	0.015589	1369.33	75927.5
425	2.000000	1.156942	7.36922e+06	-55839.1	1005.82	-29740.6	0.000000	0.000000	7.158382	30.0526	NaN	0.000000	0.001549	0.001721	28.0805	22.0997	0.001874	11791.3	7.262007	1.360402	28.3854	1.156598	0.019224	0.018880	30.0526	11791.3	0.017313	0.018494	1625	79217.4
425	2.000000	1.159431	7.36922e+06	-55839.1	1005.82	-29740.6	0.000000	0.000000	7.161020	33.6654	NaN	0.000000	0.001548	0.001765	28.0799	23.8762	0.001933	12350.6	7.562163	-176.925	33.5117	1.159121	0.021713	0.021403	33.6654	12350.6	0.019669	0.022024	1528.55	76034.5
425	2.000000	1.161933	7.36922e+06	-55839.1	1005.82	-29740.6	0.000000	0.000000	7.163803	40.5117	NaN	0.000000	0.001572	0.001762	28.0801	25.4047	0.001773	14324.6	3.604189	3.967910	37.8712	1.161634	0.024215	0.023915	40.5117	14324.6	0.022094	0.025940	1561.73	81258.5
425	2.000000	1.164467	7.36922e+06	-55839.1	1005.82	-29740.6	0.000000	0.000000	7.166541	45.4834	NaN	0.000000	0.001565	0.001712	28.0802	28.2449	0.001886	14978.8	5.027198	-177.904	45.5417	1.164147	0.026748	0.026429	45.4834	14978.8	0.024471	0.030060	1513.09	78932.4
425	2.000000	1.166910	7.36922e+06	-55839.1	1005.82	-29740.6	0.000000	0.000000	7.169256	52.0887	NaN	0.000000	0.001549	0.001736	28.0801	30.6334	0.001695	18075.5	3.732381	-0.322803	48.9795	1.166593	0.029192	0.028874	52.0887	18075.5	0.027031	0.034814	1496.2	88508.8
425	2.000000	1.169424	7.36922e+06	-55839.1	1005.82	-29740.6	0.000000	0.000000	7.172032	58.4571	NaN	0.000000	0.001564	0.001711	28.08	33.3391	0.001837	18153.1	3.924035	-178.455	57.5952	1.169173	0.031706	0.031455	58.4571	18153.1	0.029291	0.039287	1487.97	83676.1
425	2.000000	1.171954	7.36922e+06	-55839.1	1005.82	-29740.6	0.000000	0.000000	7.175100	71.5352	NaN	0.000000	0.001579	0.001708	28.0817	34.1848	0.001758	19444.6	5.142432	-0.013417	70.939	1.171571	0.034235	0.033852	71.5352	19444.6	0.031476	0.043859	1631.03	84828.7
425	2.000000	1.174389	7.36922e+06	-55839.1	1005.82	-29740.6	0.000000	0.000000	7.177624	73.6929	NaN	0.000000	0.001557	0.001770	28.0813	36.5131	0.001776	20556.1	4.209083	179.812	71.7785	1.174151	0.036671	0.036433	73.6929	20556.1	0.033982	0.049403	1491.68	84496.8
425	2.000000	1.176863	7.36922e+06	-55839.1	1005.82	-29740.6	0.000000	0.000000	7.180574	85.2694	NaN	0.000000	0.001618	0.001758	28.0816	38.7276	0.001726	22434.4	1.888369	0.854052	81.5496	1.176571	0.039145	0.038852	85.2694	22434.4	0.036294	0.054802	1555.95	87556.5
425	2.000000	1.179436	7.36922e+06	-55839.1	1005.82	-29740.6	0.000000	0.000000	7.183505	93.9851	NaN	0.000000	0.001585	0.001761	28.0812	42.28	0.001945	21733.4	5.781223	179.23	95.2531	1.179113	0.041718	0.041394	93.9851	21733.4	0.038474	0.060145	1562.65	80965.9
425	2.000000	1.181916	7.36922e+06	-55839.1	1005.82	-29740.6	0.000000	0.000000	7.186552	107.741	NaN	0.000000	0.001620	0.001754	28.0825	43.8853	0.001778	24683.1	4.963900	-2.344309	105.609	1.181552	0.044198	0.043834	107.741	24683.1	0.040924	0.066438	1621.69	87491.2
425	2.000000	1.184383	7.36922e+06	-55839.1	1005.82	-29740.6	0.000000	0.000000	7.189496	119.335	NaN	0.000000	0.001611	0.001728	28.0812	44.8996	0.001759	25524.4	3.626448	178.901	118.003	1.184134	0.046665	0.046416	119.335	25524.4	0.043159	0.072446	1647.22	86640.5
425	2.000000	1.186910	7.36922e+06	-55839.1	1005.82	-29740.6	0.000000	0.000000	7.192385	128.14	NaN	0.000000	0.001609	0.001726	28.0814	47.5396	0.001743	27275.2	6.730944	-4.602693	126.88	1.186526	0.049192	0.048808	128.14	27275.2	0.045669	0.079497	1611.89	88382.5
425	2.000000	1.189367	7.36922e+06	-55839.1	1005.82	-29740.6	0.000000	0.000000	7.195618	147.017	NaN	0.000000	0.001616	0.001721	28.0812	50.6233	0.001792	28243.3	4.923921	176.42	143.397	1.189092	0.051649	0.051374	147.017	28243.3	0.047745	0.085569	1718.11	88212.5
425	2.000000	1.191941	7.36922e+06	-55839.1	1005.82	-29740.6	0.000000	0.000000	7.198587	156.61	NaN	0.000000	0.001625	0.001712	28.0823	52.2737	0.001797	29084.1	6.037421	-4.914377	155.407	1.191647	0.054223	0.053928	156.61	29084.1	0.050184	0.092983	1684.28	87141.8
425	2.000000	1.194315	7.36922e+06	-55839.1	1005.82	-29740.6	0.000000	0.000000	7.201615	172.51	NaN	0.000000	0.001626	0.001747	28.0812	54.4602	0.001833	29705.2	3.188239	178.222	167.462	1.193988	0.056597	0.056269	172.51	29705.2	0.052241	0.099466	1734.35	86053.2
425	2.000000	1.196888	7.36922e+06	-55839.1	1005.82	-29740.6	0.000000	0.000000	7.204743	185.996	NaN	0.000000	0.001662	0.001761	28.0815	58.3214	0.001860	31359.3	5.057911	-4.572148	184.59	1.196632	0.059170	0.058913	185.996	31359.3	0.054722	0.107565	1729.15	87358.3
425	2.000000	1.199469	7.36922e+06	-55839.1	1005.82	-29740.6	0.000000	0.000000	7.208177	206.732	NaN	0.000000	0.001650	0.001749	28.0812	59.7586	0.001850	32301.5	5.431383	175.675	209.595	1.199023	0.061751	0.061304	206.732	32301.5	0.056951	0.115102	1796.08	86987.2
425	2.000000	1.201840	7.36922e+06	-55839.1	1005.82	-29740.6	0.000000	0.000000	7.211237	223.471	NaN	0.000000	0.001628	0.001706	28.0819	60.8347	0.001867	32588.2	1.322567	-0.575792	219.742	1.201512	0.064122	0.063794	223.471	32588.2	0.058979	0.122172	1829.15	85182
425	2.000000	1.204381	7.36922e+06	-55839.1	1005.82	-29740.6	0.000000	0.000000	7.214516	241.417	NaN	0.000000	0.001681	0.001741	28.0812	63.01	0.001819	34636.3	6.361316	173.261	242.091	1.203993	0.066662	0.066275	241.417	34636.3	0.061435	0.131004	1842.83	87430.6
425	2.000000	1.206846	7.36922e+06	-55839.1	1005.82	-29740.6	0.000000	0.000000	7.217678	258.369	NaN	0.000000	0.001643	0.001711	28.0802	65.5946	0.001811	36224.2	4.783930	-5.963486	256.173	1.206559	0.069128	0.068840	258.369	36224.2	0.063779	0.139705	1849.38	88545.3
425	2.000000	1.209324	7.36922e+06	-55839.1	1005.82	-29740.6	0.000000	0.000000	7.220946	277.557	NaN	0.000000	0.001634	0.001765	28.0803	67.7964	0.001801	37646.2	5.208753	173.593	273.921	1.209036	0.071606	0.071317	277.557	37646.2	0.066076	0.148494	1869.14	89256.3
425	2.000000	1.211917	7.36922e+06	-55839.1	1005.82	-29740.6	0.000000	0.000000	7.224136	292.076	NaN	0.000000	0.001686	0.001737	28.0809	68.8796	0.001847	37287.2	0.038062	-0.846724	291.851	1.211616	0.074198	0.073897	292.076	37287.2	0.068323	0.157335	1856.4	85885.6
425	2.000000	1.214325	7.36922e+06	-55839.1	1005.82	-29740.6	0.000000	0.000000	7.227622	318.283	NaN	0.000000	0.001647	0.001761	28.08	72.4245	0.001766	41003.8	6.949560	170.91	316.94	1.214103	0.076607	0.076384	318.283	41003.8	0.070785	0.167297	1902.51	91591.2
425	2.000000	1.216832	7.36922e+06	-55839.1	1005.82	-29740.6	0.000000	0.000000	7.230618	330.178	NaN	0.000000	0.001672	0.001714	28.0813	75.0015	0.001815	41322.1	4.055518	-6.149287	325.651	1.216545	0.079113	0.078827	330.178	41322.1	0.073120	0.177013	1865.28	89733.2
425	2.000000	1.219283	7.36922e+06	-55839.1	1005.82	-29740.6	0.000000	0.000000	7.234253	358.943	NaN	0.000000	0.001656	0.001802	28.0802	76.987	0.001670	46094.2	4.430733	172.396	355.193	1.219022	0.081565	0.081304	358.943	46094.2	0.075724	0.188150	1907.75	97088.4
425	2.000000	1.221815	7.36922e+06	-55839.1	1005.82	-29740.6	0.000000	0.000000	7.237761	382.675	NaN	0.000000	0.001658	0.001799	28.0802	78.5897	0.001797	43745.1	5.701933	-7.046215	377.424	1.221374	0.084096	0.083655	382.675	43745.1	0.077535	0.196084	1951.59	90257.2
425	2.000000	1.224298	7.36922e+06	-55839.1	1005.82	-29740.6	0.000000	0.000000	7.241012	401.329	NaN	0.000000	0.001648	0.001797	28.08	81.179	0.001788	45406.1	4.398722	172.746	398.243	1.223993	0.086580	0.086275	401.329	45406.1	0.079951	0.206905	1939.68	91201.4
425	2.000000	1.226848	7.36922e+06	-55839.1	1005.82	-29740.6	0.000000	0.000000	7.244408	421.93	NaN	0.000000	0.001685	0.001742	28.0801	82.9556	0.001754	47297.5	5.607344	-8.084947	420.033	1.226597	0.089129	0.088879	421.93	47297.5	0.082439	0.218334	1932.5	92480.6
425	2.000000	1.229408	7.36922e+06	-55839.1	1005.82	-29740.6	0.000000	0.000000	7.247647	438.424	NaN	0.000000	0.001656	0.001739	28.0804	86.518	0.001843	46934.7	5.624077	172.456	440.218	1.229068	0.091690	0.091349	438.424	46934.7	0.084684	0.228895	1915.39	89629.1
425	2.000000	1.231960	7.36922e+06	-55839.1	1005.82	-29740.6	0.000000	0.000000	7.251398	467.571	NaN	0.000000	0.001691	0.001729	28.0801	89.2183	0.001839	48525.4	8.197007	-11.0399	469.58	1.231406	0.094241	0.093688	467.571	48525.4	0.087014	0.240105	1947.36	90477.7
425	2.000000	1.234326	7.36922e+06	-55839.1	1005.82	-29740.6	0.000000	0.000000	7.254782	492.294	NaN	0.000000	0.001677	0.001744	28.0801	90.5667	0.001751	51729.7	7.394706	169.469	493.164	1.233948	0.096608	0.096230	492.294	51729.7	0.089470	0.252187	1952.1	94113.5
425	2.000000	1.236728	7.36922e+06	-55839.1	1005.82	-29740.6	0.000000	0.000000	7.257958	511.101	NaN	0.000000	0.001717	0.001802	28.0801	92.3712	0.001737	53174.7	4.746330	-8.806302	501.68	1.236466	0.099010	0.098747	511.101	53174.7	0.091801	0.263911	1936.64	94569.2
425	2.000000	1.239379	7.36922e+06	-55839.1	1005.82	-29740.6	0.000000	0.000000	7.261397	530.252	NaN	0.000000	0.001721	0.001749	28.0805	95.1662	0.001853	51350	3.183050	173.528	529.825	1.239038	0.101661	0.101320	530.252	51350	0.093916	0.274764	1929.84	89502.3
425	2.000000	1.241850	7.36922e+06	-55839.1	1005.82	-29740.6	0.000000	0.000000	7.265438	568.412	NaN	0.000000	0.001730	0.001749	28.0814	97.363	0.001777	54785	9.268593	-13.5846	566.264	1.241485	0.104132	0.103767	568.412	54785	0.096351	0.287508	1977.03	93349
425	2.000000	1.243214	7.36922e+06	-55839.1	1005.82	-29740.6	0.000000	0.000000	7.267525	585.989	NaN	0.000000	0.001719	0.001768	28.0815	97.7563	0.001744	56039.1	3.333503	173.255	579.22	1.243001	0.105496	0.105283	585.989	56039.1	0.097653	0.294440	1990.18	94355.2