File: remote_trans/data/nanoindenter/0828-1/data/Data_2025-08-06,11h17m57s/2025-07-22_16-23-58_1_324.txt
2025-07-22, 16:23:58, 1
Index	Phase	Displacement	Time	Pos X	Pos Y	Pos Z	Rot A	Rot B	Piezo Z	Force A	Force B	Gripper	Voltage A	Voltage B	Temperature	Amplitude force	Amplitude pos	Stiffness	Phase shift	Phase excitation	Force A raw	Displacement raw	HMax	HMax raw	Real Force	Real Stiffness	Contact Depth	Area	Hardness	Reduced Mod.
[#]	[#]	[um]	[s]	[um]	[um]	[um]	[m°]	[m°]	[um]	[uN]	[uN]	[V]	[V]	[V]	[°C]	[uN]	[um]	[N/m]	[°]	[°]	[uN]	[um]	[um]	[um]	[uN]	[N/m]	[um]	[um^2]	[MPa]	[MPa]
324	1.000000	0.002643	7.36823e+06	-54839.1	955.818	-29743.2	0.000000	0.000000	6.002781	0.036702	NaN	0.000000	0.001602	0.001685	28.0795	0.082801	0.000884	93.6889	82.9879	-164.534	-0.015980	0.001390	-0.982302	-0.983554	0.036702	93.6889	-0.982596	-1.322446E+13	-2.775329E-15	NaN
324	1.000000	0.010611	7.36823e+06	-54839.1	955.819	-29743.2	0.000000	0.000000	6.010749	0.055807	NaN	0.000000	0.001625	0.001606	28.0796	0.088147	0.001021	86.3005	-92.9931	-163.421	0.074771	0.009267	-0.974334	-0.975677	0.055807	86.3005	-0.974819	-1.038974E+13	-5.371386E-15	NaN
324	1.000000	0.018642	7.36823e+06	-54839.1	955.818	-29743.2	0.000000	0.000000	6.018778	-0.005406	NaN	0.000000	0.001589	0.001636	28.0793	0.060986	0.001727	35.3072	139.809	-166.275	-0.091920	0.017308	-0.966302	-0.967637	-0.005406	35.3072	-0.966188	-7.948406E+12	6.801204E-16	NaN
324	1.000000	0.026648	7.36823e+06	-54839.1	955.817	-29743.2	0.000000	0.000000	6.026786	0.045823	NaN	0.000000	0.001630	0.001642	28.0795	0.128098	0.001831	69.9722	-133.933	-162.026	0.020635	0.025320	-0.958297	-0.959625	0.045823	69.9722	-0.958788	-6.317270E+12	-7.253686E-15	NaN
324	1.000000	0.034605	7.36823e+06	-54839.1	955.818	-29743.2	0.000000	0.000000	6.034741	-0.007375	NaN	0.000000	0.001621	0.001649	28.0797	0.064112	0.001983	32.3242	-163.007	-162.92	0.003233	0.033314	-0.950340	-0.951631	-0.007375	32.3242	-0.950169	-4.833996E+12	1.525600E-15	NaN
324	1.000000	0.042585	7.36823e+06	-54839.1	955.818	-29743.2	0.000000	0.000000	6.042721	-0.006095	NaN	0.000000	0.001617	0.001650	28.0797	0.096344	0.001853	52.0042	-54.5032	-165.767	0.066591	0.041251	-0.942360	-0.943693	-0.006095	52.0042	-0.942272	-3.782621E+12	1.611278E-15	NaN
324	1.000000	0.050643	7.36823e+06	-54839.1	955.818	-29743.2	0.000000	0.000000	6.050781	0.043379	NaN	0.000000	0.001624	0.001637	28.0798	0.065540	0.001999	32.782	-1.629656	-164.926	0.091205	0.049309	-0.934302	-0.935636	0.043379	32.782	-0.935294	-3.045370E+12	-1.424412E-14	NaN
324	1.000000	0.058615	7.36823e+06	-54839.1	955.819	-29743.2	0.000000	0.000000	6.058755	0.085920	NaN	0.000000	0.001637	0.001695	28.0795	0.041035	0.001985	20.6755	70.8393	-162.285	-0.027539	0.057381	-0.926330	-0.927564	0.085920	20.6755	-0.929447	-2.539387E+12	-3.383476E-14	NaN
324	1.000000	0.066618	7.36823e+06	-54839.1	955.818	-29743.2	0.000000	0.000000	6.066754	-0.003457	NaN	0.000000	0.001631	0.001645	28.0796	0.047593	0.002062	23.0767	-162.374	-164.116	-0.058391	0.065274	-0.918327	-0.919671	-0.003457	23.0767	-0.918214	-1.790999E+12	1.930089E-15	NaN
324	1.000000	0.074646	7.36824e+06	-54839.1	955.818	-29743.2	0.000000	0.000000	6.074786	0.074124	NaN	0.000000	0.001592	0.001637	28.0801	0.003884	0.002017	1.925535	-178.691	-164.745	0.011795	0.073245	-0.910298	-0.911700	0.074124	1.925535	-0.939170	-3.435066E+12	-2.157859E-14	NaN
324	1.000000	0.082607	7.36824e+06	-54839.1	955.818	-29743.2	0.000000	0.000000	6.082742	-0.046402	NaN	0.000000	0.001597	0.001633	28.0811	0.043427	0.001936	22.429	-110.507	-167.423	0.041535	0.081313	-0.902338	-0.903632	-0.046402	22.429	-0.900786	-1.041565E+12	4.455001E-14	NaN
324	1.000000	0.090641	7.36824e+06	-54839.1	955.818	-29743.2	0.000000	0.000000	6.090776	-0.031024	NaN	0.000000	0.001607	0.001673	28.0811	0.041109	0.001975	20.8173	-155.085	-165.403	-0.017337	0.089313	-0.894303	-0.895632	-0.031024	20.8173	-0.893186	-8.221949E+11	3.773285E-14	NaN
324	1.000000	0.098638	7.36824e+06	-54839.1	955.82	-29743.2	0.000000	0.000000	6.098778	0.079485	NaN	0.000000	0.001607	0.001681	28.081	0.104207	0.001905	54.6883	159.354	-164.347	0.068629	0.097271	-0.886306	-0.887674	0.079485	54.6883	-0.887397	-6.866259E+11	-1.157617E-13	NaN
324	1.000000	0.106637	7.36824e+06	-54839.1	955.818	-29743.2	0.000000	0.000000	6.106776	0.057224	NaN	0.000000	0.001622	0.001644	28.0808	0.084849	0.002062	41.1413	-16.9809	-164.002	0.015738	0.105312	-0.878308	-0.879632	0.057224	41.1413	-0.879351	-5.344747E+11	-1.070654E-13	NaN
324	1.000000	0.114637	7.36824e+06	-54839.1	955.818	-29743.2	0.000000	0.000000	6.114773	-0.004874	NaN	0.000000	0.001592	0.001650	28.0809	0.061241	0.002041	30.0088	-150.751	-166.328	0.015262	0.113303	-0.870307	-0.871642	-0.004874	30.0088	-0.870186	-4.017495E+11	1.213269E-14	NaN
324	1.000000	0.122636	7.36824e+06	-54839.1	955.818	-29743.2	0.000000	0.000000	6.122770	-0.051185	NaN	0.000000	0.001625	0.001642	28.081	0.020846	0.002014	10.349	-174.753	-161.352	-0.069740	0.121374	-0.862308	-0.863571	-0.051185	10.349	-0.858599	-2.799998E+11	1.828038E-13	NaN
324	1.000000	0.130638	7.36824e+06	-54839.1	955.819	-29743.2	0.000000	0.000000	6.130771	-0.069766	NaN	0.000000	0.001615	0.001652	28.0813	0.160690	0.002113	76.0638	-70.9083	-164.603	0.005985	0.129353	-0.854307	-0.855592	-0.069766	76.0638	-0.853619	-2.397420E+11	2.910044E-13	NaN
324	1.000000	0.138665	7.36824e+06	-54839.1	955.818	-29743.2	0.000000	0.000000	6.138800	-0.042269	NaN	0.000000	0.001614	0.001702	28.0811	0.091750	0.002009	45.6649	-3.135276	-160.702	-0.071016	0.137381	-0.846279	-0.847564	-0.042269	45.6649	-0.845585	-1.866162E+11	2.265023E-13	NaN
324	1.000000	0.146627	7.36824e+06	-54839.1	955.818	-29743.2	0.000000	0.000000	6.146766	0.046358	NaN	0.000000	0.001599	0.001660	28.0809	0.048119	0.002017	23.8569	-19.429	-168.26	0.044681	0.145299	-0.838317	-0.839646	0.046358	23.8569	-0.839775	-1.556829E+11	-2.977713E-13	NaN
324	1.000000	0.154657	7.36824e+06	-54839.1	955.819	-29743.2	0.000000	0.000000	6.154795	0.045804	NaN	0.000000	0.001571	0.001672	28.081	0.082771	0.001955	42.3291	-42.8401	-164.355	-0.046640	0.153412	-0.830287	-0.831533	0.045804	42.3291	-0.831099	-1.187626E+11	-3.856772E-13	NaN
324	1.000000	0.162643	7.36824e+06	-54839.1	955.818	-29743.2	0.000000	0.000000	6.162780	0.023442	NaN	0.000000	0.001597	0.001683	28.081	0.070732	0.001962	36.0519	-116.119	-160.716	-0.104797	0.161340	-0.822302	-0.823605	0.023442	36.0519	-0.822789	-9.162884E+10	-2.558342E-13	NaN
324	1.000000	0.170658	7.36824e+06	-54839.1	955.818	-29743.2	0.000000	0.000000	6.170795	0.015963	NaN	0.000000	0.001619	0.001665	28.0811	0.064127	0.002008	31.9433	152.746	-166.822	0.031460	0.169326	-0.814287	-0.815618	0.015963	31.9433	-0.814662	-7.109048E+10	-2.245439E-13	NaN
324	1.000000	0.178676	7.36824e+06	-54839.1	955.819	-29743.2	0.000000	0.000000	6.178811	-0.038386	NaN	0.000000	0.001613	0.001650	28.081	0.050638	0.002123	23.8565	40.8043	-163.577	-0.063959	0.177426	-0.806269	-0.807519	-0.038386	23.8565	-0.805062	-5.267008E+10	7.287969E-13	NaN
324	1.000000	0.186648	7.36824e+06	-54839.1	955.819	-29743.2	0.000000	0.000000	6.186786	0.028608	NaN	0.000000	0.001587	0.001642	28.0808	0.055650	0.001850	30.089	-72.3484	-165.943	-0.034173	0.185388	-0.798296	-0.799557	0.028608	30.089	-0.799010	-4.359313E+10	-6.562564E-13	NaN
324	1.000000	0.194693	7.36824e+06	-54839.1	955.817	-29743.2	0.000000	0.000000	6.194830	0.015383	NaN	0.000000	0.001590	0.001618	28.0811	0.024929	0.001942	12.8367	-26.1094	-166.754	0.053733	0.193373	-0.790251	-0.791572	0.015383	12.8367	-0.791150	-3.409598E+10	-4.511629E-13	NaN
324	1.000000	0.202666	7.36824e+06	-54839.1	955.819	-29743.2	0.000000	0.000000	6.202802	0.005014	NaN	0.000000	0.001577	0.001630	28.0809	0.036316	0.001996	18.1951	-171.494	-167.252	0.013169	0.201418	-0.782279	-0.783526	0.005014	18.1951	-0.782485	-2.600181E+10	-1.928363E-13	NaN
324	1.000000	0.210682	7.36824e+06	-54839.1	955.818	-29743.2	0.000000	0.000000	6.210818	0.007045	NaN	0.000000	0.001592	0.001649	28.0804	0.152136	0.002027	75.0578	-169.509	-165.378	-0.021100	0.209356	-0.774263	-0.775589	0.007045	75.0578	-0.774333	-2.014731E+10	-3.496656E-13	NaN
324	1.000000	0.218671	7.36824e+06	-54839.1	955.818	-29743.2	0.000000	0.000000	6.218807	-0.004704	NaN	0.000000	0.001618	0.001620	28.0795	0.021832	0.002084	10.4775	91.01	-167.614	-0.025324	0.217397	-0.766273	-0.767548	-0.004704	10.4775	-0.765937	-1.549006E+10	3.037080E-13	NaN
324	1.000000	0.226675	7.36824e+06	-54839.1	955.818	-29743.2	0.000000	0.000000	6.226812	0.006058	NaN	0.000000	0.001617	0.001632	28.0797	0.048228	0.001980	24.3622	10.0566	-163.697	0.048799	0.225372	-0.758269	-0.759573	0.006058	24.3622	-0.758456	-1.225452E+10	-4.943454E-13	NaN
324	1.000000	0.234688	7.36824e+06	-54839.1	955.819	-29743.2	0.000000	0.000000	6.234826	0.034382	NaN	0.000000	0.001646	0.001662	28.08	0.150008	0.002165	69.2898	103.217	-164.009	0.040291	0.233393	-0.750256	-0.751551	0.034382	69.2898	-0.750629	-9.589055E+9	-3.585539E-12	NaN
324	1.000000	0.242704	7.36824e+06	-54839.1	955.819	-29743.2	0.000000	0.000000	6.242839	-0.030560	NaN	0.000000	0.001630	0.001662	28.0796	0.057688	0.001913	30.1582	157.627	-166.691	0.001034	0.241405	-0.742241	-0.743540	-0.030560	30.1582	-0.741481	-7.198303E+9	4.245432E-12	NaN
324	1.000000	0.250732	7.36824e+06	-54839.1	955.819	-29743.2	0.000000	0.000000	6.250867	-0.043760	NaN	0.000000	0.001610	0.001645	28.0796	0.053789	0.001964	27.3925	35.0544	-165.371	0.092492	0.249434	-0.734213	-0.735511	-0.043760	27.3925	-0.733014	-5.519352E+9	7.928416E-12	NaN
324	1.000000	0.258694	7.36824e+06	-54839.1	955.819	-29743.2	0.000000	0.000000	6.258829	-0.034646	NaN	0.000000	0.001622	0.001612	28.0795	0.068069	0.002140	31.8052	152.587	-162.66	-0.006452	0.257392	-0.726251	-0.727553	-0.034646	31.8052	-0.725434	-4.350762E+9	7.963175E-12	NaN
324	1.000000	0.266665	7.36824e+06	-54839.1	955.818	-29743.2	0.000000	0.000000	6.266802	0.028840	NaN	0.000000	0.001605	0.001631	28.0797	0.059691	0.002061	28.9671	-28.6031	-162.938	0.001812	0.265395	-0.718280	-0.719550	0.028840	28.9671	-0.719027	-3.557967E+9	-8.105792E-12	NaN
324	1.000000	0.274685	7.36824e+06	-54839.1	955.818	-29743.2	0.000000	0.000000	6.274822	0.005946	NaN	0.000000	0.001602	0.001607	28.0798	0.053320	0.002096	25.4429	141.648	-163.701	0.095946	0.273393	-0.710260	-0.711552	0.005946	25.4429	-0.710435	-2.716328E+9	-2.188990E-12	NaN
324	1.000000	0.282723	7.36824e+06	-54839.1	955.819	-29743.2	0.000000	0.000000	6.282860	0.020921	NaN	0.000000	0.001564	0.001604	28.0797	0.017176	0.001993	8.618174	131.636	-166.725	0.091132	0.281408	-0.702221	-0.703536	0.020921	8.618174	-0.704042	-2.221900E+9	-9.415825E-12	NaN
324	1.000000	0.290736	7.36824e+06	-54839.1	955.819	-29743.2	0.000000	0.000000	6.290873	0.019754	NaN	0.000000	0.001595	0.001621	28.0798	0.117468	0.002015	58.298	127.497	-164.933	0.003347	0.289346	-0.694209	-0.695599	0.019754	58.298	-0.694463	-1.644000E+9	-1.201591E-11	NaN
324	1.000000	0.298693	7.36824e+06	-54839.1	955.818	-29743.2	0.000000	0.000000	6.298832	0.064951	NaN	0.000000	0.001548	0.001605	28.0796	0.127473	0.001984	64.2476	88.1023	-164.632	0.060138	0.297403	-0.686252	-0.687541	0.064951	64.2476	-0.687010	-1.300315E+9	-4.995056E-11	NaN
324	1.000000	0.306747	7.36824e+06	-54839.1	955.818	-29743.2	0.000000	0.000000	6.306882	-0.039893	NaN	0.000000	0.001596	0.001624	28.0796	0.121175	0.002051	59.0761	-133.353	-161.657	0.001932	0.305431	-0.678198	-0.679513	-0.039893	59.0761	-0.677691	-9.696718E+8	4.114097E-11	NaN
324	1.000000	0.314718	7.36824e+06	-54839.1	955.818	-29743.2	0.000000	0.000000	6.314853	-0.034110	NaN	0.000000	0.001587	0.001625	28.0796	0.046494	0.002030	22.9043	-34.3086	-164.829	0.062040	0.313399	-0.670227	-0.671546	-0.034110	22.9043	-0.669110	-7.399619E+8	4.609755E-11	NaN
324	1.000000	0.322735	7.36824e+06	-54839.1	955.818	-29743.2	0.000000	0.000000	6.322869	-0.036158	NaN	0.000000	0.001574	0.001603	28.0795	0.064896	0.002062	31.4722	45.0653	-163.219	-0.061905	0.321427	-0.662210	-0.663518	-0.036158	31.4722	-0.661348	-5.793461E+8	6.241197E-11	NaN
324	1.000000	0.330777	7.36824e+06	-54839.1	955.817	-29743.2	0.000000	0.000000	6.330914	0.003783	NaN	0.000000	0.001588	0.001607	28.0795	0.110242	0.002194	50.2502	112.154	-165.846	0.036936	0.329363	-0.654168	-0.655581	0.003783	50.2502	-0.654224	-4.627363E+8	-8.174935E-12	NaN
324	1.000000	0.338748	7.36824e+06	-54839.1	955.818	-29743.2	0.000000	0.000000	6.338884	0.005860	NaN	0.000000	0.001603	0.001621	28.0796	0.057779	0.002105	27.4432	-119.562	-166.001	0.098285	0.337479	-0.646197	-0.647465	0.005860	27.4432	-0.646357	-3.609826E+8	-1.623413E-11	NaN
324	1.000000	0.346738	7.36824e+06	-54839.1	955.82	-29743.2	0.000000	0.000000	6.346877	0.066303	NaN	0.000000	0.001618	0.001573	28.08	0.107698	0.001986	54.2385	-73.7929	-165.234	0.037135	0.345431	-0.638207	-0.639513	0.066303	54.2385	-0.639124	-2.872523E+8	-2.308190E-10	NaN
324	1.000000	0.354712	7.36824e+06	-54839.1	955.819	-29743.2	0.000000	0.000000	6.354846	-0.040699	NaN	0.000000	0.001610	0.001637	28.0809	0.061408	0.002040	30.1011	-104.284	-166.953	-0.033246	0.353472	-0.630233	-0.631473	-0.040699	30.1011	-0.629219	-2.100380E+8	1.937690E-10	NaN
324	1.000000	0.362697	7.36824e+06	-54839.1	955.818	-29743.2	0.000000	0.000000	6.362833	0.014765	NaN	0.000000	0.001621	0.001658	28.0811	0.130008	0.002020	64.3595	149.853	-166.764	0.036062	0.361431	-0.622248	-0.623514	0.014765	64.3595	-0.622420	-1.693936E+8	-8.716389E-11	NaN
324	1.000000	0.370745	7.36824e+06	-54839.1	955.819	-29743.2	0.000000	0.000000	6.370882	0.018427	NaN	0.000000	0.001579	0.001588	28.0809	0.038233	0.002025	18.8833	-18.7029	-165.473	0.047136	0.369401	-0.614199	-0.615544	0.018427	18.8833	-0.614931	-1.336421E+8	-1.378838E-10	NaN
324	1.000000	0.378743	7.36824e+06	-54839.1	955.819	-29743.2	0.000000	0.000000	6.378879	-0.009886	NaN	0.000000	0.001634	0.001619	28.0809	0.038682	0.002027	19.0818	165.724	-162.532	0.010841	0.377419	-0.606202	-0.607526	-0.009886	19.0818	-0.605813	-1.001142E+8	9.874299E-11	NaN
324	1.000000	0.386726	7.36824e+06	-54839.1	955.818	-29743.2	0.000000	0.000000	6.386861	-0.031947	NaN	0.000000	0.001645	0.001599	28.0812	0.072490	0.002070	35.0256	-11.4673	-164.977	-0.009154	0.385439	-0.598219	-0.599506	-0.031947	35.0256	-0.597535	-7.700191E+7	4.148905E-10	NaN
324	1.000000	0.394774	7.36824e+06	-54839.1	955.819	-29743.2	0.000000	0.000000	6.394912	0.046473	NaN	0.000000	0.001621	0.001618	28.0808	0.158042	0.001895	83.3993	173.768	-163.826	0.044210	0.393437	-0.590171	-0.591507	0.046473	83.3993	-0.590589	-6.177080E+7	-7.523413E-10	NaN
324	1.000000	0.402752	7.36824e+06	-54839.1	955.819	-29743.2	0.000000	0.000000	6.402889	0.011333	NaN	0.000000	0.001604	0.001596	28.0812	0.078953	0.002096	37.6737	121.735	-166.667	-0.012593	0.401461	-0.582192	-0.583484	0.011333	37.6737	-0.582418	-4.765329E+7	-2.378208E-10	NaN
324	1.000000	0.410784	7.36824e+06	-54839.1	955.819	-29743.2	0.000000	0.000000	6.410921	0.015091	NaN	0.000000	0.001627	0.001621	28.0809	0.056872	0.001975	28.7993	83.4929	-164.758	-0.009535	0.409514	-0.574160	-0.575430	0.015091	28.7993	-0.574553	-3.711352E+7	-4.066154E-10	NaN
324	1.000000	0.418762	7.36824e+06	-54839.1	955.819	-29743.2	0.000000	0.000000	6.418899	0.021696	NaN	0.000000	0.001639	0.001591	28.0809	0.100932	0.001965	51.3539	-162.442	-166.013	-0.033498	0.417485	-0.566183	-0.567460	0.021696	51.3539	-0.566500	-2.872466E+7	-7.553051E-10	NaN
324	1.000000	0.426772	7.36824e+06	-54839.1	955.818	-29743.2	0.000000	0.000000	6.426911	0.083356	NaN	0.000000	0.001624	0.001634	28.0809	0.041514	0.002022	20.5364	86.8584	-165.382	0.004812	0.425412	-0.558173	-0.559533	0.083356	20.5364	-0.561217	-2.427808E+7	-3.433368E-9	NaN
324	1.000000	0.434797	7.36824e+06	-54839.1	955.819	-29743.2	0.000000	0.000000	6.434931	-0.054068	NaN	0.000000	0.001661	0.001636	28.0809	0.121905	0.002010	60.6484	138.798	-163.055	-0.006427	0.433450	-0.550148	-0.551495	-0.054068	60.6484	-0.549479	-1.670094E+7	3.237427E-9	NaN
324	1.000000	0.442755	7.36824e+06	-54839.1	955.818	-29743.2	0.000000	0.000000	6.442893	0.032116	NaN	0.000000	0.001641	0.001668	28.0811	0.049467	0.002013	24.5725	29.4883	-166.057	0.081143	0.441512	-0.542190	-0.543433	0.032116	24.5725	-0.543170	-1.365563E+7	-2.351818E-9	NaN
324	1.000000	0.450786	7.36824e+06	-54839.1	955.818	-29743.2	0.000000	0.000000	6.450922	-0.002295	NaN	0.000000	0.001652	0.001646	28.0808	0.062976	0.002028	31.0591	129.355	-159.721	0.003533	0.449488	-0.534158	-0.535457	-0.002295	31.0591	-0.534103	-1.022211E+7	2.245043E-10	NaN
324	1.000000	0.458786	7.36824e+06	-54839.1	955.818	-29743.2	0.000000	0.000000	6.458920	-0.050711	NaN	0.000000	0.001614	0.001662	28.0811	0.101769	0.001971	51.6207	-60.9398	-163.504	0.026596	0.457471	-0.526159	-0.527473	-0.050711	51.6207	-0.525422	-7.74423e+06	6.548263E-9	NaN
324	1.000000	0.466820	7.36824e+06	-54839.1	955.818	-29743.2	0.000000	0.000000	6.466957	0.018072	NaN	0.000000	0.001612	0.001668	28.0809	0.044731	0.002062	21.6946	57.6203	-165.51	0.027128	0.465481	-0.518125	-0.519464	0.018072	21.6946	-0.518750	-6.25471e+06	-2.889310E-9	NaN
324	1.000000	0.474779	7.36824e+06	-54839.1	955.818	-29743.2	0.000000	0.000000	6.474914	-0.037559	NaN	0.000000	0.001651	0.001714	28.0808	0.020512	0.002018	10.1633	-143.208	-166.205	-0.047041	0.473507	-0.510166	-0.511438	-0.037559	10.1633	-0.507394	-4.34622e+06	8.641802E-9	NaN
324	1.000000	0.482786	7.36824e+06	-54839.1	955.818	-29743.2	0.000000	0.000000	6.482922	-0.009776	NaN	0.000000	0.001650	0.001676	28.0811	0.058973	0.002063	28.5915	-1.893182	-163.101	-0.013661	0.481466	-0.502159	-0.503479	-0.009776	28.5915	-0.501902	-3.64379e+06	2.682837E-9	NaN
324	1.000000	0.490830	7.36824e+06	-54839.1	955.818	-29743.2	0.000000	0.000000	6.490967	0.011806	NaN	0.000000	0.001635	0.001659	28.0796	0.081003	0.001968	41.152	40.1086	-164.414	0.030491	0.489480	-0.494115	-0.495465	0.011806	41.152	-0.494330	-2.85678e+06	-4.132552E-9	NaN
324	1.000000	0.498817	7.36824e+06	-54839.1	955.818	-29743.2	0.000000	0.000000	6.498954	0.027790	NaN	0.000000	0.001621	0.001625	28.0797	0.041801	0.001807	23.1298	80.3183	-163.998	0.033145	0.497468	-0.486128	-0.487477	0.027790	23.1298	-0.487029	-2.25872e+06	-1.230332E-8	NaN
324	1.000000	0.506829	7.36824e+06	-54839.1	955.818	-29743.2	0.000000	0.000000	6.506967	0.051205	NaN	0.000000	0.001673	0.001659	28.0796	0.065230	0.001994	32.7082	-151.414	-162.3	0.025355	0.505509	-0.478116	-0.479436	0.051205	32.7082	-0.479290	-1.76031e+06	-2.908896E-8	NaN
324	1.000000	0.514796	7.36824e+06	-54839.1	955.818	-29743.2	0.000000	0.000000	6.514933	0.004922	NaN	0.000000	0.001628	0.001624	28.0798	0.056141	0.001981	28.3387	-171.062	-165.058	0.068725	0.513516	-0.470148	-0.471428	0.004922	28.3387	-0.470279	-1.31618e+06	-3.739889E-9	NaN
324	1.000000	0.522780	7.36824e+06	-54839.1	955.819	-29743.2	0.000000	0.000000	6.522918	0.036563	NaN	0.000000	0.001624	0.001656	28.08	0.021144	0.002011	10.5128	97.0134	-164.905	-0.020128	0.521517	-0.462164	-0.463427	0.036563	10.5128	-0.464773	-1.10168e+06	-3.318812E-8	NaN
324	1.000000	0.530809	7.36824e+06	-54839.1	955.818	-29743.2	0.000000	0.000000	6.530945	0.007778	NaN	0.000000	0.001632	0.001643	28.0796	0.025596	0.002052	12.4765	1.060342	-163.804	0.013839	0.529538	-0.454136	-0.455406	0.007778	12.4765	-0.454604	-792758	-9.811235E-9	NaN
324	1.000000	0.538817	7.36824e+06	-54839.1	955.819	-29743.2	0.000000	0.000000	6.538953	-0.004989	NaN	0.000000	0.001639	0.001629	28.0796	0.049305	0.001955	25.2147	86.8416	-164.004	0.021761	0.537489	-0.446128	-0.447455	-0.004989	25.2147	-0.445979	-599371	8.324453E-9	NaN
324	1.000000	0.546816	7.36824e+06	-54839.1	955.818	-29743.2	0.000000	0.000000	6.546953	0.012760	NaN	0.000000	0.001627	0.001639	28.0796	0.046699	0.002080	22.4503	119.526	-165.107	0.061489	0.545531	-0.438129	-0.439414	0.012760	22.4503	-0.438555	-470940	-2.709431E-8	NaN
324	1.000000	0.554822	7.36824e+06	-54839.1	955.818	-29743.2	0.000000	0.000000	6.554959	0.015109	NaN	0.000000	0.001692	0.001651	28.0803	0.028819	0.001959	14.7125	105.948	-165.287	0.012267	0.553511	-0.430122	-0.431433	0.015109	14.7125	-0.430893	-367018	-4.116778E-8	NaN
324	1.000000	0.562830	7.36824e+06	-54839.1	955.819	-29743.2	0.000000	0.000000	6.562966	0.003903	NaN	0.000000	0.001733	0.001652	28.0798	0.113726	0.002101	54.1379	145.303	-165.03	0.017341	0.561535	-0.422115	-0.423409	0.003903	54.1379	-0.422169	-276165	-1.413205E-8	NaN
324	1.000000	0.570846	7.36824e+06	-54839.1	955.818	-29743.2	0.000000	0.000000	6.570983	0.019790	NaN	0.000000	0.001709	0.001636	28.0795	0.021195	0.002092	10.133	-50.342	-166.171	0.061442	0.569529	-0.414099	-0.415416	0.019790	10.133	-0.415564	-222568	-8.891639E-8	NaN
324	1.000000	0.578818	7.36824e+06	-54839.1	955.818	-29743.2	0.000000	0.000000	6.578953	-0.041869	NaN	0.000000	0.001700	0.001643	28.0796	0.031616	0.001936	16.3316	-170.12	-166.991	-0.060334	0.577552	-0.406126	-0.407393	-0.041869	16.3316	-0.404204	-153429	2.728865E-7	NaN
324	1.000000	0.586838	7.36824e+06	-54839.1	955.819	-29743.2	0.000000	0.000000	6.586972	-0.045520	NaN	0.000000	0.001731	0.001634	28.0797	0.037880	0.001819	20.8247	92.3007	-166.172	-0.021432	0.585528	-0.398107	-0.399417	-0.045520	20.8247	-0.396468	-119012	3.824866E-7	NaN
324	1.000000	0.594868	7.36824e+06	-54839.1	955.818	-29743.2	0.000000	0.000000	6.595008	0.080708	NaN	0.000000	0.001710	0.001664	28.0797	0.029262	0.002115	13.8364	-65.5352	-166.394	0.075374	0.593595	-0.390077	-0.391350	0.080708	13.8364	-0.394451	-111378	-7.246350E-7	NaN
324	1.000000	0.602844	7.36824e+06	-54839.1	955.818	-29743.2	0.000000	0.000000	6.602981	0.027924	NaN	0.000000	0.001724	0.001681	28.0796	0.072925	0.002008	36.3126	154.523	-164.478	0.042143	0.601516	-0.382101	-0.383429	0.027924	36.3126	-0.382678	-75561.4	-3.695561E-7	NaN
324	1.000000	0.610872	7.36824e+06	-54839.1	955.819	-29743.2	0.000000	0.000000	6.611008	-0.016411	NaN	0.000000	0.001719	0.001732	28.0796	0.094351	0.001967	47.9611	75.4128	-161.494	-0.086695	0.609530	-0.374073	-0.375415	-0.016411	47.9611	-0.373816	-56370	2.911344E-7	NaN
324	1.000000	0.618852	7.36824e+06	-54839.1	955.819	-29743.2	0.000000	0.000000	6.618988	0.006631	NaN	0.000000	0.001735	0.001679	28.0798	0.019873	0.001991	9.983530	110.812	-163.5	0.086893	0.617561	-0.366093	-0.367383	0.006631	9.983530	-0.366591	-44361.4	-1.494706E-7	NaN
324	1.000000	0.626862	7.36824e+06	-54839.1	955.819	-29743.2	0.000000	0.000000	6.627000	0.031230	NaN	0.000000	0.001713	0.001727	28.0809	0.045575	0.002013	22.6423	6.572318	-167.753	-0.025491	0.625589	-0.358082	-0.359355	0.031230	22.6423	-0.359117	-34600.1	-9.025946E-7	NaN
324	1.000000	0.634858	7.36824e+06	-54839.1	955.819	-29743.2	0.000000	0.000000	6.634992	-0.049555	NaN	0.000000	0.001742	0.001720	28.0809	0.123923	0.001963	63.1362	101.303	-162.833	-0.084701	0.633528	-0.350087	-0.351417	-0.049555	63.1362	-0.349498	-25102.6	1.974088E-6	NaN
324	1.000000	0.642872	7.36824e+06	-54839.1	955.818	-29743.2	0.000000	0.000000	6.643006	-0.055298	NaN	0.000000	0.001693	0.001719	28.081	0.051598	0.002038	25.3127	-93.1761	-166.947	-0.064173	0.641538	-0.342073	-0.343407	-0.055298	25.3127	-0.340435	-18530.6	2.984143E-6	NaN
324	1.000000	0.650869	7.36824e+06	-54839.1	955.819	-29743.2	0.000000	0.000000	6.651006	0.016061	NaN	0.000000	0.001713	0.001757	28.0811	0.086274	0.001970	43.7838	74.9472	-163.828	-0.013597	0.649476	-0.334076	-0.335469	0.016061	43.7838	-0.334351	-15104.4	-1.063312E-6	NaN
324	1.000000	0.658861	7.36824e+06	-54839.1	955.818	-29743.2	0.000000	0.000000	6.658999	0.041190	NaN	0.000000	0.001698	0.001731	28.0809	0.085719	0.001854	46.2377	152.995	-164.225	0.029787	0.657528	-0.326084	-0.327417	0.041190	46.2377	-0.326752	-11690.9	-3.523282E-6	NaN
324	1.000000	0.666866	7.36824e+06	-54839.1	955.819	-29743.2	0.000000	0.000000	6.667002	-0.012783	NaN	0.000000	0.001721	0.001758	28.0809	0.031566	0.002092	15.0889	69.7185	-166.351	-0.016438	0.665567	-0.318078	-0.319378	-0.012783	15.0889	-0.317443	-8530.53	1.498544E-6	NaN
324	1.000000	0.674856	7.36824e+06	-54839.1	955.819	-29743.2	0.000000	0.000000	6.674994	0.043467	NaN	0.000000	0.001710	0.001748	28.0811	0.078482	0.002124	36.9466	-121.052	-165.851	0.034583	0.673581	-0.310088	-0.311363	0.043467	36.9466	-0.310971	-6845.71	-6.349519E-6	NaN
324	1.000000	0.682873	7.36824e+06	-54839.1	955.818	-29743.2	0.000000	0.000000	6.683010	0.022393	NaN	0.000000	0.001718	0.001712	28.0806	0.087592	0.002081	42.086	-79.3872	-166.857	0.090378	0.681528	-0.302071	-0.303417	0.022393	42.086	-0.302470	-5121.35	-4.372403E-6	NaN
324	1.000000	0.690880	7.36824e+06	-54839.1	955.819	-29743.2	0.000000	0.000000	6.691015	-0.014171	NaN	0.000000	0.001712	0.001756	28.0808	0.090135	0.002092	43.0892	137.949	-167.193	-0.008949	0.689575	-0.294065	-0.295369	-0.014171	43.0892	-0.293818	-3805.7	3.723501E-6	NaN
324	1.000000	0.698870	7.36824e+06	-54839.1	955.818	-29743.2	0.000000	0.000000	6.699007	0.008525	NaN	0.000000	0.001729	0.001735	28.0807	0.069202	0.001893	36.5584	-29.4492	-166.382	0.020760	0.697572	-0.286074	-0.287372	0.008525	36.5584	-0.286249	-2931.15	-2.908390E-6	NaN
324	1.000000	0.706910	7.36824e+06	-54839.1	955.818	-29743.2	0.000000	0.000000	6.707044	-0.046820	NaN	0.000000	0.001736	0.001735	28.0808	0.053473	0.002045	26.1511	173.773	-162.913	0.012680	0.705556	-0.278035	-0.279389	-0.046820	26.1511	-0.276692	-2103.79	2.225505E-5	NaN
324	1.000000	0.714881	7.36824e+06	-54839.1	955.819	-29743.2	0.000000	0.000000	6.715021	0.078673	NaN	0.000000	0.001759	0.001679	28.081	0.073093	0.002084	35.0652	-7.244699	-166.243	0.020627	0.713539	-0.270063	-0.271406	0.078673	35.0652	-0.271746	-1770.39	-4.443812E-5	NaN
324	1.000000	0.722906	7.36824e+06	-54839.1	955.817	-29743.2	0.000000	0.000000	6.723043	0.035685	NaN	0.000000	0.001691	0.001689	28.0807	0.079445	0.001857	42.781	-131.631	-167.05	-0.055048	0.721563	-0.262039	-0.263382	0.035685	42.781	-0.262665	-1287.39	-2.771921E-5	NaN
324	1.000000	0.730888	7.36824e+06	-54839.1	955.818	-29743.2	0.000000	0.000000	6.731024	-0.016038	NaN	0.000000	0.001723	0.001649	28.081	0.059563	0.001910	31.1774	161.173	-163.898	0.008066	0.729619	-0.254056	-0.255326	-0.016038	31.1774	-0.253671	-936.782	1.712021E-5	NaN
324	1.000000	0.738907	7.36824e+06	-54839.1	955.819	-29743.2	0.000000	0.000000	6.739042	-0.015531	NaN	0.000000	0.001726	0.001683	28.0809	0.027602	0.001911	14.4416	-39.6751	-165.804	-0.035235	0.737553	-0.246038	-0.247392	-0.015531	14.4416	-0.245231	-693.499	2.239477E-5	NaN
324	1.000000	0.746905	7.36824e+06	-54839.1	955.818	-29743.2	0.000000	0.000000	6.747040	-0.030568	NaN	0.000000	0.001705	0.001665	28.0808	0.063832	0.001935	32.9888	46.0019	-166.1	-0.012260	0.745588	-0.238040	-0.239356	-0.030568	32.9888	-0.237345	-522.424	5.851171E-5	NaN
324	1.000000	0.754916	7.36824e+06	-54839.1	955.819	-29743.2	0.000000	0.000000	6.755052	-0.005653	NaN	0.000000	0.001707	0.001651	28.0808	0.051640	0.002114	24.423	-111.995	-164.21	0.023423	0.753645	-0.230029	-0.231299	-0.005653	24.423	-0.229855	-398.321	1.419103E-5	NaN
324	1.000000	0.762890	7.36824e+06	-54839.1	955.819	-29743.2	0.000000	0.000000	6.763027	0.006518	NaN	0.000000	0.001697	0.001616	28.0794	0.082918	0.001960	42.3021	69.408	-165.302	0.025527	0.761596	-0.222054	-0.223349	0.006518	42.3021	-0.222170	-300.822	-2.166871E-5	NaN
324	1.000000	0.770924	7.36824e+06	-54839.1	955.818	-29743.2	0.000000	0.000000	6.771061	0.019331	NaN	0.000000	0.001679	0.001689	28.0799	0.044346	0.001947	22.7741	21.6304	-164.222	-0.016725	0.769589	-0.214020	-0.215356	0.019331	22.7741	-0.214657	-228.031	-8.477533E-5	NaN
324	1.000000	0.778924	7.36824e+06	-54839.1	955.818	-29743.2	0.000000	0.000000	6.779061	0.029228	NaN	0.000000	0.001702	0.001659	28.0795	0.053828	0.002009	26.7894	108.849	-165.125	-0.020337	0.777566	-0.206021	-0.207379	0.029228	26.7894	-0.206839	-170.419	-0.000172	NaN
324	1.000000	0.786914	7.36824e+06	-54839.1	955.817	-29743.2	0.000000	0.000000	6.787051	0.020904	NaN	0.000000	0.001726	0.001692	28.0793	0.010948	0.002018	5.425943	110.614	-163.531	0.006756	0.785637	-0.198031	-0.199308	0.020904	5.425943	-0.200920	-136.399	-0.000153	NaN
324	1.000000	0.794955	7.36824e+06	-54839.1	955.819	-29743.2	0.000000	0.000000	6.795091	-0.021979	NaN	0.000000	0.001708	0.001681	28.0795	0.072751	0.002007	36.2437	-86.4185	-163.894	-0.032204	0.793613	-0.189989	-0.191332	-0.021979	36.2437	-0.189535	-88.3589	0.000249	NaN
324	1.000000	0.802915	7.36824e+06	-54839.1	955.818	-29743.2	0.000000	0.000000	6.803049	-0.051379	NaN	0.000000	0.001719	0.001660	28.0796	0.018793	0.002025	9.279762	40.2786	-166.877	-0.023837	0.801586	-0.182029	-0.183358	-0.051379	9.279762	-0.177877	-56.1399	0.000915	NaN
324	1.000000	0.810924	7.36824e+06	-54839.1	955.818	-29743.2	0.000000	0.000000	6.811059	-0.036967	NaN	0.000000	0.001705	0.001683	28.0799	0.042900	0.001979	21.6767	41.6285	-164.386	-0.029973	0.809658	-0.174021	-0.175287	-0.036967	21.6767	-0.172742	-45.8228	0.000807	NaN
324	1.000000	0.818929	7.36824e+06	-54839.1	955.818	-29743.2	0.000000	0.000000	6.819066	0.013201	NaN	0.000000	0.001722	0.001713	28.0796	0.056025	0.002051	27.3191	-18.6521	-164.308	-0.039549	0.817623	-0.166016	-0.167322	0.013201	27.3191	-0.166378	-35.5196	-0.000372	NaN
324	1.000000	0.826926	7.36824e+06	-54839.1	955.818	-29743.2	0.000000	0.000000	6.827062	-0.024210	NaN	0.000000	0.001711	0.001692	28.0795	0.076087	0.001999	38.0586	47.1718	-164.728	0.027349	0.825638	-0.158018	-0.159307	-0.024210	38.0586	-0.157541	-24.7835	0.000977	NaN
324	1.000000	0.834949	7.36824e+06	-54839.1	955.818	-29743.2	0.000000	0.000000	6.835089	0.077838	NaN	0.000000	0.001700	0.001708	28.0797	0.104246	0.001959	53.2249	-159.94	-163.523	-0.016627	0.833620	-0.149996	-0.151325	0.077838	53.2249	-0.151092	-18.9626	-0.004105	NaN
324	1.000000	0.842965	7.36824e+06	-54839.1	955.818	-29743.2	0.000000	0.000000	6.843102	0.031115	NaN	0.000000	0.001701	0.001717	28.0797	0.059025	0.002002	29.4863	19.0922	-165.397	0.004961	0.841623	-0.141980	-0.143322	0.031115	29.4863	-0.142772	-13.3292	-0.002334	NaN
324	1.000000	0.850933	7.36824e+06	-54839.1	955.818	-29743.2	0.000000	0.000000	6.851069	-0.000605	NaN	0.000000	0.001690	0.001767	28.0797	0.073145	0.001974	37.0478	133.022	-164.65	-0.081183	0.849643	-0.134012	-0.135302	-0.000605	37.0478	-0.133999	-9.102349	6.642753E-5	NaN
324	1.000000	0.858936	7.36824e+06	-54839.1	955.819	-29743.2	0.000000	0.000000	6.859070	-0.054669	NaN	0.000000	0.001729	0.001778	28.0795	0.101500	0.001980	51.2738	116.338	-165.594	-0.056790	0.857666	-0.126009	-0.127279	-0.054669	51.2738	-0.125209	-6.139431	0.008905	NaN
324	1.000000	0.866938	7.36824e+06	-54839.1	955.818	-29743.2	0.000000	0.000000	6.867074	0.013042	NaN	0.000000	0.001711	0.001738	28.0799	0.061527	0.002071	29.703	-58.3417	-163.186	0.016314	0.865620	-0.118007	-0.119325	0.013042	29.703	-0.118336	-4.470871	-0.002917	NaN
324	1.000000	0.874965	7.36824e+06	-54839.1	955.818	-29743.2	0.000000	0.000000	6.875101	0.002707	NaN	0.000000	0.001696	0.001764	28.0796	0.097047	0.002044	47.4799	37.622	-167.787	-0.014403	0.873660	-0.109980	-0.111285	0.002707	47.4799	-0.110023	-3.008523	-0.000900	NaN
324	1.000000	0.882988	7.36824e+06	-54839.1	955.819	-29743.2	0.000000	0.000000	6.883127	0.055914	NaN	0.000000	0.001668	0.001780	28.0798	0.066423	0.002003	33.1601	52.7481	-166.285	0.108481	0.881636	-0.101957	-0.103308	0.055914	33.1601	-0.103221	-2.150693	-0.025998	NaN
324	1.000000	0.890960	7.36824e+06	-54839.1	955.818	-29743.2	0.000000	0.000000	6.891098	0.037149	NaN	0.000000	0.001637	0.001736	28.0796	0.130193	0.002105	61.8416	171.611	-161.277	0.039140	0.889629	-0.093985	-0.095316	0.037149	61.8416	-0.094436	-1.369404	-0.027128	NaN
324	1.000000	0.898989	7.36824e+06	-54839.1	955.818	-29743.2	0.000000	0.000000	6.899125	-0.014931	NaN	0.000000	0.001603	0.001733	28.0809	0.077895	0.001989	39.1629	36.6076	-165.546	0.001968	0.897682	-0.085956	-0.087263	-0.014931	39.1629	-0.085670	-0.852811	0.017508	NaN
324	1.000000	0.906965	7.36824e+06	-54839.1	955.818	-29743.2	0.000000	0.000000	6.907099	-0.052588	NaN	0.000000	0.001602	0.001749	28.0809	0.105403	0.001967	53.5875	136.723	-166.315	0.008051	0.905663	-0.077980	-0.079282	-0.052588	53.5875	-0.077244	-0.527380	0.099716	NaN
324	1.000000	0.914974	7.36824e+06	-54839.1	955.818	-29743.2	0.000000	0.000000	6.915111	0.024683	NaN	0.000000	0.001607	0.001745	28.081	0.087798	0.001965	44.6733	-103.147	-166.05	0.012565	0.913678	-0.069971	-0.071267	0.024683	44.6733	-0.070385	-0.349293	-0.070666	NaN
324	1.000000	0.922969	7.36824e+06	-54839.1	955.818	-29743.2	0.000000	0.000000	6.923107	0.044379	NaN	0.000000	0.001600	0.001734	28.0811	0.092622	0.002080	44.5286	122.427	-165.925	0.004499	0.921626	-0.061976	-0.063319	0.044379	44.5286	-0.062723	-0.215243	-0.206180	NaN
324	1.000000	0.930988	7.36824e+06	-54839.1	955.818	-29743.2	0.000000	0.000000	6.931127	0.080921	NaN	0.000000	0.001603	0.001747	28.0809	0.117471	0.001949	60.2655	-150.505	-165.835	0.042141	0.929649	-0.053957	-0.055296	0.080921	60.2655	-0.054964	-0.128465	-0.629908	NaN
324	1.000000	0.938961	7.36824e+06	-54839.1	955.818	-29743.2	0.000000	0.000000	6.939099	0.028087	NaN	0.000000	0.001611	0.001746	28.0813	0.136618	0.002059	66.3666	-157.249	-162.326	-0.018140	0.937672	-0.045983	-0.047273	0.028087	66.3666	-0.046301	-0.070428	-0.398803	NaN
324	1.000000	0.946990	7.36824e+06	-54839.1	955.818	-29743.2	0.000000	0.000000	6.947130	0.077560	NaN	0.000000	0.001596	0.001753	28.081	0.029875	0.001970	15.1665	-85.6315	-166.005	0.101119	0.945676	-0.037954	-0.039268	0.077560	15.1665	-0.041790	-0.051269	-1.512796	NaN
324	1.000000	0.954978	7.36824e+06	-54839.1	955.818	-29743.2	0.000000	0.000000	6.955116	0.041631	NaN	0.000000	0.001624	0.001764	28.081	0.054487	0.001882	28.9523	-140.467	-163.361	-0.003074	0.953667	-0.029966	-0.031278	0.041631	28.9523	-0.031045	-0.024620	-1.690982	NaN
324	1.000000	0.962984	7.36824e+06	-54839.1	955.818	-29743.2	0.000000	0.000000	6.963120	0.006319	NaN	0.000000	0.001589	0.001730	28.0811	0.038269	0.002012	19.0209	178.599	-163.529	-0.002921	0.961675	-0.021961	-0.023269	0.006319	19.0209	-0.022210	-0.014296	-0.441993	NaN
324	1.000000	0.970982	7.36824e+06	-54839.1	955.818	-29743.2	0.000000	0.000000	6.971119	0.031345	NaN	0.000000	0.001648	0.001753	28.0808	0.078376	0.002117	37.0308	-54.6886	-164.864	0.076461	0.969698	-0.013963	-0.015247	0.031345	37.0308	-0.014598	-0.009036	-3.469092	NaN
324	1.000000	0.979015	7.36824e+06	-54839.1	955.819	-29743.2	0.000000	0.000000	6.979151	-0.022890	NaN	0.000000	0.001652	0.001717	28.0811	0.067537	0.001996	33.8306	-132.918	-164.026	-0.004504	0.977702	-0.005929	-0.007243	-0.022890	33.8306	-0.005422	-0.003680	6.219842	NaN
324	1.000000	0.986974	7.36824e+06	-54839.1	955.819	-29743.2	0.000000	0.000000	6.987139	0.703199	NaN	0.000000	0.001649	0.001755	28.0807	1.164508	0.001953	596.328	8.117603	-166.309	0.097476	0.985701	0.002029	0.000757	0.703199	596.328	0.001145	0.000875	803.714	18419.2
324	2.000000	0.994508	7.36824e+06	-54839.1	955.819	-29743.2	0.000000	0.000000	6.994928	6.919415	NaN	0.000000	0.001642	0.001711	28.0809	7.316189	0.001552	4714.4	9.753848	-171.787	7.544081	0.993675	0.009563	0.008730	6.919415	4714.4	0.008462	0.007522	919.903	49663.4
324	2.000000	0.996643	7.36824e+06	-54839.1	955.818	-29743.2	0.000000	0.000000	6.997135	8.638625	NaN	0.000000	0.001630	0.001738	28.0809	10.1169	0.001726	5862.71	5.964490	-173.792	8.077441	0.996324	0.011698	0.011379	8.638625	5862.71	0.010593	0.009848	877.185	53975.3
324	2.000000	0.998654	7.36824e+06	-54839.1	955.819	-29743.2	0.000000	0.000000	6.999216	10.3526	NaN	0.000000	0.001634	0.001749	28.0809	11.4972	0.001654	6950.74	8.042298	-175.192	11.0567	0.998308	0.013709	0.013363	10.3526	6950.74	0.012592	0.012207	848.08	57477.7
324	2.000000	1.000616	7.36824e+06	-54839.1	955.818	-29743.2	0.000000	0.000000	7.001302	13.3719	NaN	0.000000	0.001663	0.001744	28.081	13.9687	0.001969	7093.94	5.863913	-170.886	13.1978	1.000294	0.015671	0.015349	13.3719	7093.94	0.014257	0.014307	934.615	54185.1
324	2.000000	1.002595	7.36824e+06	-54839.1	955.818	-29743.2	0.000000	0.000000	7.003372	15.5952	NaN	0.000000	0.001636	0.001751	28.0808	15.4611	0.001728	8948.59	6.505158	-175.654	14.6857	1.002291	0.017650	0.017347	15.5952	8948.59	0.016343	0.017118	911.045	62488.8
324	2.000000	1.004558	7.36824e+06	-54839.1	955.819	-29743.2	0.000000	0.000000	7.005551	20.8256	NaN	0.000000	0.001653	0.001704	28.0798	17.5488	0.001734	10123.3	4.394804	-173.436	19.4723	1.004263	0.019613	0.019318	20.8256	10123.3	0.018071	0.019601	1062.5	66062.9
324	2.000000	1.006572	7.36824e+06	-54839.1	955.819	-29743.2	0.000000	0.000000	7.007654	22.9754	NaN	0.000000	0.001684	0.001753	28.0796	20.242	0.001902	10642.6	5.655597	-175.098	23.061	1.006284	0.021628	0.021339	22.9754	10642.6	0.020009	0.022556	1018.61	64742.9
324	2.000000	1.008557	7.36824e+06	-54839.1	955.819	-29743.2	0.000000	0.000000	7.009825	27.5088	NaN	0.000000	0.001658	0.001752	28.0795	21.3865	0.001778	12027.7	7.115587	-178.003	26.9121	1.008297	0.023612	0.023353	27.5088	12027.7	0.021897	0.025611	1074.08	68665.7
324	2.000000	1.010571	7.36824e+06	-54839.1	955.818	-29743.2	0.000000	0.000000	7.012100	33.8554	NaN	0.000000	0.001675	0.001733	28.0799	23.6874	0.001730	13688.4	5.534026	-176.868	34.1315	1.010192	0.025627	0.025247	33.8554	13688.4	0.023772	0.028819	1174.76	73669.1
324	2.000000	1.012617	7.36824e+06	-54839.1	955.818	-29743.2	0.000000	0.000000	7.014338	38.5081	NaN	0.000000	0.001654	0.001657	28.0796	25.076	0.001806	13883.2	6.159567	-175.356	39.8472	1.012176	0.027672	0.027231	38.5081	13883.2	0.025592	0.032102	1199.56	70794.2
324	2.000000	1.014530	7.36824e+06	-54839.1	955.819	-29743.2	0.000000	0.000000	7.016442	43.1585	NaN	0.000000	0.001649	0.001661	28.0795	27.4501	0.001728	15886	4.392013	-177.062	42.5834	1.014208	0.029586	0.029263	43.1585	15886	0.027548	0.035815	1205.04	76693.1
324	2.000000	1.016518	7.36824e+06	-54839.1	955.819	-29743.2	0.000000	0.000000	7.018601	47.3276	NaN	0.000000	0.001618	0.001648	28.0796	31.127	0.001826	17043.6	6.826721	178.739	45.4643	1.016222	0.031574	0.031277	47.3276	17043.6	0.029491	0.039695	1192.28	78156.8
324	2.000000	1.018500	7.36824e+06	-54839.1	955.819	-29743.2	0.000000	0.000000	7.020744	51.2295	NaN	0.000000	0.001605	0.001646	28.0795	31.9998	0.001762	18160	7.096367	177.976	49.0534	1.018187	0.033556	0.033243	51.2295	18160	0.031440	0.043781	1170.13	79295.1
324	2.000000	1.020531	7.36824e+06	-54839.1	955.817	-29743.2	0.000000	0.000000	7.023162	60.6477	NaN	0.000000	0.001604	0.001688	28.0814	34.8862	0.001831	19050.6	6.477144	178.978	59.5668	1.020160	0.035586	0.035216	60.6477	19050.6	0.033198	0.047634	1273.19	79748.3
324	2.000000	1.022533	7.36824e+06	-54839.1	955.819	-29743.2	0.000000	0.000000	7.025416	66.7921	NaN	0.000000	0.001668	0.001699	28.0794	36.3984	0.001680	21664	5.459020	178.991	67.5612	1.022215	0.037588	0.037270	66.7921	21664	0.035276	0.052390	1274.91	86474.5
324	2.000000	1.024487	7.36824e+06	-54839.1	955.818	-29743.2	0.000000	0.000000	7.027651	73.5908	NaN	0.000000	0.001663	0.001708	28.0794	37.7036	0.001731	21782	4.268173	179.926	72.0706	1.024280	0.039543	0.039335	73.5908	21782	0.037009	0.056527	1301.88	83703.7
324	2.000000	1.026470	7.36824e+06	-54839.1	955.818	-29743.2	0.000000	0.000000	7.029931	80.8322	NaN	0.000000	0.001635	0.001641	28.0797	39.545	0.001692	23368.4	1.515349	-178.887	78.0965	1.026253	0.041525	0.041308	80.8322	23368.4	0.038931	0.061295	1318.74	86236.2
324	2.000000	1.028470	7.36824e+06	-54839.1	955.819	-29743.2	0.000000	0.000000	7.032309	90.0326	NaN	0.000000	0.001640	0.001663	28.0796	41.364	0.001684	24558	7.893967	175.231	87.9013	1.028160	0.043525	0.043216	90.0326	24558	0.040775	0.066047	1363.15	87305
324	2.000000	1.030464	7.36824e+06	-54839.1	955.819	-29743.2	0.000000	0.000000	7.034423	92.9323	NaN	0.000000	0.001628	0.001738	28.0813	44.2778	0.001870	23673.7	4.880571	178.976	91.0351	1.030195	0.045519	0.045250	92.9323	23673.7	0.042575	0.070853	1311.63	81257.2
324	2.000000	1.032483	7.36824e+06	-54839.1	955.819	-29743.2	0.000000	0.000000	7.036658	98.168	NaN	0.000000	0.001652	0.001700	28.0794	46.0649	0.001835	25102.7	3.103472	179.616	95.1978	1.032279	0.047538	0.047334	98.168	25102.7	0.044605	0.076471	1283.73	82936.2
324	2.000000	1.034504	7.36824e+06	-54839.1	955.819	-29743.2	0.000000	0.000000	7.039186	110.497	NaN	0.000000	0.001620	0.001695	28.0798	47.3148	0.001772	26706.3	7.345723	174.463	109.474	1.034193	0.049560	0.049249	110.497	26706.3	0.046456	0.081776	1351.22	85324.7
324	2.000000	1.036491	7.36824e+06	-54839.1	955.819	-29743.2	0.000000	0.000000	7.041178	110.619	NaN	0.000000	0.001672	0.001700	28.0796	49.3648	0.001693	29151.6	2.995049	178.063	109.705	1.036340	0.051547	0.051396	110.619	29151.6	0.048701	0.088439	1250.8	89559.8
324	2.000000	1.038517	7.36824e+06	-54839.1	955.818	-29743.2	0.000000	0.000000	7.043649	121.425	NaN	0.000000	0.001640	0.001654	28.0808	50.3591	0.001754	28703.7	2.046394	179.465	121.238	1.038300	0.053573	0.053355	121.425	28703.7	0.050400	0.093653	1296.54	85693.9
324	2.000000	1.040543	7.36824e+06	-54839.1	955.819	-29743.2	0.000000	0.000000	7.046306	136.777	NaN	0.000000	0.001629	0.001672	28.0823	53.5102	0.001859	28782.5	6.525769	176.273	136.187	1.040069	0.055598	0.055124	136.777	28782.5	0.052034	0.098805	1384.31	83659
324	2.000000	1.042520	7.36824e+06	-54839.1	955.818	-29743.2	0.000000	0.000000	7.048758	148.315	NaN	0.000000	0.001651	0.001663	28.0807	55.0937	0.001793	30729.3	6.569217	175.9	148.35	1.042082	0.057576	0.057137	148.315	30729.3	0.053956	0.105031	1412.1	86629.7
324	2.000000	1.044433	7.36824e+06	-54839.1	955.819	-29743.2	0.000000	0.000000	7.050932	154.679	NaN	0.000000	0.001657	0.001699	28.0806	56.3153	0.001772	31779.1	3.252240	177.79	151.206	1.044169	0.059488	0.059224	154.679	31779.1	0.055838	0.111307	1389.66	87026.9
324	2.000000	1.046571	7.36824e+06	-54839.1	955.818	-29743.2	0.000000	0.000000	7.053287	159.962	NaN	0.000000	0.001642	0.001713	28.0808	58.3988	0.001791	32599	1.729740	179	162.775	1.046242	0.061626	0.061297	159.962	32599	0.057946	0.118545	1349.37	86504
324	2.000000	1.048448	7.36824e+06	-54839.1	955.819	-29743.2	0.000000	0.000000	7.055815	175.766	NaN	0.000000	0.001623	0.001688	28.0808	59.1643	0.001733	34149.1	2.199817	178.514	174.179	1.048111	0.063504	0.063166	175.766	34149.1	0.059643	0.124533	1411.4	88411.8
324	2.000000	1.050500	7.36824e+06	-54839.1	955.818	-29743.2	0.000000	0.000000	7.058167	183.087	NaN	0.000000	0.001641	0.001695	28.0814	62.835	0.001705	36853.9	6.083888	173.752	182.887	1.050109	0.065555	0.065164	183.087	36853.9	0.061829	0.132449	1382.32	92519.5
324	2.000000	1.052476	7.36824e+06	-54839.1	955.819	-29743.2	0.000000	0.000000	7.060799	199.008	NaN	0.000000	0.001626	0.001670	28.0807	65.3071	0.001757	37179.2	3.796337	176.567	197.773	1.052239	0.067532	0.067295	199.008	37179.2	0.063517	0.138722	1434.58	91201.2
324	2.000000	1.054535	7.36824e+06	-54839.1	955.819	-29743.2	0.000000	0.000000	7.063155	206.239	NaN	0.000000	0.001643	0.001671	28.0808	67.6082	0.001861	36329.6	7.794197	172.332	208.941	1.054172	0.069590	0.069227	206.239	36329.6	0.065332	0.145620	1416.28	86980.6
324	2.000000	1.056507	7.36824e+06	-54839.1	955.818	-29743.2	0.000000	0.000000	7.065687	219.87	NaN	0.000000	0.001622	0.001711	28.0808	69.142	0.001793	38569.5	2.200712	176.802	219.086	1.056161	0.071562	0.071216	219.87	38569.5	0.067286	0.153224	1434.96	90023
324	2.000000	1.058443	7.36824e+06	-54839.1	955.819	-29743.2	0.000000	0.000000	7.068167	233.075	NaN	0.000000	0.001611	0.001655	28.0808	69.8426	0.001802	38758.8	1.826460	177.308	230.224	1.058192	0.073499	0.073247	233.075	38758.8	0.068988	0.159997	1456.74	88529.2
324	2.000000	1.060505	7.36824e+06	-54839.1	955.819	-29743.2	0.000000	0.000000	7.070731	245.292	NaN	0.000000	0.001592	0.001676	28.0812	71.2728	0.001643	43388.7	2.366688	176.229	246.867	1.060166	0.075560	0.075221	245.292	43388.7	0.071320	0.169498	1447.17	96286.9
324	2.000000	1.062510	7.36824e+06	-54839.1	955.819	-29743.2	0.000000	0.000000	7.073345	260.073	NaN	0.000000	0.001638	0.001713	28.0809	74.2983	0.001747	42520.4	4.134105	175.11	258.46	1.062184	0.077566	0.077239	260.073	42520.4	0.072978	0.176414	1474.22	92491.9
324	2.000000	1.064393	7.36824e+06	-54839.1	955.819	-29743.2	0.000000	0.000000	7.075600	269.135	NaN	0.000000	0.001647	0.001676	28.081	75.9259	0.001727	43965.9	2.735179	175.725	263.834	1.064087	0.079448	0.079142	269.135	43965.9	0.074857	0.184404	1459.49	93541.3
324	2.000000	1.066507	7.36824e+06	-54839.1	955.82	-29743.2	0.000000	0.000000	7.078196	280.852	NaN	0.000000	0.001704	0.001683	28.081	79.7621	0.001762	45268.8	3.883266	174.164	282.111	1.066178	0.081562	0.081233	280.852	45268.8	0.076909	0.193323	1452.76	94065.5
324	2.000000	1.068457	7.36824e+06	-54839.1	955.819	-29743.2	0.000000	0.000000	7.080715	294.681	NaN	0.000000	0.001685	0.001633	28.0809	80.0601	0.001722	46483.5	2.831355	174.89	291.031	1.068200	0.083512	0.083255	294.681	46483.5	0.078758	0.201526	1462.25	94603.3
324	2.000000	1.070439	7.36824e+06	-54839.1	955.818	-29743.2	0.000000	0.000000	7.083575	316.032	NaN	0.000000	0.001698	0.001673	28.0811	82.4192	0.001768	46630.2	2.745603	175.119	314.36	1.070165	0.085494	0.085220	316.032	46630.2	0.080411	0.208999	1512.12	93189.8
324	2.000000	1.072472	7.36824e+06	-54839.1	955.819	-29743.2	0.000000	0.000000	7.085805	320.819	NaN	0.000000	0.001716	0.001703	28.0796	84.8996	0.001708	49717.7	6.187015	171.395	317.966	1.072137	0.087527	0.087193	320.819	49717.7	0.082687	0.219493	1461.64	96956
324	2.000000	1.074419	7.36824e+06	-54839.1	955.819	-29743.2	0.000000	0.000000	7.088586	341.074	NaN	0.000000	0.001707	0.001698	28.0799	84.9923	0.001609	52811.6	3.239125	173.916	337.604	1.074196	0.089475	0.089251	341.074	52811.6	0.084631	0.228644	1491.73	100907
324	2.000000	1.076412	7.36824e+06	-54839.1	955.82	-29743.2	0.000000	0.000000	7.091052	352.578	NaN	0.000000	0.001730	0.001663	28.0797	89.6399	0.001848	48512.3	1.688750	176.078	350.241	1.076208	0.091467	0.091263	352.578	48512.3	0.086016	0.235273	1498.59	91377.4
324	2.000000	1.078409	7.36824e+06	-54839.1	955.819	-29743.2	0.000000	0.000000	7.093510	363.796	NaN	0.000000	0.001741	0.001676	28.0796	90.9525	0.001839	49462.8	5.083026	172.525	359.353	1.078078	0.093464	0.093133	363.796	49462.8	0.087948	0.244665	1486.92	91362.1
324	2.000000	1.080598	7.36824e+06	-54839.1	955.819	-29743.2	0.000000	0.000000	7.096115	373.891	NaN	0.000000	0.001755	0.001697	28.0798	92.8477	0.001717	54062.8	5.680726	171.47	381.121	1.080136	0.095653	0.095191	373.891	54062.8	0.090467	0.257168	1453.88	97401.1
324	2.000000	1.082476	7.36824e+06	-54839.1	955.819	-29743.2	0.000000	0.000000	7.099011	398.646	NaN	0.000000	0.001724	0.001685	28.0796	95.0238	0.001795	52931.8	5.529307	172.066	397.849	1.082081	0.097532	0.097137	398.646	52931.8	0.091883	0.264327	1508.16	94063.1
324	2.000000	1.084383	7.36824e+06	-54839.1	955.819	-29743.2	0.000000	0.000000	7.101403	410.441	NaN	0.000000	0.001693	0.001715	28.0805	95.7979	0.001754	54615.7	4.831355	172.236	409.654	1.084199	0.099438	0.099254	410.441	54615.7	0.093802	0.274172	1497.02	95297
324	2.000000	1.086347	7.36824e+06	-54839.1	955.82	-29743.2	0.000000	0.000000	7.104022	426.37	NaN	0.000000	0.001676	0.001704	28.0798	98.6843	0.001825	54059.5	6.297896	170.856	420.097	1.086092	0.101402	0.101148	426.37	54059.5	0.095487	0.282955	1506.85	92851.1
324	2.000000	1.088428	7.36824e+06	-54839.1	955.819	-29743.2	0.000000	0.000000	7.106853	444.587	NaN	0.000000	0.001665	0.001699	28.0796	98.6872	0.001735	56893.5	4.215086	172.941	442.406	1.088074	0.103483	0.103130	444.587	56893.5	0.097623	0.294274	1510.79	95820.7
324	2.000000	1.090458	7.36824e+06	-54839.1	955.82	-29743.2	0.000000	0.000000	7.109063	448.967	NaN	0.000000	0.001675	0.001656	28.0796	101.598	0.001878	54109.2	3.643472	173.377	447.465	1.090157	0.105514	0.105212	448.967	54109.2	0.099290	0.303259	1480.48	89771.3
324	2.000000	1.092546	7.36824e+06	-54839.1	955.82	-29743.2	0.000000	0.000000	7.112194	474.336	NaN	0.000000	0.001653	0.001651	28.0798	103.119	0.001962	52546.2	4.389265	173.674	477.661	1.092034	0.107601	0.107090	474.336	52546.2	0.100831	0.311669	1521.92	85993.9
324	2.000000	1.092998	7.36824e+06	-54839.1	955.819	-29743.2	0.000000	0.000000	7.112409	468.568	NaN	0.000000	0.001641	0.001665	28.0797	103.428	0.001800	57476	3.212038	-6.706700	469.944	1.092823	0.108053	0.107878	468.568	57476	0.101939	0.317786	1474.48	93152