File: remote_trans/data/nanoindenter/0828-1/data/Data_2025-08-06,11h17m57s/2025-07-22_16-23-58_1_395.txt
2025-07-22, 16:23:58, 1
Index	Phase	Displacement	Time	Pos X	Pos Y	Pos Z	Rot A	Rot B	Piezo Z	Force A	Force B	Gripper	Voltage A	Voltage B	Temperature	Amplitude force	Amplitude pos	Stiffness	Phase shift	Phase excitation	Force A raw	Displacement raw	HMax	HMax raw	Real Force	Real Stiffness	Contact Depth	Area	Hardness	Reduced Mod.
[#]	[#]	[um]	[s]	[um]	[um]	[um]	[m°]	[m°]	[um]	[uN]	[uN]	[V]	[V]	[V]	[°C]	[uN]	[um]	[N/m]	[°]	[°]	[uN]	[um]	[um]	[um]	[uN]	[N/m]	[um]	[um^2]	[MPa]	[MPa]
395	1.000000	0.002976	7.36892e+06	-57339.1	1005.82	-29737.2	0.000000	0.000000	6.002790	0.027293	NaN	0.000000	0.001643	0.001616	28.0786	0.045180	0.000912	49.5272	-45.2973	-166.269	0.017553	0.001718	-1.095167	-1.096424	0.027293	49.5272	-1.095580	-4.372492E+14	-6.241937E-17	NaN
395	1.000000	0.013023	7.36892e+06	-57339.1	1005.82	-29737.2	0.000000	0.000000	6.012836	5.956278E-5	NaN	0.000000	0.001655	0.001630	28.0783	0.069529	0.001263	55.052	-172.833	23.0866	-0.011358	0.011619	-1.085119	-1.086524	5.956278E-5	55.052	-1.085120	-3.164344E+14	-1.882311E-19	NaN
395	1.000000	0.022932	7.36892e+06	-57339.1	1005.82	-29737.2	0.000000	0.000000	6.022746	0.037748	NaN	0.000000	0.001664	0.001638	28.0785	0.065127	0.001713	38.0157	-121.546	-167.371	0.016267	0.021611	-1.075210	-1.076531	0.037748	38.0157	-1.075955	-2.383360E+14	-1.583814E-16	NaN
395	1.000000	0.032948	7.36892e+06	-57339.1	1005.82	-29737.2	0.000000	0.000000	6.032758	-0.069830	NaN	0.000000	0.001642	0.001652	28.0794	0.131319	0.002075	63.2948	-14.6313	15.6791	-0.009730	0.031555	-1.065194	-1.066587	-0.069830	63.2948	-1.064367	-1.665331E+14	4.193157E-16	NaN
395	1.000000	0.042947	7.36892e+06	-57339.1	1005.82	-29737.2	0.000000	0.000000	6.042763	0.065434	NaN	0.000000	0.001651	0.001642	28.0797	0.121727	0.001912	63.6566	-58.6192	-167.747	-0.002450	0.041585	-1.055195	-1.056557	0.065434	63.6566	-1.055966	-1.284117E+14	-5.095645E-16	NaN
395	1.000000	0.052953	7.36892e+06	-57339.1	1005.82	-29737.2	0.000000	0.000000	6.052765	-0.037588	NaN	0.000000	0.001630	0.001650	28.0798	0.086731	0.001889	45.9105	109.891	10.2653	-0.054159	0.051570	-1.045189	-1.046573	-0.037588	45.9105	-1.044575	-9.025689E+13	4.164561E-16	NaN
395	1.000000	0.062949	7.36892e+06	-57339.1	1005.82	-29737.2	0.000000	0.000000	6.062760	-0.054553	NaN	0.000000	0.001611	0.001658	28.0797	0.114087	0.002045	55.7987	97.8054	-167.176	-0.028577	0.061639	-1.035193	-1.036504	-0.054553	55.7987	-1.034460	-6.598765E+13	8.267193E-16	NaN
395	1.000000	0.072931	7.36892e+06	-57339.1	1005.82	-29737.2	0.000000	0.000000	6.072742	-0.032645	NaN	0.000000	0.001643	0.001635	28.0796	0.080740	0.002022	39.9391	55.5032	15.9242	0.021739	0.071570	-1.025212	-1.026572	-0.032645	39.9391	-1.024599	-4.862103E+13	6.714128E-16	NaN
395	1.000000	0.082921	7.36892e+06	-57339.1	1005.82	-29737.2	0.000000	0.000000	6.082735	0.016309	NaN	0.000000	0.001594	0.001685	28.0796	0.088270	0.002043	43.2097	108.266	-167.63	0.017243	0.081614	-1.015221	-1.016529	0.016309	43.2097	-1.015504	-3.668253E+13	-4.446017E-16	NaN
395	1.000000	0.092982	7.36892e+06	-57339.1	1005.82	-29737.2	0.000000	0.000000	6.092795	0.019446	NaN	0.000000	0.001608	0.001658	28.0795	0.055711	0.001968	28.3064	6.715212	15.5935	0.027087	0.091593	-1.005161	-1.006549	0.019446	28.3064	-1.005676	-2.705074E+13	-7.188873E-16	NaN
395	1.000000	0.102956	7.36892e+06	-57339.1	1005.82	-29737.2	0.000000	0.000000	6.102772	0.075955	NaN	0.000000	0.001683	0.001658	28.0793	0.051697	0.001905	27.1309	60.7134	-166.108	0.029615	0.101637	-0.995186	-0.996506	0.075955	27.1309	-0.997286	-2.085573E+13	-3.641934E-15	NaN
395	1.000000	0.112965	7.36892e+06	-57339.1	1005.82	-29737.2	0.000000	0.000000	6.112775	-0.055904	NaN	0.000000	0.001702	0.001608	28.0794	0.036453	0.001934	18.8485	134.188	12.0263	-0.016213	0.111597	-0.985177	-0.986545	-0.055904	18.8485	-0.982953	-1.337187E+13	4.180694E-15	NaN
395	1.000000	0.122967	7.36892e+06	-57339.1	1005.82	-29737.2	0.000000	0.000000	6.122782	0.051882	NaN	0.000000	0.001660	0.001635	28.0794	0.166881	0.002049	81.4504	-138.873	-168.543	-0.030705	0.121627	-0.975176	-0.976515	0.051882	81.4504	-0.975653	-1.066219E+13	-4.865945E-15	NaN
395	1.000000	0.132990	7.36893e+06	-57339.1	1005.82	-29737.2	0.000000	0.000000	6.132802	-0.030796	NaN	0.000000	0.001667	0.001621	28.0791	0.048540	0.001960	24.7595	28.2285	11.6446	-0.028657	0.131569	-0.965152	-0.966573	-0.030796	24.7595	-0.964219	-7.477297E+12	4.118609E-15	NaN
395	1.000000	0.142985	7.36893e+06	-57339.1	1005.82	-29737.2	0.000000	0.000000	6.142796	-0.030953	NaN	0.000000	0.001689	0.001621	28.0791	0.035070	0.002118	16.5557	-148.618	-164.032	0.006624	0.141688	-0.955158	-0.956455	-0.030953	16.5557	-0.953756	-5.403490E+12	5.728421E-15	NaN
395	1.000000	0.152947	7.36893e+06	-57339.1	1005.82	-29737.2	0.000000	0.000000	6.152760	0.009321	NaN	0.000000	0.001675	0.001656	28.0792	0.082268	0.002173	37.8635	81.5212	14.5467	-0.029055	0.151677	-0.945195	-0.946465	0.009321	37.8635	-0.945380	-4.165935E+12	-2.237419E-15	NaN
395	1.000000	0.162963	7.36893e+06	-57339.1	1005.82	-29737.2	0.000000	0.000000	6.162774	-0.051593	NaN	0.000000	0.001672	0.001647	28.0792	0.059770	0.001838	32.5219	53.7789	-163.049	-0.020114	0.161680	-0.935179	-0.936462	-0.051593	32.5219	-0.933990	-2.924414E+12	1.764211E-14	NaN
395	1.000000	0.172973	7.36893e+06	-57339.1	1005.82	-29737.2	0.000000	0.000000	6.172784	-0.039151	NaN	0.000000	0.001681	0.001644	28.0779	0.059579	0.001950	30.5574	65.8954	12.1597	-0.056767	0.171632	-0.925169	-0.926510	-0.039151	30.5574	-0.924208	-2.157853E+12	1.814334E-14	NaN
395	1.000000	0.182989	7.36893e+06	-57339.1	1005.82	-29737.2	0.000000	0.000000	6.182803	0.043415	NaN	0.000000	0.001701	0.001640	28.0779	0.073816	0.002038	36.2228	9.846094	-165.999	0.073395	0.181692	-0.915154	-0.916450	0.043415	36.2228	-0.916053	-1.674575E+12	-2.592612E-14	NaN
395	1.000000	0.192976	7.36893e+06	-57339.1	1005.82	-29737.2	0.000000	0.000000	6.192785	-0.078118	NaN	0.000000	0.001666	0.001667	28.078	0.042292	0.001984	21.3148	32.3569	12.1798	-0.059787	0.191619	-0.905167	-0.906524	-0.078118	21.3148	-0.902418	-1.095816E+12	7.128772E-14	NaN
395	1.000000	0.203019	7.36893e+06	-57339.1	1005.82	-29737.2	0.000000	0.000000	6.202831	-0.020841	NaN	0.000000	0.001623	0.001637	28.078	0.093271	0.002157	43.2369	11.27	-168.026	-0.010732	0.201718	-0.895123	-0.896424	-0.020841	43.2369	-0.894762	-8.635333E+11	2.413443E-14	NaN
395	1.000000	0.212993	7.36893e+06	-57339.1	1005.82	-29737.2	0.000000	0.000000	6.212804	-0.047120	NaN	0.000000	0.001586	0.001629	28.078	0.101120	0.001956	51.6991	-92.5017	16.5245	-0.001396	0.211655	-0.885149	-0.886487	-0.047120	51.6991	-0.884465	-6.267451E+11	7.518241E-14	NaN
395	1.000000	0.222967	7.36893e+06	-57339.1	1005.82	-29737.2	0.000000	0.000000	6.222781	0.019663	NaN	0.000000	0.001644	0.001644	28.0778	0.101309	0.002043	49.5942	-40.2706	-164.817	-0.044147	0.221738	-0.875175	-0.876404	0.019663	49.5942	-0.875473	-4.736701E+11	-4.151104E-14	NaN
395	1.000000	0.232981	7.36893e+06	-57339.1	1005.82	-29737.2	0.000000	0.000000	6.232795	0.024987	NaN	0.000000	0.001628	0.001620	28.0782	0.085127	0.002007	42.4085	-54.1606	15.2909	0.024731	0.231613	-0.865161	-0.866530	0.024987	42.4085	-0.865603	-3.482976E+11	-7.174047E-14	NaN
395	1.000000	0.243004	7.36893e+06	-57339.1	1005.82	-29737.2	0.000000	0.000000	6.242817	0.005055	NaN	0.000000	0.001599	0.001606	28.0778	0.048771	0.002090	23.3344	0.364219	-161.318	-0.090821	0.241720	-0.855139	-0.856423	0.005055	23.3344	-0.855301	-2.526466E+11	-2.000653E-14	NaN
395	1.000000	0.253029	7.36893e+06	-57339.1	1005.82	-29737.2	0.000000	0.000000	6.252841	-0.002998	NaN	0.000000	0.001637	0.001622	28.0779	0.067110	0.002029	33.0705	105.324	15.4979	0.031750	0.251694	-0.845114	-0.846448	-0.002998	33.0705	-0.845046	-1.835033E+11	1.633921E-14	NaN
395	1.000000	0.263025	7.36893e+06	-57339.1	1005.82	-29737.2	0.000000	0.000000	6.262836	-0.033225	NaN	0.000000	0.001624	0.001591	28.078	0.078491	0.001885	41.6388	-112.798	-165.829	0.011683	0.261695	-0.835118	-0.836447	-0.033225	41.6388	-0.834519	-1.321394E+11	2.514397E-13	NaN
395	1.000000	0.273036	7.36893e+06	-57339.1	1005.82	-29737.2	0.000000	0.000000	6.272849	0.000486	NaN	0.000000	0.001600	0.001648	28.0782	0.059483	0.001991	29.8701	15.988	14.5218	0.046549	0.271673	-0.825107	-0.826469	0.000486	29.8701	-0.825119	-9.854100E+10	-4.936931E-15	NaN
395	1.000000	0.283056	7.36893e+06	-57339.1	1005.82	-29737.2	0.000000	0.000000	6.282867	-0.043956	NaN	0.000000	0.001656	0.001632	28.0779	0.084349	0.001889	44.6602	144.186	-169.676	0.023953	0.281720	-0.815087	-0.816422	-0.043956	44.6602	-0.814348	-7.039824E+10	6.243922E-13	NaN
395	1.000000	0.293037	7.36893e+06	-57339.1	1005.82	-29737.2	0.000000	0.000000	6.292849	-0.016943	NaN	0.000000	0.001621	0.001648	28.0778	0.107403	0.001829	58.7208	148.11	17.2245	0.047450	0.291680	-0.805105	-0.806463	-0.016943	58.7208	-0.804889	-5.238655E+10	3.234296E-13	NaN
395	1.000000	0.303025	7.36893e+06	-57339.1	1005.82	-29737.2	0.000000	0.000000	6.302836	-0.046814	NaN	0.000000	0.001647	0.001605	28.0783	0.094078	0.001912	49.196	153.232	-166.058	-0.087041	0.301730	-0.795117	-0.796412	-0.046814	49.196	-0.794404	-3.774706E+10	1.240204E-12	NaN
395	1.000000	0.313073	7.36893e+06	-57339.1	1005.82	-29737.2	0.000000	0.000000	6.312888	0.038061	NaN	0.000000	0.001643	0.001633	28.0793	0.067080	0.002001	33.517	-176.804	14.6228	-0.016954	0.311704	-0.785069	-0.786438	0.038061	33.517	-0.785921	-2.895171E+10	-1.314650E-12	NaN
395	1.000000	0.323023	7.36893e+06	-57339.1	1005.82	-29737.2	0.000000	0.000000	6.322836	-0.002750	NaN	0.000000	0.001647	0.001623	28.0794	0.069395	0.001989	34.8922	90.3847	-168.405	0.080006	0.321733	-0.775119	-0.776409	-0.002750	34.8922	-0.775060	-2.061091E+10	1.334357E-13	NaN
395	1.000000	0.333057	7.36893e+06	-57339.1	1005.82	-29737.2	0.000000	0.000000	6.332869	-0.023428	NaN	0.000000	0.001622	0.001650	28.0793	0.056332	0.002057	27.3919	-59.6009	14.9634	-0.068660	0.331743	-0.765085	-0.766400	-0.023428	27.3919	-0.764444	-1.478263E+10	1.584825E-12	NaN
395	1.000000	0.343083	7.36893e+06	-57339.1	1005.82	-29737.2	0.000000	0.000000	6.342895	-0.019338	NaN	0.000000	0.001656	0.001627	28.0796	0.019190	0.001980	9.691457	-46.8351	-165.772	-0.018048	0.341708	-0.755059	-0.756434	-0.019338	9.691457	-0.753563	-1.051261E+10	1.839502E-12	NaN
395	1.000000	0.353054	7.36893e+06	-57339.1	1005.82	-29737.2	0.000000	0.000000	6.352866	-0.009932	NaN	0.000000	0.001650	0.001573	28.0792	0.061238	0.002112	28.9933	137.345	14.4253	-0.026893	0.351734	-0.745089	-0.746408	-0.009932	28.9933	-0.744832	-7.995701E+9	1.242117E-12	NaN
395	1.000000	0.363077	7.36893e+06	-57339.1	1005.82	-29737.2	0.000000	0.000000	6.362888	-0.039259	NaN	0.000000	0.001611	0.001631	28.0791	0.118536	0.002100	56.4569	108.776	-166.315	-0.056202	0.361777	-0.735066	-0.736366	-0.039259	56.4569	-0.734544	-5.790687E+9	6.779673E-12	NaN
395	1.000000	0.373108	7.36893e+06	-57339.1	1005.82	-29737.2	0.000000	0.000000	6.372918	-0.059935	NaN	0.000000	0.001636	0.001584	28.079	0.093505	0.001991	46.9591	73.5202	14.2734	-0.091256	0.371732	-0.725035	-0.726410	-0.059935	46.9591	-0.724077	-4.169384E+9	1.437502E-11	NaN
395	1.000000	0.383056	7.36893e+06	-57339.1	1005.82	-29737.2	0.000000	0.000000	6.382868	-0.017535	NaN	0.000000	0.001657	0.001613	28.0792	0.073403	0.002030	36.1559	145.814	-166.842	-0.040775	0.381749	-0.715086	-0.716393	-0.017535	36.1559	-0.714723	-3.108049E+9	5.641657E-12	NaN
395	1.000000	0.393092	7.36893e+06	-57339.1	1005.82	-29737.2	0.000000	0.000000	6.392905	0.012351	NaN	0.000000	0.001621	0.001642	28.0793	0.046522	0.002002	23.2385	72.7789	14.6282	0.036044	0.391718	-0.705051	-0.706425	0.012351	23.2385	-0.705449	-2.322381E+9	-5.318109E-12	NaN
395	1.000000	0.403130	7.36893e+06	-57339.1	1005.82	-29737.2	0.000000	0.000000	6.402943	0.005688	NaN	0.000000	0.001626	0.001636	28.0791	0.090263	0.002059	43.8405	-173.089	-164.086	0.021931	0.401763	-0.695013	-0.696379	0.005688	43.8405	-0.695110	-1.677791E+9	-3.390461E-12	NaN
395	1.000000	0.413109	7.36893e+06	-57339.1	1005.82	-29737.2	0.000000	0.000000	6.412920	-0.042594	NaN	0.000000	0.001602	0.001662	28.0792	0.076913	0.002199	34.9758	58.2793	16.0703	-0.050491	0.411729	-0.685033	-0.686413	-0.042594	34.9758	-0.684120	-1.187258E+9	3.587575E-11	NaN
395	1.000000	0.423097	7.36893e+06	-57339.1	1005.82	-29737.2	0.000000	0.000000	6.422911	0.026433	NaN	0.000000	0.001660	0.001654	28.0793	0.111341	0.002049	54.3413	-62.4811	-164.463	0.066506	0.421802	-0.675045	-0.676341	0.026433	54.3413	-0.675410	-9.024352E+8	-2.929031E-11	NaN
395	1.000000	0.433104	7.36893e+06	-57339.1	1005.82	-29737.2	0.000000	0.000000	6.432916	-0.023658	NaN	0.000000	0.001625	0.001642	28.0792	0.023632	0.002090	11.3064	-123.842	13.3512	-0.042807	0.431746	-0.665038	-0.666397	-0.023658	11.3064	-0.663469	-6.194127E+8	3.819454E-11	NaN
395	1.000000	0.443116	7.36893e+06	-57339.1	1005.82	-29737.2	0.000000	0.000000	6.442928	-0.023491	NaN	0.000000	0.001615	0.001657	28.0781	0.089539	0.002103	42.5837	-78.1222	-163.328	-0.022821	0.441757	-0.655026	-0.656385	-0.023491	42.5837	-0.654612	-4.684391E+8	5.014843E-11	NaN
395	1.000000	0.453111	7.36893e+06	-57339.1	1005.82	-29737.2	0.000000	0.000000	6.452924	0.013516	NaN	0.000000	0.001587	0.001618	28.0781	0.066995	0.001986	33.7377	33.8052	14.4272	-0.024342	0.451725	-0.645032	-0.646417	0.013516	33.7377	-0.645332	-3.494904E+8	-3.867453E-11	NaN
395	1.000000	0.463111	7.36893e+06	-57339.1	1005.82	-29737.2	0.000000	0.000000	6.462923	-0.017710	NaN	0.000000	0.001631	0.001658	28.0781	0.096324	0.001870	51.5197	35.0383	-167.213	0.019873	0.461805	-0.635032	-0.636337	-0.017710	51.5197	-0.634774	-2.503614E+8	7.073602E-11	NaN
395	1.000000	0.473096	7.36893e+06	-57339.1	1005.82	-29737.2	0.000000	0.000000	6.472909	0.004626	NaN	0.000000	0.001640	0.001655	28.0779	0.050850	0.002098	24.2406	-8.281427	13.669	-0.056787	0.471792	-0.625046	-0.626350	0.004626	24.2406	-0.625189	-1.849025E+8	-2.501683E-11	NaN
395	1.000000	0.483119	7.36893e+06	-57339.1	1005.82	-29737.2	0.000000	0.000000	6.482934	0.047367	NaN	0.000000	0.001640	0.001603	28.0779	0.020250	0.001927	10.5064	-68.6714	-163.688	0.038967	0.481787	-0.615023	-0.616355	0.047367	10.5064	-0.618405	-1.491779E+8	-3.175217E-10	NaN
395	1.000000	0.493106	7.36893e+06	-57339.1	1005.82	-29737.2	0.000000	0.000000	6.492918	-0.022802	NaN	0.000000	0.001667	0.001625	28.0781	0.072723	0.001933	37.6289	37.5319	13.7016	0.005532	0.491785	-0.605036	-0.606357	-0.022802	37.6289	-0.604581	-9.628162E+7	2.368295E-10	NaN
395	1.000000	0.503142	7.36893e+06	-57339.1	1005.82	-29737.2	0.000000	0.000000	6.502954	-0.024109	NaN	0.000000	0.001670	0.001652	28.078	0.020823	0.001955	10.65	139.231	-164.201	-0.057198	0.501798	-0.595000	-0.596344	-0.024109	10.65	-0.593303	-6.732697E+7	3.580831E-10	NaN
395	1.000000	0.513123	7.36893e+06	-57339.1	1005.82	-29737.2	0.000000	0.000000	6.512934	-0.032299	NaN	0.000000	0.001656	0.001633	28.078	0.096309	0.001876	51.3415	174.806	12.9265	0.082511	0.511798	-0.585019	-0.586344	-0.032299	51.3415	-0.584548	-5.098873E+7	6.334610E-10	NaN
395	1.000000	0.523152	7.36893e+06	-57339.1	1005.82	-29737.2	0.000000	0.000000	6.522961	-0.086432	NaN	0.000000	0.001639	0.001631	28.0778	0.076891	0.002202	34.9128	-90.1205	-166.195	-0.028734	0.521839	-0.574991	-0.576304	-0.086432	34.9128	-0.573134	-3.547552E+7	2.436393E-9	NaN
395	1.000000	0.533102	7.36893e+06	-57339.1	1005.82	-29737.2	0.000000	0.000000	6.532914	-0.029905	NaN	0.000000	0.001637	0.001628	28.0782	0.096549	0.002155	44.8023	-23.9269	11.6349	-0.066811	0.531790	-0.565040	-0.566353	-0.029905	44.8023	-0.564540	-2.698748E+7	1.108118E-9	NaN
395	1.000000	0.543165	7.36893e+06	-57339.1	1005.82	-29737.2	0.000000	0.000000	6.542978	0.007184	NaN	0.000000	0.001627	0.001660	28.0779	0.055935	0.001971	28.3735	-54.6539	-166.334	-0.039833	0.541839	-0.554978	-0.556303	0.007184	28.3735	-0.555168	-2.002205E+7	-3.587904E-10	NaN
395	1.000000	0.553150	7.36893e+06	-57339.1	1005.82	-29737.2	0.000000	0.000000	6.552965	0.064053	NaN	0.000000	0.001611	0.001655	28.078	0.090113	0.002051	43.9315	-110.457	12.7619	0.036115	0.551776	-0.544992	-0.546367	0.064053	43.9315	-0.546086	-1.498746E+7	-4.273785E-9	NaN
395	1.000000	0.563192	7.36893e+06	-57339.1	1005.82	-29737.2	0.000000	0.000000	6.563007	0.049789	NaN	0.000000	0.001615	0.001627	28.0778	0.058119	0.002006	28.9696	-111.744	-164.614	-0.014123	0.561836	-0.534950	-0.536306	0.049789	28.9696	-0.536239	-1.094415E+7	-4.549336E-9	NaN
395	1.000000	0.573175	7.36893e+06	-57339.1	1005.82	-29737.2	0.000000	0.000000	6.572986	-0.040997	NaN	0.000000	0.001651	0.001631	28.0781	0.049570	0.001941	25.535	105.342	15.7077	0.019710	0.571758	-0.524967	-0.526384	-0.040997	25.535	-0.523763	-7.34383e+06	5.582525E-9	NaN
395	1.000000	0.583148	7.36893e+06	-57339.1	1005.82	-29737.2	0.000000	0.000000	6.582959	-0.031917	NaN	0.000000	0.001612	0.001605	28.0792	0.108643	0.002026	53.6113	166.541	-166.074	0.009267	0.581877	-0.514995	-0.516266	-0.031917	53.6113	-0.514548	-5.46697e+06	5.838095E-9	NaN
395	1.000000	0.593174	7.36893e+06	-57339.1	1005.82	-29737.2	0.000000	0.000000	6.592988	0.034222	NaN	0.000000	0.001655	0.001610	28.0791	0.123707	0.001961	63.0775	128.87	11.2626	0.067807	0.591790	-0.504969	-0.506352	0.034222	63.0775	-0.505375	-4.07359e+06	-8.401033E-9	NaN
395	1.000000	0.603166	7.36893e+06	-57339.1	1005.82	-29737.2	0.000000	0.000000	6.602980	0.013112	NaN	0.000000	0.001699	0.001603	28.0792	0.072591	0.001975	36.7641	-169.023	-169.373	0.011051	0.601807	-0.494976	-0.496335	0.013112	36.7641	-0.495244	-2.94195e+06	-4.456763E-9	NaN
395	1.000000	0.613153	7.36893e+06	-57339.1	1005.82	-29737.2	0.000000	0.000000	6.612966	-0.015481	NaN	0.000000	0.001683	0.001617	28.0793	0.067706	0.002000	33.8561	62.5132	11.9323	0.095615	0.611833	-0.484989	-0.486309	-0.015481	33.8561	-0.484646	-2.0919e+06	7.400565E-9	NaN
395	1.000000	0.623180	7.36893e+06	-57339.1	1005.82	-29737.2	0.000000	0.000000	6.622992	-0.027253	NaN	0.000000	0.001678	0.001573	28.0793	0.070819	0.001925	36.7941	-61.9096	-168.475	-0.017997	0.621880	-0.474962	-0.476262	-0.027253	36.7941	-0.474407	-1.50378e+06	1.812314E-8	NaN
395	1.000000	0.633166	7.36893e+06	-57339.1	1005.82	-29737.2	0.000000	0.000000	6.632977	-0.034632	NaN	0.000000	0.001650	0.001687	28.0791	0.008987	0.002027	4.433797	130.048	17.3559	-0.063913	0.631781	-0.464977	-0.466362	-0.034632	4.433797	-0.459118	-917545	3.774393E-8	NaN
395	1.000000	0.643186	7.36893e+06	-57339.1	1005.82	-29737.2	0.000000	0.000000	6.643000	0.014652	NaN	0.000000	0.001651	0.001603	28.0791	0.103650	0.002052	50.5053	24.1004	-164.396	0.090861	0.641851	-0.454956	-0.456291	0.014652	50.5053	-0.455174	-807538	-1.814370E-8	NaN
395	1.000000	0.653166	7.36893e+06	-57339.1	1005.82	-29737.2	0.000000	0.000000	6.652980	0.044007	NaN	0.000000	0.001639	0.001636	28.0793	0.059032	0.001895	31.1544	-108.017	16.3958	0.068296	0.651810	-0.444977	-0.446333	0.044007	31.1544	-0.446036	-600476	-7.328681E-8	NaN
395	1.000000	0.663183	7.36893e+06	-57339.1	1005.82	-29737.2	0.000000	0.000000	6.662998	0.033283	NaN	0.000000	0.001667	0.001625	28.0792	0.098508	0.001958	50.3019	-12.5287	-162.656	-0.059391	0.661883	-0.434959	-0.436259	0.033283	50.3019	-0.435455	-425782	-7.816855E-8	NaN
395	1.000000	0.673205	7.36893e+06	-57339.1	1005.82	-29737.2	0.000000	0.000000	6.673016	-0.035887	NaN	0.000000	0.001589	0.001620	28.0791	0.087203	0.001888	46.186	-35.4686	14.2475	-0.131767	0.671833	-0.424938	-0.426310	-0.035887	46.186	-0.424355	-296581	1.210036E-7	NaN
395	1.000000	0.683193	7.36893e+06	-57339.1	1005.82	-29737.2	0.000000	0.000000	6.683006	0.005212	NaN	0.000000	0.001570	0.001629	28.0791	0.170408	0.002072	82.229	-109.515	-168.072	-0.020864	0.681895	-0.414949	-0.416248	0.005212	82.229	-0.414997	-218479	-2.385713E-8	NaN
395	1.000000	0.693208	7.36893e+06	-57339.1	1005.82	-29737.2	0.000000	0.000000	6.693021	0.006549	NaN	0.000000	0.001620	0.001642	28.0792	0.133252	0.001947	68.431	-121.515	13.6103	-0.013268	0.691871	-0.404934	-0.406272	0.006549	68.431	-0.405006	-157519	-4.157694E-8	NaN
395	1.000000	0.703235	7.36893e+06	-57339.1	1005.82	-29737.2	0.000000	0.000000	6.703046	-0.036591	NaN	0.000000	0.001606	0.001631	28.0791	0.103635	0.002042	50.7499	84.9528	-165.561	-0.033801	0.701952	-0.394907	-0.396191	-0.036591	50.7499	-0.394367	-111068	3.294487E-7	NaN
395	1.000000	0.713221	7.36893e+06	-57339.1	1005.82	-29737.2	0.000000	0.000000	6.713035	0.034193	NaN	0.000000	0.001611	0.001652	28.0791	0.069665	0.002127	32.7599	-179.201	12.4962	0.057743	0.711875	-0.384921	-0.386268	0.034193	32.7599	-0.385704	-83497.9	-4.095066E-7	NaN
395	1.000000	0.723202	7.36893e+06	-57339.1	1005.82	-29737.2	0.000000	0.000000	6.723015	0.002979	NaN	0.000000	0.001654	0.001636	28.078	0.068621	0.002030	33.8021	-39.7434	-163.711	-0.042640	0.721889	-0.374940	-0.376253	0.002979	33.8021	-0.375006	-58635.3	-5.080676E-8	NaN
395	1.000000	0.733252	7.36893e+06	-57339.1	1005.82	-29737.2	0.000000	0.000000	6.733065	-0.001382	NaN	0.000000	0.001624	0.001612	28.0778	0.029629	0.001948	15.2089	131.86	13.5236	-0.029131	0.731890	-0.364890	-0.366252	-0.001382	15.2089	-0.364822	-41830	3.304696E-8	NaN
395	1.000000	0.743249	7.36893e+06	-57339.1	1005.82	-29737.2	0.000000	0.000000	6.743060	-0.041161	NaN	0.000000	0.001588	0.001631	28.0781	0.071153	0.002081	34.1877	117.592	-165.203	-0.048255	0.741894	-0.354893	-0.356248	-0.041161	34.1877	-0.353990	-29165.4	1.411290E-6	NaN
395	1.000000	0.753240	7.36893e+06	-57339.1	1005.82	-29737.2	0.000000	0.000000	6.753054	0.032943	NaN	0.000000	0.001589	0.001660	28.0779	0.029817	0.001907	15.6329	89.249	15.3718	-0.007248	0.751864	-0.344903	-0.346279	0.032943	15.6329	-0.346483	-22694.4	-1.451571E-6	NaN
395	1.000000	0.763242	7.36893e+06	-57339.1	1005.82	-29737.2	0.000000	0.000000	6.763053	-0.030566	NaN	0.000000	0.001614	0.001661	28.0783	0.057694	0.001939	29.7539	-88.4614	-165.897	0.048513	0.761947	-0.334901	-0.336196	-0.030566	29.7539	-0.334130	-14992.6	2.038725E-6	NaN
395	1.000000	0.773239	7.36893e+06	-57339.1	1005.82	-29737.2	0.000000	0.000000	6.773052	0.015891	NaN	0.000000	0.001604	0.001650	28.0781	0.104415	0.001964	53.1616	50.0599	12.967	0.034120	0.771881	-0.324904	-0.326261	0.015891	53.1616	-0.325128	-11066.6	-1.435947E-6	NaN
395	1.000000	0.783247	7.36893e+06	-57339.1	1005.82	-29737.2	0.000000	0.000000	6.783058	-0.031019	NaN	0.000000	0.001625	0.001654	28.0783	0.045952	0.001875	24.5132	-114.002	-169.106	-0.001499	0.781898	-0.314896	-0.316244	-0.031019	24.5132	-0.313947	-7575.27	4.094755E-6	NaN
395	1.000000	0.793257	7.36893e+06	-57339.1	1005.82	-29737.2	0.000000	0.000000	6.793070	0.018584	NaN	0.000000	0.001593	0.001638	28.0778	0.112799	0.002023	55.7484	170.296	12.7509	-0.022415	0.791873	-0.304886	-0.306269	0.018584	55.7484	-0.305136	-5610.08	-3.312663E-6	NaN
395	1.000000	0.803290	7.36893e+06	-57339.1	1005.82	-29737.2	0.000000	0.000000	6.803104	0.015718	NaN	0.000000	0.001606	0.001646	28.0777	0.111016	0.001983	55.9723	-122.694	-163.695	-0.079057	0.801941	-0.294852	-0.296201	0.015718	55.9723	-0.295063	-3972.17	-3.957065E-6	NaN
395	1.000000	0.813260	7.36893e+06	-57339.1	1005.82	-29737.2	0.000000	0.000000	6.813071	-0.043151	NaN	0.000000	0.001601	0.001663	28.0777	0.057727	0.002058	28.0559	-151.547	14.739	0.029066	0.811926	-0.284882	-0.286216	-0.043151	28.0559	-0.283728	-2686.23	1.606368E-5	NaN
395	1.000000	0.823266	7.36893e+06	-57339.1	1005.82	-29737.2	0.000000	0.000000	6.823077	-0.034521	NaN	0.000000	0.001608	0.001676	28.0779	0.043666	0.002076	21.0355	-167.989	-165.161	0.005209	0.821932	-0.274877	-0.276211	-0.034521	21.0355	-0.273646	-1891.84	1.824730E-5	NaN
395	1.000000	0.833272	7.36893e+06	-57339.1	1005.82	-29737.2	0.000000	0.000000	6.833084	-0.005702	NaN	0.000000	0.001637	0.001672	28.0778	0.026169	0.002171	12.0531	35.6638	15.635	0.022010	0.831856	-0.264871	-0.266286	-0.005702	12.0531	-0.264516	-1374.04	4.149856E-6	NaN
395	1.000000	0.843258	7.36893e+06	-57339.1	1005.82	-29737.2	0.000000	0.000000	6.843069	-0.029989	NaN	0.000000	0.001562	0.001654	28.0781	0.043725	0.001970	22.1985	-139.32	-163.847	-0.075507	0.841935	-0.254885	-0.256207	-0.029989	22.1985	-0.253871	-943.483	3.178569E-5	NaN
395	1.000000	0.853305	7.36893e+06	-57339.1	1005.82	-29737.2	0.000000	0.000000	6.853117	-0.021577	NaN	0.000000	0.001609	0.001657	28.0792	0.120772	0.001982	60.945	28.1878	12.7381	-0.088805	0.851943	-0.244837	-0.246199	-0.021577	60.945	-0.244571	-677.313	3.185607E-5	NaN
395	1.000000	0.863306	7.36893e+06	-57339.1	1005.82	-29737.2	0.000000	0.000000	6.863118	-0.025316	NaN	0.000000	0.001590	0.001653	28.0793	0.043785	0.001955	22.3971	168.906	-166.777	-0.111245	0.861987	-0.234837	-0.236155	-0.025316	22.3971	-0.233989	-462.766	5.470478E-5	NaN
395	1.000000	0.873291	7.36893e+06	-57339.1	1005.82	-29737.2	0.000000	0.000000	6.873102	-0.031357	NaN	0.000000	0.001616	0.001644	28.0793	0.108016	0.002040	52.9414	-169.202	14.984	0.000549	0.872043	-0.224852	-0.226100	-0.031357	52.9414	-0.224407	-326.526	9.603330E-5	NaN
395	1.000000	0.883254	7.36893e+06	-57339.1	1005.82	-29737.2	0.000000	0.000000	6.883067	0.016688	NaN	0.000000	0.001590	0.001635	28.0794	0.067870	0.002018	33.634	118.407	-168.017	0.030364	0.881961	-0.214888	-0.216181	0.016688	33.634	-0.215261	-233.187	-7.156405E-5	NaN
395	1.000000	0.893311	7.36893e+06	-57339.1	1005.82	-29737.2	0.000000	0.000000	6.893122	-0.049198	NaN	0.000000	0.001607	0.001666	28.0792	0.013634	0.002044	6.670816	48.3184	12.04	-0.029305	0.891896	-0.204831	-0.206246	-0.049198	6.670816	-0.199300	-128.289	0.000383	NaN
395	1.000000	0.903278	7.36893e+06	-57339.1	1005.82	-29737.2	0.000000	0.000000	6.903093	0.044176	NaN	0.000000	0.001601	0.001660	28.0792	0.041269	0.001988	20.7588	89.1362	-168.069	-0.007198	0.902024	-0.194864	-0.196119	0.044176	20.7588	-0.196460	-115.177	-0.000384	NaN
395	1.000000	0.913289	7.36893e+06	-57339.1	1005.82	-29737.2	0.000000	0.000000	6.913104	0.041362	NaN	0.000000	0.001626	0.001664	28.0793	0.032577	0.002088	15.6008	-26.6951	12.4255	0.071944	0.911943	-0.184853	-0.186199	0.041362	15.6008	-0.186842	-79.6379	-0.000519	NaN
395	1.000000	0.923328	7.36893e+06	-57339.1	1005.82	-29737.2	0.000000	0.000000	6.923139	-0.050291	NaN	0.000000	0.001594	0.001642	28.0795	0.044504	0.001963	22.6674	-176.421	-164.009	-7.519797E-5	0.921996	-0.174814	-0.176147	-0.050291	22.6674	-0.173150	-46.5732	0.001080	NaN
395	1.000000	0.933313	7.36893e+06	-57339.1	1005.82	-29737.2	0.000000	0.000000	6.933124	-0.033360	NaN	0.000000	0.001603	0.001658	28.0794	0.032897	0.002102	15.6466	-92.8906	15.1567	-0.034831	0.931957	-0.164829	-0.166185	-0.033360	15.6466	-0.163230	-31.2727	0.001067	NaN
395	1.000000	0.943326	7.36893e+06	-57339.1	1005.82	-29737.2	0.000000	0.000000	6.943136	-0.069005	NaN	0.000000	0.001660	0.001647	28.079	0.104084	0.001955	53.247	-24.2795	-166.337	-0.060248	0.941977	-0.154816	-0.156166	-0.069005	53.247	-0.153844	-21.2694	0.003244	NaN
395	1.000000	0.953297	7.36893e+06	-57339.1	1005.82	-29737.2	0.000000	0.000000	6.953106	-0.082717	NaN	0.000000	0.001647	0.001650	28.0796	0.087833	0.001984	44.2612	-156.806	12.5385	-0.069735	0.951948	-0.144846	-0.146194	-0.082717	44.2612	-0.143444	-13.7187	0.006029	NaN
395	1.000000	0.963307	7.36893e+06	-57339.1	1005.82	-29737.2	0.000000	0.000000	6.963120	0.007475	NaN	0.000000	0.001656	0.001645	28.0794	0.016266	0.001900	8.561968	96.0669	-166.446	0.015773	0.961992	-0.134836	-0.136151	0.007475	8.561968	-0.135490	-9.719523	-0.000769	NaN
395	1.000000	0.973334	7.36893e+06	-57339.1	1005.82	-29737.2	0.000000	0.000000	6.973145	-0.048993	NaN	0.000000	0.001637	0.001636	28.0794	0.066422	0.002025	32.8021	-139.702	11.4268	-0.045667	0.971962	-0.124808	-0.126181	-0.048993	32.8021	-0.123688	-5.727450	0.008554	NaN
395	1.000000	0.983319	7.36893e+06	-57339.1	1005.82	-29737.2	0.000000	0.000000	6.983131	-0.009546	NaN	0.000000	0.001612	0.001654	28.0792	0.072549	0.002055	35.3029	83.3767	-167.2	0.043388	0.981993	-0.114824	-0.116149	-0.009546	35.3029	-0.114621	-3.752193	0.002544	NaN
395	1.000000	0.993336	7.36893e+06	-57339.1	1005.82	-29737.2	0.000000	0.000000	6.993149	-0.000995	NaN	0.000000	0.001628	0.001609	28.0782	0.141820	0.001993	71.1723	145.707	10.7394	0.028354	0.991991	-0.104806	-0.106151	-0.000995	71.1723	-0.104796	-2.326818	0.000428	NaN
395	1.000000	1.003321	7.36893e+06	-57339.1	1005.82	-29737.2	0.000000	0.000000	7.003133	-0.028872	NaN	0.000000	0.001616	0.001659	28.078	0.126969	0.002081	61.0015	-79.8411	-163.686	-0.010719	1.002077	-0.094821	-0.096065	-0.028872	61.0015	-0.094466	-1.371598	0.021050	NaN
395	1.000000	1.013360	7.36893e+06	-57339.1	1005.82	-29737.2	0.000000	0.000000	7.013171	-0.029962	NaN	0.000000	0.001653	0.001669	28.078	0.098595	0.002043	48.2672	160.042	14.4615	-0.064375	1.011959	-0.084783	-0.086183	-0.029962	48.2672	-0.084317	-0.790884	0.037884	NaN
395	1.000000	1.023358	7.36893e+06	-57339.1	1005.82	-29737.2	0.000000	0.000000	7.023171	0.008607	NaN	0.000000	0.001643	0.001648	28.078	0.046680	0.002080	22.4415	91.3207	-166.752	-0.007100	1.022046	-0.074785	-0.076096	0.008607	22.4415	-0.075072	-0.463862	-0.018556	NaN
395	1.000000	1.033334	7.36893e+06	-57339.1	1005.82	-29737.2	0.000000	0.000000	7.033145	-0.033571	NaN	0.000000	0.001637	0.001684	28.0781	0.070366	0.002151	32.7083	-156.952	14.1133	0.061198	1.032021	-0.064808	-0.066122	-0.033571	32.7083	-0.064039	-0.234324	0.143266	NaN
395	1.000000	1.043381	7.36893e+06	-57339.1	1005.82	-29737.2	0.000000	0.000000	7.043194	0.012996	NaN	0.000000	0.001650	0.001661	28.078	0.070599	0.001973	35.7786	-128.914	-162.474	-0.052648	1.042001	-0.054762	-0.056142	0.012996	35.7786	-0.055034	-0.129076	-0.100685	NaN
395	1.000000	1.053337	7.36893e+06	-57339.1	1005.82	-29737.2	0.000000	0.000000	7.053150	0.008616	NaN	0.000000	0.001662	0.001666	28.078	0.006607	0.001961	3.368807	-8.122115	15.8784	-0.032882	1.052007	-0.044805	-0.046135	0.008616	3.368807	-0.046724	-0.072553	-0.118755	NaN
395	1.000000	1.063356	7.36893e+06	-57339.1	1005.82	-29737.2	0.000000	0.000000	7.063170	0.019535	NaN	0.000000	0.001568	0.001677	28.0779	0.179404	0.001958	91.6034	-169.81	-167.683	0.020919	1.062034	-0.034786	-0.036108	0.019535	91.6034	-0.034946	-0.031908	-0.612229	NaN
395	1.000000	1.073362	7.36893e+06	-57339.1	1005.82	-29737.2	0.000000	0.000000	7.073173	-0.044363	NaN	0.000000	0.001601	0.001667	28.078	0.031084	0.001900	16.3606	-35.1837	15.7817	-0.057436	1.071989	-0.024781	-0.026154	-0.044363	16.3606	-0.022747	-0.014755	3.006727	NaN
395	1.000000	1.083367	7.36893e+06	-57339.1	1005.82	-29737.2	0.000000	0.000000	7.083177	-0.056316	NaN	0.000000	0.001599	0.001615	28.0779	0.019215	0.001887	10.1825	-15.2185	-167.889	-0.038662	1.082130	-0.014776	-0.016012	-0.056316	10.1825	-0.010628	-0.006746	8.348375	NaN
395	1.000000	1.093399	7.36893e+06	-57339.1	1005.82	-29737.2	0.000000	0.000000	7.093209	-0.073473	NaN	0.000000	0.001618	0.001608	28.078	0.073796	0.002016	36.5972	-124.603	13.3136	0.014705	1.092015	-0.004744	-0.006127	-0.073473	36.5972	-0.003238	-0.002279	32.2379	NaN
395	1.000000	1.103347	7.36893e+06	-57339.1	1005.82	-29737.2	0.000000	0.000000	7.103309	3.625878	NaN	0.000000	0.001596	0.001627	28.0778	4.555659	0.001910	2384.57	11.6242	-168.64	2.485278	1.102059	0.005204	0.003917	3.625878	2384.57	0.004064	0.003295	1100.37	37953.1
395	2.000000	1.109515	7.36893e+06	-57339.1	1005.82	-29737.2	0.000000	0.000000	7.109727	9.711097	NaN	0.000000	0.001580	0.001664	28.0781	9.673973	0.001591	6080.14	6.361865	5.768911	8.654152	1.109123	0.011373	0.010980	9.711097	6080.14	0.010175	0.009376	1035.7	57367.9
395	2.000000	1.111976	7.36893e+06	-57339.1	1005.82	-29737.2	0.000000	0.000000	7.112242	11.0068	NaN	0.000000	0.001601	0.001676	28.0781	12.1428	0.001746	6953.1	7.554455	-174.773	10.7939	1.111693	0.013833	0.013551	11.0068	6953.1	0.012646	0.012273	896.81	57341.7
395	2.000000	1.114471	7.36893e+06	-57339.1	1005.82	-29737.2	0.000000	0.000000	7.114924	15.5622	NaN	0.000000	0.001623	0.001656	28.0793	14.6538	0.001898	7719.58	8.523955	6.182939	15.0108	1.114076	0.016328	0.015934	15.5622	7719.58	0.014816	0.015041	1034.64	57507.6
395	2.000000	1.116920	7.36893e+06	-57339.1	1005.82	-29737.2	0.000000	0.000000	7.117480	18.171	NaN	0.000000	0.001583	0.001652	28.0792	16.57	0.001640	10105.4	4.068805	-174.465	17.1015	1.116640	0.018778	0.018498	18.171	10105.4	0.017429	0.018662	973.682	67584.3
395	2.000000	1.119403	7.36893e+06	-57339.1	1005.82	-29737.2	0.000000	0.000000	7.120165	23.0719	NaN	0.000000	0.001554	0.001653	28.0794	19.0078	0.001708	11125.5	6.937596	4.173056	21.7971	1.119140	0.021260	0.020997	23.0719	11125.5	0.019705	0.022081	1044.87	68404.4
395	2.000000	1.121934	7.36893e+06	-57339.1	1005.82	-29737.2	0.000000	0.000000	7.122868	27.2437	NaN	0.000000	0.001583	0.001641	28.079	22.4841	0.001934	11628.2	10.8512	-179.065	27.4501	1.121575	0.023792	0.023433	27.2437	11628.2	0.022035	0.025841	1054.29	66089.5
395	2.000000	1.124422	7.36893e+06	-57339.1	1005.82	-29737.2	0.000000	0.000000	7.125627	33.8534	NaN	0.000000	0.001606	0.001649	28.079	24.4172	0.001729	14122.3	6.031126	2.057961	31.3066	1.123968	0.026279	0.025826	33.8534	14122.3	0.024481	0.030079	1125.49	74395.4
395	2.000000	1.126908	7.36893e+06	-57339.1	1005.82	-29737.2	0.000000	0.000000	7.128339	39.3257	NaN	0.000000	0.001610	0.001638	28.0792	26.3314	0.001629	16161.6	6.663750	179.919	38.1006	1.126613	0.028766	0.028471	39.3257	16161.6	0.026941	0.034641	1135.23	79334
395	2.000000	1.129373	7.36893e+06	-57339.1	1005.82	-29737.2	0.000000	0.000000	7.130988	43.8064	NaN	0.000000	0.001578	0.001620	28.0793	29.9161	0.001771	16893.8	5.628801	-0.394374	41.2843	1.129007	0.031231	0.030865	43.8064	16893.8	0.029286	0.039277	1115.33	77881.2
395	2.000000	1.131917	7.36893e+06	-57339.1	1005.82	-29737.2	0.000000	0.000000	7.133767	49.4976	NaN	0.000000	0.001586	0.001639	28.0792	32.6589	0.001812	18019.5	8.060502	178.218	49.9621	1.131609	0.033775	0.033467	49.4976	18019.5	0.031715	0.044373	1115.48	78154.5
395	2.000000	1.134439	7.36893e+06	-57339.1	1005.82	-29737.2	0.000000	0.000000	7.136859	63.3618	NaN	0.000000	0.001611	0.001655	28.0793	34.8447	0.001735	20085.7	4.416864	0.574917	61.8242	1.133996	0.036297	0.035854	63.3618	20085.7	0.033931	0.049286	1285.58	82660.3
395	2.000000	1.136855	7.36893e+06	-57339.1	1005.82	-29737.2	0.000000	0.000000	7.139328	64.6648	NaN	0.000000	0.001595	0.001631	28.0792	37.0826	0.001786	20765.9	1.886495	-178.275	61.9325	1.136616	0.038712	0.038473	64.6648	20765.9	0.036377	0.055000	1175.72	80898.7
395	2.000000	1.139386	7.36893e+06	-57339.1	1005.82	-29737.2	0.000000	0.000000	7.142243	73.9867	NaN	0.000000	0.001600	0.001682	28.0794	39.9658	0.001748	22862.6	3.152785	-0.377036	71.8652	1.139066	0.041243	0.040924	73.9867	22862.6	0.038816	0.061005	1212.8	84570.1
395	2.000000	1.141849	7.36893e+06	-57339.1	1005.82	-29737.2	0.000000	0.000000	7.145159	85.0128	NaN	0.000000	0.001588	0.001662	28.0793	43.5026	0.001836	23697.9	5.969949	176.268	83.581	1.141586	0.043706	0.043443	85.0128	23697.9	0.041016	0.066680	1274.94	83846.5
395	2.000000	1.144357	7.36893e+06	-57339.1	1005.82	-29737.2	0.000000	0.000000	7.147980	92.589	NaN	0.000000	0.001594	0.001616	28.0793	45.0445	0.001719	26210	4.090853	-2.783113	87.7324	1.143985	0.046215	0.045843	92.589	26210	0.043566	0.073568	1258.56	88287
395	2.000000	1.146869	7.36893e+06	-57339.1	1005.82	-29737.2	0.000000	0.000000	7.150972	104.274	NaN	0.000000	0.001556	0.001668	28.0778	47.3687	0.001731	27358.4	3.844779	177.45	101.922	1.146590	0.048727	0.048447	104.274	27358.4	0.045868	0.080071	1302.28	88333.8
395	2.000000	1.149377	7.36893e+06	-57339.1	1005.82	-29737.2	0.000000	0.000000	7.153800	112.065	NaN	0.000000	0.001578	0.001643	28.0782	50.8838	0.001810	28115.6	6.441606	-5.429340	112.274	1.149032	0.051234	0.050890	112.065	28115.6	0.048245	0.087066	1287.13	87055.5
395	2.000000	1.151869	7.36893e+06	-57339.1	1005.82	-29737.2	0.000000	0.000000	7.156742	122.992	NaN	0.000000	0.001566	0.001625	28.0783	53.766	0.001736	30966.3	6.388532	173.317	123.42	1.151609	0.053726	0.053467	122.992	30966.3	0.050748	0.094738	1298.24	91918.1
395	2.000000	1.154382	7.36893e+06	-57339.1	1005.82	-29737.2	0.000000	0.000000	7.159768	135.44	NaN	0.000000	0.001587	0.001659	28.078	54.8242	0.001742	31472.1	6.527707	-6.197766	133.31	1.153991	0.056240	0.055849	135.44	31472.1	0.053012	0.101951	1328.48	90054
395	2.000000	1.156900	7.36893e+06	-57339.1	1005.82	-29737.2	0.000000	0.000000	7.162812	148.243	NaN	0.000000	0.001602	0.001665	28.0781	56.3144	0.001784	31562.6	5.584870	175.777	149.332	1.156554	0.058757	0.058412	148.243	31562.6	0.055235	0.109278	1356.58	87232.8
395	2.000000	1.159321	7.36893e+06	-57339.1	1005.82	-29737.2	0.000000	0.000000	7.165788	161.745	NaN	0.000000	0.001559	0.001669	28.0782	60.1961	0.001721	34985.8	4.803113	-5.741557	158.695	1.158961	0.061178	0.060819	161.745	34985.8	0.057711	0.117728	1373.89	93159
395	2.000000	1.161898	7.36893e+06	-57339.1	1005.82	-29737.2	0.000000	0.000000	7.168726	170.507	NaN	0.000000	0.001588	0.001679	28.0779	63.3464	0.001708	37092.5	7.021614	171.435	172.693	1.161573	0.063756	0.063431	170.507	37092.5	0.060308	0.126915	1343.47	95126.8
395	2.000000	1.164385	7.36893e+06	-57339.1	1005.82	-29737.2	0.000000	0.000000	7.171585	179.56	NaN	0.000000	0.001586	0.001634	28.078	64.9281	0.001746	37186.1	5.608906	-6.832733	178.405	1.164159	0.066242	0.066016	179.56	37186.1	0.062621	0.135374	1326.4	92339.2
395	2.000000	1.166757	7.36893e+06	-57339.1	1005.82	-29737.2	0.000000	0.000000	7.174937	203.368	NaN	0.000000	0.001595	0.001659	28.0783	66.7347	0.001843	36206.9	1.180095	177.861	196.972	1.166418	0.068615	0.068276	203.368	36206.9	0.064402	0.142066	1431.51	87764.8
395	2.000000	1.169313	7.36893e+06	-57339.1	1005.82	-29737.2	0.000000	0.000000	7.178051	216.937	NaN	0.000000	0.001604	0.001662	28.0782	69.2538	0.001722	40225.2	4.416902	-6.851865	212.097	1.168993	0.071170	0.070851	216.937	40225.2	0.067125	0.152591	1421.69	94082
395	2.000000	1.171827	7.36893e+06	-57339.1	1005.82	-29737.2	0.000000	0.000000	7.181005	227.6	NaN	0.000000	0.001573	0.001635	28.0779	71.9428	0.001779	40433.4	5.705090	172.405	225.515	1.171608	0.073685	0.073466	227.6	40433.4	0.069463	0.161912	1405.7	91806.6
395	2.000000	1.174318	7.36893e+06	-57339.1	1005.82	-29737.2	0.000000	0.000000	7.184103	242.371	NaN	0.000000	0.001582	0.001667	28.0778	73.4718	0.001853	39658.7	3.174550	-4.834929	237.075	1.174004	0.076176	0.075862	242.371	39658.7	0.071592	0.170625	1420.49	87718.2
395	2.000000	1.176814	7.36893e+06	-57339.1	1005.82	-29737.2	0.000000	0.000000	7.187490	264.039	NaN	0.000000	0.001575	0.001666	28.0781	75.5424	0.001702	44373.4	5.009706	172.164	260.91	1.176609	0.078672	0.078466	264.039	44373.4	0.074209	0.181629	1453.73	95127
395	2.000000	1.179286	7.36893e+06	-57339.1	1005.82	-29737.2	0.000000	0.000000	7.190481	276.621	NaN	0.000000	0.001587	0.001662	28.0779	78.8118	0.001851	42576.9	3.549119	-5.717419	271.183	1.178991	0.081144	0.080848	276.621	42576.9	0.076271	0.190531	1451.84	89117.8
395	2.000000	1.181788	7.36893e+06	-57339.1	1005.82	-29737.2	0.000000	0.000000	7.193550	290.423	NaN	0.000000	0.001603	0.001639	28.0793	82.5314	0.001868	44173	6.506554	171.066	288.04	1.181546	0.083645	0.083404	290.423	44173	0.078714	0.201333	1442.5	89944.2
395	2.000000	1.184426	7.36893e+06	-57339.1	1005.82	-29737.2	0.000000	0.000000	7.196725	303.462	NaN	0.000000	0.001605	0.001618	28.0791	83.8304	0.001833	45728.2	3.846933	-6.361863	304.011	1.184073	0.086284	0.085931	303.462	45728.2	0.081307	0.213098	1424.05	90504.1
395	2.000000	1.186872	7.36893e+06	-57339.1	1005.82	-29737.2	0.000000	0.000000	7.199953	322.467	NaN	0.000000	0.001595	0.001659	28.0798	85.7674	0.001815	47248.8	4.311795	172.773	323.415	1.186580	0.088730	0.088437	322.467	47248.8	0.083611	0.223821	1440.74	91246.1
395	2.000000	1.189397	7.36893e+06	-57339.1	1005.82	-29737.2	0.000000	0.000000	7.203632	350.529	NaN	0.000000	0.001615	0.001687	28.0791	87.6651	0.001800	48691.4	4.006684	-6.278727	352.425	1.188848	0.091255	0.090706	350.529	48691.4	0.085856	0.234501	1494.78	91865.7
395	2.000000	1.191859	7.36893e+06	-57339.1	1005.82	-29737.2	0.000000	0.000000	7.206415	358.33	NaN	0.000000	0.001626	0.001672	28.0794	90.9658	0.001862	48855.7	1.250009	175.164	356.344	1.191630	0.093716	0.093487	358.33	48855.7	0.088215	0.245978	1456.76	89999.6
395	2.000000	1.194289	7.36893e+06	-57339.1	1005.82	-29737.2	0.000000	0.000000	7.209631	377.436	NaN	0.000000	0.001645	0.001687	28.0792	92.5116	0.001849	50029.8	1.220395	-4.442322	371.818	1.194089	0.096146	0.095947	377.436	50029.8	0.090488	0.257276	1467.05	90116.2
395	2.000000	1.196853	7.36893e+06	-57339.1	1005.82	-29737.2	0.000000	0.000000	7.213234	402.68	NaN	0.000000	0.001598	0.001709	28.0797	94.8768	0.001753	54129.7	2.106589	174.776	404.161	1.196472	0.098711	0.098330	402.68	54129.7	0.093131	0.270711	1487.49	95050.7
395	2.000000	1.199307	7.36893e+06	-57339.1	1005.82	-29737.2	0.000000	0.000000	7.216489	422.139	NaN	0.000000	0.001577	0.001668	28.079	99.3105	0.001821	54547.2	9.690296	-13.6035	419.583	1.198809	0.101165	0.100667	422.139	54547.2	0.095361	0.282292	1495.4	93798.6
395	2.000000	1.201860	7.36893e+06	-57339.1	1005.82	-29737.2	0.000000	0.000000	7.219824	441.161	NaN	0.000000	0.001641	0.001666	28.0794	100.755	0.001759	57280.1	5.273506	170.842	443.114	1.201438	0.103718	0.103296	441.161	57280.1	0.097942	0.295983	1490.5	96193.1
395	2.000000	1.204220	7.36893e+06	-57339.1	1005.82	-29737.2	0.000000	0.000000	7.223228	466.542	NaN	0.000000	0.001600	0.001674	28.0791	102.927	0.001875	54888.8	6.862994	-10.6554	459.36	1.203972	0.106078	0.105830	466.542	54888.8	0.099703	0.305500	1527.14	90730.2
395	2.000000	1.206799	7.36893e+06	-57339.1	1005.82	-29737.2	0.000000	0.000000	7.226153	474.946	NaN	0.000000	0.001625	0.001664	28.0792	103.942	0.001810	57425.1	5.725229	169.843	472.428	1.206606	0.108656	0.108464	474.946	57425.1	0.102453	0.320643	1481.23	92654.1