File: remote_trans/data/nanoindenter/0828-1/data/Data_2025-08-06,11h17m57s/2025-07-22_16-23-58_1_53.txt
2025-07-22, 16:23:58, 1
Index	Phase	Displacement	Time	Pos X	Pos Y	Pos Z	Rot A	Rot B	Piezo Z	Force A	Force B	Gripper	Voltage A	Voltage B	Temperature	Amplitude force	Amplitude pos	Stiffness	Phase shift	Phase excitation	Force A raw	Displacement raw	HMax	HMax raw	Real Force	Real Stiffness	Contact Depth	Area	Hardness	Reduced Mod.
[#]	[#]	[um]	[s]	[um]	[um]	[um]	[m°]	[m°]	[um]	[uN]	[uN]	[V]	[V]	[V]	[°C]	[uN]	[um]	[N/m]	[°]	[°]	[uN]	[um]	[um]	[um]	[uN]	[N/m]	[um]	[um^2]	[MPa]	[MPa]
53	1.000000	0.003141	7.36556e+06	-41289.1	955.818	-29787.4	0.000000	0.000000	6.002821	0.007205	NaN	0.000000	0.001637	0.001677	28.129	0.025763	0.001005	25.6365	71.4549	-165.584	-0.011023	0.001894	-0.989055	-0.990303	0.007205	25.6365	-0.989266	-1.626406E+13	-4.430072E-16	NaN
53	1.000000	0.011075	7.36556e+06	-41289.1	955.819	-29787.4	0.000000	0.000000	6.010754	-0.003662	NaN	0.000000	0.001628	0.001655	28.1284	0.081448	0.000903	90.2305	31.7305	-163.605	-0.009476	0.009750	-0.981121	-0.982447	-0.003662	90.2305	-0.981091	-1.262144E+13	2.901174E-16	NaN
53	1.000000	0.019058	7.36556e+06	-41289.1	955.818	-29787.4	0.000000	0.000000	6.018736	-0.037755	NaN	0.000000	0.001598	0.001696	28.1285	0.108812	0.001729	62.9207	-75.6914	-162.406	-0.046852	0.017814	-0.973138	-0.974383	-0.037755	62.9207	-0.972688	-9.725097E+12	3.882181E-15	NaN
53	1.000000	0.027116	7.36556e+06	-41289.1	955.819	-29787.4	0.000000	0.000000	6.026795	-0.004839	NaN	0.000000	0.001567	0.001702	28.1285	0.078296	0.001894	41.3288	-28.3577	-162.599	0.076979	0.025826	-0.965080	-0.966370	-0.004839	41.3288	-0.964993	-7.659000E+12	6.317592E-16	NaN
53	1.000000	0.035069	7.36556e+06	-41289.1	955.818	-29787.4	0.000000	0.000000	6.034751	0.084036	NaN	0.000000	0.001622	0.001695	28.1271	0.210909	0.001954	107.918	174.543	-165.276	0.004707	0.033797	-0.957128	-0.958399	0.084036	107.918	-0.957712	-6.109684E+12	-1.375450E-14	NaN
53	1.000000	0.043076	7.36556e+06	-41289.1	955.819	-29787.4	0.000000	0.000000	6.042756	0.020788	NaN	0.000000	0.001611	0.001667	28.1271	0.033517	0.001987	16.8662	-125.925	-162.808	-0.003301	0.041711	-0.949120	-0.950486	0.020788	16.8662	-0.950045	-4.815375E+12	-4.316999E-15	NaN
53	1.000000	0.051063	7.36556e+06	-41289.1	955.817	-29787.4	0.000000	0.000000	6.050744	0.037836	NaN	0.000000	0.001637	0.001678	28.1272	0.069886	0.002149	32.5188	11.6499	-167.584	-0.003750	0.049761	-0.941133	-0.942436	0.037836	32.5188	-0.942006	-3.751465E+12	-1.008575E-14	NaN
53	1.000000	0.059103	7.36556e+06	-41289.1	955.818	-29787.4	0.000000	0.000000	6.058784	0.058360	NaN	0.000000	0.001639	0.001730	28.1277	0.050878	0.001941	26.2103	-169.493	-162.428	0.063020	0.057777	-0.933094	-0.934420	0.058360	26.2103	-0.934764	-2.995615E+12	-1.948190E-14	NaN
53	1.000000	0.067097	7.36556e+06	-41289.1	955.819	-29787.4	0.000000	0.000000	6.066778	0.033080	NaN	0.000000	0.001606	0.001667	28.1274	0.101927	0.001933	52.7433	-119.521	-160.961	0.009833	0.065739	-0.925099	-0.926458	0.033080	52.7433	-0.925570	-2.251128E+12	-1.469485E-14	NaN
53	1.000000	0.075100	7.36556e+06	-41289.1	955.818	-29787.4	0.000000	0.000000	6.074775	-0.089342	NaN	0.000000	0.001613	0.001717	28.1288	0.065757	0.001955	33.6272	-88.1349	-163.049	-0.084239	0.073831	-0.917097	-0.918366	-0.089342	33.6272	-0.915104	-1.625916E+12	5.494854E-14	NaN
53	1.000000	0.083070	7.36556e+06	-41289.1	955.818	-29787.4	0.000000	0.000000	6.082748	-0.007570	NaN	0.000000	0.001631	0.001685	28.1281	0.032097	0.002069	15.5114	104.215	-162.685	-0.009224	0.081784	-0.909127	-0.910413	-0.007570	15.5114	-0.908761	-1.334838E+12	5.671048E-15	NaN
53	1.000000	0.091061	7.36556e+06	-41289.1	955.818	-29787.4	0.000000	0.000000	6.090739	-0.023048	NaN	0.000000	0.001594	0.001694	28.1283	0.101013	0.001924	52.4956	178.936	-166.673	0.030319	0.089755	-0.901136	-0.902442	-0.023048	52.4956	-0.900807	-1.042237E+12	2.211360E-14	NaN
53	1.000000	0.099095	7.36556e+06	-41289.1	955.819	-29787.4	0.000000	0.000000	6.098776	0.028207	NaN	0.000000	0.001576	0.001748	28.1288	0.107322	0.002079	51.6267	-148.672	-165.231	0.027474	0.097782	-0.893101	-0.894414	0.028207	51.6267	-0.893511	-8.305648E+11	-3.396066E-14	NaN
53	1.000000	0.107099	7.36556e+06	-41289.1	955.818	-29787.4	0.000000	0.000000	6.106781	0.062405	NaN	0.000000	0.001597	0.001705	28.1286	0.094295	0.002051	45.9788	-97.7784	-163.394	0.077956	0.105810	-0.885097	-0.886387	0.062405	45.9788	-0.886115	-6.597744E+11	-9.458463E-14	NaN
53	1.000000	0.115100	7.36556e+06	-41289.1	955.818	-29787.4	0.000000	0.000000	6.114780	0.023595	NaN	0.000000	0.001613	0.001695	28.1269	0.087246	0.002022	43.1433	-124.316	-167.426	0.046021	0.113788	-0.877097	-0.878409	0.023595	43.1433	-0.877507	-5.046534E+11	-4.675413E-14	NaN
53	1.000000	0.123110	7.36556e+06	-41289.1	955.818	-29787.4	0.000000	0.000000	6.122790	0.034354	NaN	0.000000	0.001612	0.001674	28.1271	0.043062	0.001943	22.1663	2.377098	-162.876	0.006011	0.121841	-0.869087	-0.870355	0.034354	22.1663	-0.870249	-4.025438E+11	-8.534138E-14	NaN
53	1.000000	0.131122	7.36556e+06	-41289.1	955.817	-29787.4	0.000000	0.000000	6.130804	0.062154	NaN	0.000000	0.001595	0.001713	28.1277	0.063019	0.001957	32.1943	-157.608	-162.408	-0.028320	0.129778	-0.861075	-0.862419	0.062154	32.1943	-0.862523	-3.164191E+11	-1.964299E-13	NaN
53	1.000000	0.139068	7.36556e+06	-41289.1	955.819	-29787.4	0.000000	0.000000	6.138749	0.051802	NaN	0.000000	0.001607	0.001671	28.1286	0.136856	0.002052	66.6855	-176.819	-167.629	0.017238	0.137814	-0.853128	-0.854382	0.051802	66.6855	-0.853711	-2.404276E+11	-2.154580E-13	NaN
53	1.000000	0.147101	7.36556e+06	-41289.1	955.818	-29787.4	0.000000	0.000000	6.146779	-0.034386	NaN	0.000000	0.001574	0.001695	28.1283	0.084271	0.001995	42.2471	27.765	-167.134	0.014480	0.145823	-0.845096	-0.846374	-0.034386	42.2471	-0.844485	-1.803232E+11	1.906936E-13	NaN
53	1.000000	0.155089	7.36556e+06	-41289.1	955.818	-29787.4	0.000000	0.000000	6.154768	0.009823	NaN	0.000000	0.001611	0.001700	28.1293	0.048213	0.002028	23.776	-14.4314	-164.178	-0.046870	0.153769	-0.837108	-0.838428	0.009823	23.776	-0.837418	-1.446471E+11	-6.791013E-14	NaN
53	1.000000	0.163118	7.36556e+06	-41289.1	955.818	-29787.4	0.000000	0.000000	6.162799	0.053996	NaN	0.000000	0.001623	0.001656	28.1291	0.050603	0.002058	24.5926	-13.5682	-163.854	0.019293	0.161784	-0.829079	-0.830413	0.053996	24.5926	-0.830725	-1.173862E+11	-4.599903E-13	NaN
53	1.000000	0.171110	7.36556e+06	-41289.1	955.819	-29787.4	0.000000	0.000000	6.170791	0.057843	NaN	0.000000	0.001621	0.001701	28.1295	0.035035	0.002126	16.4765	177.177	-164.32	-0.070910	0.169823	-0.821087	-0.822374	0.057843	16.4765	-0.823720	-9.433063E+10	-6.131958E-13	NaN
53	1.000000	0.179118	7.36556e+06	-41289.1	955.817	-29787.4	0.000000	0.000000	6.178797	0.000450	NaN	0.000000	0.001616	0.001692	28.1298	0.049539	0.001929	25.6851	97.8728	-166.943	-0.071237	0.177814	-0.813078	-0.814382	0.000450	25.6851	-0.813091	-6.768791E+10	-6.645012E-15	NaN
53	1.000000	0.187116	7.36556e+06	-41289.1	955.818	-29787.4	0.000000	0.000000	6.186795	-0.010597	NaN	0.000000	0.001595	0.001708	28.1296	0.080750	0.001953	41.3536	-18.5524	-165.75	-0.013375	0.185825	-0.805080	-0.806371	-0.010597	41.3536	-0.804888	-5.238522E+10	2.022938E-13	NaN
53	1.000000	0.195126	7.36556e+06	-41289.1	955.818	-29787.4	0.000000	0.000000	6.194809	0.076706	NaN	0.000000	0.001578	0.001689	28.1283	0.050645	0.002019	25.0875	26.4472	-164.767	0.108431	0.193858	-0.797070	-0.798339	0.076706	25.0875	-0.799363	-4.407780E+10	-1.740231E-12	NaN
53	1.000000	0.203175	7.36556e+06	-41289.1	955.818	-29787.4	0.000000	0.000000	6.202856	0.034776	NaN	0.000000	0.001605	0.001651	28.1283	0.105903	0.001949	54.3406	109.447	-163.746	0.018495	0.201784	-0.789021	-0.790412	0.034776	54.3406	-0.789501	-3.238248E+10	-1.073900E-12	NaN
53	1.000000	0.211153	7.36556e+06	-41289.1	955.817	-29787.4	0.000000	0.000000	6.210835	0.069006	NaN	0.000000	0.001614	0.001665	28.1284	0.085408	0.002059	41.4846	-164.272	-162.371	-0.002644	0.209830	-0.781043	-0.782367	0.069006	41.4846	-0.782291	-2.584411E+10	-2.670090E-12	NaN
53	1.000000	0.219131	7.36556e+06	-41289.1	955.819	-29787.4	0.000000	0.000000	6.218812	0.044961	NaN	0.000000	0.001588	0.001688	28.1286	0.037873	0.002043	18.5339	-146.217	-163.978	0.029642	0.217804	-0.773065	-0.774392	0.044961	18.5339	-0.774885	-2.049801E+10	-2.193435E-12	NaN
53	1.000000	0.227133	7.36556e+06	-41289.1	955.817	-29787.4	0.000000	0.000000	6.226812	-0.005148	NaN	0.000000	0.001610	0.001695	28.1286	0.023828	0.001954	12.1973	-162.86	-165.287	0.086724	0.225841	-0.765064	-0.766356	-0.005148	12.1973	-0.764747	-1.492360E+10	3.449633E-13	NaN
53	1.000000	0.235160	7.36556e+06	-41289.1	955.818	-29787.4	0.000000	0.000000	6.234841	0.054348	NaN	0.000000	0.001618	0.001646	28.1293	0.077587	0.001938	40.0292	152.255	-167.151	0.090973	0.233812	-0.757037	-0.758384	0.054348	40.0292	-0.758055	-1.210168E+10	-4.490946E-12	NaN
53	1.000000	0.243155	7.36556e+06	-41289.1	955.818	-29787.4	0.000000	0.000000	6.242835	0.025145	NaN	0.000000	0.001588	0.001630	28.1295	0.059507	0.002022	29.4316	141.527	-166.685	-0.047894	0.241815	-0.749042	-0.750382	0.025145	29.4316	-0.749683	-9.308979E+9	-2.701125E-12	NaN
53	1.000000	0.251146	7.36556e+06	-41289.1	955.817	-29787.4	0.000000	0.000000	6.250825	0.016157	NaN	0.000000	0.001622	0.001690	28.1294	0.023188	0.002013	11.5218	101.262	-166.525	-0.038013	0.249872	-0.741051	-0.742324	0.016157	11.5218	-0.742103	-7.339970E+9	-2.201192E-12	NaN
53	1.000000	0.259136	7.36556e+06	-41289.1	955.818	-29787.4	0.000000	0.000000	6.258814	-0.025445	NaN	0.000000	0.001606	0.001666	28.1297	0.124678	0.001974	63.1671	-127.947	-164.369	0.012848	0.257782	-0.733061	-0.734414	-0.025445	63.1671	-0.732759	-5.475282E+9	4.647328E-12	NaN
53	1.000000	0.267153	7.36556e+06	-41289.1	955.817	-29787.4	0.000000	0.000000	6.266833	0.014732	NaN	0.000000	0.001605	0.001679	28.1292	0.052384	0.002021	25.9228	57.0545	-165.283	0.109007	0.265880	-0.725044	-0.726317	0.014732	25.9228	-0.725470	-4.355692E+9	-3.382187E-12	NaN
53	1.000000	0.275171	7.36556e+06	-41289.1	955.818	-29787.4	0.000000	0.000000	6.274846	-0.093774	NaN	0.000000	0.001570	0.001671	28.1276	0.090621	0.002034	44.5503	178.19	-166.295	-0.021196	0.273842	-0.717026	-0.718354	-0.093774	44.5503	-0.715447	-3.179633E+9	2.949201E-11	NaN
53	1.000000	0.283197	7.36556e+06	-41289.1	955.818	-29787.4	0.000000	0.000000	6.282876	0.019783	NaN	0.000000	0.001578	0.001660	28.1273	0.105395	0.001880	56.0617	-25.0047	-166.134	-0.027410	0.281830	-0.709000	-0.710367	0.019783	56.0617	-0.709265	-2.618264E+9	-7.555909E-12	NaN
53	1.000000	0.291183	7.36556e+06	-41289.1	955.818	-29787.4	0.000000	0.000000	6.290862	0.011939	NaN	0.000000	0.001585	0.001676	28.127	0.102099	0.001885	54.1574	125.089	-165.595	-0.012516	0.289864	-0.701014	-0.702332	0.011939	54.1574	-0.701179	-2.030635E+9	-5.879415E-12	NaN
53	1.000000	0.299176	7.36556e+06	-41289.1	955.817	-29787.4	0.000000	0.000000	6.298854	-0.020613	NaN	0.000000	0.001581	0.001700	28.1269	0.069539	0.002035	34.1724	-162.409	-163.413	0.008254	0.297881	-0.693021	-0.694316	-0.020613	34.1724	-0.692568	-1.548862E+9	1.330872E-11	NaN
53	1.000000	0.307173	7.36556e+06	-41289.1	955.818	-29787.4	0.000000	0.000000	6.306851	-0.012411	NaN	0.000000	0.001571	0.001672	28.1269	0.058534	0.001889	30.993	-150.185	-163.861	-0.013723	0.305871	-0.685024	-0.686326	-0.012411	30.993	-0.684724	-1.210038E+9	1.025655E-11	NaN
53	1.000000	0.315198	7.36556e+06	-41289.1	955.818	-29787.4	0.000000	0.000000	6.314875	-0.027229	NaN	0.000000	0.001572	0.001654	28.1278	0.108584	0.001813	59.8883	94.8457	-164.852	0.064007	0.313873	-0.676999	-0.678324	-0.027229	59.8883	-0.676658	-9.386298E+8	2.900939E-11	NaN
53	1.000000	0.323169	7.36556e+06	-41289.1	955.818	-29787.4	0.000000	0.000000	6.322846	-0.039974	NaN	0.000000	0.001576	0.001714	28.1282	0.044024	0.001915	22.9869	168.882	-164.654	-0.091023	0.321891	-0.669028	-0.670305	-0.039974	22.9869	-0.667724	-7.083279E+8	5.643446E-11	NaN
53	1.000000	0.331187	7.36556e+06	-41289.1	955.818	-29787.4	0.000000	0.000000	6.330866	0.010611	NaN	0.000000	0.001560	0.001711	28.1285	0.111002	0.001991	55.7554	47.445	-167.094	0.027808	0.329852	-0.661010	-0.662344	0.010611	55.7554	-0.661153	-5.757821E+8	-1.842919E-11	NaN
53	1.000000	0.339191	7.36556e+06	-41289.1	955.818	-29787.4	0.000000	0.000000	6.338868	-0.035149	NaN	0.000000	0.001601	0.001681	28.1281	0.050572	0.002066	24.4725	81.0557	-162.932	0.058398	0.337873	-0.653006	-0.654323	-0.035149	24.4725	-0.651929	-4.304038E+8	8.166578E-11	NaN
53	1.000000	0.347189	7.36556e+06	-41289.1	955.818	-29787.4	0.000000	0.000000	6.346871	0.074057	NaN	0.000000	0.001596	0.001663	28.1279	0.076238	0.002025	37.6427	5.380825	-166.211	0.014090	0.345863	-0.645008	-0.646334	0.074057	37.6427	-0.646483	-3.624236E+8	-2.043373E-10	NaN
53	1.000000	0.355209	7.36556e+06	-41289.1	955.818	-29787.4	0.000000	0.000000	6.354888	-0.010233	NaN	0.000000	0.001541	0.001666	28.1268	0.075564	0.001979	38.1902	-84.1352	-168.591	0.036982	0.353856	-0.636988	-0.638341	-0.010233	38.1902	-0.636787	-2.668045E+8	3.835530E-11	NaN
53	1.000000	0.363203	7.36556e+06	-41289.1	955.819	-29787.4	0.000000	0.000000	6.362884	0.059533	NaN	0.000000	0.001571	0.001686	28.127	0.081135	0.001898	42.7504	127.73	-167.402	0.046932	0.361862	-0.628994	-0.630334	0.059533	42.7504	-0.630038	-2.155490E+8	-2.761912E-10	NaN
53	1.000000	0.371191	7.36556e+06	-41289.1	955.817	-29787.4	0.000000	0.000000	6.370872	0.049685	NaN	0.000000	0.001593	0.001670	28.1265	0.042286	0.001938	21.8184	-7.316077	-166.127	0.046232	0.369903	-0.621005	-0.622293	0.049685	21.8184	-0.622713	-1.709712E+8	-2.906068E-10	NaN
53	1.000000	0.379196	7.36556e+06	-41289.1	955.818	-29787.4	0.000000	0.000000	6.378877	0.058382	NaN	0.000000	0.001557	0.001669	28.1268	0.091129	0.002112	43.1496	-34.0033	-163.84	0.049895	0.377938	-0.613001	-0.614259	0.058382	43.1496	-0.614016	-1.298234E+8	-4.497021E-10	NaN
53	1.000000	0.387197	7.36556e+06	-41289.1	955.817	-29787.4	0.000000	0.000000	6.386876	0.012918	NaN	0.000000	0.001552	0.001657	28.1268	0.049854	0.001918	25.988	101.094	-165.03	0.107972	0.385883	-0.605000	-0.606314	0.012918	25.988	-0.605373	-9.872693E+7	-1.308419E-10	NaN
53	1.000000	0.395201	7.36556e+06	-41289.1	955.818	-29787.4	0.000000	0.000000	6.394878	-0.057723	NaN	0.000000	0.001569	0.001704	28.1284	0.023076	0.002068	11.1604	14.0871	-163.789	0.002168	0.393922	-0.596995	-0.598275	-0.057723	11.1604	-0.593116	-6.693046E+7	8.624340E-10	NaN
53	1.000000	0.403209	7.36556e+06	-41289.1	955.819	-29787.4	0.000000	0.000000	6.402887	-0.004348	NaN	0.000000	0.001609	0.001690	28.1277	0.041651	0.001945	21.41	-168.875	-166.063	0.028789	0.401924	-0.588988	-0.590272	-0.004348	21.41	-0.588836	-5.842712E+7	7.442420E-11	NaN
53	1.000000	0.411195	7.36556e+06	-41289.1	955.818	-29787.4	0.000000	0.000000	6.410876	0.047187	NaN	0.000000	0.001577	0.001689	28.1287	0.124831	0.001873	66.6394	-132.849	-165.103	-0.016156	0.409897	-0.581002	-0.582299	0.047187	66.6394	-0.581533	-4.633164E+7	-1.018465E-9	NaN
53	1.000000	0.419205	7.36556e+06	-41289.1	955.818	-29787.4	0.000000	0.000000	6.418885	0.027373	NaN	0.000000	0.001561	0.001664	28.129	0.042008	0.001936	21.6997	-23.3107	-164.726	-0.055279	0.417960	-0.572992	-0.574237	0.027373	21.6997	-0.573938	-3.639374E+7	-7.521223E-10	NaN
53	1.000000	0.427223	7.36556e+06	-41289.1	955.818	-29787.4	0.000000	0.000000	6.426901	-0.021228	NaN	0.000000	0.001558	0.001685	28.1286	0.099843	0.002124	47.0058	66.8446	-167.103	0.031629	0.425891	-0.564974	-0.566305	-0.021228	47.0058	-0.564635	-2.706954E+7	7.842039E-10	NaN
53	1.000000	0.435241	7.36556e+06	-41289.1	955.818	-29787.4	0.000000	0.000000	6.434920	-0.020900	NaN	0.000000	0.001590	0.001659	28.1278	0.039071	0.001878	20.81	167.396	-163.797	0.091305	0.433869	-0.556955	-0.558328	-0.020900	20.81	-0.556202	-2.069313E+7	1.010011E-9	NaN
53	1.000000	0.443228	7.36556e+06	-41289.1	955.818	-29787.4	0.000000	0.000000	6.442907	-0.003384	NaN	0.000000	0.001590	0.001662	28.1283	0.019388	0.001964	9.872152	-101.353	-165.281	0.037976	0.441887	-0.548969	-0.550310	-0.003384	9.872152	-0.548712	-1.629700E+7	2.076616E-10	NaN
53	1.000000	0.451224	7.36556e+06	-41289.1	955.818	-29787.4	0.000000	0.000000	6.450903	0.003203	NaN	0.000000	0.001585	0.001677	28.1278	0.082490	0.002004	41.1599	85.0523	-163.513	0.005958	0.449920	-0.540973	-0.542277	0.003203	41.1599	-0.541031	-1.275435E+7	-2.511031E-10	NaN
53	1.000000	0.459237	7.36556e+06	-41289.1	955.818	-29787.4	0.000000	0.000000	6.458914	-0.042933	NaN	0.000000	0.001590	0.001675	28.128	0.079619	0.002126	37.4551	102.176	-167.499	0.022611	0.457947	-0.532960	-0.534250	-0.042933	37.4551	-0.532100	-9.58826e+06	4.477687E-9	NaN
53	1.000000	0.467256	7.36556e+06	-41289.1	955.818	-29787.4	0.000000	0.000000	6.466938	0.052941	NaN	0.000000	0.001600	0.001679	28.1278	0.040022	0.001904	21.0222	29.869	-164.905	-0.003743	0.465965	-0.524940	-0.526232	0.052941	21.0222	-0.526829	-8.10077e+06	-6.535271E-9	NaN
53	1.000000	0.475213	7.36556e+06	-41289.1	955.818	-29787.4	0.000000	0.000000	6.474895	0.067788	NaN	0.000000	0.001592	0.001689	28.1292	0.035464	0.002012	17.6255	-143.938	-163.581	0.097238	0.473946	-0.516984	-0.518250	0.067788	17.6255	-0.519868	-6.48286e+06	-1.045652E-8	NaN
53	1.000000	0.483255	7.36556e+06	-41289.1	955.818	-29787.4	0.000000	0.000000	6.482935	0.041786	NaN	0.000000	0.001610	0.001695	28.1293	0.083301	0.001957	42.5594	-147.693	-161.078	0.038492	0.481958	-0.508942	-0.510238	0.041786	42.5594	-0.509678	-4.67664e+06	-8.935020E-9	NaN
53	1.000000	0.491252	7.36556e+06	-41289.1	955.818	-29787.4	0.000000	0.000000	6.490930	-0.018148	NaN	0.000000	0.001650	0.001710	28.1286	0.027765	0.002002	13.8704	-148.257	-161.486	-0.040342	0.489980	-0.500945	-0.502217	-0.018148	13.8704	-0.499964	-3.42384e+06	5.300419E-9	NaN
53	1.000000	0.499265	7.36556e+06	-41289.1	955.819	-29787.4	0.000000	0.000000	6.498946	0.030832	NaN	0.000000	0.001611	0.001697	28.1287	0.056175	0.002080	27.0032	38.0256	-163.695	0.064431	0.497959	-0.492931	-0.494238	0.030832	27.0032	-0.493788	-2.8074e+06	-1.098231E-8	NaN
53	1.000000	0.507268	7.36556e+06	-41289.1	955.819	-29787.4	0.000000	0.000000	6.506951	0.089555	NaN	0.000000	0.001649	0.001694	28.1288	0.010375	0.001968	5.271356	-107.717	-166.301	0.035040	0.505938	-0.484929	-0.486259	0.089555	5.271356	-0.497670	-3.18063e+06	-2.815638E-8	NaN
53	1.000000	0.515242	7.36556e+06	-41289.1	955.818	-29787.4	0.000000	0.000000	6.514922	0.019375	NaN	0.000000	0.001695	0.001693	28.1276	0.073646	0.001997	36.8836	-159.564	-165.689	0.025023	0.513900	-0.476954	-0.478297	0.019375	36.8836	-0.477348	-1.65347e+06	-1.171764E-8	NaN
53	1.000000	0.523288	7.36557e+06	-41289.1	955.818	-29787.4	0.000000	0.000000	6.522968	0.039684	NaN	0.000000	0.001647	0.001675	28.1276	0.051013	0.002070	24.641	-20.5902	-164.336	0.015395	0.521950	-0.468909	-0.470247	0.039684	24.641	-0.470117	-1.30932e+06	-3.030874E-8	NaN
53	1.000000	0.531269	7.36557e+06	-41289.1	955.819	-29787.4	0.000000	0.000000	6.530950	0.053019	NaN	0.000000	0.001694	0.001697	28.1274	0.077204	0.001988	38.8321	20.6497	-165.579	0.076890	0.529980	-0.460928	-0.462217	0.053019	38.8321	-0.461952	-1.00565e+06	-5.272144E-8	NaN
53	1.000000	0.539245	7.36557e+06	-41289.1	955.818	-29787.4	0.000000	0.000000	6.538925	0.035836	NaN	0.000000	0.001682	0.001686	28.1275	0.036719	0.001964	18.6991	-147.566	-163.402	0.086199	0.537925	-0.452952	-0.454272	0.035836	18.6991	-0.454389	-787268	-4.551910E-8	NaN
53	1.000000	0.547263	7.36557e+06	-41289.1	955.817	-29787.4	0.000000	0.000000	6.546943	0.015026	NaN	0.000000	0.001717	0.001710	28.1264	0.048869	0.002080	23.4987	147.78	-166.172	-0.031703	0.545963	-0.444933	-0.446234	0.015026	23.4987	-0.445413	-588457	-2.553485E-8	NaN
53	1.000000	0.555293	7.36557e+06	-41289.1	955.818	-29787.4	0.000000	0.000000	6.554970	-0.043785	NaN	0.000000	0.001689	0.001722	28.1272	0.034227	0.001980	17.2867	6.176575	-163.094	0.006474	0.553946	-0.436904	-0.438250	-0.043785	17.2867	-0.435004	-419582	1.043540E-7	NaN
53	1.000000	0.563261	7.36557e+06	-41289.1	955.817	-29787.5	0.000000	0.000000	6.562941	0.017757	NaN	0.000000	0.001673	0.001722	28.1272	0.055931	0.002029	27.5713	-116.957	-166.625	0.041597	0.561981	-0.428935	-0.430215	0.017757	27.5713	-0.429418	-349810	-5.076235E-8	NaN
53	1.000000	0.571316	7.36557e+06	-41289.1	955.819	-29787.4	0.000000	0.000000	6.570995	-0.000866	NaN	0.000000	0.001673	0.001732	28.1274	0.094491	0.002096	45.0804	104.78	-166.161	0.040554	0.569978	-0.420881	-0.422218	-0.000866	45.0804	-0.420867	-264669	3.272868E-9	NaN
53	1.000000	0.579297	7.36557e+06	-41289.1	955.818	-29787.4	0.000000	0.000000	6.578977	0.025309	NaN	0.000000	0.001646	0.001702	28.1273	0.107400	0.002049	52.4114	-85.5953	-163.432	0.067987	0.577995	-0.412899	-0.414201	0.025309	52.4114	-0.413262	-206425	-1.226082E-7	NaN
53	1.000000	0.587321	7.36557e+06	-41289.1	955.818	-29787.4	0.000000	0.000000	6.586999	-0.026630	NaN	0.000000	0.001644	0.001672	28.1276	0.057525	0.001916	30.0201	139.637	-167.139	-0.017108	0.585975	-0.404875	-0.406222	-0.026630	30.0201	-0.404210	-153462	1.735287E-7	NaN
53	1.000000	0.595318	7.36557e+06	-41289.1	955.818	-29787.4	0.000000	0.000000	6.594999	0.054450	NaN	0.000000	0.001668	0.001643	28.1275	0.018789	0.001838	10.2199	-30.8744	-162.526	0.082359	0.593996	-0.396878	-0.398201	0.054450	10.2199	-0.400874	-137550	-3.958534E-7	NaN
53	1.000000	0.603302	7.36557e+06	-41289.1	955.818	-29787.4	0.000000	0.000000	6.602980	-0.025089	NaN	0.000000	0.001640	0.001688	28.1266	0.063665	0.001979	32.1636	-56.4792	-165.022	-0.017956	0.602035	-0.388895	-0.390161	-0.025089	32.1636	-0.388310	-90988.5	2.757367E-7	NaN
53	1.000000	0.611313	7.36557e+06	-41289.1	955.819	-29787.4	0.000000	0.000000	6.610992	0.002428	NaN	0.000000	0.001649	0.001685	28.1268	0.056806	0.002083	27.2687	-79.572	-163.679	-0.027789	0.609941	-0.380884	-0.382255	0.002428	27.2687	-0.380951	-71373	-3.401225E-8	NaN
53	1.000000	0.619310	7.36557e+06	-41289.1	955.818	-29787.4	0.000000	0.000000	6.618988	-0.032555	NaN	0.000000	0.001694	0.001684	28.1263	0.050418	0.002066	24.4048	164.275	-166.098	0.011290	0.618018	-0.372887	-0.374179	-0.032555	24.4048	-0.371886	-52878.7	6.156498E-7	NaN
53	1.000000	0.627301	7.36557e+06	-41289.1	955.818	-29787.5	0.000000	0.000000	6.626980	-0.009309	NaN	0.000000	0.001622	0.001673	28.1261	0.070902	0.002126	33.3498	-115.033	-165.764	0.022856	0.626021	-0.364896	-0.366176	-0.009309	33.3498	-0.364686	-41641.6	2.235460E-7	NaN
53	1.000000	0.635316	7.36557e+06	-41289.1	955.818	-29787.4	0.000000	0.000000	6.634997	0.059588	NaN	0.000000	0.001618	0.001658	28.1273	0.035331	0.001897	18.6217	124.213	-167.455	-0.021357	0.634018	-0.356881	-0.358178	0.059588	18.6217	-0.359281	-34789.5	-1.712802E-6	NaN
53	1.000000	0.643335	7.36557e+06	-41289.1	955.819	-29787.4	0.000000	0.000000	6.643014	-0.002200	NaN	0.000000	0.001604	0.001668	28.1273	0.015437	0.002010	7.678383	20.8	-164.217	0.006165	0.641973	-0.348861	-0.350223	-0.002200	7.678383	-0.348646	-24397.9	9.015872E-8	NaN
53	1.000000	0.651320	7.36557e+06	-41289.1	955.818	-29787.4	0.000000	0.000000	6.650999	-0.007404	NaN	0.000000	0.001595	0.001655	28.1273	0.065869	0.002000	32.9271	-40.9258	-161.005	-0.032215	0.649943	-0.340877	-0.342253	-0.007404	32.9271	-0.340708	-18701.3	3.959188E-7	NaN
53	1.000000	0.659316	7.36557e+06	-41289.1	955.818	-29787.4	0.000000	0.000000	6.658994	-0.028550	NaN	0.000000	0.001622	0.001702	28.1272	0.069476	0.001991	34.8956	-5.018795	-165.792	0.006526	0.657970	-0.332881	-0.334227	-0.028550	34.8956	-0.332267	-14081.1	2.027571E-6	NaN
53	1.000000	0.667347	7.36557e+06	-41289.1	955.819	-29787.4	0.000000	0.000000	6.667028	0.063738	NaN	0.000000	0.001630	0.001635	28.1276	0.054511	0.002020	26.9909	-135.011	-166.411	0.044662	0.666029	-0.324850	-0.326168	0.063738	26.9909	-0.326621	-11639.3	-5.476105E-6	NaN
53	1.000000	0.675350	7.36557e+06	-41289.1	955.819	-29787.5	0.000000	0.000000	6.675028	-0.016108	NaN	0.000000	0.001623	0.001660	28.1258	0.035224	0.002071	17.0109	105.463	-163.175	-0.057159	0.674047	-0.316847	-0.318150	-0.016108	17.0109	-0.316137	-8160.57	1.973881E-6	NaN
53	1.000000	0.683348	7.36557e+06	-41289.1	955.818	-29787.5	0.000000	0.000000	6.683025	-0.047526	NaN	0.000000	0.001662	0.001647	28.1275	0.076455	0.002063	37.0668	179.833	-167.019	-0.007773	0.682017	-0.308848	-0.310180	-0.047526	37.0668	-0.307887	-6162.58	7.711984E-6	NaN
53	1.000000	0.691353	7.36557e+06	-41289.1	955.82	-29787.4	0.000000	0.000000	6.691032	0.011551	NaN	0.000000	0.001640	0.001700	28.1274	0.059781	0.001837	32.5477	-104.189	-166.535	-0.006764	0.690036	-0.300844	-0.302160	0.011551	32.5477	-0.301110	-4888.24	-2.362959E-6	NaN
53	1.000000	0.699349	7.36557e+06	-41289.1	955.818	-29787.4	0.000000	0.000000	6.699029	0.033439	NaN	0.000000	0.001659	0.001685	28.1273	0.052446	0.001927	27.2184	39.3653	-163.734	0.012278	0.698007	-0.292848	-0.294189	0.033439	27.2184	-0.293769	-3799.26	-8.801475E-6	NaN
53	1.000000	0.707331	7.36557e+06	-41289.1	955.817	-29787.4	0.000000	0.000000	6.707010	-0.003562	NaN	0.000000	0.001632	0.001657	28.1274	0.068933	0.001994	34.5733	155.978	-162.675	0.052738	0.706034	-0.284866	-0.286163	-0.003562	34.5733	-0.284788	-2786.66	1.278339E-6	NaN
53	1.000000	0.715353	7.36557e+06	-41289.1	955.818	-29787.4	0.000000	0.000000	6.715030	-0.030762	NaN	0.000000	0.001662	0.001658	28.1282	0.089102	0.002059	43.2842	159.374	-164.219	-0.049329	0.714025	-0.276844	-0.278172	-0.030762	43.2842	-0.276311	-2076.07	1.481763E-5	NaN
53	1.000000	0.723390	7.36557e+06	-41289.1	955.818	-29787.4	0.000000	0.000000	6.723069	0.019052	NaN	0.000000	0.001612	0.001658	28.1278	0.021875	0.002001	10.9325	23.7266	-163.188	-0.023459	0.722033	-0.268807	-0.270163	0.019052	10.9325	-0.270114	-1672.17	-1.139348E-5	NaN
53	1.000000	0.731367	7.36557e+06	-41289.1	955.818	-29787.4	0.000000	0.000000	6.731047	0.008710	NaN	0.000000	0.001618	0.001666	28.1284	0.082022	0.002063	39.7496	-123.934	-165.676	-0.104174	0.729999	-0.260829	-0.262198	0.008710	39.7496	-0.260994	-1213.78	-7.176167E-6	NaN
53	1.000000	0.739360	7.36557e+06	-41289.1	955.819	-29787.5	0.000000	0.000000	6.739038	-0.008241	NaN	0.000000	0.001646	0.001673	28.1281	0.048615	0.001933	25.1554	-106.4	-165.011	-0.042327	0.738090	-0.252837	-0.254107	-0.008241	25.1554	-0.252591	-901.557	9.140698E-6	NaN
53	1.000000	0.747399	7.36557e+06	-41289.1	955.819	-29787.5	0.000000	0.000000	6.747079	0.044415	NaN	0.000000	0.001656	0.001647	28.1281	0.077516	0.001926	40.2513	-74.037	-165.445	0.037928	0.746061	-0.244798	-0.246135	0.044415	40.2513	-0.245626	-703.353	-6.314694E-5	NaN
53	1.000000	0.755345	7.36557e+06	-41289.1	955.818	-29787.4	0.000000	0.000000	6.755024	0.016759	NaN	0.000000	0.001606	0.001645	28.1273	0.044432	0.002140	20.7668	-103.456	-162.25	0.016765	0.754020	-0.236852	-0.238176	0.016759	20.7668	-0.237457	-524.546	-3.194865E-5	NaN
53	1.000000	0.763387	7.36557e+06	-41289.1	955.819	-29787.4	0.000000	0.000000	6.763066	0.003343	NaN	0.000000	0.001621	0.001676	28.1272	0.054365	0.002119	25.6601	54.721	-163.794	-0.059779	0.762013	-0.228809	-0.230184	0.003343	25.6601	-0.228907	-384.812	-8.687461E-6	NaN
53	1.000000	0.771384	7.36557e+06	-41289.1	955.819	-29787.5	0.000000	0.000000	6.771061	-0.037330	NaN	0.000000	0.001625	0.001667	28.1273	0.109781	0.001992	55.1068	-153.044	-163.89	-0.045395	0.770075	-0.220813	-0.222122	-0.037330	55.1068	-0.220305	-280.894	0.000133	NaN
53	1.000000	0.779382	7.36557e+06	-41289.1	955.818	-29787.5	0.000000	0.000000	6.779061	-0.010410	NaN	0.000000	0.001615	0.001661	28.1268	0.088240	0.002007	43.9758	113.755	-163.529	-0.055416	0.778057	-0.212815	-0.214139	-0.010410	43.9758	-0.212637	-211.566	4.920317E-5	NaN
53	1.000000	0.787372	7.36557e+06	-41289.1	955.819	-29787.4	0.000000	0.000000	6.787052	0.020257	NaN	0.000000	0.001612	0.001631	28.1271	0.069442	0.002080	33.3931	118.969	-160.834	-0.011129	0.786069	-0.204825	-0.206128	0.020257	33.3931	-0.205279	-160.737	-0.000126	NaN
53	1.000000	0.795395	7.36557e+06	-41289.1	955.819	-29787.5	0.000000	0.000000	6.795077	0.064116	NaN	0.000000	0.001576	0.001645	28.128	0.114193	0.002027	56.3315	6.676781	-166.067	0.033968	0.794136	-0.196802	-0.198061	0.064116	56.3315	-0.197655	-120.53	-0.000532	NaN
53	1.000000	0.803396	7.36557e+06	-41289.1	955.818	-29787.4	0.000000	0.000000	6.803074	-0.006244	NaN	0.000000	0.001606	0.001698	28.1282	0.052366	0.001961	26.698	30.496	-164.432	0.066325	0.802075	-0.188801	-0.190122	-0.006244	26.698	-0.188626	-85.3184	7.318556E-5	NaN
53	1.000000	0.811382	7.36557e+06	-41289.1	955.819	-29787.5	0.000000	0.000000	6.811061	-0.002264	NaN	0.000000	0.001598	0.001738	28.1288	0.145795	0.002033	71.7003	3.313768	-162.762	-0.053868	0.810088	-0.180815	-0.182109	-0.002264	71.7003	-0.180791	-62.9389	3.597715E-5	NaN
53	1.000000	0.819415	7.36557e+06	-41289.1	955.819	-29787.5	0.000000	0.000000	6.819093	-0.014320	NaN	0.000000	0.001587	0.001679	28.1265	0.076441	0.001952	39.1645	90.7844	-164.403	0.014312	0.818099	-0.172782	-0.174097	-0.014320	39.1645	-0.172508	-45.3984	0.000315	NaN
53	1.000000	0.827395	7.36557e+06	-41289.1	955.819	-29787.4	0.000000	0.000000	6.827074	0.001686	NaN	0.000000	0.001599	0.001688	28.1272	0.081804	0.002010	40.7012	-118.657	-162.864	0.017934	0.826091	-0.164801	-0.166106	0.001686	40.7012	-0.164832	-33.3704	-5.052216E-5	NaN
53	1.000000	0.835414	7.36557e+06	-41289.1	955.817	-29787.4	0.000000	0.000000	6.835094	0.004824	NaN	0.000000	0.001599	0.001711	28.1255	0.043933	0.002050	21.4265	6.440418	-168.517	-0.027313	0.834101	-0.156782	-0.158096	0.004824	21.4265	-0.156951	-24.1882	-0.000199	NaN
53	1.000000	0.843403	7.36557e+06	-41289.1	955.818	-29787.4	0.000000	0.000000	6.843081	-0.015784	NaN	0.000000	0.001630	0.001690	28.1254	0.033084	0.001918	17.2519	-27.6767	-165.305	-0.062462	0.842108	-0.148794	-0.150089	-0.015784	17.2519	-0.148108	-16.7263	0.000944	NaN
53	1.000000	0.851418	7.36557e+06	-41289.1	955.818	-29787.5	0.000000	0.000000	6.851097	-0.001207	NaN	0.000000	0.001606	0.001728	28.1259	0.085058	0.001917	44.3719	65.0404	-163.928	0.009316	0.850125	-0.140778	-0.142071	-0.001207	44.3719	-0.140758	-12.2233	9.872027E-5	NaN
53	1.000000	0.859409	7.36557e+06	-41289.1	955.819	-29787.5	0.000000	0.000000	6.859089	0.038677	NaN	0.000000	0.001619	0.001732	28.1255	0.027030	0.002007	13.4654	3.986853	-164.706	0.031018	0.858117	-0.132788	-0.134080	0.038677	13.4654	-0.134942	-9.488294	-0.004076	NaN
53	1.000000	0.867411	7.36557e+06	-41289.1	955.818	-29787.5	0.000000	0.000000	6.867089	-0.015916	NaN	0.000000	0.001627	0.001721	28.1254	0.096675	0.001930	50.0932	143.432	-166.901	-0.011772	0.866157	-0.124786	-0.126039	-0.015916	50.0932	-0.124548	-5.957133	0.002672	NaN
53	1.000000	0.875403	7.36557e+06	-41289.1	955.818	-29787.4	0.000000	0.000000	6.875086	0.095413	NaN	0.000000	0.001579	0.001669	28.1269	0.040340	0.001984	20.3318	17.1992	-162.613	-0.017324	0.874056	-0.116794	-0.118141	0.095413	20.3318	-0.120313	-4.902339	-0.019463	NaN
53	1.000000	0.883411	7.36557e+06	-41289.1	955.818	-29787.4	0.000000	0.000000	6.883090	-0.001145	NaN	0.000000	0.001571	0.001719	28.1269	0.107177	0.001920	55.8242	-21.9157	-162.779	0.009823	0.882121	-0.108786	-0.110075	-0.001145	55.8242	-0.108770	-2.830550	0.000405	NaN
53	1.000000	0.891431	7.36557e+06	-41289.1	955.818	-29787.5	0.000000	0.000000	6.891107	-0.081562	NaN	0.000000	0.001533	0.001727	28.1269	0.062697	0.002017	31.0807	-84.2527	-166.026	-0.097858	0.890079	-0.100766	-0.102118	-0.081562	31.0807	-0.098797	-1.718024	0.047474	NaN
53	1.000000	0.899461	7.36557e+06	-41289.1	955.819	-29787.4	0.000000	0.000000	6.899142	0.047775	NaN	0.000000	0.001561	0.001710	28.1266	0.019070	0.001953	9.764675	179.612	-166.413	0.067038	0.898101	-0.092736	-0.094096	0.047775	9.764675	-0.096406	-1.518147	-0.031469	NaN
53	1.000000	0.907424	7.36557e+06	-41289.1	955.818	-29787.5	0.000000	0.000000	6.907104	0.020607	NaN	0.000000	0.001562	0.001753	28.1264	0.092834	0.002032	45.6934	-36.5572	-164.84	0.017173	0.906087	-0.084772	-0.086109	0.020607	45.6934	-0.085111	-0.826710	-0.024926	NaN
53	1.000000	0.915431	7.36557e+06	-41289.1	955.817	-29787.5	0.000000	0.000000	6.915108	-0.041710	NaN	0.000000	0.001557	0.001723	28.1255	0.086270	0.001968	43.8347	-87.325	-165.495	-0.060831	0.914113	-0.076766	-0.078084	-0.041710	43.8347	-0.076052	-0.491641	0.084838	NaN
53	1.000000	0.923444	7.36557e+06	-41289.1	955.819	-29787.4	0.000000	0.000000	6.923124	0.029611	NaN	0.000000	0.001550	0.001692	28.1253	0.063145	0.001972	32.0248	-148.773	-163.717	0.016361	0.922117	-0.068752	-0.070080	0.029611	32.0248	-0.069446	-0.329625	-0.089832	NaN
53	1.000000	0.931427	7.36557e+06	-41289.1	955.818	-29787.4	0.000000	0.000000	6.931108	0.047331	NaN	0.000000	0.001545	0.001697	28.1255	0.039500	0.001967	20.078	-160.305	-162.504	-0.109951	0.930176	-0.060770	-0.062020	0.047331	20.078	-0.062538	-0.212667	-0.222557	NaN
53	1.000000	0.939444	7.36557e+06	-41289.1	955.819	-29787.4	0.000000	0.000000	6.939124	0.024173	NaN	0.000000	0.001558	0.001694	28.1255	0.022851	0.001975	11.5727	-158.743	-167.657	0.024723	0.938151	-0.052752	-0.054045	0.024173	11.5727	-0.054319	-0.122936	-0.196634	NaN
53	1.000000	0.947425	7.36557e+06	-41289.1	955.819	-29787.4	0.000000	0.000000	6.947103	-0.020215	NaN	0.000000	0.001563	0.001707	28.1251	0.014363	0.001884	7.625487	-27.3858	-164.57	0.014882	0.946160	-0.044772	-0.046036	-0.020215	7.625487	-0.042784	-0.054981	0.367676	NaN
53	1.000000	0.955467	7.36557e+06	-41289.1	955.818	-29787.5	0.000000	0.000000	6.955147	0.024289	NaN	0.000000	0.001584	0.001727	28.1285	0.092228	0.002088	44.1607	-32.7718	-163.045	0.028651	0.954155	-0.036730	-0.038041	0.024289	44.1607	-0.037142	-0.037078	-0.655088	NaN
53	1.000000	0.963464	7.36557e+06	-41289.1	955.819	-29787.4	0.000000	0.000000	6.963143	0.007557	NaN	0.000000	0.001569	0.001749	28.1276	0.072158	0.001868	38.6199	71.5463	-168.406	-0.016585	0.962103	-0.028733	-0.030093	0.007557	38.6199	-0.028880	-0.021428	-0.352682	NaN
53	1.000000	0.971447	7.36557e+06	-41289.1	955.817	-29787.4	0.000000	0.000000	6.971125	-0.028648	NaN	0.000000	0.001561	0.001723	28.1279	0.060597	0.001900	31.8925	-63.7704	-164.156	-0.012990	0.970119	-0.020749	-0.022078	-0.028648	31.8925	-0.020076	-0.012617	2.270640	NaN
53	1.000000	0.979446	7.36557e+06	-41289.1	955.818	-29787.4	0.000000	0.000000	6.979125	-0.006435	NaN	0.000000	0.001606	0.001723	28.1277	0.115622	0.002096	55.1616	-128.56	-166.385	-0.029434	0.978155	-0.012751	-0.014041	-0.006435	55.1616	-0.012663	-0.007908	0.813750	NaN
53	1.000000	0.987478	7.36557e+06	-41289.1	955.819	-29787.5	0.000000	0.000000	6.987161	0.085274	NaN	0.000000	0.001551	0.001709	28.1275	0.046882	0.002169	21.6154	151.484	-166.418	0.071037	0.986107	-0.004718	-0.006089	0.085274	21.6154	-0.007677	-0.005042	-16.913	NaN
53	1.000000	0.995468	7.36557e+06	-41289.1	955.819	-29787.5	0.000000	0.000000	6.995221	1.814534	NaN	0.000000	0.001585	0.001739	28.1265	2.440722	0.001694	1440.83	5.539424	-167.05	0.987611	0.994121	0.003271	0.001924	1.814534	1440.83	0.002326	0.001821	996.682	30851.8
53	2.000000	1.002051	7.36557e+06	-41289.1	955.818	-29787.4	0.000000	0.000000	7.002064	8.108459	NaN	0.000000	0.001557	0.001693	28.1263	8.308102	0.001636	5077.51	6.732288	-170.194	8.058973	1.001684	0.009855	0.009488	8.108459	5077.51	0.008657	0.007727	1049.39	52774.4
53	2.000000	1.004051	7.36557e+06	-41289.1	955.818	-29787.4	0.000000	0.000000	7.004216	11.84	NaN	0.000000	0.001575	0.001687	28.1262	10.377	0.001652	6283.15	4.572729	-170.099	11.3539	1.003700	0.011854	0.011503	11.84	6283.15	0.010441	0.009675	1223.74	58360.5
53	2.000000	1.005977	7.36557e+06	-41289.1	955.819	-29787.4	0.000000	0.000000	7.006214	13.5668	NaN	0.000000	0.001620	0.001690	28.1268	12.4155	0.001728	7184.15	6.070668	-172.982	12.3957	1.005725	0.013780	0.013528	13.5668	7184.15	0.012364	0.011929	1137.28	60095.6
53	2.000000	1.008035	7.36557e+06	-41289.1	955.819	-29787.4	0.000000	0.000000	7.008417	17.1125	NaN	0.000000	0.001555	0.001701	28.1261	14.4643	0.001700	8510.82	5.582939	-172.4	16.6224	1.007695	0.015838	0.015498	17.1125	8510.82	0.014330	0.014403	1188.15	64792.3
53	2.000000	1.010007	7.36557e+06	-41289.1	955.82	-29787.4	0.000000	0.000000	7.010514	20.1401	NaN	0.000000	0.001578	0.001676	28.1283	16.1187	0.001764	9137.12	3.293702	-171.1	20.0045	1.009700	0.017810	0.017504	20.1401	9137.12	0.016157	0.016859	1194.59	64292.6
53	2.000000	1.011968	7.36557e+06	-41289.1	955.819	-29787.4	0.000000	0.000000	7.012623	23.7624	NaN	0.000000	0.001578	0.001713	28.1273	18.6815	0.001833	10191.9	4.057141	-173.95	22.6927	1.011698	0.019771	0.019501	23.7624	10191.9	0.018022	0.019529	1216.76	66632.1
53	2.000000	1.013937	7.36557e+06	-41289.1	955.819	-29787.4	0.000000	0.000000	7.014710	26.6265	NaN	0.000000	0.001558	0.001728	28.1273	20.0061	0.001773	11285.7	1.766596	-171.507	25.0449	1.013659	0.021740	0.021462	26.6265	11285.7	0.019971	0.022497	1183.58	68745.6
53	2.000000	1.015977	7.36557e+06	-41289.1	955.818	-29787.5	0.000000	0.000000	7.016988	32.4313	NaN	0.000000	0.001585	0.001691	28.1277	22.5806	0.001799	12551.2	4.481088	-175.698	32.0676	1.015634	0.023780	0.023437	32.4313	12551.2	0.021842	0.025520	1270.84	71782.8
53	2.000000	1.017989	7.36557e+06	-41289.1	955.819	-29787.4	0.000000	0.000000	7.019201	37.2911	NaN	0.000000	0.001565	0.001752	28.1272	25.2066	0.001806	13954.1	8.403085	-179.859	37.6482	1.017649	0.025793	0.025453	37.2911	13954.1	0.023788	0.028848	1292.67	75061.2
53	2.000000	1.019945	7.36557e+06	-41289.1	955.82	-29787.4	0.000000	0.000000	7.021386	42.8849	NaN	0.000000	0.001629	0.001699	28.1265	26.8462	0.001865	14397	2.919081	-174.643	41.5718	1.019608	0.027748	0.027411	42.8849	14397	0.025514	0.031958	1341.92	73579.4
53	2.000000	1.021930	7.36557e+06	-41289.1	955.82	-29787.5	0.000000	0.000000	7.023570	47.7259	NaN	0.000000	0.001566	0.001701	28.1261	30.272	0.001903	15910.5	6.273550	-179.695	45.9431	1.021676	0.029733	0.029480	47.7259	15910.5	0.027484	0.035689	1337.26	76946
53	2.000000	1.023951	7.36557e+06	-41289.1	955.82	-29787.4	0.000000	0.000000	7.025934	56.0401	NaN	0.000000	0.001597	0.001745	28.1247	30.3114	0.001818	16672.6	2.359319	-176.104	53.9854	1.023660	0.031755	0.031463	56.0401	16672.6	0.029234	0.039171	1430.66	76965.3
53	2.000000	1.025928	7.36557e+06	-41289.1	955.819	-29787.4	0.000000	0.000000	7.028217	63.5162	NaN	0.000000	0.001559	0.001762	28.1249	32.674	0.001828	17873	2.186493	-176.619	61.4844	1.025570	0.033731	0.033374	63.5162	17873	0.031066	0.042982	1477.75	78764.2
53	2.000000	1.027932	7.36557e+06	-41289.1	955.82	-29787.5	0.000000	0.000000	7.030489	70.0249	NaN	0.000000	0.001591	0.001717	28.1246	34.3065	0.001793	19136.8	2.908495	-177.786	67.7271	1.027623	0.035735	0.035426	70.0249	19136.8	0.032991	0.047172	1484.47	80501
53	2.000000	1.029995	7.36557e+06	-41289.1	955.82	-29787.4	0.000000	0.000000	7.032740	74.6014	NaN	0.000000	0.001587	0.001753	28.1261	36.6819	0.001865	19663.4	10.0392	175.62	75.3306	1.029576	0.037798	0.037379	74.6014	19663.4	0.034953	0.051636	1444.75	79059.9
53	2.000000	1.031966	7.36557e+06	-41289.1	955.82	-29787.5	0.000000	0.000000	7.035009	81.8612	NaN	0.000000	0.001609	0.001726	28.1261	38.0783	0.001820	20922.5	4.487101	179.818	81.4271	1.031620	0.039769	0.039423	81.8612	20922.5	0.036835	0.056105	1459.07	80702.3
53	2.000000	1.033931	7.36557e+06	-41289.1	955.818	-29787.4	0.000000	0.000000	7.037337	90.6764	NaN	0.000000	0.001626	0.001749	28.1257	38.9003	0.001752	22202.1	2.252728	-177.757	90.2591	1.033623	0.041734	0.041426	90.6764	22202.1	0.038671	0.060640	1495.33	82373.5
53	2.000000	1.035899	7.36557e+06	-41289.1	955.819	-29787.4	0.000000	0.000000	7.039686	99.9429	NaN	0.000000	0.001567	0.001751	28.126	41.2691	0.001822	22645.5	5.311410	178.847	97.5958	1.035557	0.043703	0.043361	99.9429	22645.5	0.040393	0.065047	1536.47	81122.7
53	2.000000	1.037926	7.36557e+06	-41289.1	955.82	-29787.4	0.000000	0.000000	7.042073	108.729	NaN	0.000000	0.001577	0.001746	28.1261	43.5643	0.001821	23922.2	5.350164	178.257	106.664	1.037573	0.045729	0.045376	108.729	23922.2	0.042320	0.070163	1549.67	82512.6
53	2.000000	1.039929	7.36557e+06	-41289.1	955.82	-29787.4	0.000000	0.000000	7.044360	115.638	NaN	0.000000	0.001610	0.001748	28.1252	44.5678	0.001713	26010.7	4.011986	177.983	116.589	1.039562	0.047732	0.047366	115.638	26010.7	0.044398	0.075887	1523.81	86266.2
53	2.000000	1.041957	7.36557e+06	-41289.1	955.82	-29787.5	0.000000	0.000000	7.046828	126.326	NaN	0.000000	0.001572	0.001704	28.1246	46.8496	0.001822	25716	-0.103415	-177.118	127.821	1.041591	0.049761	0.049394	126.326	25716	0.046077	0.080673	1565.9	82720.4
53	2.000000	1.043888	7.36557e+06	-41289.1	955.82	-29787.4	0.000000	0.000000	7.049041	133.195	NaN	0.000000	0.001574	0.001688	28.1245	47.5075	0.001613	29453.1	1.922426	178.951	130.519	1.043676	0.051691	0.051479	133.195	29453.1	0.048299	0.087229	1526.97	91111.9
53	2.000000	1.045941	7.36557e+06	-41289.1	955.82	-29787.4	0.000000	0.000000	7.051296	138.097	NaN	0.000000	0.001584	0.001720	28.1244	51.2734	0.001744	29394.4	7.148161	173.443	138.196	1.045608	0.053745	0.053411	138.097	29394.4	0.050221	0.093098	1483.36	88017.2
53	2.000000	1.047832	7.36557e+06	-41289.1	955.82	-29787.4	0.000000	0.000000	7.053770	152.29	NaN	0.000000	0.001586	0.001756	28.1245	52.3298	0.001741	30064.7	6.750423	174.991	147.482	1.047573	0.055636	0.055376	152.29	30064.7	0.051837	0.098174	1551.22	87666
53	2.000000	1.049901	7.36557e+06	-41289.1	955.819	-29787.4	0.000000	0.000000	7.056088	158.355	NaN	0.000000	0.001601	0.001759	28.126	54.3974	0.001751	31061.6	4.422496	176.316	157.772	1.049601	0.057704	0.057404	158.355	31061.6	0.053880	0.104783	1511.25	87669.8
53	2.000000	1.051908	7.36557e+06	-41289.1	955.82	-29787.4	0.000000	0.000000	7.058681	172.605	NaN	0.000000	0.001570	0.001750	28.1262	58.29	0.001906	30589.7	8.891386	172.091	172.205	1.051643	0.059711	0.059446	172.605	30589.7	0.055479	0.110099	1567.73	84228
53	2.000000	1.053894	7.36557e+06	-41289.1	955.819	-29787.4	0.000000	0.000000	7.061019	181.168	NaN	0.000000	0.001581	0.001741	28.1263	57.936	0.001826	31735.4	3.192918	177.778	181.937	1.053591	0.061698	0.061394	181.168	31735.4	0.057416	0.116706	1552.34	84873.1
53	2.000000	1.055874	7.36557e+06	-41289.1	955.819	-29787.4	0.000000	0.000000	7.063507	193.529	NaN	0.000000	0.001596	0.001702	28.1253	60.9738	0.001851	32945.8	4.952773	175.659	192.54	1.055500	0.063677	0.063304	193.529	32945.8	0.059272	0.123210	1570.73	85753.4
53	2.000000	1.057848	7.36557e+06	-41289.1	955.818	-29787.4	0.000000	0.000000	7.065843	202.365	NaN	0.000000	0.001608	0.001694	28.1267	63.3465	0.001858	34095.9	6.546435	173.603	197.935	1.057628	0.065651	0.065432	202.365	34095.9	0.061200	0.130145	1554.92	86349.8
53	2.000000	1.059916	7.36557e+06	-41289.1	955.819	-29787.4	0.000000	0.000000	7.068463	215.795	NaN	0.000000	0.001607	0.001699	28.1254	64.4318	0.001895	33995.5	5.664073	175.153	215.412	1.059595	0.067719	0.067398	215.795	33995.5	0.062958	0.136630	1579.41	84027.7
53	2.000000	1.061839	7.36557e+06	-41289.1	955.819	-29787.4	0.000000	0.000000	7.070735	224.27	NaN	0.000000	0.001569	0.001666	28.126	65.4246	0.001945	33638	1.368964	178.254	221.239	1.061560	0.069643	0.069363	224.27	33638	0.064642	0.142979	1568.55	81276.7
53	2.000000	1.063878	7.36557e+06	-41289.1	955.819	-29787.4	0.000000	0.000000	7.073462	241.032	NaN	0.000000	0.001569	0.001727	28.1256	66.0151	0.001769	37327.9	4.824510	174.843	239.119	1.063567	0.071681	0.071370	241.032	37327.9	0.066838	0.151464	1591.35	87629.8
53	2.000000	1.065876	7.36557e+06	-41289.1	955.82	-29787.4	0.000000	0.000000	7.075809	249.519	NaN	0.000000	0.001580	0.001714	28.1254	69.0538	0.001888	36575.2	4.031003	175.376	248.442	1.065625	0.073679	0.073429	249.519	36575.2	0.068563	0.158290	1576.34	83991.1
53	2.000000	1.067890	7.36557e+06	-41289.1	955.818	-29787.4	0.000000	0.000000	7.078472	265.298	NaN	0.000000	0.001574	0.001710	28.1259	70.2246	0.001731	40560	2.884370	176.176	262.641	1.067522	0.075693	0.075325	265.298	40560	0.070788	0.167308	1585.69	90596.9
53	2.000000	1.069860	7.36557e+06	-41289.1	955.82	-29787.4	0.000000	0.000000	7.080920	276.938	NaN	0.000000	0.001541	0.001674	28.1264	70.746	0.001729	40907.4	4.932783	173.473	275.439	1.069614	0.077663	0.077417	276.938	40907.4	0.072586	0.174766	1584.63	89401.9
53	2.000000	1.071827	7.36557e+06	-41289.1	955.819	-29787.4	0.000000	0.000000	7.083310	287.219	NaN	0.000000	0.001510	0.001684	28.1263	74.2396	0.001788	41531.7	5.051542	174.003	283.796	1.071561	0.079630	0.079365	287.219	41531.7	0.074444	0.182633	1572.66	88790
53	2.000000	1.073872	7.36557e+06	-41289.1	955.819	-29787.4	0.000000	0.000000	7.086041	303.911	NaN	0.000000	0.001530	0.001695	28.1266	75.114	0.001787	42033.3	5.989748	173.145	301.685	1.073439	0.081676	0.081243	303.911	42033.3	0.076253	0.190450	1595.75	87998.6
53	2.000000	1.075916	7.36557e+06	-41289.1	955.82	-29787.4	0.000000	0.000000	7.088258	308.118	NaN	0.000000	0.001563	0.001713	28.1262	77.5603	0.001769	43850.4	5.271677	172.943	308.795	1.075690	0.083719	0.083494	308.118	43850.4	0.078449	0.200147	1539.46	89551.5
53	2.000000	1.077926	7.36557e+06	-41289.1	955.82	-29787.4	0.000000	0.000000	7.091180	330.325	NaN	0.000000	0.001565	0.001709	28.1267	78.7964	0.001768	44577.8	4.455531	174.45	329.209	1.077453	0.085729	0.085256	330.325	44577.8	0.080171	0.207907	1588.81	89321.8
53	2.000000	1.079831	7.36557e+06	-41289.1	955.82	-29787.4	0.000000	0.000000	7.093784	347.326	NaN	0.000000	0.001563	0.001689	28.1251	80.4562	0.001821	44172.8	3.960970	174.801	346.213	1.079515	0.087634	0.087319	347.326	44172.8	0.081737	0.215082	1614.86	87021.4
53	2.000000	1.081766	7.36557e+06	-41289.1	955.821	-29787.4	0.000000	0.000000	7.096238	359.944	NaN	0.000000	0.001635	0.001688	28.1255	82.8501	0.001759	47091.7	5.753215	171.673	354.287	1.081555	0.089570	0.089358	359.944	47091.7	0.083837	0.224885	1600.57	90727
53	2.000000	1.083793	7.36557e+06	-41289.1	955.819	-29787.4	0.000000	0.000000	7.098940	376.376	NaN	0.000000	0.001610	0.001694	28.1252	83.3239	0.001811	46020.3	4.576090	173.568	372.821	1.083465	0.091596	0.091268	376.376	46020.3	0.085462	0.232612	1618.05	87178
53	2.000000	1.085826	7.36557e+06	-41289.1	955.818	-29787.4	0.000000	0.000000	7.101580	391.15	NaN	0.000000	0.001581	0.001687	28.1255	87.0996	0.001880	46320.7	9.256006	168.208	386.795	1.085439	0.093629	0.093243	391.15	46320.7	0.087296	0.241474	1619.84	86121.9
53	2.000000	1.087871	7.36557e+06	-41289.1	955.82	-29787.4	0.000000	0.000000	7.103853	396.69	NaN	0.000000	0.001621	0.001704	28.1251	88.019	0.001861	47292.9	3.523313	174.303	396.578	1.087610	0.095674	0.095414	396.69	47292.9	0.089384	0.251755	1575.7	86115.3
53	2.000000	1.089858	7.36557e+06	-41289.1	955.82	-29787.4	0.000000	0.000000	7.106767	419.243	NaN	0.000000	0.001638	0.001671	28.1262	89.0901	0.001760	50616.7	5.057448	172.078	416.922	1.089378	0.097662	0.097182	419.243	50616.7	0.091450	0.262126	1599.4	90325.8
53	2.000000	1.091897	7.36557e+06	-41289.1	955.819	-29787.5	0.000000	0.000000	7.109224	429.426	NaN	0.000000	0.001687	0.001680	28.1253	91.9859	0.001802	51050.7	5.981144	170.83	432.432	1.091665	0.099700	0.099468	429.426	51050.7	0.093391	0.272050	1578.48	89423.3
53	2.000000	1.093872	7.36557e+06	-41289.1	955.821	-29787.4	0.000000	0.000000	7.112160	452.806	NaN	0.000000	0.001639	0.001694	28.1252	91.369	0.001745	52369.7	5.163630	172.488	453.59	1.093559	0.101675	0.101362	452.806	52369.7	0.095190	0.281400	1609.12	90196.8
53	2.000000	1.095871	7.36557e+06	-41289.1	955.821	-29787.4	0.000000	0.000000	7.114758	467.383	NaN	0.000000	0.001590	0.001735	28.125	94.8542	0.001779	53328.6	5.886802	172.11	467.112	1.095363	0.103674	0.103166	467.383	53328.6	0.097101	0.291491	1603.42	90244.5
53	2.000000	1.097835	7.36557e+06	-41289.1	955.819	-29787.4	0.000000	0.000000	7.117320	481.915	NaN	0.000000	0.001593	0.001715	28.125	97.481	0.001829	53311.9	9.039129	168.734	478.953	1.097435	0.105639	0.105239	481.915	53311.9	0.098859	0.300923	1601.46	88791.2
53	2.000000	1.099830	7.36557e+06	-41289.1	955.82	-29787.4	0.000000	0.000000	7.119844	494.806	NaN	0.000000	0.001613	0.001713	28.1236	99.049	0.001862	53182.5	6.372166	170.203	494.501	1.099525	0.107633	0.107329	494.806	53182.5	0.100655	0.310704	1592.53	87170.4