File: remote_trans/data/nanoindenter/0828-1/data/Data_2025-08-06,11h17m57s/2025-07-22_16-23-58_1_5.txt
2025-07-22, 16:23:58, 1
Index	Phase	Displacement	Time	Pos X	Pos Y	Pos Z	Rot A	Rot B	Piezo Z	Force A	Force B	Gripper	Voltage A	Voltage B	Temperature	Amplitude force	Amplitude pos	Stiffness	Phase shift	Phase excitation	Force A raw	Displacement raw	HMax	HMax raw	Real Force	Real Stiffness	Contact Depth	Area	Hardness	Reduced Mod.
[#]	[#]	[um]	[s]	[um]	[um]	[um]	[m°]	[m°]	[um]	[uN]	[uN]	[V]	[V]	[V]	[°C]	[uN]	[um]	[N/m]	[°]	[°]	[uN]	[um]	[um]	[um]	[uN]	[N/m]	[um]	[um^2]	[MPa]	[MPa]
5.000000	1.000000	0.002684	7.36509e+06	-38889.1	955.818	-29796.6	0.000000	0.000000	6.002851	-0.063822	NaN	0.000000	0.001631	0.001729	28.1063	0.089482	0.001008	88.8155	6.845851	-166.989	-0.044283	0.001441	-1.050221	-1.051464	-0.063822	88.8155	-1.049682	-1.057170E+14	6.037015E-16	NaN
5.000000	1.000000	0.010618	7.36509e+06	-38889.1	955.819	-29796.6	0.000000	0.000000	6.010787	-0.019741	NaN	0.000000	0.001618	0.001731	28.1061	0.061590	0.001033	59.6336	76.3526	-161.654	-0.061096	0.009305	-1.042287	-1.043600	-0.019741	59.6336	-1.042039	-8.344115E+13	2.365862E-16	NaN
5.000000	1.000000	0.018611	7.36509e+06	-38889.1	955.819	-29796.6	0.000000	0.000000	6.018777	-0.100471	NaN	0.000000	0.001625	0.001720	28.1051	0.035539	0.001785	19.9084	100.619	-166.844	-0.137106	0.017277	-1.034294	-1.035628	-0.100471	19.9084	-1.030509	-5.838825E+13	1.720744E-15	NaN
5.000000	1.000000	0.026630	7.36509e+06	-38889.1	955.82	-29796.6	0.000000	0.000000	6.026796	-0.098684	NaN	0.000000	0.001592	0.001717	28.1057	0.064226	0.001809	35.5052	-159.455	-159.425	-0.149395	0.025294	-1.026275	-1.027611	-0.098684	35.5052	-1.024190	-4.800961E+13	2.055508E-15	NaN
5.000000	1.000000	0.034616	7.36509e+06	-38889.1	955.818	-29796.6	0.000000	0.000000	6.034780	-0.141263	NaN	0.000000	0.001596	0.001688	28.1061	0.043885	0.001938	22.6469	-131.897	-164.553	-0.134875	0.033335	-1.018288	-1.019570	-0.141263	22.6469	-1.013610	-3.459150E+13	4.083755E-15	NaN
5.000000	1.000000	0.042627	7.36509e+06	-38889.1	955.819	-29796.6	0.000000	0.000000	6.042793	-0.084503	NaN	0.000000	0.001596	0.001693	28.1067	0.103539	0.002030	51.0117	101.94	-165.675	-0.025401	0.041264	-1.010278	-1.011641	-0.084503	51.0117	-1.009035	-3.001905E+13	2.814995E-15	NaN
5.000000	1.000000	0.050598	7.36509e+06	-38889.1	955.818	-29796.6	0.000000	0.000000	6.050770	0.046060	NaN	0.000000	0.001608	0.001670	28.1081	0.127858	0.001942	65.8242	122.421	-164.548	0.039650	0.049294	-1.002307	-1.003611	0.046060	65.8242	-1.002832	-2.476809E+13	-1.859633E-15	NaN
5.000000	1.000000	0.058576	7.36509e+06	-38889.1	955.819	-29796.6	0.000000	0.000000	6.058743	-0.061205	NaN	0.000000	0.001563	0.001670	28.1069	0.029528	0.001856	15.9086	68.3105	-163.121	-0.076007	0.057325	-0.994329	-0.995580	-0.061205	15.9086	-0.991443	-1.740004E+13	3.517504E-15	NaN
5.000000	1.000000	0.066606	7.36509e+06	-38889.1	955.819	-29796.6	0.000000	0.000000	6.066777	0.016445	NaN	0.000000	0.001588	0.001696	28.1068	0.123182	0.001866	66.0163	80.4814	-166.701	-0.041615	0.065305	-0.986299	-0.987600	0.016445	66.0163	-0.986485	-1.492021E+13	-1.102184E-15	NaN
5.000000	1.000000	0.074589	7.36509e+06	-38889.1	955.819	-29796.6	0.000000	0.000000	6.074755	-0.087750	NaN	0.000000	0.001625	0.001719	28.1071	0.018938	0.002070	9.149012	162.752	-166.911	-0.104477	0.073270	-0.978316	-0.979635	-0.087750	9.149012	-0.971122	-9.263797E+12	9.472356E-15	NaN
5.000000	1.000000	0.082630	7.36509e+06	-38889.1	955.819	-29796.6	0.000000	0.000000	6.082796	-0.082961	NaN	0.000000	0.001614	0.001699	28.1054	0.074351	0.002058	36.1309	-150.456	-163.589	-0.084349	0.081307	-0.970275	-0.971598	-0.082961	36.1309	-0.968553	-8.553852E+12	9.698626E-15	NaN
5.000000	1.000000	0.090593	7.36509e+06	-38889.1	955.818	-29796.6	0.000000	0.000000	6.090765	0.038774	NaN	0.000000	0.001604	0.001694	28.1057	0.046805	0.002003	23.3661	122.309	-162.243	-0.025710	0.089305	-0.962311	-0.963599	0.038774	23.3661	-0.963556	-7.324990E+12	-5.293439E-15	NaN
5.000000	1.000000	0.098636	7.36509e+06	-38889.1	955.82	-29796.6	0.000000	0.000000	6.098803	-0.068872	NaN	0.000000	0.001690	0.001675	28.106	0.034989	0.001904	18.373	168.86	-165.146	-0.075675	0.097295	-0.954269	-0.955609	-0.068872	18.373	-0.951458	-5.031383E+12	1.368853E-14	NaN
5.000000	1.000000	0.106659	7.36509e+06	-38889.1	955.82	-29796.6	0.000000	0.000000	6.106824	-0.106548	NaN	0.000000	0.001698	0.001679	28.1057	0.074118	0.001933	38.3428	-168.823	-164.739	-0.061590	0.105368	-0.946246	-0.947537	-0.106548	38.3428	-0.944162	-4.011311E+12	2.656194E-14	NaN
5.000000	1.000000	0.114589	7.36509e+06	-38889.1	955.819	-29796.6	0.000000	0.000000	6.114753	-0.132848	NaN	0.000000	0.001658	0.001678	28.1047	0.094729	0.001986	47.6965	118.848	-161.043	-0.128946	0.113251	-0.938316	-0.939654	-0.132848	47.6965	-0.936227	-3.134925E+12	4.237683E-14	NaN
5.000000	1.000000	0.122621	7.36509e+06	-38889.1	955.819	-29796.6	0.000000	0.000000	6.122790	-0.031790	NaN	0.000000	0.001706	0.001673	28.1058	0.103945	0.001955	53.1626	166.517	-166.352	0.057574	0.121271	-0.930284	-0.931634	-0.031790	53.1626	-0.929835	-2.570225E+12	1.236869E-14	NaN
5.000000	1.000000	0.130629	7.36509e+06	-38889.1	955.819	-29796.6	0.000000	0.000000	6.130797	-0.048697	NaN	0.000000	0.001704	0.001647	28.1062	0.109402	0.002044	53.5258	-70.1201	-163.689	0.037109	0.129302	-0.922276	-0.923603	-0.048697	53.5258	-0.921594	-1.989402E+12	2.447843E-14	NaN
5.000000	1.000000	0.138620	7.36509e+06	-38889.1	955.819	-29796.6	0.000000	0.000000	6.138785	-0.106884	NaN	0.000000	0.001652	0.001646	28.106	0.061825	0.002031	30.4378	145.823	-163.916	-0.156228	0.137371	-0.914285	-0.915534	-0.106884	30.4378	-0.911652	-1.460398E+12	7.318814E-14	NaN
5.000000	1.000000	0.146667	7.36509e+06	-38889.1	955.819	-29796.6	0.000000	0.000000	6.146834	-0.067905	NaN	0.000000	0.001673	0.001666	28.1059	0.060497	0.001935	31.2655	-144.145	-164.25	-0.032397	0.145336	-0.906238	-0.907569	-0.067905	31.2655	-0.904609	-1.173104E+12	5.788452E-14	NaN
5.000000	1.000000	0.154647	7.36509e+06	-38889.1	955.819	-29796.6	0.000000	0.000000	6.154811	-0.146886	NaN	0.000000	0.001694	0.001666	28.1058	0.177403	0.002013	88.1229	92.2618	-165.739	-0.142747	0.153298	-0.898258	-0.899606	-0.146886	88.1229	-0.897008	-9.260428E+11	1.586163E-13	NaN
5.000000	1.000000	0.162639	7.36509e+06	-38889.1	955.818	-29796.6	0.000000	0.000000	6.162806	-0.056951	NaN	0.000000	0.001655	0.001636	28.1049	0.083795	0.001925	43.5255	178.22	-165.447	-0.092878	0.161304	-0.890266	-0.891601	-0.056951	43.5255	-0.889285	-7.281981E+11	7.820857E-14	NaN
5.000000	1.000000	0.170666	7.36509e+06	-38889.1	955.819	-29796.6	0.000000	0.000000	6.170836	-0.016008	NaN	0.000000	0.001660	0.001671	28.1056	0.057847	0.002087	27.7227	146.075	-162.06	-0.091617	0.169332	-0.882238	-0.883573	-0.016008	27.7227	-0.881805	-5.769275E+11	2.774681E-14	NaN
5.000000	1.000000	0.178658	7.36509e+06	-38889.1	955.818	-29796.6	0.000000	0.000000	6.178823	-0.115522	NaN	0.000000	0.001696	0.001678	28.1057	0.110160	0.002031	54.2285	-89.861	-164.069	0.042877	0.177360	-0.874247	-0.875545	-0.115522	54.2285	-0.872649	-4.337902E+11	2.663086E-13	NaN
5.000000	1.000000	0.186639	7.36509e+06	-38889.1	955.818	-29796.6	0.000000	0.000000	6.186808	-0.009602	NaN	0.000000	0.001633	0.001631	28.1054	0.055608	0.002053	27.0914	-12.2906	-168.518	-0.010715	0.185372	-0.866266	-0.867533	-0.009602	27.0914	-0.866000	-3.526328E+11	2.722933E-14	NaN
5.000000	1.000000	0.194650	7.36509e+06	-38889.1	955.819	-29796.6	0.000000	0.000000	6.194818	-0.035466	NaN	0.000000	0.001619	0.001663	28.1058	0.053181	0.002104	25.2737	-46.6307	-164.6	-0.062841	0.193393	-0.858255	-0.859512	-0.035466	25.2737	-0.857203	-2.680738E+11	1.322982E-13	NaN
5.000000	1.000000	0.202653	7.36509e+06	-38889.1	955.819	-29796.6	0.000000	0.000000	6.202821	-0.026608	NaN	0.000000	0.001623	0.001660	28.107	0.008297	0.002025	4.097919	-98.5034	-166.934	-0.035468	0.201349	-0.850252	-0.851556	-0.026608	4.097919	-0.845382	-1.854398E+11	1.434856E-13	NaN
5.000000	1.000000	0.210652	7.36509e+06	-38889.1	955.819	-29796.6	0.000000	0.000000	6.210817	-0.111818	NaN	0.000000	0.001670	0.001684	28.1069	0.089320	0.001985	45.0058	-86.8373	-165.677	-0.098516	0.209367	-0.842253	-0.843538	-0.111818	45.0058	-0.840389	-1.586970E+11	7.046036E-13	NaN
5.000000	1.000000	0.218678	7.36509e+06	-38889.1	955.819	-29796.6	0.000000	0.000000	6.218844	-0.088942	NaN	0.000000	0.001662	0.001662	28.1066	0.074067	0.001983	37.3519	127.252	-163.886	-0.086597	0.217331	-0.834227	-0.835573	-0.088942	37.3519	-0.832441	-1.238432E+11	7.181784E-13	NaN
5.000000	1.000000	0.226667	7.36509e+06	-38889.1	955.819	-29796.6	0.000000	0.000000	6.226834	-0.045850	NaN	0.000000	0.001628	0.001646	28.1057	0.069840	0.001858	37.5839	47.0107	-166.319	0.024933	0.225400	-0.826238	-0.827505	-0.045850	37.5839	-0.825323	-9.917229E+10	4.623279E-13	NaN
5.000000	1.000000	0.234668	7.36509e+06	-38889.1	955.819	-29796.6	0.000000	0.000000	6.234836	-0.041072	NaN	0.000000	0.001650	0.001658	28.107	0.071903	0.001945	36.972	64.4294	-163.906	-0.069634	0.233371	-0.818237	-0.819534	-0.041072	36.972	-0.817404	-7.744599E+10	5.303348E-13	NaN
5.000000	1.000000	0.242656	7.36509e+06	-38889.1	955.819	-29796.6	0.000000	0.000000	6.242822	-0.095357	NaN	0.000000	0.001684	0.001664	28.1064	0.030179	0.001979	15.246	68.5632	-162.3	0.013314	0.241299	-0.810249	-0.811606	-0.095357	15.246	-0.805558	-5.349277E+10	1.782618E-12	NaN
5.000000	1.000000	0.250675	7.36509e+06	-38889.1	955.819	-29796.6	0.000000	0.000000	6.250844	-0.023656	NaN	0.000000	0.001670	0.001665	28.1071	0.015104	0.002016	7.492570	-32.9998	-163.367	0.006106	0.249345	-0.802230	-0.803560	-0.023656	7.492570	-0.799862	-4.476986E+10	5.283965E-13	NaN
5.000000	1.000000	0.258632	7.36509e+06	-38889.1	955.818	-29796.6	0.000000	0.000000	6.258798	-0.098272	NaN	0.000000	0.001692	0.001607	28.107	0.021019	0.001982	10.603	102.558	-163.228	-0.023244	0.257350	-0.794273	-0.795555	-0.098272	10.603	-0.787322	-3.024851E+10	3.248809E-12	NaN
5.000000	1.000000	0.266671	7.36509e+06	-38889.1	955.819	-29796.6	0.000000	0.000000	6.266840	-0.014470	NaN	0.000000	0.001666	0.001684	28.1072	0.030720	0.002041	15.0492	-31.5748	-164.291	-0.037907	0.265326	-0.786234	-0.787579	-0.014470	15.0492	-0.785513	-2.858478E+10	5.062042E-13	NaN
5.000000	1.000000	0.274702	7.36509e+06	-38889.1	955.818	-29796.6	0.000000	0.000000	6.274870	-0.042866	NaN	0.000000	0.001669	0.001674	28.1074	0.008968	0.001989	4.508567	87.5332	-164.893	-0.082844	0.273390	-0.778203	-0.779515	-0.042866	4.508567	-0.771072	-1.819224E+10	2.356297E-12	NaN
5.000000	1.000000	0.282698	7.36509e+06	-38889.1	955.818	-29796.6	0.000000	0.000000	6.282866	-0.057854	NaN	0.000000	0.001715	0.001699	28.1079	0.086212	0.001986	43.4026	143.833	-166.972	-0.061329	0.281389	-0.770207	-0.771516	-0.057854	43.4026	-0.769207	-1.716021E+10	3.371405E-12	NaN
5.000000	1.000000	0.290711	7.36509e+06	-38889.1	955.819	-29796.6	0.000000	0.000000	6.290878	-0.077850	NaN	0.000000	0.001679	0.001692	28.1082	0.086876	0.002079	41.788	32.1592	-164.332	0.043579	0.289384	-0.762194	-0.763521	-0.077850	41.788	-0.760796	-1.318673E+10	5.903652E-12	NaN
5.000000	1.000000	0.298721	7.36509e+06	-38889.1	955.818	-29796.6	0.000000	0.000000	6.298888	-0.078630	NaN	0.000000	0.001721	0.001679	28.1093	0.048020	0.001996	24.0526	38.252	-164.907	-0.083482	0.297361	-0.754183	-0.755544	-0.078630	24.0526	-0.751732	-9.926365E+9	7.921312E-12	NaN
5.000000	1.000000	0.306711	7.36509e+06	-38889.1	955.818	-29796.6	0.000000	0.000000	6.306879	-0.029746	NaN	0.000000	0.001707	0.001729	28.1083	0.004622	0.002104	2.196934	82.6765	-163.717	-0.004300	0.305393	-0.746194	-0.747512	-0.029746	2.196934	-0.736039	-6.068759E+9	4.901484E-12	NaN
5.000000	1.000000	0.314735	7.36509e+06	-38889.1	955.818	-29796.6	0.000000	0.000000	6.314905	0.008493	NaN	0.000000	0.001728	0.001708	28.1085	0.022905	0.002049	11.1786	-55.7745	-163.527	-0.055040	0.313350	-0.738170	-0.739555	0.008493	11.1786	-0.738740	-6.605223E+9	-1.285858E-12	NaN
5.000000	1.000000	0.322694	7.36509e+06	-38889.1	955.819	-29796.6	0.000000	0.000000	6.322864	0.021393	NaN	0.000000	0.001695	0.001705	28.1078	0.058642	0.001977	29.6674	143.038	-165.423	0.032743	0.321439	-0.730211	-0.731465	0.021393	29.6674	-0.730752	-5.141088E+9	-4.161096E-12	NaN
5.000000	1.000000	0.330702	7.36509e+06	-38889.1	955.819	-29796.6	0.000000	0.000000	6.330870	-0.042844	NaN	0.000000	0.001695	0.001657	28.1076	0.007072	0.002034	3.475911	170.027	-166.453	-0.037187	0.329395	-0.722203	-0.723510	-0.042844	3.475911	-0.712959	-2.940498E+9	1.457030E-11	NaN
5.000000	1.000000	0.338711	7.36509e+06	-38889.1	955.819	-29796.6	0.000000	0.000000	6.338878	-0.066165	NaN	0.000000	0.001716	0.001646	28.1077	0.061459	0.002240	27.4427	27.3501	-163.953	-0.107373	0.337438	-0.714194	-0.715466	-0.066165	27.4427	-0.712386	-2.888060E+9	2.290969E-11	NaN
5.000000	1.000000	0.346710	7.36509e+06	-38889.1	955.818	-29796.6	0.000000	0.000000	6.346875	-0.094094	NaN	0.000000	0.001666	0.001698	28.1067	0.016027	0.001943	8.247478	155.075	-163.634	-0.045399	0.345396	-0.706195	-0.707509	-0.094094	8.247478	-0.697639	-1.816685E+9	5.179459E-11	NaN
5.000000	1.000000	0.354732	7.36509e+06	-38889.1	955.819	-29796.6	0.000000	0.000000	6.354897	-0.115058	NaN	0.000000	0.001666	0.001657	28.1071	0.021650	0.001894	11.4297	159.87	-161.317	-0.095721	0.353397	-0.698173	-0.699508	-0.115058	11.4297	-0.690623	-1.456906E+9	7.897424E-11	NaN
5.000000	1.000000	0.362718	7.36509e+06	-38889.1	955.818	-29796.6	0.000000	0.000000	6.362884	-0.087375	NaN	0.000000	0.001678	0.001714	28.1084	0.022360	0.002023	11.0512	68.8134	-167.037	-0.057445	0.361429	-0.690187	-0.691476	-0.087375	11.0512	-0.684257	-1.192386E+9	7.327749E-11	NaN
5.000000	1.000000	0.370710	7.36509e+06	-38889.1	955.819	-29796.6	0.000000	0.000000	6.370879	-0.024064	NaN	0.000000	0.001627	0.001719	28.1076	0.023831	0.001867	12.763	174.185	-163.601	-0.092496	0.369408	-0.682195	-0.683497	-0.024064	12.763	-0.680781	-1.068767E+9	2.251524E-11	NaN
5.000000	1.000000	0.378745	7.36509e+06	-38889.1	955.819	-29796.6	0.000000	0.000000	6.378912	-0.066733	NaN	0.000000	0.001632	0.001731	28.1085	0.018429	0.002087	8.828566	61.2059	-167.436	-0.130073	0.377481	-0.674160	-0.675424	-0.066733	8.828566	-0.668491	-7.256552E+8	9.196222E-11	NaN
5.000000	1.000000	0.386731	7.36509e+06	-38889.1	955.819	-29796.6	0.000000	0.000000	6.386897	-0.100946	NaN	0.000000	0.001633	0.001738	28.1095	0.058764	0.001862	31.5621	-88.7132	-163.797	-0.047129	0.385431	-0.666174	-0.667473	-0.100946	31.5621	-0.663775	-6.254123E+8	1.614065E-10	NaN
5.000000	1.000000	0.394787	7.36509e+06	-38889.1	955.819	-29796.6	0.000000	0.000000	6.394954	-0.070311	NaN	0.000000	0.001639	0.001702	28.1077	0.052597	0.001891	27.8094	75.6274	-164.605	0.009082	0.393442	-0.658117	-0.659462	-0.070311	27.8094	-0.656221	-4.928338E+8	1.426672E-10	NaN
5.000000	1.000000	0.402731	7.36509e+06	-38889.1	955.819	-29796.6	0.000000	0.000000	6.402899	-0.032191	NaN	0.000000	0.001625	0.001668	28.1084	0.069119	0.001984	34.8443	3.851881	-166.059	-0.051638	0.401422	-0.650174	-0.651483	-0.032191	34.8443	-0.649481	-3.984013E+8	8.080133E-11	NaN
5.000000	1.000000	0.410758	7.36509e+06	-38889.1	955.818	-29796.6	0.000000	0.000000	6.410924	-0.083250	NaN	0.000000	0.001595	0.001692	28.1075	0.026986	0.001841	14.6592	178.711	-165.805	-0.113639	0.409416	-0.642147	-0.643489	-0.083250	14.6592	-0.637887	-2.762496E+8	3.013562E-10	NaN
5.000000	1.000000	0.418741	7.36509e+06	-38889.1	955.819	-29796.6	0.000000	0.000000	6.418908	-0.075082	NaN	0.000000	0.001621	0.001713	28.1073	0.041920	0.002099	19.9729	127.343	-161.737	-0.064550	0.417396	-0.634164	-0.635509	-0.075082	19.9729	-0.631344	-2.246392E+8	3.342336E-10	NaN
5.000000	1.000000	0.426744	7.36509e+06	-38889.1	955.818	-29796.6	0.000000	0.000000	6.426912	-0.051230	NaN	0.000000	0.001663	0.001671	28.1074	0.158151	0.002038	77.5849	-83.1219	-165.131	-0.075559	0.425412	-0.626161	-0.627493	-0.051230	77.5849	-0.625665	-1.877099E+8	2.729223E-10	NaN
5.000000	1.000000	0.434774	7.36509e+06	-38889.1	955.818	-29796.6	0.000000	0.000000	6.434939	-0.123748	NaN	0.000000	0.001637	0.001673	28.1077	0.098736	0.002033	48.5745	-8.064817	-163.885	0.001417	0.433492	-0.618130	-0.619413	-0.123748	48.5745	-0.616220	-1.392079E+8	8.889467E-10	NaN
5.000000	1.000000	0.442759	7.36509e+06	-38889.1	955.818	-29796.6	0.000000	0.000000	6.442926	-0.066208	NaN	0.000000	0.001606	0.001646	28.1092	0.043053	0.001935	22.2547	3.857056	-164.724	-0.023220	0.441422	-0.610146	-0.611483	-0.066208	22.2547	-0.607915	-1.070096E+8	6.187096E-10	NaN
5.000000	1.000000	0.450776	7.36509e+06	-38889.1	955.819	-29796.6	0.000000	0.000000	6.450944	-0.045370	NaN	0.000000	0.001611	0.001669	28.1078	0.108980	0.002093	52.0587	-80.1943	-164.721	-0.038042	0.449500	-0.602129	-0.603405	-0.045370	52.0587	-0.601475	-8.725270E+7	5.199862E-10	NaN
5.000000	1.000000	0.458770	7.36509e+06	-38889.1	955.818	-29796.6	0.000000	0.000000	6.458937	-0.060431	NaN	0.000000	0.001623	0.001648	28.1086	0.126792	0.002148	59.0349	-171.066	-164.274	-0.027298	0.457479	-0.594135	-0.595426	-0.060431	59.0349	-0.593367	-6.746507E+7	8.957423E-10	NaN
5.000000	1.000000	0.466749	7.36509e+06	-38889.1	955.819	-29796.6	0.000000	0.000000	6.466915	-0.095622	NaN	0.000000	0.001637	0.001689	28.1084	0.087971	0.001965	44.761	-112.636	-166.887	0.010947	0.465450	-0.586156	-0.587455	-0.095622	44.761	-0.584554	-5.099860E+7	1.875002E-9	NaN
5.000000	1.000000	0.474753	7.36509e+06	-38889.1	955.818	-29796.6	0.000000	0.000000	6.474923	0.006233	NaN	0.000000	0.001657	0.001675	28.1079	0.039856	0.001891	21.0728	161.849	-164.559	-0.051212	0.473476	-0.578152	-0.579429	0.006233	21.0728	-0.578374	-4.190599E+7	-1.487430E-10	NaN
5.000000	1.000000	0.482782	7.36509e+06	-38889.1	955.819	-29796.6	0.000000	0.000000	6.482947	-0.113322	NaN	0.000000	0.001601	0.001653	28.1071	0.108197	0.001972	54.8639	-16.9306	-164.962	-0.058864	0.481438	-0.570123	-0.571467	-0.113322	54.8639	-0.568574	-3.068520E+7	3.693038E-9	NaN
5.000000	1.000000	0.490777	7.36509e+06	-38889.1	955.818	-29796.6	0.000000	0.000000	6.490942	-0.101212	NaN	0.000000	0.001599	0.001666	28.1069	0.045908	0.002130	21.5556	160.393	-164.999	-0.068936	0.489462	-0.562128	-0.563443	-0.101212	21.5556	-0.558607	-2.234093E+7	4.530347E-9	NaN
5.000000	1.000000	0.498759	7.36509e+06	-38889.1	955.818	-29796.6	0.000000	0.000000	6.498929	-0.002006	NaN	0.000000	0.001585	0.001694	28.1075	0.030332	0.001976	15.3534	63.3007	-164.317	-0.028192	0.497467	-0.554146	-0.555438	-0.002006	15.3534	-0.554048	-1.931984E+7	1.038231E-10	NaN
5.000000	1.000000	0.506786	7.36509e+06	-38889.1	955.818	-29796.6	0.000000	0.000000	6.506953	-0.064622	NaN	0.000000	0.001615	0.001646	28.1079	0.015885	0.002009	7.906469	45.2211	-167.124	-0.048475	0.505506	-0.546119	-0.547399	-0.064622	7.906469	-0.539989	-1.233700E+7	5.238096E-9	NaN
5.000000	1.000000	0.514816	7.36509e+06	-38889.1	955.819	-29796.6	0.000000	0.000000	6.514985	-0.032027	NaN	0.000000	0.001628	0.001684	28.1068	0.141233	0.001994	70.8266	-123.928	-167.484	-0.066924	0.513535	-0.538089	-0.539370	-0.032027	70.8266	-0.537750	-1.148531E+7	2.788531E-9	NaN
5.000000	1.000000	0.522781	7.36509e+06	-38889.1	955.818	-29796.6	0.000000	0.000000	6.522950	-0.030932	NaN	0.000000	0.001626	0.001699	28.1087	0.095736	0.002101	45.5627	52.4018	-163.72	0.001966	0.521482	-0.530124	-0.531423	-0.030932	45.5627	-0.529615	-8.85568e+06	3.492922E-9	NaN
5.000000	1.000000	0.530815	7.36509e+06	-38889.1	955.818	-29796.6	0.000000	0.000000	6.530983	-0.035976	NaN	0.000000	0.001625	0.001676	28.1095	0.049501	0.001981	24.9822	147.731	-165.434	0.014065	0.529460	-0.522090	-0.523445	-0.035976	24.9822	-0.521010	-6.72425e+06	5.350185E-9	NaN
5.000000	1.000000	0.538794	7.36509e+06	-38889.1	955.819	-29796.6	0.000000	0.000000	6.538963	-0.012581	NaN	0.000000	0.001693	0.001671	28.1095	0.036067	0.001978	18.2319	144.701	-164.156	-0.027963	0.537471	-0.514111	-0.515434	-0.012581	18.2319	-0.513593	-5.30218e+06	2.372709E-9	NaN
5.000000	1.000000	0.546790	7.36509e+06	-38889.1	955.819	-29796.6	0.000000	0.000000	6.546959	-0.029432	NaN	0.000000	0.001705	0.001708	28.109	0.073643	0.002070	35.5696	-55.9477	-165.129	-0.032939	0.545499	-0.506115	-0.507406	-0.029432	35.5696	-0.505494	-4.08914e+06	7.197678E-9	NaN
5.000000	1.000000	0.554812	7.36509e+06	-38889.1	955.819	-29796.6	0.000000	0.000000	6.554979	-0.059648	NaN	0.000000	0.001695	0.001702	28.109	0.034871	0.002057	16.9524	-14.5517	-167.977	-0.074052	0.553524	-0.498093	-0.499381	-0.059648	16.9524	-0.495454	-2.96192e+06	2.013838E-8	NaN
5.000000	1.000000	0.562814	7.36509e+06	-38889.1	955.819	-29796.6	0.000000	0.000000	6.562982	-0.039986	NaN	0.000000	0.001698	0.001697	28.1079	0.047647	0.001954	24.3822	177.386	-167.291	-0.080131	0.561479	-0.490091	-0.491426	-0.039986	24.3822	-0.488861	-2.39591e+06	1.668910E-8	NaN
5.000000	1.000000	0.570824	7.36509e+06	-38889.1	955.818	-29796.6	0.000000	0.000000	6.570992	-0.025080	NaN	0.000000	0.001622	0.001699	28.1089	0.063894	0.002026	31.5331	-121.823	-163.819	0.031285	0.569478	-0.482081	-0.483426	-0.025080	31.5331	-0.481485	-1.88934e+06	1.327435E-8	NaN
5.000000	1.000000	0.578806	7.3651e+06	-38889.1	955.819	-29796.6	0.000000	0.000000	6.578973	-0.057329	NaN	0.000000	0.001613	0.001640	28.1082	0.043065	0.002053	20.9729	-19.9913	-163.602	-0.040097	0.577468	-0.474099	-0.475437	-0.057329	20.9729	-0.472049	-1.3936e+06	4.113748E-8	NaN
5.000000	1.000000	0.586826	7.3651e+06	-38889.1	955.818	-29796.6	0.000000	0.000000	6.586992	-0.087038	NaN	0.000000	0.001640	0.001675	28.1085	0.040389	0.001948	20.7329	-168.661	-165.525	-0.083835	0.585479	-0.466079	-0.467426	-0.087038	20.7329	-0.462931	-1.03798e+06	8.385274E-8	NaN
5.000000	1.000000	0.594795	7.3651e+06	-38889.1	955.819	-29796.6	0.000000	0.000000	6.594960	-0.123294	NaN	0.000000	0.001641	0.001691	28.1089	0.060342	0.001965	30.7109	1.317267	-165.806	-0.119949	0.593573	-0.458110	-0.459332	-0.123294	30.7109	-0.455099	-805572	1.530518E-7	NaN
5.000000	1.000000	0.602809	7.3651e+06	-38889.1	955.818	-29796.6	0.000000	0.000000	6.602978	-0.021312	NaN	0.000000	0.001613	0.001693	28.1093	0.108329	0.002110	51.3518	-71.3896	-165.425	-0.048464	0.601516	-0.450096	-0.451388	-0.021312	51.3518	-0.449784	-678117	3.142883E-8	NaN
5.000000	1.000000	0.610794	7.3651e+06	-38889.1	955.818	-29796.6	0.000000	0.000000	6.610960	-0.080333	NaN	0.000000	0.001647	0.001701	28.1101	0.026726	0.002044	13.0766	-89.1505	-166.871	0.021005	0.609583	-0.442111	-0.443322	-0.080333	13.0766	-0.437503	-455112	1.765126E-7	NaN
5.000000	1.000000	0.618829	7.3651e+06	-38889.1	955.819	-29796.6	0.000000	0.000000	6.618995	-0.094530	NaN	0.000000	0.001646	0.001702	28.1094	0.034452	0.001853	18.588	37.5914	-161.719	-0.108493	0.617574	-0.434075	-0.435331	-0.094530	18.588	-0.430261	-359549	2.629117E-7	NaN
5.000000	1.000000	0.626853	7.3651e+06	-38889.1	955.819	-29796.6	0.000000	0.000000	6.627019	-0.075509	NaN	0.000000	0.001611	0.001688	28.1096	0.104605	0.001956	53.4816	65.0464	-164.534	-0.039120	0.625515	-0.426052	-0.427390	-0.075509	53.4816	-0.424993	-302823	2.493509E-7	NaN
5.000000	1.000000	0.634844	7.3651e+06	-38889.1	955.819	-29796.6	0.000000	0.000000	6.635010	-0.074853	NaN	0.000000	0.001678	0.001713	28.1095	0.145289	0.002076	69.9939	-112.566	-162.25	-0.106519	0.633510	-0.418061	-0.419395	-0.074853	69.9939	-0.417259	-235250	3.181860E-7	NaN
5.000000	1.000000	0.642833	7.3651e+06	-38889.1	955.819	-29796.6	0.000000	0.000000	6.643003	-0.003805	NaN	0.000000	0.001633	0.001719	28.109	0.094760	0.002035	46.556	0.358426	-161.224	0.009257	0.641527	-0.410071	-0.411377	-0.003805	46.556	-0.410010	-185586	2.050379E-8	NaN
5.000000	1.000000	0.650846	7.3651e+06	-38889.1	955.819	-29796.6	0.000000	0.000000	6.651012	-0.097433	NaN	0.000000	0.001622	0.001689	28.1094	0.042851	0.002009	21.3302	86.3019	-165.628	-0.073099	0.649539	-0.402059	-0.403366	-0.097433	21.3302	-0.398633	-127788	7.624545E-7	NaN
5.000000	1.000000	0.658843	7.3651e+06	-38889.1	955.819	-29796.6	0.000000	0.000000	6.659013	0.008568	NaN	0.000000	0.001611	0.001701	28.1081	0.042124	0.002024	20.8078	-48.8865	-168.735	0.006175	0.657548	-0.394062	-0.395356	0.008568	20.8078	-0.394371	-111084	-7.713328E-8	NaN
5.000000	1.000000	0.666871	7.3651e+06	-38889.1	955.82	-29796.6	0.000000	0.000000	6.667038	-0.061181	NaN	0.000000	0.001626	0.001696	28.1078	0.074711	0.001880	39.7455	-10.4314	-162.679	-0.055303	0.665568	-0.386034	-0.387337	-0.061181	39.7455	-0.384880	-81257.6	7.529309E-7	NaN
5.000000	1.000000	0.674824	7.3651e+06	-38889.1	955.819	-29796.6	0.000000	0.000000	6.674993	-0.028663	NaN	0.000000	0.001604	0.001709	28.1078	0.081307	0.001942	41.8748	13.7833	-161.553	0.020883	0.673503	-0.378081	-0.379401	-0.028663	41.8748	-0.377568	-63821.2	4.491063E-7	NaN
5.000000	1.000000	0.682891	7.3651e+06	-38889.1	955.818	-29796.6	0.000000	0.000000	6.683059	-0.050164	NaN	0.000000	0.001638	0.001669	28.1086	0.082610	0.002116	39.0419	8.600600	-162.992	-0.105834	0.681511	-0.370014	-0.371394	-0.050164	39.0419	-0.369050	-48133.5	1.042189E-6	NaN
5.000000	1.000000	0.690862	7.3651e+06	-38889.1	955.819	-29796.6	0.000000	0.000000	6.691029	-0.051003	NaN	0.000000	0.001594	0.001709	28.1089	0.054992	0.002029	27.0988	-140.215	-164.622	-0.067354	0.689560	-0.362043	-0.363345	-0.051003	27.0988	-0.360632	-36389.3	1.401604E-6	NaN
5.000000	1.000000	0.698835	7.3651e+06	-38889.1	955.819	-29796.6	0.000000	0.000000	6.699001	-0.093940	NaN	0.000000	0.001644	0.001697	28.1086	0.139376	0.001904	73.1911	179.507	-168.823	-0.125594	0.697578	-0.354070	-0.355327	-0.093940	73.1911	-0.353107	-28318.8	3.317234E-6	NaN
5.000000	1.000000	0.706891	7.3651e+06	-38889.1	955.819	-29796.6	0.000000	0.000000	6.707059	-0.040128	NaN	0.000000	0.001614	0.001699	28.1091	0.082899	0.002010	41.2534	151.945	-162.423	-0.033364	0.705626	-0.346014	-0.347279	-0.040128	41.2534	-0.345284	-21801.5	1.840621E-6	NaN
5.000000	1.000000	0.714855	7.3651e+06	-38889.1	955.818	-29796.6	0.000000	0.000000	6.715020	-0.116942	NaN	0.000000	0.001632	0.001689	28.1095	0.062434	0.002059	30.3261	53.2747	-167.641	-0.102974	0.713571	-0.338049	-0.339334	-0.116942	30.3261	-0.335157	-15519.8	7.535060E-6	NaN
5.000000	1.000000	0.722867	7.3651e+06	-38889.1	955.818	-29796.6	0.000000	0.000000	6.723033	-0.082698	NaN	0.000000	0.001602	0.001691	28.109	0.098193	0.001993	49.2739	160.018	-165.044	-0.055249	0.721560	-0.330038	-0.331345	-0.082698	49.2739	-0.328779	-12518.8	6.605911E-6	NaN
5.000000	1.000000	0.730866	7.3651e+06	-38889.1	955.819	-29796.6	0.000000	0.000000	6.731033	-0.049459	NaN	0.000000	0.001616	0.001687	28.1114	0.082798	0.002005	41.3041	-131.053	-162.01	-0.041856	0.729521	-0.322039	-0.323384	-0.049459	41.3041	-0.321141	-9670.07	5.114613E-6	NaN
5.000000	1.000000	0.738900	7.3651e+06	-38889.1	955.819	-29796.6	0.000000	0.000000	6.739067	-0.069541	NaN	0.000000	0.001601	0.001676	28.1097	0.143519	0.001908	75.2386	91.0577	-166.339	-0.114310	0.737589	-0.314005	-0.315316	-0.069541	75.2386	-0.313312	-7413.52	9.380320E-6	NaN
5.000000	1.000000	0.746899	7.3651e+06	-38889.1	955.819	-29796.6	0.000000	0.000000	6.747068	-0.036146	NaN	0.000000	0.001615	0.001663	28.1089	0.101800	0.002055	49.5389	108.043	-163.548	-0.029903	0.745578	-0.306006	-0.307327	-0.036146	49.5389	-0.305458	-5672.26	6.372384E-6	NaN
5.000000	1.000000	0.754924	7.3651e+06	-38889.1	955.819	-29796.6	0.000000	0.000000	6.755090	-0.084211	NaN	0.000000	0.001589	0.001680	28.11	0.041420	0.002133	19.4176	-107.816	-161.352	-0.081200	0.753584	-0.297981	-0.299321	-0.084211	19.4176	-0.294728	-3926.73	2.144556E-5	NaN
5.000000	1.000000	0.762883	7.3651e+06	-38889.1	955.819	-29796.6	0.000000	0.000000	6.763050	-0.055826	NaN	0.000000	0.001561	0.001696	28.1108	0.090028	0.002017	44.6301	-170.483	-167.841	-0.028066	0.761555	-0.290022	-0.291350	-0.055826	44.6301	-0.289084	-3232.75	1.726884E-5	NaN
5.000000	1.000000	0.770899	7.3651e+06	-38889.1	955.818	-29796.6	0.000000	0.000000	6.771065	-0.097569	NaN	0.000000	0.001574	0.001696	28.1112	0.034754	0.002111	16.4594	179.088	-167.665	-0.055323	0.769544	-0.282005	-0.283361	-0.097569	16.4594	-0.277560	-2168.3	4.499798E-5	NaN
5.000000	1.000000	0.778906	7.3651e+06	-38889.1	955.818	-29796.6	0.000000	0.000000	6.779072	-0.084929	NaN	0.000000	0.001548	0.001697	28.1109	0.051428	0.002056	25.0103	-172.725	-162.344	-0.161954	0.777567	-0.273999	-0.275338	-0.084929	25.0103	-0.271452	-1752.27	4.846811E-5	NaN
5.000000	1.000000	0.786899	7.3651e+06	-38889.1	955.818	-29796.6	0.000000	0.000000	6.787068	-0.021734	NaN	0.000000	0.001552	0.001711	28.1098	0.020354	0.002153	9.452851	30.2031	-166.883	-0.112011	0.785653	-0.266005	-0.267252	-0.021734	9.452851	-0.264281	-1362.74	1.594858E-5	NaN
5.000000	1.000000	0.794939	7.3651e+06	-38889.1	955.819	-29796.6	0.000000	0.000000	6.795105	-0.085579	NaN	0.000000	0.001577	0.001698	28.1114	0.116057	0.002066	56.1708	-46.5493	-162.956	-0.143448	0.793580	-0.257966	-0.259325	-0.085579	56.1708	-0.256824	-1047.53	8.169656E-5	NaN
5.000000	1.000000	0.802873	7.3651e+06	-38889.1	955.819	-29796.6	0.000000	0.000000	6.803040	-0.056375	NaN	0.000000	0.001579	0.001677	28.1109	0.076893	0.002148	35.803	-149.782	-167.034	-0.029457	0.801585	-0.250032	-0.251320	-0.056375	35.803	-0.248851	-789.196	7.143406E-5	NaN
5.000000	1.000000	0.810914	7.3651e+06	-38889.1	955.819	-29796.6	0.000000	0.000000	6.811084	0.018028	NaN	0.000000	0.001545	0.001676	28.1113	0.033734	0.002008	16.7983	-103.916	-163.867	0.066446	0.809628	-0.241991	-0.243277	0.018028	16.7983	-0.242796	-635.574	-2.836465E-5	NaN
5.000000	1.000000	0.818906	7.3651e+06	-38889.1	955.818	-29796.6	0.000000	0.000000	6.819074	-0.034258	NaN	0.000000	0.001539	0.001727	28.1112	0.088357	0.002119	41.7023	117.71	-166.936	-0.082587	0.817587	-0.233999	-0.235318	-0.034258	41.7023	-0.233383	-452.72	7.567183E-5	NaN
5.000000	1.000000	0.826911	7.3651e+06	-38889.1	955.818	-29796.6	0.000000	0.000000	6.827081	0.004618	NaN	0.000000	0.001545	0.001732	28.1107	0.037917	0.001925	19.693	-126.356	-164.933	-0.005933	0.825568	-0.225994	-0.227337	0.004618	19.693	-0.226169	-348.254	-1.326169E-5	NaN
5.000000	1.000000	0.834921	7.3651e+06	-38889.1	955.819	-29796.6	0.000000	0.000000	6.835089	-0.051063	NaN	0.000000	0.001559	0.001707	28.1107	0.139165	0.001848	75.3263	117.557	-162.51	-0.094040	0.833564	-0.217984	-0.219341	-0.051063	75.3263	-0.217475	-253.083	0.000202	NaN
5.000000	1.000000	0.842928	7.3651e+06	-38889.1	955.819	-29796.6	0.000000	0.000000	6.843096	-0.039480	NaN	0.000000	0.001535	0.001726	28.1128	0.128288	0.002019	63.5441	-4.023535	-164.231	-0.092436	0.841618	-0.209976	-0.211287	-0.039480	63.5441	-0.209511	-188.317	0.000210	NaN
5.000000	1.000000	0.850911	7.3651e+06	-38889.1	955.819	-29796.6	0.000000	0.000000	6.851076	-0.106668	NaN	0.000000	0.001546	0.001687	28.1125	0.026516	0.001924	13.7802	166.406	-163.705	-0.120272	0.849634	-0.201994	-0.203271	-0.106668	13.7802	-0.196188	-113.99	0.000936	NaN
5.000000	1.000000	0.858945	7.3651e+06	-38889.1	955.819	-29796.6	0.000000	0.000000	6.859111	-0.084577	NaN	0.000000	0.001596	0.001699	28.1128	0.068439	0.001864	36.7077	-28.8627	-163.845	-0.195556	0.857626	-0.193960	-0.195279	-0.084577	36.7077	-0.192232	-98.0041	0.000863	NaN
5.000000	1.000000	0.866932	7.3651e+06	-38889.1	955.818	-29796.6	0.000000	0.000000	6.867101	-0.016807	NaN	0.000000	0.001571	0.001699	28.1133	0.029799	0.002193	13.5854	170.321	-164.451	-0.019376	0.865644	-0.185972	-0.187261	-0.016807	13.5854	-0.185045	-74.2819	0.000226	NaN
5.000000	1.000000	0.874903	7.3651e+06	-38889.1	955.818	-29796.6	0.000000	0.000000	6.875071	-0.037370	NaN	0.000000	0.001559	0.001731	28.1124	0.095969	0.001975	48.6019	-42.7725	-164.468	-0.088960	0.873579	-0.178002	-0.179326	-0.037370	48.6019	-0.177425	-55.1511	0.000678	NaN
5.000000	1.000000	0.882947	7.3651e+06	-38889.1	955.819	-29796.6	0.000000	0.000000	6.883114	-0.069997	NaN	0.000000	0.001571	0.001710	28.1117	0.059524	0.002061	28.8857	-19.4033	-162.675	-0.048974	0.881605	-0.169957	-0.171299	-0.069997	28.8857	-0.168140	-38.1284	0.001836	NaN
5.000000	1.000000	0.890945	7.3651e+06	-38889.1	955.819	-29796.6	0.000000	0.000000	6.891112	-0.071552	NaN	0.000000	0.001595	0.001712	28.1117	0.059552	0.001921	30.9984	-129.093	-165.808	-0.083171	0.889658	-0.161959	-0.163246	-0.071552	30.9984	-0.160228	-27.6721	0.002586	NaN
5.000000	1.000000	0.898943	7.3651e+06	-38889.1	955.819	-29796.6	0.000000	0.000000	6.899109	-0.080520	NaN	0.000000	0.001597	0.001704	28.1109	0.052767	0.001968	26.8071	-153.851	-165.933	-0.012884	0.897603	-0.153962	-0.155302	-0.080520	26.8071	-0.151709	-19.4585	0.004138	NaN
5.000000	1.000000	0.906955	7.3651e+06	-38889.1	955.819	-29796.6	0.000000	0.000000	6.907124	-0.014108	NaN	0.000000	0.001576	0.001752	28.1114	0.008918	0.001925	4.632832	-108.632	-161.635	0.020643	0.905655	-0.145950	-0.147250	-0.014108	4.632832	-0.143666	-13.8497	0.001019	NaN
5.000000	1.000000	0.914945	7.3651e+06	-38889.1	955.818	-29796.6	0.000000	0.000000	6.915117	0.050712	NaN	0.000000	0.001597	0.001739	28.1124	0.075588	0.001997	37.8586	13.5859	-161.862	0.030886	0.913659	-0.137960	-0.139245	0.050712	37.8586	-0.138964	-11.3105	-0.004484	NaN
5.000000	1.000000	0.922952	7.3651e+06	-38889.1	955.818	-29796.6	0.000000	0.000000	6.923121	-0.022342	NaN	0.000000	0.001586	0.001709	28.1123	0.011014	0.002183	5.046570	64.6855	-164.912	-0.071197	0.921687	-0.129952	-0.131218	-0.022342	5.046570	-0.126632	-6.549199	0.003411	NaN
5.000000	1.000000	0.930943	7.3651e+06	-38889.1	955.819	-29796.6	0.000000	0.000000	6.931109	-0.079155	NaN	0.000000	0.001634	0.001710	28.1133	0.045395	0.001985	22.8745	-166.997	-161.574	-0.092336	0.929639	-0.121962	-0.123266	-0.079155	22.8745	-0.119367	-4.691195	0.016873	NaN
5.000000	1.000000	0.938971	7.3651e+06	-38889.1	955.819	-29796.6	0.000000	0.000000	6.939142	0.040956	NaN	0.000000	0.001633	0.001692	28.1107	0.097384	0.002060	47.2738	-123.658	-162.746	0.048739	0.937621	-0.113934	-0.115284	0.040956	47.2738	-0.114584	-3.745606	-0.010934	NaN
5.000000	1.000000	0.946948	7.3651e+06	-38889.1	955.82	-29796.6	0.000000	0.000000	6.947119	0.024027	NaN	0.000000	0.001607	0.001697	28.1108	0.033444	0.001945	17.1966	38.0819	-164.816	0.012152	0.945686	-0.105957	-0.107219	0.024027	17.1966	-0.107005	-2.595765	-0.009256	NaN
5.000000	1.000000	0.954989	7.3651e+06	-38889.1	955.819	-29796.6	0.000000	0.000000	6.955161	0.046152	NaN	0.000000	0.001611	0.001692	28.1113	0.045801	0.001995	22.9547	173.209	-161.063	0.075945	0.953686	-0.097916	-0.099218	0.046152	22.9547	-0.099424	-1.774094	-0.026015	NaN
5.000000	1.000000	0.962986	7.3651e+06	-38889.1	955.819	-29796.6	0.000000	0.000000	6.963153	-0.066971	NaN	0.000000	0.001572	0.001753	28.1097	0.060832	0.002025	30.0343	-13.3143	-161.624	-0.071903	0.961672	-0.089919	-0.091232	-0.066971	30.0343	-0.088247	-0.982778	0.068144	NaN
5.000000	1.000000	0.970975	7.3651e+06	-38889.1	955.819	-29796.6	0.000000	0.000000	6.971143	-0.043453	NaN	0.000000	0.001617	0.001751	28.1112	0.007612	0.001974	3.856769	128.161	-164.778	-0.020046	0.969655	-0.081929	-0.083250	-0.043453	3.856769	-0.073480	-0.421675	0.103048	NaN
5.000000	1.000000	0.978982	7.3651e+06	-38889.1	955.818	-29796.6	0.000000	0.000000	6.979148	-0.080640	NaN	0.000000	0.001593	0.001716	28.1107	0.092930	0.001937	47.9771	-121.703	-162.231	-0.092193	0.977620	-0.073923	-0.075285	-0.080640	47.9771	-0.072662	-0.401378	0.200907	NaN
5.000000	1.000000	0.986988	7.3651e+06	-38889.1	955.817	-29796.6	0.000000	0.000000	6.987151	-0.157692	NaN	0.000000	0.001584	0.001749	28.1099	0.100837	0.001884	53.5243	28.5532	-163.449	-0.063435	0.985727	-0.065917	-0.067178	-0.157692	53.5243	-0.063707	-0.229383	0.687461	NaN
5.000000	1.000000	0.994968	7.3651e+06	-38889.1	955.818	-29796.6	0.000000	0.000000	6.995135	-0.057899	NaN	0.000000	0.001575	0.001738	28.111	0.039483	0.002105	18.7525	-148.017	-165.885	-0.063071	0.993712	-0.057937	-0.059193	-0.057899	18.7525	-0.055621	-0.134329	0.431019	NaN
5.000000	1.000000	1.003003	7.3651e+06	-38889.1	955.817	-29796.6	0.000000	0.000000	7.003171	-0.048852	NaN	0.000000	0.001587	0.001708	28.111	0.018023	0.001951	9.239918	38.6266	-162.613	-0.108535	1.001692	-0.049901	-0.051213	-0.048852	9.239918	-0.045936	-0.068645	0.711661	NaN
5.000000	1.000000	1.010985	7.3651e+06	-38889.1	955.819	-29796.6	0.000000	0.000000	7.011152	-0.076731	NaN	0.000000	0.001594	0.001679	28.1114	0.023440	0.001963	11.9411	-77.4349	-163.769	-0.104565	1.009671	-0.041920	-0.043234	-0.076731	11.9411	-0.037100	-0.036971	2.075441	NaN
5.000000	1.000000	1.018988	7.3651e+06	-38889.1	955.819	-29796.6	0.000000	0.000000	7.019160	0.045593	NaN	0.000000	0.001561	0.001683	28.1119	0.134275	0.002009	66.8317	138.557	-165.012	-0.019720	1.017757	-0.033917	-0.035148	0.045593	66.8317	-0.034428	-0.030810	-1.479824	NaN
5.000000	1.000000	1.027002	7.3651e+06	-38889.1	955.819	-29796.6	0.000000	0.000000	7.027170	-0.042106	NaN	0.000000	0.001610	0.001689	28.112	0.025212	0.001955	12.8939	-176.012	-162.959	-0.049441	1.025692	-0.025903	-0.027213	-0.042106	12.8939	-0.023453	-0.015383	2.737081	NaN
5.000000	1.000000	1.034980	7.3651e+06	-38889.1	955.819	-29796.6	0.000000	0.000000	7.035148	-0.035958	NaN	0.000000	0.001587	0.001686	28.112	0.030013	0.002046	14.6658	148.158	-168.182	0.006671	1.033676	-0.017925	-0.019229	-0.035958	14.6658	-0.016086	-0.009936	3.618925	NaN
5.000000	1.000000	1.043030	7.3651e+06	-38889.1	955.819	-29796.6	0.000000	0.000000	7.043197	-0.050440	NaN	0.000000	0.001611	0.001687	28.1122	0.044146	0.001989	22.1978	90.6357	-163.441	-0.023429	1.041712	-0.009875	-0.011193	-0.050440	22.1978	-0.008171	-0.005332	9.460561	NaN
5.000000	1.000000	1.051004	7.3651e+06	-38889.1	955.819	-29796.6	0.000000	0.000000	7.051175	0.029225	NaN	0.000000	0.001626	0.001710	28.1102	0.174552	0.001866	93.5574	31.3724	-167.559	0.077081	1.049704	-0.001901	-0.003201	0.029225	93.5574	-0.002135	-0.001533	-19.0649	NaN
5.000000	1.000000	1.058941	7.3651e+06	-38889.1	955.818	-29796.6	0.000000	0.000000	7.059377	6.487189	NaN	0.000000	0.001602	0.001701	28.1106	6.289380	0.001716	3665.61	10.9486	-170.478	4.748402	1.057652	0.006036	0.004747	6.487189	3665.61	0.004709	0.003869	1676.64	53840.7
5.000000	2.000000	1.062594	7.3651e+06	-38889.1	955.819	-29796.6	0.000000	0.000000	7.063196	10.5014	NaN	0.000000	0.001579	0.001640	28.1116	10.2109	0.001858	5497.13	8.310895	-172.013	9.981361	1.062239	0.009690	0.009334	10.5014	5497.13	0.008257	0.007308	1437.01	58751
5.000000	2.000000	1.064529	7.3651e+06	-38889.1	955.819	-29796.6	0.000000	0.000000	7.065186	11.8572	NaN	0.000000	0.001606	0.001685	28.1122	11.4931	0.001833	6270.31	3.631056	-169.969	11.3231	1.064220	0.011624	0.011316	11.8572	6270.31	0.010206	0.009411	1259.89	59052.2
5.000000	2.000000	1.066502	7.3651e+06	-38889.1	955.819	-29796.6	0.000000	0.000000	7.067217	13.2624	NaN	0.000000	0.001622	0.001711	28.1135	13.4392	0.001702	7894.46	5.593934	-174.183	12.558	1.066222	0.013597	0.013317	13.2624	7894.46	0.012338	0.011897	1114.78	66127.1
5.000000	2.000000	1.068466	7.3651e+06	-38889.1	955.82	-29796.6	0.000000	0.000000	7.069431	19.3495	NaN	0.000000	0.001604	0.001712	28.1135	15.1307	0.001688	8964.85	7.064801	-175.247	18.169	1.068107	0.015561	0.015202	19.3495	8964.85	0.013942	0.013900	1392.01	69470.9
5.000000	2.000000	1.070487	7.3651e+06	-38889.1	955.819	-29796.6	0.000000	0.000000	7.071554	21.8425	NaN	0.000000	0.001603	0.001675	28.1143	17.5755	0.001788	9827.24	8.509466	-178.21	21.4055	1.070178	0.017582	0.017273	21.8425	9827.24	0.015915	0.016525	1321.75	69843.9
5.000000	2.000000	1.072495	7.3651e+06	-38889.1	955.819	-29796.6	0.000000	0.000000	7.073688	24.8948	NaN	0.000000	0.001610	0.001708	28.1141	18.9883	0.001764	10763.3	3.380853	-171.244	24.5863	1.072172	0.019590	0.019267	24.8948	10763.3	0.017855	0.019283	1290.99	70815
5.000000	2.000000	1.074422	7.3651e+06	-38889.1	955.818	-29796.6	0.000000	0.000000	7.075705	27.0958	NaN	0.000000	0.001613	0.001687	28.114	20.6491	0.001806	11436	2.997130	-173.11	25.5867	1.074111	0.021517	0.021206	27.0958	11436	0.019740	0.022135	1224.09	70226.7
5.000000	2.000000	1.076469	7.3651e+06	-38889.1	955.818	-29796.6	0.000000	0.000000	7.077999	33.1184	NaN	0.000000	0.001576	0.001708	28.1129	22.9185	0.001807	12684	4.780802	-176.464	32.7667	1.076178	0.023564	0.023273	33.1184	12684	0.021605	0.025128	1317.98	73105.5
5.000000	2.000000	1.078513	7.3651e+06	-38889.1	955.82	-29796.6	0.000000	0.000000	7.080326	39.9766	NaN	0.000000	0.001594	0.001692	28.1127	23.9663	0.001642	14599.2	4.669716	-176.936	41.2632	1.078160	0.025608	0.025255	39.9766	14599.2	0.023555	0.028439	1405.7	79094.6
5.000000	2.000000	1.080418	7.3651e+06	-38889.1	955.82	-29796.6	0.000000	0.000000	7.082308	41.8667	NaN	0.000000	0.001577	0.001677	28.1134	27.4373	0.001890	14517.2	11.686	176.083	39.8976	1.080133	0.027513	0.027228	41.8667	14517.2	0.025350	0.031655	1322.59	74547.4
5.000000	2.000000	1.082428	7.3651e+06	-38889.1	955.819	-29796.6	0.000000	0.000000	7.084718	51.5995	NaN	0.000000	0.001614	0.001710	28.1128	28.6388	0.001814	15785.9	2.599288	-175.434	48.5197	1.082092	0.029523	0.029187	51.5995	15785.9	0.027072	0.034893	1478.8	77210.4
5.000000	2.000000	1.084391	7.3651e+06	-38889.1	955.819	-29796.6	0.000000	0.000000	7.086789	54.2212	NaN	0.000000	0.001592	0.001679	28.1139	29.2815	0.001671	17524.4	3.157984	-177.467	52.2349	1.084162	0.031486	0.031257	54.2212	17524.4	0.029166	0.039032	1389.14	81040.9
5.000000	2.000000	1.086404	7.3651e+06	-38889.1	955.82	-29796.6	0.000000	0.000000	7.089115	61.8463	NaN	0.000000	0.001580	0.001688	28.113	33.0638	0.001868	17697.2	4.582353	-178.628	60.2733	1.086166	0.033499	0.033261	61.8463	17697.2	0.030878	0.042583	1452.37	78353.8
5.000000	2.000000	1.088432	7.3651e+06	-38889.1	955.82	-29796.6	0.000000	0.000000	7.091357	67.0562	NaN	0.000000	0.001599	0.001692	28.1145	34.1292	0.001768	19303.4	6.133748	179.282	66.8796	1.088098	0.035527	0.035193	67.0562	19303.4	0.032921	0.047017	1426.22	81335.5
5.000000	2.000000	1.090344	7.3651e+06	-38889.1	955.82	-29796.6	0.000000	0.000000	7.093577	74.5336	NaN	0.000000	0.001602	0.001690	28.115	36.0796	0.001754	20567.4	3.492472	-179.978	70.3054	1.090016	0.037440	0.037111	74.5336	20567.4	0.034722	0.051100	1458.58	83127.1
5.000000	2.000000	1.092373	7.3651e+06	-38889.1	955.82	-29796.6	0.000000	0.000000	7.096041	85.1483	NaN	0.000000	0.001579	0.001691	28.1139	37.8194	0.001672	22613.4	5.535683	177.627	81.0834	1.092046	0.039468	0.039141	85.1483	22613.4	0.036644	0.055642	1530.28	87586.3
5.000000	2.000000	1.094358	7.3651e+06	-38889.1	955.82	-29796.6	0.000000	0.000000	7.098131	87.6894	NaN	0.000000	0.001591	0.001724	28.1143	38.9906	0.001789	21798.7	2.952514	-178.847	85.1797	1.094144	0.041453	0.041239	87.6894	21798.7	0.038436	0.060049	1460.29	81273.6
5.000000	2.000000	1.096459	7.3651e+06	-38889.1	955.821	-29796.6	0.000000	0.000000	7.100361	90.8147	NaN	0.000000	0.001584	0.001690	28.1131	41.9331	0.001837	22824.6	2.178400	-178.346	92.6533	1.096182	0.043554	0.043277	90.8147	22824.6	0.040570	0.065510	1386.26	81474.3
5.000000	2.000000	1.098366	7.3651e+06	-38889.1	955.821	-29796.6	0.000000	0.000000	7.102806	103.93	NaN	0.000000	0.001593	0.001698	28.1133	41.7196	0.001608	25943.8	0.094644	-177.532	100.356	1.098052	0.045461	0.045147	103.93	25943.8	0.042456	0.070530	1473.56	89252.2
5.000000	2.000000	1.100339	7.3651e+06	-38889.1	955.82	-29796.6	0.000000	0.000000	7.105028	109.966	NaN	0.000000	0.001595	0.001703	28.1119	44.9566	0.001866	24091.3	1.758095	-178.413	105.999	1.100009	0.047435	0.047104	109.966	24091.3	0.044011	0.074805	1470.03	80476.4
5.000000	2.000000	1.102459	7.3651e+06	-38889.1	955.821	-29796.6	0.000000	0.000000	7.107199	111.211	NaN	0.000000	0.001566	0.001683	28.1115	47.0289	0.001723	27300.7	4.796091	177.053	111.238	1.102221	0.049555	0.049316	111.211	27300.7	0.046499	0.081901	1357.87	87157.3
5.000000	2.000000	1.104375	7.3651e+06	-38889.1	955.822	-29796.6	0.000000	0.000000	7.109558	122.009	NaN	0.000000	0.001586	0.001683	28.1125	48.3873	0.001775	27264.2	5.973097	175.918	119.603	1.104102	0.051470	0.051197	122.009	27264.2	0.048113	0.086671	1407.72	84611.5
5.000000	2.000000	1.106464	7.3651e+06	-38889.1	955.82	-29796.6	0.000000	0.000000	7.112023	131.152	NaN	0.000000	0.001614	0.001702	28.1141	51.3309	0.001777	28890.3	7.024721	174.78	133.635	1.106052	0.053560	0.053147	131.152	28890.3	0.050155	0.092892	1411.87	86603.5
5.000000	2.000000	1.108368	7.3651e+06	-38889.1	955.82	-29796.6	0.000000	0.000000	7.114528	145.759	NaN	0.000000	0.001593	0.001638	28.1141	51.7257	0.001747	29600.5	4.458336	177.261	141.916	1.108059	0.055464	0.055154	145.759	29600.5	0.051770	0.097964	1487.89	86405
5.000000	2.000000	1.110434	7.3651e+06	-38889.1	955.82	-29796.6	0.000000	0.000000	7.116730	149.086	NaN	0.000000	0.001560	0.001687	28.1127	55.656	0.001906	29205.9	5.011884	176.934	149.662	1.110129	0.057529	0.057225	149.086	29205.9	0.053701	0.104194	1430.84	82664.9
5.000000	2.000000	1.112512	7.3651e+06	-38889.1	955.82	-29796.6	0.000000	0.000000	7.119378	162.95	NaN	0.000000	0.001556	0.001650	28.1143	57.0384	0.001843	30940.5	4.378815	176.998	165.448	1.112115	0.059607	0.059210	162.95	30940.5	0.055657	0.110698	1472.02	84963.1
5.000000	2.000000	1.114484	7.3651e+06	-38889.1	955.822	-29796.6	0.000000	0.000000	7.121608	169.249	NaN	0.000000	0.001562	0.001656	28.1137	58.2106	0.001775	32802.3	3.221167	177.283	174.058	1.114112	0.061579	0.061208	169.249	32802.3	0.057709	0.117721	1437.7	87347.4
5.000000	2.000000	1.116369	7.3651e+06	-38889.1	955.821	-29796.6	0.000000	0.000000	7.124212	186.743	NaN	0.000000	0.001551	0.001651	28.112	60.9632	0.001803	33818.8	3.725546	176.7	185.777	1.116068	0.063464	0.063164	186.743	33818.8	0.059323	0.123390	1513.44	87961.2
5.000000	2.000000	1.118379	7.3651e+06	-38889.1	955.821	-29796.6	0.000000	0.000000	7.126691	198.137	NaN	0.000000	0.001564	0.001589	28.1129	61.6469	0.001747	35285.1	4.825314	175.355	198.348	1.118091	0.065474	0.065186	198.137	35285.1	0.061263	0.130376	1519.73	89282.4
5.000000	2.000000	1.120313	7.3651e+06	-38889.1	955.821	-29796.6	0.000000	0.000000	7.129176	211.564	NaN	0.000000	0.001549	0.001652	28.1126	63.765	0.001842	34615.4	5.050315	175.099	206.213	1.119992	0.067408	0.067087	211.564	34615.4	0.062824	0.136130	1554.13	85716.8
5.000000	2.000000	1.122440	7.3651e+06	-38889.1	955.82	-29796.6	0.000000	0.000000	7.131658	220.193	NaN	0.000000	0.001554	0.001644	28.1125	66.2751	0.001852	35790.8	6.275735	174.043	220.325	1.122078	0.069535	0.069173	220.193	35790.8	0.064921	0.144042	1528.68	86159
5.000000	2.000000	1.124278	7.3651e+06	-38889.1	955.82	-29796.6	0.000000	0.000000	7.134154	236.216	NaN	0.000000	0.001554	0.001662	28.1123	66.5918	0.001790	37202.9	4.187949	175.576	231.006	1.124024	0.071373	0.071119	236.216	37202.9	0.066611	0.150574	1568.77	87594
5.000000	2.000000	1.126403	7.3651e+06	-38889.1	955.821	-29796.6	0.000000	0.000000	7.136397	239.098	NaN	0.000000	0.001550	0.001676	28.1129	70.2262	0.001890	37148.5	6.251916	173.211	240.049	1.126171	0.073498	0.073267	239.098	37148.5	0.068671	0.158722	1506.39	85191.3
5.000000	2.000000	1.128338	7.3651e+06	-38889.1	955.82	-29796.6	0.000000	0.000000	7.139186	259.842	NaN	0.000000	0.001588	0.001697	28.1132	70.244	0.001722	40787.7	6.491302	172.561	257.79	1.127970	0.075434	0.075065	259.842	40787.7	0.070656	0.166765	1558.13	91253.6
5.000000	2.000000	1.130321	7.3651e+06	-38889.1	955.82	-29796.6	0.000000	0.000000	7.141587	270.033	NaN	0.000000	0.001598	0.001657	28.1136	72.6801	0.001709	42538.3	4.633268	174.722	266.535	1.130048	0.077417	0.077143	270.033	42538.3	0.072656	0.175058	1542.53	92888.5
5.000000	2.000000	1.132364	7.3651e+06	-38889.1	955.819	-29796.6	0.000000	0.000000	7.143807	274.351	NaN	0.000000	0.001569	0.001665	28.1145	74.8124	0.001759	42541.1	2.227085	176.723	272.578	1.132124	0.079459	0.079219	274.351	42541.1	0.074622	0.183396	1495.95	90758.4
5.000000	2.000000	1.134339	7.3651e+06	-38889.1	955.82	-29796.6	0.000000	0.000000	7.146323	287.522	NaN	0.000000	0.001540	0.001677	28.1151	77.1722	0.001766	43699.1	4.752695	173.228	286.175	1.134088	0.081434	0.081183	287.522	43699.1	0.076499	0.191525	1501.22	91228.9
5.000000	2.000000	1.136487	7.3651e+06	-38889.1	955.82	-29796.6	0.000000	0.000000	7.149119	303.282	NaN	0.000000	0.001554	0.001671	28.1137	80.129	0.001779	45037	12.5585	167.323	308.107	1.135948	0.083582	0.083043	303.282	45037	0.078531	0.200514	1512.52	91890.5
5.000000	2.000000	1.138407	7.3651e+06	-38889.1	955.82	-29796.6	0.000000	0.000000	7.151482	314.069	NaN	0.000000	0.001561	0.001677	28.1136	81.6985	0.001813	45055	11.2706	167.865	313.367	1.137833	0.085502	0.084928	314.069	45055	0.080274	0.208373	1507.25	90177
5.000000	2.000000	1.140332	7.3651e+06	-38889.1	955.821	-29796.6	0.000000	0.000000	7.153904	326.154	NaN	0.000000	0.001565	0.001637	28.1151	83.0254	0.001765	47041.6	3.773314	173.264	323.383	1.140095	0.087428	0.087190	326.154	47041.6	0.082228	0.217354	1500.57	92187.5
5.000000	2.000000	1.142441	7.3651e+06	-38889.1	955.821	-29796.6	0.000000	0.000000	7.156381	335.122	NaN	0.000000	0.001549	0.001644	28.1138	84.4586	0.001792	47142.6	4.251187	174.018	336.991	1.142076	0.089536	0.089171	335.122	47142.6	0.084204	0.226621	1478.78	90476.7
5.000000	2.000000	1.144334	7.3651e+06	-38889.1	955.821	-29796.6	0.000000	0.000000	7.159012	353.074	NaN	0.000000	0.001542	0.001651	28.1137	87.0667	0.001813	48029.8	6.814073	170.943	352.12	1.144038	0.091429	0.091133	353.074	48029.8	0.085916	0.234790	1503.79	90561.8
5.000000	2.000000	1.146329	7.3651e+06	-38889.1	955.821	-29796.6	0.000000	0.000000	7.161462	364.127	NaN	0.000000	0.001578	0.001671	28.1151	88.905	0.001833	48497.2	2.617792	174.521	361.181	1.146101	0.093424	0.093196	364.127	48497.2	0.087793	0.243906	1492.9	89717.7
5.000000	2.000000	1.148360	7.3651e+06	-38889.1	955.821	-29796.6	0.000000	0.000000	7.164232	382.122	NaN	0.000000	0.001578	0.001682	28.1146	90.5036	0.001916	47226.3	7.579930	170.434	383.267	1.147952	0.095456	0.095047	382.122	47226.3	0.089387	0.251774	1517.72	85990.9
5.000000	2.000000	1.150342	7.3651e+06	-38889.1	955.821	-29796.6	0.000000	0.000000	7.166882	398.378	NaN	0.000000	0.001567	0.001688	28.1156	91.4722	0.001873	48826.3	3.528503	174.488	396.759	1.149947	0.097437	0.097043	398.378	48826.3	0.091318	0.261458	1523.68	87242.1
5.000000	2.000000	1.152319	7.3651e+06	-38889.1	955.821	-29796.6	0.000000	0.000000	7.169687	418.522	NaN	0.000000	0.001570	0.001658	28.1144	93.0589	0.001865	49886	4.837085	172.771	414.513	1.152004	0.099414	0.099100	418.522	49886	0.093122	0.270664	1546.28	87606.5
5.000000	2.000000	1.154385	7.3651e+06	-38889.1	955.821	-29796.6	0.000000	0.000000	7.171831	420.409	NaN	0.000000	0.001545	0.001630	28.1156	93.7844	0.001821	51492.1	4.146778	173.444	420.881	1.154113	0.101480	0.101208	420.409	51492.1	0.095357	0.282273	1489.37	88548.1
5.000000	2.000000	1.156249	7.3651e+06	-38889.1	955.821	-29796.6	0.000000	0.000000	7.174430	438.326	NaN	0.000000	0.001522	0.001632	28.1144	96.4042	0.001789	53889.9	2.943938	174.61	432.467	1.156011	0.103344	0.103106	438.326	53889.9	0.097244	0.292251	1499.83	91075.7
5.000000	2.000000	1.158344	7.3651e+06	-38889.1	955.821	-29796.6	0.000000	0.000000	7.177508	462.25	NaN	0.000000	0.001515	0.001670	28.1133	98.6255	0.001828	53946.7	4.013269	173.205	461.822	1.157981	0.105439	0.105077	462.25	53946.7	0.099012	0.301751	1531.89	89725
5.000000	2.000000	1.159305	7.3651e+06	-38889.1	955.821	-29796.6	0.000000	0.000000	7.178923	473.3	NaN	0.000000	0.001532	0.001652	28.0871	100.558	0.001806	55668.9	9.643315	167.193	470.241	1.159019	0.106400	0.106114	473.3	55668.9	0.100023	0.307245	1540.46	91757.8