File: remote_trans/data/nanoindenter/0828-1/data/Data_2025-08-06,11h17m57s/2025-07-22_16-23-58_1_573.txt
2025-07-22, 16:23:58, 1
Index	Phase	Displacement	Time	Pos X	Pos Y	Pos Z	Rot A	Rot B	Piezo Z	Force A	Force B	Gripper	Voltage A	Voltage B	Temperature	Amplitude force	Amplitude pos	Stiffness	Phase shift	Phase excitation	Force A raw	Displacement raw	HMax	HMax raw	Real Force	Real Stiffness	Contact Depth	Area	Hardness	Reduced Mod.
[#]	[#]	[um]	[s]	[um]	[um]	[um]	[m°]	[m°]	[um]	[uN]	[uN]	[V]	[V]	[V]	[°C]	[uN]	[um]	[N/m]	[°]	[°]	[uN]	[um]	[um]	[um]	[uN]	[N/m]	[um]	[um^2]	[MPa]	[MPa]
573	1.000000	0.002666	7.37065e+06	-48439.1	1005.82	-29762.5	0.000000	0.000000	6.002817	0.078260	NaN	0.000000	0.001623	0.001769	28.0831	0.008443	0.000906	9.315626	-49.0221	-157.776	0.065220	0.001406	-1.059589	-1.060849	0.078260	9.315626	-1.065890	-1.745695E+14	-4.483026E-16	NaN
573	1.000000	0.010604	7.37065e+06	-48439.1	1005.82	-29762.5	0.000000	0.000000	6.010753	0.034565	NaN	0.000000	0.001577	0.001729	28.083	0.141413	0.000894	158.161	-28.6307	-155.21	0.091749	0.009319	-1.051652	-1.052936	0.034565	158.161	-1.051816	-1.129330E+14	-3.060697E-16	NaN
573	1.000000	0.018596	7.37065e+06	-48439.1	1005.82	-29762.5	0.000000	0.000000	6.018743	0.009792	NaN	0.000000	0.001602	0.001748	28.0831	0.088686	0.001876	47.2722	-102.64	-161.85	-0.045055	0.017292	-1.043660	-1.044963	0.009792	47.2722	-1.043815	-8.815963E+13	-1.110684E-16	NaN
573	1.000000	0.026637	7.37065e+06	-48439.1	1005.82	-29762.5	0.000000	0.000000	6.026785	0.010110	NaN	0.000000	0.001600	0.001746	28.0829	0.110650	0.001846	59.9282	-150.822	-165.324	-0.054880	0.025319	-1.035619	-1.036937	0.010110	59.9282	-1.035745	-6.866775E+13	-1.472250E-16	NaN
573	1.000000	0.034572	7.37065e+06	-48439.1	1005.82	-29762.5	0.000000	0.000000	6.034719	-0.012744	NaN	0.000000	0.001560	0.001787	28.0831	0.019029	0.001941	9.806061	-10.0601	-162.786	0.037959	0.033333	-1.027684	-1.028923	-0.012744	9.806061	-1.026709	-5.190514E+13	2.455208E-16	NaN
573	1.000000	0.042593	7.37065e+06	-48439.1	1005.82	-29762.5	0.000000	0.000000	6.042741	0.018953	NaN	0.000000	0.001605	0.001743	28.083	0.100838	0.002023	49.8523	79.7865	-166.914	-0.014236	0.041296	-1.019662	-1.020960	0.018953	49.8523	-1.019948	-4.209667E+13	-4.502362E-16	NaN
573	1.000000	0.050609	7.37065e+06	-48439.1	1005.82	-29762.5	0.000000	0.000000	6.050756	-0.016291	NaN	0.000000	0.001630	0.001760	28.0829	0.097578	0.001981	49.2611	-70.035	-166.995	0.029765	0.049264	-1.011646	-1.012992	-0.016291	49.2611	-1.011398	-3.230001E+13	5.043634E-16	NaN
573	1.000000	0.058559	7.37065e+06	-48439.1	1005.82	-29762.5	0.000000	0.000000	6.058707	0.021271	NaN	0.000000	0.001587	0.001725	28.083	0.022971	0.001939	11.8458	44.9133	-164.095	-0.012949	0.057304	-1.003697	-1.004952	0.021271	11.8458	-1.005044	-2.652599E+13	-8.019044E-16	NaN
573	1.000000	0.066639	7.37065e+06	-48439.1	1005.82	-29762.5	0.000000	0.000000	6.066786	-0.019595	NaN	0.000000	0.001592	0.001721	28.0832	0.035324	0.002023	17.4641	140.752	-162.976	0.012965	0.065310	-0.995616	-0.996946	-0.019595	17.4641	-0.994775	-1.929362E+13	1.015624E-15	NaN
573	1.000000	0.074598	7.37065e+06	-48439.1	1005.82	-29762.5	0.000000	0.000000	6.074746	0.016099	NaN	0.000000	0.001590	0.001764	28.0832	0.056219	0.002084	26.9703	-85.1539	-166.128	0.051963	0.073341	-0.987658	-0.988915	0.016099	26.9703	-0.988105	-1.568889E+13	-1.026118E-15	NaN
573	1.000000	0.082593	7.37065e+06	-48439.1	1005.82	-29762.5	0.000000	0.000000	6.082741	0.009988	NaN	0.000000	0.001621	0.001770	28.0816	0.104993	0.001961	53.527	-102.312	-170.183	-0.034096	0.081296	-0.979663	-0.980960	0.009988	53.527	-0.979803	-1.212694E+13	-8.236181E-16	NaN
573	1.000000	0.090640	7.37065e+06	-48439.1	1005.82	-29762.5	0.000000	0.000000	6.090789	0.042667	NaN	0.000000	0.001606	0.001748	28.0818	0.041748	0.001987	21.0088	166.974	-161.479	0.011147	0.089220	-0.971616	-0.973036	0.042667	21.0088	-0.973139	-9.861936E+12	-4.326402E-15	NaN
573	1.000000	0.098609	7.37065e+06	-48439.1	1005.82	-29762.5	0.000000	0.000000	6.098759	0.045468	NaN	0.000000	0.001616	0.001788	28.0817	0.134339	0.001983	67.7481	-136.246	-165.975	0.006894	0.097332	-0.963646	-0.964924	0.045468	67.7481	-0.964150	-7.461235E+12	-6.093834E-15	NaN
573	1.000000	0.106629	7.37065e+06	-48439.1	1005.82	-29762.5	0.000000	0.000000	6.106777	0.026417	NaN	0.000000	0.001582	0.001756	28.0817	0.090245	0.001980	45.5893	124.926	-165.72	-0.062809	0.105226	-0.955627	-0.957029	0.026417	45.5893	-0.956062	-5.804561E+12	-4.551056E-15	NaN
573	1.000000	0.114632	7.37065e+06	-48439.1	1005.82	-29762.5	0.000000	0.000000	6.114783	0.084167	NaN	0.000000	0.001604	0.001749	28.0816	0.100188	0.002084	48.0787	70.6791	-166.746	0.069049	0.113352	-0.947624	-0.948903	0.084167	48.0787	-0.948936	-4.652477E+12	-1.809080E-14	NaN
573	1.000000	0.122627	7.37065e+06	-48439.1	1005.82	-29762.5	0.000000	0.000000	6.122777	0.063500	NaN	0.000000	0.001599	0.001747	28.0816	0.064349	0.002050	31.3891	-16.5254	-164.866	0.074861	0.121274	-0.939629	-0.940982	0.063500	31.3891	-0.941146	-3.652546E+12	-1.738504E-14	NaN
573	1.000000	0.130636	7.37065e+06	-48439.1	1005.82	-29762.5	0.000000	0.000000	6.130783	-0.030929	NaN	0.000000	0.001562	0.001748	28.082	0.052536	0.001999	26.2878	-147.427	-162.621	-0.027311	0.129339	-0.931619	-0.932916	-0.030929	26.2878	-0.930737	-2.643273E+12	1.170115E-14	NaN
573	1.000000	0.138643	7.37065e+06	-48439.1	1005.82	-29762.5	0.000000	0.000000	6.138790	-0.011088	NaN	0.000000	0.001595	0.001725	28.0817	0.030444	0.002042	14.9075	-38.8683	-167.678	-0.009538	0.137363	-0.923613	-0.924893	-0.011088	14.9075	-0.923055	-2.081869E+12	5.326118E-15	NaN
573	1.000000	0.146655	7.37065e+06	-48439.1	1005.82	-29762.5	0.000000	0.000000	6.146802	0.007316	NaN	0.000000	0.001612	0.001720	28.0817	0.030562	0.002068	14.7809	-8.965358	-165.071	-0.076975	0.145309	-0.915601	-0.916947	0.007316	14.7809	-0.915972	-1.670404E+12	-4.379704E-15	NaN
573	1.000000	0.154619	7.37065e+06	-48439.1	1005.82	-29762.5	0.000000	0.000000	6.154767	0.014472	NaN	0.000000	0.001620	0.001709	28.0817	0.105252	0.002037	51.6661	114.15	-164.024	0.035947	0.153329	-0.907636	-0.908927	0.014472	51.6661	-0.907846	-1.297399E+12	-1.115466E-14	NaN
573	1.000000	0.162644	7.37065e+06	-48439.1	1005.82	-29762.5	0.000000	0.000000	6.162791	-0.022872	NaN	0.000000	0.001647	0.001729	28.0817	0.063113	0.002010	31.396	20.7522	-161.865	-0.043253	0.161315	-0.899611	-0.900941	-0.022872	31.396	-0.899065	-9.872602E+11	2.316704E-14	NaN
573	1.000000	0.170647	7.37065e+06	-48439.1	1005.82	-29762.5	0.000000	0.000000	6.170796	0.019014	NaN	0.000000	0.001612	0.001735	28.0823	0.070857	0.002109	33.5928	59.7034	-165.213	0.078677	0.169365	-0.891608	-0.892891	0.019014	33.5928	-0.892033	-7.932161E+11	-2.397017E-14	NaN
573	1.000000	0.178656	7.37065e+06	-48439.1	1005.82	-29762.5	0.000000	0.000000	6.178803	0.003811	NaN	0.000000	0.001671	0.001760	28.0816	0.032633	0.001978	16.4968	141.255	-164.471	0.003990	0.177415	-0.883600	-0.884841	0.003811	16.4968	-0.883773	-6.133825E+11	-6.213167E-15	NaN
573	1.000000	0.186650	7.37065e+06	-48439.1	1005.82	-29762.5	0.000000	0.000000	6.186797	-0.007569	NaN	0.000000	0.001645	0.001748	28.0816	0.112796	0.002007	56.2041	83.4387	-164.783	-0.001552	0.185303	-0.875606	-0.876952	-0.007569	56.2041	-0.875505	-4.741463E+11	1.596339E-14	NaN
573	1.000000	0.194644	7.37065e+06	-48439.1	1005.82	-29762.5	0.000000	0.000000	6.194794	0.043132	NaN	0.000000	0.001718	0.001742	28.0823	0.053841	0.001945	27.686	82.7508	-167.102	0.024373	0.193343	-0.867611	-0.868913	0.043132	27.686	-0.868780	-3.845315E+11	-1.121668E-13	NaN
573	1.000000	0.202663	7.37065e+06	-48439.1	1005.82	-29762.5	0.000000	0.000000	6.202814	0.065059	NaN	0.000000	0.001677	0.001756	28.0817	0.067554	0.001911	35.3507	-109.848	-165.85	0.076428	0.201381	-0.859592	-0.860875	0.065059	35.3507	-0.860972	-3.014971E+11	-2.157878E-13	NaN
573	1.000000	0.210687	7.37065e+06	-48439.1	1005.82	-29762.5	0.000000	0.000000	6.210834	-0.004809	NaN	0.000000	0.001645	0.001776	28.0816	0.092562	0.002077	44.5646	-157.686	-162.329	0.026901	0.209299	-0.851568	-0.852956	-0.004809	44.5646	-0.851488	-2.243262E+11	2.143948E-14	NaN
573	1.000000	0.218651	7.37065e+06	-48439.1	1005.82	-29762.5	0.000000	0.000000	6.218801	0.067987	NaN	0.000000	0.001633	0.001787	28.0829	0.012563	0.002018	6.226741	-103.367	-165.816	0.117004	0.217389	-0.843605	-0.844866	0.067987	6.226741	-0.851794	-2.264800E+11	-3.001885E-13	NaN
573	1.000000	0.226678	7.37065e+06	-48439.1	1005.82	-29762.5	0.000000	0.000000	6.226825	-0.018806	NaN	0.000000	0.001657	0.001736	28.083	0.069042	0.002022	34.1419	-24.9141	-167.096	0.023825	0.225385	-0.835578	-0.836871	-0.018806	34.1419	-0.835165	-1.348267E+11	1.394841E-13	NaN
573	1.000000	0.234684	7.37065e+06	-48439.1	1005.82	-29762.5	0.000000	0.000000	6.234830	-0.030237	NaN	0.000000	0.001652	0.001752	28.0829	0.098236	0.002038	48.2125	-149.258	-169.251	-0.063387	0.233332	-0.827572	-0.828924	-0.030237	48.2125	-0.827101	-1.048316E+11	2.884349E-13	NaN
573	1.000000	0.242644	7.37065e+06	-48439.1	1005.82	-29762.5	0.000000	0.000000	6.242794	0.042527	NaN	0.000000	0.001653	0.001749	28.0828	0.129839	0.002007	64.6792	-47.2206	-167.62	-0.005074	0.241375	-0.819611	-0.820881	0.042527	64.6792	-0.820104	-8.426113E+10	-5.047062E-13	NaN
573	1.000000	0.250686	7.37065e+06	-48439.1	1005.82	-29762.5	0.000000	0.000000	6.250832	-0.021892	NaN	0.000000	0.001572	0.001711	28.0828	0.116625	0.002007	58.1113	139.357	-164.741	-0.042082	0.249312	-0.811570	-0.812943	-0.021892	58.1113	-0.811287	-6.397893E+10	3.421746E-13	NaN
573	1.000000	0.258683	7.37065e+06	-48439.1	1005.82	-29762.5	0.000000	0.000000	6.258831	0.012864	NaN	0.000000	0.001597	0.001761	28.0828	0.143948	0.001913	75.2507	131.768	-163.723	-0.043050	0.257384	-0.803573	-0.804872	0.012864	75.2507	-0.803701	-5.047730E+10	-2.548563E-13	NaN
573	1.000000	0.266699	7.37065e+06	-48439.1	1005.82	-29762.5	0.000000	0.000000	6.266847	0.026943	NaN	0.000000	0.001621	0.001744	28.0828	0.111229	0.002055	54.1205	99.9742	-164.951	0.036514	0.265328	-0.795557	-0.796928	0.026943	54.1205	-0.795930	-3.959222E+10	-6.805222E-13	NaN
573	1.000000	0.274699	7.37065e+06	-48439.1	1005.82	-29762.5	0.000000	0.000000	6.274851	0.116583	NaN	0.000000	0.001600	0.001749	28.0829	0.067636	0.001956	34.5761	-15.5055	-167.772	0.117993	0.273362	-0.787557	-0.788894	0.116583	34.5761	-0.790086	-3.298006E+10	-3.534966E-12	NaN
573	1.000000	0.282699	7.37065e+06	-48439.1	1005.82	-29762.5	0.000000	0.000000	6.282845	-0.036095	NaN	0.000000	0.001611	0.001755	28.083	0.058921	0.002057	28.648	-146.981	-166.698	-0.051862	0.281378	-0.779557	-0.780878	-0.036095	28.648	-0.778612	-2.303409E+10	1.567025E-12	NaN
573	1.000000	0.290675	7.37065e+06	-48439.1	1005.82	-29762.5	0.000000	0.000000	6.290823	0.002574	NaN	0.000000	0.001617	0.001718	28.0828	0.097531	0.001989	49.0382	-119.128	-164.154	0.023156	0.289391	-0.771580	-0.772865	0.002574	49.0382	-0.771620	-1.850657E+10	-1.391018E-13	NaN
573	1.000000	0.298684	7.37065e+06	-48439.1	1005.82	-29762.5	0.000000	0.000000	6.298832	0.029512	NaN	0.000000	0.001597	0.001736	28.0829	0.069156	0.001968	35.1386	122.901	-169.173	0.034645	0.297397	-0.763572	-0.764858	0.029512	35.1386	-0.764202	-1.467089E+10	-2.011576E-12	NaN
573	1.000000	0.306705	7.37065e+06	-48439.1	1005.82	-29762.5	0.000000	0.000000	6.306857	0.128885	NaN	0.000000	0.001599	0.001753	28.0831	0.132003	0.001953	67.6023	85.4297	-167.592	0.101588	0.305394	-0.755551	-0.756861	0.128885	67.6023	-0.756981	-1.170113E+10	-1.101471E-11	NaN
573	1.000000	0.314700	7.37065e+06	-48439.1	1005.82	-29762.5	0.000000	0.000000	6.314849	0.041603	NaN	0.000000	0.001601	0.001739	28.083	0.005139	0.002089	2.460381	168.315	-165.062	0.036244	0.313412	-0.747555	-0.748843	0.041603	2.460381	-0.760237	-1.295784E+10	-3.210670E-12	NaN
573	1.000000	0.322740	7.37065e+06	-48439.1	1005.82	-29762.5	0.000000	0.000000	6.322889	0.048146	NaN	0.000000	0.001595	0.001754	28.083	0.086400	0.001956	44.1681	76.4887	-165.341	0.050810	0.321410	-0.739516	-0.740846	0.048146	44.1681	-0.740334	-6.943829E+9	-6.933635E-12	NaN
573	1.000000	0.330715	7.37065e+06	-48439.1	1005.82	-29762.5	0.000000	0.000000	6.330867	0.097120	NaN	0.000000	0.001605	0.001729	28.0827	0.093985	0.002046	45.9465	95.3763	-168.284	0.095120	0.329427	-0.731540	-0.732829	0.097120	45.9465	-0.733126	-5.538640E+9	-1.753494E-11	NaN
573	1.000000	0.338734	7.37065e+06	-48439.1	1005.82	-29762.5	0.000000	0.000000	6.338880	-0.050505	NaN	0.000000	0.001586	0.001768	28.083	0.013423	0.001853	7.242466	-111.511	-162.433	-0.047830	0.337386	-0.723521	-0.724870	-0.050505	7.242466	-0.718291	-3.476707E+9	1.452669E-11	NaN
573	1.000000	0.346767	7.37065e+06	-48439.1	1005.82	-29762.5	0.000000	0.000000	6.346917	0.083465	NaN	0.000000	0.001588	0.001755	28.0831	0.065305	0.002043	31.9656	65.2533	-164.432	0.052661	0.345408	-0.715489	-0.716848	0.083465	31.9656	-0.717447	-3.385776E+9	-2.465160E-11	NaN
573	1.000000	0.354730	7.37065e+06	-48439.1	1005.82	-29762.5	0.000000	0.000000	6.354879	0.056543	NaN	0.000000	0.001579	0.001755	28.0816	0.035202	0.002036	17.2885	149.751	-167.865	0.050892	0.353457	-0.707526	-0.708799	0.056543	17.2885	-0.709979	-2.677686E+9	-2.111633E-11	NaN
573	1.000000	0.362736	7.37065e+06	-48439.1	1005.82	-29762.5	0.000000	0.000000	6.362883	-0.013423	NaN	0.000000	0.001559	0.001724	28.0815	0.092309	0.002031	45.4444	-43.2163	-165.712	-0.026937	0.361398	-0.699519	-0.700857	-0.013423	45.4444	-0.699298	-1.914003E+9	7.013220E-12	NaN
573	1.000000	0.370738	7.37065e+06	-48439.1	1005.82	-29762.5	0.000000	0.000000	6.370886	0.024759	NaN	0.000000	0.001578	0.001734	28.0815	0.187288	0.001994	93.9273	12.9106	-165.956	0.013098	0.369410	-0.691518	-0.692846	0.024759	93.9273	-0.691715	-1.507859E+9	-1.642012E-11	NaN
573	1.000000	0.378737	7.37065e+06	-48439.1	1005.82	-29762.5	0.000000	0.000000	6.378885	0.021722	NaN	0.000000	0.001565	0.001718	28.0818	0.076232	0.002160	35.2848	-151.387	-163.428	0.032570	0.377421	-0.683519	-0.684834	0.021722	35.2848	-0.683980	-1.182043E+9	-1.837632E-11	NaN
573	1.000000	0.386726	7.37065e+06	-48439.1	1005.82	-29762.5	0.000000	0.000000	6.386877	0.082730	NaN	0.000000	0.001584	0.001705	28.0815	0.079179	0.002022	39.1649	-127.528	-162.457	0.007914	0.385391	-0.675529	-0.676865	0.082730	39.1649	-0.677113	-9.521912E+8	-8.688410E-11	NaN
573	1.000000	0.394735	7.37065e+06	-48439.1	1005.82	-29762.5	0.000000	0.000000	6.394882	-0.012340	NaN	0.000000	0.001575	0.001734	28.0815	0.104141	0.001877	55.4817	57.3695	-165.088	-0.101203	0.393476	-0.667520	-0.668780	-0.012340	55.4817	-0.667353	-7.001070E+8	1.762618E-11	NaN
573	1.000000	0.402741	7.37065e+06	-48439.1	1005.82	-29762.5	0.000000	0.000000	6.402889	0.028007	NaN	0.000000	0.001585	0.001756	28.0814	0.048700	0.001999	24.3561	158.081	-164.182	0.067868	0.401404	-0.659515	-0.660852	0.028007	24.3561	-0.660377	-5.618728E+8	-4.984518E-11	NaN
573	1.000000	0.410781	7.37065e+06	-48439.1	1005.82	-29762.5	0.000000	0.000000	6.410925	-0.069444	NaN	0.000000	0.001638	0.001750	28.0813	0.010851	0.002006	5.410408	179.72	-160.924	-0.005809	0.409410	-0.651475	-0.652845	-0.069444	5.410408	-0.641849	-3.130772E+8	2.218109E-10	NaN
573	1.000000	0.418740	7.37065e+06	-48439.1	1005.82	-29762.5	0.000000	0.000000	6.418892	0.119317	NaN	0.000000	0.001628	0.001765	28.0816	0.124608	0.002064	60.3621	112.799	-164.812	0.052822	0.417474	-0.643516	-0.644781	0.119317	60.3621	-0.644998	-3.458209E+8	-3.450261E-10	NaN
573	1.000000	0.426740	7.37065e+06	-48439.1	1005.82	-29762.5	0.000000	0.000000	6.426889	0.017353	NaN	0.000000	0.001611	0.001720	28.0816	0.067160	0.001872	35.8819	-102.581	-165.996	0.006744	0.425455	-0.635515	-0.636801	0.017353	35.8819	-0.635878	-2.592517E+8	-6.693410E-11	NaN
573	1.000000	0.434784	7.37065e+06	-48439.1	1005.82	-29762.5	0.000000	0.000000	6.434932	0.005272	NaN	0.000000	0.001579	0.001748	28.0816	0.123088	0.002010	61.2379	-58.8285	-163.776	0.032356	0.433367	-0.627472	-0.628889	0.005272	61.2379	-0.627536	-1.991528E+8	-2.647077E-11	NaN
573	1.000000	0.442783	7.37065e+06	-48439.1	1005.82	-29762.5	0.000000	0.000000	6.442934	0.077793	NaN	0.000000	0.001598	0.001770	28.0817	0.019025	0.001912	9.948257	-92.9119	-163.638	0.091714	0.441448	-0.619472	-0.620808	0.077793	9.948257	-0.625337	-1.857712E+8	-4.187568E-10	NaN
573	1.000000	0.450784	7.37065e+06	-48439.1	1005.82	-29762.5	0.000000	0.000000	6.450931	-0.017911	NaN	0.000000	0.001602	0.001746	28.0814	0.081696	0.001853	44.0933	-23.6912	-164.019	0.010681	0.449358	-0.611471	-0.612897	-0.017911	44.0933	-0.611167	-1.186224E+8	1.509888E-10	NaN
573	1.000000	0.458760	7.37065e+06	-48439.1	1005.82	-29762.5	0.000000	0.000000	6.458911	0.069627	NaN	0.000000	0.001613	0.001794	28.0814	0.064986	0.002112	30.7643	-52.4501	-164.561	-0.036899	0.457437	-0.603495	-0.604819	0.069627	30.7643	-0.605193	-9.816522E+7	-7.092837E-10	NaN
573	1.000000	0.466805	7.37065e+06	-48439.1	1005.82	-29762.5	0.000000	0.000000	6.466950	-0.060220	NaN	0.000000	0.001603	0.001755	28.0813	0.140465	0.001978	71.0066	114.572	-161.902	-0.011860	0.465467	-0.595451	-0.596788	-0.060220	71.0066	-0.594815	-7.063619E+7	8.525342E-10	NaN
573	1.000000	0.474802	7.37065e+06	-48439.1	1005.82	-29762.5	0.000000	0.000000	6.474948	-0.032562	NaN	0.000000	0.001618	0.001790	28.0816	0.109249	0.002003	54.5423	-76.1009	-165.468	-0.024130	0.473493	-0.587454	-0.588762	-0.032562	54.5423	-0.587006	-5.512910E+7	5.906496E-10	NaN
573	1.000000	0.482800	7.37065e+06	-48439.1	1005.82	-29762.5	0.000000	0.000000	6.482950	0.057671	NaN	0.000000	0.001578	0.001788	28.0814	0.089555	0.001866	47.9884	-108.181	-163.472	0.020895	0.481492	-0.579455	-0.580764	0.057671	47.9884	-0.580357	-4.463218E+7	-1.292134E-9	NaN
573	1.000000	0.490786	7.37065e+06	-48439.1	1005.82	-29762.5	0.000000	0.000000	6.490933	-0.012850	NaN	0.000000	0.001577	0.001759	28.0826	0.053130	0.001945	27.3152	-77.8463	-166.307	-0.018210	0.489460	-0.571470	-0.572796	-0.012850	27.3152	-0.571117	-3.327097E+7	3.862224E-10	NaN
573	1.000000	0.498796	7.37065e+06	-48439.1	1005.82	-29762.5	0.000000	0.000000	6.498942	-0.028992	NaN	0.000000	0.001617	0.001748	28.0827	0.065075	0.002076	31.3461	-99.803	-165.178	-0.001331	0.497496	-0.563460	-0.564760	-0.028992	31.3461	-0.562766	-2.550550E+7	1.136695E-9	NaN
573	1.000000	0.506776	7.37065e+06	-48439.1	1005.82	-29762.5	0.000000	0.000000	6.506927	0.090169	NaN	0.000000	0.001589	0.001765	28.0827	0.057115	0.001998	28.5925	-8.296751	-165.477	0.077116	0.505506	-0.555480	-0.556750	0.090169	28.5925	-0.557845	-2.180518E+7	-4.135200E-9	NaN
573	1.000000	0.514827	7.37065e+06	-48439.1	1005.82	-29762.5	0.000000	0.000000	6.514977	0.041952	NaN	0.000000	0.001559	0.001724	28.0829	0.084737	0.001994	42.505	-64.6234	-167.991	0.060745	0.513470	-0.547428	-0.548785	0.041952	42.505	-0.548168	-1.601710E+7	-2.619208E-9	NaN
573	1.000000	0.522774	7.37065e+06	-48439.1	1005.82	-29762.5	0.000000	0.000000	6.522924	0.050649	NaN	0.000000	0.001618	0.001769	28.0829	0.027635	0.002103	13.1394	42.0965	-165.821	0.072745	0.521479	-0.539481	-0.540776	0.050649	13.1394	-0.542372	-1.331236E+7	-3.804695E-9	NaN
573	1.000000	0.530778	7.37065e+06	-48439.1	1005.82	-29762.5	0.000000	0.000000	6.530925	-0.002347	NaN	0.000000	0.001581	0.001752	28.0829	0.042935	0.002042	21.0256	-39.5883	-168.243	0.009036	0.529541	-0.531478	-0.532714	-0.002347	21.0256	-0.531394	-9.37426e+06	2.503554E-10	NaN
573	1.000000	0.538785	7.37065e+06	-48439.1	1005.82	-29762.5	0.000000	0.000000	6.538932	-0.021153	NaN	0.000000	0.001613	0.001730	28.083	0.118460	0.001934	61.2666	-97.5046	-168.176	-0.017842	0.537482	-0.523471	-0.524774	-0.021153	61.2666	-0.523212	-7.21529e+06	2.931754E-9	NaN
573	1.000000	0.546826	7.37065e+06	-48439.1	1005.82	-29762.5	0.000000	0.000000	6.546974	0.024375	NaN	0.000000	0.001605	0.001768	28.0828	0.049421	0.002010	24.5905	-32.4048	-165.598	0.023613	0.545538	-0.515430	-0.516718	0.024375	24.5905	-0.516173	-5.7592e+06	-4.232324E-9	NaN
573	1.000000	0.554795	7.37065e+06	-48439.1	1005.82	-29762.5	0.000000	0.000000	6.554944	0.035372	NaN	0.000000	0.001614	0.001747	28.0829	0.052910	0.002020	26.1934	1.552315	-170.919	-0.055429	0.553541	-0.507460	-0.508714	0.035372	26.1934	-0.508473	-4.49928e+06	-7.861623E-9	NaN
573	1.000000	0.562795	7.37065e+06	-48439.1	1005.82	-29762.5	0.000000	0.000000	6.562944	0.035919	NaN	0.000000	0.001597	0.001768	28.0829	0.012992	0.001957	6.638059	121.259	-166.641	-0.006448	0.561472	-0.499460	-0.500783	0.035919	6.638059	-0.503518	-3.83787e+06	-9.359059E-9	NaN
573	1.000000	0.570811	7.37065e+06	-48439.1	1005.82	-29762.5	0.000000	0.000000	6.570958	-0.015691	NaN	0.000000	0.001620	0.001767	28.0829	0.038966	0.002092	18.6257	11.4737	-163.851	-0.006616	0.569515	-0.491444	-0.492741	-0.015691	18.6257	-0.490812	-2.5512e+06	6.150581E-9	NaN
573	1.000000	0.578818	7.37065e+06	-48439.1	1005.82	-29762.5	0.000000	0.000000	6.578968	0.074769	NaN	0.000000	0.001604	0.001788	28.0826	0.117939	0.002077	56.7715	140.821	-168.351	0.012563	0.577495	-0.483438	-0.484760	0.074769	56.7715	-0.484426	-2.07709e+06	-3.599697E-8	NaN
573	1.000000	0.586819	7.37065e+06	-48439.1	1005.82	-29762.5	0.000000	0.000000	6.586966	-0.022725	NaN	0.000000	0.001575	0.001796	28.0827	0.062094	0.001966	31.5839	117.637	-165.741	-0.038378	0.585541	-0.475436	-0.476714	-0.022725	31.5839	-0.474897	-1.52774e+06	1.487495E-8	NaN
573	1.000000	0.594797	7.37065e+06	-48439.1	1005.82	-29762.5	0.000000	0.000000	6.594948	0.078645	NaN	0.000000	0.001592	0.001744	28.083	0.058980	0.002043	28.8647	154.259	-163.792	0.007118	0.593500	-0.467459	-0.468756	0.078645	28.8647	-0.469502	-1.28358e+06	-6.127005E-8	NaN
573	1.000000	0.602831	7.37065e+06	-48439.1	1005.82	-29762.5	0.000000	0.000000	6.602979	0.016746	NaN	0.000000	0.001622	0.001769	28.0826	0.035077	0.001943	18.0518	155.718	-166.946	-0.030952	0.601490	-0.459425	-0.460766	0.016746	18.0518	-0.460121	-947800	-1.766836E-8	NaN
573	1.000000	0.610821	7.37065e+06	-48439.1	1005.82	-29762.5	0.000000	0.000000	6.610971	0.072629	NaN	0.000000	0.001642	0.001763	28.0825	0.095273	0.001812	52.566	-35.3559	-164.473	0.058702	0.609498	-0.451435	-0.452758	0.072629	52.566	-0.452471	-739837	-9.816828E-8	NaN
573	1.000000	0.618829	7.37066e+06	-48439.1	1005.82	-29762.5	0.000000	0.000000	6.618976	-0.017054	NaN	0.000000	0.001612	0.001799	28.0825	0.079079	0.001984	39.8668	116.817	-167.394	0.044132	0.617546	-0.443426	-0.444709	-0.017054	39.8668	-0.443106	-545985	3.123539E-8	NaN
573	1.000000	0.626837	7.37066e+06	-48439.1	1005.82	-29762.5	0.000000	0.000000	6.626988	0.078165	NaN	0.000000	0.001634	0.001806	28.0816	0.030264	0.002120	14.2722	-12.2403	-168.607	0.065544	0.625486	-0.435418	-0.436770	0.078165	14.2722	-0.439526	-486040	-1.608198E-7	NaN
573	1.000000	0.634846	7.37066e+06	-48439.1	1005.82	-29762.5	0.000000	0.000000	6.634994	-0.006024	NaN	0.000000	0.001617	0.001811	28.0814	0.083111	0.002080	39.9482	147.472	-165.471	0.045426	0.633567	-0.427409	-0.428689	-0.006024	39.9482	-0.427296	-326436	1.845534E-8	NaN
573	1.000000	0.642852	7.37066e+06	-48439.1	1005.82	-29762.5	0.000000	0.000000	6.642998	-0.028547	NaN	0.000000	0.001627	0.001836	28.0813	0.153222	0.001991	76.9682	-30.5267	-163.336	-0.075476	0.641551	-0.419404	-0.420705	-0.028547	76.9682	-0.419126	-250041	1.141686E-7	NaN
573	1.000000	0.650885	7.37066e+06	-48439.1	1005.82	-29762.5	0.000000	0.000000	6.651031	-0.014275	NaN	0.000000	0.001657	0.001776	28.0814	0.081482	0.002080	39.1797	-106.766	-166.199	-0.007250	0.649594	-0.411371	-0.412662	-0.014275	39.1797	-0.411098	-192313	7.422684E-8	NaN
573	1.000000	0.658879	7.37066e+06	-48439.1	1005.82	-29762.5	0.000000	0.000000	6.659026	-0.023197	NaN	0.000000	0.001620	0.001816	28.0814	0.082262	0.001897	43.3735	110.889	-163.547	-0.104481	0.657553	-0.403377	-0.404702	-0.023197	43.3735	-0.402975	-147370	1.574047E-7	NaN
573	1.000000	0.666862	7.37066e+06	-48439.1	1005.82	-29762.5	0.000000	0.000000	6.667011	0.040495	NaN	0.000000	0.001625	0.001800	28.0816	0.068005	0.001991	34.1518	-168.735	-164.122	0.009543	0.665558	-0.395393	-0.396698	0.040495	34.1518	-0.396283	-118291	-3.423312E-7	NaN
573	1.000000	0.674855	7.37066e+06	-48439.1	1005.82	-29762.5	0.000000	0.000000	6.675004	0.042737	NaN	0.000000	0.001592	0.001849	28.0813	0.144426	0.001950	74.0517	-13.4328	-168.499	-0.020432	0.673538	-0.387401	-0.388717	0.042737	74.0517	-0.387834	-89571.6	-4.771241E-7	NaN
573	1.000000	0.682838	7.37066e+06	-48439.1	1005.82	-29762.5	0.000000	0.000000	6.682984	-0.016022	NaN	0.000000	0.001597	0.001806	28.0815	0.113658	0.002019	56.2985	73.0028	-167.431	-0.023016	0.681535	-0.379418	-0.380721	-0.016022	56.2985	-0.379205	-67371.1	2.378106E-7	NaN
573	1.000000	0.690835	7.37066e+06	-48439.1	1005.82	-29762.5	0.000000	0.000000	6.690982	-0.005563	NaN	0.000000	0.001575	0.001790	28.0816	0.009964	0.002035	4.896322	-71.7298	-166.787	-0.033640	0.689570	-0.371420	-0.372686	-0.005563	4.896322	-0.370568	-50618.6	1.098993E-7	NaN
573	1.000000	0.698900	7.37066e+06	-48439.1	1005.82	-29762.5	0.000000	0.000000	6.699047	-0.007176	NaN	0.000000	0.001681	0.001788	28.0813	0.092008	0.002063	44.6091	-116.594	-164.374	0.004596	0.697559	-0.363355	-0.364697	-0.007176	44.6091	-0.363235	-39680.3	1.808399E-7	NaN
573	1.000000	0.706855	7.37066e+06	-48439.1	1005.82	-29762.5	0.000000	0.000000	6.707003	0.010996	NaN	0.000000	0.001682	0.001796	28.0814	0.021809	0.001920	11.3565	-47.7531	-169.323	0.035887	0.705499	-0.355400	-0.356756	0.010996	11.3565	-0.356126	-31319.1	-3.511023E-7	NaN
573	1.000000	0.714915	7.37066e+06	-48439.1	1005.82	-29762.5	0.000000	0.000000	6.715064	0.030940	NaN	0.000000	0.001610	0.001788	28.0812	0.061372	0.001957	31.3669	104.651	-166.89	0.007762	0.713546	-0.347341	-0.348710	0.030940	31.3669	-0.348081	-23940.4	-1.292374E-6	NaN
573	1.000000	0.722891	7.37066e+06	-48439.1	1005.82	-29762.5	0.000000	0.000000	6.723040	0.051489	NaN	0.000000	0.001580	0.001820	28.0816	0.095068	0.001929	49.2748	-69.1689	-168.189	0.050294	0.721579	-0.339365	-0.340677	0.051489	49.2748	-0.340149	-18353.7	-2.805374E-6	NaN
573	1.000000	0.730887	7.37066e+06	-48439.1	1005.82	-29762.5	0.000000	0.000000	6.731036	0.040973	NaN	0.000000	0.001586	0.001792	28.0815	0.060337	0.002058	29.3167	108.6	-166.886	0.068645	0.729625	-0.331368	-0.332631	0.040973	29.3167	-0.332417	-14152.1	-2.895202E-6	NaN
573	1.000000	0.738898	7.37066e+06	-48439.1	1005.82	-29762.5	0.000000	0.000000	6.739044	-0.049121	NaN	0.000000	0.001619	0.001819	28.0814	0.053282	0.001948	27.3577	155.026	-168.807	0.018625	0.737567	-0.323357	-0.324688	-0.049121	27.3577	-0.322011	-9959.06	4.932338E-6	NaN
573	1.000000	0.746872	7.37066e+06	-48439.1	1005.82	-29762.5	0.000000	0.000000	6.747021	0.034909	NaN	0.000000	0.001577	0.001818	28.0815	0.063613	0.002046	31.0844	-89.7722	-161.911	0.163514	0.745573	-0.315384	-0.316682	0.034909	31.0844	-0.316226	-8185.28	-4.264896E-6	NaN
573	1.000000	0.754872	7.37066e+06	-48439.1	1005.82	-29762.5	0.000000	0.000000	6.755017	-0.061906	NaN	0.000000	0.001606	0.001812	28.0813	0.056230	0.001960	28.6882	-154.612	-165.666	-0.012031	0.753624	-0.307383	-0.308632	-0.061906	28.6882	-0.305765	-5731.97	1.080010E-5	NaN
573	1.000000	0.762884	7.37066e+06	-48439.1	1005.82	-29762.5	0.000000	0.000000	6.763031	0.003410	NaN	0.000000	0.001577	0.001794	28.0825	0.084756	0.001985	42.704	-127.07	-165.483	0.034697	0.761618	-0.299372	-0.300638	0.003410	42.704	-0.299432	-4615.04	-7.388109E-7	NaN
573	1.000000	0.770944	7.37066e+06	-48439.1	1005.82	-29762.5	0.000000	0.000000	6.771093	0.027379	NaN	0.000000	0.001597	0.001766	28.0825	0.135179	0.002017	67.0248	-91.1235	-165.544	0.064059	0.769575	-0.291311	-0.292681	0.027379	67.0248	-0.291618	-3527.97	-7.760518E-6	NaN
573	1.000000	0.778887	7.37066e+06	-48439.1	1005.82	-29762.5	0.000000	0.000000	6.779034	0.001926	NaN	0.000000	0.001607	0.001803	28.0833	0.055720	0.002091	26.6519	-122.5	-165.132	-0.018320	0.777644	-0.283369	-0.284612	0.001926	26.6519	-0.283423	-2657.94	-7.244630E-7	NaN
573	1.000000	0.786908	7.37066e+06	-48439.1	1005.82	-29762.5	0.000000	0.000000	6.787057	0.028891	NaN	0.000000	0.001605	0.001813	28.0827	0.077834	0.002108	36.9223	141.143	-165.278	0.020758	0.785597	-0.275347	-0.276659	0.028891	36.9223	-0.275934	-2048.99	-1.410015E-5	NaN
573	1.000000	0.794925	7.37066e+06	-48439.1	1005.82	-29762.5	0.000000	0.000000	6.795072	-0.005229	NaN	0.000000	0.001581	0.001851	28.0827	0.008131	0.001994	4.078122	49.8328	-167.061	0.039299	0.793589	-0.267331	-0.268667	-0.005229	4.078122	-0.266369	-1466.49	3.565411E-6	NaN
573	1.000000	0.802894	7.37066e+06	-48439.1	1005.82	-29762.5	0.000000	0.000000	6.803041	0.006268	NaN	0.000000	0.001608	0.001791	28.0826	0.078344	0.002058	38.0619	142.416	-164.286	0.006490	0.801624	-0.259362	-0.260632	0.006268	38.0619	-0.259485	-1150.88	-5.446673E-6	NaN
573	1.000000	0.810902	7.37066e+06	-48439.1	1005.82	-29762.5	0.000000	0.000000	6.811050	0.005686	NaN	0.000000	0.001586	0.001782	28.0826	0.111930	0.002117	52.875	-75.7874	-168.736	0.019289	0.809618	-0.251353	-0.252637	0.005686	52.875	-0.251434	-865.226	-6.571851E-6	NaN
573	1.000000	0.818883	7.37066e+06	-48439.1	1005.82	-29762.5	0.000000	0.000000	6.819032	0.029528	NaN	0.000000	0.001632	0.001812	28.0827	0.046999	0.002006	23.4299	-162.906	-163.296	0.040751	0.817632	-0.243372	-0.244623	0.029528	23.4299	-0.244318	-671.187	-4.399437E-5	NaN
573	1.000000	0.826915	7.37066e+06	-48439.1	1005.82	-29762.5	0.000000	0.000000	6.827063	0.012043	NaN	0.000000	0.001576	0.001800	28.0827	0.089177	0.001885	47.3136	139.424	-167.57	0.102016	0.825645	-0.235341	-0.236610	0.012043	47.3136	-0.235532	-489.322	-2.461136E-5	NaN
573	1.000000	0.834939	7.37066e+06	-48439.1	1005.82	-29762.5	0.000000	0.000000	6.835086	-0.010612	NaN	0.000000	0.001583	0.001807	28.0829	0.060941	0.002020	30.1705	-141.529	-167.823	-0.006668	0.833613	-0.227317	-0.228643	-0.010612	30.1705	-0.227053	-359.669	2.950451E-5	NaN
573	1.000000	0.842917	7.37066e+06	-48439.1	1005.82	-29762.5	0.000000	0.000000	6.843066	0.029711	NaN	0.000000	0.001598	0.001800	28.0828	0.032342	0.001992	16.2358	-154.09	-166.493	0.048994	0.841667	-0.219339	-0.220589	0.029711	16.2358	-0.220711	-285.127	-0.000104	NaN
573	1.000000	0.850925	7.37066e+06	-48439.1	1005.82	-29762.5	0.000000	0.000000	6.851074	0.046743	NaN	0.000000	0.001688	0.001811	28.0829	0.122720	0.001997	61.4541	80.6552	-164.409	0.015892	0.849637	-0.211331	-0.212619	0.046743	61.4541	-0.211901	-205.857	-0.000227	NaN
573	1.000000	0.858918	7.37066e+06	-48439.1	1005.82	-29762.5	0.000000	0.000000	6.859066	0.009904	NaN	0.000000	0.001667	0.001803	28.0826	0.044774	0.002014	22.2351	-30.8977	-165.76	-0.000703	0.857588	-0.203338	-0.204668	0.009904	22.2351	-0.203672	-151.313	-6.545436E-5	NaN
573	1.000000	0.866937	7.37066e+06	-48439.1	1005.82	-29762.5	0.000000	0.000000	6.867086	0.037270	NaN	0.000000	0.001657	0.001781	28.0828	0.063810	0.002066	30.8832	-53.2106	-169.461	0.023587	0.865643	-0.195319	-0.196613	0.037270	30.8832	-0.196224	-114.145	-0.000327	NaN
573	1.000000	0.874912	7.37066e+06	-48439.1	1005.82	-29762.5	0.000000	0.000000	6.875060	0.018565	NaN	0.000000	0.001617	0.001790	28.0829	0.171386	0.002121	80.7891	-41.2092	-165.678	-0.006885	0.873647	-0.187344	-0.188608	0.018565	80.7891	-0.187516	-81.7415	-0.000227	NaN
573	1.000000	0.882928	7.37066e+06	-48439.1	1005.82	-29762.5	0.000000	0.000000	6.883076	0.029422	NaN	0.000000	0.001624	0.001757	28.0829	0.091365	0.002021	45.2183	122.433	-160.501	0.061726	0.881616	-0.179328	-0.180640	0.029422	45.2183	-0.179816	-60.5812	-0.000486	NaN
573	1.000000	0.890968	7.37066e+06	-48439.1	1005.82	-29762.5	0.000000	0.000000	6.891116	0.011745	NaN	0.000000	0.001614	0.001784	28.083	0.062562	0.002052	30.4876	100.914	-167.557	0.046654	0.889599	-0.171288	-0.172657	0.011745	30.4876	-0.171577	-43.7468	-0.000268	NaN
573	1.000000	0.898965	7.37066e+06	-48439.1	1005.82	-29762.5	0.000000	0.000000	6.899113	0.006481	NaN	0.000000	0.001585	0.001753	28.0814	0.020412	0.001909	10.6944	-4.775873	-167.042	-0.009969	0.897589	-0.163290	-0.164666	0.006481	10.6944	-0.163745	-31.9324	-0.000203	NaN
573	1.000000	0.906955	7.37066e+06	-48439.1	1005.82	-29762.5	0.000000	0.000000	6.907102	-0.009915	NaN	0.000000	0.001640	0.001749	28.0816	0.017458	0.001969	8.867036	50.1903	-164.775	0.043660	0.905604	-0.155300	-0.156652	-0.009915	8.867036	-0.154462	-21.8217	0.000454	NaN
573	1.000000	0.914957	7.37066e+06	-48439.1	1005.82	-29762.5	0.000000	0.000000	6.915107	0.064177	NaN	0.000000	0.001584	0.001739	28.0814	0.084638	0.002056	41.1666	144.528	-161.809	0.131911	0.913645	-0.147299	-0.148610	0.064177	41.1666	-0.148468	-16.9828	-0.003779	NaN
573	1.000000	0.922971	7.37066e+06	-48439.1	1005.82	-29762.5	0.000000	0.000000	6.923118	-0.003426	NaN	0.000000	0.001571	0.001751	28.0815	0.101977	0.002076	49.1113	-24.4184	-166.827	-0.010821	0.921660	-0.139285	-0.140596	-0.003426	49.1113	-0.139232	-11.4428	0.000299	NaN
573	1.000000	0.930949	7.37066e+06	-48439.1	1005.82	-29762.5	0.000000	0.000000	6.931095	-0.021726	NaN	0.000000	0.001590	0.001748	28.0817	0.064881	0.001911	33.9546	74.9234	-170.344	-0.021708	0.929655	-0.131307	-0.132601	-0.021726	33.9546	-0.130827	-7.907722	0.002747	NaN
573	1.000000	0.938972	7.37066e+06	-48439.1	1005.82	-29762.5	0.000000	0.000000	6.939122	0.050575	NaN	0.000000	0.001589	0.001774	28.0816	0.112781	0.001993	56.5992	-151.128	-164.816	0.020523	0.937612	-0.123283	-0.124644	0.050575	56.5992	-0.123953	-5.797512	-0.008723	NaN
573	1.000000	0.946987	7.37066e+06	-48439.1	1005.82	-29762.5	0.000000	0.000000	6.947135	0.017779	NaN	0.000000	0.001612	0.001738	28.0817	0.020480	0.002042	10.0274	-71.6104	-164.327	0.048290	0.945651	-0.115269	-0.116604	0.017779	10.0274	-0.116599	-4.120492	-0.004315	NaN
573	1.000000	0.954951	7.37066e+06	-48439.1	1005.82	-29762.5	0.000000	0.000000	6.955100	0.028733	NaN	0.000000	0.001603	0.001766	28.0812	0.116007	0.002074	55.9227	-177.385	-167.883	-0.016396	0.953633	-0.107305	-0.108623	0.028733	55.9227	-0.107690	-2.684703	-0.010702	NaN
573	1.000000	0.962950	7.37066e+06	-48439.1	1005.82	-29762.5	0.000000	0.000000	6.963098	0.009438	NaN	0.000000	0.001624	0.001768	28.0815	0.012057	0.001869	6.452623	-80.8878	-166.104	0.014734	0.961672	-0.099306	-0.100584	0.009438	6.452623	-0.100403	-1.865074	-0.005060	NaN
573	1.000000	0.970985	7.37066e+06	-48439.1	1005.82	-29762.5	0.000000	0.000000	6.971134	0.059958	NaN	0.000000	0.001603	0.001744	28.0816	0.059577	0.002032	29.3209	153.392	-163.929	0.071922	0.969672	-0.091271	-0.092584	0.059958	29.3209	-0.092805	-1.256256	-0.047728	NaN
573	1.000000	0.979006	7.37066e+06	-48439.1	1005.82	-29762.5	0.000000	0.000000	6.979152	-0.051552	NaN	0.000000	0.001627	0.001774	28.0819	0.058639	0.001984	29.5485	-72.409	-165.542	-0.018911	0.977660	-0.083249	-0.084595	-0.051552	29.5485	-0.081941	-0.691683	0.074532	NaN
573	1.000000	0.987023	7.37066e+06	-48439.1	1005.82	-29762.5	0.000000	0.000000	6.987170	-0.000493	NaN	0.000000	0.001615	0.001779	28.0817	0.115942	0.001987	58.3552	-139.76	-166.259	-0.027524	0.985621	-0.075233	-0.076634	-0.000493	58.3552	-0.075227	-0.468147	0.001052	NaN
573	1.000000	0.994985	7.37066e+06	-48439.1	1005.82	-29762.5	0.000000	0.000000	6.995133	0.020278	NaN	0.000000	0.001623	0.001782	28.0815	0.025276	0.001945	12.9957	-139.963	-163.572	-0.034636	0.993716	-0.067271	-0.068540	0.020278	12.9957	-0.068441	-0.309675	-0.065482	NaN
573	1.000000	1.002998	7.37066e+06	-48439.1	1005.82	-29762.5	0.000000	0.000000	7.003147	0.045228	NaN	0.000000	0.001601	0.001799	28.0815	0.102446	0.002011	50.9307	-90.8652	-166.918	-0.076865	1.001718	-0.059258	-0.060537	0.045228	50.9307	-0.059924	-0.179192	-0.252401	NaN
573	1.000000	1.011036	7.37066e+06	-48439.1	1005.82	-29762.5	0.000000	0.000000	7.011186	0.072850	NaN	0.000000	0.001670	0.001769	28.0815	0.057515	0.002066	27.8442	-91.5887	-162.513	0.123666	1.009652	-0.051220	-0.052604	0.072850	27.8442	-0.053182	-0.113723	-0.640595	NaN
573	1.000000	1.018976	7.37066e+06	-48439.1	1005.82	-29762.5	0.000000	0.000000	7.019125	0.035558	NaN	0.000000	0.001623	0.001759	28.0816	0.038043	0.002035	18.693	4.716890	-166.93	0.033270	1.017716	-0.043280	-0.044540	0.035558	18.693	-0.044706	-0.062952	-0.564848	NaN
573	1.000000	1.027027	7.37066e+06	-48439.1	1005.82	-29762.5	0.000000	0.000000	7.027178	0.079552	NaN	0.000000	0.001629	0.001760	28.0816	0.110307	0.002009	54.8975	-146.297	-166.187	0.032690	1.025680	-0.035229	-0.036575	0.079552	54.8975	-0.036316	-0.035030	-2.270950	NaN
573	1.000000	1.034997	7.37066e+06	-48439.1	1005.82	-29762.5	0.000000	0.000000	7.035146	0.030781	NaN	0.000000	0.001635	0.001757	28.0829	0.014724	0.002008	7.330844	-78.0519	-165.135	0.016772	1.033684	-0.027258	-0.028572	0.030781	7.330844	-0.030408	-0.023624	-1.302960	NaN
573	1.000000	1.043014	7.37066e+06	-48439.1	1005.82	-29762.5	0.000000	0.000000	7.043162	0.011391	NaN	0.000000	0.001634	0.001743	28.0827	0.041914	0.001958	21.4096	142.315	-167.028	0.067472	1.041671	-0.019241	-0.020585	0.011391	21.4096	-0.019641	-0.012299	-0.926201	NaN
573	1.000000	1.051003	7.37066e+06	-48439.1	1005.82	-29762.5	0.000000	0.000000	7.051152	0.029791	NaN	0.000000	0.001662	0.001757	28.0827	0.055391	0.001964	28.2095	-153.058	-168.131	0.032476	1.049710	-0.011252	-0.012545	0.029791	28.2095	-0.012044	-0.007554	-3.943832	NaN
573	1.000000	1.059026	7.37066e+06	-48439.1	1005.82	-29762.5	0.000000	0.000000	7.059228	1.328356	NaN	0.000000	0.001663	0.001758	28.0825	1.913001	0.001961	975.709	11.0368	-168.777	0.522108	1.057746	-0.003229	-0.004510	1.328356	975.709	-0.004251	-0.002940	-451.745	NaN
573	2.000000	1.066468	7.37066e+06	-48439.1	1005.82	-29762.5	0.000000	0.000000	7.066992	9.167801	NaN	0.000000	0.001630	0.001743	28.0825	9.195696	0.001530	6008.96	9.218882	-172.103	8.527884	1.065602	0.004212	0.003346	9.167801	6008.96	0.003068	0.002437	3761.79	111208
573	2.000000	1.068607	7.37066e+06	-48439.1	1005.82	-29762.5	0.000000	0.000000	7.069231	11.5919	NaN	0.000000	0.001632	0.001762	28.0827	11.2303	0.001441	7793.5	5.064442	-173.345	11.4848	1.068328	0.006351	0.006072	11.5919	7793.5	0.005236	0.004349	2665.12	107966
573	2.000000	1.070607	7.37066e+06	-48439.1	1005.82	-29762.5	0.000000	0.000000	7.071368	14.922	NaN	0.000000	0.001624	0.001756	28.0827	14.3844	0.001731	8311.5	4.755599	-172.424	14.629	1.070303	0.008351	0.008047	14.922	8311.5	0.007005	0.006039	2471.15	97721
573	2.000000	1.072553	7.37066e+06	-48439.1	1005.82	-29762.5	0.000000	0.000000	7.073490	19.2172	NaN	0.000000	0.001627	0.001766	28.0825	16.0492	0.001538	10436.2	7.481830	-178.794	18.4168	1.072290	0.010297	0.010034	19.2172	10436.2	0.008916	0.008002	2401.61	106592
573	2.000000	1.074570	7.37066e+06	-48439.1	1005.82	-29762.5	0.000000	0.000000	7.075650	22.6796	NaN	0.000000	0.001630	0.001753	28.0827	18.8673	0.001713	11011.3	5.569225	-177.758	22.89	1.074293	0.012314	0.012037	22.6796	11011.3	0.010769	0.010049	2256.85	100357
573	2.000000	1.076623	7.37066e+06	-48439.1	1005.82	-29762.5	0.000000	0.000000	7.077869	26.7046	NaN	0.000000	0.001603	0.001744	28.0825	20.9831	0.001722	12186.5	8.548023	-178.843	26.8617	1.076227	0.014367	0.013972	26.7046	12186.5	0.012724	0.012369	2159.01	100112
573	2.000000	1.078533	7.37066e+06	-48439.1	1005.82	-29762.5	0.000000	0.000000	7.079934	30.4806	NaN	0.000000	0.001633	0.001774	28.0834	22.4849	0.001560	14413.5	9.230957	176.574	30.6967	1.078236	0.016278	0.015981	30.4806	14413.5	0.014692	0.014876	2048.92	107968
573	2.000000	1.080467	7.37066e+06	-48439.1	1005.82	-29762.5	0.000000	0.000000	7.082061	35.1795	NaN	0.000000	0.001558	0.001765	28.0829	25.6697	0.001862	13784.5	2.965913	-176.517	32.6026	1.080219	0.018212	0.017963	35.1795	13784.5	0.016298	0.017055	2062.73	96436.4
573	2.000000	1.082541	7.37066e+06	-48439.1	1005.82	-29762.5	0.000000	0.000000	7.084468	43.2864	NaN	0.000000	0.001590	0.001741	28.0825	26.7318	0.001809	14778.9	4.894223	-176.665	44.1384	1.082192	0.020286	0.019937	43.2864	14778.9	0.018089	0.019628	2205.39	96378.6
573	2.000000	1.084528	7.37066e+06	-48439.1	1005.82	-29762.5	0.000000	0.000000	7.086558	45.7892	NaN	0.000000	0.001604	0.001745	28.0827	29.1462	0.001781	16367.4	5.477248	179.272	45.637	1.084234	0.022272	0.021978	45.7892	16367.4	0.020174	0.022816	2006.9	98999.4
573	2.000000	1.086576	7.37066e+06	-48439.1	1005.82	-29762.5	0.000000	0.000000	7.088863	52.0322	NaN	0.000000	0.001604	0.001756	28.0826	31.0406	0.001904	16301.8	5.627066	-178.253	53.9892	1.086231	0.024321	0.023975	52.0322	16301.8	0.021927	0.025661	2027.68	92976.4
573	2.000000	1.088522	7.37066e+06	-48439.1	1005.82	-29762.5	0.000000	0.000000	7.091048	57.8572	NaN	0.000000	0.001591	0.001752	28.0829	33.1628	0.001788	18548.8	5.870925	177.271	59.2389	1.088187	0.026266	0.025931	57.8572	18548.8	0.023927	0.029093	1988.73	99357
573	2.000000	1.090454	7.37066e+06	-48439.1	1005.82	-29762.5	0.000000	0.000000	7.093321	66.1417	NaN	0.000000	0.001638	0.001798	28.0829	35.2286	0.001765	19959.8	2.466165	-179.354	62.8982	1.090186	0.028199	0.027931	66.1417	19959.8	0.025714	0.032327	2046.05	101426
573	2.000000	1.092473	7.37066e+06	-48439.1	1005.82	-29762.5	0.000000	0.000000	7.095481	69.5798	NaN	0.000000	0.001610	0.001749	28.0816	36.7628	0.001797	20456.6	4.627586	179.716	68.6939	1.092124	0.030217	0.029869	69.5798	20456.6	0.027666	0.036045	1930.36	98442.7
573	2.000000	1.094427	7.37066e+06	-48439.1	1005.82	-29762.5	0.000000	0.000000	7.098033	84.1215	NaN	0.000000	0.001654	0.001742	28.0815	38.8122	0.001831	21202.7	6.649704	176.865	81.2938	1.094125	0.032171	0.031870	84.1215	21202.7	0.029196	0.039093	2151.84	97975
573	2.000000	1.096448	7.37066e+06	-48439.1	1005.82	-29762.5	0.000000	0.000000	7.100444	93.6001	NaN	0.000000	0.001611	0.001757	28.0814	40.4727	0.001707	23704.6	6.500882	174.843	88.3358	1.096107	0.034192	0.033851	93.6001	23704.6	0.031231	0.043334	2159.98	104038
573	2.000000	1.098438	7.37066e+06	-48439.1	1005.82	-29762.5	0.000000	0.000000	7.102545	96.3163	NaN	0.000000	0.001632	0.001764	28.0821	41.6846	0.001737	24002.6	1.849764	-179.886	93.7089	1.098155	0.036182	0.035900	96.3163	24002.6	0.033173	0.047577	2024.44	100539
573	2.000000	1.100494	7.37066e+06	-48439.1	1005.82	-29762.5	0.000000	0.000000	7.104845	102.242	NaN	0.000000	0.001566	0.001745	28.0817	44.2099	0.001795	24623.3	-0.621643	-178.674	102.176	1.100176	0.038238	0.037920	102.242	24623.3	0.035124	0.052034	1964.89	98622
573	2.000000	1.102498	7.37066e+06	-48439.1	1005.82	-29762.5	0.000000	0.000000	7.107443	116.667	NaN	0.000000	0.001575	0.001759	28.0816	46.5248	0.001887	24656.4	6.949145	174.519	116.539	1.102039	0.040243	0.039784	116.667	24656.4	0.036694	0.055764	2092.17	95395.4
573	2.000000	1.104434	7.37066e+06	-48439.1	1005.82	-29762.5	0.000000	0.000000	7.109525	120.253	NaN	0.000000	0.001603	0.001755	28.0817	48.4116	0.001804	26842	4.566207	175.81	117.637	1.104155	0.042178	0.041899	120.253	26842	0.038818	0.061009	1971.07	99286.8
573	2.000000	1.106446	7.37066e+06	-48439.1	1005.82	-29762.5	0.000000	0.000000	7.112099	133.913	NaN	0.000000	0.001602	0.001734	28.0817	50.9051	0.001961	25952.3	8.337220	174.304	130.048	1.106074	0.044190	0.043819	133.913	25952.3	0.040320	0.064859	2064.68	93103
573	2.000000	1.108481	7.37066e+06	-48439.1	1005.82	-29762.5	0.000000	0.000000	7.114500	142.824	NaN	0.000000	0.001592	0.001730	28.082	51.6053	0.001832	28164	5.053561	176.187	142.405	1.108114	0.046225	0.045859	142.824	28164	0.042422	0.070436	2027.7	96954.7
573	2.000000	1.110384	7.37066e+06	-48439.1	1005.82	-29762.5	0.000000	0.000000	7.116566	146.762	NaN	0.000000	0.001622	0.001723	28.0816	53.8635	0.001879	28661.1	3.264298	177.069	142.309	1.110154	0.048128	0.047898	146.762	28661.1	0.044288	0.075579	1941.83	95250.2
573	2.000000	1.112475	7.37066e+06	-48439.1	1005.82	-29762.5	0.000000	0.000000	7.119123	158.127	NaN	0.000000	0.001624	0.001718	28.0815	55.3788	0.001884	29388	4.345168	175.51	156.905	1.112240	0.050219	0.049985	158.127	29388	0.046183	0.080982	1952.61	94351.5
573	2.000000	1.114463	7.37066e+06	-48439.1	1005.82	-29762.5	0.000000	0.000000	7.121661	171.499	NaN	0.000000	0.001615	0.001718	28.0819	55.5198	0.001863	29800.8	0.726375	-179.584	171.053	1.114083	0.052207	0.051827	171.499	29800.8	0.047891	0.086005	1994.05	92840.7
573	2.000000	1.116465	7.37066e+06	-48439.1	1005.82	-29762.5	0.000000	0.000000	7.124198	184.513	NaN	0.000000	0.001598	0.001741	28.0817	58.1843	0.001745	33349.3	2.165808	177.328	181.165	1.116070	0.054209	0.053814	184.513	33349.3	0.050060	0.092597	1992.64	100129
573	2.000000	1.118358	7.37066e+06	-48439.1	1005.82	-29762.5	0.000000	0.000000	7.126366	191.18	NaN	0.000000	0.001624	0.001750	28.0818	59.8392	0.001749	34207.7	3.810231	174.999	186.271	1.118173	0.056103	0.055917	191.18	34207.7	0.051911	0.098412	1942.66	99626.2
573	2.000000	1.120538	7.37066e+06	-48439.1	1005.82	-29762.5	0.000000	0.000000	7.128770	196.63	NaN	0.000000	0.001582	0.001757	28.0818	62.5513	0.001733	36085.2	4.082358	174.664	201.761	1.120221	0.058283	0.057965	196.63	36085.2	0.054196	0.105823	1858.11	101347
573	2.000000	1.122481	7.37066e+06	-48439.1	1005.82	-29762.5	0.000000	0.000000	7.131127	206.708	NaN	0.000000	0.001625	0.001736	28.0819	63.6308	0.001726	36869.1	3.918179	173.661	205.512	1.122264	0.060225	0.060009	206.708	36869.1	0.056021	0.111926	1846.82	100686
573	2.000000	1.124392	7.37066e+06	-48439.1	1005.82	-29762.5	0.000000	0.000000	7.133741	223.801	NaN	0.000000	0.001619	0.001723	28.082	66.5064	0.001776	37452.8	6.778845	171.579	220.685	1.124044	0.062136	0.061788	223.801	37452.8	0.057654	0.117532	1904.17	99811.3
573	2.000000	1.126476	7.37066e+06	-48439.1	1005.82	-29762.5	0.000000	0.000000	7.136320	235.847	NaN	0.000000	0.001579	0.001749	28.0826	68.5094	0.001679	40794.5	7.618797	170.526	234.85	1.126112	0.064220	0.063856	235.847	40794.5	0.059884	0.125392	1880.88	105254
573	2.000000	1.128461	7.37066e+06	-48439.1	1005.82	-29762.5	0.000000	0.000000	7.138902	250.359	NaN	0.000000	0.001582	0.001693	28.0832	69.2252	0.001876	36901.1	4.539901	174.785	249.253	1.127991	0.066205	0.065735	250.359	36901.1	0.061117	0.129842	1928.18	93563.1
573	2.000000	1.130463	7.37066e+06	-48439.1	1005.82	-29762.5	0.000000	0.000000	7.141266	259.179	NaN	0.000000	0.001595	0.001756	28.0829	71.7758	0.001789	40131.1	4.178676	173.135	258.521	1.130173	0.068207	0.067918	259.179	40131.1	0.063363	0.138144	1876.15	98648
573	2.000000	1.132623	7.37066e+06	-48439.1	1005.82	-29762.5	0.000000	0.000000	7.143402	258.577	NaN	0.000000	0.001584	0.001737	28.0829	72.9092	0.001756	41520.5	4.346004	173.594	269.059	1.132232	0.070367	0.069977	258.577	41520.5	0.065696	0.147023	1758.76	98933.5
573	2.000000	1.134496	7.37066e+06	-48439.1	1005.82	-29762.5	0.000000	0.000000	7.146329	284.203	NaN	0.000000	0.001590	0.001757	28.0828	75.0157	0.001814	41349.5	5.489997	172.345	284.9	1.134048	0.072240	0.071792	284.203	41349.5	0.067085	0.152434	1864.43	96761.4
573	2.000000	1.136511	7.37066e+06	-48439.1	1005.82	-29762.5	0.000000	0.000000	7.148888	297.448	NaN	0.000000	0.001587	0.001767	28.0828	76.6559	0.001756	43663.2	6.084473	171.893	299.478	1.136087	0.074255	0.073831	297.448	43663.2	0.069146	0.160631	1851.75	99534.7
573	2.000000	1.138375	7.37066e+06	-48439.1	1005.82	-29762.5	0.000000	0.000000	7.151209	308.575	NaN	0.000000	0.001593	0.001739	28.0831	79.0036	0.001956	40387.5	7.347618	171.211	304.483	1.138031	0.076119	0.075776	308.575	40387.5	0.070389	0.165674	1862.55	90655.4
573	2.000000	1.140455	7.37066e+06	-48439.1	1005.82	-29762.5	0.000000	0.000000	7.153959	324.844	NaN	0.000000	0.001637	0.001737	28.0829	79.8023	0.001922	41516.3	5.318646	172.572	324.354	1.140086	0.078200	0.077831	324.844	41516.3	0.072331	0.173701	1870.13	91010.3
573	2.000000	1.142413	7.37066e+06	-48439.1	1005.82	-29762.5	0.000000	0.000000	7.156640	342.438	NaN	0.000000	0.001585	0.001764	28.0833	79.3628	0.001673	47437.6	1.868585	174.593	342.311	1.142040	0.080157	0.079784	342.438	47437.6	0.074743	0.183917	1861.91	101061
573	2.000000	1.144404	7.37066e+06	-48439.1	1005.82	-29762.5	0.000000	0.000000	7.159256	357.653	NaN	0.000000	0.001597	0.001749	28.0829	82.4512	0.001759	46863.6	-0.684488	177.808	355.344	1.144079	0.082148	0.081824	357.653	46863.6	0.076424	0.191198	1870.59	97919
573	2.000000	1.146483	7.37066e+06	-48439.1	1005.82	-29762.5	0.000000	0.000000	7.161734	367.343	NaN	0.000000	0.001656	0.001764	28.0828	87.5386	0.001799	48669.4	10.799	165.035	369.48	1.146107	0.084228	0.083852	367.343	48669.4	0.078567	0.200672	1830.56	99262.5
573	2.000000	1.148352	7.37066e+06	-48439.1	1005.82	-29762.5	0.000000	0.000000	7.164397	386.667	NaN	0.000000	0.001637	0.001774	28.0827	86.3768	0.001701	50782.1	1.768509	173.972	381.952	1.148095	0.086096	0.085840	386.667	50782.1	0.080385	0.208881	1851.13	101516
573	2.000000	1.150379	7.37066e+06	-48439.1	1005.82	-29762.5	0.000000	0.000000	7.166740	394.34	NaN	0.000000	0.001629	0.001783	28.0826	91.0461	0.001807	50378.3	3.496716	172.054	390.016	1.150056	0.088123	0.087800	394.34	50378.3	0.082253	0.217471	1813.3	98699.7
573	2.000000	1.152492	7.37066e+06	-48439.1	1005.82	-29762.5	0.000000	0.000000	7.169368	406.851	NaN	0.000000	0.001606	0.001785	28.0834	92.8423	0.001795	51724.4	8.243908	166.914	408.34	1.152127	0.090237	0.089871	406.851	51724.4	0.084338	0.227252	1790.31	99132.3
573	2.000000	1.154325	7.37066e+06	-48439.1	1005.82	-29762.5	0.000000	0.000000	7.171756	420.362	NaN	0.000000	0.001623	0.001766	28.0827	94.9284	0.001847	51400.3	5.104633	169.927	414.07	1.154139	0.092070	0.091883	420.362	51400.3	0.085936	0.234887	1789.64	96896.9
573	2.000000	1.156373	7.37066e+06	-48439.1	1005.82	-29762.5	0.000000	0.000000	7.174943	448.051	NaN	0.000000	0.001599	0.001767	28.0828	97.1284	0.001918	50636.9	7.581956	169.111	444.152	1.156053	0.094118	0.093797	448.051	50636.9	0.087482	0.242382	1848.53	93970.3
573	2.000000	1.158354	7.37066e+06	-48439.1	1005.82	-29762.5	0.000000	0.000000	7.177694	466.802	NaN	0.000000	0.001636	0.001767	28.0828	96.9924	0.001814	53462.4	3.599492	172.309	461.723	1.158009	0.096099	0.095753	466.802	53462.4	0.089550	0.252584	1848.11	97189.3
573	2.000000	1.160351	7.37066e+06	-48439.1	1005.82	-29762.5	0.000000	0.000000	7.180145	477.855	NaN	0.000000	0.001616	0.001816	28.0822	99.1155	0.001834	54044.3	3.823342	172.058	473.032	1.160009	0.098095	0.097753	477.855	54044.3	0.091464	0.262198	1822.5	96429.2
573	2.000000	1.162358	7.37066e+06	-48439.1	1005.82	-29762.5	0.000000	0.000000	7.182617	489.149	NaN	0.000000	0.001605	0.001805	28.0819	100.057	0.001866	53610.4	3.646747	171.557	486.777	1.162126	0.100102	0.099871	489.149	53610.4	0.093259	0.271368	1802.53	94024.9
573	2.000000	1.164462	7.37066e+06	-48439.1	1005.82	-29762.5	0.000000	0.000000	7.185390	505.422	NaN	0.000000	0.001594	0.001786	28.0816	102.118	0.001788	57124	3.145002	171.768	506.282	1.164061	0.102207	0.101806	505.422	57124	0.095571	0.283396	1783.45	98038.1
573	2.000000	1.164875	7.37066e+06	-48439.1	1005.82	-29762.5	0.000000	0.000000	7.185932	508.552	NaN	0.000000	0.001580	0.001791	28.0815	102.295	0.001687	60644.8	4.293630	-9.997782	503.949	1.164611	0.102620	0.102356	508.552	60644.8	0.096330	0.287401	1769.48	103353