File: remote_trans/data/nanoindenter/0828-1/data/Data_2025-08-06,11h17m57s/2025-07-22_16-23-58_1_654.txt
2025-07-22, 16:23:58, 1
Index	Phase	Displacement	Time	Pos X	Pos Y	Pos Z	Rot A	Rot B	Piezo Z	Force A	Force B	Gripper	Voltage A	Voltage B	Temperature	Amplitude force	Amplitude pos	Stiffness	Phase shift	Phase excitation	Force A raw	Displacement raw	HMax	HMax raw	Real Force	Real Stiffness	Contact Depth	Area	Hardness	Reduced Mod.
[#]	[#]	[um]	[s]	[um]	[um]	[um]	[m°]	[m°]	[um]	[uN]	[uN]	[V]	[V]	[V]	[°C]	[uN]	[um]	[N/m]	[°]	[°]	[uN]	[um]	[um]	[um]	[uN]	[N/m]	[um]	[um^2]	[MPa]	[MPa]
654	1.000000	0.002436	7.37145e+06	-44389.1	1005.82	-29776.1	0.000000	0.000000	6.002825	-0.091074	NaN	0.000000	0.001613	0.001662	28.0825	0.066178	0.000908	72.8623	-91.2706	-164.409	-0.092971	0.001205	-1.034517	-1.035748	-0.091074	72.8623	-1.033579	-6.421296E+13	1.418305E-15	NaN
654	1.000000	0.010382	7.37145e+06	-44389.1	1005.82	-29776.1	0.000000	0.000000	6.010774	-0.011164	NaN	0.000000	0.001629	0.001670	28.0825	0.045983	0.000997	46.127	-27.5735	-159.305	-0.081797	0.009060	-1.026571	-1.027893	-0.011164	46.127	-1.026390	-5.139419E+13	2.172315E-16	NaN
654	1.000000	0.018353	7.37145e+06	-44389.1	1005.82	-29776.1	0.000000	0.000000	6.018747	0.019356	NaN	0.000000	0.001633	0.001690	28.0824	0.031650	0.001786	17.7218	-28.7154	-165.707	0.035489	0.017074	-1.018600	-1.019879	0.019356	17.7218	-1.019419	-4.141314E+13	-4.673840E-16	NaN
654	1.000000	0.026377	7.37145e+06	-44389.1	1005.82	-29776.1	0.000000	0.000000	6.026771	0.016279	NaN	0.000000	0.001686	0.001747	28.0826	0.087827	0.001815	48.3979	-85.2573	-165.086	0.109537	0.025089	-1.010576	-1.011864	0.016279	48.3979	-1.010828	-3.173412E+13	-5.129656E-16	NaN
654	1.000000	0.034343	7.37145e+06	-44389.1	1005.82	-29776.1	0.000000	0.000000	6.034735	-0.019091	NaN	0.000000	0.001647	0.001669	28.0813	0.125255	0.001854	67.5616	-166.962	-164.28	0.008182	0.032994	-1.002611	-1.003959	-0.019091	67.5616	-1.002399	-2.443775E+13	7.811952E-16	NaN
654	1.000000	0.042351	7.37145e+06	-44389.1	1005.82	-29776.1	0.000000	0.000000	6.042746	0.063071	NaN	0.000000	0.001623	0.001628	28.0815	0.026644	0.002110	12.6289	10.2553	-164.555	-0.004436	0.041053	-0.994602	-0.995901	0.063071	12.6289	-0.998348	-2.155387E+13	-2.926199E-15	NaN
654	1.000000	0.050360	7.37145e+06	-44389.1	1005.82	-29776.1	0.000000	0.000000	6.050752	-0.018601	NaN	0.000000	0.001613	0.001677	28.0813	0.089507	0.001889	47.3883	65.0767	-166.371	0.033753	0.049073	-0.986593	-0.987880	-0.018601	47.3883	-0.986298	-1.483396E+13	1.253975E-15	NaN
654	1.000000	0.058343	7.37145e+06	-44389.1	1005.82	-29776.1	0.000000	0.000000	6.058734	-0.033110	NaN	0.000000	0.001632	0.001689	28.0814	0.085057	0.002047	41.5582	-108.482	-163.961	-0.092662	0.057026	-0.978611	-0.979927	-0.033110	41.5582	-0.978013	-1.147201E+13	2.886179E-15	NaN
654	1.000000	0.066379	7.37145e+06	-44389.1	1005.82	-29776.1	0.000000	0.000000	6.066773	0.028385	NaN	0.000000	0.001606	0.001694	28.0811	0.078820	0.002039	38.6557	91.8875	-163.355	0.039419	0.065082	-0.970574	-0.971871	0.028385	38.6557	-0.971125	-9.264526E+12	-3.063874E-15	NaN
654	1.000000	0.074364	7.37145e+06	-44389.1	1005.82	-29776.1	0.000000	0.000000	6.074756	-0.012610	NaN	0.000000	0.001634	0.001664	28.0811	0.025754	0.002023	12.7334	-99.4722	-166.057	0.024689	0.073116	-0.962589	-0.963838	-0.012610	12.7334	-0.961847	-6.946500E+12	1.815284E-15	NaN
654	1.000000	0.082366	7.37145e+06	-44389.1	1005.82	-29776.1	0.000000	0.000000	6.082757	-0.049254	NaN	0.000000	0.001616	0.001637	28.0815	0.132723	0.001965	67.5501	60.3169	-164.509	-0.027136	0.081055	-0.954587	-0.955898	-0.049254	67.5501	-0.954041	-5.451503E+12	9.034886E-15	NaN
654	1.000000	0.090361	7.37145e+06	-44389.1	1005.82	-29776.1	0.000000	0.000000	6.090753	-0.014153	NaN	0.000000	0.001628	0.001632	28.0812	0.039598	0.001868	21.1989	-19.9989	-166.658	-0.055705	0.089053	-0.946592	-0.947900	-0.014153	21.1989	-0.946091	-4.259037E+12	3.323060E-15	NaN
654	1.000000	0.098357	7.37145e+06	-44389.1	1005.82	-29776.1	0.000000	0.000000	6.098749	-0.017985	NaN	0.000000	0.001619	0.001650	28.0812	0.033956	0.001981	17.1406	159.193	-162.763	-0.008295	0.097094	-0.938596	-0.939859	-0.017985	17.1406	-0.937809	-3.292907E+12	5.461859E-15	NaN
654	1.000000	0.106388	7.37145e+06	-44389.1	1005.82	-29776.1	0.000000	0.000000	6.106779	-0.037443	NaN	0.000000	0.001612	0.001650	28.0812	0.067927	0.002035	33.3774	-41.5858	-165.011	-0.036480	0.105060	-0.930565	-0.931893	-0.037443	33.3774	-0.929724	-2.561371E+12	1.461853E-14	NaN
654	1.000000	0.114415	7.37145e+06	-44389.1	1005.82	-29776.1	0.000000	0.000000	6.114807	-0.033703	NaN	0.000000	0.001622	0.001650	28.0811	0.048998	0.002172	22.5544	-161.432	-164.824	-0.016328	0.113111	-0.922538	-0.923842	-0.033703	22.5544	-0.921417	-1.978515E+12	1.703445E-14	NaN
654	1.000000	0.122386	7.37145e+06	-44389.1	1005.82	-29776.1	0.000000	0.000000	6.122778	-0.011913	NaN	0.000000	0.001628	0.001665	28.0816	0.077322	0.001992	38.8257	37.6974	-164.698	0.088117	0.121076	-0.914567	-0.915877	-0.011913	38.8257	-0.914337	-1.587579E+12	7.503798E-15	NaN
654	1.000000	0.130395	7.37145e+06	-44389.1	1005.82	-29776.1	0.000000	0.000000	6.130788	0.007277	NaN	0.000000	0.001648	0.001647	28.0811	0.053304	0.002045	26.0672	-129.471	-165.89	-0.003061	0.129072	-0.906558	-0.907881	0.007277	26.0672	-0.906768	-1.254592E+12	-5.800311E-15	NaN
654	1.000000	0.138367	7.37145e+06	-44389.1	1005.82	-29776.1	0.000000	0.000000	6.138760	0.001442	NaN	0.000000	0.001602	0.001652	28.0813	0.034924	0.001972	17.71	73.775	-163.475	0.025887	0.137069	-0.898586	-0.899884	0.001442	17.71	-0.898647	-9.744957E+11	-1.479405E-15	NaN
654	1.000000	0.146393	7.37145e+06	-44389.1	1005.82	-29776.1	0.000000	0.000000	6.146785	-0.032579	NaN	0.000000	0.001634	0.001657	28.0811	0.069127	0.001982	34.8759	-70.315	-164.111	0.025893	0.145051	-0.890560	-0.891902	-0.032579	34.8759	-0.889859	-7.413275E+11	4.394636E-14	NaN
654	1.000000	0.154418	7.37145e+06	-44389.1	1005.82	-29776.1	0.000000	0.000000	6.154810	-0.028518	NaN	0.000000	0.001624	0.001674	28.081	0.133733	0.001951	68.5554	-179.692	-166.833	-0.070664	0.153109	-0.882535	-0.883844	-0.028518	68.5554	-0.882223	-5.844791E+11	4.879203E-14	NaN
654	1.000000	0.162391	7.37145e+06	-44389.1	1005.82	-29776.1	0.000000	0.000000	6.162782	-0.052590	NaN	0.000000	0.001582	0.001659	28.0813	0.074759	0.002035	36.7285	36.2153	-168.376	0.004198	0.161042	-0.874562	-0.875911	-0.052590	36.7285	-0.873488	-4.452745E+11	1.181061E-13	NaN
654	1.000000	0.170380	7.37145e+06	-44389.1	1005.82	-29776.1	0.000000	0.000000	6.170772	-0.015179	NaN	0.000000	0.001591	0.001653	28.0823	0.061027	0.002144	28.4617	-166.058	-167.083	-0.063111	0.169084	-0.866573	-0.867869	-0.015179	28.4617	-0.866173	-3.545364E+11	4.281256E-14	NaN
654	1.000000	0.178429	7.37145e+06	-44389.1	1005.82	-29776.1	0.000000	0.000000	6.178822	0.009990	NaN	0.000000	0.001606	0.001639	28.0824	0.041045	0.002066	19.8713	-120	-166.669	-0.015242	0.177097	-0.858524	-0.859856	0.009990	19.8713	-0.858901	-2.826509E+11	-3.534569E-14	NaN
654	1.000000	0.186409	7.37145e+06	-44389.1	1005.82	-29776.1	0.000000	0.000000	6.186801	-0.027091	NaN	0.000000	0.001579	0.001662	28.0822	0.098157	0.001972	49.7804	96.313	-165.062	-0.045544	0.185151	-0.850544	-0.851802	-0.027091	49.7804	-0.850136	-2.150701E+11	1.259613E-13	NaN
654	1.000000	0.194415	7.37145e+06	-44389.1	1005.82	-29776.1	0.000000	0.000000	6.194810	0.044423	NaN	0.000000	0.001599	0.001653	28.0822	0.096315	0.001863	51.7046	158.796	-163.776	0.047680	0.193127	-0.842538	-0.843826	0.044423	51.7046	-0.843183	-1.731433E+11	-2.565651E-13	NaN
654	1.000000	0.202414	7.37145e+06	-44389.1	1005.82	-29776.1	0.000000	0.000000	6.202806	-0.010512	NaN	0.000000	0.001615	0.001715	28.0823	0.064040	0.001989	32.1897	-161.589	-165.653	-0.061476	0.201110	-0.834540	-0.835843	-0.010512	32.1897	-0.834295	-1.312162E+11	8.011440E-14	NaN
654	1.000000	0.210415	7.37145e+06	-44389.1	1005.82	-29776.1	0.000000	0.000000	6.210810	0.058122	NaN	0.000000	0.001590	0.001679	28.0822	0.107445	0.001950	55.0994	-27.5188	-160.168	-0.000572	0.209054	-0.826538	-0.827899	0.058122	55.0994	-0.827329	-1.055800E+11	-5.504999E-13	NaN
654	1.000000	0.218435	7.37145e+06	-44389.1	1005.82	-29776.1	0.000000	0.000000	6.218828	-0.000204	NaN	0.000000	0.001597	0.001736	28.0825	0.039297	0.001915	20.5177	68.5614	-168.337	0.056163	0.217159	-0.818518	-0.819794	-0.000204	20.5177	-0.818511	-8.017115E+10	2.538676E-15	NaN
654	1.000000	0.226433	7.37145e+06	-44389.1	1005.82	-29776.1	0.000000	0.000000	6.226826	-0.010134	NaN	0.000000	0.001568	0.001711	28.0824	0.122468	0.001978	61.9074	-1.158647	-163.108	-0.063239	0.225104	-0.810520	-0.811850	-0.010134	61.9074	-0.810397	-6.222407E+10	1.628694E-13	NaN
654	1.000000	0.234429	7.37145e+06	-44389.1	1005.82	-29776.1	0.000000	0.000000	6.234823	0.042356	NaN	0.000000	0.001582	0.001724	28.0825	0.091024	0.001952	46.6318	169.64	-165.088	0.019999	0.233107	-0.802524	-0.803847	0.042356	46.6318	-0.803206	-4.970192E+10	-8.522083E-13	NaN
654	1.000000	0.242443	7.37145e+06	-44389.1	1005.82	-29776.1	0.000000	0.000000	6.242834	-0.020225	NaN	0.000000	0.001626	0.001709	28.0822	0.011417	0.001947	5.862674	82.3853	-163.341	-0.009987	0.241127	-0.794511	-0.795826	-0.020225	5.862674	-0.791923	-3.493034E+10	5.790212E-13	NaN
654	1.000000	0.250450	7.37145e+06	-44389.1	1005.82	-29776.1	0.000000	0.000000	6.250841	-0.050979	NaN	0.000000	0.001593	0.001744	28.0821	0.063203	0.001989	31.773	174.39	-167.122	-0.086592	0.249074	-0.786503	-0.787879	-0.050979	31.773	-0.785300	-2.839498E+10	1.795349E-12	NaN
654	1.000000	0.258464	7.37145e+06	-44389.1	1005.82	-29776.1	0.000000	0.000000	6.258857	0.000669	NaN	0.000000	0.001587	0.001760	28.0822	0.116491	0.001901	61.2939	18.3644	-165.132	-0.035602	0.257197	-0.778489	-0.779756	0.000669	61.2939	-0.778497	-2.295146E+10	-2.915742E-14	NaN
654	1.000000	0.266452	7.37145e+06	-44389.1	1005.82	-29776.1	0.000000	0.000000	6.266845	-0.015751	NaN	0.000000	0.001565	0.001773	28.0824	0.162224	0.002026	80.077	-53.7729	-163.021	0.015829	0.265160	-0.770501	-0.771793	-0.015751	80.077	-0.770353	-1.778719E+10	8.855046E-13	NaN
654	1.000000	0.274462	7.37145e+06	-44389.1	1005.82	-29776.1	0.000000	0.000000	6.274850	-0.099652	NaN	0.000000	0.001565	0.001750	28.0825	0.095429	0.001979	48.2311	-3.432688	-163.016	-0.131156	0.273123	-0.762492	-0.763830	-0.099652	48.2311	-0.760942	-1.324700E+10	7.522593E-12	NaN
654	1.000000	0.282455	7.37145e+06	-44389.1	1005.82	-29776.1	0.000000	0.000000	6.282851	0.070401	NaN	0.000000	0.001592	0.001730	28.0822	0.078710	0.002120	37.1347	28.4984	-163.134	0.055504	0.281189	-0.754498	-0.755765	0.070401	37.1347	-0.755920	-1.131843E+10	-6.220030E-12	NaN
654	1.000000	0.290441	7.37145e+06	-44389.1	1005.82	-29776.1	0.000000	0.000000	6.290834	-0.008113	NaN	0.000000	0.001612	0.001700	28.0824	0.102047	0.002032	50.2208	80.9989	-161.73	0.028416	0.289144	-0.746512	-0.747809	-0.008113	50.2208	-0.746391	-8.396226E+9	9.663039E-13	NaN
654	1.000000	0.298467	7.37145e+06	-44389.1	1005.82	-29776.1	0.000000	0.000000	6.298858	-0.041693	NaN	0.000000	0.001569	0.001717	28.0823	0.063214	0.002009	31.4686	68.8509	-169.223	-0.021753	0.297152	-0.738486	-0.739802	-0.041693	31.4686	-0.737492	-6.351830E+9	6.563864E-12	NaN
654	1.000000	0.306485	7.37145e+06	-44389.1	1005.82	-29776.1	0.000000	0.000000	6.306877	-0.041127	NaN	0.000000	0.001611	0.001681	28.0811	0.026784	0.002003	13.3749	-69.1416	-165.422	-0.078674	0.305162	-0.730468	-0.731791	-0.041127	13.3749	-0.728161	-4.739681E+9	8.677226E-12	NaN
654	1.000000	0.314473	7.37145e+06	-44389.1	1005.82	-29776.1	0.000000	0.000000	6.314862	-0.083416	NaN	0.000000	0.001610	0.001734	28.0813	0.034333	0.001932	17.7716	32.0225	-164.759	-0.087497	0.313151	-0.722480	-0.723802	-0.083416	17.7716	-0.718960	-3.550485E+9	2.349430E-11	NaN
654	1.000000	0.322443	7.37145e+06	-44389.1	1005.82	-29776.1	0.000000	0.000000	6.322834	-0.028280	NaN	0.000000	0.001630	0.001722	28.0809	0.043922	0.002057	21.3535	0.307239	-165.347	0.028655	0.321141	-0.714510	-0.715812	-0.028280	21.3535	-0.713517	-2.992546E+9	9.450234E-12	NaN
654	1.000000	0.330456	7.37145e+06	-44389.1	1005.82	-29776.1	0.000000	0.000000	6.330847	-0.049424	NaN	0.000000	0.001655	0.001681	28.0818	0.091044	0.002117	43.0102	-134.176	-164.406	-0.071464	0.329153	-0.706497	-0.707800	-0.049424	43.0102	-0.705635	-2.336007E+9	2.115730E-11	NaN
654	1.000000	0.338477	7.37145e+06	-44389.1	1005.82	-29776.1	0.000000	0.000000	6.338868	-0.047488	NaN	0.000000	0.001637	0.001721	28.0813	0.036113	0.002000	18.054	-126.207	-166.809	-0.067053	0.337142	-0.698476	-0.699812	-0.047488	18.054	-0.696503	-1.752953E+9	2.709020E-11	NaN
654	1.000000	0.346470	7.37145e+06	-44389.1	1005.82	-29776.1	0.000000	0.000000	6.346864	0.027505	NaN	0.000000	0.001584	0.001714	28.0814	0.054785	0.002103	26.0451	-170.535	-164.319	0.006026	0.345181	-0.690483	-0.691772	0.027505	26.0451	-0.691275	-1.487123E+9	-1.849544E-11	NaN
654	1.000000	0.354484	7.37145e+06	-44389.1	1005.82	-29776.1	0.000000	0.000000	6.354876	-0.009525	NaN	0.000000	0.001571	0.001732	28.0813	0.044180	0.001991	22.1935	-49.6118	-166.149	0.051647	0.353157	-0.682469	-0.683796	-0.009525	22.1935	-0.682147	-1.115761E+9	8.536650E-12	NaN
654	1.000000	0.362512	7.37145e+06	-44389.1	1005.82	-29776.1	0.000000	0.000000	6.362904	-0.007076	NaN	0.000000	0.001572	0.001723	28.0812	0.015907	0.001965	8.096435	-72.5572	-165.868	-0.033531	0.361187	-0.674441	-0.675766	-0.007076	8.096435	-0.673786	-8.574308E+8	8.253009E-12	NaN
654	1.000000	0.370495	7.37145e+06	-44389.1	1005.82	-29776.1	0.000000	0.000000	6.370888	1.012859E-5	NaN	0.000000	0.001611	0.001710	28.0818	0.150169	0.002023	74.2254	18.49	-166.002	0.010537	0.369140	-0.666458	-0.667813	1.012859E-5	74.2254	-0.666458	-6.806212E+8	-1.488139E-14	NaN
654	1.000000	0.378471	7.37145e+06	-44389.1	1005.82	-29776.1	0.000000	0.000000	6.378864	0.005798	NaN	0.000000	0.001625	0.001722	28.0813	0.050591	0.001981	25.5397	-128.763	-165.684	0.005998	0.377180	-0.658482	-0.659773	0.005798	25.5397	-0.658653	-5.321211E+8	-1.089689E-11	NaN
654	1.000000	0.386525	7.37145e+06	-44389.1	1005.82	-29776.1	0.000000	0.000000	6.386917	-0.009854	NaN	0.000000	0.001587	0.001705	28.0813	0.061668	0.001969	31.3221	-150.646	-166.434	-0.122019	0.385180	-0.650429	-0.651773	-0.009854	31.3221	-0.650193	-4.074533E+8	2.418329E-11	NaN
654	1.000000	0.394491	7.37145e+06	-44389.1	1005.82	-29776.1	0.000000	0.000000	6.394883	-0.019310	NaN	0.000000	0.001623	0.001731	28.0812	0.050859	0.002065	24.6256	-130.484	-165.839	-0.003202	0.393200	-0.642462	-0.643753	-0.019310	24.6256	-0.641874	-3.133258E+8	6.162882E-11	NaN
654	1.000000	0.402507	7.37145e+06	-44389.1	1005.82	-29776.1	0.000000	0.000000	6.402899	-0.012427	NaN	0.000000	0.001584	0.001723	28.0812	0.020381	0.002171	9.388780	-55.5842	-165.25	-0.011334	0.401152	-0.634447	-0.635801	-0.012427	9.388780	-0.633454	-2.401312E+8	5.174975E-11	NaN
654	1.000000	0.410508	7.37145e+06	-44389.1	1005.82	-29776.1	0.000000	0.000000	6.410902	0.024594	NaN	0.000000	0.001602	0.001685	28.0814	0.067438	0.002034	33.1576	170.386	-163.603	-0.038259	0.409156	-0.626445	-0.627797	0.024594	33.1576	-0.627001	-1.958113E+8	-1.256004E-10	NaN
654	1.000000	0.418514	7.37145e+06	-44389.1	1005.82	-29776.1	0.000000	0.000000	6.418906	-0.006727	NaN	0.000000	0.001590	0.001694	28.0812	0.050183	0.001980	25.3434	-154.282	-161.405	0.026447	0.417195	-0.618439	-0.619758	-0.006727	25.3434	-0.618240	-1.484038E+8	4.532633E-11	NaN
654	1.000000	0.426509	7.37145e+06	-44389.1	1005.82	-29776.1	0.000000	0.000000	6.426901	-0.032665	NaN	0.000000	0.001637	0.001694	28.0814	0.025415	0.002032	12.5087	-168.572	-164.739	0.029510	0.425246	-0.610444	-0.611707	-0.032665	12.5087	-0.608485	-1.089615E+8	2.997839E-10	NaN
654	1.000000	0.434495	7.37145e+06	-44389.1	1005.82	-29776.1	0.000000	0.000000	6.434887	-0.016560	NaN	0.000000	0.001629	0.001718	28.0814	0.010940	0.002110	5.184456	38.5556	-167.123	-0.041194	0.433198	-0.602458	-0.603755	-0.016560	5.184456	-0.600062	-8.342917E+7	1.984932E-10	NaN
654	1.000000	0.442516	7.37145e+06	-44389.1	1005.82	-29776.1	0.000000	0.000000	6.442906	-0.054958	NaN	0.000000	0.001626	0.001694	28.0823	0.024486	0.002022	12.1081	130.665	-166.072	-0.050551	0.441230	-0.594438	-0.595723	-0.054958	12.1081	-0.591033	-6.264857E+7	8.772467E-10	NaN
654	1.000000	0.450553	7.37145e+06	-44389.1	1005.82	-29776.1	0.000000	0.000000	6.450943	-0.064731	NaN	0.000000	0.001605	0.001717	28.0826	0.083750	0.001976	42.376	-132.521	-163.467	-0.056626	0.449214	-0.586401	-0.587739	-0.064731	42.376	-0.585255	-5.214726E+7	1.241312E-9	NaN
654	1.000000	0.458503	7.37145e+06	-44389.1	1005.82	-29776.1	0.000000	0.000000	6.458898	0.056782	NaN	0.000000	0.001618	0.001725	28.0825	0.125651	0.002047	61.3785	-139.661	-164.73	0.050007	0.457242	-0.578451	-0.579712	0.056782	61.3785	-0.579144	-4.294547E+7	-1.322183E-9	NaN
654	1.000000	0.466557	7.37145e+06	-44389.1	1005.82	-29776.1	0.000000	0.000000	6.466950	0.000718	NaN	0.000000	0.001646	0.001709	28.0827	0.093751	0.001922	48.7719	155.068	-162.311	-0.054124	0.465188	-0.570396	-0.571765	0.000718	48.7719	-0.570407	-3.252804E+7	-2.208116E-11	NaN
654	1.000000	0.474530	7.37145e+06	-44389.1	1005.82	-29776.1	0.000000	0.000000	6.474926	0.066702	NaN	0.000000	0.001642	0.001666	28.0827	0.096589	0.002095	46.0972	-16.7467	-164.674	0.046456	0.473296	-0.562423	-0.563657	0.066702	46.0972	-0.563508	-2.611541E+7	-2.554124E-9	NaN
654	1.000000	0.482556	7.37145e+06	-44389.1	1005.82	-29776.1	0.000000	0.000000	6.482946	-0.067810	NaN	0.000000	0.001661	0.001714	28.0828	0.055170	0.001948	28.3247	92.5097	-165.193	-0.055377	0.481230	-0.554397	-0.555723	-0.067810	28.3247	-0.552601	-1.844937E+7	3.675479E-9	NaN
654	1.000000	0.490522	7.37145e+06	-44389.1	1005.82	-29776.1	0.000000	0.000000	6.490915	0.010059	NaN	0.000000	0.001664	0.001701	28.0827	0.106399	0.001917	55.5004	-100.827	-163.553	0.049383	0.489237	-0.546431	-0.547716	0.010059	55.5004	-0.546567	-1.521926E+7	-6.609351E-10	NaN
654	1.000000	0.498569	7.37145e+06	-44389.1	1005.82	-29776.1	0.000000	0.000000	6.498962	0.007385	NaN	0.000000	0.001607	0.001710	28.0827	0.058272	0.002084	27.9636	151.404	-164.846	-0.018852	0.497249	-0.538384	-0.539704	0.007385	27.9636	-0.538582	-1.179486E+7	-6.261484E-10	NaN
654	1.000000	0.506544	7.37145e+06	-44389.1	1005.82	-29776.1	0.000000	0.000000	6.506936	-0.018640	NaN	0.000000	0.001633	0.001716	28.0828	0.088942	0.002010	44.2585	24.4337	-167.001	-0.019806	0.505210	-0.530409	-0.531743	-0.018640	44.2585	-0.530093	-8.99233e+06	2.072829E-9	NaN
654	1.000000	0.514565	7.37145e+06	-44389.1	1005.82	-29776.1	0.000000	0.000000	6.514956	-0.041602	NaN	0.000000	0.001671	0.001734	28.0828	0.041950	0.001868	22.4591	-19.6187	-167.457	-0.045863	0.513299	-0.522388	-0.523655	-0.041602	22.4591	-0.520999	-6.72192e+06	6.188987E-9	NaN
654	1.000000	0.522556	7.37145e+06	-44389.1	1005.82	-29776.1	0.000000	0.000000	6.522951	0.054259	NaN	0.000000	0.001669	0.001749	28.0828	0.069924	0.002000	34.9699	26.9692	-163.11	0.140691	0.521263	-0.514397	-0.515690	0.054259	34.9699	-0.515561	-5.64724e+06	-9.608064E-9	NaN
654	1.000000	0.530525	7.37145e+06	-44389.1	1005.82	-29776.1	0.000000	0.000000	6.530918	0.000520	NaN	0.000000	0.001654	0.001719	28.0822	0.048844	0.001909	25.5829	13.4862	-166.393	0.104302	0.529232	-0.506428	-0.507722	0.000520	25.5829	-0.506443	-4.21564e+06	-1.232847E-10	NaN
654	1.000000	0.538545	7.37145e+06	-44389.1	1005.82	-29776.1	0.000000	0.000000	6.538935	-0.045524	NaN	0.000000	0.001639	0.001682	28.0825	0.063306	0.001954	32.3986	-178.342	-163.769	0.031530	0.537219	-0.498409	-0.499734	-0.045524	32.3986	-0.497355	-3.14852e+06	1.445883E-8	NaN
654	1.000000	0.546557	7.37145e+06	-44389.1	1005.82	-29776.1	0.000000	0.000000	6.546951	0.020940	NaN	0.000000	0.001592	0.001712	28.0826	0.117934	0.001970	59.862	154.815	-163.666	0.010120	0.545226	-0.490396	-0.491727	0.020940	59.862	-0.490658	-2.53859e+06	-8.248485E-9	NaN
654	1.000000	0.554584	7.37145e+06	-44389.1	1005.82	-29776.1	0.000000	0.000000	6.554977	0.024950	NaN	0.000000	0.001599	0.001703	28.0824	0.054734	0.002023	27.057	8.793993	-165.156	-0.031967	0.553313	-0.482370	-0.483640	0.024950	27.057	-0.483061	-1.98779e+06	-1.255172E-8	NaN
654	1.000000	0.562539	7.37145e+06	-44389.1	1005.82	-29776.1	0.000000	0.000000	6.562934	0.058533	NaN	0.000000	0.001582	0.001764	28.0826	0.031655	0.001956	16.1832	108.956	-163.698	-0.018817	0.561257	-0.474414	-0.475696	0.058533	16.1832	-0.477127	-1.64171e+06	-3.565355E-8	NaN
654	1.000000	0.570575	7.37145e+06	-44389.1	1005.82	-29776.1	0.000000	0.000000	6.570964	-0.072325	NaN	0.000000	0.001600	0.001723	28.0827	0.025764	0.001941	13.2758	4.207100	-167.536	0.046022	0.569282	-0.466379	-0.467671	-0.072325	13.2758	-0.462293	-1.01678e+06	7.113136E-8	NaN
654	1.000000	0.578520	7.37145e+06	-44389.1	1005.82	-29776.1	0.000000	0.000000	6.578913	-0.000890	NaN	0.000000	0.001588	0.001703	28.0821	0.065576	0.001985	33.0279	101.621	-164.884	-0.068377	0.577273	-0.458433	-0.459680	-0.000890	33.0279	-0.458413	-896834	9.928294E-10	NaN
654	1.000000	0.586582	7.37145e+06	-44389.1	1005.82	-29776.1	0.000000	0.000000	6.586977	0.051556	NaN	0.000000	0.001606	0.001725	28.0813	0.044926	0.001971	22.7937	147.492	-165.232	0.050735	0.585283	-0.450371	-0.451670	0.051556	22.7937	-0.452067	-730215	-7.060422E-8	NaN
654	1.000000	0.594556	7.37145e+06	-44389.1	1005.82	-29776.1	0.000000	0.000000	6.594947	-0.045795	NaN	0.000000	0.001617	0.001671	28.0814	0.090159	0.002023	44.5692	-100.844	-163.159	-0.040367	0.593253	-0.442397	-0.443700	-0.045795	44.5692	-0.441627	-520378	8.800241E-8	NaN
654	1.000000	0.602584	7.37145e+06	-44389.1	1005.82	-29776.1	0.000000	0.000000	6.602977	-0.002245	NaN	0.000000	0.001613	0.001693	28.0813	0.094904	0.001982	47.8946	-66.7728	-163.187	-0.039263	0.601225	-0.434369	-0.435728	-0.002245	47.8946	-0.434334	-410526	5.468020E-9	NaN
654	1.000000	0.610616	7.37145e+06	-44389.1	1005.82	-29776.1	0.000000	0.000000	6.611012	0.072944	NaN	0.000000	0.001614	0.001723	28.0813	0.032980	0.001971	16.7363	27.4594	-162.46	-0.002272	0.609294	-0.426337	-0.427659	0.072944	16.7363	-0.429606	-351954	-2.072555E-7	NaN
654	1.000000	0.618592	7.37145e+06	-44389.1	1005.82	-29776.1	0.000000	0.000000	6.618982	-0.063183	NaN	0.000000	0.001607	0.001714	28.0814	0.038740	0.002056	18.8451	56.3308	-165.976	-0.043640	0.617285	-0.418361	-0.419668	-0.063183	18.8451	-0.415847	-224636	2.812678E-7	NaN
654	1.000000	0.626593	7.37145e+06	-44389.1	1005.82	-29776.1	0.000000	0.000000	6.626986	0.014306	NaN	0.000000	0.001613	0.001706	28.0813	0.134171	0.001919	69.9069	-106.839	-165.344	0.006051	0.625338	-0.410361	-0.411615	0.014306	69.9069	-0.410514	-188674	-7.582153E-8	NaN
654	1.000000	0.634573	7.37145e+06	-44389.1	1005.82	-29776.1	0.000000	0.000000	6.634964	-0.036337	NaN	0.000000	0.001567	0.001740	28.0815	0.063368	0.001986	31.9141	-151.377	-164.736	-0.027938	0.633328	-0.402380	-0.403625	-0.036337	31.9141	-0.401526	-140526	2.585752E-7	NaN
654	1.000000	0.642617	7.37145e+06	-44389.1	1005.82	-29776.1	0.000000	0.000000	6.643008	-0.051553	NaN	0.000000	0.001575	0.001705	28.0817	0.020323	0.001953	10.4065	149.157	-165.275	-0.070900	0.641301	-0.394336	-0.395652	-0.051553	10.4065	-0.390621	-98185.1	5.250571E-7	NaN
654	1.000000	0.650579	7.37145e+06	-44389.1	1005.82	-29776.1	0.000000	0.000000	6.650974	0.058066	NaN	0.000000	0.001580	0.001727	28.0814	0.092527	0.001983	46.6529	-100.495	-161.372	-0.036810	0.649339	-0.386374	-0.387614	0.058066	46.6529	-0.387308	-88032.2	-6.595954E-7	NaN
654	1.000000	0.658599	7.37145e+06	-44389.1	1005.82	-29776.1	0.000000	0.000000	6.658992	0.012911	NaN	0.000000	0.001627	0.001748	28.0814	0.076296	0.002029	37.6015	128.187	-166.582	-0.007399	0.657278	-0.378354	-0.379675	0.012911	37.6015	-0.378612	-66064	-1.954390E-7	NaN
654	1.000000	0.666615	7.37145e+06	-44389.1	1005.82	-29776.1	0.000000	0.000000	6.667009	0.012851	NaN	0.000000	0.001624	0.001734	28.0813	0.105964	0.002054	51.5989	-7.551469	-165.34	-0.019173	0.665312	-0.370338	-0.371641	0.012851	51.5989	-0.370525	-50545.5	-2.542411E-7	NaN
654	1.000000	0.674619	7.37145e+06	-44389.1	1005.82	-29776.1	0.000000	0.000000	6.675010	-0.038996	NaN	0.000000	0.001609	0.001756	28.0813	0.062237	0.001980	31.4395	116.002	-164.119	-0.005104	0.673259	-0.362335	-0.363695	-0.038996	31.4395	-0.361404	-37337	1.044440E-6	NaN
654	1.000000	0.682594	7.37145e+06	-44389.1	1005.82	-29776.1	0.000000	0.000000	6.682986	-0.025024	NaN	0.000000	0.001625	0.001721	28.0814	0.061066	0.001973	30.9532	-174.15	-165.353	0.007067	0.681372	-0.354359	-0.355581	-0.025024	30.9532	-0.353752	-28935	8.648262E-7	NaN
654	1.000000	0.690637	7.37145e+06	-44389.1	1005.82	-29776.1	0.000000	0.000000	6.691030	0.011793	NaN	0.000000	0.001633	0.001743	28.0815	0.031472	0.001932	16.2879	61.9233	-163.348	0.091787	0.689298	-0.346316	-0.347656	0.011793	16.2879	-0.346859	-22982.2	-5.131552E-7	NaN
654	1.000000	0.698633	7.37145e+06	-44389.1	1005.82	-29776.1	0.000000	0.000000	6.699024	-0.028125	NaN	0.000000	0.001604	0.001719	28.0814	0.161532	0.001893	85.321	144.381	-165.922	-0.139958	0.697329	-0.338321	-0.339624	-0.028125	85.321	-0.338073	-17118.2	1.642996E-6	NaN
654	1.000000	0.706646	7.37145e+06	-44389.1	1005.82	-29776.1	0.000000	0.000000	6.707038	-0.028733	NaN	0.000000	0.001607	0.001738	28.0814	0.054147	0.001982	27.3216	30.8327	-166.7	-0.048191	0.705278	-0.330307	-0.331675	-0.028733	27.3216	-0.329518	-12834.9	2.238634E-6	NaN
654	1.000000	0.714665	7.37145e+06	-44389.1	1005.82	-29776.1	0.000000	0.000000	6.715058	-0.002496	NaN	0.000000	0.001646	0.001733	28.0821	0.038099	0.001953	19.5036	148.001	-162.285	0.025691	0.713379	-0.322288	-0.323574	-0.002496	19.5036	-0.322192	-10020.4	2.490939E-7	NaN
654	1.000000	0.722638	7.37145e+06	-44389.1	1005.82	-29776.1	0.000000	0.000000	6.723031	0.008277	NaN	0.000000	0.001625	0.001729	28.0829	0.051892	0.002017	25.7214	124.305	-163.746	-0.010322	0.721310	-0.314315	-0.315643	0.008277	25.7214	-0.314556	-7733.94	-1.070256E-6	NaN
654	1.000000	0.730627	7.37145e+06	-44389.1	1005.82	-29776.1	0.000000	0.000000	6.731021	0.028618	NaN	0.000000	0.001633	0.001743	28.083	0.036825	0.002038	18.0712	-177.731	-166.523	-0.028024	0.729352	-0.306327	-0.307601	0.028618	18.0712	-0.307514	-6084.75	-4.703184E-6	NaN
654	1.000000	0.738633	7.37145e+06	-44389.1	1005.82	-29776.1	0.000000	0.000000	6.739025	-0.020709	NaN	0.000000	0.001646	0.001736	28.0829	0.070602	0.002020	34.9518	50.703	-165.636	-0.120857	0.737304	-0.298320	-0.299649	-0.020709	34.9518	-0.297876	-4375.16	4.733383E-6	NaN
654	1.000000	0.746635	7.37145e+06	-44389.1	1005.82	-29776.1	0.000000	0.000000	6.747025	-0.060396	NaN	0.000000	0.001595	0.001745	28.0828	0.060549	0.001996	30.3374	140.901	-164.442	-0.108724	0.745373	-0.290318	-0.291580	-0.060396	30.3374	-0.288825	-3204.03	1.884989E-5	NaN
654	1.000000	0.754661	7.37145e+06	-44389.1	1005.82	-29776.1	0.000000	0.000000	6.755053	-0.009629	NaN	0.000000	0.001647	0.001741	28.0827	0.045986	0.001883	24.4191	167.805	-167.039	0.018016	0.753387	-0.282292	-0.283566	-0.009629	24.4191	-0.281997	-2529.71	3.806324E-6	NaN
654	1.000000	0.762673	7.37145e+06	-44389.1	1005.82	-29776.1	0.000000	0.000000	6.763063	-0.067189	NaN	0.000000	0.001617	0.001734	28.0828	0.067070	0.002053	32.6691	32.6077	-165.146	-0.029411	0.761308	-0.274280	-0.275645	-0.067189	32.6691	-0.272737	-1832.77	3.665986E-5	NaN
654	1.000000	0.770642	7.37145e+06	-44389.1	1005.82	-29776.1	0.000000	0.000000	6.771036	0.029347	NaN	0.000000	0.001622	0.001719	28.0828	0.045340	0.002142	21.169	106.24	-162.289	-0.063018	0.769298	-0.266311	-0.267655	0.029347	21.169	-0.267350	-1517.84	-1.933453E-5	NaN
654	1.000000	0.778672	7.37145e+06	-44389.1	1005.82	-29776.1	0.000000	0.000000	6.779063	-0.044696	NaN	0.000000	0.001606	0.001730	28.0829	0.134162	0.002029	66.1235	-140.928	-164.147	-0.012300	0.777401	-0.258281	-0.259552	-0.044696	66.1235	-0.257774	-1083.36	4.125712E-5	NaN
654	1.000000	0.786671	7.37145e+06	-44389.1	1005.82	-29776.1	0.000000	0.000000	6.787059	-0.096278	NaN	0.000000	0.001598	0.001754	28.083	0.138163	0.002031	68.012	34.6432	-163.681	-0.087295	0.785372	-0.250283	-0.251582	-0.096278	68.012	-0.249221	-799.673	0.000120	NaN
654	1.000000	0.794658	7.37145e+06	-44389.1	1005.82	-29776.1	0.000000	0.000000	6.795050	-4.047388E-5	NaN	0.000000	0.001651	0.001682	28.0826	0.087780	0.001885	46.5609	2.355832	-163.605	-0.059310	0.793363	-0.242296	-0.243590	-4.047388E-5	46.5609	-0.242295	-624.246	6.483647E-8	NaN
654	1.000000	0.802653	7.37145e+06	-44389.1	1005.82	-29776.1	0.000000	0.000000	6.803045	-0.001756	NaN	0.000000	0.001636	0.001725	28.0829	0.111188	0.002016	55.1468	92.8482	-167.314	-0.002289	0.801319	-0.234301	-0.235634	-0.001756	55.1468	-0.234277	-467.613	3.754405E-6	NaN
654	1.000000	0.810647	7.37145e+06	-44389.1	1005.82	-29776.1	0.000000	0.000000	6.811037	-0.061151	NaN	0.000000	0.001617	0.001708	28.0829	0.084172	0.002010	41.874	-100.235	-166.705	-0.034631	0.809383	-0.226306	-0.227570	-0.061151	41.874	-0.225211	-336.265	0.000182	NaN
654	1.000000	0.818664	7.37145e+06	-44389.1	1005.82	-29776.1	0.000000	0.000000	6.819054	-0.058055	NaN	0.000000	0.001656	0.001747	28.0827	0.065153	0.002014	32.3503	66.8312	-160.99	-0.004832	0.817328	-0.218289	-0.219625	-0.058055	32.3503	-0.216943	-248.16	0.000234	NaN
654	1.000000	0.826702	7.37145e+06	-44389.1	1005.82	-29776.1	0.000000	0.000000	6.827091	-0.084361	NaN	0.000000	0.001664	0.001722	28.0828	0.066686	0.002025	32.9303	-77.4962	-169.268	-0.046114	0.825396	-0.210251	-0.211557	-0.084361	32.9303	-0.208330	-180.196	0.000468	NaN
654	1.000000	0.834685	7.37145e+06	-44389.1	1005.82	-29776.1	0.000000	0.000000	6.835076	-0.037913	NaN	0.000000	0.001615	0.001746	28.0829	0.049779	0.002084	23.8899	-103.927	-163.52	-0.078684	0.833398	-0.202268	-0.203555	-0.037913	23.8899	-0.201078	-137.213	0.000276	NaN
654	1.000000	0.842689	7.37145e+06	-44389.1	1005.82	-29776.1	0.000000	0.000000	6.843078	-0.072561	NaN	0.000000	0.001635	0.001743	28.0829	0.062057	0.002018	30.7472	-76.5122	-163.833	0.007408	0.841370	-0.194265	-0.195583	-0.072561	30.7472	-0.192495	-98.9951	0.000733	NaN
654	1.000000	0.850683	7.37145e+06	-44389.1	1005.82	-29776.1	0.000000	0.000000	6.851075	-0.008454	NaN	0.000000	0.001624	0.001740	28.0825	0.073635	0.001830	40.2427	173.119	-162.578	-0.122154	0.849360	-0.186270	-0.187593	-0.008454	40.2427	-0.186113	-77.4228	0.000109	NaN
654	1.000000	0.858693	7.37145e+06	-44389.1	1005.82	-29776.1	0.000000	0.000000	6.859084	-0.050345	NaN	0.000000	0.001653	0.001771	28.0815	0.048870	0.001786	27.3614	-151.077	-168.587	-0.131850	0.857396	-0.178260	-0.179557	-0.050345	27.3614	-0.176880	-53.9788	0.000933	NaN
654	1.000000	0.866721	7.37145e+06	-44389.1	1005.82	-29776.1	0.000000	0.000000	6.867112	-0.044597	NaN	0.000000	0.001680	0.001746	28.0817	0.071156	0.001921	37.0497	167.707	-165.415	0.028850	0.865415	-0.170232	-0.171538	-0.044597	37.0497	-0.169329	-39.9907	0.001115	NaN
654	1.000000	0.874697	7.37145e+06	-44389.1	1005.82	-29776.1	0.000000	0.000000	6.875089	-0.013744	NaN	0.000000	0.001649	0.001726	28.0816	0.037950	0.002003	18.9502	179.69	-162.132	-0.094932	0.873351	-0.162257	-0.163602	-0.013744	18.9502	-0.161713	-29.4007	0.000467	NaN
654	1.000000	0.882748	7.37145e+06	-44389.1	1005.82	-29776.1	0.000000	0.000000	6.883140	-0.000776	NaN	0.000000	0.001677	0.001714	28.0816	0.054510	0.002092	26.0504	1.171598	-167.13	-0.031782	0.881376	-0.154206	-0.155577	-0.000776	26.0504	-0.154183	-21.5709	3.595497E-5	NaN
654	1.000000	0.890659	7.37145e+06	-44389.1	1005.82	-29776.1	0.000000	0.000000	6.891051	-0.033373	NaN	0.000000	0.001677	0.001752	28.0815	0.016064	0.002044	7.860797	-4.769953	-165.222	-0.022969	0.889421	-0.146294	-0.147532	-0.033373	7.860797	-0.143110	-13.5238	0.002468	NaN
654	1.000000	0.898700	7.37145e+06	-44389.1	1005.82	-29776.1	0.000000	0.000000	6.899091	-0.041573	NaN	0.000000	0.001625	0.001747	28.0817	0.005556	0.002036	2.728416	-77.56	-164.368	-0.093715	0.897384	-0.138253	-0.139569	-0.041573	2.728416	-0.126826	-6.606820	0.006292	NaN
654	1.000000	0.906693	7.37145e+06	-44389.1	1005.82	-29776.1	0.000000	0.000000	6.907087	0.027944	NaN	0.000000	0.001653	0.001719	28.0815	0.019702	0.001969	10.0073	-29.3898	-162.892	0.014290	0.905394	-0.130260	-0.131559	0.027944	10.0073	-0.132355	-8.463710	-0.003302	NaN
654	1.000000	0.914727	7.37145e+06	-44389.1	1005.82	-29776.1	0.000000	0.000000	6.915120	0.017576	NaN	0.000000	0.001615	0.001787	28.0818	0.040975	0.002065	19.8407	117.885	-164.967	0.012829	0.913382	-0.122226	-0.123572	0.017576	19.8407	-0.122891	-5.521897	-0.003183	NaN
654	1.000000	0.922727	7.37145e+06	-44389.1	1005.82	-29776.1	0.000000	0.000000	6.923121	0.041358	NaN	0.000000	0.001668	0.001743	28.0815	0.041238	0.001861	22.163	159.601	-167.897	0.051332	0.921369	-0.114227	-0.115584	0.041358	22.163	-0.115626	-3.935453	-0.010509	NaN
654	1.000000	0.930727	7.37145e+06	-44389.1	1005.82	-29776.1	0.000000	0.000000	6.931118	-0.028889	NaN	0.000000	0.001667	0.001759	28.0815	0.041050	0.002090	19.6419	-173.285	-165.561	-0.068759	0.929385	-0.106227	-0.107568	-0.028889	19.6419	-0.105123	-2.365052	0.012215	NaN
654	1.000000	0.938718	7.37145e+06	-44389.1	1005.82	-29776.1	0.000000	0.000000	6.939110	-0.030740	NaN	0.000000	0.001659	0.001727	28.0815	0.062186	0.002042	30.4571	71.1139	-166.974	-0.003302	0.937382	-0.098235	-0.099571	-0.030740	30.4571	-0.097478	-1.605019	0.019152	NaN
654	1.000000	0.946718	7.37145e+06	-44389.1	1005.82	-29776.1	0.000000	0.000000	6.947109	-0.032697	NaN	0.000000	0.001637	0.001763	28.0815	0.078027	0.001976	39.4928	163.315	-167.012	-0.038825	0.945402	-0.090235	-0.091551	-0.032697	39.4928	-0.089615	-1.058676	0.030885	NaN
654	1.000000	0.954729	7.37145e+06	-44389.1	1005.82	-29776.1	0.000000	0.000000	6.955122	-0.012380	NaN	0.000000	0.001669	0.001782	28.0819	0.118570	0.002048	57.8999	-62.1523	-163.697	0.065755	0.953439	-0.082224	-0.083514	-0.012380	57.8999	-0.082063	-0.696518	0.017774	NaN
654	1.000000	0.962705	7.37145e+06	-44389.1	1005.82	-29776.1	0.000000	0.000000	6.963095	-0.073770	NaN	0.000000	0.001609	0.001821	28.0815	0.026877	0.001930	13.9242	111.559	-163.198	-0.153697	0.961421	-0.074248	-0.075532	-0.073770	13.9242	-0.070274	-0.346923	0.212639	NaN
654	1.000000	0.970773	7.37145e+06	-44389.1	1005.82	-29776.1	0.000000	0.000000	6.971165	-0.031845	NaN	0.000000	0.001666	0.001794	28.0818	0.098749	0.001913	51.6308	122.432	-162.788	-0.048316	0.969443	-0.066180	-0.067510	-0.031845	51.6308	-0.065717	-0.260871	0.122072	NaN
654	1.000000	0.978737	7.37145e+06	-44389.1	1005.82	-29776.1	0.000000	0.000000	6.979128	-0.020195	NaN	0.000000	0.001724	0.001789	28.0815	0.040535	0.001896	21.3772	114.36	-164.231	-0.042642	0.977455	-0.058217	-0.059498	-0.020195	21.3772	-0.057508	-0.152564	0.132373	NaN
654	1.000000	0.986777	7.37145e+06	-44389.1	1005.82	-29776.1	0.000000	0.000000	6.987168	-0.036686	NaN	0.000000	0.001688	0.001791	28.0816	0.104135	0.001970	52.8585	-37.7262	-162.872	-0.047400	0.985445	-0.050177	-0.051508	-0.036686	52.8585	-0.049656	-0.089090	0.411782	NaN
654	1.000000	0.994780	7.37145e+06	-44389.1	1005.82	-29776.1	0.000000	0.000000	6.995170	-0.067069	NaN	0.000000	0.001668	0.001807	28.083	0.044850	0.002082	21.5439	28.1258	-163.018	-0.020301	0.993396	-0.042173	-0.043557	-0.067069	21.5439	-0.039838	-0.044714	1.499946	NaN
654	1.000000	1.002755	7.37145e+06	-44389.1	1005.82	-29776.1	0.000000	0.000000	7.003146	-0.061696	NaN	0.000000	0.001612	0.001807	28.0826	0.094508	0.002140	44.1546	174.57	-163.487	-0.045246	1.001424	-0.034198	-0.035529	-0.061696	44.1546	-0.033150	-0.028279	2.181715	NaN
654	1.000000	1.010776	7.37145e+06	-44389.1	1005.82	-29776.1	0.000000	0.000000	7.011170	0.015465	NaN	0.000000	0.001658	0.001729	28.0833	0.033566	0.002019	16.628	-26.4493	-170.101	0.035384	1.009485	-0.026177	-0.027468	0.015465	16.628	-0.026874	-0.018908	-0.817925	NaN
654	1.000000	1.018760	7.37145e+06	-44389.1	1005.82	-29776.1	0.000000	0.000000	7.019152	-0.025523	NaN	0.000000	0.001668	0.001746	28.0827	0.072188	0.002077	34.7619	-161.638	-166.183	-0.018547	1.017462	-0.018193	-0.019491	-0.025523	34.7619	-0.017642	-0.010926	2.335978	NaN
654	1.000000	1.026771	7.37145e+06	-44389.1	1005.82	-29776.1	0.000000	0.000000	7.027164	-0.006884	NaN	0.000000	0.001669	0.001749	28.0827	0.084109	0.001988	42.2992	104.653	-163.442	-0.020051	1.025482	-0.010182	-0.011471	-0.006884	42.2992	-0.010060	-0.006422	1.071935	NaN
654	1.000000	1.034752	7.37145e+06	-44389.1	1005.82	-29776.1	0.000000	0.000000	7.035159	0.327280	NaN	0.000000	0.001712	0.001739	28.083	0.605803	0.001941	312.077	9.416334	-164.323	0.075001	1.033417	-0.002201	-0.003536	0.327280	312.077	-0.002987	-0.002112	-154.96	NaN
654	1.000000	1.042665	7.37145e+06	-44389.1	1005.82	-29776.1	0.000000	0.000000	7.043372	7.648397	NaN	0.000000	0.001671	0.001753	28.0827	7.507083	0.001672	4490.88	11.1997	-170.365	6.220007	1.041401	0.005712	0.004448	7.648397	4490.88	0.004434	0.003623	2111.01	68165.6
654	2.000000	1.045366	7.37145e+06	-44389.1	1005.82	-29776.1	0.000000	0.000000	7.046168	9.969915	NaN	0.000000	0.001674	0.001727	28.0838	10.03	0.001703	5887.87	10.1431	-172.506	9.659783	1.045030	0.008412	0.008076	9.969915	5887.87	0.007142	0.006175	1614.53	68455.7
654	2.000000	1.047336	7.37145e+06	-44389.1	1005.82	-29776.1	0.000000	0.000000	7.048280	13.4038	NaN	0.000000	0.001693	0.001755	28.0828	12.803	0.001810	7071.76	7.546541	-173.689	12.5262	1.047004	0.010383	0.010051	13.4038	7071.76	0.008961	0.008050	1665.08	72011.9
654	2.000000	1.049348	7.37145e+06	-44389.1	1005.82	-29776.1	0.000000	0.000000	7.050419	16.5084	NaN	0.000000	0.001678	0.001762	28.0826	15.0017	0.001737	8635.99	5.246508	-172.703	16.6043	1.049065	0.012395	0.012111	16.5084	8635.99	0.010961	0.010269	1607.58	77860.9
654	2.000000	1.051303	7.37145e+06	-44389.1	1005.82	-29776.1	0.000000	0.000000	7.052621	22.5145	NaN	0.000000	0.001692	0.001762	28.0828	16.9775	0.001786	9507.95	6.823725	-174.935	21.9862	1.050996	0.014350	0.014043	22.5145	9507.95	0.012574	0.012185	1847.77	78696.1
654	2.000000	1.053262	7.37145e+06	-44389.1	1005.82	-29776.1	0.000000	0.000000	7.054685	25.0564	NaN	0.000000	0.001666	0.001749	28.0828	19.4161	0.001680	11557.4	4.361325	-174.127	24.8408	1.053021	0.016309	0.016068	25.0564	11557.4	0.014683	0.014865	1685.62	86607.3
654	2.000000	1.055259	7.37145e+06	-44389.1	1005.82	-29776.1	0.000000	0.000000	7.056962	31.8608	NaN	0.000000	0.001662	0.001733	28.0832	20.8717	0.001670	12496.4	5.311561	-175.182	31.5078	1.054998	0.018306	0.018045	31.8608	12496.4	0.016394	0.017189	1853.53	87081.8
654	2.000000	1.057272	7.37145e+06	-44389.1	1005.82	-29776.1	0.000000	0.000000	7.059201	37.3773	NaN	0.000000	0.001684	0.001740	28.0828	24.5816	0.001756	13997.4	7.941604	-179.652	36.329	1.056854	0.020319	0.019901	37.3773	13997.4	0.018316	0.019965	1872.16	90508.2
654	2.000000	1.059285	7.37145e+06	-44389.1	1005.82	-29776.1	0.000000	0.000000	7.061479	43.8272	NaN	0.000000	0.001675	0.001730	28.0831	26.082	0.001837	14200.7	3.189810	-174.458	43.0779	1.058938	0.022332	0.021985	43.8272	14200.7	0.020017	0.022569	1941.92	86362.6
654	2.000000	1.061223	7.37145e+06	-44389.1	1005.82	-29776.1	0.000000	0.000000	7.063641	49.2805	NaN	0.000000	0.001679	0.001747	28.0829	28.5977	0.001793	15951.2	6.562916	179.899	48.4722	1.061021	0.024270	0.024068	49.2805	15951.2	0.021953	0.025704	1917.2	90899.8
654	2.000000	1.063232	7.37145e+06	-44389.1	1005.82	-29776.1	0.000000	0.000000	7.066075	59.6165	NaN	0.000000	0.001720	0.001749	28.0828	30.6319	0.001736	17642.2	0.670002	-175.799	57.8402	1.062944	0.026279	0.025991	59.6165	17642.2	0.023744	0.028771	2072.14	95028.3
654	2.000000	1.065251	7.37145e+06	-44389.1	1005.82	-29776.1	0.000000	0.000000	7.068409	67.2862	NaN	0.000000	0.001704	0.001742	28.0815	31.9261	0.001718	18587.3	5.140487	179.787	67.1502	1.064941	0.028297	0.027988	67.2862	18587.3	0.025582	0.032084	2097.21	94808.7
654	2.000000	1.067220	7.37145e+06	-44389.1	1005.82	-29776.1	0.000000	0.000000	7.070671	74.3862	NaN	0.000000	0.001643	0.001705	28.0814	34.5496	0.001872	18459.9	6.811663	179.475	73.2713	1.066900	0.030267	0.029947	74.3862	18459.9	0.027245	0.035227	2111.65	89860.4
654	2.000000	1.069312	7.37145e+06	-44389.1	1005.82	-29776.1	0.000000	0.000000	7.073005	80.2924	NaN	0.000000	0.001660	0.001683	28.0817	35.8622	0.001888	18998.7	3.944603	-176.742	81.1423	1.068880	0.032359	0.031927	80.2924	18998.7	0.029189	0.039080	2054.59	87805.5
654	2.000000	1.071237	7.37145e+06	-44389.1	1005.82	-29776.1	0.000000	0.000000	7.075256	88.2255	NaN	0.000000	0.001662	0.001634	28.0817	37.3224	0.001924	19398.8	4.779055	-179.006	86.377	1.070887	0.034284	0.033934	88.2255	19398.8	0.030873	0.042572	2072.36	85898.2
654	2.000000	1.073190	7.37145e+06	-44389.1	1005.82	-29776.1	0.000000	0.000000	7.077469	94.5251	NaN	0.000000	0.001676	0.001681	28.0819	39.4873	0.001745	22633.2	-0.550615	-176.162	91.9951	1.072932	0.036237	0.035979	94.5251	22633.2	0.033105	0.047425	1993.13	94954.1
654	2.000000	1.075205	7.37145e+06	-44389.1	1005.82	-29776.1	0.000000	0.000000	7.080046	108.224	NaN	0.000000	0.001668	0.001661	28.0818	41.0388	0.001752	23421.4	3.202820	179.839	106.247	1.074931	0.038252	0.037978	108.224	23421.4	0.034786	0.051250	2111.7	94523.4
654	2.000000	1.077219	7.37145e+06	-44389.1	1005.82	-29776.1	0.000000	0.000000	7.082391	116.276	NaN	0.000000	0.001679	0.001679	28.0815	42.4033	0.001682	25204	1.761771	-178.753	113.039	1.076813	0.040266	0.039860	116.276	25204	0.036806	0.056034	2075.09	97278.5
654	2.000000	1.079311	7.37145e+06	-44389.1	1005.82	-29776.1	0.000000	0.000000	7.084840	124.957	NaN	0.000000	0.001621	0.001679	28.0818	46.2467	0.001843	25088.4	6.965919	176.246	126.325	1.078957	0.042358	0.042004	124.957	25088.4	0.038623	0.060517	2064.81	93176.3
654	2.000000	1.081185	7.37145e+06	-44389.1	1005.82	-29776.1	0.000000	0.000000	7.086978	131.378	NaN	0.000000	0.001613	0.001683	28.0815	48.3482	0.001903	25407.7	7.449570	175.182	128.366	1.080927	0.044231	0.043974	131.378	25407.7	0.040353	0.064945	2022.92	91089
654	2.000000	1.083170	7.37145e+06	-44389.1	1005.82	-29776.1	0.000000	0.000000	7.089471	143.729	NaN	0.000000	0.001617	0.001710	28.0818	48.6858	0.001840	26460	0.194396	-177.776	139.279	1.082891	0.046217	0.045937	143.729	26460	0.042143	0.069683	2062.6	91579.6
654	2.000000	1.085187	7.37145e+06	-44389.1	1005.82	-29776.1	0.000000	0.000000	7.091968	155.414	NaN	0.000000	0.001603	0.001683	28.0816	49.538	0.001723	28749	1.670750	-179.931	154.449	1.084919	0.048234	0.047966	155.414	28749	0.044179	0.075274	2064.65	95735.7
654	2.000000	1.087199	7.37145e+06	-44389.1	1005.82	-29776.1	0.000000	0.000000	7.094423	166.177	NaN	0.000000	0.001612	0.001698	28.0819	52.6591	0.001768	29790.3	9.207181	172.174	164.894	1.086878	0.050246	0.049925	166.177	29790.3	0.046062	0.080632	2060.94	95850.7
654	2.000000	1.089222	7.37145e+06	-44389.1	1005.82	-29776.1	0.000000	0.000000	7.096941	178.249	NaN	0.000000	0.001638	0.001668	28.0819	54.4383	0.001803	30194.5	7.715038	174.035	177.29	1.088838	0.052269	0.051885	178.249	30194.5	0.047841	0.085857	2076.12	94148.7
654	2.000000	1.091254	7.37145e+06	-44389.1	1005.82	-29776.1	0.000000	0.000000	7.099251	185.007	NaN	0.000000	0.001645	0.001662	28.0817	55.1405	0.001669	33033.8	4.538555	175.552	185.357	1.090876	0.054301	0.053923	185.007	33033.8	0.050100	0.092723	1995.26	99114.4
654	2.000000	1.093199	7.37145e+06	-44389.1	1005.82	-29776.1	0.000000	0.000000	7.101602	194.888	NaN	0.000000	0.001624	0.001692	28.0816	58.2986	0.001709	34113.2	2.990362	176.929	193.316	1.092974	0.056246	0.056020	194.888	34113.2	0.051961	0.098570	1977.15	99271
654	2.000000	1.095239	7.37145e+06	-44389.1	1005.82	-29776.1	0.000000	0.000000	7.104238	209.389	NaN	0.000000	0.001672	0.001695	28.0818	60.4144	0.001885	32055	7.936469	173.12	208.68	1.094858	0.058286	0.057905	209.389	32055	0.053386	0.103167	2029.61	91179.7
654	2.000000	1.097206	7.37145e+06	-44389.1	1005.82	-29776.1	0.000000	0.000000	7.106500	216.567	NaN	0.000000	0.001617	0.001704	28.0819	62.3439	0.001830	34066.3	1.249756	179.078	215.621	1.096937	0.060252	0.059984	216.567	34066.3	0.055484	0.110116	1966.72	93793.7
654	2.000000	1.099121	7.37145e+06	-44389.1	1005.82	-29776.1	0.000000	0.000000	7.108936	229.238	NaN	0.000000	0.001608	0.001710	28.0831	64.6922	0.001833	35287.5	6.416067	174.681	223.917	1.098802	0.062168	0.061849	229.238	35287.5	0.057296	0.116290	1971.27	94541.8
654	2.000000	1.101172	7.37145e+06	-44389.1	1005.82	-29776.1	0.000000	0.000000	7.111495	241.582	NaN	0.000000	0.001615	0.001683	28.0831	65.6831	0.001812	36245.4	2.907237	177.101	240.193	1.100882	0.064219	0.063929	241.582	36245.4	0.059220	0.123025	1963.68	94412.5
654	2.000000	1.103144	7.37145e+06	-44389.1	1005.82	-29776.1	0.000000	0.000000	7.113902	252.177	NaN	0.000000	0.001608	0.001700	28.0829	67.1945	0.001828	36768.4	1.187380	178.664	248.325	1.102896	0.066190	0.065942	252.177	36768.4	0.061047	0.129588	1945.99	93318.1
654	2.000000	1.105256	7.37145e+06	-44389.1	1005.82	-29776.1	0.000000	0.000000	7.116629	267.125	NaN	0.000000	0.001576	0.001700	28.0829	69.4965	0.001879	36990.2	6.522328	173.526	268.334	1.104731	0.068303	0.067778	267.125	36990.2	0.062887	0.136363	1958.93	91519.2
654	2.000000	1.107133	7.37145e+06	-44389.1	1005.82	-29776.1	0.000000	0.000000	7.118833	275.078	NaN	0.000000	0.001682	0.001697	28.083	71.0605	0.001741	40820.4	2.780131	175.963	271.382	1.106888	0.070180	0.069935	275.078	40820.4	0.065126	0.144829	1899.33	97999.1
654	2.000000	1.109197	7.37145e+06	-44389.1	1005.82	-29776.1	0.000000	0.000000	7.121236	283.328	NaN	0.000000	0.001699	0.001687	28.0831	73.0068	0.001827	39960.6	2.671247	176.453	282.369	1.108967	0.072244	0.072014	283.328	39960.6	0.066926	0.151810	1866.33	93703.3
654	2.000000	1.111182	7.37145e+06	-44389.1	1005.82	-29776.1	0.000000	0.000000	7.124059	303.706	NaN	0.000000	0.001681	0.001680	28.083	75.1427	0.001870	40183.8	3.563788	175.449	301.819	1.110934	0.074229	0.073981	303.706	40183.8	0.068561	0.158282	1918.77	92280.3
654	2.000000	1.113149	7.37145e+06	-44389.1	1005.82	-29776.1	0.000000	0.000000	7.126424	313.403	NaN	0.000000	0.001673	0.001750	28.0835	76.4649	0.001731	44181.1	2.855433	175.398	311.328	1.112851	0.076196	0.075898	313.403	44181.1	0.070876	0.167669	1869.18	98579
654	2.000000	1.115156	7.37145e+06	-44389.1	1005.82	-29776.1	0.000000	0.000000	7.129069	328.914	NaN	0.000000	0.001679	0.001696	28.0831	78.2907	0.001804	43386.9	8.687787	170.436	326.645	1.114751	0.078203	0.077798	328.914	43386.9	0.072518	0.174480	1885.11	94898.4
654	2.000000	1.117177	7.37145e+06	-44389.1	1005.82	-29776.1	0.000000	0.000000	7.131469	338.131	NaN	0.000000	0.001713	0.001699	28.0829	81.2583	0.001903	42702.1	5.422594	173.984	336.43	1.116896	0.080224	0.079943	338.131	42702.1	0.074285	0.181955	1858.32	91461.9
654	2.000000	1.119159	7.37145e+06	-44389.1	1005.82	-29776.1	0.000000	0.000000	7.134125	354.537	NaN	0.000000	0.001688	0.001680	28.0831	83.0594	0.001988	41775.2	4.387126	174.713	353.486	1.118829	0.082206	0.081876	354.537	41775.2	0.075841	0.188658	1879.26	87872.8
654	2.000000	1.121130	7.37145e+06	-44389.1	1005.82	-29776.1	0.000000	0.000000	7.136833	372.461	NaN	0.000000	0.001702	0.001707	28.0829	82.858	0.001743	47530.5	1.466433	176.136	369.474	1.120769	0.084177	0.083815	372.461	47530.5	0.078300	0.199481	1867.15	97228.7
654	2.000000	1.123312	7.37145e+06	-44389.1	1005.82	-29776.1	0.000000	0.000000	7.139391	381.624	NaN	0.000000	0.001689	0.001689	28.0833	86.3689	0.001710	50521.1	1.867769	175.647	388.297	1.122894	0.086359	0.085940	381.624	50521.1	0.080693	0.210287	1814.78	100656
654	2.000000	1.125096	7.37145e+06	-44389.1	1005.82	-29776.1	0.000000	0.000000	7.142025	402.294	NaN	0.000000	0.001642	0.001674	28.0832	87.3846	0.001874	46637.2	4.147202	173.671	397.88	1.124871	0.088143	0.087918	402.294	46637.2	0.081674	0.214790	1872.97	91938.9
654	2.000000	1.127157	7.37145e+06	-44389.1	1005.82	-29776.1	0.000000	0.000000	7.144685	416.877	NaN	0.000000	0.001649	0.001703	28.0828	90.6307	0.001880	48205.7	3.280329	174.813	415.488	1.126825	0.090204	0.089872	416.877	48205.7	0.083718	0.224322	1858.39	92989.9
654	2.000000	1.129176	7.37145e+06	-44389.1	1005.82	-29776.1	0.000000	0.000000	7.147399	433.788	NaN	0.000000	0.001679	0.001696	28.083	91.9743	0.001849	49741.9	2.197942	175.344	432.225	1.128818	0.092222	0.091865	433.788	49741.9	0.085682	0.233665	1856.46	94015.4
654	2.000000	1.131181	7.37145e+06	-44389.1	1005.82	-29776.1	0.000000	0.000000	7.150052	449.537	NaN	0.000000	0.001721	0.001707	28.0827	92.7418	0.001758	52742.6	3.428310	173.628	448.828	1.130841	0.094228	0.093888	449.537	52742.6	0.087836	0.244115	1841.5	97529.8
654	2.000000	1.133114	7.37145e+06	-44389.1	1005.82	-29776.1	0.000000	0.000000	7.152859	470.805	NaN	0.000000	0.001711	0.001691	28.0817	94.0585	0.001694	55512.7	3.022651	173.836	468.737	1.132784	0.096161	0.095831	470.805	55512.7	0.089800	0.253833	1854.79	100668
654	2.000000	1.135113	7.37145e+06	-44389.1	1005.82	-29776.1	0.000000	0.000000	7.155483	486.01	NaN	0.000000	0.001713	0.001687	28.0818	94.9765	0.001867	50869.3	2.500858	175.088	482.082	1.134761	0.098160	0.097808	486.01	50869.3	0.090994	0.259823	1870.54	91178
654	2.000000	1.137068	7.37145e+06	-44389.1	1005.82	-29776.1	0.000000	0.000000	7.158006	499.827	NaN	0.000000	0.001643	0.001646	28.0818	98.9077	0.001841	53710.4	5.683153	171.262	492.83	1.136819	0.100115	0.099866	499.827	53710.4	0.093136	0.270734	1846.19	94310.6
654	2.000000	1.139202	7.37145e+06	-44389.1	1005.82	-29776.1	0.000000	0.000000	7.160733	514.253	NaN	0.000000	0.001630	0.001690	28.0819	100.951	0.002001	50457.4	3.794227	174.472	514.487	1.138784	0.102249	0.101830	514.253	50457.4	0.094605	0.278342	1847.56	87379.4
654	2.000000	1.141179	7.37145e+06	-44389.1	1005.82	-29776.1	0.000000	0.000000	7.163280	528.126	NaN	0.000000	0.001579	0.001711	28.0816	102.449	0.001869	54810.5	5.219070	171.342	528.993	1.140873	0.104226	0.103920	528.126	54810.5	0.096999	0.290949	1815.18	92838.6
654	2.000000	1.142072	7.37145e+06	-44389.1	1005.82	-29776.1	0.000000	0.000000	7.164863	544.906	NaN	0.000000	0.001587	0.001672	28.0818	103.885	0.001814	57257.8	9.365098	167.268	541.561	1.141765	0.105119	0.104812	544.906	57257.8	0.097981	0.296194	1839.69	96121.2