File: remote_trans/data/nanoindenter/0828-1/data/Data_2025-08-06,11h17m57s/2025-07-22_16-23-58_1_1105.txt
2025-07-22, 16:23:58, 1
Index	Phase	Displacement	Time	Pos X	Pos Y	Pos Z	Rot A	Rot B	Piezo Z	Force A	Force B	Gripper	Voltage A	Voltage B	Temperature	Amplitude force	Amplitude pos	Stiffness	Phase shift	Phase excitation	Force A raw	Displacement raw	HMax	HMax raw	Real Force	Real Stiffness	Contact Depth	Area	Hardness	Reduced Mod.
[#]	[#]	[um]	[s]	[um]	[um]	[um]	[m°]	[m°]	[um]	[uN]	[uN]	[V]	[V]	[V]	[°C]	[uN]	[um]	[N/m]	[°]	[°]	[uN]	[um]	[um]	[um]	[uN]	[N/m]	[um]	[um^2]	[MPa]	[MPa]
1105	1.000000	0.002584	7.37586e+06	-55389.1	1055.82	-29741.6	0.000000	0.000000	6.002812	0.067107	NaN	0.000000	0.001600	0.001707	28.0805	0.073114	0.000929	78.7205	85.2402	-166.096	0.050571	0.001336	-1.151311	-1.152559	0.067107	78.7205	-1.151950	-2.494393E+15	-2.690317E-17	NaN
1105	1.000000	0.012616	7.37586e+06	-55389.1	1055.82	-29741.6	0.000000	0.000000	6.012842	0.015541	NaN	0.000000	0.001604	0.001640	28.0809	0.009367	0.001207	7.759342	27.7047	18.0022	-0.019325	0.011202	-1.141279	-1.142693	0.015541	7.759342	-1.142781	-1.879446E+15	-8.268667E-18	NaN
1105	1.000000	0.022530	7.37586e+06	-55389.1	1055.82	-29741.6	0.000000	0.000000	6.022755	-0.011904	NaN	0.000000	0.001615	0.001674	28.0807	0.058014	0.001830	31.7005	-33.627	-168.006	0.046195	0.021192	-1.131365	-1.132703	-0.011904	31.7005	-1.131084	-1.309659E+15	9.089602E-18	NaN
1105	1.000000	0.032524	7.37586e+06	-55389.1	1055.82	-29741.6	0.000000	0.000000	6.032750	0.014539	NaN	0.000000	0.001626	0.001686	28.0811	0.008668	0.001988	4.360599	-147.022	14.4695	0.101448	0.031151	-1.121371	-1.122744	0.014539	4.360599	-1.123872	-1.048141E+15	-1.387129E-17	NaN
1105	1.000000	0.042524	7.37586e+06	-55389.1	1055.82	-29741.6	0.000000	0.000000	6.042749	0.006125	NaN	0.000000	0.001615	0.001666	28.0808	0.047576	0.001958	24.2937	83.9399	-166.37	0.014097	0.041249	-1.111371	-1.112646	0.006125	24.2937	-1.111560	-7.165178E+14	-8.548329E-18	NaN
1105	1.000000	0.052527	7.37586e+06	-55389.1	1055.82	-29741.6	0.000000	0.000000	6.052754	0.029076	NaN	0.000000	0.001642	0.001665	28.0808	0.086269	0.001932	44.6466	105.795	16.2938	0.012636	0.051212	-1.101368	-1.102683	0.029076	44.6466	-1.101856	-5.308657E+14	-5.477157E-17	NaN
1105	1.000000	0.062497	7.37586e+06	-55389.1	1055.82	-29741.6	0.000000	0.000000	6.062723	0.018682	NaN	0.000000	0.001578	0.001677	28.0806	0.080867	0.001974	40.9662	-35.8027	-165.3	0.036214	0.061187	-1.091398	-1.092708	0.018682	40.9662	-1.091740	-3.883044E+14	-4.811055E-17	NaN
1105	1.000000	0.072522	7.37586e+06	-55389.1	1055.82	-29741.6	0.000000	0.000000	6.072748	-0.002201	NaN	0.000000	0.001612	0.001666	28.0807	0.049706	0.002016	24.6511	130.888	13.1203	0.096077	0.071174	-1.081373	-1.082721	-0.002201	24.6511	-1.081306	-2.812274E+14	7.826516E-18	NaN
1105	1.000000	0.082550	7.37586e+06	-55389.1	1055.82	-29741.6	0.000000	0.000000	6.082775	0.003736	NaN	0.000000	0.001614	0.001685	28.0808	0.131427	0.001836	71.5896	102.356	-167.442	0.011228	0.081235	-1.071345	-1.072660	0.003736	71.5896	-1.071384	-2.069133E+14	-1.805801E-17	NaN
1105	1.000000	0.092518	7.37586e+06	-55389.1	1055.82	-29741.6	0.000000	0.000000	6.092742	-0.020053	NaN	0.000000	0.001625	0.001650	28.0807	0.057447	0.001932	29.728	163.922	15.4376	-0.013433	0.091234	-1.061377	-1.062661	-0.020053	29.728	-1.060871	-1.494620E+14	1.341670E-16	NaN
1105	1.000000	0.102543	7.37586e+06	-55389.1	1055.82	-29741.6	0.000000	0.000000	6.102771	0.070649	NaN	0.000000	0.001644	0.001661	28.0806	0.060587	0.001968	30.79	-162.631	-166.298	0.000928	0.101206	-1.051352	-1.052689	0.070649	30.79	-1.053073	-1.174137E+14	-6.017071E-16	NaN
1105	1.000000	0.112557	7.37586e+06	-55389.1	1055.82	-29741.6	0.000000	0.000000	6.112787	0.101087	NaN	0.000000	0.001606	0.001662	28.0823	0.036505	0.001963	18.5957	-56.4043	10.9303	0.077252	0.111190	-1.041338	-1.042705	0.101087	18.5957	-1.045415	-9.263441E+13	-1.091250E-15	NaN
1105	1.000000	0.122549	7.37586e+06	-55389.1	1055.82	-29741.6	0.000000	0.000000	6.122773	-0.031308	NaN	0.000000	0.001604	0.001661	28.082	0.136146	0.002016	67.5438	-89.3762	-164.829	0.034220	0.121257	-1.031346	-1.032638	-0.031308	67.5438	-1.030999	-5.928088E+13	5.281271E-16	NaN
1105	1.000000	0.132567	7.37586e+06	-55389.1	1055.82	-29741.6	0.000000	0.000000	6.132792	0.002744	NaN	0.000000	0.001600	0.001635	28.0821	0.048457	0.002005	24.1693	-68.1175	12.2074	0.073674	0.131191	-1.021328	-1.022704	0.002744	24.1693	-1.021413	-4.405217E+13	-6.228499E-17	NaN
1105	1.000000	0.142548	7.37586e+06	-55389.1	1055.82	-29741.6	0.000000	0.000000	6.142774	0.014182	NaN	0.000000	0.001575	0.001654	28.082	0.042531	0.002210	19.2492	-8.356367	-166.389	0.055107	0.141241	-1.011347	-1.012654	0.014182	19.2492	-1.011899	-3.280525E+13	-4.323180E-16	NaN
1105	1.000000	0.152590	7.37586e+06	-55389.1	1055.82	-29741.6	0.000000	0.000000	6.152818	0.053424	NaN	0.000000	0.001558	0.001615	28.0822	0.056537	0.002001	28.2604	-178.773	11.9981	0.052791	0.151238	-1.001304	-1.002656	0.053424	28.2604	-1.002722	-2.468421E+13	-2.164306E-15	NaN
1105	1.000000	0.162528	7.37586e+06	-55389.1	1055.82	-29741.6	0.000000	0.000000	6.162756	0.069453	NaN	0.000000	0.001578	0.001675	28.082	0.106108	0.002046	51.8553	4.998074	-167.824	0.040311	0.161277	-0.991367	-0.992618	0.069453	51.8553	-0.992372	-1.790813E+13	-3.878312E-15	NaN
1105	1.000000	0.172583	7.37586e+06	-55389.1	1055.82	-29741.6	0.000000	0.000000	6.172807	-0.014672	NaN	0.000000	0.001592	0.001667	28.0818	0.113186	0.002042	55.4335	-142.578	13.0353	0.042933	0.171195	-0.981312	-0.982699	-0.014672	55.4335	-0.981114	-1.263041E+13	1.161608E-15	NaN
1105	1.000000	0.182595	7.37586e+06	-55389.1	1055.82	-29741.6	0.000000	0.000000	6.182824	0.066827	NaN	0.000000	0.001617	0.001648	28.0819	0.094978	0.001976	48.0752	66.7126	-165.46	0.031151	0.181278	-0.971300	-0.972617	0.066827	48.0752	-0.972342	-9.621128E+12	-6.945871E-15	NaN
1105	1.000000	0.192601	7.37586e+06	-55389.1	1055.82	-29741.6	0.000000	0.000000	6.192825	-0.027411	NaN	0.000000	0.001647	0.001668	28.0821	0.114708	0.001906	60.1966	94.7847	17.4866	-0.078285	0.191243	-0.961294	-0.962652	-0.027411	60.1966	-0.960952	-6.756284E+12	4.057064E-15	NaN
1105	1.000000	0.202573	7.37586e+06	-55389.1	1055.82	-29741.6	0.000000	0.000000	6.202798	-0.025856	NaN	0.000000	0.001654	0.001626	28.0817	0.102287	0.001949	52.489	117.474	-162.03	0.059281	0.201249	-0.951322	-0.952646	-0.025856	52.489	-0.950952	-4.953030E+12	5.220251E-15	NaN
1105	1.000000	0.212593	7.37586e+06	-55389.1	1055.82	-29741.6	0.000000	0.000000	6.212819	0.029178	NaN	0.000000	0.001604	0.001617	28.0817	0.078879	0.002021	39.0351	-122.525	11.1532	0.052047	0.211250	-0.941302	-0.942645	0.029178	39.0351	-0.941863	-3.734815E+12	-7.812461E-15	NaN
1105	1.000000	0.222588	7.37586e+06	-55389.1	1055.82	-29741.6	0.000000	0.000000	6.222815	0.056821	NaN	0.000000	0.001640	0.001654	28.0818	0.106393	0.002053	51.8268	-114.296	-166.94	0.088394	0.221235	-0.931307	-0.932660	0.056821	51.8268	-0.932130	-2.760185E+12	-2.058584E-14	NaN
1105	1.000000	0.232598	7.37586e+06	-55389.1	1055.82	-29741.6	0.000000	0.000000	6.232825	0.043079	NaN	0.000000	0.001617	0.001636	28.0818	0.018958	0.001937	9.785488	-82.91	14.747	0.127701	0.231218	-0.921297	-0.922676	0.043079	9.785488	-0.924599	-2.184195E+12	-1.972326E-14	NaN
1105	1.000000	0.242594	7.37586e+06	-55389.1	1055.82	-29741.6	0.000000	0.000000	6.242819	-0.027749	NaN	0.000000	0.001615	0.001652	28.0818	0.077521	0.002042	37.9717	73.1536	-167.559	-0.023533	0.241285	-0.911301	-0.912610	-0.027749	37.9717	-0.910753	-1.420131E+12	1.953951E-14	NaN
1105	1.000000	0.252596	7.37586e+06	-55389.1	1055.82	-29741.6	0.000000	0.000000	6.252823	0.032446	NaN	0.000000	0.001621	0.001654	28.0807	0.019521	0.001981	9.853752	-136.541	11.0589	0.041298	0.251206	-0.901299	-0.902689	0.032446	9.853752	-0.903769	-1.142839E+12	-2.839083E-14	NaN
1105	1.000000	0.262573	7.37586e+06	-55389.1	1055.82	-29741.6	0.000000	0.000000	6.262797	-0.028172	NaN	0.000000	0.001633	0.001619	28.081	0.017666	0.002041	8.656174	-164.409	-167.115	-0.033215	0.261352	-0.891322	-0.892543	-0.028172	8.656174	-0.888881	-7.191009E+11	3.917734E-14	NaN
1105	1.000000	0.272625	7.37586e+06	-55389.1	1055.82	-29741.6	0.000000	0.000000	6.272854	0.091025	NaN	0.000000	0.001634	0.001594	28.0809	0.092393	0.002020	45.7404	80.7873	18.0012	0.165346	0.271253	-0.881270	-0.882642	0.091025	45.7404	-0.882763	-5.943827E+11	-1.531415E-13	NaN
1105	1.000000	0.282642	7.37586e+06	-55389.1	1055.82	-29741.6	0.000000	0.000000	6.282869	0.024568	NaN	0.000000	0.001634	0.001613	28.0807	0.096215	0.002036	47.2538	-125.831	-166.523	0.044330	0.281294	-0.871253	-0.872601	0.024568	47.2538	-0.871643	-4.204065E+11	-5.843915E-14	NaN
1105	1.000000	0.292619	7.37586e+06	-55389.1	1055.82	-29741.6	0.000000	0.000000	6.292842	-0.051837	NaN	0.000000	0.001615	0.001636	28.0807	0.139828	0.001992	70.1804	71.1742	12.5375	0.024276	0.291266	-0.861276	-0.862628	-0.051837	70.1804	-0.860722	-2.991538E+11	1.732789E-13	NaN
1105	1.000000	0.302639	7.37586e+06	-55389.1	1055.82	-29741.6	0.000000	0.000000	6.302866	0.036888	NaN	0.000000	0.001573	0.001604	28.0808	0.010959	0.001875	5.843663	-130.819	-166.755	0.106762	0.301253	-0.851256	-0.852642	0.036888	5.843663	-0.855991	-2.581365E+11	-1.429028E-13	NaN
1105	1.000000	0.312637	7.37586e+06	-55389.1	1055.82	-29741.6	0.000000	0.000000	6.312863	0.014267	NaN	0.000000	0.001579	0.001627	28.0807	0.021023	0.002121	9.913051	144.589	14.2995	0.014889	0.311244	-0.841258	-0.842651	0.014267	9.913051	-0.842338	-1.686394E+11	-8.460238E-14	NaN
1105	1.000000	0.322639	7.37586e+06	-55389.1	1055.82	-29741.6	0.000000	0.000000	6.322866	0.039378	NaN	0.000000	0.001633	0.001654	28.0806	0.090859	0.001914	47.4704	160.519	-165.496	0.025574	0.321284	-0.831256	-0.832611	0.039378	47.4704	-0.831878	-1.216849E+11	-3.236061E-13	NaN
1105	1.000000	0.332642	7.37586e+06	-55389.1	1055.82	-29741.6	0.000000	0.000000	6.332870	0.050148	NaN	0.000000	0.001642	0.001627	28.0809	0.063989	0.001957	32.701	71.704	14.3699	0.003784	0.331259	-0.821253	-0.822636	0.050148	32.701	-0.822403	-9.053015E+10	-5.539389E-13	NaN
1105	1.000000	0.342656	7.37586e+06	-55389.1	1055.82	-29741.6	0.000000	0.000000	6.342882	0.010765	NaN	0.000000	0.001621	0.001687	28.0807	0.065042	0.001982	32.816	-73.4344	-166.985	0.047516	0.341353	-0.811239	-0.812542	0.010765	32.816	-0.811485	-6.437434E+10	-1.672316E-13	NaN
1105	1.000000	0.352642	7.37586e+06	-55389.1	1055.82	-29741.6	0.000000	0.000000	6.352868	0.008125	NaN	0.000000	0.001612	0.001666	28.0807	0.085921	0.002003	42.9068	32.9823	15.4259	0.060383	0.351271	-0.801253	-0.802624	0.008125	42.9068	-0.801395	-4.696790E+10	-1.729971E-13	NaN
1105	1.000000	0.362669	7.37586e+06	-55389.1	1055.82	-29741.6	0.000000	0.000000	6.362899	0.109338	NaN	0.000000	0.001631	0.001661	28.0806	0.019315	0.002162	8.934685	-24.7016	-165.964	0.005757	0.361363	-0.791226	-0.792532	0.109338	8.934685	-0.800404	-4.553465E+10	-2.401200E-12	NaN
1105	1.000000	0.372641	7.37586e+06	-55389.1	1055.82	-29741.6	0.000000	0.000000	6.372866	-0.025502	NaN	0.000000	0.001629	0.001691	28.081	0.059228	0.002070	28.6092	-177.621	13.4433	-0.003265	0.371310	-0.781254	-0.782584	-0.025502	28.6092	-0.780585	-2.450101E+10	1.040875E-12	NaN
1105	1.000000	0.382648	7.37586e+06	-55389.1	1055.82	-29741.6	0.000000	0.000000	6.382874	0.023487	NaN	0.000000	0.001613	0.001658	28.0817	0.103842	0.002084	49.8392	148.251	-168.948	0.044408	0.381332	-0.771247	-0.772563	0.023487	49.8392	-0.771601	-1.849555E+10	-1.269897E-12	NaN
1105	1.000000	0.392635	7.37586e+06	-55389.1	1055.82	-29741.6	0.000000	0.000000	6.392863	0.069275	NaN	0.000000	0.001599	0.001641	28.082	0.024370	0.001913	12.7361	-154.355	16.7379	-0.054263	0.391345	-0.761260	-0.762550	0.069275	12.7361	-0.765339	-1.520304E+10	-4.556638E-12	NaN
1105	1.000000	0.402657	7.37586e+06	-55389.1	1055.82	-29741.6	0.000000	0.000000	6.402883	0.017515	NaN	0.000000	0.001600	0.001685	28.082	0.087314	0.002072	42.1423	-34.4311	-164.693	0.101138	0.401376	-0.751238	-0.752519	0.017515	42.1423	-0.751550	-9.869872E+9	-1.774636E-12	NaN
1105	1.000000	0.412651	7.37586e+06	-55389.1	1055.82	-29741.6	0.000000	0.000000	6.412878	0.040669	NaN	0.000000	0.001617	0.001635	28.082	0.105239	0.002069	50.8657	147.695	13.3749	0.008909	0.411279	-0.741244	-0.742616	0.040669	50.8657	-0.741844	-7.280634E+9	-5.585977E-12	NaN
1105	1.000000	0.422688	7.37586e+06	-55389.1	1055.82	-29741.6	0.000000	0.000000	6.422916	0.049620	NaN	0.000000	0.001615	0.001657	28.0817	0.114618	0.002010	57.0312	-12.5067	-166.643	-0.042638	0.421350	-0.731207	-0.732545	0.049620	57.0312	-0.731859	-5.322903E+9	-9.321930E-12	NaN
1105	1.000000	0.432668	7.37586e+06	-55389.1	1055.82	-29741.6	0.000000	0.000000	6.432896	0.061094	NaN	0.000000	0.001613	0.001624	28.0819	0.039248	0.002006	19.5698	123.917	13.3169	-0.003629	0.431371	-0.721227	-0.722524	0.061094	19.5698	-0.723568	-4.103242E+9	-1.488931E-11	NaN
1105	1.000000	0.442657	7.37586e+06	-55389.1	1055.82	-29741.6	0.000000	0.000000	6.442884	0.025803	NaN	0.000000	0.001588	0.001646	28.0816	0.060852	0.001985	30.6635	13.5381	-166.294	0.016564	0.441399	-0.711238	-0.712496	0.025803	30.6635	-0.711869	-2.841507E+9	-9.080810E-12	NaN
1105	1.000000	0.452686	7.37586e+06	-55389.1	1055.82	-29741.6	0.000000	0.000000	6.452913	0.017366	NaN	0.000000	0.001581	0.001641	28.0816	0.039983	0.001968	20.3171	161.877	11.9563	0.023774	0.451334	-0.701209	-0.702561	0.017366	20.3171	-0.701850	-2.073905E+9	-8.373484E-12	NaN
1105	1.000000	0.462701	7.37586e+06	-55389.1	1055.82	-29741.6	0.000000	0.000000	6.462928	0.032235	NaN	0.000000	0.001596	0.001646	28.0817	0.029520	0.001953	15.1154	-20.5859	-166.349	-0.054986	0.461398	-0.691194	-0.692497	0.032235	15.1154	-0.692793	-1.559878E+9	-2.066478E-11	NaN
1105	1.000000	0.472677	7.37586e+06	-55389.1	1055.82	-29741.6	0.000000	0.000000	6.472905	0.063323	NaN	0.000000	0.001617	0.001652	28.0815	0.067910	0.002051	33.1173	40.4801	16.9143	0.121190	0.471363	-0.681218	-0.682532	0.063323	33.1173	-0.682652	-1.133629E+9	-5.585876E-11	NaN
1105	1.000000	0.482697	7.37586e+06	-55389.1	1055.82	-29741.6	0.000000	0.000000	6.482924	0.033877	NaN	0.000000	0.001610	0.001629	28.0819	0.097271	0.001961	49.5963	-71.5408	-165.822	0.097903	0.481393	-0.671198	-0.672502	0.033877	49.5963	-0.671710	-8.031448E+8	-4.217999E-11	NaN
1105	1.000000	0.492694	7.37586e+06	-55389.1	1055.82	-29741.6	0.000000	0.000000	6.492918	-0.032806	NaN	0.000000	0.001612	0.001699	28.0818	0.151631	0.001938	78.2297	133.013	16.0443	0.018769	0.491383	-0.661201	-0.662512	-0.032806	78.2297	-0.660886	-5.709611E+8	5.745730E-11	NaN
1105	1.000000	0.502718	7.37586e+06	-55389.1	1055.82	-29741.6	0.000000	0.000000	6.502945	0.015254	NaN	0.000000	0.001588	0.001720	28.0817	0.041314	0.001901	21.7369	75.0347	-164.866	-0.007929	0.501462	-0.651176	-0.652433	0.015254	21.7369	-0.651703	-4.273449E+8	-3.569581E-11	NaN
1105	1.000000	0.512711	7.37586e+06	-55389.1	1055.82	-29741.6	0.000000	0.000000	6.512934	-0.051341	NaN	0.000000	0.001633	0.001686	28.0818	0.075909	0.002001	37.9311	-74.7776	14.4543	-0.002858	0.511383	-0.641184	-0.642512	-0.051341	37.9311	-0.640169	-2.969006E+8	1.729215E-10	NaN
1105	1.000000	0.522722	7.37586e+06	-55389.1	1055.82	-29741.6	0.000000	0.000000	6.522948	0.005904	NaN	0.000000	0.001610	0.001657	28.0805	0.091557	0.002012	45.4946	102.981	-165.968	-0.050591	0.521374	-0.631173	-0.632521	0.005904	45.4946	-0.631270	-2.241109E+8	-2.634359E-11	NaN
1105	1.000000	0.532707	7.37586e+06	-55389.1	1055.82	-29741.6	0.000000	0.000000	6.532934	0.041834	NaN	0.000000	0.001601	0.001667	28.0807	0.117608	0.002076	56.664	71.5708	15.7281	-0.007622	0.531361	-0.621188	-0.622534	0.041834	56.664	-0.621742	-1.657972E+8	-2.523231E-10	NaN
1105	1.000000	0.542737	7.37586e+06	-55389.1	1055.82	-29741.6	0.000000	0.000000	6.542965	0.069774	NaN	0.000000	0.001611	0.001666	28.0803	0.079456	0.001927	41.2295	171.768	-165.891	0.069275	0.541466	-0.611158	-0.612429	0.069774	41.2295	-0.612427	-1.234549E+8	-5.651785E-10	NaN
1105	1.000000	0.552731	7.37586e+06	-55389.1	1055.82	-29741.6	0.000000	0.000000	6.552955	-0.034287	NaN	0.000000	0.001646	0.001647	28.0811	0.070692	0.001932	36.5844	115.123	16.4729	0.017560	0.551349	-0.601164	-0.602546	-0.034287	36.5844	-0.600461	-8.449126E+7	4.058107E-10	NaN
1105	1.000000	0.562719	7.37586e+06	-55389.1	1055.82	-29741.6	0.000000	0.000000	6.562945	0.012614	NaN	0.000000	0.001616	0.001639	28.0803	0.067418	0.001989	33.9034	-0.453024	-167.217	-0.000555	0.561485	-0.591176	-0.592410	0.012614	33.9034	-0.591455	-6.349243E+7	-1.986748E-10	NaN
1105	1.000000	0.572730	7.37586e+06	-55389.1	1055.82	-29741.6	0.000000	0.000000	6.572957	0.043085	NaN	0.000000	0.001591	0.001653	28.0805	0.051392	0.001979	25.9626	-100.022	12.1197	0.018164	0.571380	-0.581165	-0.582515	0.043085	25.9626	-0.582410	-4.764092E+7	-9.043732E-10	NaN
1105	1.000000	0.582741	7.37586e+06	-55389.1	1055.82	-29741.6	0.000000	0.000000	6.582968	0.022884	NaN	0.000000	0.001592	0.001650	28.0804	0.106470	0.002004	53.1301	-151.24	-166.401	0.012677	0.581459	-0.571154	-0.572436	0.022884	53.1301	-0.571477	-3.365370E+7	-6.799921E-10	NaN
1105	1.000000	0.592729	7.37586e+06	-55389.1	1055.82	-29741.6	0.000000	0.000000	6.592958	0.068490	NaN	0.000000	0.001583	0.001658	28.0805	0.052035	0.001856	28.036	116.269	14.165	0.039387	0.591369	-0.561165	-0.562525	0.068490	28.036	-0.562998	-2.569447E+7	-2.665571E-9	NaN
1105	1.000000	0.602766	7.37586e+06	-55389.1	1055.82	-29741.6	0.000000	0.000000	6.602991	-0.001176	NaN	0.000000	0.001602	0.001672	28.0805	0.039387	0.002081	18.9295	-74.7914	-166.023	0.071531	0.601476	-0.551129	-0.552419	-0.001176	18.9295	-0.551083	-1.757722E+7	6.690603E-11	NaN
1105	1.000000	0.612760	7.37586e+06	-55389.1	1055.82	-29741.6	0.000000	0.000000	6.612986	0.022581	NaN	0.000000	0.001582	0.001650	28.0805	0.053308	0.002013	26.4756	58.6077	12.5249	0.053143	0.611366	-0.541135	-0.542529	0.022581	26.4756	-0.541775	-1.306091E+7	-1.728917E-9	NaN
1105	1.000000	0.622758	7.37586e+06	-55389.1	1055.82	-29741.6	0.000000	0.000000	6.622986	0.056369	NaN	0.000000	0.001604	0.001676	28.0808	0.049961	0.002081	24.0087	-69.8057	-165.246	0.030752	0.621433	-0.531137	-0.532462	0.056369	24.0087	-0.532898	-9.83589e+06	-5.730902E-9	NaN
1105	1.000000	0.632748	7.37586e+06	-55389.1	1055.82	-29741.6	0.000000	0.000000	6.632973	-0.019632	NaN	0.000000	0.001583	0.001665	28.0807	0.096400	0.001970	48.9286	167.633	17.6607	-0.008486	0.631386	-0.521146	-0.522509	-0.019632	48.9286	-0.520846	-6.68893e+06	2.934980E-9	NaN
1105	1.000000	0.642785	7.37586e+06	-55389.1	1055.82	-29741.6	0.000000	0.000000	6.643010	-0.015503	NaN	0.000000	0.001556	0.001690	28.0807	0.004899	0.001978	2.477078	-133.262	-164.644	0.005999	0.641508	-0.511110	-0.512387	-0.015503	2.477078	-0.506416	-4.21198e+06	3.680588E-9	NaN
1105	1.000000	0.652781	7.37586e+06	-55389.1	1055.82	-29741.6	0.000000	0.000000	6.653006	-0.027639	NaN	0.000000	0.001570	0.001662	28.0808	0.021894	0.002000	10.9487	36.2434	12.7477	-0.051617	0.651397	-0.501114	-0.502498	-0.027639	10.9487	-0.499220	-3.34304e+06	8.267768E-9	NaN
1105	1.000000	0.662764	7.37586e+06	-55389.1	1055.82	-29741.6	0.000000	0.000000	6.662990	0.025052	NaN	0.000000	0.001565	0.001638	28.0819	0.070489	0.002023	34.844	66.3124	-163.748	-0.034147	0.661474	-0.491131	-0.492421	0.025052	34.844	-0.491671	-2.62262e+06	-9.552452E-9	NaN
1105	1.000000	0.672753	7.37586e+06	-55389.1	1055.82	-29741.6	0.000000	0.000000	6.672980	0.053873	NaN	0.000000	0.001589	0.001636	28.0817	0.025852	0.001947	13.2802	-14.8658	13.6449	0.042098	0.671428	-0.481142	-0.482467	0.053873	13.2802	-0.484185	-2.06105e+06	-2.613850E-8	NaN
1105	1.000000	0.682782	7.37586e+06	-55389.1	1055.82	-29741.6	0.000000	0.000000	6.683008	0.028669	NaN	0.000000	0.001559	0.001667	28.0817	0.040054	0.001945	20.5975	-127.393	-166.021	0.085004	0.681461	-0.471113	-0.472434	0.028669	20.5975	-0.472157	-1.39848e+06	-2.050012E-8	NaN
1105	1.000000	0.692778	7.37586e+06	-55389.1	1055.82	-29741.6	0.000000	0.000000	6.693007	0.093368	NaN	0.000000	0.001587	0.001642	28.0821	0.055035	0.002079	26.4726	32.1806	15.9997	0.011082	0.691428	-0.461117	-0.462467	0.093368	26.4726	-0.463762	-1.06627e+06	-8.756539E-8	NaN
1105	1.000000	0.702773	7.37586e+06	-55389.1	1055.82	-29741.6	0.000000	0.000000	6.702999	-0.003674	NaN	0.000000	0.001567	0.001644	28.0818	0.088272	0.001837	48.0558	-41.5893	-168.179	-0.007447	0.701503	-0.451122	-0.452392	-0.003674	48.0558	-0.451064	-706854	5.197755E-9	NaN
1105	1.000000	0.712797	7.37586e+06	-55389.1	1055.82	-29741.6	0.000000	0.000000	6.713023	0.015222	NaN	0.000000	0.001567	0.001649	28.0818	0.038791	0.002096	18.5033	-54.2996	16.8583	-0.062467	0.711466	-0.441098	-0.442429	0.015222	18.5033	-0.441715	-521865	-2.916826E-8	NaN
1105	1.000000	0.722822	7.37586e+06	-55389.1	1055.82	-29741.6	0.000000	0.000000	6.723048	0.013247	NaN	0.000000	0.001582	0.001653	28.0819	0.084989	0.001984	42.8437	-166.097	-163.169	0.114319	0.721502	-0.431072	-0.432393	0.013247	42.8437	-0.431304	-371973	-3.561232E-8	NaN
1105	1.000000	0.732817	7.37586e+06	-55389.1	1055.82	-29741.6	0.000000	0.000000	6.733045	0.067267	NaN	0.000000	0.001592	0.001629	28.0819	0.060172	0.001987	30.2893	146.925	15.4934	0.015740	0.731444	-0.421078	-0.422451	0.067267	30.2893	-0.422744	-281396	-2.390463E-7	NaN
1105	1.000000	0.742823	7.37586e+06	-55389.1	1055.82	-29741.6	0.000000	0.000000	6.743053	0.089255	NaN	0.000000	0.001587	0.001659	28.082	0.058212	0.001934	30.0974	125.643	-167.792	0.069258	0.741507	-0.411072	-0.412388	0.089255	30.0974	-0.413296	-206655	-4.319051E-7	NaN
1105	1.000000	0.752848	7.37586e+06	-55389.1	1055.82	-29741.6	0.000000	0.000000	6.753077	0.087357	NaN	0.000000	0.001583	0.001676	28.0819	0.112014	0.002095	53.4693	172.545	12.8588	0.077620	0.751493	-0.401047	-0.402402	0.087357	53.4693	-0.402272	-144007	-6.066176E-7	NaN
1105	1.000000	0.762833	7.37586e+06	-55389.1	1055.82	-29741.6	0.000000	0.000000	6.763058	-0.005652	NaN	0.000000	0.001578	0.001662	28.082	0.042545	0.001950	21.8136	21.5026	-165.873	0.013630	0.761508	-0.391062	-0.392387	-0.005652	21.8136	-0.390868	-98987.9	5.709561E-8	NaN
1105	1.000000	0.772811	7.37586e+06	-55389.1	1055.82	-29741.6	0.000000	0.000000	6.773039	0.039643	NaN	0.000000	0.001557	0.001673	28.0818	0.115348	0.001973	58.4732	-21.0663	18.2322	-0.023041	0.771482	-0.381083	-0.382413	0.039643	58.4732	-0.381592	-72900.3	-5.437931E-7	NaN
1105	1.000000	0.782824	7.37586e+06	-55389.1	1055.82	-29741.6	0.000000	0.000000	6.783051	0.050783	NaN	0.000000	0.001527	0.001628	28.0819	0.175442	0.002082	84.2616	65.4591	-164.838	0.075592	0.781516	-0.371071	-0.372379	0.050783	84.2616	-0.371523	-52246.2	-9.719901E-7	NaN
1105	1.000000	0.792816	7.37586e+06	-55389.1	1055.82	-29741.6	0.000000	0.000000	6.793041	0.001209	NaN	0.000000	0.001575	0.001653	28.0809	0.134906	0.001900	71.0046	-150.526	17.2801	0.034477	0.791486	-0.361079	-0.362409	0.001209	71.0046	-0.361092	-36951.3	-3.270558E-8	NaN
1105	1.000000	0.802839	7.37586e+06	-55389.1	1055.82	-29741.6	0.000000	0.000000	6.803069	0.098926	NaN	0.000000	0.001565	0.001674	28.0808	0.078602	0.001950	40.3075	-11.5237	-166.175	0.096905	0.801553	-0.351055	-0.352342	0.098926	40.3075	-0.352896	-28119.7	-3.518013E-6	NaN
1105	1.000000	0.812833	7.37586e+06	-55389.1	1055.82	-29741.6	0.000000	0.000000	6.813061	0.053365	NaN	0.000000	0.001570	0.001668	28.0806	0.100825	0.001943	51.8953	113.481	10.1741	0.043098	0.811439	-0.341062	-0.342456	0.053365	51.8953	-0.341833	-19420.5	-2.747844E-6	NaN
1105	1.000000	0.822820	7.37586e+06	-55389.1	1055.82	-29741.6	0.000000	0.000000	6.823046	0.020767	NaN	0.000000	0.001636	0.001666	28.0808	0.066534	0.002014	33.0414	-63.1038	-164.367	0.037686	0.821473	-0.331075	-0.332422	0.020767	33.0414	-0.331547	-13743.4	-1.511061E-6	NaN
1105	1.000000	0.832873	7.37586e+06	-55389.1	1055.82	-29741.6	0.000000	0.000000	6.833097	-0.030805	NaN	0.000000	0.001650	0.001642	28.0812	0.147122	0.002047	71.8736	146.592	12.0029	-0.007049	0.831461	-0.321022	-0.322434	-0.030805	71.8736	-0.320700	-9526.69	3.233556E-6	NaN
1105	1.000000	0.842831	7.37586e+06	-55389.1	1055.82	-29741.6	0.000000	0.000000	6.843056	0.001691	NaN	0.000000	0.001637	0.001703	28.0806	0.044567	0.001946	22.9058	55.8325	-170.333	0.082530	0.841498	-0.311064	-0.312397	0.001691	22.9058	-0.311119	-6880.46	-2.457069E-7	NaN
1105	1.000000	0.852868	7.37586e+06	-55389.1	1055.82	-29741.6	0.000000	0.000000	6.853093	-0.010576	NaN	0.000000	0.001643	0.001715	28.0806	0.121392	0.002024	59.9792	-147.676	11.9511	0.074496	0.851510	-0.301027	-0.302385	-0.010576	59.9792	-0.300894	-4852.29	2.179502E-6	NaN
1105	1.000000	0.862841	7.37586e+06	-55389.1	1055.82	-29741.6	0.000000	0.000000	6.863067	0.006509	NaN	0.000000	0.001698	0.001730	28.0805	0.134880	0.002048	65.8501	159.74	-163.757	0.044481	0.861510	-0.291054	-0.292385	0.006509	65.8501	-0.291128	-3468.9	-1.876323E-6	NaN
1105	1.000000	0.872869	7.37586e+06	-55389.1	1055.82	-29741.6	0.000000	0.000000	6.873096	0.038466	NaN	0.000000	0.001684	0.001676	28.0807	0.043038	0.001969	21.8629	-115.489	14.0032	0.056492	0.871502	-0.281026	-0.282393	0.038466	21.8629	-0.282346	-2560.52	-1.502264E-5	NaN
1105	1.000000	0.882868	7.37586e+06	-55389.1	1055.82	-29741.6	0.000000	0.000000	6.883093	-0.002880	NaN	0.000000	0.001670	0.001717	28.0806	0.036430	0.001917	19.0008	62.2947	-166.162	0.062103	0.881560	-0.271027	-0.272335	-0.002880	19.0008	-0.270914	-1719.6	1.674747E-6	NaN
1105	1.000000	0.892866	7.37586e+06	-55389.1	1055.82	-29741.6	0.000000	0.000000	6.893094	0.053476	NaN	0.000000	0.001661	0.001717	28.0806	0.063202	0.001935	32.6605	-23.9865	14.6052	0.075991	0.891490	-0.261029	-0.262405	0.053476	32.6605	-0.262257	-1269.03	-4.213951E-5	NaN
1105	1.000000	0.902864	7.37586e+06	-55389.1	1055.82	-29741.6	0.000000	0.000000	6.903092	0.051135	NaN	0.000000	0.001651	0.001742	28.0807	0.016101	0.001931	8.336648	-99.9617	-164.13	0.006962	0.901584	-0.251031	-0.252311	0.051135	8.336648	-0.255631	-1004.22	-5.091985E-5	NaN
1105	1.000000	0.912876	7.37586e+06	-55389.1	1055.82	-29741.6	0.000000	0.000000	6.913103	0.042118	NaN	0.000000	0.001699	0.001732	28.0805	0.079944	0.002023	39.5171	24.2404	16.1079	0.080253	0.911517	-0.241019	-0.242378	0.042118	39.5171	-0.241818	-613.66	-6.863420E-5	NaN
1105	1.000000	0.922858	7.37586e+06	-55389.1	1055.82	-29741.6	0.000000	0.000000	6.923084	0.018009	NaN	0.000000	0.001682	0.001695	28.0807	0.104733	0.001954	53.5936	76.2674	-167.676	0.026430	0.921582	-0.231037	-0.232313	0.018009	53.5936	-0.231289	-419.618	-4.291646E-5	NaN
1105	1.000000	0.932880	7.37586e+06	-55389.1	1055.82	-29741.6	0.000000	0.000000	6.933107	0.028282	NaN	0.000000	0.001705	0.001727	28.0818	0.040526	0.001950	20.7822	-86.5027	12.4849	0.045974	0.931532	-0.221015	-0.222363	0.028282	20.7822	-0.222036	-299.34	-9.448073E-5	NaN
1105	1.000000	0.942915	7.37586e+06	-55389.1	1055.82	-29741.6	0.000000	0.000000	6.943143	0.053292	NaN	0.000000	0.001682	0.001696	28.0822	0.090603	0.001966	46.0857	-39.8928	-165.56	0.058018	0.941573	-0.210980	-0.212322	0.053292	46.0857	-0.211847	-205.444	-0.000259	NaN
1105	1.000000	0.952899	7.37586e+06	-55389.1	1055.82	-29741.6	0.000000	0.000000	6.953125	0.009219	NaN	0.000000	0.001627	0.001684	28.0817	0.117796	0.002003	58.7956	-84.8902	13.0509	0.096103	0.951513	-0.200996	-0.202382	0.009219	58.7956	-0.201114	-137.399	-6.709318E-5	NaN
1105	1.000000	0.962920	7.37586e+06	-55389.1	1055.82	-29741.6	0.000000	0.000000	6.963148	0.066661	NaN	0.000000	0.001596	0.001702	28.0819	0.148666	0.002028	73.3006	-136.158	-164.846	0.049741	0.961563	-0.190975	-0.192332	0.066661	73.3006	-0.191657	-95.8664	-0.000695	NaN
1105	1.000000	0.972908	7.37586e+06	-55389.1	1055.82	-29741.6	0.000000	0.000000	6.973134	0.001662	NaN	0.000000	0.001625	0.001733	28.0817	0.058851	0.002052	28.6747	136.209	11.9679	0.030941	0.971547	-0.180987	-0.182348	0.001662	28.6747	-0.181030	-63.53	-2.616037E-5	NaN
1105	1.000000	0.982905	7.37586e+06	-55389.1	1055.82	-29741.6	0.000000	0.000000	6.983130	-0.013404	NaN	0.000000	0.001611	0.001761	28.082	0.078160	0.002057	38.0029	-110.322	-165.625	-0.010833	0.981632	-0.170990	-0.172263	-0.013404	38.0029	-0.170726	-42.2869	0.000317	NaN
1105	1.000000	0.992891	7.37586e+06	-55389.1	1055.82	-29741.6	0.000000	0.000000	6.993117	0.009806	NaN	0.000000	0.001598	0.001699	28.0817	0.049869	0.001938	25.7375	63.2308	13.7594	-0.010319	0.991546	-0.161004	-0.162349	0.009806	25.7375	-0.161289	-28.8978	-0.000339	NaN
1105	1.000000	1.002917	7.37586e+06	-55389.1	1055.82	-29741.6	0.000000	0.000000	7.003141	-0.026812	NaN	0.000000	0.001606	0.001658	28.0817	0.120961	0.002035	59.4468	87.9999	-165.552	0.006534	1.001603	-0.150978	-0.152292	-0.026812	59.4468	-0.150640	-18.6063	0.001441	NaN
1105	1.000000	1.012913	7.37586e+06	-55389.1	1055.82	-29741.6	0.000000	0.000000	7.013139	0.006628	NaN	0.000000	0.001589	0.001665	28.0817	0.068522	0.002159	31.7377	-140.382	14.3507	0.064432	1.011630	-0.140981	-0.142265	0.006628	31.7377	-0.141138	-12.4253	-0.000533	NaN
1105	1.000000	1.022935	7.37586e+06	-55389.1	1055.82	-29741.6	0.000000	0.000000	7.023163	0.056288	NaN	0.000000	0.001598	0.001674	28.0815	0.071900	0.002092	34.3688	-149.837	-164.393	0.070254	1.021572	-0.130960	-0.132323	0.056288	34.3688	-0.132188	-8.401421	-0.006700	NaN
1105	1.000000	1.032937	7.37586e+06	-55389.1	1055.82	-29741.6	0.000000	0.000000	7.033160	-0.045600	NaN	0.000000	0.001592	0.001663	28.0818	0.077144	0.001918	40.2174	-59.1828	12.5708	0.024302	1.031558	-0.120958	-0.122337	-0.045600	40.2174	-0.120108	-4.855774	0.009391	NaN
1105	1.000000	1.042963	7.37586e+06	-55389.1	1055.82	-29741.6	0.000000	0.000000	7.043188	-0.007764	NaN	0.000000	0.001594	0.001665	28.0815	0.026604	0.002117	12.5655	-11.0291	-169.124	0.040945	1.041625	-0.110932	-0.112270	-0.007764	12.5655	-0.110469	-3.074307	0.002526	NaN
1105	1.000000	1.052904	7.37586e+06	-55389.1	1055.82	-29741.6	0.000000	0.000000	7.053130	0.006371	NaN	0.000000	0.001611	0.001665	28.0819	0.063270	0.002118	29.8785	-170.105	19.4368	-0.009418	1.051597	-0.100991	-0.102297	0.006371	29.8785	-0.101151	-1.937359	-0.003288	NaN
1105	1.000000	1.062961	7.37586e+06	-55389.1	1055.82	-29741.6	0.000000	0.000000	7.063187	0.030659	NaN	0.000000	0.001613	0.001639	28.0816	0.067542	0.002006	33.6723	7.484305	-163.745	0.031129	1.061655	-0.090934	-0.092239	0.030659	33.6723	-0.091617	-1.179177	-0.026000	NaN
1105	1.000000	1.072935	7.37586e+06	-55389.1	1055.82	-29741.6	0.000000	0.000000	7.073161	0.018917	NaN	0.000000	0.001618	0.001649	28.0804	0.011038	0.002039	5.413987	49.2096	15.639	0.005685	1.071590	-0.080960	-0.082305	0.018917	5.413987	-0.083581	-0.758881	-0.024927	NaN
1105	1.000000	1.082961	7.37586e+06	-55389.1	1055.82	-29741.6	0.000000	0.000000	7.083186	-0.013053	NaN	0.000000	0.001590	0.001674	28.0805	0.034125	0.002000	17.0637	-41.7897	-164.178	0.011248	1.081616	-0.070934	-0.072278	-0.013053	17.0637	-0.070360	-0.348755	0.037427	NaN
1105	1.000000	1.092980	7.37586e+06	-55389.1	1055.82	-29741.6	0.000000	0.000000	7.093206	0.009815	NaN	0.000000	0.001603	0.001675	28.0804	0.087368	0.001961	44.5529	177.473	14.9978	0.066343	1.091575	-0.060915	-0.062320	0.009815	44.5529	-0.061080	-0.193363	-0.050759	NaN
1105	1.000000	1.102935	7.37586e+06	-55389.1	1055.82	-29741.6	0.000000	0.000000	7.103163	0.070279	NaN	0.000000	0.001625	0.001669	28.0805	0.084742	0.002046	41.4181	44.5163	-165.402	0.055825	1.101625	-0.050960	-0.052270	0.070279	41.4181	-0.052233	-0.106530	-0.659714	NaN
1105	1.000000	1.112958	7.37586e+06	-55389.1	1055.82	-29741.6	0.000000	0.000000	7.113187	0.077273	NaN	0.000000	0.001596	0.001653	28.0807	0.057373	0.002014	28.4807	-19.5046	12.8077	0.015309	1.111611	-0.040937	-0.042284	0.077273	28.4807	-0.042972	-0.055713	-1.386979	NaN
1105	1.000000	1.122991	7.37586e+06	-55389.1	1055.82	-29741.6	0.000000	0.000000	7.123216	-0.007948	NaN	0.000000	0.001611	0.001621	28.0806	0.097648	0.001909	51.1513	178.88	-164.204	-0.012778	1.121679	-0.030904	-0.032216	-0.007948	51.1513	-0.030788	-0.024212	0.328288	NaN
1105	1.000000	1.132974	7.37586e+06	-55389.1	1055.82	-29741.6	0.000000	0.000000	7.133202	0.065116	NaN	0.000000	0.001590	0.001625	28.0806	0.049024	0.002053	23.8779	-86.8241	15.9145	0.042647	1.131589	-0.020921	-0.022305	0.065116	23.8779	-0.022966	-0.014947	-4.356564	NaN
1105	1.000000	1.142961	7.37586e+06	-55389.1	1055.82	-29741.6	0.000000	0.000000	7.143189	0.043150	NaN	0.000000	0.001600	0.001608	28.0806	0.047288	0.002028	23.3149	-91.826	-164.297	0.011022	1.141715	-0.010934	-0.012180	0.043150	23.3149	-0.012322	-0.007713	-5.594711	NaN
1105	1.000000	1.152944	7.37586e+06	-55389.1	1055.82	-29741.6	0.000000	0.000000	7.153269	2.414710	NaN	0.000000	0.001574	0.001688	28.0807	3.237796	0.001998	1620.35	9.196149	12.7373	1.144090	1.151566	-0.000951	-0.002329	2.414710	1620.35	-0.002068	-0.001487	-1624.22	NaN
1105	2.000000	1.160586	7.37586e+06	-55389.1	1055.82	-29741.6	0.000000	0.000000	7.161188	9.148704	NaN	0.000000	0.001579	0.001653	28.0809	9.133402	0.001615	5654.47	11.9793	-175.33	9.023462	1.160214	0.006691	0.006319	9.148704	5654.47	0.005477	0.004573	2000.45	76392.3
1105	2.000000	1.163080	7.37586e+06	-55389.1	1055.82	-29741.6	0.000000	0.000000	7.163858	13.4266	NaN	0.000000	0.001578	0.001693	28.0815	11.6338	0.001522	7641.37	7.667344	3.907565	11.6564	1.162699	0.009185	0.008804	13.4266	7641.37	0.007868	0.006906	1944.07	84007.5
1105	2.000000	1.165460	7.37586e+06	-55389.1	1055.82	-29741.6	0.000000	0.000000	7.166442	18.3981	NaN	0.000000	0.001625	0.001687	28.0805	14.2507	0.001632	8729.36	3.372361	-172.773	16.7263	1.165222	0.011565	0.011327	18.3981	8729.36	0.009984	0.009164	2007.66	83313.2
1105	2.000000	1.167980	7.37586e+06	-55389.1	1055.82	-29741.6	0.000000	0.000000	7.169075	21.1374	NaN	0.000000	0.001617	0.001692	28.0815	17.6032	0.001757	10020.6	4.991763	5.310390	18.5452	1.167641	0.014085	0.013746	21.1374	10020.6	0.012503	0.012098	1747.16	83235.3
1105	2.000000	1.170558	7.37586e+06	-55389.1	1055.82	-29741.6	0.000000	0.000000	7.171687	21.9551	NaN	0.000000	0.001564	0.001657	28.0821	20.5198	0.002055	9984.06	10.8493	-179.41	21.6848	1.170245	0.016663	0.016351	21.9551	9984.06	0.015014	0.015304	1434.58	73735.2
1105	2.000000	1.173002	7.37586e+06	-55389.1	1055.82	-29741.6	0.000000	0.000000	7.174462	30.0135	NaN	0.000000	0.001614	0.001630	28.0827	22.2409	0.001777	12517.5	7.203044	2.586693	30.5399	1.172617	0.019107	0.018722	30.0135	12517.5	0.017308	0.018488	1623.4	84109.2
1105	2.000000	1.175514	7.37586e+06	-55389.1	1055.82	-29741.6	0.000000	0.000000	7.177189	35.2441	NaN	0.000000	0.001628	0.001634	28.0819	24.8134	0.001833	13533.5	6.740431	-178.483	35.1104	1.175139	0.021619	0.021244	35.2441	13533.5	0.019666	0.022020	1600.57	83325.3
1105	2.000000	1.177954	7.37586e+06	-55389.1	1055.82	-29741.6	0.000000	0.000000	7.179881	41.3486	NaN	0.000000	0.001577	0.001641	28.0825	27.6137	0.001752	15761.9	4.939064	0.928666	38.5941	1.177548	0.024059	0.023653	41.3486	15761.9	0.022092	0.025937	1594.22	89418
1105	2.000000	1.180489	7.37586e+06	-55389.1	1055.82	-29741.6	0.000000	0.000000	7.182586	45.5037	NaN	0.000000	0.001579	0.001606	28.082	30.8927	0.001837	16815.6	8.746715	177.127	45.6629	1.180180	0.026594	0.026285	45.5037	16815.6	0.024564	0.030227	1505.38	88366
1105	2.000000	1.182989	7.37586e+06	-55389.1	1055.82	-29741.6	0.000000	0.000000	7.185372	52.4425	NaN	0.000000	0.001566	0.001614	28.0822	32.3811	0.001756	18440.2	5.957684	-1.121407	50.7755	1.182647	0.029094	0.028752	52.4425	18440.2	0.026961	0.034680	1512.17	90468.7
1105	2.000000	1.185452	7.37586e+06	-55389.1	1055.82	-29741.6	0.000000	0.000000	7.188163	60.4111	NaN	0.000000	0.001600	0.001634	28.0819	34.2367	0.001706	20063.3	5.226437	178.788	60.787	1.185167	0.031557	0.031273	60.4111	20063.3	0.029299	0.039303	1537.05	92461.5
1105	2.000000	1.187946	7.37586e+06	-55389.1	1055.82	-29741.6	0.000000	0.000000	7.191121	71.7093	NaN	0.000000	0.001498	0.001633	28.0824	36.606	0.001682	21766.5	3.898254	0.138916	69.8383	1.187529	0.034051	0.033634	71.7093	21766.5	0.031580	0.044083	1626.7	94717
1105	2.000000	1.190449	7.37586e+06	-55389.1	1055.82	-29741.6	0.000000	0.000000	7.193773	75.3221	NaN	0.000000	0.001552	0.001621	28.0819	40.677	0.001796	22647.4	4.196782	178.579	74.8621	1.190168	0.036554	0.036273	75.3221	22647.4	0.034060	0.049580	1519.2	92926.1
1105	2.000000	1.192912	7.37586e+06	-55389.1	1055.82	-29741.6	0.000000	0.000000	7.196788	88.7344	NaN	0.000000	0.001575	0.001652	28.0827	42.0707	0.001843	22828.8	5.482658	-1.786032	86.8629	1.192604	0.039017	0.038709	88.7344	22828.8	0.036102	0.054342	1632.89	89472
1105	2.000000	1.195474	7.37586e+06	-55389.1	1055.82	-29741.6	0.000000	0.000000	7.199623	95.3716	NaN	0.000000	0.001595	0.001656	28.0817	44.6342	0.001695	26328.2	6.532479	175.012	95.9075	1.195193	0.041580	0.041299	95.3716	26328.2	0.038863	0.061122	1560.34	97296.1
1105	2.000000	1.197826	7.37586e+06	-55389.1	1055.82	-29741.6	0.000000	0.000000	7.202445	106.801	NaN	0.000000	0.001600	0.001646	28.0824	46.7198	0.001797	26004.6	0.666871	1.177467	100.534	1.197549	0.043932	0.043654	106.801	26004.6	0.040851	0.066247	1612.16	92308
1105	2.000000	1.200412	7.37586e+06	-55389.1	1055.82	-29741.6	0.000000	0.000000	7.205527	118.844	NaN	0.000000	0.001623	0.001675	28.0816	49.7822	0.001769	28134.8	1.869945	179.442	116.458	1.200158	0.046517	0.046263	118.844	28134.8	0.043349	0.072970	1628.67	95157.9
1105	2.000000	1.202979	7.37586e+06	-55389.1	1055.82	-29741.6	0.000000	0.000000	7.208501	128.756	NaN	0.000000	0.001613	0.001719	28.082	52.1987	0.001753	29770.8	2.773152	-1.450444	127.893	1.202548	0.049084	0.048653	128.756	29770.8	0.045841	0.079992	1609.61	96170.2
1105	2.000000	1.205444	7.37586e+06	-55389.1	1055.82	-29741.6	0.000000	0.000000	7.211339	137.833	NaN	0.000000	0.001599	0.001718	28.0804	54.8866	0.001794	30600.1	4.845289	176.114	138.63	1.205035	0.051549	0.051140	137.833	30600.1	0.048171	0.086843	1587.16	94870.2
1105	2.000000	1.207871	7.37586e+06	-55389.1	1055.82	-29741.6	0.000000	0.000000	7.214281	150.343	NaN	0.000000	0.001609	0.001720	28.081	56.0349	0.001662	33722.8	1.101390	-0.753240	146.784	1.207497	0.053976	0.053602	150.343	33722.8	0.050633	0.094378	1592.98	100290
1105	2.000000	1.210399	7.37586e+06	-55389.1	1055.82	-29741.6	0.000000	0.000000	7.217416	165.078	NaN	0.000000	0.001580	0.001682	28.0804	61.3051	0.001774	34548.3	4.419836	174.775	161.944	1.210103	0.056505	0.056208	165.078	34548.3	0.052921	0.101655	1623.91	99000.2
1105	2.000000	1.212926	7.37586e+06	-55389.1	1055.82	-29741.6	0.000000	0.000000	7.220417	176.626	NaN	0.000000	0.001559	0.001681	28.0809	61.9243	0.001743	35517.6	3.742442	-4.480076	174.852	1.212640	0.059031	0.058745	176.626	35517.6	0.055301	0.109500	1613.03	98064.1
1105	2.000000	1.215373	7.37586e+06	-55389.1	1055.82	-29741.6	0.000000	0.000000	7.223660	195.987	NaN	0.000000	0.001573	0.001701	28.0804	63.0355	0.001659	38005.5	2.079972	176.591	193.787	1.215043	0.061478	0.061148	195.987	38005.5	0.057610	0.117378	1669.71	101351
1105	2.000000	1.217958	7.37586e+06	-55389.1	1055.82	-29741.6	0.000000	0.000000	7.226448	200.889	NaN	0.000000	0.001573	0.001685	28.0809	67.8382	0.001905	35614.1	7.747104	-8.245984	200.217	1.217475	0.064063	0.063580	200.889	35614.1	0.059833	0.125210	1604.42	91955.3
1105	2.000000	1.220381	7.37586e+06	-55389.1	1055.82	-29741.6	0.000000	0.000000	7.229448	214.929	NaN	0.000000	0.001530	0.001679	28.0805	68.7327	0.001791	38366.1	3.175199	175.476	212.714	1.220110	0.066486	0.066215	214.929	38366.1	0.062285	0.134129	1602.41	95710.6
1105	2.000000	1.222961	7.37586e+06	-55389.1	1055.82	-29741.6	0.000000	0.000000	7.232842	234.705	NaN	0.000000	0.001603	0.001661	28.0806	69.4194	0.001738	39952.3	-1.138756	0.109949	234.407	1.222618	0.069066	0.068723	234.705	39952.3	0.064660	0.143048	1640.75	96510.5
1105	2.000000	1.225398	7.37586e+06	-55389.1	1055.82	-29741.6	0.000000	0.000000	7.235880	249.323	NaN	0.000000	0.001586	0.001650	28.0808	72.8483	0.001736	41952.3	3.706994	174.195	247.798	1.225138	0.071503	0.071243	249.323	41952.3	0.067046	0.152280	1637.27	98221.7
1105	2.000000	1.227920	7.37586e+06	-55389.1	1055.82	-29741.6	0.000000	0.000000	7.239029	264.557	NaN	0.000000	0.001609	0.001683	28.0811	75.903	0.001818	41754.4	5.807549	-6.914091	265.117	1.227441	0.074025	0.073546	264.557	41754.4	0.069273	0.161143	1641.75	95031.9
1105	2.000000	1.230467	7.37586e+06	-55389.1	1055.82	-29741.6	0.000000	0.000000	7.241736	268.466	NaN	0.000000	0.001604	0.001679	28.0804	78.5286	0.001730	45404.5	3.464633	173.325	270.552	1.230338	0.076572	0.076443	268.466	45404.5	0.072137	0.172891	1552.8	99766.7
1105	2.000000	1.232928	7.37586e+06	-55389.1	1055.82	-29741.6	0.000000	0.000000	7.245360	296.734	NaN	0.000000	0.001601	0.001704	28.0807	80.6191	0.001784	45188	5.371896	-7.279725	294.749	1.232469	0.079033	0.078574	296.734	45188	0.074108	0.181198	1637.62	96988.3
1105	2.000000	1.235422	7.37586e+06	-55389.1	1055.82	-29741.6	0.000000	0.000000	7.248339	308.52	NaN	0.000000	0.001617	0.001737	28.0809	83.3546	0.001850	45047.6	3.013432	174.345	309.575	1.235157	0.081527	0.081262	308.52	45047.6	0.076390	0.191049	1614.87	94161.4
1105	2.000000	1.237863	7.37586e+06	-55389.1	1055.82	-29741.6	0.000000	0.000000	7.251735	331.723	NaN	0.000000	0.001662	0.001694	28.0808	84.7058	0.001810	46799	0.880610	-3.683954	326.953	1.237469	0.083968	0.083574	331.723	46799	0.078652	0.201053	1649.93	95357.4
1105	2.000000	1.240430	7.37586e+06	-55389.1	1055.82	-29741.6	0.000000	0.000000	7.254848	344.998	NaN	0.000000	0.001669	0.001708	28.0819	87.5746	0.001714	51088.5	2.337080	174.462	345.352	1.240100	0.086535	0.086206	344.998	51088.5	0.081471	0.213854	1613.24	100934
1105	2.000000	1.242885	7.37586e+06	-55389.1	1055.82	-29741.6	0.000000	0.000000	7.257895	359.399	NaN	0.000000	0.001590	0.001691	28.082	89.2019	0.001819	49039	2.271020	-5.035860	355.806	1.242688	0.088990	0.088794	359.399	49039	0.083493	0.223266	1609.74	94820.8
1105	2.000000	1.245381	7.37586e+06	-55389.1	1055.82	-29741.6	0.000000	0.000000	7.261442	384.942	NaN	0.000000	0.001602	0.001686	28.0822	91.7877	0.001788	51321.3	3.330016	173.405	384.74	1.244995	0.091486	0.091100	384.942	51321.3	0.085860	0.234523	1641.38	96822.9
1105	2.000000	1.247894	7.37586e+06	-55389.1	1055.82	-29741.6	0.000000	0.000000	7.264442	396.762	NaN	0.000000	0.001638	0.001688	28.082	94.324	0.001771	53264.6	4.590720	-8.195592	393.792	1.247583	0.093999	0.093688	396.762	53264.6	0.088413	0.246950	1606.65	97928.1
1105	2.000000	1.250301	7.37586e+06	-55389.1	1055.82	-29741.6	0.000000	0.000000	7.267825	420.519	NaN	0.000000	0.001632	0.001722	28.0819	98.3743	0.001878	52382.4	6.280529	170.014	416.11	1.250055	0.096406	0.096160	420.519	52382.4	0.090385	0.256758	1637.81	94448.9
1105	2.000000	1.252832	7.37586e+06	-55389.1	1055.82	-29741.6	0.000000	0.000000	7.271416	446.263	NaN	0.000000	0.001610	0.001706	28.0822	99.0983	0.001852	53518.4	4.405525	-6.849900	439.124	1.252412	0.098937	0.098517	446.263	53518.4	0.092683	0.268413	1662.6	94378.8
1105	2.000000	1.255428	7.37586e+06	-55389.1	1055.82	-29741.6	0.000000	0.000000	7.274654	461.892	NaN	0.000000	0.001612	0.001747	28.0822	103.011	0.001805	57078.3	5.068300	171.703	467.017	1.254988	0.101533	0.101093	461.892	57078.3	0.095464	0.282833	1633.09	98057.3
1105	2.000000	1.257814	7.37586e+06	-55389.1	1055.82	-29741.6	0.000000	0.000000	7.277764	479.462	NaN	0.000000	0.001628	0.001678	28.082	105.855	0.001745	60644.4	6.828448	-11.2027	475.179	1.257527	0.103920	0.103632	479.462	60644.4	0.097990	0.296242	1618.48	101798
1105	2.000000	1.258316	7.37586e+06	-55389.1	1055.82	-29741.6	0.000000	0.000000	7.278554	486.471	NaN	0.000000	0.001606	0.001678	28.0822	105.391	0.001741	60519.4	4.898613	170.707	482.373	1.257961	0.104421	0.104066	486.471	60519.4	0.098393	0.298407	1630.23	101219