File: remote_trans/data/nanoindenter/0828-1/data/Data_2025-08-06,11h17m57s/2025-07-22_16-23-58_1_231.txt
2025-07-22, 16:23:58, 1
Index	Phase	Displacement	Time	Pos X	Pos Y	Pos Z	Rot A	Rot B	Piezo Z	Force A	Force B	Gripper	Voltage A	Voltage B	Temperature	Amplitude force	Amplitude pos	Stiffness	Phase shift	Phase excitation	Force A raw	Displacement raw	HMax	HMax raw	Real Force	Real Stiffness	Contact Depth	Area	Hardness	Reduced Mod.
[#]	[#]	[um]	[s]	[um]	[um]	[um]	[m°]	[m°]	[um]	[uN]	[uN]	[V]	[V]	[V]	[°C]	[uN]	[um]	[N/m]	[°]	[°]	[uN]	[um]	[um]	[um]	[uN]	[N/m]	[um]	[um^2]	[MPa]	[MPa]
231	1.000000	0.002041	7.3673e+06	-50189.1	955.818	-29756.9	0.000000	0.000000	6.002802	0.012703	NaN	0.000000	0.001648	0.001710	28.0763	0.012629	0.000827	15.279	-156.607	-165.761	0.020998	0.000776	-1.008240	-1.009504	0.012703	15.279	-1.008863	-2.985959E+13	-4.254386E-16	NaN
231	1.000000	0.009991	7.3673e+06	-50189.1	955.819	-29756.9	0.000000	0.000000	6.010752	0.003593	NaN	0.000000	0.001629	0.001707	28.0763	0.135073	0.000870	155.192	-162.711	-159.172	0.002507	0.008708	-1.000290	-1.001573	0.003593	155.192	-1.000307	-2.290380E+13	-1.568597E-16	NaN
231	1.000000	0.018016	7.3673e+06	-50189.1	955.818	-29756.9	0.000000	0.000000	6.018773	-0.095481	NaN	0.000000	0.001653	0.001612	28.0763	0.077403	0.001776	43.5933	-156.684	-166.022	-0.109250	0.016692	-0.992265	-0.993588	-0.095481	43.5933	-0.990622	-1.696254E+13	5.628942E-15	NaN
231	1.000000	0.026026	7.3673e+06	-50189.1	955.818	-29756.9	0.000000	0.000000	6.026789	0.065967	NaN	0.000000	0.001652	0.001652	28.0766	0.055566	0.001785	31.1356	-90.1641	-164.89	0.119770	0.024683	-0.984255	-0.985598	0.065967	31.1356	-0.985844	-1.462625E+13	-4.510146E-15	NaN
231	1.000000	0.034002	7.3673e+06	-50189.1	955.819	-29756.9	0.000000	0.000000	6.034764	0.019548	NaN	0.000000	0.001601	0.001676	28.0764	0.022366	0.001911	11.7056	149.685	-158.421	-0.041891	0.032694	-0.976279	-0.977587	0.019548	11.7056	-0.977531	-1.130182E+13	-1.729650E-15	NaN
231	1.000000	0.041988	7.3673e+06	-50189.1	955.818	-29756.9	0.000000	0.000000	6.042750	0.016083	NaN	0.000000	0.001620	0.001650	28.0767	0.027053	0.002006	13.4866	-144.62	-163.608	0.051965	0.040700	-0.968293	-0.969581	0.016083	13.4866	-0.969187	-8.723815E+12	-1.843619E-15	NaN
231	1.000000	0.050000	7.3673e+06	-50189.1	955.818	-29756.9	0.000000	0.000000	6.050762	0.032753	NaN	0.000000	0.001602	0.001677	28.0763	0.117094	0.002034	57.5622	-14.2453	-169.645	-0.011533	0.048659	-0.960281	-0.961622	0.032753	57.5622	-0.960707	-6.705096E+12	-4.884779E-15	NaN
231	1.000000	0.058004	7.3673e+06	-50189.1	955.818	-29756.9	0.000000	0.000000	6.058762	-0.080371	NaN	0.000000	0.001619	0.001687	28.076	0.083174	0.002119	39.2559	29.5507	-166.563	0.018754	0.056715	-0.952276	-0.953566	-0.080371	39.2559	-0.950741	-4.920625E+12	1.633343E-14	NaN
231	1.000000	0.065987	7.3673e+06	-50189.1	955.819	-29756.9	0.000000	0.000000	6.066750	0.044975	NaN	0.000000	0.001669	0.001670	28.0766	0.059057	0.002169	27.226	59.4721	-166.22	0.028707	0.064704	-0.944294	-0.945577	0.044975	27.226	-0.945533	-4.185743E+12	-1.074476E-14	NaN
231	1.000000	0.074004	7.3673e+06	-50189.1	955.818	-29756.9	0.000000	0.000000	6.074762	-0.058093	NaN	0.000000	0.001661	0.001716	28.0761	0.060195	0.001951	30.8493	-39.2303	-165.332	-0.051956	0.072705	-0.936277	-0.937576	-0.058093	30.8493	-0.934865	-3.005044E+12	1.933168E-14	NaN
231	1.000000	0.082008	7.3673e+06	-50189.1	955.819	-29756.9	0.000000	0.000000	6.082771	0.067732	NaN	0.000000	0.001649	0.001703	28.0765	0.016358	0.001966	8.319480	-156.58	-166.399	0.129118	0.080673	-0.928273	-0.929608	0.067732	8.319480	-0.934379	-2.960021E+12	-2.288237E-14	NaN
231	1.000000	0.090011	7.3673e+06	-50189.1	955.819	-29756.9	0.000000	0.000000	6.090769	-0.067591	NaN	0.000000	0.001678	0.001677	28.0763	0.014365	0.001979	7.260173	170.1	-166.439	-0.044014	0.088686	-0.920270	-0.921595	-0.067591	7.260173	-0.913287	-1.536600E+12	4.398769E-14	NaN
231	1.000000	0.098010	7.36731e+06	-50189.1	955.818	-29756.9	0.000000	0.000000	6.098773	0.032502	NaN	0.000000	0.001650	0.001670	28.0765	0.054560	0.002053	26.5771	-148.233	-165.651	0.071027	0.096742	-0.912270	-0.913539	0.032502	26.5771	-0.913188	-1.531844E+12	-2.121763E-14	NaN
231	1.000000	0.106021	7.36731e+06	-50189.1	955.818	-29756.9	0.000000	0.000000	6.106780	-0.039179	NaN	0.000000	0.001660	0.001698	28.0765	0.094742	0.001946	48.6779	175.722	-167.563	-0.020578	0.104704	-0.904260	-0.905577	-0.039179	48.6779	-0.903656	-1.138855E+12	3.440227E-14	NaN
231	1.000000	0.114004	7.36731e+06	-50189.1	955.819	-29756.9	0.000000	0.000000	6.114763	-0.030639	NaN	0.000000	0.001639	0.001712	28.0763	0.045297	0.001980	22.8825	113.593	-166.227	-0.036019	0.112696	-0.896277	-0.897585	-0.030639	22.8825	-0.895273	-8.773666E+11	3.492189E-14	NaN
231	1.000000	0.122004	7.36731e+06	-50189.1	955.819	-29756.9	0.000000	0.000000	6.122762	-0.044336	NaN	0.000000	0.001633	0.001659	28.0766	0.087218	0.001804	48.355	81.9165	-163.205	-0.021119	0.120770	-0.888277	-0.889511	-0.044336	48.355	-0.887590	-6.907641E+11	6.418453E-14	NaN
231	1.000000	0.130028	7.36731e+06	-50189.1	955.819	-29756.9	0.000000	0.000000	6.130789	0.020473	NaN	0.000000	0.001615	0.001690	28.0764	0.021869	0.001911	11.4416	105.189	-163.109	-0.001738	0.128709	-0.880253	-0.881571	0.020473	11.4416	-0.881595	-5.731644E+11	-3.571980E-14	NaN
231	1.000000	0.138037	7.36731e+06	-50189.1	955.818	-29756.9	0.000000	0.000000	6.138797	-0.029544	NaN	0.000000	0.001622	0.001673	28.0779	0.009160	0.002060	4.447634	11.7885	-165.906	-0.050268	0.136773	-0.872244	-0.873508	-0.029544	4.447634	-0.867262	-3.667715E+11	8.055106E-14	NaN
231	1.000000	0.146018	7.36731e+06	-50189.1	955.818	-29756.9	0.000000	0.000000	6.146776	-0.077353	NaN	0.000000	0.001629	0.001685	28.0777	0.053357	0.002088	25.5547	75.7561	-167.421	0.009095	0.144707	-0.864263	-0.865573	-0.077353	25.5547	-0.861992	-3.112339E+11	2.485371E-13	NaN
231	1.000000	0.154020	7.36731e+06	-50189.1	955.818	-29756.9	0.000000	0.000000	6.154780	-0.017482	NaN	0.000000	0.001622	0.001684	28.0776	0.078938	0.002019	39.1039	79.4028	-165.092	0.043450	0.152770	-0.856261	-0.857511	-0.017482	39.1039	-0.855926	-2.576155E+11	6.786049E-14	NaN
231	1.000000	0.162032	7.36731e+06	-50189.1	955.818	-29756.9	0.000000	0.000000	6.162793	0.014548	NaN	0.000000	0.001625	0.001668	28.0778	0.068419	0.002036	33.6083	-19.027	-164.678	-0.005514	0.160720	-0.848249	-0.849560	0.014548	33.6083	-0.848574	-2.048438E+11	-7.102235E-14	NaN
231	1.000000	0.170016	7.36731e+06	-50189.1	955.818	-29756.9	0.000000	0.000000	6.170778	0.032666	NaN	0.000000	0.001627	0.001645	28.0778	0.128728	0.002113	60.934	134.27	-167.188	0.036845	0.168648	-0.840265	-0.841632	0.032666	60.934	-0.840667	-1.600763E+11	-2.040649E-13	NaN
231	1.000000	0.178043	7.36731e+06	-50189.1	955.818	-29756.9	0.000000	0.000000	6.178803	-0.013121	NaN	0.000000	0.001617	0.001655	28.0776	0.029397	0.001953	15.0503	119.359	-164.827	0.064711	0.176703	-0.832238	-0.833578	-0.013121	15.0503	-0.831584	-1.205731E+11	1.088201E-13	NaN
231	1.000000	0.186057	7.36731e+06	-50189.1	955.818	-29756.9	0.000000	0.000000	6.186818	0.005470	NaN	0.000000	0.001698	0.001655	28.0775	0.049992	0.002062	24.2399	-70.798	-163.938	-0.142232	0.184680	-0.824224	-0.825600	0.005470	24.2399	-0.824393	-9.633444E+10	-5.678277E-14	NaN
231	1.000000	0.194037	7.36731e+06	-50189.1	955.818	-29756.9	0.000000	0.000000	6.194799	0.029996	NaN	0.000000	0.001695	0.001650	28.0777	0.031971	0.002071	15.4395	-74.9437	-162.859	0.026169	0.192742	-0.816244	-0.817539	0.029996	15.4395	-0.817701	-7.816919E+10	-3.837376E-13	NaN
231	1.000000	0.202043	7.36731e+06	-50189.1	955.819	-29756.9	0.000000	0.000000	6.202803	-0.026223	NaN	0.000000	0.001701	0.001643	28.0776	0.019608	0.001936	10.1283	138.47	-162.372	-0.048988	0.200742	-0.808237	-0.809539	-0.026223	10.1283	-0.806296	-5.474022E+10	4.790459E-13	NaN
231	1.000000	0.210063	7.36731e+06	-50189.1	955.818	-29756.9	0.000000	0.000000	6.210824	0.013672	NaN	0.000000	0.001665	0.001679	28.0776	0.067478	0.001943	34.7369	-77.9656	-165.293	-0.058008	0.208737	-0.800218	-0.801544	0.013672	34.7369	-0.800513	-4.569093E+10	-2.992271E-13	NaN
231	1.000000	0.218042	7.36731e+06	-50189.1	955.819	-29756.9	0.000000	0.000000	6.218805	0.052090	NaN	0.000000	0.001638	0.001653	28.0778	0.124996	0.002123	58.8827	40.9176	-162.799	0.048986	0.216749	-0.792238	-0.793532	0.052090	58.8827	-0.792902	-3.601572E+10	-1.446300E-12	NaN
231	1.000000	0.226068	7.36731e+06	-50189.1	955.818	-29756.9	0.000000	0.000000	6.226829	-0.003499	NaN	0.000000	0.001677	0.001614	28.0775	0.145094	0.001982	73.1935	-88.0877	-165.39	-0.003132	0.224743	-0.784212	-0.785538	-0.003499	73.1935	-0.784177	-2.741444E+10	1.276246E-13	NaN
231	1.000000	0.234063	7.36731e+06	-50189.1	955.819	-29756.9	0.000000	0.000000	6.234823	-0.030967	NaN	0.000000	0.001728	0.001644	28.0778	0.077877	0.002139	36.3998	73.5945	-165.728	0.001878	0.232715	-0.776217	-0.777566	-0.030967	36.3998	-0.775579	-2.094843E+10	1.478255E-12	NaN
231	1.000000	0.242065	7.36731e+06	-50189.1	955.818	-29756.9	0.000000	0.000000	6.242826	0.008646	NaN	0.000000	0.001731	0.001641	28.0777	0.100499	0.001892	53.1257	119.127	-165.392	0.077465	0.240764	-0.768216	-0.769517	0.008646	53.1257	-0.768338	-1.669968E+10	-5.177536E-13	NaN
231	1.000000	0.250052	7.36731e+06	-50189.1	955.818	-29756.9	0.000000	0.000000	6.250816	0.059402	NaN	0.000000	0.001715	0.001667	28.0775	0.082522	0.001992	41.4363	-16.7002	-169.922	0.029030	0.248787	-0.760228	-0.761494	0.059402	41.4363	-0.761303	-1.339783E+10	-4.433669E-12	NaN
231	1.000000	0.258073	7.36731e+06	-50189.1	955.818	-29756.9	0.000000	0.000000	6.258833	-0.025356	NaN	0.000000	0.001711	0.001687	28.0779	0.208650	0.001961	106.401	140.921	-165.241	-0.008215	0.256764	-0.752207	-0.753517	-0.025356	106.401	-0.752029	-1.001922E+10	2.530762E-12	NaN
231	1.000000	0.266080	7.36731e+06	-50189.1	955.818	-29756.9	0.000000	0.000000	6.266843	0.062179	NaN	0.000000	0.001715	0.001700	28.0776	0.084979	0.002049	41.4732	144.651	-165.41	-0.049177	0.264732	-0.744201	-0.745548	0.062179	41.4732	-0.745325	-8.120454E+9	-7.657049E-12	NaN
231	1.000000	0.274071	7.36731e+06	-50189.1	955.818	-29756.9	0.000000	0.000000	6.274831	-0.011580	NaN	0.000000	0.001731	0.001683	28.0768	0.072429	0.001915	37.8177	-174.725	-169.172	-0.054088	0.272778	-0.736210	-0.737503	-0.011580	37.8177	-0.735981	-6.057629E+9	1.911583E-12	NaN
231	1.000000	0.282078	7.36731e+06	-50189.1	955.82	-29756.9	0.000000	0.000000	6.282838	-0.025789	NaN	0.000000	0.001723	0.001650	28.0764	0.130186	0.002013	64.659	-67.261	-165.7	-0.024768	0.280830	-0.728203	-0.729451	-0.025789	64.659	-0.727904	-4.701505E+9	5.485341E-12	NaN
231	1.000000	0.290088	7.36731e+06	-50189.1	955.818	-29756.9	0.000000	0.000000	6.290848	-0.007726	NaN	0.000000	0.001740	0.001669	28.0765	0.020991	0.002021	10.3846	-50.7259	-163.055	0.040397	0.288787	-0.720193	-0.721494	-0.007726	10.3846	-0.719635	-3.626553E+9	2.130382E-12	NaN
231	1.000000	0.298119	7.36731e+06	-50189.1	955.819	-29756.9	0.000000	0.000000	6.298878	-0.044933	NaN	0.000000	0.001695	0.001700	28.0767	0.078332	0.002063	37.9665	-158.68	-163.086	-0.005188	0.296752	-0.712162	-0.713529	-0.044933	37.9665	-0.711274	-2.788939E+9	1.611130E-11	NaN
231	1.000000	0.306103	7.36731e+06	-50189.1	955.818	-29756.9	0.000000	0.000000	6.306862	-0.044404	NaN	0.000000	0.001668	0.001704	28.0763	0.081749	0.001988	41.1174	153.044	-162.987	-0.139624	0.304770	-0.704178	-0.705511	-0.044404	41.1174	-0.703368	-2.175315E+9	2.041260E-11	NaN
231	1.000000	0.314112	7.36731e+06	-50189.1	955.819	-29756.9	0.000000	0.000000	6.314874	0.042526	NaN	0.000000	0.001672	0.001679	28.0767	0.077615	0.002028	38.2799	-80.9241	-166.313	-0.039992	0.312830	-0.696169	-0.697451	0.042526	38.2799	-0.697002	-1.780701E+9	-2.388188E-11	NaN
231	1.000000	0.322079	7.36731e+06	-50189.1	955.819	-29756.9	0.000000	0.000000	6.322841	0.035853	NaN	0.000000	0.001649	0.001660	28.0763	0.042495	0.001891	22.4762	120.713	-166.32	-0.002908	0.320847	-0.688202	-0.689434	0.035853	22.4762	-0.689398	-1.401820E+9	-2.557585E-11	NaN
231	1.000000	0.330073	7.36731e+06	-50189.1	955.819	-29756.9	0.000000	0.000000	6.330837	0.080380	NaN	0.000000	0.001633	0.001675	28.0766	0.102576	0.002022	50.7349	58.5957	-165.181	-0.039997	0.328828	-0.680207	-0.681452	0.080380	50.7349	-0.681396	-1.089665E+9	-7.376569E-11	NaN
231	1.000000	0.338088	7.36731e+06	-50189.1	955.819	-29756.9	0.000000	0.000000	6.338848	-0.016789	NaN	0.000000	0.001651	0.001683	28.0766	0.111669	0.001902	58.7197	-104.871	-163.611	-0.040295	0.336803	-0.672193	-0.673478	-0.016789	58.7197	-0.671978	-8.099638E+8	2.072835E-11	NaN
231	1.000000	0.346126	7.36731e+06	-50189.1	955.819	-29756.9	0.000000	0.000000	6.346886	-0.017445	NaN	0.000000	0.001661	0.001613	28.0765	0.044095	0.001976	22.3173	130.338	-165.537	-0.044806	0.344785	-0.664155	-0.665495	-0.017445	22.3173	-0.663568	-6.213527E+8	2.807665E-11	NaN
231	1.000000	0.354119	7.36731e+06	-50189.1	955.818	-29756.9	0.000000	0.000000	6.354881	0.029357	NaN	0.000000	0.001667	0.001639	28.0771	0.037388	0.002066	18.0948	42.2321	-164.845	0.063605	0.352839	-0.656161	-0.657441	0.029357	18.0948	-0.657378	-5.111564E+8	-5.743282E-11	NaN
231	1.000000	0.362135	7.36731e+06	-50189.1	955.818	-29756.9	0.000000	0.000000	6.362896	0.012309	NaN	0.000000	0.001682	0.001616	28.0768	0.044306	0.001863	23.7811	-11.1788	-167.571	0.032041	0.360825	-0.648146	-0.649455	0.012309	23.7811	-0.648534	-3.866719E+8	-3.183258E-11	NaN
231	1.000000	0.370127	7.36731e+06	-50189.1	955.819	-29756.9	0.000000	0.000000	6.370888	0.000880	NaN	0.000000	0.001682	0.001655	28.0768	0.027494	0.001919	14.331	119.696	-165.784	-0.063186	0.368840	-0.640154	-0.641440	0.000880	14.331	-0.640200	-2.971868E+8	-2.962147E-12	NaN
231	1.000000	0.378104	7.36731e+06	-50189.1	955.818	-29756.9	0.000000	0.000000	6.378861	-0.086076	NaN	0.000000	0.001626	0.001648	28.0766	0.059671	0.001845	32.3411	-127.641	-166.618	-0.071881	0.376800	-0.632177	-0.633481	-0.086076	32.3411	-0.630180	-2.165213E+8	3.975428E-10	NaN
231	1.000000	0.386139	7.36731e+06	-50189.1	955.818	-29756.9	0.000000	0.000000	6.386900	0.021533	NaN	0.000000	0.001666	0.001611	28.0764	0.009023	0.002003	4.505798	90.2294	-162.983	0.083005	0.384789	-0.624142	-0.625492	0.021533	4.505798	-0.627726	-2.003521E+8	-1.074757E-10	NaN
231	1.000000	0.394144	7.36731e+06	-50189.1	955.818	-29756.9	0.000000	0.000000	6.394905	0.022171	NaN	0.000000	0.001671	0.001643	28.0765	0.063950	0.002099	30.4704	-28.3208	-163.03	0.042111	0.392836	-0.616137	-0.617445	0.022171	30.4704	-0.616683	-1.412641E+8	-1.569494E-10	NaN
231	1.000000	0.402116	7.36731e+06	-50189.1	955.818	-29756.9	0.000000	0.000000	6.402876	-0.019391	NaN	0.000000	0.001661	0.001663	28.0763	0.019169	0.001984	9.660685	88.8336	-165.815	0.033085	0.400797	-0.608165	-0.609484	-0.019391	9.660685	-0.606659	-1.028358E+8	1.885579E-10	NaN
231	1.000000	0.410145	7.36731e+06	-50189.1	955.818	-29756.9	0.000000	0.000000	6.410907	0.015493	NaN	0.000000	0.001690	0.001628	28.0776	0.112500	0.002043	55.0677	-62.0059	-165.614	0.024683	0.408858	-0.600136	-0.601423	0.015493	55.0677	-0.600347	-8.418479E+7	-1.840369E-10	NaN
231	1.000000	0.418149	7.36731e+06	-50189.1	955.818	-29756.9	0.000000	0.000000	6.418908	-0.053264	NaN	0.000000	0.001687	0.001667	28.0777	0.064105	0.001959	32.7272	26.635	-166.819	0.009815	0.416852	-0.592132	-0.593429	-0.053264	32.7272	-0.590911	-6.240618E+7	8.534977E-10	NaN
231	1.000000	0.426145	7.36731e+06	-50189.1	955.818	-29756.9	0.000000	0.000000	6.426904	-0.048169	NaN	0.000000	0.001739	0.001649	28.0778	0.114284	0.002023	56.497	-6.634839	-167.373	-0.053105	0.424857	-0.584136	-0.585424	-0.048169	56.497	-0.583496	-4.931437E+7	9.767660E-10	NaN
231	1.000000	0.434177	7.36731e+06	-50189.1	955.819	-29756.9	0.000000	0.000000	6.434939	0.018661	NaN	0.000000	0.001725	0.001695	28.0778	0.038273	0.001925	19.8837	158.045	-164.966	-0.021532	0.432825	-0.576103	-0.577456	0.018661	19.8837	-0.576807	-3.987054E+7	-4.680465E-10	NaN
231	1.000000	0.442144	7.36731e+06	-50189.1	955.818	-29756.9	0.000000	0.000000	6.442904	-0.017308	NaN	0.000000	0.001727	0.001669	28.0777	0.074113	0.002059	35.9861	158.295	-161.679	0.052200	0.440829	-0.568137	-0.569452	-0.017308	35.9861	-0.567776	-2.991609E+7	5.785469E-10	NaN
231	1.000000	0.450151	7.36731e+06	-50189.1	955.818	-29756.9	0.000000	0.000000	6.450914	0.069457	NaN	0.000000	0.001774	0.001678	28.0779	0.059778	0.002153	27.7598	169.233	-166.639	0.106446	0.448864	-0.560130	-0.561417	0.069457	27.7598	-0.562007	-2.489629E+7	-2.789864E-9	NaN
231	1.000000	0.458144	7.36731e+06	-50189.1	955.817	-29756.9	0.000000	0.000000	6.458903	-0.044580	NaN	0.000000	0.001732	0.001677	28.0779	0.156322	0.002027	77.1087	70.4647	-167.032	-0.089886	0.456855	-0.552137	-0.553426	-0.044580	77.1087	-0.551703	-1.792865E+7	2.486525E-9	NaN
231	1.000000	0.466159	7.36731e+06	-50189.1	955.819	-29756.9	0.000000	0.000000	6.466918	-0.036959	NaN	0.000000	0.001732	0.001644	28.0776	0.073094	0.001985	36.8232	-57.5953	-165.126	-0.084965	0.464865	-0.544122	-0.545416	-0.036959	36.8232	-0.543369	-1.374263E+7	2.689395E-9	NaN
231	1.000000	0.474135	7.36731e+06	-50189.1	955.818	-29756.9	0.000000	0.000000	6.474895	-0.010200	NaN	0.000000	0.001744	0.001672	28.0777	0.060838	0.001918	31.7257	-81.3088	-164.177	-0.017862	0.472902	-0.536146	-0.537379	-0.010200	31.7257	-0.535905	-1.082798E+7	9.420184E-10	NaN
231	1.000000	0.482185	7.36731e+06	-50189.1	955.818	-29756.9	0.000000	0.000000	6.482943	-0.050425	NaN	0.000000	0.001751	0.001666	28.0776	0.095894	0.002061	46.528	176.57	-162.846	-0.059091	0.480897	-0.528096	-0.529384	-0.050425	46.528	-0.527283	-8.21934e+06	6.134861E-9	NaN
231	1.000000	0.490159	7.36731e+06	-50189.1	955.819	-29756.9	0.000000	0.000000	6.490920	0.008906	NaN	0.000000	0.001747	0.001661	28.0777	0.084063	0.002037	41.2713	-100.746	-161.798	-0.055387	0.488920	-0.520122	-0.521361	0.008906	41.2713	-0.520283	-6.5696e+06	-1.355696E-9	NaN
231	1.000000	0.498181	7.36731e+06	-50189.1	955.818	-29756.9	0.000000	0.000000	6.498944	0.051497	NaN	0.000000	0.001718	0.001642	28.0777	0.066224	0.001885	35.1248	-72.5731	-166.038	0.070719	0.496838	-0.512100	-0.513443	0.051497	35.1248	-0.513200	-5.23567e+06	-9.835820E-9	NaN
231	1.000000	0.506174	7.36731e+06	-50189.1	955.819	-29756.9	0.000000	0.000000	6.506935	-0.007385	NaN	0.000000	0.001726	0.001638	28.0776	0.016220	0.002069	7.838225	162.063	-161.85	-0.079922	0.504861	-0.504106	-0.505420	-0.007385	7.838225	-0.503400	-3.82328e+06	1.931570E-9	NaN
231	1.000000	0.514194	7.36731e+06	-50189.1	955.818	-29756.9	0.000000	0.000000	6.514957	0.051189	NaN	0.000000	0.001710	0.001636	28.0778	0.040702	0.002106	19.3272	-173.766	-167.266	0.045280	0.512859	-0.496087	-0.497421	0.051189	19.3272	-0.498073	-3.22207e+06	-1.588690E-8	NaN
231	1.000000	0.522199	7.36731e+06	-50189.1	955.818	-29756.9	0.000000	0.000000	6.522959	-0.018517	NaN	0.000000	0.001745	0.001634	28.0778	0.052675	0.001981	26.5866	-106.822	-165.58	-0.010744	0.520875	-0.488081	-0.489406	-0.018517	26.5866	-0.487559	-2.2976e+06	8.059446E-9	NaN
231	1.000000	0.530166	7.36731e+06	-50189.1	955.819	-29756.9	0.000000	0.000000	6.530926	0.000873	NaN	0.000000	0.001737	0.001663	28.0778	0.126705	0.001961	64.62	121.168	-169.276	-0.014112	0.528922	-0.480115	-0.481359	0.000873	64.62	-0.480125	-1.80835e+06	-4.830235E-10	NaN
231	1.000000	0.538209	7.36731e+06	-50189.1	955.818	-29756.9	0.000000	0.000000	6.538971	0.023404	NaN	0.000000	0.001715	0.001663	28.0775	0.047922	0.002095	22.8767	162.643	-163.026	-0.027119	0.536917	-0.472071	-0.473364	0.023404	22.8767	-0.472839	-1.42958e+06	-1.637125E-8	NaN
231	1.000000	0.546188	7.36731e+06	-50189.1	955.818	-29756.9	0.000000	0.000000	6.546946	-0.058164	NaN	0.000000	0.001735	0.001640	28.0767	0.018768	0.002039	9.204236	-45.8574	-165.274	-0.001059	0.544827	-0.464093	-0.465453	-0.058164	9.204236	-0.459354	-924554	6.291001E-8	NaN
231	1.000000	0.554218	7.36731e+06	-50189.1	955.818	-29756.9	0.000000	0.000000	6.554977	-0.045552	NaN	0.000000	0.001755	0.001655	28.0763	0.036882	0.001949	18.9229	145.202	-168.166	-0.049777	0.552899	-0.456063	-0.457382	-0.045552	18.9229	-0.454257	-783918	5.810765E-8	NaN
231	1.000000	0.562190	7.36731e+06	-50189.1	955.819	-29756.9	0.000000	0.000000	6.562950	-0.015844	NaN	0.000000	0.001727	0.001635	28.0764	0.030720	0.001961	15.6653	-32.5229	-167.024	-0.053119	0.560923	-0.448091	-0.449358	-0.015844	15.6653	-0.447332	-626278	2.529810E-8	NaN
231	1.000000	0.570210	7.36731e+06	-50189.1	955.819	-29756.9	0.000000	0.000000	6.570970	0.003124	NaN	0.000000	0.001766	0.001644	28.0765	0.061545	0.002021	30.4462	-128.365	-166.39	-0.002127	0.568890	-0.440071	-0.441390	0.003124	30.4462	-0.440148	-495969	-6.299373E-9	NaN
231	1.000000	0.578240	7.36731e+06	-50189.1	955.818	-29756.9	0.000000	0.000000	6.578999	-0.039241	NaN	0.000000	0.001735	0.001644	28.0763	0.101027	0.002117	47.7174	-31.1817	-165.516	-0.040476	0.576942	-0.432041	-0.433339	-0.039241	47.7174	-0.431424	-373430	1.050822E-7	NaN
231	1.000000	0.586212	7.36731e+06	-50189.1	955.818	-29756.9	0.000000	0.000000	6.586974	0.040687	NaN	0.000000	0.001678	0.001629	28.0763	0.045829	0.002051	22.3497	-44.1235	-164.432	-0.020333	0.584948	-0.424069	-0.425332	0.040687	22.3497	-0.425434	-307211	-1.324398E-7	NaN
231	1.000000	0.594213	7.36731e+06	-50189.1	955.819	-29756.9	0.000000	0.000000	6.594976	0.054053	NaN	0.000000	0.001664	0.001657	28.0764	0.035964	0.001961	18.3436	23.1506	-166.64	0.073792	0.592941	-0.416068	-0.417339	0.054053	18.3436	-0.418278	-243215	-2.222429E-7	NaN
231	1.000000	0.602198	7.36731e+06	-50189.1	955.818	-29756.9	0.000000	0.000000	6.602959	0.006965	NaN	0.000000	0.001648	0.001627	28.0764	0.035244	0.002048	17.2112	43.2997	-165.938	-0.054465	0.600940	-0.408083	-0.409341	0.006965	17.2112	-0.408386	-175973	-3.957840E-8	NaN
231	1.000000	0.610234	7.36731e+06	-50189.1	955.819	-29756.9	0.000000	0.000000	6.610993	-0.029948	NaN	0.000000	0.001633	0.001635	28.0764	0.013930	0.002000	6.966049	-168.482	-165.7	-0.095658	0.608903	-0.400047	-0.401378	-0.029948	6.966049	-0.396823	-120409	2.487208E-7	NaN
231	1.000000	0.618205	7.36731e+06	-50189.1	955.818	-29756.9	0.000000	0.000000	6.618970	0.090566	NaN	0.000000	0.001641	0.001645	28.0764	0.050187	0.001980	25.3517	106.444	-164.884	0.081568	0.616944	-0.392075	-0.393336	0.090566	25.3517	-0.394755	-112495	-8.050713E-7	NaN
231	1.000000	0.626247	7.36731e+06	-50189.1	955.819	-29756.9	0.000000	0.000000	6.627008	0.000605	NaN	0.000000	0.001650	0.001617	28.0769	0.133920	0.001933	69.2936	20.5846	-166.119	-0.095452	0.624882	-0.384034	-0.385399	0.000605	69.2936	-0.384040	-79037	-7.649731E-9	NaN
231	1.000000	0.634261	7.36731e+06	-50189.1	955.819	-29756.9	0.000000	0.000000	6.635023	0.034522	NaN	0.000000	0.001665	0.001639	28.0764	0.077167	0.001898	40.6598	-43.5224	-166.107	0.054733	0.632890	-0.376020	-0.377391	0.034522	40.6598	-0.376657	-61927.4	-5.574530E-7	NaN
231	1.000000	0.642215	7.36731e+06	-50189.1	955.819	-29756.9	0.000000	0.000000	6.642975	-0.030646	NaN	0.000000	0.001666	0.001630	28.0764	0.178283	0.001955	91.1726	-123.614	-163.142	-0.024939	0.640958	-0.368066	-0.369323	-0.030646	91.1726	-0.367814	-46198.5	6.633492E-7	NaN
231	1.000000	0.650266	7.36731e+06	-50189.1	955.819	-29756.9	0.000000	0.000000	6.651027	0.006489	NaN	0.000000	0.001688	0.001601	28.0764	0.063241	0.002137	29.5945	20.89	-165.127	-0.067883	0.648920	-0.360015	-0.361361	0.006489	29.5945	-0.360179	-35845.9	-1.810343E-7	NaN
231	1.000000	0.658243	7.36731e+06	-50189.1	955.819	-29756.9	0.000000	0.000000	6.659003	-0.010321	NaN	0.000000	0.001661	0.001647	28.0763	0.040725	0.001953	20.8568	-49.5032	-167.825	0.114345	0.656961	-0.352038	-0.353320	-0.010321	20.8568	-0.351667	-26988.7	3.824283E-7	NaN
231	1.000000	0.666257	7.36731e+06	-50189.1	955.818	-29756.9	0.000000	0.000000	6.667015	-0.055538	NaN	0.000000	0.001697	0.001613	28.0766	0.125974	0.002044	61.639	-87.6935	-168.263	-0.030869	0.664942	-0.344024	-0.345339	-0.055538	61.639	-0.343348	-20432.7	2.718087E-6	NaN
231	1.000000	0.674268	7.36731e+06	-50189.1	955.817	-29756.9	0.000000	0.000000	6.675028	-0.015970	NaN	0.000000	0.001668	0.001626	28.0765	0.094989	0.002060	46.1132	161.861	-169.552	0.043771	0.672978	-0.336013	-0.337303	-0.015970	46.1132	-0.335753	-15833.8	1.008590E-6	NaN
231	1.000000	0.682294	7.36731e+06	-50189.1	955.818	-29756.9	0.000000	0.000000	6.683055	0.006727	NaN	0.000000	0.001684	0.001611	28.077	0.041896	0.001985	21.1036	108.073	-163.803	-0.003674	0.680925	-0.327986	-0.329356	0.006727	21.1036	-0.328226	-12287.2	-5.474983E-7	NaN
231	1.000000	0.690281	7.36731e+06	-50189.1	955.819	-29756.9	0.000000	0.000000	6.691040	-0.042751	NaN	0.000000	0.001673	0.001605	28.0775	0.029555	0.002109	14.0131	170.149	-166.69	0.021074	0.688939	-0.320000	-0.321342	-0.042751	14.0131	-0.317712	-8608.77	4.965961E-6	NaN
231	1.000000	0.698269	7.36731e+06	-50189.1	955.818	-29756.9	0.000000	0.000000	6.699028	-0.047077	NaN	0.000000	0.001687	0.001649	28.0775	0.048518	0.002073	23.4091	-60.6284	-166.448	-0.024156	0.696976	-0.312012	-0.313304	-0.047077	23.4091	-0.310503	-6737.6	6.987251E-6	NaN
231	1.000000	0.706259	7.36731e+06	-50189.1	955.819	-29756.9	0.000000	0.000000	6.707018	-0.047554	NaN	0.000000	0.001681	0.001663	28.0776	0.052262	0.001931	27.0714	39.6177	-163.39	0.007073	0.704918	-0.304022	-0.305363	-0.047554	27.0714	-0.302704	-5162.5	9.211479E-6	NaN
231	1.000000	0.714275	7.36731e+06	-50189.1	955.819	-29756.9	0.000000	0.000000	6.715036	0.003679	NaN	0.000000	0.001637	0.001621	28.0777	0.045481	0.002014	22.577	153.409	-165.073	-0.046960	0.713017	-0.296006	-0.297264	0.003679	22.577	-0.296128	-4120.3	-8.929985E-7	NaN
231	1.000000	0.722291	7.36731e+06	-50189.1	955.817	-29756.9	0.000000	0.000000	6.723050	-0.030933	NaN	0.000000	0.001633	0.001666	28.0778	0.031274	0.002081	15.0281	-123.498	-165.574	-0.045770	0.720942	-0.287990	-0.289339	-0.030933	15.0281	-0.286446	-2951.2	1.048161E-5	NaN
231	1.000000	0.730260	7.36731e+06	-50189.1	955.818	-29756.9	0.000000	0.000000	6.731020	-0.025963	NaN	0.000000	0.001689	0.001613	28.0777	0.086906	0.001925	45.15	-152.786	-168.495	-0.020706	0.728956	-0.280020	-0.281325	-0.025963	45.15	-0.279589	-2326.86	1.115794E-5	NaN
231	1.000000	0.738300	7.36731e+06	-50189.1	955.818	-29756.9	0.000000	0.000000	6.739058	-0.064436	NaN	0.000000	0.001665	0.001568	28.0776	0.040861	0.002059	19.8414	-44.0813	-165.059	-0.036699	0.736961	-0.271981	-0.273320	-0.064436	19.8414	-0.269546	-1639.21	3.930939E-5	NaN
231	1.000000	0.746300	7.36731e+06	-50189.1	955.818	-29756.9	0.000000	0.000000	6.747063	0.044604	NaN	0.000000	0.001689	0.001631	28.0773	0.023796	0.001940	12.2661	-20.6355	-166.538	0.031635	0.744949	-0.263980	-0.265331	0.044604	12.2661	-0.266708	-1484	-3.005682E-5	NaN
231	1.000000	0.754275	7.36731e+06	-50189.1	955.819	-29756.9	0.000000	0.000000	6.755038	0.041941	NaN	0.000000	0.001704	0.001616	28.0776	0.164172	0.001865	88.048	-143.612	-170.323	0.124187	0.753007	-0.256006	-0.257274	0.041941	88.048	-0.256363	-1030.59	-4.069669E-5	NaN
231	1.000000	0.762291	7.36731e+06	-50189.1	955.818	-29756.9	0.000000	0.000000	6.763051	-0.018652	NaN	0.000000	0.001676	0.001622	28.0778	0.032295	0.001984	16.2772	102.833	-166.275	-0.033779	0.760976	-0.247989	-0.249305	-0.018652	16.2772	-0.247130	-742.197	2.513100E-5	NaN
231	1.000000	0.770302	7.36731e+06	-50189.1	955.819	-29756.9	0.000000	0.000000	6.771062	-0.022156	NaN	0.000000	0.001683	0.001625	28.0777	0.019643	0.002038	9.636535	112.925	-163.226	0.006069	0.769023	-0.239979	-0.241257	-0.022156	9.636535	-0.238254	-539.833	4.104241E-5	NaN
231	1.000000	0.778303	7.36731e+06	-50189.1	955.819	-29756.9	0.000000	0.000000	6.779061	-0.064612	NaN	0.000000	0.001695	0.001606	28.0775	0.108285	0.001969	55.0074	-63.3542	-165.82	-0.087332	0.777025	-0.231978	-0.233255	-0.064612	55.0074	-0.231097	-416.708	0.000155	NaN
231	1.000000	0.786339	7.36731e+06	-50189.1	955.819	-29756.9	0.000000	0.000000	6.787102	0.061532	NaN	0.000000	0.001685	0.001608	28.0778	0.112329	0.002002	56.115	2.880289	-164.606	0.006345	0.784950	-0.223942	-0.225330	0.061532	56.115	-0.224764	-330.816	-0.000186	NaN
231	1.000000	0.794298	7.36731e+06	-50189.1	955.818	-29756.9	0.000000	0.000000	6.795060	0.032682	NaN	0.000000	0.001691	0.001532	28.0776	0.061295	0.002026	30.2593	123.721	-168.728	-0.033896	0.793041	-0.215982	-0.217240	0.032682	30.2593	-0.216792	-246.781	-0.000132	NaN
231	1.000000	0.802328	7.36731e+06	-50189.1	955.818	-29756.9	0.000000	0.000000	6.803091	0.059949	NaN	0.000000	0.001648	0.001553	28.0777	0.065740	0.001966	33.4305	87.9833	-164.15	-0.035519	0.801014	-0.207953	-0.209267	0.059949	33.4305	-0.209298	-186.827	-0.000321	NaN
231	1.000000	0.810291	7.36731e+06	-50189.1	955.818	-29756.9	0.000000	0.000000	6.811049	-0.068242	NaN	0.000000	0.001623	0.001549	28.0778	0.035734	0.002021	17.6823	-60.1099	-166.157	0.032259	0.809043	-0.199990	-0.201238	-0.068242	17.6823	-0.197095	-117.992	0.000578	NaN
231	1.000000	0.818312	7.36731e+06	-50189.1	955.819	-29756.9	0.000000	0.000000	6.819072	-0.011958	NaN	0.000000	0.001661	0.001603	28.0774	0.103047	0.001992	51.7295	47.1712	-161.752	-0.011234	0.817014	-0.191969	-0.193267	-0.011958	51.7295	-0.191796	-96.3781	0.000124	NaN
231	1.000000	0.826307	7.36731e+06	-50189.1	955.819	-29756.9	0.000000	0.000000	6.827065	-0.082628	NaN	0.000000	0.001641	0.001613	28.0764	0.057600	0.001865	30.8792	163.041	-167.708	0.031906	0.824979	-0.183974	-0.185302	-0.082628	30.8792	-0.181967	-65.8969	0.001254	NaN
231	1.000000	0.834320	7.36731e+06	-50189.1	955.818	-29756.9	0.000000	0.000000	6.835080	-0.006598	NaN	0.000000	0.001645	0.001551	28.0764	0.044238	0.001996	22.1678	-154.601	-164.812	-0.011021	0.833021	-0.175961	-0.177260	-0.006598	22.1678	-0.175738	-51.5995	0.000128	NaN
231	1.000000	0.842318	7.36731e+06	-50189.1	955.819	-29756.9	0.000000	0.000000	6.843078	-0.030949	NaN	0.000000	0.001678	0.001569	28.0763	0.049323	0.002027	24.3286	-175.284	-166.334	-0.048305	0.841042	-0.167963	-0.169239	-0.030949	24.3286	-0.167009	-36.4331	0.000849	NaN
231	1.000000	0.850347	7.36731e+06	-50189.1	955.818	-29756.9	0.000000	0.000000	6.851104	-0.094616	NaN	0.000000	0.001645	0.001582	28.0767	0.105068	0.002057	51.0725	143.447	-165.986	-0.055351	0.849047	-0.159933	-0.161233	-0.094616	51.0725	-0.158544	-25.8266	0.003664	NaN
231	1.000000	0.858316	7.36731e+06	-50189.1	955.819	-29756.9	0.000000	0.000000	6.859076	-0.005115	NaN	0.000000	0.001648	0.001552	28.0765	0.117521	0.002013	58.3847	-122.308	-164.175	-0.033994	0.857008	-0.151965	-0.153272	-0.005115	58.3847	-0.151899	-19.6134	0.000261	NaN
231	1.000000	0.866323	7.36731e+06	-50189.1	955.819	-29756.9	0.000000	0.000000	6.867084	0.016841	NaN	0.000000	0.001652	0.001568	28.0764	0.077657	0.002069	37.5374	161.134	-163.596	-0.004067	0.865023	-0.143958	-0.145258	0.016841	37.5374	-0.144294	-14.2265	-0.001184	NaN
231	1.000000	0.874345	7.36731e+06	-50189.1	955.819	-29756.9	0.000000	0.000000	6.875109	0.083999	NaN	0.000000	0.001670	0.001575	28.0765	0.017410	0.002028	8.584884	-70.8403	-165.084	0.081444	0.873014	-0.135936	-0.137267	0.083999	8.584884	-0.143275	-13.6196	-0.006168	NaN
231	1.000000	0.882345	7.36731e+06	-50189.1	955.819	-29756.9	0.000000	0.000000	6.883105	-0.012088	NaN	0.000000	0.001668	0.001588	28.0764	0.028305	0.001958	14.4563	-169.885	-164.46	0.017949	0.881057	-0.127936	-0.129224	-0.012088	14.4563	-0.127309	-6.752806	0.001790	NaN
231	1.000000	0.890351	7.36731e+06	-50189.1	955.819	-29756.9	0.000000	0.000000	6.891113	0.015552	NaN	0.000000	0.001669	0.001571	28.0765	0.153001	0.002050	74.6226	-38.5993	-163.577	-0.033721	0.889042	-0.119929	-0.121239	0.015552	74.6226	-0.120086	-4.850784	-0.003206	NaN
231	1.000000	0.898333	7.36731e+06	-50189.1	955.818	-29756.9	0.000000	0.000000	6.899094	0.012199	NaN	0.000000	0.001697	0.001568	28.0765	0.047347	0.002146	22.0619	114.652	-163.51	-0.009133	0.897028	-0.111948	-0.113252	0.012199	22.0619	-0.112363	-3.368366	-0.003622	NaN
231	1.000000	0.906326	7.36731e+06	-50189.1	955.818	-29756.9	0.000000	0.000000	6.907088	0.031449	NaN	0.000000	0.001705	0.001535	28.0764	0.035523	0.001965	18.0769	-99.8281	-164	0.032896	0.905051	-0.103955	-0.105230	0.031449	18.0769	-0.105259	-2.381080	-0.013208	NaN
231	1.000000	0.914355	7.36731e+06	-50189.1	955.819	-29756.9	0.000000	0.000000	6.915115	-0.015819	NaN	0.000000	0.001664	0.001573	28.0767	0.190754	0.001967	96.9726	153.646	-165.047	-0.066209	0.913026	-0.095926	-0.097255	-0.015819	96.9726	-0.095803	-1.471212	0.010752	NaN
231	1.000000	0.922340	7.36731e+06	-50189.1	955.819	-29756.9	0.000000	0.000000	6.923100	-0.020790	NaN	0.000000	0.001689	0.001619	28.0764	0.088985	0.002002	44.4464	46.4465	-161.538	-0.032981	0.921076	-0.087941	-0.089204	-0.020790	44.4464	-0.087590	-0.948099	0.021929	NaN
231	1.000000	0.930377	7.36731e+06	-50189.1	955.818	-29756.9	0.000000	0.000000	6.931141	0.073758	NaN	0.000000	0.001686	0.001629	28.0765	0.058867	0.001967	29.9277	158.263	-164.254	0.083478	0.929060	-0.079904	-0.081221	0.073758	29.9277	-0.081752	-0.684292	-0.107787	NaN
231	1.000000	0.938323	7.36731e+06	-50189.1	955.818	-29756.9	0.000000	0.000000	6.939084	0.017845	NaN	0.000000	0.001650	0.001572	28.0764	0.009792	0.001979	4.948076	153.883	-165.916	0.079710	0.937050	-0.071958	-0.073231	0.017845	4.948076	-0.074663	-0.452685	-0.039421	NaN
231	1.000000	0.946353	7.36731e+06	-50189.1	955.817	-29756.9	0.000000	0.000000	6.947113	-0.024859	NaN	0.000000	0.001618	0.001586	28.0767	0.077593	0.002007	38.664	-19.0301	-168.12	0.010011	0.945062	-0.063927	-0.065219	-0.024859	38.664	-0.063445	-0.225536	0.110220	NaN
231	1.000000	0.954375	7.36731e+06	-50189.1	955.819	-29756.9	0.000000	0.000000	6.955136	0.008578	NaN	0.000000	0.001634	0.001610	28.0768	0.065417	0.001955	33.4666	126.675	-164.061	0.065736	0.953075	-0.055906	-0.057205	0.008578	33.4666	-0.056098	-0.138738	-0.061832	NaN
231	1.000000	0.962376	7.36731e+06	-50189.1	955.818	-29756.9	0.000000	0.000000	6.963136	-0.028261	NaN	0.000000	0.001637	0.001586	28.0777	0.023560	0.001946	12.1055	-153.975	-165.626	-0.007463	0.961086	-0.047904	-0.049194	-0.028261	12.1055	-0.046154	-0.069703	0.405453	NaN
231	1.000000	0.970392	7.36731e+06	-50189.1	955.819	-29756.9	0.000000	0.000000	6.971152	-0.015906	NaN	0.000000	0.001619	0.001600	28.0778	0.033656	0.001883	17.8732	-137.084	-166.896	-0.002214	0.969060	-0.039888	-0.041221	-0.015906	17.8732	-0.039221	-0.042828	0.371400	NaN
231	1.000000	0.978340	7.36731e+06	-50189.1	955.818	-29756.9	0.000000	0.000000	6.979097	-0.093672	NaN	0.000000	0.001583	0.001581	28.0776	0.043167	0.001951	22.1258	113.939	-166.186	-0.127238	0.977049	-0.031941	-0.033232	-0.093672	22.1258	-0.028766	-0.021274	4.403091	NaN
231	1.000000	0.986419	7.36731e+06	-50189.1	955.819	-29756.9	0.000000	0.000000	6.987180	0.008846	NaN	0.000000	0.001636	0.001601	28.0779	0.099988	0.001930	51.8066	-14.9518	-167.394	-0.025331	0.985082	-0.023862	-0.025198	0.008846	51.8066	-0.023990	-0.015881	-0.556981	NaN
231	1.000000	0.994405	7.36731e+06	-50189.1	955.819	-29756.9	0.000000	0.000000	6.995166	0.006736	NaN	0.000000	0.001662	0.001586	28.0777	0.046841	0.002070	22.6231	15.926	-167.078	0.015773	0.993099	-0.015876	-0.017182	0.006736	22.6231	-0.016099	-0.009944	-0.677340	NaN
231	1.000000	1.002361	7.36731e+06	-50189.1	955.819	-29756.9	0.000000	0.000000	7.003124	0.041663	NaN	0.000000	0.001614	0.001606	28.0774	0.057651	0.001933	29.8293	102.998	-162.279	0.026824	1.001098	-0.007919	-0.009182	0.041663	29.8293	-0.008967	-0.005794	-7.190846	NaN
231	1.000000	1.010382	7.36731e+06	-50189.1	955.819	-29756.9	0.000000	0.000000	7.011142	-0.036594	NaN	0.000000	0.001613	0.001634	28.0776	0.057531	0.001985	28.9791	109.355	-168.672	-0.028384	1.009132	0.000102	-0.001149	-0.036594	28.9791	0.001049	0.000800	-45.7419	936.08
231	1.000000	1.018377	7.36731e+06	-50189.1	955.818	-29756.9	0.000000	0.000000	7.019137	-0.035175	NaN	0.000000	0.001585	0.001661	28.0776	0.020477	0.002038	10.0474	-136.246	-163.57	-0.012735	1.017047	0.008097	0.006766	-0.035175	10.0474	0.010722	0.009995	-3.519182	91.8187
231	1.000000	1.026371	7.36731e+06	-50189.1	955.818	-29756.9	0.000000	0.000000	7.027143	0.276507	NaN	0.000000	0.001611	0.001665	28.0775	0.369704	0.001830	202.079	19.6111	-166.922	0.098920	1.025094	0.016090	0.014813	0.276507	202.079	0.015064	0.015371	17.9889	1489.16
231	1.000000	1.034376	7.36731e+06	-50189.1	955.818	-29756.9	0.000000	0.000000	7.035282	3.542096	NaN	0.000000	0.001591	0.001686	28.0773	2.139259	0.001886	1134.55	10.904	-167.975	2.698773	1.033095	0.024095	0.022815	3.542096	1134.55	0.021753	0.025373	139.604	6507.5
231	1.000000	1.042385	7.36731e+06	-50189.1	955.818	-29756.9	0.000000	0.000000	7.043461	7.670891	NaN	0.000000	0.001598	0.001683	28.0773	3.418294	0.001960	1744.32	13.5763	-166.838	7.088782	1.041126	0.032104	0.030845	7.670891	1744.32	0.028806	0.038305	200.26	8142.8
231	2.000000	1.047033	7.36731e+06	-50189.1	955.818	-29756.9	0.000000	0.000000	7.048109	7.663189	NaN	0.000000	0.001602	0.001631	28.0774	3.988486	0.002020	1974.47	11.1822	-166.016	7.791064	1.046727	0.036752	0.036446	7.663189	1974.47	0.033841	0.049083	156.128	8142.52
231	2.000000	1.049062	7.36731e+06	-50189.1	955.817	-29756.9	0.000000	0.000000	7.050140	7.697999	NaN	0.000000	0.001620	0.001640	28.0774	4.126462	0.001856	2223.35	11.541	-167.975	7.901740	1.048744	0.038781	0.038463	7.697999	2223.35	0.036185	0.054540	141.143	8698.06
231	2.000000	1.051013	7.36731e+06	-50189.1	955.817	-29756.9	0.000000	0.000000	7.052109	8.150061	NaN	0.000000	0.001638	0.001617	28.0777	4.679830	0.001946	2404.83	11.8418	-169.263	7.930375	1.050735	0.040732	0.040454	8.150061	2404.83	0.038190	0.059435	137.125	9012.3
231	2.000000	1.052991	7.36731e+06	-50189.1	955.817	-29756.9	0.000000	0.000000	7.054087	8.152252	NaN	0.000000	0.001705	0.001631	28.0773	5.212750	0.001994	2614.83	14.0538	-173.702	8.275072	1.052743	0.042711	0.042462	8.152252	2614.83	0.040372	0.064994	125.43	9370.83
231	2.000000	1.055002	7.36731e+06	-50189.1	955.817	-29756.9	0.000000	0.000000	7.056095	8.063463	NaN	0.000000	0.001682	0.001588	28.0777	5.409851	0.001939	2790.54	13.846	-170.738	8.070703	1.054632	0.044722	0.044351	8.063463	2790.54	0.042554	0.070796	113.896	9581.98
231	2.000000	1.056959	7.36731e+06	-50189.1	955.818	-29756.9	0.000000	0.000000	7.058067	8.461230	NaN	0.000000	0.001717	0.001647	28.0773	5.774074	0.001770	3261.28	10.7161	-168.589	8.397215	1.056663	0.046678	0.046383	8.461230	3261.28	0.044732	0.076829	110.131	10749.8
231	2.000000	1.058968	7.36731e+06	-50189.1	955.817	-29756.9	0.000000	0.000000	7.060098	8.983038	NaN	0.000000	0.001686	0.001666	28.0762	6.843641	0.001923	3558.66	12.8131	-171.803	8.945052	1.058658	0.048687	0.048377	8.983038	3558.66	0.046794	0.082762	108.54	11301.7
231	2.000000	1.060973	7.36731e+06	-50189.1	955.818	-29756.9	0.000000	0.000000	7.062164	10.4456	NaN	0.000000	0.001707	0.001626	28.0763	7.553159	0.001877	4024.68	10.374	-169.139	10.1245	1.060702	0.050693	0.050421	10.4456	4024.68	0.048746	0.088577	117.927	12355
231	2.000000	1.062978	7.36731e+06	-50189.1	955.818	-29756.9	0.000000	0.000000	7.064200	11.2221	NaN	0.000000	0.001656	0.001632	28.076	8.632427	0.001833	4710.04	13.1796	-174.001	11.236	1.062720	0.052697	0.052439	11.2221	4710.04	0.050910	0.095247	117.822	13943.5
231	2.000000	1.064950	7.36731e+06	-50189.1	955.819	-29756.9	0.000000	0.000000	7.066214	12.2474	NaN	0.000000	0.001688	0.001643	28.0766	9.325718	0.001935	4818.68	11.7381	-171.454	11.8209	1.064622	0.054669	0.054342	12.2474	4818.68	0.052763	0.101144	121.088	13843
231	2.000000	1.066970	7.36731e+06	-50189.1	955.818	-29756.9	0.000000	0.000000	7.068292	13.6482	NaN	0.000000	0.001676	0.001621	28.076	10.4174	0.001852	5626.22	13.1911	-174.339	14.0036	1.066602	0.056689	0.056321	13.6482	5626.22	0.054870	0.108058	126.305	15637.3
231	2.000000	1.068955	7.36731e+06	-50189.1	955.819	-29756.9	0.000000	0.000000	7.070336	15.0831	NaN	0.000000	0.001707	0.001617	28.0762	11.8465	0.001898	6243.14	13.4119	-175.021	15.2004	1.068604	0.058674	0.058324	15.0831	6243.14	0.056862	0.114798	131.388	16834.9
231	2.000000	1.070961	7.36731e+06	-50189.1	955.819	-29756.9	0.000000	0.000000	7.072461	17.9909	NaN	0.000000	0.001727	0.001598	28.0765	13.5131	0.001850	7303.85	12.5993	-176.416	17.777	1.070607	0.060680	0.060326	17.9909	7303.85	0.058833	0.121655	147.884	19132
231	2.000000	1.072943	7.36731e+06	-50189.1	955.818	-29756.9	0.000000	0.000000	7.074609	22.0102	NaN	0.000000	0.001706	0.001588	28.0759	15.0746	0.001793	8407.13	8.620907	-174.638	21.5088	1.072611	0.062663	0.062330	22.0102	8407.13	0.060699	0.128327	171.516	21441.8
231	2.000000	1.074956	7.36731e+06	-50189.1	955.818	-29756.9	0.000000	0.000000	7.076784	25.9742	NaN	0.000000	0.001728	0.001595	28.0765	17.5553	0.001889	9295.86	11.5283	-178.3	25.2826	1.074642	0.064675	0.064361	25.9742	9295.86	0.062579	0.135219	192.09	23096.4
231	2.000000	1.076898	7.36731e+06	-50189.1	955.819	-29756.9	0.000000	0.000000	7.078924	30.7672	NaN	0.000000	0.001673	0.001576	28.0759	18.7691	0.001771	10596.7	8.985074	-177.507	29.9609	1.076617	0.066617	0.066336	30.7672	10596.7	0.064440	0.142208	216.354	25673.4
231	2.000000	1.078932	7.36731e+06	-50189.1	955.819	-29756.9	0.000000	0.000000	7.081248	37.8063	NaN	0.000000	0.001734	0.001600	28.0763	21.4205	0.001916	11177.1	5.910342	-175.109	36.8822	1.078529	0.068651	0.068248	37.8063	11177.1	0.066115	0.148643	254.343	26486.8
231	2.000000	1.080921	7.36731e+06	-50189.1	955.819	-29756.9	0.000000	0.000000	7.083639	47.5986	NaN	0.000000	0.001694	0.001623	28.0763	24.0014	0.001824	13155.1	10.1253	178.806	47.0499	1.080628	0.070640	0.070347	47.5986	13155.1	0.067926	0.155754	305.601	30454.3
231	2.000000	1.082917	7.36731e+06	-50189.1	955.818	-29756.9	0.000000	0.000000	7.086048	57.6355	NaN	0.000000	0.001720	0.001631	28.0764	25.3952	0.001734	14643.7	6.549276	-179.42	56.8961	1.082632	0.072636	0.072351	57.6355	14643.7	0.069684	0.162807	354.012	33158
231	2.000000	1.084896	7.36731e+06	-50189.1	955.818	-29756.9	0.000000	0.000000	7.088498	69.1083	NaN	0.000000	0.001724	0.001616	28.0777	27.993	0.001785	15679.9	7.672528	179.037	68.5268	1.084663	0.074615	0.074382	69.1083	15679.9	0.071309	0.169455	407.826	34800.7
231	2.000000	1.086888	7.36731e+06	-50189.1	955.819	-29756.9	0.000000	0.000000	7.091024	82.0691	NaN	0.000000	0.001732	0.001633	28.0764	29.2241	0.001652	17690.2	7.672815	177.415	80.0562	1.086550	0.076607	0.076270	82.0691	17690.2	0.073128	0.177044	463.552	38411.8
231	2.000000	1.088906	7.36731e+06	-50189.1	955.819	-29756.9	0.000000	0.000000	7.093443	91.8256	NaN	0.000000	0.001649	0.001604	28.0765	31.9682	0.001797	17794.4	7.456568	178.239	91.5678	1.088636	0.078626	0.078356	91.8256	17794.4	0.074755	0.183968	499.139	37904
231	2.000000	1.090902	7.36731e+06	-50189.1	955.819	-29756.9	0.000000	0.000000	7.096026	106.102	NaN	0.000000	0.001687	0.001607	28.0765	33.4036	0.001674	19953	5.487435	178.774	104.139	1.090534	0.080621	0.080253	106.102	19953	0.076633	0.192111	552.296	41591.5
231	2.000000	1.092901	7.36731e+06	-50189.1	955.818	-29756.9	0.000000	0.000000	7.098617	120.516	NaN	0.000000	0.001661	0.001612	28.0775	35.5765	0.001631	21806.2	7.006855	176.455	119.969	1.092575	0.082620	0.082295	120.516	21806.2	0.078475	0.200261	601.795	44520
231	2.000000	1.094899	7.36731e+06	-50189.1	955.819	-29756.9	0.000000	0.000000	7.101201	134.756	NaN	0.000000	0.001610	0.001606	28.0793	38.9924	0.001791	21774.4	5.583534	177.414	133.82	1.094668	0.084618	0.084387	134.756	21774.4	0.079977	0.207023	650.923	43723.1
231	2.000000	1.096864	7.36731e+06	-50189.1	955.819	-29756.9	0.000000	0.000000	7.103790	149.918	NaN	0.000000	0.001607	0.001647	28.0776	39.3476	0.001749	22499.7	2.436110	-179.638	147.452	1.096589	0.086583	0.086308	149.918	22499.7	0.081586	0.214385	699.296	44396.9
231	2.000000	1.098914	7.36731e+06	-50189.1	955.818	-29756.9	0.000000	0.000000	7.106335	161.962	NaN	0.000000	0.001625	0.001643	28.0776	42.0177	0.001822	23056.7	5.535561	176.93	160.346	1.098576	0.088633	0.088296	161.962	23056.7	0.083365	0.222663	727.387	44642.4
231	2.000000	1.100932	7.36731e+06	-50189.1	955.819	-29756.9	0.000000	0.000000	7.109316	185.41	NaN	0.000000	0.001621	0.001615	28.0777	44.093	0.001761	25041.7	5.701604	177.451	184.649	1.100509	0.090651	0.090228	185.41	25041.7	0.085098	0.230868	803.101	47616.2
231	2.000000	1.102808	7.36731e+06	-50189.1	955.818	-29756.9	0.000000	0.000000	7.111937	203.484	NaN	0.000000	0.001599	0.001632	28.0776	45.3796	0.001737	26131.1	7.867085	172.77	199.004	1.102497	0.092528	0.092216	203.484	26131.1	0.086687	0.238517	853.124	48884.6
231	2.000000	1.104835	7.36731e+06	-50189.1	955.818	-29756.9	0.000000	0.000000	7.114718	221.825	NaN	0.000000	0.001601	0.001641	28.0782	48.0646	0.001762	27282.7	5.229357	175.88	218.779	1.104535	0.094555	0.094254	221.825	27282.7	0.088457	0.247166	897.47	50137.8
231	2.000000	1.106826	7.36731e+06	-50189.1	955.819	-29756.9	0.000000	0.000000	7.117586	243.181	NaN	0.000000	0.001559	0.001620	28.0773	48.7343	0.001859	26213.4	4.088627	177.715	239.008	1.106544	0.096545	0.096263	243.181	26213.4	0.089587	0.252769	962.07	47635.9
231	2.000000	1.108857	7.36731e+06	-50189.1	955.819	-29756.9	0.000000	0.000000	7.120451	263.451	NaN	0.000000	0.001584	0.001702	28.0776	51.2348	0.001912	26791.6	5.394837	175.848	260.277	1.108409	0.098576	0.098128	263.451	26791.6	0.091201	0.260869	1009.9	47924.8
231	2.000000	1.110879	7.36731e+06	-50189.1	955.818	-29756.9	0.000000	0.000000	7.123443	287.035	NaN	0.000000	0.001572	0.001617	28.0776	52.4882	0.001742	30124.8	4.804372	175.333	286.308	1.110560	0.100599	0.100280	287.035	30124.8	0.093452	0.272366	1053.86	52737.6
231	2.000000	1.112897	7.36731e+06	-50189.1	955.819	-29756.9	0.000000	0.000000	7.126371	309.176	NaN	0.000000	0.001570	0.001585	28.0775	53.5637	0.001776	30163.2	3.203361	177.123	308.24	1.112594	0.102616	0.102314	309.176	30163.2	0.094928	0.280029	1104.09	52077.4
231	2.000000	1.114719	7.36731e+06	-50189.1	955.818	-29756.9	0.000000	0.000000	7.129458	339.908	NaN	0.000000	0.001567	0.001584	28.078	55.1433	0.001823	30240.7	2.963232	177.521	333.21	1.114476	0.104439	0.104195	339.908	30240.7	0.096009	0.285702	1189.73	51690.3
231	2.000000	1.116789	7.36731e+06	-50189.1	955.818	-29756.9	0.000000	0.000000	7.132661	367.489	NaN	0.000000	0.001587	0.001638	28.0775	55.6163	0.001810	30732	4.372778	175.846	360.798	1.116495	0.106508	0.106214	367.489	30732	0.097540	0.293832	1250.68	51798.1
231	2.000000	1.118769	7.36731e+06	-50189.1	955.819	-29756.9	0.000000	0.000000	7.135572	390.114	NaN	0.000000	0.001577	0.001609	28.0776	57.6019	0.001741	33094.7	2.531342	176.268	384.382	1.118502	0.108489	0.108221	390.114	33094.7	0.099648	0.305200	1278.22	54731.7
231	2.000000	1.120789	7.36731e+06	-50189.1	955.819	-29756.9	0.000000	0.000000	7.138336	408.212	NaN	0.000000	0.001563	0.001624	28.0777	59.8749	0.001826	32783.8	2.552604	176.858	401.432	1.120470	0.110509	0.110190	408.212	32783.8	0.101170	0.313534	1301.97	53492.2
231	2.000000	1.122938	7.36731e+06	-50189.1	955.82	-29756.9	0.000000	0.000000	7.141828	440.864	NaN	0.000000	0.001558	0.001625	28.0774	61.0623	0.001789	34139.2	3.588139	176.378	443.207	1.122462	0.112657	0.112181	440.864	34139.2	0.102972	0.323538	1362.63	54835.8
231	2.000000	1.124768	7.36731e+06	-50189.1	955.82	-29756.9	0.000000	0.000000	7.144759	467.672	NaN	0.000000	0.001573	0.001621	28.0778	64.2246	0.001885	34066.4	3.819463	175.255	461.341	1.124455	0.114487	0.114174	467.672	34066.4	0.104191	0.330385	1415.54	54148.8
231	2.000000	1.126802	7.36731e+06	-50189.1	955.819	-29756.9	0.000000	0.000000	7.148133	500.246	NaN	0.000000	0.001549	0.001632	28.0763	65.1507	0.001880	34653.3	4.472572	174.451	496.271	1.126531	0.116521	0.116251	500.246	34653.3	0.105695	0.338930	1475.96	54382.9
231	2.000000	1.128767	7.36731e+06	-50189.1	955.819	-29756.9	0.000000	0.000000	7.150993	521.993	NaN	0.000000	0.001561	0.001616	28.0767	66.5477	0.001878	35438.9	1.098775	177.834	515.262	1.128391	0.118487	0.118111	521.993	35438.9	0.107440	0.348972	1495.8	54809.8
231	2.000000	1.130915	7.36731e+06	-50189.1	955.819	-29756.9	0.000000	0.000000	7.153923	541.015	NaN	0.000000	0.001554	0.001620	28.0765	67.5454	0.001746	38690.3	1.440109	176.613	541.343	1.130709	0.120635	0.120428	541.015	38690.3	0.110147	0.364827	1482.94	58523.7
231	2.000000	1.132726	7.36731e+06	-50189.1	955.82	-29756.9	0.000000	0.000000	7.157730	589.562	NaN	0.000000	0.001579	0.001607	28.0763	69.0153	0.001811	38106.3	3.801564	174.54	580.392	1.132312	0.122445	0.122031	589.562	38106.3	0.110841	0.368946	1597.96	57317.7
231	2.000000	1.134868	7.36731e+06	-50189.1	955.819	-29756.9	0.000000	0.000000	7.158555	557.527	NaN	0.000000	0.001590	0.001608	28.0764	70.8206	0.001817	38985	2.747447	174.848	556.07	1.134705	0.124587	0.124424	557.527	38985	0.113861	0.387117	1440.2	57246.5
231	2.000000	1.136689	7.36731e+06	-50189.1	955.819	-29756.9	0.000000	0.000000	7.162588	611.342	NaN	0.000000	0.001613	0.001621	28.0763	71.5585	0.001832	39070.6	3.575269	174.415	602.884	1.136393	0.126408	0.126113	611.342	39070.6	0.114672	0.392068	1559.27	57008.9
231	2.000000	1.138775	7.36731e+06	-50189.1	955.82	-29756.9	0.000000	0.000000	7.165893	640.975	NaN	0.000000	0.001602	0.001601	28.0769	73.0284	0.001849	39487.9	-1.041035	179.288	636.71	1.138529	0.128494	0.128248	640.975	39487.9	0.116320	0.402216	1593.61	56886.2
231	2.000000	1.140820	7.36731e+06	-50189.1	955.82	-29756.9	0.000000	0.000000	7.169245	672.756	NaN	0.000000	0.001572	0.001586	28.0764	75.7388	0.001797	42153.9	4.134756	174.03	669.872	1.140474	0.130539	0.130193	672.756	42153.9	0.118569	0.416270	1616.15	59692.9
231	2.000000	1.142737	7.36731e+06	-50189.1	955.82	-29756.9	0.000000	0.000000	7.172326	701.047	NaN	0.000000	0.001593	0.001585	28.0764	76.861	0.001825	42119.9	7.687011	170.634	694.305	1.142403	0.132457	0.132122	701.047	42119.9	0.119974	0.425161	1648.9	59018
231	2.000000	1.144399	7.36731e+06	-50189.1	955.82	-29756.9	0.000000	0.000000	7.172815	672.538	NaN	0.000000	0.001589	0.001585	28.0773	79.1932	0.001849	42837.4	4.591442	-7.427703	669.244	1.144147	0.134118	0.133866	672.538	42837.4	0.122343	0.440367	1527.22	58977.8