File: remote_trans/data/nanoindenter/0828-1/data/Data_2025-08-06,11h17m57s/2025-07-22_16-23-58_1_761.txt
2025-07-22, 16:23:58, 1
Index	Phase	Displacement	Time	Pos X	Pos Y	Pos Z	Rot A	Rot B	Piezo Z	Force A	Force B	Gripper	Voltage A	Voltage B	Temperature	Amplitude force	Amplitude pos	Stiffness	Phase shift	Phase excitation	Force A raw	Displacement raw	HMax	HMax raw	Real Force	Real Stiffness	Contact Depth	Area	Hardness	Reduced Mod.
[#]	[#]	[um]	[s]	[um]	[um]	[um]	[m°]	[m°]	[um]	[uN]	[uN]	[V]	[V]	[V]	[°C]	[uN]	[um]	[N/m]	[°]	[°]	[uN]	[um]	[um]	[um]	[uN]	[N/m]	[um]	[um^2]	[MPa]	[MPa]
761	1.000000	0.002595	7.3725e+06	-39039.1	1005.82	-29795.3	0.000000	0.000000	6.002819	-0.035792	NaN	0.000000	0.001642	0.001690	28.0824	0.065658	0.000837	78.4129	134.679	-157.714	-0.072175	0.001287	-1.116146	-1.117454	-0.035792	78.4129	-1.115804	-8.168987E+14	4.381470E-17	NaN
761	1.000000	0.012621	7.3725e+06	-39039.1	1005.82	-29795.3	0.000000	0.000000	6.012846	-0.008473	NaN	0.000000	0.001637	0.001712	28.0824	0.040450	0.001205	33.5555	33.4074	19.6287	-0.059442	0.011157	-1.106120	-1.107583	-0.008473	33.5555	-1.105931	-6.021062E+14	1.407151E-17	NaN
761	1.000000	0.022510	7.3725e+06	-39039.1	1005.82	-29795.3	0.000000	0.000000	6.022737	0.037973	NaN	0.000000	0.001630	0.001707	28.0826	0.053317	0.001772	30.0823	-88.8621	-162.913	0.026119	0.021206	-1.096231	-1.097535	0.037973	30.0823	-1.097177	-4.593835E+14	-8.265988E-17	NaN
761	1.000000	0.032522	7.3725e+06	-39039.1	1005.82	-29795.3	0.000000	0.000000	6.032749	0.029051	NaN	0.000000	0.001639	0.001744	28.0822	0.112292	0.001851	60.6532	40.0668	13.386	-0.016794	0.031195	-1.086218	-1.087546	0.029051	60.6532	-1.086577	-3.310192E+14	-8.776302E-17	NaN
761	1.000000	0.042537	7.3725e+06	-39039.1	1005.82	-29795.3	0.000000	0.000000	6.042760	-0.051575	NaN	0.000000	0.001643	0.001717	28.0826	0.110618	0.002065	53.579	53.0442	-167.275	-0.121956	0.041236	-1.076204	-1.077505	-0.051575	53.579	-1.075482	-2.348711E+14	2.195902E-16	NaN
761	1.000000	0.052508	7.3725e+06	-39039.1	1005.82	-29795.3	0.000000	0.000000	6.052732	-0.022882	NaN	0.000000	0.001634	0.001721	28.0811	0.033257	0.002009	16.5507	44.8625	12.4806	-0.014264	0.051172	-1.066233	-1.067569	-0.022882	16.5507	-1.065196	-1.708615E+14	1.339225E-16	NaN
761	1.000000	0.062519	7.3725e+06	-39039.1	1005.82	-29795.3	0.000000	0.000000	6.062744	-0.013419	NaN	0.000000	0.001692	0.001722	28.0812	0.071539	0.001967	36.3718	-143.538	-164.573	-0.018525	0.061269	-1.056221	-1.057472	-0.013419	36.3718	-1.055945	-1.283277E+14	1.045714E-16	NaN
761	1.000000	0.072562	7.3725e+06	-39039.1	1005.82	-29795.3	0.000000	0.000000	6.072787	-0.013007	NaN	0.000000	0.001661	0.001736	28.081	0.100824	0.002061	48.9186	12.8971	15.5399	-0.037274	0.071176	-1.046179	-1.047564	-0.013007	48.9186	-1.045979	-9.426747E+13	1.379779E-16	NaN
761	1.000000	0.082548	7.3725e+06	-39039.1	1005.82	-29795.3	0.000000	0.000000	6.082772	-0.054868	NaN	0.000000	0.001645	0.001703	28.0813	0.072777	0.002056	35.4026	43.2512	-164.754	-0.054498	0.081210	-1.036192	-1.037531	-0.054868	35.4026	-1.035030	-6.716281E+13	8.169389E-16	NaN
761	1.000000	0.092529	7.3725e+06	-39039.1	1005.82	-29795.3	0.000000	0.000000	6.092751	-0.088012	NaN	0.000000	0.001647	0.001670	28.081	0.010449	0.002110	4.952497	-79.6019	12.0305	-0.034801	0.091239	-1.026211	-1.027501	-0.088012	4.952497	-1.012883	-3.382051E+13	2.602311E-15	NaN
761	1.000000	0.102532	7.3725e+06	-39039.1	1005.82	-29795.3	0.000000	0.000000	6.102758	-0.003692	NaN	0.000000	0.001654	0.001714	28.081	0.022562	0.001925	11.7203	33.175	-164.699	-0.031155	0.101211	-1.016208	-1.017530	-0.003692	11.7203	-1.015972	-3.721777E+13	9.919916E-17	NaN
761	1.000000	0.112536	7.3725e+06	-39039.1	1005.82	-29795.3	0.000000	0.000000	6.112760	-0.028218	NaN	0.000000	0.001639	0.001712	28.0808	0.022816	0.001924	11.8566	97.8347	13.0371	-0.057347	0.111157	-1.006204	-1.007583	-0.028218	11.8566	-1.004420	-2.601758E+13	1.084581E-15	NaN
761	1.000000	0.122567	7.3725e+06	-39039.1	1005.82	-29795.3	0.000000	0.000000	6.122791	-0.030692	NaN	0.000000	0.001637	0.001723	28.081	0.032049	0.001879	17.0519	-50.8171	-169.074	-0.072730	0.121261	-0.996173	-0.997479	-0.030692	17.0519	-0.994823	-1.932271E+13	1.588366E-15	NaN
761	1.000000	0.132545	7.3725e+06	-39039.1	1005.82	-29795.3	0.000000	0.000000	6.132769	-0.032911	NaN	0.000000	0.001637	0.001732	28.081	0.061779	0.002111	29.2641	-134.952	11.5038	0.009865	0.131144	-0.986195	-0.987596	-0.032911	29.2641	-0.985352	-1.440472E+13	2.284733E-15	NaN
761	1.000000	0.142534	7.3725e+06	-39039.1	1005.82	-29795.3	0.000000	0.000000	6.142757	-0.078836	NaN	0.000000	0.001643	0.001710	28.081	0.085709	0.001945	44.0555	-134.795	-166.617	-0.126193	0.141211	-0.976206	-0.977529	-0.078836	44.0555	-0.974864	-1.040422E+13	7.577291E-15	NaN
761	1.000000	0.152582	7.3725e+06	-39039.1	1005.82	-29795.3	0.000000	0.000000	6.152804	-0.100618	NaN	0.000000	0.001650	0.001701	28.0808	0.070971	0.002056	34.5111	141.031	13.1244	-0.092780	0.151201	-0.966158	-0.967539	-0.100618	34.5111	-0.963972	-7.420105E+12	1.356015E-14	NaN
761	1.000000	0.162571	7.3725e+06	-39039.1	1005.82	-29795.3	0.000000	0.000000	6.162799	0.051195	NaN	0.000000	0.001630	0.001739	28.081	0.027794	0.002048	13.5731	-112.548	-162.628	-0.016408	0.161257	-0.956169	-0.957483	0.051195	13.5731	-0.958998	-6.358628E+12	-8.051295E-15	NaN
761	1.000000	0.172545	7.3725e+06	-39039.1	1005.82	-29795.3	0.000000	0.000000	6.172770	-0.021315	NaN	0.000000	0.001614	0.001704	28.0808	0.019586	0.002021	9.689742	-175.143	17.683	-0.072065	0.171186	-0.946196	-0.947554	-0.021315	9.689742	-0.944546	-4.059393E+12	5.250733E-15	NaN
761	1.000000	0.182567	7.3725e+06	-39039.1	1005.82	-29795.3	0.000000	0.000000	6.182791	-0.037734	NaN	0.000000	0.001583	0.001734	28.082	0.043670	0.001904	22.936	99.2781	-165.304	-0.061285	0.181263	-0.936173	-0.937478	-0.037734	22.936	-0.934940	-3.012020E+12	1.252766E-14	NaN
761	1.000000	0.192557	7.3725e+06	-39039.1	1005.82	-29795.3	0.000000	0.000000	6.192784	0.035566	NaN	0.000000	0.001611	0.001716	28.0823	0.042259	0.001885	22.4186	31.8287	11.5371	0.037226	0.191144	-0.926184	-0.927596	0.035566	22.4186	-0.927373	-2.380924E+12	-1.493793E-14	NaN
761	1.000000	0.202608	7.3725e+06	-39039.1	1005.82	-29795.3	0.000000	0.000000	6.202832	-0.045587	NaN	0.000000	0.001604	0.001751	28.0825	0.066519	0.002050	32.4554	-51.8344	-163.91	-0.018642	0.201282	-0.916132	-0.917458	-0.045587	32.4554	-0.915079	-1.624623E+12	2.806012E-14	NaN
761	1.000000	0.212571	7.3725e+06	-39039.1	1005.82	-29795.3	0.000000	0.000000	6.212796	0.003497	NaN	0.000000	0.001590	0.001703	28.0822	0.047914	0.002113	22.6727	-8.755935	13.1409	-0.027146	0.211207	-0.906170	-0.907533	0.003497	22.6727	-0.906286	-1.235917E+12	-2.829503E-15	NaN
761	1.000000	0.222585	7.3725e+06	-39039.1	1005.82	-29795.3	0.000000	0.000000	6.222807	-0.069814	NaN	0.000000	0.001614	0.001719	28.0825	0.014368	0.001953	7.357225	-72.6594	-163.988	-0.017110	0.221226	-0.896156	-0.897515	-0.069814	7.357225	-0.889039	-7.226445E+11	9.660858E-14	NaN
761	1.000000	0.232609	7.3725e+06	-39039.1	1005.82	-29795.3	0.000000	0.000000	6.232834	-0.002169	NaN	0.000000	0.001603	0.001699	28.0821	0.009339	0.001925	4.852502	81.7078	13.6226	-0.020866	0.231290	-0.886132	-0.887451	-0.002169	4.852502	-0.885796	-6.532591E+11	3.320269E-15	NaN
761	1.000000	0.242615	7.3725e+06	-39039.1	1005.82	-29795.3	0.000000	0.000000	6.242839	-0.038130	NaN	0.000000	0.001614	0.001714	28.0825	0.138652	0.001997	69.441	-139.046	-165.535	-0.048838	0.241293	-0.876125	-0.877448	-0.038130	69.441	-0.875714	-4.772396E+11	7.989667E-14	NaN
761	1.000000	0.252618	7.3725e+06	-39039.1	1005.82	-29795.3	0.000000	0.000000	6.252841	-0.051948	NaN	0.000000	0.001572	0.001686	28.0824	0.093302	0.001894	49.2682	-83.5191	12.7113	-0.019535	0.251257	-0.866123	-0.867484	-0.051948	49.2682	-0.865332	-3.453682E+11	1.504133E-13	NaN
761	1.000000	0.262589	7.3725e+06	-39039.1	1005.82	-29795.3	0.000000	0.000000	6.262811	-0.072079	NaN	0.000000	0.001629	0.001619	28.0824	0.046107	0.001961	23.5077	-26.6601	-166.288	-0.103377	0.261285	-0.856152	-0.857456	-0.072079	23.5077	-0.853852	-2.414867E+11	2.984800E-13	NaN
761	1.000000	0.272586	7.3725e+06	-39039.1	1005.82	-29795.3	0.000000	0.000000	6.272808	-0.096649	NaN	0.000000	0.001603	0.001663	28.0824	0.113056	0.002068	54.6708	166.475	14.0034	-0.113987	0.271282	-0.846154	-0.847459	-0.096649	54.6708	-0.844829	-1.822639E+11	5.302674E-13	NaN
761	1.000000	0.282618	7.3725e+06	-39039.1	1005.82	-29795.3	0.000000	0.000000	6.282844	0.000248	NaN	0.000000	0.001608	0.001650	28.0822	0.036352	0.001936	18.7746	-152.831	-167.987	-0.073614	0.281290	-0.836122	-0.837450	0.000248	18.7746	-0.836132	-1.389595E+11	-1.783251E-15	NaN
761	1.000000	0.292601	7.3725e+06	-39039.1	1005.82	-29795.3	0.000000	0.000000	6.292825	-0.016998	NaN	0.000000	0.001595	0.001667	28.0823	0.046170	0.002004	23.0368	-73.3157	12.249	0.003517	0.291251	-0.826140	-0.827489	-0.016998	23.0368	-0.825587	-9.999044E+10	1.699977E-13	NaN
761	1.000000	0.302619	7.3725e+06	-39039.1	1005.82	-29795.3	0.000000	0.000000	6.302841	-0.083921	NaN	0.000000	0.001646	0.001655	28.0825	0.056297	0.001960	28.7268	146.854	-161.204	-0.133571	0.301293	-0.816122	-0.817448	-0.083921	28.7268	-0.813931	-6.948637E+10	1.207737E-12	NaN
761	1.000000	0.312642	7.3725e+06	-39039.1	1005.82	-29795.3	0.000000	0.000000	6.312868	0.032209	NaN	0.000000	0.001668	0.001697	28.0825	0.043953	0.002021	21.7494	-154.626	10.6857	0.055130	0.311266	-0.806099	-0.807475	0.032209	21.7494	-0.807210	-5.632621E+10	-5.718329E-13	NaN
761	1.000000	0.322669	7.3725e+06	-39039.1	1005.82	-29795.3	0.000000	0.000000	6.322896	0.030483	NaN	0.000000	0.001634	0.001732	28.0811	0.064128	0.001941	33.04	-148.049	-166.701	0.007540	0.321384	-0.796071	-0.797357	0.030483	33.04	-0.796763	-4.063713E+10	-7.501349E-13	NaN
761	1.000000	0.332639	7.3725e+06	-39039.1	1005.82	-29795.3	0.000000	0.000000	6.332865	0.016148	NaN	0.000000	0.001639	0.001712	28.0814	0.097798	0.002067	47.3202	-13.8803	13.8847	-0.011167	0.331296	-0.786101	-0.787445	0.016148	47.3202	-0.786357	-2.934993E+10	-5.501833E-13	NaN
761	1.000000	0.342646	7.3725e+06	-39039.1	1005.82	-29795.3	0.000000	0.000000	6.342870	-0.039525	NaN	0.000000	0.001645	0.001716	28.0813	0.052282	0.002038	25.6544	-63.286	-165.488	-0.038444	0.341332	-0.776094	-0.777409	-0.039525	25.6544	-0.774939	-2.053258E+10	1.924975E-12	NaN
761	1.000000	0.352680	7.3725e+06	-39039.1	1005.82	-29795.3	0.000000	0.000000	6.352904	-0.030476	NaN	0.000000	0.001599	0.001700	28.0812	0.016357	0.002122	7.707847	14.9074	15.1137	-0.028575	0.351251	-0.766061	-0.767490	-0.030476	7.707847	-0.763095	-1.417120E+10	2.150576E-12	NaN
761	1.000000	0.362646	7.3725e+06	-39039.1	1005.82	-29795.3	0.000000	0.000000	6.362869	-0.059881	NaN	0.000000	0.001606	0.001719	28.0812	0.060159	0.001843	32.6406	134.03	-167.568	-0.020729	0.361394	-0.756095	-0.757346	-0.059881	32.6406	-0.754719	-1.090038E+10	5.493508E-12	NaN
761	1.000000	0.372654	7.3725e+06	-39039.1	1005.82	-29795.3	0.000000	0.000000	6.372875	-0.108500	NaN	0.000000	0.001615	0.001686	28.0816	0.133876	0.002033	65.8559	43.5935	12.8575	-0.038862	0.371260	-0.746086	-0.747481	-0.108500	65.8559	-0.744851	-8.000502E+9	1.356162E-11	NaN
761	1.000000	0.382668	7.3725e+06	-39039.1	1005.82	-29795.3	0.000000	0.000000	6.382891	-0.060320	NaN	0.000000	0.001647	0.001723	28.0814	0.155819	0.002072	75.2039	70.0558	-166.553	-0.008688	0.381375	-0.736073	-0.737366	-0.060320	75.2039	-0.735471	-5.961549E+9	1.011823E-11	NaN
761	1.000000	0.392645	7.3725e+06	-39039.1	1005.82	-29795.3	0.000000	0.000000	6.392873	0.077974	NaN	0.000000	0.001621	0.001719	28.0818	0.070819	0.002060	34.3821	-52.2985	16.3232	-0.007231	0.391316	-0.726096	-0.727425	0.077974	34.3821	-0.727797	-4.685738E+9	-1.664065E-11	NaN
761	1.000000	0.402663	7.3725e+06	-39039.1	1005.82	-29795.3	0.000000	0.000000	6.402885	-0.093183	NaN	0.000000	0.001659	0.001698	28.0811	0.035216	0.001810	19.4599	-75.8532	-166.555	-0.104135	0.401365	-0.716077	-0.717376	-0.093183	19.4599	-0.712486	-2.897150E+9	3.216384E-11	NaN
761	1.000000	0.412646	7.3725e+06	-39039.1	1005.82	-29795.3	0.000000	0.000000	6.412871	-0.010820	NaN	0.000000	0.001617	0.001720	28.0817	0.047785	0.001979	24.1478	-143.184	12.6189	-0.060314	0.411313	-0.706095	-0.707428	-0.010820	24.1478	-0.705759	-2.345082E+9	4.614082E-12	NaN
761	1.000000	0.422666	7.3725e+06	-39039.1	1005.82	-29795.3	0.000000	0.000000	6.422890	-0.028600	NaN	0.000000	0.001630	0.001648	28.0818	0.065515	0.001988	32.9602	-133.501	-167.377	0.039105	0.421361	-0.696074	-0.697379	-0.028600	32.9602	-0.695424	-1.694431E+9	1.687875E-11	NaN
761	1.000000	0.432671	7.3725e+06	-39039.1	1005.82	-29795.3	0.000000	0.000000	6.432897	0.014743	NaN	0.000000	0.001626	0.001687	28.0816	0.078599	0.001853	42.4271	20.9964	10.5095	0.013263	0.431375	-0.686070	-0.687366	0.014743	42.4271	-0.686330	-1.272799E+9	-1.158351E-11	NaN
761	1.000000	0.442691	7.3725e+06	-39039.1	1005.82	-29795.3	0.000000	0.000000	6.442914	-0.069551	NaN	0.000000	0.001604	0.001623	28.0811	0.127183	0.002020	62.9529	177.056	-166.032	-0.041441	0.441414	-0.676049	-0.677327	-0.069551	62.9529	-0.675221	-8.970815E+8	7.753082E-11	NaN
761	1.000000	0.452693	7.3725e+06	-39039.1	1005.82	-29795.3	0.000000	0.000000	6.452917	-0.035403	NaN	0.000000	0.001594	0.001686	28.0816	0.050480	0.002110	23.9283	61.779	15.2317	-0.094531	0.451312	-0.666048	-0.667429	-0.035403	23.9283	-0.664938	-6.487814E+8	5.456889E-11	NaN
761	1.000000	0.462697	7.3725e+06	-39039.1	1005.82	-29795.3	0.000000	0.000000	6.462921	-0.029641	NaN	0.000000	0.001601	0.001666	28.0825	0.082266	0.001938	42.4552	-118.686	-165.881	-0.014547	0.461415	-0.656044	-0.657325	-0.029641	42.4552	-0.655520	-4.820492E+8	6.148928E-11	NaN
761	1.000000	0.472713	7.3725e+06	-39039.1	1005.82	-29795.3	0.000000	0.000000	6.472940	0.038466	NaN	0.000000	0.001609	0.001672	28.0825	0.117502	0.002058	57.1024	170.596	13.0359	0.050853	0.471374	-0.646028	-0.647367	0.038466	57.1024	-0.646533	-3.629978E+8	-1.059670E-10	NaN
761	1.000000	0.482719	7.3725e+06	-39039.1	1005.82	-29795.3	0.000000	0.000000	6.482944	-0.017212	NaN	0.000000	0.001613	0.001684	28.0824	0.101025	0.001972	51.2219	-178.537	-164.091	-0.071612	0.481387	-0.636022	-0.637354	-0.017212	51.2219	-0.635770	-2.583665E+8	6.661909E-11	NaN
761	1.000000	0.492727	7.3725e+06	-39039.1	1005.82	-29795.3	0.000000	0.000000	6.492951	-0.024971	NaN	0.000000	0.001595	0.001661	28.0826	0.119338	0.002019	59.1173	3.349449	15.2277	-0.039229	0.491320	-0.626014	-0.627421	-0.024971	59.1173	-0.625697	-1.878968E+8	1.328958E-10	NaN
761	1.000000	0.502705	7.3725e+06	-39039.1	1005.82	-29795.3	0.000000	0.000000	6.502931	0.013255	NaN	0.000000	0.001579	0.001658	28.0822	0.061893	0.002097	29.5101	16.619	-164.446	0.028486	0.501361	-0.616035	-0.617379	0.013255	29.5101	-0.616372	-1.398815E+8	-9.475617E-11	NaN
761	1.000000	0.512708	7.3725e+06	-39039.1	1005.82	-29795.3	0.000000	0.000000	6.512933	-0.008372	NaN	0.000000	0.001619	0.001642	28.0825	0.012539	0.002029	6.179063	-151.784	11.7414	-0.054562	0.511398	-0.606032	-0.607343	-0.008372	6.179063	-0.605016	-9.761724E+7	8.575933E-11	NaN
761	1.000000	0.522744	7.3725e+06	-39039.1	1005.82	-29795.3	0.000000	0.000000	6.522967	-0.072870	NaN	0.000000	0.001611	0.001683	28.0823	0.047170	0.001995	23.646	-164.037	-169.272	-0.096887	0.521425	-0.595996	-0.597316	-0.072870	23.646	-0.593685	-6.814936E+7	1.069263E-9	NaN
761	1.000000	0.532700	7.3725e+06	-39039.1	1005.82	-29795.3	0.000000	0.000000	6.532926	0.011881	NaN	0.000000	0.001606	0.001662	28.0829	0.037959	0.002013	18.858	175.927	15.4418	0.022558	0.531375	-0.586040	-0.587366	0.011881	18.858	-0.586513	-5.427264E+7	-2.189056E-10	NaN
761	1.000000	0.542734	7.3725e+06	-39039.1	1005.82	-29795.3	0.000000	0.000000	6.542963	0.071381	NaN	0.000000	0.001601	0.001654	28.0824	0.031390	0.002016	15.5735	-109.613	-164.846	0.065501	0.541422	-0.576006	-0.577318	0.071381	15.5735	-0.579444	-4.335582E+7	-1.646389E-9	NaN
761	1.000000	0.552738	7.3725e+06	-39039.1	1005.82	-29795.3	0.000000	0.000000	6.552963	-0.010424	NaN	0.000000	0.001606	0.001639	28.0827	0.087412	0.001955	44.7148	-36.1937	16.2798	0.069620	0.551368	-0.566003	-0.567373	-0.010424	44.7148	-0.565828	-2.811697E+7	3.707439E-10	NaN
761	1.000000	0.562724	7.3725e+06	-39039.1	1005.82	-29795.3	0.000000	0.000000	6.562950	0.000773	NaN	0.000000	0.001514	0.001709	28.0827	0.021573	0.002099	10.2774	78.4487	-165.825	-0.022209	0.561465	-0.556016	-0.557276	0.000773	10.2774	-0.556073	-2.060797E+7	-3.753336E-11	NaN
761	1.000000	0.572737	7.3725e+06	-39039.1	1005.82	-29795.3	0.000000	0.000000	6.572962	-0.027259	NaN	0.000000	0.001578	0.001695	28.0827	0.081108	0.001984	40.8767	-44.4886	14.694	0.017558	0.571366	-0.546003	-0.547375	-0.027259	40.8767	-0.545503	-1.471136E+7	1.852915E-9	NaN
761	1.000000	0.582731	7.3725e+06	-39039.1	1005.82	-29795.3	0.000000	0.000000	6.582955	-0.046152	NaN	0.000000	0.001597	0.001666	28.0824	0.067762	0.002014	33.6494	-32.6194	-167.213	-0.059529	0.581447	-0.536009	-0.537294	-0.046152	33.6494	-0.534981	-1.051290E+7	4.390081E-9	NaN
761	1.000000	0.592707	7.3725e+06	-39039.1	1005.82	-29795.3	0.000000	0.000000	6.592929	-0.085560	NaN	0.000000	0.001595	0.001671	28.0814	0.023040	0.001973	11.675	64.1533	13.7163	-0.006355	0.591352	-0.526033	-0.527388	-0.085560	11.675	-0.520537	-6.62314e+06	1.291831E-8	NaN
761	1.000000	0.602739	7.3725e+06	-39039.1	1005.82	-29795.3	0.000000	0.000000	6.602966	0.022861	NaN	0.000000	0.001574	0.001659	28.0818	0.013096	0.001916	6.835646	-98.7709	-166.16	-0.045416	0.601452	-0.516001	-0.517289	0.022861	6.835646	-0.518510	-6.2068e+06	-3.683246E-9	NaN
761	1.000000	0.612740	7.3725e+06	-39039.1	1005.82	-29795.3	0.000000	0.000000	6.612964	-0.027015	NaN	0.000000	0.001563	0.001679	28.0814	0.060227	0.002132	28.2483	90.452	16.7901	-0.013060	0.611460	-0.506001	-0.507280	-0.027015	28.2483	-0.505284	-4.06161e+06	6.651240E-9	NaN
761	1.000000	0.622760	7.3725e+06	-39039.1	1005.82	-29795.3	0.000000	0.000000	6.622982	-0.101044	NaN	0.000000	0.001594	0.001694	28.0817	0.057992	0.002001	28.9831	9.727492	-164.662	-0.037281	0.621466	-0.495980	-0.497275	-0.101044	28.9831	-0.493365	-2.76955e+06	3.648407E-8	NaN
761	1.000000	0.632780	7.3725e+06	-39039.1	1005.82	-29795.3	0.000000	0.000000	6.633008	0.053971	NaN	0.000000	0.001578	0.001706	28.0815	0.125941	0.001970	63.9454	150.841	10.0354	0.021014	0.631417	-0.485960	-0.487324	0.053971	63.9454	-0.486593	-2.22728e+06	-2.423198E-8	NaN
761	1.000000	0.642791	7.3725e+06	-39039.1	1005.82	-29795.3	0.000000	0.000000	6.643014	-0.065231	NaN	0.000000	0.001610	0.001708	28.0817	0.041815	0.002031	20.5883	173.524	-166.444	-0.126711	0.641460	-0.475949	-0.477281	-0.065231	20.5883	-0.473573	-1.46387e+06	4.456023E-8	NaN
761	1.000000	0.652795	7.3725e+06	-39039.1	1005.82	-29795.3	0.000000	0.000000	6.653020	-0.015650	NaN	0.000000	0.001621	0.001641	28.0815	0.041873	0.002000	20.9412	5.821722	12.312	0.005182	0.651384	-0.465946	-0.467357	-0.015650	20.9412	-0.465385	-1.12371e+06	1.392723E-8	NaN
761	1.000000	0.662746	7.3725e+06	-39039.1	1005.82	-29795.3	0.000000	0.000000	6.662969	-0.062299	NaN	0.000000	0.001636	0.001717	28.0816	0.035919	0.002034	17.6615	-36.5135	-166.699	-0.096963	0.661453	-0.455994	-0.457288	-0.062299	17.6615	-0.453349	-761180	8.184530E-8	NaN
761	1.000000	0.672811	7.3725e+06	-39039.1	1005.82	-29795.3	0.000000	0.000000	6.673035	-0.052848	NaN	0.000000	0.001671	0.001686	28.0815	0.127103	0.001968	64.5956	95.1539	15.4613	0.048251	0.671394	-0.445929	-0.447347	-0.052848	64.5956	-0.445316	-586602	9.009179E-8	NaN
761	1.000000	0.682804	7.3725e+06	-39039.1	1005.82	-29795.3	0.000000	0.000000	6.683032	0.069826	NaN	0.000000	0.001654	0.001699	28.0815	0.018305	0.002105	8.694047	119.824	-165.444	0.020748	0.681493	-0.435937	-0.437248	0.069826	8.694047	-0.441960	-526048	-1.327373E-7	NaN
761	1.000000	0.692785	7.3725e+06	-39039.1	1005.82	-29795.3	0.000000	0.000000	6.693011	-0.007048	NaN	0.000000	0.001629	0.001668	28.0814	0.054482	0.001963	27.7535	46.1437	13.1921	0.030777	0.691403	-0.425955	-0.427337	-0.007048	27.7535	-0.425765	-310536	2.269524E-8	NaN
761	1.000000	0.702772	7.3725e+06	-39039.1	1005.82	-29795.3	0.000000	0.000000	6.702994	-0.083018	NaN	0.000000	0.001642	0.001706	28.0814	0.076391	0.002004	38.1239	96.1461	-167.24	-0.039226	0.701475	-0.415969	-0.417265	-0.083018	38.1239	-0.414336	-213807	3.882846E-7	NaN
761	1.000000	0.712825	7.3725e+06	-39039.1	1005.82	-29795.3	0.000000	0.000000	6.713056	0.127482	NaN	0.000000	0.001643	0.001693	28.0817	0.028083	0.001991	14.1024	82.4583	12.7106	0.013461	0.711420	-0.405915	-0.407320	0.127482	14.1024	-0.412695	-202634	-6.291232E-7	NaN
761	1.000000	0.722799	7.3725e+06	-39039.1	1005.82	-29795.3	0.000000	0.000000	6.723022	-0.057093	NaN	0.000000	0.001664	0.001698	28.0815	0.161755	0.001980	81.6982	-178.838	-169.659	-0.048028	0.721511	-0.395942	-0.397229	-0.057093	81.6982	-0.395418	-114974	4.965692E-7	NaN
761	1.000000	0.732806	7.3725e+06	-39039.1	1005.82	-29795.3	0.000000	0.000000	6.733031	-0.015271	NaN	0.000000	0.001659	0.001698	28.0829	0.055091	0.002048	26.8995	-60.1826	11.8991	-0.072431	0.731424	-0.385935	-0.387317	-0.015271	26.8995	-0.385509	-82961.3	1.840743E-7	NaN
761	1.000000	0.742806	7.3725e+06	-39039.1	1005.82	-29795.3	0.000000	0.000000	6.743032	-0.000920	NaN	0.000000	0.001699	0.001661	28.0829	0.015983	0.001960	8.154697	-146.826	-164.736	-0.086758	0.741450	-0.375934	-0.377290	-0.000920	8.154697	-0.375850	-60295.7	1.525290E-8	NaN
761	1.000000	0.752796	7.3725e+06	-39039.1	1005.82	-29795.3	0.000000	0.000000	6.753021	-0.005707	NaN	0.000000	0.001668	0.001708	28.0826	0.055393	0.002056	26.9486	-102.309	15.1593	-0.051257	0.751435	-0.365945	-0.367306	-0.005707	26.9486	-0.365786	-43190.9	1.321453E-7	NaN
761	1.000000	0.762840	7.3725e+06	-39039.1	1005.82	-29795.3	0.000000	0.000000	6.763064	-0.032457	NaN	0.000000	0.001647	0.001648	28.0829	0.103037	0.002100	49.0553	-141.157	-165.32	0.051378	0.761483	-0.355901	-0.357258	-0.032457	49.0553	-0.355405	-30574.5	1.061577E-6	NaN
761	1.000000	0.772821	7.3725e+06	-39039.1	1005.82	-29795.3	0.000000	0.000000	6.773042	-0.104139	NaN	0.000000	0.001673	0.001699	28.0827	0.041079	0.001983	20.7134	-149.189	17.1396	-0.016103	0.771444	-0.345920	-0.347296	-0.104139	20.7134	-0.342149	-19627.6	5.305739E-6	NaN
761	1.000000	0.782835	7.3725e+06	-39039.1	1005.82	-29795.3	0.000000	0.000000	6.783056	-0.118384	NaN	0.000000	0.001614	0.001691	28.0831	0.015572	0.001929	8.071783	0.499051	-166.006	-0.075075	0.781576	-0.335905	-0.337164	-0.118384	8.071783	-0.324905	-10983.6	1.077819E-5	NaN
761	1.000000	0.792827	7.3725e+06	-39039.1	1005.82	-29795.3	0.000000	0.000000	6.793054	0.032716	NaN	0.000000	0.001632	0.001661	28.0829	0.142944	0.002066	69.1946	105.769	14.9535	-0.030993	0.791474	-0.325913	-0.327267	0.032716	69.1946	-0.326268	-11501.2	-2.844591E-6	NaN
761	1.000000	0.802819	7.3725e+06	-39039.1	1005.82	-29795.3	0.000000	0.000000	6.803043	-0.042377	NaN	0.000000	0.001647	0.001688	28.0829	0.065643	0.001858	35.338	53.5134	-165.567	-0.017346	0.801571	-0.315921	-0.317170	-0.042377	35.338	-0.315022	-7857.19	5.393344E-6	NaN
761	1.000000	0.812848	7.3725e+06	-39039.1	1005.82	-29795.3	0.000000	0.000000	6.813073	-0.006554	NaN	0.000000	0.001704	0.001649	28.0827	0.022910	0.001851	12.3759	-160.266	17.7726	-0.008988	0.811489	-0.305892	-0.307252	-0.006554	12.3759	-0.305495	-5679.41	1.153984E-6	NaN
761	1.000000	0.822837	7.3725e+06	-39039.1	1005.82	-29795.3	0.000000	0.000000	6.823066	0.077468	NaN	0.000000	0.001648	0.001710	28.083	0.051840	0.002064	25.1195	149.612	-169.554	0.032328	0.821588	-0.295904	-0.297153	0.077468	25.1195	-0.298217	-4426.64	-1.750053E-5	NaN
761	1.000000	0.832825	7.3725e+06	-39039.1	1005.82	-29795.3	0.000000	0.000000	6.833052	0.051274	NaN	0.000000	0.001642	0.001686	28.0827	0.057058	0.002233	25.5568	-145.284	13.4288	-0.002509	0.831524	-0.285916	-0.287216	0.051274	25.5568	-0.287420	-3052.27	-1.679862E-5	NaN
761	1.000000	0.842856	7.3725e+06	-39039.1	1005.82	-29795.3	0.000000	0.000000	6.843084	0.055304	NaN	0.000000	0.001611	0.001648	28.0829	0.099039	0.001986	49.8648	148.447	-166.536	-0.055125	0.841530	-0.275885	-0.277211	0.055304	49.8648	-0.276716	-2105.59	-2.626528E-5	NaN
761	1.000000	0.852837	7.3725e+06	-39039.1	1005.82	-29795.3	0.000000	0.000000	6.853062	-0.020894	NaN	0.000000	0.001608	0.001652	28.0827	0.062647	0.001968	31.8391	72.7674	13.9847	0.112986	0.851520	-0.265903	-0.267220	-0.020894	31.8391	-0.265411	-1417.95	1.473564E-5	NaN
761	1.000000	0.862834	7.3725e+06	-39039.1	1005.82	-29795.3	0.000000	0.000000	6.863060	-0.011048	NaN	0.000000	0.001633	0.001676	28.0825	0.053823	0.001979	27.2003	34.8898	-165.632	0.032058	0.861528	-0.255906	-0.257213	-0.011048	27.2003	-0.255601	-1003.16	1.101270E-5	NaN
761	1.000000	0.872858	7.3725e+06	-39039.1	1005.82	-29795.3	0.000000	0.000000	6.873079	-0.087927	NaN	0.000000	0.001648	0.001675	28.0815	0.039538	0.001942	20.3548	-141.587	11.9354	-0.099890	0.871495	-0.245883	-0.247245	-0.087927	20.3548	-0.242643	-632.096	0.000139	NaN
761	1.000000	0.882858	7.3725e+06	-39039.1	1005.82	-29795.3	0.000000	0.000000	6.883082	-0.027899	NaN	0.000000	0.001631	0.001627	28.0814	0.042316	0.001994	21.2236	-117.016	-164.317	-0.010248	0.881593	-0.235883	-0.237148	-0.027899	21.2236	-0.234897	-478.218	5.833864E-5	NaN
761	1.000000	0.892907	7.3725e+06	-39039.1	1005.82	-29795.3	0.000000	0.000000	6.893128	-0.086903	NaN	0.000000	0.001632	0.001637	28.0818	0.065018	0.001942	33.4717	-105.324	14.4612	-0.055219	0.891534	-0.225834	-0.227207	-0.086903	33.4717	-0.223887	-320.363	0.000271	NaN
761	1.000000	0.902868	7.3725e+06	-39039.1	1005.82	-29795.3	0.000000	0.000000	6.903091	-0.080882	NaN	0.000000	0.001621	0.001674	28.0811	0.057670	0.001967	29.3171	-0.979533	-167.691	-0.133394	0.901546	-0.215872	-0.217195	-0.080882	29.3171	-0.213803	-220.925	0.000366	NaN
761	1.000000	0.912898	7.3725e+06	-39039.1	1005.82	-29795.3	0.000000	0.000000	6.913122	-0.039836	NaN	0.000000	0.001637	0.001687	28.0816	0.030853	0.002011	15.3429	114.908	12.4563	-0.043367	0.911550	-0.205842	-0.207191	-0.039836	15.3429	-0.203895	-152.588	0.000261	NaN
761	1.000000	0.922893	7.3725e+06	-39039.1	1005.82	-29795.3	0.000000	0.000000	6.923119	0.019936	NaN	0.000000	0.001619	0.001690	28.0813	0.025297	0.001869	13.535	165.891	-162.616	0.041726	0.921539	-0.195848	-0.197202	0.019936	13.535	-0.196952	-117.353	-0.000170	NaN
761	1.000000	0.932891	7.3725e+06	-39039.1	1005.82	-29795.3	0.000000	0.000000	6.933116	-0.015326	NaN	0.000000	0.001591	0.001673	28.0819	0.040718	0.001976	20.6062	-149.247	11.8496	0.029709	0.931534	-0.185849	-0.187206	-0.015326	20.6062	-0.185292	-74.9974	0.000204	NaN
761	1.000000	0.942893	7.3725e+06	-39039.1	1005.82	-29795.3	0.000000	0.000000	6.943118	-0.027049	NaN	0.000000	0.001636	0.001744	28.0812	0.020680	0.001917	10.7872	-90.3929	-164.971	-0.063670	0.941582	-0.175847	-0.177158	-0.027049	10.7872	-0.173967	-48.1066	0.000562	NaN
761	1.000000	0.952893	7.3725e+06	-39039.1	1005.82	-29795.3	0.000000	0.000000	6.953119	0.003854	NaN	0.000000	0.001611	0.001754	28.0816	0.143960	0.002045	70.3948	-77.7214	12.3927	0.047557	0.951533	-0.165847	-0.167207	0.003854	70.3948	-0.165888	-34.8246	-0.000111	NaN
761	1.000000	0.962901	7.3725e+06	-39039.1	1005.82	-29795.3	0.000000	0.000000	6.963125	-0.020960	NaN	0.000000	0.001631	0.001730	28.0816	0.055243	0.002008	27.516	22.3362	-164.965	-0.010244	0.961579	-0.155840	-0.157161	-0.020960	27.516	-0.155269	-22.5639	0.000929	NaN
761	1.000000	0.972926	7.3725e+06	-39039.1	1005.82	-29795.3	0.000000	0.000000	6.973150	-0.048689	NaN	0.000000	0.001681	0.001742	28.0815	0.071820	0.001998	35.9458	135.996	13.5359	-0.017082	0.971528	-0.145814	-0.147213	-0.048689	35.9458	-0.144798	-14.5356	0.003350	NaN
761	1.000000	0.982877	7.3725e+06	-39039.1	1005.82	-29795.3	0.000000	0.000000	6.983103	0.006287	NaN	0.000000	0.001705	0.001752	28.0814	0.067127	0.002015	33.3081	160.961	-159.817	-0.073122	0.981605	-0.135863	-0.137136	0.006287	33.3081	-0.136005	-9.941227	-0.000632	NaN
761	1.000000	0.992938	7.3725e+06	-39039.1	1005.82	-29795.3	0.000000	0.000000	6.993162	-0.054735	NaN	0.000000	0.001669	0.001765	28.0814	0.052904	0.002010	26.3249	-87.0717	14.3894	-0.084629	0.991534	-0.125802	-0.127206	-0.054735	26.3249	-0.124243	-5.874702	0.009317	NaN
761	1.000000	1.002918	7.3725e+06	-39039.1	1005.82	-29795.3	0.000000	0.000000	7.003144	0.023446	NaN	0.000000	0.001648	0.001788	28.0829	0.022909	0.001907	12.0128	45.5437	-166.988	0.036099	1.001620	-0.115823	-0.117120	0.023446	12.0128	-0.117286	-4.256055	-0.005509	NaN
761	1.000000	1.012900	7.3725e+06	-39039.1	1005.82	-29795.3	0.000000	0.000000	7.013124	-0.036041	NaN	0.000000	0.001676	0.001776	28.0828	0.093732	0.001938	48.3779	147.762	13.0217	-0.000142	1.011590	-0.105841	-0.107151	-0.036041	48.3779	-0.105282	-2.383736	0.015119	NaN
761	1.000000	1.022929	7.3725e+06	-39039.1	1005.82	-29795.3	0.000000	0.000000	7.023153	-0.039726	NaN	0.000000	0.001739	0.001754	28.0826	0.054009	0.001939	27.8562	-26.4676	-168.2	0.016442	1.021608	-0.095811	-0.097133	-0.039726	27.8562	-0.094742	-1.391630	0.028546	NaN
761	1.000000	1.032937	7.3725e+06	-39039.1	1005.82	-29795.3	0.000000	0.000000	7.033163	-0.000254	NaN	0.000000	0.001750	0.001750	28.0828	0.105859	0.002022	52.3555	-119.939	11.0697	-0.043811	1.031556	-0.085803	-0.087185	-0.000254	52.3555	-0.085799	-0.858972	0.000295	NaN
761	1.000000	1.042930	7.3725e+06	-39039.1	1005.82	-29795.3	0.000000	0.000000	7.043159	0.080686	NaN	0.000000	0.001673	0.001726	28.0828	0.015055	0.001946	7.735954	59.2665	-168.182	0.044523	1.041618	-0.075810	-0.077123	0.080686	7.735954	-0.083633	-0.761097	-0.106013	NaN
761	1.000000	1.052934	7.3725e+06	-39039.1	1005.82	-29795.3	0.000000	0.000000	7.053178	0.446859	NaN	0.000000	0.001751	0.001746	28.0829	0.650818	0.001908	341.149	4.420250	15.0639	0.247264	1.051586	-0.065806	-0.067154	0.446859	341.149	-0.066789	-0.279181	-1.600608	NaN
761	1.000000	1.062932	7.3725e+06	-39039.1	1005.82	-29795.3	0.000000	0.000000	7.063294	3.308898	NaN	0.000000	0.001710	0.001765	28.0826	1.450835	0.002050	707.714	17.0236	-169.291	3.275941	1.061682	-0.055808	-0.057058	3.308898	707.714	-0.059315	-0.172110	-19.2255	NaN
761	1.000000	1.072923	7.3725e+06	-39039.1	1005.82	-29795.3	0.000000	0.000000	7.073277	3.112462	NaN	0.000000	0.001697	0.001724	28.0829	1.410558	0.002004	703.831	14.3507	12.2401	2.954792	1.071569	-0.045817	-0.047172	3.112462	703.831	-0.049134	-0.085902	-36.2325	NaN
761	1.000000	1.082931	7.3725e+06	-39039.1	1005.82	-29795.3	0.000000	0.000000	7.083183	0.651873	NaN	0.000000	0.001652	0.001693	28.0829	0.751490	0.001956	384.137	21.9038	-167.075	0.621065	1.081645	-0.035810	-0.037095	0.651873	384.137	-0.037083	-0.036926	-17.6533	NaN
761	1.000000	1.092934	7.3725e+06	-39039.1	1005.82	-29795.3	0.000000	0.000000	7.093188	0.698994	NaN	0.000000	0.001659	0.001725	28.0829	0.771868	0.001978	390.269	22.267	14.0096	0.641149	1.091634	-0.025807	-0.027107	0.698994	390.269	-0.027150	-0.019232	-36.3449	NaN
761	1.000000	1.102943	7.3725e+06	-39039.1	1005.82	-29795.3	0.000000	0.000000	7.103211	1.036244	NaN	0.000000	0.001654	0.001743	28.0828	0.948476	0.001994	475.782	16.0662	-165.622	0.864820	1.101686	-0.015798	-0.017055	1.036244	475.782	-0.017431	-0.010788	-96.0526	NaN
761	1.000000	1.112932	7.3725e+06	-39039.1	1005.82	-29795.3	0.000000	0.000000	7.113214	1.367725	NaN	0.000000	0.001655	0.001729	28.0831	2.076815	0.001849	1123.16	23.4777	10.4362	0.872117	1.111686	-0.005808	-0.007054	1.367725	1123.16	-0.006722	-0.004474	-305.729	NaN
761	2.000000	1.120653	7.3725e+06	-39039.1	1005.82	-29795.3	0.000000	0.000000	7.121235	8.673202	NaN	0.000000	0.001645	0.001700	28.0829	9.799580	0.001851	5293.46	13.5657	-174.169	8.734772	1.120323	0.001913	0.001582	8.673202	5293.46	0.000684	0.000518	16746.8	212515
761	2.000000	1.123085	7.3725e+06	-39039.1	1005.82	-29795.3	0.000000	0.000000	7.123872	13.6735	NaN	0.000000	0.001642	0.001719	28.083	12.5722	0.001709	7357.73	11.11	3.529363	12.1568	1.122732	0.004344	0.003992	13.6735	7357.73	0.002951	0.002338	5847.36	139013
761	2.000000	1.125516	7.3725e+06	-39039.1	1005.82	-29795.3	0.000000	0.000000	7.126660	22.3555	NaN	0.000000	0.001592	0.001750	28.0816	16.3839	0.001655	9898.34	6.864910	-177.232	21.1311	1.125225	0.006776	0.006484	22.3555	9898.34	0.005082	0.004208	5312.29	139407
761	2.000000	1.128011	7.3725e+06	-39039.1	1005.82	-29795.3	0.000000	0.000000	7.129713	35.9352	NaN	0.000000	0.001652	0.001730	28.082	19.9973	0.001638	12206.1	3.919294	3.727888	33.7786	1.127628	0.009271	0.008888	35.9352	12206.1	0.007063	0.006096	5895.02	142834
761	2.000000	1.130529	7.3725e+06	-39039.1	1005.82	-29795.3	0.000000	0.000000	7.132872	51.5391	NaN	0.000000	0.001666	0.001751	28.0816	23.6862	0.001790	13235.7	2.315409	-175.171	50.394	1.130178	0.011788	0.011438	51.5391	13235.7	0.008868	0.007950	6482.73	135622
761	2.000000	1.133005	7.3725e+06	-39039.1	1005.82	-29795.3	0.000000	0.000000	7.136027	68.0588	NaN	0.000000	0.001690	0.001741	28.0817	26.1386	0.001815	14403.1	8.485087	-2.472269	65.3627	1.132660	0.014265	0.013919	68.0588	14403.1	0.010721	0.009993	6810.47	131636
761	2.000000	1.135484	7.3725e+06	-39039.1	1005.82	-29795.3	0.000000	0.000000	7.139141	83.5228	NaN	0.000000	0.001653	0.001749	28.0818	26.8525	0.001736	15468.2	4.374032	-179.37	81.4874	1.135170	0.016743	0.016429	83.5228	15468.2	0.012693	0.012331	6773.27	127265
761	2.000000	1.137948	7.3725e+06	-39039.1	1005.82	-29795.3	0.000000	0.000000	7.142261	99.4599	NaN	0.000000	0.001690	0.001757	28.0822	29.1356	0.001692	17219.1	3.326802	0.449504	95.881	1.137608	0.019208	0.018867	99.4599	17219.1	0.014876	0.015120	6578.03	127941
761	2.000000	1.140460	7.3725e+06	-39039.1	1005.82	-29795.3	0.000000	0.000000	7.145357	113.69	NaN	0.000000	0.001641	0.001759	28.0816	32.3242	0.001849	17480.3	5.669017	179.469	112.378	1.140254	0.021719	0.021513	113.69	17480.3	0.016841	0.017819	6380.13	119640
761	2.000000	1.142995	7.3725e+06	-39039.1	1005.82	-29795.3	0.000000	0.000000	7.148354	124.941	NaN	0.000000	0.001641	0.001794	28.0818	33.579	0.001787	18787.6	4.590537	-1.157464	121.574	1.142650	0.024254	0.023909	124.941	18787.6	0.019267	0.021403	5837.59	117330
761	2.000000	1.145469	7.3725e+06	-39039.1	1005.82	-29795.3	0.000000	0.000000	7.151384	138.464	NaN	0.000000	0.001667	0.001734	28.0821	36.468	0.001859	19613.7	9.886049	174.041	137.864	1.145192	0.026728	0.026452	138.464	19613.7	0.021434	0.024845	5573.07	113687
761	2.000000	1.148019	7.3725e+06	-39039.1	1005.82	-29795.3	0.000000	0.000000	7.154375	149.179	NaN	0.000000	0.001626	0.001745	28.0817	38.3326	0.001879	20398.4	6.285422	-1.531082	150.331	1.147614	0.029279	0.028873	149.179	20398.4	0.023794	0.028858	5169.46	109708
761	2.000000	1.150473	7.3725e+06	-39039.1	1005.82	-29795.3	0.000000	0.000000	7.157403	163.15	NaN	0.000000	0.001665	0.001736	28.082	39.6622	0.001892	20963	2.295157	-179.319	160.793	1.150116	0.031732	0.031376	163.15	20963	0.025895	0.032664	4994.72	105971
761	2.000000	1.152997	7.3725e+06	-39039.1	1005.82	-29795.3	0.000000	0.000000	7.160248	170.97	NaN	0.000000	0.001612	0.001710	28.0817	41.5684	0.001839	22603.7	5.259979	-2.515230	170.065	1.152694	0.034256	0.033953	170.97	22603.7	0.028584	0.037859	4515.96	106137
761	2.000000	1.155465	7.3725e+06	-39039.1	1005.82	-29795.3	0.000000	0.000000	7.163447	188.751	NaN	0.000000	0.001600	0.001730	28.0822	42.2411	0.001778	23754.7	0.782060	-179.114	188.386	1.155114	0.036725	0.036374	188.751	23754.7	0.030765	0.042345	4457.46	105468
761	2.000000	1.157938	7.3725e+06	-39039.1	1005.82	-29795.3	0.000000	0.000000	7.166391	200.212	NaN	0.000000	0.001649	0.001764	28.0818	45.1666	0.001846	24466.9	4.123800	-1.997714	198.006	1.157561	0.039198	0.038821	200.212	24466.9	0.033061	0.047327	4230.43	102754
761	2.000000	1.160516	7.3725e+06	-39039.1	1005.82	-29795.3	0.000000	0.000000	7.169004	201.081	NaN	0.000000	0.001662	0.001737	28.0832	47.6732	0.001817	26236.7	3.853865	176.668	201.318	1.160368	0.041776	0.041627	201.081	26236.7	0.036027	0.054165	3712.35	102996
761	2.000000	1.163001	7.3725e+06	-39039.1	1005.82	-29795.3	0.000000	0.000000	7.172546	226.799	NaN	0.000000	0.001605	0.001787	28.0828	49.0946	0.001878	26143.3	5.120387	-3.287831	226.256	1.162637	0.044260	0.043896	226.799	26143.3	0.037754	0.058353	3886.69	98878.8
761	2.000000	1.165462	7.3725e+06	-39039.1	1005.82	-29795.3	0.000000	0.000000	7.175128	229.728	NaN	0.000000	0.001589	0.001770	28.0831	51.3753	0.001743	29482.9	3.231230	176.338	229.33	1.165066	0.046721	0.046325	229.728	29482.9	0.040877	0.066316	3464.15	104601
761	2.000000	1.167945	7.3725e+06	-39039.1	1005.82	-29795.3	0.000000	0.000000	7.178092	241.443	NaN	0.000000	0.001664	0.001798	28.0827	54.0271	0.001788	30209	4.202604	-4.347548	238.606	1.167551	0.049205	0.048810	241.443	30209	0.043210	0.072588	3326.19	102441
761	2.000000	1.170450	7.3725e+06	-39039.1	1005.82	-29795.3	0.000000	0.000000	7.181196	256.007	NaN	0.000000	0.001641	0.001768	28.083	56.5683	0.001895	29845.9	4.316537	175.234	254.595	1.170185	0.051710	0.051444	256.007	29845.9	0.045277	0.078374	3266.46	97402.6
761	2.000000	1.172931	7.3725e+06	-39039.1	1005.82	-29795.3	0.000000	0.000000	7.184138	267.241	NaN	0.000000	0.001667	0.001742	28.0831	57.034	0.001774	32157.2	1.044145	-2.116389	263.242	1.172671	0.054190	0.053930	267.241	32157.2	0.047958	0.086205	3100.06	100066
761	2.000000	1.175402	7.3725e+06	-39039.1	1005.82	-29795.3	0.000000	0.000000	7.187121	279.703	NaN	0.000000	0.001567	0.001755	28.0826	59.3784	0.001895	31328	5.201514	174.294	277.477	1.175138	0.056661	0.056397	279.703	31328	0.049965	0.092305	3030.19	94209
761	2.000000	1.177851	7.3725e+06	-39039.1	1005.82	-29795.3	0.000000	0.000000	7.190345	298.562	NaN	0.000000	0.001641	0.001713	28.0826	61.5781	0.001954	31514.7	2.693563	-3.166552	291.683	1.177497	0.059110	0.058756	298.562	31514.7	0.052005	0.098711	3024.61	91644
761	2.000000	1.180453	7.3725e+06	-39039.1	1005.82	-29795.3	0.000000	0.000000	7.193627	315.099	NaN	0.000000	0.001625	0.001763	28.0828	63.9255	0.001935	33036.4	6.413755	172.696	315.517	1.180185	0.061713	0.061445	315.099	33036.4	0.054559	0.107025	2944.16	92262.1
761	2.000000	1.182987	7.3725e+06	-39039.1	1005.82	-29795.3	0.000000	0.000000	7.196980	335.038	NaN	0.000000	0.001618	0.001776	28.0829	63.8526	0.001803	35423.6	2.870434	-3.909507	333.134	1.182607	0.064246	0.063867	335.038	35423.6	0.057153	0.115797	2893.32	95108
761	2.000000	1.185561	7.3725e+06	-39039.1	1005.82	-29795.3	0.000000	0.000000	7.199812	341.311	NaN	0.000000	0.001600	0.001758	28.0829	66.0775	0.001823	36249.2	5.601708	173.315	348.797	1.185283	0.066820	0.066542	341.311	36249.2	0.059759	0.124944	2731.72	93694.5
761	2.000000	1.187929	7.3725e+06	-39039.1	1005.82	-29795.3	0.000000	0.000000	7.203160	365.158	NaN	0.000000	0.001628	0.001766	28.0828	69.0857	0.001933	35737.5	7.074535	-7.409567	362.985	1.187505	0.069188	0.068764	365.158	35737.5	0.061525	0.131334	2780.38	90096.7
761	2.000000	1.190447	7.3725e+06	-39039.1	1005.82	-29795.3	0.000000	0.000000	7.206412	383.04	NaN	0.000000	0.001619	0.001755	28.083	69.9145	0.001680	41621.1	1.812663	175.81	384.305	1.190153	0.071706	0.071413	383.04	41621.1	0.064804	0.143596	2667.49	100350
761	2.000000	1.192895	7.3725e+06	-39039.1	1005.82	-29795.3	0.000000	0.000000	7.209401	396.209	NaN	0.000000	0.001621	0.001756	28.0815	72.2359	0.001762	41001.9	3.905569	-6.586034	391.073	1.192577	0.074154	0.073836	396.209	41001.9	0.066907	0.151733	2611.23	96169.6
761	2.000000	1.195437	7.3725e+06	-39039.1	1005.82	-29795.3	0.000000	0.000000	7.213093	424.156	NaN	0.000000	0.001657	0.001733	28.0816	73.442	0.001634	44956	5.018531	172.241	426.18	1.195040	0.076697	0.076300	424.156	44956	0.069621	0.162548	2609.41	101875
761	2.000000	1.197814	7.3725e+06	-39039.1	1005.82	-29795.3	0.000000	0.000000	7.215593	427.175	NaN	0.000000	0.001599	0.001762	28.0814	77.055	0.001745	44154.6	4.678177	-7.702366	418.432	1.197452	0.079073	0.078711	427.175	44154.6	0.071817	0.171559	2489.96	97396.2
761	2.000000	1.200452	7.3725e+06	-39039.1	1005.82	-29795.3	0.000000	0.000000	7.218598	436.124	NaN	0.000000	0.001633	0.001743	28.0819	80.6683	0.001833	43998.3	4.295528	172.778	436.639	1.200328	0.081711	0.081587	436.124	43998.3	0.074277	0.181919	2397.35	94247.5
761	2.000000	1.202900	7.3725e+06	-39039.1	1005.82	-29795.3	0.000000	0.000000	7.222072	461.051	NaN	0.000000	0.001601	0.001733	28.0816	81.3911	0.001777	45805.1	2.287148	-5.211147	455.044	1.202566	0.084160	0.083826	461.051	45805.1	0.076611	0.192014	2401.14	95503.9
761	2.000000	1.205499	7.3725e+06	-39039.1	1005.82	-29795.3	0.000000	0.000000	7.225388	478.526	NaN	0.000000	0.001630	0.001724	28.0818	84.7492	0.001919	44170.4	4.776739	172.604	484.109	1.205070	0.086758	0.086330	478.526	44170.4	0.078633	0.200967	2381.11	90020.6
761	2.000000	1.207884	7.3725e+06	-39039.1	1005.82	-29795.3	0.000000	0.000000	7.228926	506.587	NaN	0.000000	0.001601	0.001690	28.0816	87.0803	0.001842	47282.5	5.160915	-7.880398	503.71	1.207524	0.089143	0.088783	506.587	47282.5	0.081108	0.212186	2387.47	93781.2
761	2.000000	1.210343	7.3725e+06	-39039.1	1005.82	-29795.3	0.000000	0.000000	7.231774	516.051	NaN	0.000000	0.001618	0.001679	28.0821	89.2145	0.001812	49244.1	5.362635	170.97	511.503	1.210115	0.091602	0.091375	516.051	49244.1	0.083743	0.224440	2299.28	94967.9
761	2.000000	1.212892	7.3725e+06	-39039.1	1005.82	-29795.3	0.000000	0.000000	7.235347	540.965	NaN	0.000000	0.001600	0.001749	28.0815	89.6986	0.001776	50499.1	0.785818	-4.419059	535.951	1.212503	0.094152	0.093762	540.965	50499.1	0.086117	0.235761	2294.55	95021.3
761	2.000000	1.215459	7.3725e+06	-39039.1	1005.82	-29795.3	0.000000	0.000000	7.238608	557.855	NaN	0.000000	0.001644	0.001725	28.0817	92.3492	0.001814	50898.5	4.100622	171.993	559.656	1.215141	0.096718	0.096400	557.855	50898.5	0.088498	0.247372	2255.12	93498
761	2.000000	1.217845	7.3725e+06	-39039.1	1005.82	-29795.3	0.000000	0.000000	7.241969	581.582	NaN	0.000000	0.001639	0.001727	28.0817	94.015	0.001766	53249	2.229980	-6.042675	578.209	1.217699	0.099104	0.098958	581.582	53249	0.090913	0.259414	2241.91	95518.6
761	2.000000	1.218349	7.3725e+06	-39039.1	1005.82	-29795.3	0.000000	0.000000	7.242774	588.894	NaN	0.000000	0.001620	0.001707	28.0819	94.8728	0.001752	54154.1	5.466037	170.468	585.312	1.217927	0.099609	0.099186	588.894	54154.1	0.091453	0.262144	2246.45	96635.1