File: remote_trans/data/nanoindenter/0828-1/data/Data_2025-08-06,11h17m57s/2025-07-22_16-23-58_1_273.txt
2025-07-22, 16:23:58, 1
Index	Phase	Displacement	Time	Pos X	Pos Y	Pos Z	Rot A	Rot B	Piezo Z	Force A	Force B	Gripper	Voltage A	Voltage B	Temperature	Amplitude force	Amplitude pos	Stiffness	Phase shift	Phase excitation	Force A raw	Displacement raw	HMax	HMax raw	Real Force	Real Stiffness	Contact Depth	Area	Hardness	Reduced Mod.
[#]	[#]	[um]	[s]	[um]	[um]	[um]	[m°]	[m°]	[um]	[uN]	[uN]	[V]	[V]	[V]	[°C]	[uN]	[um]	[N/m]	[°]	[°]	[uN]	[um]	[um]	[um]	[uN]	[N/m]	[um]	[um^2]	[MPa]	[MPa]
273	1.000000	0.002570	7.36773e+06	-52289.1	955.819	-29749.9	0.000000	0.000000	6.002795	-0.002757	NaN	0.000000	0.001746	0.001644	28.0782	0.040144	0.001061	37.8438	161.57	-169.208	-0.040591	0.001332	-1.104972	-1.106209	-0.002757	37.8438	-1.104917	-5.835402E+14	4.724589E-18	NaN
273	1.000000	0.012640	7.36773e+06	-52289.1	955.82	-29749.9	0.000000	0.000000	6.012866	0.024123	NaN	0.000000	0.001673	0.001663	28.0784	0.021253	0.001212	17.5347	-135.454	17.4755	0.082898	0.011188	-1.094902	-1.096354	0.024123	17.5347	-1.095934	-4.420602E+14	-5.457033E-17	NaN
273	1.000000	0.022524	7.36773e+06	-52289.1	955.818	-29749.9	0.000000	0.000000	6.022748	-0.012250	NaN	0.000000	0.001687	0.001648	28.0784	0.042830	0.001790	23.9208	146.597	-166.828	0.032520	0.021192	-1.085018	-1.086350	-0.012250	23.9208	-1.084634	-3.117142E+14	3.929898E-17	NaN
273	1.000000	0.032521	7.36773e+06	-52289.1	955.819	-29749.9	0.000000	0.000000	6.032749	0.067869	NaN	0.000000	0.001696	0.001666	28.0784	0.080644	0.001804	44.6914	-88.414	16.07	0.099141	0.031126	-1.075021	-1.076415	0.067869	44.6914	-1.076160	-2.398486E+14	-2.829667E-16	NaN
273	1.000000	0.042548	7.36773e+06	-52289.1	955.819	-29749.9	0.000000	0.000000	6.042773	-0.006811	NaN	0.000000	0.001725	0.001687	28.0781	0.071093	0.001961	36.2576	39.0005	-166.727	0.011878	0.041243	-1.064993	-1.066299	-0.006811	36.2576	-1.064853	-1.690556E+14	4.028685E-17	NaN
273	1.000000	0.052531	7.36773e+06	-52289.1	955.818	-29749.9	0.000000	0.000000	6.052759	0.058927	NaN	0.000000	0.001705	0.001678	28.0785	0.085229	0.001918	44.433	-21.7783	17.1582	0.036048	0.051179	-1.055010	-1.056363	0.058927	44.433	-1.056005	-1.285673E+14	-4.583324E-16	NaN
273	1.000000	0.062516	7.36773e+06	-52289.1	955.818	-29749.9	0.000000	0.000000	6.062740	-0.026100	NaN	0.000000	0.001680	0.001650	28.0784	0.089518	0.001982	45.1591	-164.275	-161.883	0.007910	0.061271	-1.045026	-1.046270	-0.026100	45.1591	-1.044593	-9.030644E+13	2.890138E-16	NaN
273	1.000000	0.072545	7.36773e+06	-52289.1	955.818	-29749.9	0.000000	0.000000	6.072773	0.055206	NaN	0.000000	0.001710	0.001639	28.0783	0.060866	0.001940	31.374	-10.6587	17.6897	0.052496	0.071141	-1.034996	-1.036401	0.055206	31.374	-1.036316	-6.989183E+13	-7.898749E-16	NaN
273	1.000000	0.082534	7.36773e+06	-52289.1	955.819	-29749.9	0.000000	0.000000	6.082757	-0.076771	NaN	0.000000	0.001721	0.001672	28.0787	0.017114	0.002059	8.312000	17.1843	-164.77	-0.007805	0.081204	-1.025007	-1.026338	-0.076771	8.312000	-1.018080	-3.973044E+13	1.932291E-15	NaN
273	1.000000	0.092532	7.36773e+06	-52289.1	955.819	-29749.9	0.000000	0.000000	6.092756	-0.038186	NaN	0.000000	0.001689	0.001667	28.0785	0.121546	0.002182	55.6973	103.613	15.4711	-0.016596	0.091133	-1.015009	-1.016408	-0.038186	55.6973	-1.014495	-3.555313E+13	1.074065E-15	NaN
273	1.000000	0.102593	7.36773e+06	-52289.1	955.819	-29749.9	0.000000	0.000000	6.102819	0.029412	NaN	0.000000	0.001702	0.001662	28.0782	0.044636	0.002082	21.4375	-175.546	-164.153	0.064905	0.101228	-1.004949	-1.006314	0.029412	21.4375	-1.005978	-2.730535E+13	-1.077134E-15	NaN
273	1.000000	0.112536	7.36773e+06	-52289.1	955.819	-29749.9	0.000000	0.000000	6.112761	-0.013580	NaN	0.000000	0.001678	0.001697	28.0782	0.090433	0.002001	45.1991	71.8318	16.3	-0.060284	0.111162	-0.995006	-0.996380	-0.013580	45.1991	-0.994780	-1.929688E+13	7.037500E-16	NaN
273	1.000000	0.122537	7.36773e+06	-52289.1	955.819	-29749.9	0.000000	0.000000	6.122763	-0.005815	NaN	0.000000	0.001715	0.001723	28.0772	0.077163	0.002022	38.1613	170.695	-163.274	-0.045391	0.121209	-0.985004	-0.986333	-0.005815	38.1613	-0.984890	-1.419994E+13	4.094955E-16	NaN
273	1.000000	0.132590	7.36773e+06	-52289.1	955.819	-29749.9	0.000000	0.000000	6.132816	0.005068	NaN	0.000000	0.001693	0.001674	28.0771	0.067955	0.001998	34.0198	-49.464	16.8408	-0.008185	0.131161	-0.974951	-0.976380	0.005068	34.0198	-0.975063	-1.046866E+13	-4.840964E-16	NaN
273	1.000000	0.142591	7.36773e+06	-52289.1	955.819	-29749.9	0.000000	0.000000	6.142816	-0.011294	NaN	0.000000	0.001670	0.001659	28.0772	0.053995	0.001965	27.4811	115.556	-162.118	-0.017562	0.141197	-0.964951	-0.966344	-0.011294	27.4811	-0.964643	-7.576272E+12	1.490741E-15	NaN
273	1.000000	0.152568	7.36773e+06	-52289.1	955.819	-29749.9	0.000000	0.000000	6.152793	-0.011958	NaN	0.000000	0.001711	0.001678	28.0772	0.051131	0.002006	25.4861	-177.937	11.4939	0.010971	0.151159	-0.954974	-0.956382	-0.011958	25.4861	-0.954622	-5.550775E+12	2.154290E-15	NaN
273	1.000000	0.162535	7.36773e+06	-52289.1	955.819	-29749.9	0.000000	0.000000	6.162763	0.058281	NaN	0.000000	0.001702	0.001690	28.0771	0.049232	0.001933	25.4645	-75.7105	-167.046	0.006697	0.161210	-0.945007	-0.946331	0.058281	25.4645	-0.946723	-4.343454E+12	-1.341812E-14	NaN
273	1.000000	0.172542	7.36773e+06	-52289.1	955.819	-29749.9	0.000000	0.000000	6.172769	0.041965	NaN	0.000000	0.001713	0.001705	28.0769	0.010727	0.001948	5.507461	4.544632	17.4895	0.008354	0.171225	-0.934999	-0.936316	0.041965	5.507461	-0.940714	-3.603906E+12	-1.164441E-14	NaN
273	1.000000	0.182584	7.36773e+06	-52289.1	955.818	-29749.9	0.000000	0.000000	6.182810	0.013607	NaN	0.000000	0.001725	0.001708	28.0772	0.062746	0.001907	32.906	-138.24	-164.059	-0.024035	0.181221	-0.924958	-0.926321	0.013607	32.906	-0.925268	-2.230113E+12	-6.101491E-15	NaN
273	1.000000	0.192587	7.36773e+06	-52289.1	955.82	-29749.9	0.000000	0.000000	6.192813	0.011968	NaN	0.000000	0.001683	0.001715	28.0772	0.065626	0.001982	33.1103	141.599	18.6574	-0.068026	0.191218	-0.914955	-0.916324	0.011968	33.1103	-0.915226	-1.632077E+12	-7.333133E-15	NaN
273	1.000000	0.202582	7.36773e+06	-52289.1	955.819	-29749.9	0.000000	0.000000	6.202808	0.002577	NaN	0.000000	0.001686	0.001707	28.0773	0.207771	0.001991	104.333	-81.4559	-165.815	-0.008313	0.201259	-0.904960	-0.906282	0.002577	104.333	-0.904978	-1.186661E+12	-2.171539E-15	NaN
273	1.000000	0.212588	7.36773e+06	-52289.1	955.818	-29749.9	0.000000	0.000000	6.212813	-0.002825	NaN	0.000000	0.001689	0.001655	28.0771	0.031618	0.002018	15.67	-24.5209	19.8097	-0.007383	0.211191	-0.894954	-0.896351	-0.002825	15.67	-0.894819	-8.650576E+11	3.265344E-15	NaN
273	1.000000	0.222605	7.36773e+06	-52289.1	955.82	-29749.9	0.000000	0.000000	6.222832	0.047291	NaN	0.000000	0.001702	0.001663	28.0773	0.110690	0.001990	55.6244	-171.513	-163.807	0.054609	0.221284	-0.884937	-0.886258	0.047291	55.6244	-0.885574	-6.487608E+11	-7.289505E-14	NaN
273	1.000000	0.232581	7.36773e+06	-52289.1	955.818	-29749.9	0.000000	0.000000	6.232811	0.114930	NaN	0.000000	0.001719	0.001643	28.0774	0.059111	0.001986	29.7705	-50.2135	15.2932	0.109984	0.231237	-0.874961	-0.876305	0.114930	29.7705	-0.877856	-5.101660E+11	-2.252795E-13	NaN
273	1.000000	0.242596	7.36773e+06	-52289.1	955.819	-29749.9	0.000000	0.000000	6.242820	-0.028861	NaN	0.000000	0.001677	0.001650	28.0773	0.086441	0.001876	46.0851	86.4927	-166.701	-0.008656	0.241314	-0.864946	-0.866228	-0.028861	46.0851	-0.864476	-3.362825E+11	8.582510E-14	NaN
273	1.000000	0.252630	7.36773e+06	-52289.1	955.818	-29749.9	0.000000	0.000000	6.252857	0.035588	NaN	0.000000	0.001710	0.001619	28.0785	0.042757	0.001978	21.6168	-2.098226	15.2343	-0.043696	0.251224	-0.854912	-0.856317	0.035588	21.6168	-0.856147	-2.593935E+11	-1.371988E-13	NaN
273	1.000000	0.262606	7.36773e+06	-52289.1	955.818	-29749.9	0.000000	0.000000	6.262831	-0.013184	NaN	0.000000	0.001686	0.001623	28.0785	0.103436	0.002003	51.6282	-86.698	-164.956	-0.072813	0.261296	-0.844936	-0.846246	-0.013184	51.6282	-0.844744	-1.817861E+11	7.252495E-14	NaN
273	1.000000	0.272585	7.36773e+06	-52289.1	955.818	-29749.9	0.000000	0.000000	6.272808	-0.050241	NaN	0.000000	0.001673	0.001669	28.0788	0.055245	0.002084	26.511	37.1373	15.5938	-0.052423	0.271228	-0.834957	-0.836313	-0.050241	26.511	-0.833536	-1.281453E+11	3.920653E-13	NaN
273	1.000000	0.282599	7.36773e+06	-52289.1	955.818	-29749.9	0.000000	0.000000	6.282824	-0.001787	NaN	0.000000	0.001680	0.001701	28.0788	0.142052	0.002083	68.2006	159.794	-164.638	0.008981	0.281285	-0.824943	-0.826257	-0.001787	68.2006	-0.824923	-9.794085E+10	1.824809E-14	NaN
273	1.000000	0.292624	7.36773e+06	-52289.1	955.819	-29749.9	0.000000	0.000000	6.292849	-0.008592	NaN	0.000000	0.001709	0.001657	28.0786	0.043917	0.002018	21.7597	27.8089	17.961	0.009059	0.291245	-0.814918	-0.816297	-0.008592	21.7597	-0.814622	-7.100128E+10	1.210072E-13	NaN
273	1.000000	0.302620	7.36773e+06	-52289.1	955.818	-29749.9	0.000000	0.000000	6.302844	-0.032427	NaN	0.000000	0.001685	0.001682	28.0788	0.066153	0.001980	33.4147	-139.422	-162.477	0.042915	0.301332	-0.804922	-0.806210	-0.032427	33.4147	-0.804194	-5.126145E+10	6.325840E-13	NaN
273	1.000000	0.312618	7.36773e+06	-52289.1	955.818	-29749.9	0.000000	0.000000	6.312847	0.086109	NaN	0.000000	0.001751	0.001661	28.0787	0.099091	0.002019	49.0708	-34.8851	13.6975	0.080616	0.311259	-0.794924	-0.796283	0.086109	49.0708	-0.796240	-3.997799E+10	-2.153900E-12	NaN
273	1.000000	0.322661	7.36773e+06	-52289.1	955.819	-29749.9	0.000000	0.000000	6.322886	-0.008131	NaN	0.000000	0.001679	0.001672	28.0787	0.023973	0.001996	12.0112	-76.7947	-166.26	-0.021411	0.321312	-0.784880	-0.786230	-0.008131	12.0112	-0.784373	-2.758321E+10	2.947975E-13	NaN
273	1.000000	0.332626	7.36773e+06	-52289.1	955.818	-29749.9	0.000000	0.000000	6.332853	0.031282	NaN	0.000000	0.001706	0.001684	28.0787	0.157483	0.001938	81.2626	-166.614	17.0667	0.060245	0.331288	-0.774915	-0.776254	0.031282	81.2626	-0.775204	-2.070394E+10	-1.510926E-12	NaN
273	1.000000	0.342623	7.36773e+06	-52289.1	955.818	-29749.9	0.000000	0.000000	6.342855	0.153027	NaN	0.000000	0.001701	0.001682	28.079	0.097307	0.002060	47.2265	5.520161	-163.601	0.166046	0.341401	-0.764919	-0.766141	0.153027	47.2265	-0.767349	-1.619033E+10	-9.451772E-12	NaN
273	1.000000	0.352653	7.36773e+06	-52289.1	955.819	-29749.9	0.000000	0.000000	6.352876	-0.063305	NaN	0.000000	0.001691	0.001706	28.0788	0.044357	0.001906	23.2741	-64.625	14.5824	-0.027372	0.351304	-0.754889	-0.756237	-0.063305	23.2741	-0.752849	-1.027999E+10	6.158106E-12	NaN
273	1.000000	0.362670	7.36773e+06	-52289.1	955.819	-29749.9	0.000000	0.000000	6.362895	-0.015325	NaN	0.000000	0.001709	0.001674	28.0787	0.043052	0.001915	22.4859	-98.5198	-165.572	-0.022085	0.361346	-0.744872	-0.746196	-0.015325	22.4859	-0.744361	-7.878515E+9	1.945129E-12	NaN
273	1.000000	0.372641	7.36773e+06	-52289.1	955.818	-29749.9	0.000000	0.000000	6.372867	0.032750	NaN	0.000000	0.001687	0.001682	28.0788	0.054544	0.002150	25.3667	-170.739	15.2258	-0.006644	0.371310	-0.734901	-0.736232	0.032750	25.3667	-0.735869	-6.036530E+9	-5.425245E-12	NaN
273	1.000000	0.382699	7.36773e+06	-52289.1	955.819	-29749.9	0.000000	0.000000	6.382925	0.020375	NaN	0.000000	0.001712	0.001694	28.079	0.068797	0.002041	33.7134	-86.8358	-165.916	0.060985	0.381329	-0.724843	-0.726212	0.020375	33.7134	-0.725296	-4.331986E+9	-4.703344E-12	NaN
273	1.000000	0.392647	7.36773e+06	-52289.1	955.818	-29749.9	0.000000	0.000000	6.392872	-0.001728	NaN	0.000000	0.001659	0.001692	28.0776	0.095526	0.001944	49.1302	13.2834	19.5687	-0.019735	0.391290	-0.714895	-0.716252	-0.001728	49.1302	-0.714868	-3.122306E+9	5.535583E-13	NaN
273	1.000000	0.402667	7.36773e+06	-52289.1	955.818	-29749.9	0.000000	0.000000	6.402893	0.017853	NaN	0.000000	0.001677	0.001676	28.0777	0.042869	0.002117	20.246	135.122	-162.265	-0.048443	0.401311	-0.704875	-0.706231	0.017853	20.246	-0.705536	-2.328723E+9	-7.666642E-12	NaN
273	1.000000	0.412683	7.36773e+06	-52289.1	955.819	-29749.9	0.000000	0.000000	6.412911	0.040718	NaN	0.000000	0.001662	0.001668	28.0775	0.074566	0.002090	35.6707	-54.835	15.7709	-0.024521	0.411353	-0.694858	-0.696188	0.040718	35.6707	-0.695714	-1.710000E+9	-2.381150E-11	NaN
273	1.000000	0.422650	7.36773e+06	-52289.1	955.819	-29749.9	0.000000	0.000000	6.422875	-0.016257	NaN	0.000000	0.001769	0.001658	28.0775	0.015687	0.001913	8.201211	72.2257	-166.607	-0.058089	0.421354	-0.684891	-0.686188	-0.016257	8.201211	-0.683405	-1.160815E+9	1.400510E-11	NaN
273	1.000000	0.432693	7.36773e+06	-52289.1	955.818	-29749.9	0.000000	0.000000	6.432920	0.037841	NaN	0.000000	0.001699	0.001713	28.0777	0.104622	0.001972	53.0487	-148.759	14.0675	0.031794	0.431298	-0.674849	-0.676243	0.037841	53.0487	-0.675384	-9.016976E+8	-4.196660E-11	NaN
273	1.000000	0.442693	7.36773e+06	-52289.1	955.817	-29749.9	0.000000	0.000000	6.442919	0.020751	NaN	0.000000	0.001716	0.001691	28.0775	0.114652	0.001967	58.3025	97.2125	-165.791	-0.011851	0.441412	-0.664849	-0.666129	0.020751	58.3025	-0.665115	-6.524157E+8	-3.180594E-11	NaN
273	1.000000	0.452695	7.36773e+06	-52289.1	955.818	-29749.9	0.000000	0.000000	6.452922	0.050091	NaN	0.000000	0.001726	0.001667	28.0777	0.062478	0.001901	32.8734	-115.785	13.5421	0.106920	0.451341	-0.654847	-0.656201	0.050091	32.8734	-0.655990	-4.892508E+8	-1.023839E-10	NaN
273	1.000000	0.462713	7.36773e+06	-52289.1	955.818	-29749.9	0.000000	0.000000	6.462940	0.043197	NaN	0.000000	0.001745	0.001654	28.0775	0.153658	0.002020	76.0531	89.7461	-164.251	0.044459	0.461424	-0.644829	-0.646118	0.043197	76.0531	-0.645255	-3.486329E+8	-1.239039E-10	NaN
273	1.000000	0.472694	7.36773e+06	-52289.1	955.818	-29749.9	0.000000	0.000000	6.472923	0.097697	NaN	0.000000	0.001713	0.001692	28.0775	0.024710	0.001947	12.6895	-15.8176	14.1351	0.055176	0.471306	-0.634848	-0.636236	0.097697	12.6895	-0.640622	-3.011816E+8	-3.243792E-10	NaN
273	1.000000	0.482728	7.36773e+06	-52289.1	955.819	-29749.9	0.000000	0.000000	6.482955	0.051559	NaN	0.000000	0.001717	0.001646	28.0773	0.057101	0.001991	28.6755	63.455	-163.523	0.056240	0.481420	-0.624814	-0.626122	0.051559	28.6755	-0.626162	-1.906838E+8	-2.703892E-10	NaN
273	1.000000	0.492738	7.36773e+06	-52289.1	955.818	-29749.9	0.000000	0.000000	6.492964	0.027851	NaN	0.000000	0.001773	0.001661	28.0777	0.039697	0.001989	19.9604	163.159	14.9982	0.103516	0.491383	-0.614804	-0.616159	0.027851	19.9604	-0.615851	-1.375899E+8	-2.024215E-10	NaN
273	1.000000	0.502697	7.36773e+06	-52289.1	955.819	-29749.9	0.000000	0.000000	6.502924	0.041563	NaN	0.000000	0.001767	0.001680	28.0773	0.031390	0.002114	14.8466	-75.7045	-165.435	0.049997	0.501430	-0.604845	-0.606112	0.041563	14.8466	-0.606945	-1.037699E+8	-4.005339E-10	NaN
273	1.000000	0.512720	7.36773e+06	-52289.1	955.819	-29749.9	0.000000	0.000000	6.512943	-0.068853	NaN	0.000000	0.001767	0.001648	28.0774	0.115329	0.001990	57.9442	-137.813	15.9969	-0.054962	0.511357	-0.594821	-0.596184	-0.068853	57.9442	-0.593930	-6.868121E+7	1.002507E-9	NaN
273	1.000000	0.522733	7.36773e+06	-52289.1	955.819	-29749.9	0.000000	0.000000	6.522961	0.080178	NaN	0.000000	0.001785	0.001686	28.0779	0.109368	0.001840	59.443	14.1899	-166.798	0.041472	0.521426	-0.584809	-0.586116	0.080178	59.443	-0.585821	-5.309268E+7	-1.510148E-9	NaN
273	1.000000	0.532704	7.36773e+06	-52289.1	955.818	-29749.9	0.000000	0.000000	6.532931	0.042742	NaN	0.000000	0.001706	0.001679	28.0789	0.132300	0.002031	65.1418	-162.631	12.9982	0.014691	0.531369	-0.574837	-0.576173	0.042742	65.1418	-0.575330	-3.804081E+7	-1.123585E-9	NaN
273	1.000000	0.542712	7.36773e+06	-52289.1	955.817	-29749.9	0.000000	0.000000	6.542941	0.067678	NaN	0.000000	0.001747	0.001625	28.0785	0.052188	0.001972	26.4607	-31.4151	-164.017	0.095332	0.541418	-0.564829	-0.566124	0.067678	26.4607	-0.566748	-2.895236E+7	-2.337552E-9	NaN
273	1.000000	0.552731	7.36773e+06	-52289.1	955.818	-29749.9	0.000000	0.000000	6.552958	0.025173	NaN	0.000000	0.001687	0.001648	28.0787	0.111529	0.001954	57.0681	-172.483	14.163	-0.026416	0.551369	-0.554811	-0.556172	0.025173	57.0681	-0.555141	-2.000537E+7	-1.258293E-9	NaN
273	1.000000	0.562748	7.36773e+06	-52289.1	955.818	-29749.9	0.000000	0.000000	6.562973	0.001670	NaN	0.000000	0.001719	0.001670	28.0789	0.035192	0.002097	16.7847	52.8695	-168.813	-0.067707	0.561417	-0.544794	-0.546125	0.001670	16.7847	-0.544869	-1.441644E+7	-1.158474E-10	NaN
273	1.000000	0.572742	7.36773e+06	-52289.1	955.819	-29749.9	0.000000	0.000000	6.572971	0.081201	NaN	0.000000	0.001714	0.001660	28.0789	0.069169	0.002092	33.0661	98.9555	14.015	0.131961	0.571385	-0.534800	-0.536156	0.081201	33.0661	-0.536642	-1.108585E+7	-7.324784E-9	NaN
273	1.000000	0.582737	7.36773e+06	-52289.1	955.819	-29749.9	0.000000	0.000000	6.582963	0.016982	NaN	0.000000	0.001735	0.001644	28.0789	0.010751	0.001980	5.429846	168.131	-168.556	0.095476	0.581424	-0.524805	-0.526118	0.016982	5.429846	-0.527150	-8.18447e+06	-2.074917E-9	NaN
273	1.000000	0.592750	7.36773e+06	-52289.1	955.818	-29749.9	0.000000	0.000000	6.592975	-0.017007	NaN	0.000000	0.001679	0.001638	28.0788	0.041155	0.002104	19.5618	-19.907	13.4758	0.036031	0.591407	-0.514792	-0.516135	-0.017007	19.5618	-0.514140	-5.39586e+06	3.151831E-9	NaN
273	1.000000	0.602743	7.36773e+06	-52289.1	955.818	-29749.9	0.000000	0.000000	6.602971	0.065352	NaN	0.000000	0.001692	0.001637	28.0788	0.111371	0.002077	53.629	-18.8007	-166.337	0.089238	0.601462	-0.504799	-0.506080	0.065352	53.629	-0.505712	-4.1179e+06	-1.587020E-8	NaN
273	1.000000	0.612752	7.36773e+06	-52289.1	955.819	-29749.9	0.000000	0.000000	6.612975	-0.069418	NaN	0.000000	0.001684	0.001677	28.0786	0.114563	0.001924	59.5452	-22.0154	10.2132	-0.008431	0.611397	-0.494789	-0.496144	-0.069418	59.5452	-0.493915	-2.81894e+06	2.462554E-8	NaN
273	1.000000	0.622766	7.36773e+06	-52289.1	955.818	-29749.9	0.000000	0.000000	6.622991	-0.009354	NaN	0.000000	0.001706	0.001649	28.0788	0.047792	0.001899	25.1696	-47.8942	-166.004	0.052343	0.621471	-0.484776	-0.486071	-0.009354	25.1696	-0.484497	-2.08188e+06	4.493259E-9	NaN
273	1.000000	0.632765	7.36773e+06	-52289.1	955.819	-29749.9	0.000000	0.000000	6.632988	-0.058784	NaN	0.000000	0.001698	0.001650	28.0788	0.087667	0.001995	43.9539	-139.094	19.4377	0.064404	0.631405	-0.474777	-0.476137	-0.058784	43.9539	-0.473773	-1.47337e+06	3.989792E-8	NaN
273	1.000000	0.642776	7.36773e+06	-52289.1	955.819	-29749.9	0.000000	0.000000	6.643001	-0.003318	NaN	0.000000	0.001698	0.001699	28.0789	0.045902	0.001867	24.5842	150.821	-163.833	-0.023734	0.641464	-0.464766	-0.466078	-0.003318	24.5842	-0.464665	-1.09784e+06	3.022252E-9	NaN
273	1.000000	0.652800	7.36773e+06	-52289.1	955.819	-29749.9	0.000000	0.000000	6.653028	0.065938	NaN	0.000000	0.001719	0.001668	28.0787	0.084716	0.001921	44.093	138.286	13.6727	0.058985	0.651396	-0.454742	-0.456145	0.065938	44.093	-0.455863	-825769	-7.984991E-8	NaN
273	1.000000	0.662766	7.36773e+06	-52289.1	955.819	-29749.9	0.000000	0.000000	6.662990	-0.023357	NaN	0.000000	0.001730	0.001649	28.0775	0.036299	0.001979	18.3388	28.9286	-163.536	-0.021726	0.661425	-0.444776	-0.446117	-0.023357	18.3388	-0.443821	-558813	4.179783E-8	NaN
273	1.000000	0.672770	7.36773e+06	-52289.1	955.818	-29749.9	0.000000	0.000000	6.672995	-0.004130	NaN	0.000000	0.001758	0.001673	28.0776	0.006829	0.001931	3.535915	106.476	15.5257	-0.040131	0.671415	-0.434772	-0.436127	-0.004130	3.535915	-0.433896	-404716	1.020357E-8	NaN
273	1.000000	0.682794	7.36773e+06	-52289.1	955.818	-29749.9	0.000000	0.000000	6.683022	0.061806	NaN	0.000000	0.001757	0.001644	28.0777	0.091407	0.002030	45.0335	107.104	-168.993	0.050651	0.681493	-0.424747	-0.426048	0.061806	45.0335	-0.425777	-310659	-1.989527E-7	NaN
273	1.000000	0.692787	7.36773e+06	-52289.1	955.818	-29749.9	0.000000	0.000000	6.693014	0.047433	NaN	0.000000	0.001683	0.001692	28.0778	0.089453	0.002021	44.2577	-162.14	15.9143	0.027188	0.691402	-0.414755	-0.416140	0.047433	44.2577	-0.415559	-222532	-2.131517E-7	NaN
273	1.000000	0.702814	7.36773e+06	-52289.1	955.819	-29749.9	0.000000	0.000000	6.703040	0.012859	NaN	0.000000	0.001697	0.001691	28.0776	0.012314	0.001983	6.210546	30.8329	-164.984	-0.004560	0.701448	-0.404728	-0.406094	0.012859	6.210546	-0.406281	-164241	-7.829082E-8	NaN
273	1.000000	0.712809	7.36773e+06	-52289.1	955.818	-29749.9	0.000000	0.000000	6.713035	0.017067	NaN	0.000000	0.001667	0.001659	28.0779	0.071200	0.002063	34.5166	155.738	16.2054	0.067009	0.711424	-0.394733	-0.396118	0.017067	34.5166	-0.395103	-113792	-1.499835E-7	NaN
273	1.000000	0.722808	7.36773e+06	-52289.1	955.817	-29749.9	0.000000	0.000000	6.723035	0.035365	NaN	0.000000	0.001699	0.001670	28.0776	0.016467	0.002078	7.924959	-100.966	-166.968	0.033058	0.721492	-0.384733	-0.386049	0.035365	7.924959	-0.388080	-90302.2	-3.916315E-7	NaN
273	1.000000	0.732831	7.36773e+06	-52289.1	955.817	-29749.9	0.000000	0.000000	6.733056	0.002195	NaN	0.000000	0.001702	0.001691	28.0776	0.067201	0.002095	32.0828	83.1746	13.1743	-0.055444	0.731461	-0.374711	-0.376081	0.002195	32.0828	-0.374762	-58164.2	-3.773441E-8	NaN
273	1.000000	0.742810	7.36773e+06	-52289.1	955.819	-29749.9	0.000000	0.000000	6.743036	0.006822	NaN	0.000000	0.001698	0.001686	28.0774	0.061119	0.002006	30.471	19.3644	-165.736	0.024918	0.741503	-0.364732	-0.366039	0.006822	30.471	-0.364900	-41937.9	-1.626630E-7	NaN
273	1.000000	0.752839	7.36773e+06	-52289.1	955.818	-29749.9	0.000000	0.000000	6.753066	0.044798	NaN	0.000000	0.001682	0.001649	28.0778	0.027193	0.002027	13.4163	54.7277	12.9891	-0.034970	0.751446	-0.354703	-0.356095	0.044798	13.4163	-0.357207	-32467.5	-1.379795E-6	NaN
273	1.000000	0.762820	7.36773e+06	-52289.1	955.818	-29749.9	0.000000	0.000000	6.763045	-0.024606	NaN	0.000000	0.001690	0.001708	28.0774	0.098081	0.001872	52.3919	-164.199	-165.219	-0.059286	0.761503	-0.344721	-0.346039	-0.024606	52.3919	-0.344369	-21143.7	1.163770E-6	NaN
273	1.000000	0.772860	7.36773e+06	-52289.1	955.819	-29749.9	0.000000	0.000000	6.773087	0.046918	NaN	0.000000	0.001711	0.001671	28.0776	0.066137	0.002083	31.7514	-58.2382	17.4887	-0.065480	0.771474	-0.334682	-0.336068	0.046918	31.7514	-0.335790	-15853.6	-2.959482E-6	NaN
273	1.000000	0.782813	7.36773e+06	-52289.1	955.819	-29749.9	0.000000	0.000000	6.783039	-0.007852	NaN	0.000000	0.001708	0.001647	28.0776	0.079499	0.002091	38.0248	129.192	-166.206	0.066440	0.781496	-0.324728	-0.326046	-0.007852	38.0248	-0.324573	-10861.1	7.229414E-7	NaN
273	1.000000	0.792832	7.36773e+06	-52289.1	955.818	-29749.9	0.000000	0.000000	6.793056	-0.029963	NaN	0.000000	0.001704	0.001656	28.0774	0.074914	0.002074	36.1176	82.7623	13.5831	0.093087	0.791535	-0.314710	-0.316007	-0.029963	36.1176	-0.314087	-7611.61	3.936468E-6	NaN
273	1.000000	0.802852	7.36773e+06	-52289.1	955.818	-29749.9	0.000000	0.000000	6.803079	0.032234	NaN	0.000000	0.001692	0.001642	28.0787	0.105368	0.001817	57.9766	10.9291	-166.511	-0.034957	0.801517	-0.304690	-0.306024	0.032234	57.9766	-0.305107	-5604.5	-5.751383E-6	NaN
273	1.000000	0.812854	7.36773e+06	-52289.1	955.82	-29749.9	0.000000	0.000000	6.813079	-0.025083	NaN	0.000000	0.001691	0.001600	28.0787	0.089623	0.001847	48.5363	-71.5104	13.8041	-0.027735	0.811456	-0.294687	-0.296086	-0.025083	48.5363	-0.294300	-3869.27	6.482570E-6	NaN
273	1.000000	0.822852	7.36773e+06	-52289.1	955.819	-29749.9	0.000000	0.000000	6.823078	0.018423	NaN	0.000000	0.001707	0.001641	28.0788	0.133615	0.002005	66.6503	-92.6655	-168.998	0.047037	0.821501	-0.284690	-0.286041	0.018423	66.6503	-0.284897	-2797.16	-6.586416E-6	NaN
273	1.000000	0.832865	7.36773e+06	-52289.1	955.819	-29749.9	0.000000	0.000000	6.833092	0.038518	NaN	0.000000	0.001673	0.001643	28.0786	0.068093	0.002037	33.4343	-142.49	13.5782	-0.004166	0.831500	-0.274676	-0.276042	0.038518	33.4343	-0.275540	-2021.07	-1.905838E-5	NaN
273	1.000000	0.842857	7.36773e+06	-52289.1	955.819	-29749.9	0.000000	0.000000	6.843083	0.012937	NaN	0.000000	0.001687	0.001683	28.0785	0.111030	0.002015	55.1037	-82.9536	-168.955	0.036809	0.841555	-0.264684	-0.265987	0.012937	55.1037	-0.264860	-1390.77	-9.302102E-6	NaN
273	1.000000	0.852894	7.36773e+06	-52289.1	955.819	-29749.9	0.000000	0.000000	6.853119	-0.011166	NaN	0.000000	0.001654	0.001664	28.0791	0.020712	0.001988	10.4169	-104.08	11.8218	-0.039015	0.851477	-0.254647	-0.256065	-0.011166	10.4169	-0.253843	-942.543	1.184698E-5	NaN
273	1.000000	0.862863	7.36773e+06	-52289.1	955.819	-29749.9	0.000000	0.000000	6.863089	0.018277	NaN	0.000000	0.001673	0.001661	28.0788	0.030352	0.001962	15.4696	122.031	-166.807	0.011560	0.861563	-0.244679	-0.245979	0.018277	15.4696	-0.245565	-701.831	-2.604190E-5	NaN
273	1.000000	0.872837	7.36773e+06	-52289.1	955.819	-29749.9	0.000000	0.000000	6.873063	0.032183	NaN	0.000000	0.001648	0.001633	28.0788	0.108730	0.001899	57.2698	154.111	17.6297	0.018716	0.871539	-0.234705	-0.236003	0.032183	57.2698	-0.235127	-482.209	-6.674053E-5	NaN
273	1.000000	0.882887	7.36773e+06	-52289.1	955.818	-29749.9	0.000000	0.000000	6.883112	0.002796	NaN	0.000000	0.001657	0.001633	28.0787	0.055220	0.002027	27.2453	-21.5881	-167.236	0.085273	0.881571	-0.224655	-0.225970	0.002796	27.2453	-0.224732	-330.429	-8.462313E-6	NaN
273	1.000000	0.892864	7.36773e+06	-52289.1	955.819	-29749.9	0.000000	0.000000	6.893088	-0.037044	NaN	0.000000	0.001722	0.001630	28.0788	0.037777	0.001878	20.1173	-10.7423	13.8966	-0.067255	0.891555	-0.214678	-0.215987	-0.037044	20.1173	-0.213297	-216.815	0.000171	NaN
273	1.000000	0.902903	7.36773e+06	-52289.1	955.818	-29749.9	0.000000	0.000000	6.903131	0.050494	NaN	0.000000	0.001720	0.001626	28.0788	0.056245	0.001927	29.1832	47.7917	-166.592	0.099835	0.901595	-0.204638	-0.205947	0.050494	29.1832	-0.205936	-164.747	-0.000306	NaN
273	1.000000	0.912901	7.36773e+06	-52289.1	955.818	-29749.9	0.000000	0.000000	6.913125	-0.028623	NaN	0.000000	0.001716	0.001600	28.0788	0.026155	0.002024	12.9254	29.0113	11.8304	-0.060448	0.911499	-0.194641	-0.196043	-0.028623	12.9254	-0.192980	-100.852	0.000284	NaN
273	1.000000	0.922893	7.36773e+06	-52289.1	955.818	-29749.9	0.000000	0.000000	6.923119	-0.002943	NaN	0.000000	0.001766	0.001610	28.0786	0.088264	0.001976	44.6624	-95.2448	-166.753	0.026407	0.921581	-0.184648	-0.185961	-0.002943	44.6624	-0.184599	-73.0077	4.030874E-5	NaN
273	1.000000	0.932903	7.36773e+06	-52289.1	955.818	-29749.9	0.000000	0.000000	6.933130	0.055601	NaN	0.000000	0.001753	0.001638	28.078	0.028498	0.002032	14.0242	77.4399	14.9556	0.010380	0.931529	-0.174639	-0.176013	0.055601	14.0242	-0.177613	-55.559	-0.001001	NaN
273	1.000000	0.942913	7.36773e+06	-52289.1	955.817	-29749.9	0.000000	0.000000	6.943138	-0.020377	NaN	0.000000	0.001751	0.001650	28.0774	0.079036	0.002038	38.7757	-101.311	-168.681	0.068546	0.941610	-0.164629	-0.165931	-0.020377	38.7757	-0.164235	-32.5726	0.000626	NaN
273	1.000000	0.952884	7.36773e+06	-52289.1	955.818	-29749.9	0.000000	0.000000	6.953111	0.031845	NaN	0.000000	0.001774	0.001623	28.0775	0.074143	0.001933	38.359	-95.5067	12.6925	0.016347	0.951519	-0.154657	-0.156022	0.031845	38.359	-0.155280	-22.5745	-0.001411	NaN
273	1.000000	0.962903	7.36773e+06	-52289.1	955.818	-29749.9	0.000000	0.000000	6.963127	-0.025924	NaN	0.000000	0.001761	0.001624	28.0775	0.042519	0.001986	21.4142	-40.6433	-165.228	0.007401	0.961598	-0.144639	-0.145944	-0.025924	21.4142	-0.143731	-13.8881	0.001867	NaN
273	1.000000	0.972913	7.36773e+06	-52289.1	955.817	-29749.9	0.000000	0.000000	6.973139	0.014557	NaN	0.000000	0.001713	0.001626	28.0777	0.055096	0.002004	27.4903	-46.5181	15.4809	-0.015969	0.971510	-0.134629	-0.136032	0.014557	27.4903	-0.135026	-9.523222	-0.001529	NaN
273	1.000000	0.982907	7.36773e+06	-52289.1	955.817	-29749.9	0.000000	0.000000	6.983132	-0.002240	NaN	0.000000	0.001732	0.001632	28.0773	0.053460	0.002004	26.6816	-124.378	-167.407	-0.012845	0.981613	-0.124635	-0.125929	-0.002240	26.6816	-0.124572	-5.963742	0.000376	NaN
273	1.000000	0.992940	7.36773e+06	-52289.1	955.817	-29749.9	0.000000	0.000000	6.993162	-0.063708	NaN	0.000000	0.001759	0.001623	28.0773	0.077099	0.002076	37.1384	92.2841	16.1102	-0.029323	0.991577	-0.114602	-0.115965	-0.063708	37.1384	-0.113316	-3.525760	0.018069	NaN
273	1.000000	1.002902	7.36773e+06	-52289.1	955.818	-29749.9	0.000000	0.000000	7.003128	0.005075	NaN	0.000000	0.001768	0.001634	28.0772	0.046941	0.001969	23.8414	35.9693	-167.4	0.021375	1.001564	-0.104639	-0.105977	0.005075	23.8414	-0.104799	-2.327181	-0.002181	NaN
273	1.000000	1.012915	7.36773e+06	-52289.1	955.817	-29749.9	0.000000	0.000000	7.013140	-0.007694	NaN	0.000000	0.001742	0.001648	28.0775	0.037131	0.001909	19.4534	-129.598	11.6567	-0.021896	1.011575	-0.094627	-0.095967	-0.007694	19.4534	-0.094330	-1.361854	0.005650	NaN
273	1.000000	1.022940	7.36773e+06	-52289.1	955.817	-29749.9	0.000000	0.000000	7.023167	0.032589	NaN	0.000000	0.001788	0.001624	28.0773	0.018535	0.002042	9.076192	24.3288	-166.93	0.052837	1.021644	-0.084602	-0.085898	0.032589	9.076192	-0.087295	-0.932858	-0.034934	NaN
273	1.000000	1.032950	7.36773e+06	-52289.1	955.818	-29749.9	0.000000	0.000000	7.033176	0.035658	NaN	0.000000	0.001775	0.001653	28.0775	0.027897	0.001984	14.0598	-108.766	14.3944	0.043950	1.031503	-0.074592	-0.076039	0.035658	14.0598	-0.076494	-0.504638	-0.070660	NaN
273	1.000000	1.042940	7.36773e+06	-52289.1	955.818	-29749.9	0.000000	0.000000	7.043166	0.005444	NaN	0.000000	0.001764	0.001642	28.0774	0.066180	0.002131	31.0614	-36.8743	-169.442	0.048652	1.041664	-0.064602	-0.065877	0.005444	31.0614	-0.064733	-0.245002	-0.022222	NaN
273	1.000000	1.052958	7.36773e+06	-52289.1	955.817	-29749.9	0.000000	0.000000	7.053183	-0.003701	NaN	0.000000	0.001723	0.001646	28.0775	0.049086	0.002008	24.4419	-118.171	13.1692	0.048306	1.051534	-0.054584	-0.056008	-0.003701	24.4419	-0.054470	-0.124213	0.029796	NaN
273	1.000000	1.062921	7.36773e+06	-52289.1	955.816	-29749.9	0.000000	0.000000	7.063146	0.002700	NaN	0.000000	0.001737	0.001680	28.0775	0.073839	0.001990	37.0985	-58.0041	-162.509	-0.001715	1.061664	-0.044621	-0.045878	0.002700	37.0985	-0.044676	-0.062817	-0.042981	NaN
273	1.000000	1.072948	7.36773e+06	-52289.1	955.818	-29749.9	0.000000	0.000000	7.073173	-0.007420	NaN	0.000000	0.001726	0.001650	28.0785	0.074685	0.001924	38.8182	-83.1065	12.813	0.041882	1.071609	-0.034594	-0.035933	-0.007420	38.8182	-0.034451	-0.030856	0.240462	NaN
273	1.000000	1.082942	7.36773e+06	-52289.1	955.817	-29749.9	0.000000	0.000000	7.083167	-0.019612	NaN	0.000000	0.001700	0.001670	28.0786	0.051759	0.001916	27.0129	137.708	-167.98	0.020272	1.081699	-0.024599	-0.025843	-0.019612	27.0129	-0.024055	-0.015943	1.230140	NaN
273	1.000000	1.092982	7.36773e+06	-52289.1	955.818	-29749.9	0.000000	0.000000	7.093209	0.020931	NaN	0.000000	0.001748	0.001635	28.0785	0.026456	0.001923	13.7566	-72.6293	11.1324	0.031051	1.091544	-0.014559	-0.015998	0.020931	13.7566	-0.015701	-0.009699	-2.157982	NaN
273	1.000000	1.102948	7.36773e+06	-52289.1	955.818	-29749.9	0.000000	0.000000	7.103172	-0.035995	NaN	0.000000	0.001734	0.001670	28.0786	0.042733	0.002069	20.6557	-62.0229	-166.939	-0.042285	1.101652	-0.004594	-0.005890	-0.035995	20.6557	-0.003287	-0.002311	15.5723	NaN
273	1.000000	1.112955	7.36773e+06	-52289.1	955.818	-29749.9	0.000000	0.000000	7.113387	5.004683	NaN	0.000000	0.001724	0.001633	28.0784	5.878030	0.001809	3249.93	13.2096	7.791944	3.621909	1.111568	0.005414	0.004026	5.004683	3249.93	0.004259	0.003467	1443.53	50428
273	2.000000	1.117658	7.36773e+06	-52289.1	955.817	-29749.9	0.000000	0.000000	7.118311	10.4025	NaN	0.000000	0.001689	0.001657	28.0792	10.7282	0.001776	6039.99	10.2809	-176.152	10.0412	1.117296	0.010116	0.009754	10.4025	6039.99	0.008824	0.007904	1316.1	62070.4
273	2.000000	1.120142	7.36773e+06	-52289.1	955.818	-29749.9	0.000000	0.000000	7.120973	14.7176	NaN	0.000000	0.001715	0.001662	28.0783	13.1015	0.001719	7620.49	5.925258	5.784381	13.6556	1.119680	0.012600	0.012138	14.7176	7620.49	0.011152	0.010490	1403.01	67978
273	2.000000	1.122588	7.36773e+06	-52289.1	955.818	-29749.9	0.000000	0.000000	7.123613	19.4408	NaN	0.000000	0.001727	0.001652	28.0789	15.1482	0.001685	8988.81	0.827969	-171.284	18.6453	1.122282	0.015047	0.014740	19.4408	8988.81	0.013424	0.013241	1468.18	71368.8
273	2.000000	1.125089	7.36773e+06	-52289.1	955.818	-29749.9	0.000000	0.000000	7.126319	24.4407	NaN	0.000000	0.001710	0.001659	28.0785	17.4335	0.001643	10611.8	3.573609	5.164370	23.2937	1.124710	0.017547	0.017168	24.4407	10611.8	0.015820	0.016394	1490.84	75721.7
273	2.000000	1.127624	7.36773e+06	-52289.1	955.819	-29749.9	0.000000	0.000000	7.128999	27.9466	NaN	0.000000	0.001708	0.001679	28.0793	20.777	0.001793	11585.7	5.270070	-176.453	27.9883	1.127296	0.020082	0.019754	27.9466	11585.7	0.018273	0.019901	1404.3	75034.6
273	2.000000	1.130108	7.36773e+06	-52289.1	955.818	-29749.9	0.000000	0.000000	7.131756	34.5846	NaN	0.000000	0.001787	0.001702	28.0786	22.8612	0.001768	12931	5.484469	2.403512	33.646	1.129740	0.022567	0.022198	34.5846	12931	0.020561	0.023431	1476.01	77180.7
273	2.000000	1.132570	7.36773e+06	-52289.1	955.818	-29749.9	0.000000	0.000000	7.134412	39.2965	NaN	0.000000	0.001700	0.001613	28.0789	25.6777	0.001855	13839.4	5.050345	-178.544	39.5245	1.132291	0.025028	0.024750	39.2965	13839.4	0.022899	0.027304	1439.24	76520.7
273	2.000000	1.135053	7.36773e+06	-52289.1	955.819	-29749.9	0.000000	0.000000	7.137156	45.6404	NaN	0.000000	0.001676	0.001694	28.0786	27.6585	0.001746	15845.4	2.278079	2.656995	44.2975	1.134776	0.027512	0.027234	45.6404	15845.4	0.025351	0.031658	1441.67	81364.3
273	2.000000	1.137492	7.36773e+06	-52289.1	955.818	-29749.9	0.000000	0.000000	7.139878	52.5161	NaN	0.000000	0.001649	0.001663	28.0802	30.5982	0.001804	16959.5	5.927254	178.895	50.3118	1.137240	0.029951	0.029698	52.5161	16959.5	0.027628	0.035971	1459.94	81697.5
273	2.000000	1.140024	7.36773e+06	-52289.1	955.818	-29749.9	0.000000	0.000000	7.142857	63.3925	NaN	0.000000	0.001723	0.001631	28.0773	32.8427	0.001811	18134	6.227961	-1.510279	61.1162	1.139660	0.032483	0.032118	63.3925	18134	0.029861	0.040456	1566.95	82371.3
273	2.000000	1.142511	7.36773e+06	-52289.1	955.818	-29749.9	0.000000	0.000000	7.145564	68.7372	NaN	0.000000	0.001723	0.001665	28.0786	35.1769	0.001707	20610.1	7.947059	174.599	66.855	1.142192	0.034969	0.034650	68.7372	20610.1	0.032468	0.046015	1493.81	87782.1
273	2.000000	1.145077	7.36773e+06	-52289.1	955.818	-29749.9	0.000000	0.000000	7.148426	75.9446	NaN	0.000000	0.001737	0.001707	28.0774	38.2549	0.001801	21238.8	8.080626	-4.386075	76.9911	1.144686	0.037535	0.037144	75.9446	21238.8	0.034854	0.051406	1477.36	85585.3
273	2.000000	1.147537	7.36773e+06	-52289.1	955.818	-29749.9	0.000000	0.000000	7.151428	89.1181	NaN	0.000000	0.001721	0.001681	28.0777	41.202	0.001772	23254.3	9.115002	172.618	88.3695	1.147174	0.039996	0.039633	89.1181	23254.3	0.037122	0.056801	1568.95	89145.1
273	2.000000	1.150011	7.36773e+06	-52289.1	955.818	-29749.9	0.000000	0.000000	7.154241	97.3821	NaN	0.000000	0.001705	0.001696	28.0773	42.117	0.001715	24557	4.069662	-2.372270	94.6531	1.149674	0.042469	0.042132	97.3821	24557	0.039495	0.062730	1552.41	89580.4
273	2.000000	1.152482	7.36773e+06	-52289.1	955.817	-29749.9	0.000000	0.000000	7.157230	109.954	NaN	0.000000	0.001688	0.001643	28.0787	44.4591	0.001680	26464.6	6.122784	174.643	108.602	1.152151	0.044940	0.044609	109.954	26464.6	0.041824	0.068828	1597.53	92163.3
273	2.000000	1.155008	7.36773e+06	-52289.1	955.818	-29749.9	0.000000	0.000000	7.160123	118.883	NaN	0.000000	0.001773	0.001628	28.0774	47.6148	0.001741	27350.1	5.172238	-5.857015	116.751	1.154679	0.047467	0.047138	118.883	27350.1	0.044206	0.075351	1577.74	91031
273	2.000000	1.157491	7.36773e+06	-52289.1	955.819	-29749.9	0.000000	0.000000	7.162972	127.773	NaN	0.000000	0.001725	0.001662	28.0781	50.6623	0.001784	28402.9	5.462666	174.418	125.787	1.157221	0.049950	0.049679	127.773	28402.9	0.046576	0.082124	1555.86	90552.8
273	2.000000	1.160012	7.36773e+06	-52289.1	955.818	-29749.9	0.000000	0.000000	7.166021	140.604	NaN	0.000000	0.001717	0.001670	28.0773	52.6145	0.001721	30566.6	7.446796	-8.335525	137.621	1.159655	0.052471	0.052113	140.604	30566.6	0.049021	0.089411	1572.57	93395.4
273	2.000000	1.162529	7.36773e+06	-52289.1	955.818	-29749.9	0.000000	0.000000	7.168990	151.612	NaN	0.000000	0.001724	0.001622	28.0778	54.9829	0.001784	30814.4	5.533347	174.274	151.777	1.162118	0.054988	0.054576	151.612	30814.4	0.051297	0.096466	1571.66	90644.4
273	2.000000	1.165038	7.36773e+06	-52289.1	955.818	-29749.9	0.000000	0.000000	7.171991	163.593	NaN	0.000000	0.001676	0.001634	28.0773	58.008	0.001824	31803.1	8.289464	-9.378883	163.864	1.164558	0.057496	0.057016	163.593	31803.1	0.053638	0.103989	1573.18	90104.9
273	2.000000	1.167513	7.36773e+06	-52289.1	955.818	-29749.9	0.000000	0.000000	7.174960	175.61	NaN	0.000000	0.001729	0.001622	28.0775	59.9861	0.001834	32713.6	6.336828	172.305	175.329	1.167125	0.059971	0.059583	175.61	32713.6	0.055945	0.111670	1572.57	89440.2
273	2.000000	1.170002	7.36773e+06	-52289.1	955.818	-29749.9	0.000000	0.000000	7.177874	185.934	NaN	0.000000	0.001699	0.001685	28.0773	62.2345	0.001804	34502.9	5.896764	-7.558742	182.781	1.169618	0.062460	0.062076	185.934	34502.9	0.058419	0.120199	1546.89	90924
273	2.000000	1.172530	7.36773e+06	-52289.1	955.818	-29749.9	0.000000	0.000000	7.181080	202.387	NaN	0.000000	0.001715	0.001699	28.0782	65.1329	0.001905	34189.7	4.525902	173.877	203.248	1.172175	0.064989	0.064633	202.387	34189.7	0.060549	0.127785	1583.81	87383.4
273	2.000000	1.174951	7.36773e+06	-52289.1	955.818	-29749.9	0.000000	0.000000	7.184049	215.715	NaN	0.000000	0.001723	0.001702	28.0785	65.5238	0.001758	37277.2	-1.777060	-0.933218	212.402	1.174663	0.067410	0.067121	215.715	37277.2	0.063070	0.137045	1574.04	91999.2
273	2.000000	1.177454	7.36773e+06	-52289.1	955.818	-29749.9	0.000000	0.000000	7.187145	230.148	NaN	0.000000	0.001719	0.001690	28.0785	69.3403	0.001768	39224.1	2.482427	174.524	228.135	1.177211	0.069912	0.069669	230.148	39224.1	0.065512	0.146310	1573.01	93689
273	2.000000	1.179975	7.36773e+06	-52289.1	955.818	-29749.9	0.000000	0.000000	7.190289	245.298	NaN	0.000000	0.001680	0.001620	28.0783	70.2649	0.001795	39139.5	0.110465	-2.732670	240.797	1.179691	0.072433	0.072149	245.298	39139.5	0.067733	0.154988	1582.69	90832.1
273	2.000000	1.182507	7.36773e+06	-52289.1	955.818	-29749.9	0.000000	0.000000	7.193572	263.553	NaN	0.000000	0.001712	0.001631	28.0785	74.7082	0.001888	39568.8	8.334555	169.225	263.628	1.182165	0.074965	0.074624	263.553	39568.8	0.069970	0.163965	1607.38	89279.2
273	2.000000	1.184979	7.36773e+06	-52289.1	955.819	-29749.9	0.000000	0.000000	7.196293	269.625	NaN	0.000000	0.001700	0.001666	28.0788	76.2633	0.001669	45694.5	3.986071	-8.240790	265.987	1.184632	0.077437	0.077090	269.625	45694.5	0.073012	0.176554	1527.15	99356.9
273	2.000000	1.187447	7.36773e+06	-52289.1	955.818	-29749.9	0.000000	0.000000	7.199764	293.993	NaN	0.000000	0.001752	0.001643	28.0784	79.1739	0.001821	43474.5	5.766446	171.319	292.318	1.187084	0.079906	0.079543	293.993	43474.5	0.074834	0.184305	1595.14	92520.7
273	2.000000	1.189923	7.36773e+06	-52289.1	955.818	-29749.9	0.000000	0.000000	7.202785	307.24	NaN	0.000000	0.001731	0.001624	28.0785	80.5146	0.001806	44590.3	4.970334	-8.208539	299.298	1.189579	0.082381	0.082037	307.24	44590.3	0.077214	0.194664	1578.31	92335.8
273	2.000000	1.192460	7.36773e+06	-52289.1	955.817	-29749.9	0.000000	0.000000	7.206053	325.028	NaN	0.000000	0.001705	0.001625	28.0785	82.9185	0.001800	46055.8	3.595230	172.579	322.541	1.192177	0.084918	0.084636	325.028	46055.8	0.079625	0.205431	1582.17	92837.8
273	2.000000	1.194913	7.36773e+06	-52289.1	955.818	-29749.9	0.000000	0.000000	7.209462	348.275	NaN	0.000000	0.001746	0.001636	28.0786	85.9413	0.001708	50329.1	5.396698	-10.0915	342.856	1.194581	0.087371	0.087040	348.275	50329.1	0.082181	0.217137	1603.94	98679.1
273	2.000000	1.197548	7.36773e+06	-52289.1	955.819	-29749.9	0.000000	0.000000	7.212519	358.533	NaN	0.000000	0.001700	0.001602	28.0786	90.0748	0.001781	50580	3.116417	172.655	363.315	1.197196	0.090006	0.089654	358.533	50580	0.084690	0.228924	1566.17	96584.2
273	2.000000	1.199941	7.36773e+06	-52289.1	955.819	-29749.9	0.000000	0.000000	7.215887	382.25	NaN	0.000000	0.001692	0.001610	28.0786	90.8491	0.001830	49635.4	2.168315	-5.825096	376.736	1.199594	0.092399	0.092052	382.25	49635.4	0.086624	0.238207	1604.69	92915.3
273	2.000000	1.202575	7.36773e+06	-52289.1	955.819	-29749.9	0.000000	0.000000	7.219373	402.963	NaN	0.000000	0.001684	0.001580	28.0788	94.2023	0.001791	52608.3	4.174585	170.984	406.226	1.202120	0.095033	0.094579	402.963	52608.3	0.089288	0.251281	1603.63	95884.3
273	2.000000	1.204946	7.36773e+06	-52289.1	955.821	-29749.9	0.000000	0.000000	7.222629	424.48	NaN	0.000000	0.001675	0.001590	28.0786	96.0343	0.001799	53389.9	6.428485	-11.2158	420.764	1.204488	0.097405	0.096946	424.48	53389.9	0.091442	0.262086	1619.62	95282
273	2.000000	1.207446	7.36773e+06	-52289.1	955.819	-29749.9	0.000000	0.000000	7.225448	432.236	NaN	0.000000	0.001695	0.001643	28.0772	99.446	0.001854	53647.3	5.894086	169.061	428.683	1.207212	0.099904	0.099670	432.236	53647.3	0.093862	0.274481	1574.74	93554.5
273	2.000000	1.210029	7.36773e+06	-52289.1	955.819	-29749.9	0.000000	0.000000	7.229048	456.959	NaN	0.000000	0.001694	0.001639	28.0776	99.9339	0.001724	57961.1	2.483442	-8.211037	456.758	1.209736	0.102488	0.102194	456.959	57961.1	0.096575	0.288695	1582.84	98557.6
273	2.000000	1.212394	7.36773e+06	-52289.1	955.82	-29749.9	0.000000	0.000000	7.232397	480.89	NaN	0.000000	0.001666	0.001656	28.0774	102.166	0.001699	60146.9	4.239091	169.984	477.942	1.212083	0.104852	0.104541	480.89	60146.9	0.098855	0.300903	1598.16	100178
273	2.000000	1.214362	7.36773e+06	-52289.1	955.82	-29749.9	0.000000	0.000000	7.234821	491.976	NaN	0.000000	0.001716	0.001624	28.0772	103.697	0.001732	59876.4	0.736944	173.589	485.062	1.214100	0.106820	0.106558	491.976	59876.4	0.100658	0.310720	1583.34	98139.7