File: remote_trans/data/nanoindenter/0828-1/data/Data_2025-08-06,11h17m57s/2025-07-22_16-23-58_1_509.txt
2025-07-22, 16:23:58, 1
Index	Phase	Displacement	Time	Pos X	Pos Y	Pos Z	Rot A	Rot B	Piezo Z	Force A	Force B	Gripper	Voltage A	Voltage B	Temperature	Amplitude force	Amplitude pos	Stiffness	Phase shift	Phase excitation	Force A raw	Displacement raw	HMax	HMax raw	Real Force	Real Stiffness	Contact Depth	Area	Hardness	Reduced Mod.
[#]	[#]	[um]	[s]	[um]	[um]	[um]	[m°]	[m°]	[um]	[uN]	[uN]	[V]	[V]	[V]	[°C]	[uN]	[um]	[N/m]	[°]	[°]	[uN]	[um]	[um]	[um]	[uN]	[N/m]	[um]	[um^2]	[MPa]	[MPa]
509	1.000000	0.003172	7.37003e+06	-51639.1	1005.82	-29751.6	0.000000	0.000000	6.002796	0.041474	NaN	0.000000	0.001721	0.001731	28.0819	0.103955	0.000942	110.348	-55.7277	-170.271	0.066306	0.001919	-1.101167	-1.102419	0.041474	110.348	-1.101449	-5.242184E+14	-7.911537E-17	NaN
509	1.000000	0.013250	7.37003e+06	-51639.1	1005.82	-29751.6	0.000000	0.000000	6.012873	0.015521	NaN	0.000000	0.001701	0.001734	28.0817	0.060528	0.001281	47.2644	-158.619	16.7939	-0.031193	0.011796	-1.091089	-1.092542	0.015521	47.2644	-1.091335	-3.834736E+14	-4.047471E-17	NaN
509	1.000000	0.023139	7.37003e+06	-51639.1	1005.82	-29751.6	0.000000	0.000000	6.022763	0.011624	NaN	0.000000	0.001715	0.001773	28.0817	0.135552	0.001628	83.2836	12.934	-165.345	-0.050509	0.021803	-1.081199	-1.082535	0.011624	83.2836	-1.081304	-2.812102E+14	-4.133462E-17	NaN
509	1.000000	0.033106	7.37003e+06	-51639.1	1005.82	-29751.6	0.000000	0.000000	6.032729	0.008974	NaN	0.000000	0.001674	0.001758	28.0818	0.153388	0.001760	87.131	-85.1904	16.8884	-0.026365	0.031855	-1.071232	-1.072483	0.008974	87.131	-1.071310	-2.064345E+14	-4.346902E-17	NaN
509	1.000000	0.043122	7.37003e+06	-51639.1	1005.82	-29751.6	0.000000	0.000000	6.042747	0.050460	NaN	0.000000	0.001684	0.001739	28.0814	0.142032	0.002170	65.4386	-96.7154	-165.302	0.109388	0.041845	-1.061217	-1.062493	0.050460	65.4386	-1.061795	-1.537948E+14	-3.280988E-16	NaN
509	1.000000	0.053147	7.37003e+06	-51639.1	1005.82	-29751.6	0.000000	0.000000	6.052772	0.037336	NaN	0.000000	0.001682	0.001783	28.0826	0.076142	0.002044	37.2604	51.7201	15.0581	0.051726	0.051759	-1.051191	-1.052579	0.037336	37.2604	-1.051943	-1.133782E+14	-3.293009E-16	NaN
509	1.000000	0.063140	7.37003e+06	-51639.1	1005.82	-29751.6	0.000000	0.000000	6.062764	0.011008	NaN	0.000000	0.001733	0.001750	28.0827	0.019524	0.001981	9.853007	102.653	-161.545	-0.010527	0.061845	-1.041198	-1.042493	0.011008	9.853007	-1.042036	-8.343400E+13	-1.319359E-16	NaN
509	1.000000	0.073151	7.37003e+06	-51639.1	1005.82	-29751.6	0.000000	0.000000	6.072776	0.030063	NaN	0.000000	0.001732	0.001747	28.0829	0.097807	0.002026	48.2764	-22.3701	12.0056	0.010284	0.071762	-1.031187	-1.032576	0.030063	48.2764	-1.031654	-6.049624E+13	-4.969422E-16	NaN
509	1.000000	0.083145	7.37003e+06	-51639.1	1005.82	-29751.6	0.000000	0.000000	6.082767	-0.029466	NaN	0.000000	0.001687	0.001771	28.0826	0.031030	0.001880	16.5022	94.3836	-165.243	0.001589	0.081838	-1.021193	-1.022500	-0.029466	16.5022	-1.019854	-4.197483E+13	7.020001E-16	NaN
509	1.000000	0.093163	7.37003e+06	-51639.1	1005.82	-29751.6	0.000000	0.000000	6.092789	0.064397	NaN	0.000000	0.001692	0.001764	28.0828	0.138765	0.002020	68.6846	158.319	16.3232	0.052754	0.091825	-1.011175	-1.012514	0.064397	68.6846	-1.011878	-3.278405E+13	-1.964275E-15	NaN
509	1.000000	0.103137	7.37003e+06	-51639.1	1005.82	-29751.6	0.000000	0.000000	6.102759	-0.021693	NaN	0.000000	0.001691	0.001771	28.0831	0.099445	0.001870	53.1847	-148.423	-165.329	-0.053485	0.101859	-1.001201	-1.002479	-0.021693	53.1847	-1.000895	-2.332498E+13	9.300221E-16	NaN
509	1.000000	0.113149	7.37003e+06	-51639.1	1005.82	-29751.6	0.000000	0.000000	6.112766	-0.137547	NaN	0.000000	0.001687	0.001728	28.0831	0.065216	0.002015	32.3679	-99.4667	15.1075	-0.115719	0.111793	-0.991189	-0.992545	-0.137547	32.3679	-0.988002	-1.563889E+13	8.795171E-15	NaN
509	1.000000	0.123176	7.37003e+06	-51639.1	1005.82	-29751.6	0.000000	0.000000	6.122801	0.052457	NaN	0.000000	0.001688	0.001768	28.0829	0.068338	0.002002	34.1387	115.55	-161.524	0.003873	0.121814	-0.981162	-0.982525	0.052457	34.1387	-0.982315	-1.310983E+13	-4.001380E-15	NaN
509	1.000000	0.133168	7.37003e+06	-51639.1	1005.82	-29751.6	0.000000	0.000000	6.132790	-0.034352	NaN	0.000000	0.001673	0.001746	28.0828	0.089665	0.002028	44.2127	-150.257	13.7058	-0.052798	0.131765	-0.971170	-0.972573	-0.034352	44.2127	-0.970588	-9.111323E+12	3.770259E-15	NaN
509	1.000000	0.143170	7.37003e+06	-51639.1	1005.82	-29751.6	0.000000	0.000000	6.142791	-0.036102	NaN	0.000000	0.001703	0.001734	28.0832	0.070179	0.002011	34.9004	90.3954	-167.661	-0.048717	0.141873	-0.961169	-0.962466	-0.036102	34.9004	-0.960393	-6.639950E+12	5.437145E-15	NaN
509	1.000000	0.153161	7.37003e+06	-51639.1	1005.82	-29751.6	0.000000	0.000000	6.152786	0.043286	NaN	0.000000	0.001694	0.001765	28.0827	0.118204	0.002013	58.7201	2.374965	17.4647	0.028618	0.151815	-0.951177	-0.952523	0.043286	58.7201	-0.951730	-5.074092E+12	-8.530795E-15	NaN
509	1.000000	0.163179	7.37003e+06	-51639.1	1005.82	-29751.6	0.000000	0.000000	6.162803	0.025020	NaN	0.000000	0.001685	0.001734	28.0831	0.118709	0.001917	61.9174	-21.7799	-163.848	-0.003932	0.161881	-0.941159	-0.942457	0.025020	61.9174	-0.941462	-3.688631E+12	-6.783063E-15	NaN
509	1.000000	0.173135	7.37003e+06	-51639.1	1005.82	-29751.6	0.000000	0.000000	6.172761	0.058417	NaN	0.000000	0.001695	0.001757	28.083	0.032565	0.001932	16.8574	59.3294	13.7363	0.081439	0.171804	-0.931203	-0.932534	0.058417	16.8574	-0.933802	-2.907441E+12	-2.009210E-14	NaN
509	1.000000	0.183202	7.37003e+06	-51639.1	1005.82	-29751.6	0.000000	0.000000	6.182822	-0.082610	NaN	0.000000	0.001678	0.001766	28.083	0.052954	0.002049	25.8377	168.262	-166.705	0.001684	0.181851	-0.921136	-0.922487	-0.082610	25.8377	-0.918738	-1.820386E+12	4.538059E-14	NaN
509	1.000000	0.193190	7.37003e+06	-51639.1	1005.82	-29751.6	0.000000	0.000000	6.192814	0.017996	NaN	0.000000	0.001684	0.001732	28.0814	0.162783	0.001992	81.6983	-144.889	16.4453	-0.068808	0.191825	-0.911148	-0.912513	0.017996	81.6983	-0.911313	-1.445109E+12	-1.245298E-14	NaN
509	1.000000	0.203199	7.37003e+06	-51639.1	1005.82	-29751.6	0.000000	0.000000	6.202821	-0.033003	NaN	0.000000	0.001674	0.001727	28.0817	0.083095	0.002025	41.036	103.772	-164.229	-0.039357	0.201864	-0.901139	-0.902474	-0.033003	41.036	-0.900536	-1.033488E+12	3.193370E-14	NaN
509	1.000000	0.213183	7.37003e+06	-51639.1	1005.82	-29751.6	0.000000	0.000000	6.212808	0.034633	NaN	0.000000	0.001653	0.001728	28.0816	0.114108	0.001979	57.6492	94.663	12.1373	-0.044294	0.211781	-0.891155	-0.892557	0.034633	57.6492	-0.891606	-7.827486E+11	-4.424529E-14	NaN
509	1.000000	0.223236	7.37003e+06	-51639.1	1005.82	-29751.6	0.000000	0.000000	6.222859	-0.013280	NaN	0.000000	0.001673	0.001740	28.0817	0.006226	0.001962	3.173435	-1.450987	-165.148	0.025154	0.221894	-0.881102	-0.882444	-0.013280	3.173435	-0.877963	-5.118724E+11	2.594407E-14	NaN
509	1.000000	0.233204	7.37003e+06	-51639.1	1005.82	-29751.6	0.000000	0.000000	6.232829	0.045356	NaN	0.000000	0.001673	0.001716	28.0814	0.091326	0.002157	42.3381	-146.35	13.9594	-0.025024	0.231903	-0.871134	-0.872435	0.045356	42.3381	-0.871938	-4.242878E+11	-1.068990E-13	NaN
509	1.000000	0.243204	7.37003e+06	-51639.1	1005.82	-29751.6	0.000000	0.000000	6.242827	0.009470	NaN	0.000000	0.001649	0.001718	28.0816	0.089777	0.001960	45.7945	-47.8062	-165.56	-0.004808	0.241864	-0.861135	-0.862474	0.009470	45.7945	-0.861290	-3.044923E+11	-3.110250E-14	NaN
509	1.000000	0.253236	7.37003e+06	-51639.1	1005.82	-29751.6	0.000000	0.000000	6.252859	0.008980	NaN	0.000000	0.001682	0.001706	28.0818	0.138642	0.002031	68.2727	-162.263	17.0478	-0.021608	0.251829	-0.851102	-0.852509	0.008980	68.2727	-0.851201	-2.223309E+11	-4.038954E-14	NaN
509	1.000000	0.263238	7.37003e+06	-51639.1	1005.82	-29751.6	0.000000	0.000000	6.262864	0.064970	NaN	0.000000	0.001630	0.001724	28.0818	0.113640	0.001953	58.1749	118.926	-166.365	0.079306	0.261889	-0.841100	-0.842449	0.064970	58.1749	-0.841938	-1.665484E+11	-3.900977E-13	NaN
509	1.000000	0.273214	7.37003e+06	-51639.1	1005.82	-29751.6	0.000000	0.000000	6.272837	0.001714	NaN	0.000000	0.001671	0.001713	28.0818	0.057269	0.002074	27.6142	157.973	18.1061	0.009831	0.271830	-0.831124	-0.832508	0.001714	27.6142	-0.831171	-1.190298E+11	-1.439593E-14	NaN
509	1.000000	0.283234	7.37003e+06	-51639.1	1005.82	-29751.6	0.000000	0.000000	6.282855	-0.050321	NaN	0.000000	0.001701	0.001721	28.0819	0.073379	0.001921	38.2031	62.8394	-165.566	-0.042947	0.281858	-0.821105	-0.822480	-0.050321	38.2031	-0.820117	-8.429351E+10	5.969680E-13	NaN
509	1.000000	0.293227	7.37003e+06	-51639.1	1005.82	-29751.6	0.000000	0.000000	6.292852	0.042682	NaN	0.000000	0.001669	0.001709	28.0821	0.107502	0.001900	56.5709	48.9245	17.4525	0.011523	0.291848	-0.811111	-0.812490	0.042682	56.5709	-0.811677	-6.476295E+10	-6.590446E-13	NaN
509	1.000000	0.303225	7.37003e+06	-51639.1	1005.82	-29751.6	0.000000	0.000000	6.302848	0.006699	NaN	0.000000	0.001657	0.001718	28.0817	0.029460	0.001895	15.5432	39.105	-162.66	0.019882	0.301918	-0.801113	-0.802421	0.006699	15.5432	-0.801436	-4.702849E+10	-1.424398E-13	NaN
509	1.000000	0.313254	7.37003e+06	-51639.1	1005.82	-29751.6	0.000000	0.000000	6.312878	0.017856	NaN	0.000000	0.001654	0.001718	28.0818	0.070384	0.002037	34.5469	117.058	13.5738	0.008703	0.311833	-0.791084	-0.792505	0.017856	34.5469	-0.791472	-3.444058E+10	-5.184463E-13	NaN
509	1.000000	0.323216	7.37003e+06	-51639.1	1005.82	-29751.6	0.000000	0.000000	6.322838	-0.011051	NaN	0.000000	0.001676	0.001755	28.0818	0.023299	0.002029	11.485	-163.475	-167.357	-0.016670	0.321924	-0.781123	-0.782414	-0.011051	11.485	-0.780401	-2.436015E+10	4.536576E-13	NaN
509	1.000000	0.333243	7.37003e+06	-51639.1	1005.82	-29751.6	0.000000	0.000000	6.332869	0.063854	NaN	0.000000	0.001662	0.001745	28.0832	0.023462	0.001897	12.3658	100.14	17.0141	0.064969	0.331898	-0.771095	-0.772440	0.063854	12.3658	-0.774968	-2.055151E+10	-3.107028E-12	NaN
509	1.000000	0.343248	7.37003e+06	-51639.1	1005.82	-29751.6	0.000000	0.000000	6.342869	-0.040763	NaN	0.000000	0.001701	0.001704	28.0833	0.046268	0.002051	22.5612	-105.13	-166.482	0.055133	0.341916	-0.761090	-0.762422	-0.040763	22.5612	-0.759735	-1.275563E+10	3.195656E-12	NaN
509	1.000000	0.353238	7.37003e+06	-51639.1	1005.82	-29751.6	0.000000	0.000000	6.352863	0.044283	NaN	0.000000	0.001708	0.001736	28.0832	0.137247	0.001978	69.3979	-28.3516	16.2018	0.016312	0.351846	-0.751100	-0.752492	0.044283	69.3979	-0.751578	-9.878814E+9	-4.482620E-12	NaN
509	1.000000	0.363262	7.37003e+06	-51639.1	1005.82	-29751.6	0.000000	0.000000	6.362887	0.043013	NaN	0.000000	0.001698	0.001721	28.0831	0.037933	0.002022	18.7608	69.7584	-161.564	0.083426	0.361908	-0.741076	-0.742431	0.043013	18.7608	-0.742795	-7.501146E+9	-5.734229E-12	NaN
509	1.000000	0.373274	7.37003e+06	-51639.1	1005.82	-29751.6	0.000000	0.000000	6.372902	0.110459	NaN	0.000000	0.001697	0.001699	28.0833	0.059516	0.001964	30.3037	-82.3786	17.4571	0.149276	0.371951	-0.731064	-0.732387	0.110459	30.3037	-0.733798	-5.656754E+9	-1.952692E-11	NaN
509	1.000000	0.383294	7.37003e+06	-51639.1	1005.82	-29751.6	0.000000	0.000000	6.382918	0.020856	NaN	0.000000	0.001676	0.001716	28.0832	0.033909	0.002024	16.7496	-173.913	-163.953	0.039279	0.381932	-0.721045	-0.722406	0.020856	16.7496	-0.721978	-3.903497E+9	-5.342972E-12	NaN
509	1.000000	0.393299	7.37003e+06	-51639.1	1005.82	-29751.6	0.000000	0.000000	6.392923	0.012328	NaN	0.000000	0.001659	0.001686	28.0833	0.129637	0.002126	60.982	133.163	17.9812	-0.005253	0.391897	-0.711039	-0.712441	0.012328	60.982	-0.711191	-2.781617E+9	-4.431909E-12	NaN
509	1.000000	0.403289	7.37003e+06	-51639.1	1005.82	-29751.6	0.000000	0.000000	6.402909	-0.078621	NaN	0.000000	0.001650	0.001734	28.0833	0.065419	0.001931	33.8713	38.4002	-167.124	-0.003615	0.401947	-0.701049	-0.702391	-0.078621	33.8713	-0.699309	-1.914643E+9	4.106285E-11	NaN
509	1.000000	0.413261	7.37003e+06	-51639.1	1005.82	-29751.6	0.000000	0.000000	6.412885	0.023526	NaN	0.000000	0.001686	0.001707	28.0829	0.064908	0.002003	32.4117	-7.571479	13.1915	0.024044	0.411932	-0.691077	-0.692407	0.023526	32.4117	-0.691622	-1.503412E+9	-1.564827E-11	NaN
509	1.000000	0.423268	7.37003e+06	-51639.1	1005.82	-29751.6	0.000000	0.000000	6.422890	-0.026788	NaN	0.000000	0.001687	0.001733	28.083	0.062624	0.001937	32.3381	127.471	-164.686	-0.035753	0.421942	-0.681070	-0.682396	-0.026788	32.3381	-0.680449	-1.057652E+9	2.532745E-11	NaN
509	1.000000	0.433298	7.37003e+06	-51639.1	1005.82	-29751.6	0.000000	0.000000	6.432924	0.070984	NaN	0.000000	0.001656	0.001720	28.083	0.120390	0.001992	60.4464	-172.219	14.5431	0.027408	0.431952	-0.671041	-0.672386	0.070984	60.4464	-0.671921	-8.085100E+8	-8.779582E-11	NaN
509	1.000000	0.443286	7.37003e+06	-51639.1	1005.82	-29751.6	0.000000	0.000000	6.442911	0.036964	NaN	0.000000	0.001660	0.001736	28.0833	0.065299	0.001945	33.5793	-38.3984	-164.14	0.130859	0.441995	-0.661052	-0.662344	0.036964	33.5793	-0.661878	-5.890974E+8	-6.274668E-11	NaN
509	1.000000	0.453271	7.37003e+06	-51639.1	1005.82	-29751.6	0.000000	0.000000	6.452895	0.015831	NaN	0.000000	0.001657	0.001735	28.083	0.047305	0.001958	24.1609	32.6447	16.0808	0.022833	0.451951	-0.651067	-0.652387	0.015831	24.1609	-0.651558	-4.253990E+8	-3.721520E-11	NaN
509	1.000000	0.463273	7.37003e+06	-51639.1	1005.82	-29751.6	0.000000	0.000000	6.462896	-0.015159	NaN	0.000000	0.001653	0.001700	28.0818	0.061936	0.002025	30.5782	113.58	-165.44	-0.022952	0.461935	-0.641065	-0.642403	-0.015159	30.5782	-0.640693	-3.018577E+8	5.021967E-11	NaN
509	1.000000	0.473314	7.37003e+06	-51639.1	1005.82	-29751.6	0.000000	0.000000	6.472938	0.013522	NaN	0.000000	0.001648	0.001709	28.0818	0.028879	0.001759	16.4196	100.061	14.1756	-0.060149	0.471919	-0.631024	-0.632419	0.013522	16.4196	-0.631641	-2.267585E+8	-5.963333E-11	NaN
509	1.000000	0.483303	7.37003e+06	-51639.1	1005.82	-29751.6	0.000000	0.000000	6.482925	-0.031813	NaN	0.000000	0.001644	0.001776	28.0817	0.093687	0.002276	41.1661	-121.696	-166.431	-0.034352	0.482006	-0.621035	-0.622332	-0.031813	41.1661	-0.620455	-1.591811E+8	1.998526E-10	NaN
509	1.000000	0.493298	7.37003e+06	-51639.1	1005.82	-29751.6	0.000000	0.000000	6.492924	0.056164	NaN	0.000000	0.001624	0.001716	28.0816	0.088827	0.001949	45.5819	47.7515	15.6903	0.031120	0.491958	-0.611040	-0.612380	0.056164	45.5819	-0.611964	-1.216559E+8	-4.616661E-10	NaN
509	1.000000	0.503307	7.37003e+06	-51639.1	1005.82	-29751.6	0.000000	0.000000	6.502932	0.038891	NaN	0.000000	0.001662	0.001733	28.0818	0.091187	0.001957	46.5981	124.664	-167.426	0.069559	0.502052	-0.601031	-0.602287	0.038891	46.5981	-0.601657	-8.775663E+7	-4.431686E-10	NaN
509	1.000000	0.513310	7.37003e+06	-51639.1	1005.82	-29751.6	0.000000	0.000000	6.512931	-0.056364	NaN	0.000000	0.001643	0.001736	28.082	0.076817	0.001937	39.6586	-169.823	14.9182	-0.125358	0.511980	-0.591028	-0.592358	-0.056364	39.6586	-0.589962	-6.055375E+7	9.308138E-10	NaN
509	1.000000	0.523304	7.37003e+06	-51639.1	1005.82	-29751.6	0.000000	0.000000	6.522928	0.021397	NaN	0.000000	0.001615	0.001732	28.0818	0.027846	0.001950	14.2775	-75.117	-165.211	-0.020145	0.522037	-0.581034	-0.582302	0.021397	14.2775	-0.582158	-4.726191E+7	-4.527415E-10	NaN
509	1.000000	0.533339	7.37003e+06	-51639.1	1005.82	-29751.6	0.000000	0.000000	6.532963	0.016618	NaN	0.000000	0.001610	0.001766	28.0818	0.054978	0.002089	26.3142	19.3857	16.9355	-0.029947	0.531961	-0.570999	-0.572377	0.016618	26.3142	-0.571473	-3.364939E+7	-4.938536E-10	NaN
509	1.000000	0.543324	7.37003e+06	-51639.1	1005.82	-29751.6	0.000000	0.000000	6.542946	-0.038278	NaN	0.000000	0.001613	0.001759	28.0821	0.046932	0.001941	24.185	-45.0733	-160.6	0.006944	0.542018	-0.561014	-0.562320	-0.038278	24.185	-0.559827	-2.322627E+7	1.648053E-9	NaN
509	1.000000	0.553322	7.37003e+06	-51639.1	1005.82	-29751.6	0.000000	0.000000	6.552943	-0.043629	NaN	0.000000	0.001594	0.001714	28.0821	0.096322	0.001997	48.2294	39.2258	16.9315	0.046596	0.551945	-0.551017	-0.552393	-0.043629	48.2294	-0.550338	-1.716482E+7	2.541765E-9	NaN
509	1.000000	0.563326	7.37003e+06	-51639.1	1005.82	-29751.6	0.000000	0.000000	6.562949	-0.009775	NaN	0.000000	0.001626	0.001722	28.082	0.125421	0.001914	65.5313	-41.0791	-162.43	-0.024536	0.562009	-0.541012	-0.542329	-0.009775	65.5313	-0.540900	-1.270106E+7	7.696562E-10	NaN
509	1.000000	0.573336	7.37003e+06	-51639.1	1005.82	-29751.6	0.000000	0.000000	6.572959	-0.026543	NaN	0.000000	0.001635	0.001749	28.082	0.071583	0.002020	35.441	151.429	12.1993	-0.071901	0.571987	-0.531002	-0.532351	-0.026543	35.441	-0.530440	-9.09256e+06	2.919251E-9	NaN
509	1.000000	0.583371	7.37003e+06	-51639.1	1005.82	-29751.6	0.000000	0.000000	6.582995	0.013326	NaN	0.000000	0.001642	0.001772	28.0821	0.031958	0.002018	15.8362	140.138	-161.935	0.019831	0.582023	-0.520967	-0.522316	0.013326	15.8362	-0.521598	-6.85209e+06	-1.944803E-9	NaN
509	1.000000	0.593335	7.37003e+06	-51639.1	1005.82	-29751.6	0.000000	0.000000	6.592957	-0.025046	NaN	0.000000	0.001623	0.001725	28.082	0.050310	0.001931	26.0563	-171.133	19.1613	0.010695	0.591988	-0.511003	-0.512351	-0.025046	26.0563	-0.510282	-4.76811e+06	5.252733E-9	NaN
509	1.000000	0.603338	7.37003e+06	-51639.1	1005.82	-29751.6	0.000000	0.000000	6.602964	0.050330	NaN	0.000000	0.001641	0.001756	28.0835	0.039259	0.001962	20.007	154.064	-164.381	0.032772	0.602076	-0.501000	-0.502262	0.050330	20.007	-0.502887	-3.7608e+06	-1.338283E-8	NaN
509	1.000000	0.613350	7.37003e+06	-51639.1	1005.82	-29751.6	0.000000	0.000000	6.612976	0.058572	NaN	0.000000	0.001633	0.001699	28.0833	0.042473	0.002043	20.7883	73.0768	14.2312	0.049568	0.611986	-0.490988	-0.492352	0.058572	20.7883	-0.493101	-2.74609e+06	-2.132939E-8	NaN
509	1.000000	0.623341	7.37003e+06	-51639.1	1005.82	-29751.6	0.000000	0.000000	6.622965	0.003427	NaN	0.000000	0.001640	0.001723	28.0838	0.088633	0.002037	43.505	28.3488	-165.023	-0.042460	0.622036	-0.480997	-0.482302	0.003427	43.505	-0.481056	-1.8634e+06	-1.839135E-9	NaN
509	1.000000	0.633390	7.37003e+06	-51639.1	1005.82	-29751.6	0.000000	0.000000	6.633012	-0.038699	NaN	0.000000	0.001628	0.001732	28.0832	0.168914	0.002195	76.9529	64.9793	12.4593	0.006259	0.632006	-0.470948	-0.472332	-0.038699	76.9529	-0.470571	-1.32865e+06	2.912648E-8	NaN
509	1.000000	0.643349	7.37003e+06	-51639.1	1005.82	-29751.6	0.000000	0.000000	6.642973	0.018817	NaN	0.000000	0.001642	0.001724	28.0832	0.036495	0.001877	19.4477	93.7219	-164.182	-0.055051	0.642063	-0.460989	-0.462275	0.018817	19.4477	-0.461715	-997964	-1.885503E-8	NaN
509	1.000000	0.653384	7.37003e+06	-51639.1	1005.82	-29751.6	0.000000	0.000000	6.653005	-0.040312	NaN	0.000000	0.001662	0.001709	28.0832	0.151128	0.002011	75.138	84.287	12.3021	-0.024926	0.651983	-0.450954	-0.452356	-0.040312	75.138	-0.450552	-695209	5.798580E-8	NaN
509	1.000000	0.663382	7.37003e+06	-51639.1	1005.82	-29751.6	0.000000	0.000000	6.663006	0.009346	NaN	0.000000	0.001662	0.001746	28.0835	0.023854	0.002011	11.8645	85.1917	-161.293	0.044462	0.662107	-0.440956	-0.442231	0.009346	11.8645	-0.441547	-519030	-1.800686E-8	NaN
509	1.000000	0.673414	7.37003e+06	-51639.1	1005.82	-29751.6	0.000000	0.000000	6.673038	0.030211	NaN	0.000000	0.001642	0.001716	28.0836	0.060833	0.001972	30.8408	27.0972	13.44	-0.004425	0.672075	-0.430925	-0.432263	0.030211	30.8408	-0.431659	-376297	-8.028518E-8	NaN
509	1.000000	0.683398	7.37003e+06	-51639.1	1005.82	-29751.6	0.000000	0.000000	6.683020	-0.032149	NaN	0.000000	0.001637	0.001753	28.0835	0.077798	0.002047	37.9981	67.2869	-166.613	-0.048952	0.682057	-0.420940	-0.422281	-0.032149	37.9981	-0.420305	-259865	1.237132E-7	NaN
509	1.000000	0.693403	7.37003e+06	-51639.1	1005.82	-29751.6	0.000000	0.000000	6.693023	-0.072294	NaN	0.000000	0.001631	0.001761	28.0835	0.063881	0.001946	32.8279	5.610424	14.8583	0.037698	0.692064	-0.410935	-0.412274	-0.072294	32.8279	-0.409283	-181221	3.989272E-7	NaN
509	1.000000	0.703408	7.37003e+06	-51639.1	1005.82	-29751.6	0.000000	0.000000	6.703034	0.057248	NaN	0.000000	0.001556	0.001737	28.0837	0.223696	0.002083	107.372	141.163	-165.55	0.026121	0.702070	-0.400930	-0.402268	0.057248	107.372	-0.401330	-139623	-4.100194E-7	NaN
509	1.000000	0.713409	7.37003e+06	-51639.1	1005.82	-29751.6	0.000000	0.000000	6.713030	-0.056065	NaN	0.000000	0.001563	0.001738	28.0834	0.068214	0.002014	33.8737	172.84	14.1548	-0.062706	0.712002	-0.390929	-0.392336	-0.056065	33.8737	-0.389688	-95214.4	5.888297E-7	NaN
509	1.000000	0.723412	7.37003e+06	-51639.1	1005.82	-29751.6	0.000000	0.000000	6.723037	0.048524	NaN	0.000000	0.001541	0.001776	28.0832	0.112184	0.001888	59.4317	59.5582	-166.897	0.029237	0.722124	-0.380926	-0.382214	0.048524	59.4317	-0.381538	-72771.5	-6.667983E-7	NaN
509	1.000000	0.733443	7.37003e+06	-51639.1	1005.82	-29751.6	0.000000	0.000000	6.733068	0.030923	NaN	0.000000	0.001568	0.001815	28.083	0.036518	0.002043	17.8732	94.8374	14.8022	0.092145	0.732041	-0.370895	-0.372297	0.030923	17.8732	-0.372193	-53418.7	-5.788880E-7	NaN
509	1.000000	0.743411	7.37003e+06	-51639.1	1005.82	-29751.6	0.000000	0.000000	6.743034	0.002679	NaN	0.000000	0.001535	0.001754	28.0821	0.060476	0.002001	30.2238	94.7864	-162.033	-0.001192	0.742154	-0.360927	-0.362184	0.002679	30.2238	-0.360994	-36830.5	-7.274341E-8	NaN
509	1.000000	0.753421	7.37003e+06	-51639.1	1005.82	-29751.6	0.000000	0.000000	6.753044	-0.007059	NaN	0.000000	0.001557	0.001731	28.0823	0.159957	0.001960	81.6281	13.7643	15.6489	0.004308	0.752061	-0.350917	-0.352277	-0.007059	81.6281	-0.350852	-26264.7	2.687649E-7	NaN
509	1.000000	0.763415	7.37003e+06	-51639.1	1005.82	-29751.6	0.000000	0.000000	6.763039	0.017132	NaN	0.000000	0.001576	0.001780	28.082	0.034136	0.001952	17.484	29.7141	-164.876	0.065831	0.762131	-0.340923	-0.342207	0.017132	17.484	-0.341658	-19306.9	-8.873287E-7	NaN
509	1.000000	0.773427	7.37003e+06	-51639.1	1005.82	-29751.6	0.000000	0.000000	6.773050	-0.006833	NaN	0.000000	0.001577	0.001745	28.0824	0.050917	0.001912	26.6243	-148.433	13.9032	-0.055648	0.772102	-0.330911	-0.332236	-0.006833	26.6243	-0.330718	-13365	5.112614E-7	NaN
509	1.000000	0.783428	7.37003e+06	-51639.1	1005.82	-29751.6	0.000000	0.000000	6.783052	0.022121	NaN	0.000000	0.001569	0.001736	28.082	0.034180	0.001951	17.5195	-100.348	-164.472	0.006101	0.782120	-0.320911	-0.322218	0.022121	17.5195	-0.321858	-9907.57	-2.232775E-6	NaN
509	1.000000	0.793443	7.37003e+06	-51639.1	1005.82	-29751.6	0.000000	0.000000	6.793064	-0.055531	NaN	0.000000	0.001601	0.001779	28.0821	0.041640	0.001964	21.2028	2.171356	13.2268	0.007730	0.792063	-0.310895	-0.312275	-0.055531	21.2028	-0.308931	-6385.97	8.695848E-6	NaN
509	1.000000	0.803439	7.37003e+06	-51639.1	1005.82	-29751.6	0.000000	0.000000	6.803063	0.013665	NaN	0.000000	0.001600	0.001696	28.0822	0.092480	0.001978	46.7505	59.2269	-167.239	-0.101353	0.802107	-0.300899	-0.302231	0.013665	46.7505	-0.301118	-4889.63	-2.794752E-6	NaN
509	1.000000	0.813422	7.37003e+06	-51639.1	1005.82	-29751.6	0.000000	0.000000	6.813046	0.021208	NaN	0.000000	0.001571	0.001749	28.0823	0.043106	0.001938	22.2402	82.3309	12.6751	-0.048576	0.812046	-0.290916	-0.292292	0.021208	22.2402	-0.291631	-3529.61	-6.008641E-6	NaN
509	1.000000	0.823434	7.37003e+06	-51639.1	1005.82	-29751.6	0.000000	0.000000	6.823058	0.038751	NaN	0.000000	0.001554	0.001730	28.0822	0.143003	0.002071	69.0546	-84.7633	-167.313	-0.071046	0.822134	-0.280905	-0.282204	0.038751	69.0546	-0.281325	-2471.47	-1.567914E-5	NaN
509	1.000000	0.833434	7.37003e+06	-51639.1	1005.82	-29751.6	0.000000	0.000000	6.833058	0.030656	NaN	0.000000	0.001571	0.001694	28.082	0.062859	0.001930	32.5776	96.1971	14.8604	-0.032120	0.832067	-0.270905	-0.272271	0.030656	32.5776	-0.271610	-1762.01	-1.739814E-5	NaN
509	1.000000	0.843482	7.37003e+06	-51639.1	1005.82	-29751.6	0.000000	0.000000	6.843105	-0.020470	NaN	0.000000	0.001628	0.001771	28.0823	0.029074	0.002044	14.2213	-81.4196	-165.464	-0.069934	0.842101	-0.260856	-0.262238	-0.020470	14.2213	-0.259776	-1162.76	1.760488E-5	NaN
509	1.000000	0.853462	7.37003e+06	-51639.1	1005.82	-29751.6	0.000000	0.000000	6.853084	-0.013249	NaN	0.000000	0.001623	0.001754	28.0823	0.140992	0.001962	71.8435	-159.616	20.1927	-0.033616	0.852142	-0.250877	-0.252197	-0.013249	71.8435	-0.250738	-844.074	1.569652E-5	NaN
509	1.000000	0.863470	7.37003e+06	-51639.1	1005.82	-29751.6	0.000000	0.000000	6.863094	0.015166	NaN	0.000000	0.001671	0.001735	28.0821	0.064578	0.001963	32.9046	108.155	-161.967	0.025275	0.862123	-0.240868	-0.242215	0.015166	32.9046	-0.241214	-600.482	-2.525616E-5	NaN
509	1.000000	0.873488	7.37003e+06	-51639.1	1005.82	-29751.6	0.000000	0.000000	6.873112	0.024142	NaN	0.000000	0.001611	0.001697	28.0834	0.100718	0.002020	49.8578	-155.33	15.8968	0.037664	0.872124	-0.230851	-0.232214	0.024142	49.8578	-0.231214	-418.474	-5.769035E-5	NaN
509	1.000000	0.883483	7.37003e+06	-51639.1	1005.82	-29751.6	0.000000	0.000000	6.883104	-0.042402	NaN	0.000000	0.001594	0.001748	28.0834	0.023560	0.002069	11.3844	156.952	-165.165	0.012280	0.882182	-0.220855	-0.222157	-0.042402	11.3844	-0.218062	-258.621	0.000164	NaN
509	1.000000	0.893506	7.37003e+06	-51639.1	1005.82	-29751.6	0.000000	0.000000	6.893130	0.031489	NaN	0.000000	0.001644	0.001731	28.0836	0.108120	0.001882	57.442	122.265	8.775055	-0.026666	0.892099	-0.210833	-0.212239	0.031489	57.442	-0.211244	-200.883	-0.000157	NaN
509	1.000000	0.903480	7.37003e+06	-51639.1	1005.82	-29751.6	0.000000	0.000000	6.903102	-0.043335	NaN	0.000000	0.001626	0.001770	28.0833	0.046301	0.001945	23.8007	-88.7289	-164.927	-0.082063	0.902137	-0.200858	-0.202201	-0.043335	23.8007	-0.199492	-129.226	0.000335	NaN
509	1.000000	0.913508	7.37003e+06	-51639.1	1005.82	-29751.6	0.000000	0.000000	6.913132	0.006754	NaN	0.000000	0.001588	0.001755	28.0834	0.096662	0.001954	49.4639	-107.426	17.0402	-0.038133	0.912105	-0.190830	-0.192233	0.006754	49.4639	-0.190933	-93.2384	-7.243923E-5	NaN
509	1.000000	0.923475	7.37003e+06	-51639.1	1005.82	-29751.6	0.000000	0.000000	6.923102	0.098975	NaN	0.000000	0.001636	0.001776	28.0833	0.119747	0.002047	58.489	151.171	-163.943	0.093999	0.922174	-0.180863	-0.182164	0.098975	58.489	-0.182133	-66.3246	-0.001492	NaN
509	1.000000	0.933474	7.37003e+06	-51639.1	1005.82	-29751.6	0.000000	0.000000	6.933100	0.060506	NaN	0.000000	0.001575	0.001804	28.0833	0.026869	0.001964	13.6773	48.9506	13.7582	0.137269	0.932148	-0.170864	-0.172191	0.060506	13.6773	-0.174182	-48.5183	-0.001247	NaN
509	1.000000	0.943488	7.37003e+06	-51639.1	1005.82	-29751.6	0.000000	0.000000	6.943111	-0.007790	NaN	0.000000	0.001631	0.001753	28.0833	0.079356	0.002032	39.0442	-59.3047	-165.233	0.011128	0.942198	-0.160850	-0.162140	-0.007790	39.0442	-0.160701	-28.2114	0.000276	NaN
509	1.000000	0.953493	7.37003e+06	-51639.1	1005.82	-29751.6	0.000000	0.000000	6.953116	0.006791	NaN	0.000000	0.001641	0.001761	28.0833	0.013360	0.002050	6.516780	72.7472	14.0846	0.052442	0.952146	-0.150845	-0.152192	0.006791	6.516780	-0.151627	-19.3915	-0.000350	NaN
509	1.000000	0.963523	7.37003e+06	-51639.1	1005.82	-29751.6	0.000000	0.000000	6.963145	-0.029612	NaN	0.000000	0.001637	0.001747	28.0839	0.018944	0.002023	9.362725	-14.9398	-166.159	0.020267	0.962197	-0.140815	-0.142141	-0.029612	9.362725	-0.138443	-11.0573	0.002678	NaN
509	1.000000	0.973500	7.37004e+06	-51639.1	1005.82	-29751.6	0.000000	0.000000	6.973126	0.049227	NaN	0.000000	0.001602	0.001752	28.0834	0.029001	0.002064	14.0544	-49.1177	17.0595	0.076149	0.972116	-0.130838	-0.132222	0.049227	14.0544	-0.133465	-8.890016	-0.005537	NaN
509	1.000000	0.983526	7.37004e+06	-51639.1	1005.82	-29751.6	0.000000	0.000000	6.983151	0.050904	NaN	0.000000	0.001626	0.001751	28.0836	0.001827	0.001938	0.942460	9.891072	-165.788	-0.007313	0.982178	-0.120812	-0.122160	0.050904	0.942460	-0.161321	-28.9346	-0.001759	NaN
509	1.000000	0.993518	7.37004e+06	-51639.1	1005.82	-29751.6	0.000000	0.000000	6.993139	-0.052642	NaN	0.000000	0.001677	0.001767	28.0832	0.071422	0.002054	34.7671	-61.6675	17.06	0.059620	0.992147	-0.110820	-0.112191	-0.052642	34.7671	-0.109684	-2.959465	0.017788	NaN
509	1.000000	1.003507	7.37004e+06	-51639.1	1005.82	-29751.6	0.000000	0.000000	7.003129	-0.025721	NaN	0.000000	0.001647	0.001785	28.084	0.044874	0.001963	22.8621	-22.3884	-166.174	-0.075494	1.002180	-0.100831	-0.102158	-0.025721	22.8621	-0.099987	-1.825957	0.014086	NaN
509	1.000000	1.013552	7.37004e+06	-51639.1	1005.82	-29751.6	0.000000	0.000000	7.013175	-0.006626	NaN	0.000000	0.001621	0.001760	28.0821	0.048530	0.002033	23.8683	-76.7944	14.2262	-0.036939	1.012131	-0.090787	-0.092207	-0.006626	23.8683	-0.090578	-1.115228	0.005941	NaN
509	1.000000	1.023525	7.37004e+06	-51639.1	1005.82	-29751.6	0.000000	0.000000	7.023149	0.013058	NaN	0.000000	0.001635	0.001764	28.0823	0.036051	0.002019	17.8579	120.832	-165.109	-0.049603	1.022198	-0.080813	-0.082140	0.013058	17.8579	-0.081362	-0.669242	-0.019512	NaN
509	1.000000	1.033516	7.37004e+06	-51639.1	1005.82	-29751.6	0.000000	0.000000	7.033139	0.000351	NaN	0.000000	0.001636	0.001745	28.082	0.033939	0.001949	17.4097	94.3479	10.428	-0.003738	1.032123	-0.070822	-0.072216	0.000351	17.4097	-0.070837	-0.359128	-0.000978	NaN
509	1.000000	1.043520	7.37004e+06	-51639.1	1005.82	-29751.6	0.000000	0.000000	7.043144	0.006352	NaN	0.000000	0.001634	0.001785	28.0824	0.041169	0.001931	21.3223	66.6876	-164.038	-0.035087	1.042210	-0.060818	-0.062129	0.006352	21.3223	-0.061041	-0.192869	-0.032932	NaN
509	1.000000	1.053560	7.37004e+06	-51639.1	1005.82	-29751.6	0.000000	0.000000	7.053181	-0.062246	NaN	0.000000	0.001689	0.001770	28.0819	0.027116	0.001977	13.7183	27.6293	15.0855	-0.057303	1.052201	-0.050778	-0.052137	-0.062246	13.7183	-0.047375	-0.075947	0.819602	NaN
509	1.000000	1.063562	7.37004e+06	-51639.1	1005.82	-29751.6	0.000000	0.000000	7.063186	-0.002743	NaN	0.000000	0.001654	0.001733	28.082	0.129757	0.002158	60.1304	143.064	-164.53	0.052803	1.062231	-0.040776	-0.042108	-0.002743	60.1304	-0.040741	-0.047632	0.057592	NaN
509	1.000000	1.073554	7.37004e+06	-51639.1	1005.82	-29751.6	0.000000	0.000000	7.073178	0.036944	NaN	0.000000	0.001612	0.001744	28.082	0.095330	0.002123	44.9071	-40.5995	13.1747	-0.031547	1.072209	-0.030785	-0.032129	0.036944	44.9071	-0.031402	-0.025198	-1.466104	NaN
509	1.000000	1.083533	7.37004e+06	-51639.1	1005.82	-29751.6	0.000000	0.000000	7.083160	0.086242	NaN	0.000000	0.001628	0.001735	28.0821	0.100210	0.002065	48.5352	161.502	-166.371	0.006200	1.082258	-0.020805	-0.022080	0.086242	48.5352	-0.022138	-0.014236	-6.058164	NaN
509	1.000000	1.093541	7.37004e+06	-51639.1	1005.82	-29751.6	0.000000	0.000000	7.093165	0.012268	NaN	0.000000	0.001667	0.001746	28.082	0.090006	0.001924	46.7753	107.746	15.7826	0.029069	1.092220	-0.010797	-0.012118	0.012268	46.7753	-0.010994	-0.006955	-1.763970	NaN
509	1.000000	1.103507	7.37004e+06	-51639.1	1005.82	-29751.6	0.000000	0.000000	7.103226	2.306827	NaN	0.000000	0.001597	0.001774	28.0822	3.365689	0.001948	1727.38	11.6042	-167.521	0.937173	1.102218	-0.000831	-0.002120	2.306827	1727.38	-0.001832	-0.001323	-1744.05	NaN
509	2.000000	1.109526	7.37004e+06	-51639.1	1005.82	-29751.6	0.000000	0.000000	7.109655	12.3183	NaN	0.000000	0.001635	0.001786	28.0823	10.7794	0.001535	7022.72	5.425741	7.373651	10.8715	1.109191	0.005187	0.004853	12.3183	7022.72	0.003872	0.003127	3939.42	114741
509	2.000000	1.112032	7.37004e+06	-51639.1	1005.82	-29751.6	0.000000	0.000000	7.112320	16.159	NaN	0.000000	0.001636	0.001829	28.0823	14.6646	0.001756	8350.33	5.332422	-172.459	15.2576	1.111714	0.007694	0.007376	16.159	8350.33	0.006243	0.005296	3051.08	104833
509	2.000000	1.114502	7.37004e+06	-51639.1	1005.82	-29751.6	0.000000	0.000000	7.115073	23.0575	NaN	0.000000	0.001598	0.001772	28.0822	16.7879	0.001713	9798.16	3.445695	9.741433	21.9185	1.114100	0.010164	0.009762	23.0575	9798.16	0.008399	0.007456	3092.63	103675
509	2.000000	1.116957	7.37004e+06	-51639.1	1005.82	-29751.6	0.000000	0.000000	7.117754	28.5473	NaN	0.000000	0.001581	0.001768	28.0822	20.3552	0.001873	10866.8	7.400725	-176.383	27.6168	1.116648	0.012619	0.012310	28.5473	10866.8	0.010648	0.009911	2880.39	99728
509	2.000000	1.119443	7.37004e+06	-51639.1	1005.82	-29751.6	0.000000	0.000000	7.120567	36.4961	NaN	0.000000	0.001635	0.001711	28.0835	23.1271	0.001806	12803.1	6.432747	2.620628	33.2778	1.119126	0.015105	0.014788	36.4961	12803.1	0.012967	0.012669	2880.72	103924
509	2.000000	1.121992	7.37004e+06	-51639.1	1005.82	-29751.6	0.000000	0.000000	7.123407	43.5587	NaN	0.000000	0.001604	0.001709	28.0835	25.6125	0.001642	15597.2	4.162356	-178.434	42.4396	1.121680	0.017654	0.017341	43.5587	15597.2	0.015559	0.016039	2715.86	112522
509	2.000000	1.124448	7.37004e+06	-51639.1	1005.82	-29751.6	0.000000	0.000000	7.126242	52.7994	NaN	0.000000	0.001622	0.001709	28.0835	28.5531	0.001717	16627.1	9.216175	-3.111071	51.0218	1.124126	0.020109	0.019788	52.7994	16627.1	0.017728	0.019097	2764.84	109928
509	2.000000	1.126916	7.37004e+06	-51639.1	1005.82	-29751.6	0.000000	0.000000	7.129040	60.8093	NaN	0.000000	0.001637	0.001717	28.0835	30.2817	0.001785	16962.9	3.636875	-177.325	59.1943	1.126645	0.022578	0.022307	60.8093	16962.9	0.019889	0.022369	2718.52	103623
509	2.000000	1.129403	7.37004e+06	-51639.1	1005.82	-29751.6	0.000000	0.000000	7.131889	69.619	NaN	0.000000	0.001643	0.001719	28.0834	33.6386	0.001737	19362.8	7.036692	-1.814307	66.7139	1.129073	0.025064	0.024735	69.619	19362.8	0.022368	0.026400	2637.05	108877
509	2.000000	1.131908	7.37004e+06	-51639.1	1005.82	-29751.6	0.000000	0.000000	7.134673	76.4019	NaN	0.000000	0.001596	0.001734	28.0835	36.9465	0.001818	20322.3	7.792774	176.43	74.0714	1.131662	0.027570	0.027324	76.4019	20322.3	0.024750	0.030563	2499.84	106206
509	2.000000	1.134436	7.37004e+06	-51639.1	1005.82	-29751.6	0.000000	0.000000	7.137710	88.7841	NaN	0.000000	0.001616	0.001745	28.0834	38.4493	0.001799	21376.9	4.840385	-0.374887	86.8097	1.134080	0.030098	0.029742	88.7841	21376.9	0.026983	0.034722	2557	104813
509	2.000000	1.136902	7.37004e+06	-51639.1	1005.82	-29751.6	0.000000	0.000000	7.140538	97.5833	NaN	0.000000	0.001642	0.001744	28.0833	40.2661	0.001805	22304.6	1.941079	-177.834	95.1333	1.136567	0.032564	0.032229	97.5833	22304.6	0.029282	0.039269	2484.98	102835
509	2.000000	1.139421	7.37004e+06	-51639.1	1005.82	-29751.6	0.000000	0.000000	7.143566	109.961	NaN	0.000000	0.001646	0.001726	28.0834	43.2853	0.001724	25110.3	5.430974	-1.885970	107.462	1.139006	0.035083	0.034668	109.961	25110.3	0.031798	0.044554	2468.06	108688
509	2.000000	1.141909	7.37004e+06	-51639.1	1005.82	-29751.6	0.000000	0.000000	7.146437	119.266	NaN	0.000000	0.001623	0.001732	28.0834	46.6173	0.001745	26722.2	1.071675	-179.054	116.447	1.141603	0.037570	0.037265	119.266	26722.2	0.034223	0.049952	2387.59	109236
509	2.000000	1.144448	7.37004e+06	-51639.1	1005.82	-29751.6	0.000000	0.000000	7.149622	134.987	NaN	0.000000	0.001580	0.001732	28.0835	49.0791	0.001793	27367.2	6.541500	-4.353267	133.394	1.144085	0.040110	0.039747	134.987	27367.2	0.036410	0.055081	2450.71	106538
509	2.000000	1.146968	7.37004e+06	-51639.1	1005.82	-29751.6	0.000000	0.000000	7.152607	146.283	NaN	0.000000	0.001633	0.001734	28.0833	50.6119	0.001712	29554.8	2.212222	179.543	149.189	1.146615	0.042630	0.042277	146.283	29554.8	0.038918	0.061262	2387.85	109096
509	2.000000	1.149339	7.37004e+06	-51639.1	1005.82	-29751.6	0.000000	0.000000	7.155632	162.18	NaN	0.000000	0.001639	0.001769	28.0833	54.0461	0.001737	31122.1	4.165579	-4.242171	156.01	1.149081	0.045001	0.044742	162.18	31122.1	0.041092	0.066882	2424.88	109948
509	2.000000	1.151815	7.37004e+06	-51639.1	1005.82	-29751.6	0.000000	0.000000	7.158464	170.858	NaN	0.000000	0.001636	0.001743	28.082	57.1772	0.001848	30939.9	2.217795	178.907	166.17	1.151622	0.047477	0.047284	170.858	30939.9	0.043335	0.072930	2342.75	104674
509	2.000000	1.154439	7.37004e+06	-51639.1	1005.82	-29751.6	0.000000	0.000000	7.161915	190.944	NaN	0.000000	0.001600	0.001743	28.0822	58.3192	0.001747	33375.9	2.767819	-2.757093	188.524	1.154054	0.050101	0.049716	190.944	33375.9	0.045810	0.079903	2389.69	107876
509	2.000000	1.156852	7.37004e+06	-51639.1	1005.82	-29751.6	0.000000	0.000000	7.164772	201.736	NaN	0.000000	0.001624	0.001754	28.082	60.6202	0.001815	33396.1	5.280604	174.495	198.901	1.156588	0.052514	0.052249	201.736	33396.1	0.047983	0.086282	2338.11	103875
509	2.000000	1.159420	7.37004e+06	-51639.1	1005.82	-29751.6	0.000000	0.000000	7.167775	212.317	NaN	0.000000	0.001625	0.001777	28.0825	63.7809	0.001768	36075.2	4.592858	-4.750540	211.922	1.158980	0.055082	0.054642	212.317	36075.2	0.050668	0.094489	2247.01	107224
509	2.000000	1.161892	7.37004e+06	-51639.1	1005.82	-29751.6	0.000000	0.000000	7.170920	228.678	NaN	0.000000	0.001570	0.001771	28.082	67.1321	0.001804	37205.1	3.097525	176.328	227.484	1.161634	0.057554	0.057296	228.678	37205.1	0.052944	0.101730	2247.89	106574
509	2.000000	1.164361	7.37004e+06	-51639.1	1005.82	-29751.6	0.000000	0.000000	7.173940	242.081	NaN	0.000000	0.001556	0.001777	28.0824	68.817	0.001762	39066.2	4.996535	-5.301821	238.653	1.164120	0.060023	0.059782	242.081	39066.2	0.055376	0.109751	2205.74	107739
509	2.000000	1.166813	7.37004e+06	-51639.1	1005.82	-29751.6	0.000000	0.000000	7.177122	259.853	NaN	0.000000	0.001565	0.001711	28.0821	71.6	0.001825	39230.2	4.602588	175.171	254.748	1.166520	0.062475	0.062182	259.853	39230.2	0.057507	0.117020	2220.59	104776
509	2.000000	1.169259	7.37004e+06	-51639.1	1005.82	-29751.6	0.000000	0.000000	7.180042	271.348	NaN	0.000000	0.001572	0.001725	28.083	74.4728	0.001864	39950.8	3.404898	-4.770990	262.483	1.169038	0.064921	0.064700	271.348	39950.8	0.059827	0.125190	2167.5	103161
509	2.000000	1.171886	7.37004e+06	-51639.1	1005.82	-29751.6	0.000000	0.000000	7.183609	294.229	NaN	0.000000	0.001552	0.001714	28.082	76.9951	0.001870	41173.7	3.629913	175.451	292.702	1.171481	0.067548	0.067143	294.229	41173.7	0.062188	0.133771	2199.49	102852
509	2.000000	1.174427	7.37004e+06	-51639.1	1005.82	-29751.6	0.000000	0.000000	7.186886	312.107	NaN	0.000000	0.001565	0.001725	28.0824	79.0037	0.001827	43234.8	8.171979	-9.071071	311.666	1.173876	0.070089	0.069538	312.107	43234.8	0.064675	0.143104	2180.99	104419
509	2.000000	1.176874	7.37004e+06	-51639.1	1005.82	-29751.6	0.000000	0.000000	7.190203	333.252	NaN	0.000000	0.001564	0.001735	28.082	81.049	0.001831	44257.9	8.934048	169.127	332.936	1.176567	0.072536	0.072229	333.252	44257.9	0.066889	0.151663	2197.32	103830
509	2.000000	1.179272	7.37004e+06	-51639.1	1005.82	-29751.6	0.000000	0.000000	7.193241	348.824	NaN	0.000000	0.001588	0.001767	28.0828	83.3211	0.001813	45954.7	3.682289	-5.766647	342.702	1.179006	0.074934	0.074668	348.824	45954.7	0.069241	0.161015	2166.41	104633
509	2.000000	1.181842	7.37004e+06	-51639.1	1005.82	-29751.6	0.000000	0.000000	7.196691	370.233	NaN	0.000000	0.001591	0.001776	28.082	86.2447	0.001763	48919.3	3.745011	173.472	367.065	1.181568	0.077504	0.077230	370.233	48919.3	0.071828	0.171603	2157.5	107893
509	2.000000	1.184327	7.37004e+06	-51639.1	1005.82	-29751.6	0.000000	0.000000	7.200098	392.659	NaN	0.000000	0.001600	0.001818	28.0823	87.8209	0.001791	49036.6	3.285505	-5.757417	386.878	1.184029	0.079988	0.079691	392.659	49036.6	0.073983	0.180666	2173.4	105403
509	2.000000	1.186830	7.37004e+06	-51639.1	1005.82	-29751.6	0.000000	0.000000	7.203400	412.063	NaN	0.000000	0.001581	0.001799	28.0833	89.665	0.001742	51479.4	5.413099	171.735	409.703	1.186486	0.082492	0.082148	412.063	51479.4	0.076489	0.191481	2151.97	107484
509	2.000000	1.189342	7.37004e+06	-51639.1	1005.82	-29751.6	0.000000	0.000000	7.206411	424.211	NaN	0.000000	0.001580	0.001827	28.0835	92.623	0.001800	51450.8	5.356959	-8.777323	421.315	1.189087	0.085004	0.084749	424.211	51450.8	0.078820	0.201805	2102.08	104640
509	2.000000	1.191919	7.37004e+06	-51639.1	1005.82	-29751.6	0.000000	0.000000	7.209717	441.92	NaN	0.000000	0.001615	0.001760	28.0833	95.9243	0.001688	56840	6.817009	168.989	442.568	1.191652	0.087581	0.087314	441.92	56840	0.081750	0.215143	2054.07	111960
509	2.000000	1.194439	7.37004e+06	-51639.1	1005.82	-29751.6	0.000000	0.000000	7.213661	476.553	NaN	0.000000	0.001575	0.001772	28.0835	97.3357	0.001836	53026.4	4.665578	-7.251230	476.086	1.193940	0.090101	0.089602	476.553	53026.4	0.083361	0.222644	2140.42	102674
509	2.000000	1.196850	7.37004e+06	-51639.1	1005.82	-29751.6	0.000000	0.000000	7.216673	491.19	NaN	0.000000	0.001583	0.001838	28.0834	99.8915	0.001717	58185.9	4.696660	171.311	490.138	1.196723	0.092512	0.092385	491.19	58185.9	0.086180	0.236065	2080.74	109415
509	2.000000	1.199226	7.37004e+06	-51639.1	1005.82	-29751.6	0.000000	0.000000	7.220064	515.848	NaN	0.000000	0.001590	0.001798	28.0832	103.007	0.001790	57559.4	2.638962	-6.530972	506.02	1.198880	0.094888	0.094542	515.848	57559.4	0.088167	0.245739	2099.17	106085
509	2.000000	1.201827	7.37004e+06	-51639.1	1005.82	-29751.6	0.000000	0.000000	7.223951	547.122	NaN	0.000000	0.001577	0.001791	28.0832	105.255	0.001721	61150.4	3.373998	172.832	545.501	1.201511	0.097489	0.097173	547.122	61150.4	0.090779	0.258737	2114.59	109836
509	2.000000	1.204401	7.37004e+06	-51639.1	1005.82	-29751.6	0.000000	0.000000	7.227617	573.671	NaN	0.000000	0.001583	0.001780	28.0832	107.964	0.001877	57528.5	4.959692	-7.812234	571.493	1.203997	0.100063	0.099659	573.671	57528.5	0.092584	0.267903	2141.34	101547
509	2.000000	1.206899	7.37004e+06	-51639.1	1005.82	-29751.6	0.000000	0.000000	7.231188	599.791	NaN	0.000000	0.001564	0.001828	28.0833	111.004	0.001809	61375.9	7.025886	169.649	599.705	1.206408	0.102560	0.102070	599.791	61375.9	0.095231	0.281613	2129.84	105668