File: remote_trans/data/nanoindenter/0828-1/data/Data_2025-08-06,11h17m57s/2025-07-22_16-23-58_1_287.txt
2025-07-22, 16:23:58, 1
Index	Phase	Displacement	Time	Pos X	Pos Y	Pos Z	Rot A	Rot B	Piezo Z	Force A	Force B	Gripper	Voltage A	Voltage B	Temperature	Amplitude force	Amplitude pos	Stiffness	Phase shift	Phase excitation	Force A raw	Displacement raw	HMax	HMax raw	Real Force	Real Stiffness	Contact Depth	Area	Hardness	Reduced Mod.
[#]	[#]	[um]	[s]	[um]	[um]	[um]	[m°]	[m°]	[um]	[uN]	[uN]	[V]	[V]	[V]	[°C]	[uN]	[um]	[N/m]	[°]	[°]	[uN]	[um]	[um]	[um]	[uN]	[N/m]	[um]	[um^2]	[MPa]	[MPa]
287	1.000000	0.002606	7.36786e+06	-52989.1	955.817	-29748	0.000000	0.000000	6.002830	-0.032537	NaN	0.000000	0.001615	0.001664	28.0795	0.103563	0.000991	104.506	73.8345	-166.809	0.002038	0.001358	-1.089681	-1.090928	-0.032537	104.506	-1.089447	-3.617357E+14	8.994666E-17	NaN
287	1.000000	0.010536	7.36786e+06	-52989.1	955.818	-29748	0.000000	0.000000	6.010766	0.109102	NaN	0.000000	0.001680	0.001686	28.0795	0.045224	0.000922	49.0513	-121.058	-162.671	0.076208	0.009213	-1.081751	-1.083073	0.109102	49.0513	-1.083419	-3.002201E+14	-3.634072E-16	NaN
287	1.000000	0.018532	7.36786e+06	-52989.1	955.819	-29748	0.000000	0.000000	6.018761	0.079296	NaN	0.000000	0.001679	0.001679	28.0795	0.045132	0.001724	26.177	-78.9141	-163.759	0.010395	0.017156	-1.073755	-1.075131	0.079296	26.177	-1.076027	-2.388626E+14	-3.319716E-16	NaN
287	1.000000	0.026552	7.36786e+06	-52989.1	955.819	-29748	0.000000	0.000000	6.026776	-0.033336	NaN	0.000000	0.001659	0.001677	28.0796	0.106623	0.001910	55.8244	-172.024	-163.797	0.039155	0.025219	-1.065734	-1.067067	-0.033336	55.8244	-1.065286	-1.713403E+14	1.945598E-16	NaN
287	1.000000	0.034508	7.36786e+06	-52989.1	955.819	-29748	0.000000	0.000000	6.034733	-0.017797	NaN	0.000000	0.001670	0.001654	28.0795	0.053962	0.001900	28.4036	-20.8979	-168.649	0.005298	0.033226	-1.057778	-1.059061	-0.017797	28.4036	-1.057308	-1.338584E+14	1.329535E-16	NaN
287	1.000000	0.042533	7.36786e+06	-52989.1	955.818	-29748	0.000000	0.000000	6.042758	0.005884	NaN	0.000000	0.001634	0.001662	28.0797	0.091338	0.001885	48.4567	4.364244	-166.233	0.026635	0.041245	-1.049754	-1.051041	0.005884	48.4567	-1.049845	-1.062507E+14	-5.538099E-17	NaN
287	1.000000	0.050542	7.36786e+06	-52989.1	955.819	-29748	0.000000	0.000000	6.050770	0.046100	NaN	0.000000	0.001646	0.001662	28.0797	0.075627	0.001975	38.2836	-74.9668	-165.625	0.084542	0.049218	-1.041744	-1.043069	0.046100	38.2836	-1.042647	-8.502834E+13	-5.421747E-16	NaN
287	1.000000	0.058524	7.36786e+06	-52989.1	955.819	-29748	0.000000	0.000000	6.058757	0.175153	NaN	0.000000	0.001641	0.001680	28.0796	0.030722	0.002036	15.0908	-97.1415	-163.157	0.150202	0.057248	-1.033763	-1.035038	0.175153	15.0908	-1.042467	-8.455626E+13	-2.071441E-15	NaN
287	1.000000	0.066540	7.36786e+06	-52989.1	955.817	-29748	0.000000	0.000000	6.066768	0.079294	NaN	0.000000	0.001628	0.001661	28.0795	0.134033	0.002007	66.7882	-169.087	-166.664	0.004322	0.065203	-1.025747	-1.027084	0.079294	66.7882	-1.026637	-5.179013E+13	-1.531065E-15	NaN
287	1.000000	0.074521	7.36786e+06	-52989.1	955.818	-29748	0.000000	0.000000	6.074749	0.046025	NaN	0.000000	0.001602	0.001673	28.0784	0.017547	0.002120	8.277175	-74.5443	-164.792	0.021175	0.073215	-1.017765	-1.019071	0.046025	8.277175	-1.021935	-4.477058E+13	-1.028016E-15	NaN
287	1.000000	0.082544	7.36786e+06	-52989.1	955.817	-29748	0.000000	0.000000	6.082769	0.009273	NaN	0.000000	0.001603	0.001668	28.0786	0.055496	0.001977	28.0751	175.918	-164.644	0.030988	0.081194	-1.009743	-1.011093	0.009273	28.0751	-1.009991	-3.092127E+13	-2.998948E-16	NaN
287	1.000000	0.090539	7.36786e+06	-52989.1	955.819	-29748	0.000000	0.000000	6.090766	0.030624	NaN	0.000000	0.001601	0.001682	28.0784	0.071289	0.001929	36.9554	63.178	-165.447	0.058975	0.089217	-1.001748	-1.003070	0.030624	36.9554	-1.002369	-2.441554E+13	-1.254290E-15	NaN
287	1.000000	0.098574	7.36786e+06	-52989.1	955.818	-29748	0.000000	0.000000	6.098801	0.033974	NaN	0.000000	0.001593	0.001648	28.0788	0.050308	0.001998	25.1758	-148.434	-165.991	0.056363	0.097229	-0.993713	-0.995058	0.033974	25.1758	-0.994725	-1.926367E+13	-1.763650E-15	NaN
287	1.000000	0.106568	7.36786e+06	-52989.1	955.818	-29748	0.000000	0.000000	6.106793	0.002218	NaN	0.000000	0.001607	0.001675	28.0785	0.137840	0.001959	70.3799	-170.186	-168.286	0.033338	0.105222	-0.985719	-0.987064	0.002218	70.3799	-0.985742	-1.458033E+13	-1.521245E-16	NaN
287	1.000000	0.114533	7.36786e+06	-52989.1	955.819	-29748	0.000000	0.000000	6.114759	0.022732	NaN	0.000000	0.001580	0.001692	28.0783	0.092646	0.002019	45.8845	-74.9453	-163.605	-0.081177	0.113254	-0.977754	-0.979032	0.022732	45.8845	-0.978125	-1.151198E+13	-1.974632E-15	NaN
287	1.000000	0.122540	7.36786e+06	-52989.1	955.817	-29748	0.000000	0.000000	6.122768	0.046638	NaN	0.000000	0.001597	0.001699	28.0781	0.045462	0.002067	21.994	149.21	-164.537	0.062956	0.121223	-0.969746	-0.971064	0.046638	21.994	-0.971337	-9.325644E+12	-5.001051E-15	NaN
287	1.000000	0.130552	7.36786e+06	-52989.1	955.818	-29748	0.000000	0.000000	6.130781	0.076787	NaN	0.000000	0.001643	0.001644	28.078	0.060404	0.001986	30.4082	-162.826	-162.713	0.046947	0.129250	-0.961734	-0.963037	0.076787	30.4082	-0.963628	-7.341460E+12	-1.045932E-14	NaN
287	1.000000	0.138537	7.36786e+06	-52989.1	955.819	-29748	0.000000	0.000000	6.138765	0.050901	NaN	0.000000	0.001641	0.001705	28.0782	0.044012	0.002036	21.6152	14.1569	-164.164	0.054361	0.137240	-0.953749	-0.955047	0.050901	21.6152	-0.955515	-5.706942E+12	-8.919206E-15	NaN
287	1.000000	0.146557	7.36786e+06	-52989.1	955.819	-29748	0.000000	0.000000	6.146784	0.025442	NaN	0.000000	0.001639	0.001673	28.0782	0.057082	0.002061	27.7009	47.446	-165.739	0.025854	0.145214	-0.945729	-0.947073	0.025442	27.7009	-0.946418	-4.302466E+12	-5.913313E-15	NaN
287	1.000000	0.154550	7.36786e+06	-52989.1	955.818	-29748	0.000000	0.000000	6.154776	0.023656	NaN	0.000000	0.001677	0.001710	28.078	0.028331	0.001902	14.8929	104.281	-161.061	0.070117	0.153245	-0.937737	-0.939042	0.023656	14.8929	-0.938928	-3.409393E+12	-6.938580E-15	NaN
287	1.000000	0.162570	7.36786e+06	-52989.1	955.818	-29748	0.000000	0.000000	6.162798	0.060768	NaN	0.000000	0.001617	0.001674	28.0782	0.066474	0.002000	33.2372	51.2288	-163.947	0.015213	0.161214	-0.929717	-0.931072	0.060768	33.2372	-0.931088	-2.672261E+12	-2.274045E-14	NaN
287	1.000000	0.170583	7.36786e+06	-52989.1	955.819	-29748	0.000000	0.000000	6.170808	-0.007389	NaN	0.000000	0.001627	0.001679	28.0783	0.028702	0.001894	15.1562	-68.1058	-165.101	0.007964	0.169248	-0.921704	-0.923039	-0.007389	15.1562	-0.921338	-1.973647E+12	3.743842E-15	NaN
287	1.000000	0.178546	7.36786e+06	-52989.1	955.818	-29748	0.000000	0.000000	6.178769	-0.046203	NaN	0.000000	0.001631	0.001726	28.0783	0.069750	0.002049	34.0341	93.2418	-166.961	-0.043020	0.177279	-0.913741	-0.915008	-0.046203	34.0341	-0.912723	-1.509857E+12	3.060102E-14	NaN
287	1.000000	0.186559	7.36786e+06	-52989.1	955.818	-29748	0.000000	0.000000	6.186787	0.063502	NaN	0.000000	0.001630	0.001753	28.0781	0.015257	0.002050	7.441985	-92.7789	-165.724	0.042370	0.185308	-0.905728	-0.906979	0.063502	7.441985	-0.912127	-1.482159E+12	-4.284397E-14	NaN
287	1.000000	0.194571	7.36786e+06	-52989.1	955.819	-29748	0.000000	0.000000	6.194795	-0.041373	NaN	0.000000	0.001605	0.001677	28.0782	0.027831	0.002053	13.5539	136.121	-164.194	-0.034131	0.193280	-0.897716	-0.899007	-0.041373	13.5539	-0.895426	-8.815787E+11	4.693049E-14	NaN
287	1.000000	0.202589	7.36786e+06	-52989.1	955.819	-29748	0.000000	0.000000	6.202815	-0.004323	NaN	0.000000	0.001638	0.001682	28.0803	0.092602	0.002060	44.9539	105.748	-163.183	-0.098261	0.201287	-0.889697	-0.891000	-0.004323	44.9539	-0.889625	-7.359504E+11	5.874320E-15	NaN
287	1.000000	0.210545	7.36786e+06	-52989.1	955.818	-29748	0.000000	0.000000	6.210773	0.069961	NaN	0.000000	0.001610	0.001674	28.0848	0.045160	0.001906	23.6991	-174.71	-161.96	0.001610	0.209273	-0.881742	-0.883014	0.069961	23.6991	-0.883956	-6.168814E+11	-1.134105E-13	NaN
287	1.000000	0.218581	7.36786e+06	-52989.1	955.819	-29748	0.000000	0.000000	6.218809	0.066298	NaN	0.000000	0.001634	0.001685	28.0809	0.102132	0.001992	51.2802	-148.787	-164.269	0.052290	0.217305	-0.873706	-0.874982	0.066298	51.2802	-0.874675	-4.620505E+11	-1.434858E-13	NaN
287	1.000000	0.226582	7.36786e+06	-52989.1	955.819	-29748	0.000000	0.000000	6.226812	0.088499	NaN	0.000000	0.001637	0.001659	28.08	0.032143	0.002023	15.8925	88.1873	-165.205	0.047627	0.225310	-0.865704	-0.866977	0.088499	15.8925	-0.869881	-3.979497E+11	-2.223881E-13	NaN
287	1.000000	0.234618	7.36786e+06	-52989.1	955.818	-29748	0.000000	0.000000	6.234845	0.035227	NaN	0.000000	0.001621	0.001668	28.0824	0.064750	0.002043	31.6916	-35.6289	-165.722	0.075099	0.233310	-0.857668	-0.858976	0.035227	31.6916	-0.858502	-2.791525E+11	-1.261930E-13	NaN
287	1.000000	0.242589	7.36786e+06	-52989.1	955.818	-29748	0.000000	0.000000	6.242816	0.027905	NaN	0.000000	0.001696	0.001662	28.082	0.043256	0.001897	22.7988	-83.6662	-163.136	-0.042676	0.241280	-0.849698	-0.851007	0.027905	22.7988	-0.850616	-2.183098E+11	-1.278241E-13	NaN
287	1.000000	0.250607	7.36786e+06	-52989.1	955.817	-29748	0.000000	0.000000	6.250831	-0.027795	NaN	0.000000	0.001667	0.001684	28.0795	0.043646	0.001878	23.2464	-91.4883	-165.409	0.010142	0.249289	-0.841680	-0.842998	-0.027795	23.2464	-0.840783	-1.606584E+11	1.730070E-13	NaN
287	1.000000	0.258615	7.36786e+06	-52989.1	955.819	-29748	0.000000	0.000000	6.258843	0.053238	NaN	0.000000	0.001676	0.001658	28.0802	0.027316	0.002143	12.7454	-125.069	-164.453	0.013792	0.257315	-0.833671	-0.834972	0.053238	12.7454	-0.836804	-1.419031E+11	-3.751704E-13	NaN
287	1.000000	0.266612	7.36786e+06	-52989.1	955.818	-29748	0.000000	0.000000	6.266839	0.031410	NaN	0.000000	0.001699	0.001661	28.0796	0.072705	0.002072	35.0907	-131.473	-163.882	0.094758	0.265254	-0.825675	-0.827033	0.031410	35.0907	-0.826346	-1.023891E+11	-3.067698E-13	NaN
287	1.000000	0.274636	7.36786e+06	-52989.1	955.819	-29748	0.000000	0.000000	6.274864	0.053408	NaN	0.000000	0.001657	0.001690	28.0793	0.086442	0.002024	42.7156	141.344	-165.567	0.081750	0.273310	-0.817650	-0.818976	0.053408	42.7156	-0.818588	-8.036402E+10	-6.645703E-13	NaN
287	1.000000	0.282639	7.36786e+06	-52989.1	955.818	-29748	0.000000	0.000000	6.282865	0.010061	NaN	0.000000	0.001645	0.001706	28.0797	0.014417	0.001974	7.304715	130.681	-165.364	-0.042787	0.281294	-0.809648	-0.810992	0.010061	7.304715	-0.810681	-6.277824E+10	-1.602553E-13	NaN
287	1.000000	0.290638	7.36786e+06	-52989.1	955.818	-29748	0.000000	0.000000	6.290865	0.041641	NaN	0.000000	0.001659	0.001675	28.0792	0.046217	0.002044	22.6157	-122.087	-164.26	0.044646	0.289356	-0.801649	-0.802930	0.041641	22.6157	-0.803029	-4.942912E+10	-8.424447E-13	NaN
287	1.000000	0.298619	7.36786e+06	-52989.1	955.82	-29748	0.000000	0.000000	6.298843	-0.057566	NaN	0.000000	0.001640	0.001647	28.0802	0.032015	0.001937	16.5267	-47.6725	-166.871	-0.019846	0.297399	-0.793667	-0.794888	-0.057566	16.5267	-0.791055	-3.399445E+10	1.693389E-12	NaN
287	1.000000	0.306623	7.36786e+06	-52989.1	955.818	-29748	0.000000	0.000000	6.306852	0.074819	NaN	0.000000	0.001669	0.001611	28.0795	0.054855	0.001847	29.7052	109.8	-166.909	0.093133	0.305330	-0.785663	-0.786957	0.074819	29.7052	-0.787552	-3.046744E+10	-2.455688E-12	NaN
287	1.000000	0.314604	7.36786e+06	-52989.1	955.819	-29748	0.000000	0.000000	6.314830	0.017105	NaN	0.000000	0.001685	0.001644	28.0796	0.052734	0.002031	25.9652	-179.071	-165.376	0.044313	0.313314	-0.777683	-0.778972	0.017105	25.9652	-0.778177	-2.272259E+10	-7.527918E-13	NaN
287	1.000000	0.322647	7.36786e+06	-52989.1	955.818	-29748	0.000000	0.000000	6.322873	0.027363	NaN	0.000000	0.001629	0.001666	28.0797	0.050385	0.001903	26.4769	65.2241	-169.097	-0.001597	0.321290	-0.769640	-0.770997	0.027363	26.4769	-0.770415	-1.782154E+10	-1.535365E-12	NaN
287	1.000000	0.330640	7.36786e+06	-52989.1	955.818	-29748	0.000000	0.000000	6.330868	0.041664	NaN	0.000000	0.001643	0.001671	28.0794	0.006112	0.002047	2.985497	6.069332	-166.311	0.043972	0.329373	-0.761646	-0.762914	0.041664	2.985497	-0.772113	-1.879446E+10	-2.216805E-12	NaN
287	1.000000	0.338659	7.36786e+06	-52989.1	955.818	-29748	0.000000	0.000000	6.338886	0.028921	NaN	0.000000	0.001647	0.001662	28.0793	0.087988	0.002046	43.0084	177.067	-164.638	0.051321	0.337354	-0.753627	-0.754933	0.028921	43.0084	-0.754132	-1.070172E+10	-2.702480E-12	NaN
287	1.000000	0.346648	7.36786e+06	-52989.1	955.819	-29748	0.000000	0.000000	6.346876	0.068707	NaN	0.000000	0.001637	0.001654	28.0782	0.037089	0.002018	18.3752	19.4678	-166.223	0.095580	0.345338	-0.745639	-0.746949	0.068707	18.3752	-0.748443	-8.954124E+9	-7.673230E-12	NaN
287	1.000000	0.354689	7.36786e+06	-52989.1	955.819	-29748	0.000000	0.000000	6.354917	0.059117	NaN	0.000000	0.001601	0.001679	28.0782	0.076491	0.002004	38.1684	52.9639	-166.529	0.127240	0.353379	-0.737598	-0.738908	0.059117	38.1684	-0.738759	-6.609335E+9	-8.944456E-12	NaN
287	1.000000	0.362652	7.36786e+06	-52989.1	955.817	-29748	0.000000	0.000000	6.362880	0.078760	NaN	0.000000	0.001650	0.001642	28.0784	0.085899	0.002029	42.3368	100.339	-163.631	0.078109	0.361331	-0.729635	-0.730956	0.078760	42.3368	-0.731030	-5.186183E+9	-1.518659E-11	NaN
287	1.000000	0.370659	7.36786e+06	-52989.1	955.818	-29748	0.000000	0.000000	6.370888	0.088637	NaN	0.000000	0.001624	0.001628	28.0784	0.079963	0.001956	40.8717	-174.057	-163.674	0.013125	0.369331	-0.721628	-0.722956	0.088637	40.8717	-0.723254	-4.063033E+9	-2.181560E-11	NaN
287	1.000000	0.378671	7.36786e+06	-52989.1	955.819	-29748	0.000000	0.000000	6.378896	-0.006650	NaN	0.000000	0.001623	0.001624	28.078	0.112652	0.001994	56.4918	-53.7719	-166.378	-0.014666	0.377378	-0.713615	-0.714909	-0.006650	56.4918	-0.713527	-2.993487E+9	2.221398E-12	NaN
287	1.000000	0.386652	7.36786e+06	-52989.1	955.818	-29748	0.000000	0.000000	6.386878	0.008303	NaN	0.000000	0.001608	0.001696	28.078	0.069419	0.002049	33.8864	114.135	-164.268	0.017507	0.385309	-0.705635	-0.706977	0.008303	33.8864	-0.705818	-2.349484E+9	-3.533912E-12	NaN
287	1.000000	0.394644	7.36786e+06	-52989.1	955.817	-29748	0.000000	0.000000	6.394870	0.006518	NaN	0.000000	0.001627	0.001714	28.078	0.068114	0.002050	33.2299	-85.8684	-164.052	0.034639	0.393414	-0.697643	-0.698872	0.006518	33.2299	-0.697790	-1.825345E+9	-3.570814E-12	NaN
287	1.000000	0.402680	7.36786e+06	-52989.1	955.819	-29748	0.000000	0.000000	6.402909	0.083265	NaN	0.000000	0.001627	0.001675	28.0784	0.030127	0.002026	14.8681	-101.347	-165.584	0.026477	0.401358	-0.689607	-0.690929	0.083265	14.8681	-0.693807	-1.610409E+9	-5.170449E-11	NaN
287	1.000000	0.410666	7.36786e+06	-52989.1	955.818	-29748	0.000000	0.000000	6.410892	0.017900	NaN	0.000000	0.001633	0.001659	28.0782	0.086500	0.002136	40.504	141.042	-163.51	0.007333	0.409368	-0.681620	-0.682918	0.017900	40.504	-0.681952	-1.108915E+9	-1.614157E-11	NaN
287	1.000000	0.418670	7.36786e+06	-52989.1	955.818	-29748	0.000000	0.000000	6.418897	0.035435	NaN	0.000000	0.001596	0.001644	28.0784	0.064718	0.002020	32.0424	91.6118	-164.188	-0.048351	0.417359	-0.673617	-0.674928	0.035435	32.0424	-0.674446	-8.754578E+8	-4.047648E-11	NaN
287	1.000000	0.426671	7.36786e+06	-52989.1	955.818	-29748	0.000000	0.000000	6.426898	0.026879	NaN	0.000000	0.001620	0.001679	28.078	0.047149	0.001996	23.6199	-57.7022	-164.331	-0.006574	0.425429	-0.665615	-0.666857	0.026879	23.6199	-0.666469	-6.808544E+8	-3.947826E-11	NaN
287	1.000000	0.434688	7.36786e+06	-52989.1	955.818	-29748	0.000000	0.000000	6.434916	0.084587	NaN	0.000000	0.001580	0.001647	28.078	0.011162	0.001863	5.993029	18.5537	-162.612	0.120367	0.433386	-0.657599	-0.658901	0.084587	5.993029	-0.668185	-7.186909E+8	-1.176952E-10	NaN
287	1.000000	0.442684	7.36786e+06	-52989.1	955.819	-29748	0.000000	0.000000	6.442908	-0.025291	NaN	0.000000	0.001575	0.001653	28.078	0.040976	0.002069	19.8012	-149.009	-164.087	-0.036901	0.441409	-0.649603	-0.650878	-0.025291	19.8012	-0.648645	-3.880228E+8	6.517945E-11	NaN
287	1.000000	0.450704	7.36786e+06	-52989.1	955.819	-29748	0.000000	0.000000	6.450931	0.038745	NaN	0.000000	0.001611	0.001638	28.0782	0.071415	0.001907	37.4458	53.0532	-165.346	-0.002991	0.449382	-0.641583	-0.642904	0.038745	37.4458	-0.642359	-3.181644E+8	-1.217755E-10	NaN
287	1.000000	0.458696	7.36786e+06	-52989.1	955.818	-29748	0.000000	0.000000	6.458923	0.025695	NaN	0.000000	0.001586	0.001697	28.0782	0.039418	0.002072	19.0256	57.7492	-164.01	0.025433	0.457379	-0.633590	-0.634907	0.025695	19.0256	-0.634603	-2.490133E+8	-1.031879E-10	NaN
287	1.000000	0.466709	7.36786e+06	-52989.1	955.818	-29748	0.000000	0.000000	6.466937	0.043237	NaN	0.000000	0.001608	0.001684	28.0784	0.052700	0.002134	24.6931	52.4425	-167.081	-0.020262	0.465349	-0.625577	-0.626937	0.043237	24.6931	-0.626890	-1.951260E+8	-2.215828E-10	NaN
287	1.000000	0.474744	7.36786e+06	-52989.1	955.818	-29748	0.000000	0.000000	6.474968	-0.026639	NaN	0.000000	0.001603	0.001695	28.0783	0.088036	0.002106	41.8071	148.585	-166.521	0.057354	0.473374	-0.617542	-0.618913	-0.026639	41.8071	-0.617065	-1.429814E+8	1.863107E-10	NaN
287	1.000000	0.482679	7.36786e+06	-52989.1	955.818	-29748	0.000000	0.000000	6.482907	0.075660	NaN	0.000000	0.001603	0.001686	28.0794	0.024509	0.001946	12.5935	52.6992	-161.35	0.003033	0.481414	-0.609608	-0.610872	0.075660	12.5935	-0.614114	-1.302266E+8	-5.809871E-10	NaN
287	1.000000	0.490696	7.36786e+06	-52989.1	955.818	-29748	0.000000	0.000000	6.490924	0.057391	NaN	0.000000	0.001604	0.001705	28.0794	0.083195	0.001945	42.7775	21.8672	-163.028	0.070005	0.489354	-0.601590	-0.602932	0.057391	42.7775	-0.602596	-9.040958E+7	-6.347842E-10	NaN
287	1.000000	0.498702	7.36786e+06	-52989.1	955.82	-29748	0.000000	0.000000	6.498929	0.035501	NaN	0.000000	0.001606	0.001698	28.0795	0.073942	0.002084	35.4854	95.8999	-165.451	0.011359	0.497418	-0.593585	-0.594868	0.035501	35.4854	-0.594335	-6.956918E+7	-5.102980E-10	NaN
287	1.000000	0.506693	7.36786e+06	-52989.1	955.819	-29748	0.000000	0.000000	6.506921	0.055657	NaN	0.000000	0.001612	0.001682	28.0796	0.042669	0.001988	21.4611	-14.8102	-160.004	0.092206	0.505385	-0.585594	-0.586902	0.055657	21.4611	-0.587539	-5.606969E+7	-9.926324E-10	NaN
287	1.000000	0.514727	7.36786e+06	-52989.1	955.818	-29748	0.000000	0.000000	6.514955	0.046371	NaN	0.000000	0.001612	0.001670	28.0795	0.077409	0.001932	40.076	138.119	-164.804	0.042540	0.513376	-0.577559	-0.578911	0.046371	40.076	-0.578427	-4.197738E+7	-1.104677E-9	NaN
287	1.000000	0.522713	7.36786e+06	-52989.1	955.817	-29748	0.000000	0.000000	6.522941	0.065714	NaN	0.000000	0.001586	0.001685	28.0794	0.041854	0.001773	23.6025	67.2641	-166.335	0.128788	0.521412	-0.569574	-0.570875	0.065714	23.6025	-0.571662	-3.385298E+7	-1.941155E-9	NaN
287	1.000000	0.530724	7.36786e+06	-52989.1	955.817	-29748	0.000000	0.000000	6.530952	0.041928	NaN	0.000000	0.001622	0.001663	28.0794	0.015561	0.001879	8.282001	-84.8446	-164.767	0.074038	0.529420	-0.561562	-0.562867	0.041928	8.282001	-0.565359	-2.770061E+7	-1.513606E-9	NaN
287	1.000000	0.538722	7.36786e+06	-52989.1	955.818	-29748	0.000000	0.000000	6.538947	0.004535	NaN	0.000000	0.001635	0.001682	28.0796	0.071366	0.002118	33.701	-25.9676	-164.957	-0.010909	0.537434	-0.553565	-0.554852	0.004535	33.701	-0.553666	-1.908622E+7	-2.375909E-10	NaN
287	1.000000	0.546704	7.36786e+06	-52989.1	955.818	-29748	0.000000	0.000000	6.546929	-0.003065	NaN	0.000000	0.001634	0.001691	28.0794	0.119708	0.001957	61.1813	-29.9404	-166.934	-0.028318	0.545517	-0.545583	-0.546770	-0.003065	61.1813	-0.545545	-1.473117E+7	2.080576E-10	NaN
287	1.000000	0.554742	7.36786e+06	-52989.1	955.818	-29748	0.000000	0.000000	6.554971	0.087285	NaN	0.000000	0.001626	0.001718	28.0792	0.110644	0.001918	57.6847	84.4186	-163.765	0.129236	0.553441	-0.537545	-0.538846	0.087285	57.6847	-0.538680	-1.183168E+7	-7.377228E-9	NaN
287	1.000000	0.562727	7.36786e+06	-52989.1	955.819	-29748	0.000000	0.000000	6.562955	0.057258	NaN	0.000000	0.001638	0.001670	28.0794	0.081064	0.001957	41.4174	93.7502	-166.242	0.036362	0.561448	-0.529560	-0.530838	0.057258	41.4174	-0.530597	-9.13821e+06	-6.265788E-9	NaN
287	1.000000	0.570728	7.36786e+06	-52989.1	955.817	-29748	0.000000	0.000000	6.570955	0.038677	NaN	0.000000	0.001620	0.001659	28.0793	0.011044	0.002008	5.499491	-4.919701	-163.454	0.031417	0.569414	-0.521559	-0.522873	0.038677	5.499491	-0.526834	-8.10198e+06	-4.773758E-9	NaN
287	1.000000	0.578760	7.36786e+06	-52989.1	955.818	-29748	0.000000	0.000000	6.578987	0.047046	NaN	0.000000	0.001682	0.001691	28.0794	0.097285	0.002174	44.7525	-60.7107	-165.655	-0.021917	0.577466	-0.513527	-0.514821	0.047046	44.7525	-0.514315	-5.42624e+06	-8.670028E-9	NaN
287	1.000000	0.586714	7.36786e+06	-52989.1	955.818	-29748	0.000000	0.000000	6.586941	0.040183	NaN	0.000000	0.001639	0.001673	28.0792	0.046675	0.001967	23.7339	-46.2739	-164.64	-0.011008	0.585435	-0.505573	-0.506851	0.040183	23.7339	-0.506843	-4.26999e+06	-9.410501E-9	NaN
287	1.000000	0.594752	7.36786e+06	-52989.1	955.818	-29748	0.000000	0.000000	6.594978	0.008361	NaN	0.000000	0.001669	0.001699	28.0795	0.045277	0.001951	23.203	-155.566	-164.261	-0.054384	0.593424	-0.497534	-0.498863	0.008361	23.203	-0.497805	-3.19437e+06	-2.617264E-9	NaN
287	1.000000	0.602758	7.36786e+06	-52989.1	955.819	-29748	0.000000	0.000000	6.602988	0.109937	NaN	0.000000	0.001619	0.001677	28.0794	0.034398	0.001888	18.2166	-37.2073	-162.489	0.025495	0.601464	-0.489529	-0.490823	0.109937	18.2166	-0.494055	-2.83165e+06	-3.882423E-8	NaN
287	1.000000	0.610781	7.36786e+06	-52989.1	955.818	-29748	0.000000	0.000000	6.611008	0.027198	NaN	0.000000	0.001615	0.001738	28.0795	0.131641	0.001892	69.5791	81.4823	-165.194	0.045157	0.609456	-0.481505	-0.482830	0.027198	69.5791	-0.481798	-1.90852e+06	-1.425082E-8	NaN
287	1.000000	0.618796	7.36786e+06	-52989.1	955.817	-29748	0.000000	0.000000	6.619020	-0.041025	NaN	0.000000	0.001587	0.001738	28.0781	0.051127	0.002084	24.5289	-2.760531	-168.713	-0.043759	0.617420	-0.473490	-0.474867	-0.041025	24.5289	-0.472236	-1.40204e+06	2.926128E-8	NaN
287	1.000000	0.626764	7.36786e+06	-52989.1	955.817	-29748	0.000000	0.000000	6.626990	0.027572	NaN	0.000000	0.001641	0.001703	28.0779	0.093757	0.001786	52.4823	-127.553	-164.321	-0.048212	0.625448	-0.465523	-0.466839	0.027572	52.4823	-0.465917	-1.14319e+06	-2.411863E-8	NaN
287	1.000000	0.634776	7.36786e+06	-52989.1	955.819	-29748	0.000000	0.000000	6.635001	0.007339	NaN	0.000000	0.001632	0.001705	28.0782	0.011528	0.001961	5.879238	-62.4248	-162.458	-0.019222	0.633441	-0.457511	-0.458846	0.007339	5.879238	-0.458447	-897827	-8.173939E-9	NaN
287	1.000000	0.642775	7.36786e+06	-52989.1	955.818	-29748	0.000000	0.000000	6.643001	0.002135	NaN	0.000000	0.001614	0.001670	28.0782	0.037321	0.002037	18.3259	86.6758	-165.215	0.068364	0.641448	-0.449512	-0.450839	0.002135	18.3259	-0.449599	-674053	-3.167977E-9	NaN
287	1.000000	0.650791	7.36786e+06	-52989.1	955.818	-29748	0.000000	0.000000	6.651020	0.083888	NaN	0.000000	0.001648	0.001701	28.0785	0.002749	0.002025	1.357319	-4.823035	-161.951	0.062475	0.649477	-0.441496	-0.442810	0.083888	1.357319	-0.487849	-2.31915e+06	-3.617196E-8	NaN
287	1.000000	0.658774	7.36786e+06	-52989.1	955.818	-29748	0.000000	0.000000	6.658998	-0.033425	NaN	0.000000	0.001611	0.001717	28.0782	0.112863	0.002076	54.3731	116.584	-164.874	0.081087	0.657517	-0.433512	-0.434769	-0.033425	54.3731	-0.433051	-393744	8.488965E-8	NaN
287	1.000000	0.666769	7.36786e+06	-52989.1	955.817	-29748	0.000000	0.000000	6.666997	0.066390	NaN	0.000000	0.001606	0.001711	28.0779	0.123272	0.001983	62.1743	8.587795	-163.764	-0.053945	0.665443	-0.425518	-0.426843	0.066390	62.1743	-0.426319	-316196	-2.099645E-7	NaN
287	1.000000	0.674776	7.36786e+06	-52989.1	955.817	-29748	0.000000	0.000000	6.675004	0.079010	NaN	0.000000	0.001622	0.001734	28.078	0.039090	0.001984	19.7022	-176.46	-167.292	0.076900	0.673461	-0.417511	-0.418826	0.079010	19.7022	-0.420519	-261679	-3.019363E-7	NaN
287	1.000000	0.682766	7.36786e+06	-52989.1	955.817	-29748	0.000000	0.000000	6.682993	0.041042	NaN	0.000000	0.001624	0.001691	28.0781	0.018070	0.002017	8.959838	-71.1398	-166.275	0.108377	0.681458	-0.409521	-0.410829	0.041042	8.959838	-0.412956	-204373	-2.008184E-7	NaN
287	1.000000	0.690801	7.36786e+06	-52989.1	955.818	-29748	0.000000	0.000000	6.691028	0.052118	NaN	0.000000	0.001599	0.001688	28.0783	0.027755	0.002134	13.0037	-161.996	-165.361	0.069977	0.689441	-0.401486	-0.402846	0.052118	13.0037	-0.404492	-154886	-3.364904E-7	NaN
287	1.000000	0.698840	7.36786e+06	-52989.1	955.818	-29748	0.000000	0.000000	6.699068	0.050094	NaN	0.000000	0.001603	0.001702	28.078	0.061609	0.002037	30.2389	-125.179	-164.666	0.068741	0.697449	-0.393446	-0.394837	0.050094	30.2389	-0.394689	-112250	-4.462746E-7	NaN
287	1.000000	0.706788	7.36786e+06	-52989.1	955.818	-29748	0.000000	0.000000	6.707014	0.000301	NaN	0.000000	0.001597	0.001745	28.0783	0.045641	0.001956	23.3386	-4.726663	-165.409	0.110755	0.705555	-0.385498	-0.386732	0.000301	23.3386	-0.385508	-82959.3	-3.627649E-9	NaN
287	1.000000	0.714809	7.36786e+06	-52989.1	955.817	-29748	0.000000	0.000000	6.715035	0.007914	NaN	0.000000	0.001651	0.001693	28.0782	0.124087	0.001976	62.8061	68.3243	-160.391	0.029994	0.713490	-0.377477	-0.378797	0.007914	62.8061	-0.377572	-63830.2	-1.239799E-7	NaN
287	1.000000	0.722810	7.36786e+06	-52989.1	955.818	-29748	0.000000	0.000000	6.723034	-0.026410	NaN	0.000000	0.001645	0.001735	28.0781	0.142892	0.002176	65.6536	77.7137	-164.734	0.013735	0.721477	-0.369477	-0.370810	-0.026410	65.6536	-0.369175	-48333.5	5.464218E-7	NaN
287	1.000000	0.730810	7.36786e+06	-52989.1	955.818	-29748	0.000000	0.000000	6.731039	0.089389	NaN	0.000000	0.001647	0.001695	28.078	0.059980	0.001998	30.0261	64.7991	-168.041	0.022315	0.729518	-0.361477	-0.362769	0.089389	30.0261	-0.363710	-40311.8	-2.217434E-6	NaN
287	1.000000	0.738785	7.36786e+06	-52989.1	955.818	-29748	0.000000	0.000000	6.739011	0.012349	NaN	0.000000	0.001638	0.001654	28.0782	0.044501	0.001928	23.0856	-62.0287	-166.821	0.041066	0.737477	-0.353502	-0.354810	0.012349	23.0856	-0.353903	-29080.8	-4.246395E-7	NaN
287	1.000000	0.746817	7.36786e+06	-52989.1	955.818	-29748	0.000000	0.000000	6.747043	0.010504	NaN	0.000000	0.001621	0.001697	28.0782	0.077354	0.001952	39.6232	-148.944	-164.627	-0.044756	0.745526	-0.345470	-0.346761	0.010504	39.6232	-0.345668	-22084	-4.756305E-7	NaN
287	1.000000	0.754829	7.36787e+06	-52989.1	955.817	-29748	0.000000	0.000000	6.755055	0.025337	NaN	0.000000	0.001648	0.001684	28.0798	0.024824	0.001942	12.7827	49.3202	-164.53	0.025019	0.753535	-0.337458	-0.338751	0.025337	12.7827	-0.338945	-17626.5	-1.437462E-6	NaN
287	1.000000	0.762824	7.36787e+06	-52989.1	955.817	-29748	0.000000	0.000000	6.763050	-0.003836	NaN	0.000000	0.001579	0.001690	28.0793	0.066982	0.001967	34.0597	10.8115	-162.92	0.045200	0.761544	-0.329462	-0.330743	-0.003836	34.0597	-0.329378	-12774.3	3.003111E-7	NaN
287	1.000000	0.770832	7.36787e+06	-52989.1	955.818	-29748	0.000000	0.000000	6.771058	0.003377	NaN	0.000000	0.001615	0.001676	28.0794	0.079819	0.002013	39.66	-123.154	-161.283	-0.062832	0.769536	-0.321454	-0.322750	0.003377	39.66	-0.321518	-9794.35	-3.447738E-7	NaN
287	1.000000	0.778820	7.36787e+06	-52989.1	955.818	-29748	0.000000	0.000000	6.779046	0.015941	NaN	0.000000	0.001603	0.001718	28.0794	0.166092	0.002007	82.7381	-93.9915	-164.718	-0.016897	0.777538	-0.313467	-0.314748	0.015941	82.7381	-0.313611	-7489.33	-2.128526E-6	NaN
287	1.000000	0.786833	7.36787e+06	-52989.1	955.818	-29748	0.000000	0.000000	6.787058	-0.020502	NaN	0.000000	0.001636	0.001744	28.0795	0.083317	0.002032	40.993	-146.824	-165.029	0.026049	0.785471	-0.305453	-0.306816	-0.020502	40.993	-0.305078	-5599.03	3.661642E-6	NaN
287	1.000000	0.794849	7.36787e+06	-52989.1	955.819	-29748	0.000000	0.000000	6.795074	-0.013294	NaN	0.000000	0.001576	0.001705	28.0795	0.108613	0.002089	51.9883	21.7389	-164.979	-0.016311	0.793550	-0.297437	-0.298737	-0.013294	51.9883	-0.297246	-4281.51	3.105092E-6	NaN
287	1.000000	0.802810	7.36787e+06	-52989.1	955.818	-29748	0.000000	0.000000	6.803038	0.063573	NaN	0.000000	0.001618	0.001692	28.0793	0.104989	0.002043	51.3999	-87.4384	-163.028	-0.030743	0.801517	-0.289477	-0.290770	0.063573	51.3999	-0.290404	-3383.45	-1.878934E-5	NaN
287	1.000000	0.810838	7.36787e+06	-52989.1	955.818	-29748	0.000000	0.000000	6.811067	0.079470	NaN	0.000000	0.001621	0.001700	28.0794	0.085251	0.001970	43.2715	100.289	-165.53	0.106352	0.809530	-0.281449	-0.282757	0.079470	43.2715	-0.282826	-2603.53	-3.052386E-5	NaN
287	1.000000	0.818837	7.36787e+06	-52989.1	955.818	-29748	0.000000	0.000000	6.819062	-0.013855	NaN	0.000000	0.001625	0.001696	28.0794	0.046701	0.002015	23.1711	-58.8754	-165.052	-0.014543	0.817514	-0.273450	-0.274772	-0.013855	23.1711	-0.273001	-1849.74	7.490236E-6	NaN
287	1.000000	0.826862	7.36787e+06	-52989.1	955.818	-29748	0.000000	0.000000	6.827084	-0.081238	NaN	0.000000	0.001656	0.001675	28.0794	0.069338	0.002005	34.5892	-114.383	-163.945	-0.095922	0.825510	-0.265424	-0.266776	-0.081238	34.5892	-0.263663	-1333.43	6.092378E-5	NaN
287	1.000000	0.834843	7.36787e+06	-52989.1	955.819	-29748	0.000000	0.000000	6.835070	0.049505	NaN	0.000000	0.001631	0.001710	28.0792	0.043946	0.001971	22.3014	-174.327	-163.601	0.035555	0.833593	-0.257444	-0.258694	0.049505	22.3014	-0.259109	-1135.68	-4.359107E-5	NaN
287	1.000000	0.842853	7.36787e+06	-52989.1	955.818	-29748	0.000000	0.000000	6.843079	0.012264	NaN	0.000000	0.001633	0.001707	28.0793	0.068180	0.002018	33.788	-57.0173	-162.572	0.008220	0.841537	-0.249433	-0.250750	0.012264	33.788	-0.249705	-813.596	-1.507379E-5	NaN
287	1.000000	0.850879	7.36787e+06	-52989.1	955.818	-29748	0.000000	0.000000	6.851109	0.105228	NaN	0.000000	0.001607	0.001683	28.0794	0.047229	0.002062	22.9096	-118.818	-166.421	0.117492	0.849525	-0.241408	-0.242761	0.105228	22.9096	-0.244852	-684.162	-0.000154	NaN
287	1.000000	0.858853	7.36787e+06	-52989.1	955.819	-29748	0.000000	0.000000	6.859080	0.050254	NaN	0.000000	0.001591	0.001696	28.0792	0.188289	0.001907	98.719	136.832	-163.181	0.022828	0.857514	-0.233434	-0.234773	0.050254	98.719	-0.233815	-459.87	-0.000109	NaN
287	1.000000	0.866878	7.36787e+06	-52989.1	955.818	-29748	0.000000	0.000000	6.867105	0.053746	NaN	0.000000	0.001589	0.001719	28.0792	0.102672	0.002188	46.9271	101.394	-163.93	-0.041075	0.865578	-0.225409	-0.226709	0.053746	46.9271	-0.226268	-349.508	-0.000154	NaN
287	1.000000	0.874864	7.36787e+06	-52989.1	955.818	-29748	0.000000	0.000000	6.875093	0.087730	NaN	0.000000	0.001649	0.001696	28.0791	0.048854	0.001916	25.494	-74.9415	-170.713	0.148199	0.873567	-0.217423	-0.218719	0.087730	25.494	-0.220004	-277.803	-0.000316	NaN
287	1.000000	0.882863	7.36787e+06	-52989.1	955.819	-29748	0.000000	0.000000	6.883089	0.004909	NaN	0.000000	0.001624	0.001739	28.0794	0.097446	0.001938	50.2782	-37.3135	-165.371	0.016281	0.881553	-0.209424	-0.210734	0.004909	50.2782	-0.209497	-188.221	-2.607888E-5	NaN
287	1.000000	0.890877	7.36787e+06	-52989.1	955.818	-29748	0.000000	0.000000	6.891105	0.068900	NaN	0.000000	0.001643	0.001693	28.0779	0.018307	0.002105	8.698150	-65.7661	-167.692	0.037302	0.889511	-0.201410	-0.202776	0.068900	8.698150	-0.207351	-173.714	-0.000397	NaN
287	1.000000	0.898889	7.36787e+06	-52989.1	955.819	-29748	0.000000	0.000000	6.899114	0.001461	NaN	0.000000	0.001652	0.001671	28.0782	0.050145	0.002038	24.6107	-2.315140	-164.895	0.001466	0.897585	-0.193398	-0.194702	0.001461	24.6107	-0.193442	-102.651	-1.423517E-5	NaN
287	1.000000	0.906890	7.36787e+06	-52989.1	955.818	-29748	0.000000	0.000000	6.907116	0.001658	NaN	0.000000	0.001660	0.001673	28.0779	0.093292	0.001991	46.8512	93.8083	-167.409	0.034163	0.905565	-0.185396	-0.186721	0.001658	46.8512	-0.185423	-75.3794	-2.199544E-5	NaN
287	1.000000	0.914886	7.36787e+06	-52989.1	955.819	-29748	0.000000	0.000000	6.915111	-0.003495	NaN	0.000000	0.001667	0.001660	28.078	0.052258	0.001970	26.5256	-144.286	-165.272	0.060250	0.913593	-0.177401	-0.178693	-0.003495	26.5256	-0.177302	-54.8841	6.367746E-5	NaN
287	1.000000	0.922897	7.36787e+06	-52989.1	955.819	-29748	0.000000	0.000000	6.923123	0.007839	NaN	0.000000	0.001623	0.001660	28.078	0.062573	0.002088	29.9719	-35.0538	-162.747	0.038863	0.921598	-0.169390	-0.170688	0.007839	29.9719	-0.169586	-40.4034	-0.000194	NaN
287	1.000000	0.930909	7.36787e+06	-52989.1	955.818	-29748	0.000000	0.000000	6.931136	0.040023	NaN	0.000000	0.001643	0.001704	28.078	0.120354	0.001927	62.4483	-154.213	-165.903	0.014037	0.929548	-0.161378	-0.162739	0.040023	62.4483	-0.161859	-29.5759	-0.001353	NaN
287	1.000000	0.938902	7.36787e+06	-52989.1	955.818	-29748	0.000000	0.000000	6.939130	0.058624	NaN	0.000000	0.001614	0.001696	28.0782	0.046906	0.002119	22.1388	-10.3421	-163.12	-0.029009	0.937583	-0.153385	-0.154704	0.058624	22.1388	-0.155371	-22.6593	-0.002587	NaN
287	1.000000	0.946904	7.36787e+06	-52989.1	955.818	-29748	0.000000	0.000000	6.947128	-0.021546	NaN	0.000000	0.001623	0.001717	28.0782	0.047908	0.002088	22.947	176.15	-163.954	-0.036146	0.945499	-0.145383	-0.146787	-0.021546	22.947	-0.144678	-14.4616	0.001490	NaN
287	1.000000	0.954897	7.36787e+06	-52989.1	955.82	-29748	0.000000	0.000000	6.955126	0.081596	NaN	0.000000	0.001641	0.001680	28.078	0.031412	0.001953	16.0861	58.5575	-160.643	0.066407	0.953571	-0.137389	-0.138716	0.081596	16.0861	-0.141194	-12.455	-0.006551	NaN
287	1.000000	0.962908	7.36787e+06	-52989.1	955.818	-29748	0.000000	0.000000	6.963134	0.023056	NaN	0.000000	0.001654	0.001691	28.078	0.081110	0.001953	41.5323	14.676	-164.604	0.104370	0.961568	-0.129379	-0.130718	0.023056	41.5323	-0.129795	-7.551398	-0.003053	NaN
287	1.000000	0.970914	7.36787e+06	-52989.1	955.818	-29748	0.000000	0.000000	6.971138	-0.045447	NaN	0.000000	0.001640	0.001669	28.0779	0.086049	0.001887	45.6026	-52.3297	-164.7	0.028101	0.969577	-0.121372	-0.122709	-0.045447	45.6026	-0.120625	-4.973699	0.009138	NaN
287	1.000000	0.978911	7.36787e+06	-52989.1	955.817	-29748	0.000000	0.000000	6.979137	0.012917	NaN	0.000000	0.001628	0.001669	28.078	0.095270	0.001925	49.4791	-112.346	-160.306	0.079109	0.977588	-0.113375	-0.114699	0.012917	49.4791	-0.113571	-3.569094	-0.003619	NaN
287	1.000000	0.986925	7.36787e+06	-52989.1	955.817	-29748	0.000000	0.000000	6.987151	0.025659	NaN	0.000000	0.001674	0.001704	28.078	0.073998	0.001942	38.1047	-99.429	-164.498	0.024233	0.985555	-0.105362	-0.106731	0.025659	38.1047	-0.105867	-2.453911	-0.010456	NaN
287	1.000000	0.994900	7.36787e+06	-52989.1	955.818	-29748	0.000000	0.000000	6.995126	0.003002	NaN	0.000000	0.001702	0.001680	28.0778	0.067477	0.002084	32.3848	-166.089	-164.707	0.018642	0.993660	-0.097387	-0.098626	0.003002	32.3848	-0.097456	-1.603218	-0.001872	NaN
287	1.000000	1.002901	7.36787e+06	-52989.1	955.819	-29748	0.000000	0.000000	7.003128	0.049337	NaN	0.000000	0.001721	0.001664	28.078	0.040437	0.002005	20.1705	-81.6034	-164.959	-0.022047	1.001597	-0.089386	-0.090690	0.049337	20.1705	-0.091220	-1.154369	-0.042740	NaN
287	1.000000	1.010926	7.36787e+06	-52989.1	955.818	-29748	0.000000	0.000000	7.011151	0.003792	NaN	0.000000	0.001681	0.001671	28.0779	0.082172	0.002018	40.7181	76.8534	-164.729	0.035078	1.009639	-0.081361	-0.082647	0.003792	40.7181	-0.081431	-0.671877	-0.005643	NaN
287	1.000000	1.018892	7.36787e+06	-52989.1	955.817	-29748	0.000000	0.000000	7.019117	-0.000995	NaN	0.000000	0.001678	0.001668	28.078	0.087166	0.001975	44.1399	-8.470105	-164.396	0.067559	1.017616	-0.073395	-0.074671	-0.000995	44.1399	-0.073378	-0.419099	0.002375	NaN
287	1.000000	1.026953	7.36787e+06	-52989.1	955.818	-29748	0.000000	0.000000	7.027179	0.002411	NaN	0.000000	0.001714	0.001657	28.0791	0.087289	0.001933	45.1562	121.095	-161.627	0.006482	1.025669	-0.065333	-0.066618	0.002411	45.1562	-0.065374	-0.255226	-0.009446	NaN
287	1.000000	1.034931	7.36787e+06	-52989.1	955.818	-29748	0.000000	0.000000	7.035154	-0.063578	NaN	0.000000	0.001724	0.001663	28.0792	0.016366	0.001950	8.393783	-38.8568	-164.779	-0.085276	1.033630	-0.057356	-0.058656	-0.063578	8.393783	-0.051675	-0.102502	0.620262	NaN
287	1.000000	1.042970	7.36787e+06	-52989.1	955.817	-29748	0.000000	0.000000	7.043197	0.031150	NaN	0.000000	0.001710	0.001719	28.0794	0.014061	0.001965	7.155917	-172.702	-164.853	0.060898	1.041623	-0.049317	-0.050664	0.031150	7.155917	-0.052581	-0.109120	-0.285469	NaN
287	1.000000	1.050957	7.36787e+06	-52989.1	955.817	-29748	0.000000	0.000000	7.051185	0.057358	NaN	0.000000	0.001676	0.001685	28.079	0.023487	0.001981	11.8541	-28.6597	-167.417	0.075945	1.049648	-0.041330	-0.042639	0.057358	11.8541	-0.044959	-0.064082	-0.895075	NaN
287	1.000000	1.058938	7.36787e+06	-52989.1	955.819	-29748	0.000000	0.000000	7.059165	0.025715	NaN	0.000000	0.001666	0.001700	28.0791	0.094815	0.001953	48.5415	60.6693	-169.512	-0.035935	1.057603	-0.033348	-0.034683	0.025715	48.5415	-0.033746	-0.029427	-0.873853	NaN
287	1.000000	1.066947	7.36787e+06	-52989.1	955.818	-29748	0.000000	0.000000	7.067177	0.104989	NaN	0.000000	0.001665	0.001706	28.079	0.091572	0.002140	42.8006	-166.604	-165.456	0.095182	1.065586	-0.025339	-0.026700	0.104989	42.8006	-0.027179	-0.019267	-5.449242	NaN
287	1.000000	1.074930	7.36787e+06	-52989.1	955.819	-29748	0.000000	0.000000	7.075156	0.035134	NaN	0.000000	0.001705	0.001680	28.0791	0.065053	0.002032	32.0194	-30.138	-165.734	-0.002852	1.073612	-0.017357	-0.018675	0.035134	32.0194	-0.018180	-0.011283	-3.113866	NaN
287	1.000000	1.082924	7.36787e+06	-52989.1	955.818	-29748	0.000000	0.000000	7.083149	-0.023209	NaN	0.000000	0.001726	0.001673	28.0796	0.076021	0.001955	38.8802	2.439934	-160.649	-0.003388	1.081662	-0.009362	-0.010624	-0.023209	38.8802	-0.008915	-0.005764	4.026768	NaN
287	1.000000	1.090922	7.36787e+06	-52989.1	955.82	-29748	0.000000	0.000000	7.091157	0.223388	NaN	0.000000	0.001605	0.001704	28.0791	0.262515	0.001928	136.157	20.0106	-162.058	0.065827	1.089670	-0.001365	-0.002617	0.223388	136.157	-0.002595	-0.001848	-120.904	NaN
287	2.000000	1.098400	7.36787e+06	-52989.1	955.818	-29748	0.000000	0.000000	7.098994	8.962321	NaN	0.000000	0.001604	0.001729	28.0793	9.419480	0.001695	5557.47	14.0297	-178.425	7.600243	1.097557	0.006114	0.005271	8.962321	5557.47	0.004904	0.004046	2215.1	79824.5
287	2.000000	1.100615	7.36787e+06	-52989.1	955.819	-29748	0.000000	0.000000	7.101355	12.5032	NaN	0.000000	0.001661	0.001649	28.0791	11.6386	0.001660	7011.47	10.9326	-173.957	12.6546	1.100261	0.008328	0.007975	12.5032	7011.47	0.006991	0.006025	2075.22	82528.6
287	2.000000	1.102570	7.36787e+06	-52989.1	955.819	-29748	0.000000	0.000000	7.103479	16.6331	NaN	0.000000	0.001654	0.001695	28.0793	14.3431	0.001640	8747.65	3.904546	-172.752	15.5312	1.102219	0.010283	0.009932	16.6331	8747.65	0.008857	0.007939	2095.13	89698.3
287	2.000000	1.104531	7.36787e+06	-52989.1	955.819	-29748	0.000000	0.000000	7.105623	21.0778	NaN	0.000000	0.001644	0.001678	28.0792	17.0851	0.001800	9492.7	7.821600	-177.344	20.1295	1.104287	0.012244	0.012000	21.0778	9492.7	0.010579	0.009832	2143.8	87466.6
287	2.000000	1.106546	7.36787e+06	-52989.1	955.819	-29748	0.000000	0.000000	7.107839	25.9542	NaN	0.000000	0.001634	0.001715	28.0792	18.2877	0.001685	10855.9	0.892579	-170.893	25.6294	1.106237	0.014260	0.013951	25.9542	10855.9	0.012467	0.012054	2153.19	90339.3
287	2.000000	1.108526	7.36787e+06	-52989.1	955.818	-29748	0.000000	0.000000	7.109915	28.2744	NaN	0.000000	0.001646	0.001674	28.0791	20.7065	0.001722	12026	5.379007	-175.693	27.8276	1.108243	0.016240	0.015956	28.2744	12026	0.014476	0.014593	1937.49	90952.8
287	2.000000	1.110611	7.36787e+06	-52989.1	955.819	-29748	0.000000	0.000000	7.112273	34.9175	NaN	0.000000	0.001634	0.001709	28.0793	23.1825	0.001663	13940.8	5.399833	-176.66	37.6854	1.110230	0.018325	0.017943	34.9175	13940.8	0.016446	0.017263	2022.71	96940.5
287	2.000000	1.112517	7.36787e+06	-52989.1	955.819	-29748	0.000000	0.000000	7.114446	41.4209	NaN	0.000000	0.001665	0.001645	28.0792	24.8876	0.001644	15142.1	5.074220	-178.292	41.328	1.112184	0.020230	0.019897	41.4209	15142.1	0.018178	0.019760	2096.17	98415.3
287	2.000000	1.114456	7.36787e+06	-52989.1	955.819	-29748	0.000000	0.000000	7.116525	44.8101	NaN	0.000000	0.001610	0.001632	28.079	27.5827	0.001897	14540.9	1.969053	-173.682	42.9605	1.114256	0.022170	0.021969	44.8101	14540.9	0.019858	0.022320	2007.59	88923.2
287	2.000000	1.116493	7.36787e+06	-52989.1	955.819	-29748	0.000000	0.000000	7.118901	53.0534	NaN	0.000000	0.001662	0.001639	28.0778	29.2328	0.001785	16375.6	7.500859	179.421	52.8034	1.116164	0.024207	0.023877	53.0534	16375.6	0.021777	0.025411	2087.78	93854.5
287	2.000000	1.118486	7.36787e+06	-52989.1	955.819	-29748	0.000000	0.000000	7.121047	56.7815	NaN	0.000000	0.001612	0.001640	28.0778	31.0894	0.001771	17556.9	3.923485	-177.934	56.7723	1.118208	0.026199	0.025921	56.7815	17556.9	0.023774	0.028822	1970.05	94483.3
287	2.000000	1.120589	7.36787e+06	-52989.1	955.819	-29748	0.000000	0.000000	7.123452	64.1359	NaN	0.000000	0.001632	0.001650	28.078	34.2311	0.001886	18154.4	9.226433	177.888	67.0894	1.120134	0.028302	0.027847	64.1359	18154.4	0.025653	0.032214	1990.93	92412.6
287	2.000000	1.122467	7.36787e+06	-52989.1	955.818	-29748	0.000000	0.000000	7.125646	71.8134	NaN	0.000000	0.001635	0.001651	28.0779	34.655	0.001683	20596.9	1.885172	-177.934	69.2591	1.122207	0.030180	0.029920	71.8134	20596.9	0.027565	0.035849	2003.23	99388.7
287	2.000000	1.124497	7.36787e+06	-52989.1	955.82	-29748	0.000000	0.000000	7.127800	74.8193	NaN	0.000000	0.001601	0.001697	28.0781	38.0077	0.001902	19983.9	3.972257	-179.833	73.9005	1.124249	0.032211	0.031962	74.8193	19983.9	0.029403	0.039515	1893.45	91849.1
287	2.000000	1.126495	7.36787e+06	-52989.1	955.819	-29748	0.000000	0.000000	7.130121	82.6708	NaN	0.000000	0.001639	0.001680	28.0779	38.786	0.001777	21832.4	3.929875	179.828	83.1385	1.126196	0.034209	0.033909	82.6708	21832.4	0.031369	0.043628	1894.89	95496.9
287	2.000000	1.128464	7.36787e+06	-52989.1	955.819	-29748	0.000000	0.000000	7.132514	92.9904	NaN	0.000000	0.001646	0.001679	28.0779	41.8868	0.001834	22835.8	4.184856	179.398	93.9017	1.128176	0.036178	0.035890	92.9904	22835.8	0.033123	0.047467	1959.07	95762.3
287	2.000000	1.130538	7.36787e+06	-52989.1	955.819	-29748	0.000000	0.000000	7.134881	100.09	NaN	0.000000	0.001612	0.001697	28.0779	44.2431	0.001902	23266.3	8.389281	175.178	99.8273	1.130144	0.038252	0.037858	100.09	23266.3	0.035025	0.051805	1932.06	93393.2
287	2.000000	1.132490	7.36787e+06	-52989.1	955.818	-29748	0.000000	0.000000	7.137234	109.856	NaN	0.000000	0.001626	0.001703	28.0778	45.2214	0.001860	24315	5.767368	177.132	109.888	1.132161	0.040204	0.039874	109.856	24315	0.036815	0.056057	1959.73	93828.3
287	2.000000	1.134524	7.36787e+06	-52989.1	955.818	-29748	0.000000	0.000000	7.139456	114.432	NaN	0.000000	0.001648	0.001693	28.0781	47.4041	0.001828	25929.9	4.459681	177.805	116.147	1.134227	0.042237	0.041940	114.432	25929.9	0.038927	0.061285	1867.2	95696.5
287	2.000000	1.136466	7.36787e+06	-52989.1	955.819	-29748	0.000000	0.000000	7.141808	124.397	NaN	0.000000	0.001671	0.001702	28.078	48.4475	0.001730	28008.4	5.385752	175.658	123.09	1.136183	0.044180	0.043897	124.397	28008.4	0.040849	0.066240	1877.98	99426.5
287	2.000000	1.138447	7.36787e+06	-52989.1	955.818	-29748	0.000000	0.000000	7.144148	133.12	NaN	0.000000	0.001648	0.001696	28.078	51.0683	0.001845	27675.7	5.877503	175.396	132.487	1.138096	0.046161	0.045809	133.12	27675.7	0.042553	0.070793	1880.41	95033.7
287	2.000000	1.140450	7.36787e+06	-52989.1	955.818	-29748	0.000000	0.000000	7.146584	143.634	NaN	0.000000	0.001682	0.001660	28.078	52.984	0.001954	27120.9	6.402665	175.589	140.74	1.140174	0.048164	0.047887	143.634	27120.9	0.044192	0.075310	1907.25	90292.7
287	2.000000	1.142421	7.36787e+06	-52989.1	955.818	-29748	0.000000	0.000000	7.149035	155.324	NaN	0.000000	0.001714	0.001665	28.0781	54.3786	0.001924	28261.9	8.591177	173.25	154.374	1.142069	0.050135	0.049782	155.324	28261.9	0.046013	0.080489	1929.75	91013.3
287	2.000000	1.144523	7.36787e+06	-52989.1	955.818	-29748	0.000000	0.000000	7.151526	164.794	NaN	0.000000	0.001696	0.001684	28.0781	55.7912	0.001746	31962	4.256611	176.578	167.243	1.144165	0.052236	0.051879	164.794	31962	0.048369	0.087439	1884.68	98754.3
287	2.000000	1.146454	7.36787e+06	-52989.1	955.817	-29748	0.000000	0.000000	7.153925	176.162	NaN	0.000000	0.001683	0.001681	28.078	56.868	0.001825	31163.2	4.859775	176.179	176.33	1.146235	0.054167	0.053949	176.162	31163.2	0.049928	0.092190	1910.87	93772.3
287	2.000000	1.148356	7.36787e+06	-52989.1	955.817	-29748	0.000000	0.000000	7.156183	184.815	NaN	0.000000	0.001678	0.001647	28.079	59.0823	0.001814	32578.2	1.484598	179.274	180.541	1.148139	0.056069	0.055853	184.815	32578.2	0.051814	0.098104	1883.87	95029.3
287	2.000000	1.150412	7.36787e+06	-52989.1	955.817	-29748	0.000000	0.000000	7.158746	197.156	NaN	0.000000	0.001669	0.001721	28.0792	61.8154	0.001841	33585.2	5.854095	174.165	195.143	1.150061	0.058125	0.057775	197.156	33585.2	0.053722	0.104265	1890.92	95028.3
287	2.000000	1.152472	7.36787e+06	-52989.1	955.819	-29748	0.000000	0.000000	7.161093	204.131	NaN	0.000000	0.001697	0.001695	28.0793	62.5242	0.001705	36672.6	3.335802	175.664	203.628	1.152256	0.060185	0.059969	204.131	36672.6	0.056010	0.111891	1824.37	100165
287	2.000000	1.154371	7.36787e+06	-52989.1	955.818	-29748	0.000000	0.000000	7.163747	222.49	NaN	0.000000	0.001602	0.001695	28.0793	65.1964	0.001865	34951.5	2.282123	178.036	220.56	1.154128	0.062085	0.061842	222.49	34951.5	0.057310	0.116340	1912.4	93621.1
287	2.000000	1.156422	7.36787e+06	-52989.1	955.819	-29748	0.000000	0.000000	7.166335	235.546	NaN	0.000000	0.001648	0.001678	28.0796	66.7251	0.001890	35301	5.652200	174.931	233.395	1.155985	0.064135	0.063698	235.546	35301	0.059131	0.122711	1919.52	92070.2
287	2.000000	1.158392	7.36787e+06	-52989.1	955.819	-29748	0.000000	0.000000	7.168762	246.648	NaN	0.000000	0.001617	0.001671	28.0792	67.7272	0.001744	38842.2	6.103479	174.832	245.043	1.157921	0.066106	0.065635	246.648	38842.2	0.061343	0.130670	1887.57	98172.4
287	2.000000	1.160458	7.36787e+06	-52989.1	955.818	-29748	0.000000	0.000000	7.171185	255.32	NaN	0.000000	0.001610	0.001685	28.0792	71.4628	0.001843	38766.1	5.602877	174.214	253.878	1.160152	0.068172	0.067865	255.32	38766.1	0.063232	0.137653	1854.81	95462.6
287	2.000000	1.162447	7.36787e+06	-52989.1	955.82	-29748	0.000000	0.000000	7.173757	269.517	NaN	0.000000	0.001620	0.001684	28.0792	72.7228	0.001780	40859.1	4.305057	174.029	269.206	1.162178	0.070160	0.069891	269.517	40859.1	0.065213	0.145162	1856.66	97979.6
287	2.000000	1.164484	7.36787e+06	-52989.1	955.819	-29748	0.000000	0.000000	7.176059	275.957	NaN	0.000000	0.001656	0.001652	28.0793	75.2346	0.001706	44097	4.780102	173.179	276.993	1.164243	0.072197	0.071956	275.957	44097	0.067504	0.154081	1790.99	102638
287	2.000000	1.166460	7.36787e+06	-52989.1	955.818	-29748	0.000000	0.000000	7.178793	294.385	NaN	0.000000	0.001644	0.001693	28.0793	75.13	0.001674	44882.5	0.187712	177.901	297.47	1.166288	0.074173	0.074002	294.385	44882.5	0.069254	0.161067	1827.72	102175
287	2.000000	1.168288	7.36787e+06	-52989.1	955.82	-29748	0.000000	0.000000	7.181268	310.113	NaN	0.000000	0.001629	0.001673	28.0793	78.5138	0.001776	44220.5	2.883830	175.246	303.492	1.168071	0.076001	0.075785	310.113	44220.5	0.070742	0.167117	1855.66	98829.3
287	2.000000	1.170425	7.36787e+06	-52989.1	955.818	-29748	0.000000	0.000000	7.184096	326.911	NaN	0.000000	0.001646	0.001630	28.0794	81.4507	0.001862	43743.7	7.938823	170.616	324.628	1.170113	0.078138	0.077827	326.911	43743.7	0.072533	0.174544	1872.94	95661.2
287	2.000000	1.172327	7.36787e+06	-52989.1	955.819	-29748	0.000000	0.000000	7.186752	345.247	NaN	0.000000	0.001648	0.001648	28.079	81.6399	0.001744	46811.9	0.750321	177.639	340.783	1.171999	0.080040	0.079713	345.247	46811.9	0.074509	0.182911	1887.52	100002
287	2.000000	1.174382	7.36787e+06	-52989.1	955.818	-29748	0.000000	0.000000	7.189009	350.149	NaN	0.000000	0.001603	0.001658	28.0792	85.5845	0.001808	47339.7	3.140768	174.16	347.72	1.174193	0.082095	0.081907	350.149	47339.7	0.076548	0.191739	1826.18	98774.3
287	2.000000	1.176256	7.36787e+06	-52989.1	955.818	-29748	0.000000	0.000000	7.191854	373.771	NaN	0.000000	0.001642	0.001626	28.0791	84.7088	0.001635	51824.7	2.811243	174.45	365.803	1.175893	0.083969	0.083607	373.771	51824.7	0.078560	0.200642	1862.88	105706
287	2.000000	1.178372	7.36787e+06	-52989.1	955.819	-29748	0.000000	0.000000	7.194561	388.12	NaN	0.000000	0.001641	0.001647	28.0793	86.7774	0.001755	49444	3.770189	174.064	385.875	1.177926	0.086086	0.085640	388.12	49444	0.080199	0.208031	1865.69	99042.9
287	2.000000	1.180364	7.36787e+06	-52989.1	955.82	-29748	0.000000	0.000000	7.196959	397.988	NaN	0.000000	0.001636	0.001651	28.0792	90.2948	0.001876	48138.3	6.338158	171.927	393.177	1.180050	0.088077	0.087763	397.988	48138.3	0.081877	0.215728	1844.86	94691.5
287	2.000000	1.182410	7.36787e+06	-52989.1	955.818	-29748	0.000000	0.000000	7.199411	407.879	NaN	0.000000	0.001651	0.001671	28.0784	91.2804	0.001881	48530.8	4.321437	173.129	406.862	1.182201	0.090123	0.089914	407.879	48530.8	0.083820	0.224804	1814.38	93516.7
287	2.000000	1.184378	7.36787e+06	-52989.1	955.818	-29748	0.000000	0.000000	7.201929	421.237	NaN	0.000000	0.001597	0.001688	28.078	93.9603	0.001876	50085.2	2.833392	174.545	419.989	1.184168	0.092092	0.091881	421.237	50085.2	0.085784	0.234155	1798.96	94565
287	2.000000	1.186328	7.36787e+06	-52989.1	955.819	-29748	0.000000	0.000000	7.204725	441.819	NaN	0.000000	0.001606	0.001668	28.0779	94.3928	0.001725	54717.1	2.895451	174.31	437.832	1.185922	0.094041	0.093636	441.819	54717.1	0.087985	0.244847	1804.47	101029
287	2.000000	1.188376	7.36787e+06	-52989.1	955.818	-29748	0.000000	0.000000	7.207564	461.043	NaN	0.000000	0.001604	0.001678	28.0782	98.0469	0.001788	54824.4	6.330819	170.583	459.889	1.187952	0.096089	0.095665	461.043	54824.4	0.089782	0.253742	1816.98	99437.6
287	2.000000	1.190425	7.36787e+06	-52989.1	955.82	-29748	0.000000	0.000000	7.210285	477.381	NaN	0.000000	0.001611	0.001713	28.078	100.007	0.001870	53466	8.143021	169.613	474.867	1.189934	0.098139	0.097647	477.381	53466	0.091442	0.262089	1821.45	95417.2
287	2.000000	1.192370	7.36787e+06	-52989.1	955.819	-29748	0.000000	0.000000	7.212881	493.202	NaN	0.000000	0.001598	0.001657	28.0779	101.274	0.001809	55968.7	6.828120	170.24	492.252	1.191977	0.100084	0.099690	493.202	55968.7	0.093475	0.272481	1810.04	97960.4
287	2.000000	1.194440	7.36787e+06	-52989.1	955.819	-29748	0.000000	0.000000	7.215363	503.235	NaN	0.000000	0.001589	0.001664	28.0782	104.486	0.001856	56290.1	6.292590	170.587	506.141	1.194065	0.102154	0.101779	503.235	56290.1	0.095449	0.282754	1779.76	96716.6
287	2.000000	1.196341	7.36787e+06	-52989.1	955.819	-29748	0.000000	0.000000	7.218077	523.006	NaN	0.000000	0.001595	0.001674	28.078	105.374	0.001859	56676	8.975359	168.144	518.658	1.195973	0.104054	0.103686	523.006	56676	0.097133	0.291661	1793.2	95881
287	2.000000	1.196947	7.36787e+06	-52989.1	955.82	-29748	0.000000	0.000000	7.218742	524.425	NaN	0.000000	0.001571	0.001690	28.0781	105.617	0.001780	59344.2	6.111821	-9.733129	523.097	1.196562	0.104661	0.104276	524.425	59344.2	0.098033	0.296473	1768.88	99576.9