File: remote_trans/data/nanoindenter/0828-1/data/Data_2025-08-06,11h17m57s/2025-07-22_16-23-58_1_1112.txt
2025-07-22, 16:23:58, 1
Index	Phase	Displacement	Time	Pos X	Pos Y	Pos Z	Rot A	Rot B	Piezo Z	Force A	Force B	Gripper	Voltage A	Voltage B	Temperature	Amplitude force	Amplitude pos	Stiffness	Phase shift	Phase excitation	Force A raw	Displacement raw	HMax	HMax raw	Real Force	Real Stiffness	Contact Depth	Area	Hardness	Reduced Mod.
[#]	[#]	[um]	[s]	[um]	[um]	[um]	[m°]	[m°]	[um]	[uN]	[uN]	[V]	[V]	[V]	[°C]	[uN]	[um]	[N/m]	[°]	[°]	[uN]	[um]	[um]	[um]	[uN]	[N/m]	[um]	[um^2]	[MPa]	[MPa]
1112	1.000000	0.002240	7.37593e+06	-55739.1	1055.82	-29740.7	0.000000	0.000000	6.002813	0.049141	NaN	0.000000	0.001627	0.001755	28.0837	0.193306	0.001046	184.742	102.885	-170.45	-0.045590	0.000943	-1.129820	-1.131117	0.049141	184.742	-1.130020	-1.267312E+15	-3.877551E-17	NaN
1112	1.000000	0.012260	7.37593e+06	-55739.1	1055.82	-29740.7	0.000000	0.000000	6.012829	-0.034169	NaN	0.000000	0.001643	0.001795	28.0838	0.024107	0.001092	22.0716	-53.2883	12.907	-0.026828	0.010864	-1.119800	-1.121196	-0.034169	22.0716	-1.118639	-8.916836E+14	3.831927E-17	NaN
1112	1.000000	0.022193	7.37593e+06	-55739.1	1055.82	-29740.7	0.000000	0.000000	6.022763	-0.022847	NaN	0.000000	0.001620	0.001697	28.0838	0.072419	0.001661	43.6087	-87.1127	-164.414	0.014280	0.020846	-1.109867	-1.111213	-0.022847	43.6087	-1.109474	-6.717843E+14	3.400985E-17	NaN
1112	1.000000	0.032204	7.37593e+06	-55739.1	1055.82	-29740.7	0.000000	0.000000	6.032776	0.018259	NaN	0.000000	0.001651	0.001726	28.0839	0.033548	0.001961	17.1102	-20.5387	14.2459	0.001180	0.030795	-1.099856	-1.101264	0.018259	17.1102	-1.100656	-5.115312E+14	-3.569541E-17	NaN
1112	1.000000	0.042204	7.37593e+06	-55739.1	1055.82	-29740.7	0.000000	0.000000	6.042776	0.019903	NaN	0.000000	0.001601	0.001734	28.0841	0.060992	0.001935	31.528	-151.543	-160.799	0.003823	0.040847	-1.089856	-1.091212	0.019903	31.528	-1.090330	-3.717379E+14	-5.353998E-17	NaN
1112	1.000000	0.052181	7.37593e+06	-55739.1	1055.82	-29740.7	0.000000	0.000000	6.052752	-0.003620	NaN	0.000000	0.001603	0.001729	28.0842	0.060527	0.001976	30.6258	-175.049	15.318	-0.030925	0.050798	-1.079879	-1.081262	-0.003620	30.6258	-1.079790	-2.683475E+14	1.349145E-17	NaN
1112	1.000000	0.062188	7.37593e+06	-55739.1	1055.82	-29740.7	0.000000	0.000000	6.062757	-0.054335	NaN	0.000000	0.001621	0.001743	28.084	0.015151	0.001864	8.128081	7.151691	-164.581	-0.116683	0.060892	-1.069872	-1.071167	-0.054335	8.128081	-1.064858	-1.690858E+14	3.213471E-16	NaN
1112	1.000000	0.072188	7.37593e+06	-55739.1	1055.82	-29740.7	0.000000	0.000000	6.072757	-0.037460	NaN	0.000000	0.001628	0.001693	28.0842	0.096442	0.001974	48.8677	-156.212	14.624	-0.117905	0.070824	-1.059872	-1.061236	-0.037460	48.8677	-1.059297	-1.423552E+14	2.631455E-16	NaN
1112	1.000000	0.082182	7.37593e+06	-55739.1	1055.82	-29740.7	0.000000	0.000000	6.082751	-0.036991	NaN	0.000000	0.001619	0.001680	28.0839	0.177052	0.002079	85.142	106.54	-162.783	-0.054234	0.080894	-1.049878	-1.051166	-0.036991	85.142	-1.049552	-1.052915E+14	3.513163E-16	NaN
1112	1.000000	0.092166	7.37593e+06	-55739.1	1055.82	-29740.7	0.000000	0.000000	6.092738	0.033291	NaN	0.000000	0.001587	0.001694	28.0838	0.060480	0.001934	31.2715	-134.628	13.9828	-0.010854	0.090830	-1.039894	-1.041230	0.033291	31.2715	-1.040692	-8.003468E+13	-4.159544E-16	NaN
1112	1.000000	0.102179	7.37593e+06	-55739.1	1055.82	-29740.7	0.000000	0.000000	6.102749	-0.038117	NaN	0.000000	0.001607	0.001724	28.0824	0.055705	0.001969	28.2896	-88.3179	-164.429	-0.012166	0.100873	-1.029881	-1.031186	-0.038117	28.2896	-1.028870	-5.549858E+13	6.868068E-16	NaN
1112	1.000000	0.112204	7.37593e+06	-55739.1	1055.82	-29740.7	0.000000	0.000000	6.112773	-0.039881	NaN	0.000000	0.001581	0.001738	28.0828	0.085067	0.002008	42.3557	101.677	16.5156	-0.073409	0.110863	-1.019856	-1.021197	-0.039881	42.3557	-1.019150	-4.106869E+13	9.710791E-16	NaN
1112	1.000000	0.122219	7.37593e+06	-55739.1	1055.82	-29740.7	0.000000	0.000000	6.122790	-0.003636	NaN	0.000000	0.001579	0.001697	28.0825	0.019639	0.002003	9.805891	109.449	-163.34	0.011633	0.120864	-1.009841	-1.011195	-0.003636	9.805891	-1.009562	-3.051360E+13	1.191732E-16	NaN
1112	1.000000	0.132202	7.37593e+06	-55739.1	1055.82	-29740.7	0.000000	0.000000	6.132773	-0.007253	NaN	0.000000	0.001565	0.001730	28.0824	0.090006	0.002027	44.3973	-68.6417	15.6151	-0.075379	0.130861	-0.999858	-1.001199	-0.007253	44.3973	-0.999735	-2.250125E+13	3.223188E-16	NaN
1112	1.000000	0.142221	7.37593e+06	-55739.1	1055.82	-29740.7	0.000000	0.000000	6.142789	-0.077576	NaN	0.000000	0.001574	0.001711	28.0824	0.061517	0.002091	29.4185	-153.143	-164.937	-0.056091	0.140862	-0.989838	-0.991197	-0.077576	29.4185	-0.987861	-1.557030E+13	4.982304E-15	NaN
1112	1.000000	0.152188	7.37593e+06	-55739.1	1055.82	-29740.7	0.000000	0.000000	6.152758	-0.041251	NaN	0.000000	0.001530	0.001713	28.0826	0.115806	0.002008	57.6682	-53.2454	12.6612	-0.081068	0.150871	-0.979871	-0.981188	-0.041251	57.6682	-0.979335	-1.195225E+13	3.451295E-15	NaN
1112	1.000000	0.162225	7.37593e+06	-55739.1	1055.82	-29740.7	0.000000	0.000000	6.162794	-0.071486	NaN	0.000000	0.001580	0.001759	28.0823	0.060564	0.002016	30.0436	-59.3312	-166.135	-0.103579	0.160935	-0.969834	-0.971124	-0.071486	30.0436	-0.968050	-8.421274E+12	8.488741E-15	NaN
1112	1.000000	0.172234	7.37593e+06	-55739.1	1055.82	-29740.7	0.000000	0.000000	6.172806	0.034679	NaN	0.000000	0.001590	0.001725	28.0823	0.119703	0.002007	59.6307	117.229	14.7707	0.006028	0.170851	-0.959826	-0.961208	0.034679	59.6307	-0.960262	-6.613102E+12	-5.244010E-15	NaN
1112	1.000000	0.182201	7.37593e+06	-55739.1	1055.82	-29740.7	0.000000	0.000000	6.182769	-0.080939	NaN	0.000000	0.001549	0.001749	28.0824	0.043904	0.002186	20.0844	113.776	-164.601	-0.088171	0.180941	-0.949859	-0.951118	-0.080939	20.0844	-0.946836	-4.358680E+12	1.856961E-14	NaN
1112	1.000000	0.192230	7.37593e+06	-55739.1	1055.82	-29740.7	0.000000	0.000000	6.192802	0.025600	NaN	0.000000	0.001575	0.001705	28.0825	0.055979	0.001904	29.3986	-84.6951	15.5042	-0.066543	0.190865	-0.939830	-0.941194	0.025600	29.3986	-0.940483	-3.578112E+12	-7.154713E-15	NaN
1112	1.000000	0.202242	7.37593e+06	-55739.1	1055.82	-29740.7	0.000000	0.000000	6.202813	-0.005578	NaN	0.000000	0.001550	0.001731	28.0826	0.033651	0.002030	16.5732	89.6089	-167.809	-0.086192	0.200876	-0.929818	-0.931184	-0.005578	16.5732	-0.929565	-2.548755E+12	2.188552E-15	NaN
1112	1.000000	0.212238	7.37593e+06	-55739.1	1055.82	-29740.7	0.000000	0.000000	6.212810	0.013397	NaN	0.000000	0.001568	0.001731	28.0825	0.065604	0.001974	33.2422	-170.533	13.8427	-0.007660	0.210882	-0.919822	-0.921177	0.013397	33.2422	-0.920124	-1.900545E+12	-7.048902E-15	NaN
1112	1.000000	0.222235	7.37593e+06	-55739.1	1055.82	-29740.7	0.000000	0.000000	6.222803	-0.076506	NaN	0.000000	0.001571	0.001751	28.0828	0.164891	0.002006	82.2146	-154.834	-164.234	-0.018312	0.220966	-0.909824	-0.911093	-0.076506	82.2146	-0.909127	-1.350098E+12	5.666702E-14	NaN
1112	1.000000	0.232237	7.37593e+06	-55739.1	1055.82	-29740.7	0.000000	0.000000	6.232807	-0.009468	NaN	0.000000	0.001628	0.001712	28.0824	0.049045	0.001981	24.7529	-118.396	12.3449	-0.013898	0.230920	-0.899823	-0.901140	-0.009468	24.7529	-0.899536	-1.001840E+12	9.451000E-15	NaN
1112	1.000000	0.242261	7.37593e+06	-55739.1	1055.82	-29740.7	0.000000	0.000000	6.242832	-0.015334	NaN	0.000000	0.001619	0.001686	28.084	0.047629	0.002051	23.226	-33.2653	-163.692	-0.063253	0.240944	-0.889798	-0.891116	-0.015334	23.226	-0.889303	-7.286140E+11	2.104515E-14	NaN
1112	1.000000	0.252262	7.37593e+06	-55739.1	1055.82	-29740.7	0.000000	0.000000	6.252831	-0.048721	NaN	0.000000	0.001570	0.001719	28.084	0.161559	0.002000	80.7746	-146.112	16.353	-0.054574	0.250899	-0.879797	-0.881161	-0.048721	80.7746	-0.879345	-5.343813E+11	9.117285E-14	NaN
1112	1.000000	0.262281	7.37593e+06	-55739.1	1055.82	-29740.7	0.000000	0.000000	6.262852	0.002264	NaN	0.000000	0.001561	0.001709	28.0842	0.020683	0.002027	10.2056	-157.205	-164.816	-0.083611	0.260969	-0.869779	-0.871090	0.002264	10.2056	-0.869945	-3.987484E+11	-5.676607E-15	NaN
1112	1.000000	0.272254	7.37593e+06	-55739.1	1055.82	-29740.7	0.000000	0.000000	6.272825	-0.020257	NaN	0.000000	0.001542	0.001716	28.0837	0.109009	0.001981	55.0227	-136.835	11.5924	0.053220	0.270906	-0.859805	-0.861154	-0.020257	55.0227	-0.859529	-2.882372E+11	7.027722E-14	NaN
1112	1.000000	0.282265	7.37593e+06	-55739.1	1055.82	-29740.7	0.000000	0.000000	6.282834	-0.034925	NaN	0.000000	0.001556	0.001726	28.0851	0.136009	0.001981	68.6532	144.497	-163.7	-0.062249	0.280967	-0.849795	-0.851093	-0.034925	68.6532	-0.849414	-2.102796E+11	1.660864E-13	NaN
1112	1.000000	0.292283	7.37593e+06	-55739.1	1055.82	-29740.7	0.000000	0.000000	6.292850	-0.089733	NaN	0.000000	0.001557	0.001722	28.0837	0.102845	0.002031	50.6374	-173.045	15.4724	-0.099235	0.290967	-0.839777	-0.841092	-0.089733	50.6374	-0.838448	-1.493707E+11	6.007387E-13	NaN
1112	1.000000	0.302252	7.37593e+06	-55739.1	1055.82	-29740.7	0.000000	0.000000	6.302823	-0.006783	NaN	0.000000	0.001599	0.001705	28.0837	0.042996	0.001990	21.6052	132.61	-165.056	-0.049961	0.300999	-0.829807	-0.831061	-0.006783	21.6052	-0.829572	-1.132358E+11	5.989935E-14	NaN
1112	1.000000	0.312281	7.37593e+06	-55739.1	1055.82	-29740.7	0.000000	0.000000	6.312852	-0.005297	NaN	0.000000	0.001545	0.001695	28.0837	0.053865	0.001984	27.1547	140.048	15.3693	-0.079609	0.310907	-0.819779	-0.821153	-0.005297	27.1547	-0.819632	-8.302842E+10	6.379341E-14	NaN
1112	1.000000	0.322302	7.37593e+06	-55739.1	1055.82	-29740.7	0.000000	0.000000	6.322871	-0.072920	NaN	0.000000	0.001528	0.001759	28.0837	0.030880	0.001936	15.9496	5.394340	-163.277	-0.090979	0.320993	-0.809757	-0.811067	-0.072920	15.9496	-0.806328	-5.479615E+10	1.330754E-12	NaN
1112	1.000000	0.332285	7.37593e+06	-55739.1	1055.82	-29740.7	0.000000	0.000000	6.332854	-0.049453	NaN	0.000000	0.001517	0.001703	28.0839	0.047232	0.002001	23.5994	-54.3563	14.5749	-0.002498	0.330903	-0.799775	-0.801156	-0.049453	23.5994	-0.798203	-4.250805E+10	1.163368E-12	NaN
1112	1.000000	0.342295	7.37593e+06	-55739.1	1055.82	-29740.7	0.000000	0.000000	6.342864	-0.070749	NaN	0.000000	0.001540	0.001719	28.0838	0.076223	0.001842	41.3809	-158.896	-164.945	0.016983	0.341038	-0.789764	-0.791021	-0.070749	41.3809	-0.788482	-3.136655E+10	2.255545E-12	NaN
1112	1.000000	0.352291	7.37593e+06	-55739.1	1055.82	-29740.7	0.000000	0.000000	6.352863	0.008166	NaN	0.000000	0.001567	0.001715	28.0839	0.057198	0.002082	27.473	-141.135	15.7428	0.082850	0.350952	-0.779769	-0.781107	0.008166	27.473	-0.779991	-2.405004E+10	-3.395482E-13	NaN
1112	1.000000	0.362298	7.37593e+06	-55739.1	1055.82	-29740.7	0.000000	0.000000	6.362866	-0.076638	NaN	0.000000	0.001533	0.001747	28.0838	0.021199	0.001969	10.7642	22.9024	-164.527	-0.000362	0.361049	-0.769762	-0.771010	-0.076638	10.7642	-0.764422	-1.477251E+10	5.187875E-12	NaN
1112	1.000000	0.372329	7.37593e+06	-55739.1	1055.82	-29740.7	0.000000	0.000000	6.372901	0.015376	NaN	0.000000	0.001553	0.001795	28.0826	0.098580	0.002032	48.5181	-3.608240	18.1778	-0.063362	0.370943	-0.759731	-0.761117	0.015376	48.5181	-0.759969	-1.284918E+10	-1.196688E-12	NaN
1112	1.000000	0.382303	7.37593e+06	-55739.1	1055.82	-29740.7	0.000000	0.000000	6.382874	-0.018009	NaN	0.000000	0.001560	0.001751	28.0826	0.038520	0.001929	19.9696	64.5871	-166.122	-0.030557	0.381025	-0.749756	-0.751034	-0.018009	19.9696	-0.749080	-9.134756E+9	1.971478E-12	NaN
1112	1.000000	0.392298	7.37593e+06	-55739.1	1055.82	-29740.7	0.000000	0.000000	6.392868	-0.043857	NaN	0.000000	0.001574	0.001743	28.0825	0.016313	0.002090	7.805616	97.7595	14.3876	-0.005945	0.390935	-0.739761	-0.741125	-0.043857	7.805616	-0.735547	-5.975867E+9	7.339073E-12	NaN
1112	1.000000	0.402308	7.37593e+06	-55739.1	1055.82	-29740.7	0.000000	0.000000	6.402878	-0.031837	NaN	0.000000	0.001583	0.001755	28.0829	0.070426	0.002043	34.4774	135.657	-165.217	0.042584	0.401023	-0.729751	-0.731037	-0.031837	34.4774	-0.729059	-4.875043E+9	6.530546E-12	NaN
1112	1.000000	0.412323	7.37593e+06	-55739.1	1055.82	-29740.7	0.000000	0.000000	6.412891	-0.063762	NaN	0.000000	0.001587	0.001729	28.0826	0.131909	0.001949	67.6736	58.5867	13.084	-0.056542	0.411018	-0.719737	-0.721042	-0.063762	67.6736	-0.719030	-3.558344E+9	1.791896E-11	NaN
1112	1.000000	0.422329	7.37593e+06	-55739.1	1055.82	-29740.7	0.000000	0.000000	6.422904	0.082959	NaN	0.000000	0.001563	0.001715	28.0827	0.114634	0.001874	61.1626	-67.1211	-166.14	0.109301	0.421011	-0.709731	-0.711049	0.082959	61.1626	-0.710748	-2.743188E+9	-3.024200E-11	NaN
1112	1.000000	0.432325	7.37593e+06	-55739.1	1055.82	-29740.7	0.000000	0.000000	6.432895	-0.036757	NaN	0.000000	0.001538	0.001730	28.0825	0.030973	0.001925	16.0904	-150.333	13.6629	-0.084429	0.430944	-0.699735	-0.701115	-0.036757	16.0904	-0.698021	-1.838684E+9	1.999085E-11	NaN
1112	1.000000	0.442344	7.37593e+06	-55739.1	1055.82	-29740.7	0.000000	0.000000	6.442915	-0.014669	NaN	0.000000	0.001569	0.001750	28.0826	0.044423	0.001994	22.2789	41.314	-165.155	-0.008977	0.441052	-0.689715	-0.691008	-0.014669	22.2789	-0.689222	-1.394051E+9	1.052272E-11	NaN
1112	1.000000	0.452368	7.37593e+06	-55739.1	1055.82	-29740.7	0.000000	0.000000	6.452938	-0.032160	NaN	0.000000	0.001543	0.001747	28.0823	0.068192	0.001998	34.1337	-152.083	17.6989	-0.044154	0.450946	-0.679691	-0.681114	-0.032160	34.1337	-0.678985	-1.009997E+9	3.184120E-11	NaN
1112	1.000000	0.462322	7.37593e+06	-55739.1	1055.82	-29740.7	0.000000	0.000000	6.462891	-0.062607	NaN	0.000000	0.001538	0.001729	28.0824	0.050576	0.001961	25.7949	116.807	-165.152	-0.047174	0.461055	-0.669737	-0.671005	-0.062607	25.7949	-0.667917	-7.126513E+8	8.785095E-11	NaN
1112	1.000000	0.472360	7.37593e+06	-55739.1	1055.82	-29740.7	0.000000	0.000000	6.472928	-0.076022	NaN	0.000000	0.001484	0.001746	28.0826	0.043756	0.001980	22.0981	-120.601	12.3716	-0.102853	0.470995	-0.659700	-0.661065	-0.076022	22.0981	-0.657120	-5.070017E+8	1.499452E-10	NaN
1112	1.000000	0.482346	7.37593e+06	-55739.1	1055.82	-29740.7	0.000000	0.000000	6.482914	-0.066287	NaN	0.000000	0.001457	0.001739	28.0826	0.081203	0.002032	39.9581	-153.015	-164.24	0.020105	0.481042	-0.649714	-0.651018	-0.066287	39.9581	-0.648470	-3.858835E+8	1.717810E-10	NaN
1112	1.000000	0.492367	7.37593e+06	-55739.1	1055.82	-29740.7	0.000000	0.000000	6.492936	-0.034254	NaN	0.000000	0.001494	0.001741	28.0827	0.027410	0.002046	13.3992	-161.167	14.8968	-0.015607	0.490994	-0.639693	-0.641066	-0.034254	13.3992	-0.637776	-2.752753E+8	1.244365E-10	NaN
1112	1.000000	0.502400	7.37593e+06	-55739.1	1055.82	-29740.7	0.000000	0.000000	6.502969	-0.057530	NaN	0.000000	0.001509	0.001737	28.0828	0.070857	0.002056	34.462	-64.6584	-164.307	-0.054947	0.501060	-0.629660	-0.630999	-0.057530	34.462	-0.628408	-2.047185E+8	2.810206E-10	NaN
1112	1.000000	0.512366	7.37593e+06	-55739.1	1055.82	-29740.7	0.000000	0.000000	6.512937	-0.004963	NaN	0.000000	0.001514	0.001737	28.0841	0.042237	0.002033	20.7722	-46.9899	10.4945	-0.044628	0.510989	-0.619694	-0.621071	-0.004963	20.7722	-0.619514	-1.545104E+8	3.211881E-11	NaN
1112	1.000000	0.522391	7.37593e+06	-55739.1	1055.82	-29740.7	0.000000	0.000000	6.522962	-0.008302	NaN	0.000000	0.001474	0.001706	28.0837	0.054039	0.001951	27.7021	-143.659	-165.84	-0.028756	0.521051	-0.609669	-0.611009	-0.008302	27.7021	-0.609444	-1.123227E+8	7.391000E-11	NaN
1112	1.000000	0.532387	7.37593e+06	-55739.1	1055.82	-29740.7	0.000000	0.000000	6.532957	-0.029883	NaN	0.000000	0.001521	0.001748	28.084	0.169304	0.002002	84.5517	-152.23	14.4022	-0.039920	0.530989	-0.599673	-0.601071	-0.029883	84.5517	-0.599408	-8.171550E+7	3.656979E-10	NaN
1112	1.000000	0.542378	7.37593e+06	-55739.1	1055.82	-29740.7	0.000000	0.000000	6.542947	-0.059842	NaN	0.000000	0.001521	0.001740	28.0839	0.048176	0.002019	23.8571	10.9067	-167.335	-0.003767	0.541065	-0.589682	-0.590994	-0.059842	23.8571	-0.587801	-5.653787E+7	1.058439E-9	NaN
1112	1.000000	0.552378	7.37593e+06	-55739.1	1055.82	-29740.7	0.000000	0.000000	6.552949	-0.004802	NaN	0.000000	0.001529	0.001729	28.0841	0.043619	0.002029	21.4993	-173.006	13.8771	-0.049662	0.551008	-0.579682	-0.581052	-0.004802	21.4993	-0.579514	-4.345328E+7	1.105096E-10	NaN
1112	1.000000	0.562384	7.37593e+06	-55739.1	1055.82	-29740.7	0.000000	0.000000	6.562952	-0.067020	NaN	0.000000	0.001514	0.001721	28.0837	0.092326	0.002044	45.1761	-18.3152	-167.012	-0.039411	0.561111	-0.569676	-0.570948	-0.067020	45.1761	-0.568563	-3.067472E+7	2.184870E-9	NaN
1112	1.000000	0.572384	7.37593e+06	-55739.1	1055.82	-29740.7	0.000000	0.000000	6.572957	0.032657	NaN	0.000000	0.001529	0.001751	28.084	0.100252	0.001910	52.4784	-8.035854	17.2823	-0.003291	0.571044	-0.559675	-0.561016	0.032657	52.4784	-0.560142	-2.346080E+7	-1.391963E-9	NaN
1112	1.000000	0.582409	7.37593e+06	-55739.1	1055.82	-29740.7	0.000000	0.000000	6.582981	0.002645	NaN	0.000000	0.001577	0.001712	28.0841	0.053296	0.001956	27.2433	87.6373	-165.011	-0.061267	0.581062	-0.549650	-0.550997	0.002645	27.2433	-0.549723	-1.683147E+7	-1.571166E-10	NaN
1112	1.000000	0.592401	7.37593e+06	-55739.1	1055.82	-29740.7	0.000000	0.000000	6.592971	-0.031108	NaN	0.000000	0.001550	0.001695	28.084	0.044178	0.002046	21.5897	-31.8072	13.6371	0.049971	0.591081	-0.539659	-0.540979	-0.031108	21.5897	-0.538578	-1.179326E+7	2.637776E-9	NaN
1112	1.000000	0.602414	7.37593e+06	-55739.1	1055.82	-29740.7	0.000000	0.000000	6.602983	-0.035776	NaN	0.000000	0.001531	0.001716	28.084	0.058368	0.001958	29.814	29.7257	-164.83	-0.105544	0.601104	-0.529646	-0.530956	-0.035776	29.814	-0.528746	-8.61306e+06	4.153658E-9	NaN
1112	1.000000	0.612458	7.37593e+06	-55739.1	1055.82	-29740.7	0.000000	0.000000	6.613028	-0.021309	NaN	0.000000	0.001512	0.001710	28.0841	0.026488	0.001842	14.3794	66.3159	14.6574	-0.033428	0.611081	-0.519602	-0.520978	-0.021309	14.3794	-0.518490	-6.20295e+06	3.435368E-9	NaN
1112	1.000000	0.622405	7.37593e+06	-55739.1	1055.82	-29740.7	0.000000	0.000000	6.622975	-0.024001	NaN	0.000000	0.001533	0.001696	28.0841	0.098078	0.002063	47.553	-62.5163	-164.724	-0.022123	0.621116	-0.509655	-0.510943	-0.024001	47.553	-0.509277	-4.61677e+06	5.198627E-9	NaN
1112	1.000000	0.632427	7.37593e+06	-55739.1	1055.82	-29740.7	0.000000	0.000000	6.632998	-0.016412	NaN	0.000000	0.001503	0.001721	28.0839	0.010521	0.001966	5.350480	-93.7144	15.8924	0.084287	0.631056	-0.499632	-0.501004	-0.016412	5.350480	-0.497332	-3.14619e+06	5.216584E-9	NaN
1112	1.000000	0.642402	7.37593e+06	-55739.1	1055.82	-29740.7	0.000000	0.000000	6.642973	0.008936	NaN	0.000000	0.001562	0.001727	28.0836	0.173442	0.002094	82.8371	32.3571	-163.89	-0.051461	0.641112	-0.489658	-0.490947	0.008936	82.8371	-0.489739	-2.46457e+06	-3.625826E-9	NaN
1112	1.000000	0.652427	7.37593e+06	-55739.1	1055.82	-29740.7	0.000000	0.000000	6.652995	-0.087002	NaN	0.000000	0.001509	0.001733	28.0831	0.075938	0.002009	37.8008	8.585653	13.1892	-0.088796	0.651051	-0.479632	-0.481008	-0.087002	37.8008	-0.477906	-1.68349e+06	5.167948E-8	NaN
1112	1.000000	0.662446	7.37593e+06	-55739.1	1055.82	-29740.7	0.000000	0.000000	6.663016	-0.032325	NaN	0.000000	0.001539	0.001720	28.083	0.064997	0.002032	31.9848	127.638	-165.441	0.012124	0.661151	-0.469614	-0.470909	-0.032325	31.9848	-0.468856	-1.25706e+06	2.571499E-8	NaN
1112	1.000000	0.672452	7.37593e+06	-55739.1	1055.82	-29740.7	0.000000	0.000000	6.673023	-0.005370	NaN	0.000000	0.001544	0.001738	28.0828	0.061691	0.002102	29.3455	149.493	14.617	0.013505	0.671068	-0.459608	-0.460991	-0.005370	29.3455	-0.459471	-928062	5.785784E-9	NaN
1112	1.000000	0.682441	7.37593e+06	-55739.1	1055.82	-29740.7	0.000000	0.000000	6.683009	-0.070259	NaN	0.000000	0.001575	0.001735	28.0826	0.038725	0.001935	20.0173	156.542	-165.366	-0.034797	0.681155	-0.449619	-0.450904	-0.070259	20.0173	-0.446987	-619287	1.134517E-7	NaN
1112	1.000000	0.692436	7.37593e+06	-55739.1	1055.82	-29740.7	0.000000	0.000000	6.693006	-0.023264	NaN	0.000000	0.001570	0.001745	28.0832	0.189354	0.001940	97.5877	-96.5793	17.6697	-0.026134	0.691078	-0.439624	-0.440982	-0.023264	97.5877	-0.439445	-484768	4.799016E-8	NaN
1112	1.000000	0.702439	7.37593e+06	-55739.1	1055.82	-29740.7	0.000000	0.000000	6.703010	-0.019059	NaN	0.000000	0.001613	0.001720	28.0827	0.015633	0.001962	7.969092	-127.216	-162.935	-0.086064	0.701160	-0.429620	-0.430899	-0.019059	7.969092	-0.427827	-332130	5.738517E-8	NaN
1112	1.000000	0.712466	7.37593e+06	-55739.1	1055.82	-29740.7	0.000000	0.000000	6.713036	-0.046329	NaN	0.000000	0.001570	0.001730	28.0831	0.046284	0.002130	21.7281	43.9308	15.6652	-0.035440	0.711047	-0.419593	-0.421013	-0.046329	21.7281	-0.417994	-240968	1.922605E-7	NaN
1112	1.000000	0.722489	7.37593e+06	-55739.1	1055.82	-29740.7	0.000000	0.000000	6.723059	-0.025434	NaN	0.000000	0.001565	0.001718	28.083	0.045105	0.001911	23.6045	-179.847	-163.13	-0.048255	0.721122	-0.409571	-0.410937	-0.025434	23.6045	-0.408763	-178159	1.427600E-7	NaN
1112	1.000000	0.732457	7.37593e+06	-55739.1	1055.82	-29740.7	0.000000	0.000000	6.733025	-0.076624	NaN	0.000000	0.001553	0.001746	28.0831	0.108009	0.002011	53.6974	102.491	15.9671	-0.101694	0.731131	-0.399602	-0.400929	-0.076624	53.6974	-0.398532	-127367	6.016048E-7	NaN
1112	1.000000	0.742455	7.37593e+06	-55739.1	1055.82	-29740.7	0.000000	0.000000	6.743024	-0.037511	NaN	0.000000	0.001546	0.001760	28.0829	0.044010	0.002044	21.533	145.763	-160.842	-0.064444	0.741133	-0.389605	-0.390926	-0.037511	21.533	-0.388299	-90954	4.124134E-7	NaN
1112	1.000000	0.752471	7.37593e+06	-55739.1	1055.82	-29740.7	0.000000	0.000000	6.753042	-0.006092	NaN	0.000000	0.001570	0.001735	28.0829	0.145252	0.002019	71.9487	-165.754	15.2426	-0.032860	0.751098	-0.379589	-0.380962	-0.006092	71.9487	-0.379525	-68088.5	8.947148E-8	NaN
1112	1.000000	0.762462	7.37593e+06	-55739.1	1055.82	-29740.7	0.000000	0.000000	6.763036	0.078671	NaN	0.000000	0.001534	0.001757	28.083	0.134251	0.002087	64.3137	-61.6419	-166.647	0.075458	0.761154	-0.369598	-0.370906	0.078671	64.3137	-0.370515	-50530	-1.556922E-6	NaN
1112	1.000000	0.772456	7.37593e+06	-55739.1	1055.82	-29740.7	0.000000	0.000000	6.773026	-0.031942	NaN	0.000000	0.001537	0.001757	28.0829	0.038671	0.002009	19.2522	-4.857660	16.1444	0.007576	0.771171	-0.359604	-0.360889	-0.031942	19.2522	-0.358359	-33738	9.467751E-7	NaN
1112	1.000000	0.782477	7.37593e+06	-55739.1	1055.82	-29740.7	0.000000	0.000000	6.783046	-0.057299	NaN	0.000000	0.001558	0.001739	28.0842	0.062523	0.001845	33.8789	-67.0226	-164.02	-0.029062	0.781142	-0.349583	-0.350917	-0.057299	33.8789	-0.348314	-24128.4	2.374745E-6	NaN
1112	1.000000	0.792505	7.37593e+06	-55739.1	1055.82	-29740.8	0.000000	0.000000	6.793072	-0.087732	NaN	0.000000	0.001569	0.001719	28.0841	0.075063	0.002036	36.8729	145.145	15.3471	-0.091555	0.791086	-0.339555	-0.340974	-0.087732	36.8729	-0.337770	-16944.8	5.177507E-6	NaN
1112	1.000000	0.802494	7.37593e+06	-55739.1	1055.82	-29740.7	0.000000	0.000000	6.803064	-0.031327	NaN	0.000000	0.001579	0.001738	28.0843	0.068190	0.002011	33.9051	-146.659	-162.551	-0.035321	0.801133	-0.329566	-0.330927	-0.031327	33.9051	-0.328873	-12558.6	2.494457E-6	NaN
1112	1.000000	0.812465	7.37593e+06	-55739.1	1055.82	-29740.7	0.000000	0.000000	6.813035	-0.034460	NaN	0.000000	0.001570	0.001708	28.0839	0.082408	0.002073	39.7558	150.462	14.7121	0.069484	0.811188	-0.319594	-0.320871	-0.034460	39.7558	-0.318944	-8976.2	3.839023E-6	NaN
1112	1.000000	0.822499	7.37593e+06	-55739.1	1055.82	-29740.8	0.000000	0.000000	6.823069	-0.032908	NaN	0.000000	0.001575	0.001695	28.0843	0.080687	0.002030	39.7414	89.9314	-167.903	0.010690	0.821196	-0.309560	-0.310863	-0.032908	39.7414	-0.308939	-6387.86	5.151692E-6	NaN
1112	1.000000	0.832560	7.37593e+06	-55739.1	1055.82	-29740.7	0.000000	0.000000	6.833132	0.006566	NaN	0.000000	0.001574	0.001716	28.0841	0.106526	0.002040	52.22	-105.302	14.4167	-0.058811	0.831168	-0.299500	-0.300892	0.006566	52.22	-0.299594	-4640.75	-1.414903E-6	NaN
1112	1.000000	0.842510	7.37593e+06	-55739.1	1055.82	-29740.8	0.000000	0.000000	6.843080	-0.045218	NaN	0.000000	0.001577	0.001734	28.0844	0.072599	0.002157	33.6636	-56.9494	-162.898	-0.087522	0.841216	-0.289549	-0.290844	-0.045218	33.6636	-0.288542	-3172.82	1.425172E-5	NaN
1112	1.000000	0.852474	7.37593e+06	-55739.1	1055.82	-29740.8	0.000000	0.000000	6.853043	-0.046116	NaN	0.000000	0.001556	0.001700	28.0842	0.076142	0.002042	37.2968	34.6831	14.091	-0.032878	0.851128	-0.279586	-0.280932	-0.046116	37.2968	-0.278658	-2252.79	2.047078E-5	NaN
1112	1.000000	0.862489	7.37593e+06	-55739.1	1055.82	-29740.7	0.000000	0.000000	6.863059	-0.030491	NaN	0.000000	0.001582	0.001715	28.0843	0.041208	0.001940	21.2464	-177.064	-165.63	-0.035020	0.861203	-0.269571	-0.270857	-0.030491	21.2464	-0.268494	-1579.95	1.929886E-5	NaN
1112	1.000000	0.872526	7.37593e+06	-55739.1	1055.82	-29740.8	0.000000	0.000000	6.873097	-0.002233	NaN	0.000000	0.001569	0.001695	28.0845	0.035489	0.001975	17.9699	-45.313	18.7485	0.074023	0.871176	-0.259534	-0.260883	-0.002233	17.9699	-0.259440	-1149.05	1.943143E-6	NaN
1112	1.000000	0.882547	7.37593e+06	-55739.1	1055.82	-29740.8	0.000000	0.000000	6.883119	0.023963	NaN	0.000000	0.001594	0.001708	28.0841	0.094995	0.002033	46.718	119.738	-164.191	0.037840	0.881176	-0.249513	-0.250883	0.023963	46.718	-0.249897	-819.176	-2.925252E-5	NaN
1112	1.000000	0.892512	7.37593e+06	-55739.1	1055.82	-29740.8	0.000000	0.000000	6.893080	-0.081613	NaN	0.000000	0.001557	0.001700	28.0842	0.109245	0.001948	56.0747	-160.882	14.1171	-0.081766	0.891107	-0.239548	-0.240953	-0.081613	56.0747	-0.238456	-543.773	0.000150	NaN
1112	1.000000	0.902526	7.37593e+06	-55739.1	1055.82	-29740.8	0.000000	0.000000	6.903097	-0.011148	NaN	0.000000	0.001593	0.001733	28.0841	0.113488	0.001919	59.128	2.682048	-163.372	-0.010280	0.901140	-0.229534	-0.230920	-0.011148	59.128	-0.229392	-391.67	2.846317E-5	NaN
1112	1.000000	0.912550	7.37593e+06	-55739.1	1055.82	-29740.8	0.000000	0.000000	6.913123	0.046122	NaN	0.000000	0.001592	0.001727	28.0841	0.090597	0.002016	44.94	99.5397	17.0624	0.034992	0.911213	-0.219510	-0.220846	0.046122	44.94	-0.220280	-280.638	-0.000164	NaN
1112	1.000000	0.922559	7.37593e+06	-55739.1	1055.82	-29740.8	0.000000	0.000000	6.923129	-0.035393	NaN	0.000000	0.001572	0.001696	28.0828	0.008976	0.002003	4.480040	-123.496	-166.774	-0.059923	0.921230	-0.209501	-0.210829	-0.035393	4.480040	-0.203576	-150.765	0.000235	NaN
1112	1.000000	0.932572	7.37593e+06	-55739.1	1055.82	-29740.8	0.000000	0.000000	6.933143	-0.004011	NaN	0.000000	0.001565	0.001707	28.0825	0.099948	0.001954	51.138	-113.463	14.6653	0.020734	0.931212	-0.199487	-0.200847	-0.004011	51.138	-0.199428	-128.915	3.111472E-5	NaN
1112	1.000000	0.942542	7.37593e+06	-55739.1	1055.82	-29740.8	0.000000	0.000000	6.943112	-0.035567	NaN	0.000000	0.001599	0.001728	28.083	0.106265	0.002069	51.3588	30.133	-163.615	-0.033338	0.941260	-0.189517	-0.190800	-0.035567	51.3588	-0.188998	-86.5508	0.000411	NaN
1112	1.000000	0.952542	7.37593e+06	-55739.1	1055.82	-29740.8	0.000000	0.000000	6.953113	-0.007682	NaN	0.000000	0.001596	0.001660	28.0829	0.006888	0.001960	3.515046	145.462	18.6003	-0.035862	0.951200	-0.179517	-0.180859	-0.007682	3.515046	-0.177878	-56.1433	0.000137	NaN
1112	1.000000	0.962575	7.37593e+06	-55739.1	1055.82	-29740.8	0.000000	0.000000	6.963146	0.011645	NaN	0.000000	0.001545	0.001717	28.0829	0.087071	0.002079	41.8893	-154.916	-163.058	0.084861	0.961259	-0.169485	-0.170801	0.011645	41.8893	-0.169694	-40.5781	-0.000287	NaN
1112	1.000000	0.972581	7.37593e+06	-55739.1	1055.82	-29740.8	0.000000	0.000000	6.973150	-0.048794	NaN	0.000000	0.001569	0.001717	28.0827	0.115323	0.001998	57.7097	-49.2035	12.8878	-0.047606	0.971190	-0.159479	-0.160870	-0.048794	57.7097	-0.158845	-26.1476	0.001866	NaN
1112	1.000000	0.982573	7.37593e+06	-55739.1	1055.82	-29740.8	0.000000	0.000000	6.983142	-0.053278	NaN	0.000000	0.001562	0.001718	28.0832	0.049755	0.002023	24.5891	94.9953	-164.889	-0.018985	0.981224	-0.149487	-0.150835	-0.053278	24.5891	-0.147862	-16.5536	0.003219	NaN
1112	1.000000	0.992598	7.37593e+06	-55739.1	1055.82	-29740.8	0.000000	0.000000	6.993168	-0.029766	NaN	0.000000	0.001598	0.001686	28.0827	0.084699	0.001918	44.1584	-138.514	15.6284	-0.019773	0.991248	-0.139462	-0.140812	-0.029766	44.1584	-0.138956	-11.3066	0.002633	NaN
1112	1.000000	1.002597	7.37593e+06	-55739.1	1055.82	-29740.8	0.000000	0.000000	7.003167	-0.045014	NaN	0.000000	0.001570	0.001696	28.0828	0.040122	0.001986	20.2041	-122.3	-160.971	0.019971	1.001310	-0.129462	-0.130749	-0.045014	20.2041	-0.127791	-6.901392	0.006522	NaN
1112	1.000000	1.012586	7.37593e+06	-55739.1	1055.82	-29740.8	0.000000	0.000000	7.013157	-0.015769	NaN	0.000000	0.001595	0.001711	28.0826	0.115109	0.002003	57.474	-63.7737	18.0465	-0.104062	1.011246	-0.119474	-0.120814	-0.015769	57.474	-0.119268	-4.669652	0.003377	NaN
1112	1.000000	1.022601	7.37593e+06	-55739.1	1055.82	-29740.8	0.000000	0.000000	7.023170	-0.042562	NaN	0.000000	0.001576	0.001732	28.0831	0.190171	0.001910	99.5781	-36.7312	-163.53	-0.051524	1.021303	-0.109459	-0.110757	-0.042562	99.5781	-0.109138	-2.881828	0.014769	NaN
1112	1.000000	1.032608	7.37593e+06	-55739.1	1055.82	-29740.8	0.000000	0.000000	7.033179	0.001064	NaN	0.000000	0.001566	0.001680	28.0829	0.038547	0.002043	18.8655	-135.546	18.4534	0.061303	1.031202	-0.099452	-0.100858	0.001064	18.8655	-0.099494	-1.780524	-0.000598	NaN
1112	1.000000	1.042594	7.37593e+06	-55739.1	1055.82	-29740.8	0.000000	0.000000	7.043162	-0.063381	NaN	0.000000	0.001610	0.001727	28.0828	0.068184	0.001999	34.1021	-151.098	-162.892	-0.005564	1.041257	-0.089466	-0.090803	-0.063381	34.1021	-0.088072	-0.973445	0.065110	NaN
1112	1.000000	1.052612	7.37593e+06	-55739.1	1055.82	-29740.8	0.000000	0.000000	7.053178	-0.116165	NaN	0.000000	0.001581	0.001705	28.0835	0.044891	0.002073	21.6598	9.901249	15.2926	-0.163176	1.051260	-0.079448	-0.080800	-0.116165	21.6598	-0.075426	-0.473712	0.245223	NaN
1112	1.000000	1.062581	7.37593e+06	-55739.1	1055.82	-29740.8	0.000000	0.000000	7.063149	-0.074146	NaN	0.000000	0.001625	0.001672	28.0841	0.096138	0.001974	48.7059	174.597	-162.684	-0.121626	1.061265	-0.069479	-0.070794	-0.074146	48.7059	-0.068337	-0.307673	0.240989	NaN
1112	1.000000	1.072593	7.37593e+06	-55739.1	1055.82	-29740.8	0.000000	0.000000	7.073165	0.010215	NaN	0.000000	0.001562	0.001729	28.084	0.050677	0.002051	24.7074	-148.205	16.3825	0.053475	1.071227	-0.059466	-0.060832	0.010215	24.7074	-0.059776	-0.177452	-0.057567	NaN
1112	1.000000	1.082593	7.37593e+06	-55739.1	1055.82	-29740.8	0.000000	0.000000	7.083165	0.002688	NaN	0.000000	0.001571	0.001710	28.0849	0.069304	0.001942	35.6959	179.951	-162.295	-0.043761	1.081301	-0.049466	-0.050759	0.002688	35.6959	-0.049523	-0.088265	-0.030453	NaN
1112	1.000000	1.092631	7.37593e+06	-55739.1	1055.82	-29740.8	0.000000	0.000000	7.093199	-0.090275	NaN	0.000000	0.001589	0.001708	28.0843	0.178044	0.001896	93.8894	-10.7614	15.8095	-0.151845	1.091240	-0.039428	-0.040819	-0.090275	93.8894	-0.038707	-0.041322	2.184640	NaN
1112	1.000000	1.102632	7.37593e+06	-55739.1	1055.82	-29740.8	0.000000	0.000000	7.103201	-0.047486	NaN	0.000000	0.001601	0.001715	28.0841	0.094175	0.002011	46.836	-40.7346	-167.49	-0.032931	1.101299	-0.029428	-0.030761	-0.047486	46.836	-0.028667	-0.021143	2.245987	NaN
1112	1.000000	1.112615	7.37593e+06	-55739.1	1055.82	-29740.8	0.000000	0.000000	7.113182	-0.110800	NaN	0.000000	0.001551	0.001683	28.0842	0.070970	0.002014	35.2405	8.764248	12.0327	-0.147550	1.111265	-0.019445	-0.020795	-0.110800	35.2405	-0.017087	-0.010566	10.4866	NaN
1112	1.000000	1.122614	7.37593e+06	-55739.1	1055.82	-29740.8	0.000000	0.000000	7.123185	-0.003818	NaN	0.000000	0.001572	0.001704	28.0841	0.091338	0.002040	44.782	-163.833	-164.813	-0.122509	1.121401	-0.009446	-0.010658	-0.003818	44.782	-0.009382	-0.006033	0.632882	NaN
1112	1.000000	1.132646	7.37593e+06	-55739.1	1055.82	-29740.8	0.000000	0.000000	7.133224	0.164497	NaN	0.000000	0.001554	0.001720	28.0844	0.327729	0.001996	164.189	-2.901388	12.0935	-0.121619	1.131249	0.000586	-0.000810	0.164497	164.189	-0.000165	-0.000123	-1334.5	NaN
1112	2.000000	1.142033	7.37593e+06	-55739.1	1055.82	-29740.8	0.000000	0.000000	7.142968	8.825148	NaN	0.000000	0.001544	0.001696	28.0841	8.709744	0.001614	5394.87	7.960063	-169.423	9.117291	1.141198	0.009974	0.009139	8.825148	5394.87	0.008747	0.007822	1128.28	55731.7
1112	2.000000	1.144687	7.37593e+06	-55739.1	1055.82	-29740.8	0.000000	0.000000	7.145651	9.561628	NaN	0.000000	0.001584	0.001735	28.0848	11.2261	0.001798	6244.6	7.441657	8.354995	9.242429	1.144399	0.012627	0.012340	9.561628	6244.6	0.011479	0.010872	879.491	54717.6
1112	2.000000	1.147116	7.37593e+06	-55739.1	1055.82	-29740.8	0.000000	0.000000	7.148266	14.0887	NaN	0.000000	0.001557	0.001743	28.0843	14.1128	0.001715	8226.68	5.907664	-173.828	13.3607	1.146868	0.015056	0.014808	14.0887	8226.68	0.013772	0.013682	1029.73	64257.3
1112	2.000000	1.149662	7.37593e+06	-55739.1	1055.82	-29740.8	0.000000	0.000000	7.151013	18.9527	NaN	0.000000	0.001556	0.001730	28.0848	16.6732	0.001800	9260.97	8.218845	5.406358	18.6932	1.149310	0.017602	0.017250	18.9527	9260.97	0.016067	0.016735	1132.52	65405.9
1112	2.000000	1.152073	7.37593e+06	-55739.1	1055.82	-29740.8	0.000000	0.000000	7.153627	23.8974	NaN	0.000000	0.001557	0.001722	28.084	19.0226	0.001758	10820.9	6.610598	-176.179	22.1958	1.151774	0.020013	0.019714	23.8974	10820.9	0.018357	0.020025	1193.36	69863
1112	2.000000	1.154579	7.37593e+06	-55739.1	1055.82	-29740.8	0.000000	0.000000	7.156307	28.123	NaN	0.000000	0.001535	0.001704	28.0837	21.7794	0.001878	11595	6.246175	4.154047	26.9082	1.154195	0.022519	0.022136	28.123	11595	0.020700	0.023654	1188.94	68879.7
1112	2.000000	1.157079	7.37593e+06	-55739.1	1055.82	-29740.8	0.000000	0.000000	7.158900	30.3781	NaN	0.000000	0.001516	0.001737	28.0831	24.2555	0.001916	12658.1	5.065181	-175.927	29.3142	1.156831	0.025019	0.024771	30.3781	12658.1	0.023219	0.027856	1090.56	69292.2
1112	2.000000	1.159614	7.37593e+06	-55739.1	1055.82	-29740.8	0.000000	0.000000	7.161748	37.9956	NaN	0.000000	0.001576	0.001723	28.0831	26.1923	0.001758	14900.8	7.078734	1.660455	36.3722	1.159242	0.027555	0.027183	37.9956	14900.8	0.025642	0.032194	1180.2	75874.2
1112	2.000000	1.162067	7.37593e+06	-55739.1	1055.82	-29740.8	0.000000	0.000000	7.164487	44.9451	NaN	0.000000	0.001520	0.001734	28.0828	29.2506	0.001679	17420.7	7.052198	177.797	43.4497	1.161783	0.030007	0.029723	44.9451	17420.7	0.028072	0.036842	1219.93	82921.1
1112	2.000000	1.164581	7.37593e+06	-55739.1	1055.82	-29740.8	0.000000	0.000000	7.167278	51.6724	NaN	0.000000	0.001477	0.001759	28.0842	31.7303	0.001815	17480.7	5.393436	1.668713	51.0707	1.164196	0.032522	0.032136	51.6724	17480.7	0.030305	0.041377	1248.81	78514.5
1112	2.000000	1.167026	7.37593e+06	-55739.1	1055.82	-29740.8	0.000000	0.000000	7.170073	60.1746	NaN	0.000000	0.001609	0.001718	28.0829	34.4068	0.001911	18003.2	4.164994	-177.775	58.4424	1.166694	0.034966	0.034634	60.1746	18003.2	0.032460	0.045996	1308.26	76694.2
1112	2.000000	1.169601	7.37593e+06	-55739.1	1055.82	-29740.8	0.000000	0.000000	7.172981	68.2708	NaN	0.000000	0.001580	0.001729	28.0842	36.5883	0.001623	22547.2	5.381624	-0.284423	68.6813	1.169194	0.037541	0.037135	68.2708	22547.2	0.035270	0.052377	1303.45	90011.1
1112	2.000000	1.172047	7.37593e+06	-55739.1	1055.82	-29740.8	0.000000	0.000000	7.175736	75.7952	NaN	0.000000	0.001597	0.001731	28.0829	38.7267	0.001726	22433.3	6.036332	177.374	73.2507	1.171767	0.039987	0.039707	75.7952	22433.3	0.037453	0.057613	1315.6	85390.1
1112	2.000000	1.174491	7.37593e+06	-55739.1	1055.82	-29740.8	0.000000	0.000000	7.178624	86.5748	NaN	0.000000	0.001628	0.001741	28.0834	41.6287	0.001794	23201.6	7.074335	-3.649766	83.2139	1.174179	0.042432	0.042119	86.5748	23201.6	0.039633	0.063084	1372.38	84397.8
1112	2.000000	1.177116	7.37593e+06	-55739.1	1055.82	-29740.8	0.000000	0.000000	7.181458	91.6615	NaN	0.000000	0.001641	0.001718	28.083	44.772	0.001807	24772.6	4.839473	178.235	94.5232	1.176777	0.045056	0.044717	91.6615	24772.6	0.042281	0.070056	1308.4	85511
1112	2.000000	1.179573	7.37593e+06	-55739.1	1055.82	-29740.8	0.000000	0.000000	7.184531	106.627	NaN	0.000000	0.001621	0.001695	28.0841	45.9759	0.001810	25405.6	5.318290	-1.028170	106.076	1.179188	0.047514	0.047128	106.627	25405.6	0.044366	0.075798	1406.74	84309.2
1112	2.000000	1.182037	7.37593e+06	-55739.1	1055.82	-29740.8	0.000000	0.000000	7.187436	117.365	NaN	0.000000	0.001621	0.001746	28.0831	49.0576	0.001692	28999	5.862736	175.484	118.193	1.181715	0.049977	0.049656	117.365	28999	0.046941	0.083194	1410.74	91856.4
1112	2.000000	1.184506	7.37593e+06	-55739.1	1055.82	-29740.8	0.000000	0.000000	7.190237	125.432	NaN	0.000000	0.001663	0.001729	28.0839	52.079	0.001804	28869.5	5.493405	-3.922741	122.422	1.184128	0.052446	0.052069	125.432	28869.5	0.049188	0.089919	1394.95	87960.4
1112	2.000000	1.187005	7.37593e+06	-55739.1	1055.82	-29740.8	0.000000	0.000000	7.193221	137.201	NaN	0.000000	0.001621	0.001755	28.0828	54.0712	0.001720	31436	4.299145	176.584	137.565	1.186734	0.054946	0.054674	137.201	31436	0.051672	0.097652	1405	91909.4
1112	2.000000	1.189498	7.37593e+06	-55739.1	1055.82	-29740.8	0.000000	0.000000	7.196279	150.959	NaN	0.000000	0.001641	0.001752	28.0844	55.6854	0.001806	30834	6.421734	-5.092924	145.999	1.189157	0.057438	0.057097	150.959	30834	0.053766	0.104408	1445.86	87183.7
1112	2.000000	1.192080	7.37593e+06	-55739.1	1055.82	-29740.8	0.000000	0.000000	7.199273	160.975	NaN	0.000000	0.001624	0.001732	28.0843	58.1404	0.001763	32975	2.511837	178.271	165.104	1.191809	0.060020	0.059750	160.975	32975	0.056359	0.113077	1423.59	89592.3
1112	2.000000	1.194492	7.37593e+06	-55739.1	1055.82	-29740.8	0.000000	0.000000	7.202283	175.486	NaN	0.000000	0.001643	0.001752	28.0848	61.6846	0.001818	33925.9	2.149386	-2.007148	170.965	1.194125	0.062433	0.062066	175.486	33925.9	0.058553	0.120671	1454.25	89228.4
1112	2.000000	1.196969	7.37593e+06	-55739.1	1055.82	-29740.8	0.000000	0.000000	7.205126	184.384	NaN	0.000000	0.001634	0.001753	28.0841	64.933	0.001808	35911.8	3.722684	175.846	180.742	1.196754	0.064910	0.064695	184.384	35911.8	0.061059	0.129632	1422.36	91128.3
1112	2.000000	1.199473	7.37593e+06	-55739.1	1055.82	-29740.8	0.000000	0.000000	7.208259	199.681	NaN	0.000000	0.001619	0.001719	28.0842	66.1516	0.001757	37647.8	7.247860	-6.987526	195.019	1.199126	0.067413	0.067066	199.681	37647.8	0.063435	0.138414	1442.64	92453.4
1112	2.000000	1.201923	7.37593e+06	-55739.1	1055.82	-29740.8	0.000000	0.000000	7.211365	215.647	NaN	0.000000	0.001624	0.001758	28.0842	67.79	0.001773	38238.6	2.074035	177.003	210.887	1.201638	0.069863	0.069579	215.647	38238.6	0.065634	0.146781	1469.18	91188.7
1112	2.000000	1.204498	7.37593e+06	-55739.1	1055.82	-29740.8	0.000000	0.000000	7.214353	225.649	NaN	0.000000	0.001623	0.001755	28.0848	71.1469	0.001648	43176.3	6.072488	-7.844487	222.876	1.204113	0.072439	0.072054	225.649	43176.3	0.068519	0.158116	1427.11	99204.2
1112	2.000000	1.206959	7.37593e+06	-55739.1	1055.82	-29740.8	0.000000	0.000000	7.217473	241.697	NaN	0.000000	0.001574	0.001749	28.0841	76.3137	0.001945	39228.8	8.558102	170.668	238.896	1.206751	0.074899	0.074692	241.697	39228.8	0.070278	0.165221	1462.87	88175.1
1112	2.000000	1.209507	7.37593e+06	-55739.1	1055.82	-29740.8	0.000000	0.000000	7.220783	260.201	NaN	0.000000	0.001609	0.001742	28.0845	77.54	0.001992	38917.8	7.430026	-7.591147	258.782	1.209136	0.077448	0.077076	260.201	38917.8	0.072433	0.174127	1494.31	85209.5
1112	2.000000	1.211984	7.37593e+06	-55739.1	1055.82	-29740.8	0.000000	0.000000	7.223535	266.905	NaN	0.000000	0.001579	0.001710	28.0842	78.6136	0.001697	46323	2.712248	174.893	264.475	1.211832	0.079924	0.079772	266.905	46323	0.075603	0.187623	1422.56	97707.1
1112	2.000000	1.214494	7.37593e+06	-55739.1	1055.82	-29740.8	0.000000	0.000000	7.226942	288.698	NaN	0.000000	0.001580	0.001738	28.0846	80.891	0.001767	45782.2	2.462149	-3.938534	286.136	1.214108	0.082434	0.082048	288.698	45782.2	0.077705	0.196834	1466.71	94280.2
1112	2.000000	1.216940	7.37593e+06	-55739.1	1055.82	-29740.8	0.000000	0.000000	7.230219	308.887	NaN	0.000000	0.001563	0.001754	28.0843	84.0217	0.001905	44096	0.942247	177.205	304.849	1.216662	0.084881	0.084602	308.887	44096	0.079627	0.205438	1503.55	88885.6
1112	2.000000	1.219594	7.37593e+06	-55739.1	1055.82	-29740.8	0.000000	0.000000	7.233234	317.688	NaN	0.000000	0.001577	0.001744	28.0844	85.8436	0.001939	44268.8	3.132419	-4.159893	320.734	1.219173	0.087534	0.087114	317.688	44268.8	0.082152	0.217002	1463.99	86824
1112	2.000000	1.221958	7.37593e+06	-55739.1	1055.82	-29740.8	0.000000	0.000000	7.236594	341.873	NaN	0.000000	0.001568	0.001722	28.0836	86.9262	0.001641	52962.5	6.675651	170.784	339.97	1.221616	0.089899	0.089557	341.873	52962.5	0.085057	0.230676	1482.05	100749
1112	2.000000	1.224488	7.37593e+06	-55739.1	1055.82	-29740.8	0.000000	0.000000	7.240005	363.309	NaN	0.000000	0.001569	0.001705	28.0831	90.4769	0.001902	47562.4	5.999785	-7.906201	361.421	1.223966	0.092428	0.091906	363.309	47562.4	0.086699	0.238575	1522.83	88966.2
1112	2.000000	1.226970	7.37593e+06	-55739.1	1055.82	-29740.8	0.000000	0.000000	7.242768	370.136	NaN	0.000000	0.001553	0.001696	28.083	92.2983	0.001778	51925.4	4.078125	172.999	368.894	1.226767	0.094910	0.094708	370.136	51925.4	0.089564	0.252654	1464.99	94382.1
1112	2.000000	1.229478	7.37593e+06	-55739.1	1055.82	-29740.8	0.000000	0.000000	7.246275	394.428	NaN	0.000000	0.001547	0.001691	28.0828	94.7121	0.001814	52208.7	8.436141	-11.1173	390.275	1.228964	0.097418	0.096905	394.428	52208.7	0.091752	0.263661	1495.97	92895.2
1112	2.000000	1.231945	7.37594e+06	-55739.1	1055.82	-29740.8	0.000000	0.000000	7.249464	411.976	NaN	0.000000	0.001550	0.001744	28.0829	96.8592	0.001756	55163.3	6.079698	170.242	409.212	1.231576	0.099886	0.099516	411.976	55163.3	0.094284	0.276673	1489.04	95816.4
1112	2.000000	1.234456	7.37594e+06	-55739.1	1055.82	-29740.8	0.000000	0.000000	7.252519	425.182	NaN	0.000000	0.001512	0.001748	28.0829	101.457	0.001923	52751	7.958773	-10.4048	422.441	1.234005	0.102396	0.101945	425.182	52751	0.096351	0.287511	1478.84	89882.7
1112	2.000000	1.236985	7.37594e+06	-55739.1	1055.82	-29740.8	0.000000	0.000000	7.256145	451.861	NaN	0.000000	0.001517	0.001744	28.0827	102.162	0.001766	57843.7	3.198492	173.225	452.05	1.236681	0.104925	0.104621	451.861	57843.7	0.099067	0.302046	1496	96159.6
1112	2.000000	1.239421	7.37594e+06	-55739.1	1055.82	-29740.8	0.000000	0.000000	7.259287	469.02	NaN	0.000000	0.001561	0.001719	28.0827	104.126	0.001796	57973.6	4.336960	-8.178443	462.804	1.239129	0.107361	0.107070	469.02	57973.6	0.101293	0.314214	1492.68	94491.1
1112	2.000000	1.240503	7.37594e+06	-55739.1	1055.82	-29740.8	0.000000	0.000000	7.260897	481.86	NaN	0.000000	0.001555	0.001760	28.0829	105.621	0.001811	58326.4	5.969851	-9.014021	481.714	1.240044	0.108443	0.107984	481.86	58326.4	0.102247	0.319495	1508.2	94277.1