File: remote_trans/data/nanoindenter/0828-1/data/Data_2025-08-06,11h17m57s/2025-07-22_16-23-58_1_1202.txt
2025-07-22, 16:23:58, 1
Index	Phase	Displacement	Time	Pos X	Pos Y	Pos Z	Rot A	Rot B	Piezo Z	Force A	Force B	Gripper	Voltage A	Voltage B	Temperature	Amplitude force	Amplitude pos	Stiffness	Phase shift	Phase excitation	Force A raw	Displacement raw	HMax	HMax raw	Real Force	Real Stiffness	Contact Depth	Area	Hardness	Reduced Mod.
[#]	[#]	[um]	[s]	[um]	[um]	[um]	[m°]	[m°]	[um]	[uN]	[uN]	[V]	[V]	[V]	[°C]	[uN]	[um]	[N/m]	[°]	[°]	[uN]	[um]	[um]	[um]	[uN]	[N/m]	[um]	[um^2]	[MPa]	[MPa]
1202	1.000000	0.002704	7.3768e+06	-55489.1	1105.82	-29741.2	0.000000	0.000000	6.002809	0.060540	NaN	0.000000	0.001584	0.001741	28.083	0.101608	0.000912	111.379	159.092	-162.64	0.116665	0.001439	-1.158174	-1.159439	0.060540	111.379	-1.158581	-3.060943E+15	-1.977834E-17	NaN
1202	1.000000	0.012765	7.3768e+06	-55489.1	1105.82	-29741.2	0.000000	0.000000	6.012870	0.051126	NaN	0.000000	0.001540	0.001717	28.0828	0.071960	0.001197	60.1003	129.697	15.0465	0.067477	0.011308	-1.148112	-1.149570	0.051126	60.1003	-1.148750	-2.259763E+15	-2.262454E-17	NaN
1202	1.000000	0.022663	7.3768e+06	-55489.1	1105.82	-29741.2	0.000000	0.000000	6.022765	0.002494	NaN	0.000000	0.001578	0.001738	28.0831	0.124708	0.001847	67.5062	12.167	-167.879	-0.052377	0.021381	-1.138215	-1.139496	0.002494	67.5062	-1.138242	-1.633688E+15	-1.526572E-18	NaN
1202	1.000000	0.032663	7.3768e+06	-55489.1	1105.82	-29741.2	0.000000	0.000000	6.032765	-0.019378	NaN	0.000000	0.001561	0.001716	28.0829	0.070597	0.001915	36.8735	109.859	14.5128	0.020026	0.031306	-1.128214	-1.129572	-0.019378	36.8735	-1.127820	-1.184084E+15	1.636547E-17	NaN
1202	1.000000	0.042630	7.3768e+06	-55489.1	1105.82	-29741.2	0.000000	0.000000	6.042737	0.107640	NaN	0.000000	0.001582	0.001693	28.0835	0.050392	0.002030	24.8208	-179.679	-159.717	0.105001	0.041354	-1.118247	-1.119524	0.107640	24.8208	-1.121500	-9.740771E+14	-1.105050E-16	NaN
1202	1.000000	0.052646	7.3768e+06	-55489.1	1105.82	-29741.2	0.000000	0.000000	6.052748	-0.023706	NaN	0.000000	0.001557	0.001688	28.0829	0.009240	0.001806	5.117471	174.271	14.4949	-0.026205	0.051236	-1.108232	-1.109641	-0.023706	5.117471	-1.104757	-5.806651E+14	4.082507E-17	NaN
1202	1.000000	0.062652	7.3768e+06	-55489.1	1105.82	-29741.2	0.000000	0.000000	6.062757	0.052771	NaN	0.000000	0.001562	0.001740	28.083	0.136545	0.002015	67.7808	97.6255	-163.958	0.036620	0.061342	-1.098225	-1.099535	0.052771	67.7808	-1.098809	-4.831453E+14	-1.092229E-16	NaN
1202	1.000000	0.072623	7.3768e+06	-55489.1	1105.82	-29741.2	0.000000	0.000000	6.072727	0.030637	NaN	0.000000	0.001548	0.001739	28.0832	0.049471	0.002042	24.2318	-83.6554	15.4202	0.025581	0.071254	-1.088254	-1.089623	0.030637	24.2318	-1.089202	-3.590033E+14	-8.533923E-17	NaN
1202	1.000000	0.082655	7.3768e+06	-55489.1	1105.82	-29741.2	0.000000	0.000000	6.082761	0.061511	NaN	0.000000	0.001570	0.001698	28.083	0.007460	0.001865	3.999375	-23.8389	-165.288	0.096319	0.081323	-1.078222	-1.079554	0.061511	3.999375	-1.089757	-3.652168E+14	-1.684241E-16	NaN
1202	1.000000	0.092654	7.3768e+06	-55489.1	1105.82	-29741.2	0.000000	0.000000	6.092756	0.001238	NaN	0.000000	0.001604	0.001709	28.0816	0.086570	0.001995	43.4009	-42.1793	15.6529	0.053807	0.091256	-1.068224	-1.069622	0.001238	43.4009	-1.068245	-1.877643E+14	-6.594935E-18	NaN
1202	1.000000	0.102625	7.3768e+06	-55489.1	1105.82	-29741.2	0.000000	0.000000	6.102732	0.101783	NaN	0.000000	0.001581	0.001754	28.0817	0.036999	0.002024	18.2793	2.588443	-166.772	0.028923	0.101367	-1.058252	-1.059511	0.101783	18.2793	-1.062428	-1.568393E+14	-6.489665E-16	NaN
1202	1.000000	0.112697	7.3768e+06	-55489.1	1105.82	-29741.2	0.000000	0.000000	6.112799	0.000141	NaN	0.000000	0.001572	0.001715	28.0817	0.031843	0.001933	16.4735	-151.37	10.7683	0.058462	0.111290	-1.048181	-1.049587	0.000141	16.4735	-1.048187	-1.009358E+14	-1.395749E-18	NaN
1202	1.000000	0.122680	7.3768e+06	-55489.1	1105.82	-29741.2	0.000000	0.000000	6.122785	0.060489	NaN	0.000000	0.001600	0.001746	28.0816	0.042604	0.002108	20.2116	-80.3597	-166.533	0.056049	0.121319	-1.038198	-1.039558	0.060489	20.2116	-1.040442	-7.941703E+13	-7.616603E-16	NaN
1202	1.000000	0.132676	7.3768e+06	-55489.1	1105.82	-29741.2	0.000000	0.000000	6.132778	-0.014153	NaN	0.000000	0.001571	0.001739	28.0815	0.095009	0.001933	49.1432	-2.866794	10.2404	0.028635	0.131301	-1.028201	-1.029577	-0.014153	49.1432	-1.027985	-5.399817E+13	2.621025E-16	NaN
1202	1.000000	0.142667	7.3768e+06	-55489.1	1105.82	-29741.2	0.000000	0.000000	6.142770	-0.003917	NaN	0.000000	0.001572	0.001752	28.0814	0.010660	0.002028	5.256850	-106.712	-166.303	0.012535	0.141381	-1.018210	-1.019496	-0.003917	5.256850	-1.017651	-3.920584E+13	9.991919E-17	NaN
1202	1.000000	0.152661	7.3768e+06	-55489.1	1105.82	-29741.2	0.000000	0.000000	6.152763	-0.018451	NaN	0.000000	0.001629	0.001701	28.0815	0.059858	0.001915	31.2497	-33.2693	19.0729	0.016710	0.151308	-1.008216	-1.009569	-0.018451	31.2497	-1.007773	-2.886775E+13	6.391676E-16	NaN
1202	1.000000	0.162685	7.3768e+06	-55489.1	1105.82	-29741.2	0.000000	0.000000	6.162790	0.043609	NaN	0.000000	0.001612	0.001709	28.0815	0.078316	0.002028	38.6238	-152.165	-165.308	-0.000748	0.161346	-0.998192	-0.999531	0.043609	38.6238	-0.999039	-2.202056E+13	-1.980375E-15	NaN
1202	1.000000	0.172706	7.3768e+06	-55489.1	1105.82	-29741.2	0.000000	0.000000	6.172809	0.011507	NaN	0.000000	0.001603	0.001690	28.0817	0.073026	0.001934	37.7542	-69.819	14.6414	-0.033756	0.171350	-0.988172	-0.989527	0.011507	37.7542	-0.988400	-1.583304E+13	-7.268009E-16	NaN
1202	1.000000	0.182695	7.3768e+06	-55489.1	1105.82	-29741.2	0.000000	0.000000	6.182797	-0.001218	NaN	0.000000	0.001609	0.001736	28.0818	0.056570	0.002051	27.5772	179.82	-163.942	0.038416	0.181416	-0.978183	-0.979462	-0.001218	27.5772	-0.978150	-1.152073E+13	1.057427E-16	NaN
1202	1.000000	0.192690	7.3768e+06	-55489.1	1105.82	-29741.2	0.000000	0.000000	6.192793	0.006954	NaN	0.000000	0.001617	0.001693	28.0817	0.028472	0.001910	14.9076	149.843	18.8348	0.043585	0.191333	-0.968187	-0.969545	0.006954	14.9076	-0.968537	-8.549624E+12	-8.133784E-16	NaN
1202	1.000000	0.202697	7.3768e+06	-55489.1	1105.82	-29741.2	0.000000	0.000000	6.202804	0.118303	NaN	0.000000	0.001607	0.001694	28.0819	0.100870	0.002000	50.4456	12.7914	-167.233	0.016107	0.201405	-0.958181	-0.959472	0.118303	50.4456	-0.959940	-6.547190E+12	-1.806921E-14	NaN
1202	1.000000	0.212729	7.3768e+06	-55489.1	1105.82	-29741.2	0.000000	0.000000	6.212833	0.037713	NaN	0.000000	0.001598	0.001751	28.0817	0.051929	0.002172	23.9064	-145.862	14.5469	0.018699	0.211340	-0.948149	-0.949538	0.037713	23.9064	-0.949332	-4.709967E+12	-8.007062E-15	NaN
1202	1.000000	0.222738	7.3768e+06	-55489.1	1105.82	-29741.2	0.000000	0.000000	6.222841	-0.008189	NaN	0.000000	0.001612	0.001749	28.0829	0.095952	0.002013	47.6604	-3.962477	-164.36	-0.002741	0.221420	-0.938139	-0.939457	-0.008189	47.6604	-0.938010	-3.313534E+12	2.471521E-15	NaN
1202	1.000000	0.232691	7.3768e+06	-55489.1	1105.82	-29741.2	0.000000	0.000000	6.232792	-0.033042	NaN	0.000000	0.001621	0.001723	28.083	0.061832	0.002040	30.3105	158.475	17.2645	-0.044888	0.231339	-0.928187	-0.929538	-0.033042	30.3105	-0.927369	-2.380604E+12	1.387974E-14	NaN
1202	1.000000	0.242710	7.3768e+06	-55489.1	1105.82	-29741.2	0.000000	0.000000	6.242814	0.024766	NaN	0.000000	0.001553	0.001769	28.083	0.017169	0.001982	8.662638	106.212	-164.841	0.028703	0.241463	-0.918167	-0.919414	0.024766	8.662638	-0.920311	-1.911638E+12	-1.295543E-14	NaN
1202	1.000000	0.252739	7.3768e+06	-55489.1	1105.82	-29741.2	0.000000	0.000000	6.252846	0.117626	NaN	0.000000	0.001571	0.001739	28.0833	0.090479	0.002086	43.3681	9.838814	14.7925	0.091573	0.251388	-0.908139	-0.909489	0.117626	43.3681	-0.910173	-1.394750E+12	-8.433512E-14	NaN
1202	1.000000	0.262713	7.3768e+06	-55489.1	1105.82	-29741.2	0.000000	0.000000	6.262816	0.015966	NaN	0.000000	0.001550	0.001730	28.0832	0.078623	0.001976	39.7863	-168.77	-163.976	0.066463	0.261435	-0.898164	-0.899442	0.015966	39.7863	-0.898465	-9.690117E+11	-1.647687E-14	NaN
1202	1.000000	0.272724	7.3768e+06	-55489.1	1105.82	-29741.2	0.000000	0.000000	6.272827	0.002558	NaN	0.000000	0.001576	0.001722	28.0833	0.044627	0.001943	22.9739	80.0735	13.5405	-0.035165	0.271355	-0.888153	-0.889522	0.002558	22.9739	-0.888236	-7.048137E+11	-3.629024E-15	NaN
1202	1.000000	0.282741	7.3768e+06	-55489.1	1105.82	-29741.2	0.000000	0.000000	6.282845	0.023527	NaN	0.000000	0.001572	0.001732	28.083	0.110091	0.002010	54.7718	174.666	-167.513	-0.031501	0.281464	-0.878137	-0.879414	0.023527	54.7718	-0.878459	-5.198335E+11	-4.525945E-14	NaN
1202	1.000000	0.292753	7.3768e+06	-55489.1	1105.82	-29741.2	0.000000	0.000000	6.292857	0.029292	NaN	0.000000	0.001599	0.001690	28.0834	0.103297	0.001998	51.7052	165.314	16.8231	0.068974	0.291373	-0.868124	-0.869504	0.029292	51.7052	-0.868549	-3.817772E+11	-7.672615E-14	NaN
1202	1.000000	0.302746	7.3768e+06	-55489.1	1105.82	-29741.2	0.000000	0.000000	6.302851	0.049930	NaN	0.000000	0.001592	0.001745	28.0829	0.108879	0.001933	56.3229	107.971	-163.12	-0.034764	0.301443	-0.858131	-0.859434	0.049930	56.3229	-0.858796	-2.817235E+11	-1.772320E-13	NaN
1202	1.000000	0.312768	7.3768e+06	-55489.1	1105.82	-29741.2	0.000000	0.000000	6.312871	-0.000232	NaN	0.000000	0.001571	0.001720	28.0831	0.107085	0.001977	54.1538	-142.191	14.4423	-0.084263	0.311345	-0.848109	-0.849532	-0.000232	54.1538	-0.848106	-2.018799E+11	1.146888E-15	NaN
1202	1.000000	0.322738	7.3768e+06	-55489.1	1105.82	-29741.2	0.000000	0.000000	6.322840	-0.014713	NaN	0.000000	0.001592	0.001724	28.084	0.021916	0.002052	10.6788	-45.6783	-163.206	-0.038739	0.321460	-0.838139	-0.839417	-0.014713	10.6788	-0.837106	-1.432470E+11	1.027105E-13	NaN
1202	1.000000	0.332748	7.3768e+06	-55489.1	1105.82	-29741.2	0.000000	0.000000	6.332851	0.002558	NaN	0.000000	0.001599	0.001702	28.083	0.155043	0.001991	77.8665	-90.0611	13.8339	-0.028315	0.331416	-0.828129	-0.829461	0.002558	77.8665	-0.828154	-1.083319E+11	-2.361476E-14	NaN
1202	1.000000	0.342773	7.3768e+06	-55489.1	1105.82	-29741.2	0.000000	0.000000	6.342875	-0.003320	NaN	0.000000	0.001581	0.001670	28.083	0.059501	0.002013	29.5644	121.923	-163.62	0.024097	0.341468	-0.818105	-0.819409	-0.003320	29.5644	-0.818020	-7.895238E+10	4.205538E-14	NaN
1202	1.000000	0.352763	7.3768e+06	-55489.1	1105.82	-29741.2	0.000000	0.000000	6.352866	0.005987	NaN	0.000000	0.001552	0.001702	28.0831	0.068166	0.002063	33.0442	45.1524	14.8258	0.016613	0.351384	-0.808114	-0.809493	0.005987	33.0442	-0.808250	-5.818754E+10	-1.028964E-13	NaN
1202	1.000000	0.362781	7.3768e+06	-55489.1	1105.82	-29741.2	0.000000	0.000000	6.362884	0.014452	NaN	0.000000	0.001542	0.001727	28.0817	0.132722	0.002022	65.6402	124.036	-165.327	0.089455	0.361464	-0.798096	-0.799413	0.014452	65.6402	-0.798261	-4.258541E+10	-3.393612E-13	NaN
1202	1.000000	0.372763	7.3768e+06	-55489.1	1105.82	-29741.2	0.000000	0.000000	6.372867	0.009349	NaN	0.000000	0.001573	0.001690	28.0818	0.020667	0.001910	10.8212	-66.045	15.0594	0.069079	0.371416	-0.788114	-0.789461	0.009349	10.8212	-0.788762	-3.164218E+10	-2.954549E-13	NaN
1202	1.000000	0.382785	7.3768e+06	-55489.1	1105.82	-29741.2	0.000000	0.000000	6.382886	-0.037856	NaN	0.000000	0.001550	0.001746	28.0816	0.134212	0.001917	70.0075	73.2996	-163.192	-0.098196	0.381491	-0.778092	-0.779386	-0.037856	70.0075	-0.777687	-2.237657E+10	1.691753E-12	NaN
1202	1.000000	0.392776	7.3768e+06	-55489.1	1105.82	-29741.2	0.000000	0.000000	6.392881	0.041747	NaN	0.000000	0.001565	0.001719	28.0816	0.033341	0.002060	16.1827	11.8513	15.2181	-0.003986	0.391449	-0.768101	-0.769428	0.041747	16.1827	-0.770036	-1.761127E+10	-2.370442E-12	NaN
1202	1.000000	0.402827	7.3768e+06	-55489.1	1105.82	-29741.2	0.000000	0.000000	6.402932	0.061000	NaN	0.000000	0.001541	0.001711	28.0817	0.037012	0.001960	18.8875	178.88	-162.668	0.133276	0.401505	-0.758051	-0.759372	0.061000	18.8875	-0.760473	-1.305375E+10	-4.673003E-12	NaN
1202	1.000000	0.412821	7.3768e+06	-55489.1	1105.82	-29741.2	0.000000	0.000000	6.412925	0.029753	NaN	0.000000	0.001586	0.001724	28.0817	0.076749	0.002036	37.7051	-133.157	16.281	0.038061	0.411408	-0.748056	-0.749470	0.029753	37.7051	-0.748648	-9.011816E+9	-3.301540E-12	NaN
1202	1.000000	0.422804	7.3768e+06	-55489.1	1105.82	-29741.2	0.000000	0.000000	6.422909	0.061717	NaN	0.000000	0.001563	0.001709	28.0815	0.020057	0.001933	10.376	18.914	-162.189	0.010237	0.421511	-0.738073	-0.739367	0.061717	10.376	-0.742534	-7.439960E+9	-8.295350E-12	NaN
1202	1.000000	0.432804	7.3768e+06	-55489.1	1105.82	-29741.2	0.000000	0.000000	6.432908	0.019198	NaN	0.000000	0.001542	0.001720	28.0816	0.014172	0.002104	6.736774	-79.3411	17.0251	0.053990	0.431423	-0.728073	-0.729454	0.019198	6.736774	-0.730210	-5.054441E+9	-3.798339E-12	NaN
1202	1.000000	0.442812	7.3768e+06	-55489.1	1105.82	-29741.2	0.000000	0.000000	6.442914	-0.019899	NaN	0.000000	0.001514	0.001692	28.0817	0.070409	0.001950	36.1001	51.7009	-165.451	0.036550	0.441468	-0.718066	-0.719409	-0.019899	36.1001	-0.717652	-3.407612E+9	5.839701E-12	NaN
1202	1.000000	0.452809	7.3768e+06	-55489.1	1105.82	-29741.2	0.000000	0.000000	6.452912	-0.001517	NaN	0.000000	0.001531	0.001713	28.0815	0.168864	0.001878	89.917	-8.791449	15.1272	-0.015936	0.451482	-0.708068	-0.709396	-0.001517	89.917	-0.708056	-2.520658E+9	6.017272E-13	NaN
1202	1.000000	0.462839	7.3768e+06	-55489.1	1105.82	-29741.2	0.000000	0.000000	6.462943	0.049972	NaN	0.000000	0.001527	0.001751	28.0814	0.082797	0.001886	43.9096	-70.457	-166.034	0.014063	0.461525	-0.698039	-0.699352	0.049972	43.9096	-0.698892	-1.889746E+9	-2.644363E-11	NaN
1202	1.000000	0.472814	7.3768e+06	-55489.1	1105.82	-29741.2	0.000000	0.000000	6.472920	0.064620	NaN	0.000000	0.001532	0.001750	28.0819	0.052870	0.001877	28.165	-98.694	13.0095	0.083810	0.471464	-0.688063	-0.689414	0.064620	28.165	-0.689784	-1.418927E+9	-4.554111E-11	NaN
1202	1.000000	0.482821	7.3768e+06	-55489.1	1105.82	-29741.2	0.000000	0.000000	6.482923	-0.016151	NaN	0.000000	0.001578	0.001746	28.0817	0.157913	0.002035	77.5945	69.6163	-168.86	0.056347	0.481500	-0.678056	-0.679377	-0.016151	77.5945	-0.677900	-9.760854E+8	1.654709E-11	NaN
1202	1.000000	0.492786	7.3768e+06	-55489.1	1105.82	-29741.2	0.000000	0.000000	6.492889	-0.004301	NaN	0.000000	0.001542	0.001773	28.0815	0.128896	0.002005	64.2872	17.0994	14.3552	0.093752	0.491461	-0.668091	-0.669416	-0.004301	64.2872	-0.668041	-7.154394E+8	6.012365E-12	NaN
1202	1.000000	0.502834	7.3768e+06	-55489.1	1105.82	-29741.2	0.000000	0.000000	6.502936	-0.024754	NaN	0.000000	0.001547	0.001744	28.0828	0.069062	0.002098	32.916	-125.364	-161.902	-0.020499	0.501507	-0.658043	-0.659370	-0.024754	32.916	-0.657479	-5.127807E+8	4.827415E-11	NaN
1202	1.000000	0.512860	7.3768e+06	-55489.1	1105.82	-29741.2	0.000000	0.000000	6.512965	0.064529	NaN	0.000000	0.001538	0.001729	28.0831	0.030490	0.002016	15.1267	-86.0082	14.6089	0.132461	0.511480	-0.648018	-0.649397	0.064529	15.1267	-0.651217	-4.208421E+8	-1.533327E-10	NaN
1202	1.000000	0.522819	7.3768e+06	-55489.1	1105.82	-29741.2	0.000000	0.000000	6.522924	0.058713	NaN	0.000000	0.001544	0.001756	28.0829	0.104603	0.002051	51.0096	-49.7465	-163.339	0.025300	0.521560	-0.638058	-0.639317	0.058713	51.0096	-0.638921	-2.854241E+8	-2.057039E-10	NaN
1202	1.000000	0.532872	7.3768e+06	-55489.1	1105.82	-29741.2	0.000000	0.000000	6.532974	-0.018076	NaN	0.000000	0.001540	0.001748	28.0829	0.086929	0.001997	43.5296	-140.178	14.7826	-0.083833	0.531533	-0.628006	-0.629344	-0.018076	43.5296	-0.627694	-2.001496E+8	9.031281E-11	NaN
1202	1.000000	0.542846	7.3768e+06	-55489.1	1105.82	-29741.2	0.000000	0.000000	6.542947	-0.037598	NaN	0.000000	0.001557	0.001750	28.0828	0.108873	0.001973	55.1743	-87.8884	-163.586	-0.072843	0.541559	-0.618032	-0.619318	-0.037598	55.1743	-0.617520	-1.450599E+8	2.591904E-10	NaN
1202	1.000000	0.552861	7.3768e+06	-55489.1	1105.82	-29741.2	0.000000	0.000000	6.552965	0.016706	NaN	0.000000	0.001533	0.001745	28.0831	0.095267	0.002030	46.9376	-74.0551	14.4652	-0.047469	0.551473	-0.608016	-0.609405	0.016706	46.9376	-0.608283	-1.082647E+8	-1.543038E-10	NaN
1202	1.000000	0.562864	7.3768e+06	-55489.1	1105.82	-29741.2	0.000000	0.000000	6.562969	0.061041	NaN	0.000000	0.001536	0.001754	28.0828	0.070153	0.002017	34.7858	154.68	-162.854	0.019518	0.561532	-0.598013	-0.599345	0.061041	34.7858	-0.599330	-8.151292E+7	-7.488507E-10	NaN
1202	1.000000	0.572862	7.3768e+06	-55489.1	1105.82	-29741.2	0.000000	0.000000	6.572966	0.026281	NaN	0.000000	0.001557	0.001710	28.0827	0.047323	0.001873	25.2644	-27.4433	14.2724	0.031914	0.571484	-0.588015	-0.589393	0.026281	25.2644	-0.588795	-5.835181E+7	-4.503835E-10	NaN
1202	1.000000	0.582873	7.3768e+06	-55489.1	1105.82	-29741.2	0.000000	0.000000	6.582979	0.059515	NaN	0.000000	0.001547	0.001742	28.0828	0.063186	0.001948	32.4363	-49.5301	-162.231	0.078033	0.581593	-0.578004	-0.579284	0.059515	32.4363	-0.579380	-4.326828E+7	-1.375489E-9	NaN
1202	1.000000	0.592842	7.3768e+06	-55489.1	1105.82	-29741.2	0.000000	0.000000	6.592945	0.016319	NaN	0.000000	0.001553	0.001741	28.0829	0.043387	0.001964	22.0964	-145.417	16.7284	0.065828	0.591475	-0.568036	-0.569403	0.016319	22.0964	-0.568590	-3.070030E+7	-5.315660E-10	NaN
1202	1.000000	0.602879	7.3768e+06	-55489.1	1105.82	-29741.2	0.000000	0.000000	6.602980	-0.048107	NaN	0.000000	0.001538	0.001718	28.0831	0.029095	0.001950	14.9211	-42.1416	-163.45	-0.043704	0.601560	-0.557999	-0.559317	-0.048107	14.9211	-0.555581	-2.028732E+7	2.371263E-9	NaN
1202	1.000000	0.612851	7.3768e+06	-55489.1	1105.82	-29741.2	0.000000	0.000000	6.612953	0.001065	NaN	0.000000	0.001573	0.001714	28.083	0.026691	0.002013	13.2607	-36.2755	16.0993	-0.033570	0.611516	-0.548027	-0.549361	0.001065	13.2607	-0.548087	-1.597551E+7	-6.666175E-11	NaN
1202	1.000000	0.622903	7.3768e+06	-55489.1	1105.82	-29741.2	0.000000	0.000000	6.623009	0.077234	NaN	0.000000	0.001562	0.001701	28.0833	0.131901	0.002043	64.5664	174.988	-169.299	0.032074	0.621581	-0.537975	-0.539297	0.077234	64.5664	-0.538872	-1.190446E+7	-6.487816E-9	NaN
1202	1.000000	0.632908	7.3768e+06	-55489.1	1105.82	-29741.2	0.000000	0.000000	6.633008	-0.064102	NaN	0.000000	0.001594	0.001725	28.0816	0.050465	0.002032	24.8321	153.655	17.7788	-0.010999	0.631489	-0.527970	-0.529388	-0.064102	24.8321	-0.526034	-7.89725e+06	8.117062E-9	NaN
1202	1.000000	0.642898	7.3768e+06	-55489.1	1105.82	-29741.2	0.000000	0.000000	6.643003	0.063862	NaN	0.000000	0.001610	0.001730	28.0816	0.082016	0.002030	40.3996	-157.887	-165.71	0.069292	0.641638	-0.517980	-0.519240	0.063862	40.3996	-0.519165	-6.3385e+06	-1.007519E-8	NaN
1202	1.000000	0.652890	7.3768e+06	-55489.1	1105.82	-29741.2	0.000000	0.000000	6.652993	0.002619	NaN	0.000000	0.001597	0.001736	28.0816	0.035489	0.001979	17.9334	-4.593582	18.5318	0.010538	0.651552	-0.507987	-0.509326	0.002619	17.9334	-0.508096	-4.44527e+06	-5.891664E-10	NaN
1202	1.000000	0.662884	7.3768e+06	-55489.1	1105.82	-29741.2	0.000000	0.000000	6.662988	0.028256	NaN	0.000000	0.001600	0.001727	28.0819	0.024131	0.001905	12.6655	92.4775	-165.282	-0.051748	0.661589	-0.497993	-0.499288	0.028256	12.6655	-0.499667	-3.39131e+06	-8.331961E-9	NaN
1202	1.000000	0.672919	7.3768e+06	-55489.1	1105.82	-29741.2	0.000000	0.000000	6.673025	0.079529	NaN	0.000000	0.001537	0.001726	28.0818	0.034206	0.001917	17.8419	44.5786	13.824	0.111237	0.671538	-0.487958	-0.489340	0.079529	17.8419	-0.491301	-2.59164e+06	-3.068657E-8	NaN
1202	1.000000	0.682923	7.3768e+06	-55489.1	1105.82	-29741.2	0.000000	0.000000	6.683028	0.044712	NaN	0.000000	0.001558	0.001729	28.082	0.148896	0.002065	72.1187	139.011	-164.731	0.028455	0.681617	-0.477954	-0.479261	0.044712	72.1187	-0.478419	-1.71157e+06	-2.612343E-8	NaN
1202	1.000000	0.692926	7.3768e+06	-55489.1	1105.82	-29741.2	0.000000	0.000000	6.693028	-0.018168	NaN	0.000000	0.001530	0.001719	28.082	0.037469	0.002093	17.9062	152.492	10.9013	0.003368	0.691512	-0.467951	-0.469365	-0.018168	17.9062	-0.467190	-1.19121e+06	1.525193E-8	NaN
1202	1.000000	0.702918	7.3768e+06	-55489.1	1105.82	-29741.2	0.000000	0.000000	6.703021	-0.008442	NaN	0.000000	0.001553	0.001680	28.0819	0.064006	0.002014	31.7762	14.4069	-167.322	-0.008791	0.701621	-0.457959	-0.459256	-0.008442	31.7762	-0.457760	-878068	9.614626E-9	NaN
1202	1.000000	0.712915	7.3768e+06	-55489.1	1105.82	-29741.2	0.000000	0.000000	6.713020	0.044144	NaN	0.000000	0.001488	0.001721	28.0818	0.042075	0.001824	23.0619	-58.75	14.2836	-0.062600	0.711547	-0.447962	-0.449330	0.044144	23.0619	-0.449397	-669665	-6.591946E-8	NaN
1202	1.000000	0.722915	7.3768e+06	-55489.1	1105.82	-29741.2	0.000000	0.000000	6.723020	0.054828	NaN	0.000000	0.001528	0.001719	28.0818	0.075952	0.002040	37.2406	98.9071	-166.725	0.040132	0.721642	-0.437962	-0.439236	0.054828	37.2406	-0.439066	-478836	-1.145022E-7	NaN
1202	1.000000	0.732899	7.3768e+06	-55489.1	1105.82	-29741.2	0.000000	0.000000	6.733003	0.031896	NaN	0.000000	0.001512	0.001738	28.082	0.064905	0.001978	32.8169	152.067	14.179	0.019664	0.731603	-0.427978	-0.429274	0.031896	32.8169	-0.428707	-341796	-9.331796E-8	NaN
1202	1.000000	0.742948	7.3768e+06	-55489.1	1105.82	-29741.2	0.000000	0.000000	6.743049	-0.040209	NaN	0.000000	0.001532	0.001721	28.082	0.071779	0.002051	34.9967	73.7469	-161.442	-0.029841	0.741589	-0.417930	-0.419288	-0.040209	34.9967	-0.417068	-233784	1.719927E-7	NaN
1202	1.000000	0.752926	7.3768e+06	-55489.1	1105.82	-29741.2	0.000000	0.000000	6.753028	-0.025638	NaN	0.000000	0.001544	0.001698	28.082	0.076933	0.001964	39.1783	172.804	15.2278	0.051152	0.751573	-0.407951	-0.409304	-0.025638	39.1783	-0.407461	-170717	1.501760E-7	NaN
1202	1.000000	0.762952	7.3768e+06	-55489.1	1105.82	-29741.2	0.000000	0.000000	6.763053	-0.038006	NaN	0.000000	0.001480	0.001729	28.0818	0.058058	0.002162	26.8544	-163.411	-162.741	-0.066492	0.761694	-0.397926	-0.399183	-0.038006	26.8544	-0.396864	-120574	3.152081E-7	NaN
1202	1.000000	0.772964	7.3768e+06	-55489.1	1105.82	-29741.2	0.000000	0.000000	6.773068	0.013526	NaN	0.000000	0.001497	0.001730	28.0832	0.038698	0.001928	20.076	128.117	12.9363	0.005464	0.771554	-0.387913	-0.389324	0.013526	20.076	-0.388418	-91314.1	-1.481301E-7	NaN
1202	1.000000	0.782941	7.3768e+06	-55489.1	1105.82	-29741.2	0.000000	0.000000	6.783046	0.044354	NaN	0.000000	0.001529	0.001687	28.0834	0.069050	0.001986	34.7674	-157.98	-169.622	0.063939	0.781655	-0.377936	-0.379222	0.044354	34.7674	-0.378893	-66680.9	-6.651620E-7	NaN
1202	1.000000	0.792948	7.3768e+06	-55489.1	1105.82	-29741.2	0.000000	0.000000	6.793052	0.019008	NaN	0.000000	0.001471	0.001745	28.0833	0.057456	0.002022	28.4223	-153.353	12.0972	0.014330	0.791641	-0.367929	-0.369237	0.019008	28.4223	-0.368431	-47154.5	-4.030988E-7	NaN
1202	1.000000	0.802946	7.3768e+06	-55489.1	1105.82	-29741.2	0.000000	0.000000	6.803048	-0.003826	NaN	0.000000	0.001460	0.001723	28.0834	0.091323	0.001990	45.8912	93.2049	-168.537	-0.004896	0.801698	-0.357932	-0.359180	-0.003826	45.8912	-0.357869	-33191.8	1.152567E-7	NaN
1202	1.000000	0.812971	7.3768e+06	-55489.1	1105.82	-29741.2	0.000000	0.000000	6.813074	0.003628	NaN	0.000000	0.001506	0.001726	28.0833	0.044733	0.002138	20.9186	-150.562	16.1109	0.006375	0.811625	-0.347906	-0.349253	0.003628	20.9186	-0.348036	-23905	-1.517674E-7	NaN
1202	1.000000	0.822952	7.3768e+06	-55489.1	1105.82	-29741.2	0.000000	0.000000	6.823053	-0.043287	NaN	0.000000	0.001533	0.001726	28.0833	0.052208	0.002110	24.7462	-12.3771	-163.161	-0.021589	0.821676	-0.337925	-0.339201	-0.043287	24.7462	-0.336614	-16298.7	2.655860E-6	NaN
1202	1.000000	0.832969	7.3768e+06	-55489.1	1105.82	-29741.2	0.000000	0.000000	6.833071	0.000967	NaN	0.000000	0.001576	0.001738	28.0834	0.112103	0.002080	53.8957	-100.354	16.6106	-0.016905	0.831575	-0.327909	-0.329302	0.000967	53.8957	-0.327922	-12162.1	-7.953522E-8	NaN
1202	1.000000	0.842964	7.3768e+06	-55489.1	1105.82	-29741.2	0.000000	0.000000	6.843068	0.028048	NaN	0.000000	0.001609	0.001706	28.0834	0.086869	0.002060	42.1689	-151.841	-160.562	-0.001409	0.841686	-0.317913	-0.319191	0.028048	42.1689	-0.318412	-8815.64	-3.181605E-6	NaN
1202	1.000000	0.852986	7.3768e+06	-55489.1	1105.82	-29741.2	0.000000	0.000000	6.853091	0.064487	NaN	0.000000	0.001606	0.001705	28.0833	0.087632	0.002090	41.9319	-33.9146	17.0879	-0.022670	0.851609	-0.307892	-0.309268	0.064487	41.9319	-0.309045	-6410.93	-1.005886E-5	NaN
1202	1.000000	0.862993	7.3768e+06	-55489.1	1105.82	-29741.2	0.000000	0.000000	6.863098	0.042880	NaN	0.000000	0.001604	0.001717	28.0832	0.041003	0.002071	19.8025	-178.353	-165.903	0.008817	0.861694	-0.297884	-0.299183	0.042880	19.8025	-0.299508	-4627.16	-9.267020E-6	NaN
1202	1.000000	0.872973	7.3768e+06	-55489.1	1105.82	-29741.2	0.000000	0.000000	6.873075	-0.006092	NaN	0.000000	0.001628	0.001732	28.0833	0.062641	0.002102	29.8061	48.1898	11.5756	0.064864	0.871667	-0.287904	-0.289211	-0.006092	29.8061	-0.287751	-3087.34	1.973102E-6	NaN
1202	1.000000	0.882993	7.3768e+06	-55489.1	1105.82	-29741.2	0.000000	0.000000	6.883095	-0.017942	NaN	0.000000	0.001624	0.001734	28.0832	0.126821	0.002049	61.9034	-178.037	-165.459	0.055809	0.881690	-0.277884	-0.279187	-0.017942	61.9034	-0.277667	-2176.39	8.243729E-6	NaN
1202	1.000000	0.893016	7.3768e+06	-55489.1	1105.82	-29741.2	0.000000	0.000000	6.893121	0.047369	NaN	0.000000	0.001648	0.001749	28.083	0.061528	0.002048	30.0482	170.597	12.3543	0.033069	0.891672	-0.267861	-0.269205	0.047369	30.0482	-0.269044	-1610.66	-2.940941E-5	NaN
1202	1.000000	0.903009	7.3768e+06	-55489.1	1105.82	-29741.2	0.000000	0.000000	6.903113	0.009279	NaN	0.000000	0.001667	0.001752	28.0833	0.032504	0.002052	15.8412	-11.6705	-163.917	-0.013548	0.901665	-0.257868	-0.259212	0.009279	15.8412	-0.258307	-1103.96	-8.405217E-6	NaN
1202	1.000000	0.913024	7.3768e+06	-55489.1	1105.82	-29741.2	0.000000	0.000000	6.913130	0.061596	NaN	0.000000	0.001620	0.001726	28.0822	0.091792	0.001926	47.6496	-154.323	13.4747	0.062838	0.911647	-0.247853	-0.249230	0.061596	47.6496	-0.248822	-788.397	-7.812825E-5	NaN
1202	1.000000	0.923010	7.3768e+06	-55489.1	1105.82	-29741.2	0.000000	0.000000	6.923113	-0.000647	NaN	0.000000	0.001597	0.001700	28.0817	0.079786	0.001972	40.4662	-23.6277	-167.351	0.011028	0.921678	-0.237867	-0.239199	-0.000647	40.4662	-0.237855	-532.131	1.216561E-6	NaN
1202	1.000000	0.933036	7.3768e+06	-55489.1	1105.82	-29741.2	0.000000	0.000000	6.933141	0.054572	NaN	0.000000	0.001587	0.001731	28.0817	0.059688	0.002036	29.3191	42.9261	9.363682	0.045068	0.931664	-0.227841	-0.229213	0.054572	29.3191	-0.229237	-389.461	-0.000140	NaN
1202	1.000000	0.943006	7.3768e+06	-55489.1	1105.82	-29741.2	0.000000	0.000000	6.943108	-0.003770	NaN	0.000000	0.001590	0.001711	28.0818	0.145851	0.002060	70.793	-79.7448	-160.985	-0.062776	0.941699	-0.217872	-0.219178	-0.003770	70.793	-0.217832	-256.434	1.470061E-5	NaN
1202	1.000000	0.953009	7.3768e+06	-55489.1	1105.82	-29741.2	0.000000	0.000000	6.953116	0.100148	NaN	0.000000	0.001573	0.001757	28.082	0.119431	0.002071	57.6594	-72.6775	15.1983	0.120184	0.951686	-0.207868	-0.209191	0.100148	57.6594	-0.209171	-185.944	-0.000539	NaN
1202	1.000000	0.963005	7.3768e+06	-55489.1	1105.82	-29741.2	0.000000	0.000000	6.963106	-0.038573	NaN	0.000000	0.001576	0.001727	28.0817	0.022183	0.001891	11.729	-110.83	-169.504	-0.019642	0.961737	-0.197873	-0.199141	-0.038573	11.729	-0.195406	-110.644	0.000349	NaN
1202	1.000000	0.973018	7.3768e+06	-55489.1	1105.82	-29741.2	0.000000	0.000000	6.973123	0.059202	NaN	0.000000	0.001678	0.001696	28.0818	0.061230	0.001964	31.1825	-37.0131	12.7828	-0.024599	0.971682	-0.187859	-0.189196	0.059202	31.1825	-0.189283	-87.5072	-0.000677	NaN
1202	1.000000	0.983041	7.3768e+06	-55489.1	1105.82	-29741.2	0.000000	0.000000	6.983146	0.051731	NaN	0.000000	0.001564	0.001716	28.0819	0.066279	0.002122	31.23	-25.0938	-169.157	0.011503	0.981733	-0.177836	-0.179144	0.051731	31.23	-0.179079	-58.8545	-0.000879	NaN
1202	1.000000	0.993013	7.3768e+06	-55489.1	1105.82	-29741.2	0.000000	0.000000	6.993117	0.022737	NaN	0.000000	0.001601	0.001701	28.0817	0.091924	0.001939	47.4182	-160.189	16.8157	0.005246	0.991714	-0.167864	-0.169164	0.022737	47.4182	-0.168224	-38.2569	-0.000594	NaN
1202	1.000000	1.003077	7.3768e+06	-55489.1	1105.82	-29741.2	0.000000	0.000000	7.003183	0.072570	NaN	0.000000	0.001561	0.001707	28.0818	0.127949	0.002075	61.6513	-107.223	-165.83	0.064387	1.001698	-0.157800	-0.159179	0.072570	61.6513	-0.158683	-25.9744	-0.002794	NaN
1202	1.000000	1.013067	7.3768e+06	-55489.1	1105.82	-29741.2	0.000000	0.000000	7.013168	-0.037878	NaN	0.000000	0.001601	0.001677	28.0818	0.101260	0.001959	51.6938	-178.699	15.8422	-0.042492	1.011683	-0.147810	-0.149194	-0.037878	51.6938	-0.147261	-16.1382	0.002347	NaN
1202	1.000000	1.023053	7.3768e+06	-55489.1	1105.82	-29741.2	0.000000	0.000000	7.023155	-0.022414	NaN	0.000000	0.001642	0.001662	28.0819	0.086619	0.002020	42.8888	100.55	-163.556	-0.021869	1.021751	-0.137824	-0.139127	-0.022414	42.8888	-0.137432	-10.5813	0.002118	NaN
1202	1.000000	1.033063	7.3768e+06	-55489.1	1105.82	-29741.2	0.000000	0.000000	7.033165	-0.006689	NaN	0.000000	0.001639	0.001682	28.0819	0.105352	0.002000	52.6639	-90.4995	17.8632	0.057601	1.031729	-0.127815	-0.129148	-0.006689	52.6639	-0.127719	-6.879066	0.000972	NaN
1202	1.000000	1.043059	7.3768e+06	-55489.1	1105.82	-29741.2	0.000000	0.000000	7.043164	0.037195	NaN	0.000000	0.001618	0.001707	28.0828	0.045724	0.001975	23.148	-117.418	-164.191	-0.009163	1.041795	-0.117818	-0.119083	0.037195	23.148	-0.119023	-4.616635	-0.008057	NaN
1202	1.000000	1.053039	7.3768e+06	-55489.1	1105.82	-29741.2	0.000000	0.000000	7.053142	0.014795	NaN	0.000000	0.001606	0.001667	28.0832	0.069190	0.002023	34.1965	22.6677	17.6082	-0.021244	1.051705	-0.107838	-0.109173	0.014795	34.1965	-0.108163	-2.747670	-0.005385	NaN
1202	1.000000	1.063033	7.3768e+06	-55489.1	1105.82	-29741.2	0.000000	0.000000	7.063137	0.034732	NaN	0.000000	0.001562	0.001677	28.0831	0.042240	0.001970	21.4393	-24.9459	-167.214	-0.040288	1.061755	-0.097845	-0.099122	0.034732	21.4393	-0.099060	-1.741312	-0.019946	NaN
1202	1.000000	1.073067	7.3768e+06	-55489.1	1105.82	-29741.2	0.000000	0.000000	7.073175	0.107030	NaN	0.000000	0.001581	0.001684	28.083	0.028545	0.002014	14.1713	52.3586	13.5866	0.052934	1.071630	-0.087810	-0.089248	0.107030	14.1713	-0.093474	-1.301669	-0.082225	NaN
1202	1.000000	1.083055	7.3768e+06	-55489.1	1105.82	-29741.2	0.000000	0.000000	7.083156	-0.048608	NaN	0.000000	0.001601	0.001689	28.0828	0.049990	0.001957	25.5463	158.098	-164.544	0.016149	1.081814	-0.077822	-0.079064	-0.048608	25.5463	-0.076395	-0.501696	0.096887	NaN
1202	1.000000	1.093086	7.3768e+06	-55489.1	1105.82	-29741.2	0.000000	0.000000	7.093190	0.030047	NaN	0.000000	0.001582	0.001706	28.0831	0.010048	0.002040	4.926011	102.193	14.5067	0.004281	1.091726	-0.067792	-0.069151	0.030047	4.926011	-0.072366	-0.394240	-0.076216	NaN
1202	1.000000	1.103052	7.3768e+06	-55489.1	1105.82	-29741.2	0.000000	0.000000	7.103153	-0.051443	NaN	0.000000	0.001617	0.001673	28.0835	0.047685	0.002089	22.8229	-0.618050	-164.793	-0.115530	1.101758	-0.057825	-0.059120	-0.051443	22.8229	-0.056135	-0.139083	0.369872	NaN
1202	1.000000	1.113082	7.3768e+06	-55489.1	1105.82	-29741.2	0.000000	0.000000	7.113187	0.067751	NaN	0.000000	0.001586	0.001657	28.0832	0.028880	0.002025	14.2623	-54.5092	16.4218	0.154965	1.111739	-0.047795	-0.049139	0.067751	14.2623	-0.051358	-0.100278	-0.675635	NaN
1202	1.000000	1.123101	7.3768e+06	-55489.1	1105.82	-29741.2	0.000000	0.000000	7.123205	0.012140	NaN	0.000000	0.001593	0.001690	28.0835	0.064817	0.002130	30.4236	130.487	-164.215	0.023230	1.121806	-0.037776	-0.039071	0.012140	30.4236	-0.038075	-0.039549	-0.306953	NaN
1202	1.000000	1.133115	7.3768e+06	-55489.1	1105.82	-29741.2	0.000000	0.000000	7.133218	-0.000310	NaN	0.000000	0.001610	0.001669	28.0831	0.070097	0.002142	32.7198	101.144	15.0819	0.010468	1.131676	-0.027762	-0.029201	-0.000310	32.7198	-0.027755	-0.019968	0.015530	NaN
1202	1.000000	1.143088	7.3768e+06	-55489.1	1105.82	-29741.2	0.000000	0.000000	7.143193	0.046096	NaN	0.000000	0.001587	0.001653	28.0838	0.052692	0.002042	25.8028	18.0509	-166.348	0.007988	1.141804	-0.017789	-0.019073	0.046096	25.8028	-0.019129	-0.011935	-3.862336	NaN
1202	1.000000	1.153112	7.3768e+06	-55489.1	1105.82	-29741.2	0.000000	0.000000	7.153214	-0.006209	NaN	0.000000	0.001611	0.001710	28.0831	0.102113	0.002051	49.7825	-103.235	16.471	-0.034213	1.151720	-0.007766	-0.009157	-0.006209	49.7825	-0.007672	-0.005039	1.232270	NaN
1202	1.000000	1.163096	7.3768e+06	-55489.1	1105.82	-29741.2	0.000000	0.000000	7.163297	2.395472	NaN	0.000000	0.001552	0.001719	28.0835	3.118198	0.001678	1858.28	8.875982	-170.361	1.104597	1.161781	0.002219	0.000903	2.395472	1858.28	0.001252	0.000959	2498.39	54830
1202	2.000000	1.170195	7.3768e+06	-55489.1	1105.82	-29741.2	0.000000	0.000000	7.170689	9.506854	NaN	0.000000	0.001619	0.001693	28.0832	10.5023	0.001659	6329.66	12.9335	2.342382	8.871117	1.169807	0.009317	0.008930	9.506854	6329.66	0.008191	0.007240	1313.18	67967
1202	2.000000	1.172591	7.3768e+06	-55489.1	1105.82	-29741.2	0.000000	0.000000	7.173254	13.6112	NaN	0.000000	0.001592	0.001702	28.0826	12.7885	0.001519	8419.41	2.718157	-171.726	12.6065	1.172325	0.011714	0.011448	13.6112	8419.41	0.010501	0.009744	1396.87	77926.4
1202	2.000000	1.175129	7.3768e+06	-55489.1	1105.82	-29741.2	0.000000	0.000000	7.175970	17.9437	NaN	0.000000	0.001581	0.001664	28.0819	16.7082	0.001820	9179.85	10.6409	1.054430	17.8065	1.174796	0.014252	0.013918	17.9437	9179.85	0.012786	0.012445	1441.85	75181.9
1202	2.000000	1.177588	7.3768e+06	-55489.1	1105.82	-29741.2	0.000000	0.000000	7.178610	22.3337	NaN	0.000000	0.001591	0.001692	28.0826	18.5653	0.001820	10201.3	7.092984	-176.222	21.1861	1.177303	0.016711	0.016425	22.3337	10201.3	0.015069	0.015378	1452.36	75159.7
1202	2.000000	1.180102	7.3768e+06	-55489.1	1105.82	-29741.2	0.000000	0.000000	7.181408	29.2534	NaN	0.000000	0.001556	0.001655	28.082	21.8634	0.001706	12815.6	6.283879	0.284693	27.4212	1.179696	0.019224	0.018819	29.2534	12815.6	0.017512	0.018783	1557.45	85434.2
1202	2.000000	1.182603	7.3768e+06	-55489.1	1105.82	-29741.2	0.000000	0.000000	7.184009	31.6915	NaN	0.000000	0.001560	0.001654	28.0821	23.2637	0.001731	13441.7	6.560125	-177.194	33.2056	1.182256	0.021725	0.021378	31.6915	13441.7	0.019957	0.022475	1410.09	81918.3
1202	2.000000	1.185054	7.3768e+06	-55489.1	1105.82	-29741.2	0.000000	0.000000	7.186786	39.5983	NaN	0.000000	0.001598	0.001671	28.0819	25.6899	0.001611	15951.4	0.065702	5.017071	37.6525	1.184752	0.024177	0.023875	39.5983	15951.4	0.022315	0.026311	1504.98	89845.9
1202	2.000000	1.187547	7.3768e+06	-55489.1	1105.82	-29741.2	0.000000	0.000000	7.189410	42.7678	NaN	0.000000	0.001607	0.001666	28.0828	29.7422	0.001796	16564.3	5.053223	-179.14	41.3445	1.187249	0.026670	0.026372	42.7678	16564.3	0.024734	0.030533	1400.71	86608.8
1202	2.000000	1.190063	7.3768e+06	-55489.1	1105.82	-29741.2	0.000000	0.000000	7.192161	48.5174	NaN	0.000000	0.001598	0.001662	28.0821	31.1688	0.001782	17488.1	4.620202	1.525638	46.6991	1.189735	0.029185	0.028858	48.5174	17488.1	0.027105	0.034956	1387.95	85458.4
1202	2.000000	1.192541	7.3768e+06	-55489.1	1105.82	-29741.2	0.000000	0.000000	7.195099	59.6813	NaN	0.000000	0.001550	0.001655	28.0826	33.8093	0.001716	19696.9	5.462386	178.45	59.2932	1.192203	0.031664	0.031326	59.6813	19696.9	0.029392	0.039492	1511.23	90556
1202	2.000000	1.195017	7.3768e+06	-55489.1	1105.82	-29741.2	0.000000	0.000000	7.197740	63.6966	NaN	0.000000	0.001560	0.001650	28.0819	37.1395	0.001955	18995.5	7.761127	-2.694172	62.4908	1.194672	0.034139	0.033795	63.6966	18995.5	0.031624	0.044178	1441.82	82569.8
1202	2.000000	1.197554	7.3768e+06	-55489.1	1105.82	-29741.2	0.000000	0.000000	7.200690	73.7336	NaN	0.000000	0.001588	0.001666	28.0841	38.3261	0.001779	21541.8	2.737359	-178.572	72.8603	1.197196	0.036676	0.036319	73.7336	21541.8	0.034109	0.049692	1483.8	88290
1202	2.000000	1.200098	7.3768e+06	-55489.1	1105.82	-29741.2	0.000000	0.000000	7.203401	77.7934	NaN	0.000000	0.001610	0.001677	28.0844	40.4546	0.001792	22571.3	5.564825	-1.768805	78.0969	1.199761	0.039221	0.038884	77.7934	22571.3	0.036636	0.055623	1398.58	87438.3
1202	2.000000	1.202505	7.3768e+06	-55489.1	1105.82	-29741.2	0.000000	0.000000	7.206280	89.2676	NaN	0.000000	0.001626	0.001663	28.0832	43.3146	0.001938	22349.2	8.644189	175.24	88.2024	1.202181	0.041628	0.041304	89.2676	22349.2	0.038632	0.060540	1474.51	82987.3
1202	2.000000	1.204990	7.3768e+06	-55489.1	1105.82	-29741.2	0.000000	0.000000	7.209217	100.27	NaN	0.000000	0.001631	0.001662	28.0819	44.7286	0.001798	24879.1	6.451413	-3.463763	97.781	1.204635	0.044112	0.043758	100.27	24879.1	0.041090	0.066875	1499.37	87897.7
1202	2.000000	1.207517	7.3768e+06	-55489.1	1105.82	-29741.2	0.000000	0.000000	7.212020	106.956	NaN	0.000000	0.001579	0.001618	28.0832	46.8212	0.001744	26846.2	0.473376	-178.94	106.966	1.207329	0.046640	0.046452	106.956	26846.2	0.043652	0.073805	1449.16	90284.3
1202	2.000000	1.210025	7.3768e+06	-55489.1	1105.82	-29741.2	0.000000	0.000000	7.215091	120.639	NaN	0.000000	0.001641	0.001600	28.083	49.8964	0.001839	27131.6	9.741845	-6.299754	117.992	1.209629	0.049148	0.048752	120.639	27131.6	0.045813	0.079912	1509.64	87688.3
1202	2.000000	1.212496	7.3768e+06	-55489.1	1105.82	-29741.2	0.000000	0.000000	7.217861	127.926	NaN	0.000000	0.001651	0.001669	28.0834	50.9769	0.001593	32000.9	1.797442	177.963	125.949	1.212233	0.051619	0.051355	127.926	32000.9	0.048620	0.088196	1450.46	98448.8
1202	2.000000	1.215022	7.3768e+06	-55489.1	1105.82	-29741.2	0.000000	0.000000	7.220640	134.085	NaN	0.000000	0.001627	0.001668	28.0828	55.647	0.001865	29838.6	2.454282	-1.809284	132.078	1.214672	0.054144	0.053795	134.085	29838.6	0.050774	0.094821	1414.08	88531.7
1202	2.000000	1.217523	7.3768e+06	-55489.1	1105.82	-29741.2	0.000000	0.000000	7.224079	156.858	NaN	0.000000	0.001631	0.001675	28.0832	58.433	0.001715	34071.6	8.486985	171.391	157.571	1.217151	0.056646	0.056274	156.858	34071.6	0.053193	0.102537	1529.77	97213.2
1202	2.000000	1.220030	7.3768e+06	-55489.1	1105.82	-29741.2	0.000000	0.000000	7.227084	168.958	NaN	0.000000	0.001612	0.001665	28.0829	59.631	0.001744	34201.1	6.630415	-6.634141	167.607	1.219578	0.059153	0.058701	168.958	34201.1	0.055448	0.109993	1536.08	94217.4
1202	2.000000	1.222522	7.3768e+06	-55489.1	1105.82	-29741.2	0.000000	0.000000	7.229893	176.701	NaN	0.000000	0.001636	0.001706	28.083	61.8236	0.001712	36111.4	4.921774	174.465	177.233	1.222225	0.061644	0.061347	176.701	36111.4	0.057974	0.118645	1489.33	95784.1
1202	2.000000	1.224950	7.3768e+06	-55489.1	1105.82	-29741.2	0.000000	0.000000	7.232905	190.88	NaN	0.000000	0.001642	0.001700	28.0829	64.0058	0.001737	36847.7	-0.356347	-0.027623	186.396	1.224628	0.064072	0.063751	190.88	36847.7	0.060187	0.126481	1509.16	94661.1
1202	2.000000	1.227455	7.3768e+06	-55489.1	1105.82	-29741.2	0.000000	0.000000	7.235823	200.906	NaN	0.000000	0.001658	0.001693	28.083	68.7204	0.001831	37534.6	6.290744	172.536	199.514	1.227125	0.066578	0.066248	200.906	37534.6	0.062564	0.135161	1486.41	93278
1202	2.000000	1.229959	7.3768e+06	-55489.1	1105.82	-29741.2	0.000000	0.000000	7.239117	220.127	NaN	0.000000	0.001669	0.001676	28.0831	69.0646	0.001713	40324.8	1.521737	-2.796903	216.685	1.229729	0.069081	0.068852	220.127	40324.8	0.064987	0.144297	1525.52	96987.9
1202	2.000000	1.232426	7.3768e+06	-55489.1	1105.82	-29741.2	0.000000	0.000000	7.242413	240.266	NaN	0.000000	0.001648	0.001710	28.0828	70.3985	0.001946	36168.4	-0.310873	-179.142	236.931	1.232147	0.071549	0.071269	240.266	36168.4	0.066566	0.150402	1597.49	85207.1
1202	2.000000	1.234930	7.3768e+06	-55489.1	1105.82	-29741.2	0.000000	0.000000	7.245181	246.694	NaN	0.000000	0.001651	0.001681	28.0826	72.8541	0.001639	44458.3	2.347453	-4.822738	240.322	1.234555	0.074053	0.073677	246.694	44458.3	0.069891	0.163645	1507.49	100409
1202	2.000000	1.237499	7.3768e+06	-55489.1	1105.82	-29741.2	0.000000	0.000000	7.248261	259.098	NaN	0.000000	0.001611	0.001656	28.0827	77.9148	0.001827	42638.9	3.926883	173.991	258.052	1.237366	0.076622	0.076489	259.098	42638.9	0.072065	0.172588	1501.25	93772.2
1202	2.000000	1.239900	7.3768e+06	-55489.1	1105.82	-29741.2	0.000000	0.000000	7.251333	275.404	NaN	0.000000	0.001594	0.001668	28.0816	78.1757	0.001734	45094.4	2.964090	-5.484896	268.364	1.239681	0.079023	0.078803	275.404	45094.4	0.074443	0.182628	1508	96407.6
1202	2.000000	1.242444	7.3768e+06	-55489.1	1105.82	-29741.2	0.000000	0.000000	7.254609	293.217	NaN	0.000000	0.001605	0.001676	28.0813	80.6127	0.001769	45558.9	4.541404	173.2	291.608	1.242146	0.081566	0.081269	293.217	45558.9	0.076739	0.192578	1522.59	94851.4
1202	2.000000	1.244978	7.3768e+06	-55489.1	1105.82	-29741.2	0.000000	0.000000	7.257936	312.477	NaN	0.000000	0.001600	0.001652	28.0814	83.3212	0.001865	44665.6	9.707246	-12.1675	311.049	1.244626	0.084101	0.083749	312.477	44665.6	0.078854	0.201957	1547.24	90806.4
1202	2.000000	1.247398	7.3768e+06	-55489.1	1105.82	-29741.2	0.000000	0.000000	7.260907	325.885	NaN	0.000000	0.001623	0.001662	28.0814	85.0351	0.001772	47985.6	4.023271	173.217	322.078	1.247141	0.086521	0.086263	325.885	47985.6	0.081427	0.213654	1525.29	94848
1202	2.000000	1.250030	7.3768e+06	-55489.1	1105.82	-29741.2	0.000000	0.000000	7.264410	347.052	NaN	0.000000	0.001622	0.001678	28.0816	87.0443	0.001761	49428.5	6.586091	-8.647558	348.075	1.249534	0.089153	0.088657	347.052	49428.5	0.083887	0.225121	1541.62	95179.3
1202	2.000000	1.252399	7.3768e+06	-55489.1	1105.82	-29741.2	0.000000	0.000000	7.267548	365.745	NaN	0.000000	0.001602	0.001637	28.0814	87.8663	0.001634	53781.1	1.711004	175.66	362.354	1.252144	0.091522	0.091267	365.745	53781.1	0.086422	0.237230	1541.73	100883
1202	2.000000	1.254892	7.3768e+06	-55489.1	1105.82	-29741.2	0.000000	0.000000	7.270943	387.685	NaN	0.000000	0.001587	0.001686	28.0815	92.4739	0.001911	48401.6	5.117693	-6.565469	384.005	1.254532	0.094014	0.093655	387.685	48401.6	0.088007	0.244955	1582.68	89349.1
1202	2.000000	1.257469	7.3768e+06	-55489.1	1105.82	-29741.2	0.000000	0.000000	7.273293	382.148	NaN	0.000000	0.001638	0.001691	28.0818	95.9003	0.001841	52101.2	1.760676	174.556	381.075	1.257457	0.096592	0.096579	382.148	52101.2	0.091091	0.260311	1468.04	93298.5
1202	2.000000	1.260049	7.3768e+06	-55489.1	1105.82	-29741.2	0.000000	0.000000	7.277187	414.1	NaN	0.000000	0.001680	0.001674	28.0816	97.5	0.001835	53122.4	3.531868	-6.893555	414.44	1.259725	0.099172	0.098847	414.1	53122.4	0.093326	0.271712	1524.04	93110.1
1202	2.000000	1.262498	7.3768e+06	-55489.1	1105.82	-29741.2	0.000000	0.000000	7.280736	440.851	NaN	0.000000	0.001660	0.001688	28.0816	99.4049	0.001749	56841.8	1.915055	174.342	443.476	1.262117	0.101621	0.101239	440.851	56841.8	0.095804	0.284622	1548.9	97343.3
1202	2.000000	1.264880	7.3768e+06	-55489.1	1105.82	-29741.2	0.000000	0.000000	7.283789	457.162	NaN	0.000000	0.001702	0.001677	28.0814	102.508	0.001763	58128.7	3.326992	-7.057612	450.393	1.264497	0.104002	0.103620	457.162	58128.7	0.098104	0.296855	1540.02	97474.7
1202	2.000000	1.267368	7.3768e+06	-55489.1	1105.82	-29741.2	0.000000	0.000000	7.287214	479.944	NaN	0.000000	0.001690	0.001653	28.0817	105.987	0.001788	59285.9	6.071359	169.873	476.813	1.267062	0.106490	0.106185	479.944	59285.9	0.100419	0.309408	1551.17	97377.6