File: remote_trans/data/nanoindenter/0828-1/data/Data_2025-08-06,11h17m57s/2025-07-22_16-23-58_1_1058.txt
2025-07-22, 16:23:58, 1
Index	Phase	Displacement	Time	Pos X	Pos Y	Pos Z	Rot A	Rot B	Piezo Z	Force A	Force B	Gripper	Voltage A	Voltage B	Temperature	Amplitude force	Amplitude pos	Stiffness	Phase shift	Phase excitation	Force A raw	Displacement raw	HMax	HMax raw	Real Force	Real Stiffness	Contact Depth	Area	Hardness	Reduced Mod.
[#]	[#]	[um]	[s]	[um]	[um]	[um]	[m°]	[m°]	[um]	[uN]	[uN]	[V]	[V]	[V]	[°C]	[uN]	[um]	[N/m]	[°]	[°]	[uN]	[um]	[um]	[um]	[uN]	[N/m]	[um]	[um^2]	[MPa]	[MPa]
1058	1.000000	0.002728	7.37539e+06	-53039.1	1055.82	-29747.4	0.000000	0.000000	6.002797	-0.001712	NaN	0.000000	0.001592	0.001720	28.0829	0.086355	0.001013	85.2238	29.0045	-164.142	-0.053181	0.001496	-1.149522	-1.150753	-0.001712	85.2238	-1.149507	-2.313160E+15	7.402153E-19	NaN
1058	1.000000	0.012790	7.37539e+06	-53039.1	1055.82	-29747.4	0.000000	0.000000	6.012861	0.045677	NaN	0.000000	0.001579	0.001743	28.0829	0.055121	0.001285	42.8938	-45.9983	15.6976	-0.006467	0.011342	-1.139460	-1.140908	0.045677	42.8938	-1.140258	-1.738618E+15	-2.627217E-17	NaN
1058	1.000000	0.022694	7.37539e+06	-53039.1	1055.82	-29747.4	0.000000	0.000000	6.022763	-0.019570	NaN	0.000000	0.001568	0.001735	28.0829	0.031489	0.001690	18.6334	18.0284	-161.887	0.003216	0.021392	-1.129555	-1.130857	-0.019570	18.6334	-1.128767	-1.219229E+15	1.605152E-17	NaN
1058	1.000000	0.032695	7.37539e+06	-53039.1	1055.82	-29747.4	0.000000	0.000000	6.032763	-0.036346	NaN	0.000000	0.001643	0.001707	28.083	0.091472	0.001871	48.9013	30.2405	16.3602	-0.146728	0.031288	-1.119555	-1.120962	-0.036346	48.9013	-1.118997	-9.016049E+14	4.031219E-17	NaN
1058	1.000000	0.042655	7.37539e+06	-53039.1	1055.82	-29747.4	0.000000	0.000000	6.042725	0.005956	NaN	0.000000	0.001680	0.001727	28.0831	0.060223	0.002102	28.6518	40.36	-164.469	0.091531	0.041348	-1.109594	-1.110901	0.005956	28.6518	-1.109750	-6.775322E+14	-8.790004E-18	NaN
1058	1.000000	0.052673	7.37539e+06	-53039.1	1055.82	-29747.4	0.000000	0.000000	6.052743	0.017888	NaN	0.000000	0.001655	0.001724	28.0831	0.079741	0.001934	41.2274	147.656	16.0771	-0.004030	0.051302	-1.099576	-1.100947	0.017888	41.2274	-1.099901	-4.997412E+14	-3.579460E-17	NaN
1058	1.000000	0.062661	7.37539e+06	-53039.1	1055.82	-29747.4	0.000000	0.000000	6.062728	-0.041646	NaN	0.000000	0.001680	0.001754	28.0828	0.011135	0.001994	5.583450	-90.8589	-163.589	-0.016248	0.061389	-1.089589	-1.090861	-0.041646	5.583450	-1.083994	-3.056081E+14	1.362737E-16	NaN
1058	1.000000	0.072691	7.37539e+06	-53039.1	1055.82	-29747.4	0.000000	0.000000	6.072760	-0.001944	NaN	0.000000	0.001667	0.001712	28.0831	0.051602	0.001933	26.6947	-115.03	15.1116	6.434999E-5	0.071334	-1.079558	-1.080915	-0.001944	26.6947	-1.079504	-2.659823E+14	7.308283E-18	NaN
1058	1.000000	0.082683	7.37539e+06	-53039.1	1055.82	-29747.4	0.000000	0.000000	6.082750	-0.064095	NaN	0.000000	0.001655	0.001756	28.0829	0.068947	0.002095	32.9069	69.8002	-165.129	-0.022252	0.081327	-1.069566	-1.070922	-0.064095	32.9069	-1.068106	-1.869549E+14	3.428370E-16	NaN
1058	1.000000	0.092669	7.37539e+06	-53039.1	1055.82	-29747.4	0.000000	0.000000	6.092740	0.036819	NaN	0.000000	0.001705	0.001745	28.0829	0.048377	0.001939	24.9549	-106.789	12.413	0.032112	0.091341	-1.059581	-1.060909	0.036819	24.9549	-1.060687	-1.486129E+14	-2.477478E-16	NaN
1058	1.000000	0.102678	7.37539e+06	-53039.1	1055.82	-29747.4	0.000000	0.000000	6.102750	0.060327	NaN	0.000000	0.001712	0.001760	28.0828	0.126927	0.001977	64.1961	-154.922	-166.729	0.154297	0.101415	-1.049571	-1.050834	0.060327	64.1961	-1.050276	-1.076769E+14	-5.602622E-16	NaN
1058	1.000000	0.112722	7.37539e+06	-53039.1	1055.82	-29747.4	0.000000	0.000000	6.112791	-0.016305	NaN	0.000000	0.001710	0.001729	28.0835	0.049482	0.002092	23.6544	-122.478	14.8215	-0.100559	0.111370	-1.039527	-1.040880	-0.016305	23.6544	-1.039010	-7.597312E+13	2.146117E-16	NaN
1058	1.000000	0.122683	7.37539e+06	-53039.1	1055.82	-29747.4	0.000000	0.000000	6.122752	-0.000964	NaN	0.000000	0.001690	0.001695	28.084	0.107483	0.002121	50.6642	-107.265	-165.33	0.005455	0.121454	-1.029566	-1.030796	-0.000964	50.6642	-1.029552	-5.668325E+13	1.700117E-17	NaN
1058	1.000000	0.132696	7.37539e+06	-53039.1	1055.82	-29747.4	0.000000	0.000000	6.132764	-0.034266	NaN	0.000000	0.001669	0.001737	28.0842	0.103245	0.002112	48.882	-104.599	15.4527	0.001649	0.131326	-1.019554	-1.020924	-0.034266	48.882	-1.019028	-4.091419E+13	8.375041E-16	NaN
1058	1.000000	0.142679	7.37539e+06	-53039.1	1055.82	-29747.4	0.000000	0.000000	6.142749	0.020908	NaN	0.000000	0.001673	0.001736	28.0841	0.069931	0.002020	34.6113	42.9306	-164.716	-0.005881	0.141398	-1.009570	-1.010852	0.020908	34.6113	-1.010023	-3.095253E+13	-6.754876E-16	NaN
1058	1.000000	0.152706	7.3754e+06	-53039.1	1055.82	-29747.4	0.000000	0.000000	6.152775	-0.002625	NaN	0.000000	0.001690	0.001750	28.0843	0.081045	0.001936	41.8621	151.854	15.1371	0.043129	0.151369	-0.999543	-1.000880	-0.002625	41.8621	-0.999496	-2.233495E+13	1.175292E-16	NaN
1058	1.000000	0.162730	7.3754e+06	-53039.1	1055.82	-29747.4	0.000000	0.000000	6.162800	0.004003	NaN	0.000000	0.001628	0.001728	28.0841	0.028339	0.002041	13.8866	75.3348	-165.461	0.033048	0.161392	-0.989519	-0.990857	0.004003	13.8866	-0.989735	-1.650230E+13	-2.425879E-16	NaN
1058	1.000000	0.172721	7.3754e+06	-53039.1	1055.82	-29747.4	0.000000	0.000000	6.172789	-0.023361	NaN	0.000000	0.001654	0.001677	28.0841	0.067792	0.002113	32.0856	-151.286	14.3327	-0.006563	0.171355	-0.979528	-0.980894	-0.023361	32.0856	-0.978982	-1.182227E+13	1.976039E-15	NaN
1058	1.000000	0.182731	7.3754e+06	-53039.1	1055.82	-29747.4	0.000000	0.000000	6.182803	0.063079	NaN	0.000000	0.001659	0.001693	28.0842	0.061589	0.002034	30.2807	123.616	-164.265	0.008762	0.181398	-0.969518	-0.970852	0.063079	30.2807	-0.971080	-9.251687E+12	-6.818091E-15	NaN
1058	1.000000	0.192756	7.3754e+06	-53039.1	1055.82	-29747.4	0.000000	0.000000	6.192828	0.064058	NaN	0.000000	0.001698	0.001701	28.0842	0.023972	0.001823	13.1484	-70.2267	12.3177	0.043358	0.191369	-0.959493	-0.960881	0.064058	13.1484	-0.963147	-7.232633E+12	-8.856792E-15	NaN
1058	1.000000	0.202753	7.3754e+06	-53039.1	1055.82	-29747.4	0.000000	0.000000	6.202822	0.007537	NaN	0.000000	0.001718	0.001724	28.0845	0.017729	0.002171	8.168013	-177.598	-167.39	0.050200	0.201454	-0.949497	-0.950795	0.007537	8.168013	-0.950189	-4.836967E+12	-1.558227E-15	NaN
1058	1.000000	0.212718	7.3754e+06	-53039.1	1055.82	-29747.4	0.000000	0.000000	6.212785	-0.066456	NaN	0.000000	0.001735	0.001702	28.0843	0.037418	0.002031	18.4205	-77.0125	12.3119	-0.077714	0.211419	-0.939531	-0.940831	-0.066456	18.4205	-0.936825	-3.193786E+12	2.080790E-14	NaN
1058	1.000000	0.222721	7.3754e+06	-53039.1	1055.82	-29747.4	0.000000	0.000000	6.222793	0.045659	NaN	0.000000	0.001752	0.001694	28.0844	0.051898	0.002078	24.9784	5.453287	-170.283	0.016481	0.221466	-0.929528	-0.930784	0.045659	24.9784	-0.930899	-2.656624E+12	-1.718679E-14	NaN
1058	1.000000	0.232751	7.3754e+06	-53039.1	1055.82	-29747.4	0.000000	0.000000	6.232819	-0.025943	NaN	0.000000	0.001764	0.001687	28.0841	0.081495	0.002085	39.0802	132.545	11.833	-0.011243	0.231404	-0.919498	-0.920846	-0.025943	39.0802	-0.919000	-1.835301E+12	1.413575E-14	NaN
1058	1.000000	0.242724	7.3754e+06	-53039.1	1055.82	-29747.4	0.000000	0.000000	6.242795	0.039666	NaN	0.000000	0.001754	0.001683	28.0841	0.033956	0.002037	16.6709	-101.587	-165.647	0.031904	0.241399	-0.909525	-0.910850	0.039666	16.6709	-0.911310	-1.444944E+12	-2.745136E-14	NaN
1058	1.000000	0.252771	7.3754e+06	-53039.1	1055.82	-29747.4	0.000000	0.000000	6.252841	0.030045	NaN	0.000000	0.001727	0.001699	28.0828	0.078035	0.001910	40.8547	100.179	17.4156	0.037185	0.251396	-0.899479	-0.900853	0.030045	40.8547	-0.900030	-1.017361E+12	-2.953257E-14	NaN
1058	1.000000	0.262740	7.3754e+06	-53039.1	1055.82	-29747.4	0.000000	0.000000	6.262808	-0.055839	NaN	0.000000	0.001726	0.001677	28.0829	0.080390	0.001904	42.2206	-133.225	-165.609	-0.092972	0.261469	-0.889509	-0.890780	-0.055839	42.2206	-0.888517	-7.109954E+11	7.853616E-14	NaN
1058	1.000000	0.272792	7.3754e+06	-53039.1	1055.82	-29747.4	0.000000	0.000000	6.272859	-0.037796	NaN	0.000000	0.001734	0.001723	28.0828	0.063119	0.001917	32.9344	165.476	11.6995	0.070251	0.271457	-0.879458	-0.880792	-0.037796	32.9344	-0.878597	-5.220776E+11	7.239566E-14	NaN
1058	1.000000	0.282760	7.3754e+06	-53039.1	1055.82	-29747.4	0.000000	0.000000	6.282828	-0.024638	NaN	0.000000	0.001746	0.001679	28.0827	0.118759	0.002042	58.1606	-142.489	-165.267	-0.022093	0.281446	-0.869490	-0.870803	-0.024638	58.1606	-0.869172	-3.892588E+11	6.329503E-14	NaN
1058	1.000000	0.292816	7.3754e+06	-53039.1	1055.82	-29747.4	0.000000	0.000000	6.292884	-0.031644	NaN	0.000000	0.001668	0.001662	28.0827	0.060823	0.002101	28.9533	76.5533	13.5977	-0.039490	0.291456	-0.859433	-0.860793	-0.031644	28.9533	-0.858614	-2.801264E+11	1.129636E-13	NaN
1058	1.000000	0.302761	7.3754e+06	-53039.1	1055.82	-29747.4	0.000000	0.000000	6.302834	0.086699	NaN	0.000000	0.001659	0.001635	28.0827	0.075635	0.002143	35.2939	21.862	-165.067	0.002174	0.301461	-0.849489	-0.850789	0.086699	35.2939	-0.851331	-2.232342E+11	-3.883787E-13	NaN
1058	1.000000	0.312786	7.3754e+06	-53039.1	1055.82	-29747.4	0.000000	0.000000	6.312855	-0.014976	NaN	0.000000	0.001643	0.001678	28.0822	0.046182	0.002073	22.2831	3.618849	15.2079	0.006862	0.311454	-0.839464	-0.840795	-0.014976	22.2831	-0.838959	-1.517736E+11	9.867306E-14	NaN
1058	1.000000	0.322802	7.3754e+06	-53039.1	1055.82	-29747.4	0.000000	0.000000	6.322873	0.023626	NaN	0.000000	0.001631	0.001638	28.0823	0.017412	0.001989	8.753030	-140.621	-171.261	0.035281	0.321436	-0.829447	-0.830813	0.023626	8.753030	-0.831471	-1.201512E+11	-1.966343E-13	NaN
1058	1.000000	0.332787	7.3754e+06	-53039.1	1055.82	-29747.4	0.000000	0.000000	6.332855	-0.045409	NaN	0.000000	0.001653	0.001659	28.0822	0.032054	0.002056	15.5941	35.7069	13.2407	-0.000544	0.331416	-0.819462	-0.820833	-0.045409	15.5941	-0.817278	-7.714312E+10	5.886299E-13	NaN
1058	1.000000	0.342818	7.3754e+06	-53039.1	1055.82	-29747.4	0.000000	0.000000	6.342888	0.016261	NaN	0.000000	0.001682	0.001625	28.0824	0.022397	0.001893	11.8308	89.4279	-166.464	-0.007104	0.341480	-0.809432	-0.810770	0.016261	11.8308	-0.810462	-6.235110E+10	-2.607924E-13	NaN
1058	1.000000	0.352805	7.3754e+06	-53039.1	1055.82	-29747.4	0.000000	0.000000	6.352873	-0.031536	NaN	0.000000	0.001645	0.001685	28.0823	0.052232	0.002071	25.2217	-110.469	15.8669	0.050727	0.351464	-0.799444	-0.800785	-0.031536	25.2217	-0.798506	-4.291281E+10	7.348866E-13	NaN
1058	1.000000	0.362790	7.3754e+06	-53039.1	1055.82	-29747.4	0.000000	0.000000	6.362861	0.042497	NaN	0.000000	0.001691	0.001670	28.0824	0.080129	0.002041	39.2684	31.0957	-162.572	0.066114	0.361489	-0.789459	-0.790760	0.042497	39.2684	-0.790271	-3.317143E+10	-1.281121E-12	NaN
1058	1.000000	0.372847	7.3754e+06	-53039.1	1055.82	-29747.4	0.000000	0.000000	6.372914	-0.053767	NaN	0.000000	0.001656	0.001690	28.0824	0.061249	0.001859	32.9393	169.781	12.0192	0.013434	0.371436	-0.779403	-0.780813	-0.053767	32.9393	-0.778179	-2.272371E+10	2.366141E-12	NaN
1058	1.000000	0.382817	7.3754e+06	-53039.1	1055.82	-29747.4	0.000000	0.000000	6.382884	-0.060859	NaN	0.000000	0.001675	0.001639	28.0823	0.043897	0.002123	20.6808	10.0473	-165.861	-0.011523	0.381513	-0.769432	-0.770737	-0.060859	20.6808	-0.767225	-1.612771E+10	3.773590E-12	NaN
1058	1.000000	0.392835	7.3754e+06	-53039.1	1055.82	-29747.4	0.000000	0.000000	6.392907	0.055445	NaN	0.000000	0.001664	0.001673	28.0836	0.072361	0.001923	37.6363	-64.8159	14.5987	-0.005371	0.391446	-0.759414	-0.760804	0.055445	37.6363	-0.760519	-1.307254E+10	-4.241359E-12	NaN
1058	1.000000	0.402837	7.3754e+06	-53039.1	1055.82	-29747.4	0.000000	0.000000	6.402911	0.112278	NaN	0.000000	0.001654	0.001663	28.0836	0.050395	0.001985	25.3929	167.37	-162.725	0.112024	0.401519	-0.749412	-0.750731	0.112278	25.3929	-0.752729	-1.024141E+10	-1.096317E-11	NaN
1058	1.000000	0.412824	7.3754e+06	-53039.1	1055.82	-29747.4	0.000000	0.000000	6.412895	0.036922	NaN	0.000000	0.001672	0.001695	28.0837	0.180196	0.002002	90.0165	-78.695	14.0798	-0.002879	0.411470	-0.739425	-0.740780	0.036922	90.0165	-0.739733	-6.814212E+9	-5.418338E-12	NaN
1058	1.000000	0.422854	7.3754e+06	-53039.1	1055.82	-29747.4	0.000000	0.000000	6.422921	-0.053434	NaN	0.000000	0.001631	0.001709	28.0836	0.078445	0.001881	41.7123	121.268	-161.926	-0.011842	0.421476	-0.729395	-0.730774	-0.053434	41.7123	-0.728434	-4.780438E+9	1.117772E-11	NaN
1058	1.000000	0.432836	7.3754e+06	-53039.1	1055.82	-29747.4	0.000000	0.000000	6.432906	0.016264	NaN	0.000000	0.001633	0.001670	28.0836	0.076781	0.002048	37.4971	-27.1949	14.7406	-0.008815	0.431466	-0.719414	-0.720784	0.016264	37.4971	-0.719739	-3.638440E+9	-4.470120E-12	NaN
1058	1.000000	0.442862	7.3754e+06	-53039.1	1055.82	-29747.4	0.000000	0.000000	6.442931	-0.015206	NaN	0.000000	0.001678	0.001653	28.0837	0.099159	0.001916	51.7652	126.155	-165.866	0.037821	0.441551	-0.709387	-0.710699	-0.015206	51.7652	-0.709167	-2.610244E+9	5.825493E-12	NaN
1058	1.000000	0.452827	7.3754e+06	-53039.1	1055.82	-29747.4	0.000000	0.000000	6.452895	-0.037883	NaN	0.000000	0.001675	0.001676	28.0837	0.078389	0.001931	40.5901	-149.188	15.1618	-0.005313	0.451499	-0.699422	-0.700751	-0.037883	40.5901	-0.698722	-1.879681E+9	2.015411E-11	NaN
1058	1.000000	0.462846	7.3754e+06	-53039.1	1055.82	-29747.4	0.000000	0.000000	6.462916	0.024972	NaN	0.000000	0.001686	0.001678	28.0837	0.189362	0.002034	93.111	-92.1505	-167.272	0.054843	0.461534	-0.689403	-0.690715	0.024972	93.111	-0.689605	-1.410956E+9	-1.769869E-11	NaN
1058	1.000000	0.472849	7.3754e+06	-53039.1	1055.82	-29747.4	0.000000	0.000000	6.472920	0.046885	NaN	0.000000	0.001681	0.001708	28.0837	0.083424	0.002094	39.8429	-35.371	11.1486	0.002153	0.471503	-0.679400	-0.680746	0.046885	39.8429	-0.680283	-1.052146E+9	-4.456124E-11	NaN
1058	1.000000	0.482868	7.3754e+06	-53039.1	1055.82	-29747.4	0.000000	0.000000	6.482935	-0.054726	NaN	0.000000	0.001652	0.001663	28.0839	0.096502	0.002124	45.4429	-86.8842	-166.347	-0.066430	0.481570	-0.669381	-0.670679	-0.054726	45.4429	-0.668478	-7.253653E+8	7.544615E-11	NaN
1058	1.000000	0.492847	7.3754e+06	-53039.1	1055.82	-29747.4	0.000000	0.000000	6.492916	0.007459	NaN	0.000000	0.001656	0.001746	28.0838	0.018181	0.001999	9.096087	52.9996	14.2871	0.044304	0.491519	-0.659403	-0.660730	0.007459	9.096087	-0.660018	-5.555345E+8	-1.342705E-11	NaN
1058	1.000000	0.502879	7.3754e+06	-53039.1	1055.82	-29747.4	0.000000	0.000000	6.502953	0.122389	NaN	0.000000	0.001683	0.001713	28.0838	0.078015	0.001956	39.8797	138.186	-166.759	0.148430	0.501539	-0.649371	-0.650710	0.122389	39.8797	-0.651672	-4.269353E+8	-2.866691E-10	NaN
1058	1.000000	0.512872	7.3754e+06	-53039.1	1055.82	-29747.4	0.000000	0.000000	6.512942	0.017625	NaN	0.000000	0.001689	0.001692	28.0837	0.079537	0.001989	39.9895	-21.6872	12.8158	0.014851	0.511505	-0.639378	-0.640744	0.017625	39.9895	-0.639708	-2.926088E+8	-6.023251E-11	NaN
1058	1.000000	0.522885	7.3754e+06	-53039.1	1055.82	-29747.4	0.000000	0.000000	6.522956	0.024769	NaN	0.000000	0.001699	0.001667	28.0829	0.032367	0.001941	16.6721	-91.7693	-169.098	0.039534	0.521599	-0.629364	-0.630651	0.024769	16.6721	-0.630478	-2.185697E+8	-1.133233E-10	NaN
1058	1.000000	0.532883	7.3754e+06	-53039.1	1055.82	-29747.4	0.000000	0.000000	6.532954	0.038857	NaN	0.000000	0.001670	0.001705	28.0825	0.090537	0.001884	48.0686	27.7036	13.384	0.043449	0.531538	-0.619366	-0.620711	0.038857	48.0686	-0.619972	-1.567668E+8	-2.478625E-10	NaN
1058	1.000000	0.542854	7.3754e+06	-53039.1	1055.82	-29747.4	0.000000	0.000000	6.542924	0.013713	NaN	0.000000	0.001649	0.001699	28.0826	0.063607	0.001897	33.5284	-10.8329	-168.316	0.051773	0.541566	-0.609395	-0.610683	0.013713	33.5284	-0.609702	-1.132432E+8	-1.210934E-10	NaN
1058	1.000000	0.552861	7.3754e+06	-53039.1	1055.82	-29747.4	0.000000	0.000000	6.552931	0.013487	NaN	0.000000	0.001682	0.001674	28.0826	0.126845	0.002030	62.4993	100.141	14.7982	-0.075892	0.551510	-0.599388	-0.600740	0.013487	62.4993	-0.599550	-8.208445E+7	-1.643095E-10	NaN
1058	1.000000	0.562909	7.3754e+06	-53039.1	1055.82	-29747.4	0.000000	0.000000	6.562980	0.043750	NaN	0.000000	0.001660	0.001653	28.0826	0.119530	0.002026	59.0045	165.547	-164.367	0.042484	0.561552	-0.589341	-0.590698	0.043750	59.0045	-0.589897	-6.042892E+7	-7.239958E-10	NaN
1058	1.000000	0.572901	7.3754e+06	-53039.1	1055.82	-29747.4	0.000000	0.000000	6.572975	0.107922	NaN	0.000000	0.001680	0.001669	28.0824	0.043793	0.002056	21.3043	-156.219	13.9281	0.087167	0.571568	-0.579348	-0.580681	0.107922	21.3043	-0.583147	-4.877013E+7	-2.212871E-9	NaN
1058	1.000000	0.582893	7.3754e+06	-53039.1	1055.82	-29747.4	0.000000	0.000000	6.582963	0.016893	NaN	0.000000	0.001635	0.001702	28.0825	0.059595	0.002149	27.7374	-92.0638	-164.355	0.008800	0.581579	-0.569357	-0.570670	0.016893	27.7374	-0.569814	-3.191945E+7	-5.292529E-10	NaN
1058	1.000000	0.592890	7.3754e+06	-53039.1	1055.82	-29747.4	0.000000	0.000000	6.592959	-0.002543	NaN	0.000000	0.001637	0.001673	28.0826	0.057657	0.002082	27.6892	-138.016	13.8423	0.031256	0.591586	-0.559360	-0.560663	-0.002543	27.6892	-0.559291	-2.283320E+7	1.113752E-10	NaN
1058	1.000000	0.602894	7.3754e+06	-53039.1	1055.82	-29747.4	0.000000	0.000000	6.602965	0.044545	NaN	0.000000	0.001662	0.001637	28.0825	0.147749	0.002106	70.1534	-41.8878	-167.097	0.080836	0.601603	-0.549355	-0.550646	0.044545	70.1534	-0.549832	-1.688972E+7	-2.637422E-9	NaN
1058	1.000000	0.612931	7.3754e+06	-53039.1	1055.82	-29747.4	0.000000	0.000000	6.613000	-0.014127	NaN	0.000000	0.001668	0.001678	28.0824	0.069816	0.002073	33.6795	-111.962	13.8292	-0.012526	0.611574	-0.539318	-0.540675	-0.014127	33.6795	-0.539004	-1.195469E+7	1.181704E-9	NaN
1058	1.000000	0.622917	7.3754e+06	-53039.1	1055.82	-29747.4	0.000000	0.000000	6.622986	-0.003975	NaN	0.000000	0.001642	0.001678	28.0825	0.051415	0.002046	25.1345	-31.4313	-162.606	0.017405	0.621633	-0.529332	-0.530616	-0.003975	25.1345	-0.529213	-8.74279e+06	4.547072E-10	NaN
1058	1.000000	0.632932	7.3754e+06	-53039.1	1055.82	-29747.4	0.000000	0.000000	6.632999	-0.050651	NaN	0.000000	0.001664	0.001679	28.0824	0.072842	0.002097	34.7387	94.8888	17.9	-0.012192	0.631574	-0.519317	-0.520675	-0.050651	34.7387	-0.518224	-6.1502e+06	8.235731E-9	NaN
1058	1.000000	0.642916	7.3754e+06	-53039.1	1055.82	-29747.4	0.000000	0.000000	6.642986	0.011281	NaN	0.000000	0.001656	0.001664	28.0822	0.022793	0.002091	10.9017	-116.405	-162.786	0.004718	0.641611	-0.509333	-0.510638	0.011281	10.9017	-0.510109	-4.74172e+06	-2.379074E-9	NaN
1058	1.000000	0.652920	7.3754e+06	-53039.1	1055.82	-29747.4	0.000000	0.000000	6.652993	0.089270	NaN	0.000000	0.001623	0.001672	28.0822	0.041927	0.001860	22.5406	101.826	14.7987	0.067833	0.651612	-0.499329	-0.500637	0.089270	22.5406	-0.502300	-3.69056e+06	-2.418867E-8	NaN
1058	1.000000	0.662956	7.3754e+06	-53039.1	1055.82	-29747.4	0.000000	0.000000	6.663023	-0.049611	NaN	0.000000	0.001686	0.001681	28.0838	0.125862	0.001890	66.6022	68.7915	-161.909	-0.038137	0.661576	-0.489294	-0.490674	-0.049611	66.6022	-0.488735	-2.38623e+06	2.079048E-8	NaN
1058	1.000000	0.672942	7.3754e+06	-53039.1	1055.82	-29747.4	0.000000	0.000000	6.673011	0.009313	NaN	0.000000	0.001635	0.001636	28.0835	0.039392	0.002016	19.5371	1.572627	11.9187	-0.016490	0.671570	-0.479308	-0.480679	0.009313	19.5371	-0.479665	-1.78173e+06	-5.226919E-9	NaN
1058	1.000000	0.682950	7.3754e+06	-53039.1	1055.82	-29747.4	0.000000	0.000000	6.683021	0.037886	NaN	0.000000	0.001713	0.001644	28.0837	0.064758	0.001921	33.703	-43.3151	-163.806	-0.018825	0.681632	-0.469299	-0.470617	0.037886	33.703	-0.470143	-1.31041e+06	-2.891122E-8	NaN
1058	1.000000	0.692970	7.3754e+06	-53039.1	1055.82	-29747.4	0.000000	0.000000	6.693041	0.044442	NaN	0.000000	0.001732	0.001667	28.0836	0.041407	0.002049	20.2086	-170.074	15.0829	0.098990	0.691571	-0.459280	-0.460678	0.044442	20.2086	-0.460929	-972905	-4.567966E-8	NaN
1058	1.000000	0.702962	7.3754e+06	-53039.1	1055.82	-29747.4	0.000000	0.000000	6.703030	-0.028449	NaN	0.000000	0.001758	0.001682	28.084	0.056587	0.002166	26.1219	-88.4261	-165.188	-0.025786	0.701579	-0.449288	-0.450671	-0.028449	26.1219	-0.448471	-649838	4.377848E-8	NaN
1058	1.000000	0.712940	7.3754e+06	-53039.1	1055.82	-29747.4	0.000000	0.000000	6.713008	-0.043935	NaN	0.000000	0.001727	0.001654	28.0834	0.124295	0.002005	62.0021	79.6529	15.0135	-0.087857	0.711582	-0.439309	-0.440668	-0.043935	62.0021	-0.438778	-474361	9.261856E-8	NaN
1058	1.000000	0.722968	7.3754e+06	-53039.1	1055.82	-29747.4	0.000000	0.000000	6.723037	-0.009608	NaN	0.000000	0.001735	0.001682	28.0836	0.060080	0.002040	29.455	-175.646	-165.579	0.012901	0.721687	-0.429281	-0.430563	-0.009608	29.455	-0.429036	-345483	2.781077E-8	NaN
1058	1.000000	0.732951	7.3754e+06	-53039.1	1055.82	-29747.4	0.000000	0.000000	6.733019	-0.038824	NaN	0.000000	0.001739	0.001698	28.0836	0.132252	0.001948	67.8906	-90.426	15.6297	-0.100196	0.731606	-0.419298	-0.420643	-0.038824	67.8906	-0.418869	-247956	1.565767E-7	NaN
1058	1.000000	0.742942	7.3754e+06	-53039.1	1055.82	-29747.4	0.000000	0.000000	6.743010	-0.033613	NaN	0.000000	0.001697	0.001660	28.0838	0.021323	0.001924	11.0835	-81.3215	-164.179	-0.030455	0.741672	-0.409307	-0.410577	-0.033613	11.0835	-0.407033	-168340	1.996749E-7	NaN
1058	1.000000	0.752970	7.3754e+06	-53039.1	1055.82	-29747.4	0.000000	0.000000	6.753039	-0.002004	NaN	0.000000	0.001678	0.001668	28.0839	0.065944	0.001977	33.3634	177.994	12.0376	-0.016022	0.751570	-0.399280	-0.400680	-0.002004	33.3634	-0.399235	-130340	1.537611E-8	NaN
1058	1.000000	0.762938	7.3754e+06	-53039.1	1055.82	-29747.4	0.000000	0.000000	6.763006	-0.021746	NaN	0.000000	0.001647	0.001716	28.0836	0.087943	0.001916	45.9052	88.6698	-161.962	-0.051214	0.761700	-0.389312	-0.390549	-0.021746	45.9052	-0.388956	-92947.1	2.339558E-7	NaN
1058	1.000000	0.773002	7.3754e+06	-53039.1	1055.82	-29747.4	0.000000	0.000000	6.773070	-0.037517	NaN	0.000000	0.001637	0.001686	28.0839	0.112279	0.001994	56.3099	-100.28	17.0014	-0.004682	0.771623	-0.379247	-0.380627	-0.037517	56.3099	-0.378747	-66360.2	5.653545E-7	NaN
1058	1.000000	0.782970	7.3754e+06	-53039.1	1055.82	-29747.4	0.000000	0.000000	6.783045	0.143058	NaN	0.000000	0.001669	0.001689	28.0839	0.094085	0.001925	48.8736	-43.9054	-166.445	0.091889	0.781664	-0.369279	-0.370585	0.143058	48.8736	-0.371475	-52162.4	-2.742556E-6	NaN
1058	1.000000	0.793019	7.3754e+06	-53039.1	1055.82	-29747.4	0.000000	0.000000	6.793088	-0.007947	NaN	0.000000	0.001669	0.001677	28.0837	0.030669	0.002105	14.5716	-1.009375	15.2421	-0.015718	0.791612	-0.359231	-0.360637	-0.007947	14.5716	-0.358822	-34261.6	2.319452E-7	NaN
1058	1.000000	0.802983	7.3754e+06	-53039.1	1055.82	-29747.4	0.000000	0.000000	6.803050	-0.038893	NaN	0.000000	0.001660	0.001680	28.0821	0.059599	0.001887	31.5809	70.6414	-166.759	-0.051880	0.801712	-0.349267	-0.350537	-0.038893	31.5809	-0.348343	-24151.5	1.610382E-6	NaN
1058	1.000000	0.812989	7.3754e+06	-53039.1	1055.82	-29747.4	0.000000	0.000000	6.813056	-0.050370	NaN	0.000000	0.001662	0.001674	28.0821	0.074479	0.002071	35.9695	-74.2395	16.274	-0.103016	0.811674	-0.339261	-0.340575	-0.050370	35.9695	-0.338211	-17197.2	2.928951E-6	NaN
1058	1.000000	0.822987	7.3754e+06	-53039.1	1055.82	-29747.4	0.000000	0.000000	6.823055	-0.027805	NaN	0.000000	0.001695	0.001715	28.0822	0.032385	0.002107	15.3729	-159.23	-162.568	-0.017212	0.821728	-0.329263	-0.330521	-0.027805	15.3729	-0.327906	-12155.4	2.287474E-6	NaN
1058	1.000000	0.833002	7.3754e+06	-53039.1	1055.82	-29747.4	0.000000	0.000000	6.833073	0.039330	NaN	0.000000	0.001666	0.001691	28.0824	0.075828	0.002084	36.3882	-80.6484	12.2778	0.036498	0.831654	-0.319248	-0.320596	0.039330	36.3882	-0.320058	-9321.68	-4.219194E-6	NaN
1058	1.000000	0.843019	7.3754e+06	-53039.1	1055.82	-29747.4	0.000000	0.000000	6.843089	0.012995	NaN	0.000000	0.001693	0.001690	28.0821	0.085450	0.002078	41.1274	-35.1497	-162.829	0.023571	0.841665	-0.309230	-0.310584	0.012995	41.1274	-0.309467	-6503.87	-1.998066E-6	NaN
1058	1.000000	0.852991	7.3754e+06	-53039.1	1055.82	-29747.4	0.000000	0.000000	6.853057	-0.060948	NaN	0.000000	0.001692	0.001699	28.0825	0.028840	0.001910	15.1005	-72.8924	14.5998	-0.062387	0.851674	-0.299259	-0.300575	-0.060948	15.1005	-0.296232	-4134.96	1.473975E-5	NaN
1058	1.000000	0.863018	7.3754e+06	-53039.1	1055.82	-29747.4	0.000000	0.000000	6.863085	-0.056635	NaN	0.000000	0.001641	0.001675	28.0822	0.039190	0.001964	19.9517	175.721	-164.771	-0.064355	0.861754	-0.289232	-0.290496	-0.056635	19.9517	-0.287103	-3018.94	1.876005E-5	NaN
1058	1.000000	0.873003	7.3754e+06	-53039.1	1055.82	-29747.4	0.000000	0.000000	6.873075	0.064408	NaN	0.000000	0.001660	0.001663	28.0822	0.059164	0.002065	28.6513	157.344	16.2762	0.074498	0.871656	-0.279247	-0.280594	0.064408	28.6513	-0.280933	-2438.01	-2.641842E-5	NaN
1058	1.000000	0.883019	7.3754e+06	-53039.1	1055.82	-29747.4	0.000000	0.000000	6.883086	-0.069610	NaN	0.000000	0.001600	0.001672	28.0822	0.050996	0.001939	26.3036	-58.7142	-164.508	-0.053524	0.881695	-0.269230	-0.270555	-0.069610	26.3036	-0.267245	-1512.24	4.603064E-5	NaN
1058	1.000000	0.893025	7.3754e+06	-53039.1	1055.82	-29747.4	0.000000	0.000000	6.893094	0.009135	NaN	0.000000	0.001668	0.001645	28.0825	0.128587	0.001958	65.6636	-71.8946	16.8102	-0.056208	0.891664	-0.259225	-0.260585	0.009135	65.6636	-0.259329	-1144.54	-7.980972E-6	NaN
1058	1.000000	0.903035	7.3754e+06	-53039.1	1055.82	-29747.4	0.000000	0.000000	6.903103	-0.048996	NaN	0.000000	0.001662	0.001663	28.0821	0.084382	0.001960	43.0563	-61.47	-166.526	0.000814	0.901729	-0.249214	-0.250521	-0.048996	43.0563	-0.248361	-775.517	6.317842E-5	NaN
1058	1.000000	0.913034	7.3754e+06	-53039.1	1055.82	-29747.4	0.000000	0.000000	6.913105	0.052928	NaN	0.000000	0.001618	0.001686	28.0823	0.075227	0.001974	38.1077	-39.5589	11.3208	-0.066732	0.911648	-0.239216	-0.240601	0.052928	38.1077	-0.240257	-580.191	-9.122487E-5	NaN
1058	1.000000	0.923044	7.3754e+06	-53039.1	1055.82	-29747.4	0.000000	0.000000	6.923115	0.036943	NaN	0.000000	0.001661	0.001669	28.0823	0.064504	0.001991	32.3971	164.617	-165.341	0.033861	0.921729	-0.229205	-0.230521	0.036943	32.3971	-0.230060	-401.303	-9.205853E-5	NaN
1058	1.000000	0.933072	7.3754e+06	-53039.1	1055.82	-29747.4	0.000000	0.000000	6.933141	5.932160E-5	NaN	0.000000	0.001621	0.001697	28.0836	0.084255	0.002039	41.3189	-68.9471	15.573	-0.013950	0.931695	-0.219178	-0.220554	5.932160E-5	41.3189	-0.219179	-269.492	-2.201238E-7	NaN
1058	1.000000	0.943053	7.3754e+06	-53039.1	1055.82	-29747.4	0.000000	0.000000	6.943120	-0.068102	NaN	0.000000	0.001647	0.001651	28.0834	0.018047	0.002014	8.962483	-104.046	-162.44	0.060544	0.941764	-0.209196	-0.210485	-0.068102	8.962483	-0.203497	-150.323	0.000453	NaN
1058	1.000000	0.953058	7.3754e+06	-53039.1	1055.82	-29747.4	0.000000	0.000000	6.953128	0.011317	NaN	0.000000	0.001672	0.001678	28.0836	0.059735	0.001954	30.5699	94.028	17.4836	0.045180	0.951682	-0.199191	-0.200567	0.011317	30.5699	-0.199469	-129.111	-8.765638E-5	NaN
1058	1.000000	0.963060	7.3754e+06	-53039.1	1055.82	-29747.4	0.000000	0.000000	6.963130	0.010601	NaN	0.000000	0.001624	0.001676	28.0835	0.067360	0.001921	35.0694	-159.778	-160.934	-0.010773	0.961705	-0.189189	-0.190545	0.010601	35.0694	-0.189416	-87.9563	-0.000121	NaN
1058	1.000000	0.973074	7.3754e+06	-53039.1	1055.82	-29747.4	0.000000	0.000000	6.973145	0.020265	NaN	0.000000	0.001618	0.001698	28.0838	0.082086	0.002005	40.9374	-94.6186	12.0606	-0.002963	0.971701	-0.179175	-0.180548	0.020265	40.9374	-0.179546	-59.9438	-0.000338	NaN
1058	1.000000	0.983075	7.3754e+06	-53039.1	1055.82	-29747.4	0.000000	0.000000	6.983144	-0.006803	NaN	0.000000	0.001709	0.001664	28.0834	0.046881	0.002187	21.4397	71.0784	-165.756	0.058828	0.981750	-0.169174	-0.170499	-0.006803	21.4397	-0.168936	-39.3655	0.000173	NaN
1058	1.000000	0.993082	7.3754e+06	-53039.1	1055.82	-29747.4	0.000000	0.000000	6.993153	0.026505	NaN	0.000000	0.001704	0.001691	28.0838	0.040915	0.002089	19.5904	-121.019	14.0009	0.069036	0.991714	-0.159167	-0.160536	0.026505	19.5904	-0.160182	-27.6194	-0.000960	NaN
1058	1.000000	1.003057	7.3754e+06	-53039.1	1055.82	-29747.4	0.000000	0.000000	7.003128	0.043929	NaN	0.000000	0.001704	0.001720	28.0837	0.133031	0.002034	65.4055	152.897	-165.182	0.062347	1.001748	-0.149192	-0.150501	0.043929	65.4055	-0.149696	-17.8838	-0.002456	NaN
1058	1.000000	1.013086	7.3754e+06	-53039.1	1055.82	-29747.4	0.000000	0.000000	7.013155	-0.010810	NaN	0.000000	0.001733	0.001681	28.0836	0.132023	0.001924	68.6028	-127.941	17.7482	-0.050700	1.011669	-0.139164	-0.140580	-0.010810	68.6028	-0.139045	-11.3504	0.000952	NaN
1058	1.000000	1.023066	7.3754e+06	-53039.1	1055.82	-29747.4	0.000000	0.000000	7.023137	0.032891	NaN	0.000000	0.001699	0.001641	28.0834	0.095056	0.001892	50.2396	-131.215	-168.152	0.020603	1.021762	-0.129183	-0.130487	0.032891	50.2396	-0.129674	-7.510761	-0.004379	NaN
1058	1.000000	1.033103	7.3754e+06	-53039.1	1055.82	-29747.4	0.000000	0.000000	7.033174	0.040241	NaN	0.000000	0.001690	0.001662	28.0835	0.125637	0.002053	61.2105	-167.716	16.3701	-0.046465	1.031764	-0.119147	-0.120485	0.040241	61.2105	-0.119640	-4.751213	-0.008470	NaN
1058	1.000000	1.043070	7.3754e+06	-53039.1	1055.82	-29747.4	0.000000	0.000000	7.043141	0.036844	NaN	0.000000	0.001696	0.001672	28.0835	0.044131	0.002112	20.8906	177.04	-164.567	0.079670	1.041745	-0.109179	-0.110504	0.036844	20.8906	-0.110502	-3.079207	-0.011966	NaN
1058	1.000000	1.053109	7.3754e+06	-53039.1	1055.82	-29747.4	0.000000	0.000000	7.053182	0.089977	NaN	0.000000	0.001644	0.001703	28.0833	0.086631	0.001858	46.6174	-161.059	14.8297	0.139977	1.051724	-0.099140	-0.100525	0.089977	46.6174	-0.100588	-1.882701	-0.047792	NaN
1058	1.000000	1.063080	7.3754e+06	-53039.1	1055.82	-29747.4	0.000000	0.000000	7.063148	-0.018012	NaN	0.000000	0.001656	0.001684	28.0834	0.073290	0.001922	38.1261	124.396	-162.584	0.039368	1.061750	-0.089170	-0.090500	-0.018012	38.1261	-0.088815	-1.013727	0.017768	NaN
1058	1.000000	1.073115	7.3754e+06	-53039.1	1055.82	-29747.4	0.000000	0.000000	7.073182	-0.057246	NaN	0.000000	0.001630	0.001684	28.0826	0.068405	0.002024	33.8044	176.249	16.2995	-0.032650	1.071727	-0.079134	-0.080523	-0.057246	33.8044	-0.077864	-0.546874	0.104680	NaN
1058	1.000000	1.083118	7.3754e+06	-53039.1	1055.82	-29747.4	0.000000	0.000000	7.083183	-0.092996	NaN	0.000000	0.001650	0.001710	28.0823	0.056069	0.001990	28.1796	-75.8661	-163.268	-0.059441	1.081796	-0.069131	-0.070453	-0.092996	28.1796	-0.066656	-0.276860	0.335895	NaN
1058	1.000000	1.093109	7.3754e+06	-53039.1	1055.82	-29747.4	0.000000	0.000000	7.093178	-0.005639	NaN	0.000000	0.001653	0.001697	28.0822	0.080210	0.001974	40.6341	168.905	14.5198	-0.032918	1.091780	-0.059140	-0.060469	-0.005639	40.6341	-0.059036	-0.168955	0.033375	NaN
1058	1.000000	1.103122	7.3754e+06	-53039.1	1055.82	-29747.4	0.000000	0.000000	7.103191	-0.008343	NaN	0.000000	0.001658	0.001666	28.0823	0.032924	0.002063	15.9596	-80.961	-164.125	0.076613	1.101828	-0.049128	-0.050421	-0.008343	15.9596	-0.048735	-0.083543	0.099862	NaN
1058	1.000000	1.113107	7.3754e+06	-53039.1	1055.82	-29747.4	0.000000	0.000000	7.113174	-0.059595	NaN	0.000000	0.001699	0.001653	28.0827	0.062791	0.001997	31.4444	-112.388	16.9878	-0.062287	1.111732	-0.039142	-0.040517	-0.059595	31.4444	-0.037721	-0.038589	1.544344	NaN
1058	1.000000	1.123135	7.3754e+06	-53039.1	1055.82	-29747.4	0.000000	0.000000	7.123201	-0.072485	NaN	0.000000	0.001662	0.001674	28.0825	0.035636	0.002036	17.5021	-87.4538	-165.739	-0.047340	1.121818	-0.029115	-0.030432	-0.072485	17.5021	-0.026009	-0.017932	4.042225	NaN
1058	1.000000	1.133097	7.3754e+06	-53039.1	1055.82	-29747.4	0.000000	0.000000	7.133167	0.012546	NaN	0.000000	0.001663	0.001686	28.0824	0.059193	0.001951	30.3452	39.5134	17.0868	-0.057859	1.131738	-0.019152	-0.020511	0.012546	30.3452	-0.019462	-0.012171	-1.030856	NaN
1058	1.000000	1.143133	7.3754e+06	-53039.1	1055.82	-29747.4	0.000000	0.000000	7.143202	-0.002235	NaN	0.000000	0.001689	0.001670	28.0827	0.082009	0.002064	39.7262	78.0823	-165.18	-0.005651	1.141846	-0.009117	-0.010403	-0.002235	39.7262	-0.009074	-0.005856	0.381705	NaN
1058	1.000000	1.153116	7.3754e+06	-53039.1	1055.82	-29747.4	0.000000	0.000000	7.153400	5.206460	NaN	0.000000	0.001692	0.001710	28.0829	5.546039	0.001716	3232.89	9.617436	10.4183	3.423004	1.151742	0.000867	-0.000507	5.206460	3232.89	-0.000341	-0.000253	-20577.6	NaN
1058	2.000000	1.157761	7.3754e+06	-53039.1	1055.82	-29747.4	0.000000	0.000000	7.158246	10.1114	NaN	0.000000	0.001684	0.001679	28.0827	10.0693	0.001564	6436.16	4.133437	-170.423	10.6436	1.157432	0.005512	0.005182	10.1114	6436.16	0.004333	0.003533	2861.9	98928.4
1058	2.000000	1.160199	7.3754e+06	-53039.1	1055.82	-29747.4	0.000000	0.000000	7.160872	14.6765	NaN	0.000000	0.001651	0.001669	28.0827	12.9503	0.001544	8387.54	6.691294	6.239508	14.0852	1.159831	0.007950	0.007582	14.6765	8387.54	0.006638	0.005678	2584.79	101697
1058	2.000000	1.162659	7.3754e+06	-53039.1	1055.82	-29747.4	0.000000	0.000000	7.163464	17.8929	NaN	0.000000	0.001642	0.001681	28.0829	15.247	0.001632	9341.3	4.502673	-172.988	17.2544	1.162377	0.010410	0.010128	17.8929	9341.3	0.008973	0.008062	2219.29	95049
1058	2.000000	1.165163	7.3754e+06	-53039.1	1055.82	-29747.4	0.000000	0.000000	7.166104	21.2057	NaN	0.000000	0.001669	0.001680	28.0827	18.4528	0.001798	10263.3	9.999897	0.420614	20.0953	1.164876	0.012913	0.012627	21.2057	10263.3	0.011364	0.010737	1975.04	90494.5
1058	2.000000	1.167643	7.3754e+06	-53039.1	1055.82	-29747.4	0.000000	0.000000	7.168808	26.6359	NaN	0.000000	0.001632	0.001650	28.0829	21.1248	0.001796	11760.1	5.323782	-177.088	25.386	1.167359	0.015394	0.015110	26.6359	11760.1	0.013695	0.013585	1960.75	92185.5
1058	2.000000	1.170163	7.3754e+06	-53039.1	1055.82	-29747.4	0.000000	0.000000	7.171511	31.1026	NaN	0.000000	0.001672	0.001671	28.084	22.917	0.001826	12551.4	6.090565	3.822696	30.3011	1.169756	0.017913	0.017506	31.1026	12551.4	0.016055	0.016718	1860.44	88690.1
1058	2.000000	1.172657	7.3754e+06	-53039.1	1055.82	-29747.4	0.000000	0.000000	7.174143	34.4345	NaN	0.000000	0.001693	0.001653	28.0842	24.7438	0.001787	13850.2	4.008708	-175.985	33.8025	1.172332	0.020408	0.020083	34.4345	13850.2	0.018543	0.020305	1695.89	88803.9
1058	2.000000	1.175141	7.3754e+06	-53039.1	1055.82	-29747.4	0.000000	0.000000	7.177000	43.5155	NaN	0.000000	0.001670	0.001689	28.0837	27.3516	0.001775	15410	9.468438	-2.538244	43.331	1.174740	0.022892	0.022491	43.5155	15410	0.020774	0.023773	1830.46	91312.9
1058	2.000000	1.177618	7.3754e+06	-53039.1	1055.82	-29747.4	0.000000	0.000000	7.179678	48.4143	NaN	0.000000	0.001653	0.001682	28.0839	29.9935	0.001864	16093.3	6.260949	-178.623	47.4359	1.177308	0.025368	0.025059	48.4143	16093.3	0.023112	0.027670	1749.7	88391.9
1058	2.000000	1.180118	7.3754e+06	-53039.1	1055.82	-29747.4	0.000000	0.000000	7.182538	57.1719	NaN	0.000000	0.001650	0.001713	28.084	31.8291	0.001616	19698.5	5.737925	-1.532652	54.5323	1.179779	0.027868	0.027530	57.1719	19698.5	0.025691	0.032286	1770.81	100162
1058	2.000000	1.182641	7.3754e+06	-53039.1	1055.82	-29747.4	0.000000	0.000000	7.185226	61.1655	NaN	0.000000	0.001673	0.001723	28.0842	34.0037	0.001750	19430.9	7.735233	177.154	63.229	1.182317	0.030392	0.030068	61.1655	19430.9	0.028031	0.036762	1663.85	92590.9
1058	2.000000	1.185116	7.3754e+06	-53039.1	1055.82	-29747.4	0.000000	0.000000	7.188047	69.5666	NaN	0.000000	0.001654	0.001722	28.084	36.6382	0.001876	19527.2	6.814394	-2.020210	68.4246	1.184838	0.032867	0.032589	69.5666	19527.2	0.030195	0.041149	1690.62	87950
1058	2.000000	1.187555	7.3754e+06	-53039.1	1055.82	-29747.4	0.000000	0.000000	7.190868	78.8624	NaN	0.000000	0.001652	0.001702	28.0841	38.5373	0.001650	23350.1	6.122915	175.866	75.2536	1.187232	0.035305	0.034983	78.8624	23350.1	0.032772	0.046686	1689.22	98734.8
1058	2.000000	1.190104	7.3754e+06	-53039.1	1055.82	-29747.4	0.000000	0.000000	7.193730	86.4792	NaN	0.000000	0.001659	0.001711	28.0839	40.7376	0.001839	22150.8	5.830718	-1.401685	84.1124	1.189795	0.037855	0.037546	86.4792	22150.8	0.034927	0.051575	1676.75	89113.1
1058	2.000000	1.192613	7.3754e+06	-53039.1	1055.82	-29747.4	0.000000	0.000000	7.196628	95.9408	NaN	0.000000	0.001677	0.001704	28.0841	42.8546	0.001781	24068.6	3.774373	179.065	96.5609	1.192312	0.040363	0.040063	95.9408	24068.6	0.037374	0.057417	1670.95	91770.7
1058	2.000000	1.195031	7.3754e+06	-53039.1	1055.82	-29747.4	0.000000	0.000000	7.199368	103.758	NaN	0.000000	0.001681	0.001699	28.0839	44.8369	0.001763	25433.5	-0.326982	2.370843	100.41	1.194815	0.042782	0.042566	103.758	25433.5	0.039722	0.063312	1638.82	92349.7
1058	2.000000	1.197638	7.3754e+06	-53039.1	1055.82	-29747.4	0.000000	0.000000	7.202330	112.4	NaN	0.000000	0.001725	0.001634	28.0839	48.51	0.001775	27336.1	3.700713	177.342	112.894	1.197292	0.045389	0.045042	112.4	27336.1	0.042305	0.070120	1602.97	94316.6
1058	2.000000	1.200131	7.3754e+06	-53039.1	1055.82	-29747.4	0.000000	0.000000	7.205380	125.933	NaN	0.000000	0.001718	0.001683	28.084	50.0387	0.001712	29228.1	4.986327	-3.679850	123.649	1.199673	0.047882	0.047424	125.933	29228.1	0.044650	0.076598	1644.09	96486.3
1058	2.000000	1.202613	7.3754e+06	-53039.1	1055.82	-29747.4	0.000000	0.000000	7.208095	131.607	NaN	0.000000	0.001701	0.001687	28.083	51.5913	0.001764	29253.3	-0.512833	-178.585	132.769	1.202283	0.050364	0.050033	131.607	29253.3	0.046989	0.083335	1579.25	92583.6
1058	2.000000	1.205136	7.3754e+06	-53039.1	1055.82	-29747.4	0.000000	0.000000	7.211204	145.834	NaN	0.000000	0.001662	0.001668	28.0827	54.8149	0.001713	31995.4	2.570702	-1.377071	147.666	1.204696	0.052887	0.052446	145.834	31995.4	0.049468	0.090777	1606.51	97022.6
1058	2.000000	1.207604	7.3754e+06	-53039.1	1055.82	-29747.4	0.000000	0.000000	7.214200	158.682	NaN	0.000000	0.001643	0.001670	28.0827	57.6444	0.001739	33150.7	0.936024	179.383	159.918	1.207307	0.055355	0.055057	158.682	33150.7	0.051765	0.097947	1620.08	96776.7
1058	2.000000	1.210119	7.3754e+06	-53039.1	1055.82	-29747.4	0.000000	0.000000	7.216921	163.706	NaN	0.000000	0.001665	0.001659	28.0826	60.1646	0.001888	31867.5	3.353370	-3.247984	162.999	1.209881	0.057869	0.057632	163.706	31867.5	0.054017	0.105232	1555.67	89752.8
1058	2.000000	1.212565	7.3754e+06	-53039.1	1055.82	-29747.4	0.000000	0.000000	7.220010	179.334	NaN	0.000000	0.001660	0.001615	28.0826	62.3687	0.001830	34072.6	5.724659	173.803	177.698	1.212318	0.060315	0.060069	179.334	34072.6	0.056368	0.113107	1585.53	92562.2
1058	2.000000	1.215074	7.3754e+06	-53039.1	1055.82	-29747.4	0.000000	0.000000	7.223222	196.422	NaN	0.000000	0.001666	0.001658	28.0827	64.1835	0.001845	34796.6	5.591698	-4.887201	197.546	1.214667	0.062825	0.062418	196.422	34796.6	0.058591	0.120805	1625.94	91467.7
1058	2.000000	1.217542	7.3754e+06	-53039.1	1055.82	-29747.4	0.000000	0.000000	7.226163	207.938	NaN	0.000000	0.001642	0.001645	28.0826	66.6065	0.001712	38907.4	4.053062	174.8	207.363	1.217238	0.065292	0.064988	207.938	38907.4	0.061284	0.130453	1593.98	98418.9
1058	2.000000	1.220163	7.3754e+06	-53039.1	1055.82	-29747.4	0.000000	0.000000	7.229459	224.334	NaN	0.000000	0.001667	0.001641	28.0828	68.4534	0.001886	36297.5	6.024454	-5.316625	227.471	1.219617	0.067913	0.067367	224.334	36297.5	0.063278	0.137824	1627.68	89327.9
1058	2.000000	1.222596	7.3754e+06	-53039.1	1055.82	-29747.4	0.000000	0.000000	7.232391	236.472	NaN	0.000000	0.001637	0.001656	28.0827	70.9125	0.001777	39911.2	5.264145	173.833	238.081	1.222254	0.070346	0.070004	236.472	39911.2	0.065902	0.147820	1599.73	94842.1
1058	2.000000	1.224964	7.3754e+06	-53039.1	1055.82	-29747.4	0.000000	0.000000	7.235437	252.968	NaN	0.000000	0.001654	0.001650	28.0826	74.6191	0.001822	40955.6	4.673042	-6.595252	248.354	1.224724	0.072714	0.072475	252.968	40955.6	0.068082	0.156372	1617.73	94625.2
1058	2.000000	1.227579	7.3754e+06	-53039.1	1055.82	-29747.4	0.000000	0.000000	7.238679	268.179	NaN	0.000000	0.001678	0.001647	28.0827	76.8846	0.001790	42941.4	9.096472	169.183	269.97	1.227215	0.075330	0.074966	268.179	42941.4	0.070646	0.166725	1608.51	96083.5
1058	2.000000	1.230126	7.3754e+06	-53039.1	1055.82	-29747.4	0.000000	0.000000	7.241977	286.453	NaN	0.000000	0.001629	0.001619	28.083	79.2759	0.001947	40716.1	7.946147	-8.440667	286.977	1.229667	0.077877	0.077417	286.453	40716.1	0.072600	0.174827	1638.49	88968.4
1058	2.000000	1.232532	7.3754e+06	-53039.1	1055.82	-29747.4	0.000000	0.000000	7.244700	294.176	NaN	0.000000	0.001609	0.001639	28.0827	80.8324	0.001809	44672.5	6.097875	171.556	291.893	1.232231	0.080282	0.079982	294.176	44672.5	0.075343	0.186501	1577.35	94508.9
1058	2.000000	1.235089	7.3754e+06	-53039.1	1055.82	-29747.4	0.000000	0.000000	7.247536	300.925	NaN	0.000000	0.001661	0.001627	28.0826	82.7388	0.001747	47353.7	5.756481	-8.608049	299.813	1.234807	0.082840	0.082558	300.925	47353.7	0.078074	0.198473	1516.2	97112.8
1058	2.000000	1.237545	7.3754e+06	-53039.1	1055.82	-29747.4	0.000000	0.000000	7.250834	321.405	NaN	0.000000	0.001658	0.001630	28.0841	85.2502	0.001793	47548.7	4.730112	172.209	320.584	1.237372	0.085296	0.085123	321.405	47548.7	0.080226	0.208158	1544.05	95217.3
1058	2.000000	1.240066	7.3754e+06	-53039.1	1055.82	-29747.4	0.000000	0.000000	7.254279	343.887	NaN	0.000000	0.001635	0.001613	28.0841	87.3475	0.001782	49007.6	9.208662	-11.7558	343.84	1.239636	0.087817	0.087387	343.887	49007.6	0.082554	0.218871	1571.19	95706.8
1058	2.000000	1.242480	7.3754e+06	-53039.1	1055.82	-29747.4	0.000000	0.000000	7.257558	364.897	NaN	0.000000	0.001637	0.001671	28.0842	88.8652	0.001862	47734.9	5.844151	171.902	363.557	1.242274	0.090231	0.090025	364.897	47734.9	0.084498	0.228012	1600.35	91333.6
1058	2.000000	1.245049	7.3754e+06	-53039.1	1055.82	-29747.4	0.000000	0.000000	7.260781	380.808	NaN	0.000000	0.001650	0.001622	28.0841	89.9989	0.001723	52235.1	1.206798	-4.663219	379.236	1.244778	0.092800	0.092529	380.808	52235.1	0.087332	0.241652	1575.86	97082.4
1058	2.000000	1.247640	7.3754e+06	-53039.1	1055.82	-29747.4	0.000000	0.000000	7.264214	401.289	NaN	0.000000	0.001675	0.001655	28.0843	94.5518	0.001781	53091.3	2.587280	174.251	404.137	1.247125	0.095391	0.094876	401.289	53091.3	0.089722	0.253441	1583.36	96351.5
1058	2.000000	1.249963	7.3754e+06	-53039.1	1055.82	-29747.4	0.000000	0.000000	7.267360	421.275	NaN	0.000000	0.001631	0.001612	28.084	95.5357	0.001664	57398.8	4.775471	-8.346509	415.269	1.249676	0.097714	0.097427	421.275	57398.8	0.092209	0.265989	1583.8	101682
1058	2.000000	1.252462	7.3754e+06	-53039.1	1055.82	-29747.4	0.000000	0.000000	7.270926	447.235	NaN	0.000000	0.001652	0.001587	28.0841	97.9798	0.001759	55707.5	3.123336	173.304	441.989	1.252167	0.100213	0.099918	447.235	55707.5	0.094192	0.276193	1619.29	96845.9
1058	2.000000	1.254547	7.3754e+06	-53039.1	1055.82	-29747.4	0.000000	0.000000	7.273630	462.295	NaN	0.000000	0.001690	0.001572	28.084	100.467	0.001795	55957.6	4.129397	172.269	463.3	1.254220	0.102297	0.101971	462.295	55957.6	0.096101	0.286189	1615.35	95566.4