File: remote_trans/data/nanoindenter/0828-1/data/Data_2025-08-06,11h17m57s/2025-07-22_16-23-58_1_429.txt
2025-07-22, 16:23:58, 1
Index	Phase	Displacement	Time	Pos X	Pos Y	Pos Z	Rot A	Rot B	Piezo Z	Force A	Force B	Gripper	Voltage A	Voltage B	Temperature	Amplitude force	Amplitude pos	Stiffness	Phase shift	Phase excitation	Force A raw	Displacement raw	HMax	HMax raw	Real Force	Real Stiffness	Contact Depth	Area	Hardness	Reduced Mod.
[#]	[#]	[um]	[s]	[um]	[um]	[um]	[m°]	[m°]	[um]	[uN]	[uN]	[V]	[V]	[V]	[°C]	[uN]	[um]	[N/m]	[°]	[°]	[uN]	[um]	[um]	[um]	[uN]	[N/m]	[um]	[um^2]	[MPa]	[MPa]
429	1.000000	0.002584	7.36925e+06	-55639.1	1005.82	-29741.2	0.000000	0.000000	6.002795	-0.087625	NaN	0.000000	0.001674	0.001738	28.0799	0.159666	0.001007	158.479	149.1	-162.131	-0.077612	0.001317	-1.101468	-1.102735	-0.087625	158.479	-1.101053	-5.178487E+14	1.692103E-16	NaN
429	1.000000	0.012661	7.36925e+06	-55639.1	1005.82	-29741.2	0.000000	0.000000	6.012878	0.058112	NaN	0.000000	0.001685	0.001736	28.08	0.063592	0.001200	52.9918	126.021	19.1539	0.065359	0.011146	-1.091391	-1.092906	0.058112	52.9918	-1.092214	-3.940336E+14	-1.474794E-16	NaN
429	1.000000	0.022550	7.36925e+06	-55639.1	1005.82	-29741.2	0.000000	0.000000	6.022764	0.007943	NaN	0.000000	0.001672	0.001744	28.0799	0.113476	0.001696	66.9154	166.221	-165.53	-0.043490	0.021240	-1.081502	-1.082812	0.007943	66.9154	-1.081592	-2.837231E+14	-2.799718E-17	NaN
429	1.000000	0.032529	7.36925e+06	-55639.1	1005.82	-29741.2	0.000000	0.000000	6.032743	-0.000664	NaN	0.000000	0.001644	0.001755	28.0799	0.036237	0.001972	18.377	-29.5233	16.443	-0.006971	0.031158	-1.071523	-1.072894	-0.000664	18.377	-1.071496	-2.076297E+14	3.196902E-18	NaN
429	1.000000	0.042531	7.36925e+06	-55639.1	1005.82	-29741.2	0.000000	0.000000	6.042747	0.033996	NaN	0.000000	0.001708	0.001733	28.0803	0.043099	0.002018	21.358	49.9262	-166.964	0.087801	0.041247	-1.061521	-1.062805	0.033996	21.358	-1.062715	-1.582345E+14	-2.148431E-16	NaN
429	1.000000	0.052520	7.36925e+06	-55639.1	1005.82	-29741.2	0.000000	0.000000	6.052738	0.075826	NaN	0.000000	0.001687	0.001755	28.0812	0.059034	0.001992	29.6294	-30.9709	16.2771	0.068018	0.051162	-1.051532	-1.052890	0.075826	29.6294	-1.053451	-1.187972E+14	-6.382818E-16	NaN
429	1.000000	0.062549	7.36925e+06	-55639.1	1005.82	-29741.2	0.000000	0.000000	6.062762	-0.028767	NaN	0.000000	0.001715	0.001736	28.0814	0.049810	0.001987	25.068	-127.62	-160.816	-0.018807	0.061194	-1.041503	-1.042858	-0.028767	25.068	-1.040643	-7.991187E+13	3.599835E-16	NaN
429	1.000000	0.072553	7.36925e+06	-55639.1	1005.82	-29741.2	0.000000	0.000000	6.072768	0.020821	NaN	0.000000	0.001682	0.001733	28.0814	0.034373	0.002101	16.3581	113.369	17.1941	-0.042968	0.071135	-1.031499	-1.032917	0.020821	16.3581	-1.032454	-6.201372E+13	-3.357426E-16	NaN
429	1.000000	0.082548	7.36925e+06	-55639.1	1005.82	-29741.2	0.000000	0.000000	6.082763	0.002993	NaN	0.000000	0.001653	0.001749	28.0821	0.121463	0.001904	63.7842	-72.8868	-163.178	0.082411	0.081244	-1.021504	-1.022808	0.002993	63.7842	-1.021539	-4.422416E+13	-6.768835E-17	NaN
429	1.000000	0.092577	7.36925e+06	-55639.1	1005.82	-29741.2	0.000000	0.000000	6.092792	0.026684	NaN	0.000000	0.001702	0.001715	28.0812	0.114482	0.001990	57.5247	35.8478	14.8075	0.057335	0.091212	-1.011475	-1.012840	0.026684	57.5247	-1.011823	-3.272806E+13	-8.153241E-16	NaN
429	1.000000	0.102555	7.36925e+06	-55639.1	1005.82	-29741.2	0.000000	0.000000	6.102771	0.038610	NaN	0.000000	0.001649	0.001724	28.0814	0.038423	0.001981	19.3958	-87.9735	-166.379	0.029611	0.101234	-1.001497	-1.002818	0.038610	19.3958	-1.002990	-2.488999E+13	-1.551245E-15	NaN
429	1.000000	0.112578	7.36925e+06	-55639.1	1005.82	-29741.2	0.000000	0.000000	6.112790	-0.045096	NaN	0.000000	0.001687	0.001754	28.0814	0.053616	0.001912	28.0369	-173.078	14.6396	0.017332	0.111154	-0.991474	-0.992898	-0.045096	28.0369	-0.990268	-1.677723E+13	2.687935E-15	NaN
429	1.000000	0.122550	7.36925e+06	-55639.1	1005.82	-29741.2	0.000000	0.000000	6.122764	-0.011751	NaN	0.000000	0.001658	0.001749	28.0819	0.066241	0.002041	32.4482	-143.954	-167.332	-0.040237	0.121289	-0.981502	-0.982763	-0.011751	32.4482	-0.981230	-1.267606E+13	9.270594E-16	NaN
429	1.000000	0.132574	7.36925e+06	-55639.1	1005.82	-29741.2	0.000000	0.000000	6.132792	0.086904	NaN	0.000000	0.001686	0.001734	28.0814	0.046216	0.001978	23.3607	-62.9831	14.8401	0.110542	0.131255	-0.971478	-0.972797	0.086904	23.3607	-0.974268	-1.021370E+13	-8.508565E-15	NaN
429	1.000000	0.142558	7.36925e+06	-55639.1	1005.82	-29741.2	0.000000	0.000000	6.142772	-0.010547	NaN	0.000000	0.001679	0.001739	28.0814	0.056342	0.002050	27.4902	-0.239148	-164.126	-0.031897	0.141202	-0.961494	-0.962850	-0.010547	27.4902	-0.961206	-6.809789E+12	1.548748E-15	NaN
429	1.000000	0.152564	7.36925e+06	-55639.1	1005.82	-29741.2	0.000000	0.000000	6.152778	-0.001025	NaN	0.000000	0.001683	0.001731	28.0812	0.065460	0.002066	31.6826	5.104390	14.7952	-0.007281	0.151145	-0.951488	-0.952907	-0.001025	31.6826	-0.951464	-5.032372E+12	2.037506E-16	NaN
429	1.000000	0.162562	7.36925e+06	-55639.1	1005.82	-29741.2	0.000000	0.000000	6.162778	0.044567	NaN	0.000000	0.001701	0.001737	28.0816	0.015259	0.002040	7.479085	-4.998282	-167.212	0.074284	0.161234	-0.941490	-0.942818	0.044567	7.479085	-0.945959	-4.241553E+12	-1.050729E-14	NaN
429	1.000000	0.172594	7.36925e+06	-55639.1	1005.82	-29741.2	0.000000	0.000000	6.172811	0.072458	NaN	0.000000	0.001688	0.001710	28.0812	0.042554	0.002132	19.9587	74.7262	19.5745	0.073334	0.171242	-0.931458	-0.932810	0.072458	19.9587	-0.934181	-2.941833E+12	-2.463008E-14	NaN
429	1.000000	0.182572	7.36925e+06	-55639.1	1005.82	-29741.2	0.000000	0.000000	6.182787	0.009124	NaN	0.000000	0.001686	0.001708	28.0802	0.030954	0.001824	16.9703	106.067	-164.906	0.015089	0.181243	-0.921480	-0.922809	0.009124	16.9703	-0.921884	-2.007409E+12	-4.545326E-15	NaN
429	1.000000	0.192575	7.36925e+06	-55639.1	1005.82	-29741.2	0.000000	0.000000	6.192788	-0.024186	NaN	0.000000	0.001742	0.001749	28.0802	0.048575	0.002074	23.421	-79.3615	18.2872	-0.034058	0.191251	-0.911477	-0.912801	-0.024186	23.421	-0.910703	-1.417939E+12	1.705690E-14	NaN
429	1.000000	0.202587	7.36925e+06	-55639.1	1005.82	-29741.2	0.000000	0.000000	6.202804	0.067966	NaN	0.000000	0.001683	0.001730	28.0799	0.109048	0.001913	56.9963	-162.108	-163.404	0.038123	0.201234	-0.901465	-0.902818	0.067966	56.9963	-0.902359	-1.093816E+12	-6.213697E-14	NaN
429	1.000000	0.212595	7.36925e+06	-55639.1	1005.82	-29741.2	0.000000	0.000000	6.212811	0.054362	NaN	0.000000	0.001721	0.001733	28.0799	0.099957	0.002024	49.384	-59.1863	17.1555	0.052968	0.211294	-0.891457	-0.892759	0.054362	49.384	-0.892283	-7.994222E+11	-6.800099E-14	NaN
429	1.000000	0.222609	7.36925e+06	-55639.1	1005.82	-29741.2	0.000000	0.000000	6.222822	-0.021675	NaN	0.000000	0.001732	0.001724	28.0801	0.174738	0.001929	90.5701	87.9604	-169.549	-0.036479	0.221259	-0.881443	-0.882793	-0.021675	90.5701	-0.881264	-5.672848E+11	3.820872E-14	NaN
429	1.000000	0.232604	7.36925e+06	-55639.1	1005.82	-29741.2	0.000000	0.000000	6.232821	0.065216	NaN	0.000000	0.001671	0.001735	28.0801	0.067134	0.002019	33.2462	120.046	15.7862	0.068198	0.231235	-0.871448	-0.872817	0.065216	33.2462	-0.872919	-4.374544E+11	-1.490815E-13	NaN
429	1.000000	0.242622	7.36925e+06	-55639.1	1005.82	-29741.2	0.000000	0.000000	6.242837	0.011151	NaN	0.000000	0.001698	0.001704	28.0799	0.022943	0.002008	11.4244	-12.9659	-165.568	0.001029	0.241313	-0.861430	-0.862739	0.011151	11.4244	-0.862162	-3.128865E+11	-3.563979E-14	NaN
429	1.000000	0.252588	7.36925e+06	-55639.1	1005.82	-29741.2	0.000000	0.000000	6.252803	0.018469	NaN	0.000000	0.001682	0.001732	28.0799	0.079475	0.001986	40.0149	-37.6027	12.7632	-0.013196	0.251242	-0.851464	-0.852810	0.018469	40.0149	-0.851810	-2.265946E+11	-8.150805E-14	NaN
429	1.000000	0.262620	7.36925e+06	-55639.1	1005.82	-29741.2	0.000000	0.000000	6.262838	0.072322	NaN	0.000000	0.001671	0.001708	28.0799	0.029581	0.002006	14.7439	-110.753	-165.634	0.031084	0.261316	-0.841432	-0.842736	0.072322	14.7439	-0.845111	-1.838742E+11	-3.933214E-13	NaN
429	1.000000	0.272654	7.36925e+06	-55639.1	1005.82	-29741.2	0.000000	0.000000	6.272868	-0.006939	NaN	0.000000	0.001685	0.001729	28.0803	0.106043	0.002113	50.1832	-39.0665	14.7128	-0.018211	0.271294	-0.831398	-0.832758	-0.006939	50.1832	-0.831294	-1.194888E+11	5.807313E-14	NaN
429	1.000000	0.282663	7.36925e+06	-55639.1	1005.82	-29741.2	0.000000	0.000000	6.282880	0.075040	NaN	0.000000	0.001622	0.001731	28.0799	0.114891	0.001953	58.8335	55.8171	-167.992	0.071068	0.281311	-0.821389	-0.822741	0.075040	58.8335	-0.822346	-9.036901E+10	-8.303746E-13	NaN
429	1.000000	0.292681	7.36925e+06	-55639.1	1005.82	-29741.2	0.000000	0.000000	6.292894	-0.053917	NaN	0.000000	0.001693	0.001771	28.0803	0.045731	0.001905	24.0062	-161.412	12.3549	-0.033466	0.291258	-0.811371	-0.812794	-0.053917	24.0062	-0.809686	-6.085735E+10	8.859490E-13	NaN
429	1.000000	0.302645	7.36925e+06	-55639.1	1005.82	-29741.2	0.000000	0.000000	6.302863	0.084347	NaN	0.000000	0.001664	0.001740	28.0801	0.085001	0.001931	44.0274	142.93	-163.526	0.069235	0.301299	-0.801407	-0.802753	0.084347	44.0274	-0.802844	-4.914265E+10	-1.716371E-12	NaN
429	1.000000	0.312612	7.36925e+06	-55639.1	1005.82	-29741.2	0.000000	0.000000	6.312829	0.062817	NaN	0.000000	0.001676	0.001750	28.0803	0.029557	0.001858	15.9081	53.6428	15.6935	0.008645	0.311311	-0.791440	-0.792741	0.062817	15.9081	-0.794402	-3.774490E+10	-1.664257E-12	NaN
429	1.000000	0.322635	7.36925e+06	-55639.1	1005.82	-29741.2	0.000000	0.000000	6.322851	0.061517	NaN	0.000000	0.001685	0.001758	28.0813	0.066561	0.001960	33.961	172.876	-168.314	0.097501	0.321372	-0.781418	-0.782680	0.061517	33.961	-0.782776	-2.623935E+10	-2.344454E-12	NaN
429	1.000000	0.332652	7.36925e+06	-55639.1	1005.82	-29741.2	0.000000	0.000000	6.332868	0.027795	NaN	0.000000	0.001700	0.001751	28.0814	0.025694	0.002025	12.6903	-108.386	9.699983	0.097453	0.331289	-0.771400	-0.772763	0.027795	12.6903	-0.773043	-1.934950E+10	-1.436449E-12	NaN
429	1.000000	0.342645	7.36926e+06	-55639.1	1005.82	-29741.2	0.000000	0.000000	6.342860	0.017972	NaN	0.000000	0.001676	0.001743	28.0814	0.103089	0.002103	49.0218	-139.205	-166.59	-0.004461	0.341368	-0.761407	-0.762684	0.017972	49.0218	-0.761682	-1.355774E+10	-1.325593E-12	NaN
429	1.000000	0.352671	7.36926e+06	-55639.1	1005.82	-29741.2	0.000000	0.000000	6.352884	-0.024584	NaN	0.000000	0.001678	0.001691	28.0811	0.065826	0.002050	32.1083	-147.781	14.4347	-0.031218	0.351280	-0.751382	-0.752772	-0.024584	32.1083	-0.750807	-9.642919E+9	2.549445E-12	NaN
429	1.000000	0.362664	7.36926e+06	-55639.1	1005.82	-29741.2	0.000000	0.000000	6.362881	0.053736	NaN	0.000000	0.001691	0.001724	28.0811	0.104512	0.001960	53.3225	-80.6541	-162.23	0.029494	0.361356	-0.741388	-0.742696	0.053736	53.3225	-0.742144	-7.349395E+9	-7.311653E-12	NaN
429	1.000000	0.372676	7.36926e+06	-55639.1	1005.82	-29741.2	0.000000	0.000000	6.372889	-0.043749	NaN	0.000000	0.001684	0.001742	28.0814	0.148074	0.002066	71.6769	78.6876	15.7938	-0.022163	0.371292	-0.731376	-0.732760	-0.043749	71.6769	-0.730918	-5.167957E+9	8.465447E-12	NaN
429	1.000000	0.382652	7.36926e+06	-55639.1	1005.82	-29741.2	0.000000	0.000000	6.382865	-0.045322	NaN	0.000000	0.001643	0.001699	28.0813	0.036704	0.001998	18.3707	-54.1697	-161.89	-0.037791	0.381359	-0.721400	-0.722693	-0.045322	18.3707	-0.719550	-3.616864E+9	1.253068E-11	NaN
429	1.000000	0.392671	7.36926e+06	-55639.1	1005.82	-29741.2	0.000000	0.000000	6.392886	0.029373	NaN	0.000000	0.001705	0.001730	28.0811	0.077499	0.002042	37.9601	55.2897	15.5099	0.064672	0.391424	-0.711382	-0.712628	0.029373	37.9601	-0.711962	-2.849842E+9	-1.030689E-11	NaN
429	1.000000	0.402670	7.36926e+06	-55639.1	1005.82	-29741.2	0.000000	0.000000	6.402885	0.015042	NaN	0.000000	0.001708	0.001698	28.0811	0.116409	0.002022	57.5625	-116.875	-165.814	0.070166	0.401387	-0.701382	-0.702665	0.015042	57.5625	-0.701578	-2.056262E+9	-7.315029E-12	NaN
429	1.000000	0.412688	7.36926e+06	-55639.1	1005.82	-29741.2	0.000000	0.000000	6.412900	-0.057099	NaN	0.000000	0.001701	0.001740	28.0812	0.081992	0.001882	43.5568	101.868	16.1475	-0.021556	0.411257	-0.691364	-0.692795	-0.057099	43.5568	-0.690381	-1.445860E+9	3.949134E-11	NaN
429	1.000000	0.422703	7.36926e+06	-55639.1	1005.82	-29741.2	0.000000	0.000000	6.422921	0.067850	NaN	0.000000	0.001774	0.001703	28.0812	0.055504	0.002015	27.5464	-172.418	-163.712	0.032048	0.421370	-0.681349	-0.682682	0.067850	27.5464	-0.683196	-1.153213E+9	-5.883576E-11	NaN
429	1.000000	0.432671	7.36926e+06	-55639.1	1005.82	-29741.2	0.000000	0.000000	6.432887	0.037664	NaN	0.000000	0.001754	0.001756	28.0811	0.098628	0.002025	48.7018	-166.249	13.0402	0.034940	0.431305	-0.671381	-0.672747	0.037664	48.7018	-0.671961	-8.095140E+8	-4.652726E-11	NaN
429	1.000000	0.442701	7.36926e+06	-55639.1	1005.82	-29741.2	0.000000	0.000000	6.442913	-0.061211	NaN	0.000000	0.001813	0.001709	28.081	0.119641	0.002035	58.8054	149.686	-163.771	-0.027203	0.441397	-0.661351	-0.662655	-0.061211	58.8054	-0.660571	-5.653084E+8	1.082797E-10	NaN
429	1.000000	0.452715	7.36926e+06	-55639.1	1005.82	-29741.2	0.000000	0.000000	6.452931	0.034338	NaN	0.000000	0.001789	0.001689	28.081	0.105029	0.001980	53.0472	176.337	13.773	0.028018	0.451294	-0.651337	-0.652758	0.034338	53.0472	-0.651823	-4.289630E+8	-8.004978E-11	NaN
429	1.000000	0.462688	7.36926e+06	-55639.1	1005.82	-29741.2	0.000000	0.000000	6.462904	0.037348	NaN	0.000000	0.001768	0.001731	28.0799	0.080643	0.001932	41.732	118.502	-167.114	0.009828	0.461433	-0.641364	-0.642620	0.037348	41.732	-0.642035	-3.149251E+8	-1.185945E-10	NaN
429	1.000000	0.472706	7.36926e+06	-55639.1	1005.82	-29741.2	0.000000	0.000000	6.472921	0.014132	NaN	0.000000	0.001722	0.001718	28.08	0.049220	0.001963	25.0697	-54.5325	12.9492	0.000846	0.471383	-0.631346	-0.632669	0.014132	25.0697	-0.631769	-2.276743E+8	-6.207282E-11	NaN
429	1.000000	0.482695	7.36926e+06	-55639.1	1005.82	-29741.2	0.000000	0.000000	6.482911	0.056931	NaN	0.000000	0.001718	0.001746	28.08	0.135365	0.002098	64.5247	-41.9815	-166.861	0.027610	0.481371	-0.621357	-0.622682	0.056931	64.5247	-0.622019	-1.672564E+8	-3.403830E-10	NaN
429	1.000000	0.492666	7.36926e+06	-55639.1	1005.82	-29741.2	0.000000	0.000000	6.492884	0.074946	NaN	0.000000	0.001769	0.001759	28.0801	0.079346	0.001953	40.6189	84.1283	12.7422	0.119391	0.491366	-0.611386	-0.612686	0.074946	40.6189	-0.612770	-1.248007E+8	-6.005247E-10	NaN
429	1.000000	0.502729	7.36926e+06	-55639.1	1005.82	-29741.2	0.000000	0.000000	6.502947	0.090405	NaN	0.000000	0.001746	0.001709	28.0799	0.058006	0.001994	29.0935	128.611	-165.81	0.054494	0.501411	-0.601323	-0.602641	0.090405	29.0935	-0.603654	-9.349106E+7	-9.669887E-10	NaN
429	1.000000	0.512729	7.36926e+06	-55639.1	1005.82	-29741.2	0.000000	0.000000	6.512945	0.034753	NaN	0.000000	0.001740	0.001750	28.0799	0.058841	0.001891	31.1086	14.8318	16.4759	0.006519	0.511385	-0.591323	-0.592667	0.034753	31.1086	-0.592161	-6.493123E+7	-5.352311E-10	NaN
429	1.000000	0.522764	7.36926e+06	-55639.1	1005.82	-29741.2	0.000000	0.000000	6.522982	0.077256	NaN	0.000000	0.001756	0.001720	28.0799	0.109824	0.002082	52.7565	174.079	-164.821	0.057850	0.521429	-0.581288	-0.582623	0.077256	52.7565	-0.582386	-4.760480E+7	-1.622858E-9	NaN
429	1.000000	0.532767	7.36926e+06	-55639.1	1005.82	-29741.2	0.000000	0.000000	6.532978	-0.071845	NaN	0.000000	0.001745	0.001725	28.0801	0.067291	0.002002	33.6118	-41.8928	16.7466	0.023480	0.531358	-0.571285	-0.572694	-0.071845	33.6118	-0.569682	-3.178610E+7	2.260265E-9	NaN
429	1.000000	0.542735	7.36926e+06	-55639.1	1005.82	-29741.2	0.000000	0.000000	6.542951	0.044029	NaN	0.000000	0.001756	0.001713	28.0798	0.058076	0.002025	28.682	-166.694	-163.646	0.017348	0.541438	-0.561317	-0.562614	0.044029	28.682	-0.562469	-2.526532E+7	-1.742678E-9	NaN
429	1.000000	0.552748	7.36926e+06	-55639.1	1005.82	-29741.2	0.000000	0.000000	6.552962	-0.002451	NaN	0.000000	0.001722	0.001707	28.0798	0.062825	0.001946	32.2864	151.603	14.1273	-0.036453	0.551411	-0.551304	-0.552641	-0.002451	32.2864	-0.551247	-1.766983E+7	1.386952E-10	NaN
429	1.000000	0.562731	7.36926e+06	-55639.1	1005.82	-29741.2	0.000000	0.000000	6.562948	0.061440	NaN	0.000000	0.001712	0.001703	28.0798	0.074176	0.001990	37.2707	48.8794	-164.182	0.079712	0.561451	-0.541321	-0.542601	0.061440	37.2707	-0.542558	-1.339127E+7	-4.588028E-9	NaN
429	1.000000	0.572770	7.36926e+06	-55639.1	1005.82	-29741.2	0.000000	0.000000	6.572988	0.094267	NaN	0.000000	0.001726	0.001699	28.08	0.130799	0.001893	69.1053	107.399	14.1834	0.091129	0.571368	-0.531283	-0.532684	0.094267	69.1053	-0.532306	-9.65139e+06	-9.767236E-9	NaN
429	1.000000	0.582766	7.36926e+06	-55639.1	1005.82	-29741.2	0.000000	0.000000	6.582982	0.031236	NaN	0.000000	0.001726	0.001659	28.0799	0.028499	0.001902	14.9826	146.768	-163.306	0.021010	0.581423	-0.521286	-0.522629	0.031236	14.9826	-0.522850	-7.13217e+06	-4.379546E-9	NaN
429	1.000000	0.592766	7.36926e+06	-55639.1	1005.82	-29741.2	0.000000	0.000000	6.592982	0.029995	NaN	0.000000	0.001728	0.001685	28.081	0.048564	0.002006	24.2152	103.871	12.941	0.056653	0.591413	-0.511286	-0.512639	0.029995	24.2152	-0.512215	-5.07291e+06	-5.912770E-9	NaN
429	1.000000	0.602755	7.36926e+06	-55639.1	1005.82	-29741.2	0.000000	0.000000	6.602968	-0.036578	NaN	0.000000	0.001693	0.001664	28.0812	0.060663	0.002001	30.3096	168.424	-164.778	-0.012820	0.601400	-0.501297	-0.502652	-0.036578	30.3096	-0.500392	-3.47122e+06	1.053756E-8	NaN
429	1.000000	0.612757	7.36926e+06	-55639.1	1005.82	-29741.2	0.000000	0.000000	6.612971	-0.003280	NaN	0.000000	0.001705	0.001713	28.081	0.090929	0.001968	46.2124	103.687	10.5064	0.037946	0.611412	-0.491295	-0.492640	-0.003280	46.2124	-0.491242	-2.58671e+06	1.268124E-9	NaN
429	1.000000	0.622778	7.36926e+06	-55639.1	1005.82	-29741.2	0.000000	0.000000	6.622993	0.021877	NaN	0.000000	0.001644	0.001682	28.0811	0.104704	0.001938	54.0336	-62.9916	-165.99	0.036641	0.621463	-0.481274	-0.482589	0.021877	54.0336	-0.481578	-1.895e+06	-1.154460E-8	NaN
429	1.000000	0.632778	7.36926e+06	-55639.1	1005.82	-29741.2	0.000000	0.000000	6.632993	0.006389	NaN	0.000000	0.001648	0.001700	28.081	0.117705	0.001918	61.372	59.3093	14.2721	0.033309	0.631414	-0.471274	-0.472638	0.006389	61.372	-0.471352	-1.3626e+06	-4.688733E-9	NaN
429	1.000000	0.642773	7.36926e+06	-55639.1	1005.82	-29741.2	0.000000	0.000000	6.642990	0.079223	NaN	0.000000	0.001618	0.001694	28.0813	0.066956	0.002164	30.9338	100.018	-163.447	0.004134	0.641497	-0.461280	-0.462556	0.079223	30.9338	-0.463200	-1.04707e+06	-7.566115E-8	NaN
429	1.000000	0.652788	7.36926e+06	-55639.1	1005.82	-29741.2	0.000000	0.000000	6.653004	0.036956	NaN	0.000000	0.001659	0.001712	28.0809	0.056069	0.002027	27.6653	-152.305	14.7656	0.138363	0.651469	-0.451264	-0.452583	0.036956	27.6653	-0.452266	-734922	-5.028550E-8	NaN
429	1.000000	0.662805	7.36926e+06	-55639.1	1005.82	-29741.2	0.000000	0.000000	6.663019	-0.006707	NaN	0.000000	0.001706	0.001713	28.0809	0.060985	0.002121	28.747	-27.6511	-165.537	0.072540	0.661477	-0.441247	-0.442575	-0.006707	28.747	-0.441072	-511080	1.312284E-8	NaN
429	1.000000	0.672803	7.36926e+06	-55639.1	1005.82	-29741.2	0.000000	0.000000	6.673017	0.002186	NaN	0.000000	0.001688	0.001692	28.0809	0.105089	0.002015	52.1608	-132.325	16.4793	0.000272	0.671442	-0.431250	-0.432610	0.002186	52.1608	-0.431281	-371690	-5.882161E-9	NaN
429	1.000000	0.682796	7.36926e+06	-55639.1	1005.82	-29741.2	0.000000	0.000000	6.683009	-0.041556	NaN	0.000000	0.001658	0.001713	28.0809	0.071490	0.001991	35.9152	-8.751359	-160.513	0.002525	0.681489	-0.421256	-0.422563	-0.041556	35.9152	-0.420388	-260565	1.594847E-7	NaN
429	1.000000	0.692837	7.36926e+06	-55639.1	1005.82	-29741.2	0.000000	0.000000	6.693049	-0.043852	NaN	0.000000	0.001700	0.001707	28.081	0.144015	0.001994	72.2079	-100.548	14.762	-0.135545	0.691437	-0.411216	-0.412616	-0.043852	72.2079	-0.410760	-190199	2.305595E-7	NaN
429	1.000000	0.702801	7.36926e+06	-55639.1	1005.82	-29741.2	0.000000	0.000000	6.703015	-0.013166	NaN	0.000000	0.001692	0.001706	28.081	0.043670	0.001990	21.9425	110.913	-163.271	0.062026	0.701486	-0.401251	-0.402566	-0.013166	21.9425	-0.400801	-137220	9.594508E-8	NaN
429	1.000000	0.712844	7.36926e+06	-55639.1	1005.82	-29741.2	0.000000	0.000000	6.713060	0.035312	NaN	0.000000	0.001685	0.001705	28.0812	0.110684	0.002069	53.496	168.187	13.7633	0.023552	0.711436	-0.391208	-0.392616	0.035312	53.496	-0.391703	-101748	-3.470540E-7	NaN
429	1.000000	0.722834	7.36926e+06	-55639.1	1005.82	-29741.2	0.000000	0.000000	6.723046	-0.038788	NaN	0.000000	0.001716	0.001705	28.0808	0.024635	0.002064	11.9382	-21.2539	-165.411	0.011982	0.721474	-0.381218	-0.382578	-0.038788	11.9382	-0.378782	-66435.6	5.838413E-7	NaN
429	1.000000	0.732807	7.36926e+06	-55639.1	1005.82	-29741.2	0.000000	0.000000	6.733022	0.023275	NaN	0.000000	0.001686	0.001732	28.0797	0.064277	0.001971	32.6191	-133.215	16.3513	-0.007175	0.731538	-0.371245	-0.372514	0.023275	32.6191	-0.371780	-52693.4	-4.417156E-7	NaN
429	1.000000	0.742851	7.36926e+06	-55639.1	1005.82	-29741.2	0.000000	0.000000	6.743065	-0.018117	NaN	0.000000	0.001667	0.001743	28.0797	0.076027	0.002037	37.318	-89.2246	-161.086	-0.078699	0.741520	-0.361201	-0.362533	-0.018117	37.318	-0.360837	-36638.3	4.944755E-7	NaN
429	1.000000	0.752834	7.36926e+06	-55639.1	1005.82	-29741.2	0.000000	0.000000	6.753047	-0.044025	NaN	0.000000	0.001677	0.001732	28.0799	0.048983	0.001961	24.9841	-7.608225	14.8882	-0.039841	0.751487	-0.351218	-0.352565	-0.044025	24.9841	-0.349896	-25439	1.730626E-6	NaN
429	1.000000	0.762802	7.36926e+06	-55639.1	1005.82	-29741.2	0.000000	0.000000	6.763017	0.014488	NaN	0.000000	0.001659	0.001709	28.0797	0.110083	0.002061	53.4016	53.9737	-165.065	-0.014997	0.761491	-0.341250	-0.342561	0.014488	53.4016	-0.341453	-19174.7	-7.555644E-7	NaN
429	1.000000	0.772824	7.36926e+06	-55639.1	1005.82	-29741.2	0.000000	0.000000	6.773041	0.059281	NaN	0.000000	0.001670	0.001678	28.0797	0.109117	0.002109	51.7445	-0.838267	16.8589	0.073166	0.771466	-0.331228	-0.332586	0.059281	51.7445	-0.332087	-13995.8	-4.235629E-6	NaN
429	1.000000	0.782863	7.36926e+06	-55639.1	1005.82	-29741.2	0.000000	0.000000	6.783076	-0.016464	NaN	0.000000	0.001673	0.001697	28.0798	0.050284	0.001976	25.453	128.789	-164.091	-0.002957	0.781489	-0.321190	-0.322563	-0.016464	25.453	-0.320704	-9528.07	1.727935E-6	NaN
429	1.000000	0.792850	7.36926e+06	-55639.1	1005.82	-29741.2	0.000000	0.000000	6.793063	-0.036355	NaN	0.000000	0.001668	0.001711	28.0799	0.084494	0.002024	41.7517	167.047	12.0806	-0.027038	0.791511	-0.311202	-0.312541	-0.036355	41.7517	-0.310549	-6748.04	5.387558E-6	NaN
429	1.000000	0.802857	7.36926e+06	-55639.1	1005.82	-29741.2	0.000000	0.000000	6.803069	-0.064264	NaN	0.000000	0.001671	0.001668	28.0798	0.058780	0.001993	29.4929	97.6015	-169.12	0.035653	0.801547	-0.301195	-0.302505	-0.064264	29.4929	-0.299561	-4635.51	1.386335E-5	NaN
429	1.000000	0.812842	7.36926e+06	-55639.1	1005.82	-29741.2	0.000000	0.000000	6.813060	0.092834	NaN	0.000000	0.001701	0.001718	28.0797	0.126888	0.002043	62.1094	15.2219	13.7521	0.038726	0.811464	-0.291210	-0.292588	0.092834	62.1094	-0.292331	-3615.77	-2.567476E-5	NaN
429	1.000000	0.822826	7.36926e+06	-55639.1	1005.82	-29741.2	0.000000	0.000000	6.823041	0.030780	NaN	0.000000	0.001717	0.001680	28.0801	0.073809	0.002062	35.7892	-89.7243	-162.266	0.023309	0.821559	-0.281226	-0.282493	0.030780	35.7892	-0.281871	-2518.74	-1.222053E-5	NaN
429	1.000000	0.832872	7.36926e+06	-55639.1	1005.82	-29741.2	0.000000	0.000000	6.833086	0.000460	NaN	0.000000	0.001685	0.001688	28.0798	0.068664	0.001928	35.6132	80.5358	15.3307	-0.118813	0.831532	-0.271180	-0.272521	0.000460	35.6132	-0.271190	-1736.3	-2.649569E-7	NaN
429	1.000000	0.842884	7.36926e+06	-55639.1	1005.82	-29741.2	0.000000	0.000000	6.843099	0.026766	NaN	0.000000	0.001700	0.001677	28.0799	0.103643	0.002128	48.7132	152.2	-164.659	0.037913	0.841544	-0.261168	-0.262508	0.026766	48.7132	-0.261580	-1239.15	-2.160059E-5	NaN
429	1.000000	0.852863	7.36926e+06	-55639.1	1005.82	-29741.2	0.000000	0.000000	6.853075	-0.049707	NaN	0.000000	0.001694	0.001730	28.0797	0.026531	0.001947	13.6258	105.004	18.4996	0.031966	0.851520	-0.251189	-0.252532	-0.049707	13.6258	-0.248453	-778.09	6.388327E-5	NaN
429	1.000000	0.862865	7.36926e+06	-55639.1	1005.82	-29741.2	0.000000	0.000000	6.863076	-0.068578	NaN	0.000000	0.001699	0.001756	28.0803	0.092867	0.001905	48.7468	-173.916	-165.818	-0.033352	0.861612	-0.241187	-0.242440	-0.068578	48.7468	-0.240132	-577.583	0.000119	NaN
429	1.000000	0.872893	7.36926e+06	-55639.1	1005.82	-29741.2	0.000000	0.000000	6.873107	0.008821	NaN	0.000000	0.001679	0.001720	28.0811	0.062438	0.001980	31.5416	132.742	13.8968	-0.034900	0.871496	-0.231160	-0.232556	0.008821	31.5416	-0.231369	-420.846	-2.096106E-5	NaN
429	1.000000	0.882875	7.36926e+06	-55639.1	1005.82	-29741.2	0.000000	0.000000	6.883089	-0.015698	NaN	0.000000	0.001679	0.001722	28.0809	0.083586	0.001900	43.9875	-73.8585	-164.959	0.006355	0.881564	-0.221177	-0.222488	-0.015698	43.9875	-0.220909	-287.207	5.465882E-5	NaN
429	1.000000	0.892873	7.36926e+06	-55639.1	1005.82	-29741.2	0.000000	0.000000	6.893089	0.052239	NaN	0.000000	0.001704	0.001684	28.0813	0.075003	0.001952	38.4171	126.814	15.2526	0.089314	0.891533	-0.211179	-0.212519	0.052239	38.4171	-0.212199	-208.15	-0.000251	NaN
429	1.000000	0.902908	7.36926e+06	-55639.1	1005.82	-29741.2	0.000000	0.000000	6.903123	0.006442	NaN	0.000000	0.001670	0.001714	28.0811	0.050872	0.002052	24.7954	104.635	-164.611	-0.004404	0.901569	-0.201144	-0.202483	0.006442	24.7954	-0.201339	-138.574	-4.648572E-5	NaN
429	1.000000	0.912900	7.36926e+06	-55639.1	1005.82	-29741.2	0.000000	0.000000	6.913112	-0.051955	NaN	0.000000	0.001678	0.001678	28.081	0.064967	0.001892	34.3361	-49.5227	17.233	0.020653	0.911535	-0.191152	-0.192517	-0.051955	34.3361	-0.190017	-90.0152	0.000577	NaN
429	1.000000	0.922920	7.36926e+06	-55639.1	1005.82	-29741.2	0.000000	0.000000	6.923136	0.050637	NaN	0.000000	0.001701	0.001695	28.0811	0.048852	0.002074	23.5487	-20.1577	-165.78	-0.021558	0.921603	-0.181132	-0.182449	0.050637	23.5487	-0.182745	-67.9281	-0.000745	NaN
429	1.000000	0.932911	7.36926e+06	-55639.1	1005.82	-29741.2	0.000000	0.000000	6.933129	0.093667	NaN	0.000000	0.001684	0.001699	28.0811	0.028778	0.002147	13.4052	18.5895	12.9861	0.095034	0.931570	-0.171141	-0.172482	0.093667	13.4052	-0.176381	-52.9277	-0.001770	NaN
429	1.000000	0.942934	7.36926e+06	-55639.1	1005.82	-29741.2	0.000000	0.000000	6.943146	-0.056951	NaN	0.000000	0.001696	0.001744	28.0812	0.050559	0.001925	26.265	95.3977	-163.21	-0.024217	0.941560	-0.161118	-0.162493	-0.056951	26.265	-0.159491	-26.85	0.002121	NaN
429	1.000000	0.952900	7.36926e+06	-55639.1	1005.82	-29741.2	0.000000	0.000000	6.953115	0.023663	NaN	0.000000	0.001676	0.001737	28.0811	0.093692	0.001919	48.8145	-6.817761	14.484	0.044686	0.951540	-0.151152	-0.152512	0.023663	48.8145	-0.151516	-19.3017	-0.001226	NaN
429	1.000000	0.962927	7.36926e+06	-55639.1	1005.82	-29741.2	0.000000	0.000000	6.963150	0.212372	NaN	0.000000	0.001671	0.001728	28.0812	0.137964	0.001977	69.786	19.437	-164.086	0.230179	0.961615	-0.141125	-0.142437	0.212372	69.786	-0.143407	-13.6971	-0.015505	NaN
429	1.000000	0.972916	7.36926e+06	-55639.1	1005.82	-29741.2	0.000000	0.000000	6.973156	0.635792	NaN	0.000000	0.001698	0.001685	28.0814	0.211757	0.001975	107.213	-8.546849	17.6958	0.633984	0.971550	-0.131136	-0.132502	0.635792	107.213	-0.135584	-9.759488	-0.065146	NaN
429	1.000000	0.982921	7.36926e+06	-55639.1	1005.82	-29741.2	0.000000	0.000000	6.983170	0.855782	NaN	0.000000	0.001729	0.001725	28.0814	0.209937	0.001977	106.207	38.384	-164.073	0.771025	0.981668	-0.121131	-0.122385	0.855782	106.207	-0.127175	-6.711924	-0.127502	NaN
429	1.000000	0.992940	7.36926e+06	-55639.1	1005.82	-29741.2	0.000000	0.000000	6.993186	0.761972	NaN	0.000000	0.001708	0.001774	28.0812	0.278313	0.002012	138.3	16.6191	14.4098	0.761282	0.991580	-0.111112	-0.112473	0.761972	138.3	-0.115244	-3.864821	-0.197156	NaN
429	1.000000	1.002913	7.36926e+06	-55639.1	1005.82	-29741.2	0.000000	0.000000	7.003172	1.075082	NaN	0.000000	0.001705	0.001771	28.0805	0.397391	0.001997	199.029	2.904763	-163.38	0.982376	1.001655	-0.101139	-0.102397	1.075082	199.029	-0.105190	-2.372884	-0.453070	NaN
429	1.000000	1.012933	7.36926e+06	-55639.1	1005.82	-29741.2	0.000000	0.000000	7.013212	1.584337	NaN	0.000000	0.001712	0.001727	28.0801	0.366094	0.001948	187.892	9.288020	15.3936	1.522438	1.011548	-0.091119	-0.092504	1.584337	187.892	-0.097443	-1.602159	-0.988876	NaN
429	1.000000	1.022953	7.36926e+06	-55639.1	1005.82	-29741.2	0.000000	0.000000	7.023239	1.729907	NaN	0.000000	0.001711	0.001794	28.0799	0.321604	0.001987	161.821	29.4646	-166.569	1.756201	1.021606	-0.081099	-0.082446	1.729907	161.821	-0.089117	-1.030474	-1.678749	NaN
429	1.000000	1.032945	7.36926e+06	-55639.1	1005.82	-29741.2	0.000000	0.000000	7.033237	1.888718	NaN	0.000000	0.001659	0.001734	28.0799	0.299609	0.001990	150.572	27.221	13.5817	1.857517	1.031625	-0.071107	-0.072427	1.888718	150.572	-0.080515	-0.637578	-2.962332	NaN
429	1.000000	1.042944	7.36926e+06	-55639.1	1005.82	-29741.2	0.000000	0.000000	7.043242	2.053250	NaN	0.000000	0.001692	0.001730	28.0802	0.463340	0.002062	224.734	18.7106	-168.757	2.007670	1.041654	-0.061108	-0.062398	2.053250	224.734	-0.067961	-0.300518	-6.832372	NaN
429	1.000000	1.052954	7.36926e+06	-55639.1	1005.82	-29741.2	0.000000	0.000000	7.053259	2.204819	NaN	0.000000	0.001697	0.001744	28.0797	0.361380	0.001962	184.165	27.5462	15.1102	2.209105	1.051609	-0.051098	-0.052443	2.204819	184.165	-0.060077	-0.181017	-12.1802	NaN
429	1.000000	1.062948	7.36926e+06	-55639.1	1005.82	-29741.2	0.000000	0.000000	7.063258	2.316095	NaN	0.000000	0.001672	0.001733	28.0799	0.510830	0.001900	268.927	20.0759	-165.709	2.199014	1.061628	-0.041104	-0.042424	2.316095	268.927	-0.047563	-0.076960	-30.095	NaN
429	1.000000	1.072971	7.36926e+06	-55639.1	1005.82	-29741.2	0.000000	0.000000	7.073279	2.274214	NaN	0.000000	0.001682	0.001746	28.0797	0.548093	0.002032	269.676	10.6665	15.0883	2.276685	1.071654	-0.031081	-0.032398	2.274214	269.676	-0.037406	-0.037758	-60.2308	NaN
429	1.000000	1.083021	7.36926e+06	-55639.1	1005.82	-29741.2	0.000000	0.000000	7.083331	2.327437	NaN	0.000000	0.001734	0.001767	28.0803	0.405640	0.002006	202.181	31.5031	-166.978	2.374481	1.081652	-0.021031	-0.022400	2.327437	202.181	-0.029665	-0.022525	-103.329	NaN
429	1.000000	1.092974	7.36926e+06	-55639.1	1005.82	-29741.2	0.000000	0.000000	7.093286	2.382812	NaN	0.000000	0.001698	0.001778	28.0797	0.557758	0.002080	268.139	11.717	16.6738	2.358805	1.091616	-0.011078	-0.012437	2.382812	268.139	-0.017743	-0.010992	-216.768	NaN
429	1.000000	1.102956	7.36926e+06	-55639.1	1005.82	-29741.2	0.000000	0.000000	7.103274	2.501736	NaN	0.000000	0.001709	0.001742	28.0802	0.791133	0.002053	385.44	19.3702	-165.506	2.476583	1.101640	-0.001096	-0.002413	2.501736	385.44	-0.005964	-0.004014	-623.247	NaN
429	2.000000	1.111094	7.36926e+06	-55639.1	1005.82	-29741.2	0.000000	0.000000	7.111704	9.612452	NaN	0.000000	0.001733	0.001751	28.0799	8.350822	0.001652	5054.78	9.291669	6.712137	9.303632	1.110723	0.007042	0.006671	9.612452	5054.78	0.005616	0.004703	2044.11	67345.8
429	2.000000	1.113579	7.36926e+06	-55639.1	1005.82	-29741.2	0.000000	0.000000	7.114375	14.1237	NaN	0.000000	0.001683	0.001741	28.0804	11.7934	0.001894	6227.15	10.0682	-173.481	14.5258	1.113255	0.009527	0.009203	14.1237	6227.15	0.007826	0.006864	2057.59	68670.1
429	2.000000	1.116102	7.36926e+06	-55639.1	1005.82	-29741.2	0.000000	0.000000	7.116989	16.3424	NaN	0.000000	0.001693	0.001750	28.0798	14.2057	0.001716	8278.02	11.771	2.310373	16.716	1.115736	0.012050	0.011684	16.3424	8278.02	0.010569	0.009821	1663.99	76316.2
429	2.000000	1.118548	7.36926e+06	-55639.1	1005.82	-29741.2	0.000000	0.000000	7.119625	20.9687	NaN	0.000000	0.001705	0.001758	28.0812	17.181	0.001814	9468.88	9.154169	-176.007	21.3303	1.118246	0.014496	0.014194	20.9687	9468.88	0.012835	0.012506	1676.71	77359.9
429	2.000000	1.121058	7.36926e+06	-55639.1	1005.82	-29741.2	0.000000	0.000000	7.122300	24.9878	NaN	0.000000	0.001696	0.001701	28.0814	19.212	0.001661	11565.7	5.831889	4.286451	25.2567	1.120671	0.017006	0.016619	24.9878	11565.7	0.015386	0.015803	1581.21	84057.9
429	2.000000	1.123494	7.36926e+06	-55639.1	1005.82	-29741.2	0.000000	0.000000	7.124932	29.7439	NaN	0.000000	0.001686	0.001748	28.0817	22.1553	0.001720	12882	8.226961	-178.869	28.44	1.123169	0.019442	0.019117	29.7439	12882	0.017710	0.019071	1559.65	85225.7
429	2.000000	1.125978	7.36926e+06	-55639.1	1005.82	-29741.2	0.000000	0.000000	7.127688	36.3621	NaN	0.000000	0.001687	0.001718	28.0813	24.6307	0.001730	14239.5	5.437162	2.733990	33.056	1.125761	0.021926	0.021709	36.3621	14239.5	0.020010	0.022559	1611.89	86618.7
429	2.000000	1.128495	7.36926e+06	-55639.1	1005.82	-29741.2	0.000000	0.000000	7.130460	42.5367	NaN	0.000000	0.001659	0.001769	28.0814	26.5201	0.001670	15879.1	3.503691	-176.395	41.262	1.128171	0.024443	0.024119	42.5367	15879.1	0.022434	0.026513	1604.39	89099.1
429	2.000000	1.131008	7.36926e+06	-55639.1	1005.82	-29741.2	0.000000	0.000000	7.133250	49.2821	NaN	0.000000	0.001703	0.001723	28.0816	30.4391	0.001732	17570.4	6.469808	-1.773203	46.583	1.130612	0.026956	0.026560	49.2821	17570.4	0.024852	0.030748	1602.79	91547.7
429	2.000000	1.133498	7.36926e+06	-55639.1	1005.82	-29741.2	0.000000	0.000000	7.136012	55.8926	NaN	0.000000	0.001676	0.001737	28.0815	33.1879	0.001822	18213.4	6.213861	178.768	53.8098	1.133138	0.029446	0.029085	55.8926	18213.4	0.027145	0.035033	1595.43	88904.6
429	2.000000	1.136050	7.36926e+06	-55639.1	1005.82	-29741.2	0.000000	0.000000	7.138842	62.6603	NaN	0.000000	0.001665	0.001698	28.0815	34.3942	0.001883	18269.2	1.935048	5.262150	62.1313	1.135641	0.031998	0.031589	62.6603	18269.2	0.029426	0.039562	1583.87	83918.2
429	2.000000	1.138443	7.36926e+06	-55639.1	1005.82	-29741.2	0.000000	0.000000	7.141755	75.2885	NaN	0.000000	0.001707	0.001717	28.0816	36.714	0.001715	21405.6	5.069272	178.919	71.2579	1.138121	0.034391	0.034069	75.2885	21405.6	0.031753	0.044456	1693.56	92754.7
429	2.000000	1.141028	7.36926e+06	-55639.1	1005.82	-29741.2	0.000000	0.000000	7.144604	81.7169	NaN	0.000000	0.001734	0.001728	28.0815	38.8551	0.001597	24336.2	3.629272	-0.217510	81.4631	1.140649	0.036976	0.036597	81.7169	24336.2	0.034457	0.050489	1618.49	98952.4
429	2.000000	1.143474	7.36926e+06	-55639.1	1005.82	-29741.2	0.000000	0.000000	7.147235	86.1935	NaN	0.000000	0.001736	0.001730	28.0816	43.1296	0.001777	24275.6	0.481524	-178.08	83.4318	1.143145	0.039422	0.039093	86.1935	24275.6	0.036759	0.055922	1541.32	93789.4
429	2.000000	1.146025	7.36926e+06	-55639.1	1005.82	-29741.2	0.000000	0.000000	7.150236	97.1677	NaN	0.000000	0.001676	0.001715	28.0813	45.1714	0.001777	25414.2	9.005432	-5.051518	96.8009	1.145560	0.041973	0.041508	97.1677	25414.2	0.039105	0.061736	1573.92	93450.3
429	2.000000	1.148459	7.36926e+06	-55639.1	1005.82	-29741.2	0.000000	0.000000	7.153052	106.441	NaN	0.000000	0.001694	0.001738	28.0815	46.2088	0.001790	25817.4	2.976175	-179.68	105.031	1.148183	0.044407	0.044131	106.441	25817.4	0.041315	0.067470	1577.62	90809.6
429	2.000000	1.150955	7.36926e+06	-55639.1	1005.82	-29741.2	0.000000	0.000000	7.156084	119.469	NaN	0.000000	0.001678	0.001697	28.0811	49.249	0.001683	29258.6	6.206710	-4.263435	116.732	1.150589	0.046903	0.046537	119.469	29258.6	0.043840	0.074329	1607.3	98049.8
429	2.000000	1.153483	7.36926e+06	-55639.1	1005.82	-29741.2	0.000000	0.000000	7.158957	127.853	NaN	0.000000	0.001681	0.001683	28.0801	54.0108	0.001910	28278.5	9.699901	171.561	127.555	1.153260	0.049431	0.049208	127.853	28278.5	0.046040	0.080567	1586.93	91023.3
429	2.000000	1.155953	7.36926e+06	-55639.1	1005.82	-29741.2	0.000000	0.000000	7.161882	138.913	NaN	0.000000	0.001698	0.001723	28.0801	55.1941	0.001864	29617.6	7.244581	-5.590032	136.572	1.155631	0.051901	0.051579	138.913	29617.6	0.048383	0.087482	1587.91	91488
429	2.000000	1.158442	7.36926e+06	-55639.1	1005.82	-29741.2	0.000000	0.000000	7.164818	149.794	NaN	0.000000	0.001715	0.001693	28.0802	57.339	0.001791	32010.8	6.846809	173.923	147.138	1.158124	0.054389	0.054072	149.794	32010.8	0.050880	0.095152	1574.26	94811.3
429	2.000000	1.160900	7.36926e+06	-55639.1	1005.82	-29741.2	0.000000	0.000000	7.167993	167.206	NaN	0.000000	0.001771	0.001725	28.08	58.4813	0.001759	33248.8	4.307110	-3.200029	161.44	1.160594	0.056848	0.056542	167.206	33248.8	0.053076	0.102159	1636.72	95041
429	2.000000	1.163456	7.36926e+06	-55639.1	1005.82	-29741.2	0.000000	0.000000	7.170739	171.809	NaN	0.000000	0.001760	0.001771	28.0801	62.2665	0.001780	34980.7	3.268349	176.743	169.722	1.163259	0.059404	0.059207	171.809	34980.7	0.055721	0.110912	1549.06	95965
429	2.000000	1.166013	7.36926e+06	-55639.1	1005.82	-29741.2	0.000000	0.000000	7.173918	186.943	NaN	0.000000	0.001799	0.001724	28.0801	63.704	0.001662	38333.6	5.754110	-5.786740	187.504	1.165499	0.061961	0.061447	186.943	38333.6	0.058304	0.119796	1560.5	101189
429	2.000000	1.168452	7.36926e+06	-55639.1	1005.82	-29741.2	0.000000	0.000000	7.176877	199.589	NaN	0.000000	0.001751	0.001719	28.0802	64.1249	0.001647	38940.6	0.120629	178.884	198.359	1.168182	0.064400	0.064130	199.589	38940.6	0.060556	0.127808	1561.63	99516.9
429	2.000000	1.170979	7.36926e+06	-55639.1	1005.82	-29741.2	0.000000	0.000000	7.179833	210.017	NaN	0.000000	0.001696	0.001738	28.0801	68.9273	0.001763	39101.8	6.220517	-7.222052	209.1	1.170556	0.066927	0.066504	210.017	39101.8	0.062899	0.136407	1539.63	96727.6
429	2.000000	1.173434	7.36926e+06	-55639.1	1005.82	-29741.2	0.000000	0.000000	7.182777	221.897	NaN	0.000000	0.001690	0.001739	28.0802	72.5082	0.001821	39821.1	6.792793	171.815	221.123	1.173260	0.069382	0.069208	221.897	39821.1	0.065203	0.145122	1529.04	95503.8
429	2.000000	1.175906	7.36926e+06	-55639.1	1005.82	-29741.2	0.000000	0.000000	7.186000	240.153	NaN	0.000000	0.001720	0.001737	28.0802	74.0275	0.001889	39189.1	5.062591	-5.798640	234.406	1.175561	0.071854	0.071509	240.153	39189.1	0.067258	0.153114	1568.46	91502.1
429	2.000000	1.178406	7.36926e+06	-55639.1	1005.82	-29741.2	0.000000	0.000000	7.188874	249.256	NaN	0.000000	0.001701	0.001718	28.0805	75.5302	0.001686	44797.4	2.508852	175.34	247.172	1.178216	0.074353	0.074164	249.256	44797.4	0.070180	0.164823	1512.27	100813
429	2.000000	1.180915	7.36926e+06	-55639.1	1005.82	-29741.2	0.000000	0.000000	7.192279	271.026	NaN	0.000000	0.001689	0.001727	28.0801	78.9948	0.001762	44821.7	4.287016	-5.907489	268.228	1.180580	0.076863	0.076528	271.026	44821.7	0.072328	0.173685	1560.44	98260.7
429	2.000000	1.183454	7.36926e+06	-55639.1	1005.82	-29741.2	0.000000	0.000000	7.195304	282.819	NaN	0.000000	0.001707	0.001707	28.0803	82.2736	0.001731	47532	4.114812	173.589	285.693	1.183151	0.079402	0.079099	282.819	47532	0.074940	0.184761	1530.72	101031
429	2.000000	1.185995	7.36926e+06	-55639.1	1005.82	-29741.2	0.000000	0.000000	7.198581	300.722	NaN	0.000000	0.001707	0.001713	28.0816	84.864	0.001823	46560.5	6.801231	-8.223222	300.697	1.185474	0.081943	0.081422	300.722	46560.5	0.077099	0.194158	1548.85	96541.3
429	2.000000	1.188437	7.36926e+06	-55639.1	1005.82	-29741.2	0.000000	0.000000	7.201590	314.52	NaN	0.000000	0.001674	0.001701	28.0818	87.3249	0.001697	51467.3	8.747688	167.903	314.077	1.188222	0.084385	0.084170	314.52	51467.3	0.079801	0.206228	1525.11	103545
429	2.000000	1.190909	7.36926e+06	-55639.1	1005.82	-29741.2	0.000000	0.000000	7.204849	333.641	NaN	0.000000	0.001701	0.001675	28.0816	88.8019	0.001739	51060.5	0.291378	-2.852891	329.259	1.190575	0.086857	0.086523	333.641	51060.5	0.081956	0.216095	1543.95	100354
429	2.000000	1.193428	7.36926e+06	-55639.1	1005.82	-29741.2	0.000000	0.000000	7.208305	356.43	NaN	0.000000	0.001713	0.001707	28.0817	93.4297	0.001813	51546.4	5.241124	171.987	355.418	1.193084	0.089376	0.089032	356.43	51546.4	0.084190	0.226551	1573.29	98943.9
429	2.000000	1.195955	7.36926e+06	-55639.1	1005.82	-29741.2	0.000000	0.000000	7.211763	379.06	NaN	0.000000	0.001722	0.001717	28.0819	95.4411	0.001779	53641.2	7.840924	-10.6413	377.729	1.195454	0.091903	0.091402	379.06	53641.2	0.086603	0.238107	1591.97	100435
429	2.000000	1.198286	7.36926e+06	-55639.1	1005.82	-29741.2	0.000000	0.000000	7.214840	397.197	NaN	0.000000	0.001715	0.001697	28.0817	95.9065	0.001741	55084.9	3.316258	173.538	391.006	1.198077	0.094234	0.094025	397.197	55084.9	0.088826	0.248989	1595.24	100859
429	2.000000	1.200873	7.36926e+06	-55639.1	1005.82	-29741.2	0.000000	0.000000	7.218183	415.567	NaN	0.000000	0.001688	0.001720	28.0818	100.952	0.001809	55812.5	8.002800	-11.354	411.206	1.200620	0.096821	0.096568	415.567	55812.5	0.091236	0.261046	1591.93	99803.6
429	2.000000	1.203445	7.36926e+06	-55639.1	1005.82	-29741.2	0.000000	0.000000	7.221493	433.524	NaN	0.000000	0.001691	0.001740	28.0816	102.001	0.001789	57008.2	1.613079	175.242	432.744	1.203168	0.099393	0.099116	433.524	57008.2	0.093689	0.273588	1584.59	99577.6
429	2.000000	1.205919	7.36926e+06	-55639.1	1005.82	-29741.2	0.000000	0.000000	7.224724	451.9	NaN	0.000000	0.001686	0.001750	28.082	105.265	0.001806	58276.1	8.866709	-12.5255	448.653	1.205580	0.101867	0.101528	451.9	58276.1	0.096051	0.285924	1580.49	99572.2
429	2.000000	1.208477	7.36926e+06	-55639.1	1005.82	-29741.2	0.000000	0.000000	7.228233	475.019	NaN	0.000000	0.001699	0.001745	28.0816	106.942	0.001778	60139	7.849996	169.142	478.029	1.208021	0.104425	0.103969	475.019	60139	0.098501	0.298992	1588.74	100485
429	2.000000	1.209015	7.36926e+06	-55639.1	1005.82	-29741.2	0.000000	0.000000	7.228477	467.872	NaN	0.000000	0.001771	0.001767	28.0815	107.006	0.001750	61150.9	7.059735	-11.0383	471.25	1.208734	0.104963	0.104682	467.872	61150.9	0.099225	0.302903	1544.63	101514