File: remote_trans/data/nanoindenter/0828-1/data/Data_2025-08-06,11h17m57s/2025-07-22_16-23-58_1_632.txt
2025-07-22, 16:23:58, 1
Index	Phase	Displacement	Time	Pos X	Pos Y	Pos Z	Rot A	Rot B	Piezo Z	Force A	Force B	Gripper	Voltage A	Voltage B	Temperature	Amplitude force	Amplitude pos	Stiffness	Phase shift	Phase excitation	Force A raw	Displacement raw	HMax	HMax raw	Real Force	Real Stiffness	Contact Depth	Area	Hardness	Reduced Mod.
[#]	[#]	[um]	[s]	[um]	[um]	[um]	[m°]	[m°]	[um]	[uN]	[uN]	[V]	[V]	[V]	[°C]	[uN]	[um]	[N/m]	[°]	[°]	[uN]	[um]	[um]	[um]	[uN]	[N/m]	[um]	[um^2]	[MPa]	[MPa]
632	1.000000	0.002322	7.37123e+06	-45489.1	1005.82	-29772.3	0.000000	0.000000	6.002801	-0.059335	NaN	0.000000	0.001585	0.001746	28.0824	0.030296	0.000918	33.0145	-157.147	-170.243	-0.130432	0.001042	-1.077300	-1.078580	-0.059335	33.0145	-1.075952	-2.383158E+14	2.489754E-16	NaN
632	1.000000	0.010288	7.37123e+06	-45489.1	1005.82	-29772.3	0.000000	0.000000	6.010770	-0.007505	NaN	0.000000	0.001642	0.001747	28.0825	0.027636	0.001020	27.1037	143.533	-163.005	0.013128	0.008979	-1.069334	-1.070643	-0.007505	27.1037	-1.069126	-1.929526E+14	3.889726E-17	NaN
632	1.000000	0.018304	7.37123e+06	-45489.1	1005.82	-29772.3	0.000000	0.000000	6.018782	-0.084871	NaN	0.000000	0.001656	0.001731	28.0825	0.070039	0.001721	40.6995	-114.583	-164.557	-0.048001	0.016993	-1.061318	-1.062629	-0.084871	40.6995	-1.059754	-1.443841E+14	5.878117E-16	NaN
632	1.000000	0.026307	7.37123e+06	-45489.1	1005.82	-29772.3	0.000000	0.000000	6.026790	0.016191	NaN	0.000000	0.001613	0.001768	28.0827	0.055858	0.001940	28.7886	145.385	-163.008	-0.031709	0.024950	-1.053315	-1.054672	0.016191	28.7886	-1.053736	-1.198502E+14	-1.350939E-16	NaN
632	1.000000	0.034263	7.37123e+06	-45489.1	1005.82	-29772.3	0.000000	0.000000	6.034744	-0.016179	NaN	0.000000	0.001602	0.001723	28.0827	0.055287	0.001873	29.5243	-87.0357	-166.174	0.069268	0.032995	-1.045359	-1.046627	-0.016179	29.5243	-1.044948	-9.130677E+13	1.771962E-16	NaN
632	1.000000	0.042266	7.37123e+06	-45489.1	1005.82	-29772.3	0.000000	0.000000	6.042747	-0.024091	NaN	0.000000	0.001651	0.001691	28.0825	0.086589	0.002141	40.4424	154.105	-167.162	-0.010390	0.040953	-1.037356	-1.038669	-0.024091	40.4424	-1.036909	-7.118719E+13	3.384208E-16	NaN
632	1.000000	0.050263	7.37123e+06	-45489.1	1005.82	-29772.3	0.000000	0.000000	6.050743	-0.057094	NaN	0.000000	0.001596	0.001733	28.0827	0.053450	0.002015	26.532	-41.3051	-162.265	-0.001722	0.048947	-1.029359	-1.030675	-0.057094	26.532	-1.027745	-5.359760E+13	1.065234E-15	NaN
632	1.000000	0.058291	7.37123e+06	-45489.1	1005.82	-29772.3	0.000000	0.000000	6.058771	-0.051180	NaN	0.000000	0.001610	0.001701	28.0824	0.017806	0.001910	9.321388	16.3337	-169.398	-0.044133	0.056966	-1.021331	-1.022656	-0.051180	9.321388	-1.017213	-3.867658E+13	1.323271E-15	NaN
632	1.000000	0.066301	7.37123e+06	-45489.1	1005.82	-29772.3	0.000000	0.000000	6.066782	-0.022650	NaN	0.000000	0.001568	0.001712	28.0826	0.055240	0.002025	27.2741	-70.686	-162.964	0.000212	0.064996	-1.013321	-1.014626	-0.022650	27.2741	-1.012698	-3.362726E+13	6.735753E-16	NaN
632	1.000000	0.074280	7.37123e+06	-45489.1	1005.82	-29772.3	0.000000	0.000000	6.074759	-0.068110	NaN	0.000000	0.001586	0.001707	28.0825	0.157499	0.002029	77.6418	174.851	-163.808	-0.093267	0.072974	-1.005342	-1.006648	-0.068110	77.6418	-1.004684	-2.623198E+13	2.596430E-15	NaN
632	1.000000	0.082252	7.37123e+06	-45489.1	1005.82	-29772.3	0.000000	0.000000	6.082733	-0.022324	NaN	0.000000	0.001602	0.001704	28.0824	0.032885	0.001959	16.7906	76.4977	-167.086	0.009400	0.081021	-0.997370	-0.998601	-0.022324	16.7906	-0.996373	-2.027375E+13	1.101111E-15	NaN
632	1.000000	0.090289	7.37123e+06	-45489.1	1005.82	-29772.3	0.000000	0.000000	6.090770	-0.034595	NaN	0.000000	0.001582	0.001713	28.0823	0.061053	0.002008	30.3985	147.453	-165.716	-0.002141	0.088971	-0.989333	-0.990651	-0.034595	30.3985	-0.988479	-1.587199E+13	2.179626E-15	NaN
632	1.000000	0.098295	7.37123e+06	-45489.1	1005.82	-29772.3	0.000000	0.000000	6.098776	-0.033056	NaN	0.000000	0.001581	0.001708	28.0838	0.043704	0.002169	20.1456	148.801	-164.536	0.063537	0.097020	-0.981327	-0.982602	-0.033056	20.1456	-0.980096	-1.223780E+13	2.701170E-15	NaN
632	1.000000	0.106274	7.37123e+06	-45489.1	1005.82	-29772.3	0.000000	0.000000	6.106755	-0.022905	NaN	0.000000	0.001576	0.001750	28.0837	0.092851	0.001965	47.2526	153.781	-164.631	-0.025287	0.104977	-0.973348	-0.974645	-0.022905	47.2526	-0.972985	-9.814866E+12	2.333748E-15	NaN
632	1.000000	0.114302	7.37123e+06	-45489.1	1005.82	-29772.3	0.000000	0.000000	6.114783	-0.010520	NaN	0.000000	0.001614	0.001696	28.0834	0.021105	0.002001	10.5489	148.517	-166.244	0.049284	0.112999	-0.965320	-0.966623	-0.010520	10.5489	-0.964573	-7.559788E+12	1.391507E-15	NaN
632	1.000000	0.122261	7.37123e+06	-45489.1	1005.82	-29772.3	0.000000	0.000000	6.122743	0.001131	NaN	0.000000	0.001623	0.001728	28.0836	0.034492	0.002099	16.4322	131.858	-168.356	-0.046574	0.120996	-0.957361	-0.958626	0.001131	16.4322	-0.957413	-6.053267E+12	-1.868093E-16	NaN
632	1.000000	0.130280	7.37123e+06	-45489.1	1005.82	-29772.3	0.000000	0.000000	6.130760	-0.047939	NaN	0.000000	0.001608	0.001773	28.0835	0.030549	0.002007	15.2251	117.197	-166.971	0.089189	0.129019	-0.949342	-0.950603	-0.047939	15.2251	-0.946980	-4.378260E+12	1.094929E-14	NaN
632	1.000000	0.138298	7.37123e+06	-45489.1	1005.82	-29772.3	0.000000	0.000000	6.138778	-0.052522	NaN	0.000000	0.001636	0.001725	28.0837	0.030397	0.002001	15.1943	-15.1208	-163.955	-0.112051	0.136995	-0.941324	-0.942627	-0.052522	15.1943	-0.938732	-3.388628E+12	1.549945E-14	NaN
632	1.000000	0.146319	7.37123e+06	-45489.1	1005.82	-29772.3	0.000000	0.000000	6.146799	-0.047966	NaN	0.000000	0.001629	0.001733	28.084	0.094106	0.002160	43.5715	-41.7792	-165.347	-0.002090	0.144999	-0.933303	-0.934623	-0.047966	43.5715	-0.932477	-2.790179E+12	1.719089E-14	NaN
632	1.000000	0.154295	7.37123e+06	-45489.1	1005.82	-29772.3	0.000000	0.000000	6.154777	-0.017913	NaN	0.000000	0.001629	0.001697	28.0835	0.072007	0.002011	35.8123	161.314	-166.138	-0.102872	0.153034	-0.925327	-0.926588	-0.017913	35.8123	-0.924951	-2.208271E+12	8.111920E-15	NaN
632	1.000000	0.162310	7.37123e+06	-45489.1	1005.82	-29772.3	0.000000	0.000000	6.162790	-0.052202	NaN	0.000000	0.001610	0.001703	28.0839	0.078304	0.001971	39.7315	29.1565	-166.73	-0.034770	0.160986	-0.917312	-0.918636	-0.052202	39.7315	-0.916327	-1.688918E+12	3.090828E-14	NaN
632	1.000000	0.170310	7.37123e+06	-45489.1	1005.82	-29772.3	0.000000	0.000000	6.170789	-0.068410	NaN	0.000000	0.001635	0.001685	28.0838	0.150955	0.002090	72.2209	-44.6426	-165.662	-0.079674	0.168977	-0.909312	-0.910645	-0.068410	72.2209	-0.908602	-1.328237E+12	5.150438E-14	NaN
632	1.000000	0.178303	7.37123e+06	-45489.1	1005.82	-29772.3	0.000000	0.000000	6.178783	-0.045240	NaN	0.000000	0.001629	0.001709	28.0839	0.133358	0.001897	70.3176	111.71	-163.305	-0.098418	0.176999	-0.901319	-0.902623	-0.045240	70.3176	-0.900836	-1.043203E+12	4.336606E-14	NaN
632	1.000000	0.186321	7.37123e+06	-45489.1	1005.82	-29772.3	0.000000	0.000000	6.186802	-0.022364	NaN	0.000000	0.001649	0.001714	28.0839	0.095830	0.001983	48.3277	-33.642	-164.05	0.026263	0.185083	-0.893301	-0.894539	-0.022364	48.3277	-0.892954	-8.162977E+11	2.739738E-14	NaN
632	1.000000	0.194346	7.37123e+06	-45489.1	1005.82	-29772.3	0.000000	0.000000	6.194825	-0.082180	NaN	0.000000	0.001620	0.001690	28.0838	0.065922	0.002070	31.854	124.648	-167.417	-0.034695	0.193035	-0.885276	-0.886587	-0.082180	31.854	-0.883341	-6.051868E+11	1.357930E-13	NaN
632	1.000000	0.202324	7.37123e+06	-45489.1	1005.82	-29772.3	0.000000	0.000000	6.202806	-0.023140	NaN	0.000000	0.001607	0.001707	28.0841	0.041251	0.002140	19.2794	34.9399	-168.108	-0.048383	0.201061	-0.877298	-0.878561	-0.023140	19.2794	-0.876397	-4.875104E+11	4.746554E-14	NaN
632	1.000000	0.210302	7.37123e+06	-45489.1	1005.82	-29772.3	0.000000	0.000000	6.210784	0.005300	NaN	0.000000	0.001602	0.001700	28.0838	0.075347	0.001916	39.3252	167.495	-163.154	0.003384	0.209000	-0.869320	-0.870622	0.005300	39.3252	-0.869421	-3.922988E+11	-1.351056E-14	NaN
632	1.000000	0.218382	7.37123e+06	-45489.1	1005.82	-29772.3	0.000000	0.000000	6.218862	-0.046479	NaN	0.000000	0.001657	0.001699	28.0838	0.040529	0.002036	19.9025	-137.294	-164.123	0.051847	0.217005	-0.861240	-0.862617	-0.046479	19.9025	-0.859488	-2.878681E+11	1.614577E-13	NaN
632	1.000000	0.226334	7.37123e+06	-45489.1	1005.82	-29772.3	0.000000	0.000000	6.226810	-0.137833	NaN	0.000000	0.001631	0.001700	28.0836	0.062566	0.001967	31.802	152.949	-164.303	-0.117164	0.225030	-0.853288	-0.854592	-0.137833	31.802	-0.850037	-2.144100E+11	6.428492E-13	NaN
632	1.000000	0.234325	7.37123e+06	-45489.1	1005.82	-29772.3	0.000000	0.000000	6.234806	-0.016702	NaN	0.000000	0.001634	0.001740	28.0824	0.089126	0.001999	44.5859	-90.4277	-163.32	-0.083021	0.233024	-0.845297	-0.846598	-0.016702	44.5859	-0.845016	-1.833344E+11	9.110063E-14	NaN
632	1.000000	0.242356	7.37123e+06	-45489.1	1005.82	-29772.3	0.000000	0.000000	6.242835	-0.074363	NaN	0.000000	0.001605	0.001743	28.0826	0.089275	0.001986	44.955	51.6215	-160.044	-0.022075	0.240978	-0.837266	-0.838644	-0.074363	44.955	-0.836025	-1.384955E+11	5.369354E-13	NaN
632	1.000000	0.250380	7.37123e+06	-45489.1	1005.82	-29772.3	0.000000	0.000000	6.250859	-0.082657	NaN	0.000000	0.001616	0.001740	28.0822	0.101277	0.001969	51.4379	-144.728	-165.402	-0.156334	0.249031	-0.829242	-0.830591	-0.082657	51.4379	-0.828037	-1.079381E+11	7.657860E-13	NaN
632	1.000000	0.258313	7.37123e+06	-45489.1	1005.82	-29772.3	0.000000	0.000000	6.258793	-0.053119	NaN	0.000000	0.001606	0.001728	28.0825	0.062846	0.001913	32.8584	169.951	-163.491	-0.047633	0.257063	-0.821309	-0.822559	-0.053119	32.8584	-0.820096	-8.423968E+10	6.305734E-13	NaN
632	1.000000	0.266383	7.37123e+06	-45489.1	1005.82	-29772.3	0.000000	0.000000	6.266862	-0.069881	NaN	0.000000	0.001637	0.001759	28.0826	0.034555	0.002063	16.7511	-91.3931	-162.33	0.013508	0.265072	-0.813239	-0.814550	-0.069881	16.7511	-0.810110	-6.166894E+10	1.133167E-12	NaN
632	1.000000	0.274356	7.37123e+06	-45489.1	1005.82	-29772.3	0.000000	0.000000	6.274832	-0.139073	NaN	0.000000	0.001607	0.001756	28.0824	0.036065	0.001915	18.829	-109.689	-165.309	-0.111623	0.273012	-0.805266	-0.806610	-0.139073	18.829	-0.799727	-4.458118E+10	3.119543E-12	NaN
632	1.000000	0.282379	7.37123e+06	-45489.1	1005.82	-29772.3	0.000000	0.000000	6.282857	-0.088131	NaN	0.000000	0.001634	0.001731	28.0823	0.132893	0.002120	62.6976	-65.2725	-166.623	-0.000228	0.281000	-0.797243	-0.798622	-0.088131	62.6976	-0.796189	-3.991357E+10	2.208042E-12	NaN
632	1.000000	0.290344	7.37123e+06	-45489.1	1005.82	-29772.3	0.000000	0.000000	6.290825	-0.023907	NaN	0.000000	0.001618	0.001713	28.0821	0.103665	0.002053	50.4888	29.4425	-166.68	-0.046849	0.289096	-0.789278	-0.790526	-0.023907	50.4888	-0.788923	-3.180162E+10	7.517403E-13	NaN
632	1.000000	0.298388	7.37123e+06	-45489.1	1005.82	-29772.3	0.000000	0.000000	6.298870	-0.016643	NaN	0.000000	0.001622	0.001755	28.0828	0.145172	0.002069	70.1624	-111.717	-166.04	-0.032606	0.297074	-0.781234	-0.782548	-0.016643	70.1624	-0.781056	-2.486450E+10	6.693400E-13	NaN
632	1.000000	0.306399	7.37123e+06	-45489.1	1005.82	-29772.3	0.000000	0.000000	6.306880	-0.022269	NaN	0.000000	0.001609	0.001749	28.0822	0.020936	0.001975	10.6002	-23.8052	-164.706	-0.086664	0.305108	-0.773223	-0.774514	-0.022269	10.6002	-0.771647	-1.852270E+10	1.202241E-12	NaN
632	1.000000	0.314357	7.37123e+06	-45489.1	1005.82	-29772.3	0.000000	0.000000	6.314837	-0.067937	NaN	0.000000	0.001654	0.001735	28.0822	0.013662	0.001953	6.995464	-140.145	-164.115	0.007836	0.313086	-0.765265	-0.766536	-0.067937	6.995464	-0.757981	-1.207347E+10	5.626971E-12	NaN
632	1.000000	0.322402	7.37123e+06	-45489.1	1005.82	-29772.3	0.000000	0.000000	6.322882	-0.053185	NaN	0.000000	0.001636	0.001716	28.0826	0.062308	0.002021	30.8297	-36.8566	-163.329	-0.018920	0.321128	-0.757220	-0.758494	-0.053185	30.8297	-0.755926	-1.132063E+10	4.698054E-12	NaN
632	1.000000	0.330409	7.37123e+06	-45489.1	1005.82	-29772.3	0.000000	0.000000	6.330890	-0.026395	NaN	0.000000	0.001645	0.001770	28.0824	0.047047	0.001973	23.8439	-56.006	-167.677	-0.066190	0.329132	-0.749213	-0.750490	-0.026395	23.8439	-0.748382	-8.937166E+9	2.953435E-12	NaN
632	1.000000	0.338386	7.37123e+06	-45489.1	1005.82	-29772.3	0.000000	0.000000	6.338864	-0.082173	NaN	0.000000	0.001621	0.001748	28.0825	0.058988	0.002028	29.0927	143.51	-167.055	-0.106079	0.337099	-0.741236	-0.742523	-0.082173	29.0927	-0.739118	-6.684111E+9	1.229379E-11	NaN
632	1.000000	0.346396	7.37123e+06	-45489.1	1005.82	-29772.3	0.000000	0.000000	6.346875	-0.049648	NaN	0.000000	0.001631	0.001747	28.0822	0.121075	0.001900	63.7218	116.133	-161.909	-0.065568	0.345060	-0.733227	-0.734562	-0.049648	63.7218	-0.732642	-5.455256E+9	9.101021E-12	NaN
632	1.000000	0.354395	7.37123e+06	-45489.1	1005.82	-29772.3	0.000000	0.000000	6.354875	-0.052141	NaN	0.000000	0.001616	0.001746	28.0821	0.071843	0.002005	35.8326	-47.7176	-166.155	-0.114746	0.353058	-0.725227	-0.726564	-0.052141	35.8326	-0.724136	-4.177008E+9	1.248289E-11	NaN
632	1.000000	0.362389	7.37123e+06	-45489.1	1005.82	-29772.3	0.000000	0.000000	6.362870	-0.025144	NaN	0.000000	0.001658	0.001763	28.0823	0.043116	0.001978	21.8015	-59.4267	-164.076	0.012035	0.361098	-0.717233	-0.718524	-0.025144	21.8015	-0.716368	-3.272905E+9	7.682608E-12	NaN
632	1.000000	0.370433	7.37123e+06	-45489.1	1005.82	-29772.3	0.000000	0.000000	6.370913	-0.044781	NaN	0.000000	0.001596	0.001741	28.0836	0.059007	0.002242	26.3192	-97.4062	-163.5	-0.018503	0.369100	-0.709189	-0.710522	-0.044781	26.3192	-0.707913	-2.509387E+9	1.784541E-11	NaN
632	1.000000	0.378404	7.37123e+06	-45489.1	1005.82	-29772.3	0.000000	0.000000	6.378884	-0.057119	NaN	0.000000	0.001636	0.001735	28.0837	0.065078	0.002031	32.041	-23.5427	-167.243	-0.014976	0.377090	-0.701218	-0.702532	-0.057119	32.041	-0.699881	-1.949401E+9	2.930069E-11	NaN
632	1.000000	0.386408	7.37123e+06	-45489.1	1005.82	-29772.3	0.000000	0.000000	6.386895	0.125174	NaN	0.000000	0.001623	0.001743	28.0835	0.069564	0.001922	36.1916	-93.0283	-168.573	0.075778	0.385095	-0.693214	-0.694527	0.125174	36.1916	-0.695808	-1.715043E+9	-7.298608E-11	NaN
632	1.000000	0.394436	7.37123e+06	-45489.1	1005.82	-29772.3	0.000000	0.000000	6.394920	0.050675	NaN	0.000000	0.001619	0.001715	28.0838	0.018222	0.001987	9.172867	-36.5283	-163.333	-0.054502	0.393129	-0.685186	-0.686493	0.050675	9.172867	-0.689330	-1.398806E+9	-3.622741E-11	NaN
632	1.000000	0.402419	7.37123e+06	-45489.1	1005.82	-29772.3	0.000000	0.000000	6.402901	0.020570	NaN	0.000000	0.001584	0.001736	28.0836	0.058470	0.002033	28.766	-12.7678	-167.688	-0.038152	0.401098	-0.677203	-0.678524	0.020570	28.766	-0.677740	-9.711588E+8	-2.118109E-11	NaN
632	1.000000	0.410413	7.37123e+06	-45489.1	1005.82	-29772.3	0.000000	0.000000	6.410894	-0.032528	NaN	0.000000	0.001627	0.001791	28.0834	0.041084	0.001891	21.7289	151.835	-164.041	-0.091637	0.409149	-0.669209	-0.670473	-0.032528	21.7289	-0.668086	-7.164556E+8	4.540103E-11	NaN
632	1.000000	0.418429	7.37123e+06	-45489.1	1005.82	-29772.3	0.000000	0.000000	6.418910	-0.019827	NaN	0.000000	0.001583	0.001742	28.0837	0.078518	0.002007	39.1317	65.635	-165.143	-0.048754	0.417132	-0.661193	-0.662490	-0.019827	39.1317	-0.660813	-5.696426E+8	3.480658E-11	NaN
632	1.000000	0.426451	7.37123e+06	-45489.1	1005.82	-29772.3	0.000000	0.000000	6.426930	-0.058001	NaN	0.000000	0.001631	0.001751	28.0837	0.038040	0.002100	18.1154	-65.5667	-168.673	0.026543	0.425143	-0.653171	-0.654479	-0.058001	18.1154	-0.650770	-4.149457E+8	1.397797E-10	NaN
632	1.000000	0.434433	7.37123e+06	-45489.1	1005.82	-29772.3	0.000000	0.000000	6.434913	-0.044496	NaN	0.000000	0.001615	0.001793	28.0846	0.057179	0.001991	28.7198	-4.654128	-161.248	-0.070301	0.433094	-0.645189	-0.646528	-0.044496	28.7198	-0.644027	-3.353749E+8	1.326747E-10	NaN
632	1.000000	0.442428	7.37124e+06	-45489.1	1005.82	-29772.3	0.000000	0.000000	6.442910	-0.003667	NaN	0.000000	0.001633	0.001782	28.0838	0.037184	0.002000	18.5912	152.565	-162.316	-0.089341	0.441115	-0.637194	-0.638508	-0.003667	18.5912	-0.637046	-2.690016E+8	1.363345E-11	NaN
632	1.000000	0.450421	7.37124e+06	-45489.1	1005.82	-29772.3	0.000000	0.000000	6.450905	0.029658	NaN	0.000000	0.001634	0.001779	28.0837	0.089694	0.002020	44.3964	14.5971	-163.8	-0.025593	0.449157	-0.629201	-0.630465	0.029658	44.3964	-0.629702	-2.132682E+8	-1.390649E-10	NaN
632	1.000000	0.458432	7.37124e+06	-45489.1	1005.82	-29772.3	0.000000	0.000000	6.458913	-0.023781	NaN	0.000000	0.001628	0.001784	28.0836	0.105425	0.001981	53.2268	-130.005	-165.947	-0.044770	0.457116	-0.621190	-0.622506	-0.023781	53.2268	-0.620855	-1.612058E+8	1.475193E-10	NaN
632	1.000000	0.466453	7.37124e+06	-45489.1	1005.82	-29772.3	0.000000	0.000000	6.466933	-0.057023	NaN	0.000000	0.001599	0.001795	28.0838	0.056991	0.001949	29.2417	-175.356	-166.968	-0.099587	0.465096	-0.613169	-0.614526	-0.057023	29.2417	-0.611706	-1.206660E+8	4.725688E-10	NaN
632	1.000000	0.474437	7.37124e+06	-45489.1	1005.82	-29772.3	0.000000	0.000000	6.474920	0.017935	NaN	0.000000	0.001624	0.001779	28.0839	0.032476	0.002064	15.7333	175.444	-165.219	-0.064115	0.473131	-0.605185	-0.606491	0.017935	15.7333	-0.606040	-1.008363E+8	-1.778639E-10	NaN
632	1.000000	0.482461	7.37124e+06	-45489.1	1005.82	-29772.3	0.000000	0.000000	6.482941	-0.043205	NaN	0.000000	0.001635	0.001721	28.0837	0.047129	0.002028	23.2395	-63.5342	-166.239	-0.074218	0.481132	-0.597161	-0.598490	-0.043205	23.2395	-0.595766	-7.280191E+7	5.934619E-10	NaN
632	1.000000	0.490456	7.37124e+06	-45489.1	1005.82	-29772.3	0.000000	0.000000	6.490935	-0.072771	NaN	0.000000	0.001617	0.001726	28.0839	0.087251	0.001991	43.8243	139.863	-165.619	-0.131977	0.489156	-0.589166	-0.590466	-0.072771	43.8243	-0.587921	-5.675371E+7	1.282218E-9	NaN
632	1.000000	0.498450	7.37124e+06	-45489.1	1005.82	-29772.3	0.000000	0.000000	6.498932	-0.009383	NaN	0.000000	0.001623	0.001733	28.0838	0.058094	0.001993	29.1521	6.339468	-164.792	-0.113989	0.497146	-0.581172	-0.582476	-0.009383	29.1521	-0.580930	-4.545336E+7	2.064321E-10	NaN
632	1.000000	0.506472	7.37124e+06	-45489.1	1005.82	-29772.3	0.000000	0.000000	6.506950	-0.093826	NaN	0.000000	0.001620	0.001726	28.0823	0.020034	0.002052	9.762896	176.213	-163.356	-0.110603	0.505176	-0.573150	-0.574446	-0.093826	9.762896	-0.565943	-2.821990E+7	3.324801E-9	NaN
632	1.000000	0.514480	7.37124e+06	-45489.1	1005.82	-29772.3	0.000000	0.000000	6.514962	-0.000208	NaN	0.000000	0.001613	0.001749	28.0826	0.057320	0.001924	29.79	-64.2942	-162.562	-0.081782	0.513133	-0.565142	-0.566489	-0.000208	29.79	-0.565137	-2.750533E+7	7.558786E-12	NaN
632	1.000000	0.522438	7.37124e+06	-45489.1	1005.82	-29772.3	0.000000	0.000000	6.522918	-0.042354	NaN	0.000000	0.001638	0.001764	28.0825	0.173600	0.001988	87.3211	100.863	-164.98	-0.080993	0.521153	-0.557184	-0.558469	-0.042354	87.3211	-0.556820	-2.110488E+7	2.006826E-9	NaN
632	1.000000	0.530466	7.37124e+06	-45489.1	1005.82	-29772.3	0.000000	0.000000	6.530947	-0.027362	NaN	0.000000	0.001660	0.001750	28.083	0.029590	0.001966	15.0538	-85.6667	-165.875	-0.029895	0.529194	-0.549156	-0.550428	-0.027362	15.0538	-0.547793	-1.582622E+7	1.728924E-9	NaN
632	1.000000	0.538481	7.37124e+06	-45489.1	1005.82	-29772.3	0.000000	0.000000	6.538962	-0.028503	NaN	0.000000	0.001608	0.001752	28.0825	0.025996	0.001989	13.0718	138.782	-164.714	-0.034801	0.537122	-0.541141	-0.542500	-0.028503	13.0718	-0.539505	-1.214782E+7	2.346355E-9	NaN
632	1.000000	0.546499	7.37124e+06	-45489.1	1005.82	-29772.3	0.000000	0.000000	6.546978	-0.069980	NaN	0.000000	0.001590	0.001773	28.0825	0.085184	0.002038	41.8046	107.801	-164.957	-0.016158	0.545159	-0.533123	-0.534463	-0.069980	41.8046	-0.531867	-9.51709e+06	7.353135E-9	NaN
632	1.000000	0.554479	7.37124e+06	-45489.1	1005.82	-29772.3	0.000000	0.000000	6.554961	0.000126	NaN	0.000000	0.001614	0.001762	28.0826	0.037427	0.002010	18.6241	-126.82	-164.478	0.024037	0.553106	-0.525143	-0.526516	0.000126	18.6241	-0.525148	-7.6765e+06	-1.638595E-11	NaN
632	1.000000	0.562496	7.37124e+06	-45489.1	1005.82	-29772.3	0.000000	0.000000	6.562976	-0.052341	NaN	0.000000	0.001627	0.001766	28.0825	0.027840	0.002018	13.7958	-57.0795	-166.845	0.006556	0.561194	-0.517126	-0.518428	-0.052341	13.7958	-0.514280	-5.4202e+06	9.656637E-9	NaN
632	1.000000	0.570507	7.37124e+06	-45489.1	1005.82	-29772.3	0.000000	0.000000	6.570987	-0.043298	NaN	0.000000	0.001606	0.001783	28.0827	0.041335	0.001832	22.5607	-46.8612	-162.08	0.034977	0.569141	-0.509115	-0.510481	-0.043298	22.5607	-0.507676	-4.38567e+06	9.872517E-9	NaN
632	1.000000	0.578467	7.37124e+06	-45489.1	1005.82	-29772.3	0.000000	0.000000	6.578948	-0.024500	NaN	0.000000	0.001580	0.001793	28.0824	0.030628	0.002048	14.9585	68.0953	-163.081	-0.016518	0.577186	-0.501155	-0.502436	-0.024500	14.9585	-0.499927	-3.41977e+06	7.164199E-9	NaN
632	1.000000	0.586501	7.37124e+06	-45489.1	1005.82	-29772.3	0.000000	0.000000	6.586982	-0.019846	NaN	0.000000	0.001586	0.001762	28.083	0.015999	0.002096	7.632221	149.599	-165.527	0.014558	0.585188	-0.493121	-0.494434	-0.019846	7.632221	-0.491171	-2.58078e+06	7.689724E-9	NaN
632	1.000000	0.594487	7.37124e+06	-45489.1	1005.82	-29772.3	0.000000	0.000000	6.594965	-0.114893	NaN	0.000000	0.001613	0.001744	28.0827	0.078616	0.001979	39.7195	-125.549	-165.183	-0.111343	0.593114	-0.485135	-0.486508	-0.114893	39.7195	-0.482965	-1.98165e+06	5.797847E-8	NaN
632	1.000000	0.602523	7.37124e+06	-45489.1	1005.82	-29772.3	0.000000	0.000000	6.603002	-0.057701	NaN	0.000000	0.001598	0.001777	28.0827	0.089459	0.002082	42.9582	-77.8213	-160.902	-0.136031	0.601204	-0.477099	-0.478418	-0.057701	42.9582	-0.476092	-1.58782e+06	3.633957E-8	NaN
632	1.000000	0.610513	7.37124e+06	-45489.1	1005.82	-29772.3	0.000000	0.000000	6.610993	-0.056392	NaN	0.000000	0.001637	0.001744	28.0827	0.079372	0.001973	40.228	-164.465	-167.099	-0.080413	0.609263	-0.469109	-0.470359	-0.056392	40.228	-0.468058	-1.22506e+06	4.603209E-8	NaN
632	1.000000	0.618509	7.37124e+06	-45489.1	1005.82	-29772.3	0.000000	0.000000	6.618989	-0.056659	NaN	0.000000	0.001609	0.001735	28.0824	0.022691	0.001902	11.9303	-132.556	-165.761	-0.161842	0.617236	-0.461113	-0.462386	-0.056659	11.9303	-0.457551	-872152	6.496517E-8	NaN
632	1.000000	0.626532	7.37124e+06	-45489.1	1005.82	-29772.3	0.000000	0.000000	6.627009	-0.129651	NaN	0.000000	0.001617	0.001740	28.0828	0.094095	0.002031	46.3256	112.847	-161.511	-0.143853	0.625236	-0.453090	-0.454386	-0.129651	46.3256	-0.450991	-705177	1.838564E-7	NaN
632	1.000000	0.634511	7.37124e+06	-45489.1	1005.82	-29772.3	0.000000	0.000000	6.634992	-0.043744	NaN	0.000000	0.001615	0.001735	28.0826	0.049697	0.001991	24.9657	-137.674	-162.537	-0.063813	0.633210	-0.445111	-0.446412	-0.043744	24.9657	-0.443796	-558371	7.834214E-8	NaN
632	1.000000	0.642526	7.37124e+06	-45489.1	1005.82	-29772.3	0.000000	0.000000	6.643007	-0.014300	NaN	0.000000	0.001589	0.001770	28.0837	0.004632	0.002012	2.302527	41.9115	-161.772	-0.039909	0.641275	-0.437096	-0.438347	-0.014300	2.302527	-0.432438	-385964	3.704957E-8	NaN
632	1.000000	0.650540	7.37124e+06	-45489.1	1005.82	-29772.3	0.000000	0.000000	6.651021	-0.022052	NaN	0.000000	0.001583	0.001782	28.0838	0.107996	0.001846	58.4872	148.295	-162.581	-0.012144	0.649256	-0.429082	-0.430366	-0.022052	58.4872	-0.428799	-342826	6.432408E-8	NaN
632	1.000000	0.658510	7.37124e+06	-45489.1	1005.82	-29772.3	0.000000	0.000000	6.658990	-0.035854	NaN	0.000000	0.001629	0.001771	28.0837	0.009708	0.001894	5.125983	-7.914374	-166.138	-0.035141	0.657170	-0.421112	-0.422452	-0.035854	5.125983	-0.415866	-224778	1.595082E-7	NaN
632	1.000000	0.666537	7.37124e+06	-45489.1	1005.82	-29772.3	0.000000	0.000000	6.667018	-0.041746	NaN	0.000000	0.001592	0.001772	28.0839	0.086248	0.002019	42.7254	145.872	-162.114	0.022138	0.665161	-0.413085	-0.414461	-0.041746	42.7254	-0.412352	-200371	2.083430E-7	NaN
632	1.000000	0.674551	7.37124e+06	-45489.1	1005.82	-29772.3	0.000000	0.000000	6.675032	-0.020929	NaN	0.000000	0.001621	0.001768	28.0838	0.092948	0.001963	47.3401	124.116	-160.265	-0.030576	0.673200	-0.405071	-0.406422	-0.020929	47.3401	-0.404740	-156149	1.340315E-7	NaN
632	1.000000	0.682511	7.37124e+06	-45489.1	1005.82	-29772.3	0.000000	0.000000	6.682989	-0.078370	NaN	0.000000	0.001597	0.001767	28.084	0.054816	0.001894	28.9484	114.675	-167.263	-0.092132	0.681247	-0.397111	-0.398375	-0.078370	28.9484	-0.395081	-113708	6.892195E-7	NaN
632	1.000000	0.690534	7.37124e+06	-45489.1	1005.82	-29772.3	0.000000	0.000000	6.691013	-0.075026	NaN	0.000000	0.001631	0.001798	28.0837	0.021286	0.002078	10.2455	168.183	-163.02	-0.125396	0.689238	-0.389088	-0.390384	-0.075026	10.2455	-0.383596	-77885.9	9.632829E-7	NaN
632	1.000000	0.698544	7.37124e+06	-45489.1	1005.82	-29772.3	0.000000	0.000000	6.699023	-0.062821	NaN	0.000000	0.001659	0.001793	28.0843	0.130538	0.001995	65.4361	-101.576	-163.843	-0.067876	0.697232	-0.381078	-0.382390	-0.062821	65.4361	-0.380358	-69989.6	8.975778E-7	NaN
632	1.000000	0.706549	7.37124e+06	-45489.1	1005.82	-29772.3	0.000000	0.000000	6.707029	-0.036129	NaN	0.000000	0.001633	0.001749	28.0837	0.063920	0.001993	32.0664	66.2977	-169.653	-0.052855	0.705223	-0.373073	-0.374399	-0.036129	32.0664	-0.372228	-53482.1	6.755291E-7	NaN
632	1.000000	0.714531	7.37124e+06	-45489.1	1005.82	-29772.3	0.000000	0.000000	6.715011	-0.056750	NaN	0.000000	0.001618	0.001785	28.0837	0.004130	0.002009	2.055253	-86.3228	-165.822	-0.065441	0.713251	-0.365091	-0.366371	-0.056750	2.055253	-0.344382	-21152.7	2.682859E-6	NaN
632	1.000000	0.722530	7.37124e+06	-45489.1	1005.82	-29772.3	0.000000	0.000000	6.723010	-0.051374	NaN	0.000000	0.001614	0.001764	28.0842	0.031802	0.001983	16.0392	74.8875	-167.95	-0.019398	0.721247	-0.357092	-0.358375	-0.051374	16.0392	-0.354690	-29854.3	1.720835E-6	NaN
632	1.000000	0.730560	7.37124e+06	-45489.1	1005.82	-29772.3	0.000000	0.000000	6.731040	-0.044533	NaN	0.000000	0.001633	0.001780	28.0838	0.027001	0.001898	14.225	84.1185	-162.21	-0.062095	0.729262	-0.349063	-0.350360	-0.044533	14.225	-0.346715	-22871	1.947160E-6	NaN
632	1.000000	0.738584	7.37124e+06	-45489.1	1005.82	-29772.3	0.000000	0.000000	6.739063	-0.074719	NaN	0.000000	0.001630	0.001780	28.084	0.059543	0.001981	30.0513	-90.4014	-164.193	-0.011776	0.737267	-0.341038	-0.342355	-0.074719	30.0513	-0.339173	-17762.3	4.206592E-6	NaN
632	1.000000	0.746568	7.37124e+06	-45489.1	1005.82	-29772.3	0.000000	0.000000	6.747050	0.001465	NaN	0.000000	0.001658	0.001781	28.0837	0.027222	0.001912	14.2405	77.0043	-166.327	-0.028384	0.745271	-0.333055	-0.334351	0.001465	14.2405	-0.333132	-14497	-1.010225E-7	NaN
632	1.000000	0.754584	7.37124e+06	-45489.1	1005.82	-29772.3	0.000000	0.000000	6.755065	-0.007272	NaN	0.000000	0.001603	0.001783	28.0837	0.050826	0.001993	25.497	-70.7431	-164.377	-0.021148	0.753251	-0.325038	-0.326371	-0.007272	25.497	-0.324824	-10953.6	6.639114E-7	NaN
632	1.000000	0.762618	7.37124e+06	-45489.1	1005.82	-29772.3	0.000000	0.000000	6.763097	-0.087153	NaN	0.000000	0.001632	0.001777	28.0839	0.034472	0.002042	16.8854	-105.586	-166.218	-0.079553	0.761207	-0.317004	-0.318415	-0.087153	16.8854	-0.313132	-7368.4	1.182789E-5	NaN
632	1.000000	0.770576	7.37124e+06	-45489.1	1005.82	-29772.3	0.000000	0.000000	6.771057	-0.016978	NaN	0.000000	0.001593	0.001783	28.0836	0.027413	0.001929	14.2079	-49.5573	-163.167	-0.012752	0.769243	-0.309046	-0.310379	-0.016978	14.2079	-0.308150	-6218.13	2.730461E-6	NaN
632	1.000000	0.778560	7.37124e+06	-45489.1	1005.82	-29772.3	0.000000	0.000000	6.779040	-0.045691	NaN	0.000000	0.001636	0.001808	28.0829	0.018166	0.002068	8.782722	135.04	-165.181	-0.030543	0.777244	-0.301062	-0.302378	-0.045691	8.782722	-0.297161	-4269.05	1.070293E-5	NaN
632	1.000000	0.786575	7.37124e+06	-45489.1	1005.82	-29772.3	0.000000	0.000000	6.787054	-0.071437	NaN	0.000000	0.001621	0.001759	28.0823	0.060769	0.002011	30.2189	63.6404	-163.645	-0.133209	0.785284	-0.293047	-0.294338	-0.071437	30.2189	-0.291274	-3486.43	2.048987E-5	NaN
632	1.000000	0.794576	7.37124e+06	-45489.1	1005.82	-29772.3	0.000000	0.000000	6.795055	-0.065946	NaN	0.000000	0.001624	0.001757	28.0823	0.027357	0.002018	13.5599	-67.6279	-165.12	0.053377	0.793306	-0.285046	-0.286316	-0.065946	13.5599	-0.281398	-2477.74	2.661557E-5	NaN
632	1.000000	0.802612	7.37124e+06	-45489.1	1005.82	-29772.3	0.000000	0.000000	6.803090	-0.095665	NaN	0.000000	0.001561	0.001801	28.0823	0.036219	0.002034	17.8073	-145.397	-162.603	-0.032779	0.801254	-0.277010	-0.278368	-0.095665	17.8073	-0.272981	-1848.45	5.175429E-5	NaN
632	1.000000	0.810578	7.37124e+06	-45489.1	1005.82	-29772.3	0.000000	0.000000	6.811060	-0.005944	NaN	0.000000	0.001599	0.001784	28.0823	0.057280	0.002087	27.4463	-27.8472	-165.985	0.014281	0.809273	-0.269044	-0.270349	-0.005944	27.4463	-0.268881	-1601.52	3.711685E-6	NaN
632	1.000000	0.818583	7.37124e+06	-45489.1	1005.82	-29772.3	0.000000	0.000000	6.819066	0.031542	NaN	0.000000	0.001602	0.001813	28.0827	0.016308	0.002000	8.154557	-41.9137	-164.943	0.036154	0.817256	-0.261039	-0.262366	0.031542	8.154557	-0.263940	-1346.51	-2.342474E-5	NaN
632	1.000000	0.826597	7.37124e+06	-45489.1	1005.82	-29772.3	0.000000	0.000000	6.827079	0.006963	NaN	0.000000	0.001613	0.001729	28.0823	0.076254	0.001918	39.7531	51.0711	-161.524	-0.065578	0.825242	-0.253025	-0.254380	0.006963	39.7531	-0.253156	-919.837	-7.570332E-6	NaN
632	1.000000	0.834601	7.37124e+06	-45489.1	1005.82	-29772.3	0.000000	0.000000	6.835082	-0.013232	NaN	0.000000	0.001582	0.001745	28.0825	0.076609	0.002029	37.7533	47.9228	-162.567	-0.127958	0.833319	-0.245021	-0.246303	-0.013232	37.7533	-0.244758	-681.861	1.940549E-5	NaN
632	1.000000	0.842593	7.37124e+06	-45489.1	1005.82	-29772.3	0.000000	0.000000	6.843073	-0.039560	NaN	0.000000	0.001617	0.001713	28.0823	0.067476	0.001897	35.5645	41.2404	-164.965	0.003448	0.841322	-0.237029	-0.238300	-0.039560	35.5645	-0.236195	-501.188	7.893346E-5	NaN
632	1.000000	0.850623	7.37124e+06	-45489.1	1005.82	-29772.3	0.000000	0.000000	6.851104	-0.023083	NaN	0.000000	0.001657	0.001732	28.0825	0.054198	0.001875	28.9122	-155.501	-162.93	-0.039011	0.849344	-0.228999	-0.230278	-0.023083	28.9122	-0.228400	-377.776	6.110204E-5	NaN
632	1.000000	0.858621	7.37124e+06	-45489.1	1005.82	-29772.3	0.000000	0.000000	6.859099	-0.099602	NaN	0.000000	0.001632	0.001712	28.0825	0.064522	0.002050	31.4692	57.9242	-165.072	-0.060828	0.857320	-0.221001	-0.222302	-0.099602	31.4692	-0.218627	-264.073	0.000377	NaN
632	1.000000	0.866644	7.37124e+06	-45489.1	1005.82	-29772.3	0.000000	0.000000	6.867123	-0.052544	NaN	0.000000	0.001652	0.001680	28.0824	0.140978	0.002164	65.1417	154.863	-167.544	0.000379	0.865305	-0.212979	-0.214317	-0.052544	65.1417	-0.212374	-209.505	0.000251	NaN
632	1.000000	0.874611	7.37124e+06	-45489.1	1005.82	-29772.3	0.000000	0.000000	6.875091	-0.044196	NaN	0.000000	0.001609	0.001727	28.0827	0.077152	0.001958	39.4076	-134.297	-165.26	0.041095	0.873305	-0.205011	-0.206317	-0.044196	39.4076	-0.204170	-154.173	0.000287	NaN
632	1.000000	0.882620	7.37124e+06	-45489.1	1005.82	-29772.3	0.000000	0.000000	6.883098	-0.099083	NaN	0.000000	0.001623	0.001708	28.0825	0.081441	0.002013	40.4543	-91.145	-162.08	-0.046997	0.881317	-0.197002	-0.198305	-0.099083	40.4543	-0.195165	-109.633	0.000904	NaN
632	1.000000	0.890607	7.37124e+06	-45489.1	1005.82	-29772.3	0.000000	0.000000	6.891087	-0.044551	NaN	0.000000	0.001673	0.001709	28.0823	0.104226	0.002147	48.5525	-20.8957	-166.205	-0.042356	0.889294	-0.189015	-0.190328	-0.044551	48.5525	-0.188327	-84.3395	0.000528	NaN
632	1.000000	0.898608	7.37124e+06	-45489.1	1005.82	-29772.3	0.000000	0.000000	6.899087	-0.059580	NaN	0.000000	0.001627	0.001720	28.0825	0.078258	0.002064	37.9168	-170.749	-166.426	-0.047074	0.897365	-0.181014	-0.182257	-0.059580	37.9168	-0.179836	-60.6276	0.000983	NaN
632	1.000000	0.906611	7.37124e+06	-45489.1	1005.82	-29772.3	0.000000	0.000000	6.907093	-0.007825	NaN	0.000000	0.001604	0.001729	28.0823	0.041241	0.001961	21.0279	-113.086	-161.787	-0.066929	0.905333	-0.173011	-0.174289	-0.007825	21.0279	-0.172732	-45.805	0.000171	NaN
632	1.000000	0.914634	7.37124e+06	-45489.1	1005.82	-29772.3	0.000000	0.000000	6.915116	0.004879	NaN	0.000000	0.001621	0.001727	28.0839	0.108296	0.001952	55.4883	-154.394	-164.177	-0.026775	0.913272	-0.164988	-0.166350	0.004879	55.4883	-0.165054	-33.6708	-0.000145	NaN
632	1.000000	0.922627	7.37124e+06	-45489.1	1005.82	-29772.3	0.000000	0.000000	6.923109	0.007746	NaN	0.000000	0.001610	0.001738	28.084	0.061951	0.002020	30.6756	94.503	-164.112	0.067339	0.921291	-0.156995	-0.158331	0.007746	30.6756	-0.157185	-24.4222	-0.000317	NaN
632	1.000000	0.930631	7.37124e+06	-45489.1	1005.82	-29772.3	0.000000	0.000000	6.931111	-0.047247	NaN	0.000000	0.001630	0.001747	28.084	0.118428	0.001983	59.7147	136.107	-167.06	0.000570	0.929301	-0.148991	-0.150321	-0.047247	59.7147	-0.148398	-16.9326	0.002790	NaN
632	1.000000	0.938668	7.37124e+06	-45489.1	1005.82	-29772.3	0.000000	0.000000	6.939146	-0.090148	NaN	0.000000	0.001636	0.001711	28.0838	0.111882	0.001976	56.6158	132.452	-164.984	-0.000474	0.937280	-0.140954	-0.142342	-0.090148	56.6158	-0.139760	-11.7073	0.007700	NaN
632	1.000000	0.946656	7.37124e+06	-45489.1	1005.82	-29772.3	0.000000	0.000000	6.947135	-0.070980	NaN	0.000000	0.001647	0.001724	28.0839	0.014876	0.002112	7.041871	-119.96	-167.914	-0.043153	0.945341	-0.132966	-0.134281	-0.070980	7.041871	-0.125407	-6.194864	0.011458	NaN
632	1.000000	0.954633	7.37124e+06	-45489.1	1005.82	-29772.3	0.000000	0.000000	6.955112	-0.055358	NaN	0.000000	0.001677	0.001695	28.0837	0.021942	0.002058	10.6622	87.6495	-165.461	-0.054242	0.953303	-0.124989	-0.126319	-0.055358	10.6622	-0.121095	-5.083258	0.010890	NaN
632	1.000000	0.962652	7.37124e+06	-45489.1	1005.82	-29772.3	0.000000	0.000000	6.963132	-0.048692	NaN	0.000000	0.001632	0.001711	28.0837	0.034429	0.002084	16.5194	116.288	-165.277	-0.067123	0.961338	-0.116970	-0.118284	-0.048692	16.5194	-0.114759	-3.776955	0.012892	NaN
632	1.000000	0.970673	7.37124e+06	-45489.1	1005.82	-29772.3	0.000000	0.000000	6.971151	-0.085182	NaN	0.000000	0.001610	0.001737	28.0839	0.047318	0.002073	22.8244	58.0645	-161.695	-0.100319	0.969326	-0.108949	-0.110296	-0.085182	22.8244	-0.106150	-2.488575	0.034229	NaN
632	1.000000	0.978663	7.37124e+06	-45489.1	1005.82	-29772.3	0.000000	0.000000	6.979143	-0.045273	NaN	0.000000	0.001654	0.001716	28.0837	0.095070	0.001943	48.9398	122.924	-165.677	0.008562	0.977358	-0.100959	-0.102264	-0.045273	48.9398	-0.100266	-1.852069	0.024444	NaN
632	1.000000	0.986661	7.37124e+06	-45489.1	1005.82	-29772.3	0.000000	0.000000	6.987142	-0.025713	NaN	0.000000	0.001628	0.001735	28.084	0.086124	0.001982	43.4492	129.992	-166.82	-0.037340	0.985301	-0.092961	-0.094321	-0.025713	43.4492	-0.092517	-1.237184	0.020783	NaN
632	1.000000	0.994672	7.37124e+06	-45489.1	1005.82	-29772.3	0.000000	0.000000	6.995150	-0.095958	NaN	0.000000	0.001634	0.001694	28.084	0.038195	0.002012	18.9835	-121.001	-163.772	0.001559	0.993338	-0.084950	-0.086284	-0.095958	18.9835	-0.081159	-0.661542	0.145052	NaN
632	1.000000	1.002682	7.37124e+06	-45489.1	1005.82	-29772.3	0.000000	0.000000	7.003163	-0.024916	NaN	0.000000	0.001627	0.001742	28.0835	0.141721	0.001990	71.2015	159.108	-166.996	-0.029971	1.001347	-0.076940	-0.078276	-0.024916	71.2015	-0.076677	-0.510105	0.048845	NaN
632	1.000000	1.010641	7.37124e+06	-45489.1	1005.82	-29772.3	0.000000	0.000000	7.011121	-0.065247	NaN	0.000000	0.001678	0.001735	28.0838	0.067879	0.002084	32.567	159.828	-164.295	-0.057193	1.009351	-0.068981	-0.070271	-0.065247	32.567	-0.067478	-0.291564	0.223782	NaN
632	1.000000	1.018685	7.37124e+06	-45489.1	1005.82	-29772.3	0.000000	0.000000	7.019166	-0.028402	NaN	0.000000	0.001650	0.001765	28.0835	0.052520	0.001937	27.1136	56.4723	-167.926	0.020375	1.017404	-0.060937	-0.062218	-0.028402	27.1136	-0.060152	-0.181904	0.156138	NaN
632	1.000000	1.026681	7.37124e+06	-45489.1	1005.82	-29772.3	0.000000	0.000000	7.027161	-0.039209	NaN	0.000000	0.001658	0.001772	28.0843	0.101190	0.002008	50.4042	-22.9917	-163.922	0.026362	1.025412	-0.052941	-0.054210	-0.039209	50.4042	-0.052358	-0.107453	0.364898	NaN
632	1.000000	1.034677	7.37124e+06	-45489.1	1005.82	-29772.3	0.000000	0.000000	7.035157	-0.033536	NaN	0.000000	0.001658	0.001779	28.0835	0.107750	0.001987	54.2383	-108.52	-163.411	-0.100661	1.033365	-0.044945	-0.046257	-0.033536	54.2383	-0.044482	-0.061964	0.541216	NaN
632	1.000000	1.042686	7.37124e+06	-45489.1	1005.82	-29772.3	0.000000	0.000000	7.043166	-0.051548	NaN	0.000000	0.001654	0.001729	28.0834	0.077499	0.002094	37.0157	-166.854	-164.267	0.032695	1.041363	-0.036936	-0.038259	-0.051548	37.0157	-0.035892	-0.034029	1.514823	NaN
632	1.000000	1.050693	7.37124e+06	-45489.1	1005.82	-29772.3	0.000000	0.000000	7.051172	-0.071383	NaN	0.000000	0.001638	0.001756	28.0825	0.022489	0.002001	11.2376	11.6717	-164.361	0.003149	1.049369	-0.028929	-0.030253	-0.071383	11.2376	-0.024165	-0.016048	4.448172	NaN
632	1.000000	1.058697	7.37124e+06	-45489.1	1005.82	-29772.3	0.000000	0.000000	7.059177	-0.034211	NaN	0.000000	0.001679	0.001705	28.0824	0.048243	0.002001	24.1135	69.5936	-167.271	-0.002244	1.057365	-0.020925	-0.022257	-0.034211	24.1135	-0.019861	-0.012459	2.745843	NaN
632	1.000000	1.066697	7.37124e+06	-45489.1	1005.82	-29772.3	0.000000	0.000000	7.067177	-0.051715	NaN	0.000000	0.001661	0.001777	28.0827	0.056800	0.001926	29.4911	-102.375	-167.637	-0.002111	1.065423	-0.012925	-0.014200	-0.051715	29.4911	-0.011610	-0.007306	7.078666	NaN
632	1.000000	1.074695	7.37124e+06	-45489.1	1005.82	-29772.3	0.000000	0.000000	7.075178	0.017832	NaN	0.000000	0.001684	0.001710	28.0821	0.020832	0.001926	10.816	-33.1286	-164.825	-0.018493	1.073379	-0.004927	-0.006243	0.017832	10.816	-0.006163	-0.004136	-4.311470	NaN
632	1.000000	1.082642	7.37124e+06	-45489.1	1005.82	-29772.3	0.000000	0.000000	7.083365	5.855330	NaN	0.000000	0.001705	0.001772	28.0822	5.433384	0.001815	2993.25	4.969459	-166.52	3.637720	1.081335	0.003020	0.001713	5.855330	2993.25	0.001553	0.001197	4892.41	79050
632	2.000000	1.088220	7.37124e+06	-45489.1	1005.82	-29772.3	0.000000	0.000000	7.089185	11.7528	NaN	0.000000	0.001706	0.001730	28.082	10.292	0.001503	6848.3	5.868330	-172.522	11.8543	1.087874	0.008598	0.008252	11.7528	6848.3	0.007311	0.006343	1852.76	78558.7
632	2.000000	1.090185	7.37124e+06	-45489.1	1005.82	-29772.3	0.000000	0.000000	7.091247	14.1128	NaN	0.000000	0.001741	0.001747	28.0825	12.7583	0.001736	7348.52	6.165824	-172.901	14.0507	1.089859	0.010563	0.010237	14.1128	7348.52	0.009122	0.008222	1716.4	74041.7
632	2.000000	1.092201	7.37124e+06	-45489.1	1005.82	-29772.3	0.000000	0.000000	7.093430	18.1561	NaN	0.000000	0.001683	0.001771	28.0825	14.9884	0.001918	7813.51	11.5678	-175.909	18.5536	1.091813	0.012579	0.012191	18.1561	7813.51	0.010837	0.010126	1792.99	70941
632	2.000000	1.094142	7.37124e+06	-45489.1	1005.82	-29772.3	0.000000	0.000000	7.095475	20.7192	NaN	0.000000	0.001662	0.001754	28.0821	16.3118	0.001624	10042.8	5.257262	-175.099	20.7756	1.093821	0.014520	0.014199	20.7192	10042.8	0.012972	0.012676	1634.55	81497.3
632	2.000000	1.096124	7.37124e+06	-45489.1	1005.82	-29772.3	0.000000	0.000000	7.097621	24.7075	NaN	0.000000	0.001684	0.001714	28.0822	19.1698	0.001787	10724.9	4.276717	-174.464	24.4248	1.095806	0.016502	0.016184	24.7075	10724.9	0.014774	0.014985	1648.8	80045.5
632	2.000000	1.098125	7.37124e+06	-45489.1	1005.82	-29772.3	0.000000	0.000000	7.099762	28.0969	NaN	0.000000	0.001684	0.001746	28.0824	21.0155	0.001813	11591.3	6.910064	-177.092	28.6269	1.097884	0.018503	0.018262	28.0969	11591.3	0.016685	0.017598	1596.57	79830.8
632	2.000000	1.100121	7.37124e+06	-45489.1	1005.82	-29772.3	0.000000	0.000000	7.101970	33.2648	NaN	0.000000	0.001681	0.001709	28.0819	23.6888	0.001864	12710.3	7.779267	-179.116	32.9266	1.099815	0.020499	0.020193	33.2648	12710.3	0.018536	0.020294	1639.17	81517.4
632	2.000000	1.102103	7.37124e+06	-45489.1	1005.82	-29772.3	0.000000	0.000000	7.104190	39.0421	NaN	0.000000	0.001688	0.001710	28.0837	25.3457	0.001830	13853.9	3.380189	-175.021	38.1519	1.101771	0.022481	0.022149	39.0421	13853.9	0.020367	0.023122	1688.5	83239.2
632	2.000000	1.104092	7.37124e+06	-45489.1	1005.82	-29772.3	0.000000	0.000000	7.106424	45.0184	NaN	0.000000	0.001663	0.001730	28.0821	27.4296	0.001807	15183.8	6.252947	-178.247	44.8578	1.103754	0.024470	0.024132	45.0184	15183.8	0.022246	0.026195	1718.56	85711.9
632	2.000000	1.106081	7.37124e+06	-45489.1	1005.82	-29772.3	0.000000	0.000000	7.108579	49.0514	NaN	0.000000	0.001627	0.001743	28.082	29.698	0.001950	15228.7	1.988636	-174.813	47.5726	1.105834	0.026459	0.026212	49.0514	15228.7	0.024043	0.029297	1674.26	81287
632	2.000000	1.108142	7.37124e+06	-45489.1	1005.82	-29772.3	0.000000	0.000000	7.110963	56.8851	NaN	0.000000	0.001609	0.001742	28.0822	31.0818	0.001736	17905.6	4.798044	-179.512	58.0413	1.107809	0.028520	0.028187	56.8851	17905.6	0.026138	0.033118	1717.66	89893.8
632	2.000000	1.110103	7.37124e+06	-45489.1	1005.82	-29772.3	0.000000	0.000000	7.113209	63.8329	NaN	0.000000	0.001586	0.001734	28.0821	33.3037	0.001816	18335.6	5.664286	179.245	63.3286	1.109753	0.030481	0.030131	63.8329	18335.6	0.027870	0.036445	1751.48	87750.6
632	2.000000	1.112068	7.37124e+06	-45489.1	1005.82	-29772.3	0.000000	0.000000	7.115526	72.3744	NaN	0.000000	0.001599	0.001764	28.084	34.8632	0.001694	20578.8	6.132403	178.666	70.5544	1.111694	0.032446	0.032072	72.3744	20578.8	0.029809	0.040348	1793.74	93601.2
632	2.000000	1.114059	7.37124e+06	-45489.1	1005.82	-29772.3	0.000000	0.000000	7.117773	78.6281	NaN	0.000000	0.001603	0.001750	28.0829	36.8599	0.001737	21217.6	4.309506	179.477	77.0016	1.113726	0.034437	0.034103	78.6281	21217.6	0.031657	0.044249	1776.95	92154.9
632	2.000000	1.116014	7.37124e+06	-45489.1	1005.82	-29772.3	0.000000	0.000000	7.120191	89.8854	NaN	0.000000	0.001620	0.001725	28.0836	39.6761	0.001799	22054.9	5.970393	177.803	87.0929	1.115784	0.036392	0.036162	89.8854	22054.9	0.033336	0.047941	1874.9	92028.6
632	2.000000	1.118077	7.37124e+06	-45489.1	1005.82	-29772.3	0.000000	0.000000	7.122502	95.9187	NaN	0.000000	0.001595	0.001720	28.0836	40.6707	0.001745	23305.7	3.560190	179.132	94.7037	1.117775	0.038455	0.038153	95.9187	23305.7	0.035368	0.052607	1823.31	92835.4
632	2.000000	1.120055	7.37124e+06	-45489.1	1005.82	-29772.3	0.000000	0.000000	7.124847	104.842	NaN	0.000000	0.001601	0.001761	28.0834	43.2122	0.001715	25195.5	8.570334	173.709	104.83	1.119767	0.040433	0.040145	104.842	25195.5	0.037312	0.057267	1830.76	96192.8
632	2.000000	1.122192	7.37124e+06	-45489.1	1005.82	-29772.3	0.000000	0.000000	7.127347	113.661	NaN	0.000000	0.001610	0.001717	28.0835	44.7602	0.001854	24148.1	6.662751	178.638	115.888	1.121680	0.042570	0.042058	113.661	24148.1	0.039040	0.061571	1846.01	88913.4
632	2.000000	1.124031	7.37124e+06	-45489.1	1005.82	-29772.3	0.000000	0.000000	7.129557	122.72	NaN	0.000000	0.001584	0.001762	28.0833	46.3771	0.001825	25410.8	3.859174	179.082	120.863	1.123699	0.044409	0.044077	122.72	25410.8	0.040787	0.066077	1857.23	90316.6
632	2.000000	1.126055	7.37124e+06	-45489.1	1005.82	-29772.3	0.000000	0.000000	7.131898	130.409	NaN	0.000000	0.001618	0.001764	28.0837	49.464	0.001850	26730.7	6.639337	175.728	129.997	1.125727	0.046433	0.046105	130.409	26730.7	0.042774	0.071395	1826.6	91400.8
632	2.000000	1.128047	7.37124e+06	-45489.1	1005.82	-29772.3	0.000000	0.000000	7.134468	144.475	NaN	0.000000	0.001620	0.001765	28.0836	50.1235	0.001765	28399.5	5.187141	176.861	142.919	1.127757	0.048425	0.048135	144.475	28399.5	0.044610	0.076484	1888.96	93820.8
632	2.000000	1.130026	7.37124e+06	-45489.1	1005.82	-29772.3	0.000000	0.000000	7.136524	146.347	NaN	0.000000	0.001577	0.001768	28.0834	53.8456	0.001879	28650.8	5.515231	175.736	144.087	1.129764	0.050404	0.050142	146.347	28650.8	0.046573	0.082115	1782.21	91347.6
632	2.000000	1.132107	7.37124e+06	-45489.1	1005.82	-29772.3	0.000000	0.000000	7.139083	157.981	NaN	0.000000	0.001550	0.001734	28.0836	55.2546	0.001887	29286.5	4.486272	177.976	160.749	1.131738	0.052485	0.052116	157.981	29286.5	0.048439	0.087649	1802.43	90379
632	2.000000	1.134034	7.37124e+06	-45489.1	1005.82	-29772.3	0.000000	0.000000	7.141644	173.413	NaN	0.000000	0.001550	0.001774	28.0831	56.4282	0.001716	32890.9	6.795411	173.521	171.573	1.133686	0.054412	0.054064	173.413	32890.9	0.050457	0.093832	1848.12	98101
632	2.000000	1.136048	7.37124e+06	-45489.1	1005.82	-29772.3	0.000000	0.000000	7.143894	179.14	NaN	0.000000	0.001590	0.001750	28.0835	59.3594	0.001848	32120.9	6.069701	174.537	179.363	1.135772	0.056426	0.056150	179.14	32120.9	0.052243	0.099474	1800.88	93048.1
632	2.000000	1.137990	7.37124e+06	-45489.1	1005.82	-29772.3	0.000000	0.000000	7.146397	192.776	NaN	0.000000	0.001588	0.001761	28.0838	59.8246	0.001918	31192.8	5.658351	175.639	191.859	1.137711	0.058368	0.058089	192.776	31192.8	0.053733	0.104300	1848.29	88244.2
632	2.000000	1.140041	7.37124e+06	-45489.1	1005.82	-29772.3	0.000000	0.000000	7.148828	202.034	NaN	0.000000	0.001681	0.001763	28.0841	61.7267	0.001812	34064.4	-0.222585	-179.464	201.945	1.139721	0.060419	0.060099	202.034	34064.4	0.055971	0.111759	1807.77	93096.5
632	2.000000	1.142028	7.37124e+06	-45489.1	1005.82	-29772.3	0.000000	0.000000	7.151308	214.038	NaN	0.000000	0.001616	0.001774	28.0835	64.9063	0.001712	37905.7	9.048949	170.792	211.164	1.141627	0.062406	0.062005	214.038	37905.7	0.058171	0.119331	1793.65	100254
632	2.000000	1.144028	7.37124e+06	-45489.1	1005.82	-29772.3	0.000000	0.000000	7.153704	223.646	NaN	0.000000	0.001595	0.001745	28.0836	65.3888	0.001767	37000	3.922047	175.635	222.351	1.143759	0.064406	0.064137	223.646	37000	0.059873	0.125353	1784.13	95479.1
632	2.000000	1.146033	7.37124e+06	-45489.1	1005.82	-29772.3	0.000000	0.000000	7.156279	237.536	NaN	0.000000	0.001625	0.001769	28.0827	66.3572	0.001702	38995.3	4.100553	174.739	236.981	1.145764	0.066411	0.066142	237.536	38995.3	0.061842	0.132496	1792.77	97877.6
632	2.000000	1.148056	7.37124e+06	-45489.1	1005.82	-29772.3	0.000000	0.000000	7.158748	248.394	NaN	0.000000	0.001626	0.001755	28.0824	68.2721	0.001747	39087.7	5.827971	173.368	249.82	1.147662	0.068434	0.068040	248.394	39087.7	0.063668	0.139287	1783.32	95688.1
632	2.000000	1.149970	7.37124e+06	-45489.1	1005.82	-29772.3	0.000000	0.000000	7.161291	263.663	NaN	0.000000	0.001619	0.001758	28.0824	69.9286	0.001863	37544.5	2.364615	177.292	261.093	1.149666	0.070348	0.070044	263.663	37544.5	0.065081	0.144656	1822.69	90188.3
632	2.000000	1.152063	7.37124e+06	-45489.1	1005.82	-29772.3	0.000000	0.000000	7.163709	271.582	NaN	0.000000	0.001612	0.001814	28.0822	73.2984	0.001890	38774.7	5.016433	174.09	270.306	1.151801	0.072441	0.072179	271.582	38774.7	0.067188	0.152836	1776.95	90616.9
632	2.000000	1.154000	7.37124e+06	-45489.1	1005.82	-29772.3	0.000000	0.000000	7.166138	283.562	NaN	0.000000	0.001615	0.001801	28.0823	74.2285	0.001817	40843.2	3.169968	175.533	280.885	1.153770	0.074378	0.074148	283.562	40843.2	0.069171	0.160731	1764.2	93077
632	2.000000	1.155977	7.37124e+06	-45489.1	1005.82	-29772.3	0.000000	0.000000	7.168585	294.985	NaN	0.000000	0.001608	0.001773	28.0822	77.8257	0.001776	43820.5	4.897489	173.422	293.995	1.155755	0.076355	0.076133	294.985	43820.5	0.071306	0.169443	1740.91	97261
632	2.000000	1.157984	7.37124e+06	-45489.1	1005.82	-29772.3	0.000000	0.000000	7.171472	316.396	NaN	0.000000	0.001562	0.001758	28.0821	77.9936	0.001838	42428.4	5.058549	174.122	314.112	1.157627	0.078362	0.078005	316.396	42428.4	0.072769	0.175533	1802.49	92523.1
632	2.000000	1.159927	7.37124e+06	-45489.1	1005.82	-29772.3	0.000000	0.000000	7.173880	327.706	NaN	0.000000	0.001571	0.001747	28.0822	80.8896	0.001703	47496.4	4.285046	173.923	322.66	1.159589	0.080305	0.079967	327.706	47496.4	0.075130	0.185582	1765.83	100732
632	2.000000	1.162002	7.37124e+06	-45489.1	1005.82	-29772.3	0.000000	0.000000	7.176592	343.196	NaN	0.000000	0.001583	0.001741	28.0821	83.225	0.001835	45345.1	3.980618	174.69	339.773	1.161641	0.082380	0.082019	343.196	45345.1	0.076704	0.192423	1783.55	94444.2
632	2.000000	1.164004	7.37124e+06	-45489.1	1005.82	-29772.3	0.000000	0.000000	7.179220	358.438	NaN	0.000000	0.001560	0.001755	28.0825	84.851	0.001802	47100	5.832386	172.14	357.599	1.163664	0.084382	0.084042	358.438	47100	0.078674	0.201152	1781.93	95947.2
632	2.000000	1.165983	7.37124e+06	-45489.1	1005.82	-29772.3	0.000000	0.000000	7.181522	366.303	NaN	0.000000	0.001573	0.001740	28.0825	87.6962	0.001818	48241.8	6.931193	170.624	365.491	1.165747	0.086361	0.086125	366.303	48241.8	0.080666	0.210161	1742.96	96143.7
632	2.000000	1.167981	7.37124e+06	-45489.1	1005.82	-29772.3	0.000000	0.000000	7.184211	383.115	NaN	0.000000	0.001539	0.001757	28.0824	87.3751	0.001828	47801.5	0.482906	177.555	380.733	1.167622	0.088359	0.088000	383.115	47801.5	0.082348	0.217911	1758.13	93556.8
632	2.000000	1.169952	7.37124e+06	-45489.1	1005.82	-29772.3	0.000000	0.000000	7.186874	399.922	NaN	0.000000	0.001557	0.001758	28.0822	90.1717	0.001858	48524.8	4.386065	173.143	395.198	1.169635	0.090330	0.090013	399.922	48524.8	0.084149	0.226358	1766.76	93183.5
632	2.000000	1.171968	7.37124e+06	-45489.1	1005.82	-29772.3	0.000000	0.000000	7.189249	408.681	NaN	0.000000	0.001520	0.001847	28.0822	92.5597	0.001763	52507	6.828797	170.2	405.289	1.171786	0.092346	0.092164	408.681	52507	0.086508	0.237648	1719.69	98406.3
632	2.000000	1.174031	7.37124e+06	-45489.1	1005.82	-29772.3	0.000000	0.000000	7.192196	430.176	NaN	0.000000	0.001540	0.001736	28.0824	93.5678	0.001850	50574.8	6.990838	171.727	431.005	1.173615	0.094409	0.093993	430.176	50574.8	0.088029	0.245065	1755.36	93339.9
632	2.000000	1.176031	7.37124e+06	-45489.1	1005.82	-29772.3	0.000000	0.000000	7.194773	444.202	NaN	0.000000	0.001506	0.001730	28.0822	96.1497	0.001787	53796.9	5.762917	171.263	445.533	1.175636	0.096409	0.096014	444.202	53796.9	0.090216	0.255913	1735.75	97159.3
632	2.000000	1.178002	7.37124e+06	-45489.1	1005.82	-29772.3	0.000000	0.000000	7.197355	459.052	NaN	0.000000	0.001572	0.001751	28.0824	96.6052	0.001735	55672	5.790693	170.882	457.286	1.177671	0.098380	0.098049	459.052	55672	0.092196	0.265922	1726.27	98635.4
632	2.000000	1.179949	7.37124e+06	-45489.1	1005.82	-29772.3	0.000000	0.000000	7.199958	475.031	NaN	0.000000	0.001560	0.001727	28.083	101.204	0.001894	53444.4	5.825582	171.34	473.044	1.179673	0.100327	0.100051	475.031	53444.4	0.093661	0.273442	1737.23	93377.6
632	2.000000	1.182069	7.37124e+06	-45489.1	1005.82	-29772.3	0.000000	0.000000	7.202893	494.853	NaN	0.000000	0.001554	0.001722	28.0834	102.905	0.001844	55815.3	8.333972	168.991	499.034	1.181586	0.102447	0.101964	494.853	55815.3	0.095797	0.284587	1738.85	95591.3
632	2.000000	1.183888	7.37124e+06	-45489.1	1005.82	-29772.3	0.000000	0.000000	7.205639	517.415	NaN	0.000000	0.001543	0.001710	28.0833	102.271	0.001883	54318.6	2.338933	175.138	512.672	1.183578	0.104266	0.103956	517.415	54318.6	0.097121	0.291600	1774.4	91902.6
632	2.000000	1.185797	7.37124e+06	-45489.1	1005.82	-29772.3	0.000000	0.000000	7.208124	531.407	NaN	0.000000	0.001547	0.001727	28.0833	106.088	0.001858	57088	5.853411	171.076	520.058	1.185578	0.106175	0.105956	531.407	57088	0.099194	0.302733	1755.36	94795.5