File: remote_trans/data/nanoindenter/0828-1/data/Data_2025-08-06,11h17m57s/2025-07-22_16-23-58_1_1137.txt
2025-07-22, 16:23:58, 1
Index	Phase	Displacement	Time	Pos X	Pos Y	Pos Z	Rot A	Rot B	Piezo Z	Force A	Force B	Gripper	Voltage A	Voltage B	Temperature	Amplitude force	Amplitude pos	Stiffness	Phase shift	Phase excitation	Force A raw	Displacement raw	HMax	HMax raw	Real Force	Real Stiffness	Contact Depth	Area	Hardness	Reduced Mod.
[#]	[#]	[um]	[s]	[um]	[um]	[um]	[m°]	[m°]	[um]	[uN]	[uN]	[V]	[V]	[V]	[°C]	[uN]	[um]	[N/m]	[°]	[°]	[uN]	[um]	[um]	[um]	[uN]	[N/m]	[um]	[um^2]	[MPa]	[MPa]
1137	1.000000	0.002567	7.37618e+06	-56989.1	1055.82	-29737.7	0.000000	0.000000	6.002782	0.023898	NaN	0.000000	0.001557	0.001694	28.0834	0.023434	0.000958	24.4542	-86.5058	-164.136	-0.042559	0.001329	-1.067275	-1.068513	0.023898	24.4542	-1.068008	-1.863911E+14	-1.282158E-16	NaN
1137	1.000000	0.010549	7.37618e+06	-56989.1	1055.82	-29737.7	0.000000	0.000000	6.010761	-0.058760	NaN	0.000000	0.001582	0.001686	28.083	0.099274	0.000933	106.458	35.423	-166.157	-0.045595	0.009195	-1.059293	-1.060647	-0.058760	106.458	-1.058879	-1.405271E+14	4.181364E-16	NaN
1137	1.000000	0.018570	7.37618e+06	-56989.1	1055.82	-29737.7	0.000000	0.000000	6.018787	0.054316	NaN	0.000000	0.001563	0.001721	28.0831	0.068226	0.001636	41.7009	-45.7021	-161.345	0.094479	0.017240	-1.051272	-1.052602	0.054316	41.7009	-1.052248	-1.144558E+14	-4.745552E-16	NaN
1137	1.000000	0.026563	7.37618e+06	-56989.1	1055.82	-29737.7	0.000000	0.000000	6.026776	-0.034909	NaN	0.000000	0.001563	0.001718	28.0831	0.101328	0.001740	58.2404	118.025	-162.65	0.005390	0.025227	-1.043279	-1.044615	-0.034909	58.2404	-1.042829	-8.550895E+13	4.082517E-16	NaN
1137	1.000000	0.034546	7.37618e+06	-56989.1	1055.82	-29737.7	0.000000	0.000000	6.034761	0.012402	NaN	0.000000	0.001579	0.001713	28.0833	0.097391	0.001937	50.2728	-166.939	-164.058	0.054116	0.033163	-1.035296	-1.036679	0.012402	50.2728	-1.035481	-6.810860E+13	-1.820917E-16	NaN
1137	1.000000	0.042555	7.37618e+06	-56989.1	1055.82	-29737.7	0.000000	0.000000	6.042770	-0.001288	NaN	0.000000	0.001580	0.001702	28.0832	0.085103	0.001993	42.6947	65.4653	-163.198	-0.047155	0.041196	-1.027287	-1.028646	-0.001288	42.6947	-1.027264	-5.280518E+13	2.439503E-17	NaN
1137	1.000000	0.050545	7.37618e+06	-56989.1	1055.82	-29737.7	0.000000	0.000000	6.050760	0.012886	NaN	0.000000	0.001607	0.001663	28.0834	0.047380	0.002129	22.2599	-87.3317	-166.216	-0.077070	0.049249	-1.019297	-1.020593	0.012886	22.2599	-1.019731	-4.181507E+13	-3.081711E-16	NaN
1137	1.000000	0.058528	7.37618e+06	-56989.1	1055.82	-29737.7	0.000000	0.000000	6.058743	0.012392	NaN	0.000000	0.001619	0.001696	28.0835	0.047383	0.001844	25.6939	55.4763	-166.264	-0.005698	0.057170	-1.011314	-1.012672	0.012392	25.6939	-1.011676	-3.257888E+13	-3.803811E-16	NaN
1137	1.000000	0.066533	7.37618e+06	-56989.1	1055.82	-29737.7	0.000000	0.000000	6.066747	0.015078	NaN	0.000000	0.001575	0.001688	28.082	0.038810	0.001897	20.4532	142.879	-165.197	-0.029659	0.065233	-1.003309	-1.004609	0.015078	20.4532	-1.003862	-2.557212E+13	-5.896405E-16	NaN
1137	1.000000	0.074558	7.37618e+06	-56989.1	1055.82	-29737.7	0.000000	0.000000	6.074773	0.005061	NaN	0.000000	0.001605	0.001651	28.0819	0.047628	0.002091	22.7735	-123.946	-163.665	0.016463	0.073225	-0.995284	-0.996617	0.005061	22.7735	-0.995450	-1.970209E+13	-2.569016E-16	NaN
1137	1.000000	0.082570	7.37618e+06	-56989.1	1055.82	-29737.7	0.000000	0.000000	6.082788	0.091119	NaN	0.000000	0.001628	0.001687	28.0821	0.042998	0.001776	24.2093	-77.433	-161.589	0.117052	0.081181	-0.987272	-0.988661	0.091119	24.2093	-0.990095	-1.668747E+13	-5.460317E-15	NaN
1137	1.000000	0.090557	7.37618e+06	-56989.1	1055.82	-29737.7	0.000000	0.000000	6.090770	-0.032662	NaN	0.000000	0.001635	0.001661	28.082	0.029863	0.001889	15.8079	-153.625	-164.66	-0.000289	0.089216	-0.979285	-0.980626	-0.032662	15.8079	-0.977736	-1.137379E+13	2.871684E-15	NaN
1137	1.000000	0.098547	7.37618e+06	-56989.1	1055.82	-29737.7	0.000000	0.000000	6.098761	0.008668	NaN	0.000000	0.001632	0.001695	28.0823	0.087089	0.002043	42.6304	71.3316	-165.969	0.042480	0.097184	-0.971295	-0.972658	0.008668	42.6304	-0.971448	-9.357831E+12	-9.262460E-16	NaN
1137	1.000000	0.106565	7.37618e+06	-56989.1	1055.82	-29737.7	0.000000	0.000000	6.106780	0.013449	NaN	0.000000	0.001570	0.001665	28.0823	0.145710	0.002006	72.6369	-151.231	-162.941	0.025362	0.105273	-0.963277	-0.964569	0.013449	72.6369	-0.963416	-7.293288E+12	-1.844057E-15	NaN
1137	1.000000	0.114565	7.37618e+06	-56989.1	1055.82	-29737.7	0.000000	0.000000	6.114778	-0.017512	NaN	0.000000	0.001564	0.001679	28.0822	0.117647	0.001877	62.6757	-123.972	-162.784	0.079775	0.113291	-0.955277	-0.956551	-0.017512	62.6757	-0.955068	-5.628172E+12	3.111465E-15	NaN
1137	1.000000	0.122554	7.37618e+06	-56989.1	1055.82	-29737.7	0.000000	0.000000	6.122769	0.018734	NaN	0.000000	0.001549	0.001657	28.0822	0.089823	0.002012	44.6332	-118.113	-165.95	-0.006746	0.121249	-0.947288	-0.948593	0.018734	44.6332	-0.947603	-4.463730E+12	-4.196836E-15	NaN
1137	1.000000	0.130556	7.37618e+06	-56989.1	1055.82	-29737.7	0.000000	0.000000	6.130770	0.006469	NaN	0.000000	0.001577	0.001683	28.0822	0.044208	0.002089	21.1642	-131.24	-164.74	0.006388	0.129238	-0.939286	-0.940604	0.006469	21.1642	-0.939515	-3.472163E+12	-1.863163E-15	NaN
1137	1.000000	0.138569	7.37618e+06	-56989.1	1055.82	-29737.7	0.000000	0.000000	6.138783	-0.003645	NaN	0.000000	0.001589	0.001661	28.0818	0.031760	0.001973	16.0967	-59.0935	-165.551	-0.013696	0.137256	-0.931273	-0.932586	-0.003645	16.0967	-0.931103	-2.673528E+12	1.363497E-15	NaN
1137	1.000000	0.146581	7.37618e+06	-56989.1	1055.82	-29737.7	0.000000	0.000000	6.146798	0.073028	NaN	0.000000	0.001578	0.001684	28.0822	0.022436	0.001969	11.3951	-157.242	-166.118	0.001379	0.145241	-0.923261	-0.924601	0.073028	11.3951	-0.928068	-2.432845E+12	-3.001741E-14	NaN
1137	1.000000	0.154548	7.37618e+06	-56989.1	1055.82	-29737.7	0.000000	0.000000	6.154764	0.033434	NaN	0.000000	0.001634	0.001696	28.0823	0.056281	0.001983	28.3853	122.463	-165.491	0.016694	0.153233	-0.915294	-0.916609	0.033434	28.3853	-0.916177	-1.681087E+12	-1.988817E-14	NaN
1137	1.000000	0.162591	7.37618e+06	-56989.1	1055.82	-29737.7	0.000000	0.000000	6.162804	-0.030756	NaN	0.000000	0.001591	0.001703	28.0823	0.064115	0.001972	32.5106	-71.6359	-163.321	-0.080999	0.161281	-0.907251	-0.908561	-0.030756	32.5106	-0.906542	-1.245794E+12	2.468756E-14	NaN
1137	1.000000	0.170568	7.37618e+06	-56989.1	1055.82	-29737.7	0.000000	0.000000	6.170783	0.036376	NaN	0.000000	0.001575	0.001652	28.0824	0.082399	0.002031	40.5707	16.0814	-163.126	0.033530	0.169294	-0.899274	-0.900548	0.036376	40.5707	-0.899947	-1.014727E+12	-3.584820E-14	NaN
1137	1.000000	0.178585	7.37618e+06	-56989.1	1055.82	-29737.7	0.000000	0.000000	6.178800	0.018774	NaN	0.000000	0.001586	0.001654	28.0821	0.097190	0.002074	46.8502	-142.443	-164.3	0.027708	0.177300	-0.891257	-0.892542	0.018774	46.8502	-0.891557	-7.815658E+11	-2.402100E-14	NaN
1137	1.000000	0.186594	7.37618e+06	-56989.1	1055.82	-29737.7	0.000000	0.000000	6.186806	-0.066852	NaN	0.000000	0.001551	0.001688	28.0819	0.114570	0.001961	58.4323	51.1004	-161.025	-0.007167	0.185241	-0.883248	-0.884601	-0.066852	58.4323	-0.882390	-5.875273E+11	1.137850E-13	NaN
1137	1.000000	0.194611	7.37618e+06	-56989.1	1055.82	-29737.7	0.000000	0.000000	6.194823	-0.053673	NaN	0.000000	0.001555	0.001697	28.0819	0.057109	0.001851	30.8508	72.717	-162.056	0.019580	0.193241	-0.875231	-0.876601	-0.053673	30.8508	-0.873926	-4.513951E+11	1.189055E-13	NaN
1137	1.000000	0.202563	7.37618e+06	-56989.1	1055.82	-29737.7	0.000000	0.000000	6.202776	-0.011671	NaN	0.000000	0.001517	0.001650	28.0831	0.114046	0.001950	58.4709	-8.251510	-164.333	0.054849	0.201263	-0.867279	-0.868579	-0.011671	58.4709	-0.867130	-3.652656E+11	3.195194E-14	NaN
1137	1.000000	0.210583	7.37618e+06	-56989.1	1055.82	-29737.7	0.000000	0.000000	6.210797	-0.014607	NaN	0.000000	0.001522	0.001596	28.0832	0.043983	0.002096	20.9802	-153.417	-164.023	0.016672	0.209303	-0.859259	-0.860539	-0.014607	20.9802	-0.858737	-2.812061E+11	5.194533E-14	NaN
1137	1.000000	0.218605	7.37618e+06	-56989.1	1055.82	-29737.7	0.000000	0.000000	6.218821	0.030921	NaN	0.000000	0.001642	0.001590	28.0833	0.143203	0.001990	71.9461	-118.608	-167.506	-0.059044	0.217287	-0.851237	-0.852555	0.030921	71.9461	-0.851559	-2.248295E+11	-1.375303E-13	NaN
1137	1.000000	0.226579	7.37618e+06	-56989.1	1055.82	-29737.7	0.000000	0.000000	6.226794	0.019664	NaN	0.000000	0.001643	0.001650	28.0833	0.058359	0.002053	28.4313	11.8338	-166.668	0.002064	0.225324	-0.843263	-0.844518	0.019664	28.4313	-0.843782	-1.764086E+11	-1.114686E-13	NaN
1137	1.000000	0.234627	7.37618e+06	-56989.1	1055.82	-29737.7	0.000000	0.000000	6.234840	-0.042651	NaN	0.000000	0.001627	0.001575	28.0831	0.024759	0.001935	12.7967	117.949	-161.511	0.015312	0.233229	-0.835215	-0.836613	-0.042651	12.7967	-0.832715	-1.249057E+11	3.414657E-13	NaN
1137	1.000000	0.242598	7.37618e+06	-56989.1	1055.82	-29737.7	0.000000	0.000000	6.242810	-0.060069	NaN	0.000000	0.001653	0.001595	28.0831	0.143860	0.001987	72.3833	-51.0093	-165.659	0.013180	0.241254	-0.827244	-0.828588	-0.060069	72.3833	-0.826622	-1.032741E+11	5.816428E-13	NaN
1137	1.000000	0.250615	7.37618e+06	-56989.1	1055.82	-29737.7	0.000000	0.000000	6.250831	0.038830	NaN	0.000000	0.001613	0.001565	28.0829	0.032812	0.002092	15.6817	-138.808	-166.077	0.058626	0.249291	-0.819227	-0.820551	0.038830	15.6817	-0.821084	-8.687907E+10	-4.469383E-13	NaN
1137	1.000000	0.258633	7.37618e+06	-56989.1	1055.82	-29737.7	0.000000	0.000000	6.258846	-0.019085	NaN	0.000000	0.001560	0.001610	28.083	0.063033	0.002009	31.3759	-163.796	-164.515	-0.084206	0.257274	-0.811209	-0.812568	-0.019085	31.3759	-0.810753	-6.291982E+10	3.033195E-13	NaN
1137	1.000000	0.266627	7.37618e+06	-56989.1	1055.82	-29737.7	0.000000	0.000000	6.266841	-0.016931	NaN	0.000000	0.001569	0.001611	28.083	0.065097	0.002089	31.1616	125.309	-164.715	0.039929	0.265344	-0.803215	-0.804498	-0.016931	31.1616	-0.802807	-4.908683E+10	3.449114E-13	NaN
1137	1.000000	0.274623	7.37618e+06	-56989.1	1055.82	-29737.7	0.000000	0.000000	6.274836	-0.036303	NaN	0.000000	0.001555	0.001617	28.0832	0.038515	0.001960	19.6457	-122.052	-166.048	-0.049114	0.273348	-0.795219	-0.796494	-0.036303	19.6457	-0.793833	-3.707968E+10	9.790475E-13	NaN
1137	1.000000	0.282577	7.37618e+06	-56989.1	1055.82	-29737.7	0.000000	0.000000	6.282789	-0.059942	NaN	0.000000	0.001560	0.001606	28.0832	0.015090	0.002041	7.395309	-15.0443	-161.459	-0.014257	0.281394	-0.787265	-0.788448	-0.059942	7.395309	-0.781186	-2.496577E+10	2.400952E-12	NaN
1137	1.000000	0.290638	7.37618e+06	-56989.1	1055.82	-29737.7	0.000000	0.000000	6.290850	-0.056331	NaN	0.000000	0.001593	0.001621	28.0831	0.036584	0.002009	18.2081	77.3308	-161.495	-0.095852	0.289308	-0.779204	-0.780534	-0.056331	18.2081	-0.776884	-2.182135E+10	2.581468E-12	NaN
1137	1.000000	0.298641	7.37618e+06	-56989.1	1055.82	-29737.7	0.000000	0.000000	6.298859	0.085892	NaN	0.000000	0.001576	0.001588	28.0831	0.082806	0.001995	41.4993	67.3076	-164.935	0.099492	0.297317	-0.771201	-0.772525	0.085892	41.4993	-0.772754	-1.917523E+10	-4.479298E-12	NaN
1137	1.000000	0.306625	7.37618e+06	-56989.1	1055.82	-29737.7	0.000000	0.000000	6.306839	0.009538	NaN	0.000000	0.001586	0.001610	28.0829	0.044791	0.002119	21.1355	139.322	-164.774	0.048043	0.305368	-0.763217	-0.764474	0.009538	21.1355	-0.763556	-1.437712E+10	-6.633846E-13	NaN
1137	1.000000	0.314643	7.37618e+06	-56989.1	1055.82	-29737.7	0.000000	0.000000	6.314858	0.012764	NaN	0.000000	0.001582	0.001605	28.0831	0.145112	0.002146	67.6105	-104.887	-164.828	0.093870	0.313321	-0.755199	-0.756521	0.012764	67.6105	-0.755341	-1.111491E+10	-1.148343E-12	NaN
1137	1.000000	0.322635	7.37618e+06	-56989.1	1055.82	-29737.7	0.000000	0.000000	6.322849	-0.001435	NaN	0.000000	0.001571	0.001595	28.0834	0.126122	0.001938	65.0876	-80.6544	-164.581	-0.015289	0.321369	-0.747207	-0.748473	-0.001435	65.0876	-0.747190	-8.609384E+9	1.666212E-13	NaN
1137	1.000000	0.330659	7.37618e+06	-56989.1	1055.82	-29737.7	0.000000	0.000000	6.330874	0.022369	NaN	0.000000	0.001586	0.001601	28.0833	0.048519	0.001976	24.5597	89.6256	-164.884	-0.013802	0.329312	-0.739183	-0.740530	0.022369	24.5597	-0.739866	-6.842789E+9	-3.269006E-12	NaN
1137	1.000000	0.338643	7.37618e+06	-56989.1	1055.82	-29737.7	0.000000	0.000000	6.338859	0.043576	NaN	0.000000	0.001571	0.001596	28.0819	0.061728	0.002016	30.6141	83.1131	-164.153	0.057832	0.337343	-0.731199	-0.732499	0.043576	30.6141	-0.732267	-5.391388E+9	-8.082442E-12	NaN
1137	1.000000	0.346652	7.37618e+06	-56989.1	1055.82	-29737.7	0.000000	0.000000	6.346869	0.046070	NaN	0.000000	0.001568	0.001588	28.0818	0.031869	0.002037	15.6471	84.0487	-164.603	-0.020088	0.345354	-0.723190	-0.724488	0.046070	15.6471	-0.725398	-4.345854E+9	-1.060090E-11	NaN
1137	1.000000	0.354651	7.37618e+06	-56989.1	1055.82	-29737.7	0.000000	0.000000	6.354866	0.005594	NaN	0.000000	0.001581	0.001613	28.0817	0.084098	0.001846	45.5666	71.3923	-166.297	-0.033029	0.353350	-0.715191	-0.716492	0.005594	45.5666	-0.715283	-3.163240E+9	-1.768556E-12	NaN
1137	1.000000	0.362666	7.37618e+06	-56989.1	1055.82	-29737.7	0.000000	0.000000	6.362882	0.052401	NaN	0.000000	0.001577	0.001631	28.0819	0.030792	0.002070	14.8766	136.05	-162.936	0.106549	0.361374	-0.707176	-0.708468	0.052401	14.8766	-0.709818	-2.664182E+9	-1.966857E-11	NaN
1137	1.000000	0.370661	7.37618e+06	-56989.1	1055.82	-29737.7	0.000000	0.000000	6.370874	-0.023921	NaN	0.000000	0.001576	0.001606	28.0819	0.055095	0.002112	26.093	93.532	-165.306	0.015529	0.369390	-0.699181	-0.700452	-0.023921	26.093	-0.698494	-1.866204E+9	1.281786E-11	NaN
1137	1.000000	0.378669	7.37618e+06	-56989.1	1055.82	-29737.7	0.000000	0.000000	6.378886	0.064644	NaN	0.000000	0.001570	0.001604	28.082	0.164931	0.001858	88.7648	79.1166	-164.273	0.016391	0.377376	-0.691173	-0.692466	0.064644	88.7648	-0.691719	-1.508031E+9	-4.286672E-11	NaN
1137	1.000000	0.386696	7.37618e+06	-56989.1	1055.82	-29737.7	0.000000	0.000000	6.386909	-0.013601	NaN	0.000000	0.001537	0.001554	28.0818	0.045607	0.001968	23.1795	-156.585	-163.588	-0.068410	0.385365	-0.683146	-0.684477	-0.013601	23.1795	-0.682706	-1.135575E+9	1.197690E-11	NaN
1137	1.000000	0.394692	7.37618e+06	-56989.1	1055.82	-29737.7	0.000000	0.000000	6.394909	0.050570	NaN	0.000000	0.001537	0.001584	28.082	0.095067	0.002080	45.6944	108.284	-164.358	0.025033	0.393387	-0.675150	-0.676455	0.050570	45.6944	-0.675980	-9.187874E+8	-5.503961E-11	NaN
1137	1.000000	0.402702	7.37618e+06	-56989.1	1055.82	-29737.7	0.000000	0.000000	6.402913	-0.077054	NaN	0.000000	0.001589	0.001584	28.082	0.102968	0.002132	48.297	-117.006	-163.378	-0.098929	0.401387	-0.667140	-0.668455	-0.077054	48.297	-0.665944	-6.696797E+8	1.150612E-10	NaN
1137	1.000000	0.410686	7.37618e+06	-56989.1	1055.82	-29737.7	0.000000	0.000000	6.410900	-0.011236	NaN	0.000000	0.001594	0.001576	28.0821	0.084994	0.001963	43.294	24.0514	-166.126	-0.066018	0.409323	-0.659156	-0.660519	-0.011236	43.294	-0.658962	-5.373354E+8	2.091125E-11	NaN
1137	1.000000	0.418690	7.37618e+06	-56989.1	1055.82	-29737.7	0.000000	0.000000	6.418905	0.027620	NaN	0.000000	0.001591	0.001536	28.0821	0.060234	0.002096	28.7334	-169.601	-163.094	0.002253	0.417359	-0.651152	-0.652483	0.027620	28.7334	-0.651873	-4.296467E+8	-6.428443E-11	NaN
1137	1.000000	0.426703	7.37618e+06	-56989.1	1055.82	-29737.7	0.000000	0.000000	6.426917	-0.009705	NaN	0.000000	0.001568	0.001567	28.0818	0.071057	0.002063	34.4366	142.117	-164.909	-0.012852	0.425371	-0.643139	-0.644471	-0.009705	34.4366	-0.642927	-3.239270E+8	2.996163E-11	NaN
1137	1.000000	0.434689	7.37618e+06	-56989.1	1055.82	-29737.7	0.000000	0.000000	6.434903	-0.022442	NaN	0.000000	0.001637	0.001586	28.0822	0.113483	0.001974	57.5001	37.7801	-164.315	-0.012595	0.433388	-0.635153	-0.636454	-0.022442	57.5001	-0.634860	-2.510451E+8	8.939546E-11	NaN
1137	1.000000	0.442726	7.37618e+06	-56989.1	1055.82	-29737.7	0.000000	0.000000	6.442939	-0.035579	NaN	0.000000	0.001642	0.001583	28.0818	0.068698	0.002040	33.6817	174.522	-161.409	0.085348	0.441360	-0.627116	-0.628482	-0.035579	33.6817	-0.626323	-1.916569E+8	1.856375E-10	NaN
1137	1.000000	0.450649	7.37618e+06	-56989.1	1055.82	-29737.7	0.000000	0.000000	6.450863	-0.007613	NaN	0.000000	0.001633	0.001595	28.082	0.052977	0.001906	27.7963	41.5616	-167.718	-0.031124	0.449392	-0.619193	-0.620450	-0.007613	27.7963	-0.618988	-1.519556E+8	5.009852E-11	NaN
1137	1.000000	0.458725	7.37618e+06	-56989.1	1055.82	-29737.7	0.000000	0.000000	6.458941	0.016741	NaN	0.000000	0.001650	0.001574	28.0817	0.065422	0.002106	31.0609	-155.563	-166.329	0.050258	0.457410	-0.611117	-0.612432	0.016741	31.0609	-0.611521	-1.199600E+8	-1.395571E-10	NaN
1137	1.000000	0.466718	7.37618e+06	-56989.1	1055.82	-29737.7	0.000000	0.000000	6.466934	0.046457	NaN	0.000000	0.001648	0.001575	28.0816	0.114034	0.001950	58.4837	-158.49	-165.333	-0.034976	0.465389	-0.603124	-0.604453	0.046457	58.4837	-0.603720	-9.368765E+7	-4.958683E-10	NaN
1137	1.000000	0.474698	7.37618e+06	-56989.1	1055.82	-29737.7	0.000000	0.000000	6.474910	-0.067354	NaN	0.000000	0.001664	0.001600	28.0832	0.140253	0.002074	67.6098	155.376	-162.794	-0.033379	0.473410	-0.595144	-0.596432	-0.067354	67.6098	-0.594396	-6.970508E+7	9.662671E-10	NaN
1137	1.000000	0.482703	7.37618e+06	-56989.1	1055.82	-29737.7	0.000000	0.000000	6.482915	-0.057064	NaN	0.000000	0.001627	0.001607	28.0831	0.048917	0.001868	26.1876	121.334	-167.918	-0.093846	0.481418	-0.587139	-0.588424	-0.057064	26.1876	-0.585505	-5.256226E+7	1.085653E-9	NaN
1137	1.000000	0.490704	7.37618e+06	-56989.1	1055.82	-29737.7	0.000000	0.000000	6.490917	-0.025520	NaN	0.000000	0.001616	0.001564	28.0831	0.059486	0.001955	30.4267	10.3902	-166.625	0.019746	0.489413	-0.579138	-0.580429	-0.025520	30.4267	-0.578509	-4.208711E+7	6.063697E-10	NaN
1137	1.000000	0.498705	7.37618e+06	-56989.1	1055.82	-29737.7	0.000000	0.000000	6.498922	0.076383	NaN	0.000000	0.001705	0.001590	28.0829	0.036350	0.002095	17.3528	-16.8591	-164.891	0.074655	0.497393	-0.571137	-0.572449	0.076383	17.3528	-0.574439	-3.697810E+7	-2.065639E-9	NaN
1137	1.000000	0.506732	7.37618e+06	-56989.1	1055.82	-29737.7	0.000000	0.000000	6.506945	-0.032278	NaN	0.000000	0.001641	0.001620	28.0832	0.093607	0.002029	46.1296	94.1707	-166.75	-0.020645	0.505407	-0.563110	-0.564435	-0.032278	46.1296	-0.562585	-2.535931E+7	1.272836E-9	NaN
1137	1.000000	0.514756	7.37618e+06	-56989.1	1055.82	-29737.7	0.000000	0.000000	6.514971	0.002252	NaN	0.000000	0.001646	0.001633	28.0832	0.138275	0.001932	71.5872	9.976770	-166.952	0.026719	0.513413	-0.555086	-0.556429	0.002252	71.5872	-0.555109	-1.998479E+7	-1.126653E-10	NaN
1137	1.000000	0.522736	7.37618e+06	-56989.1	1055.82	-29737.7	0.000000	0.000000	6.522952	0.023463	NaN	0.000000	0.001654	0.001617	28.0829	0.047279	0.002100	22.5179	25.1918	-166.823	0.012122	0.521436	-0.547106	-0.548406	0.023463	22.5179	-0.547887	-1.587402E+7	-1.478069E-9	NaN
1137	1.000000	0.530744	7.37618e+06	-56989.1	1055.82	-29737.7	0.000000	0.000000	6.530957	-0.021039	NaN	0.000000	0.001607	0.001625	28.0832	0.016199	0.002119	7.646524	-57.1502	-166.392	-0.003370	0.529440	-0.539098	-0.540402	-0.021039	7.646524	-0.537035	-1.122602E+7	1.874150E-9	NaN
1137	1.000000	0.538733	7.37618e+06	-56989.1	1055.82	-29737.7	0.000000	0.000000	6.538947	-0.003218	NaN	0.000000	0.001643	0.001647	28.0831	0.099282	0.001985	50.0128	130.284	-163.808	-0.026406	0.537413	-0.531109	-0.532429	-0.003218	50.0128	-0.531061	-9.27487e+06	3.469278E-10	NaN
1137	1.000000	0.546707	7.37618e+06	-56989.1	1055.82	-29737.7	0.000000	0.000000	6.546921	0.015615	NaN	0.000000	0.001677	0.001630	28.0832	0.013282	0.001981	6.705019	129.088	-163.196	0.004265	0.545416	-0.523136	-0.524426	0.015615	6.705019	-0.524882	-7.61156e+06	-2.051521E-9	NaN
1137	1.000000	0.554756	7.37618e+06	-56989.1	1055.82	-29737.7	0.000000	0.000000	6.554970	-0.004223	NaN	0.000000	0.001638	0.001608	28.0829	0.081451	0.001989	40.9417	49.662	-169.504	0.047369	0.553400	-0.515086	-0.516442	-0.004223	40.9417	-0.515009	-5.54822e+06	7.611481E-10	NaN
1137	1.000000	0.562730	7.37618e+06	-56989.1	1055.82	-29737.7	0.000000	0.000000	6.562944	0.003285	NaN	0.000000	0.001635	0.001599	28.0828	0.025363	0.002063	12.2945	-36.7111	-165.115	0.009338	0.561394	-0.507112	-0.508448	0.003285	12.2945	-0.507313	-4.33489e+06	-7.579076E-10	NaN
1137	1.000000	0.570757	7.37618e+06	-56989.1	1055.82	-29737.7	0.000000	0.000000	6.570972	0.029133	NaN	0.000000	0.001651	0.001625	28.0832	0.070876	0.001867	37.9539	121.718	-167.344	-0.019789	0.569442	-0.499085	-0.500400	0.029133	37.9539	-0.499661	-3.39067e+06	-8.591981E-9	NaN
1137	1.000000	0.578742	7.37618e+06	-56989.1	1055.82	-29737.7	0.000000	0.000000	6.578957	0.020722	NaN	0.000000	0.001683	0.001608	28.0832	0.099787	0.001987	50.212	95.5323	-167.358	0.041405	0.577428	-0.491100	-0.492414	0.020722	50.212	-0.491410	-2.60071e+06	-7.967651E-9	NaN
1137	1.000000	0.586768	7.37618e+06	-56989.1	1055.82	-29737.7	0.000000	0.000000	6.586981	-0.030883	NaN	0.000000	0.001717	0.001628	28.0832	0.064293	0.002006	32.0448	-158.743	-165.444	-0.013284	0.585454	-0.483074	-0.484388	-0.030883	32.0448	-0.482351	-1.94281e+06	1.589590E-8	NaN
1137	1.000000	0.594754	7.37618e+06	-56989.1	1055.82	-29737.7	0.000000	0.000000	6.594968	-0.010954	NaN	0.000000	0.001719	0.001592	28.0828	0.058743	0.002166	27.1252	-25.9655	-164.455	0.030266	0.593399	-0.475088	-0.476443	-0.010954	27.1252	-0.474785	-1.52228e+06	7.195587E-9	NaN
1137	1.000000	0.602781	7.37618e+06	-56989.1	1055.82	-29737.7	0.000000	0.000000	6.602996	0.019887	NaN	0.000000	0.001698	0.001579	28.0829	0.041910	0.001990	21.0602	-151.925	-163.785	0.071651	0.601462	-0.467061	-0.468380	0.019887	21.0602	-0.467769	-1.21371e+06	-1.638520E-8	NaN
1137	1.000000	0.610755	7.37618e+06	-56989.1	1055.82	-29737.7	0.000000	0.000000	6.610970	0.011876	NaN	0.000000	0.001712	0.001601	28.0818	0.080597	0.002033	39.6484	99.1459	-165.2	0.017530	0.609415	-0.459087	-0.460427	0.011876	39.6484	-0.459311	-923294	-1.286260E-8	NaN
1137	1.000000	0.618796	7.37618e+06	-56989.1	1055.82	-29737.7	0.000000	0.000000	6.619010	0.002123	NaN	0.000000	0.001685	0.001598	28.0817	0.126130	0.001906	66.1625	146.139	-166.54	-0.056325	0.617471	-0.451046	-0.452371	0.002123	66.1625	-0.451071	-706995	-3.002846E-9	NaN
1137	1.000000	0.626774	7.37618e+06	-56989.1	1055.82	-29737.7	0.000000	0.000000	6.626987	-0.017176	NaN	0.000000	0.001695	0.001616	28.0817	0.036557	0.002023	18.0737	-109.591	-169.999	-0.005634	0.625477	-0.443068	-0.444365	-0.017176	18.0737	-0.442356	-532847	3.223449E-8	NaN
1137	1.000000	0.634784	7.37618e+06	-56989.1	1055.82	-29737.7	0.000000	0.000000	6.634997	-0.039029	NaN	0.000000	0.001663	0.001580	28.0814	0.029198	0.001973	14.8018	81.6566	-164.371	-0.074441	0.633467	-0.435058	-0.436375	-0.039029	14.8018	-0.433081	-394117	9.902761E-8	NaN
1137	1.000000	0.642780	7.37618e+06	-56989.1	1055.82	-29737.7	0.000000	0.000000	6.642997	0.070196	NaN	0.000000	0.001636	0.001594	28.082	0.047241	0.002098	22.5217	52.656	-164.15	0.008907	0.641439	-0.427062	-0.428403	0.070196	22.5217	-0.429400	-349601	-2.007887E-7	NaN
1137	1.000000	0.650788	7.37618e+06	-56989.1	1055.82	-29737.7	0.000000	0.000000	6.651001	-0.016805	NaN	0.000000	0.001648	0.001572	28.0815	0.055169	0.002137	25.8187	-1.869179	-167.602	-0.056839	0.649469	-0.419054	-0.420373	-0.016805	25.8187	-0.418566	-245513	6.844789E-8	NaN
1137	1.000000	0.658790	7.37618e+06	-56989.1	1055.82	-29737.7	0.000000	0.000000	6.659002	-0.056571	NaN	0.000000	0.001636	0.001537	28.0814	0.079953	0.002010	39.7847	164.329	-169.651	-0.036084	0.657517	-0.411052	-0.412325	-0.056571	39.7847	-0.409985	-185434	3.050725E-7	NaN
1137	1.000000	0.666789	7.37618e+06	-56989.1	1055.82	-29737.7	0.000000	0.000000	6.667003	0.008120	NaN	0.000000	0.001676	0.001554	28.0816	0.032063	0.001871	17.1356	-124.951	-167.626	-0.023934	0.665496	-0.403053	-0.404346	0.008120	17.1356	-0.403409	-149481	-5.431967E-8	NaN
1137	1.000000	0.674801	7.37618e+06	-56989.1	1055.82	-29737.7	0.000000	0.000000	6.675015	-0.010416	NaN	0.000000	0.001651	0.001563	28.0813	0.118813	0.002131	55.7473	-96.4631	-161.699	-0.005011	0.673499	-0.395041	-0.396343	-0.010416	55.7473	-0.394901	-113036	9.214481E-8	NaN
1137	1.000000	0.682801	7.37618e+06	-56989.1	1055.82	-29737.7	0.000000	0.000000	6.683014	-0.030149	NaN	0.000000	0.001664	0.001584	28.0821	0.026721	0.001951	13.6982	102.041	-167.333	-0.063954	0.681488	-0.387041	-0.388354	-0.030149	13.6982	-0.385391	-82638.3	3.648346E-7	NaN
1137	1.000000	0.690810	7.37618e+06	-56989.1	1055.82	-29737.7	0.000000	0.000000	6.691026	0.038966	NaN	0.000000	0.001693	0.001571	28.0813	0.059818	0.001894	31.5824	-165.434	-167.226	0.116299	0.689483	-0.379032	-0.380359	0.038966	31.5824	-0.379957	-69068	-5.641665E-7	NaN
1137	1.000000	0.698775	7.37618e+06	-56989.1	1055.82	-29737.7	0.000000	0.000000	6.698990	0.019263	NaN	0.000000	0.001678	0.001549	28.0814	0.085623	0.001991	43.0108	-153.137	-164.204	0.027998	0.697456	-0.371067	-0.372386	0.019263	43.0108	-0.371403	-52039	-3.701687E-7	NaN
1137	1.000000	0.706761	7.37618e+06	-56989.1	1055.82	-29737.7	0.000000	0.000000	6.706980	0.094512	NaN	0.000000	0.001646	0.001613	28.0815	0.068989	0.002056	33.5592	124.633	-167.031	-0.027734	0.705483	-0.363081	-0.364359	0.094512	33.5592	-0.365193	-42348.4	-2.231778E-6	NaN
1137	1.000000	0.714808	7.37618e+06	-56989.1	1055.82	-29737.7	0.000000	0.000000	6.715020	-0.058097	NaN	0.000000	0.001653	0.001636	28.0813	0.046141	0.002002	23.0437	153.008	-165.044	-0.022106	0.713527	-0.355034	-0.356315	-0.058097	23.0437	-0.353143	-28352.2	2.049116E-6	NaN
1137	1.000000	0.722804	7.37618e+06	-56989.1	1055.82	-29737.7	0.000000	0.000000	6.723020	0.033411	NaN	0.000000	0.001636	0.001605	28.0818	0.066411	0.002024	32.8161	-163.777	-168.465	0.024121	0.721509	-0.347038	-0.348333	0.033411	32.8161	-0.347802	-23718.1	-1.408678E-6	NaN
1137	1.000000	0.730820	7.37618e+06	-56989.1	1055.82	-29737.7	0.000000	0.000000	6.731036	0.030975	NaN	0.000000	0.001656	0.001615	28.0814	0.075759	0.002022	37.4704	58.947	-169.125	0.032058	0.729537	-0.339022	-0.340305	0.030975	37.4704	-0.339642	-18043.9	-1.716658E-6	NaN
1137	1.000000	0.738820	7.37618e+06	-56989.1	1055.82	-29737.7	0.000000	0.000000	6.739035	0.026388	NaN	0.000000	0.001670	0.001602	28.082	0.021630	0.001906	11.3513	-83.8782	-165.985	-0.027379	0.737534	-0.331022	-0.332309	0.026388	11.3513	-0.332766	-14319.6	-1.842815E-6	NaN
1137	1.000000	0.746828	7.37618e+06	-56989.1	1055.82	-29737.7	0.000000	0.000000	6.747040	-0.064763	NaN	0.000000	0.001651	0.001614	28.0826	0.098962	0.001955	50.6095	-158.827	-167.278	-0.052285	0.745485	-0.323014	-0.324357	-0.064763	50.6095	-0.322054	-9973.67	6.493447E-6	NaN
1137	1.000000	0.754832	7.37618e+06	-56989.1	1055.82	-29737.7	0.000000	0.000000	6.755048	0.025968	NaN	0.000000	0.001673	0.001634	28.083	0.057635	0.001909	30.1921	53.8796	-165.742	0.011820	0.753570	-0.315010	-0.316272	0.025968	30.1921	-0.315655	-8028.07	-3.234646E-6	NaN
1137	1.000000	0.762847	7.37618e+06	-56989.1	1055.82	-29737.7	0.000000	0.000000	6.763061	0.003884	NaN	0.000000	0.001671	0.001694	28.0832	0.019536	0.001942	10.0588	-67.1946	-167.148	-0.057293	0.761485	-0.306995	-0.308357	0.003884	10.0588	-0.307285	-6037.26	-6.432877E-7	NaN
1137	1.000000	0.770853	7.37618e+06	-56989.1	1055.82	-29737.7	0.000000	0.000000	6.771065	-0.069871	NaN	0.000000	0.001650	0.001638	28.0832	0.095820	0.002113	45.3551	102.925	-167.459	-0.105517	0.769517	-0.298989	-0.300325	-0.069871	45.3551	-0.297833	-4368.8	1.599317E-5	NaN
1137	1.000000	0.778823	7.37618e+06	-56989.1	1055.82	-29737.7	0.000000	0.000000	6.779036	-0.040291	NaN	0.000000	0.001674	0.001618	28.0833	0.038242	0.002037	18.7696	27.502	-167.866	0.043365	0.777615	-0.291019	-0.292227	-0.040291	18.7696	-0.289409	-3269.25	1.232413E-5	NaN
1137	1.000000	0.786845	7.37618e+06	-56989.1	1055.82	-29737.7	0.000000	0.000000	6.787059	0.000982	NaN	0.000000	0.001679	0.001564	28.0831	0.071312	0.002020	35.3109	-130.369	-166.628	-0.006591	0.785534	-0.282997	-0.284308	0.000982	35.3109	-0.283018	-2620.92	-3.745906E-7	NaN
1137	1.000000	0.794853	7.37618e+06	-56989.1	1055.82	-29737.7	0.000000	0.000000	6.795064	-0.084417	NaN	0.000000	0.001647	0.001597	28.083	0.115111	0.002082	55.2816	138.972	-167.603	-0.124430	0.793538	-0.274989	-0.276304	-0.084417	55.2816	-0.273844	-1904.94	4.431480E-5	NaN
1137	1.000000	0.802842	7.37618e+06	-56989.1	1055.82	-29737.7	0.000000	0.000000	6.803055	-0.035516	NaN	0.000000	0.001643	0.001623	28.0831	0.042690	0.002054	20.7797	-176.14	-169.799	0.000207	0.801518	-0.267000	-0.268324	-0.035516	20.7797	-0.265718	-1433.32	2.477897E-5	NaN
1137	1.000000	0.810840	7.37618e+06	-56989.1	1055.82	-29737.7	0.000000	0.000000	6.811057	0.067280	NaN	0.000000	0.001706	0.001637	28.0829	0.073908	0.001915	38.5954	98.3367	-164.093	-0.020686	0.809495	-0.259002	-0.260347	0.067280	38.5954	-0.260309	-1184.84	-5.678402E-5	NaN
1137	1.000000	0.818844	7.37618e+06	-56989.1	1055.82	-29737.7	0.000000	0.000000	6.819061	0.062101	NaN	0.000000	0.001696	0.001604	28.0828	0.055790	0.002072	26.9224	167.893	-167.272	0.044735	0.817560	-0.250998	-0.252282	0.062101	26.9224	-0.252728	-905.954	-6.854813E-5	NaN
1137	1.000000	0.826865	7.37618e+06	-56989.1	1055.82	-29737.7	0.000000	0.000000	6.827077	-0.065652	NaN	0.000000	0.001703	0.001622	28.0831	0.067117	0.001952	34.3789	-155.991	-166.503	0.041821	0.825535	-0.242977	-0.244307	-0.065652	34.3789	-0.241545	-607.66	0.000108	NaN
1137	1.000000	0.834863	7.37618e+06	-56989.1	1055.82	-29737.7	0.000000	0.000000	6.835079	0.038909	NaN	0.000000	0.001689	0.001594	28.0832	0.110857	0.001955	56.7161	158.756	-168.573	-0.006765	0.833536	-0.234979	-0.236306	0.038909	56.7161	-0.235493	-488.643	-7.962656E-5	NaN
1137	1.000000	0.842877	7.37618e+06	-56989.1	1055.82	-29737.7	0.000000	0.000000	6.843093	0.036383	NaN	0.000000	0.001653	0.001606	28.0828	0.173196	0.001964	88.189	23.6882	-165.505	-0.015443	0.841562	-0.226965	-0.228280	0.036383	88.189	-0.227274	-362.581	-0.000100	NaN
1137	1.000000	0.850844	7.37618e+06	-56989.1	1055.82	-29737.7	0.000000	0.000000	6.851057	-0.018749	NaN	0.000000	0.001681	0.001623	28.083	0.121332	0.002123	57.1543	-99.1375	-166.886	-0.042961	0.849571	-0.218998	-0.220271	-0.018749	57.1543	-0.218752	-265.292	7.067194E-5	NaN
1137	1.000000	0.858878	7.37618e+06	-56989.1	1055.82	-29737.7	0.000000	0.000000	6.859091	-0.014320	NaN	0.000000	0.001685	0.001608	28.0829	0.030782	0.001939	15.8759	141.31	-165.378	-0.045574	0.857562	-0.210964	-0.212280	-0.014320	15.8759	-0.210288	-193.857	7.386739E-5	NaN
1137	1.000000	0.866877	7.37618e+06	-56989.1	1055.82	-29737.7	0.000000	0.000000	6.867091	-0.002626	NaN	0.000000	0.001617	0.001600	28.0831	0.086348	0.001985	43.5041	84.5561	-165.615	-0.018965	0.865556	-0.202965	-0.204286	-0.002626	43.5041	-0.202920	-147.09	1.785150E-5	NaN
1137	1.000000	0.874856	7.37618e+06	-56989.1	1055.82	-29737.7	0.000000	0.000000	6.875069	-0.030475	NaN	0.000000	0.001660	0.001620	28.0831	0.024194	0.002037	11.8746	-106.261	-161.525	-0.083889	0.873560	-0.194986	-0.196282	-0.030475	11.8746	-0.193061	-101.166	0.000301	NaN
1137	1.000000	0.882886	7.37618e+06	-56989.1	1055.82	-29737.7	0.000000	0.000000	6.883102	0.045993	NaN	0.000000	0.001653	0.001584	28.082	0.136843	0.002040	67.0717	154.025	-167.984	0.085573	0.881597	-0.186956	-0.188245	0.045993	67.0717	-0.187471	-81.5986	-0.000564	NaN
1137	1.000000	0.890856	7.37618e+06	-56989.1	1055.82	-29737.7	0.000000	0.000000	6.891072	0.056245	NaN	0.000000	0.001625	0.001600	28.0819	0.088014	0.001970	44.6666	-100.384	-164.534	0.040560	0.889595	-0.178986	-0.180247	0.056245	44.6666	-0.179931	-60.854	-0.000924	NaN
1137	1.000000	0.898883	7.37618e+06	-56989.1	1055.82	-29737.7	0.000000	0.000000	6.899099	0.035627	NaN	0.000000	0.001677	0.001622	28.0816	0.090677	0.001999	45.36	154.036	-165.467	-0.082327	0.897554	-0.170959	-0.172288	0.035627	45.36	-0.171548	-43.6966	-0.000815	NaN
1137	1.000000	0.906861	7.37618e+06	-56989.1	1055.82	-29737.7	0.000000	0.000000	6.907075	0.009786	NaN	0.000000	0.001665	0.001579	28.0819	0.063489	0.001940	32.7325	26.9965	-166.134	0.054770	0.905634	-0.162981	-0.164208	0.009786	32.7325	-0.163206	-31.2413	-0.000313	NaN
1137	1.000000	0.914901	7.37618e+06	-56989.1	1055.82	-29737.7	0.000000	0.000000	6.915114	-0.030971	NaN	0.000000	0.001659	0.001590	28.0819	0.091481	0.001896	48.2377	-15.8033	-162.663	-0.002018	0.913584	-0.154941	-0.156258	-0.030971	48.2377	-0.154460	-21.8198	0.001419	NaN
1137	1.000000	0.922871	7.37618e+06	-56989.1	1055.82	-29737.7	0.000000	0.000000	6.923088	0.050081	NaN	0.000000	0.001647	0.001610	28.0818	0.148822	0.002027	73.4333	6.439272	-166.625	0.029208	0.921571	-0.146971	-0.148271	0.050081	73.4333	-0.147482	-16.29	-0.003074	NaN
1137	1.000000	0.930904	7.37618e+06	-56989.1	1055.82	-29737.7	0.000000	0.000000	6.931118	-0.020736	NaN	0.000000	0.001656	0.001600	28.0826	0.089043	0.002090	42.6043	-29.2741	-166.693	0.008249	0.929587	-0.138938	-0.140255	-0.020736	42.6043	-0.138573	-11.1199	0.001865	NaN
1137	1.000000	0.938909	7.37618e+06	-56989.1	1055.82	-29737.7	0.000000	0.000000	6.939122	-0.033911	NaN	0.000000	0.001589	0.001628	28.0817	0.035477	0.001976	17.9525	-100.589	-171.08	0.033879	0.937601	-0.130933	-0.132241	-0.033911	17.9525	-0.129516	-7.457647	0.004547	NaN
1137	1.000000	0.946941	7.37618e+06	-56989.1	1055.82	-29737.7	0.000000	0.000000	6.947154	-0.045501	NaN	0.000000	0.001647	0.001618	28.082	0.130123	0.001951	66.6944	72.5599	-169.108	0.013129	0.945560	-0.122901	-0.124282	-0.045501	66.6944	-0.122389	-5.395987	0.008432	NaN
1137	1.000000	0.954917	7.37618e+06	-56989.1	1055.82	-29737.7	0.000000	0.000000	6.955131	-0.006319	NaN	0.000000	0.001637	0.001623	28.0819	0.104558	0.001900	55.0163	74.7516	-165.668	-0.048653	0.953605	-0.114925	-0.116237	-0.006319	55.0163	-0.114839	-3.791282	0.001667	NaN
1137	1.000000	0.962908	7.37618e+06	-56989.1	1055.82	-29737.7	0.000000	0.000000	6.963122	-0.016659	NaN	0.000000	0.001651	0.001599	28.0818	0.068285	0.002015	33.8948	-49.6212	-166.413	0.013640	0.961661	-0.106934	-0.108181	-0.016659	33.8948	-0.106565	-2.540135	0.006558	NaN
1137	1.000000	0.970913	7.37618e+06	-56989.1	1055.82	-29737.7	0.000000	0.000000	6.971127	-0.003860	NaN	0.000000	0.001645	0.001599	28.0818	0.018512	0.002026	9.138993	168.213	-166.84	-0.024534	0.969591	-0.098929	-0.100251	-0.003860	9.138993	-0.098613	-1.701777	0.002269	NaN
1137	1.000000	0.978878	7.37618e+06	-56989.1	1055.82	-29737.7	0.000000	0.000000	6.979091	-0.017860	NaN	0.000000	0.001648	0.001580	28.0816	0.149877	0.001879	79.7687	-65.1107	-165.753	-0.012315	0.977627	-0.090964	-0.092215	-0.017860	79.7687	-0.090796	-1.128377	0.015828	NaN
1137	1.000000	0.986922	7.37618e+06	-56989.1	1055.82	-29737.7	0.000000	0.000000	6.987136	-0.001360	NaN	0.000000	0.001657	0.001632	28.082	0.047042	0.002025	23.2335	-111.058	-163.993	-0.003730	0.985603	-0.082920	-0.084239	-0.001360	23.2335	-0.082876	-0.729331	0.001865	NaN
1137	1.000000	0.994941	7.37618e+06	-56989.1	1055.82	-29737.7	0.000000	0.000000	6.995153	-0.066763	NaN	0.000000	0.001665	0.001631	28.0817	0.093644	0.002066	45.3315	89.3703	-166.592	-0.102919	0.993638	-0.074901	-0.076204	-0.066763	45.3315	-0.073796	-0.429775	0.155344	NaN
1137	1.000000	1.002954	7.37618e+06	-56989.1	1055.82	-29737.7	0.000000	0.000000	7.003164	-0.107964	NaN	0.000000	0.001652	0.001565	28.0817	0.078081	0.002023	38.5952	106.297	-169.489	-0.048367	1.001622	-0.066888	-0.068220	-0.107964	38.5952	-0.064790	-0.245888	0.439076	NaN
1137	1.000000	1.010974	7.37618e+06	-56989.1	1055.82	-29737.7	0.000000	0.000000	7.011185	-0.075568	NaN	0.000000	0.001649	0.001589	28.0819	0.048221	0.001923	25.0809	87.229	-167.16	-0.030864	1.009625	-0.058868	-0.060217	-0.075568	25.0809	-0.056608	-0.143602	0.526233	NaN
1137	1.000000	1.018951	7.37618e+06	-56989.1	1055.82	-29737.7	0.000000	0.000000	7.019166	0.029668	NaN	0.000000	0.001672	0.001579	28.0822	0.050415	0.001947	25.8927	109.02	-168.418	-0.063427	1.017630	-0.050891	-0.052212	0.029668	25.8927	-0.051751	-0.103039	-0.287932	NaN
1137	1.000000	1.026966	7.37618e+06	-56989.1	1055.82	-29737.7	0.000000	0.000000	7.027180	-0.001340	NaN	0.000000	0.001622	0.001608	28.083	0.075521	0.002094	36.063	60.3852	-167.384	0.043481	1.025608	-0.042876	-0.044234	-0.001340	36.063	-0.042848	-0.055232	0.024265	NaN
1137	1.000000	1.034927	7.37618e+06	-56989.1	1055.82	-29737.7	0.000000	0.000000	7.035145	0.069093	NaN	0.000000	0.001629	0.001619	28.0829	0.220121	0.002026	108.672	-9.008716	-170.062	-0.023534	1.033631	-0.034915	-0.036211	0.069093	108.672	-0.035391	-0.032887	-2.100899	NaN
1137	1.000000	1.042945	7.37618e+06	-56989.1	1055.82	-29737.7	0.000000	0.000000	7.043214	1.334147	NaN	0.000000	0.001622	0.001627	28.0832	0.966941	0.001943	497.765	11.5622	-165.174	1.095691	1.041597	-0.026897	-0.028245	1.334147	497.765	-0.028907	-0.021466	-62.1529	NaN
1137	1.000000	1.050967	7.37618e+06	-56989.1	1055.82	-29737.7	0.000000	0.000000	7.051301	2.910170	NaN	0.000000	0.001647	0.001624	28.0833	1.599215	0.001959	816.512	12.7207	-167.789	2.790680	1.049653	-0.018875	-0.020189	2.910170	816.512	-0.021548	-0.013752	-211.62	NaN
1137	1.000000	1.058975	7.37618e+06	-56989.1	1055.82	-29737.7	0.000000	0.000000	7.059380	4.629109	NaN	0.000000	0.001623	0.001603	28.0831	2.813413	0.002050	1372.35	11.1828	-166.529	4.546756	1.057620	-0.010867	-0.012222	4.629109	1372.35	-0.013397	-0.008332	-555.604	NaN
1137	1.000000	1.066971	7.37618e+06	-56989.1	1055.82	-29737.7	0.000000	0.000000	7.067476	7.073949	NaN	0.000000	0.001611	0.001582	28.0831	4.806303	0.001911	2514.7	15.9814	-171.739	6.602098	1.065617	-0.002871	-0.004225	7.073949	2514.7	-0.004981	-0.003405	-2077.71	NaN
1137	2.000000	1.071541	7.37618e+06	-56989.1	1055.82	-29737.7	0.000000	0.000000	7.072148	9.545646	NaN	0.000000	0.001611	0.001654	28.0831	6.896786	0.001809	3813.19	6.458795	-170.253	9.635692	1.071208	0.001699	0.001366	9.545646	3813.19	-0.000179	-0.000133	-71620.3	NaN
1137	2.000000	1.073486	7.37618e+06	-56989.1	1055.82	-29737.7	0.000000	0.000000	7.074217	12.5509	NaN	0.000000	0.001606	0.001599	28.0831	8.553891	0.001739	4918.42	6.428412	-172.191	11.8512	1.073154	0.003644	0.003312	12.5509	4918.42	0.001730	0.001338	9381.33	122855
1137	2.000000	1.075438	7.37618e+06	-56989.1	1055.82	-29737.7	0.000000	0.000000	7.076303	15.8177	NaN	0.000000	0.001618	0.001575	28.0831	9.827065	0.001651	5951.51	2.240267	-169.682	15.0049	1.075086	0.005596	0.005244	15.8177	5951.51	0.003603	0.002893	5466.81	101087
1137	2.000000	1.077457	7.37618e+06	-56989.1	1055.82	-29737.7	0.000000	0.000000	7.078565	21.7258	NaN	0.000000	0.001635	0.001598	28.083	12.5672	0.001809	6946.24	4.927042	-174.884	21.4253	1.077163	0.007615	0.007321	21.7258	6946.24	0.005269	0.004380	4960.27	95893.1
1137	2.000000	1.079426	7.37618e+06	-56989.1	1055.82	-29737.7	0.000000	0.000000	7.080833	28.9852	NaN	0.000000	0.001608	0.001632	28.0832	14.6158	0.001931	7570.4	4.494109	-172.989	27.9785	1.079107	0.009584	0.009265	28.9852	7570.4	0.006712	0.005751	5040.08	91205.8
1137	2.000000	1.081412	7.37618e+06	-56989.1	1055.82	-29737.7	0.000000	0.000000	7.083181	37.7921	NaN	0.000000	0.001585	0.001629	28.0825	16.5848	0.001835	9036.61	7.051477	-178.31	36.0203	1.081075	0.011570	0.011233	37.7921	9036.61	0.008433	0.007492	5044.61	95387.7
1137	2.000000	1.083407	7.37618e+06	-56989.1	1055.82	-29737.7	0.000000	0.000000	7.085412	43.5328	NaN	0.000000	0.001609	0.001635	28.0828	18.6589	0.001902	9811.59	7.670150	-179.339	43.1813	1.083141	0.013565	0.013299	43.5328	9811.59	0.010237	0.009446	4608.42	92231.7
1137	2.000000	1.085405	7.37618e+06	-56989.1	1055.82	-29737.7	0.000000	0.000000	7.087856	54.3509	NaN	0.000000	0.001636	0.001597	28.0829	19.106	0.001797	10629.7	4.134655	-176.088	52.7004	1.085130	0.015563	0.015288	54.3509	10629.7	0.011728	0.011166	4867.42	91904.9
1137	2.000000	1.087391	7.37618e+06	-56989.1	1055.82	-29737.7	0.000000	0.000000	7.090230	63.8042	NaN	0.000000	0.001620	0.001602	28.0831	21.3988	0.001782	12008.5	3.917272	-177.616	63.4326	1.087075	0.017549	0.017233	63.8042	12008.5	0.013564	0.013417	4755.35	94717
1137	2.000000	1.089420	7.37618e+06	-56989.1	1055.82	-29737.7	0.000000	0.000000	7.092799	76.9276	NaN	0.000000	0.001572	0.001683	28.0829	23.1873	0.001724	13450	5.359919	-179.781	75.932	1.089083	0.019578	0.019241	76.9276	13450	0.015288	0.015671	4908.8	98161.5
1137	2.000000	1.091316	7.37618e+06	-56989.1	1055.82	-29737.7	0.000000	0.000000	7.095248	90.368	NaN	0.000000	0.001574	0.001659	28.0828	24.4663	0.001759	13913	3.654054	-179.174	87.2707	1.091050	0.021474	0.021208	90.368	13913	0.016602	0.017482	5169.24	96139.4
1137	2.000000	1.093367	7.37618e+06	-56989.1	1055.82	-29737.7	0.000000	0.000000	7.097752	101.369	NaN	0.000000	0.001592	0.001668	28.0816	26.587	0.001841	14441.3	3.245776	-178.499	98.7214	1.093034	0.023525	0.023192	101.369	14441.3	0.018261	0.019882	5098.44	93571.6
1137	2.000000	1.095387	7.37618e+06	-56989.1	1055.82	-29737.7	0.000000	0.000000	7.100359	115.626	NaN	0.000000	0.001573	0.001660	28.0818	27.4683	0.001812	15160.8	2.494205	-177.418	114.434	1.095066	0.025545	0.025224	115.626	15160.8	0.019825	0.022268	5192.38	92822.2
1137	2.000000	1.097345	7.37618e+06	-56989.1	1055.82	-29737.7	0.000000	0.000000	7.102907	129.967	NaN	0.000000	0.001597	0.001656	28.0817	30.2386	0.001823	16583	4.765713	178.202	128.245	1.097107	0.027503	0.027265	129.967	16583	0.021625	0.025160	5165.51	95516.4
1137	2.000000	1.099422	7.37618e+06	-56989.1	1055.82	-29737.7	0.000000	0.000000	7.105445	141.18	NaN	0.000000	0.001575	0.001665	28.0823	32.2259	0.001832	17593.8	6.984843	177.021	141.286	1.099013	0.029580	0.029171	141.18	17593.8	0.023561	0.028450	4962.33	95298.9
1137	2.000000	1.101353	7.37618e+06	-56989.1	1055.82	-29737.7	0.000000	0.000000	7.108122	159.303	NaN	0.000000	0.001592	0.001672	28.0818	33.0424	0.001747	18909.9	2.072441	-179.285	156.04	1.100928	0.031511	0.031086	159.303	18909.9	0.025193	0.031367	5078.6	97549.1
1137	2.000000	1.103392	7.37618e+06	-56989.1	1055.82	-29737.7	0.000000	0.000000	7.110614	170.34	NaN	0.000000	0.001569	0.001685	28.0816	35.9873	0.001860	19350.2	6.761669	174.48	169.481	1.103117	0.033550	0.033275	170.34	19350.2	0.026947	0.034654	4915.45	94968.9
1137	2.000000	1.105358	7.37618e+06	-56989.1	1055.82	-29737.7	0.000000	0.000000	7.113290	187.598	NaN	0.000000	0.001597	0.001658	28.0818	36.3348	0.001846	19679.2	6.951465	176.782	187.327	1.105076	0.035516	0.035234	187.598	19679.2	0.028366	0.037425	5012.63	92939.3
1137	2.000000	1.107348	7.37618e+06	-56989.1	1055.82	-29737.7	0.000000	0.000000	7.115926	203.272	NaN	0.000000	0.001581	0.001720	28.0818	38.2179	0.001868	20462	6.229052	174.929	200.495	1.106980	0.037506	0.037138	203.272	20462	0.030056	0.040860	4974.88	92485.5
1137	2.000000	1.109368	7.37618e+06	-56989.1	1055.82	-29737.7	0.000000	0.000000	7.118212	209.746	NaN	0.000000	0.001575	0.001690	28.0816	39.266	0.001944	20197.9	3.046540	178.869	207.203	1.109105	0.039526	0.039263	209.746	20197.9	0.031738	0.044423	4721.61	87554.4
1137	2.000000	1.111415	7.37618e+06	-56989.1	1055.82	-29737.7	0.000000	0.000000	7.120914	225.672	NaN	0.000000	0.001574	0.001649	28.0822	40.5544	0.001869	21701.9	5.582003	175.646	226.346	1.111033	0.041573	0.041191	225.672	21701.9	0.033774	0.048929	4612.24	89637.2
1137	2.000000	1.113382	7.37618e+06	-56989.1	1055.82	-29737.7	0.000000	0.000000	7.123186	233.063	NaN	0.000000	0.001530	0.001660	28.0819	41.8496	0.001888	22166.4	0.684996	-179.504	232.568	1.113096	0.043540	0.043254	233.063	22166.4	0.035655	0.053281	4374.23	87736.8
1137	2.000000	1.115375	7.37618e+06	-56989.1	1055.82	-29737.7	0.000000	0.000000	7.125939	251.564	NaN	0.000000	0.001580	0.001642	28.0818	42.0657	0.001911	22010.7	5.239351	177.477	252.402	1.115018	0.045533	0.045176	251.564	22010.7	0.036961	0.056411	4459.51	84669.4
1137	2.000000	1.117283	7.37618e+06	-56989.1	1055.82	-29737.7	0.000000	0.000000	7.127830	251.149	NaN	0.000000	0.001592	0.001687	28.0815	43.8392	0.001859	23581.6	1.041587	179.482	247.171	1.116969	0.047441	0.047127	251.149	23581.6	0.039453	0.062623	4010.51	86095.4
1137	2.000000	1.119329	7.37618e+06	-56989.1	1055.82	-29737.7	0.000000	0.000000	7.130569	267.993	NaN	0.000000	0.001629	0.001683	28.0817	44.5194	0.001799	24747.3	4.874794	176.463	266.159	1.118889	0.049487	0.049047	267.993	24747.3	0.041365	0.067603	3964.2	86959.4
1137	2.000000	1.121397	7.37618e+06	-56989.1	1055.82	-29737.7	0.000000	0.000000	7.132676	268.919	NaN	0.000000	0.001599	0.001703	28.0818	46.8496	0.001834	25543.5	7.576146	174.092	269.626	1.120977	0.051555	0.051135	268.919	25543.5	0.043659	0.073826	3642.59	85891
1137	2.000000	1.123299	7.37618e+06	-56989.1	1055.82	-29737.7	0.000000	0.000000	7.134947	277.898	NaN	0.000000	0.001603	0.001663	28.0814	46.8198	0.001781	26284.1	3.034686	176.319	275.671	1.123075	0.053457	0.053233	277.898	26284.1	0.045527	0.079091	3513.66	85389.4
1137	2.000000	1.125306	7.37618e+06	-56989.1	1055.82	-29737.7	0.000000	0.000000	7.137395	288.613	NaN	0.000000	0.001610	0.001642	28.0818	47.5096	0.001883	25230.6	2.899508	177.391	285.721	1.125079	0.055464	0.055237	288.613	25230.6	0.046885	0.083028	3476.08	79999.7
1137	2.000000	1.127340	7.37618e+06	-56989.1	1055.82	-29737.7	0.000000	0.000000	7.139598	292.736	NaN	0.000000	0.001604	0.001651	28.0828	49.2867	0.001899	25952.9	2.368916	177.889	291.069	1.126924	0.057498	0.057082	292.736	25952.9	0.049038	0.089463	3272.13	79275.2
1137	2.000000	1.129302	7.37618e+06	-56989.1	1055.82	-29737.7	0.000000	0.000000	7.141995	303.302	NaN	0.000000	0.001634	0.001662	28.0829	49.9524	0.001834	27243	2.025386	177.619	299.349	1.128975	0.059460	0.059133	303.302	27243	0.051110	0.095875	3163.51	80384.8
1137	2.000000	1.131370	7.37618e+06	-56989.1	1055.82	-29737.7	0.000000	0.000000	7.143998	301.716	NaN	0.000000	0.001623	0.001680	28.0826	51.9353	0.001965	26433.1	6.464300	175.525	301.651	1.131017	0.061528	0.061175	301.716	26433.1	0.052967	0.101805	2963.66	75689.7
1137	2.000000	1.133294	7.37618e+06	-56989.1	1055.82	-29737.7	0.000000	0.000000	7.146342	311.924	NaN	0.000000	0.001626	0.001701	28.0828	53.1582	0.002035	26119.5	6.421594	173.818	308.302	1.132915	0.063452	0.063073	311.924	26119.5	0.054495	0.106812	2920.31	73017.6
1137	2.000000	1.135354	7.37618e+06	-56989.1	1055.82	-29737.7	0.000000	0.000000	7.148493	314.135	NaN	0.000000	0.001625	0.001679	28.0832	52.7702	0.001881	28049.5	5.007674	175.004	313.37	1.135102	0.065512	0.065260	314.135	28049.5	0.057112	0.115658	2716.07	75354.6
1137	2.000000	1.137351	7.37618e+06	-56989.1	1055.82	-29737.7	0.000000	0.000000	7.150806	321.809	NaN	0.000000	0.001669	0.001665	28.0831	54.0818	0.001863	29025.7	6.785944	172.234	321.386	1.136926	0.067509	0.067084	321.809	29025.7	0.059194	0.122933	2617.76	75634.9
1137	2.000000	1.139370	7.37618e+06	-56989.1	1055.82	-29737.7	0.000000	0.000000	7.152785	320.858	NaN	0.000000	0.001636	0.001659	28.0828	54.8528	0.002021	27139.5	4.002498	175.933	320.786	1.139057	0.069528	0.069215	320.858	27139.5	0.060661	0.128190	2502.99	69254.5
1137	2.000000	1.141388	7.37618e+06	-56989.1	1055.82	-29737.7	0.000000	0.000000	7.155099	328.027	NaN	0.000000	0.001611	0.001674	28.0827	56.3309	0.001888	29839.5	5.007211	174.254	331.858	1.141100	0.071546	0.071258	328.027	29839.5	0.063302	0.137913	2378.51	73411.2
1137	2.000000	1.143434	7.37618e+06	-56989.1	1055.82	-29737.7	0.000000	0.000000	7.157469	335.91	NaN	0.000000	0.001617	0.001643	28.083	56.6295	0.001761	32149.6	3.320357	176.154	342.421	1.143115	0.073592	0.073273	335.91	32149.6	0.065756	0.147253	2281.18	76545
1137	2.000000	1.145353	7.37618e+06	-56989.1	1055.82	-29737.7	0.000000	0.000000	7.159747	344.648	NaN	0.000000	0.001592	0.001662	28.0829	58.3535	0.001855	31459.6	4.851510	174.179	343.682	1.144995	0.075511	0.075153	344.648	31459.6	0.067294	0.153255	2248.85	73420.8
1137	2.000000	1.147326	7.37618e+06	-56989.1	1055.82	-29737.7	0.000000	0.000000	7.161926	349.643	NaN	0.000000	0.001621	0.001626	28.0831	59.1428	0.001731	34166.2	2.558453	175.638	347.282	1.147112	0.077484	0.077270	349.643	34166.2	0.069809	0.163312	2140.95	77243.5
1137	2.000000	1.149299	7.37618e+06	-56989.1	1055.82	-29737.7	0.000000	0.000000	7.164398	361.78	NaN	0.000000	0.001639	0.001641	28.0832	61.9936	0.001845	33595.1	4.358625	174.522	358.548	1.149001	0.079457	0.079159	361.78	33595.1	0.071380	0.169746	2131.3	74498.6
1137	2.000000	1.151222	7.37618e+06	-56989.1	1055.82	-29737.7	0.000000	0.000000	7.166408	363.892	NaN	0.000000	0.001649	0.001643	28.0828	63.8152	0.001828	34918.9	4.869007	172.806	359.314	1.151036	0.081380	0.081194	363.892	34918.9	0.073564	0.178886	2034.21	75430.2
1137	2.000000	1.153432	7.37618e+06	-56989.1	1055.82	-29737.7	0.000000	0.000000	7.168839	369.271	NaN	0.000000	0.001595	0.001661	28.0831	66.1837	0.001859	35598.9	6.713417	171.184	374.503	1.153020	0.083590	0.083178	369.271	35598.9	0.075810	0.188523	1958.76	74907.9
1137	2.000000	1.155293	7.37618e+06	-56989.1	1055.82	-29737.7	0.000000	0.000000	7.171290	383.592	NaN	0.000000	0.001641	0.001634	28.0829	66.2295	0.001660	39908	5.458065	171.423	382.418	1.155019	0.085451	0.085177	383.592	39908	0.078242	0.199224	1925.43	81688.8
1137	2.000000	1.157357	7.37618e+06	-56989.1	1055.82	-29737.7	0.000000	0.000000	7.173741	393.006	NaN	0.000000	0.001631	0.001635	28.0827	70.3619	0.001982	35492.5	9.124863	170.217	396.022	1.156926	0.087515	0.087084	393.006	35492.5	0.079210	0.203558	1930.68	71872.9
1137	2.000000	1.159295	7.37618e+06	-56989.1	1055.82	-29737.7	0.000000	0.000000	7.176217	406.084	NaN	0.000000	0.001620	0.001628	28.083	71.5633	0.001948	36743.3	7.767239	171.449	404.77	1.158875	0.089453	0.089033	406.084	36743.3	0.081164	0.212443	1911.5	72833.2
1137	2.000000	1.161291	7.37618e+06	-56989.1	1055.82	-29737.7	0.000000	0.000000	7.178216	406.17	NaN	0.000000	0.001600	0.001639	28.0815	71.6848	0.001764	40635	4.437099	172.816	405.287	1.160947	0.091449	0.091105	406.17	40635	0.083952	0.225428	1801.77	78193.2
1137	2.000000	1.163309	7.37618e+06	-56989.1	1055.82	-29737.7	0.000000	0.000000	7.180163	404.429	NaN	0.000000	0.001571	0.001659	28.082	74.8773	0.001871	40010.4	4.726800	172.173	402.832	1.163185	0.093467	0.093343	404.429	40010.4	0.085886	0.234645	1723.58	75464.1
1137	2.000000	1.165236	7.37618e+06	-56989.1	1055.82	-29737.7	0.000000	0.000000	7.182894	423.989	NaN	0.000000	0.001648	0.001656	28.0815	75.4865	0.001851	40776.1	2.495175	174.605	421.212	1.164989	0.095394	0.095147	423.989	40776.1	0.087595	0.242938	1745.25	75584.2
1137	2.000000	1.167299	7.37618e+06	-56989.1	1055.82	-29737.7	0.000000	0.000000	7.185372	434.053	NaN	0.000000	0.001651	0.001726	28.0815	78.752	0.001740	45253.6	6.100350	170.043	433.547	1.167103	0.097457	0.097261	434.053	45253.6	0.090264	0.256149	1694.53	81692
1137	2.000000	1.168768	7.37618e+06	-56989.1	1055.82	-29737.7	0.000000	0.000000	7.187468	449.297	NaN	0.000000	0.001611	0.001698	28.0815	79.0777	0.001780	44417.9	4.378943	-8.101407	445.212	1.168524	0.098926	0.098682	449.297	44417.9	0.091340	0.261571	1717.69	79348.1