File: remote_trans/data/nanoindenter/0828-1/data/Data_2025-08-06,11h17m57s/2025-07-22_16-23-58_1_601.txt
2025-07-22, 16:23:58, 1
Index	Phase	Displacement	Time	Pos X	Pos Y	Pos Z	Rot A	Rot B	Piezo Z	Force A	Force B	Gripper	Voltage A	Voltage B	Temperature	Amplitude force	Amplitude pos	Stiffness	Phase shift	Phase excitation	Force A raw	Displacement raw	HMax	HMax raw	Real Force	Real Stiffness	Contact Depth	Area	Hardness	Reduced Mod.
[#]	[#]	[um]	[s]	[um]	[um]	[um]	[m°]	[m°]	[um]	[uN]	[uN]	[V]	[V]	[V]	[°C]	[uN]	[um]	[N/m]	[°]	[°]	[uN]	[um]	[um]	[um]	[uN]	[N/m]	[um]	[um^2]	[MPa]	[MPa]
601	1.000000	0.003105	7.37093e+06	-47039.1	1005.82	-29767.2	0.000000	0.000000	6.002827	-0.057944	NaN	0.000000	0.001514	0.001792	28.0809	0.071709	0.000910	78.8373	169.284	-168.151	-0.007641	0.001806	-1.088910	-1.090210	-0.057944	78.8373	-1.088359	-3.497681E+14	1.656643E-16	NaN
601	1.000000	0.013133	7.37093e+06	-47039.1	1005.82	-29767.2	0.000000	0.000000	6.012853	-0.069995	NaN	0.000000	0.001549	0.001774	28.0808	0.056611	0.001269	44.6162	-62.9757	14.7817	-0.024565	0.011742	-1.078883	-1.080274	-0.069995	44.6162	-1.077706	-2.516017E+14	2.781961E-16	NaN
601	1.000000	0.023019	7.37093e+06	-47039.1	1005.82	-29767.2	0.000000	0.000000	6.022742	-0.018861	NaN	0.000000	0.001533	0.001780	28.0807	0.069461	0.001687	41.1823	-37.572	-166.394	0.111956	0.021733	-1.068996	-1.070283	-0.018861	41.1823	-1.068653	-1.901477E+14	9.918954E-17	NaN
601	1.000000	0.033035	7.37093e+06	-47039.1	1005.82	-29767.2	0.000000	0.000000	6.032761	0.068705	NaN	0.000000	0.001534	0.001736	28.0804	0.044220	0.001936	22.8452	7.052609	14.1549	0.079262	0.031631	-1.058981	-1.060385	0.068705	22.8452	-1.061237	-1.511619E+14	-4.545142E-16	NaN
601	1.000000	0.043052	7.37093e+06	-47039.1	1005.82	-29767.2	0.000000	0.000000	6.042775	0.000404	NaN	0.000000	0.001533	0.001760	28.0811	0.112803	0.001891	59.6463	119.376	-167.465	-0.006326	0.041694	-1.048964	-1.050322	0.000404	59.6463	-1.048969	-1.034087E+14	-3.907983E-18	NaN
601	1.000000	0.053045	7.37093e+06	-47039.1	1005.82	-29767.2	0.000000	0.000000	6.052770	0.024944	NaN	0.000000	0.001496	0.001725	28.0819	0.049122	0.001965	24.9949	-47.8115	15.172	-0.000886	0.051655	-1.038970	-1.040361	0.024944	24.9949	-1.039719	-7.765846E+13	-3.212069E-16	NaN
601	1.000000	0.062998	7.37093e+06	-47039.1	1005.82	-29767.2	0.000000	0.000000	6.062720	-0.037165	NaN	0.000000	0.001586	0.001751	28.0818	0.067065	0.001957	34.2625	-98.6916	-164.876	-0.061754	0.061642	-1.029018	-1.030374	-0.037165	34.2625	-1.028204	-5.436567E+13	6.836162E-16	NaN
601	1.000000	0.073043	7.37093e+06	-47039.1	1005.82	-29767.2	0.000000	0.000000	6.072766	-0.023630	NaN	0.000000	0.001591	0.001767	28.0821	0.063835	0.001950	32.7422	-110.534	14.639	-0.079495	0.071683	-1.018972	-1.020333	-0.023630	32.7422	-1.018431	-4.016440E+13	5.883204E-16	NaN
601	1.000000	0.083039	7.37093e+06	-47039.1	1005.82	-29767.2	0.000000	0.000000	6.082762	-0.014688	NaN	0.000000	0.001624	0.001762	28.0818	0.011790	0.002192	5.377597	-106.245	-164.503	-0.044820	0.081761	-1.008977	-1.010255	-0.014688	5.377597	-1.006928	-2.812150E+13	5.223201E-16	NaN
601	1.000000	0.093040	7.37093e+06	-47039.1	1005.82	-29767.2	0.000000	0.000000	6.092763	-0.011441	NaN	0.000000	0.001588	0.001800	28.0815	0.002029	0.001931	1.050754	-40.6504	15.1468	0.028330	0.091668	-0.998975	-1.000348	-0.011441	1.050754	-0.990809	-1.706120E+13	6.705891E-16	NaN
601	1.000000	0.103053	7.37093e+06	-47039.1	1005.82	-29767.2	0.000000	0.000000	6.102775	-0.056029	NaN	0.000000	0.001609	0.001757	28.0814	0.066270	0.001859	35.6443	21.7079	-169.368	-0.067768	0.101704	-0.988962	-0.990312	-0.056029	35.6443	-0.987784	-1.553316E+13	3.607026E-15	NaN
601	1.000000	0.113037	7.37093e+06	-47039.1	1005.82	-29767.2	0.000000	0.000000	6.112760	-0.008581	NaN	0.000000	0.001584	0.001795	28.0817	0.141357	0.002090	67.6473	62.9202	13.0381	-0.017651	0.111702	-0.978979	-0.980314	-0.008581	67.6473	-0.978884	-1.178605E+13	7.280643E-16	NaN
601	1.000000	0.123043	7.37093e+06	-47039.1	1005.82	-29767.2	0.000000	0.000000	6.122768	0.017494	NaN	0.000000	0.001599	0.001771	28.0816	0.110101	0.001970	55.8969	-30.4767	-165.141	0.001312	0.121782	-0.968972	-0.970234	0.017494	55.8969	-0.969207	-8.729278E+12	-2.004026E-15	NaN
601	1.000000	0.133039	7.37093e+06	-47039.1	1005.82	-29767.2	0.000000	0.000000	6.132763	0.007405	NaN	0.000000	0.001564	0.001757	28.0813	0.054138	0.001924	28.145	78.2153	13.823	0.007424	0.131657	-0.958977	-0.960358	0.007405	28.145	-0.959174	-6.393392E+12	-1.158299E-15	NaN
601	1.000000	0.143081	7.37093e+06	-47039.1	1005.82	-29767.3	0.000000	0.000000	6.142804	-0.009196	NaN	0.000000	0.001585	0.001772	28.0818	0.051453	0.002092	24.5951	-94.8082	-166.619	-0.074327	0.141743	-0.948935	-0.950273	-0.009196	24.5951	-0.948655	-4.611912E+12	1.994048E-15	NaN
601	1.000000	0.153056	7.37093e+06	-47039.1	1005.82	-29767.3	0.000000	0.000000	6.152778	-0.039895	NaN	0.000000	0.001594	0.001748	28.0815	0.033989	0.002035	16.6989	-151.707	13.3276	-0.024904	0.151637	-0.938960	-0.940379	-0.039895	16.6989	-0.937168	-3.227935E+12	1.235938E-14	NaN
601	1.000000	0.163084	7.37093e+06	-47039.1	1005.82	-29767.3	0.000000	0.000000	6.162804	-0.075591	NaN	0.000000	0.001554	0.001760	28.0813	0.071909	0.001997	36.0038	173.482	-162.911	0.000150	0.161770	-0.928932	-0.930246	-0.075591	36.0038	-0.927357	-2.379728E+12	3.176446E-14	NaN
601	1.000000	0.173087	7.37093e+06	-47039.1	1005.82	-29767.3	0.000000	0.000000	6.172812	0.048422	NaN	0.000000	0.001563	0.001771	28.0814	0.070832	0.001975	35.8569	-134.118	10.3102	0.056391	0.171678	-0.918929	-0.920338	0.048422	35.8569	-0.919942	-1.889827E+12	-2.562249E-14	NaN
601	1.000000	0.183085	7.37093e+06	-47039.1	1005.82	-29767.3	0.000000	0.000000	6.182807	-0.040600	NaN	0.000000	0.001549	0.001746	28.0805	0.048398	0.002063	23.4572	47.8433	-169.575	-0.013748	0.181778	-0.908931	-0.910238	-0.040600	23.4572	-0.907633	-1.288808E+12	3.150201E-14	NaN
601	1.000000	0.193069	7.37093e+06	-47039.1	1005.82	-29767.3	0.000000	0.000000	6.192792	-0.025633	NaN	0.000000	0.001534	0.001767	28.08	0.063860	0.002067	30.8925	-176.431	13.9881	-0.000520	0.191772	-0.898946	-0.900244	-0.025633	30.8925	-0.898324	-9.647582E+11	2.656971E-14	NaN
601	1.000000	0.203111	7.37093e+06	-47039.1	1005.82	-29767.3	0.000000	0.000000	6.202833	-0.041591	NaN	0.000000	0.001594	0.001744	28.0804	0.097752	0.001941	50.3543	-130.302	-168.435	-0.018970	0.201817	-0.888905	-0.890199	-0.041591	50.3543	-0.888285	-7.058831E+11	5.892048E-14	NaN
601	1.000000	0.213106	7.37093e+06	-47039.1	1005.82	-29767.3	0.000000	0.000000	6.212830	0.010041	NaN	0.000000	0.001589	0.001752	28.0805	0.059054	0.001977	29.8644	39.8587	13.788	0.078567	0.211714	-0.878910	-0.880302	0.010041	29.8644	-0.879162	-5.313425E+11	-1.889829E-14	NaN
601	1.000000	0.223105	7.37093e+06	-47039.1	1005.82	-29767.3	0.000000	0.000000	6.222826	-0.054227	NaN	0.000000	0.001617	0.001768	28.0806	0.009916	0.001809	5.480770	-38.9814	-167.989	-0.100139	0.221759	-0.868911	-0.870256	-0.054227	5.480770	-0.861491	-3.064051E+11	1.769776E-13	NaN
601	1.000000	0.233122	7.37093e+06	-47039.1	1005.82	-29767.3	0.000000	0.000000	6.232845	-0.005758	NaN	0.000000	0.001602	0.001729	28.0807	0.108257	0.002029	53.3535	-47.2186	11.7196	-0.078552	0.231792	-0.858894	-0.860224	-0.005758	53.3535	-0.858813	-2.818715E+11	2.042873E-14	NaN
601	1.000000	0.243097	7.37093e+06	-47039.1	1005.82	-29767.3	0.000000	0.000000	6.242819	-0.045739	NaN	0.000000	0.001522	0.001744	28.0801	0.050308	0.002010	25.0244	42.9348	-165.777	-0.005672	0.241837	-0.848919	-0.850179	-0.045739	25.0244	-0.847548	-1.983944E+11	2.305439E-13	NaN
601	1.000000	0.253089	7.37093e+06	-47039.1	1005.82	-29767.3	0.000000	0.000000	6.252811	-0.036533	NaN	0.000000	0.001558	0.001781	28.0809	0.164711	0.001957	84.1844	1.580385	14.2627	-0.028660	0.251748	-0.838927	-0.840267	-0.036533	84.1844	-0.838602	-1.500884E+11	2.434104E-13	NaN
601	1.000000	0.263119	7.37093e+06	-47039.1	1005.82	-29767.3	0.000000	0.000000	6.262841	-0.045314	NaN	0.000000	0.001510	0.001755	28.0805	0.137855	0.002043	67.4672	-75.8311	-167.558	-0.028444	0.261789	-0.828897	-0.830227	-0.045314	67.4672	-0.828393	-1.091439E+11	4.151732E-13	NaN
601	1.000000	0.273148	7.37093e+06	-47039.1	1005.82	-29767.3	0.000000	0.000000	6.272871	-0.008448	NaN	0.000000	0.001502	0.001789	28.0806	0.061711	0.001946	31.7162	-103.48	15.5409	-0.055723	0.271737	-0.818868	-0.820279	-0.008448	31.7162	-0.818668	-8.056513E+10	1.048561E-13	NaN
601	1.000000	0.283125	7.37093e+06	-47039.1	1005.82	-29767.3	0.000000	0.000000	6.282848	-0.004893	NaN	0.000000	0.001540	0.001803	28.0805	0.016030	0.002042	7.850372	-47.9901	-166.175	-0.037474	0.281827	-0.808891	-0.810189	-0.004893	7.850372	-0.808424	-5.850367E+10	8.363240E-14	NaN
601	1.000000	0.293122	7.37093e+06	-47039.1	1005.82	-29767.3	0.000000	0.000000	6.292845	-0.029324	NaN	0.000000	0.001489	0.001842	28.0807	0.122085	0.002035	59.9922	170.516	14.8782	0.009447	0.291764	-0.798894	-0.800252	-0.029324	59.9922	-0.798527	-4.294040E+10	6.829098E-13	NaN
601	1.000000	0.303116	7.37093e+06	-47039.1	1005.82	-29767.3	0.000000	0.000000	6.302838	-0.045161	NaN	0.000000	0.001528	0.001833	28.0803	0.132248	0.002006	65.9251	-65.6062	-166.003	-0.063840	0.301799	-0.788900	-0.790217	-0.045161	65.9251	-0.788386	-3.127220E+10	1.444116E-12	NaN
601	1.000000	0.313162	7.37093e+06	-47039.1	1005.82	-29767.3	0.000000	0.000000	6.312883	-0.062097	NaN	0.000000	0.001508	0.001803	28.0802	0.045399	0.001958	23.1846	97.7544	14.7492	-0.061648	0.311756	-0.778854	-0.780260	-0.062097	23.1846	-0.776845	-2.179496E+10	2.849133E-12	NaN
601	1.000000	0.323139	7.37093e+06	-47039.1	1005.82	-29767.3	0.000000	0.000000	6.322864	0.022883	NaN	0.000000	0.001485	0.001828	28.0816	0.031728	0.002084	15.2262	-146.334	-166.878	0.021079	0.321849	-0.768876	-0.770167	0.022883	15.2262	-0.770003	-1.759350E+10	-1.300652E-12	NaN
601	1.000000	0.333164	7.37093e+06	-47039.1	1005.82	-29767.3	0.000000	0.000000	6.332886	-0.024635	NaN	0.000000	0.001485	0.001832	28.0817	0.037613	0.002048	18.364	142.034	12.5051	-0.071096	0.331759	-0.758852	-0.760256	-0.024635	18.364	-0.757846	-1.202258E+10	2.049061E-12	NaN
601	1.000000	0.343184	7.37093e+06	-47039.1	1005.82	-29767.3	0.000000	0.000000	6.342908	-0.000544	NaN	0.000000	0.001580	0.001848	28.0817	0.029060	0.001851	15.7022	55.9868	-163.981	0.026256	0.341795	-0.748832	-0.750221	-0.000544	15.7022	-0.748806	-9.056556E+9	6.004068E-14	NaN
601	1.000000	0.353144	7.37093e+06	-47039.1	1005.82	-29767.3	0.000000	0.000000	6.352866	-0.039565	NaN	0.000000	0.001607	0.001826	28.0816	0.073928	0.002114	34.9647	-172.086	15.7596	-0.074736	0.351778	-0.738872	-0.740238	-0.039565	34.9647	-0.738024	-6.458529E+9	6.125971E-12	NaN
601	1.000000	0.363173	7.37093e+06	-47039.1	1005.82	-29767.3	0.000000	0.000000	6.362896	-0.015178	NaN	0.000000	0.001607	0.001770	28.0819	0.047967	0.001908	25.1382	60.1297	-165.774	-0.011053	0.361848	-0.728843	-0.730168	-0.015178	25.1382	-0.728390	-4.773795E+9	3.179445E-12	NaN
601	1.000000	0.373174	7.37093e+06	-47039.1	1005.82	-29767.3	0.000000	0.000000	6.372897	-0.032360	NaN	0.000000	0.001613	0.001833	28.0818	0.035799	0.001848	19.3766	127.019	11.3086	-0.041033	0.371832	-0.718841	-0.720184	-0.032360	19.3766	-0.717589	-3.400846E+9	9.515216E-12	NaN
601	1.000000	0.383164	7.37093e+06	-47039.1	1005.82	-29767.3	0.000000	0.000000	6.382885	-0.052073	NaN	0.000000	0.001587	0.001799	28.0818	0.146835	0.002111	69.5482	38.863	-168.388	-0.064049	0.381856	-0.708852	-0.710160	-0.052073	69.5482	-0.708291	-2.539330E+9	2.050649E-11	NaN
601	1.000000	0.393148	7.37093e+06	-47039.1	1005.82	-29767.3	0.000000	0.000000	6.392870	-0.038360	NaN	0.000000	0.001566	0.001783	28.082	0.053580	0.001935	27.6928	105.918	12.9843	-0.052511	0.391785	-0.698868	-0.700231	-0.038360	27.6928	-0.697829	-1.827607E+9	2.098907E-11	NaN
601	1.000000	0.403191	7.37093e+06	-47039.1	1005.82	-29767.3	0.000000	0.000000	6.402911	-0.090365	NaN	0.000000	0.001590	0.001773	28.0819	0.021008	0.001995	10.5325	-49.3372	-168.989	-0.019947	0.401849	-0.688825	-0.690167	-0.090365	10.5325	-0.682390	-1.124312E+9	8.037353E-11	NaN
601	1.000000	0.413177	7.37093e+06	-47039.1	1005.82	-29767.3	0.000000	0.000000	6.412900	-0.027922	NaN	0.000000	0.001601	0.001734	28.0817	0.043461	0.001955	22.2293	-139.383	13.212	-0.043978	0.411802	-0.678838	-0.680214	-0.027922	22.2293	-0.677896	-9.759644E+8	2.860934E-11	NaN
601	1.000000	0.423171	7.37093e+06	-47039.1	1005.82	-29767.3	0.000000	0.000000	6.422895	0.012097	NaN	0.000000	0.001599	0.001747	28.0817	0.074629	0.001986	37.575	-128.793	-166.595	-0.010434	0.421876	-0.668845	-0.670140	0.012097	37.575	-0.669086	-7.394019E+8	-1.635998E-11	NaN
601	1.000000	0.433215	7.37093e+06	-47039.1	1005.82	-29767.3	0.000000	0.000000	6.432938	-0.014164	NaN	0.000000	0.001582	0.001722	28.0819	0.061020	0.002116	28.8318	5.500819	16.0459	-0.044300	0.431798	-0.658801	-0.660218	-0.014164	28.8318	-0.658433	-5.284451E+8	2.680248E-11	NaN
601	1.000000	0.443210	7.37093e+06	-47039.1	1005.82	-29767.3	0.000000	0.000000	6.442933	-0.029909	NaN	0.000000	0.001620	0.001697	28.0818	0.035391	0.002018	17.5354	126.04	-165.999	0.027316	0.441874	-0.648805	-0.650142	-0.029909	17.5354	-0.647526	-3.745592E+8	7.985186E-11	NaN
601	1.000000	0.453203	7.37093e+06	-47039.1	1005.82	-29767.3	0.000000	0.000000	6.452926	-0.014146	NaN	0.000000	0.001565	0.001729	28.0813	0.065706	0.001980	33.1924	2.951462	12.1243	-0.044990	0.451822	-0.638813	-0.640194	-0.014146	33.1924	-0.638494	-2.815913E+8	5.023466E-11	NaN
601	1.000000	0.463198	7.37093e+06	-47039.1	1005.82	-29767.3	0.000000	0.000000	6.462921	0.002389	NaN	0.000000	0.001533	0.001743	28.0805	0.121882	0.002063	59.0766	149.484	-166.897	-0.050263	0.461867	-0.628818	-0.630149	0.002389	59.0766	-0.628848	-2.075908E+8	-1.150765E-11	NaN
601	1.000000	0.473183	7.37093e+06	-47039.1	1005.82	-29767.3	0.000000	0.000000	6.472908	0.032647	NaN	0.000000	0.001512	0.001771	28.0809	0.041439	0.002112	19.6184	-80.8484	12.2476	-0.045058	0.471905	-0.618832	-0.620110	0.032647	19.6184	-0.620081	-1.573042E+8	-2.075401E-10	NaN
601	1.000000	0.483216	7.37093e+06	-47039.1	1005.82	-29767.3	0.000000	0.000000	6.482939	-0.003432	NaN	0.000000	0.001538	0.001748	28.0807	0.041082	0.002045	20.0845	-18.0721	-164.78	0.006101	0.481904	-0.608800	-0.610112	-0.003432	20.0845	-0.608672	-1.096069E+8	3.131058E-11	NaN
601	1.000000	0.493223	7.37093e+06	-47039.1	1005.82	-29767.3	0.000000	0.000000	6.492945	-0.048335	NaN	0.000000	0.001506	0.001734	28.0807	0.043272	0.001905	22.7113	111.671	11.6491	-0.039503	0.491820	-0.598793	-0.600196	-0.048335	22.7113	-0.597197	-7.618094E+7	6.344791E-10	NaN
601	1.000000	0.503218	7.37093e+06	-47039.1	1005.82	-29767.3	0.000000	0.000000	6.502941	-0.025185	NaN	0.000000	0.001552	0.001770	28.0805	0.042356	0.001890	22.4135	77.5865	-166.892	-0.056000	0.501923	-0.588798	-0.590093	-0.025185	22.4135	-0.587955	-5.681570E+7	4.432704E-10	NaN
601	1.000000	0.513217	7.37093e+06	-47039.1	1005.82	-29767.3	0.000000	0.000000	6.512938	-0.065882	NaN	0.000000	0.001568	0.001752	28.081	0.088797	0.002031	43.7309	6.455017	11.702	-0.074767	0.511838	-0.578798	-0.580177	-0.065882	43.7309	-0.577669	-4.097729E+7	1.607765E-9	NaN
601	1.000000	0.523223	7.37093e+06	-47039.1	1005.82	-29767.3	0.000000	0.000000	6.522944	-0.077390	NaN	0.000000	0.001517	0.001743	28.0807	0.019514	0.002032	9.603298	149.414	-165.61	-0.107281	0.521907	-0.568793	-0.570109	-0.077390	9.603298	-0.562749	-2.549146E+7	3.035920E-9	NaN
601	1.000000	0.533235	7.37093e+06	-47039.1	1005.82	-29767.3	0.000000	0.000000	6.532958	0.000392	NaN	0.000000	0.001594	0.001729	28.0804	0.118303	0.002002	59.102	96.2923	17.7926	-0.054524	0.531932	-0.558781	-0.560084	0.000392	59.102	-0.558786	-2.246910E+7	-1.743969E-11	NaN
601	1.000000	0.543250	7.37093e+06	-47039.1	1005.82	-29767.3	0.000000	0.000000	6.542972	-0.052249	NaN	0.000000	0.001566	0.001694	28.0806	0.070502	0.002020	34.8971	112.777	-167.05	-0.057658	0.541933	-0.548765	-0.550082	-0.052249	34.8971	-0.547642	-1.575060E+7	3.317293E-9	NaN
601	1.000000	0.553248	7.37093e+06	-47039.1	1005.82	-29767.3	0.000000	0.000000	6.552972	-0.000173	NaN	0.000000	0.001548	0.001734	28.0806	0.137930	0.001911	72.1805	-165.279	16.3749	-0.031712	0.551886	-0.538767	-0.540130	-0.000173	72.1805	-0.538766	-1.186418E+7	1.458074E-11	NaN
601	1.000000	0.563268	7.37093e+06	-47039.1	1005.82	-29767.3	0.000000	0.000000	6.562992	0.000132	NaN	0.000000	0.001529	0.001757	28.0802	0.070530	0.001990	35.4408	-103.033	-167.123	0.007747	0.561869	-0.528747	-0.530146	0.000132	35.4408	-0.528750	-8.61424e+06	-1.533197E-11	NaN
601	1.000000	0.573244	7.37093e+06	-47039.1	1005.82	-29767.3	0.000000	0.000000	6.572967	-0.016027	NaN	0.000000	0.001593	0.001723	28.0805	0.114231	0.001950	58.5819	148.884	13.8134	-0.015791	0.571875	-0.518772	-0.520141	-0.016027	58.5819	-0.518567	-6.21821e+06	2.577470E-9	NaN
601	1.000000	0.583258	7.37093e+06	-47039.1	1005.82	-29767.3	0.000000	0.000000	6.582978	-0.086060	NaN	0.000000	0.001553	0.001772	28.0806	0.163983	0.002091	78.4061	-126.781	-165.644	-0.032532	0.581935	-0.508758	-0.510080	-0.086060	78.4061	-0.507935	-4.4223e+06	1.946045E-8	NaN
601	1.000000	0.593266	7.37093e+06	-47039.1	1005.82	-29767.3	0.000000	0.000000	6.592990	0.012533	NaN	0.000000	0.001574	0.001743	28.082	0.097441	0.002109	46.1983	92.5918	14.1691	0.052339	0.591879	-0.498750	-0.500136	0.012533	46.1983	-0.498953	-3.31447e+06	-3.781450E-9	NaN
601	1.000000	0.603235	7.37093e+06	-47039.1	1005.82	-29767.3	0.000000	0.000000	6.602959	0.013673	NaN	0.000000	0.001549	0.001723	28.0816	0.010781	0.001804	5.976328	54.4897	-167.109	-0.007061	0.601948	-0.488781	-0.490068	0.013673	5.976328	-0.490497	-2.52543e+06	-5.414013E-9	NaN
601	1.000000	0.613265	7.37093e+06	-47039.1	1005.82	-29767.3	0.000000	0.000000	6.612989	0.021870	NaN	0.000000	0.001531	0.001725	28.0819	0.104812	0.002071	50.6032	-8.920961	13.173	-0.037853	0.611911	-0.478751	-0.480105	0.021870	50.6032	-0.479075	-1.74817e+06	-1.250998E-8	NaN
601	1.000000	0.623269	7.37093e+06	-47039.1	1005.82	-29767.3	0.000000	0.000000	6.622994	0.029999	NaN	0.000000	0.001574	0.001741	28.082	0.036742	0.002014	18.2441	-117.245	-168.683	0.026374	0.621930	-0.468747	-0.470086	0.029999	18.2441	-0.469980	-1.30355e+06	-2.301338E-8	NaN
601	1.000000	0.633299	7.37093e+06	-47039.1	1005.82	-29767.3	0.000000	0.000000	6.633024	0.025005	NaN	0.000000	0.001524	0.001732	28.082	0.042239	0.002028	20.8244	-8.605496	14.8225	-0.034296	0.631875	-0.458717	-0.460140	0.025005	20.8244	-0.459617	-932478	-2.681551E-8	NaN
601	1.000000	0.643280	7.37093e+06	-47039.1	1005.82	-29767.3	0.000000	0.000000	6.643002	-0.029829	NaN	0.000000	0.001551	0.001714	28.0817	0.066716	0.001990	33.5216	-86.2621	-166.35	0.043671	0.641972	-0.448736	-0.450044	-0.029829	33.5216	-0.448069	-641417	4.650465E-8	NaN
601	1.000000	0.653255	7.37093e+06	-47039.1	1005.82	-29767.3	0.000000	0.000000	6.652982	0.064204	NaN	0.000000	0.001549	0.001736	28.0818	0.069857	0.002075	33.6724	128.378	13.2931	0.011134	0.651918	-0.438760	-0.440098	0.064204	33.6724	-0.440190	-496652	-1.292740E-7	NaN
601	1.000000	0.663279	7.37093e+06	-47039.1	1005.82	-29767.3	0.000000	0.000000	6.663002	-0.007421	NaN	0.000000	0.001572	0.001740	28.0818	0.028008	0.001971	14.2068	63.1542	-164.626	0.039669	0.661940	-0.428737	-0.430076	-0.007421	14.2068	-0.428345	-337792	2.196877E-8	NaN
601	1.000000	0.673263	7.37093e+06	-47039.1	1005.82	-29767.3	0.000000	0.000000	6.672987	0.017306	NaN	0.000000	0.001596	0.001733	28.0818	0.037377	0.002119	17.637	69.4717	11.9492	0.014964	0.671924	-0.418753	-0.420092	0.017306	17.637	-0.419489	-253027	-6.839482E-8	NaN
601	1.000000	0.683305	7.37093e+06	-47039.1	1005.82	-29767.3	0.000000	0.000000	6.683027	-0.027799	NaN	0.000000	0.001559	0.001710	28.0816	0.036239	0.001775	20.4122	101.564	-168.73	-0.072086	0.681994	-0.408711	-0.410021	-0.027799	20.4122	-0.407690	-172004	1.616196E-7	NaN
601	1.000000	0.693287	7.37093e+06	-47039.1	1005.82	-29767.3	0.000000	0.000000	6.693010	-0.012963	NaN	0.000000	0.001554	0.001706	28.0818	0.033874	0.001936	17.5003	82.4528	15.9132	-0.059606	0.691983	-0.398729	-0.400033	-0.012963	17.5003	-0.398173	-125873	1.029843E-7	NaN
601	1.000000	0.703281	7.37093e+06	-47039.1	1005.82	-29767.3	0.000000	0.000000	6.703006	0.023480	NaN	0.000000	0.001563	0.001703	28.0818	0.094382	0.002080	45.3864	-72.1648	-167.376	0.037024	0.701980	-0.388734	-0.390035	0.023480	45.3864	-0.389122	-93456.6	-2.512367E-7	NaN
601	1.000000	0.713306	7.37093e+06	-47039.1	1005.82	-29767.3	0.000000	0.000000	6.713031	0.050145	NaN	0.000000	0.001542	0.001733	28.0818	0.045237	0.002097	21.5744	-162.699	14.6418	-0.015687	0.711905	-0.378710	-0.380111	0.050145	21.5744	-0.380453	-70209.5	-7.142223E-7	NaN
601	1.000000	0.723298	7.37093e+06	-47039.1	1005.82	-29767.3	0.000000	0.000000	6.723021	-0.015567	NaN	0.000000	0.001501	0.001749	28.0818	0.069419	0.002032	34.168	-32.0359	-169.594	0.012267	0.721974	-0.368717	-0.370042	-0.015567	34.168	-0.368376	-47068.3	3.307311E-7	NaN
601	1.000000	0.733315	7.37093e+06	-47039.1	1005.82	-29767.3	0.000000	0.000000	6.733035	-0.075976	NaN	0.000000	0.001539	0.001714	28.0809	0.054289	0.001832	29.6386	-100.876	13.4253	0.050743	0.731998	-0.358701	-0.360018	-0.075976	29.6386	-0.356779	-32007.3	2.373714E-6	NaN
601	1.000000	0.743336	7.37093e+06	-47039.1	1005.82	-29767.3	0.000000	0.000000	6.743059	-0.021640	NaN	0.000000	0.001538	0.001750	28.0803	0.088918	0.002017	44.0759	-137.598	-166.528	-0.075918	0.741974	-0.348680	-0.350042	-0.021640	44.0759	-0.348312	-24126.2	8.969405E-7	NaN
601	1.000000	0.753339	7.37093e+06	-47039.1	1005.82	-29767.3	0.000000	0.000000	6.753061	-0.029729	NaN	0.000000	0.001565	0.001745	28.0803	0.071941	0.001888	38.1016	-150.09	14.1879	-0.048445	0.751998	-0.338677	-0.340018	-0.029729	38.1016	-0.338092	-17128.9	1.735584E-6	NaN
601	1.000000	0.763353	7.37093e+06	-47039.1	1005.82	-29767.3	0.000000	0.000000	6.763079	0.058564	NaN	0.000000	0.001631	0.001713	28.0805	0.021458	0.002038	10.5306	30.9695	-167.824	0.055256	0.762013	-0.328663	-0.330003	0.058564	10.5306	-0.332834	-14352.3	-4.080443E-6	NaN
601	1.000000	0.773344	7.37093e+06	-47039.1	1005.82	-29767.3	0.000000	0.000000	6.773063	-0.112587	NaN	0.000000	0.001603	0.001724	28.0808	0.027859	0.002048	13.601	57.6249	13.2503	-0.111701	0.771956	-0.318672	-0.320060	-0.112587	13.601	-0.312464	-7202.64	1.563134E-5	NaN
601	1.000000	0.783339	7.37093e+06	-47039.1	1005.82	-29767.3	0.000000	0.000000	6.783062	-0.000248	NaN	0.000000	0.001611	0.001708	28.0804	0.145161	0.001982	73.2267	-161.095	-166.592	0.001167	0.782050	-0.308677	-0.309965	-0.000248	73.2267	-0.308675	-6330.46	3.915869E-8	NaN
601	1.000000	0.793323	7.37093e+06	-47039.1	1005.82	-29767.3	0.000000	0.000000	6.793047	0.002568	NaN	0.000000	0.001589	0.001683	28.0804	0.065345	0.001945	33.5946	51.2236	16.2301	-0.011427	0.791998	-0.298693	-0.300018	0.002568	33.5946	-0.298750	-4508.37	-5.695127E-7	NaN
601	1.000000	0.803374	7.37093e+06	-47039.1	1005.82	-29767.3	0.000000	0.000000	6.803095	-0.053553	NaN	0.000000	0.001567	0.001671	28.0805	0.040282	0.001925	20.9219	-125.594	-167.18	-0.023099	0.802058	-0.288642	-0.289958	-0.053553	20.9219	-0.286722	-2979.47	1.797399E-5	NaN
601	1.000000	0.813367	7.37093e+06	-47039.1	1005.82	-29767.3	0.000000	0.000000	6.813092	0.010185	NaN	0.000000	0.001596	0.001725	28.0803	0.039089	0.001994	19.607	-168.289	12.1239	0.027366	0.811998	-0.278648	-0.280017	0.010185	19.607	-0.279038	-2282.71	-4.461940E-6	NaN
601	1.000000	0.823330	7.37093e+06	-47039.1	1005.82	-29767.3	0.000000	0.000000	6.823054	-0.003965	NaN	0.000000	0.001554	0.001710	28.0803	0.136438	0.002103	64.8724	-130.288	-164.808	0.023573	0.822062	-0.268686	-0.269954	-0.003965	64.8724	-0.268640	-1588.02	2.496687E-6	NaN
601	1.000000	0.833357	7.37093e+06	-47039.1	1005.82	-29767.3	0.000000	0.000000	6.833081	-0.001270	NaN	0.000000	0.001557	0.001702	28.0802	0.096448	0.002020	47.7519	147.115	13.0583	0.027818	0.832006	-0.258658	-0.260010	-0.001270	47.7519	-0.258638	-1116.96	1.137142E-6	NaN
601	1.000000	0.843360	7.37093e+06	-47039.1	1005.82	-29767.3	0.000000	0.000000	6.843083	-0.001018	NaN	0.000000	0.001535	0.001728	28.0806	0.027982	0.001922	14.5625	-172.444	-164.122	0.043058	0.842024	-0.248656	-0.249991	-0.001018	14.5625	-0.248604	-782.268	1.301884E-6	NaN
601	1.000000	0.853359	7.37093e+06	-47039.1	1005.82	-29767.3	0.000000	0.000000	6.853084	0.050946	NaN	0.000000	0.001550	0.001726	28.0805	0.103444	0.002016	51.3131	51.0742	13.4509	0.049121	0.852015	-0.238657	-0.240001	0.050946	51.3131	-0.239402	-562.609	-9.055363E-5	NaN
601	1.000000	0.863365	7.37093e+06	-47039.1	1005.82	-29767.3	0.000000	0.000000	6.863086	-0.056350	NaN	0.000000	0.001549	0.001708	28.0811	0.106603	0.001964	54.2788	-26.4846	-164.998	-0.075683	0.862001	-0.228651	-0.230015	-0.056350	54.2788	-0.227872	-370.573	0.000152	NaN
601	1.000000	0.873371	7.37093e+06	-47039.1	1005.82	-29767.3	0.000000	0.000000	6.873095	-0.006102	NaN	0.000000	0.001512	0.001756	28.0818	0.139101	0.001994	69.7681	-24.5469	14.2287	-0.009034	0.872022	-0.218644	-0.219994	-0.006102	69.7681	-0.218579	-263.599	2.314889E-5	NaN
601	1.000000	0.883392	7.37093e+06	-47039.1	1005.82	-29767.3	0.000000	0.000000	6.883115	0.000508	NaN	0.000000	0.001515	0.001776	28.0816	0.045529	0.001961	23.2131	-30.6337	-168.06	-0.007878	0.882037	-0.208624	-0.209979	0.000508	23.2131	-0.208640	-182.297	-2.785445E-6	NaN
601	1.000000	0.893363	7.37093e+06	-47039.1	1005.82	-29767.3	0.000000	0.000000	6.893085	-0.036641	NaN	0.000000	0.001528	0.001756	28.0816	0.108406	0.001974	54.9209	-129.196	13.1991	2.044562E-5	0.891978	-0.198653	-0.200037	-0.036641	54.9209	-0.198152	-122.825	0.000298	NaN
601	1.000000	0.903390	7.37093e+06	-47039.1	1005.82	-29767.3	0.000000	0.000000	6.903112	-0.028488	NaN	0.000000	0.001522	0.001704	28.0817	0.103315	0.002101	49.1736	-164.377	-169.498	0.056544	0.902075	-0.188626	-0.189941	-0.028488	49.1736	-0.188191	-83.9008	0.000340	NaN
601	1.000000	0.913390	7.37093e+06	-47039.1	1005.82	-29767.3	0.000000	0.000000	6.913113	-0.011539	NaN	0.000000	0.001558	0.001716	28.082	0.070179	0.002061	34.0452	135.803	15.0761	-0.055414	0.912035	-0.178626	-0.179981	-0.011539	34.0452	-0.178372	-57.2427	0.000202	NaN
601	1.000000	0.923388	7.37093e+06	-47039.1	1005.82	-29767.3	0.000000	0.000000	6.923108	-0.076652	NaN	0.000000	0.001539	0.001766	28.0819	0.088062	0.002041	43.1565	-48.407	-165.794	-0.088790	0.922093	-0.168628	-0.169923	-0.076652	43.1565	-0.167296	-36.8565	0.002080	NaN
601	1.000000	0.933411	7.37093e+06	-47039.1	1005.82	-29767.3	0.000000	0.000000	6.933135	0.004103	NaN	0.000000	0.001536	0.001740	28.0816	0.104158	0.001929	53.9874	-72.7147	16.7064	-0.050891	0.932055	-0.158605	-0.159961	0.004103	53.9874	-0.158662	-25.9518	-0.000158	NaN
601	1.000000	0.943383	7.37093e+06	-47039.1	1005.82	-29767.3	0.000000	0.000000	6.943106	-0.032782	NaN	0.000000	0.001517	0.001741	28.0816	0.097606	0.002007	48.6432	-87.5646	-167.045	-0.156948	0.942101	-0.148632	-0.149914	-0.032782	48.6432	-0.148127	-16.74	0.001958	NaN
601	1.000000	0.953391	7.37093e+06	-47039.1	1005.82	-29767.3	0.000000	0.000000	6.953113	-0.039999	NaN	0.000000	0.001537	0.001733	28.0818	0.031843	0.002069	15.3914	162.444	14.0667	0.013991	0.952020	-0.138625	-0.139996	-0.039999	15.3914	-0.136676	-10.2377	0.003907	NaN
601	1.000000	0.963425	7.37093e+06	-47039.1	1005.82	-29767.3	0.000000	0.000000	6.963148	-0.034176	NaN	0.000000	0.001536	0.001736	28.0816	0.018416	0.002022	9.109967	-104.326	-166.546	-0.022671	0.962140	-0.128590	-0.129876	-0.034176	9.109967	-0.125777	-6.300013	0.005425	NaN
601	1.000000	0.973420	7.37093e+06	-47039.1	1005.82	-29767.3	0.000000	0.000000	6.973142	-0.045016	NaN	0.000000	0.001572	0.001712	28.0815	0.037590	0.002049	18.3427	-25.4444	13.9879	0.065364	0.972030	-0.118595	-0.119986	-0.045016	18.3427	-0.116755	-4.150887	0.010845	NaN
601	1.000000	0.983411	7.37093e+06	-47039.1	1005.82	-29767.3	0.000000	0.000000	6.983132	-0.053454	NaN	0.000000	0.001536	0.001719	28.0817	0.089572	0.001923	46.5683	-99.4367	-163.876	-0.053465	0.982092	-0.108605	-0.109924	-0.053454	46.5683	-0.107744	-2.691871	0.019857	NaN
601	1.000000	0.993381	7.37093e+06	-47039.1	1005.82	-29767.3	0.000000	0.000000	6.993102	-0.061730	NaN	0.000000	0.001541	0.001732	28.0817	0.040620	0.001922	21.1368	-54.4362	9.761296	-0.071941	0.992035	-0.098635	-0.099981	-0.061730	21.1368	-0.096445	-1.521233	0.040579	NaN
601	1.000000	1.003412	7.37093e+06	-47039.1	1005.82	-29767.3	0.000000	0.000000	7.003137	0.032630	NaN	0.000000	0.001551	0.001773	28.0805	0.082677	0.002019	40.9462	-147.808	-168.968	0.002721	1.002106	-0.088604	-0.089909	0.032630	40.9462	-0.089201	-1.035216	-0.031520	NaN
601	1.000000	1.013457	7.37093e+06	-47039.1	1005.82	-29767.3	0.000000	0.000000	7.013181	-0.001177	NaN	0.000000	0.001546	0.001719	28.0804	0.094882	0.001963	48.3295	48.833	15.0343	0.048841	1.012047	-0.078558	-0.079969	-0.001177	48.3295	-0.078540	-0.568854	0.002069	NaN
601	1.000000	1.023416	7.37093e+06	-47039.1	1005.82	-29767.3	0.000000	0.000000	7.023140	0.011679	NaN	0.000000	0.001502	0.001753	28.0808	0.027112	0.002086	12.9993	42.3924	-166.899	0.030640	1.022140	-0.068600	-0.069876	0.011679	12.9993	-0.069274	-0.326133	-0.035810	NaN
601	1.000000	1.033425	7.37093e+06	-47039.1	1005.82	-29767.3	0.000000	0.000000	7.033150	0.019192	NaN	0.000000	0.001601	0.001764	28.0805	0.134607	0.001939	69.4351	-83.71	15.926	-0.009355	1.032090	-0.058590	-0.059926	0.019192	69.4351	-0.058798	-0.166294	-0.115409	NaN
601	1.000000	1.043429	7.37093e+06	-47039.1	1005.82	-29767.3	0.000000	0.000000	7.043151	-0.027689	NaN	0.000000	0.001574	0.001763	28.0807	0.073256	0.002039	35.9297	145.098	-167.958	0.006707	1.042067	-0.048587	-0.049948	-0.027689	35.9297	-0.048009	-0.079401	0.348725	NaN
601	1.000000	1.053426	7.37093e+06	-47039.1	1005.82	-29767.3	0.000000	0.000000	7.053151	0.043282	NaN	0.000000	0.001602	0.001760	28.0807	0.145710	0.001982	73.5074	114.135	13.8173	0.051800	1.052090	-0.038590	-0.039926	0.043282	73.5074	-0.039031	-0.042266	-1.024049	NaN
601	1.000000	1.063442	7.37093e+06	-47039.1	1005.82	-29767.3	0.000000	0.000000	7.063167	0.037183	NaN	0.000000	0.001632	0.001741	28.0808	0.044838	0.001991	22.5222	-112.417	-171.005	-0.031240	1.062160	-0.028574	-0.029855	0.037183	22.5222	-0.029812	-0.022738	-1.635293	NaN
601	1.000000	1.073451	7.37093e+06	-47039.1	1005.82	-29767.3	0.000000	0.000000	7.073174	-0.009633	NaN	0.000000	0.001577	0.001776	28.0805	0.053103	0.002144	24.7646	131.516	14.5509	-0.056416	1.072112	-0.018565	-0.019904	-0.009633	24.7646	-0.018273	-0.011345	0.849030	NaN
601	1.000000	1.083454	7.37093e+06	-47039.1	1005.82	-29767.3	0.000000	0.000000	7.083178	0.008283	NaN	0.000000	0.001559	0.001740	28.0808	0.087094	0.001833	47.5217	62.7906	-166.728	0.049899	1.082113	-0.008562	-0.009903	0.008283	47.5217	-0.008693	-0.005635	-1.469885	NaN
601	1.000000	1.093436	7.37093e+06	-47039.1	1005.82	-29767.3	0.000000	0.000000	7.093287	3.094837	NaN	0.000000	0.001516	0.001727	28.0808	3.921583	0.001739	2255.49	17.5255	5.778342	1.584700	1.092058	0.001420	4.220927E-5	3.094837	2255.49	0.000391	0.000294	10509	120082
601	2.000000	1.099127	7.37093e+06	-47039.1	1005.82	-29767.3	0.000000	0.000000	7.099303	10.9867	NaN	0.000000	0.001504	0.001724	28.0811	9.578024	0.001586	6039.16	9.263210	-176.058	10.3332	1.098833	0.007112	0.006817	10.9867	6039.16	0.005747	0.004826	2276.78	79428.4
601	2.000000	1.101638	7.37093e+06	-47039.1	1005.82	-29767.3	0.000000	0.000000	7.101985	15.142	NaN	0.000000	0.001539	0.001763	28.0806	13.0058	0.001625	8002.31	5.931449	3.835022	14.0096	1.101264	0.009623	0.009248	15.142	8002.31	0.008203	0.007252	2087.85	85851.1
601	2.000000	1.104120	7.37093e+06	-47039.1	1005.82	-29767.3	0.000000	0.000000	7.104656	19.7668	NaN	0.000000	0.001535	0.001713	28.0805	16.6188	0.001878	8849.63	7.272048	-177.4	19.5085	1.103847	0.012104	0.011831	19.7668	8849.63	0.010429	0.009662	2045.8	82254.8
601	2.000000	1.106598	7.37093e+06	-47039.1	1005.82	-29767.3	0.000000	0.000000	7.107320	24.275	NaN	0.000000	0.001511	0.001715	28.0806	18.1763	0.001748	10400	9.121304	0.711148	23.1471	1.106239	0.014582	0.014223	24.275	10400	0.012832	0.012502	1941.74	84981.3
601	2.000000	1.109051	7.37093e+06	-47039.1	1005.82	-29767.3	0.000000	0.000000	7.109954	28.6861	NaN	0.000000	0.001551	0.001735	28.082	20.3152	0.001668	12182.8	4.156113	-176.919	27.1668	1.108758	0.017035	0.016743	28.6861	12182.8	0.015269	0.015646	1833.49	88986.4
601	2.000000	1.111548	7.37093e+06	-47039.1	1005.82	-29767.3	0.000000	0.000000	7.112789	36.9113	NaN	0.000000	0.001540	0.001688	28.0817	23.6409	0.001833	12899.8	7.748076	-0.120251	35.0271	1.111176	0.019533	0.019160	36.9113	12899.8	0.017386	0.018601	1984.41	86415.3
601	2.000000	1.114032	7.37093e+06	-47039.1	1005.82	-29767.3	0.000000	0.000000	7.115564	43.9739	NaN	0.000000	0.001543	0.001704	28.082	25.9066	0.001690	15325.7	4.886003	-179.847	42.5276	1.113756	0.022016	0.021740	43.9739	15325.7	0.019864	0.022330	1969.3	93702.6
601	2.000000	1.116545	7.37093e+06	-47039.1	1005.82	-29767.3	0.000000	0.000000	7.118335	50.2639	NaN	0.000000	0.001570	0.001745	28.0821	27.8898	0.001621	17208.8	3.687207	-0.166436	47.4463	1.116207	0.024529	0.024191	50.2639	17208.8	0.022339	0.026352	1907.44	96854.5
601	2.000000	1.119030	7.37093e+06	-47039.1	1005.82	-29767.3	0.000000	0.000000	7.121329	62.6571	NaN	0.000000	0.001603	0.001707	28.0818	30.2941	0.001824	16608.6	2.029338	-176.059	61.5389	1.118679	0.027014	0.026663	62.6571	16608.6	0.024185	0.029549	2120.46	88274.9
601	2.000000	1.121497	7.37093e+06	-47039.1	1005.82	-29767.3	0.000000	0.000000	7.124045	68.7224	NaN	0.000000	0.001554	0.001715	28.0815	33.9052	0.001656	20476.2	5.073586	-2.833454	65.6467	1.121188	0.029481	0.029172	68.7224	20476.2	0.026964	0.034685	1981.32	100450
601	2.000000	1.124072	7.37093e+06	-47039.1	1005.82	-29767.3	0.000000	0.000000	7.126889	75.2349	NaN	0.000000	0.001554	0.001717	28.0817	37.0631	0.001890	19611.1	2.696622	-178.668	74.4574	1.123727	0.032056	0.031712	75.2349	19611.1	0.029179	0.039060	1926.16	90659
601	2.000000	1.126471	7.37093e+06	-47039.1	1005.82	-29767.3	0.000000	0.000000	7.129752	86.5138	NaN	0.000000	0.001581	0.001706	28.0818	38.6691	0.001890	20460.5	4.127809	-0.005979	82.8622	1.126165	0.034456	0.034149	86.5138	20460.5	0.031284	0.043448	1991.22	89682.3
601	2.000000	1.129033	7.37093e+06	-47039.1	1005.82	-29767.3	0.000000	0.000000	7.132825	98.9606	NaN	0.000000	0.001542	0.001747	28.0819	40.5739	0.001693	23963.3	1.168067	179.843	96.3434	1.128643	0.037017	0.036627	98.9606	23963.3	0.033920	0.049262	2008.88	98642.6
601	2.000000	1.131501	7.37093e+06	-47039.1	1005.82	-29767.3	0.000000	0.000000	7.135603	106.498	NaN	0.000000	0.001550	0.001719	28.0819	44.0034	0.001766	24922.1	3.183000	-1.531178	103.914	1.131059	0.039485	0.039043	106.498	24922.1	0.036280	0.054768	1944.52	97295.8
601	2.000000	1.133987	7.37093e+06	-47039.1	1005.82	-29767.3	0.000000	0.000000	7.138541	117.491	NaN	0.000000	0.001549	0.001746	28.0817	46.9933	0.001893	24821.6	3.516636	177.937	115.189	1.133694	0.041971	0.041678	117.491	24821.6	0.038421	0.060012	1957.78	92572.8
601	2.000000	1.136506	7.37093e+06	-47039.1	1005.82	-29767.3	0.000000	0.000000	7.141642	131.656	NaN	0.000000	0.001532	0.001730	28.082	48.3637	0.001783	27121.2	2.422964	-1.385218	128.024	1.136130	0.044490	0.044114	131.656	27121.2	0.040849	0.066241	1987.52	96275.8
601	2.000000	1.138958	7.37093e+06	-47039.1	1005.82	-29767.3	0.000000	0.000000	7.144450	140.3	NaN	0.000000	0.001551	0.001754	28.0818	50.1222	0.001650	30371.4	4.385160	175.211	137.214	1.138659	0.046942	0.046643	140.3	30371.4	0.043478	0.073324	1913.41	102474
601	2.000000	1.141437	7.37093e+06	-47039.1	1005.82	-29767.3	0.000000	0.000000	7.147383	151.339	NaN	0.000000	0.001609	0.001737	28.081	54.1447	0.001804	30006.4	8.290012	-9.092123	146.822	1.141089	0.049421	0.049073	151.339	30006.4	0.045639	0.079411	1905.77	97285.3
601	2.000000	1.143940	7.37094e+06	-47039.1	1005.82	-29767.3	0.000000	0.000000	7.150412	164.148	NaN	0.000000	0.001581	0.001753	28.0808	55.6698	0.001745	31895	1.235977	178.3	160.852	1.143633	0.051924	0.051617	164.148	31895	0.048064	0.086525	1897.12	99066.4
601	2.000000	1.146480	7.37094e+06	-47039.1	1005.82	-29767.3	0.000000	0.000000	7.153636	180.789	NaN	0.000000	0.001583	0.001750	28.0807	57.8553	0.001796	32206.2	7.239958	-6.924011	177.183	1.146047	0.054464	0.054031	180.789	32206.2	0.050254	0.093199	1939.82	96384.5
601	2.000000	1.148965	7.37094e+06	-47039.1	1005.82	-29767.3	0.000000	0.000000	7.156546	191.125	NaN	0.000000	0.001575	0.001758	28.0806	60.8653	0.001953	31167.6	5.068311	174.68	189.247	1.148625	0.056949	0.056609	191.125	31167.6	0.052350	0.099814	1914.8	90132.1
601	2.000000	1.151515	7.37094e+06	-47039.1	1005.82	-29767.3	0.000000	0.000000	7.159601	203.415	NaN	0.000000	0.001605	0.001744	28.0807	63.8568	0.001940	32911.5	7.319234	-8.235448	202.666	1.151131	0.059499	0.059116	203.415	32911.5	0.054864	0.108037	1882.82	91481.6
601	2.000000	1.154000	7.37094e+06	-47039.1	1005.82	-29767.3	0.000000	0.000000	7.162559	214.902	NaN	0.000000	0.001556	0.001774	28.0809	65.3419	0.001752	37298.3	7.010716	170.748	214.267	1.153828	0.061985	0.061812	214.902	37298.3	0.057663	0.117563	1827.98	99386.4
601	2.000000	1.156440	7.37094e+06	-47039.1	1005.82	-29767.3	0.000000	0.000000	7.165834	235.218	NaN	0.000000	0.001529	0.001731	28.0807	66.9157	0.001889	35425.1	7.306195	-8.053957	230.13	1.156048	0.064425	0.064032	235.218	35425.1	0.059445	0.123824	1899.61	91977.3
601	2.000000	1.158930	7.37094e+06	-47039.1	1005.82	-29767.3	0.000000	0.000000	7.168914	249.584	NaN	0.000000	0.001559	0.001769	28.0807	69.4311	0.001731	40119.4	5.842711	171.658	246.558	1.158712	0.066914	0.066696	249.584	40119.4	0.062248	0.133994	1862.65	100135
601	2.000000	1.161533	7.37094e+06	-47039.1	1005.82	-29767.3	0.000000	0.000000	7.172247	267.319	NaN	0.000000	0.001604	0.001762	28.0806	70.618	0.001718	41104.9	3.398288	-5.700106	268.593	1.161123	0.069517	0.069107	267.319	41104.9	0.064640	0.142970	1869.76	99321.8
601	2.000000	1.164060	7.37094e+06	-47039.1	1005.82	-29767.3	0.000000	0.000000	7.175138	276.191	NaN	0.000000	0.001557	0.001764	28.0808	74.3256	0.001760	42228.9	3.240222	173.472	278.363	1.163718	0.072044	0.071702	276.191	42228.9	0.067139	0.152646	1809.36	98751
601	2.000000	1.166502	7.37094e+06	-47039.1	1005.82	-29767.3	0.000000	0.000000	7.178598	300.946	NaN	0.000000	0.001566	0.001748	28.0806	76.1798	0.001825	41739.9	3.875608	-5.413603	298.392	1.166119	0.074487	0.074103	300.946	41739.9	0.069079	0.160362	1876.67	95230.2
601	2.000000	1.168898	7.37094e+06	-47039.1	1005.82	-29767.3	0.000000	0.000000	7.181574	315.057	NaN	0.000000	0.001531	0.001736	28.0805	78.1343	0.001805	43285.7	3.727429	173.206	311.013	1.168637	0.076882	0.076622	315.057	43285.7	0.071423	0.169926	1854.08	95937.3
601	2.000000	1.171562	7.37094e+06	-47039.1	1005.82	-29767.3	0.000000	0.000000	7.184786	328.395	NaN	0.000000	0.001537	0.001750	28.0805	81.9227	0.001810	45261.5	3.152686	-6.934261	329.192	1.171203	0.079546	0.079187	328.395	45261.5	0.074104	0.181184	1812.5	97150
601	2.000000	1.173961	7.37094e+06	-47039.1	1005.82	-29767.3	0.000000	0.000000	7.188015	348.578	NaN	0.000000	0.001548	0.001738	28.0808	84.6668	0.001669	50727.2	7.876027	167.447	345.607	1.173690	0.081945	0.081674	348.578	50727.2	0.076792	0.192808	1807.9	105548
601	2.000000	1.176508	7.37094e+06	-47039.1	1005.82	-29767.3	0.000000	0.000000	7.191139	362.605	NaN	0.000000	0.001554	0.001736	28.0817	86.5662	0.001820	47561.1	5.398427	-8.923611	359.945	1.176203	0.084493	0.084188	362.605	47561.1	0.078775	0.201602	1798.62	96778.1
601	2.000000	1.178949	7.37094e+06	-47039.1	1005.82	-29767.3	0.000000	0.000000	7.194491	384.763	NaN	0.000000	0.001578	0.001725	28.0818	88.9485	0.001836	48450	2.661619	173.521	381.305	1.178729	0.086933	0.086713	384.763	48450	0.080977	0.211586	1818.47	96232.8
601	2.000000	1.181407	7.37094e+06	-47039.1	1005.82	-29767.3	0.000000	0.000000	7.197938	408.839	NaN	0.000000	0.001563	0.001746	28.0819	92.6841	0.001722	53811.7	5.412447	-9.953130	404.519	1.181105	0.089391	0.089090	408.839	53811.7	0.083693	0.224204	1823.51	103831
601	2.000000	1.183963	7.37094e+06	-47039.1	1005.82	-29767.3	0.000000	0.000000	7.201193	425.812	NaN	0.000000	0.001564	0.001741	28.0818	96.7472	0.001841	52548.4	8.633521	167.644	424.495	1.183574	0.091948	0.091559	425.812	52548.4	0.085870	0.234570	1815.28	99127.9
601	2.000000	1.186423	7.37094e+06	-47039.1	1005.82	-29767.3	0.000000	0.000000	7.204617	449.261	NaN	0.000000	0.001552	0.001722	28.0818	97.3655	0.001770	55002.5	4.775042	-8.995212	443.796	1.186081	0.094407	0.094065	449.261	55002.5	0.088281	0.246303	1824.02	101256
601	2.000000	1.188965	7.37094e+06	-47039.1	1005.82	-29767.3	0.000000	0.000000	7.207438	456.061	NaN	0.000000	0.001563	0.001751	28.0816	99.2433	0.001839	53958.5	1.273176	174.065	454.357	1.188954	0.096949	0.096938	456.061	53958.5	0.090610	0.257890	1768.43	97076.9
601	2.000000	1.191520	7.37094e+06	-47039.1	1005.82	-29767.3	0.000000	0.000000	7.210814	476.032	NaN	0.000000	0.001530	0.001739	28.082	102.32	0.001824	56088.7	6.542501	-11.5828	477.224	1.191318	0.099505	0.099302	476.032	56088.7	0.093139	0.270753	1758.17	98483.1
601	2.000000	1.194016	7.37094e+06	-47039.1	1005.82	-29767.3	0.000000	0.000000	7.214424	503.15	NaN	0.000000	0.001575	0.001729	28.0819	106.045	0.001905	55679.3	12.9259	162.502	504.542	1.193631	0.102000	0.101616	503.15	55679.3	0.095222	0.281568	1786.95	95868.3
601	2.000000	1.195890	7.37094e+06	-47039.1	1005.82	-29767.3	0.000000	0.000000	7.217339	528.453	NaN	0.000000	0.001546	0.001709	28.0818	104.46	0.001732	60323.8	8.317324	166.889	524.76	1.195360	0.103874	0.103344	528.453	60323.8	0.097304	0.292570	1806.24	101893