File: remote_trans/data/nanoindenter/0828-1/data/Data_2025-08-06,11h17m57s/2025-07-22_16-23-58_1_1081.txt
2025-07-22, 16:23:58, 1
Index	Phase	Displacement	Time	Pos X	Pos Y	Pos Z	Rot A	Rot B	Piezo Z	Force A	Force B	Gripper	Voltage A	Voltage B	Temperature	Amplitude force	Amplitude pos	Stiffness	Phase shift	Phase excitation	Force A raw	Displacement raw	HMax	HMax raw	Real Force	Real Stiffness	Contact Depth	Area	Hardness	Reduced Mod.
[#]	[#]	[um]	[s]	[um]	[um]	[um]	[m°]	[m°]	[um]	[uN]	[uN]	[V]	[V]	[V]	[°C]	[uN]	[um]	[N/m]	[°]	[°]	[uN]	[um]	[um]	[um]	[uN]	[N/m]	[um]	[um^2]	[MPa]	[MPa]
1081	1.000000	0.003200	7.37562e+06	-54189.1	1055.82	-29744.1	0.000000	0.000000	6.002802	0.025657	NaN	0.000000	0.001603	0.001676	28.0831	0.056226	0.000976	57.624	-4.973215	-166.014	0.065838	0.001948	-1.145957	-1.147208	0.025657	57.624	-1.146291	-2.094529E+15	-1.224971E-17	NaN
1081	1.000000	0.013252	7.37562e+06	-54189.1	1055.82	-29744.1	0.000000	0.000000	6.012852	-0.023485	NaN	0.000000	0.001596	0.001689	28.0832	0.028257	0.001294	21.8319	135.201	15.6671	-0.007991	0.011836	-1.135904	-1.137320	-0.023485	21.8319	-1.135097	-1.482487E+15	1.584131E-17	NaN
1081	1.000000	0.023156	7.37562e+06	-54189.1	1055.82	-29744.1	0.000000	0.000000	6.022755	-0.041107	NaN	0.000000	0.001587	0.001693	28.0833	0.091439	0.001731	52.8215	151.914	-168.118	-0.016598	0.021891	-1.126001	-1.127266	-0.041107	52.8215	-1.125417	-1.099384E+15	3.739085E-17	NaN
1081	1.000000	0.033150	7.37562e+06	-54189.1	1055.82	-29744.1	0.000000	0.000000	6.032749	-0.043769	NaN	0.000000	0.001592	0.001680	28.0833	0.022933	0.001867	12.2839	-1.883821	16.7784	-0.088558	0.031814	-1.116007	-1.117343	-0.043769	12.2839	-1.113334	-7.568926E+14	5.782733E-17	NaN
1081	1.000000	0.043151	7.37562e+06	-54189.1	1055.82	-29744.1	0.000000	0.000000	6.042752	-0.001779	NaN	0.000000	0.001598	0.001682	28.0832	0.058331	0.002008	29.052	-100.891	-167.434	-0.030340	0.041861	-1.106005	-1.107296	-0.001779	29.052	-1.105960	-6.026443E+14	2.952248E-18	NaN
1081	1.000000	0.053168	7.37562e+06	-54189.1	1055.82	-29744.1	0.000000	0.000000	6.052768	-0.012544	NaN	0.000000	0.001554	0.001684	28.0832	0.058620	0.001982	29.5788	-172.296	13.9045	-0.082934	0.051823	-1.095988	-1.097333	-0.012544	29.5788	-1.095670	-4.384756E+14	2.860709E-17	NaN
1081	1.000000	0.063163	7.37562e+06	-54189.1	1055.82	-29744.1	0.000000	0.000000	6.062764	-0.009282	NaN	0.000000	0.001625	0.001690	28.0833	0.066431	0.002075	32.0134	-34.4557	-168.045	-0.014436	0.061877	-1.085993	-1.087279	-0.009282	32.0134	-1.085776	-3.229145E+14	2.874560E-17	NaN
1081	1.000000	0.073126	7.37562e+06	-54189.1	1055.82	-29744.1	0.000000	0.000000	6.072727	0.002455	NaN	0.000000	0.001577	0.001684	28.083	0.088973	0.002039	43.6302	-2.729659	15.5031	-0.054312	0.071792	-1.076031	-1.077365	0.002455	43.6302	-1.076073	-2.392044E+14	-1.026140E-17	NaN
1081	1.000000	0.083168	7.37562e+06	-54189.1	1055.82	-29744.1	0.000000	0.000000	6.082767	-0.042309	NaN	0.000000	0.001565	0.001702	28.083	0.056548	0.002068	27.3491	166.364	-163.604	-0.051723	0.081871	-1.065988	-1.067286	-0.042309	27.3491	-1.064828	-1.689270E+14	2.504581E-16	NaN
1081	1.000000	0.093168	7.37562e+06	-54189.1	1055.82	-29744.1	0.000000	0.000000	6.092770	0.023258	NaN	0.000000	0.001533	0.001714	28.0831	0.080307	0.001948	41.2232	-119.798	11.0581	-0.081598	0.091761	-1.055988	-1.057396	0.023258	41.2232	-1.056411	-1.301942E+14	-1.786425E-16	NaN
1081	1.000000	0.103146	7.37562e+06	-54189.1	1055.82	-29744.1	0.000000	0.000000	6.102747	-0.000567	NaN	0.000000	0.001582	0.001686	28.0831	0.077318	0.001873	41.2744	43.923	-166.332	-0.046711	0.101875	-1.046010	-1.047282	-0.000567	41.2744	-1.046000	-9.432723E+13	6.009006E-18	NaN
1081	1.000000	0.113183	7.37562e+06	-54189.1	1055.82	-29744.1	0.000000	0.000000	6.112781	-0.079195	NaN	0.000000	0.001553	0.001681	28.0828	0.027831	0.001842	15.1089	117.563	10.6904	-0.066912	0.111862	-1.035973	-1.037294	-0.079195	15.1089	-1.032042	-6.122726E+13	1.293453E-15	NaN
1081	1.000000	0.123174	7.37562e+06	-54189.1	1055.82	-29744.1	0.000000	0.000000	6.122776	0.038987	NaN	0.000000	0.001553	0.001677	28.0832	0.138752	0.002023	68.5751	148.411	-163.433	-0.109098	0.121889	-1.025983	-1.027267	0.038987	68.5751	-1.026409	-5.142552E+13	-7.581174E-16	NaN
1081	1.000000	0.133175	7.37562e+06	-54189.1	1055.82	-29744.1	0.000000	0.000000	6.132775	-0.015543	NaN	0.000000	0.001553	0.001657	28.0834	0.031997	0.002126	15.0493	-9.873661	12.2163	-0.015245	0.131859	-1.015981	-1.017297	-0.015543	15.0493	-1.015207	-3.634597E+13	4.276368E-16	NaN
1081	1.000000	0.143156	7.37562e+06	-54189.1	1055.82	-29744.1	0.000000	0.000000	6.142754	-0.059737	NaN	0.000000	0.001541	0.001697	28.0841	0.089920	0.001936	46.4454	-113.185	-165.879	-0.077067	0.141877	-1.006001	-1.007280	-0.059737	46.4454	-1.005036	-2.651973E+13	2.252567E-15	NaN
1081	1.000000	0.153157	7.37562e+06	-54189.1	1055.82	-29744.1	0.000000	0.000000	6.152756	-0.046613	NaN	0.000000	0.001529	0.001700	28.0843	0.030052	0.001993	15.08	34.299	11.9216	-0.038570	0.151776	-0.996000	-0.997381	-0.046613	15.08	-0.993682	-1.865054E+13	2.499270E-15	NaN
1081	1.000000	0.163205	7.37562e+06	-54189.1	1055.82	-29744.1	0.000000	0.000000	6.162805	-0.020391	NaN	0.000000	0.001573	0.001681	28.0842	0.041352	0.002111	19.585	-106.968	-163.559	-0.026811	0.161893	-0.985951	-0.987264	-0.020391	19.585	-0.985170	-1.432391E+13	1.423546E-15	NaN
1081	1.000000	0.173198	7.37562e+06	-54189.1	1055.82	-29744.1	0.000000	0.000000	6.172799	-0.003430	NaN	0.000000	0.001536	0.001664	28.0843	0.082101	0.001914	42.8893	-21.9183	15.0184	0.045008	0.171858	-0.975958	-0.977299	-0.003430	42.8893	-0.975898	-1.074347E+13	3.192324E-16	NaN
1081	1.000000	0.183190	7.37562e+06	-54189.1	1055.82	-29744.1	0.000000	0.000000	6.182795	0.092389	NaN	0.000000	0.001566	0.001691	28.0842	0.037492	0.002017	18.5888	77.3291	-167.055	0.018315	0.181936	-0.965966	-0.967221	0.092389	18.5888	-0.969694	-8.862099E+12	-1.042524E-14	NaN
1081	1.000000	0.193177	7.37562e+06	-54189.1	1055.82	-29744.1	0.000000	0.000000	6.192774	-0.073279	NaN	0.000000	0.001553	0.001700	28.0846	0.091118	0.001944	46.8745	34.5242	13.9039	-0.117012	0.191815	-0.955980	-0.957341	-0.073279	46.8745	-0.954808	-5.582889E+12	1.312561E-14	NaN
1081	1.000000	0.203182	7.37562e+06	-54189.1	1055.82	-29744.1	0.000000	0.000000	6.202781	-0.064107	NaN	0.000000	0.001567	0.001698	28.0843	0.076418	0.002089	36.5779	-128.927	-169.203	-0.086986	0.201903	-0.945974	-0.947253	-0.064107	36.5779	-0.944660	-4.073793E+12	1.573641E-14	NaN
1081	1.000000	0.213200	7.37562e+06	-54189.1	1055.82	-29744.1	0.000000	0.000000	6.212801	0.017628	NaN	0.000000	0.001578	0.001659	28.0844	0.051681	0.001985	26.0329	-12.8606	13.8514	-0.051915	0.211815	-0.935957	-0.937342	0.017628	26.0329	-0.936465	-3.158196E+12	-5.581604E-15	NaN
1081	1.000000	0.223205	7.37562e+06	-54189.1	1055.82	-29744.1	0.000000	0.000000	6.222804	-0.043437	NaN	0.000000	0.001585	0.001679	28.084	0.128595	0.001934	66.5011	-132.03	-162.64	-0.071831	0.221891	-0.925952	-0.927265	-0.043437	66.5011	-0.925462	-2.243603E+12	1.936025E-14	NaN
1081	1.000000	0.233212	7.37562e+06	-54189.1	1055.82	-29744.1	0.000000	0.000000	6.232812	-0.027007	NaN	0.000000	0.001610	0.001676	28.0844	0.126735	0.002066	61.3391	3.444119	15.7085	-0.080329	0.231892	-0.915944	-0.917264	-0.027007	61.3391	-0.915614	-1.651890E+12	1.634888E-14	NaN
1081	1.000000	0.243223	7.37562e+06	-54189.1	1055.82	-29744.1	0.000000	0.000000	6.242825	0.025036	NaN	0.000000	0.001586	0.001649	28.0843	0.030097	0.002067	14.5596	148.092	-166.602	-0.043602	0.241938	-0.905934	-0.907219	0.025036	14.5596	-0.907224	-1.272504E+12	-1.967475E-14	NaN
1081	1.000000	0.253215	7.37562e+06	-54189.1	1055.82	-29744.1	0.000000	0.000000	6.252813	-0.086116	NaN	0.000000	0.001591	0.001682	28.0843	0.030839	0.002027	15.2147	99.4943	15.7026	0.013802	0.251840	-0.895941	-0.897316	-0.086116	15.2147	-0.891696	-7.849530E+11	1.097087E-13	NaN
1081	1.000000	0.263228	7.37562e+06	-54189.1	1055.82	-29744.1	0.000000	0.000000	6.262829	-0.017876	NaN	0.000000	0.001629	0.001669	28.0841	0.060180	0.001871	32.1643	170.59	-163.801	-0.025668	0.261904	-0.885928	-0.887253	-0.017876	32.1643	-0.885511	-6.474894E+11	2.760849E-14	NaN
1081	1.000000	0.273234	7.37562e+06	-54189.1	1055.82	-29744.1	0.000000	0.000000	6.272834	-0.021219	NaN	0.000000	0.001623	0.001684	28.0834	0.039020	0.002027	19.2492	-139.247	17.5952	-0.019337	0.271872	-0.875923	-0.877285	-0.021219	19.2492	-0.875096	-4.681429E+11	4.532681E-14	NaN
1081	1.000000	0.283232	7.37562e+06	-54189.1	1055.82	-29744.1	0.000000	0.000000	6.282829	-0.096336	NaN	0.000000	0.001615	0.001653	28.0831	0.013281	0.002043	6.502065	-168.898	-167.344	-0.056019	0.281889	-0.865924	-0.867268	-0.096336	6.502065	-0.854812	-2.488226E+11	3.871689E-13	NaN
1081	1.000000	0.293253	7.37562e+06	-54189.1	1055.82	-29744.1	0.000000	0.000000	6.292853	-0.006549	NaN	0.000000	0.001584	0.001687	28.083	0.029446	0.001911	15.4124	-93.2287	13.2822	0.036870	0.291899	-0.855904	-0.857258	-0.006549	15.4124	-0.855585	-2.548946E+11	2.569319E-14	NaN
1081	1.000000	0.303265	7.37563e+06	-54189.1	1055.82	-29744.1	0.000000	0.000000	6.302863	-0.080336	NaN	0.000000	0.001602	0.001683	28.083	0.084059	0.002067	40.6714	104.338	-170.614	-0.160015	0.301907	-0.845892	-0.847249	-0.080336	40.6714	-0.844410	-1.799009E+11	4.465561E-13	NaN
1081	1.000000	0.313245	7.37563e+06	-54189.1	1055.82	-29744.1	0.000000	0.000000	6.312844	-0.038471	NaN	0.000000	0.001580	0.001647	28.083	0.020493	0.002034	10.0736	-160.801	13.3102	-0.128106	0.311896	-0.835912	-0.837260	-0.038471	10.0736	-0.833048	-1.262090E+11	3.048198E-13	NaN
1081	1.000000	0.323262	7.37563e+06	-54189.1	1055.82	-29744.1	0.000000	0.000000	6.322863	0.004069	NaN	0.000000	0.001572	0.001679	28.0829	0.082070	0.001882	43.6128	-45.9427	-170.401	0.005982	0.321973	-0.825895	-0.827183	0.004069	43.6128	-0.825965	-1.011772E+11	-4.021962E-14	NaN
1081	1.000000	0.333289	7.37563e+06	-54189.1	1055.82	-29744.1	0.000000	0.000000	6.332889	-0.014703	NaN	0.000000	0.001618	0.001684	28.0827	0.112644	0.001954	57.6472	-144.939	13.7085	-0.009836	0.331937	-0.815868	-0.817220	-0.014703	57.6472	-0.815677	-7.337979E+10	2.003694E-13	NaN
1081	1.000000	0.343250	7.37563e+06	-54189.1	1055.82	-29744.1	0.000000	0.000000	6.342846	-0.116136	NaN	0.000000	0.001606	0.001676	28.0826	0.036202	0.002031	17.8236	35.6467	-164.299	-0.139629	0.341918	-0.805906	-0.807238	-0.116136	17.8236	-0.801019	-4.641928E+10	2.501897E-12	NaN
1081	1.000000	0.353258	7.37563e+06	-54189.1	1055.82	-29744.1	0.000000	0.000000	6.352857	-0.034202	NaN	0.000000	0.001579	0.001677	28.0827	0.107328	0.002003	53.5755	10.534	12.8019	-0.021939	0.351930	-0.795899	-0.797227	-0.034202	53.5755	-0.795420	-3.896562E+10	8.777476E-13	NaN
1081	1.000000	0.363266	7.37563e+06	-54189.1	1055.82	-29744.1	0.000000	0.000000	6.362866	-0.026569	NaN	0.000000	0.001632	0.001638	28.0827	0.037052	0.001987	18.6444	-124.921	-165.41	0.061989	0.361919	-0.785890	-0.787238	-0.026569	18.6444	-0.784822	-2.797324E+10	9.498058E-13	NaN
1081	1.000000	0.373288	7.37563e+06	-54189.1	1055.82	-29744.1	0.000000	0.000000	6.372888	-0.010949	NaN	0.000000	0.001630	0.001670	28.0827	0.060459	0.001938	31.1939	23.9762	17.6155	-0.076934	0.371955	-0.775869	-0.777201	-0.010949	31.1939	-0.775605	-2.096555E+10	5.222253E-13	NaN
1081	1.000000	0.383308	7.37563e+06	-54189.1	1055.82	-29744.1	0.000000	0.000000	6.382909	0.018196	NaN	0.000000	0.001594	0.001714	28.0828	0.064522	0.002015	32.0247	83.9308	-166.639	0.005970	0.381985	-0.765849	-0.767172	0.018196	32.0247	-0.766275	-1.565503E+10	-1.162284E-12	NaN
1081	1.000000	0.393298	7.37563e+06	-54189.1	1055.82	-29744.1	0.000000	0.000000	6.392897	-0.027051	NaN	0.000000	0.001577	0.001692	28.0829	0.123079	0.001898	64.8434	-176.001	14.1295	0.054529	0.391909	-0.755859	-0.757247	-0.027051	64.8434	-0.755546	-1.118671E+10	2.418138E-12	NaN
1081	1.000000	0.403286	7.37563e+06	-54189.1	1055.82	-29744.1	0.000000	0.000000	6.402888	0.029957	NaN	0.000000	0.001576	0.001705	28.0828	0.118918	0.002000	59.4694	-63.0272	-165.734	0.046891	0.401993	-0.745871	-0.747163	0.029957	59.4694	-0.746249	-8.358952E+9	-3.583785E-12	NaN
1081	1.000000	0.413297	7.37563e+06	-54189.1	1055.82	-29744.1	0.000000	0.000000	6.412896	-0.034173	NaN	0.000000	0.001586	0.001697	28.0839	0.074832	0.001961	38.1697	47.2898	16.2631	-0.028304	0.411942	-0.735860	-0.737214	-0.034173	38.1697	-0.735188	-5.908938E+9	5.783205E-12	NaN
1081	1.000000	0.423290	7.37563e+06	-54189.1	1055.82	-29744.1	0.000000	0.000000	6.422891	-0.003740	NaN	0.000000	0.001576	0.001690	28.0842	0.128430	0.001975	65.0131	-114.067	-165.682	0.007779	0.421961	-0.725867	-0.727196	-0.003740	65.0131	-0.725824	-4.404319E+9	8.491042E-13	NaN
1081	1.000000	0.433303	7.37563e+06	-54189.1	1055.82	-29744.1	0.000000	0.000000	6.432903	-0.009225	NaN	0.000000	0.001560	0.001686	28.0843	0.092503	0.002066	44.7806	96.1274	12.6814	-0.042958	0.431924	-0.715854	-0.717232	-0.009225	44.7806	-0.715699	-3.204893E+9	2.878477E-12	NaN
1081	1.000000	0.443304	7.37563e+06	-54189.1	1055.82	-29744.1	0.000000	0.000000	6.442901	-0.092891	NaN	0.000000	0.001573	0.001701	28.0844	0.069311	0.001893	36.6086	106.513	-163.734	-0.070184	0.442031	-0.705853	-0.707125	-0.092891	36.6086	-0.703949	-2.215437E+9	4.192902E-11	NaN
1081	1.000000	0.453293	7.37563e+06	-54189.1	1055.82	-29744.1	0.000000	0.000000	6.452889	-0.119245	NaN	0.000000	0.001585	0.001675	28.0842	0.018255	0.001877	9.724134	111.669	16.103	-0.101784	0.452022	-0.695863	-0.697134	-0.119245	9.724134	-0.686666	-1.286323E+9	9.270203E-11	NaN
1081	1.000000	0.463317	7.37563e+06	-54189.1	1055.82	-29744.1	0.000000	0.000000	6.462915	-0.061006	NaN	0.000000	0.001556	0.001669	28.0847	0.031685	0.001954	16.2164	-69.5345	-164.329	-0.025181	0.462009	-0.685840	-0.687148	-0.061006	16.2164	-0.683018	-1.146773E+9	5.319806E-11	NaN
1081	1.000000	0.473319	7.37563e+06	-54189.1	1055.82	-29744.1	0.000000	0.000000	6.472921	0.034217	NaN	0.000000	0.001564	0.001701	28.0844	0.016050	0.001914	8.384320	54.6485	10.4313	0.079906	0.471973	-0.675838	-0.677184	0.034217	8.384320	-0.678898	-1.007257E+9	-3.397045E-11	NaN
1081	1.000000	0.483354	7.37563e+06	-54189.1	1055.82	-29744.1	0.000000	0.000000	6.482954	-0.013967	NaN	0.000000	0.001562	0.001745	28.0845	0.031510	0.001992	15.8146	-10.7019	-165.165	-0.019077	0.481988	-0.665803	-0.667169	-0.013967	15.8146	-0.665140	-6.529299E+8	2.139141E-11	NaN
1081	1.000000	0.493347	7.37563e+06	-54189.1	1055.82	-29744.1	0.000000	0.000000	6.492950	0.067608	NaN	0.000000	0.001567	0.001707	28.0845	0.083799	0.001955	42.8617	165.388	13.0533	-7.916045E-5	0.491971	-0.655810	-0.657186	0.067608	42.8617	-0.656993	-5.049809E+8	-1.338824E-10	NaN
1081	1.000000	0.503337	7.37563e+06	-54189.1	1055.82	-29744.1	0.000000	0.000000	6.502936	-0.047205	NaN	0.000000	0.001538	0.001702	28.0843	0.104692	0.001992	52.5524	49.0839	-165.937	-0.092172	0.501988	-0.645819	-0.647168	-0.047205	52.5524	-0.645146	-3.474349E+8	1.358660E-10	NaN
1081	1.000000	0.513310	7.37563e+06	-54189.1	1055.82	-29744.1	0.000000	0.000000	6.512912	0.026117	NaN	0.000000	0.001511	0.001738	28.0842	0.045356	0.002002	22.6574	-166.66	15.4671	-0.136437	0.511957	-0.635847	-0.637200	0.026117	22.6574	-0.636711	-2.661705E+8	-9.811978E-11	NaN
1081	1.000000	0.523329	7.37563e+06	-54189.1	1055.82	-29744.1	0.000000	0.000000	6.522929	-0.015291	NaN	0.000000	0.001557	0.001699	28.0843	0.065755	0.002025	32.4756	118.651	-165.398	-0.054133	0.522037	-0.625827	-0.627119	-0.015291	32.4756	-0.625474	-1.865780E+8	8.195546E-11	NaN
1081	1.000000	0.533349	7.37563e+06	-54189.1	1055.82	-29744.1	0.000000	0.000000	6.532948	-0.042019	NaN	0.000000	0.001598	0.001715	28.0843	0.020428	0.001951	10.4685	-38.2357	16.5941	-0.085010	0.531968	-0.615808	-0.617189	-0.042019	10.4685	-0.612797	-1.249091E+8	3.364001E-10	NaN
1081	1.000000	0.543365	7.37563e+06	-54189.1	1055.82	-29744.1	0.000000	0.000000	6.542968	0.048115	NaN	0.000000	0.001581	0.001703	28.0844	0.109612	0.002049	53.4938	42.2156	-166.047	-0.021639	0.542080	-0.605792	-0.607077	0.048115	53.4938	-0.606466	-1.022080E+8	-4.707548E-10	NaN
1081	1.000000	0.553350	7.37563e+06	-54189.1	1055.82	-29744.1	0.000000	0.000000	6.552950	-0.027513	NaN	0.000000	0.001590	0.001696	28.0832	0.100348	0.001811	55.4071	28.2569	10.3032	-0.164467	0.552008	-0.595806	-0.597148	-0.027513	55.4071	-0.595434	-7.203790E+7	3.819269E-10	NaN
1081	1.000000	0.563389	7.37563e+06	-54189.1	1055.82	-29744.1	0.000000	0.000000	6.562988	-0.036136	NaN	0.000000	0.001565	0.001676	28.083	0.070087	0.002114	33.1504	78.1082	-168.028	-0.078018	0.562049	-0.585768	-0.587107	-0.036136	33.1504	-0.584950	-5.164511E+7	6.996964E-10	NaN
1081	1.000000	0.573333	7.37563e+06	-54189.1	1055.82	-29744.1	0.000000	0.000000	6.572933	-0.031721	NaN	0.000000	0.001585	0.001696	28.0832	0.101451	0.002080	48.781	-153.871	14.4317	-0.030688	0.571980	-0.575823	-0.577176	-0.031721	48.781	-0.575336	-3.804822E+7	8.336977E-10	NaN
1081	1.000000	0.583363	7.37563e+06	-54189.1	1055.82	-29744.1	0.000000	0.000000	6.582959	-0.104500	NaN	0.000000	0.001547	0.001698	28.083	0.113007	0.001781	63.4399	-78.1213	-167.654	-0.053862	0.582071	-0.565794	-0.567085	-0.104500	63.4399	-0.564558	-2.700345E+7	3.869874E-9	NaN
1081	1.000000	0.593375	7.37563e+06	-54189.1	1055.82	-29744.1	0.000000	0.000000	6.592972	-0.105212	NaN	0.000000	0.001578	0.001726	28.0831	0.044594	0.002064	21.6017	-139.338	15.1594	-0.131433	0.592018	-0.555781	-0.557138	-0.105212	21.6017	-0.552128	-1.817329E+7	5.789399E-9	NaN
1081	1.000000	0.603384	7.37563e+06	-54189.1	1055.82	-29744.1	0.000000	0.000000	6.602984	-0.023853	NaN	0.000000	0.001554	0.001702	28.0831	0.024361	0.002004	12.1552	39.7336	-171.125	0.009124	0.602077	-0.545772	-0.547080	-0.023853	12.1552	-0.544300	-1.415737E+7	1.684844E-9	NaN
1081	1.000000	0.613406	7.37563e+06	-54189.1	1055.82	-29744.1	0.000000	0.000000	6.613007	-0.002158	NaN	0.000000	0.001596	0.001715	28.0834	0.052593	0.001909	27.5483	-29.1667	15.5373	-0.016509	0.612047	-0.535751	-0.537109	-0.002158	27.5483	-0.535692	-1.075461E+7	2.007005E-10	NaN
1081	1.000000	0.623394	7.37563e+06	-54189.1	1055.82	-29744.1	0.000000	0.000000	6.622992	-0.087431	NaN	0.000000	0.001614	0.001686	28.0831	0.039399	0.001966	20.0441	-15.7439	-167.226	-0.085339	0.622133	-0.525762	-0.527023	-0.087431	20.0441	-0.522491	-7.05072e+06	1.240033E-8	NaN
1081	1.000000	0.633403	7.37563e+06	-54189.1	1055.82	-29744.1	0.000000	0.000000	6.633004	-0.001990	NaN	0.000000	0.001608	0.001744	28.0828	0.082349	0.002094	39.3194	-6.599029	14.4299	0.011301	0.632047	-0.515753	-0.517109	-0.001990	39.3194	-0.515715	-5.67532e+06	3.506354E-10	NaN
1081	1.000000	0.643395	7.37563e+06	-54189.1	1055.82	-29744.1	0.000000	0.000000	6.642993	-0.079064	NaN	0.000000	0.001591	0.001773	28.083	0.051236	0.001924	26.6261	-56.984	-166.126	-0.050076	0.642058	-0.505761	-0.507099	-0.079064	26.6261	-0.503534	-3.83981e+06	2.059064E-8	NaN
1081	1.000000	0.653395	7.37563e+06	-54189.1	1055.82	-29744.1	0.000000	0.000000	6.652994	-0.056620	NaN	0.000000	0.001617	0.001711	28.0831	0.119706	0.001872	63.9316	-56.2418	13.8235	-0.069932	0.652083	-0.495761	-0.497074	-0.056620	63.9316	-0.495097	-2.92811e+06	1.933670E-8	NaN
1081	1.000000	0.663406	7.37563e+06	-54189.1	1055.82	-29744.1	0.000000	0.000000	6.663008	0.039355	NaN	0.000000	0.001603	0.001709	28.0829	0.071103	0.001920	37.0372	-143.351	-165.505	0.077756	0.662057	-0.485751	-0.487100	0.039355	37.0372	-0.486548	-2.22402e+06	-1.769552E-8	NaN
1081	1.000000	0.673412	7.37563e+06	-54189.1	1055.82	-29744.1	0.000000	0.000000	6.673014	0.016603	NaN	0.000000	0.001609	0.001702	28.0829	0.101141	0.001880	53.7891	-70.0292	15.0706	0.049290	0.672047	-0.475744	-0.477110	0.016603	53.7891	-0.475976	-1.58188e+06	-1.049561E-8	NaN
1081	1.000000	0.683421	7.37563e+06	-54189.1	1055.82	-29744.1	0.000000	0.000000	6.683021	-0.010882	NaN	0.000000	0.001598	0.001697	28.0841	0.010440	0.001954	5.343604	-106.861	-168.79	-0.023244	0.682128	-0.465736	-0.467028	-0.010882	5.343604	-0.464208	-1.08177e+06	1.005956E-8	NaN
1081	1.000000	0.693441	7.37563e+06	-54189.1	1055.82	-29744.1	0.000000	0.000000	6.693038	-0.100502	NaN	0.000000	0.001565	0.001726	28.0841	0.072293	0.001872	38.6102	-44.9031	15.9556	-0.006395	0.692033	-0.455716	-0.457124	-0.100502	38.6102	-0.453764	-771474	1.302730E-7	NaN
1081	1.000000	0.703429	7.37563e+06	-54189.1	1055.82	-29744.1	0.000000	0.000000	6.703028	-0.051129	NaN	0.000000	0.001616	0.001702	28.0837	0.049283	0.002048	24.0679	141.658	-163.48	-0.086140	0.702078	-0.445727	-0.447078	-0.051129	24.0679	-0.444134	-564528	9.056874E-8	NaN
1081	1.000000	0.713401	7.37563e+06	-54189.1	1055.82	-29744.1	0.000000	0.000000	6.713005	0.061541	NaN	0.000000	0.001602	0.001703	28.0842	0.013056	0.001980	6.594847	-98.5779	11.1946	0.020716	0.712058	-0.435755	-0.437099	0.061541	6.594847	-0.442754	-539782	-1.140117E-7	NaN
1081	1.000000	0.723463	7.37563e+06	-54189.1	1055.82	-29744.1	0.000000	0.000000	6.723064	0.012444	NaN	0.000000	0.001578	0.001693	28.0841	0.023243	0.002044	11.3707	-105.745	-166.818	-0.000706	0.722140	-0.425694	-0.427017	0.012444	11.3707	-0.426514	-318222	-3.910589E-8	NaN
1081	1.000000	0.733434	7.37563e+06	-54189.1	1055.82	-29744.1	0.000000	0.000000	6.733034	-0.013088	NaN	0.000000	0.001589	0.001715	28.0845	0.072160	0.001992	36.2265	-164.811	14.966	-0.025920	0.732089	-0.415723	-0.417068	-0.013088	36.2265	-0.415452	-221755	5.902120E-8	NaN
1081	1.000000	0.743431	7.37563e+06	-54189.1	1055.82	-29744.1	0.000000	0.000000	6.743028	-0.091588	NaN	0.000000	0.001598	0.001653	28.0841	0.187822	0.002186	85.9336	-141.841	-165.002	-0.042806	0.742177	-0.405725	-0.406979	-0.091588	85.9336	-0.404926	-157107	5.829624E-7	NaN
1081	1.000000	0.753433	7.37563e+06	-54189.1	1055.82	-29744.1	0.000000	0.000000	6.753033	-0.005532	NaN	0.000000	0.001567	0.001683	28.0846	0.081452	0.002093	38.9151	110.857	12.0194	-0.091912	0.752096	-0.395724	-0.397060	-0.005532	38.9151	-0.395617	-115731	4.780221E-8	NaN
1081	1.000000	0.763453	7.37563e+06	-54189.1	1055.82	-29744.1	0.000000	0.000000	6.763055	0.019739	NaN	0.000000	0.001578	0.001679	28.0843	0.047003	0.002018	23.2971	-53.1234	-167.854	-0.052186	0.762087	-0.385703	-0.387069	0.019739	23.2971	-0.386339	-85263.4	-2.315045E-7	NaN
1081	1.000000	0.773453	7.37563e+06	-54189.1	1055.82	-29744.1	0.000000	0.000000	6.773051	-0.053276	NaN	0.000000	0.001611	0.001650	28.0844	0.113259	0.001930	58.6861	-162.247	10.2429	-0.045913	0.772065	-0.375704	-0.377091	-0.053276	58.6861	-0.375023	-58668.3	9.080823E-7	NaN
1081	1.000000	0.783449	7.37563e+06	-54189.1	1055.82	-29744.1	0.000000	0.000000	6.783050	-0.003149	NaN	0.000000	0.001634	0.001638	28.0844	0.101724	0.002030	50.11	166.435	-162.752	0.019219	0.782208	-0.365708	-0.366949	-0.003149	50.11	-0.365661	-43011.5	7.321482E-8	NaN
1081	1.000000	0.793461	7.37563e+06	-54189.1	1055.82	-29744.1	0.000000	0.000000	6.793059	-0.074765	NaN	0.000000	0.001583	0.001629	28.0846	0.073746	0.001960	37.6295	140.379	9.913760	-0.045137	0.792092	-0.355695	-0.357064	-0.074765	37.6295	-0.354205	-29375.1	2.545190E-6	NaN
1081	1.000000	0.803470	7.37563e+06	-54189.1	1055.82	-29744.1	0.000000	0.000000	6.803069	-0.048029	NaN	0.000000	0.001587	0.001602	28.0842	0.043257	0.001968	21.9772	-142.672	-164.106	-0.110953	0.802143	-0.345686	-0.347013	-0.048029	21.9772	-0.344047	-20917	2.296193E-6	NaN
1081	1.000000	0.813432	7.37563e+06	-54189.1	1055.82	-29744.1	0.000000	0.000000	6.813032	-0.035253	NaN	0.000000	0.001605	0.001619	28.0843	0.180609	0.002065	87.4587	123.258	15.0186	-0.028852	0.812105	-0.335724	-0.337052	-0.035253	87.4587	-0.335422	-15658.5	2.251354E-6	NaN
1081	1.000000	0.823504	7.37563e+06	-54189.1	1055.82	-29744.1	0.000000	0.000000	6.823107	0.041732	NaN	0.000000	0.001571	0.001634	28.083	0.024130	0.002128	11.3388	-122.281	-168.657	0.014012	0.822168	-0.325652	-0.326989	0.041732	11.3388	-0.328412	-12364.9	-3.375047E-6	NaN
1081	1.000000	0.833464	7.37563e+06	-54189.1	1055.82	-29744.1	0.000000	0.000000	6.833065	0.012577	NaN	0.000000	0.001581	0.001627	28.0836	0.107678	0.001915	56.2255	-59.2764	13.5058	0.099518	0.832136	-0.315693	-0.317020	0.012577	56.2255	-0.315861	-8084.35	-1.555700E-6	NaN
1081	1.000000	0.843500	7.37563e+06	-54189.1	1055.82	-29744.1	0.000000	0.000000	6.843102	0.041812	NaN	0.000000	0.001593	0.001633	28.0831	0.117504	0.002134	55.0646	95.7899	-166.777	0.075651	0.842180	-0.305657	-0.306976	0.041812	55.0646	-0.306226	-5823.04	-7.180496E-6	NaN
1081	1.000000	0.853470	7.37563e+06	-54189.1	1055.82	-29744.1	0.000000	0.000000	6.853072	0.022892	NaN	0.000000	0.001606	0.001666	28.0833	0.042116	0.002028	20.7718	113.862	12.0288	0.018409	0.852116	-0.295686	-0.297041	0.022892	20.7718	-0.296513	-4175.11	-5.482951E-6	NaN
1081	1.000000	0.863456	7.37563e+06	-54189.1	1055.82	-29744.1	0.000000	0.000000	6.863057	0.001480	NaN	0.000000	0.001567	0.001629	28.0835	0.012412	0.001968	6.307804	67.1914	-165.416	0.013426	0.862192	-0.285701	-0.286965	0.001480	6.307804	-0.285877	-2893.61	-5.116429E-7	NaN
1081	1.000000	0.873527	7.37563e+06	-54189.1	1055.82	-29744.1	0.000000	0.000000	6.873128	-0.009804	NaN	0.000000	0.001602	0.001665	28.0835	0.107369	0.002017	53.2357	-115.606	15.9837	-0.034633	0.872156	-0.275629	-0.277000	-0.009804	53.2357	-0.275491	-2017.61	4.859420E-6	NaN
1081	1.000000	0.883520	7.37563e+06	-54189.1	1055.82	-29744.1	0.000000	0.000000	6.883119	-0.061690	NaN	0.000000	0.001600	0.001637	28.0833	0.034916	0.002015	17.3297	-69.5531	-168.381	-0.047420	0.882158	-0.265636	-0.266998	-0.061690	17.3297	-0.262966	-1301.15	4.741217E-5	NaN
1081	1.000000	0.893534	7.37563e+06	-54189.1	1055.82	-29744.1	0.000000	0.000000	6.893134	-0.017588	NaN	0.000000	0.001614	0.001682	28.0832	0.118445	0.001966	60.2383	-20.9274	17.1913	-0.003120	0.892146	-0.255622	-0.257010	-0.017588	60.2383	-0.255403	-996.151	1.765567E-5	NaN
1081	1.000000	0.903512	7.37563e+06	-54189.1	1055.82	-29744.1	0.000000	0.000000	6.903112	-0.030757	NaN	0.000000	0.001617	0.001669	28.0835	0.123847	0.001961	63.1533	-108.196	-167.38	-0.064313	0.902181	-0.245644	-0.246976	-0.030757	63.1533	-0.245279	-694.686	4.427454E-5	NaN
1081	1.000000	0.913486	7.37563e+06	-54189.1	1055.82	-29744.1	0.000000	0.000000	6.913088	0.041617	NaN	0.000000	0.001613	0.001630	28.0832	0.032603	0.002036	16.0143	-177.842	14.0311	0.016964	0.912113	-0.235671	-0.237043	0.041617	16.0143	-0.237620	-527.627	-7.887534E-5	NaN
1081	1.000000	0.923498	7.37563e+06	-54189.1	1055.82	-29744.1	0.000000	0.000000	6.923099	-0.002454	NaN	0.000000	0.001651	0.001660	28.0833	0.057761	0.002072	27.8833	-38.7649	-164.135	0.003539	0.922166	-0.225659	-0.226990	-0.002454	27.8833	-0.225593	-340.991	7.197214E-6	NaN
1081	1.000000	0.933532	7.37563e+06	-54189.1	1055.82	-29744.1	0.000000	0.000000	6.933132	-0.026861	NaN	0.000000	0.001591	0.001659	28.0833	0.054855	0.001916	28.6251	80.3491	17.7876	0.001109	0.932175	-0.215624	-0.216982	-0.026861	28.6251	-0.214920	-230.267	0.000117	NaN
1081	1.000000	0.943528	7.37563e+06	-54189.1	1055.82	-29744.1	0.000000	0.000000	6.943127	-0.046160	NaN	0.000000	0.001592	0.001622	28.0838	0.107377	0.002002	53.6319	13.4403	-167.287	-0.055868	0.942218	-0.205628	-0.206939	-0.046160	53.6319	-0.204983	-158.957	0.000290	NaN
1081	1.000000	0.953539	7.37563e+06	-54189.1	1055.82	-29744.1	0.000000	0.000000	6.953138	-0.040684	NaN	0.000000	0.001625	0.001666	28.0834	0.091910	0.001964	46.8068	-134.436	17.669	0.006658	0.952134	-0.195617	-0.197023	-0.040684	46.8068	-0.194966	-108.801	0.000374	NaN
1081	1.000000	0.963539	7.37563e+06	-54189.1	1055.82	-29744.1	0.000000	0.000000	6.963138	-0.038970	NaN	0.000000	0.001645	0.001664	28.0848	0.083235	0.001947	42.7484	145.492	-165.861	-0.006876	0.962181	-0.185618	-0.186976	-0.038970	42.7484	-0.184934	-73.964	0.000527	NaN
1081	1.000000	0.973515	7.37563e+06	-54189.1	1055.82	-29744.1	0.000000	0.000000	6.973114	-0.059100	NaN	0.000000	0.001621	0.001642	28.0846	0.019865	0.001895	10.4809	75.5387	12.2303	-0.074523	0.972200	-0.175642	-0.176956	-0.059100	10.4809	-0.171412	-43.4613	0.001360	NaN
1081	1.000000	0.983554	7.37563e+06	-54189.1	1055.82	-29744.1	0.000000	0.000000	6.983153	-0.047666	NaN	0.000000	0.001661	0.001591	28.0847	0.126325	0.001870	67.5492	-66.6985	-165.556	-0.001601	0.982210	-0.165602	-0.166947	-0.047666	67.5492	-0.165073	-33.6965	0.001415	NaN
1081	1.000000	0.993535	7.37563e+06	-54189.1	1055.82	-29744.1	0.000000	0.000000	6.993137	0.025259	NaN	0.000000	0.001614	0.001636	28.0844	0.082958	0.002024	40.9843	178.544	13.5577	0.054157	0.992209	-0.155622	-0.156947	0.025259	40.9843	-0.156084	-23.3377	-0.001082	NaN
1081	1.000000	1.003503	7.37563e+06	-54189.1	1055.82	-29744.1	0.000000	0.000000	7.003101	-0.047887	NaN	0.000000	0.001648	0.001667	28.0847	0.071763	0.002081	34.4789	22.316	-166.324	-0.094859	1.002242	-0.145654	-0.146914	-0.047887	34.4789	-0.144612	-14.4209	0.003321	NaN
1081	1.000000	1.013537	7.37563e+06	-54189.1	1055.82	-29744.1	0.000000	0.000000	7.013138	-0.000552	NaN	0.000000	0.001637	0.001633	28.0847	0.089772	0.001960	45.8103	-9.378194	8.890990	-0.075786	1.012192	-0.135619	-0.136964	-0.000552	45.8103	-0.135610	-9.770762	5.649606E-5	NaN
1081	1.000000	1.023546	7.37563e+06	-54189.1	1055.82	-29744.1	0.000000	0.000000	7.023147	0.016802	NaN	0.000000	0.001587	0.001632	28.0846	0.009831	0.001920	5.120908	-89.376	-165.742	-0.017908	1.022226	-0.125611	-0.126930	0.016802	5.120908	-0.128072	-6.989145	-0.002404	NaN
1081	1.000000	1.033561	7.37563e+06	-54189.1	1055.82	-29744.1	0.000000	0.000000	7.033162	-0.016839	NaN	0.000000	0.001574	0.001638	28.0843	0.092513	0.001975	46.8484	-118.939	15.1546	0.008124	1.032163	-0.115595	-0.116994	-0.016839	46.8484	-0.115326	-3.879835	0.004340	NaN
1081	1.000000	1.043562	7.37563e+06	-54189.1	1055.82	-29744.1	0.000000	0.000000	7.043160	-0.072013	NaN	0.000000	0.001568	0.001644	28.0845	0.036459	0.002185	16.6884	162.721	-162.41	-0.011389	1.042227	-0.105595	-0.106930	-0.072013	16.6884	-0.102359	-2.059351	0.034969	NaN
1081	1.000000	1.053555	7.37563e+06	-54189.1	1055.82	-29744.1	0.000000	0.000000	7.053156	0.013051	NaN	0.000000	0.001566	0.001609	28.0845	0.081576	0.001884	43.3082	91.1295	15.5622	-0.040960	1.052172	-0.095602	-0.096985	0.013051	43.3082	-0.095828	-1.473092	-0.008860	NaN
1081	1.000000	1.063576	7.37563e+06	-54189.1	1055.82	-29744.1	0.000000	0.000000	7.063175	-0.028346	NaN	0.000000	0.001541	0.001651	28.0842	0.144749	0.001916	75.5339	76.1508	-166.578	-0.062583	1.062240	-0.085581	-0.086917	-0.028346	75.5339	-0.085299	-0.835448	0.033929	NaN
1081	1.000000	1.073561	7.37563e+06	-54189.1	1055.82	-29744.1	0.000000	0.000000	7.073163	0.029781	NaN	0.000000	0.001592	0.001631	28.0841	0.130393	0.002074	62.8735	-57.323	8.478528	-0.001778	1.072226	-0.075596	-0.076931	0.029781	62.8735	-0.075951	-0.488704	-0.060938	NaN
1081	1.000000	1.083563	7.37563e+06	-54189.1	1055.82	-29744.1	0.000000	0.000000	7.083164	-0.016873	NaN	0.000000	0.001597	0.001614	28.0843	0.050956	0.001909	26.6866	146.905	-167.946	0.016942	1.082356	-0.065593	-0.066801	-0.016873	26.6866	-0.065119	-0.251117	0.067194	NaN
1081	1.000000	1.093582	7.37563e+06	-54189.1	1055.82	-29744.1	0.000000	0.000000	7.093184	0.023925	NaN	0.000000	0.001584	0.001591	28.083	0.021092	0.002033	10.3759	-21.476	12.701	0.053084	1.092182	-0.055575	-0.056975	0.023925	10.3759	-0.057304	-0.150488	-0.158982	NaN
1081	1.000000	1.103568	7.37563e+06	-54189.1	1055.82	-29744.1	0.000000	0.000000	7.103170	0.027789	NaN	0.000000	0.001638	0.001618	28.0829	0.043429	0.001921	22.6025	-6.040318	-166.303	-0.009216	1.102259	-0.045589	-0.046898	0.027789	22.6025	-0.046511	-0.071476	-0.388783	NaN
1081	1.000000	1.113590	7.37563e+06	-54189.1	1055.82	-29744.1	0.000000	0.000000	7.113190	-0.025425	NaN	0.000000	0.001603	0.001613	28.0827	0.025391	0.001910	13.2924	-122.95	13.6762	-0.037594	1.112217	-0.035567	-0.036940	-0.025425	13.2924	-0.034132	-0.030201	0.841856	NaN
1081	1.000000	1.123580	7.37563e+06	-54189.1	1055.82	-29744.1	0.000000	0.000000	7.123181	0.008617	NaN	0.000000	0.001551	0.001620	28.0832	0.101087	0.002030	49.7938	161.114	-162.689	-0.030857	1.122359	-0.025577	-0.026798	0.008617	49.7938	-0.025706	-0.017606	-0.489465	NaN
1081	1.000000	1.133566	7.37563e+06	-54189.1	1055.82	-29744.1	0.000000	0.000000	7.133166	-0.023740	NaN	0.000000	0.001567	0.001617	28.0828	0.192314	0.001976	97.322	98.643	10.4742	-0.024417	1.132190	-0.015590	-0.016967	-0.023740	97.322	-0.015407	-0.009521	2.493451	NaN
1081	1.000000	1.143606	7.37563e+06	-54189.1	1055.82	-29744.1	0.000000	0.000000	7.143212	0.133897	NaN	0.000000	0.001564	0.001633	28.0832	0.195942	0.001946	100.675	22.8354	-163.056	0.049217	1.142272	-0.005551	-0.006885	0.133897	100.675	-0.006548	-0.004369	-30.6446	NaN
1081	2.000000	1.153287	7.37563e+06	-54189.1	1055.82	-29744.1	0.000000	0.000000	7.153252	8.858333	NaN	0.000000	0.001598	0.001645	28.0831	8.677939	0.001750	4960.11	14.4929	4.457347	7.926903	1.152172	0.004130	0.003015	8.858333	4960.11	0.002791	0.002205	4017.87	96513.2
1081	2.000000	1.156145	7.37563e+06	-54189.1	1055.82	-29744.1	0.000000	0.000000	7.156246	12.1704	NaN	0.000000	0.001593	0.001654	28.0834	12.0232	0.001751	6867.41	7.038825	-174.661	11.7945	1.155791	0.006988	0.006634	12.1704	6867.41	0.005659	0.004743	2566.05	91105.9
1081	2.000000	1.158691	7.37563e+06	-54189.1	1055.82	-29744.1	0.000000	0.000000	7.159005	17.3313	NaN	0.000000	0.001621	0.001619	28.083	14.5006	0.001625	8920.84	8.887098	3.253523	19.0364	1.158288	0.009535	0.009131	17.3313	8920.84	0.008078	0.007122	2433.32	96574.8
1081	2.000000	1.161086	7.37563e+06	-54189.1	1055.82	-29744.1	0.000000	0.000000	7.161572	21.5192	NaN	0.000000	0.001577	0.001616	28.0833	16.9052	0.001651	10239.7	12.0524	178.531	21.435	1.160708	0.011929	0.011552	21.5192	10239.7	0.010353	0.009576	2247.09	95599.5
1081	2.000000	1.163576	7.37563e+06	-54189.1	1055.82	-29744.1	0.000000	0.000000	7.164101	22.4706	NaN	0.000000	0.001583	0.001629	28.0832	20.025	0.001640	12207.5	7.868246	-0.604546	21.4453	1.163327	0.014420	0.014170	22.4706	12207.5	0.013039	0.012759	1761.19	98740.8
1081	2.000000	1.166136	7.37563e+06	-54189.1	1055.82	-29744.1	0.000000	0.000000	7.166810	26.0853	NaN	0.000000	0.001590	0.001662	28.0834	23.557	0.001915	12302.2	7.729755	-178.95	28.6226	1.165863	0.016979	0.016706	26.0853	12302.2	0.015389	0.015808	1650.16	89396.9
1081	2.000000	1.168593	7.37563e+06	-54189.1	1055.82	-29744.1	0.000000	0.000000	7.169584	33.79	NaN	0.000000	0.001555	0.001640	28.0831	26.1202	0.001879	13901.1	10.1654	-2.482412	34.2648	1.168179	0.019437	0.019022	33.79	13901.1	0.017613	0.018930	1785	92309.9
1081	2.000000	1.171035	7.37563e+06	-54189.1	1055.82	-29744.1	0.000000	0.000000	7.172324	41.0322	NaN	0.000000	0.001541	0.001660	28.0831	27.5534	0.001773	15540.7	3.361543	-177.389	40.5881	1.170786	0.021878	0.021630	41.0322	15540.7	0.019898	0.022383	1833.23	94904.8
1081	2.000000	1.173520	7.37563e+06	-54189.1	1055.82	-29744.1	0.000000	0.000000	7.175154	49.4317	NaN	0.000000	0.001558	0.001660	28.0843	29.3305	0.001877	15624.3	5.871800	1.058303	47.1909	1.173182	0.024363	0.024025	49.4317	15624.3	0.021990	0.025767	1918.43	88929.3
1081	2.000000	1.175997	7.37563e+06	-54189.1	1055.82	-29744.1	0.000000	0.000000	7.177728	51.7911	NaN	0.000000	0.001556	0.001618	28.0842	32.046	0.001736	18459.3	2.423965	-179.268	49.0995	1.175729	0.026841	0.026573	51.7911	18459.3	0.024736	0.030538	1695.97	96509.6
1081	2.000000	1.178555	7.37563e+06	-54189.1	1055.82	-29744.1	0.000000	0.000000	7.180606	59.5635	NaN	0.000000	0.001551	0.001644	28.0843	34.1435	0.001756	19442	7.088715	-3.084210	58.6995	1.178265	0.029399	0.029109	59.5635	19442	0.027101	0.034949	1704.31	95016.6
1081	2.000000	1.181047	7.37563e+06	-54189.1	1055.82	-29744.1	0.000000	0.000000	7.183438	67.8369	NaN	0.000000	0.001564	0.001637	28.0843	37.286	0.001879	19844.7	7.556220	176.532	68.6243	1.180783	0.031890	0.031626	67.8369	19844.7	0.029327	0.039360	1723.52	91388.6
1081	2.000000	1.183532	7.37563e+06	-54189.1	1055.82	-29744.1	0.000000	0.000000	7.186011	69.9506	NaN	0.000000	0.001597	0.001671	28.0847	39.3063	0.001745	22527.9	2.980068	-0.604736	68.7893	1.183221	0.034376	0.034064	69.9506	22527.9	0.032047	0.045093	1551.24	96925.4
1081	2.000000	1.186034	7.37563e+06	-54189.1	1055.82	-29744.1	0.000000	0.000000	7.188888	79.0876	NaN	0.000000	0.001648	0.001674	28.0842	41.7753	0.001788	23360.5	1.560006	-179.533	78.4046	1.185783	0.036877	0.036626	79.0876	23360.5	0.034338	0.050216	1574.95	95243.4
1081	2.000000	1.188612	7.37563e+06	-54189.1	1055.82	-29744.1	0.000000	0.000000	7.191946	90.7463	NaN	0.000000	0.001583	0.001724	28.0848	44.5201	0.001848	24088.8	7.475626	-5.190950	92.1205	1.188176	0.039456	0.039019	90.7463	24088.8	0.036631	0.055611	1631.81	93327.3
1081	2.000000	1.191019	7.37563e+06	-54189.1	1055.82	-29744.1	0.000000	0.000000	7.194626	97.3927	NaN	0.000000	0.001619	0.001696	28.0841	46.6259	0.001851	25196.1	4.509328	177.107	97.4462	1.190665	0.041863	0.041509	97.3927	25196.1	0.038964	0.061377	1586.78	92918.4
1081	2.000000	1.193581	7.37563e+06	-54189.1	1055.82	-29744.1	0.000000	0.000000	7.197446	103.648	NaN	0.000000	0.001620	0.001714	28.0848	49.3423	0.001777	27773	5.339009	-4.592659	106.335	1.193263	0.044425	0.044106	103.648	27773	0.041626	0.068298	1517.58	97093.8
1081	2.000000	1.196011	7.37563e+06	-54189.1	1055.82	-29744.1	0.000000	0.000000	7.200085	108.767	NaN	0.000000	0.001623	0.001749	28.0843	52.2722	0.001948	26834	2.090841	178.09	106.205	1.195804	0.046854	0.046647	108.767	26834	0.043814	0.074256	1464.76	89969
1081	2.000000	1.198466	7.37563e+06	-54189.1	1055.82	-29744.1	0.000000	0.000000	7.203327	127.867	NaN	0.000000	0.001597	0.001658	28.0849	53.4563	0.001754	30481.1	2.466040	-2.784253	122.199	1.198023	0.049310	0.048866	127.867	30481.1	0.046164	0.080925	1580.07	97895.5
1081	2.000000	1.200992	7.37563e+06	-54189.1	1055.82	-29744.1	0.000000	0.000000	7.206147	135.042	NaN	0.000000	0.001605	0.001695	28.0841	55.9871	0.001876	29848.3	6.920780	173.929	133.533	1.200615	0.051835	0.051459	135.042	29848.3	0.048442	0.087658	1540.55	92107.6
1081	2.000000	1.203512	7.37563e+06	-54189.1	1055.82	-29744.1	0.000000	0.000000	7.209105	145.673	NaN	0.000000	0.001569	0.001691	28.0848	57.9208	0.001723	33620.2	5.547677	-6.662330	143.971	1.203092	0.054355	0.053936	145.673	33620.2	0.051106	0.095862	1519.62	99208.8
1081	2.000000	1.206056	7.37563e+06	-54189.1	1055.82	-29744.1	0.000000	0.000000	7.212116	157.019	NaN	0.000000	0.001541	0.001695	28.0842	61.9343	0.001732	35749	6.232492	171.711	160.338	1.205753	0.056900	0.056597	157.019	35749	0.053606	0.103883	1511.49	101336
1081	2.000000	1.208563	7.37563e+06	-54189.1	1055.82	-29744.1	0.000000	0.000000	7.215354	174.798	NaN	0.000000	0.001569	0.001715	28.0836	63.14	0.001731	36484.9	5.550805	-6.877798	175.965	1.208240	0.059406	0.059084	174.798	36484.9	0.055813	0.111223	1571.59	99951.3
1081	2.000000	1.210966	7.37563e+06	-54189.1	1055.82	-29744.1	0.000000	0.000000	7.218303	188.077	NaN	0.000000	0.001579	0.001679	28.083	64.8185	0.001670	38810.2	1.401122	175.99	184.835	1.210705	0.061809	0.061548	188.077	38810.2	0.058175	0.119344	1575.93	102640
1081	2.000000	1.213489	7.37563e+06	-54189.1	1055.82	-29744.1	0.000000	0.000000	7.221332	200.373	NaN	0.000000	0.001578	0.001662	28.0832	68.9688	0.001870	36875.1	3.260365	-4.822129	198.225	1.213107	0.064333	0.063951	200.373	36875.1	0.060257	0.126733	1581.06	94637.2
1081	2.000000	1.216053	7.37563e+06	-54189.1	1055.82	-29744.1	0.000000	0.000000	7.224221	208.296	NaN	0.000000	0.001580	0.001684	28.0831	70.6094	0.001839	38389.4	3.132437	174.596	212.45	1.215721	0.066896	0.066564	208.296	38389.4	0.062827	0.136139	1530.02	95059
1081	2.000000	1.218495	7.37563e+06	-54189.1	1055.82	-29744.1	0.000000	0.000000	7.227449	227.385	NaN	0.000000	0.001555	0.001695	28.0833	72.3852	0.001751	41339.5	4.006371	-6.454857	225.94	1.218166	0.069339	0.069010	227.385	41339.5	0.065213	0.145164	1566.4	99130.8
1081	2.000000	1.220972	7.37563e+06	-54189.1	1055.82	-29744.1	0.000000	0.000000	7.230704	246.305	NaN	0.000000	0.001540	0.001669	28.0834	74.745	0.001777	42069.5	3.567468	174.28	246.853	1.220641	0.071815	0.071484	246.305	42069.5	0.067424	0.153769	1601.79	98018.3
1081	2.000000	1.223410	7.37563e+06	-54189.1	1055.82	-29744.1	0.000000	0.000000	7.233409	252.794	NaN	0.000000	0.001530	0.001702	28.0833	77.8506	0.001800	43251.6	2.375550	-5.579544	247.785	1.223111	0.074254	0.073955	252.794	43251.6	0.069870	0.163560	1545.57	97709.4
1081	2.000000	1.225972	7.37563e+06	-54189.1	1055.82	-29744.1	0.000000	0.000000	7.236645	269.175	NaN	0.000000	0.001553	0.001711	28.0833	80.7272	0.001811	44582.8	1.958117	174.789	269.875	1.225757	0.076815	0.076601	269.175	44582.8	0.072287	0.173515	1551.3	97785
1081	2.000000	1.228418	7.37563e+06	-54189.1	1055.82	-29744.1	0.000000	0.000000	7.239916	289.211	NaN	0.000000	0.001567	0.001714	28.0832	81.6157	0.001836	44456.2	3.213100	-5.255685	284.628	1.228079	0.079262	0.078922	289.211	44456.2	0.074383	0.182372	1585.83	95109.9
1081	2.000000	1.230921	7.37563e+06	-54189.1	1055.82	-29744.1	0.000000	0.000000	7.243116	306.186	NaN	0.000000	0.001533	0.001696	28.0836	84.6536	0.001740	48657.6	5.657761	170.797	303.799	1.230588	0.081764	0.081432	306.186	48657.6	0.077045	0.193921	1578.92	100951
1081	2.000000	1.233417	7.37563e+06	-54189.1	1055.82	-29744.1	0.000000	0.000000	7.246109	318.264	NaN	0.000000	0.001547	0.001679	28.0835	87.4763	0.001806	48437.3	5.130330	-8.761909	313.262	1.233154	0.084261	0.083998	318.264	48437.3	0.079333	0.204111	1559.27	97953.5
1081	2.000000	1.235929	7.37563e+06	-54189.1	1055.82	-29744.1	0.000000	0.000000	7.249200	332.328	NaN	0.000000	0.001524	0.001694	28.0833	89.6226	0.001828	49021.1	4.530307	171.559	330.994	1.235712	0.086772	0.086555	332.328	49021.1	0.081688	0.214855	1546.75	96623.6
1081	2.000000	1.238466	7.37563e+06	-54189.1	1055.82	-29744.1	0.000000	0.000000	7.252486	350.533	NaN	0.000000	0.001534	0.001690	28.0837	91.778	0.001755	52302	8.891462	-13.7131	346.629	1.238166	0.089309	0.089010	350.533	52302	0.084283	0.226993	1544.25	100296
1081	2.000000	1.240975	7.37563e+06	-54189.1	1055.82	-29744.1	0.000000	0.000000	7.255609	365.465	NaN	0.000000	0.001540	0.001714	28.0846	93.5906	0.001751	53447.8	1.966027	173.83	364.65	1.240719	0.091818	0.091563	365.465	53447.8	0.086690	0.238530	1532.16	99984.3
1081	2.000000	1.243449	7.37563e+06	-54189.1	1055.82	-29744.1	0.000000	0.000000	7.258694	380.335	NaN	0.000000	0.001549	0.001680	28.0859	96.1977	0.001737	55388	3.311591	-8.081499	375.084	1.243105	0.094292	0.093948	380.335	55388	0.089142	0.250557	1517.96	101096
1081	2.000000	1.245981	7.37563e+06	-54189.1	1055.82	-29744.1	0.000000	0.000000	7.262479	410.767	NaN	0.000000	0.001613	0.001741	28.0846	100.29	0.001855	54062.1	5.506319	170.752	412.695	1.245493	0.096825	0.096336	410.767	54062.1	0.091126	0.260490	1576.9	96776.6
1081	2.000000	1.248532	7.37563e+06	-54189.1	1055.82	-29744.1	0.000000	0.000000	7.265624	425.245	NaN	0.000000	0.001588	0.001692	28.0849	101.881	0.001655	61571.6	5.895956	-10.5128	425.889	1.248041	0.099375	0.098884	425.245	61571.6	0.094195	0.276210	1539.57	107037
1081	2.000000	1.250953	7.37563e+06	-54189.1	1055.82	-29744.1	0.000000	0.000000	7.268875	445.39	NaN	0.000000	0.001590	0.001704	28.0847	102.666	0.001789	57393.8	-0.152501	175.481	444.11	1.250650	0.101797	0.101494	445.39	57393.8	0.095977	0.285533	1559.85	98131.8
1081	2.000000	1.251872	7.37563e+06	-54189.1	1055.82	-29744.1	0.000000	0.000000	7.270188	454.978	NaN	0.000000	0.001575	0.001674	28.0849	104.511	0.001749	59750.3	3.925853	171.537	448.879	1.251594	0.102715	0.102438	454.978	59750.3	0.097004	0.290977	1563.62	101201