File: remote_trans/data/nanoindenter/0828-1/data/Data_2025-08-06,11h17m57s/2025-07-22_16-23-58_1_274.txt
2025-07-22, 16:23:58, 1
Index	Phase	Displacement	Time	Pos X	Pos Y	Pos Z	Rot A	Rot B	Piezo Z	Force A	Force B	Gripper	Voltage A	Voltage B	Temperature	Amplitude force	Amplitude pos	Stiffness	Phase shift	Phase excitation	Force A raw	Displacement raw	HMax	HMax raw	Real Force	Real Stiffness	Contact Depth	Area	Hardness	Reduced Mod.
[#]	[#]	[um]	[s]	[um]	[um]	[um]	[m°]	[m°]	[um]	[uN]	[uN]	[V]	[V]	[V]	[°C]	[uN]	[um]	[N/m]	[°]	[°]	[uN]	[um]	[um]	[um]	[uN]	[N/m]	[um]	[um^2]	[MPa]	[MPa]
274	1.000000	0.002509	7.36774e+06	-52339.1	955.819	-29749.8	0.000000	0.000000	6.002810	-0.060369	NaN	0.000000	0.001672	0.001657	28.081	0.045109	0.001014	44.4884	-99.461	-172.383	-0.106564	0.001215	-1.056460	-1.057754	-0.060369	44.4884	-1.055442	-1.263464E+14	4.778089E-16	NaN
274	1.000000	0.010501	7.36774e+06	-52339.1	955.819	-29749.8	0.000000	0.000000	6.010804	-0.007146	NaN	0.000000	0.001664	0.001655	28.0811	0.034297	0.000904	37.9323	-140.963	-168.352	-0.000110	0.009163	-1.048468	-1.049805	-0.007146	37.9323	-1.048327	-1.013722E+14	7.048797E-17	NaN
274	1.000000	0.018456	7.36774e+06	-52339.1	955.818	-29749.8	0.000000	0.000000	6.018759	-0.012153	NaN	0.000000	0.001707	0.001656	28.0809	0.039901	0.001773	22.5041	-141.236	-164.812	0.029698	0.017158	-1.040512	-1.041810	-0.012153	22.5041	-1.040107	-7.859719E+13	1.546260E-16	NaN
274	1.000000	0.026470	7.36774e+06	-52339.1	955.819	-29749.8	0.000000	0.000000	6.026771	-0.055364	NaN	0.000000	0.001674	0.001647	28.0808	0.015380	0.001801	8.541094	-134.804	-166.799	-0.049373	0.025165	-1.032499	-1.033804	-0.055364	8.541094	-1.027637	-5.341923E+13	1.036406E-15	NaN
274	1.000000	0.034468	7.36774e+06	-52339.1	955.818	-29749.8	0.000000	0.000000	6.034769	-0.055991	NaN	0.000000	0.001689	0.001622	28.0806	0.109123	0.001814	60.1649	35.8613	-172.138	-0.092890	0.033084	-1.024501	-1.025885	-0.055991	60.1649	-1.023803	-4.743694E+13	1.180325E-15	NaN
274	1.000000	0.042444	7.36774e+06	-52339.1	955.818	-29749.8	0.000000	0.000000	6.042748	0.011016	NaN	0.000000	0.001596	0.001676	28.0808	0.068938	0.002014	34.2377	114.404	-167.494	-0.078648	0.041125	-1.016524	-1.017844	0.011016	34.2377	-1.016766	-3.814436E+13	-2.887923E-16	NaN
274	1.000000	0.050421	7.36774e+06	-52339.1	955.818	-29749.8	0.000000	0.000000	6.050724	-0.008072	NaN	0.000000	0.001588	0.001671	28.081	0.050453	0.002002	25.1963	54.8492	-165.771	-0.023585	0.049188	-1.008548	-1.009781	-0.008072	25.1963	-1.008308	-2.934962E+13	2.750241E-16	NaN
274	1.000000	0.058462	7.36774e+06	-52339.1	955.818	-29749.8	0.000000	0.000000	6.058764	-0.042255	NaN	0.000000	0.001628	0.001656	28.0807	0.052392	0.002111	24.8176	58.0458	-164.513	-0.077375	0.057126	-1.000507	-1.001842	-0.042255	24.8176	-0.999230	-2.215122E+13	1.907560E-15	NaN
274	1.000000	0.066422	7.36774e+06	-52339.1	955.818	-29749.8	0.000000	0.000000	6.066725	-0.030807	NaN	0.000000	0.001618	0.001657	28.0808	0.136521	0.001848	73.8709	-92.0485	-169.282	-0.077139	0.065138	-0.992546	-0.993830	-0.030807	73.8709	-0.992233	-1.783157E+13	1.727651E-15	NaN
274	1.000000	0.074446	7.36774e+06	-52339.1	955.82	-29749.8	0.000000	0.000000	6.074748	-0.034594	NaN	0.000000	0.001597	0.001665	28.0809	0.093284	0.001916	48.6825	178	-167.533	0.001462	0.073137	-0.984523	-0.985832	-0.034594	48.6825	-0.983990	-1.380886E+13	2.505183E-15	NaN
274	1.000000	0.082459	7.36774e+06	-52339.1	955.82	-29749.8	0.000000	0.000000	6.082762	-0.020891	NaN	0.000000	0.001619	0.001653	28.0808	0.090600	0.001945	46.5928	16.0824	-171.855	-0.061505	0.081132	-0.976509	-0.977836	-0.020891	46.5928	-0.976173	-1.083536E+13	1.928052E-15	NaN
274	1.000000	0.090468	7.36774e+06	-52339.1	955.819	-29749.8	0.000000	0.000000	6.090769	-0.058517	NaN	0.000000	0.001599	0.001662	28.0808	0.065188	0.001992	32.7316	-119.017	-165.793	0.002213	0.089120	-0.968501	-0.969848	-0.058517	32.7316	-0.967160	-8.191931E+12	7.143245E-15	NaN
274	1.000000	0.098456	7.36774e+06	-52339.1	955.818	-29749.8	0.000000	0.000000	6.098758	-0.035776	NaN	0.000000	0.001589	0.001646	28.0797	0.098876	0.002019	48.9615	-18.9145	-166.857	-0.027009	0.097130	-0.960512	-0.961838	-0.035776	48.9615	-0.959964	-6.552230E+12	5.460066E-15	NaN
274	1.000000	0.106451	7.36774e+06	-52339.1	955.818	-29749.8	0.000000	0.000000	6.106755	-0.006123	NaN	0.000000	0.001571	0.001649	28.0797	0.071278	0.002113	33.726	75.8357	-168.28	8.530562E-5	0.105163	-0.952517	-0.953805	-0.006123	33.726	-0.952381	-5.177691E+12	1.182510E-15	NaN
274	1.000000	0.114482	7.36774e+06	-52339.1	955.818	-29749.8	0.000000	0.000000	6.114785	0.003665	NaN	0.000000	0.001598	0.001660	28.0796	0.094957	0.002052	46.276	-148.369	-166.245	-0.011999	0.113165	-0.944487	-0.945804	0.003665	46.276	-0.944546	-4.059425E+12	-9.028232E-16	NaN
274	1.000000	0.122467	7.36774e+06	-52339.1	955.818	-29749.8	0.000000	0.000000	6.122771	0.010657	NaN	0.000000	0.001554	0.001649	28.0798	0.066821	0.001971	33.9047	42.5234	-164.297	0.063834	0.121176	-0.936502	-0.937792	0.010657	33.9047	-0.936737	-3.185063E+12	-3.345874E-15	NaN
274	1.000000	0.130457	7.36774e+06	-52339.1	955.818	-29749.8	0.000000	0.000000	6.130758	-0.059085	NaN	0.000000	0.001580	0.001648	28.0797	0.074205	0.001815	40.8742	-158.821	-167.397	-0.037575	0.129155	-0.928512	-0.929813	-0.059085	40.8742	-0.927427	-2.384922E+12	2.477424E-14	NaN
274	1.000000	0.138496	7.36774e+06	-52339.1	955.819	-29749.8	0.000000	0.000000	6.138802	0.076732	NaN	0.000000	0.001553	0.001653	28.0798	0.049519	0.002083	23.7684	-135.291	-167.713	0.035869	0.137156	-0.920473	-0.921813	0.076732	23.7684	-0.922894	-2.071469E+12	-3.704219E-14	NaN
274	1.000000	0.146467	7.36774e+06	-52339.1	955.818	-29749.8	0.000000	0.000000	6.146771	0.004419	NaN	0.000000	0.001571	0.001651	28.0798	0.043896	0.001933	22.7102	45.3888	-166.673	0.042907	0.145187	-0.912501	-0.913781	0.004419	22.7102	-0.912647	-1.506326E+12	-2.933620E-15	NaN
274	1.000000	0.154492	7.36774e+06	-52339.1	955.819	-29749.8	0.000000	0.000000	6.154792	-0.076395	NaN	0.000000	0.001593	0.001685	28.0795	0.036539	0.001981	18.4483	-149.806	-168.956	-0.052159	0.153168	-0.904477	-0.905800	-0.076395	18.4483	-0.901371	-1.060690E+12	7.202431E-14	NaN
274	1.000000	0.162513	7.36774e+06	-52339.1	955.818	-29749.8	0.000000	0.000000	6.162818	0.043001	NaN	0.000000	0.001622	0.001657	28.0796	0.058483	0.002032	28.7784	-112.684	-167.535	0.006847	0.161183	-0.896456	-0.897785	0.043001	28.7784	-0.897576	-9.425723E+11	-4.562134E-14	NaN
274	1.000000	0.170479	7.36774e+06	-52339.1	955.818	-29749.8	0.000000	0.000000	6.170781	-0.041439	NaN	0.000000	0.001578	0.001719	28.0795	0.121908	0.002089	58.3523	126.289	-165.501	-0.093962	0.169174	-0.888490	-0.889794	-0.041439	58.3523	-0.887957	-6.987108E+11	5.930783E-14	NaN
274	1.000000	0.178486	7.36774e+06	-52339.1	955.818	-29749.8	0.000000	0.000000	6.178788	-0.049643	NaN	0.000000	0.001614	0.001691	28.0797	0.114387	0.002029	56.3857	-36.4045	-165.287	-0.067940	0.177174	-0.880482	-0.881795	-0.049643	56.3857	-0.879822	-5.423723E+11	9.152869E-14	NaN
274	1.000000	0.186508	7.36774e+06	-52339.1	955.818	-29749.8	0.000000	0.000000	6.186809	-0.051274	NaN	0.000000	0.001625	0.001678	28.0797	0.095048	0.001925	49.3811	-147.224	-168.009	0.014111	0.185170	-0.872461	-0.873799	-0.051274	49.3811	-0.871682	-4.209203E+11	1.218152E-13	NaN
274	1.000000	0.194491	7.36774e+06	-52339.1	955.819	-29749.8	0.000000	0.000000	6.194794	-0.029348	NaN	0.000000	0.001621	0.001726	28.0797	0.068524	0.002045	33.5139	-175.638	-168.136	-0.126125	0.193199	-0.864477	-0.865769	-0.029348	33.5139	-0.863820	-3.294775E+11	8.907579E-14	NaN
274	1.000000	0.202478	7.36774e+06	-52339.1	955.819	-29749.8	0.000000	0.000000	6.202782	0.016262	NaN	0.000000	0.001614	0.001679	28.0795	0.028082	0.001934	14.5233	-144.683	-169.002	-0.047050	0.201217	-0.856490	-0.857752	0.016262	14.5233	-0.857330	-2.691421E+11	-6.042225E-14	NaN
274	1.000000	0.210512	7.36774e+06	-52339.1	955.818	-29749.8	0.000000	0.000000	6.210815	0.003432	NaN	0.000000	0.001570	0.001682	28.0796	0.022104	0.002007	11.0142	-124.634	-167.186	-0.023063	0.209208	-0.848457	-0.849760	0.003432	11.0142	-0.848691	-2.055920E+11	-1.669441E-14	NaN
274	1.000000	0.218496	7.36774e+06	-52339.1	955.818	-29749.8	0.000000	0.000000	6.218797	-0.049662	NaN	0.000000	0.001600	0.001686	28.0798	0.072965	0.001993	36.6131	-116.933	-164.092	-0.014398	0.217204	-0.840473	-0.841764	-0.049662	36.6131	-0.839455	-1.541400E+11	3.221886E-13	NaN
274	1.000000	0.226538	7.36774e+06	-52339.1	955.818	-29749.8	0.000000	0.000000	6.226839	-0.060021	NaN	0.000000	0.001625	0.001737	28.0794	0.131667	0.002000	65.8207	-157.153	-166.654	-0.023014	0.225213	-0.832430	-0.833756	-0.060021	65.8207	-0.831746	-1.211864E+11	4.952784E-13	NaN
274	1.000000	0.234516	7.36774e+06	-52339.1	955.819	-29749.8	0.000000	0.000000	6.234820	0.003757	NaN	0.000000	0.001640	0.001729	28.0805	0.114226	0.002075	55.0504	-114.491	-169.067	-0.007123	0.233236	-0.824452	-0.825732	0.003757	55.0504	-0.824503	-9.666533E+10	-3.886762E-14	NaN
274	1.000000	0.242517	7.36774e+06	-52339.1	955.818	-29749.8	0.000000	0.000000	6.242817	-0.094218	NaN	0.000000	0.001608	0.001724	28.0808	0.076155	0.002004	37.9941	30.9776	-165.139	-0.075704	0.241167	-0.816452	-0.817802	-0.094218	37.9941	-0.814592	-7.093515E+10	1.328222E-12	NaN
274	1.000000	0.250516	7.36774e+06	-52339.1	955.818	-29749.8	0.000000	0.000000	6.250819	0.006835	NaN	0.000000	0.001620	0.001737	28.0806	0.054385	0.002010	27.053	-27.1152	-167.346	-0.035574	0.249196	-0.808453	-0.809773	0.006835	27.053	-0.808642	-5.890460E+10	-1.160302E-13	NaN
274	1.000000	0.258561	7.36774e+06	-52339.1	955.819	-29749.8	0.000000	0.000000	6.258864	-0.005868	NaN	0.000000	0.001616	0.001734	28.0809	0.074398	0.001898	39.2038	171.641	-166.791	-0.088217	0.257202	-0.800408	-0.801766	-0.005868	39.2038	-0.800296	-4.538110E+10	1.292955E-13	NaN
274	1.000000	0.266576	7.36774e+06	-52339.1	955.818	-29749.8	0.000000	0.000000	6.266878	-0.035425	NaN	0.000000	0.001636	0.001715	28.0808	0.063247	0.002072	30.5298	177.083	-165.719	0.023011	0.265243	-0.792392	-0.793725	-0.035425	30.5298	-0.791522	-3.449496E+10	1.026976E-12	NaN
274	1.000000	0.274554	7.36774e+06	-52339.1	955.819	-29749.8	0.000000	0.000000	6.274856	-0.039890	NaN	0.000000	0.001658	0.001678	28.0808	0.067291	0.001984	33.921	-1.100818	-165.923	-0.033655	0.273200	-0.784414	-0.785769	-0.039890	33.921	-0.783532	-2.686747E+10	1.484686E-12	NaN
274	1.000000	0.282552	7.36774e+06	-52339.1	955.819	-29749.8	0.000000	0.000000	6.282854	-0.053837	NaN	0.000000	0.001643	0.001661	28.081	0.015178	0.002017	7.524814	-147.673	-165.72	-0.066427	0.281203	-0.776416	-0.777765	-0.053837	7.524814	-0.771050	-1.817952E+10	2.961426E-12	NaN
274	1.000000	0.290556	7.36774e+06	-52339.1	955.818	-29749.8	0.000000	0.000000	6.290861	0.027307	NaN	0.000000	0.001622	0.001677	28.0807	0.090575	0.002056	44.0593	57.9988	-169.028	0.113254	0.289276	-0.768412	-0.769693	0.027307	44.0593	-0.768877	-1.698400E+10	-1.607831E-12	NaN
274	1.000000	0.298533	7.36774e+06	-52339.1	955.818	-29749.8	0.000000	0.000000	6.298836	-0.022801	NaN	0.000000	0.001586	0.001683	28.0808	0.053362	0.002037	26.1944	-27.4348	-164.46	-0.079409	0.297289	-0.760435	-0.761679	-0.022801	26.1944	-0.759782	-1.277438E+10	1.784893E-12	NaN
274	1.000000	0.306553	7.36774e+06	-52339.1	955.819	-29749.8	0.000000	0.000000	6.306853	-0.089526	NaN	0.000000	0.001604	0.001639	28.0809	0.061611	0.002037	30.25	167.671	-165.398	-0.139888	0.305232	-0.752415	-0.753737	-0.089526	30.25	-0.750196	-9.459871E+9	9.463735E-12	NaN
274	1.000000	0.314561	7.36774e+06	-52339.1	955.819	-29749.8	0.000000	0.000000	6.314864	-0.008128	NaN	0.000000	0.001583	0.001686	28.0811	0.056697	0.001961	28.9173	-49.4383	-164.081	-0.023591	0.313226	-0.744407	-0.745743	-0.008128	28.9173	-0.744197	-7.838060E+9	1.036928E-12	NaN
274	1.000000	0.322570	7.36774e+06	-52339.1	955.818	-29749.8	0.000000	0.000000	6.322871	-0.071308	NaN	0.000000	0.001612	0.001684	28.0811	0.068433	0.001936	35.3568	-101.294	-165.357	-0.032844	0.321244	-0.736398	-0.737725	-0.071308	35.3568	-0.734885	-5.853044E+9	1.218305E-11	NaN
274	1.000000	0.330588	7.36774e+06	-52339.1	955.819	-29749.8	0.000000	0.000000	6.330888	-0.085941	NaN	0.000000	0.001623	0.001760	28.0809	0.120233	0.002062	58.3189	-167.647	-165.244	-0.123364	0.329268	-0.728380	-0.729700	-0.085941	58.3189	-0.727275	-4.609658E+9	1.864363E-11	NaN
274	1.000000	0.338567	7.36774e+06	-52339.1	955.818	-29749.8	0.000000	0.000000	6.338864	-0.154947	NaN	0.000000	0.001579	0.001666	28.081	0.026613	0.001900	14.0063	105.647	-165.541	-0.110953	0.337267	-0.720401	-0.721701	-0.154947	14.0063	-0.712104	-2.862620E+9	5.412758E-11	NaN
274	1.000000	0.346571	7.36774e+06	-52339.1	955.818	-29749.8	0.000000	0.000000	6.346874	-0.029630	NaN	0.000000	0.001647	0.001674	28.0809	0.083038	0.002013	41.2462	-106.237	-165.624	-0.061712	0.345198	-0.712397	-0.713771	-0.029630	41.2462	-0.711858	-2.840582E+9	1.043085E-11	NaN
274	1.000000	0.354587	7.36774e+06	-52339.1	955.819	-29749.8	0.000000	0.000000	6.354891	0.006206	NaN	0.000000	0.001670	0.001687	28.0813	0.049962	0.002088	23.927	-147.331	-164.475	0.010169	0.353208	-0.704381	-0.705760	0.006206	23.927	-0.704576	-2.259498E+9	-2.746684E-12	NaN
274	1.000000	0.362566	7.36774e+06	-52339.1	955.818	-29749.8	0.000000	0.000000	6.362869	-0.004564	NaN	0.000000	0.001648	0.001701	28.0813	0.069750	0.002065	33.7838	159.677	-166.791	-0.017466	0.361263	-0.696403	-0.697706	-0.004564	33.7838	-0.696301	-1.741863E+9	2.620040E-12	NaN
274	1.000000	0.370581	7.36774e+06	-52339.1	955.818	-29749.8	0.000000	0.000000	6.370880	-0.113905	NaN	0.000000	0.001681	0.001675	28.0798	0.050849	0.002007	25.3334	-24.969	-169.338	-0.104476	0.369293	-0.688387	-0.689675	-0.113905	25.3334	-0.685015	-1.221172E+9	9.327544E-11	NaN
274	1.000000	0.378586	7.36774e+06	-52339.1	955.819	-29749.8	0.000000	0.000000	6.378888	-0.029564	NaN	0.000000	0.001732	0.001692	28.0798	0.126800	0.001856	68.3174	155.211	-167.51	-0.029064	0.377302	-0.680382	-0.681667	-0.029564	68.3174	-0.680058	-1.044709E+9	2.829833E-11	NaN
274	1.000000	0.386577	7.36774e+06	-52339.1	955.819	-29749.8	0.000000	0.000000	6.386880	-0.004367	NaN	0.000000	0.001689	0.001657	28.0798	0.035141	0.001948	18.0435	-7.568315	-164.113	-0.044639	0.385255	-0.672391	-0.673714	-0.004367	18.0435	-0.672210	-8.158940E+8	5.352804E-12	NaN
274	1.000000	0.394606	7.36774e+06	-52339.1	955.818	-29749.8	0.000000	0.000000	6.394910	0.008358	NaN	0.000000	0.001667	0.001667	28.08	0.083999	0.001924	43.6549	39.517	-164.756	0.061024	0.393263	-0.664362	-0.665705	0.008358	43.6549	-0.664506	-6.399924E+8	-1.305890E-11	NaN
274	1.000000	0.402603	7.36774e+06	-52339.1	955.818	-29749.8	0.000000	0.000000	6.402904	-0.079560	NaN	0.000000	0.001688	0.001688	28.08	0.045414	0.002046	22.1928	132.793	-168.501	-0.032672	0.401291	-0.656365	-0.657677	-0.079560	22.1928	-0.653676	-4.548060E+8	1.749328E-10	NaN
274	1.000000	0.410611	7.36774e+06	-52339.1	955.818	-29749.8	0.000000	0.000000	6.410911	-0.078840	NaN	0.000000	0.001647	0.001674	28.0801	0.112431	0.002000	56.2223	-118.361	-165.771	-0.091583	0.409268	-0.648357	-0.649700	-0.078840	56.2223	-0.647306	-3.719604E+8	2.119573E-10	NaN
274	1.000000	0.418603	7.36774e+06	-52339.1	955.818	-29749.8	0.000000	0.000000	6.418905	-0.024863	NaN	0.000000	0.001665	0.001711	28.08	0.033523	0.002040	16.4296	56.7557	-166.625	0.018824	0.417274	-0.640365	-0.641694	-0.024863	16.4296	-0.639230	-2.882245E+8	8.626326E-11	NaN
274	1.000000	0.426617	7.36774e+06	-52339.1	955.819	-29749.8	0.000000	0.000000	6.426920	-0.012776	NaN	0.000000	0.001717	0.001707	28.08	0.045367	0.001920	23.6242	-104.958	-167.513	0.053939	0.425302	-0.632351	-0.633667	-0.012776	23.6242	-0.631945	-2.289486E+8	5.580234E-11	NaN
274	1.000000	0.434636	7.36774e+06	-52339.1	955.818	-29749.8	0.000000	0.000000	6.434939	-0.011430	NaN	0.000000	0.001724	0.001693	28.0798	0.058753	0.002061	28.5031	-87.325	-166.255	-0.084787	0.433320	-0.624333	-0.625649	-0.011430	28.5031	-0.624032	-1.782557E+8	6.412322E-11	NaN
274	1.000000	0.442626	7.36774e+06	-52339.1	955.818	-29749.8	0.000000	0.000000	6.442928	-0.026090	NaN	0.000000	0.001719	0.001661	28.0799	0.051938	0.002055	25.2745	126.913	-167.361	-0.031139	0.441316	-0.616343	-0.617653	-0.026090	25.2745	-0.615569	-1.363667E+8	1.913188E-10	NaN
274	1.000000	0.450603	7.36774e+06	-52339.1	955.818	-29749.8	0.000000	0.000000	6.450907	0.007911	NaN	0.000000	0.001719	0.001618	28.08	0.064104	0.001939	33.0587	-163.344	-165.011	-0.074628	0.449335	-0.608365	-0.609633	0.007911	33.0587	-0.608545	-1.091660E+8	-7.246321E-11	NaN
274	1.000000	0.458612	7.36774e+06	-52339.1	955.819	-29749.8	0.000000	0.000000	6.458915	-0.007273	NaN	0.000000	0.001716	0.001632	28.0799	0.091465	0.001786	51.2068	-40.2769	-168.143	-0.018507	0.457280	-0.600357	-0.601689	-0.007273	51.2068	-0.600250	-8.392831E+7	8.666308E-11	NaN
274	1.000000	0.466639	7.36774e+06	-52339.1	955.818	-29749.8	0.000000	0.000000	6.466940	-0.042381	NaN	0.000000	0.001690	0.001631	28.0801	0.033871	0.001985	17.0598	-154.243	-165.456	-0.042707	0.465366	-0.592330	-0.593602	-0.042381	17.0598	-0.590467	-6.153154E+7	6.887768E-10	NaN
274	1.000000	0.474633	7.36774e+06	-52339.1	955.818	-29749.8	0.000000	0.000000	6.474937	0.005885	NaN	0.000000	0.001677	0.001590	28.0801	0.132000	0.002124	62.1552	101.251	-165.55	-0.036620	0.473304	-0.584335	-0.585664	0.005885	62.1552	-0.584406	-5.076040E+7	-1.159386E-10	NaN
274	1.000000	0.482617	7.36774e+06	-52339.1	955.818	-29749.8	0.000000	0.000000	6.482920	0.005485	NaN	0.000000	0.001687	0.001589	28.0799	0.054906	0.002028	27.0779	-31.377	-168.665	-0.124905	0.481277	-0.576352	-0.577691	0.005485	27.0779	-0.576504	-3.948775E+7	-1.389062E-10	NaN
274	1.000000	0.490660	7.36774e+06	-52339.1	955.819	-29749.8	0.000000	0.000000	6.490965	0.023687	NaN	0.000000	0.001703	0.001600	28.0798	0.076995	0.001938	39.7234	-163.296	-168.327	0.022595	0.489383	-0.568308	-0.569585	0.023687	39.7234	-0.568755	-3.086268E+7	-7.674954E-10	NaN
274	1.000000	0.498650	7.36774e+06	-52339.1	955.818	-29749.8	0.000000	0.000000	6.498956	0.057953	NaN	0.000000	0.001733	0.001603	28.0799	0.067682	0.001950	34.7111	-100.801	-165.19	-0.030492	0.497339	-0.560318	-0.561629	0.057953	34.7111	-0.561570	-2.455276E+7	-2.360336E-9	NaN
274	1.000000	0.506644	7.36774e+06	-52339.1	955.819	-29749.8	0.000000	0.000000	6.506947	-0.002241	NaN	0.000000	0.001722	0.001615	28.0813	0.066440	0.001958	33.936	-15.4475	-166.545	0.040218	0.505356	-0.552324	-0.553612	-0.002241	33.936	-0.552275	-1.825831E+7	1.227369E-10	NaN
274	1.000000	0.514630	7.36774e+06	-52339.1	955.819	-29749.8	0.000000	0.000000	6.514932	-0.031469	NaN	0.000000	0.001735	0.001613	28.0811	0.076205	0.001981	38.4623	60.2131	-168.029	-0.023323	0.513308	-0.544339	-0.545661	-0.031469	38.4623	-0.543725	-1.389976E+7	2.264013E-9	NaN
274	1.000000	0.522641	7.36774e+06	-52339.1	955.818	-29749.8	0.000000	0.000000	6.522943	-0.031482	NaN	0.000000	0.001656	0.001646	28.0811	0.115423	0.002095	55.1014	-57.0887	-167.273	-0.092173	0.521342	-0.536327	-0.537627	-0.031482	55.1014	-0.535899	-1.082592E+7	2.908024E-9	NaN
274	1.000000	0.530635	7.36774e+06	-52339.1	955.818	-29749.8	0.000000	0.000000	6.530937	-0.038806	NaN	0.000000	0.001647	0.001613	28.0812	0.006328	0.001929	3.280335	-39.3848	-168.932	-0.036394	0.529271	-0.528334	-0.529698	-0.038806	3.280335	-0.519461	-6.3989e+06	6.064406E-9	NaN
274	1.000000	0.538654	7.36774e+06	-52339.1	955.819	-29749.8	0.000000	0.000000	6.538956	-0.038400	NaN	0.000000	0.001654	0.001628	28.0812	0.088710	0.002049	43.2991	-169.641	-166.171	-0.067926	0.537332	-0.520314	-0.521637	-0.038400	43.2991	-0.519649	-6.43745e+06	5.965111E-9	NaN
274	1.000000	0.546694	7.36774e+06	-52339.1	955.818	-29749.8	0.000000	0.000000	6.546998	0.006004	NaN	0.000000	0.001651	0.001641	28.0813	0.011322	0.002002	5.654227	29.1441	-168.551	-0.050102	0.545281	-0.512274	-0.513687	0.006004	5.654227	-0.513070	-5.21402e+06	-1.151420E-9	NaN
274	1.000000	0.554628	7.36774e+06	-52339.1	955.817	-29749.8	0.000000	0.000000	6.554931	-0.012851	NaN	0.000000	0.001639	0.001605	28.081	0.086042	0.001929	44.6089	-104.249	-166.885	-0.058802	0.553341	-0.504340	-0.505627	-0.012851	44.6089	-0.504124	-3.91321e+06	3.284114E-9	NaN
274	1.000000	0.562648	7.36774e+06	-52339.1	955.819	-29749.8	0.000000	0.000000	6.562948	-0.092003	NaN	0.000000	0.001626	0.001626	28.0811	0.062571	0.002045	30.5925	-142.101	-165.382	-0.054081	0.561349	-0.496320	-0.497619	-0.092003	30.5925	-0.494065	-2.83252e+06	3.248096E-8	NaN
274	1.000000	0.570682	7.36774e+06	-52339.1	955.819	-29749.8	0.000000	0.000000	6.570983	-0.066859	NaN	0.000000	0.001648	0.001659	28.081	0.120384	0.002024	59.4708	39.6554	-161.42	-0.002571	0.569359	-0.488286	-0.489609	-0.066859	59.4708	-0.487443	-2.28903e+06	2.920850E-8	NaN
274	1.000000	0.578700	7.36774e+06	-52339.1	955.818	-29749.8	0.000000	0.000000	6.579001	-0.069219	NaN	0.000000	0.001633	0.001590	28.081	0.067036	0.001917	34.9604	54.6716	-166.214	-0.018576	0.577378	-0.480269	-0.481590	-0.069219	34.9604	-0.478784	-1.7318e+06	3.996958E-8	NaN
274	1.000000	0.586668	7.36774e+06	-52339.1	955.818	-29749.8	0.000000	0.000000	6.586973	0.020445	NaN	0.000000	0.001619	0.001616	28.081	0.017952	0.002066	8.689590	-78.501	-167.339	0.015336	0.585381	-0.472300	-0.473587	0.020445	8.689590	-0.474065	-1.48728e+06	-1.374670E-8	NaN
274	1.000000	0.594661	7.36774e+06	-52339.1	955.819	-29749.8	0.000000	0.000000	6.594963	-0.035836	NaN	0.000000	0.001640	0.001603	28.081	0.063727	0.001966	32.4181	-87.0321	-169.237	-0.116180	0.593395	-0.464308	-0.465573	-0.035836	32.4181	-0.463479	-1.05654e+06	3.391854E-8	NaN
274	1.000000	0.602666	7.36774e+06	-52339.1	955.819	-29749.8	0.000000	0.000000	6.602966	-0.088313	NaN	0.000000	0.001628	0.001630	28.0813	0.037703	0.002088	18.0582	142.766	-167.862	-0.111416	0.601359	-0.456302	-0.457609	-0.088313	18.0582	-0.452634	-743752	1.187395E-7	NaN
274	1.000000	0.610687	7.36774e+06	-52339.1	955.818	-29749.8	0.000000	0.000000	6.610990	-0.010069	NaN	0.000000	0.001633	0.001622	28.0811	0.058557	0.002049	28.5757	10.0466	-171.909	0.024910	0.609378	-0.448282	-0.449590	-0.010069	28.5757	-0.448017	-640350	1.572353E-8	NaN
274	1.000000	0.618700	7.36774e+06	-52339.1	955.819	-29749.8	0.000000	0.000000	6.618999	-0.114410	NaN	0.000000	0.001648	0.001629	28.081	0.102948	0.001864	55.23	72.2875	-165.986	-0.111992	0.617437	-0.440268	-0.441531	-0.114410	55.23	-0.438715	-473391	2.416814E-7	NaN
274	1.000000	0.626728	7.36774e+06	-52339.1	955.819	-29749.8	0.000000	0.000000	6.627027	-0.094455	NaN	0.000000	0.001636	0.001630	28.0811	0.033263	0.001963	16.9444	-124.105	-164.084	-0.077887	0.625357	-0.432241	-0.433612	-0.094455	16.9444	-0.428060	-334665	2.822376E-7	NaN
274	1.000000	0.634695	7.36774e+06	-52339.1	955.818	-29749.8	0.000000	0.000000	6.634995	-0.091280	NaN	0.000000	0.001627	0.001648	28.081	0.032965	0.002012	16.386	-166.485	-165.737	-0.046337	0.633401	-0.424273	-0.425568	-0.091280	16.386	-0.420095	-258087	3.536790E-7	NaN
274	1.000000	0.642701	7.36774e+06	-52339.1	955.819	-29749.8	0.000000	0.000000	6.643002	-0.071602	NaN	0.000000	0.001593	0.001632	28.08	0.066157	0.001900	34.8167	117.294	-164.881	-0.104029	0.641352	-0.416267	-0.417616	-0.071602	34.8167	-0.414725	-216545	3.306581E-7	NaN
274	1.000000	0.650723	7.36774e+06	-52339.1	955.819	-29749.8	0.000000	0.000000	6.651021	-0.144407	NaN	0.000000	0.001583	0.001658	28.0798	0.073938	0.001994	37.0735	-106.039	-166.439	-0.104855	0.649450	-0.408245	-0.409518	-0.144407	37.0735	-0.405324	-159168	9.072603E-7	NaN
274	1.000000	0.658676	7.36774e+06	-52339.1	955.819	-29749.8	0.000000	0.000000	6.658977	-0.055178	NaN	0.000000	0.001617	0.001657	28.0797	0.047219	0.001929	24.4733	25.016	-165.33	-0.078063	0.657402	-0.400293	-0.401566	-0.055178	24.4733	-0.398602	-127658	4.322304E-7	NaN
274	1.000000	0.666704	7.36774e+06	-52339.1	955.818	-29749.8	0.000000	0.000000	6.667004	-0.080105	NaN	0.000000	0.001581	0.001638	28.0797	0.024073	0.002123	11.3411	68.4204	-167.02	-0.102925	0.665407	-0.392265	-0.393562	-0.080105	11.3411	-0.386967	-87048.7	9.202335E-7	NaN
274	1.000000	0.674736	7.36774e+06	-52339.1	955.817	-29749.8	0.000000	0.000000	6.675040	0.005935	NaN	0.000000	0.001619	0.001622	28.0796	0.095802	0.002062	46.4622	18.9265	-166.251	-0.060929	0.673388	-0.384232	-0.385580	0.005935	46.4622	-0.384328	-79791.3	-7.438527E-8	NaN
274	1.000000	0.682703	7.36774e+06	-52339.1	955.819	-29749.8	0.000000	0.000000	6.683002	-0.112312	NaN	0.000000	0.001659	0.001617	28.0798	0.130675	0.002117	61.7289	-66.3144	-161.929	-0.126999	0.681415	-0.376266	-0.377554	-0.112312	61.7289	-0.374901	-58431.7	1.922113E-6	NaN
274	1.000000	0.690726	7.36774e+06	-52339.1	955.819	-29749.8	0.000000	0.000000	6.691029	-0.016304	NaN	0.000000	0.001680	0.001662	28.0799	0.079906	0.002022	39.5232	-159.248	-166.019	-0.017996	0.689417	-0.368243	-0.369551	-0.016304	39.5232	-0.367933	-46382.2	3.515208E-7	NaN
274	1.000000	0.698711	7.36774e+06	-52339.1	955.818	-29749.8	0.000000	0.000000	6.699010	-0.094364	NaN	0.000000	0.001619	0.001657	28.0799	0.113601	0.002029	56.0022	-148.171	-165.895	-0.091687	0.697412	-0.360258	-0.361556	-0.094364	56.0022	-0.358994	-34458.9	2.738441E-6	NaN
274	1.000000	0.706693	7.36774e+06	-52339.1	955.818	-29749.8	0.000000	0.000000	6.706995	-0.025991	NaN	0.000000	0.001640	0.001616	28.0797	0.008283	0.002116	3.913751	29.6929	-166.101	-0.024499	0.705428	-0.352276	-0.353541	-0.025991	3.913751	-0.347295	-23319.7	1.114529E-6	NaN
274	1.000000	0.714722	7.36774e+06	-52339.1	955.819	-29749.8	0.000000	0.000000	6.715024	-0.031922	NaN	0.000000	0.001615	0.001644	28.0797	0.077978	0.002093	37.265	170.541	-168.906	0.000735	0.713441	-0.344247	-0.345527	-0.031922	37.265	-0.343604	-20608.7	1.548938E-6	NaN
274	1.000000	0.722727	7.36774e+06	-52339.1	955.819	-29749.8	0.000000	0.000000	6.723028	-0.061021	NaN	0.000000	0.001631	0.001629	28.0797	0.080002	0.001915	41.783	-43.9316	-166.18	-0.014126	0.721444	-0.336242	-0.337524	-0.061021	41.783	-0.335146	-15514.1	3.933274E-6	NaN
274	1.000000	0.730744	7.36774e+06	-52339.1	955.818	-29749.8	0.000000	0.000000	6.731046	-0.031146	NaN	0.000000	0.001627	0.001611	28.0797	0.101821	0.001994	51.0525	176.028	-166.398	-0.027828	0.729434	-0.328225	-0.329534	-0.031146	51.0525	-0.327767	-12098.5	2.574391E-6	NaN
274	1.000000	0.738723	7.36774e+06	-52339.1	955.819	-29749.8	0.000000	0.000000	6.739026	-0.012572	NaN	0.000000	0.001590	0.001562	28.08	0.065475	0.002087	31.3734	-115.905	-169.305	-0.032234	0.737459	-0.320246	-0.321509	-0.012572	31.3734	-0.319945	-9286.03	1.353833E-6	NaN
274	1.000000	0.746742	7.36774e+06	-52339.1	955.818	-29749.8	0.000000	0.000000	6.747044	-0.020657	NaN	0.000000	0.001636	0.001666	28.0797	0.031810	0.001949	16.3209	72.7813	-171.112	-0.036217	0.745407	-0.312227	-0.313561	-0.020657	16.3209	-0.311277	-6917.59	2.986185E-6	NaN
274	1.000000	0.754743	7.36774e+06	-52339.1	955.819	-29749.8	0.000000	0.000000	6.755044	-0.057591	NaN	0.000000	0.001587	0.001610	28.0798	0.096309	0.002068	46.5725	26.7749	-164.486	-0.087311	0.753477	-0.304226	-0.305491	-0.057591	46.5725	-0.303298	-5268.45	1.093128E-5	NaN
274	1.000000	0.762766	7.36774e+06	-52339.1	955.818	-29749.8	0.000000	0.000000	6.763068	-0.026304	NaN	0.000000	0.001601	0.001637	28.0796	0.062172	0.001956	31.79	-17.4178	-166.385	-0.031836	0.761433	-0.296203	-0.297536	-0.026304	31.79	-0.295582	-4043.69	6.504958E-6	NaN
274	1.000000	0.770760	7.36774e+06	-52339.1	955.819	-29749.8	0.000000	0.000000	6.771062	-0.027193	NaN	0.000000	0.001623	0.001590	28.0796	0.078124	0.001871	41.7583	-164.976	-165.844	-0.043935	0.769466	-0.288209	-0.289502	-0.027193	41.7583	-0.287720	-3084.05	8.817247E-6	NaN
274	1.000000	0.778764	7.36774e+06	-52339.1	955.819	-29749.8	0.000000	0.000000	6.779066	-0.058287	NaN	0.000000	0.001612	0.001615	28.081	0.085898	0.001922	44.703	-43.8697	-167.509	-0.005273	0.777455	-0.280204	-0.281514	-0.058287	44.703	-0.279226	-2297.69	2.536753E-5	NaN
274	1.000000	0.786820	7.36774e+06	-52339.1	955.818	-29749.8	0.000000	0.000000	6.787124	0.003463	NaN	0.000000	0.001600	0.001649	28.0808	0.141629	0.002048	69.1593	-55.3319	-167.627	0.002512	0.785422	-0.272148	-0.273547	0.003463	69.1593	-0.272186	-1797.81	-1.925989E-6	NaN
274	1.000000	0.794755	7.36774e+06	-52339.1	955.817	-29749.8	0.000000	0.000000	6.795056	-0.056403	NaN	0.000000	0.001590	0.001613	28.0813	0.073833	0.001950	37.8579	-86.0372	-165.791	-0.101038	0.793447	-0.264214	-0.265521	-0.056403	37.8579	-0.263097	-1307.12	4.315042E-5	NaN
274	1.000000	0.802747	7.36774e+06	-52339.1	955.817	-29749.8	0.000000	0.000000	6.803048	-0.060936	NaN	0.000000	0.001587	0.001624	28.081	0.094120	0.002010	46.8219	166.464	-164.128	-0.030794	0.801504	-0.256221	-0.257464	-0.060936	46.8219	-0.255245	-990.582	6.151510E-5	NaN
274	1.000000	0.810758	7.36774e+06	-52339.1	955.819	-29749.8	0.000000	0.000000	6.811059	-0.084574	NaN	0.000000	0.001663	0.001641	28.081	0.065387	0.001959	33.3821	58.115	-168.843	-0.037278	0.809412	-0.248210	-0.249556	-0.084574	33.3821	-0.246310	-720.765	0.000117	NaN
274	1.000000	0.818795	7.36774e+06	-52339.1	955.818	-29749.8	0.000000	0.000000	6.819094	-0.112136	NaN	0.000000	0.001660	0.001623	28.081	0.025884	0.001925	13.4461	141.158	-164.495	-0.090179	0.817412	-0.240173	-0.241556	-0.112136	13.4461	-0.233918	-461.583	0.000243	NaN
274	1.000000	0.826782	7.36774e+06	-52339.1	955.818	-29749.8	0.000000	0.000000	6.827084	-0.052684	NaN	0.000000	0.001601	0.001642	28.0812	0.084554	0.001970	42.9241	156.18	-163.186	-0.050639	0.825506	-0.232186	-0.233463	-0.052684	42.9241	-0.231265	-419.261	0.000126	NaN
274	1.000000	0.834780	7.36774e+06	-52339.1	955.818	-29749.8	0.000000	0.000000	6.835083	-0.005635	NaN	0.000000	0.001638	0.001632	28.0815	0.018047	0.002010	8.977953	-38.3622	-167.665	-0.101350	0.833478	-0.224189	-0.225490	-0.005635	8.977953	-0.223718	-318.388	1.769970E-5	NaN
274	1.000000	0.842793	7.36774e+06	-52339.1	955.818	-29749.8	0.000000	0.000000	6.843096	-0.006624	NaN	0.000000	0.001643	0.001645	28.0813	0.051141	0.001906	26.8316	-159.201	-168.482	-0.053101	0.841504	-0.216175	-0.217465	-0.006624	26.8316	-0.215990	-239.568	2.764865E-5	NaN
274	1.000000	0.850768	7.36774e+06	-52339.1	955.818	-29749.8	0.000000	0.000000	6.851068	-0.094084	NaN	0.000000	0.001669	0.001599	28.0812	0.025027	0.002114	11.839	-112.488	-169.988	-0.059354	0.849440	-0.208200	-0.209529	-0.094084	11.839	-0.202240	-143.367	0.000656	NaN
274	1.000000	0.858802	7.36774e+06	-52339.1	955.818	-29749.8	0.000000	0.000000	6.859101	-0.096077	NaN	0.000000	0.001682	0.001626	28.0814	0.098526	0.001887	52.2258	-9.480852	-168.091	-0.104978	0.857464	-0.200167	-0.201505	-0.096077	52.2258	-0.198787	-125.82	0.000764	NaN
274	1.000000	0.866788	7.36774e+06	-52339.1	955.818	-29749.8	0.000000	0.000000	6.867089	-0.055602	NaN	0.000000	0.001672	0.001617	28.0811	0.098622	0.002129	46.3201	140.469	-165.862	-0.054398	0.865506	-0.192180	-0.193463	-0.055602	46.3201	-0.191280	-94.4908	0.000588	NaN
274	1.000000	0.874799	7.36774e+06	-52339.1	955.819	-29749.8	0.000000	0.000000	6.875099	-0.079529	NaN	0.000000	0.001653	0.001629	28.0812	0.002682	0.002016	1.330494	-47.5213	-166.686	-0.068390	0.873514	-0.184170	-0.185455	-0.079529	1.330494	-0.139339	-11.4957	0.006918	NaN
274	1.000000	0.882808	7.36774e+06	-52339.1	955.819	-29749.8	0.000000	0.000000	6.883112	0.004263	NaN	0.000000	0.001656	0.001609	28.0812	0.038316	0.001953	19.6209	74.263	-170.739	-0.055842	0.881522	-0.176160	-0.177447	0.004263	19.6209	-0.176323	-52.8064	-8.073337E-5	NaN
274	1.000000	0.890822	7.36774e+06	-52339.1	955.818	-29749.8	0.000000	0.000000	6.891122	-0.086741	NaN	0.000000	0.001630	0.001628	28.0812	0.080964	0.001837	44.0738	105.012	-165.641	-0.033254	0.889489	-0.168146	-0.169479	-0.086741	44.0738	-0.166670	-35.9402	0.002413	NaN
274	1.000000	0.898813	7.36774e+06	-52339.1	955.818	-29749.8	0.000000	0.000000	6.899114	-0.073350	NaN	0.000000	0.001655	0.001612	28.0815	0.057111	0.001876	30.4352	-136.939	-164.666	-0.074047	0.897514	-0.160155	-0.161455	-0.073350	30.4352	-0.158348	-25.6193	0.002863	NaN
274	1.000000	0.906787	7.36774e+06	-52339.1	955.818	-29749.8	0.000000	0.000000	6.907089	-0.040257	NaN	0.000000	0.001655	0.001625	28.081	0.062990	0.002032	30.998	12.8829	-167.294	-0.061117	0.905468	-0.152181	-0.153501	-0.040257	30.998	-0.151207	-19.054	0.002113	NaN
274	1.000000	0.914818	7.36774e+06	-52339.1	955.818	-29749.8	0.000000	0.000000	6.915116	-0.127971	NaN	0.000000	0.001630	0.001617	28.0803	0.054904	0.002008	27.3386	175.073	-166.279	-0.060088	0.913472	-0.144151	-0.145496	-0.127971	27.3386	-0.140640	-12.1612	0.010523	NaN
274	1.000000	0.922802	7.36774e+06	-52339.1	955.819	-29749.8	0.000000	0.000000	6.923103	-0.078325	NaN	0.000000	0.001633	0.001617	28.0801	0.095202	0.001998	47.6385	-104.068	-167.996	-0.001269	0.921547	-0.136166	-0.137422	-0.078325	47.6385	-0.134933	-9.484378	0.008258	NaN
274	1.000000	0.930813	7.36774e+06	-52339.1	955.819	-29749.8	0.000000	0.000000	6.931112	-0.112797	NaN	0.000000	0.001655	0.001619	28.0799	0.056542	0.001986	28.4722	12.3629	-165.039	-0.095157	0.929478	-0.128156	-0.129491	-0.112797	28.4722	-0.125184	-6.132558	0.018393	NaN
274	1.000000	0.938829	7.36774e+06	-52339.1	955.818	-29749.8	0.000000	0.000000	6.939130	-0.062937	NaN	0.000000	0.001571	0.001657	28.08	0.084794	0.002056	41.2481	-88.9963	-166.047	0.013939	0.937528	-0.120139	-0.121440	-0.062937	41.2481	-0.118995	-4.610559	0.013651	NaN
274	1.000000	0.946825	7.36774e+06	-52339.1	955.818	-29749.8	0.000000	0.000000	6.947124	-0.093405	NaN	0.000000	0.001604	0.001595	28.0798	0.062082	0.002003	30.994	27.0168	-168.965	-0.086696	0.945528	-0.112144	-0.113440	-0.093405	30.994	-0.109883	-2.988236	0.031257	NaN
274	1.000000	0.954814	7.36774e+06	-52339.1	955.818	-29749.8	0.000000	0.000000	6.955117	-0.008410	NaN	0.000000	0.001584	0.001612	28.0799	0.089056	0.001966	45.3077	-39.0607	-167.016	-0.065235	0.953495	-0.104155	-0.105473	-0.008410	45.3077	-0.104016	-2.237989	0.003758	NaN
274	1.000000	0.962841	7.36774e+06	-52339.1	955.818	-29749.8	0.000000	0.000000	6.963142	-0.057670	NaN	0.000000	0.001593	0.001615	28.0796	0.116704	0.002092	55.782	-38.0173	-168.288	-0.089487	0.961506	-0.096128	-0.097463	-0.057670	55.782	-0.095352	-1.436926	0.040135	NaN
274	1.000000	0.970801	7.36774e+06	-52339.1	955.82	-29749.8	0.000000	0.000000	6.971100	-0.116407	NaN	0.000000	0.001571	0.001619	28.08	0.044430	0.002077	21.3922	145.571	-167.593	-0.130776	0.969555	-0.088167	-0.089413	-0.116407	21.3922	-0.084086	-0.780728	0.149101	NaN
274	1.000000	0.978849	7.36774e+06	-52339.1	955.819	-29749.8	0.000000	0.000000	6.979152	4.515101E-5	NaN	0.000000	0.001600	0.001612	28.08	0.069600	0.002063	33.7375	-57.436	-163.092	-0.019985	0.977559	-0.080120	-0.081409	4.515101E-5	33.7375	-0.080121	-0.623307	-7.243789E-5	NaN
274	1.000000	0.986829	7.36774e+06	-52339.1	955.819	-29749.8	0.000000	0.000000	6.987129	-0.089711	NaN	0.000000	0.001653	0.001642	28.08	0.067369	0.002038	33.0604	177.749	-164.913	-0.059298	0.985509	-0.072140	-0.073459	-0.089711	33.0604	-0.070104	-0.343312	0.261311	NaN
274	1.000000	0.994835	7.36774e+06	-52339.1	955.819	-29749.8	0.000000	0.000000	6.995138	-0.013936	NaN	0.000000	0.001632	0.001632	28.0801	0.074908	0.002077	36.0585	1.136739	-163.384	-0.034181	0.993501	-0.064133	-0.065467	-0.013936	36.0585	-0.063844	-0.231402	0.060224	NaN
274	1.000000	1.002828	7.36774e+06	-52339.1	955.819	-29749.8	0.000000	0.000000	7.003127	-0.109703	NaN	0.000000	0.001647	0.001628	28.0797	0.022667	0.001947	11.6401	-91.7243	-164.361	-0.056155	1.001523	-0.056140	-0.057445	-0.109703	11.6401	-0.049072	-0.085531	1.282612	NaN
274	1.000000	1.010867	7.36774e+06	-52339.1	955.818	-29749.8	0.000000	0.000000	7.011168	-0.052761	NaN	0.000000	0.001609	0.001649	28.0799	0.016359	0.002013	8.126966	-31.0428	-167.114	-0.094652	1.009514	-0.048102	-0.049454	-0.052761	8.126966	-0.043233	-0.056747	0.929753	NaN
274	1.000000	1.018854	7.36774e+06	-52339.1	955.818	-29749.8	0.000000	0.000000	7.019156	-0.039188	NaN	0.000000	0.001610	0.001639	28.0797	0.057678	0.002016	28.6057	-165.65	-164.52	-0.045840	1.017534	-0.040115	-0.041434	-0.039188	28.6057	-0.039087	-0.042430	0.923599	NaN
274	1.000000	1.026849	7.36774e+06	-52339.1	955.819	-29749.8	0.000000	0.000000	7.027151	-0.044804	NaN	0.000000	0.001631	0.001649	28.0797	0.084627	0.001920	44.0705	12.8338	-166.238	-0.066750	1.025549	-0.032119	-0.033419	-0.044804	44.0705	-0.031356	-0.025124	1.783286	NaN
274	1.000000	1.034848	7.36774e+06	-52339.1	955.817	-29749.8	0.000000	0.000000	7.035150	-0.041650	NaN	0.000000	0.001660	0.001624	28.0793	0.017685	0.002014	8.779558	-152.876	-162.623	-0.010951	1.033607	-0.024120	-0.025361	-0.041650	8.779558	-0.020562	-0.012981	3.208467	NaN
274	1.000000	1.042850	7.36774e+06	-52339.1	955.818	-29749.8	0.000000	0.000000	7.043150	-0.084225	NaN	0.000000	0.001729	0.001655	28.0797	0.060717	0.001972	30.7831	-16.575	-167.475	-0.039880	1.041510	-0.016118	-0.017459	-0.084225	30.7831	-0.014066	-0.008722	9.656554	NaN
274	1.000000	1.050882	7.36774e+06	-52339.1	955.819	-29749.8	0.000000	0.000000	7.051183	-0.056700	NaN	0.000000	0.001682	0.001661	28.0805	0.044513	0.001860	23.9264	52.4563	-166.422	-0.023373	1.049550	-0.008086	-0.009419	-0.056700	23.9264	-0.006309	-0.004225	13.4215	NaN
274	1.000000	1.058867	7.36774e+06	-52339.1	955.818	-29749.8	0.000000	0.000000	7.059176	0.110521	NaN	0.000000	0.001678	0.001632	28.081	0.561426	0.001843	304.605	17.3377	-166.45	-0.097984	1.057572	-0.000101	-0.001396	0.110521	304.605	-0.000373	-0.000277	-399.231	NaN
274	1.000000	1.066768	7.36774e+06	-52339.1	955.818	-29749.8	0.000000	0.000000	7.067385	7.613574	NaN	0.000000	0.001682	0.001636	28.0812	7.543245	0.001780	4237.85	11.8253	-169.486	6.092001	1.065522	0.007800	0.006554	7.613574	4237.85	0.006452	0.005498	1384.7	52215.9
274	2.000000	1.069463	7.36774e+06	-52339.1	955.819	-29749.8	0.000000	0.000000	7.070204	10.6393	NaN	0.000000	0.001717	0.001613	28.0808	10.3537	0.001500	6900.79	2.443638	-171.356	10.5185	1.069169	0.010495	0.010201	10.6393	6900.79	0.009339	0.008456	1258.24	68564.2
274	2.000000	1.071444	7.36774e+06	-52339.1	955.819	-29749.8	0.000000	0.000000	7.072281	12.9478	NaN	0.000000	0.001633	0.001656	28.081	13.6668	0.001842	7418.39	7.275547	-173.783	12.5581	1.071186	0.012476	0.012218	12.9478	7418.39	0.011167	0.010508	1232.24	66119.9
274	2.000000	1.073399	7.36774e+06	-52339.1	955.818	-29749.8	0.000000	0.000000	7.074436	17.8162	NaN	0.000000	0.001652	0.001593	28.0811	15.7181	0.001682	9345.1	10.9366	-179.626	16.8887	1.073044	0.014431	0.014075	17.8162	9345.1	0.013001	0.012711	1401.59	75728.4
274	2.000000	1.075407	7.36774e+06	-52339.1	955.819	-29749.8	0.000000	0.000000	7.076618	22.0768	NaN	0.000000	0.001625	0.001627	28.0811	18.4363	0.001763	10460.1	6.501692	-176.249	21.2472	1.075100	0.016438	0.016131	22.0768	10460.1	0.014855	0.015093	1462.73	77789.5
274	2.000000	1.077429	7.36774e+06	-52339.1	955.818	-29749.8	0.000000	0.000000	7.078826	26.5928	NaN	0.000000	0.001666	0.001597	28.0811	20.8666	0.001863	11199	5.344859	-175.826	25.9146	1.077121	0.018461	0.018152	26.5928	11199	0.016680	0.017591	1511.71	77144.6
274	2.000000	1.079371	7.36774e+06	-52339.1	955.819	-29749.8	0.000000	0.000000	7.080865	28.9524	NaN	0.000000	0.001622	0.001636	28.081	22.4639	0.001707	13159.3	6.314353	-178.631	28.8449	1.079112	0.020402	0.020144	28.9524	13159.3	0.018752	0.020619	1404.14	83727.9
274	2.000000	1.081361	7.36774e+06	-52339.1	955.819	-29749.8	0.000000	0.000000	7.083108	35.09	NaN	0.000000	0.001615	0.001615	28.0812	25.458	0.001897	13417.4	8.183776	178.56	34.3052	1.081111	0.022393	0.022143	35.09	13417.4	0.020431	0.023225	1510.89	80438.7
274	2.000000	1.083332	7.36774e+06	-52339.1	955.818	-29749.8	0.000000	0.000000	7.085394	42.77	NaN	0.000000	0.001617	0.001634	28.0814	25.9906	0.001701	15277.2	2.463485	-175.856	41.0216	1.082986	0.024363	0.024018	42.77	15277.2	0.022264	0.026225	1630.91	86191.1
274	2.000000	1.085365	7.36774e+06	-52339.1	955.819	-29749.8	0.000000	0.000000	7.087661	48.4508	NaN	0.000000	0.001601	0.001622	28.0809	28.501	0.001750	16286.6	5.861613	179.725	48.0729	1.084987	0.026396	0.026019	48.4508	16286.6	0.024165	0.029514	1641.59	86613.4
274	2.000000	1.087413	7.36774e+06	-52339.1	955.819	-29749.8	0.000000	0.000000	7.089965	54.6671	NaN	0.000000	0.001613	0.001604	28.0811	31.3494	0.001705	18383.1	10.6097	173.881	53.955	1.086985	0.028444	0.028017	54.6671	18383.1	0.026214	0.033261	1643.57	92092.1
274	2.000000	1.089335	7.36774e+06	-52339.1	955.819	-29749.8	0.000000	0.000000	7.092145	60.9529	NaN	0.000000	0.001610	0.001671	28.0811	32.8765	0.001667	19716.1	6.290984	176.355	59.6049	1.089025	0.030366	0.030056	60.9529	19716.1	0.028048	0.036794	1656.59	93908.4
274	2.000000	1.091313	7.36774e+06	-52339.1	955.819	-29749.8	0.000000	0.000000	7.094191	62.5983	NaN	0.000000	0.001635	0.001659	28.0812	35.9267	0.001908	18829.9	6.771387	176.787	59.9255	1.091081	0.032345	0.032113	62.5983	18829.9	0.029852	0.040437	1548.05	85552.4
274	2.000000	1.093352	7.36774e+06	-52339.1	955.819	-29749.8	0.000000	0.000000	7.096616	72.0011	NaN	0.000000	0.001626	0.001635	28.0811	36.8957	0.001867	19763.2	8.249575	176.093	71.0523	1.092897	0.034383	0.033929	72.0011	19763.2	0.031651	0.044235	1627.7	85851.5
274	2.000000	1.095357	7.36774e+06	-52339.1	955.819	-29749.8	0.000000	0.000000	7.098875	78.1792	NaN	0.000000	0.001608	0.001638	28.0811	39.3966	0.001854	21251.6	5.037528	178.258	78.7396	1.095070	0.036388	0.036102	78.1792	21251.6	0.033629	0.048602	1608.55	88071.7
274	2.000000	1.097348	7.36774e+06	-52339.1	955.819	-29749.8	0.000000	0.000000	7.101254	87.5983	NaN	0.000000	0.001613	0.001634	28.0816	40.5412	0.001772	22878	4.204575	178.652	85.9798	1.096990	0.038380	0.038021	87.5983	22878	0.035508	0.052936	1654.8	90848.3
274	2.000000	1.099395	7.36774e+06	-52339.1	955.819	-29749.8	0.000000	0.000000	7.103553	93.7066	NaN	0.000000	0.001620	0.001641	28.08	42.5545	0.001827	23286.6	4.257876	177.838	95.5457	1.099046	0.040427	0.040077	93.7066	23286.6	0.037409	0.057504	1629.57	88721.8
274	2.000000	1.101335	7.36774e+06	-52339.1	955.818	-29749.8	0.000000	0.000000	7.105830	101.925	NaN	0.000000	0.001633	0.001646	28.0802	44.5486	0.001755	25389.9	4.123519	177.394	102.678	1.101041	0.042367	0.042072	101.925	25389.9	0.039356	0.062374	1634.1	92882.2
274	2.000000	1.103285	7.36774e+06	-52339.1	955.819	-29749.8	0.000000	0.000000	7.108158	111.089	NaN	0.000000	0.001648	0.001647	28.0801	45.8589	0.001787	25658.4	3.644512	177.636	108.61	1.102999	0.044317	0.044030	111.089	25658.4	0.041070	0.066822	1662.45	90686.1
274	2.000000	1.105293	7.36774e+06	-52339.1	955.818	-29749.8	0.000000	0.000000	7.110610	121.897	NaN	0.000000	0.001642	0.001635	28.0799	47.7	0.001799	26521.4	4.314501	177.018	118.619	1.104948	0.046325	0.045980	121.897	26521.4	0.042878	0.071677	1700.64	90506.4
274	2.000000	1.107334	7.36774e+06	-52339.1	955.819	-29749.8	0.000000	0.000000	7.112775	124.9	NaN	0.000000	0.001652	0.001650	28.0804	50.3954	0.001779	28320.9	3.753997	177.166	122.945	1.106981	0.048366	0.048012	124.9	28320.9	0.045058	0.077753	1606.37	92794.2
274	2.000000	1.109266	7.36774e+06	-52339.1	955.819	-29749.8	0.000000	0.000000	7.115258	138.326	NaN	0.000000	0.001638	0.001685	28.0798	51.3811	0.001757	29244.1	1.835842	178.738	134.901	1.108932	0.050297	0.049963	138.326	29244.1	0.046750	0.082632	1674.01	92947.4
274	2.000000	1.111321	7.36774e+06	-52339.1	955.819	-29749.8	0.000000	0.000000	7.117602	145.347	NaN	0.000000	0.001623	0.001664	28.0801	55.1676	0.001714	32186.8	1.569695	177.67	144.734	1.111019	0.052352	0.052050	145.347	32186.8	0.048965	0.089242	1628.69	98438.8
274	2.000000	1.113332	7.36774e+06	-52339.1	955.819	-29749.8	0.000000	0.000000	7.120087	156.852	NaN	0.000000	0.001625	0.001656	28.0799	56.5367	0.001733	32614.5	7.598614	172.312	156.329	1.113028	0.054364	0.054060	156.852	32614.5	0.050757	0.094767	1655.14	96795.7
274	2.000000	1.115250	7.36774e+06	-52339.1	955.819	-29749.8	0.000000	0.000000	7.122465	168.03	NaN	0.000000	0.001623	0.001622	28.0798	59.0574	0.001763	33499.9	1.322123	177.722	165.354	1.114972	0.056282	0.056004	168.03	33499.9	0.052520	0.100362	1674.25	96612.3
274	2.000000	1.117329	7.36774e+06	-52339.1	955.819	-29749.8	0.000000	0.000000	7.124786	173.938	NaN	0.000000	0.001608	0.001650	28.08	61.9639	0.001830	33862.3	7.770423	171.315	172.833	1.117053	0.058361	0.058084	173.938	33862.3	0.054508	0.106856	1627.78	94643.4
274	2.000000	1.119318	7.36774e+06	-52339.1	955.819	-29749.8	0.000000	0.000000	7.127364	188.274	NaN	0.000000	0.001629	0.001622	28.0798	62.924	0.001726	36457.5	3.336808	175.341	188.274	1.118905	0.060349	0.059937	188.274	36457.5	0.056476	0.113476	1659.15	98879.9
274	2.000000	1.121310	7.36774e+06	-52339.1	955.82	-29749.8	0.000000	0.000000	7.129974	203.285	NaN	0.000000	0.001651	0.001651	28.08	66.3845	0.001917	34625.2	8.971121	170.76	201.707	1.120931	0.062341	0.061963	203.285	34625.2	0.057938	0.118518	1715.22	91891.1
274	2.000000	1.123266	7.36774e+06	-52339.1	955.819	-29749.8	0.000000	0.000000	7.132382	214.266	NaN	0.000000	0.001649	0.001616	28.0799	66.799	0.001844	36227.4	5.439528	173.186	213.068	1.122887	0.064298	0.063918	214.266	36227.4	0.059862	0.125313	1709.84	93500
274	2.000000	1.125235	7.36774e+06	-52339.1	955.819	-29749.8	0.000000	0.000000	7.134789	224.926	NaN	0.000000	0.001643	0.001615	28.0797	69.3151	0.001784	38852.5	2.450011	175.238	219.703	1.124993	0.066267	0.066024	224.926	38852.5	0.061925	0.132801	1693.71	97407.2
274	2.000000	1.127261	7.36774e+06	-52339.1	955.82	-29749.8	0.000000	0.000000	7.137309	236.93	NaN	0.000000	0.001625	0.001633	28.08	71.2145	0.001659	42932.4	1.401039	175.971	233.776	1.126906	0.068293	0.067937	236.93	42932.4	0.064154	0.141123	1678.89	104414
274	2.000000	1.129378	7.36774e+06	-52339.1	955.819	-29749.8	0.000000	0.000000	7.139978	250.366	NaN	0.000000	0.001641	0.001644	28.0796	73.0276	0.001672	43673.4	4.118818	172.863	254.563	1.128935	0.070409	0.069966	250.366	43673.4	0.066110	0.148624	1684.57	103501
274	2.000000	1.131247	7.36774e+06	-52339.1	955.82	-29749.8	0.000000	0.000000	7.142328	262.043	NaN	0.000000	0.001624	0.001639	28.0799	76.9314	0.001830	42044	5.013912	172.034	258.676	1.131049	0.072279	0.072081	262.043	42044	0.067604	0.154479	1696.31	97733.3
274	2.000000	1.133268	7.36774e+06	-52339.1	955.819	-29749.8	0.000000	0.000000	7.145271	284.46	NaN	0.000000	0.001636	0.001634	28.081	78.309	0.001777	44067.4	8.585229	169.13	282.167	1.132876	0.074299	0.073907	284.46	44067.4	0.069458	0.161891	1757.11	100065
274	2.000000	1.135251	7.36774e+06	-52339.1	955.819	-29749.8	0.000000	0.000000	7.147713	295.631	NaN	0.000000	0.001624	0.001627	28.0811	80.2087	0.001752	45770.9	2.780830	174.166	293.012	1.134968	0.076283	0.075999	295.631	45770.9	0.071438	0.169988	1739.13	101427
274	2.000000	1.137309	7.36774e+06	-52339.1	955.82	-29749.8	0.000000	0.000000	7.150420	311.394	NaN	0.000000	0.001613	0.001658	28.0832	82.9246	0.001870	44338.6	5.695855	172.005	310.48	1.136938	0.078341	0.077970	311.394	44338.6	0.073074	0.176816	1761.13	96337.3
274	2.000000	1.139245	7.36774e+06	-52339.1	955.82	-29749.8	0.000000	0.000000	7.153039	328.024	NaN	0.000000	0.001592	0.001641	28.0847	82.6222	0.001726	47864.2	0.376993	176.277	325.852	1.138988	0.080277	0.080020	328.024	47864.2	0.075137	0.185609	1767.29	101505
274	2.000000	1.141302	7.36774e+06	-52339.1	955.819	-29749.8	0.000000	0.000000	7.155619	340.737	NaN	0.000000	0.001673	0.001624	28.0822	86.8979	0.001877	46305.6	4.216708	172.737	338.94	1.140820	0.082333	0.081852	340.737	46305.6	0.076814	0.192907	1766.32	96323.5
274	2.000000	1.143228	7.36774e+06	-52339.1	955.82	-29749.8	0.000000	0.000000	7.158150	355.445	NaN	0.000000	0.001687	0.001616	28.0814	87.2246	0.001686	51726.3	4.381079	171.338	352.558	1.142945	0.084260	0.083976	355.445	51726.3	0.079106	0.203091	1750.18	104867
274	2.000000	1.145235	7.36774e+06	-52339.1	955.82	-29749.8	0.000000	0.000000	7.160880	373.017	NaN	0.000000	0.001682	0.001615	28.0809	91.7812	0.001885	48680.4	5.312139	171.525	370.405	1.144967	0.086267	0.085998	373.017	48680.4	0.080520	0.209495	1780.56	97172
274	2.000000	1.147295	7.36774e+06	-52339.1	955.821	-29749.8	0.000000	0.000000	7.163550	387.851	NaN	0.000000	0.001658	0.001620	28.081	93.8242	0.001827	51354.8	6.475503	169.642	386.538	1.146985	0.088327	0.088017	387.851	51354.8	0.082663	0.219378	1767.96	100175
274	2.000000	1.149300	7.36774e+06	-52339.1	955.821	-29749.8	0.000000	0.000000	7.166299	405.944	NaN	0.000000	0.001662	0.001671	28.0809	94.649	0.001725	54882.9	7.356275	168.15	406.631	1.148855	0.090332	0.089886	405.944	54882.9	0.084784	0.229374	1769.79	104698
274	2.000000	1.151272	7.36774e+06	-52339.1	955.82	-29749.8	0.000000	0.000000	7.168919	421.702	NaN	0.000000	0.001669	0.001658	28.0814	97.3323	0.001815	53631.4	1.910204	173.909	421.636	1.151028	0.092304	0.092060	421.702	53631.4	0.086407	0.237158	1778.15	100617
274	2.000000	1.153218	7.36774e+06	-52339.1	955.82	-29749.8	0.000000	0.000000	7.171825	445.047	NaN	0.000000	0.001666	0.001663	28.081	98.7317	0.001816	54373.2	5.156499	170.803	443.086	1.152871	0.094250	0.093903	445.047	54373.2	0.088111	0.245465	1813.07	100268
274	2.000000	1.155128	7.36774e+06	-52339.1	955.82	-29749.8	0.000000	0.000000	7.174370	460.495	NaN	0.000000	0.001663	0.001685	28.0808	101.236	0.001863	54326.6	6.134063	169.288	452.632	1.154886	0.096159	0.095918	460.495	54326.6	0.089802	0.253840	1814.11	98515.8
274	2.000000	1.157283	7.36774e+06	-52339.1	955.82	-29749.8	0.000000	0.000000	7.177307	479.489	NaN	0.000000	0.001691	0.001694	28.081	102.392	0.001795	57033.7	4.238869	171.547	480.206	1.156931	0.098315	0.097962	479.489	57033.7	0.092009	0.264969	1809.61	101230
274	2.000000	1.159192	7.36774e+06	-52339.1	955.82	-29749.8	0.000000	0.000000	7.179989	498.279	NaN	0.000000	0.001677	0.001644	28.081	103.187	0.001703	60582.4	3.922877	170.806	492.27	1.158983	0.100224	0.100014	498.279	60582.4	0.094055	0.275483	1808.75	105456
274	2.000000	1.161358	7.36774e+06	-52339.1	955.821	-29749.8	0.000000	0.000000	7.182043	495.581	NaN	0.000000	0.001685	0.001663	28.0817	107.59	0.001902	56579.8	4.264129	170.674	499.881	1.161213	0.102389	0.102244	495.581	56579.8	0.095820	0.284708	1740.66	96880.1
274	2.000000	1.163156	7.36774e+06	-52339.1	955.819	-29749.8	0.000000	0.000000	7.185437	534.375	NaN	0.000000	0.001686	0.001635	28.081	107.491	0.001763	60964.8	5.450715	169.525	528.837	1.162868	0.104188	0.103899	534.375	60964.8	0.097614	0.294227	1816.2	102686
274	2.000000	1.165289	7.36774e+06	-52339.1	955.82	-29749.8	0.000000	0.000000	7.188258	551.12	NaN	0.000000	0.001670	0.001640	28.081	110.569	0.001854	59645.6	4.919524	170.224	552.423	1.164863	0.106320	0.105894	551.12	59645.6	0.099390	0.303801	1814.08	98868.3
274	2.000000	1.166201	7.36774e+06	-52339.1	955.82	-29749.8	0.000000	0.000000	7.189778	565.884	NaN	0.000000	0.001680	0.001644	28.0799	110.098	0.001794	61381.4	2.989079	172.274	562.653	1.165781	0.107233	0.106813	565.884	61381.4	0.100319	0.308860	1832.17	100909