File: remote_trans/data/nanoindenter/0828-1/data/Data_2025-08-06,11h17m57s/2025-07-22_16-23-58_1_66.txt
2025-07-22, 16:23:58, 1
Index	Phase	Displacement	Time	Pos X	Pos Y	Pos Z	Rot A	Rot B	Piezo Z	Force A	Force B	Gripper	Voltage A	Voltage B	Temperature	Amplitude force	Amplitude pos	Stiffness	Phase shift	Phase excitation	Force A raw	Displacement raw	HMax	HMax raw	Real Force	Real Stiffness	Contact Depth	Area	Hardness	Reduced Mod.
[#]	[#]	[um]	[s]	[um]	[um]	[um]	[m°]	[m°]	[um]	[uN]	[uN]	[V]	[V]	[V]	[°C]	[uN]	[um]	[N/m]	[°]	[°]	[uN]	[um]	[um]	[um]	[uN]	[N/m]	[um]	[um^2]	[MPa]	[MPa]
66	1.000000	0.002905	7.36569e+06	-41939.1	955.818	-29785	0.000000	0.000000	6.002830	0.030529	NaN	0.000000	0.001742	0.001634	28.1055	0.071904	0.000958	75.0775	-166.002	-170.225	0.034020	0.001589	-1.085097	-1.086413	0.030529	75.0775	-1.085402	-3.192031E+14	-9.564166E-17	NaN
66	1.000000	0.010855	7.36569e+06	-41939.1	955.819	-29785	0.000000	0.000000	6.010780	0.015197	NaN	0.000000	0.001732	0.001661	28.1038	0.064866	0.000872	74.4126	91.5311	-166.196	0.026401	0.009493	-1.077146	-1.078509	0.015197	74.4126	-1.077300	-2.484551E+14	-6.116570E-17	NaN
66	1.000000	0.018846	7.36569e+06	-41939.1	955.818	-29785	0.000000	0.000000	6.018772	0.037502	NaN	0.000000	0.001744	0.001630	28.1047	0.013264	0.001743	7.610766	-128.611	-163.726	-0.009631	0.017539	-1.069156	-1.070463	0.037502	7.610766	-1.072852	-2.165207E+14	-1.732047E-16	NaN
66	1.000000	0.026865	7.36569e+06	-41939.1	955.818	-29785	0.000000	0.000000	6.026791	0.037732	NaN	0.000000	0.001730	0.001627	28.1036	0.071654	0.001845	38.8325	14.5023	-163.23	-0.015330	0.025524	-1.061137	-1.062477	0.037732	38.8325	-1.061866	-1.541312E+14	-2.448033E-16	NaN
66	1.000000	0.034820	7.36569e+06	-41939.1	955.819	-29785	0.000000	0.000000	6.034744	-0.003508	NaN	0.000000	0.001727	0.001669	28.104	0.054292	0.001843	29.452	166.578	-164.252	0.092539	0.033494	-1.053182	-1.054508	-0.003508	29.452	-1.053092	-1.174853E+14	2.985531E-17	NaN
66	1.000000	0.042856	7.36569e+06	-41939.1	955.819	-29785	0.000000	0.000000	6.042781	0.022212	NaN	0.000000	0.001734	0.001643	28.1038	0.013423	0.002039	6.584683	-71.0805	-168.148	0.012631	0.041553	-1.045146	-1.046448	0.022212	6.584683	-1.047676	-9.935100E+13	-2.235725E-16	NaN
66	1.000000	0.050849	7.36569e+06	-41939.1	955.819	-29785	0.000000	0.000000	6.050771	-0.060880	NaN	0.000000	0.001697	0.001688	28.1042	0.054797	0.002056	26.6498	-103.926	-168.048	-0.060501	0.049506	-1.037153	-1.038496	-0.060880	26.6498	-1.035439	-6.801991E+13	8.950284E-16	NaN
66	1.000000	0.058820	7.36569e+06	-41939.1	955.818	-29785	0.000000	0.000000	6.058742	-0.041938	NaN	0.000000	0.001753	0.001653	28.104	0.102677	0.001995	51.4787	-44.9166	-166.943	-0.043269	0.057563	-1.029182	-1.030439	-0.041938	51.4787	-1.028571	-5.498721E+13	7.626905E-16	NaN
66	1.000000	0.066858	7.36569e+06	-41939.1	955.819	-29785	0.000000	0.000000	6.066782	-0.019493	NaN	0.000000	0.001728	0.001685	28.1043	0.008653	0.002079	4.161765	-170.931	-162.516	0.023979	0.065517	-1.021143	-1.022485	-0.019493	4.161765	-1.017630	-3.918040E+13	4.975139E-16	NaN
66	1.000000	0.074843	7.36569e+06	-41939.1	955.818	-29785	0.000000	0.000000	6.074769	0.029371	NaN	0.000000	0.001718	0.001650	28.1048	0.075517	0.001887	40.0298	-145.261	-162.387	-0.005417	0.073517	-1.013159	-1.014485	0.029371	40.0298	-1.013709	-3.469749E+13	-8.464878E-16	NaN
66	1.000000	0.082822	7.36569e+06	-41939.1	955.818	-29785	0.000000	0.000000	6.082747	0.023463	NaN	0.000000	0.001719	0.001681	28.1059	0.038857	0.002026	19.182	-159.822	-163.268	0.035684	0.081547	-1.005180	-1.006455	0.023463	19.182	-1.006097	-2.740644E+13	-8.561276E-16	NaN
66	1.000000	0.090890	7.36569e+06	-41939.1	955.817	-29785	0.000000	0.000000	6.090814	-0.005115	NaN	0.000000	0.001684	0.001680	28.1069	0.016809	0.002147	7.831100	170.721	-164.916	0.026129	0.089507	-0.997111	-0.998494	-0.005115	7.831100	-0.996622	-2.043063E+13	2.503548E-16	NaN
66	1.000000	0.098873	7.36569e+06	-41939.1	955.819	-29785	0.000000	0.000000	6.098799	0.035036	NaN	0.000000	0.001655	0.001696	28.1058	0.078979	0.001903	41.5012	-145.349	-165.314	-0.033290	0.097525	-0.989129	-0.990477	0.035036	41.5012	-0.989762	-1.651608E+13	-2.121299E-15	NaN
66	1.000000	0.106853	7.36569e+06	-41939.1	955.818	-29785	0.000000	0.000000	6.106778	0.010983	NaN	0.000000	0.001671	0.001703	28.1046	0.065186	0.001999	32.6126	-71.7838	-165.746	0.037212	0.105525	-0.981149	-0.982477	0.010983	32.6126	-0.981401	-1.274354E+13	-8.618235E-16	NaN
66	1.000000	0.114856	7.36569e+06	-41939.1	955.818	-29785	0.000000	0.000000	6.114778	-0.071848	NaN	0.000000	0.001658	0.001693	28.1055	0.027395	0.001942	14.1039	127.619	-164.197	-0.069764	0.113520	-0.973145	-0.974482	-0.071848	14.1039	-0.969325	-8.761156E+12	8.200791E-15	NaN
66	1.000000	0.122867	7.36569e+06	-41939.1	955.819	-29785	0.000000	0.000000	6.122792	0.009950	NaN	0.000000	0.001645	0.001683	28.105	0.050385	0.002021	24.9334	-19.2615	-167.483	0.054075	0.121525	-0.965135	-0.966477	0.009950	24.9334	-0.965434	-7.764603E+12	-1.281435E-15	NaN
66	1.000000	0.130872	7.36569e+06	-41939.1	955.818	-29785	0.000000	0.000000	6.130796	-0.010382	NaN	0.000000	0.001646	0.001712	28.1048	0.051208	0.002005	25.5456	175.323	-163.076	-0.015202	0.129600	-0.957130	-0.958402	-0.010382	25.5456	-0.956825	-5.943739E+12	1.746757E-15	NaN
66	1.000000	0.138846	7.36569e+06	-41939.1	955.819	-29785	0.000000	0.000000	6.138770	-0.005150	NaN	0.000000	0.001662	0.001728	28.1045	0.077012	0.001966	39.1737	-168.711	-162.604	-0.018259	0.137516	-0.949155	-0.950486	-0.005150	39.1737	-0.949057	-4.669897E+12	1.102773E-15	NaN
66	1.000000	0.146871	7.36569e+06	-41939.1	955.818	-29785	0.000000	0.000000	6.146797	0.042371	NaN	0.000000	0.001623	0.001752	28.1069	0.026311	0.002017	13.0468	-119.374	-164.534	0.020405	0.145519	-0.941131	-0.942483	0.042371	13.0468	-0.943567	-3.937833E+12	-1.076009E-14	NaN
66	1.000000	0.154855	7.36569e+06	-41939.1	955.818	-29785	0.000000	0.000000	6.154779	-0.011848	NaN	0.000000	0.001622	0.001738	28.1065	0.079306	0.002076	38.2012	-151.916	-166.466	-0.014545	0.153552	-0.933147	-0.934449	-0.011848	38.2012	-0.932914	-2.828317E+12	4.189011E-15	NaN
66	1.000000	0.162876	7.36569e+06	-41939.1	955.818	-29785	0.000000	0.000000	6.162800	-0.019569	NaN	0.000000	0.001606	0.001694	28.1062	0.069523	0.001996	34.8228	-30.6914	-166.357	-0.044205	0.161593	-0.925126	-0.926408	-0.019569	34.8228	-0.924704	-2.191358E+12	8.929966E-15	NaN
66	1.000000	0.170891	7.36569e+06	-41939.1	955.818	-29785	0.000000	0.000000	6.170812	-0.100986	NaN	0.000000	0.001624	0.001708	28.106	0.084805	0.001972	43.0097	0.630501	-167.629	-0.025633	0.169531	-0.917110	-0.918471	-0.100986	43.0097	-0.915349	-1.638358E+12	6.163848E-14	NaN
66	1.000000	0.178860	7.36569e+06	-41939.1	955.819	-29785	0.000000	0.000000	6.178782	-0.053646	NaN	0.000000	0.001592	0.001716	28.1062	0.087656	0.001998	43.8769	-160.775	-167.611	-0.027045	0.177601	-0.909142	-0.910401	-0.053646	43.8769	-0.908225	-1.312746E+12	4.086555E-14	NaN
66	1.000000	0.186881	7.36569e+06	-41939.1	955.818	-29785	0.000000	0.000000	6.186806	0.002009	NaN	0.000000	0.001626	0.001677	28.1051	0.103420	0.002069	49.9932	-32.947	-161.927	0.022603	0.185563	-0.901120	-0.902439	0.002009	49.9932	-0.901151	-1.053446E+12	-1.907519E-15	NaN
66	1.000000	0.194898	7.36569e+06	-41939.1	955.819	-29785	0.000000	0.000000	6.194820	-0.049693	NaN	0.000000	0.001636	0.001673	28.1058	0.040319	0.002092	19.2699	169.031	-169.024	-0.112731	0.193592	-0.893104	-0.894409	-0.049693	19.2699	-0.891170	-7.721983E+11	6.435256E-14	NaN
66	1.000000	0.202917	7.36569e+06	-41939.1	955.818	-29785	0.000000	0.000000	6.202839	-0.034137	NaN	0.000000	0.001639	0.001671	28.1057	0.051714	0.002133	24.2497	1.359439	-164.545	0.011635	0.201557	-0.885085	-0.886445	-0.034137	24.2497	-0.884029	-6.182943E+11	5.521129E-14	NaN
66	1.000000	0.210893	7.36569e+06	-41939.1	955.818	-29785	0.000000	0.000000	6.210819	0.052268	NaN	0.000000	0.001609	0.001682	28.106	0.032358	0.002156	15.0049	131.587	-163.847	-0.003638	0.209570	-0.877109	-0.878432	0.052268	15.0049	-0.879721	-5.406817E+11	-9.667016E-14	NaN
66	1.000000	0.218892	7.36569e+06	-41939.1	955.818	-29785	0.000000	0.000000	6.218817	0.015915	NaN	0.000000	0.001621	0.001705	28.1047	0.067459	0.002036	33.1397	111.899	-165.529	0.001917	0.217641	-0.869109	-0.870361	0.015915	33.1397	-0.869470	-3.928871E+11	-4.050713E-14	NaN
66	1.000000	0.226908	7.36569e+06	-41939.1	955.818	-29785	0.000000	0.000000	6.226833	0.035451	NaN	0.000000	0.001650	0.001645	28.1062	0.088396	0.001959	45.128	-111.277	-168.399	0.007934	0.225554	-0.861094	-0.862448	0.035451	45.128	-0.861683	-3.082500E+11	-1.150064E-13	NaN
66	1.000000	0.234900	7.36569e+06	-41939.1	955.817	-29785	0.000000	0.000000	6.234824	0.007565	NaN	0.000000	0.001618	0.001645	28.1061	0.087509	0.001965	44.5401	-138.314	-167.724	-0.020926	0.233608	-0.853102	-0.854393	0.007565	44.5401	-0.853229	-2.368459E+11	-3.194022E-14	NaN
66	1.000000	0.242917	7.36569e+06	-41939.1	955.819	-29785	0.000000	0.000000	6.242844	0.059969	NaN	0.000000	0.001661	0.001638	28.1056	0.084261	0.001923	43.8215	-40.3132	-164.453	-0.012509	0.241596	-0.845085	-0.846406	0.059969	43.8215	-0.846111	-1.897019E+11	-3.161237E-13	NaN
66	1.000000	0.250940	7.36569e+06	-41939.1	955.818	-29785	0.000000	0.000000	6.250863	-0.022800	NaN	0.000000	0.001632	0.001664	28.1057	0.023879	0.002033	11.7474	118.665	-167.368	-0.020862	0.249618	-0.837062	-0.838383	-0.022800	11.7474	-0.835606	-1.366981E+11	1.667944E-13	NaN
66	1.000000	0.258902	7.36569e+06	-41939.1	955.818	-29785	0.000000	0.000000	6.258829	0.062574	NaN	0.000000	0.001607	0.001663	28.106	0.075030	0.002078	36.1089	136.848	-164.975	0.022892	0.257601	-0.829100	-0.830401	0.062574	36.1089	-0.830399	-1.161971E+11	-5.385199E-13	NaN
66	1.000000	0.266928	7.36569e+06	-41939.1	955.819	-29785	0.000000	0.000000	6.266854	0.034650	NaN	0.000000	0.001520	0.001704	28.1044	0.011873	0.001983	5.986702	120.53	-164.126	0.041630	0.265631	-0.821074	-0.822371	0.034650	5.986702	-0.825415	-9.945581E+10	-3.483954E-13	NaN
66	1.000000	0.274910	7.36569e+06	-41939.1	955.819	-29785	0.000000	0.000000	6.274835	0.019023	NaN	0.000000	0.001570	0.001692	28.105	0.112394	0.001996	56.3089	-41.9881	-167.488	0.005921	0.273614	-0.813092	-0.814387	0.019023	56.3089	-0.813345	-6.822653E+10	-2.788149E-13	NaN
66	1.000000	0.282912	7.36569e+06	-41939.1	955.817	-29785	0.000000	0.000000	6.282833	-0.091900	NaN	0.000000	0.001539	0.001694	28.105	0.070637	0.001983	35.6228	-167.718	-165.191	-0.080571	0.281612	-0.805089	-0.806390	-0.091900	35.6228	-0.803154	-4.962238E+10	1.851980E-12	NaN
66	1.000000	0.290918	7.36569e+06	-41939.1	955.819	-29785	0.000000	0.000000	6.290844	0.039779	NaN	0.000000	0.001544	0.001672	28.1047	0.047555	0.001935	24.5813	-152.948	-162.921	0.080148	0.289634	-0.797083	-0.798367	0.039779	24.5813	-0.798297	-4.263275E+10	-9.330679E-13	NaN
66	1.000000	0.298930	7.36569e+06	-41939.1	955.819	-29785	0.000000	0.000000	6.298854	0.000597	NaN	0.000000	0.001592	0.001674	28.1049	0.036902	0.002116	17.4414	85.659	-168.897	-0.051340	0.297678	-0.789072	-0.790324	0.000597	17.4414	-0.789097	-3.197597E+10	-1.866559E-14	NaN
66	1.000000	0.306953	7.36569e+06	-41939.1	955.819	-29785	0.000000	0.000000	6.306880	0.047204	NaN	0.000000	0.001536	0.001684	28.1056	0.099208	0.001944	51.0236	131.576	-168.24	-0.003921	0.305626	-0.781048	-0.782376	0.047204	51.0236	-0.781742	-2.540419E+10	-1.858122E-12	NaN
66	1.000000	0.314933	7.36569e+06	-41939.1	955.818	-29785	0.000000	0.000000	6.314859	0.028945	NaN	0.000000	0.001566	0.001709	28.1061	0.065859	0.001934	34.0524	-162.262	-164.65	0.037389	0.313615	-0.773068	-0.774387	0.028945	34.0524	-0.773706	-1.975551E+10	-1.465144E-12	NaN
66	1.000000	0.322936	7.36569e+06	-41939.1	955.817	-29785	0.000000	0.000000	6.322859	-0.033027	NaN	0.000000	0.001535	0.001719	28.1058	0.046735	0.002010	23.2567	15.3775	-164.518	-0.061935	0.321601	-0.765066	-0.766401	-0.033027	23.2567	-0.764001	-1.457901E+10	2.265388E-12	NaN
66	1.000000	0.330951	7.36569e+06	-41939.1	955.818	-29785	0.000000	0.000000	6.330875	-0.013367	NaN	0.000000	0.001659	0.001711	28.106	0.022115	0.001994	11.0897	-53.7509	-166.661	-0.025204	0.329615	-0.757051	-0.758387	-0.013367	11.0897	-0.756147	-1.139923E+10	1.172662E-12	NaN
66	1.000000	0.338964	7.36569e+06	-41939.1	955.818	-29785	0.000000	0.000000	6.338886	-0.066911	NaN	0.000000	0.001615	0.001678	28.1065	0.073755	0.001887	39.0809	99.3092	-169.375	-0.084143	0.337687	-0.749037	-0.750315	-0.066911	39.0809	-0.747753	-8.762637E+9	7.635915E-12	NaN
66	1.000000	0.346962	7.36569e+06	-41939.1	955.818	-29785	0.000000	0.000000	6.346883	-0.081308	NaN	0.000000	0.001536	0.001710	28.1044	0.039157	0.001945	20.1357	-17.8949	-161.648	-0.047312	0.345653	-0.741040	-0.742349	-0.081308	20.1357	-0.738012	-6.456138E+9	1.259386E-11	NaN
66	1.000000	0.354966	7.36569e+06	-41939.1	955.819	-29785	0.000000	0.000000	6.354890	-0.009532	NaN	0.000000	0.001560	0.001714	28.1061	0.064704	0.002037	31.7692	57.2257	-165.937	0.030821	0.353632	-0.733036	-0.734370	-0.009532	31.7692	-0.732811	-5.484167E+9	1.738053E-12	NaN
66	1.000000	0.362978	7.36569e+06	-41939.1	955.818	-29785	0.000000	0.000000	6.362900	-0.056640	NaN	0.000000	0.001573	0.001709	28.1061	0.067592	0.001959	34.5095	61.0588	-164.828	-0.019576	0.361676	-0.725024	-0.726326	-0.056640	34.5095	-0.723793	-4.132279E+9	1.370664E-11	NaN
66	1.000000	0.370972	7.36569e+06	-41939.1	955.819	-29785	0.000000	0.000000	6.370895	-0.036093	NaN	0.000000	0.001574	0.001697	28.1071	0.112175	0.002185	51.3298	-88.1685	-167.236	-0.051307	0.369659	-0.717030	-0.718342	-0.036093	51.3298	-0.716503	-3.286776E+9	1.098133E-11	NaN
66	1.000000	0.378980	7.36569e+06	-41939.1	955.818	-29785	0.000000	0.000000	6.378905	0.003163	NaN	0.000000	0.001558	0.001706	28.1065	0.032915	0.002074	15.8678	-139.148	-165.021	0.001254	0.377668	-0.709021	-0.710333	0.003163	15.8678	-0.709171	-2.610558E+9	-1.211498E-12	NaN
66	1.000000	0.386968	7.36569e+06	-41939.1	955.817	-29785	0.000000	0.000000	6.386891	-0.014044	NaN	0.000000	0.001594	0.001648	28.1074	0.070095	0.002012	34.8419	127.113	-166.984	0.007971	0.385675	-0.701034	-0.702327	-0.014044	34.8419	-0.700732	-2.002276E+9	7.014134E-12	NaN
66	1.000000	0.395005	7.36569e+06	-41939.1	955.818	-29785	0.000000	0.000000	6.394927	-0.066725	NaN	0.000000	0.001639	0.001646	28.108	0.077103	0.001900	40.5852	-152.752	-165.404	-0.040226	0.393655	-0.692997	-0.694347	-0.066725	40.5852	-0.691764	-1.510151E+9	4.418435E-11	NaN
66	1.000000	0.402979	7.36569e+06	-41939.1	955.819	-29785	0.000000	0.000000	6.402901	-0.066048	NaN	0.000000	0.001653	0.001664	28.1076	0.031574	0.002041	15.4678	-163.379	-163.451	-0.041449	0.401755	-0.685022	-0.686247	-0.066048	15.4678	-0.681820	-1.104309E+9	5.980948E-11	NaN
66	1.000000	0.410964	7.36569e+06	-41939.1	955.818	-29785	0.000000	0.000000	6.410887	-0.033943	NaN	0.000000	0.001636	0.001677	28.1074	0.059064	0.002190	26.97	137.917	-165.1	0.040392	0.409675	-0.677037	-0.678326	-0.033943	26.97	-0.676093	-9.220809E+8	3.681125E-11	NaN
66	1.000000	0.418992	7.36569e+06	-41939.1	955.818	-29785	0.000000	0.000000	6.418915	-0.030998	NaN	0.000000	0.001593	0.001658	28.1077	0.149733	0.002058	72.7484	-132.327	-164.258	-0.011276	0.417644	-0.669010	-0.670357	-0.030998	72.7484	-0.668691	-7.302430E+8	4.244946E-11	NaN
66	1.000000	0.426993	7.36569e+06	-41939.1	955.819	-29785	0.000000	0.000000	6.426916	-0.034379	NaN	0.000000	0.001626	0.001670	28.1065	0.043170	0.001986	21.7357	-153.396	-164.968	-0.046809	0.425705	-0.661009	-0.662297	-0.034379	21.7357	-0.659823	-5.521286E+8	6.226650E-11	NaN
66	1.000000	0.435005	7.36569e+06	-41939.1	955.819	-29785	0.000000	0.000000	6.434929	0.000582	NaN	0.000000	0.001631	0.001649	28.1066	0.055672	0.001957	28.4491	22.1837	-164.047	0.018999	0.433709	-0.652997	-0.654293	0.000582	28.4491	-0.653012	-4.453772E+8	-1.307498E-12	NaN
66	1.000000	0.442981	7.36569e+06	-41939.1	955.818	-29785	0.000000	0.000000	6.442908	0.053232	NaN	0.000000	0.001631	0.001675	28.107	0.099502	0.002124	46.8428	125.115	-165.952	0.019279	0.441675	-0.645020	-0.646327	0.053232	46.8428	-0.645873	-3.555059E+8	-1.497373E-10	NaN
66	1.000000	0.451007	7.36569e+06	-41939.1	955.818	-29785	0.000000	0.000000	6.450930	-0.025989	NaN	0.000000	0.001635	0.001691	28.1067	0.063250	0.002113	29.9381	143.705	-164.489	-0.048846	0.449649	-0.636995	-0.638352	-0.025989	29.9381	-0.636344	-2.630977E+8	9.877911E-11	NaN
66	1.000000	0.458986	7.36569e+06	-41939.1	955.818	-29785	0.000000	0.000000	6.458911	0.002770	NaN	0.000000	0.001613	0.001684	28.1069	0.033524	0.001976	16.9633	-38.0761	-168.801	0.058865	0.457635	-0.629016	-0.630367	0.002770	16.9633	-0.629138	-2.095008E+8	-1.322261E-11	NaN
66	1.000000	0.467017	7.36569e+06	-41939.1	955.818	-29785	0.000000	0.000000	6.466944	0.061694	NaN	0.000000	0.001615	0.001708	28.1081	0.099662	0.002028	49.1354	84.2649	-166.671	0.038693	0.465691	-0.620985	-0.622311	0.061694	49.1354	-0.621926	-1.667660E+8	-3.699438E-10	NaN
66	1.000000	0.475014	7.36569e+06	-41939.1	955.819	-29785	0.000000	0.000000	6.474940	0.046846	NaN	0.000000	0.001650	0.001684	28.108	0.178605	0.002009	88.9193	-144.089	-167.611	0.058199	0.473700	-0.612988	-0.614302	0.046846	88.9193	-0.613383	-1.272490E+8	-3.681422E-10	NaN
66	1.000000	0.483021	7.36569e+06	-41939.1	955.819	-29785	0.000000	0.000000	6.482945	0.013969	NaN	0.000000	0.001610	0.001667	28.108	0.081940	0.001918	42.7199	135.888	-164.279	0.053613	0.481717	-0.604981	-0.606285	0.013969	42.7199	-0.605226	-9.827007E+7	-1.421458E-10	NaN
66	1.000000	0.491003	7.36569e+06	-41939.1	955.817	-29785	0.000000	0.000000	6.490928	0.027567	NaN	0.000000	0.001587	0.001680	28.1068	0.067818	0.001993	34.0253	-167.029	-165.709	0.062985	0.489712	-0.596999	-0.598290	0.027567	34.0253	-0.597607	-7.717848E+7	-3.571860E-10	NaN
66	1.000000	0.499038	7.36569e+06	-41939.1	955.818	-29785	0.000000	0.000000	6.498963	0.002282	NaN	0.000000	0.001595	0.001677	28.1073	0.052550	0.002003	26.2373	123.28	-163.8	0.013880	0.497706	-0.588964	-0.590296	0.002282	26.2373	-0.589029	-5.878626E+7	-3.881375E-11	NaN
66	1.000000	0.507006	7.36569e+06	-41939.1	955.818	-29785	0.000000	0.000000	6.506929	-0.030713	NaN	0.000000	0.001575	0.001658	28.1066	0.017298	0.002032	8.514171	107.369	-165.527	-0.064616	0.505691	-0.580995	-0.582311	-0.030713	8.514171	-0.578290	-4.179482E+7	7.348541E-10	NaN
66	1.000000	0.515040	7.36569e+06	-41939.1	955.818	-29785	0.000000	0.000000	6.514964	-0.009150	NaN	0.000000	0.001572	0.001655	28.1067	0.100934	0.001901	53.0835	163.75	-164.874	0.017064	0.513742	-0.572962	-0.574259	-0.009150	53.0835	-0.572832	-3.513664E+7	2.604047E-10	NaN
66	1.000000	0.523010	7.36569e+06	-41939.1	955.818	-29785	0.000000	0.000000	6.522936	0.051928	NaN	0.000000	0.001629	0.001660	28.1062	0.068449	0.002078	32.9362	124.362	-167.464	0.008917	0.521690	-0.564992	-0.566312	0.051928	32.9362	-0.566175	-2.842918E+7	-1.826591E-9	NaN
66	1.000000	0.531045	7.36569e+06	-41939.1	955.818	-29785	0.000000	0.000000	6.530970	0.017759	NaN	0.000000	0.001631	0.001635	28.1056	0.074471	0.002145	34.7182	-114.904	-166.43	0.037260	0.529730	-0.556957	-0.558272	0.017759	34.7182	-0.557340	-2.145749E+7	-8.276409E-10	NaN
66	1.000000	0.539012	7.36569e+06	-41939.1	955.818	-29785	0.000000	0.000000	6.538938	0.039280	NaN	0.000000	0.001622	0.001689	28.1061	0.077163	0.001980	38.9695	13.1469	-169.527	0.051742	0.537640	-0.548989	-0.550362	0.039280	38.9695	-0.549745	-1.684330E+7	-2.332091E-9	NaN
66	1.000000	0.547075	7.36569e+06	-41939.1	955.818	-29785	0.000000	0.000000	6.546997	-0.058347	NaN	0.000000	0.001654	0.001668	28.107	0.047430	0.001975	24.0169	-120.796	-166.796	-0.016214	0.545738	-0.540926	-0.542264	-0.058347	24.0169	-0.539104	-1.199318E+7	4.864980E-9	NaN
66	1.000000	0.555028	7.36569e+06	-41939.1	955.819	-29785	0.000000	0.000000	6.554953	0.014538	NaN	0.000000	0.001584	0.001663	28.1071	0.077036	0.002094	36.7911	174.334	-167.874	0.056043	0.553751	-0.532974	-0.534250	0.014538	36.7911	-0.533270	-9.95352e+06	-1.460616E-9	NaN
66	1.000000	0.563053	7.36569e+06	-41939.1	955.818	-29785	0.000000	0.000000	6.562976	-0.046349	NaN	0.000000	0.001549	0.001747	28.1075	0.088575	0.002019	43.8689	132.459	-168.438	0.002611	0.561750	-0.524949	-0.526252	-0.046349	43.8689	-0.524156	-7.43674e+06	6.232425E-9	NaN
66	1.000000	0.571059	7.36569e+06	-41939.1	955.818	-29785	0.000000	0.000000	6.570984	0.016938	NaN	0.000000	0.001576	0.001717	28.106	0.049708	0.002066	24.0583	-117.29	-167.343	0.061914	0.569779	-0.516943	-0.518223	0.016938	24.0583	-0.517471	-6.00361e+06	-2.821270E-9	NaN
66	1.000000	0.579059	7.36569e+06	-41939.1	955.818	-29785	0.000000	0.000000	6.578982	-0.020215	NaN	0.000000	0.001512	0.001696	28.1072	0.108539	0.002013	53.9151	161.268	-165.401	-0.102175	0.577729	-0.508943	-0.510273	-0.020215	53.9151	-0.508662	-4.52659e+06	4.465855E-9	NaN
66	1.000000	0.587066	7.36569e+06	-41939.1	955.82	-29785	0.000000	0.000000	6.586990	-0.021491	NaN	0.000000	0.001584	0.001629	28.1065	0.184706	0.002063	89.5532	136.159	-165	-0.071221	0.585763	-0.500936	-0.502239	-0.021491	89.5532	-0.500756	-3.51204e+06	6.119347E-9	NaN
66	1.000000	0.595087	7.36569e+06	-41939.1	955.818	-29785	0.000000	0.000000	6.595010	-0.039627	NaN	0.000000	0.001576	0.001688	28.1065	0.063058	0.001971	31.9964	-168.744	-165.01	-0.008530	0.593743	-0.492914	-0.494259	-0.039627	31.9964	-0.491985	-2.64931e+06	1.495753E-8	NaN
66	1.000000	0.603069	7.36569e+06	-41939.1	955.818	-29785.1	0.000000	0.000000	6.602992	-0.025240	NaN	0.000000	0.001554	0.001709	28.1066	0.145447	0.001939	74.9954	176.074	-165.755	-0.103567	0.601745	-0.484933	-0.486257	-0.025240	74.9954	-0.484680	-2.0942e+06	1.205236E-8	NaN
66	1.000000	0.611069	7.36569e+06	-41939.1	955.819	-29785.1	0.000000	0.000000	6.610993	0.002549	NaN	0.000000	0.001626	0.001662	28.1065	0.097056	0.002018	48.0895	-94.8751	-162.257	0.071313	0.609732	-0.476933	-0.478270	0.002549	48.0895	-0.476973	-1.63357e+06	-1.560283E-9	NaN
66	1.000000	0.619048	7.36569e+06	-41939.1	955.817	-29785	0.000000	0.000000	6.618970	-0.049277	NaN	0.000000	0.001568	0.001693	28.1074	0.044110	0.002042	21.6024	39.7329	-164.98	-0.020769	0.617680	-0.468954	-0.470322	-0.049277	21.6024	-0.467243	-1.19326e+06	4.129628E-8	NaN
66	1.000000	0.627073	7.36569e+06	-41939.1	955.818	-29785.1	0.000000	0.000000	6.626997	-0.019640	NaN	0.000000	0.001556	0.001693	28.1086	0.095846	0.001938	49.4586	-82.0123	-167.175	0.018402	0.625756	-0.460928	-0.462246	-0.019640	49.4586	-0.460631	-963560	2.038301E-8	NaN
66	1.000000	0.635078	7.36569e+06	-41939.1	955.818	-29785.1	0.000000	0.000000	6.635003	0.011886	NaN	0.000000	0.001550	0.001677	28.1091	0.078078	0.002015	38.7554	-152.904	-165.89	-0.037322	0.633754	-0.452924	-0.454248	0.011886	38.7554	-0.453154	-756381	-1.571378E-8	NaN
66	1.000000	0.643061	7.36569e+06	-41939.1	955.818	-29785.1	0.000000	0.000000	6.642984	-0.025086	NaN	0.000000	0.001541	0.001687	28.1089	0.074098	0.001919	38.6163	-64.4131	-161.828	-0.048335	0.641755	-0.444941	-0.446246	-0.025086	38.6163	-0.444453	-570408	4.397851E-8	NaN
66	1.000000	0.651094	7.36569e+06	-41939.1	955.818	-29785.1	0.000000	0.000000	6.651017	-0.021412	NaN	0.000000	0.001577	0.001659	28.1088	0.075022	0.002029	36.9715	175.396	-165.195	-0.018308	0.649761	-0.436908	-0.438241	-0.021412	36.9715	-0.436474	-440124	4.864920E-8	NaN
66	1.000000	0.659081	7.36569e+06	-41939.1	955.818	-29785.1	0.000000	0.000000	6.659002	-0.075028	NaN	0.000000	0.001576	0.001656	28.1086	0.087056	0.002004	43.4478	103.14	-168.755	-0.135386	0.657813	-0.428921	-0.430189	-0.075028	43.4478	-0.427626	-329962	2.273829E-7	NaN
66	1.000000	0.667093	7.36569e+06	-41939.1	955.818	-29785.1	0.000000	0.000000	6.667013	-0.090599	NaN	0.000000	0.001578	0.001640	28.108	0.078926	0.002027	38.9445	-136.14	-166.107	0.045452	0.665758	-0.420909	-0.422244	-0.090599	38.9445	-0.419164	-250357	3.618779E-7	NaN
66	1.000000	0.675090	7.36569e+06	-41939.1	955.818	-29785.1	0.000000	0.000000	6.675013	-0.023735	NaN	0.000000	0.001599	0.001661	28.1083	0.120665	0.002140	56.3907	-115.245	-163.306	-0.054141	0.673789	-0.412912	-0.414213	-0.023735	56.3907	-0.412596	-201978	1.175113E-7	NaN
66	1.000000	0.683095	7.36569e+06	-41939.1	955.819	-29785.1	0.000000	0.000000	6.683019	-0.021017	NaN	0.000000	0.001554	0.001695	28.108	0.042618	0.002068	20.6041	-78.1145	-162.671	-0.113588	0.681751	-0.404906	-0.406250	-0.021017	20.6041	-0.404141	-153115	1.372645E-7	NaN
66	1.000000	0.691096	7.36569e+06	-41939.1	955.817	-29785.1	0.000000	0.000000	6.691020	-0.033014	NaN	0.000000	0.001552	0.001684	28.1079	0.041861	0.001916	21.8428	30.3298	-165.403	0.033423	0.689787	-0.396905	-0.398215	-0.033014	21.8428	-0.395772	-116320	2.838237E-7	NaN
66	1.000000	0.699085	7.36569e+06	-41939.1	955.819	-29785.1	0.000000	0.000000	6.699009	0.009272	NaN	0.000000	0.001553	0.001683	28.1075	0.047843	0.001928	24.8174	125.535	-166.158	-0.074081	0.697790	-0.388917	-0.390212	0.009272	24.8174	-0.389197	-93687.6	-9.896927E-8	NaN
66	1.000000	0.707157	7.36569e+06	-41939.1	955.817	-29785.1	0.000000	0.000000	6.707082	0.019077	NaN	0.000000	0.001525	0.001676	28.1089	0.076576	0.001938	39.5169	166.908	-167.263	-0.002405	0.705766	-0.380845	-0.382236	0.019077	39.5169	-0.381207	-71979.3	-2.650316E-7	NaN
66	1.000000	0.715127	7.36569e+06	-41939.1	955.818	-29785.1	0.000000	0.000000	6.715053	0.049479	NaN	0.000000	0.001561	0.001656	28.109	0.118280	0.001916	61.7364	-66.1923	-164.912	0.036496	0.713845	-0.372875	-0.374157	0.049479	61.7364	-0.373476	-55739.1	-8.876852E-7	NaN
66	1.000000	0.723144	7.36569e+06	-41939.1	955.818	-29785.1	0.000000	0.000000	6.723068	-0.023349	NaN	0.000000	0.001528	0.001676	28.1094	0.108702	0.002023	53.7336	35.3436	-163.586	-0.001129	0.721863	-0.364857	-0.366139	-0.023349	53.7336	-0.364531	-41427.7	5.636091E-7	NaN
66	1.000000	0.731087	7.36569e+06	-41939.1	955.819	-29785.1	0.000000	0.000000	6.731013	0.028311	NaN	0.000000	0.001562	0.001660	28.1095	0.018470	0.002076	8.898056	-97.6114	-163.037	0.021992	0.729814	-0.356914	-0.358188	0.028311	8.898056	-0.359301	-34812.5	-8.132489E-7	NaN
66	1.000000	0.739140	7.36569e+06	-41939.1	955.819	-29785.1	0.000000	0.000000	6.739064	-0.001641	NaN	0.000000	0.001569	0.001644	28.1093	0.026777	0.002075	12.904	28.6785	-164.88	-0.079171	0.737805	-0.348862	-0.350197	-0.001641	12.904	-0.348766	-24495.7	6.699356E-8	NaN
66	1.000000	0.747129	7.36569e+06	-41939.1	955.818	-29785.1	0.000000	0.000000	6.747053	-0.016560	NaN	0.000000	0.001494	0.001663	28.1084	0.045594	0.001972	23.1174	-103.061	-165.807	0.013603	0.745770	-0.340872	-0.342232	-0.016560	23.1174	-0.340335	-18468.8	8.966405E-7	NaN
66	1.000000	0.755122	7.36569e+06	-41939.1	955.817	-29785.1	0.000000	0.000000	6.755044	-0.059899	NaN	0.000000	0.001559	0.001683	28.1087	0.055413	0.001942	28.5294	169.32	-165.217	-0.012362	0.753881	-0.332880	-0.334121	-0.059899	28.5294	-0.331305	-13631.9	4.394059E-6	NaN
66	1.000000	0.763119	7.36569e+06	-41939.1	955.818	-29785.1	0.000000	0.000000	6.763042	-0.044943	NaN	0.000000	0.001548	0.001684	28.1075	0.045321	0.001983	22.858	100.4	-165.535	-0.013697	0.761808	-0.324882	-0.326194	-0.044943	22.858	-0.323408	-10441.2	4.304376E-6	NaN
66	1.000000	0.771128	7.36569e+06	-41939.1	955.817	-29785.1	0.000000	0.000000	6.771052	-0.015109	NaN	0.000000	0.001530	0.001673	28.1069	0.064903	0.001924	33.7266	-126.238	-165.438	-0.062495	0.769795	-0.316874	-0.318207	-0.015109	33.7266	-0.316538	-8272.4	1.826404E-6	NaN
66	1.000000	0.779128	7.36569e+06	-41939.1	955.819	-29785.1	0.000000	0.000000	6.779055	0.044125	NaN	0.000000	0.001535	0.001721	28.1081	0.077287	0.001873	41.2531	44.1346	-167.1	-0.020196	0.777830	-0.308873	-0.310171	0.044125	41.2531	-0.309675	-6550.17	-6.736434E-6	NaN
66	1.000000	0.787151	7.36569e+06	-41939.1	955.818	-29785.1	0.000000	0.000000	6.787074	-0.036946	NaN	0.000000	0.001518	0.001731	28.1087	0.024199	0.002136	11.3309	67.3504	-164.65	-0.056708	0.785822	-0.300851	-0.302180	-0.036946	11.3309	-0.298405	-4455.38	8.292427E-6	NaN
66	1.000000	0.795118	7.36569e+06	-41939.1	955.818	-29785.1	0.000000	0.000000	6.795043	0.004205	NaN	0.000000	0.001529	0.001728	28.1086	0.109112	0.002073	52.6388	49.9398	-166.054	-0.014243	0.793837	-0.292884	-0.294165	0.004205	52.6388	-0.292944	-3692.83	-1.138817E-6	NaN
66	1.000000	0.803149	7.36569e+06	-41939.1	955.818	-29785.1	0.000000	0.000000	6.803074	0.018858	NaN	0.000000	0.001522	0.001697	28.1086	0.077149	0.002058	37.4784	123.589	-166.214	-0.053733	0.801862	-0.284853	-0.286140	0.018858	37.4784	-0.285231	-2829.65	-6.664326E-6	NaN
66	1.000000	0.811133	7.36569e+06	-41939.1	955.817	-29785.1	0.000000	0.000000	6.811057	0.005742	NaN	0.000000	0.001524	0.001696	28.1084	0.066523	0.001998	33.3006	-106.083	-163.843	-0.034656	0.809811	-0.276869	-0.278191	0.005742	33.3006	-0.276998	-2126.35	-2.700571E-6	NaN
66	1.000000	0.819133	7.36569e+06	-41939.1	955.818	-29785.1	0.000000	0.000000	6.819056	-0.029095	NaN	0.000000	0.001539	0.001700	28.1089	0.099027	0.002021	49.0048	-11.1965	-164.439	0.049821	0.817803	-0.268869	-0.270198	-0.029095	49.0048	-0.268424	-1576.05	1.846043E-5	NaN
66	1.000000	0.827158	7.36569e+06	-41939.1	955.818	-29785.1	0.000000	0.000000	6.827083	0.011649	NaN	0.000000	0.001586	0.001708	28.1093	0.017278	0.002159	8.003787	8.363227	-160.888	0.011130	0.825838	-0.260844	-0.262164	0.011649	8.003787	-0.261936	-1254.76	-9.284040E-6	NaN
66	1.000000	0.835130	7.36569e+06	-41939.1	955.818	-29785.1	0.000000	0.000000	6.835055	0.015836	NaN	0.000000	0.001568	0.001693	28.1075	0.104277	0.002076	50.2412	-49.2109	-165.327	0.014816	0.833905	-0.252872	-0.254097	0.015836	50.2412	-0.253108	-918.265	-1.724525E-5	NaN
66	1.000000	0.843170	7.36569e+06	-41939.1	955.818	-29785.1	0.000000	0.000000	6.843095	0.011395	NaN	0.000000	0.001565	0.001694	28.1075	0.111471	0.001939	57.4747	57.5849	-167.43	-0.039004	0.841862	-0.244831	-0.246140	0.011395	57.4747	-0.244980	-687.292	-1.658009E-5	NaN
66	1.000000	0.851166	7.36569e+06	-41939.1	955.818	-29785.1	0.000000	0.000000	6.851091	0.023522	NaN	0.000000	0.001554	0.001660	28.1074	0.038776	0.001937	20.0188	-41.2201	-163.264	0.036487	0.849869	-0.236836	-0.238133	0.023522	20.0188	-0.237717	-529.484	-4.442469E-5	NaN
66	1.000000	0.859203	7.36569e+06	-41939.1	955.819	-29785.1	0.000000	0.000000	6.859127	-0.008805	NaN	0.000000	0.001594	0.001657	28.1077	0.110931	0.002004	55.353	168.185	-166.709	-0.030796	0.857858	-0.228798	-0.230143	-0.008805	55.353	-0.228679	-381.631	2.307239E-5	NaN
66	1.000000	0.867188	7.36569e+06	-41939.1	955.818	-29785.1	0.000000	0.000000	6.867114	0.037426	NaN	0.000000	0.001561	0.001670	28.1095	0.036004	0.002013	17.8885	-172.378	-163.409	-0.072463	0.865896	-0.220814	-0.222106	0.037426	17.8885	-0.222383	-303.182	-0.000123	NaN
66	1.000000	0.875166	7.36569e+06	-41939.1	955.818	-29785.1	0.000000	0.000000	6.875088	-0.049140	NaN	0.000000	0.001560	0.001699	28.1093	0.071588	0.001870	38.2878	-66.606	-166.656	-0.024568	0.873834	-0.212836	-0.214168	-0.049140	38.2878	-0.211873	-205.645	0.000239	NaN
66	1.000000	0.883173	7.36569e+06	-41939.1	955.819	-29785.1	0.000000	0.000000	6.883096	-0.025399	NaN	0.000000	0.001561	0.001686	28.1095	0.029855	0.001988	15.0195	-134.881	-165.032	-0.096050	0.881856	-0.204829	-0.206146	-0.025399	15.0195	-0.203560	-150.679	0.000169	NaN
66	1.000000	0.891155	7.36569e+06	-41939.1	955.818	-29785.1	0.000000	0.000000	6.891079	-0.001154	NaN	0.000000	0.001577	0.001711	28.1094	0.108159	0.001828	59.1536	-98.7241	-165.571	0.033799	0.889880	-0.196847	-0.198121	-0.001154	59.1536	-0.196832	-116.819	9.876511E-6	NaN
66	1.000000	0.899189	7.36569e+06	-41939.1	955.818	-29785.1	0.000000	0.000000	6.899116	0.067889	NaN	0.000000	0.001672	0.001669	28.1099	0.118638	0.001983	59.8377	44.5985	-165.093	0.023054	0.897855	-0.188813	-0.190147	0.067889	59.8377	-0.189664	-88.7998	-0.000765	NaN
66	1.000000	0.907189	7.36569e+06	-41939.1	955.817	-29785.1	0.000000	0.000000	6.907117	0.076938	NaN	0.000000	0.001622	0.001661	28.1093	0.055093	0.002075	26.5525	152.862	-167.646	0.000717	0.905892	-0.180812	-0.182110	0.076938	26.5525	-0.182985	-68.5669	-0.001122	NaN
66	1.000000	0.915185	7.36569e+06	-41939.1	955.818	-29785.1	0.000000	0.000000	6.915108	-0.043605	NaN	0.000000	0.001585	0.001718	28.1093	0.102413	0.002136	47.9546	104.04	-167.361	-0.038852	0.913847	-0.172816	-0.174155	-0.043605	47.9546	-0.172134	-44.7291	0.000975	NaN
66	1.000000	0.923164	7.36569e+06	-41939.1	955.818	-29785.1	0.000000	0.000000	6.923088	0.004866	NaN	0.000000	0.001559	0.001654	28.1094	0.046370	0.002033	22.8044	84.4166	-164.081	-0.040118	0.921871	-0.164838	-0.166131	0.004866	22.8044	-0.164998	-33.5946	-0.000145	NaN
66	1.000000	0.931210	7.36569e+06	-41939.1	955.819	-29785.1	0.000000	0.000000	6.931133	-0.034589	NaN	0.000000	0.001577	0.001665	28.11	0.031030	0.002071	14.9852	120.682	-171.179	-0.003205	0.929917	-0.156791	-0.158085	-0.034589	14.9852	-0.155060	-22.3698	0.001546	NaN
66	1.000000	0.939211	7.36569e+06	-41939.1	955.818	-29785.1	0.000000	0.000000	6.939136	0.009701	NaN	0.000000	0.001549	0.001683	28.1099	0.055211	0.001955	28.2419	-71.6693	-168.434	0.036006	0.937922	-0.148791	-0.150080	0.009701	28.2419	-0.149049	-17.4032	-0.000557	NaN
66	1.000000	0.947214	7.36569e+06	-41939.1	955.818	-29785.1	0.000000	0.000000	6.947137	-0.027958	NaN	0.000000	0.001563	0.001699	28.1106	0.026651	0.001993	13.3727	-128.622	-167.894	0.024115	0.945925	-0.140787	-0.142077	-0.027958	13.3727	-0.139219	-11.4363	0.002445	NaN
66	1.000000	0.955188	7.36569e+06	-41939.1	955.818	-29785.1	0.000000	0.000000	6.955110	-0.071422	NaN	0.000000	0.001567	0.001734	28.1109	0.032835	0.002027	16.201	28.5332	-170.011	-0.001592	0.953952	-0.132814	-0.134050	-0.071422	16.201	-0.129507	-7.454732	0.009581	NaN
66	1.000000	0.963233	7.36569e+06	-41939.1	955.819	-29785.1	0.000000	0.000000	6.963158	0.010976	NaN	0.000000	0.001580	0.001691	28.1112	0.121923	0.001970	61.8805	92.6978	-165.501	-0.055658	0.961893	-0.124769	-0.126109	0.010976	61.8805	-0.124902	-6.054166	-0.001813	NaN
66	1.000000	0.971228	7.36569e+06	-41939.1	955.818	-29785.1	0.000000	0.000000	6.971152	-0.011945	NaN	0.000000	0.001557	0.001721	28.1113	0.050622	0.002038	24.8451	43.6832	-167.417	-0.020792	0.969905	-0.116774	-0.118096	-0.011945	24.8451	-0.116413	-4.084573	0.002924	NaN
66	1.000000	0.979233	7.36569e+06	-41939.1	955.819	-29785.1	0.000000	0.000000	6.979155	-0.068888	NaN	0.000000	0.001568	0.001690	28.111	0.137234	0.001967	69.7517	-5.418772	-164.888	-0.062438	0.977913	-0.108768	-0.110089	-0.068888	69.7517	-0.108028	-2.729550	0.025238	NaN
66	1.000000	0.987223	7.36569e+06	-41939.1	955.819	-29785.1	0.000000	0.000000	6.987146	-0.037056	NaN	0.000000	0.001559	0.001660	28.1099	0.109394	0.002007	54.5027	-109.327	-164.98	-0.019437	0.985891	-0.100778	-0.102111	-0.037056	54.5027	-0.100268	-1.852327	0.020005	NaN
66	1.000000	0.995223	7.36569e+06	-41939.1	955.819	-29785.1	0.000000	0.000000	6.995147	-0.017425	NaN	0.000000	0.001584	0.001707	28.1101	0.061790	0.001982	31.1773	-160.645	-166.091	-0.046534	0.993899	-0.092778	-0.094102	-0.017425	31.1773	-0.092359	-1.226823	0.014203	NaN
66	1.000000	1.003213	7.36569e+06	-41939.1	955.819	-29785.1	0.000000	0.000000	7.003134	-0.081899	NaN	0.000000	0.001568	0.001670	28.1101	0.092558	0.001955	47.3413	-157.576	-164.065	0.015652	1.001914	-0.084789	-0.086088	-0.081899	47.3413	-0.083491	-0.755076	0.108465	NaN
66	1.000000	1.011227	7.36569e+06	-41939.1	955.818	-29785.1	0.000000	0.000000	7.011153	0.025147	NaN	0.000000	0.001646	0.001673	28.1109	0.060349	0.001984	30.4254	-35.4757	-168.537	0.038020	1.009942	-0.076774	-0.078060	0.025147	30.4254	-0.077394	-0.532055	-0.047264	NaN
66	1.000000	1.019234	7.36569e+06	-41939.1	955.818	-29785.1	0.000000	0.000000	7.019156	-0.054671	NaN	0.000000	0.001637	0.001678	28.11	0.148447	0.002078	71.4517	85.4951	-164.674	-0.028921	1.017942	-0.068768	-0.070059	-0.054671	71.4517	-0.068194	-0.304938	0.179285	NaN
66	1.000000	1.027208	7.36569e+06	-41939.1	955.819	-29785.1	0.000000	0.000000	7.027133	-0.006625	NaN	0.000000	0.001627	0.001679	28.1116	0.066849	0.001966	33.9976	81.5316	-166.145	0.008327	1.025906	-0.060793	-0.062096	-0.006625	33.9976	-0.060647	-0.187941	0.035249	NaN
66	1.000000	1.035218	7.36569e+06	-41939.1	955.82	-29785.1	0.000000	0.000000	7.035142	-0.031341	NaN	0.000000	0.001672	0.001695	28.1106	0.035083	0.001993	17.5997	-163.667	-163.929	-0.046823	1.033955	-0.052783	-0.054047	-0.031341	17.5997	-0.051448	-0.100901	0.310612	NaN
66	1.000000	1.043259	7.36569e+06	-41939.1	955.819	-29785.1	0.000000	0.000000	7.043182	-0.039979	NaN	0.000000	0.001633	0.001688	28.1101	0.048009	0.002016	23.8096	132.453	-166.914	-0.057704	1.041968	-0.044743	-0.046034	-0.039979	23.8096	-0.043484	-0.057758	0.692181	NaN
66	1.000000	1.051221	7.36569e+06	-41939.1	955.819	-29785.1	0.000000	0.000000	7.051147	0.024597	NaN	0.000000	0.001634	0.001690	28.1116	0.112970	0.001994	56.6568	-14.0613	-164.69	0.083862	1.049986	-0.036780	-0.038015	0.024597	56.6568	-0.037106	-0.036985	-0.665049	NaN
66	1.000000	1.059250	7.36569e+06	-41939.1	955.819	-29785.1	0.000000	0.000000	7.059171	-0.093840	NaN	0.000000	0.001648	0.001687	28.111	0.058413	0.002045	28.57	-174.021	-165.236	-0.039862	1.057958	-0.028752	-0.030044	-0.093840	28.57	-0.026288	-0.018240	5.144617	NaN
66	1.000000	1.067266	7.36569e+06	-41939.1	955.819	-29785.1	0.000000	0.000000	7.067188	-0.080881	NaN	0.000000	0.001616	0.001694	28.1093	0.035968	0.001890	19.032	-76.7859	-165.062	-0.015952	1.065960	-0.020735	-0.022042	-0.080881	19.032	-0.017548	-0.010864	7.444553	NaN
66	1.000000	1.075246	7.3657e+06	-41939.1	955.819	-29785.1	0.000000	0.000000	7.075170	-0.006698	NaN	0.000000	0.001646	0.001682	28.1089	0.089221	0.002074	43.0238	132.427	-167.347	-0.059903	1.073910	-0.012755	-0.014092	-0.006698	43.0238	-0.012639	-0.007894	0.848461	NaN
66	1.000000	1.083226	7.3657e+06	-41939.1	955.819	-29785.1	0.000000	0.000000	7.083149	-0.026567	NaN	0.000000	0.001628	0.001673	28.1095	0.024531	0.001993	12.3108	105.322	-166.441	-0.115814	1.081940	-0.004776	-0.006062	-0.026567	12.3108	-0.003157	-0.002226	11.9371	NaN
66	1.000000	1.091218	7.3657e+06	-41939.1	955.82	-29785.1	0.000000	0.000000	7.091285	3.454733	NaN	0.000000	0.001639	0.001691	28.1092	4.313266	0.001809	2384.07	7.492627	-169.095	1.494886	1.089959	0.003216	0.001957	3.454733	2384.07	0.002130	0.001660	2081.25	53462.3
66	2.000000	1.095952	7.3657e+06	-41939.1	955.819	-29785.1	0.000000	0.000000	7.096285	9.940019	NaN	0.000000	0.001638	0.001702	28.1094	9.549954	0.001598	5977.35	8.228013	-173.004	9.891367	1.095677	0.007950	0.007675	9.940019	5977.35	0.006703	0.005742	1731.1	72069.2
66	2.000000	1.097979	7.3657e+06	-41939.1	955.819	-29785.1	0.000000	0.000000	7.098474	13.8861	NaN	0.000000	0.001648	0.001701	28.1114	12.5397	0.001697	7389.07	13.2885	-179.449	13.6253	1.097619	0.009977	0.009617	13.8861	7389.07	0.008568	0.007633	1819.21	77270.6
66	2.000000	1.099943	7.3657e+06	-41939.1	955.82	-29785.1	0.000000	0.000000	7.100566	17.0111	NaN	0.000000	0.001612	0.001683	28.1108	14.1385	0.001640	8622	7.393954	-176.342	17.2931	1.099629	0.011941	0.011627	17.0111	8622	0.010461	0.009698	1753.99	79988.9
66	2.000000	1.101907	7.3657e+06	-41939.1	955.819	-29785.1	0.000000	0.000000	7.102651	19.9491	NaN	0.000000	0.001590	0.001682	28.1107	17.1223	0.001755	9757.32	9.368243	-179.469	18.9666	1.101609	0.013905	0.013607	19.9491	9757.32	0.012372	0.011939	1670.95	81587.6
66	2.000000	1.103848	7.3657e+06	-41939.1	955.819	-29785.1	0.000000	0.000000	7.104839	25.9579	NaN	0.000000	0.001565	0.001695	28.1109	18.7094	0.001670	11206	7.870212	179.98	24.3737	1.103594	0.015846	0.015592	25.9579	11206	0.014109	0.014116	1838.94	86173.3
66	2.000000	1.105858	7.3657e+06	-41939.1	955.819	-29785.1	0.000000	0.000000	7.106987	29.2943	NaN	0.000000	0.001593	0.001718	28.1106	20.9114	0.001791	11673.7	6.963955	-178.811	28.7565	1.105591	0.017857	0.017590	29.2943	11673.7	0.015975	0.016607	1763.98	82763.1
66	2.000000	1.107855	7.3657e+06	-41939.1	955.82	-29785.1	0.000000	0.000000	7.109274	36.3682	NaN	0.000000	0.001554	0.001708	28.1095	22.6367	0.001761	12856.8	3.267680	-175.481	34.1653	1.107598	0.019854	0.019596	36.3682	12856.8	0.017732	0.019103	1903.79	84987.1
66	2.000000	1.109855	7.3657e+06	-41939.1	955.819	-29785.1	0.000000	0.000000	7.111425	40.0504	NaN	0.000000	0.001558	0.001731	28.11	24.7734	0.001710	14488.9	6.441973	179.468	38.7116	1.109598	0.021853	0.021596	40.0504	14488.9	0.019780	0.022198	1804.25	88849.6
66	2.000000	1.111881	7.3657e+06	-41939.1	955.819	-29785.1	0.000000	0.000000	7.113682	45.6736	NaN	0.000000	0.001554	0.001744	28.1098	27.006	0.001670	16171.7	2.615807	-178.549	45.5628	1.111619	0.023879	0.023618	45.6736	16171.7	0.021761	0.025385	1799.24	92734.5
66	2.000000	1.113871	7.3657e+06	-41939.1	955.819	-29785.1	0.000000	0.000000	7.115968	52.8715	NaN	0.000000	0.001568	0.001728	28.1101	28.4647	0.001639	17364.1	7.008337	177.495	53.0441	1.113570	0.025869	0.025569	52.8715	17364.1	0.023585	0.028492	1855.67	93986.1
66	2.000000	1.115823	7.3657e+06	-41939.1	955.82	-29785.1	0.000000	0.000000	7.118184	59.2986	NaN	0.000000	0.001583	0.001730	28.1107	31.2842	0.001760	17776.1	5.577498	178.031	57.7241	1.115526	0.027821	0.027524	59.2986	17776.1	0.025319	0.031598	1876.63	91364.4
66	2.000000	1.117822	7.3657e+06	-41939.1	955.819	-29785.1	0.000000	0.000000	7.120569	68.6825	NaN	0.000000	0.001592	0.001758	28.1134	32.6748	0.001643	19884.1	2.660648	-179.442	66.3	1.117513	0.029821	0.029511	68.6825	19884.1	0.027230	0.035198	1951.32	96832.4
66	2.000000	1.119821	7.3657e+06	-41939.1	955.819	-29785.1	0.000000	0.000000	7.122689	71.6339	NaN	0.000000	0.001567	0.001741	28.1121	34.7116	0.001826	19010.3	3.768120	-179.472	70.7883	1.119562	0.031819	0.031560	71.6339	19010.3	0.028993	0.038682	1851.88	88309.8
66	2.000000	1.121808	7.3657e+06	-41939.1	955.818	-29785.1	0.000000	0.000000	7.125009	79.728	NaN	0.000000	0.001572	0.001714	28.1121	37.8318	0.001801	21005.5	8.485291	174.017	78.0254	1.121553	0.033807	0.033551	79.728	21005.5	0.030960	0.042757	1864.68	92811.8
66	2.000000	1.123826	7.3657e+06	-41939.1	955.818	-29785.1	0.000000	0.000000	7.127463	90.3412	NaN	0.000000	0.001603	0.001771	28.1123	38.3822	0.001808	21232.2	6.079982	177.118	88.9814	1.123485	0.035824	0.035483	90.3412	21232.2	0.032633	0.046378	1947.95	90077.1
66	2.000000	1.125791	7.3657e+06	-41939.1	955.818	-29785.1	0.000000	0.000000	7.129718	97.3896	NaN	0.000000	0.001597	0.001737	28.1128	41.5643	0.001818	22860.9	5.212134	176.867	96.1333	1.125524	0.037789	0.037523	97.3896	22860.9	0.034594	0.050806	1916.91	92664.1
66	2.000000	1.127876	7.3657e+06	-41939.1	955.819	-29785.1	0.000000	0.000000	7.132130	105.36	NaN	0.000000	0.001612	0.001737	28.1117	43.8132	0.001844	23757.2	6.012048	175.926	106.554	1.127446	0.039874	0.039444	105.36	23757.2	0.036548	0.055411	1901.43	92208.5
66	2.000000	1.129797	7.3657e+06	-41939.1	955.819	-29785.1	0.000000	0.000000	7.134444	114.904	NaN	0.000000	0.001580	0.001718	28.1112	44.7177	0.001738	25728.6	4.863122	176.216	113.824	1.129475	0.041795	0.041474	114.904	25728.6	0.038446	0.060074	1912.72	95906.4
66	2.000000	1.131766	7.3657e+06	-41939.1	955.819	-29785.1	0.000000	0.000000	7.136751	123.129	NaN	0.000000	0.001540	0.001720	28.1115	47.7354	0.001711	27904.2	3.623535	176.551	120.2	1.131508	0.043764	0.043506	123.129	27904.2	0.040455	0.065209	1888.23	99836.7
66	2.000000	1.133744	7.3657e+06	-41939.1	955.82	-29785.1	0.000000	0.000000	7.138964	128.851	NaN	0.000000	0.001547	0.001742	28.1115	48.704	0.001761	27650.5	2.756672	177.059	124.852	1.133466	0.045743	0.045465	128.851	27650.5	0.042248	0.069966	1841.61	95506
66	2.000000	1.135820	7.3657e+06	-41939.1	955.82	-29785.1	0.000000	0.000000	7.141559	141.468	NaN	0.000000	0.001574	0.001738	28.1118	51.3838	0.001834	28020	5.644648	175.799	142.105	1.135426	0.047818	0.047424	141.468	28020	0.044032	0.074862	1889.72	93564.4
66	2.000000	1.137834	7.3657e+06	-41939.1	955.82	-29785.1	0.000000	0.000000	7.144015	152.235	NaN	0.000000	0.001587	0.001727	28.1123	53.1228	0.001694	31365.1	3.815419	175.589	150.109	1.137488	0.049832	0.049487	152.235	31365.1	0.046192	0.081008	1879.27	100683
66	2.000000	1.139830	7.3657e+06	-41939.1	955.819	-29785.1	0.000000	0.000000	7.146382	161.269	NaN	0.000000	0.001561	0.001692	28.1124	55.3554	0.001783	31052.8	7.070714	172.573	161.496	1.139514	0.051828	0.051512	161.269	31052.8	0.047933	0.086132	1872.34	96669.8
66	2.000000	1.141759	7.3657e+06	-41939.1	955.82	-29785.1	0.000000	0.000000	7.148624	168.892	NaN	0.000000	0.001583	0.001705	28.1127	58.0936	0.001870	31070.8	5.313193	174.131	165.543	1.141549	0.053757	0.053547	168.892	31070.8	0.049680	0.091427	1847.29	93883.5
66	2.000000	1.143780	7.3657e+06	-41939.1	955.819	-29785.1	0.000000	0.000000	7.151114	180.291	NaN	0.000000	0.001598	0.001696	28.1127	59.1229	0.001823	32428.5	5.608892	173.804	178.901	1.143468	0.055779	0.055466	180.291	32428.5	0.051609	0.097451	1850.06	94908.7
66	2.000000	1.145762	7.3657e+06	-41939.1	955.82	-29785.1	0.000000	0.000000	7.153515	190.489	NaN	0.000000	0.001655	0.001699	28.1133	61.1642	0.001874	32645.5	5.093406	174.669	189.529	1.145476	0.057760	0.057474	190.489	32645.5	0.053384	0.103158	1846.57	92863.4
66	2.000000	1.147784	7.3657e+06	-41939.1	955.819	-29785.1	0.000000	0.000000	7.155898	199.278	NaN	0.000000	0.001631	0.001684	28.1108	63.0257	0.001790	35205	6.557571	172.284	197.363	1.147482	0.059782	0.059480	199.278	35205	0.055536	0.110291	1806.84	96851.8
66	2.000000	1.149824	7.3657e+06	-41939.1	955.82	-29785.1	0.000000	0.000000	7.158400	210.516	NaN	0.000000	0.001636	0.001676	28.1101	63.899	0.001657	38558.7	6.117709	172.256	210.053	1.149417	0.061822	0.061415	210.516	38558.7	0.057727	0.117785	1787.29	102648
66	2.000000	1.151839	7.3657e+06	-41939.1	955.819	-29785.1	0.000000	0.000000	7.160760	218.902	NaN	0.000000	0.001570	0.001652	28.1107	66.5474	0.001713	38843.7	3.634265	174.149	220.873	1.151514	0.063837	0.063512	218.902	38843.7	0.059611	0.124417	1759.43	100613
66	2.000000	1.153749	7.3657e+06	-41939.1	955.82	-29785.1	0.000000	0.000000	7.163645	242.614	NaN	0.000000	0.001524	0.001684	28.1108	67.5181	0.001657	40746.4	7.031660	170.568	239.968	1.153381	0.065748	0.065379	242.614	40746.4	0.061282	0.130446	1859.88	103074
66	2.000000	1.155824	7.3657e+06	-41939.1	955.82	-29785.1	0.000000	0.000000	7.165687	241.833	NaN	0.000000	0.001511	0.001696	28.1112	71.4823	0.001819	39298.5	5.788233	172.098	243.679	1.155394	0.067822	0.067392	241.833	39298.5	0.063207	0.137558	1758.05	96807
66	2.000000	1.157843	7.3657e+06	-41939.1	955.82	-29785.1	0.000000	0.000000	7.168507	261.326	NaN	0.000000	0.001564	0.001690	28.1114	71.8106	0.001706	42085.6	1.600180	176.391	263.762	1.157501	0.069841	0.069500	261.326	42085.6	0.065184	0.145050	1801.63	100960
66	2.000000	1.159800	7.3657e+06	-41939.1	955.82	-29785.1	0.000000	0.000000	7.170974	273.742	NaN	0.000000	0.001533	0.001668	28.1118	73.8998	0.001734	42610.6	5.338755	173.027	275.31	1.159447	0.071798	0.071446	273.742	42610.6	0.066980	0.152019	1800.71	99848.5
66	2.000000	1.161780	7.3657e+06	-41939.1	955.82	-29785.1	0.000000	0.000000	7.173316	282.516	NaN	0.000000	0.001641	0.001718	28.112	77.403	0.001967	39350.4	4.429189	173.914	282.074	1.161424	0.073779	0.073422	282.516	39350.4	0.068394	0.157617	1792.42	90556.9
66	2.000000	1.163746	7.3657e+06	-41939.1	955.821	-29785.1	0.000000	0.000000	7.176180	304.387	NaN	0.000000	0.001643	0.001736	28.112	78.4111	0.001756	44651.7	7.118340	169.372	303.104	1.163431	0.075744	0.075429	304.387	44651.7	0.070631	0.166665	1826.34	99928.4
66	2.000000	1.165718	7.3657e+06	-41939.1	955.82	-29785.1	0.000000	0.000000	7.178305	308.102	NaN	0.000000	0.001619	0.001700	28.1123	79.3064	0.001762	44997.7	2.361068	174.289	302.601	1.165389	0.077716	0.077387	308.102	44997.7	0.072581	0.174745	1763.15	98347
66	2.000000	1.167841	7.3657e+06	-41939.1	955.82	-29785.1	0.000000	0.000000	7.181130	325.194	NaN	0.000000	0.001601	0.001716	28.1106	81.3945	0.001782	45666	1.154108	176.368	327.439	1.167446	0.079839	0.079444	325.194	45666	0.074498	0.182867	1778.31	97566.1
66	2.000000	1.169779	7.3657e+06	-41939.1	955.82	-29785.1	0.000000	0.000000	7.183708	340.753	NaN	0.000000	0.001584	0.001674	28.111	84.1849	0.001825	46129.1	7.868815	168.784	339.165	1.169394	0.081778	0.081393	340.753	46129.1	0.076237	0.190382	1789.83	96590.6
66	2.000000	1.171713	7.3657e+06	-41939.1	955.819	-29785.1	0.000000	0.000000	7.185994	349.32	NaN	0.000000	0.001623	0.001692	28.1107	86.8714	0.001722	50440.7	3.694590	171.857	345.068	1.171470	0.083711	0.083469	349.32	50440.7	0.078517	0.200450	1742.68	102932
66	2.000000	1.173722	7.3657e+06	-41939.1	955.821	-29785.1	0.000000	0.000000	7.188872	370.467	NaN	0.000000	0.001598	0.001729	28.111	88.345	0.001804	48965.9	4.410092	171.87	367.445	1.173382	0.085721	0.085380	370.467	48965.9	0.080046	0.207338	1786.78	98248.7
66	2.000000	1.175762	7.3657e+06	-41939.1	955.82	-29785.1	0.000000	0.000000	7.191603	387.276	NaN	0.000000	0.001601	0.001723	28.1114	89.8367	0.001635	54957.3	4.074651	171.545	387.496	1.175396	0.087760	0.087395	387.276	54957.3	0.082475	0.218505	1772.39	107416
66	2.000000	1.177831	7.3657e+06	-41939.1	955.82	-29785.1	0.000000	0.000000	7.194198	400.074	NaN	0.000000	0.001598	0.001725	28.1124	93.0706	0.001759	52908.7	5.776528	170.404	399.309	1.177415	0.089829	0.089413	400.074	52908.7	0.084158	0.226402	1767.1	101592
66	2.000000	1.179874	7.3657e+06	-41939.1	955.82	-29785.1	0.000000	0.000000	7.196684	410.863	NaN	0.000000	0.001628	0.001696	28.1128	94.2403	0.001790	52647	2.358628	173.828	416.696	1.179389	0.091872	0.091387	410.863	52647	0.086019	0.235286	1746.23	99162.8
66	2.000000	1.181694	7.3657e+06	-41939.1	955.819	-29785.1	0.000000	0.000000	7.199367	431.854	NaN	0.000000	0.001606	0.001696	28.1126	97.0618	0.001832	52973.6	4.865150	170.804	426.922	1.181452	0.093692	0.093450	431.854	52973.6	0.087578	0.242853	1778.25	98211.3
66	2.000000	1.183752	7.3657e+06	-41939.1	955.82	-29785.1	0.000000	0.000000	7.202217	451.111	NaN	0.000000	0.001592	0.001682	28.1135	99.1182	0.001742	56891.3	10.1916	165.637	451.242	1.183312	0.095751	0.095310	451.111	56891.3	0.089804	0.253848	1777.09	103165
66	2.000000	1.185694	7.3657e+06	-41939.1	955.82	-29785.1	0.000000	0.000000	7.204696	464.213	NaN	0.000000	0.001566	0.001716	28.1136	101.599	0.001820	55827.8	5.995474	169.296	459.764	1.185358	0.097692	0.097356	464.213	55827.8	0.091456	0.262156	1770.75	99619.3
66	2.000000	1.187816	7.3657e+06	-41939.1	955.82	-29785.1	0.000000	0.000000	7.207748	486.822	NaN	0.000000	0.001562	0.001726	28.1128	103.902	0.001837	56552.6	9.242753	166.451	487.834	1.187409	0.099814	0.099407	486.822	56552.6	0.093358	0.271878	1790.59	99092.1
66	2.000000	1.189696	7.3657e+06	-41939.1	955.82	-29785.1	0.000000	0.000000	7.210160	499.777	NaN	0.000000	0.001520	0.001736	28.1131	104.66	0.001912	54731.9	4.294459	170.996	495.732	1.189479	0.101694	0.101477	499.777	54731.9	0.094845	0.279596	1787.5	94568.8
66	2.000000	1.191740	7.3657e+06	-41939.1	955.82	-29785.1	0.000000	0.000000	7.212886	516.356	NaN	0.000000	0.001546	0.001709	28.1127	106.028	0.001781	59530.2	3.264798	171.299	514.671	1.191505	0.103738	0.103504	516.356	59530.2	0.097233	0.292194	1767.17	100618
66	2.000000	1.193207	7.3657e+06	-41939.1	955.819	-29785.1	0.000000	0.000000	7.214979	531.593	NaN	0.000000	0.001574	0.001700	28.1245	106.469	0.001773	60034.1	3.490069	-8.924269	525.559	1.192944	0.105205	0.104942	531.593	60034.1	0.098564	0.299329	1775.95	100253