File: remote_trans/data/nanoindenter/0828-1/data/Data_2025-08-06,11h17m57s/2025-07-22_16-23-58_1_687.txt
2025-07-22, 16:23:58, 1
Index	Phase	Displacement	Time	Pos X	Pos Y	Pos Z	Rot A	Rot B	Piezo Z	Force A	Force B	Gripper	Voltage A	Voltage B	Temperature	Amplitude force	Amplitude pos	Stiffness	Phase shift	Phase excitation	Force A raw	Displacement raw	HMax	HMax raw	Real Force	Real Stiffness	Contact Depth	Area	Hardness	Reduced Mod.
[#]	[#]	[um]	[s]	[um]	[um]	[um]	[m°]	[m°]	[um]	[uN]	[uN]	[V]	[V]	[V]	[°C]	[uN]	[um]	[N/m]	[°]	[°]	[uN]	[um]	[um]	[um]	[uN]	[N/m]	[um]	[um^2]	[MPa]	[MPa]
687	1.000000	0.002553	7.37177e+06	-42739.1	1005.82	-29781.5	0.000000	0.000000	6.002802	0.033185	NaN	0.000000	0.001679	0.001793	28.0833	0.031174	0.000935	33.328	-6.903111	-165.744	-0.006668	0.001303	-1.116616	-1.117866	0.033185	33.328	-1.117363	-8.572139E+14	-3.871311E-17	NaN
687	1.000000	0.012602	7.37177e+06	-42739.1	1005.82	-29781.5	0.000000	0.000000	6.012852	0.040759	NaN	0.000000	0.001709	0.001787	28.0829	0.083400	0.001265	65.9238	122.695	16.1213	0.047475	0.011167	-1.106567	-1.108002	0.040759	65.9238	-1.107031	-6.229269E+14	-6.543068E-17	NaN
687	1.000000	0.022518	7.37177e+06	-42739.1	1005.82	-29781.6	0.000000	0.000000	6.022766	0.006776	NaN	0.000000	0.001652	0.001809	28.0832	0.076820	0.001872	41.0451	124.834	-170.529	-0.008395	0.021191	-1.096651	-1.097978	0.006776	41.0451	-1.096775	-4.537082E+14	-1.493567E-17	NaN
687	1.000000	0.032476	7.37177e+06	-42739.1	1005.82	-29781.6	0.000000	0.000000	6.032724	0.006178	NaN	0.000000	0.001701	0.001798	28.082	0.110604	0.001953	56.6284	86.7901	14.181	0.136484	0.031189	-1.086693	-1.087981	0.006178	56.6284	-1.086775	-3.330461E+14	-1.855053E-17	NaN
687	1.000000	0.042535	7.37177e+06	-42739.1	1005.82	-29781.6	0.000000	0.000000	6.042785	0.041110	NaN	0.000000	0.001720	0.001755	28.0816	0.048743	0.001919	25.3938	-51.3298	-167.186	0.083403	0.041192	-1.076634	-1.077978	0.041110	25.3938	-1.077848	-2.527056E+14	-1.626805E-16	NaN
687	1.000000	0.052514	7.37177e+06	-42739.1	1005.82	-29781.6	0.000000	0.000000	6.052762	0.002650	NaN	0.000000	0.001681	0.001772	28.0817	0.157096	0.001986	79.1109	101.94	16.7915	-0.017470	0.051199	-1.066655	-1.067970	0.002650	79.1109	-1.066680	-1.788895E+14	-1.481138E-17	NaN
687	1.000000	0.062545	7.37177e+06	-42739.1	1005.82	-29781.6	0.000000	0.000000	6.062793	0.000573	NaN	0.000000	0.001662	0.001761	28.0819	0.024173	0.002071	11.6741	-132.651	-165.597	0.012265	0.061179	-1.056624	-1.057990	0.000573	11.6741	-1.056661	-1.312028E+14	-4.365881E-18	NaN
687	1.000000	0.072503	7.37177e+06	-42739.1	1005.82	-29781.6	0.000000	0.000000	6.072752	0.011296	NaN	0.000000	0.001705	0.001768	28.0815	0.030553	0.002025	15.0872	50.0302	15.2419	-0.008968	0.071131	-1.046666	-1.048038	0.011296	15.0872	-1.047227	-9.798117E+13	-1.152848E-16	NaN
687	1.000000	0.082490	7.37177e+06	-42739.1	1005.82	-29781.6	0.000000	0.000000	6.082742	0.083898	NaN	0.000000	0.001697	0.001808	28.0813	0.172691	0.001945	88.7753	134.309	-169.363	0.039146	0.081207	-1.036679	-1.037962	0.083898	88.7753	-1.037388	-7.224999E+13	-1.161216E-15	NaN
687	1.000000	0.092524	7.37177e+06	-42739.1	1005.82	-29781.6	0.000000	0.000000	6.092774	0.062339	NaN	0.000000	0.001715	0.001807	28.0819	0.097008	0.002090	46.4188	-21.8303	17.8299	0.084756	0.091139	-1.026645	-1.028030	0.062339	46.4188	-1.027653	-5.344493E+13	-1.166420E-15	NaN
687	1.000000	0.102524	7.37177e+06	-42739.1	1005.82	-29781.6	0.000000	0.000000	6.102771	-0.039256	NaN	0.000000	0.001694	0.001740	28.0817	0.040467	0.001973	20.5083	114.159	-166.925	-0.023922	0.101272	-1.016645	-1.017897	-0.039256	20.5083	-1.015209	-3.634863E+13	1.079997E-15	NaN
687	1.000000	0.112533	7.37177e+06	-42739.1	1005.82	-29781.6	0.000000	0.000000	6.112783	0.041009	NaN	0.000000	0.001716	0.001750	28.0818	0.060569	0.002028	29.8602	71.5627	14.559	0.009926	0.111199	-1.006636	-1.007970	0.041009	29.8602	-1.007666	-2.877169E+13	-1.425334E-15	NaN
687	1.000000	0.122528	7.37177e+06	-42739.1	1005.82	-29781.6	0.000000	0.000000	6.122777	0.050637	NaN	0.000000	0.001708	0.001789	28.0816	0.034585	0.001970	17.5572	-87.8615	-165.458	-0.014412	0.121171	-0.996642	-0.997998	0.050637	17.5572	-0.998805	-2.186132E+13	-2.316300E-15	NaN
687	1.000000	0.132520	7.37177e+06	-42739.1	1005.82	-29781.6	0.000000	0.000000	6.132769	0.035653	NaN	0.000000	0.001706	0.001759	28.0819	0.044575	0.001938	22.9979	-35.7623	10.6317	0.058772	0.131165	-0.986649	-0.988004	0.035653	22.9979	-0.987812	-1.554677E+13	-2.293260E-15	NaN
687	1.000000	0.142548	7.37177e+06	-42739.1	1005.82	-29781.6	0.000000	0.000000	6.142793	-0.056453	NaN	0.000000	0.001678	0.001770	28.0816	0.140614	0.001961	71.7195	-144.908	-167.098	-0.045386	0.141208	-0.976621	-0.977962	-0.056453	71.7195	-0.976031	-1.078784E+13	5.233010E-15	NaN
687	1.000000	0.152559	7.37177e+06	-42739.1	1005.82	-29781.6	0.000000	0.000000	6.152805	-0.038754	NaN	0.000000	0.001722	0.001747	28.0816	0.043033	0.001951	22.0551	-57.1821	14.374	0.012715	0.151130	-0.966610	-0.968040	-0.038754	22.0551	-0.965293	-7.730640E+12	5.013081E-15	NaN
687	1.000000	0.162532	7.37177e+06	-42739.1	1005.82	-29781.6	0.000000	0.000000	6.162779	-0.021297	NaN	0.000000	0.001711	0.001780	28.0816	0.085340	0.001959	43.5543	-33.1548	-170.601	0.004530	0.161271	-0.956637	-0.957898	-0.021297	43.5543	-0.956270	-5.842270E+12	3.645349E-15	NaN
687	1.000000	0.172544	7.37177e+06	-42739.1	1005.82	-29781.6	0.000000	0.000000	6.172792	0.009020	NaN	0.000000	0.001673	0.001736	28.0832	0.062962	0.002093	30.087	51.1166	15.2201	0.082663	0.171212	-0.946625	-0.947958	0.009020	30.087	-0.946850	-4.360543E+12	-2.068487E-15	NaN
687	1.000000	0.182556	7.37177e+06	-42739.1	1005.82	-29781.6	0.000000	0.000000	6.182804	-6.463156E-6	NaN	0.000000	0.001725	0.001739	28.0829	0.065894	0.002001	32.9296	6.359127	-168.186	0.105364	0.181241	-0.936613	-0.937928	-6.463156E-6	32.9296	-0.936613	-3.172790E+12	2.037057E-18	NaN
687	1.000000	0.192562	7.37177e+06	-42739.1	1005.82	-29781.6	0.000000	0.000000	6.192811	0.036246	NaN	0.000000	0.001702	0.001767	28.0831	0.080059	0.002032	39.408	113.14	14.129	0.009659	0.191161	-0.926608	-0.928008	0.036246	39.408	-0.927297	-2.375307E+12	-1.525946E-14	NaN
687	1.000000	0.202544	7.37177e+06	-42739.1	1005.82	-29781.6	0.000000	0.000000	6.202793	0.017680	NaN	0.000000	0.001729	0.001778	28.083	0.094670	0.001872	50.578	16.4987	-165.33	-0.028543	0.201286	-0.916625	-0.917883	0.017680	50.578	-0.916887	-1.718611E+12	-1.028741E-14	NaN
687	1.000000	0.212545	7.37177e+06	-42739.1	1005.82	-29781.6	0.000000	0.000000	6.212795	0.039383	NaN	0.000000	0.001695	0.001772	28.0833	0.080180	0.002000	40.0853	12.6117	16.1526	-0.042571	0.211218	-0.906624	-0.907951	0.039383	40.0853	-0.907361	-1.277943E+12	-3.081713E-14	NaN
687	1.000000	0.222567	7.37177e+06	-42739.1	1005.82	-29781.6	0.000000	0.000000	6.222816	0.033079	NaN	0.000000	0.001727	0.001709	28.0833	0.040317	0.001950	20.6743	-112.884	-167.577	0.031625	0.221210	-0.896602	-0.897959	0.033079	20.6743	-0.897802	-9.492150E+11	-3.484900E-14	NaN
687	1.000000	0.232556	7.37177e+06	-42739.1	1005.82	-29781.6	0.000000	0.000000	6.232802	-0.021583	NaN	0.000000	0.001728	0.001754	28.0831	0.128978	0.002052	62.8603	160.319	9.193918	-0.015091	0.231229	-0.886614	-0.887941	-0.021583	62.8603	-0.886356	-6.647454E+11	3.246865E-14	NaN
687	1.000000	0.242600	7.37177e+06	-42739.1	1005.82	-29781.6	0.000000	0.000000	6.242849	0.036011	NaN	0.000000	0.001726	0.001786	28.0832	0.064176	0.001962	32.7047	-50.0015	-165.74	0.105499	0.241248	-0.876570	-0.877921	0.036011	32.7047	-0.877395	-5.029013E+11	-7.160553E-14	NaN
687	1.000000	0.252590	7.37177e+06	-42739.1	1005.82	-29781.6	0.000000	0.000000	6.252837	-0.021479	NaN	0.000000	0.001726	0.001759	28.083	0.058384	0.001994	29.2851	152.253	13.7848	-0.002538	0.251219	-0.866579	-0.867950	-0.021479	29.2851	-0.866029	-3.529533E+11	6.085466E-14	NaN
687	1.000000	0.262564	7.37177e+06	-42739.1	1005.82	-29781.6	0.000000	0.000000	6.262815	0.081504	NaN	0.000000	0.001722	0.001773	28.0831	0.047654	0.001936	24.6131	84.7035	-167.651	-0.044343	0.261301	-0.856606	-0.857869	0.081504	24.6131	-0.859089	-2.843108E+11	-2.866739E-13	NaN
687	1.000000	0.272566	7.37177e+06	-42739.1	1005.82	-29781.6	0.000000	0.000000	6.272816	0.048424	NaN	0.000000	0.001713	0.001780	28.0833	0.059384	0.002064	28.7741	-120.066	13.7703	0.048581	0.271215	-0.846603	-0.847954	0.048424	28.7741	-0.847865	-2.003677E+11	-2.416747E-13	NaN
687	1.000000	0.282580	7.37177e+06	-42739.1	1005.82	-29781.6	0.000000	0.000000	6.282826	-0.031418	NaN	0.000000	0.001688	0.001796	28.0835	0.008996	0.001944	4.628629	10.4665	-163.156	-0.067111	0.281287	-0.836589	-0.837883	-0.031418	4.628629	-0.831499	-1.202531E+11	2.612638E-13	NaN
687	1.000000	0.292605	7.37177e+06	-42739.1	1005.82	-29781.6	0.000000	0.000000	6.292854	0.017166	NaN	0.000000	0.001723	0.001779	28.0832	0.090799	0.001987	45.7028	-100.288	17.6439	-0.013843	0.291301	-0.826564	-0.827869	0.017166	45.7028	-0.826846	-1.039992E+11	-1.650592E-13	NaN
687	1.000000	0.302631	7.37177e+06	-42739.1	1005.82	-29781.6	0.000000	0.000000	6.302878	-0.026495	NaN	0.000000	0.001747	0.001767	28.0834	0.044247	0.001973	22.4317	-123.587	-165.303	-0.051794	0.301320	-0.816538	-0.817850	-0.026495	22.4317	-0.815652	-7.332428E+10	3.613416E-13	NaN
687	1.000000	0.312615	7.37177e+06	-42739.1	1005.82	-29781.6	0.000000	0.000000	6.312864	0.027471	NaN	0.000000	0.001697	0.001753	28.0822	0.041162	0.002064	19.9466	99.7531	15.6134	0.000533	0.311267	-0.806554	-0.807902	0.027471	19.9466	-0.807587	-5.699422E+10	-4.820018E-13	NaN
687	1.000000	0.322611	7.37177e+06	-42739.1	1005.82	-29781.6	0.000000	0.000000	6.322858	-0.032498	NaN	0.000000	0.001729	0.001769	28.0821	0.089949	0.001933	46.5234	-45.7472	-160.077	0.035340	0.321243	-0.796558	-0.797926	-0.032498	46.5234	-0.796034	-3.972123E+10	8.181637E-13	NaN
687	1.000000	0.332605	7.37177e+06	-42739.1	1005.82	-29781.6	0.000000	0.000000	6.332851	-0.044692	NaN	0.000000	0.001742	0.001779	28.0819	0.125159	0.001960	63.8689	1.181478	14.3704	-0.020441	0.331219	-0.786564	-0.787950	-0.044692	63.8689	-0.786039	-2.905917E+10	1.537977E-12	NaN
687	1.000000	0.342624	7.37177e+06	-42739.1	1005.82	-29781.6	0.000000	0.000000	6.342874	0.048895	NaN	0.000000	0.001752	0.001764	28.0821	0.038765	0.001977	19.6044	-104.417	-166.124	0.035216	0.341288	-0.776545	-0.777881	0.048895	19.6044	-0.778415	-2.289278E+10	-2.135846E-12	NaN
687	1.000000	0.352608	7.37177e+06	-42739.1	1005.82	-29781.6	0.000000	0.000000	6.352857	0.016766	NaN	0.000000	0.001730	0.001773	28.0822	0.068449	0.001988	34.4299	143.797	13.8506	-0.025126	0.351257	-0.766561	-0.767912	0.016766	34.4299	-0.766926	-1.597764E+10	-1.049338E-12	NaN
687	1.000000	0.362638	7.37177e+06	-42739.1	1005.82	-29781.6	0.000000	0.000000	6.362885	-0.012963	NaN	0.000000	0.001718	0.001772	28.082	0.092194	0.001990	46.3294	34.4893	-167.697	-0.043874	0.361353	-0.756531	-0.757816	-0.012963	46.3294	-0.756322	-1.146185E+10	1.130926E-12	NaN
687	1.000000	0.372644	7.37177e+06	-42739.1	1005.82	-29781.6	0.000000	0.000000	6.372891	-0.025897	NaN	0.000000	0.001711	0.001777	28.0818	0.070269	0.002043	34.3866	-126.046	15.0674	0.011510	0.371274	-0.746525	-0.747896	-0.025897	34.3866	-0.745960	-8.283650E+9	3.126332E-12	NaN
687	1.000000	0.382648	7.37177e+06	-42739.1	1005.82	-29781.6	0.000000	0.000000	6.382897	0.018258	NaN	0.000000	0.001721	0.001810	28.0818	0.030199	0.001988	15.1937	-97.1239	-165.133	0.048349	0.381302	-0.736521	-0.737867	0.018258	15.1937	-0.737422	-6.337845E+9	-2.880810E-12	NaN
687	1.000000	0.392655	7.37177e+06	-42739.1	1005.82	-29781.6	0.000000	0.000000	6.392901	-0.023758	NaN	0.000000	0.001759	0.001819	28.0819	0.061758	0.002019	30.585	35.3253	16.6327	-0.006380	0.391299	-0.726515	-0.727870	-0.023758	30.585	-0.725932	-4.419346E+9	5.375921E-12	NaN
687	1.000000	0.402644	7.37177e+06	-42739.1	1005.82	-29781.6	0.000000	0.000000	6.402890	-0.046718	NaN	0.000000	0.001761	0.001756	28.082	0.028602	0.001999	14.3098	51.4371	-166.283	-0.089374	0.401318	-0.716525	-0.717851	-0.046718	14.3098	-0.714077	-3.045617E+9	1.533937E-11	NaN
687	1.000000	0.412652	7.37177e+06	-42739.1	1005.82	-29781.6	0.000000	0.000000	6.412902	0.052467	NaN	0.000000	0.001770	0.001770	28.0821	0.036212	0.002167	16.7134	-131.387	13.4042	0.029694	0.411286	-0.706517	-0.707884	0.052467	16.7134	-0.708871	-2.586106E+9	-2.028794E-11	NaN
687	1.000000	0.422629	7.37177e+06	-42739.1	1005.82	-29781.6	0.000000	0.000000	6.422876	-0.028695	NaN	0.000000	0.001747	0.001759	28.0822	0.005029	0.002057	2.444689	-155.85	-167.789	-0.085088	0.421347	-0.696540	-0.697823	-0.028695	2.444689	-0.687737	-1.330414E+9	2.156833E-11	NaN
687	1.000000	0.432673	7.37177e+06	-42739.1	1005.82	-29781.6	0.000000	0.000000	6.432921	-0.005197	NaN	0.000000	0.001756	0.001788	28.0819	0.048869	0.002139	22.8486	-149.39	15.8616	0.019138	0.431280	-0.686496	-0.687889	-0.005197	22.8486	-0.686326	-1.272615E+9	4.083738E-12	NaN
687	1.000000	0.442680	7.37177e+06	-42739.1	1005.82	-29781.6	0.000000	0.000000	6.442930	0.065100	NaN	0.000000	0.001759	0.001762	28.0828	0.039460	0.002006	19.6712	-34.3221	-164.245	-0.038450	0.441338	-0.676489	-0.677831	0.065100	19.6712	-0.678972	-1.009577E+9	-6.448225E-11	NaN
687	1.000000	0.452659	7.37177e+06	-42739.1	1005.82	-29781.6	0.000000	0.000000	6.452912	0.108895	NaN	0.000000	0.001759	0.001794	28.0832	0.059458	0.001997	29.7733	171.857	14.5157	0.106837	0.451318	-0.666510	-0.667852	0.108895	29.7733	-0.669253	-7.433022E+8	-1.465021E-10	NaN
687	1.000000	0.462668	7.37177e+06	-42739.1	1005.82	-29781.6	0.000000	0.000000	6.462918	0.049424	NaN	0.000000	0.001763	0.001760	28.0832	0.067339	0.002139	31.4785	-138.246	-167.124	0.014065	0.461415	-0.656501	-0.657755	0.049424	31.4785	-0.657679	-5.160255E+8	-9.577914E-11	NaN
687	1.000000	0.472697	7.37177e+06	-42739.1	1005.82	-29781.6	0.000000	0.000000	6.472943	-0.045605	NaN	0.000000	0.001761	0.001767	28.0831	0.028423	0.001948	14.5894	174.589	14.8618	0.039820	0.471332	-0.646472	-0.647837	-0.045605	14.5894	-0.644128	-3.364447E+8	1.355483E-10	NaN
687	1.000000	0.482669	7.37177e+06	-42739.1	1005.82	-29781.6	0.000000	0.000000	6.482915	-0.057894	NaN	0.000000	0.001788	0.001787	28.0829	0.109847	0.002029	54.1333	133.165	-168.194	-0.021626	0.481324	-0.636500	-0.637845	-0.057894	54.1333	-0.635698	-2.577825E+8	2.245844E-10	NaN
687	1.000000	0.492693	7.37177e+06	-42739.1	1005.82	-29781.6	0.000000	0.000000	6.492944	0.080487	NaN	0.000000	0.001743	0.001740	28.083	0.016335	0.002227	7.334891	25.1584	16.4421	0.022303	0.491317	-0.626477	-0.627853	0.080487	7.334891	-0.634707	-2.498295E+8	-3.221694E-10	NaN
687	1.000000	0.502684	7.37177e+06	-42739.1	1005.82	-29781.6	0.000000	0.000000	6.502930	-0.035522	NaN	0.000000	0.001743	0.001761	28.0829	0.065003	0.002066	31.4649	-100.953	-164.895	-0.022880	0.501386	-0.616485	-0.617784	-0.035522	31.4649	-0.615639	-1.366695E+8	2.599118E-10	NaN
687	1.000000	0.512693	7.37177e+06	-42739.1	1005.82	-29781.6	0.000000	0.000000	6.512942	0.021522	NaN	0.000000	0.001732	0.001774	28.0827	0.058777	0.001913	30.7185	-49.4772	14.8232	0.058419	0.511293	-0.606476	-0.607877	0.021522	30.7185	-0.607001	-1.039566E+8	-2.070259E-10	NaN
687	1.000000	0.522677	7.37177e+06	-42739.1	1005.82	-29781.6	0.000000	0.000000	6.522925	-0.004571	NaN	0.000000	0.001755	0.001775	28.0828	0.081682	0.002020	40.4304	-141.897	-161.556	-0.009845	0.521340	-0.596492	-0.597829	-0.004571	40.4304	-0.596407	-7.429682E+7	6.152688E-11	NaN
687	1.000000	0.532724	7.37177e+06	-42739.1	1005.82	-29781.6	0.000000	0.000000	6.532974	0.052745	NaN	0.000000	0.001748	0.001762	28.083	0.046351	0.002070	22.3877	-120.17	14.1125	0.024643	0.531393	-0.586446	-0.587776	0.052745	22.3877	-0.588213	-5.728252E+7	-9.207858E-10	NaN
687	1.000000	0.542705	7.37177e+06	-42739.1	1005.82	-29781.6	0.000000	0.000000	6.542949	-0.096927	NaN	0.000000	0.001757	0.001766	28.0828	0.047097	0.002025	23.2557	-112.514	-165.49	-0.056062	0.541401	-0.576464	-0.577768	-0.096927	23.2557	-0.573338	-3.570656E+7	2.714546E-9	NaN
687	1.000000	0.552728	7.37177e+06	-42739.1	1005.82	-29781.6	0.000000	0.000000	6.552975	-0.012466	NaN	0.000000	0.001728	0.001765	28.083	0.039553	0.001973	20.0494	168.931	13.3969	0.070255	0.551369	-0.566442	-0.567800	-0.012466	20.0494	-0.565975	-2.824941E+7	4.412945E-10	NaN
687	1.000000	0.562705	7.37177e+06	-42739.1	1005.82	-29781.6	0.000000	0.000000	6.562952	-0.014318	NaN	0.000000	0.001742	0.001741	28.0832	0.034307	0.001898	18.0775	-164.529	-168.195	-0.053426	0.561432	-0.556464	-0.557737	-0.014318	18.0775	-0.555870	-2.047534E+7	6.992985E-10	NaN
687	1.000000	0.572734	7.37177e+06	-42739.1	1005.82	-29781.6	0.000000	0.000000	6.572982	0.013694	NaN	0.000000	0.001687	0.001747	28.0831	0.033482	0.002055	16.2961	-173.997	11.7914	0.040485	0.571362	-0.546435	-0.547807	0.013694	16.2961	-0.547066	-1.546341E+7	-8.855735E-10	NaN
687	1.000000	0.582713	7.37177e+06	-42739.1	1005.82	-29781.6	0.000000	0.000000	6.582964	0.068539	NaN	0.000000	0.001705	0.001775	28.0818	0.064719	0.002117	30.5737	108.93	-166.463	1.171102E-5	0.581413	-0.536456	-0.537756	0.068539	30.5737	-0.538137	-1.162837E+7	-5.894092E-9	NaN
687	1.000000	0.592735	7.37177e+06	-42739.1	1005.82	-29781.6	0.000000	0.000000	6.592982	-0.030435	NaN	0.000000	0.001724	0.001778	28.0819	0.039028	0.001962	19.889	10.9426	11.6384	-0.050212	0.591392	-0.526434	-0.527777	-0.030435	19.889	-0.525287	-7.7107e+06	3.947144E-9	NaN
687	1.000000	0.602740	7.37177e+06	-42739.1	1005.82	-29781.6	0.000000	0.000000	6.602989	0.020834	NaN	0.000000	0.001704	0.001726	28.082	0.028921	0.002036	14.2058	51.2273	-163.833	0.121541	0.601487	-0.516429	-0.517682	0.020834	14.2058	-0.517529	-6.01481e+06	-3.463817E-9	NaN
687	1.000000	0.612740	7.37177e+06	-42739.1	1005.82	-29781.6	0.000000	0.000000	6.612989	0.027036	NaN	0.000000	0.001723	0.001730	28.0819	0.028821	0.002020	14.2665	0.775325	15.1224	0.133994	0.611436	-0.506429	-0.507733	0.027036	14.2665	-0.507851	-4.41033e+06	-6.130263E-9	NaN
687	1.000000	0.622715	7.37177e+06	-42739.1	1005.82	-29781.6	0.000000	0.000000	6.622965	0.065568	NaN	0.000000	0.001699	0.001743	28.0818	0.114274	0.002079	54.9754	-32.3014	-163.085	0.083711	0.621460	-0.496455	-0.497709	0.065568	54.9754	-0.497349	-3.14794e+06	-2.082876E-8	NaN
687	1.000000	0.632717	7.37177e+06	-42739.1	1005.82	-29781.6	0.000000	0.000000	6.632967	0.060474	NaN	0.000000	0.001722	0.001745	28.0823	0.064183	0.002129	30.149	-160.17	17.4252	0.014920	0.631412	-0.486452	-0.487757	0.060474	30.149	-0.487956	-2.32718e+06	-2.598611E-8	NaN
687	1.000000	0.642769	7.37177e+06	-42739.1	1005.82	-29781.6	0.000000	0.000000	6.643015	-0.027478	NaN	0.000000	0.001677	0.001711	28.0822	0.025806	0.001924	13.4132	-94.4543	-166	0.016041	0.641533	-0.476401	-0.477636	-0.027478	13.4132	-0.474864	-1.52615e+06	1.800491E-8	NaN
687	1.000000	0.652773	7.37177e+06	-42739.1	1005.82	-29781.6	0.000000	0.000000	6.653022	0.026903	NaN	0.000000	0.001673	0.001721	28.0821	0.068343	0.001976	34.5951	-61.7384	13.5916	-0.059829	0.651428	-0.466396	-0.467741	0.026903	34.5951	-0.466979	-1.18312e+06	-2.273896E-8	NaN
687	1.000000	0.662758	7.37177e+06	-42739.1	1005.82	-29781.6	0.000000	0.000000	6.663007	0.026214	NaN	0.000000	0.001681	0.001741	28.0819	0.112715	0.002014	55.9751	-116.997	-168.353	0.034006	0.661465	-0.456411	-0.457705	0.026214	55.9751	-0.456763	-850174	-3.083354E-8	NaN
687	1.000000	0.672752	7.37177e+06	-42739.1	1005.82	-29781.6	0.000000	0.000000	6.672998	-0.035959	NaN	0.000000	0.001704	0.001723	28.0821	0.027509	0.001972	13.9519	-77.3359	14.5632	-0.012233	0.671433	-0.446418	-0.447736	-0.035959	13.9519	-0.444485	-570990	6.297599E-8	NaN
687	1.000000	0.682772	7.37177e+06	-42739.1	1005.82	-29781.6	0.000000	0.000000	6.683020	0.018922	NaN	0.000000	0.001701	0.001741	28.0819	0.039746	0.001994	19.9367	177.074	-164.574	-0.035927	0.681438	-0.436398	-0.437732	0.018922	19.9367	-0.437109	-449317	-4.211307E-8	NaN
687	1.000000	0.692760	7.37177e+06	-42739.1	1005.82	-29781.6	0.000000	0.000000	6.693007	-0.007174	NaN	0.000000	0.001730	0.001735	28.0819	0.045817	0.001932	23.7108	13.9386	16.9151	-0.052586	0.691396	-0.426409	-0.427773	-0.007174	23.7108	-0.426183	-314797	2.278924E-8	NaN
687	1.000000	0.702770	7.37177e+06	-42739.1	1005.82	-29781.6	0.000000	0.000000	6.703019	0.016903	NaN	0.000000	0.001688	0.001743	28.082	0.097643	0.001832	53.2904	160.609	-166.586	-0.020969	0.701434	-0.416399	-0.417735	0.016903	53.2904	-0.416637	-230513	-7.332727E-8	NaN
687	1.000000	0.712818	7.37177e+06	-42739.1	1005.82	-29781.6	0.000000	0.000000	6.713066	0.003094	NaN	0.000000	0.001703	0.001745	28.0823	0.068507	0.001945	35.2304	-35.6966	15.5001	-0.054350	0.711446	-0.406351	-0.407723	0.003094	35.2304	-0.406417	-164977	-1.875177E-8	NaN
687	1.000000	0.722752	7.37177e+06	-42739.1	1005.82	-29781.6	0.000000	0.000000	6.722997	-0.062735	NaN	0.000000	0.001700	0.001758	28.0831	0.095911	0.002092	45.842	-144.443	-166.314	-0.042835	0.721517	-0.396417	-0.397652	-0.062735	45.842	-0.395391	-114872	5.461312E-7	NaN
687	1.000000	0.732758	7.37177e+06	-42739.1	1005.82	-29781.6	0.000000	0.000000	6.733005	-0.019806	NaN	0.000000	0.001695	0.001733	28.0832	0.018833	0.002107	8.937247	40.4924	13.9722	-0.017277	0.731403	-0.386411	-0.387766	-0.019806	8.937247	-0.384749	-80907.7	2.447935E-7	NaN
687	1.000000	0.742811	7.37177e+06	-42739.1	1005.82	-29781.6	0.000000	0.000000	6.743057	-0.029880	NaN	0.000000	0.001683	0.001769	28.0834	0.018915	0.001971	9.595899	113.739	-163.029	-0.018549	0.741477	-0.376359	-0.377693	-0.029880	9.595899	-0.374023	-56758.2	5.264368E-7	NaN
687	1.000000	0.752815	7.37177e+06	-42739.1	1005.82	-29781.6	0.000000	0.000000	6.753062	-0.000584	NaN	0.000000	0.001674	0.001765	28.0834	0.067905	0.001941	34.9801	-5.131789	13.184	-0.027172	0.751464	-0.366355	-0.367705	-0.000584	34.9801	-0.366342	-43996.1	1.328392E-8	NaN
687	1.000000	0.762804	7.37177e+06	-42739.1	1005.82	-29781.6	0.000000	0.000000	6.763052	0.012826	NaN	0.000000	0.001704	0.001762	28.0833	0.042651	0.002030	21.0093	-110.263	-164.429	-0.040808	0.761484	-0.356366	-0.357685	0.012826	21.0093	-0.356824	-32055.3	-4.001126E-7	NaN
687	1.000000	0.772815	7.37177e+06	-42739.1	1005.82	-29781.6	0.000000	0.000000	6.773061	-0.050817	NaN	0.000000	0.001655	0.001785	28.0833	0.115057	0.002078	55.3653	166.422	15.9763	-0.011793	0.771402	-0.346354	-0.347768	-0.050817	55.3653	-0.345665	-22081.8	2.301310E-6	NaN
687	1.000000	0.782818	7.37177e+06	-42739.1	1005.82	-29781.6	0.000000	0.000000	6.783065	-0.016871	NaN	0.000000	0.001703	0.001768	28.0846	0.013950	0.001907	7.314182	-12.0772	-164.465	0.012694	0.781503	-0.336352	-0.337666	-0.016871	7.314182	-0.334622	-15242.6	1.106861E-6	NaN
687	1.000000	0.792814	7.37177e+06	-42739.1	1005.82	-29781.6	0.000000	0.000000	6.793063	0.012988	NaN	0.000000	0.001712	0.001793	28.0834	0.035474	0.002095	16.9298	8.776204	16.4965	-0.012042	0.791460	-0.326355	-0.327709	0.012988	16.9298	-0.326930	-11761.5	-1.104321E-6	NaN
687	1.000000	0.802840	7.37177e+06	-42739.1	1005.82	-29781.6	0.000000	0.000000	6.803088	0.024259	NaN	0.000000	0.001655	0.001758	28.0833	0.056745	0.001922	29.5212	-86.516	-164.567	0.064366	0.801480	-0.316330	-0.317689	0.024259	29.5212	-0.316946	-8387.85	-2.892196E-6	NaN
687	1.000000	0.812816	7.37177e+06	-42739.1	1005.82	-29781.6	0.000000	0.000000	6.813062	-0.055995	NaN	0.000000	0.001667	0.001786	28.0833	0.040042	0.002018	19.8462	-117.885	11.5076	0.009526	0.811506	-0.306353	-0.307663	-0.055995	19.8462	-0.304237	-5440.4	1.029237E-5	NaN
687	1.000000	0.822834	7.37177e+06	-42739.1	1005.82	-29781.6	0.000000	0.000000	6.823082	0.004118	NaN	0.000000	0.001641	0.001767	28.0836	0.099475	0.001913	51.9991	-109.428	-163.636	0.051554	0.821535	-0.296335	-0.297635	0.004118	51.9991	-0.296395	-4158.21	-9.904341E-7	NaN
687	1.000000	0.832838	7.37177e+06	-42739.1	1005.82	-29781.6	0.000000	0.000000	6.833084	-0.058068	NaN	0.000000	0.001670	0.001779	28.0834	0.049259	0.002010	24.5088	-98.2498	12.5626	0.004930	0.831492	-0.286331	-0.287677	-0.058068	24.5088	-0.284554	-2764.17	2.100744E-5	NaN
687	1.000000	0.842846	7.37177e+06	-42739.1	1005.82	-29781.6	0.000000	0.000000	6.843093	-0.027611	NaN	0.000000	0.001631	0.001775	28.0836	0.104239	0.002094	49.7754	96.4154	-163.81	-0.109934	0.841552	-0.276323	-0.277617	-0.027611	49.7754	-0.275907	-2047.04	1.348803E-5	NaN
687	1.000000	0.852832	7.37177e+06	-42739.1	1005.82	-29781.6	0.000000	0.000000	6.853079	-0.026872	NaN	0.000000	0.001645	0.001782	28.0825	0.057821	0.001965	29.4223	147.769	14.859	-0.068805	0.851472	-0.266337	-0.267697	-0.026872	29.4223	-0.265652	-1430.02	1.879138E-5	NaN
687	1.000000	0.862833	7.37177e+06	-42739.1	1005.82	-29781.6	0.000000	0.000000	6.863081	0.007191	NaN	0.000000	0.001627	0.001775	28.0821	0.119934	0.002147	55.8726	-70.2294	-162.949	-0.000435	0.861530	-0.256336	-0.257639	0.007191	55.8726	-0.256432	-1033.13	-6.960725E-6	NaN
687	1.000000	0.872853	7.37177e+06	-42739.1	1005.82	-29781.6	0.000000	0.000000	6.873102	0.034253	NaN	0.000000	0.001700	0.001765	28.0821	0.080556	0.001971	40.8632	175.245	16.0243	-0.013403	0.871484	-0.246316	-0.247686	0.034253	40.8632	-0.246945	-737.307	-4.645744E-5	NaN
687	1.000000	0.882843	7.37177e+06	-42739.1	1005.82	-29781.6	0.000000	0.000000	6.883091	0.011596	NaN	0.000000	0.001709	0.001743	28.0822	0.117797	0.001992	59.1303	87.211	-165.515	-0.020657	0.881545	-0.236327	-0.237624	0.011596	59.1303	-0.236474	-506.258	-2.290597E-5	NaN
687	1.000000	0.892847	7.37177e+06	-42739.1	1005.82	-29781.6	0.000000	0.000000	6.893095	0.015002	NaN	0.000000	0.001678	0.001720	28.0822	0.058214	0.001943	29.9561	78.1293	15.6151	0.047433	0.891478	-0.226322	-0.227692	0.015002	29.9561	-0.226698	-355.038	-4.225405E-5	NaN
687	1.000000	0.902850	7.37177e+06	-42739.1	1005.82	-29781.6	0.000000	0.000000	6.903096	-0.024359	NaN	0.000000	0.001647	0.001762	28.0821	0.063427	0.002043	31.0409	31.2811	-163.73	-0.055843	0.901551	-0.216320	-0.217618	-0.024359	31.0409	-0.215731	-237.284	0.000103	NaN
687	1.000000	0.912837	7.37177e+06	-42739.1	1005.82	-29781.6	0.000000	0.000000	6.913085	0.004906	NaN	0.000000	0.001641	0.001755	28.0821	0.112704	0.002006	56.1914	149.836	14.8871	0.016776	0.911492	-0.206332	-0.207677	0.004906	56.1914	-0.206397	-167.62	-2.927150E-5	NaN
687	1.000000	0.922844	7.37177e+06	-42739.1	1005.82	-29781.6	0.000000	0.000000	6.923095	0.071323	NaN	0.000000	0.001676	0.001754	28.0824	0.078752	0.001952	40.3404	28.6249	-168.174	0.044227	0.921541	-0.196325	-0.197629	0.071323	40.3404	-0.197651	-120.512	-0.000592	NaN
687	1.000000	0.932873	7.37177e+06	-42739.1	1005.82	-29781.6	0.000000	0.000000	6.933122	0.027379	NaN	0.000000	0.001659	0.001742	28.0821	0.120006	0.002078	57.7454	11.8575	13.0449	-0.052441	0.931476	-0.186297	-0.187694	0.027379	57.7454	-0.186652	-79.0566	-0.000346	NaN
687	1.000000	0.942884	7.37177e+06	-42739.1	1005.82	-29781.6	0.000000	0.000000	6.943128	-0.094773	NaN	0.000000	0.001671	0.001744	28.0822	0.115488	0.002024	57.0705	-52.0413	-167.223	-0.016233	0.941577	-0.176285	-0.177592	-0.094773	57.0705	-0.175040	-50.195	0.001888	NaN
687	1.000000	0.952868	7.37177e+06	-42739.1	1005.82	-29781.6	0.000000	0.000000	6.953114	-0.030969	NaN	0.000000	0.001620	0.001761	28.082	0.050599	0.002043	24.767	-146.549	15.6014	0.014064	0.951512	-0.166301	-0.167657	-0.030969	24.767	-0.165364	-34.0947	0.000908	NaN
687	1.000000	0.962913	7.37177e+06	-42739.1	1005.82	-29781.6	0.000000	0.000000	6.963160	-0.018133	NaN	0.000000	0.001671	0.001760	28.0825	0.071516	0.002035	35.1419	120.426	-163.73	0.014238	0.961529	-0.156256	-0.157640	-0.018133	35.1419	-0.155869	-23.1318	0.000784	NaN
687	1.000000	0.972878	7.37177e+06	-42739.1	1005.82	-29781.6	0.000000	0.000000	6.973127	0.009421	NaN	0.000000	0.001676	0.001762	28.0821	0.089093	0.001946	45.7848	104.73	18.002	-0.094484	0.971529	-0.146291	-0.147640	0.009421	45.7848	-0.146445	-15.59	-0.000604	NaN
687	1.000000	0.982864	7.37177e+06	-42739.1	1005.82	-29781.6	0.000000	0.000000	6.983111	-0.000484	NaN	0.000000	0.001676	0.001744	28.0822	0.020126	0.001948	10.334	-175.368	-163.61	-0.035183	0.981624	-0.136306	-0.137545	-0.000484	10.334	-0.136270	-10.0576	4.807441E-5	NaN
687	1.000000	0.992876	7.37177e+06	-42739.1	1005.82	-29781.6	0.000000	0.000000	6.993123	-0.026147	NaN	0.000000	0.001677	0.001732	28.0833	0.025615	0.002002	12.7975	-81.6723	14.6575	-0.051884	0.991566	-0.126293	-0.127603	-0.026147	12.7975	-0.124760	-6.015223	0.004347	NaN
687	1.000000	1.002878	7.37177e+06	-42739.1	1005.82	-29781.6	0.000000	0.000000	7.003125	0.000855	NaN	0.000000	0.001648	0.001751	28.0839	0.024395	0.002011	12.1279	5.881119	-162.544	0.001122	1.001586	-0.116292	-0.117583	0.000855	12.1279	-0.116345	-4.071387	-0.000210	NaN
687	1.000000	1.012900	7.37177e+06	-42739.1	1005.82	-29781.6	0.000000	0.000000	7.013149	0.012556	NaN	0.000000	0.001658	0.001774	28.0832	0.047970	0.002031	23.6207	179.813	12.9577	0.045905	1.011544	-0.106269	-0.107625	0.012556	23.6207	-0.106668	-2.552997	-0.004918	NaN
687	1.000000	1.022939	7.37177e+06	-42739.1	1005.82	-29781.6	0.000000	0.000000	7.023186	-0.011406	NaN	0.000000	0.001657	0.001757	28.0835	0.078728	0.001992	39.5227	14.1092	-163.621	-0.008054	1.021653	-0.096231	-0.097516	-0.011406	39.5227	-0.096014	-1.487511	0.007668	NaN
687	1.000000	1.032899	7.37177e+06	-42739.1	1005.82	-29781.6	0.000000	0.000000	7.033146	-0.024387	NaN	0.000000	0.001652	0.001749	28.0835	0.048577	0.001992	24.3907	-134.458	12.1999	-0.082183	1.031553	-0.086270	-0.087616	-0.024387	24.3907	-0.085520	-0.845750	0.028834	NaN
687	1.000000	1.042908	7.37177e+06	-42739.1	1005.82	-29781.6	0.000000	0.000000	7.043152	-0.095907	NaN	0.000000	0.001656	0.001795	28.0833	0.015723	0.002046	7.685099	171.093	-164.867	-0.040124	1.041557	-0.076261	-0.077612	-0.095907	7.685099	-0.066901	-0.281171	0.341097	NaN
687	1.000000	1.052909	7.37177e+06	-42739.1	1005.82	-29781.6	0.000000	0.000000	7.053155	-0.031303	NaN	0.000000	0.001649	0.001794	28.0833	0.017565	0.002112	8.314725	175.477	13.8891	0.006361	1.051534	-0.066260	-0.067636	-0.031303	8.314725	-0.063437	-0.225415	0.138867	NaN
687	1.000000	1.062917	7.37177e+06	-42739.1	1005.82	-29781.6	0.000000	0.000000	7.063163	-0.040517	NaN	0.000000	0.001670	0.001773	28.0833	0.113751	0.002057	55.2994	114.861	-168.459	-0.049646	1.061640	-0.056252	-0.057529	-0.040517	55.2994	-0.055703	-0.135076	0.299954	NaN
687	1.000000	1.072927	7.37177e+06	-42739.1	1005.82	-29781.6	0.000000	0.000000	7.073173	-0.035492	NaN	0.000000	0.001656	0.001793	28.0835	0.054894	0.001944	28.2311	35.2063	13.9116	0.047473	1.071567	-0.046242	-0.047602	-0.035492	28.2311	-0.045300	-0.065638	0.540722	NaN
687	1.000000	1.082910	7.37177e+06	-42739.1	1005.82	-29781.6	0.000000	0.000000	7.083159	0.029756	NaN	0.000000	0.001640	0.001774	28.0832	0.058486	0.002086	28.0393	137.904	-164.577	0.016202	1.081685	-0.036259	-0.037484	0.029756	28.0393	-0.037055	-0.036856	-0.807349	NaN
687	1.000000	1.092940	7.37177e+06	-42739.1	1005.82	-29781.6	0.000000	0.000000	7.093190	0.050886	NaN	0.000000	0.001655	0.001753	28.0833	0.029340	0.002151	13.6383	88.0898	14.2401	0.085159	1.091509	-0.026229	-0.027661	0.050886	13.6383	-0.029027	-0.021629	-2.352679	NaN
687	1.000000	1.102903	7.37177e+06	-42739.1	1005.82	-29781.6	0.000000	0.000000	7.103152	0.049116	NaN	0.000000	0.001663	0.001745	28.0833	0.119329	0.002075	57.5142	62.5576	-164.231	0.031502	1.101629	-0.016267	-0.017540	0.049116	57.5142	-0.016907	-0.010451	-4.699545	NaN
687	1.000000	1.112928	7.37177e+06	-42739.1	1005.82	-29781.6	0.000000	0.000000	7.113174	-0.039638	NaN	0.000000	0.001693	0.001784	28.0834	0.120206	0.001918	62.658	48.1491	10.8372	-0.033492	1.111571	-0.006242	-0.007598	-0.039638	62.658	-0.005767	-0.003894	10.1802	NaN
687	1.000000	1.122815	7.37177e+06	-42739.1	1005.82	-29781.6	0.000000	0.000000	7.123417	8.611508	NaN	0.000000	0.001696	0.001789	28.0832	8.474441	0.001784	4751.49	12.0099	-171.385	7.334955	1.121596	0.003646	0.002427	8.611508	4751.49	0.002286	0.001788	4816.76	102669
687	2.000000	1.125968	7.37177e+06	-42739.1	1005.82	-29781.6	0.000000	0.000000	7.126723	12.3508	NaN	0.000000	0.001647	0.001758	28.082	11.557	0.001634	7073.21	8.494764	6.219488	11.7142	1.125632	0.006798	0.006463	12.3508	7073.21	0.005489	0.004584	2694.46	95450.4
687	2.000000	1.128352	7.37177e+06	-42739.1	1005.82	-29781.6	0.000000	0.000000	7.129284	16.6568	NaN	0.000000	0.001675	0.001785	28.0822	14.636	0.001710	8560.17	10.5307	-179.773	15.873	1.128111	0.009183	0.008941	16.6568	8560.17	0.007723	0.006759	2464.31	95127.7
687	2.000000	1.130881	7.37177e+06	-42739.1	1005.82	-29781.6	0.000000	0.000000	7.131993	21.034	NaN	0.000000	0.001661	0.001823	28.082	17.7292	0.001827	9703.82	7.216359	4.059419	20.1047	1.130466	0.011712	0.011297	21.034	9703.82	0.010086	0.009277	2267.27	92046.5
687	2.000000	1.133346	7.37177e+06	-42739.1	1005.82	-29781.6	0.000000	0.000000	7.134685	26.5498	NaN	0.000000	0.001671	0.001773	28.082	19.8327	0.001794	11057.8	3.918261	-174.141	25.1819	1.133100	0.014177	0.013931	26.5498	11057.8	0.012376	0.011944	2222.83	92440.9
687	2.000000	1.135842	7.37177e+06	-42739.1	1005.82	-29781.6	0.000000	0.000000	7.137399	31.849	NaN	0.000000	0.001671	0.001788	28.0822	22.1086	0.001804	12255	5.586842	3.740891	30.2722	1.135582	0.016673	0.016413	31.849	12255	0.014724	0.014919	2134.83	91668.5
687	2.000000	1.138351	7.37177e+06	-42739.1	1005.82	-29781.6	0.000000	0.000000	7.140269	40.6582	NaN	0.000000	0.001675	0.001795	28.0822	24.2662	0.001549	15670.4	4.782588	-178.703	39.2271	1.137968	0.019181	0.018799	40.6582	15670.4	0.017235	0.018383	2211.75	105596
687	2.000000	1.140826	7.37177e+06	-42739.1	1005.82	-29781.6	0.000000	0.000000	7.143022	47.3939	NaN	0.000000	0.001692	0.001735	28.082	27.3119	0.001815	15050	5.419484	3.278570	46.5137	1.140455	0.021657	0.021286	47.3939	15050	0.019295	0.021447	2209.83	93891.6
687	2.000000	1.143295	7.37178e+06	-42739.1	1005.82	-29781.6	0.000000	0.000000	7.145781	54.4564	NaN	0.000000	0.001678	0.001763	28.082	29.2782	0.001703	17192.5	1.085349	-175.825	51.4982	1.143058	0.024125	0.023889	54.4564	17192.5	0.021750	0.025367	2146.75	98623.2
687	2.000000	1.145805	7.37178e+06	-42739.1	1005.82	-29781.6	0.000000	0.000000	7.148592	61.7734	NaN	0.000000	0.001717	0.001723	28.0818	31.8652	0.001831	17402.6	6.962128	-0.352756	58.5538	1.145411	0.026636	0.026241	61.7734	17402.6	0.023974	0.029175	2117.32	93085.1
687	2.000000	1.148286	7.37178e+06	-42739.1	1005.82	-29781.6	0.000000	0.000000	7.151389	69.4684	NaN	0.000000	0.001688	0.001745	28.0818	33.9971	0.001804	18848.2	6.040908	178.711	66.183	1.147985	0.029117	0.028816	69.4684	18848.2	0.026352	0.033522	2072.33	94054.5
687	2.000000	1.150858	7.37178e+06	-42739.1	1005.82	-29781.6	0.000000	0.000000	7.154346	78.851	NaN	0.000000	0.001726	0.001740	28.0818	37.6081	0.001819	20671.7	6.253647	-1.686990	80.2199	1.150481	0.031688	0.031311	78.851	20671.7	0.028828	0.038349	2056.16	96444
687	2.000000	1.153316	7.37178e+06	-42739.1	1005.82	-29781.6	0.000000	0.000000	7.157179	87.9628	NaN	0.000000	0.001653	0.001761	28.0819	40.5145	0.001901	21309	6.299382	177.995	88.3332	1.153060	0.034146	0.033890	87.9628	21309	0.031050	0.042949	2048.09	93942.3
687	2.000000	1.155800	7.37178e+06	-42739.1	1005.82	-29781.6	0.000000	0.000000	7.160238	101.954	NaN	0.000000	0.001717	0.001770	28.0821	41.0118	0.001843	22250.8	1.237421	2.995616	98.3124	1.155452	0.036631	0.036283	101.954	22250.8	0.033194	0.047625	2140.75	93153.5
687	2.000000	1.158234	7.37178e+06	-42739.1	1005.82	-29781.6	0.000000	0.000000	7.163106	112.524	NaN	0.000000	0.001661	0.001715	28.0831	44.0066	0.001879	23420	5.800171	177.83	108.929	1.157948	0.039064	0.038779	112.524	23420	0.035461	0.052824	2130.14	93098.4
687	2.000000	1.160790	7.37178e+06	-42739.1	1005.82	-29781.6	0.000000	0.000000	7.166242	126.621	NaN	0.000000	0.001694	0.001708	28.0832	45.9036	0.001805	25424.8	1.150484	1.850280	124.648	1.160495	0.041621	0.041326	126.621	25424.8	0.037886	0.058678	2157.88	95894.3
687	2.000000	1.163235	7.37178e+06	-42739.1	1005.82	-29781.6	0.000000	0.000000	7.169254	140.424	NaN	0.000000	0.001737	0.001710	28.0831	49.4214	0.001819	27162.2	2.224165	179.25	136.291	1.162979	0.044066	0.043809	140.424	27162.2	0.040189	0.064517	2176.56	97701.7
687	2.000000	1.165762	7.37178e+06	-42739.1	1005.82	-29781.6	0.000000	0.000000	7.172225	151.238	NaN	0.000000	0.001667	0.001742	28.0833	51.5207	0.001846	27915.1	4.188384	-2.286478	147.554	1.165466	0.046592	0.046296	151.238	27915.1	0.042529	0.070728	2138.31	95899.9
687	2.000000	1.168279	7.37178e+06	-42739.1	1005.82	-29781.6	0.000000	0.000000	7.175620	172.584	NaN	0.000000	0.001726	0.001734	28.0832	53.6186	0.001754	30569.8	6.790189	174.741	171.81	1.167970	0.049110	0.048801	172.584	30569.8	0.044875	0.077234	2234.56	100499
687	2.000000	1.170773	7.37178e+06	-42739.1	1005.82	-29781.6	0.000000	0.000000	7.178672	186.154	NaN	0.000000	0.001692	0.001701	28.0832	57.0788	0.001828	31229.5	4.087856	-3.221287	183.349	1.170366	0.051604	0.051197	186.154	31229.5	0.047133	0.083758	2222.53	98588.5
687	2.000000	1.173267	7.37178e+06	-42739.1	1005.82	-29781.6	0.000000	0.000000	7.181831	202.334	NaN	0.000000	0.001688	0.001753	28.0839	59.8693	0.001709	35029.9	6.802671	172.944	200.495	1.172993	0.054098	0.053824	202.334	35029.9	0.049766	0.091691	2206.69	105693
687	2.000000	1.175749	7.37178e+06	-42739.1	1005.82	-29781.6	0.000000	0.000000	7.185089	221.226	NaN	0.000000	0.001696	0.001735	28.0833	61.8941	0.001737	35634.7	9.730058	-9.267639	217.844	1.175364	0.056580	0.056195	221.226	35634.7	0.051924	0.098452	2247.06	103761
687	2.000000	1.178211	7.37178e+06	-42739.1	1005.82	-29781.6	0.000000	0.000000	7.188331	240.189	NaN	0.000000	0.001696	0.001762	28.0832	63.3094	0.001754	36087.8	1.913475	178.41	235.441	1.177944	0.059042	0.058775	240.189	36087.8	0.054050	0.105341	2280.11	101586
687	2.000000	1.180711	7.37178e+06	-42739.1	1005.82	-29781.6	0.000000	0.000000	7.191760	262.792	NaN	0.000000	0.001708	0.001765	28.083	66.484	0.001775	37464.3	4.385464	-4.570510	255.862	1.180332	0.061542	0.061163	262.792	37464.3	0.056281	0.112810	2329.51	101910
687	2.000000	1.183229	7.37178e+06	-42739.1	1005.82	-29781.6	0.000000	0.000000	7.194912	278.238	NaN	0.000000	0.001731	0.001750	28.0834	69.1138	0.001729	39977.9	5.098079	174.429	275.815	1.182826	0.064060	0.063657	278.238	39977.9	0.058840	0.121681	2286.62	104709
687	2.000000	1.185743	7.37178e+06	-42739.1	1005.82	-29781.6	0.000000	0.000000	7.198079	294.11	NaN	0.000000	0.001691	0.001785	28.0832	70.8521	0.001759	40279.6	1.854040	-2.024605	290.17	1.185393	0.066573	0.066223	294.11	40279.6	0.061097	0.129772	2266.36	102157
687	2.000000	1.188230	7.37178e+06	-42739.1	1005.82	-29781.6	0.000000	0.000000	7.201456	315.788	NaN	0.000000	0.001710	0.001754	28.0832	74.8698	0.001890	39618.9	8.543805	171.14	314.566	1.187873	0.069060	0.068704	315.788	39618.9	0.063082	0.137093	2303.46	97761.6
687	2.000000	1.190734	7.37178e+06	-42739.1	1005.82	-29781.6	0.000000	0.000000	7.204785	335.844	NaN	0.000000	0.001710	0.001760	28.0835	76.5035	0.001790	42728.1	7.049486	-8.072919	332.57	1.190304	0.071565	0.071135	335.844	42728.1	0.065670	0.146920	2285.9	101847
687	2.000000	1.193250	7.37178e+06	-42739.1	1005.82	-29781.6	0.000000	0.000000	7.207845	349.091	NaN	0.000000	0.001715	0.001751	28.0821	78.7968	0.001630	48353.5	1.538475	176.333	346.432	1.192853	0.074080	0.073683	349.091	48353.5	0.068666	0.158702	2199.66	110894
687	2.000000	1.195745	7.37178e+06	-42739.1	1005.82	-29781.6	0.000000	0.000000	7.211446	375.976	NaN	0.000000	0.001677	0.001762	28.082	80.646	0.001737	46433.4	4.004326	-5.180779	372.577	1.195369	0.076576	0.076199	375.976	46433.4	0.070503	0.166141	2262.99	104079
687	2.000000	1.198208	7.37178e+06	-42739.1	1005.82	-29781.6	0.000000	0.000000	7.214641	393.786	NaN	0.000000	0.001706	0.001749	28.0821	83.3921	0.001701	49035.3	6.590453	170.631	390.86	1.197895	0.079039	0.078725	393.786	49035.3	0.073016	0.176573	2230.16	106615
687	2.000000	1.200707	7.37178e+06	-42739.1	1005.82	-29781.6	0.000000	0.000000	7.218002	414.79	NaN	0.000000	0.001733	0.001761	28.0823	87.3785	0.001799	48563.1	5.410144	-7.757947	411.59	1.200435	0.081537	0.081266	414.79	48563.1	0.075131	0.185586	2235.03	102993
687	2.000000	1.203216	7.37178e+06	-42739.1	1005.82	-29781.6	0.000000	0.000000	7.221558	440.244	NaN	0.000000	0.001680	0.001783	28.0821	90.7482	0.001945	46661.7	5.961931	172.43	438.439	1.202889	0.084047	0.083719	440.244	46661.7	0.076971	0.193595	2274.05	96891.9
687	2.000000	1.205802	7.37178e+06	-42739.1	1005.82	-29781.6	0.000000	0.000000	7.224751	455.021	NaN	0.000000	0.001685	0.001792	28.0822	92.3387	0.001740	53058.1	5.828894	-9.093914	453.372	1.205558	0.086633	0.086389	455.021	53058.1	0.080201	0.208040	2187.18	106280
687	2.000000	1.208235	7.37178e+06	-42739.1	1005.82	-29781.6	0.000000	0.000000	7.228323	482.732	NaN	0.000000	0.001728	0.001758	28.0822	93.397	0.001773	52665.4	3.351904	174.32	481.906	1.207896	0.089066	0.088727	482.732	52665.4	0.082191	0.217185	2222.67	103248
687	2.000000	1.210697	7.37178e+06	-42739.1	1005.82	-29781.6	0.000000	0.000000	7.231708	505.19	NaN	0.000000	0.001710	0.001829	28.0823	96.194	0.001669	57621.3	1.850875	-5.181653	498.441	1.210251	0.091528	0.091082	505.19	57621.3	0.084952	0.230173	2194.83	109731
687	2.000000	1.213205	7.37178e+06	-42739.1	1005.82	-29781.6	0.000000	0.000000	7.235120	527.182	NaN	0.000000	0.001741	0.001784	28.082	100.695	0.001739	57908.9	5.946148	171.47	524.882	1.212808	0.094035	0.093638	527.182	57908.9	0.087208	0.241045	2187.07	107763
687	2.000000	1.215741	7.37178e+06	-42739.1	1005.82	-29781.6	0.000000	0.000000	7.238865	556.593	NaN	0.000000	0.001747	0.001802	28.0819	103.139	0.001833	56278.5	8.819783	-11.6073	552.954	1.215354	0.096572	0.096184	556.593	56278.5	0.089154	0.250617	2220.89	102710
687	2.000000	1.218226	7.37178e+06	-42739.1	1005.82	-29781.6	0.000000	0.000000	7.242145	575.921	NaN	0.000000	0.001756	0.001777	28.0821	104.447	0.001838	56840.6	2.746993	174.085	575.869	1.217861	0.099057	0.098692	575.921	56840.6	0.091458	0.262167	2196.77	101424
687	2.000000	1.220768	7.37178e+06	-42739.1	1005.82	-29781.6	0.000000	0.000000	7.245621	598.664	NaN	0.000000	0.001728	0.001779	28.082	108.054	0.001808	59778.3	5.779597	-9.279119	598.801	1.220422	0.101599	0.101253	598.664	59778.3	0.094088	0.275652	2171.81	104025
687	2.000000	1.222201	7.37178e+06	-42739.1	1005.82	-29781.6	0.000000	0.000000	7.247987	621.351	NaN	0.000000	0.001704	0.001793	28.0817	108.146	0.001745	61973.8	6.718975	169.434	618.835	1.221809	0.103032	0.102640	621.351	61973.8	0.095513	0.283090	2194.89	106419