File: remote_trans/data/nanoindenter/0828-1/data/Data_2025-08-06,11h17m57s/2025-07-22_16-23-58_1_132.txt
2025-07-22, 16:23:58, 1
Index	Phase	Displacement	Time	Pos X	Pos Y	Pos Z	Rot A	Rot B	Piezo Z	Force A	Force B	Gripper	Voltage A	Voltage B	Temperature	Amplitude force	Amplitude pos	Stiffness	Phase shift	Phase excitation	Force A raw	Displacement raw	HMax	HMax raw	Real Force	Real Stiffness	Contact Depth	Area	Hardness	Reduced Mod.
[#]	[#]	[um]	[s]	[um]	[um]	[um]	[m°]	[m°]	[um]	[uN]	[uN]	[V]	[V]	[V]	[°C]	[uN]	[um]	[N/m]	[°]	[°]	[uN]	[um]	[um]	[um]	[uN]	[N/m]	[um]	[um^2]	[MPa]	[MPa]
132	1.000000	0.002636	7.36633e+06	-45239.1	955.818	-29773.6	0.000000	0.000000	6.002807	0.051053	NaN	0.000000	0.001549	0.001681	28.0834	0.011776	0.001027	11.4656	-25.9692	-163.573	0.033769	0.001384	-1.067572	-1.068823	0.051053	11.4656	-1.070911	-2.039073E+14	-2.503715E-16	NaN
132	1.000000	0.010587	7.36633e+06	-45239.1	955.819	-29773.6	0.000000	0.000000	6.010758	0.035142	NaN	0.000000	0.001521	0.001662	28.0818	0.074032	0.000893	82.8865	-14.3437	-166.737	0.035980	0.009283	-1.059621	-1.060925	0.035142	82.8865	-1.059939	-1.452096E+14	-2.420069E-16	NaN
132	1.000000	0.018593	7.36633e+06	-45239.1	955.82	-29773.6	0.000000	0.000000	6.018763	0.019175	NaN	0.000000	0.001509	0.001648	28.0822	0.002724	0.001719	1.585041	-41.0335	-160.576	0.076412	0.017268	-1.051614	-1.052939	0.019175	1.585041	-1.060688	-1.486147E+14	-1.290264E-16	NaN
132	1.000000	0.026583	7.36633e+06	-45239.1	955.818	-29773.6	0.000000	0.000000	6.026755	0.055763	NaN	0.000000	0.001549	0.001657	28.0815	0.065610	0.001808	36.2874	-24.9933	-166.449	0.045991	0.025314	-1.043624	-1.044893	0.055763	36.2874	-1.044777	-9.082278E+13	-6.139727E-16	NaN
132	1.000000	0.034550	7.36633e+06	-45239.1	955.819	-29773.6	0.000000	0.000000	6.034721	0.021173	NaN	0.000000	0.001582	0.001642	28.0815	0.080891	0.001929	41.9282	140.316	-162.731	-0.075092	0.033352	-1.035657	-1.036856	0.021173	41.9282	-1.036036	-6.928878E+13	-3.055803E-16	NaN
132	1.000000	0.042605	7.36633e+06	-45239.1	955.818	-29773.6	0.000000	0.000000	6.042770	-0.094269	NaN	0.000000	0.001586	0.001663	28.0816	0.063526	0.002059	30.8518	70.9643	-162.295	-0.044740	0.041326	-1.027603	-1.028882	-0.094269	30.8518	-1.025311	-4.970572E+13	1.896543E-15	NaN
132	1.000000	0.050613	7.36633e+06	-45239.1	955.817	-29773.6	0.000000	0.000000	6.050781	-0.045226	NaN	0.000000	0.001564	0.001678	28.0833	0.048461	0.001947	24.8924	147.78	-162.297	-0.088119	0.049302	-1.019594	-1.020905	-0.045226	24.8924	-1.018232	-3.991704E+13	1.133000E-15	NaN
132	1.000000	0.058577	7.36633e+06	-45239.1	955.818	-29773.6	0.000000	0.000000	6.058747	0.005455	NaN	0.000000	0.001573	0.001718	28.0827	0.092178	0.002022	45.596	139.177	-167.117	-0.009823	0.057283	-1.011631	-1.012925	0.005455	45.596	-1.011720	-3.262404E+13	-1.671993E-16	NaN
132	1.000000	0.066580	7.36633e+06	-45239.1	955.818	-29773.6	0.000000	0.000000	6.066751	0.026920	NaN	0.000000	0.001579	0.001687	28.082	0.140734	0.001980	71.0844	-107.219	-163.594	-0.032028	0.065288	-1.003628	-1.004920	0.026920	71.0844	-1.003912	-2.561113E+13	-1.051098E-15	NaN
132	1.000000	0.074588	7.36633e+06	-45239.1	955.818	-29773.6	0.000000	0.000000	6.074759	0.028416	NaN	0.000000	0.001613	0.001647	28.0832	0.093057	0.001962	47.4269	-6.983789	-166.55	0.000202	0.073290	-0.995619	-0.996917	0.028416	47.4269	-0.996069	-2.008336E+13	-1.414919E-15	NaN
132	1.000000	0.082590	7.36633e+06	-45239.1	955.818	-29773.6	0.000000	0.000000	6.082761	0.031106	NaN	0.000000	0.001594	0.001677	28.0821	0.044260	0.002061	21.4745	-85.8196	-165.07	-0.012728	0.081297	-0.987617	-0.988910	0.031106	21.4745	-0.988704	-1.598288E+13	-1.946217E-15	NaN
132	1.000000	0.090587	7.36633e+06	-45239.1	955.818	-29773.6	0.000000	0.000000	6.090757	0.017494	NaN	0.000000	0.001572	0.001650	28.0811	0.067274	0.001988	33.8417	132.786	-161.946	0.036135	0.089330	-0.979620	-0.980878	0.017494	33.8417	-0.980008	-1.220446E+13	-1.433370E-15	NaN
132	1.000000	0.098621	7.36633e+06	-45239.1	955.818	-29773.6	0.000000	0.000000	6.098792	0.023148	NaN	0.000000	0.001608	0.001663	28.08	0.070982	0.002082	34.0935	-120.77	-164.754	0.073438	0.097326	-0.971586	-0.972882	0.023148	34.0935	-0.972096	-9.547815E+12	-2.424380E-15	NaN
132	1.000000	0.106616	7.36633e+06	-45239.1	955.818	-29773.6	0.000000	0.000000	6.106787	0.036502	NaN	0.000000	0.001635	0.001662	28.0797	0.076196	0.002076	36.7044	-106.698	-165.529	0.122358	0.105246	-0.963591	-0.964962	0.036502	36.7044	-0.964337	-7.504800E+12	-4.863782E-15	NaN
132	1.000000	0.114594	7.36633e+06	-45239.1	955.818	-29773.6	0.000000	0.000000	6.114767	0.062259	NaN	0.000000	0.001607	0.001680	28.0808	0.032281	0.002005	16.0986	-152.622	-166.218	0.026584	0.113294	-0.955613	-0.956913	0.062259	16.0986	-0.958514	-6.263671E+12	-9.939754E-15	NaN
132	1.000000	0.122609	7.36633e+06	-45239.1	955.818	-29773.6	0.000000	0.000000	6.122776	-0.044553	NaN	0.000000	0.001550	0.001638	28.0798	0.095407	0.001927	49.5205	-128.363	-163.686	-0.059706	0.121259	-0.947599	-0.948949	-0.044553	49.5205	-0.946924	-4.370595E+12	1.019380E-14	NaN
132	1.000000	0.130602	7.36633e+06	-45239.1	955.818	-29773.6	0.000000	0.000000	6.130773	0.041695	NaN	0.000000	0.001495	0.001644	28.0807	0.039458	0.001810	21.7993	130.774	-163.678	0.042913	0.129330	-0.939606	-0.940877	0.041695	21.7993	-0.941040	-3.640581E+12	-1.145280E-14	NaN
132	1.000000	0.138639	7.36633e+06	-45239.1	955.818	-29773.6	0.000000	0.000000	6.138808	-0.018775	NaN	0.000000	0.001563	0.001636	28.0819	0.025656	0.002015	12.7311	-106.248	-165.937	-0.013863	0.137301	-0.931569	-0.932907	-0.018775	12.7311	-0.930463	-2.620834E+12	7.163916E-15	NaN
132	1.000000	0.146608	7.36633e+06	-45239.1	955.818	-29773.6	0.000000	0.000000	6.146779	0.027978	NaN	0.000000	0.001593	0.001753	28.0816	0.062079	0.001963	31.6193	141.32	-164.62	0.001719	0.145350	-0.923599	-0.924858	0.027978	31.6193	-0.924263	-2.161503E+12	-1.294385E-14	NaN
132	1.000000	0.154618	7.36633e+06	-45239.1	955.818	-29773.6	0.000000	0.000000	6.154791	0.085882	NaN	0.000000	0.001600	0.001732	28.0813	0.053631	0.001973	27.1873	-170.325	-165.534	0.077727	0.153316	-0.915590	-0.916892	0.085882	27.1873	-0.917959	-1.776837E+12	-4.833405E-14	NaN
132	1.000000	0.162625	7.36633e+06	-45239.1	955.817	-29773.6	0.000000	0.000000	6.162795	0.010013	NaN	0.000000	0.001583	0.001756	28.0812	0.120337	0.001905	63.1559	77.465	-166.08	-0.014834	0.161346	-0.907582	-0.908861	0.010013	63.1559	-0.907701	-1.291545E+12	-7.752690E-15	NaN
132	1.000000	0.170639	7.36633e+06	-45239.1	955.819	-29773.6	0.000000	0.000000	6.170812	0.067918	NaN	0.000000	0.001607	0.001738	28.0807	0.099406	0.001884	52.7623	10.26	-161.869	-0.017524	0.169343	-0.899568	-0.900864	0.067918	52.7623	-0.900534	-1.033420E+12	-6.572110E-14	NaN
132	1.000000	0.178648	7.36633e+06	-45239.1	955.818	-29773.6	0.000000	0.000000	6.178818	0.014795	NaN	0.000000	0.001585	0.001724	28.0802	0.125100	0.001934	64.6742	-74.0932	-164.37	0.029179	0.177363	-0.891560	-0.892845	0.014795	64.6742	-0.891731	-7.858059E+11	-1.882835E-14	NaN
132	1.000000	0.186640	7.36633e+06	-45239.1	955.818	-29773.6	0.000000	0.000000	6.186811	0.011471	NaN	0.000000	0.001565	0.001700	28.0803	0.055902	0.002058	27.1671	-67.9796	-163.783	-0.006465	0.185261	-0.883567	-0.884946	0.011471	27.1671	-0.883884	-6.154952E+11	-1.863771E-14	NaN
132	1.000000	0.194624	7.36633e+06	-45239.1	955.818	-29773.6	0.000000	0.000000	6.194796	0.045039	NaN	0.000000	0.001580	0.001702	28.0818	0.135059	0.001942	69.5599	-26.1487	-165.197	0.062807	0.193379	-0.875583	-0.876828	0.045039	69.5599	-0.876068	-4.825427E+11	-9.333581E-14	NaN
132	1.000000	0.202664	7.36633e+06	-45239.1	955.818	-29773.6	0.000000	0.000000	6.202836	0.047320	NaN	0.000000	0.001559	0.001726	28.0811	0.085575	0.001880	45.5304	-139.086	-161.966	0.102212	0.201302	-0.867543	-0.868905	0.047320	45.5304	-0.868323	-3.790983E+11	-1.248237E-13	NaN
132	1.000000	0.210655	7.36633e+06	-45239.1	955.818	-29773.6	0.000000	0.000000	6.210824	0.003648	NaN	0.000000	0.001541	0.001716	28.0816	0.098589	0.001906	51.719	142.242	-163.259	0.039826	0.209342	-0.859553	-0.860866	0.003648	51.719	-0.859606	-2.889234E+11	-1.262499E-14	NaN
132	1.000000	0.218634	7.36633e+06	-45239.1	955.818	-29773.6	0.000000	0.000000	6.218803	-0.014661	NaN	0.000000	0.001563	0.001720	28.083	0.080461	0.002030	39.6312	-164.075	-164.175	0.024126	0.217372	-0.851574	-0.852835	-0.014661	39.6312	-0.851296	-2.229925E+11	6.574452E-14	NaN
132	1.000000	0.226658	7.36633e+06	-45239.1	955.818	-29773.6	0.000000	0.000000	6.226829	0.030151	NaN	0.000000	0.001550	0.001707	28.0839	0.059721	0.002024	29.5132	-86.4181	-167.7	0.040670	0.225384	-0.843550	-0.844824	0.030151	29.5132	-0.844316	-1.793725E+11	-1.680925E-13	NaN
132	1.000000	0.234662	7.36633e+06	-45239.1	955.818	-29773.6	0.000000	0.000000	6.234832	0.023537	NaN	0.000000	0.001561	0.001680	28.0828	0.084227	0.001981	42.5124	13.1357	-166.982	0.033611	0.233394	-0.835546	-0.836813	0.023537	42.5124	-0.835961	-1.382193E+11	-1.702847E-13	NaN
132	1.000000	0.242679	7.36633e+06	-45239.1	955.817	-29773.6	0.000000	0.000000	6.242849	0.008654	NaN	0.000000	0.001573	0.001706	28.0838	0.072779	0.002005	36.2952	-41.1882	-164.046	0.008461	0.241353	-0.827528	-0.828854	0.008654	36.2952	-0.827707	-1.068323E+11	-8.100433E-14	NaN
132	1.000000	0.250674	7.36633e+06	-45239.1	955.819	-29773.6	0.000000	0.000000	6.250846	0.058712	NaN	0.000000	0.001620	0.001723	28.0821	0.030195	0.002058	14.6727	-106.889	-163.107	0.093405	0.249363	-0.819534	-0.820844	0.058712	14.6727	-0.822535	-9.090355E+10	-6.458735E-13	NaN
132	1.000000	0.258665	7.36633e+06	-45239.1	955.818	-29773.6	0.000000	0.000000	6.258836	0.017037	NaN	0.000000	0.001585	0.001730	28.0818	0.081780	0.002044	40.0006	-118.533	-164.605	0.064790	0.257370	-0.811542	-0.812838	0.017037	40.0006	-0.811861	-6.513668E+10	-2.615585E-13	NaN
132	1.000000	0.266656	7.36633e+06	-45239.1	955.818	-29773.6	0.000000	0.000000	6.266827	0.026809	NaN	0.000000	0.001581	0.001701	28.0825	0.061994	0.002078	29.8387	51.384	-166.618	0.065811	0.265345	-0.803552	-0.804862	0.026809	29.8387	-0.804225	-5.131129E+10	-5.224827E-13	NaN
132	1.000000	0.274687	7.36633e+06	-45239.1	955.819	-29773.6	0.000000	0.000000	6.274859	0.047813	NaN	0.000000	0.001584	0.001722	28.0817	0.039046	0.001973	19.7881	88.9639	-165.102	0.037566	0.273393	-0.795520	-0.796814	0.047813	19.7881	-0.797332	-4.136629E+10	-1.155855E-12	NaN
132	1.000000	0.282668	7.36633e+06	-45239.1	955.818	-29773.6	0.000000	0.000000	6.282838	0.006592	NaN	0.000000	0.001611	0.001738	28.0815	0.059412	0.001967	30.204	-152.037	-166.398	0.041940	0.281383	-0.787540	-0.788824	0.006592	30.204	-0.787703	-3.061188E+10	-2.153440E-13	NaN
132	1.000000	0.290712	7.36633e+06	-45239.1	955.819	-29773.6	0.000000	0.000000	6.290882	0.005648	NaN	0.000000	0.001576	0.001751	28.0825	0.111646	0.002006	55.6452	172.48	-165.544	0.053441	0.289399	-0.779495	-0.780809	0.005648	55.6452	-0.779571	-2.373607E+10	-2.379509E-13	NaN
132	1.000000	0.298661	7.36633e+06	-45239.1	955.818	-29773.6	0.000000	0.000000	6.298831	0.004367	NaN	0.000000	0.001591	0.001753	28.0829	0.085989	0.002138	40.2249	-151.208	-166.015	-0.022919	0.297362	-0.771546	-0.772846	0.004367	40.2249	-0.771628	-1.851132E+10	-2.359212E-13	NaN
132	1.000000	0.306683	7.36633e+06	-45239.1	955.818	-29773.6	0.000000	0.000000	6.306851	-0.046495	NaN	0.000000	0.001569	0.001719	28.0815	0.068277	0.001927	35.4261	-171.512	-166.739	-0.058710	0.305372	-0.763525	-0.764835	-0.046495	35.4261	-0.762540	-1.392698E+10	3.338510E-12	NaN
132	1.000000	0.314700	7.36633e+06	-45239.1	955.818	-29773.6	0.000000	0.000000	6.314873	0.069319	NaN	0.000000	0.001560	0.001751	28.0829	0.069495	0.001953	35.5895	-158.227	-163.013	0.103470	0.313381	-0.755507	-0.756826	0.069319	35.5895	-0.756968	-1.169642E+10	-5.926494E-12	NaN
132	1.000000	0.322691	7.36633e+06	-45239.1	955.819	-29773.6	0.000000	0.000000	6.322862	0.043943	NaN	0.000000	0.001547	0.001726	28.082	0.062056	0.001949	31.8454	63.5226	-162.727	-0.003654	0.321454	-0.747517	-0.748753	0.043943	31.8454	-0.748552	-8.984664E+9	-4.890906E-12	NaN
132	1.000000	0.330687	7.36633e+06	-45239.1	955.817	-29773.6	0.000000	0.000000	6.330856	-0.021724	NaN	0.000000	0.001582	0.001722	28.0813	0.038152	0.001995	19.1193	-134.009	-163.133	0.001574	0.329394	-0.739520	-0.740813	-0.021724	19.1193	-0.738668	-6.590449E+9	3.296274E-12	NaN
132	1.000000	0.338700	7.36633e+06	-45239.1	955.818	-29773.6	0.000000	0.000000	6.338874	0.108697	NaN	0.000000	0.001592	0.001731	28.0813	0.087291	0.002024	43.122	58.6775	-165.226	0.151803	0.337383	-0.731508	-0.732824	0.108697	43.122	-0.733398	-5.586190E+9	-1.945815E-11	NaN
132	1.000000	0.346696	7.36633e+06	-45239.1	955.817	-29773.6	0.000000	0.000000	6.346868	0.070303	NaN	0.000000	0.001579	0.001728	28.0813	0.105697	0.001847	57.2257	-153.18	-164.3	0.096949	0.345418	-0.723512	-0.724789	0.070303	57.2257	-0.724433	-4.216200E+9	-1.667438E-11	NaN
132	1.000000	0.354698	7.36633e+06	-45239.1	955.817	-29773.6	0.000000	0.000000	6.354869	0.048048	NaN	0.000000	0.001594	0.001717	28.0799	0.064724	0.001964	32.9606	150.295	-163.312	0.094981	0.353365	-0.715510	-0.716842	0.048048	32.9606	-0.716603	-3.297155E+9	-1.457250E-11	NaN
132	1.000000	0.362723	7.36633e+06	-45239.1	955.819	-29773.6	0.000000	0.000000	6.362894	0.027234	NaN	0.000000	0.001577	0.001757	28.0804	0.052161	0.002022	25.7937	-145.139	-165.537	0.073186	0.361366	-0.707484	-0.708841	0.027234	25.7937	-0.708276	-2.538181E+9	-1.072984E-11	NaN
132	1.000000	0.370713	7.36633e+06	-45239.1	955.818	-29773.6	0.000000	0.000000	6.370885	0.040741	NaN	0.000000	0.001560	0.001743	28.0819	0.050398	0.002160	23.3284	159.231	-164.195	-0.020762	0.369467	-0.699494	-0.700741	0.040741	23.3284	-0.700804	-2.006813E+9	-2.030147E-11	NaN
132	1.000000	0.378717	7.36633e+06	-45239.1	955.818	-29773.6	0.000000	0.000000	6.378889	0.057332	NaN	0.000000	0.001557	0.001732	28.0818	0.055459	0.002147	25.8258	-158.866	-165.763	0.029874	0.377413	-0.691491	-0.692794	0.057332	25.8258	-0.693156	-1.577749E+9	-3.633786E-11	NaN
132	1.000000	0.386706	7.36633e+06	-45239.1	955.818	-29773.6	0.000000	0.000000	6.386876	-0.001292	NaN	0.000000	0.001541	0.001733	28.0813	0.098297	0.001924	51.0881	-130.856	-163.008	-0.004244	0.385419	-0.683501	-0.684788	-0.001292	51.0881	-0.683482	-1.163656E+9	1.109908E-12	NaN
132	1.000000	0.394742	7.36633e+06	-45239.1	955.819	-29773.6	0.000000	0.000000	6.394909	-0.054569	NaN	0.000000	0.001588	0.001746	28.0818	0.060842	0.001980	30.7244	-106.002	-163.208	-0.038888	0.393409	-0.675465	-0.676798	-0.054569	30.7244	-0.674133	-8.668711E+8	6.294963E-11	NaN
132	1.000000	0.402753	7.36633e+06	-45239.1	955.819	-29773.6	0.000000	0.000000	6.402922	-0.021819	NaN	0.000000	0.001566	0.001747	28.0808	0.005144	0.002020	2.546535	23.2935	-162.183	0.003734	0.401430	-0.667454	-0.668777	-0.021819	2.546535	-0.661028	-5.735273E+8	3.804344E-11	NaN
132	1.000000	0.410728	7.36633e+06	-45239.1	955.817	-29773.6	0.000000	0.000000	6.410894	-0.092409	NaN	0.000000	0.001577	0.001715	28.0806	0.013081	0.001956	6.687210	162.973	-165.067	-0.000989	0.409428	-0.659480	-0.660779	-0.092409	6.687210	-0.649115	-3.938309E+8	2.346411E-10	NaN
132	1.000000	0.418750	7.36633e+06	-45239.1	955.819	-29773.6	0.000000	0.000000	6.418919	-0.003030	NaN	0.000000	0.001539	0.001753	28.0814	0.058697	0.002089	28.1034	58.0312	-166.309	-0.126929	0.417460	-0.651458	-0.652747	-0.003030	28.1034	-0.651377	-4.229709E+8	7.164001E-12	NaN
132	1.000000	0.426708	7.36633e+06	-45239.1	955.818	-29773.6	0.000000	0.000000	6.426879	0.035273	NaN	0.000000	0.001548	0.001735	28.0824	0.053207	0.001998	26.6289	85.0451	-165.889	-0.002763	0.425454	-0.643499	-0.644753	0.035273	26.6289	-0.644493	-3.403453E+8	-1.036381E-10	NaN
132	1.000000	0.434709	7.36633e+06	-45239.1	955.818	-29773.6	0.000000	0.000000	6.434879	0.006233	NaN	0.000000	0.001560	0.001741	28.0814	0.127717	0.002077	61.4801	-90.9632	-165.631	0.037611	0.433403	-0.635498	-0.636805	0.006233	61.4801	-0.635574	-2.567771E+8	-2.427548E-11	NaN
132	1.000000	0.442736	7.36633e+06	-45239.1	955.818	-29773.6	0.000000	0.000000	6.442907	0.029750	NaN	0.000000	0.001563	0.001722	28.0805	0.056828	0.002089	27.205	-27.3422	-166.972	0.024559	0.441475	-0.627471	-0.628732	0.029750	27.205	-0.628291	-2.039643E+8	-1.458605E-10	NaN
132	1.000000	0.450756	7.36633e+06	-45239.1	955.819	-29773.6	0.000000	0.000000	6.450925	-0.015637	NaN	0.000000	0.001566	0.001699	28.0822	0.109404	0.002086	52.4561	-139.739	-163.466	0.036401	0.449447	-0.619452	-0.620760	-0.015637	52.4561	-0.619228	-1.531169E+8	1.021245E-10	NaN
132	1.000000	0.458772	7.36633e+06	-45239.1	955.818	-29773.6	0.000000	0.000000	6.458942	0.000714	NaN	0.000000	0.001614	0.001760	28.0815	0.069253	0.002025	34.1954	174.352	-166.499	0.009285	0.457460	-0.611435	-0.612748	0.000714	34.1954	-0.611451	-1.196953E+8	-5.964208E-12	NaN
132	1.000000	0.466764	7.36633e+06	-45239.1	955.819	-29773.6	0.000000	0.000000	6.466937	0.074019	NaN	0.000000	0.001626	0.001750	28.0824	0.059211	0.001955	30.2832	166.009	-163.942	0.033796	0.465387	-0.603443	-0.604821	0.074019	30.2832	-0.605276	-9.842520E+7	-7.520380E-10	NaN
132	1.000000	0.474747	7.36633e+06	-45239.1	955.819	-29773.6	0.000000	0.000000	6.474917	0.009960	NaN	0.000000	0.001576	0.001739	28.0822	0.103319	0.001936	53.3572	-14.4098	-163.552	0.004594	0.473441	-0.595460	-0.596767	0.009960	53.3572	-0.595600	-7.241929E+7	-1.375343E-10	NaN
132	1.000000	0.482770	7.36633e+06	-45239.1	955.819	-29773.6	0.000000	0.000000	6.482941	0.013196	NaN	0.000000	0.001591	0.001740	28.0816	0.028617	0.001954	14.6438	-150.945	-165.778	0.033827	0.481493	-0.587437	-0.588714	0.013196	14.6438	-0.588113	-5.710121E+7	-2.311042E-10	NaN
132	1.000000	0.490773	7.36633e+06	-45239.1	955.819	-29773.6	0.000000	0.000000	6.490939	-0.082913	NaN	0.000000	0.001629	0.001725	28.0819	0.036321	0.002061	17.6257	83.2361	-163.9	-0.043077	0.489474	-0.579435	-0.580734	-0.082913	17.6257	-0.575906	-3.874502E+7	2.139976E-9	NaN
132	1.000000	0.498784	7.36633e+06	-45239.1	955.819	-29773.6	0.000000	0.000000	6.498958	0.096508	NaN	0.000000	0.001645	0.001707	28.082	0.036696	0.001931	19.0071	106.812	-163.339	0.035357	0.497433	-0.571423	-0.572774	0.096508	19.0071	-0.575231	-3.792225E+7	-2.544902E-9	NaN
132	1.000000	0.506754	7.36633e+06	-45239.1	955.818	-29773.6	0.000000	0.000000	6.506923	-0.031288	NaN	0.000000	0.001643	0.001683	28.0821	0.014559	0.002002	7.272175	128.362	-165.253	0.011337	0.505475	-0.563453	-0.564733	-0.031288	7.272175	-0.560226	-2.352386E+7	1.330040E-9	NaN
132	1.000000	0.514785	7.36633e+06	-45239.1	955.818	-29773.6	0.000000	0.000000	6.514954	-0.020414	NaN	0.000000	0.001563	0.001696	28.0816	0.058919	0.002096	28.1039	-78.9867	-161.385	0.008165	0.513445	-0.555422	-0.556763	-0.020414	28.1039	-0.554877	-1.983775E+7	1.029026E-9	NaN
132	1.000000	0.522785	7.36633e+06	-45239.1	955.819	-29773.6	0.000000	0.000000	6.522954	-0.026751	NaN	0.000000	0.001556	0.001726	28.082	0.086990	0.001955	44.5019	37.9623	-168.625	0.047262	0.521483	-0.547422	-0.548724	-0.026751	44.5019	-0.546971	-1.541700E+7	1.735179E-9	NaN
132	1.000000	0.530794	7.36633e+06	-45239.1	955.819	-29773.6	0.000000	0.000000	6.530962	-0.042810	NaN	0.000000	0.001526	0.001715	28.083	0.046884	0.002037	23.0156	93.317	-169.084	0.037431	0.529483	-0.539413	-0.540724	-0.042810	23.0156	-0.538018	-1.158434E+7	3.695472E-9	NaN
132	1.000000	0.538791	7.36633e+06	-45239.1	955.818	-29773.6	0.000000	0.000000	6.538959	-0.019927	NaN	0.000000	0.001552	0.001699	28.0823	0.023797	0.001963	12.1255	-178.854	-166.131	-0.004580	0.537462	-0.531417	-0.532746	-0.019927	12.1255	-0.530184	-9.01849e+06	2.209525E-9	NaN
132	1.000000	0.546800	7.36633e+06	-45239.1	955.818	-29773.6	0.000000	0.000000	6.546970	0.020187	NaN	0.000000	0.001567	0.001713	28.0815	0.092345	0.001918	48.1567	-113.416	-166.529	-0.026417	0.545465	-0.523408	-0.524742	0.020187	48.1567	-0.523722	-7.33414e+06	-2.752478E-9	NaN
132	1.000000	0.554785	7.36633e+06	-45239.1	955.819	-29773.6	0.000000	0.000000	6.554955	-0.005783	NaN	0.000000	0.001556	0.001688	28.083	0.086741	0.002032	42.6827	-64.1033	-167.564	0.073612	0.553466	-0.515422	-0.516741	-0.005783	42.6827	-0.515321	-5.60396e+06	1.031972E-9	NaN
132	1.000000	0.562821	7.36633e+06	-45239.1	955.818	-29773.6	0.000000	0.000000	6.562989	-0.026473	NaN	0.000000	0.001529	0.001741	28.0817	0.017654	0.001941	9.095391	-157.113	-166.53	-0.052681	0.561511	-0.507387	-0.508696	-0.026473	9.095391	-0.505204	-4.05119e+06	6.534598E-9	NaN
132	1.000000	0.570836	7.36633e+06	-45239.1	955.818	-29773.6	0.000000	0.000000	6.571006	0.019530	NaN	0.000000	0.001520	0.001727	28.0801	0.025062	0.001940	12.9194	61.3258	-167.395	-0.092204	0.569436	-0.499371	-0.500771	0.019530	12.9194	-0.500505	-3.48391e+06	-5.605810E-9	NaN
132	1.000000	0.578794	7.36633e+06	-45239.1	955.818	-29773.6	0.000000	0.000000	6.578967	0.078305	NaN	0.000000	0.001541	0.001748	28.0819	0.075625	0.002045	36.9728	-43.2676	-165.086	0.030805	0.577537	-0.491413	-0.492670	0.078305	36.9728	-0.493002	-2.73734e+06	-2.860622E-8	NaN
132	1.000000	0.586754	7.36633e+06	-45239.1	955.818	-29773.6	0.000000	0.000000	6.586925	0.023224	NaN	0.000000	0.001523	0.001766	28.0812	0.042243	0.001984	21.2891	150.567	-165.667	-0.032190	0.585491	-0.483453	-0.484716	0.023224	21.2891	-0.484271	-2.06678e+06	-1.123661E-8	NaN
132	1.000000	0.594808	7.36633e+06	-45239.1	955.819	-29773.6	0.000000	0.000000	6.594977	-0.008371	NaN	0.000000	0.001574	0.001729	28.0814	0.078367	0.001967	39.84	-13.5872	-163.419	0.073406	0.593511	-0.475400	-0.476697	-0.008371	39.84	-0.475242	-1.54487e+06	5.418377E-9	NaN
132	1.000000	0.602785	7.36633e+06	-45239.1	955.818	-29773.6	0.000000	0.000000	6.602956	0.027652	NaN	0.000000	0.001628	0.001721	28.0809	0.061345	0.001971	31.1164	112.863	-165.26	-0.021644	0.601498	-0.467422	-0.468710	0.027652	31.1164	-0.468088	-1.22629e+06	-2.254967E-8	NaN
132	1.000000	0.610797	7.36633e+06	-45239.1	955.819	-29773.6	0.000000	0.000000	6.610971	0.113172	NaN	0.000000	0.001613	0.001726	28.0809	0.025607	0.001926	13.2938	55.1011	-165.983	0.116408	0.609524	-0.459410	-0.460683	0.113172	13.2938	-0.465795	-1.1387e+06	-9.938686E-8	NaN
132	1.000000	0.618842	7.36633e+06	-45239.1	955.818	-29773.6	0.000000	0.000000	6.619011	-0.003163	NaN	0.000000	0.001586	0.001683	28.0831	0.076226	0.001991	38.2933	92.6148	-163.083	0.068198	0.617481	-0.451366	-0.452726	-0.003163	38.2933	-0.451304	-712364	4.439909E-9	NaN
132	1.000000	0.626827	7.36633e+06	-45239.1	955.818	-29773.6	0.000000	0.000000	6.626995	-0.037438	NaN	0.000000	0.001581	0.001712	28.0793	0.091651	0.001963	46.6853	-157.491	-165.988	-0.017762	0.625498	-0.443381	-0.444710	-0.037438	46.6853	-0.442779	-540226	6.930096E-8	NaN
132	1.000000	0.634803	7.36633e+06	-45239.1	955.819	-29773.6	0.000000	0.000000	6.634973	0.013480	NaN	0.000000	0.001578	0.001762	28.0811	0.054360	0.001965	27.6689	-148.786	-164.81	-0.000314	0.633525	-0.435404	-0.436682	0.013480	27.6689	-0.435770	-430158	-3.133673E-8	NaN
132	1.000000	0.642825	7.36633e+06	-45239.1	955.819	-29773.6	0.000000	0.000000	6.642995	0.010642	NaN	0.000000	0.001563	0.001732	28.0812	0.102938	0.002060	49.9695	84.9244	-161.369	-0.004071	0.641546	-0.427382	-0.428662	0.010642	49.9695	-0.427542	-329060	-3.234040E-8	NaN
132	1.000000	0.650878	7.36633e+06	-45239.1	955.819	-29773.6	0.000000	0.000000	6.651048	0.006197	NaN	0.000000	0.001524	0.001729	28.08	0.108305	0.002124	50.9992	-159.166	-164.446	0.077202	0.649538	-0.419330	-0.420670	0.006197	50.9992	-0.419421	-252465	-2.454608E-8	NaN
132	1.000000	0.658830	7.36633e+06	-45239.1	955.818	-29773.6	0.000000	0.000000	6.659002	0.035185	NaN	0.000000	0.001537	0.001703	28.08	0.047458	0.002047	23.1832	-165.802	-166.323	-0.028710	0.657493	-0.411377	-0.412714	0.035185	23.1832	-0.412515	-201445	-1.746627E-7	NaN
132	1.000000	0.666842	7.36633e+06	-45239.1	955.818	-29773.6	0.000000	0.000000	6.667015	0.068015	NaN	0.000000	0.001548	0.001712	28.0795	0.117718	0.002137	55.0807	96.0701	-163.31	0.031615	0.665534	-0.403365	-0.404673	0.068015	55.0807	-0.404291	-153870	-4.420332E-7	NaN
132	1.000000	0.674867	7.36633e+06	-45239.1	955.818	-29773.6	0.000000	0.000000	6.675038	0.030507	NaN	0.000000	0.001546	0.001707	28.0788	0.005341	0.002087	2.558777	-166.083	-164.168	-0.017219	0.673532	-0.395340	-0.396675	0.030507	2.558777	-0.404282	-153824	-1.983214E-7	NaN
132	1.000000	0.682836	7.36633e+06	-45239.1	955.819	-29773.6	0.000000	0.000000	6.683006	0.017126	NaN	0.000000	0.001557	0.001734	28.0804	0.036665	0.002032	18.0441	177.107	-164.998	0.042479	0.681522	-0.387372	-0.388685	0.017126	18.0441	-0.388083	-90311.5	-1.896356E-7	NaN
132	1.000000	0.690846	7.36633e+06	-45239.1	955.818	-29773.6	0.000000	0.000000	6.691016	0.008230	NaN	0.000000	0.001533	0.001709	28.0824	0.050656	0.002029	24.9632	168.437	-166.502	0.102289	0.689544	-0.379362	-0.380664	0.008230	24.9632	-0.379609	-68277.7	-1.205413E-7	NaN
132	1.000000	0.698852	7.36633e+06	-45239.1	955.819	-29773.6	0.000000	0.000000	6.699023	0.032391	NaN	0.000000	0.001558	0.001712	28.0807	0.137935	0.001897	72.7017	-159.402	-167.835	0.052973	0.697503	-0.371355	-0.372705	0.032391	72.7017	-0.371689	-52534.7	-6.165590E-7	NaN
132	1.000000	0.706856	7.36633e+06	-45239.1	955.819	-29773.6	0.000000	0.000000	6.707028	0.046228	NaN	0.000000	0.001543	0.001734	28.0804	0.034504	0.001900	18.1615	23.4736	-163.345	0.068824	0.705508	-0.363351	-0.364699	0.046228	18.1615	-0.365260	-42443.1	-1.089167E-6	NaN
132	1.000000	0.714841	7.36633e+06	-45239.1	955.818	-29773.6	0.000000	0.000000	6.715011	0.016679	NaN	0.000000	0.001570	0.001742	28.081	0.087454	0.001954	44.7521	-134.023	-165.814	-0.051147	0.713572	-0.355367	-0.356636	0.016679	44.7521	-0.355646	-30821.6	-5.411488E-7	NaN
132	1.000000	0.722874	7.36633e+06	-45239.1	955.818	-29773.6	0.000000	0.000000	6.723042	-0.039019	NaN	0.000000	0.001557	0.001755	28.0798	0.173007	0.002029	85.2747	-117.428	-164.671	-0.009089	0.721598	-0.347333	-0.348609	-0.039019	85.2747	-0.346990	-23082.8	1.690398E-6	NaN
132	1.000000	0.730874	7.36633e+06	-45239.1	955.818	-29773.6	0.000000	0.000000	6.731041	-0.056392	NaN	0.000000	0.001532	0.001768	28.0798	0.125304	0.002013	62.2612	-170.597	-166.043	0.019473	0.729568	-0.339333	-0.340639	-0.056392	62.2612	-0.338654	-17455.4	3.230638E-6	NaN
132	1.000000	0.738854	7.36633e+06	-45239.1	955.818	-29773.6	0.000000	0.000000	6.739026	0.050159	NaN	0.000000	0.001522	0.001771	28.0794	0.043731	0.001898	23.0405	-35.3866	-161.74	0.042416	0.737547	-0.331354	-0.332660	0.050159	23.0405	-0.332986	-14426.2	-3.476906E-6	NaN
132	1.000000	0.746916	7.36633e+06	-45239.1	955.82	-29773.6	0.000000	0.000000	6.747086	-0.002760	NaN	0.000000	0.001536	0.001777	28.0799	0.024170	0.002102	11.4977	109.103	-164.964	-0.016525	0.745560	-0.323291	-0.324647	-0.002760	11.4977	-0.323111	-10337	2.669665E-7	NaN
132	1.000000	0.754868	7.36633e+06	-45239.1	955.818	-29773.6	0.000000	0.000000	6.755039	0.024021	NaN	0.000000	0.001546	0.001795	28.0808	0.044737	0.002025	22.0873	-126.16	-162.005	0.011212	0.753573	-0.315339	-0.316634	0.024021	22.0873	-0.316155	-8165.57	-2.941714E-6	NaN
132	1.000000	0.762878	7.36633e+06	-45239.1	955.818	-29773.6	0.000000	0.000000	6.763050	0.050244	NaN	0.000000	0.001508	0.001744	28.082	0.012100	0.001984	6.098224	-109.366	-165.799	0.075727	0.761592	-0.307329	-0.308616	0.050244	6.098224	-0.313508	-7463.19	-6.732205E-6	NaN
132	1.000000	0.770909	7.36633e+06	-45239.1	955.819	-29773.6	0.000000	0.000000	6.771079	-0.007502	NaN	0.000000	0.001535	0.001777	28.0824	0.078805	0.001957	40.275	49.7847	-165.222	-0.032508	0.769578	-0.299298	-0.300630	-0.007502	40.275	-0.299158	-4571.97	1.640890E-6	NaN
132	1.000000	0.778914	7.36633e+06	-45239.1	955.818	-29773.6	0.000000	0.000000	6.779085	0.052891	NaN	0.000000	0.001522	0.001746	28.0826	0.133585	0.002072	64.4755	-2.877498	-161.43	0.007834	0.777596	-0.291294	-0.292611	0.052891	64.4755	-0.291909	-3563.57	-1.484208E-5	NaN
132	1.000000	0.786904	7.36633e+06	-45239.1	955.818	-29773.6	0.000000	0.000000	6.787077	0.065238	NaN	0.000000	0.001502	0.001740	28.0818	0.058798	0.001939	30.3276	-5.628688	-167.035	0.031825	0.785586	-0.283303	-0.284622	0.065238	30.3276	-0.284916	-2799.04	-2.330734E-5	NaN
132	1.000000	0.794860	7.36633e+06	-45239.1	955.818	-29773.6	0.000000	0.000000	6.795029	-0.013033	NaN	0.000000	0.001483	0.001747	28.0835	0.045031	0.001946	23.1361	-92.8159	-162.684	0.009158	0.793586	-0.275347	-0.276621	-0.013033	23.1361	-0.274925	-1978.16	6.588681E-6	NaN
132	1.000000	0.802908	7.36633e+06	-45239.1	955.818	-29773.6	0.000000	0.000000	6.803081	0.081518	NaN	0.000000	0.001505	0.001723	28.0831	0.094459	0.002015	46.8862	-80.2567	-161.204	0.166192	0.801610	-0.267300	-0.268597	0.081518	46.8862	-0.268603	-1586.01	-5.139797E-5	NaN
132	1.000000	0.810920	7.36633e+06	-45239.1	955.819	-29773.6	0.000000	0.000000	6.811092	0.047149	NaN	0.000000	0.001518	0.001745	28.0809	0.018836	0.002074	9.082627	129.184	-163.5	0.058058	0.809608	-0.259287	-0.260600	0.047149	9.082627	-0.263181	-1310.99	-3.596432E-5	NaN
132	1.000000	0.818926	7.36633e+06	-45239.1	955.819	-29773.6	0.000000	0.000000	6.819095	-0.027382	NaN	0.000000	0.001515	0.001713	28.0817	0.092015	0.001849	49.7676	-167.544	-163.688	-0.043194	0.817613	-0.251281	-0.252594	-0.027382	49.7676	-0.250869	-848.001	3.229035E-5	NaN
132	1.000000	0.826956	7.36633e+06	-45239.1	955.818	-29773.6	0.000000	0.000000	6.827127	0.027071	NaN	0.000000	0.001552	0.001747	28.0815	0.018770	0.002065	9.089039	-165.601	-163.272	0.026168	0.825553	-0.243251	-0.244654	0.027071	9.089039	-0.245485	-699.816	-3.868315E-5	NaN
132	1.000000	0.834910	7.36633e+06	-45239.1	955.818	-29773.6	0.000000	0.000000	6.835080	0.014183	NaN	0.000000	0.001571	0.001746	28.0822	0.071240	0.001997	35.6699	-110.56	-165.094	-0.112972	0.833647	-0.235298	-0.236560	0.014183	35.6699	-0.235596	-490.459	-2.891793E-5	NaN
132	1.000000	0.842895	7.36633e+06	-45239.1	955.819	-29773.6	0.000000	0.000000	6.843067	0.058563	NaN	0.000000	0.001596	0.001741	28.0826	0.082140	0.002036	40.3369	111.67	-163.44	-0.004491	0.841592	-0.227312	-0.228616	0.058563	40.3369	-0.228401	-377.785	-0.000155	NaN
132	1.000000	0.850926	7.36633e+06	-45239.1	955.818	-29773.6	0.000000	0.000000	6.851098	0.033503	NaN	0.000000	0.001543	0.001752	28.0825	0.035381	0.002072	17.0734	-65.7936	-165.247	-0.009403	0.849565	-0.219281	-0.220642	0.033503	17.0734	-0.220753	-285.561	-0.000117	NaN
132	1.000000	0.858941	7.36633e+06	-45239.1	955.819	-29773.6	0.000000	0.000000	6.859111	0.009618	NaN	0.000000	0.001532	0.001739	28.0821	0.162465	0.001990	81.6563	119.282	-162.524	0.064589	0.857621	-0.211267	-0.212586	0.009618	81.6563	-0.211355	-201.717	-4.767984E-5	NaN
132	1.000000	0.866948	7.36633e+06	-45239.1	955.819	-29773.6	0.000000	0.000000	6.867116	-0.036857	NaN	0.000000	0.001522	0.001746	28.083	0.098892	0.001951	50.697	151.736	-166.436	-0.003493	0.865634	-0.203259	-0.204573	-0.036857	50.697	-0.202714	-145.951	0.000253	NaN
132	1.000000	0.874926	7.36633e+06	-45239.1	955.818	-29773.6	0.000000	0.000000	6.875097	0.017304	NaN	0.000000	0.001525	0.001702	28.0823	0.087957	0.002033	43.2652	-15.8758	-161.871	0.002186	0.873621	-0.195281	-0.196587	0.017304	43.2652	-0.195581	-111.384	-0.000155	NaN
132	1.000000	0.882948	7.36633e+06	-45239.1	955.818	-29773.6	0.000000	0.000000	6.883118	0.008332	NaN	0.000000	0.001533	0.001721	28.0831	0.064329	0.001943	33.1009	-26.2539	-164.768	0.029752	0.881651	-0.187260	-0.188556	0.008332	33.1009	-0.187449	-81.5288	-0.000102	NaN
132	1.000000	0.890939	7.36633e+06	-45239.1	955.818	-29773.6	0.000000	0.000000	6.891110	0.049813	NaN	0.000000	0.001532	0.001770	28.0827	0.063948	0.001957	32.6734	-50.8058	-162.764	0.055329	0.889685	-0.179269	-0.180522	0.049813	32.6734	-0.180412	-62.0124	-0.000803	NaN
132	1.000000	0.898959	7.36633e+06	-45239.1	955.818	-29773.6	0.000000	0.000000	6.899129	0.006461	NaN	0.000000	0.001514	0.001734	28.0798	0.116719	0.001953	59.753	-71.4471	-163.176	0.070540	0.897651	-0.171249	-0.172557	0.006461	59.753	-0.171330	-43.3187	-0.000149	NaN
132	1.000000	0.906951	7.36633e+06	-45239.1	955.818	-29773.6	0.000000	0.000000	6.907118	-0.058464	NaN	0.000000	0.001536	0.001713	28.08	0.061037	0.001971	30.9598	-108.072	-164.068	-0.019823	0.905631	-0.163257	-0.164576	-0.058464	30.9598	-0.161840	-29.5538	0.001978	NaN
132	1.000000	0.914935	7.36633e+06	-45239.1	955.818	-29773.6	0.000000	0.000000	6.915105	0.001598	NaN	0.000000	0.001498	0.001718	28.0801	0.054847	0.002046	26.8065	82.7295	-167.425	0.068173	0.913662	-0.155272	-0.156545	0.001598	26.8065	-0.155317	-22.6088	-7.069692E-5	NaN
132	1.000000	0.922945	7.36633e+06	-45239.1	955.819	-29773.6	0.000000	0.000000	6.923117	0.058085	NaN	0.000000	0.001515	0.001758	28.0799	0.015579	0.001956	7.964905	-113.409	-163.782	0.098595	0.921617	-0.147262	-0.148591	0.058085	7.964905	-0.152731	-20.3066	-0.002860	NaN
132	1.000000	0.930954	7.36633e+06	-45239.1	955.819	-29773.6	0.000000	0.000000	6.931124	0.002163	NaN	0.000000	0.001520	0.001741	28.0812	0.009768	0.002114	4.620747	91.0007	-165.303	-0.028853	0.929675	-0.139254	-0.140532	0.002163	4.620747	-0.139605	-11.6288	-0.000186	NaN
132	1.000000	0.938926	7.36633e+06	-45239.1	955.818	-29773.6	0.000000	0.000000	6.939097	0.030764	NaN	0.000000	0.001539	0.001730	28.0813	0.102692	0.001970	52.1343	31.1126	-163.54	0.021636	0.937669	-0.131281	-0.132538	0.030764	52.1343	-0.131724	-8.229823	-0.003738	NaN
132	1.000000	0.946962	7.36633e+06	-45239.1	955.819	-29773.6	0.000000	0.000000	6.947133	0.043260	NaN	0.000000	0.001518	0.001720	28.081	0.073260	0.001902	38.5208	156.82	-165.051	0.012464	0.945624	-0.123246	-0.124583	0.043260	38.5208	-0.124088	-5.833268	-0.007416	NaN
132	1.000000	0.954972	7.36633e+06	-45239.1	955.819	-29773.6	0.000000	0.000000	6.955140	-0.036000	NaN	0.000000	0.001524	0.001691	28.0809	0.004030	0.002025	1.990313	-21.5097	-166.036	-0.020347	0.953633	-0.115235	-0.116574	-0.036000	1.990313	-0.101670	-1.988943	0.018100	NaN
132	1.000000	0.962967	7.36633e+06	-45239.1	955.819	-29773.6	0.000000	0.000000	6.963138	0.030085	NaN	0.000000	0.001515	0.001730	28.0813	0.032149	0.002058	15.6187	62.1995	-165.797	0.028668	0.961697	-0.107240	-0.108510	0.030085	15.6187	-0.108685	-2.818768	-0.010673	NaN
132	1.000000	0.970968	7.36633e+06	-45239.1	955.82	-29773.6	0.000000	0.000000	6.971137	-0.015948	NaN	0.000000	0.001523	0.001709	28.0817	0.066329	0.001945	34.1025	150.289	-160.755	-0.027482	0.969653	-0.099239	-0.100554	-0.015948	34.1025	-0.098888	-1.726071	0.009239	NaN
132	1.000000	0.978975	7.36633e+06	-45239.1	955.82	-29773.6	0.000000	0.000000	6.979149	0.103313	NaN	0.000000	0.001540	0.001726	28.0806	0.010883	0.002111	5.154599	-52.2741	-164.884	0.027461	0.977620	-0.091232	-0.092587	0.103313	5.154599	-0.106265	-2.502676	-0.041281	NaN
132	1.000000	0.986979	7.36633e+06	-45239.1	955.819	-29773.6	0.000000	0.000000	6.987149	0.009123	NaN	0.000000	0.001497	0.001727	28.08	0.109285	0.001948	56.0968	174.96	-166.025	0.034553	0.985685	-0.083228	-0.084522	0.009123	56.0968	-0.083350	-0.749109	-0.012178	NaN
132	1.000000	0.994954	7.36633e+06	-45239.1	955.819	-29773.6	0.000000	0.000000	6.995124	0.019311	NaN	0.000000	0.001556	0.001707	28.0805	0.045235	0.002006	22.545	20.7501	-165.121	0.012371	0.993655	-0.075254	-0.076552	0.019311	22.545	-0.075896	-0.487116	-0.039643	NaN
132	1.000000	1.002978	7.36633e+06	-45239.1	955.819	-29773.6	0.000000	0.000000	7.003149	0.024245	NaN	0.000000	0.001536	0.001714	28.081	0.106736	0.001976	54.0104	-104.842	-162.161	-0.001583	1.001673	-0.067230	-0.068535	0.024245	54.0104	-0.067566	-0.293179	-0.082696	NaN
132	1.000000	1.010986	7.36633e+06	-45239.1	955.819	-29773.6	0.000000	0.000000	7.011157	0.026889	NaN	0.000000	0.001520	0.001723	28.0818	0.016099	0.001999	8.052034	124.813	-165.324	0.049161	1.009683	-0.059221	-0.060524	0.026889	8.052034	-0.061726	-0.201710	-0.133305	NaN
132	1.000000	1.018989	7.36633e+06	-45239.1	955.82	-29773.6	0.000000	0.000000	7.019160	0.023728	NaN	0.000000	0.001540	0.001694	28.0819	0.023030	0.002169	10.6155	-104.277	-165.432	0.029550	1.017634	-0.051218	-0.052573	0.023728	10.6155	-0.052895	-0.111499	-0.212808	NaN
132	1.000000	1.026953	7.36633e+06	-45239.1	955.819	-29773.6	0.000000	0.000000	7.027122	-0.005345	NaN	0.000000	0.001500	0.001752	28.082	0.006411	0.001991	3.220020	21.9836	-160.801	0.064524	1.025725	-0.043255	-0.044482	-0.005345	3.220020	-0.042010	-0.052067	0.102651	NaN
132	1.000000	1.034993	7.36633e+06	-45239.1	955.819	-29773.6	0.000000	0.000000	7.035161	-0.028181	NaN	0.000000	0.001524	0.001726	28.082	0.047829	0.001963	24.3603	-104.72	-164.798	-0.064238	1.033690	-0.035215	-0.036518	-0.028181	24.3603	-0.034347	-0.030641	0.919713	NaN
132	1.000000	1.043010	7.36633e+06	-45239.1	955.819	-29773.6	0.000000	0.000000	7.043181	0.038944	NaN	0.000000	0.001546	0.001759	28.083	0.027830	0.002018	13.7943	-74.0956	-163.766	0.070380	1.041672	-0.027198	-0.028535	0.038944	13.7943	-0.029315	-0.022028	-1.767960	NaN
132	1.000000	1.050997	7.36633e+06	-45239.1	955.821	-29773.6	0.000000	0.000000	7.051171	0.094620	NaN	0.000000	0.001568	0.001751	28.0813	0.046372	0.001930	24.021	124.08	-166.301	0.061304	1.049683	-0.019210	-0.020524	0.094620	24.021	-0.022164	-0.014258	-6.636385	NaN
132	1.000000	1.059007	7.36633e+06	-45239.1	955.82	-29773.6	0.000000	0.000000	7.059176	-0.033503	NaN	0.000000	0.001604	0.001707	28.0811	0.035723	0.002022	17.664	174.372	-163.81	0.037816	1.057720	-0.011200	-0.012487	-0.033503	17.664	-0.009777	-0.006260	5.351908	NaN
132	1.000000	1.066980	7.36633e+06	-45239.1	955.819	-29773.6	0.000000	0.000000	7.067150	0.014152	NaN	0.000000	0.001615	0.001711	28.0815	0.028815	0.001902	15.1491	-36.3624	-161.86	-0.010238	1.065659	-0.003228	-0.004548	0.014152	15.1491	-0.003928	-0.002732	-5.179117	NaN
132	1.000000	1.074950	7.36633e+06	-45239.1	955.82	-29773.6	0.000000	0.000000	7.075323	4.957242	NaN	0.000000	0.001613	0.001685	28.0815	5.162127	0.001918	2691.16	5.169016	-164.388	2.699928	1.073695	0.004742	0.003488	4.957242	2691.16	0.003361	0.002686	1845.69	47442.9
132	2.000000	1.079501	7.36633e+06	-45239.1	955.819	-29773.6	0.000000	0.000000	7.080155	11.7786	NaN	0.000000	0.001552	0.001715	28.0819	9.687403	0.001644	5893.92	6.554872	-174.082	11.2242	1.079257	0.009293	0.009050	11.7786	5893.92	0.007794	0.006832	1724.07	65149.1
132	2.000000	1.081467	7.36633e+06	-45239.1	955.819	-29773.6	0.000000	0.000000	7.082221	14.1963	NaN	0.000000	0.001566	0.001691	28.0832	10.7104	0.001582	6771.9	4.473108	-173.266	13.0904	1.081206	0.011260	0.010999	14.1963	6771.9	0.009688	0.008837	1606.55	65817.8
132	2.000000	1.083421	7.36633e+06	-45239.1	955.819	-29773.6	0.000000	0.000000	7.084339	18.2101	NaN	0.000000	0.001554	0.001704	28.0822	14.1372	0.001872	7550.6	6.027865	-173.945	16.6962	1.083114	0.013214	0.012906	18.2101	7550.6	0.011405	0.010785	1688.47	66427.2
132	2.000000	1.085453	7.36633e+06	-45239.1	955.82	-29773.6	0.000000	0.000000	7.086484	20.9521	NaN	0.000000	0.001530	0.001705	28.0821	15.0228	0.001784	8419.72	4.306069	-172.823	19.9666	1.085116	0.015245	0.014909	20.9521	8419.72	0.013379	0.013184	1589.17	66995
132	2.000000	1.087408	7.36633e+06	-45239.1	955.82	-29773.6	0.000000	0.000000	7.088466	21.6098	NaN	0.000000	0.001539	0.001754	28.0828	17.0415	0.001743	9779.79	5.105630	-175.707	20.5913	1.087123	0.017201	0.016916	21.6098	9779.79	0.015544	0.016017	1349.17	70601.1
132	2.000000	1.089487	7.36633e+06	-45239.1	955.821	-29773.6	0.000000	0.000000	7.090717	25.8132	NaN	0.000000	0.001536	0.001720	28.0822	19.1129	0.001819	10510.2	7.180648	-178.198	26.0797	1.089162	0.019279	0.018955	25.8132	10510.2	0.017437	0.018674	1382.3	70269
132	2.000000	1.091425	7.36633e+06	-45239.1	955.82	-29773.6	0.000000	0.000000	7.092931	32.5126	NaN	0.000000	0.001528	0.001737	28.0825	19.9809	0.001754	11390.9	4.305108	-173.529	33.8802	1.091101	0.021218	0.020893	32.5126	11390.9	0.019077	0.021113	1539.97	71624.4
132	2.000000	1.093387	7.36634e+06	-45239.1	955.82	-29773.6	0.000000	0.000000	7.095148	38.7023	NaN	0.000000	0.001550	0.001707	28.0832	22.9739	0.001819	12633.1	4.746648	-177.163	37.9036	1.093090	0.023180	0.022883	38.7023	12633.1	0.020882	0.023947	1616.15	74585.7
132	2.000000	1.095448	7.36634e+06	-45239.1	955.82	-29773.6	0.000000	0.000000	7.097302	40.9616	NaN	0.000000	0.001543	0.001727	28.0816	24.8543	0.001854	13406.2	7.118084	-178.159	41.6845	1.095165	0.025241	0.024957	40.9616	13406.2	0.022949	0.027390	1495.48	74008.4
132	2.000000	1.097428	7.36634e+06	-45239.1	955.819	-29773.6	0.000000	0.000000	7.099519	46.7273	NaN	0.000000	0.001568	0.001721	28.0822	26.0212	0.001881	13835.3	7.533396	-177.029	48.0126	1.097025	0.027221	0.026818	46.7273	13835.3	0.024688	0.030450	1534.57	72438.4
132	2.000000	1.099403	7.36634e+06	-45239.1	955.82	-29773.6	0.000000	0.000000	7.101892	56.4148	NaN	0.000000	0.001545	0.001695	28.081	28.8656	0.001784	16178	5.837596	179.815	56.0626	1.099078	0.029196	0.028871	56.4148	16178	0.026581	0.033954	1661.49	80214.2
132	2.000000	1.101355	7.36634e+06	-45239.1	955.819	-29773.6	0.000000	0.000000	7.103994	60.0653	NaN	0.000000	0.001559	0.001691	28.0817	29.6997	0.001811	16403.7	3.955167	-178.472	57.076	1.101026	0.031148	0.030818	60.0653	16403.7	0.028402	0.037496	1601.9	77396.3
132	2.000000	1.103396	7.36634e+06	-45239.1	955.82	-29773.6	0.000000	0.000000	7.106210	64.3211	NaN	0.000000	0.001552	0.001713	28.0818	32.2509	0.001902	16958.4	1.718883	-175.863	62.3871	1.103000	0.033189	0.032793	64.3211	16958.4	0.030344	0.041460	1551.39	76092.4
132	2.000000	1.105366	7.36634e+06	-45239.1	955.819	-29773.6	0.000000	0.000000	7.108509	72.3363	NaN	0.000000	0.001546	0.001684	28.0817	33.5628	0.001801	18634.6	4.071425	-179.146	69.5246	1.105014	0.035158	0.034806	72.3363	18634.6	0.032247	0.045530	1588.77	79789.6
132	2.000000	1.107335	7.36634e+06	-45239.1	955.819	-29773.6	0.000000	0.000000	7.110685	77.3475	NaN	0.000000	0.001548	0.001695	28.0825	34.8702	0.001668	20910.5	0.913220	-177.86	74.7265	1.107129	0.037128	0.036922	77.3475	20910.5	0.034354	0.050252	1539.19	85223.6
132	2.000000	1.109339	7.36634e+06	-45239.1	955.82	-29773.6	0.000000	0.000000	7.112984	84.526	NaN	0.000000	0.001574	0.001691	28.0807	38.8491	0.001912	20318.4	3.869251	-179.626	82.451	1.109015	0.039132	0.038808	84.526	20318.4	0.036012	0.054128	1561.59	79790.3
132	2.000000	1.111364	7.36634e+06	-45239.1	955.819	-29773.6	0.000000	0.000000	7.115306	91.7822	NaN	0.000000	0.001556	0.001710	28.0801	40.1261	0.001814	22123	6.937547	176.898	91.3968	1.111069	0.041156	0.040862	91.7822	22123	0.038045	0.059073	1553.7	83161.2
132	2.000000	1.113375	7.36634e+06	-45239.1	955.819	-29773.6	0.000000	0.000000	7.117550	97.4256	NaN	0.000000	0.001542	0.001731	28.0819	41.8135	0.001870	22358.8	4.806903	178.565	95.511	1.113117	0.043168	0.042909	97.4256	22358.8	0.039900	0.063770	1527.77	80893.6
132	2.000000	1.115364	7.36634e+06	-45239.1	955.819	-29773.6	0.000000	0.000000	7.119722	101.881	NaN	0.000000	0.001495	0.001694	28.0803	43.7555	0.001759	24881.2	3.558519	178.231	99.5034	1.115222	0.045157	0.045015	101.881	24881.2	0.042086	0.069531	1465.27	86209.7
132	2.000000	1.117396	7.36634e+06	-45239.1	955.819	-29773.6	0.000000	0.000000	7.122498	119.983	NaN	0.000000	0.001521	0.001680	28.0806	45.7249	0.001852	24683.6	7.640501	175.022	120.727	1.117046	0.047189	0.046839	119.983	24683.6	0.043543	0.073505	1632.3	83180.5
132	2.000000	1.119387	7.36634e+06	-45239.1	955.819	-29773.6	0.000000	0.000000	7.124551	121.506	NaN	0.000000	0.001524	0.001694	28.0815	48.26	0.001828	26393.3	5.326811	176.872	121.871	1.119083	0.049180	0.048876	121.506	26393.3	0.045727	0.079664	1525.23	85434.9
132	2.000000	1.121368	7.36634e+06	-45239.1	955.819	-29773.6	0.000000	0.000000	7.127035	133.74	NaN	0.000000	0.001553	0.001678	28.0808	48.4903	0.001831	26479.6	3.617015	178.73	133.451	1.121014	0.051161	0.050807	133.74	26479.6	0.047373	0.084466	1583.37	83242.3
132	2.000000	1.123400	7.36634e+06	-45239.1	955.819	-29773.6	0.000000	0.000000	7.129448	143.014	NaN	0.000000	0.001514	0.001687	28.082	51.5678	0.001868	27602.5	6.322050	175.679	144.424	1.123022	0.053192	0.052814	143.014	27602.5	0.049306	0.090281	1584.09	83931
132	2.000000	1.125390	7.36634e+06	-45239.1	955.819	-29773.6	0.000000	0.000000	7.131915	154.6	NaN	0.000000	0.001538	0.001674	28.0829	53.0865	0.001706	31116.2	6.541437	175.633	155.201	1.124948	0.055182	0.054740	154.6	31116.2	0.051456	0.096967	1594.36	91295.4
132	2.000000	1.127338	7.36634e+06	-45239.1	955.819	-29773.6	0.000000	0.000000	7.134233	163.592	NaN	0.000000	0.001513	0.001686	28.0821	54.4277	0.001644	33099.9	4.347384	175.896	161.583	1.127048	0.057131	0.056841	163.592	33099.9	0.053424	0.103290	1583.81	94095.6
132	2.000000	1.129338	7.36634e+06	-45239.1	955.819	-29773.6	0.000000	0.000000	7.136695	174.848	NaN	0.000000	0.001532	0.001683	28.082	58.0275	0.001815	31969.6	4.939718	176.192	174.477	1.129041	0.059130	0.058833	174.848	31969.6	0.055028	0.108587	1610.21	88638.3
132	2.000000	1.131333	7.36634e+06	-45239.1	955.819	-29773.6	0.000000	0.000000	7.139156	186.184	NaN	0.000000	0.001529	0.001711	28.0818	58.3766	0.001765	33069.7	3.947016	176.271	184.639	1.131027	0.061125	0.060819	186.184	33069.7	0.056903	0.114936	1619.89	89119.9
132	2.000000	1.133359	7.36634e+06	-45239.1	955.819	-29773.6	0.000000	0.000000	7.141344	190.119	NaN	0.000000	0.001496	0.001684	28.0812	61.9018	0.001829	33835.6	7.479837	173.646	190.585	1.133044	0.063152	0.062837	190.119	33835.6	0.058938	0.122026	1558.02	88495.5
132	2.000000	1.135395	7.36634e+06	-45239.1	955.819	-29773.6	0.000000	0.000000	7.143981	204.741	NaN	0.000000	0.001507	0.001713	28.0813	63.6074	0.001902	33447.8	3.647342	176.579	205.086	1.135096	0.065188	0.064889	204.741	33447.8	0.060597	0.127959	1600.05	85429.2
132	2.000000	1.137288	7.36634e+06	-45239.1	955.819	-29773.6	0.000000	0.000000	7.146399	217.525	NaN	0.000000	0.001525	0.001727	28.082	64.5778	0.001847	34957.4	4.237211	176.042	214.116	1.137003	0.067081	0.066796	217.525	34957.4	0.062414	0.134606	1616.02	87052.5
132	2.000000	1.139314	7.36634e+06	-45239.1	955.819	-29773.6	0.000000	0.000000	7.148940	230.042	NaN	0.000000	0.001518	0.001683	28.0819	68.112	0.001868	36464.7	9.246068	170.832	227.66	1.138879	0.069106	0.068672	230.042	36464.7	0.064375	0.141961	1620.45	88422
132	2.000000	1.141277	7.36634e+06	-45239.1	955.82	-29773.6	0.000000	0.000000	7.151616	247.398	NaN	0.000000	0.001529	0.001701	28.0836	66.6583	0.001741	38277.9	-0.883392	-179.462	244.083	1.140995	0.071070	0.070788	247.398	38277.9	0.066222	0.149061	1659.71	90581.4
132	2.000000	1.143201	7.36634e+06	-45239.1	955.819	-29773.6	0.000000	0.000000	7.153858	255.121	NaN	0.000000	0.001534	0.001715	28.0821	69.9512	0.001849	37828.8	4.045539	175.572	249.079	1.142957	0.072994	0.072750	255.121	37828.8	0.067936	0.155793	1637.57	87563.2
132	2.000000	1.145330	7.36634e+06	-45239.1	955.818	-29773.6	0.000000	0.000000	7.156408	265.356	NaN	0.000000	0.001511	0.001708	28.0839	71.9851	0.001817	39620.9	4.748281	174.789	264.533	1.145041	0.075123	0.074834	265.356	39620.9	0.070099	0.164493	1613.18	89253.3
132	2.000000	1.147387	7.36634e+06	-45239.1	955.818	-29773.6	0.000000	0.000000	7.158740	272.065	NaN	0.000000	0.001533	0.001728	28.0828	73.4763	0.001901	38650.5	8.385935	171.738	274.09	1.146922	0.077179	0.076715	272.065	38650.5	0.071900	0.171903	1582.67	85170
132	2.000000	1.149346	7.36634e+06	-45239.1	955.819	-29773.6	0.000000	0.000000	7.161252	285.522	NaN	0.000000	0.001542	0.001713	28.0843	75.4792	0.001821	41454.7	2.295821	176.383	285.323	1.149008	0.079138	0.078801	285.522	41454.7	0.073973	0.180622	1580.77	89117.1
132	2.000000	1.151287	7.36634e+06	-45239.1	955.819	-29773.6	0.000000	0.000000	7.163717	298.242	NaN	0.000000	0.001498	0.001710	28.081	76.3105	0.001881	40565.6	4.519593	174.384	295.968	1.151030	0.081080	0.080823	298.242	40565.6	0.075566	0.187463	1590.94	85600.1
132	2.000000	1.153382	7.36634e+06	-45239.1	955.818	-29773.6	0.000000	0.000000	7.166301	310.159	NaN	0.000000	0.001544	0.001723	28.0818	78.3811	0.001706	45936.2	4.281021	173.611	312.739	1.152957	0.083175	0.082750	310.159	45936.2	0.078111	0.198637	1561.43	94166.8
132	2.000000	1.155297	7.36634e+06	-45239.1	955.819	-29773.6	0.000000	0.000000	7.168991	329.012	NaN	0.000000	0.001519	0.001714	28.0825	81.6593	0.001794	45508	8.754071	169.232	325.667	1.154910	0.085089	0.084703	329.012	45508	0.079667	0.205619	1600.1	91691.5
132	2.000000	1.157256	7.36634e+06	-45239.1	955.818	-29773.6	0.000000	0.000000	7.171512	342.668	NaN	0.000000	0.001522	0.001677	28.0821	82.5117	0.001827	45151.2	4.248121	174.265	338.309	1.156979	0.087049	0.086772	342.668	45151.2	0.081357	0.213328	1606.3	89313.7
132	2.000000	1.159354	7.36634e+06	-45239.1	955.819	-29773.6	0.000000	0.000000	7.173651	343.67	NaN	0.000000	0.001538	0.001692	28.0834	84.5854	0.001848	45763.4	2.891460	174.755	342.453	1.159150	0.089147	0.088943	343.67	45763.4	0.083515	0.223367	1538.59	88467.2
132	2.000000	1.161202	7.36634e+06	-45239.1	955.817	-29773.6	0.000000	0.000000	7.176502	368.05	NaN	0.000000	0.001555	0.001682	28.0825	84.8978	0.001739	48825.1	3.114807	174.444	361.748	1.160994	0.090995	0.090786	368.05	48825.1	0.085342	0.232034	1586.19	92606.5
132	2.000000	1.163204	7.36634e+06	-45239.1	955.818	-29773.6	0.000000	0.000000	7.178940	378.674	NaN	0.000000	0.001604	0.001668	28.0834	87.5991	0.001835	47733.8	4.090407	173.41	373.106	1.162925	0.092997	0.092718	378.674	47733.8	0.087047	0.240263	1576.08	88972.5
132	2.000000	1.165300	7.36634e+06	-45239.1	955.817	-29773.6	0.000000	0.000000	7.181871	398.993	NaN	0.000000	0.001602	0.001718	28.0829	89.4164	0.001732	51631.5	2.507249	174.783	396.626	1.164909	0.095093	0.094702	398.993	51631.5	0.089297	0.251326	1587.55	94095.4
132	2.000000	1.167273	7.36634e+06	-45239.1	955.818	-29773.6	0.000000	0.000000	7.184640	418.361	NaN	0.000000	0.001575	0.001733	28.0826	90.9718	0.001794	50704.9	5.764369	171.909	415.804	1.166917	0.097065	0.096710	418.361	50704.9	0.090877	0.259233	1613.84	90986.7
132	2.000000	1.169267	7.36634e+06	-45239.1	955.817	-29773.6	0.000000	0.000000	7.186922	425.371	NaN	0.000000	0.001563	0.001712	28.0824	94.4312	0.001889	49981.3	3.353251	173.868	420.949	1.169071	0.099060	0.098864	425.371	49981.3	0.092677	0.268378	1584.97	88147
132	2.000000	1.171144	7.36634e+06	-45239.1	955.818	-29773.6	0.000000	0.000000	7.189787	449.395	NaN	0.000000	0.001548	0.001681	28.0812	94.1177	0.001720	54720.2	5.445012	171.48	440.662	1.170932	0.100936	0.100725	449.395	54720.2	0.094777	0.279239	1609.36	94609.2
132	2.000000	1.173212	7.36634e+06	-45239.1	955.819	-29773.6	0.000000	0.000000	7.192268	459.446	NaN	0.000000	0.001511	0.001633	28.0811	96.2575	0.001744	55203.9	1.476370	175.151	453.63	1.172933	0.103005	0.102725	459.446	55203.9	0.096763	0.289693	1585.98	93707.4
132	2.000000	1.175356	7.36634e+06	-45239.1	955.819	-29773.6	0.000000	0.000000	7.195064	475.302	NaN	0.000000	0.001551	0.001678	28.0817	100.108	0.001823	54905.8	6.547194	170.204	476.31	1.175047	0.105148	0.104840	475.302	54905.8	0.098656	0.299826	1585.26	91612.9
132	2.000000	1.176758	7.36634e+06	-45239.1	955.819	-29773.6	0.000000	0.000000	7.196949	487.066	NaN	0.000000	0.001586	0.001671	28.1151	102.131	0.001949	52404.1	6.415548	-9.454996	482.905	1.176470	0.106551	0.106262	487.066	52404.1	0.099580	0.304830	1597.83	86718.1