File: remote_trans/data/nanoindenter/0828-1/data/Data_2025-08-06,11h17m57s/2025-07-22_16-23-58_1_410.txt
2025-07-22, 16:23:58, 1
Index	Phase	Displacement	Time	Pos X	Pos Y	Pos Z	Rot A	Rot B	Piezo Z	Force A	Force B	Gripper	Voltage A	Voltage B	Temperature	Amplitude force	Amplitude pos	Stiffness	Phase shift	Phase excitation	Force A raw	Displacement raw	HMax	HMax raw	Real Force	Real Stiffness	Contact Depth	Area	Hardness	Reduced Mod.
[#]	[#]	[um]	[s]	[um]	[um]	[um]	[m°]	[m°]	[um]	[uN]	[uN]	[V]	[V]	[V]	[°C]	[uN]	[um]	[N/m]	[°]	[°]	[uN]	[um]	[um]	[um]	[uN]	[N/m]	[um]	[um^2]	[MPa]	[MPa]
410	1.000000	0.002479	7.36907e+06	-56589.1	1005.82	-29738.8	0.000000	0.000000	6.002829	0.027581	NaN	0.000000	0.001700	0.001594	28.0801	0.058850	0.000877	67.1246	-1.140612	-162.149	0.016893	0.001117	-1.050708	-1.052070	0.027581	67.1246	-1.051016	-1.101724E+14	-2.503422E-16	NaN
410	1.000000	0.010421	7.36907e+06	-56589.1	1005.82	-29738.8	0.000000	0.000000	6.010773	0.097272	NaN	0.000000	0.001642	0.001600	28.0804	0.048669	0.001097	44.3652	-99.4099	-163.118	0.088741	0.009125	-1.042766	-1.044062	0.097272	44.3652	-1.044410	-8.979806E+13	-1.083225E-15	NaN
410	1.000000	0.018422	7.36907e+06	-56589.1	1005.82	-29738.8	0.000000	0.000000	6.018771	0.012090	NaN	0.000000	0.001617	0.001605	28.0801	0.058297	0.001824	31.9569	-1.085860	-168.815	0.033824	0.017108	-1.034765	-1.036079	0.012090	31.9569	-1.035049	-6.720250E+13	-1.799069E-16	NaN
410	1.000000	0.026416	7.36907e+06	-56589.1	1005.82	-29738.8	0.000000	0.000000	6.026767	0.079416	NaN	0.000000	0.001592	0.001608	28.0803	0.071976	0.001977	36.4049	89.0616	-167.195	0.112707	0.025057	-1.026772	-1.028131	0.079416	36.4049	-1.028408	-5.470941E+13	-1.451606E-15	NaN
410	1.000000	0.034417	7.36907e+06	-56589.1	1005.82	-29738.8	0.000000	0.000000	6.034764	-0.036302	NaN	0.000000	0.001598	0.001607	28.0802	0.114008	0.001890	60.327	-134.838	-168.131	0.008140	0.033052	-1.018770	-1.020136	-0.036302	60.327	-1.018319	-4.002481E+13	9.069994E-16	NaN
410	1.000000	0.042371	7.36907e+06	-56589.1	1005.82	-29738.8	0.000000	0.000000	6.042718	-0.013300	NaN	0.000000	0.001620	0.001592	28.0801	0.122006	0.001864	65.4607	-48.3721	-165.817	0.021427	0.041100	-1.010816	-1.012088	-0.013300	65.4607	-1.010664	-3.157314E+13	4.212286E-16	NaN
410	1.000000	0.050398	7.36907e+06	-56589.1	1005.82	-29738.8	0.000000	0.000000	6.050747	0.031964	NaN	0.000000	0.001623	0.001599	28.0804	0.141367	0.002030	69.6381	97.8559	-169.613	0.036484	0.049101	-1.002789	-1.004086	0.031964	69.6381	-1.003133	-2.500079E+13	-1.278529E-15	NaN
410	1.000000	0.058382	7.36907e+06	-56589.1	1005.82	-29738.8	0.000000	0.000000	6.058732	0.040434	NaN	0.000000	0.001628	0.001602	28.0802	0.057527	0.002035	28.2715	54.1042	-170.385	0.043102	0.057058	-0.994805	-0.996129	0.040434	28.2715	-0.995878	-1.996474E+13	-2.025264E-15	NaN
410	1.000000	0.066423	7.36907e+06	-56589.1	1005.82	-29738.8	0.000000	0.000000	6.066772	0.010534	NaN	0.000000	0.001587	0.001569	28.0803	0.068918	0.001904	36.2036	-154.276	-167.718	0.087214	0.065087	-0.986764	-0.988100	0.010534	36.2036	-0.986982	-1.515183E+13	-6.952409E-16	NaN
410	1.000000	0.074450	7.36907e+06	-56589.1	1005.82	-29738.8	0.000000	0.000000	6.074799	0.000225	NaN	0.000000	0.001644	0.001588	28.0803	0.018435	0.002014	9.154960	-39.7714	-162.398	-0.047477	0.073140	-0.978737	-0.980047	0.000225	9.154960	-0.978755	-1.173921E+13	-1.913343E-17	NaN
410	1.000000	0.082405	7.36907e+06	-56589.1	1005.82	-29738.8	0.000000	0.000000	6.082754	0.015232	NaN	0.000000	0.001603	0.001643	28.0802	0.048087	0.002110	22.7903	-56.742	-166.285	0.024015	0.081095	-0.970782	-0.972092	0.015232	22.7903	-0.971283	-9.310181E+12	-1.636023E-15	NaN
410	1.000000	0.090430	7.36907e+06	-56589.1	1005.82	-29738.8	0.000000	0.000000	6.090778	0.004823	NaN	0.000000	0.001599	0.001644	28.0803	0.105903	0.001971	53.718	-77.0275	-163.341	-0.038163	0.089104	-0.962757	-0.964083	0.004823	53.718	-0.962825	-7.160587E+12	-6.735236E-16	NaN
410	1.000000	0.098403	7.36907e+06	-56589.1	1005.82	-29738.8	0.000000	0.000000	6.098755	0.099025	NaN	0.000000	0.001609	0.001625	28.0799	0.074740	0.001937	38.5848	129.352	-167.166	0.073102	0.097107	-0.954784	-0.956080	0.099025	38.5848	-0.956709	-5.922386E+12	-1.672049E-14	NaN
410	1.000000	0.106448	7.36907e+06	-56589.1	1005.82	-29738.8	0.000000	0.000000	6.106797	0.025643	NaN	0.000000	0.001589	0.001602	28.0804	0.056389	0.001995	28.2703	13.7008	-165.172	-0.004344	0.105087	-0.946739	-0.948100	0.025643	28.2703	-0.947419	-4.438330E+12	-5.777589E-15	NaN
410	1.000000	0.114432	7.36907e+06	-56589.1	1005.82	-29738.8	0.000000	0.000000	6.114779	-0.026864	NaN	0.000000	0.001593	0.001574	28.0801	0.022686	0.001962	11.5645	-91.9621	-165.013	-0.014438	0.113109	-0.938755	-0.940079	-0.026864	11.5645	-0.937013	-3.212429E+12	8.362420E-15	NaN
410	1.000000	0.122438	7.36907e+06	-56589.1	1005.82	-29738.8	0.000000	0.000000	6.122787	0.019588	NaN	0.000000	0.001576	0.001621	28.0816	0.064776	0.001918	33.7679	106.881	-166.317	0.038220	0.121162	-0.930750	-0.932025	0.019588	33.7679	-0.931185	-2.680309E+12	-7.308005E-15	NaN
410	1.000000	0.130427	7.36907e+06	-56589.1	1005.82	-29738.8	0.000000	0.000000	6.130776	0.026741	NaN	0.000000	0.001589	0.001593	28.0819	0.072501	0.001874	38.6846	166.514	-165.859	0.006123	0.129120	-0.922760	-0.924067	0.026741	38.6846	-0.923279	-2.096388E+12	-1.275558E-14	NaN
410	1.000000	0.138448	7.36907e+06	-56589.1	1005.82	-29738.8	0.000000	0.000000	6.138797	0.012020	NaN	0.000000	0.001563	0.001614	28.0814	0.121703	0.002092	58.18	-126.915	-166.816	0.005827	0.137161	-0.914739	-0.916026	0.012020	58.18	-0.914894	-1.615316E+12	-7.441310E-15	NaN
410	1.000000	0.146460	7.36907e+06	-56589.1	1005.82	-29738.8	0.000000	0.000000	6.146810	0.045063	NaN	0.000000	0.001586	0.001597	28.0816	0.038016	0.001996	19.0464	140.987	-164.34	0.035034	0.145174	-0.906727	-0.908013	0.045063	19.0464	-0.908502	-1.324106E+12	-3.403269E-14	NaN
410	1.000000	0.154458	7.36907e+06	-56589.1	1005.82	-29738.8	0.000000	0.000000	6.154808	0.055302	NaN	0.000000	0.001591	0.001629	28.0814	0.029899	0.002101	14.2284	85.26	-165.301	0.065046	0.153145	-0.898729	-0.900042	0.055302	14.2284	-0.901644	-1.069758E+12	-5.169599E-14	NaN
410	1.000000	0.162434	7.36907e+06	-56589.1	1005.82	-29738.8	0.000000	0.000000	6.162782	-0.013074	NaN	0.000000	0.001593	0.001596	28.0816	0.105167	0.001865	56.3762	-123.214	-163.788	-0.004638	0.161130	-0.890753	-0.892058	-0.013074	56.3762	-0.890579	-7.581256E+11	1.724482E-14	NaN
410	1.000000	0.170457	7.36907e+06	-56589.1	1005.82	-29738.8	0.000000	0.000000	6.170806	0.022022	NaN	0.000000	0.001611	0.001597	28.0818	0.040382	0.001997	20.2255	-32.1174	-166.717	0.011651	0.169168	-0.882730	-0.884019	0.022022	20.2255	-0.883546	-6.090665E+11	-3.615724E-14	NaN
410	1.000000	0.178450	7.36907e+06	-56589.1	1005.82	-29738.8	0.000000	0.000000	6.178800	0.042791	NaN	0.000000	0.001596	0.001609	28.0815	0.026080	0.002005	13.0054	-48.9849	-165.808	0.122756	0.177086	-0.874737	-0.876101	0.042791	13.0054	-0.877205	-4.999278E+11	-8.559498E-14	NaN
410	1.000000	0.186449	7.36907e+06	-56589.1	1005.82	-29738.8	0.000000	0.000000	6.186798	0.029580	NaN	0.000000	0.001599	0.001580	28.0816	0.110671	0.001955	56.621	-127.582	-167.029	0.073289	0.185104	-0.866738	-0.868083	0.029580	56.621	-0.867130	-3.652685E+11	-8.098228E-14	NaN
410	1.000000	0.194457	7.36907e+06	-56589.1	1005.82	-29738.8	0.000000	0.000000	6.194808	0.057738	NaN	0.000000	0.001606	0.001546	28.0815	0.085042	0.002002	42.4827	44.4876	-166.991	0.054970	0.193153	-0.858730	-0.860034	0.057738	42.4827	-0.859749	-2.902206E+11	-1.989467E-13	NaN
410	1.000000	0.202473	7.36907e+06	-56589.1	1005.82	-29738.8	0.000000	0.000000	6.202821	-0.003415	NaN	0.000000	0.001585	0.001574	28.0817	0.050107	0.001997	25.0885	102.662	-164.93	-0.012005	0.201157	-0.850714	-0.852030	-0.003415	25.0885	-0.850612	-2.182857E+11	1.564324E-14	NaN
410	1.000000	0.210480	7.36907e+06	-56589.1	1005.82	-29738.8	0.000000	0.000000	6.210827	-0.036665	NaN	0.000000	0.001602	0.001592	28.0813	0.106431	0.001963	54.2235	37.131	-163.676	-0.068288	0.209118	-0.842707	-0.844069	-0.036665	54.2235	-0.842200	-1.679185E+11	2.183504E-13	NaN
410	1.000000	0.218474	7.36907e+06	-56589.1	1005.82	-29738.8	0.000000	0.000000	6.218821	-0.026373	NaN	0.000000	0.001559	0.001610	28.0814	0.014214	0.002004	7.092120	126.219	-167.873	-0.011742	0.217199	-0.834713	-0.835989	-0.026373	7.092120	-0.831924	-1.218599E+11	2.164196E-13	NaN
410	1.000000	0.226455	7.36907e+06	-56589.1	1005.82	-29738.8	0.000000	0.000000	6.226807	0.082845	NaN	0.000000	0.001554	0.001621	28.0816	0.066850	0.001920	34.8162	-76.5631	-163.573	0.001582	0.225170	-0.826732	-0.828017	0.082845	34.8162	-0.828517	-1.095663E+11	-7.561158E-13	NaN
410	1.000000	0.234491	7.36907e+06	-56589.1	1005.82	-29738.8	0.000000	0.000000	6.234842	0.070624	NaN	0.000000	0.001543	0.001585	28.0816	0.056114	0.001966	28.5381	-116.197	-165.606	0.093845	0.233083	-0.818696	-0.820104	0.070624	28.5381	-0.820552	-8.544825E+10	-8.265080E-13	NaN
410	1.000000	0.242462	7.36907e+06	-56589.1	1005.82	-29738.8	0.000000	0.000000	6.242809	-0.011612	NaN	0.000000	0.001531	0.001626	28.0816	0.048554	0.002047	23.7195	-7.153429	-168.281	-0.010097	0.241157	-0.810725	-0.812030	-0.011612	23.7195	-0.810358	-6.214876E+10	1.868409E-13	NaN
410	1.000000	0.250453	7.36907e+06	-56589.1	1005.82	-29738.8	0.000000	0.000000	6.250802	0.039032	NaN	0.000000	0.001550	0.001608	28.0813	0.092258	0.001995	46.2533	-174.158	-163.846	0.030280	0.249164	-0.802735	-0.804023	0.039032	46.2533	-0.803368	-4.995412E+10	-7.813583E-13	NaN
410	1.000000	0.258486	7.36907e+06	-56589.1	1005.82	-29738.8	0.000000	0.000000	6.258834	0.004681	NaN	0.000000	0.001569	0.001587	28.0801	0.090838	0.002054	44.2266	141.683	-163.814	0.003721	0.257159	-0.794701	-0.796028	0.004681	44.2266	-0.794781	-3.819489E+10	-1.225607E-13	NaN
410	1.000000	0.266469	7.36907e+06	-56589.1	1005.82	-29738.8	0.000000	0.000000	6.266816	-0.008404	NaN	0.000000	0.001568	0.001579	28.0803	0.107514	0.002089	51.4785	157.204	-167.605	-0.016966	0.265168	-0.786719	-0.788019	-0.008404	51.4785	-0.786596	-2.956994E+10	2.842153E-13	NaN
410	1.000000	0.274483	7.36907e+06	-56589.1	1005.82	-29738.8	0.000000	0.000000	6.274830	-0.037535	NaN	0.000000	0.001557	0.001584	28.0803	0.097661	0.002006	48.692	-132.141	-168.78	-0.010268	0.273175	-0.778704	-0.780012	-0.037535	48.692	-0.778126	-2.268619E+10	1.654520E-12	NaN
410	1.000000	0.282513	7.36907e+06	-56589.1	1005.82	-29738.8	0.000000	0.000000	6.282860	-0.024016	NaN	0.000000	0.001626	0.001577	28.0802	0.159345	0.002051	77.7062	157.802	-167.721	0.045947	0.281187	-0.770675	-0.772000	-0.024016	77.7062	-0.770443	-1.783713E+10	1.346415E-12	NaN
410	1.000000	0.290500	7.36907e+06	-56589.1	1005.82	-29738.8	0.000000	0.000000	6.290850	0.051873	NaN	0.000000	0.001574	0.001576	28.08	0.140812	0.002003	70.3107	-104.048	-163.847	0.046596	0.289178	-0.762687	-0.764009	0.051873	70.3107	-0.763241	-1.423595E+10	-3.643839E-12	NaN
410	1.000000	0.298527	7.36907e+06	-56589.1	1005.82	-29738.8	0.000000	0.000000	6.298874	-0.043228	NaN	0.000000	0.001560	0.001583	28.0803	0.029793	0.001999	14.9061	-106.756	-167.571	-0.042240	0.297211	-0.754660	-0.755976	-0.043228	14.9061	-0.752485	-1.016343E+10	4.253295E-12	NaN
410	1.000000	0.306496	7.36907e+06	-56589.1	1005.82	-29738.8	0.000000	0.000000	6.306846	0.035282	NaN	0.000000	0.001590	0.001623	28.0802	0.108856	0.001999	54.4664	47.8886	-165.841	0.053341	0.305238	-0.746691	-0.747949	0.035282	54.4664	-0.747177	-8.605731E+9	-4.099828E-12	NaN
410	1.000000	0.314506	7.36907e+06	-56589.1	1005.82	-29738.8	0.000000	0.000000	6.314857	0.082864	NaN	0.000000	0.001589	0.001574	28.0802	0.079179	0.002107	37.5721	-179.349	-167.375	-0.019672	0.313211	-0.738681	-0.739976	0.082864	37.5721	-0.740335	-6.944245E+9	-1.193283E-11	NaN
410	1.000000	0.322518	7.36907e+06	-56589.1	1005.82	-29738.8	0.000000	0.000000	6.322867	0.022784	NaN	0.000000	0.001548	0.001584	28.08	0.124884	0.002089	59.7784	125.587	-165.805	0.011916	0.321213	-0.730669	-0.731975	0.022784	59.7784	-0.730955	-5.173989E+9	-4.403492E-12	NaN
410	1.000000	0.330514	7.36907e+06	-56589.1	1005.82	-29738.8	0.000000	0.000000	6.330862	-0.006983	NaN	0.000000	0.001606	0.001591	28.0801	0.077803	0.001905	40.8515	-110.925	-166.879	-0.045143	0.329222	-0.722673	-0.723965	-0.006983	40.8515	-0.722545	-3.973530E+9	1.757283E-12	NaN
410	1.000000	0.338521	7.36907e+06	-56589.1	1005.82	-29738.8	0.000000	0.000000	6.338869	-0.010554	NaN	0.000000	0.001581	0.001599	28.0803	0.032799	0.002006	16.3492	80.0323	-164.988	-0.010342	0.337223	-0.714666	-0.715964	-0.010554	16.3492	-0.714182	-3.055715E+9	3.453849E-12	NaN
410	1.000000	0.346513	7.36907e+06	-56589.1	1005.82	-29738.8	0.000000	0.000000	6.346862	0.030421	NaN	0.000000	0.001590	0.001601	28.0801	0.095068	0.001826	52.0567	76.1679	-167.318	0.029446	0.345231	-0.706674	-0.707956	0.030421	52.0567	-0.707113	-2.447048E+9	-1.243188E-11	NaN
410	1.000000	0.354531	7.36907e+06	-56589.1	1005.82	-29738.8	0.000000	0.000000	6.354882	0.066611	NaN	0.000000	0.001603	0.001582	28.0803	0.079634	0.001861	42.7959	121.127	-167.691	0.045652	0.353172	-0.698656	-0.700015	0.066611	42.7959	-0.699823	-1.945889E+9	-3.423148E-11	NaN
410	1.000000	0.362523	7.36907e+06	-56589.1	1005.82	-29738.8	0.000000	0.000000	6.362875	0.088769	NaN	0.000000	0.001552	0.001602	28.0803	0.085058	0.001992	42.6932	-42.6906	-166.1	0.108429	0.361235	-0.690664	-0.691953	0.088769	42.6932	-0.692224	-1.532170E+9	-5.793696E-11	NaN
410	1.000000	0.370556	7.36907e+06	-56589.1	1005.82	-29738.8	0.000000	0.000000	6.370905	0.036804	NaN	0.000000	0.001548	0.001553	28.0802	0.066604	0.001905	34.9625	-167.229	-167.763	0.045623	0.369264	-0.682631	-0.683923	0.036804	34.9625	-0.683421	-1.161408E+9	-3.168918E-11	NaN
410	1.000000	0.378538	7.36907e+06	-56589.1	1005.82	-29738.8	0.000000	0.000000	6.378886	-0.009044	NaN	0.000000	0.001592	0.001609	28.0802	0.066487	0.001924	34.5591	-96.0213	-165.537	-0.001435	0.377186	-0.674649	-0.676001	-0.009044	34.5591	-0.674453	-8.756312E+8	1.032906E-11	NaN
410	1.000000	0.386566	7.36907e+06	-56589.1	1005.82	-29738.8	0.000000	0.000000	6.386912	-0.053652	NaN	0.000000	0.001614	0.001595	28.08	0.090106	0.002149	41.936	142.765	-168.145	-0.024328	0.385243	-0.666621	-0.667944	-0.053652	41.936	-0.665662	-6.637519E+8	8.083183E-11	NaN
410	1.000000	0.394539	7.36907e+06	-56589.1	1005.82	-29738.8	0.000000	0.000000	6.394887	-0.001524	NaN	0.000000	0.001633	0.001550	28.0813	0.043960	0.002029	21.6607	-1.394659	-166.401	-0.004061	0.393280	-0.658649	-0.659907	-0.001524	21.6607	-0.658596	-5.311702E+8	2.868376E-12	NaN
410	1.000000	0.402544	7.36907e+06	-56589.1	1005.82	-29738.8	0.000000	0.000000	6.402891	-0.026496	NaN	0.000000	0.001597	0.001572	28.0817	0.045800	0.002108	21.7273	-28.8897	-168.81	-0.018303	0.401184	-0.650643	-0.652003	-0.026496	21.7273	-0.649728	-4.015248E+8	6.598963E-11	NaN
410	1.000000	0.410523	7.36907e+06	-56589.1	1005.82	-29738.8	0.000000	0.000000	6.410875	0.099564	NaN	0.000000	0.001593	0.001579	28.0816	0.019432	0.002096	9.270141	-144.512	-168.013	0.081467	0.409275	-0.642665	-0.643912	0.099564	9.270141	-0.650720	-4.142896E+8	-2.403247E-10	NaN
410	1.000000	0.418533	7.36907e+06	-56589.1	1005.82	-29738.8	0.000000	0.000000	6.418882	0.016721	NaN	0.000000	0.001631	0.001585	28.0815	0.069001	0.002112	32.6691	137.583	-167.044	-0.030168	0.417212	-0.634654	-0.635975	0.016721	32.6691	-0.635038	-2.524583E+8	-6.623153E-11	NaN
410	1.000000	0.426531	7.36907e+06	-56589.1	1005.82	-29738.8	0.000000	0.000000	6.426881	0.030773	NaN	0.000000	0.001646	0.001590	28.0814	0.087266	0.001854	47.0771	159.703	-164.767	-0.048435	0.425217	-0.626656	-0.627971	0.030773	47.0771	-0.627146	-1.967114E+8	-1.564360E-10	NaN
410	1.000000	0.434559	7.36907e+06	-56589.1	1005.82	-29738.8	0.000000	0.000000	6.434909	0.036748	NaN	0.000000	0.001625	0.001588	28.0813	0.095672	0.002184	43.8004	-172.634	-170.19	0.074973	0.433305	-0.618628	-0.619882	0.036748	43.8004	-0.619257	-1.532589E+8	-2.397799E-10	NaN
410	1.000000	0.442565	7.36907e+06	-56589.1	1005.82	-29738.8	0.000000	0.000000	6.442912	-0.029525	NaN	0.000000	0.001608	0.001583	28.0816	0.085388	0.002033	42.0018	21.5125	-167.19	0.057157	0.441203	-0.610622	-0.611984	-0.029525	42.0018	-0.610095	-1.146618E+8	2.575001E-10	NaN
410	1.000000	0.450567	7.36907e+06	-56589.1	1005.82	-29738.8	0.000000	0.000000	6.450916	0.018523	NaN	0.000000	0.001647	0.001588	28.0816	0.045927	0.001818	25.268	11.9756	-161.324	0.078681	0.449240	-0.602620	-0.603947	0.018523	25.268	-0.603170	-9.206790E+7	-2.011861E-10	NaN
410	1.000000	0.458536	7.36907e+06	-56589.1	1005.82	-29738.8	0.000000	0.000000	6.458883	-0.017576	NaN	0.000000	0.001601	0.001593	28.0815	0.096667	0.001989	48.5937	-150.304	-165.117	0.068656	0.457269	-0.594651	-0.595918	-0.017576	48.5937	-0.594380	-6.966860E+7	2.522866E-10	NaN
410	1.000000	0.466542	7.36907e+06	-56589.1	1005.82	-29738.8	0.000000	0.000000	6.466894	0.095128	NaN	0.000000	0.001621	0.001572	28.0814	0.115411	0.001983	58.1861	-117.604	-169.373	0.069501	0.465250	-0.586645	-0.587937	0.095128	58.1861	-0.587871	-5.666502E+7	-1.678781E-9	NaN
410	1.000000	0.474571	7.36907e+06	-56589.1	1005.82	-29738.8	0.000000	0.000000	6.474921	0.065868	NaN	0.000000	0.001621	0.001545	28.0812	0.091265	0.002059	44.3196	114.939	-163.441	-0.005336	0.473288	-0.578617	-0.579899	0.065868	44.3196	-0.579731	-4.375397E+7	-1.505427E-9	NaN
410	1.000000	0.482596	7.36907e+06	-56589.1	1005.82	-29738.8	0.000000	0.000000	6.482943	-0.025496	NaN	0.000000	0.001626	0.001518	28.0815	0.044731	0.001889	23.6823	-139.513	-166.837	-0.022865	0.481291	-0.570591	-0.571896	-0.025496	23.6823	-0.569784	-3.188908E+7	7.995093E-10	NaN
410	1.000000	0.490604	7.36907e+06	-56589.1	1005.82	-29738.8	0.000000	0.000000	6.490955	0.069785	NaN	0.000000	0.001588	0.001570	28.0813	0.058356	0.002056	28.3763	63.3569	-168.482	0.016868	0.489301	-0.562583	-0.563887	0.069785	28.3763	-0.564428	-2.689139E+7	-2.595050E-9	NaN
410	1.000000	0.498602	7.36907e+06	-56589.1	1005.82	-29738.8	0.000000	0.000000	6.498954	0.100864	NaN	0.000000	0.001581	0.001539	28.0812	0.027690	0.001862	14.8722	14.0546	-166.214	0.065670	0.497310	-0.554585	-0.555877	0.100864	14.8722	-0.559672	-2.311180E+7	-4.364178E-9	NaN
410	1.000000	0.506590	7.36907e+06	-56589.1	1005.82	-29738.8	0.000000	0.000000	6.506939	0.021020	NaN	0.000000	0.001620	0.001531	28.0815	0.071456	0.002034	35.1282	94.3806	-169.013	0.023659	0.505291	-0.546597	-0.547896	0.021020	35.1282	-0.547046	-1.545353E+7	-1.360218E-9	NaN
410	1.000000	0.514590	7.36907e+06	-56589.1	1005.82	-29738.8	0.000000	0.000000	6.514940	0.045358	NaN	0.000000	0.001588	0.001545	28.0813	0.100044	0.002156	46.394	-86.8373	-165.657	-0.006035	0.513276	-0.538598	-0.539911	0.045358	46.394	-0.539331	-1.208028E+7	-3.754694E-9	NaN
410	1.000000	0.522594	7.36907e+06	-56589.1	1005.82	-29738.8	0.000000	0.000000	6.522942	-0.016728	NaN	0.000000	0.001624	0.001534	28.0815	0.059100	0.002054	28.7709	157.155	-169.68	0.026986	0.521261	-0.530593	-0.531926	-0.016728	28.7709	-0.530157	-9.01065e+06	1.856469E-9	NaN
410	1.000000	0.530623	7.36907e+06	-56589.1	1005.82	-29738.8	0.000000	0.000000	6.530970	-0.020509	NaN	0.000000	0.001624	0.001531	28.08	0.104683	0.002065	50.6897	117.23	-165.476	-0.000572	0.529281	-0.522564	-0.523906	-0.020509	50.6897	-0.522261	-6.99897e+06	2.930257E-9	NaN
410	1.000000	0.538598	7.36907e+06	-56589.1	1005.82	-29738.8	0.000000	0.000000	6.538947	0.013498	NaN	0.000000	0.001577	0.001563	28.08	0.038550	0.002117	18.2053	87.2275	-165.651	0.029068	0.537271	-0.514589	-0.515916	0.013498	18.2053	-0.515145	-5.57258e+06	-2.422236E-9	NaN
410	1.000000	0.546599	7.36907e+06	-56589.1	1005.82	-29738.8	0.000000	0.000000	6.546947	0.006132	NaN	0.000000	0.001601	0.001587	28.0799	0.060106	0.001918	31.3461	120.01	-166.632	-0.059364	0.545294	-0.506588	-0.507894	0.006132	31.3461	-0.506735	-4.25527e+06	-1.440938E-9	NaN
410	1.000000	0.554621	7.36907e+06	-56589.1	1005.82	-29738.8	0.000000	0.000000	6.554970	0.026174	NaN	0.000000	0.001624	0.001586	28.0802	0.109434	0.001904	57.4697	84.3879	-166.108	0.017449	0.553297	-0.498566	-0.499890	0.026174	57.4697	-0.498908	-3.30964e+06	-7.908353E-9	NaN
410	1.000000	0.562603	7.36907e+06	-56589.1	1005.82	-29738.8	0.000000	0.000000	6.562951	-0.011713	NaN	0.000000	0.001603	0.001562	28.0802	0.092383	0.002043	45.2161	38.5419	-163.69	-0.021593	0.561329	-0.490584	-0.491859	-0.011713	45.2161	-0.490390	-2.51676e+06	4.654117E-9	NaN
410	1.000000	0.570636	7.36907e+06	-56589.1	1005.82	-29738.8	0.000000	0.000000	6.570983	-0.020929	NaN	0.000000	0.001589	0.001579	28.08	0.103507	0.002023	51.1577	-53.6488	-168.172	0.037369	0.569289	-0.482552	-0.483899	-0.020929	51.1577	-0.482245	-1.93618e+06	1.080959E-8	NaN
410	1.000000	0.578661	7.36907e+06	-56589.1	1005.82	-29738.8	0.000000	0.000000	6.579009	0.002011	NaN	0.000000	0.001585	0.001565	28.0801	0.027427	0.001922	14.2721	61.4002	-166.054	0.035832	0.577348	-0.474526	-0.475839	0.002011	14.2721	-0.474632	-1.51475e+06	-1.327539E-9	NaN
410	1.000000	0.586656	7.36907e+06	-56589.1	1005.82	-29738.8	0.000000	0.000000	6.587005	0.029253	NaN	0.000000	0.001568	0.001563	28.0806	0.067833	0.001986	34.1619	-3.387942	-165.344	-0.091890	0.585267	-0.466532	-0.467920	0.029253	34.1619	-0.467174	-1.19058e+06	-2.457037E-8	NaN
410	1.000000	0.594640	7.36907e+06	-56589.1	1005.82	-29738.8	0.000000	0.000000	6.594988	0.004115	NaN	0.000000	0.001603	0.001566	28.0799	0.045596	0.001870	24.3824	2.982017	-165.008	0.064298	0.593266	-0.458547	-0.459921	0.004115	24.3824	-0.458674	-904441	-4.549541E-9	NaN
410	1.000000	0.602635	7.36907e+06	-56589.1	1005.82	-29738.8	0.000000	0.000000	6.602986	0.054435	NaN	0.000000	0.001593	0.001552	28.08	0.014939	0.002059	7.256877	148.592	-166.259	0.122063	0.601323	-0.450552	-0.451864	0.054435	7.256877	-0.456178	-834225	-6.525167E-8	NaN
410	1.000000	0.610653	7.36907e+06	-56589.1	1005.82	-29738.8	0.000000	0.000000	6.611001	0.007252	NaN	0.000000	0.001582	0.001575	28.0801	0.043330	0.002057	21.0671	-115.976	-167.117	0.054042	0.609354	-0.442534	-0.443833	0.007252	21.0671	-0.442793	-540461	-1.341832E-8	NaN
410	1.000000	0.618633	7.36907e+06	-56589.1	1005.82	-29738.8	0.000000	0.000000	6.618984	0.060192	NaN	0.000000	0.001598	0.001586	28.0799	0.117022	0.001928	60.7007	-74.7295	-169.08	0.088785	0.617316	-0.434554	-0.435871	0.060192	60.7007	-0.435298	-423608	-1.420933E-7	NaN
410	1.000000	0.626643	7.36907e+06	-56589.1	1005.82	-29738.8	0.000000	0.000000	6.626990	-0.020228	NaN	0.000000	0.001609	0.001599	28.0802	0.053789	0.002066	26.0359	-149.553	-165.616	-0.028343	0.625331	-0.426545	-0.427856	-0.020228	26.0359	-0.425962	-312541	6.472010E-8	NaN
410	1.000000	0.634646	7.36907e+06	-56589.1	1005.82	-29738.8	0.000000	0.000000	6.634995	0.033413	NaN	0.000000	0.001644	0.001574	28.0799	0.076435	0.002113	36.172	68.9789	-166.601	0.020349	0.633408	-0.418542	-0.419779	0.033413	36.172	-0.419234	-250931	-1.331547E-7	NaN
410	1.000000	0.642664	7.36907e+06	-56589.1	1005.82	-29738.8	0.000000	0.000000	6.643012	0.006099	NaN	0.000000	0.001649	0.001569	28.0802	0.035836	0.002084	17.1982	-167.426	-166.535	-0.073919	0.641296	-0.410523	-0.411891	0.006099	17.1982	-0.410789	-190381	-3.203781E-8	NaN
410	1.000000	0.650649	7.36907e+06	-56589.1	1005.82	-29738.8	0.000000	0.000000	6.650997	0.003699	NaN	0.000000	0.001639	0.001561	28.0801	0.124554	0.002050	60.75	-85.997	-167.455	0.079061	0.649363	-0.402538	-0.403824	0.003699	60.75	-0.402584	-145489	-2.542611E-8	NaN
410	1.000000	0.658650	7.36907e+06	-56589.1	1005.82	-29738.8	0.000000	0.000000	6.659001	0.065629	NaN	0.000000	0.001645	0.001545	28.08	0.159987	0.002036	78.566	-37.6488	-167.405	0.090975	0.657341	-0.394537	-0.395846	0.065629	78.566	-0.395163	-114016	-5.756125E-7	NaN
410	1.000000	0.666671	7.36907e+06	-56589.1	1005.82	-29738.8	0.000000	0.000000	6.667018	-0.035310	NaN	0.000000	0.001638	0.001579	28.081	0.071358	0.001977	36.0986	-145.391	-164.365	-0.035540	0.665342	-0.386516	-0.387846	-0.035310	36.0986	-0.385783	-83714.1	4.217908E-7	NaN
410	1.000000	0.674668	7.36907e+06	-56589.1	1005.82	-29738.8	0.000000	0.000000	6.675017	0.017031	NaN	0.000000	0.001603	0.001540	28.0812	0.103263	0.001988	51.9333	169.506	-165.51	0.093459	0.673376	-0.378519	-0.379812	0.017031	51.9333	-0.378765	-66399.5	-2.564953E-7	NaN
410	1.000000	0.682667	7.36907e+06	-56589.1	1005.82	-29738.8	0.000000	0.000000	6.683015	0.005622	NaN	0.000000	0.001612	0.001588	28.0813	0.049277	0.002020	24.4004	14.17	-165.462	0.054631	0.681396	-0.370521	-0.371791	0.005622	24.4004	-0.370693	-50829.2	-1.106121E-7	NaN
410	1.000000	0.690675	7.36907e+06	-56589.1	1005.82	-29738.8	0.000000	0.000000	6.691023	0.000263	NaN	0.000000	0.001629	0.001572	28.0813	0.069413	0.001955	35.5123	-117.157	-163.892	0.030407	0.689392	-0.362513	-0.363795	0.000263	35.5123	-0.362518	-38746.3	-6.776673E-9	NaN
410	1.000000	0.698686	7.36907e+06	-56589.1	1005.82	-29738.8	0.000000	0.000000	6.699034	-0.003868	NaN	0.000000	0.001588	0.001526	28.0814	0.113230	0.002048	55.2778	59.3098	-168.522	0.035512	0.697394	-0.354501	-0.355793	-0.003868	55.2778	-0.354449	-29615.2	1.305930E-7	NaN
410	1.000000	0.706647	7.36907e+06	-56589.1	1005.82	-29738.8	0.000000	0.000000	6.707000	0.110863	NaN	0.000000	0.001625	0.001555	28.0814	0.069169	0.001934	35.7565	110.171	-165.766	0.085631	0.705407	-0.346540	-0.347780	0.110863	35.7565	-0.348865	-24576.9	-4.510868E-6	NaN
410	1.000000	0.714674	7.36907e+06	-56589.1	1005.82	-29738.8	0.000000	0.000000	6.715021	-0.016449	NaN	0.000000	0.001628	0.001552	28.0812	0.113470	0.002039	55.6592	178.83	-164.411	-0.044548	0.713369	-0.338513	-0.339818	-0.016449	55.6592	-0.338292	-17244.1	9.538788E-7	NaN
410	1.000000	0.722657	7.36907e+06	-56589.1	1005.82	-29738.8	0.000000	0.000000	6.723006	0.010621	NaN	0.000000	0.001596	0.001530	28.0813	0.080931	0.001975	40.9783	173.557	-164.994	0.058113	0.721378	-0.330530	-0.331810	0.010621	40.9783	-0.330724	-13367.6	-7.945583E-7	NaN
410	1.000000	0.730681	7.36907e+06	-56589.1	1005.82	-29738.8	0.000000	0.000000	6.731027	-0.044276	NaN	0.000000	0.001604	0.001527	28.0814	0.027558	0.001845	14.9354	-154.925	-168.115	0.032262	0.729402	-0.322506	-0.323785	-0.044276	14.9354	-0.320283	-9392.88	4.713782E-6	NaN
410	1.000000	0.738690	7.36907e+06	-56589.1	1005.82	-29738.8	0.000000	0.000000	6.739040	0.047071	NaN	0.000000	0.001638	0.001564	28.0816	0.050302	0.002034	24.734	22.1608	-163.137	0.008985	0.737395	-0.314497	-0.315792	0.047071	24.734	-0.315924	-8101.91	-5.809889E-6	NaN
410	1.000000	0.746689	7.36907e+06	-56589.1	1005.82	-29738.8	0.000000	0.000000	6.747036	-0.013262	NaN	0.000000	0.001634	0.001542	28.0814	0.034611	0.002043	16.9415	56.6809	-165.671	-0.036021	0.745409	-0.306498	-0.307778	-0.013262	16.9415	-0.305911	-5760.7	2.302176E-6	NaN
410	1.000000	0.754690	7.36907e+06	-56589.1	1005.82	-29738.8	0.000000	0.000000	6.755041	0.066844	NaN	0.000000	0.001587	0.001520	28.0813	0.021468	0.002080	10.3195	-8.534792	-165.265	0.078975	0.753411	-0.298497	-0.299776	0.066844	10.3195	-0.303355	-5278.77	-1.266272E-5	NaN
410	1.000000	0.762705	7.36907e+06	-56589.1	1005.82	-29738.8	0.000000	0.000000	6.763053	-0.002530	NaN	0.000000	0.001608	0.001536	28.0812	0.062009	0.002072	29.927	152.743	-164.02	0.052436	0.761415	-0.290482	-0.291772	-0.002530	29.927	-0.290419	-3385.11	7.474671E-7	NaN
410	1.000000	0.770705	7.36907e+06	-56589.1	1005.82	-29738.8	0.000000	0.000000	6.771056	0.054868	NaN	0.000000	0.001587	0.001548	28.0814	0.074190	0.002018	36.757	-99.3725	-168.061	0.046934	0.769438	-0.282482	-0.283749	0.054868	36.757	-0.283601	-2674.42	-2.051585E-5	NaN
410	1.000000	0.778719	7.36907e+06	-56589.1	1005.82	-29738.8	0.000000	0.000000	6.779070	0.077532	NaN	0.000000	0.001610	0.001621	28.0813	0.088975	0.002071	42.9711	-171.172	-167.579	-0.029715	0.777401	-0.274468	-0.275786	0.077532	42.9711	-0.275821	-2040.96	-3.798792E-5	NaN
410	1.000000	0.786735	7.36907e+06	-56589.1	1005.82	-29738.8	0.000000	0.000000	6.787083	0.001634	NaN	0.000000	0.001604	0.001629	28.0813	0.065492	0.001979	33.0941	-91.2595	-165.506	0.072387	0.785417	-0.266452	-0.267770	0.001634	33.0941	-0.266489	-1472.67	-1.109260E-6	NaN
410	1.000000	0.794705	7.36907e+06	-56589.1	1005.82	-29738.8	0.000000	0.000000	6.795053	0.003895	NaN	0.000000	0.001593	0.001602	28.0814	0.095838	0.001996	48.0034	-88.8624	-162.832	0.025668	0.793390	-0.258483	-0.259797	0.003895	48.0034	-0.258543	-1113.22	-3.499259E-6	NaN
410	1.000000	0.802717	7.36907e+06	-56589.1	1005.82	-29738.8	0.000000	0.000000	6.803067	0.058312	NaN	0.000000	0.001577	0.001584	28.0804	0.052183	0.002060	25.332	-110.116	-165.517	0.051278	0.801376	-0.250470	-0.251811	0.058312	25.332	-0.252197	-889.012	-6.559205E-5	NaN
410	1.000000	0.810697	7.36907e+06	-56589.1	1005.82	-29738.8	0.000000	0.000000	6.811044	-0.033321	NaN	0.000000	0.001593	0.001559	28.0801	0.042691	0.002043	20.896	-162.432	-166.038	0.002975	0.809461	-0.242490	-0.243727	-0.033321	20.896	-0.241294	-602.211	5.533091E-5	NaN
410	1.000000	0.818704	7.36907e+06	-56589.1	1005.82	-29738.8	0.000000	0.000000	6.819052	-0.011260	NaN	0.000000	0.001624	0.001563	28.0801	0.065808	0.001953	33.702	-17.8732	-165.636	0.028582	0.817420	-0.234483	-0.235767	-0.011260	33.702	-0.234232	-466.859	2.411764E-5	NaN
410	1.000000	0.826716	7.36907e+06	-56589.1	1005.82	-29738.8	0.000000	0.000000	6.827066	0.051907	NaN	0.000000	0.001622	0.001575	28.0802	0.027860	0.001954	14.2571	-88.2152	-167.702	0.032647	0.825423	-0.226471	-0.227764	0.051907	14.2571	-0.229202	-388.963	-0.000133	NaN
410	1.000000	0.834687	7.36907e+06	-56589.1	1005.82	-29738.8	0.000000	0.000000	6.835033	-0.044096	NaN	0.000000	0.001622	0.001642	28.0802	0.086292	0.002045	42.1885	49.1161	-166.447	0.026110	0.833418	-0.218500	-0.219769	-0.044096	42.1885	-0.217716	-255.343	0.000173	NaN
410	1.000000	0.842735	7.36907e+06	-56589.1	1005.82	-29738.8	0.000000	0.000000	6.843085	0.050314	NaN	0.000000	0.001625	0.001624	28.0802	0.073337	0.002043	35.8914	-176.649	-166.604	-0.001832	0.841398	-0.210453	-0.211789	0.050314	35.8914	-0.211504	-202.837	-0.000248	NaN
410	1.000000	0.850730	7.36907e+06	-56589.1	1005.82	-29738.8	0.000000	0.000000	6.851081	0.062362	NaN	0.000000	0.001621	0.001608	28.0803	0.085741	0.002023	42.3904	168.956	-166.456	-0.008329	0.849459	-0.202457	-0.203728	0.062362	42.3904	-0.203561	-150.68	-0.000414	NaN
410	1.000000	0.858757	7.36907e+06	-56589.1	1005.82	-29738.8	0.000000	0.000000	6.859107	0.051320	NaN	0.000000	0.001603	0.001582	28.0801	0.015314	0.001873	8.176169	66.8314	-166.285	0.019174	0.857417	-0.194430	-0.195770	0.051320	8.176169	-0.199138	-127.502	-0.000403	NaN
410	1.000000	0.866726	7.36907e+06	-56589.1	1005.82	-29738.8	0.000000	0.000000	6.867073	-0.020709	NaN	0.000000	0.001596	0.001594	28.0802	0.076285	0.002147	35.5283	135.63	-168.738	-0.024985	0.865404	-0.186461	-0.187784	-0.020709	35.5283	-0.186024	-77.1569	0.000268	NaN
410	1.000000	0.874778	7.36907e+06	-56589.1	1005.82	-29738.8	0.000000	0.000000	6.875125	-0.009315	NaN	0.000000	0.001633	0.001566	28.0801	0.112386	0.001996	56.2924	178.32	-167.583	-0.029309	0.873420	-0.178410	-0.179767	-0.009315	56.2924	-0.178286	-57.0492	0.000163	NaN
410	1.000000	0.882766	7.36907e+06	-56589.1	1005.82	-29738.8	0.000000	0.000000	6.883115	0.027548	NaN	0.000000	0.001624	0.001579	28.0802	0.068929	0.002054	33.5568	55.1918	-167.747	-0.002905	0.881452	-0.170422	-0.171735	0.027548	33.5568	-0.171037	-42.816	-0.000643	NaN
410	1.000000	0.890763	7.36907e+06	-56589.1	1005.82	-29738.8	0.000000	0.000000	6.891112	0.031115	NaN	0.000000	0.001583	0.001585	28.0803	0.082477	0.001988	41.4852	-110.387	-165.956	0.080539	0.889394	-0.162424	-0.163794	0.031115	41.4852	-0.162987	-30.9648	-0.001005	NaN
410	1.000000	0.898755	7.36907e+06	-56589.1	1005.82	-29738.8	0.000000	0.000000	6.899105	0.043683	NaN	0.000000	0.001596	0.001583	28.0802	0.111836	0.002019	55.3994	-135.715	-169.837	0.091574	0.897443	-0.154432	-0.155745	0.043683	55.3994	-0.155023	-22.3358	-0.001956	NaN
410	1.000000	0.906723	7.36907e+06	-56589.1	1005.82	-29738.8	0.000000	0.000000	6.907071	-0.008458	NaN	0.000000	0.001643	0.001596	28.0803	0.035996	0.001969	18.278	-86.5112	-162.912	0.004862	0.905463	-0.146464	-0.147724	-0.008458	18.278	-0.146117	-15.3744	0.000550	NaN
410	1.000000	0.914745	7.36907e+06	-56589.1	1005.82	-29738.8	0.000000	0.000000	6.915094	0.024086	NaN	0.000000	0.001629	0.001634	28.0802	0.046624	0.002001	23.3013	165.671	-168.117	-0.040662	0.913455	-0.138443	-0.139732	0.024086	23.3013	-0.139218	-11.4356	-0.002106	NaN
410	1.000000	0.922726	7.36907e+06	-56589.1	1005.82	-29738.8	0.000000	0.000000	6.923076	0.046466	NaN	0.000000	0.001625	0.001632	28.08	0.080859	0.001985	40.7276	111.085	-164.95	0.036025	0.921472	-0.130461	-0.131715	0.046466	40.7276	-0.131316	-8.082072	-0.005749	NaN
410	1.000000	0.930771	7.36907e+06	-56589.1	1005.82	-29738.8	0.000000	0.000000	6.931119	0.008036	NaN	0.000000	0.001647	0.001615	28.0802	0.102937	0.001941	53.0256	-125.156	-163.012	-0.010599	0.929491	-0.122416	-0.123696	0.008036	53.0256	-0.122530	-5.431029	-0.001480	NaN
410	1.000000	0.938761	7.36907e+06	-56589.1	1005.82	-29738.8	0.000000	0.000000	6.939109	0.002815	NaN	0.000000	0.001660	0.001567	28.081	0.042359	0.002113	20.0506	-138.102	-167.542	-0.009317	0.937421	-0.114426	-0.115767	0.002815	20.0506	-0.114531	-3.736226	-0.000754	NaN
410	1.000000	0.946773	7.36907e+06	-56589.1	1005.82	-29738.8	0.000000	0.000000	6.947122	0.026020	NaN	0.000000	0.001630	0.001605	28.0816	0.083559	0.001985	42.0871	154.059	-165.191	0.022712	0.945417	-0.106414	-0.107770	0.026020	42.0871	-0.106878	-2.579612	-0.010087	NaN
410	1.000000	0.954769	7.36907e+06	-56589.1	1005.82	-29738.8	0.000000	0.000000	6.955119	0.039491	NaN	0.000000	0.001648	0.001587	28.0816	0.008563	0.001932	4.432361	44.3162	-167.306	0.054127	0.953495	-0.098418	-0.099693	0.039491	4.432361	-0.105100	-2.362328	-0.016717	NaN
410	1.000000	0.962748	7.36907e+06	-56589.1	1005.82	-29738.8	0.000000	0.000000	6.963096	-0.016294	NaN	0.000000	0.001608	0.001649	28.0815	0.055225	0.001967	28.0786	-1.007261	-165.762	-0.000718	0.961484	-0.090439	-0.091703	-0.016294	28.0786	-0.090004	-1.081195	0.015070	NaN
410	1.000000	0.970792	7.36907e+06	-56589.1	1005.82	-29738.8	0.000000	0.000000	6.971142	0.045884	NaN	0.000000	0.001615	0.001681	28.0814	0.104334	0.001932	54.0081	94.9741	-167.528	-0.038878	0.969478	-0.082396	-0.083709	0.045884	54.0081	-0.083033	-0.735809	-0.062358	NaN
410	1.000000	0.978780	7.36907e+06	-56589.1	1005.82	-29738.8	0.000000	0.000000	6.979128	0.005420	NaN	0.000000	0.001658	0.001651	28.0814	0.115802	0.002001	57.8704	-174.855	-166.61	0.074189	0.977416	-0.074407	-0.075772	0.005420	57.8704	-0.074477	-0.447691	-0.012107	NaN
410	1.000000	0.986798	7.36907e+06	-56589.1	1005.82	-29738.8	0.000000	0.000000	6.987147	0.022400	NaN	0.000000	0.001629	0.001591	28.0815	0.046959	0.001892	24.8144	48.6724	-162.044	0.053014	0.985493	-0.066389	-0.067695	0.022400	24.8144	-0.067066	-0.284111	-0.078843	NaN
410	1.000000	0.994793	7.36907e+06	-56589.1	1005.82	-29738.8	0.000000	0.000000	6.995141	0.011765	NaN	0.000000	0.001621	0.001594	28.0815	0.033297	0.001895	17.5672	154.998	-168.847	0.052125	0.993523	-0.058395	-0.059664	0.011765	17.5672	-0.058897	-0.167394	-0.070282	NaN
410	1.000000	1.002775	7.36908e+06	-56589.1	1005.82	-29738.8	0.000000	0.000000	7.003126	0.062888	NaN	0.000000	0.001641	0.001601	28.0817	0.094283	0.002056	45.8573	95.025	-166.595	0.055653	1.001523	-0.050412	-0.051665	0.062888	45.8573	-0.051441	-0.100853	-0.623559	NaN
410	1.000000	1.010805	7.36908e+06	-56589.1	1005.82	-29738.8	0.000000	0.000000	7.011154	0.018160	NaN	0.000000	0.001588	0.001579	28.0813	0.114705	0.002174	52.7643	-34.9561	-169.061	0.097467	1.009484	-0.042382	-0.043703	0.018160	52.7643	-0.042640	-0.054429	-0.333642	NaN
410	1.000000	1.018798	7.36908e+06	-56589.1	1005.82	-29738.8	0.000000	0.000000	7.019144	-0.047777	NaN	0.000000	0.001684	0.001609	28.0814	0.030222	0.002047	14.7616	154.064	-164.225	-0.024189	1.017494	-0.034389	-0.035693	-0.047777	14.7616	-0.031962	-0.026140	1.827722	NaN
410	1.000000	1.026783	7.36908e+06	-56589.1	1005.82	-29738.8	0.000000	0.000000	7.027131	-0.004609	NaN	0.000000	0.001673	0.001599	28.0813	0.025732	0.001988	12.9441	17.4924	-170.63	0.037879	1.025473	-0.026404	-0.027714	-0.004609	12.9441	-0.026137	-0.018073	0.255047	NaN
410	1.000000	1.034818	7.36908e+06	-56589.1	1005.82	-29738.8	0.000000	0.000000	7.035166	0.000750	NaN	0.000000	0.001687	0.001585	28.0814	0.097415	0.001981	49.1816	-87.1513	-166.177	-0.044208	1.033552	-0.018369	-0.019635	0.000750	49.1816	-0.018381	-0.011418	-0.065666	NaN
410	1.000000	1.042813	7.36908e+06	-56589.1	1005.82	-29738.8	0.000000	0.000000	7.043163	0.031223	NaN	0.000000	0.001686	0.001612	28.0814	0.082829	0.001958	42.3126	93.8026	-166.731	0.039669	1.041542	-0.010374	-0.011645	0.031223	42.3126	-0.010927	-0.006917	-4.514060	NaN
410	1.000000	1.050807	7.36908e+06	-56589.1	1005.82	-29738.8	0.000000	0.000000	7.051156	0.009637	NaN	0.000000	0.001670	0.001585	28.0813	0.089510	0.001973	45.3726	92.4292	-166.719	0.002985	1.049457	-0.002380	-0.003731	0.009637	45.3726	-0.002539	-0.001810	-5.324952	NaN
410	1.000000	1.058775	7.36908e+06	-56589.1	1005.82	-29738.8	0.000000	0.000000	7.059276	3.718893	NaN	0.000000	0.001742	0.001560	28.0816	4.530386	0.001753	2584.64	11.4848	-172.556	2.336117	1.057481	0.005588	0.004294	3.718893	2584.64	0.004508	0.003689	1008.05	38878.5
410	2.000000	1.064382	7.36908e+06	-56589.1	1005.82	-29738.8	0.000000	0.000000	7.065099	8.951416	NaN	0.000000	0.001676	0.001591	28.0811	9.465706	0.001723	5492.37	10.5424	-176.433	8.767133	1.064089	0.011195	0.010901	8.951416	5492.37	0.009973	0.009151	978.172	52455.9
410	2.000000	1.066331	7.36908e+06	-56589.1	1005.82	-29738.8	0.000000	0.000000	7.067133	11.0417	NaN	0.000000	0.001661	0.001607	28.0812	11.3183	0.001707	6632.25	5.986093	-172.805	10.5961	1.066029	0.013144	0.012842	11.0417	6632.25	0.011895	0.011364	971.596	56840.8
410	2.000000	1.068319	7.36908e+06	-56589.1	1005.82	-29738.8	0.000000	0.000000	7.069235	13.81	NaN	0.000000	0.001660	0.001585	28.0799	13.594	0.001738	7820.44	7.818850	-174.891	13.6352	1.067992	0.015131	0.014804	13.81	7820.44	0.013807	0.013727	1006.02	60983.2
410	2.000000	1.070361	7.36908e+06	-56589.1	1005.82	-29738.8	0.000000	0.000000	7.071367	15.9955	NaN	0.000000	0.001692	0.001571	28.0796	14.7586	0.001824	8089.34	7.519605	-175	15.9622	1.070022	0.017174	0.016835	15.9955	8089.34	0.015691	0.016218	986.301	58035.4
410	2.000000	1.072273	7.36908e+06	-56589.1	1005.82	-29738.8	0.000000	0.000000	7.073397	18.8648	NaN	0.000000	0.001675	0.001580	28.0802	17.1189	0.001700	10070.3	2.399971	-173.273	17.8037	1.071958	0.019086	0.018770	18.8648	10070.3	0.017681	0.019028	991.419	66698.8
410	2.000000	1.074307	7.36908e+06	-56589.1	1005.82	-29738.8	0.000000	0.000000	7.075625	23.5859	NaN	0.000000	0.001688	0.001578	28.0799	19.626	0.001830	10722	3.661904	-174.189	22.8799	1.073952	0.021120	0.020765	23.5859	10722	0.019470	0.021716	1086.11	66475.4
410	2.000000	1.076301	7.36908e+06	-56589.1	1005.82	-29738.8	0.000000	0.000000	7.077736	26.433	NaN	0.000000	0.001689	0.001578	28.0807	21.7208	0.001919	11318.2	7.410313	-177.53	26.8574	1.075938	0.023114	0.022750	26.433	11318.2	0.021362	0.024728	1068.96	65759.2
410	2.000000	1.078291	7.36908e+06	-56589.1	1005.82	-29738.8	0.000000	0.000000	7.079933	31.4464	NaN	0.000000	0.001686	0.001568	28.08	23.3935	0.001818	12866.7	4.862545	-177.61	30.3889	1.077934	0.025104	0.024747	31.4464	12866.7	0.023271	0.027945	1125.3	70321.7
410	2.000000	1.080229	7.36908e+06	-56589.1	1005.82	-29738.8	0.000000	0.000000	7.082023	35.136	NaN	0.000000	0.001678	0.001583	28.08	24.682	0.001779	13877.7	4.682273	-178.038	34.2918	1.079983	0.027042	0.026796	35.136	13877.7	0.025143	0.031277	1123.39	71693.3
410	2.000000	1.082231	7.36908e+06	-56589.1	1005.82	-29738.8	0.000000	0.000000	7.084221	39.8983	NaN	0.000000	0.001645	0.001633	28.0801	26.5607	0.001765	15045.8	2.857034	-177.828	37.4505	1.081947	0.029044	0.028760	39.8983	15045.8	0.027055	0.034861	1144.49	73623.4
410	2.000000	1.084268	7.36908e+06	-56589.1	1005.82	-29738.8	0.000000	0.000000	7.086411	43.6312	NaN	0.000000	0.001654	0.001618	28.08	28.9832	0.001868	15515.5	6.843501	178.838	42.0455	1.083966	0.031081	0.030779	43.6312	15515.5	0.028972	0.038639	1129.19	72114.8
410	2.000000	1.086256	7.36908e+06	-56589.1	1005.82	-29738.8	0.000000	0.000000	7.088692	50.749	NaN	0.000000	0.001685	0.001624	28.0803	30.5915	0.001747	17513.5	7.373080	176.125	49.3658	1.085901	0.033069	0.032714	50.749	17513.5	0.030895	0.042620	1190.73	77506.5
410	2.000000	1.088262	7.36908e+06	-56589.1	1005.82	-29738.8	0.000000	0.000000	7.090800	53.2152	NaN	0.000000	0.001705	0.001567	28.0799	32.4275	0.001820	17821.7	3.686300	-179.522	51.3486	1.087943	0.035075	0.034756	53.2152	17821.7	0.032835	0.046826	1136.45	75245.4
410	2.000000	1.090268	7.36908e+06	-56589.1	1005.82	-29738.8	0.000000	0.000000	7.093030	58.6596	NaN	0.000000	0.001634	0.001552	28.0801	33.5903	0.001746	19241.7	4.827387	179.134	59.0492	1.089908	0.037081	0.036721	58.6596	19241.7	0.034795	0.051269	1144.16	77640.9
410	2.000000	1.092206	7.36908e+06	-56589.1	1005.82	-29738.8	0.000000	0.000000	7.095347	67.8951	NaN	0.000000	0.001637	0.001576	28.08	37.5528	0.001872	20055.3	6.181864	176.502	66.8753	1.091916	0.039019	0.038729	67.8951	20055.3	0.036479	0.055247	1228.94	77955.8
410	2.000000	1.094193	7.36908e+06	-56589.1	1005.82	-29738.8	0.000000	0.000000	7.097612	74.6234	NaN	0.000000	0.001654	0.001561	28.08	38.7577	0.001828	21205.9	4.830236	177.639	71.5958	1.093871	0.041006	0.040684	74.6234	21205.9	0.038367	0.059876	1246.3	79178
410	2.000000	1.096263	7.36908e+06	-56589.1	1005.82	-29738.8	0.000000	0.000000	7.099786	77.1597	NaN	0.000000	0.001634	0.001562	28.0801	39.9623	0.001827	21876.6	5.861885	177.536	78.1761	1.095872	0.043076	0.042684	77.1597	21876.6	0.040431	0.065146	1184.41	78308.2
410	2.000000	1.098198	7.36908e+06	-56589.1	1005.82	-29738.8	0.000000	0.000000	7.102016	84.3215	NaN	0.000000	0.001640	0.001523	28.08	42.242	0.001791	23588.7	3.001523	179.263	82.2299	1.097917	0.045011	0.044730	84.3215	23588.7	0.042330	0.070189	1201.35	81347.1
410	2.000000	1.100226	7.36908e+06	-56589.1	1005.82	-29738.8	0.000000	0.000000	7.104388	92.6993	NaN	0.000000	0.001635	0.001592	28.0803	43.4747	0.001860	23372.1	5.212427	177.538	92.8664	1.099890	0.047039	0.046703	92.6993	23372.1	0.044065	0.074954	1236.75	77996.3
410	2.000000	1.102337	7.36908e+06	-56589.1	1005.82	-29738.8	0.000000	0.000000	7.106559	94.1564	NaN	0.000000	0.001619	0.001570	28.0813	46.3153	0.001866	24824.2	7.016104	174.944	99.208	1.101963	0.049149	0.048776	94.1564	24824.2	0.046305	0.081335	1157.64	79526.3
410	2.000000	1.104286	7.36908e+06	-56589.1	1005.82	-29738.8	0.000000	0.000000	7.108874	103.076	NaN	0.000000	0.001629	0.001571	28.0812	48.0942	0.001785	26946.1	6.409257	173.755	104	1.104018	0.051098	0.050831	103.076	26946.1	0.048229	0.087019	1184.53	83456.8
410	2.000000	1.106163	7.36908e+06	-56589.1	1005.82	-29738.8	0.000000	0.000000	7.111366	118.001	NaN	0.000000	0.001652	0.001566	28.0814	49.1558	0.001858	26456.6	3.157737	177.321	113.507	1.105811	0.052976	0.052624	118.001	26456.6	0.049631	0.091275	1292.81	80007.6
410	2.000000	1.108294	7.36908e+06	-56589.1	1005.82	-29738.8	0.000000	0.000000	7.113595	120.38	NaN	0.000000	0.001627	0.001557	28.0813	51.5929	0.001823	28294.3	6.668782	173.354	123.355	1.107999	0.055107	0.054811	120.38	28294.3	0.051916	0.098426	1223.05	82398.1
410	2.000000	1.110181	7.36908e+06	-56589.1	1005.82	-29738.8	0.000000	0.000000	7.115853	129.389	NaN	0.000000	0.001605	0.001557	28.0816	52.0045	0.001842	28237.6	5.675821	175.691	127.351	1.109795	0.056994	0.056608	129.389	28237.6	0.053558	0.103726	1247.41	80104.6
410	2.000000	1.112262	7.36908e+06	-56589.1	1005.82	-29738.8	0.000000	0.000000	7.117925	129.19	NaN	0.000000	0.001634	0.001571	28.0815	55.4928	0.001905	29133.5	3.842717	175.758	130.048	1.111990	0.059075	0.058803	129.19	29133.5	0.055749	0.111008	1163.79	79889.5
410	2.000000	1.114199	7.36908e+06	-56589.1	1005.82	-29738.8	0.000000	0.000000	7.120548	145.853	NaN	0.000000	0.001634	0.001571	28.0818	56.4073	0.001776	31763.7	4.503083	175.341	143.113	1.113841	0.061012	0.060654	145.853	31763.7	0.057568	0.117233	1244.13	84757.8
410	2.000000	1.116221	7.36908e+06	-56589.1	1005.82	-29738.8	0.000000	0.000000	7.122928	154.549	NaN	0.000000	0.001630	0.001549	28.0815	57.9306	0.001775	32635	4.739116	174.422	153.826	1.115825	0.063034	0.062637	154.549	32635	0.059482	0.123958	1246.78	84687.5
410	2.000000	1.118182	7.36908e+06	-56589.1	1005.82	-29738.8	0.000000	0.000000	7.125090	159.433	NaN	0.000000	0.001648	0.001572	28.0813	60.3387	0.001755	34380.2	3.436353	175.068	158.105	1.117893	0.064995	0.064706	159.433	34380.2	0.061517	0.131304	1214.22	86684.8
410	2.000000	1.120251	7.36908e+06	-56589.1	1005.82	-29738.8	0.000000	0.000000	7.127458	166.711	NaN	0.000000	0.001617	0.001550	28.0814	61.9803	0.001705	36353.1	6.327110	172.044	171.118	1.119855	0.067064	0.066668	166.711	36353.1	0.063624	0.139124	1198.29	89045.7
410	2.000000	1.122132	7.36908e+06	-56589.1	1005.82	-29738.8	0.000000	0.000000	7.130022	183.324	NaN	0.000000	0.001588	0.001606	28.0812	64.2635	0.001776	36178.9	3.236253	174.288	180.415	1.121920	0.068944	0.068733	183.324	36178.9	0.065144	0.144898	1265.2	86835.7
410	2.000000	1.124185	7.36908e+06	-56589.1	1005.82	-29738.8	0.000000	0.000000	7.132231	187.089	NaN	0.000000	0.001632	0.001603	28.0815	66.5723	0.001768	37650.9	2.394291	174.976	183.851	1.124017	0.070998	0.070830	187.089	37650.9	0.067272	0.153166	1221.48	87895.6
410	2.000000	1.126198	7.36908e+06	-56589.1	1005.82	-29738.8	0.000000	0.000000	7.134773	199.949	NaN	0.000000	0.001599	0.001572	28.0813	68.6611	0.001892	36281.1	7.121662	170.805	200.91	1.125908	0.073011	0.072720	199.949	36281.1	0.068878	0.159552	1253.19	82985.6
410	2.000000	1.128228	7.36908e+06	-56589.1	1005.82	-29738.8	0.000000	0.000000	7.137264	211.171	NaN	0.000000	0.001618	0.001586	28.0814	69.4006	0.001785	38873.3	6.481607	171.189	211.787	1.127820	0.075041	0.074633	211.171	38873.3	0.070966	0.168041	1256.66	86639.7
410	2.000000	1.130163	7.36908e+06	-56589.1	1005.82	-29738.8	0.000000	0.000000	7.139400	216.062	NaN	0.000000	0.001625	0.001543	28.0814	71.0578	0.001814	39164.4	4.704066	171.82	212.286	1.129944	0.076976	0.076757	216.062	39164.4	0.072838	0.175824	1228.85	85334.6
410	2.000000	1.132161	7.36908e+06	-56589.1	1005.82	-29738.8	0.000000	0.000000	7.141837	226.711	NaN	0.000000	0.001703	0.001579	28.0813	74.5277	0.001758	42384.6	8.059457	168.232	225.246	1.131929	0.078974	0.078742	226.711	42384.6	0.074963	0.184859	1226.4	90066.1
410	2.000000	1.134111	7.36908e+06	-56589.1	1005.82	-29738.8	0.000000	0.000000	7.144470	243.312	NaN	0.000000	0.001680	0.001601	28.0812	75.7705	0.001840	41175.9	5.002267	172.124	237.884	1.133754	0.080924	0.080566	243.312	41175.9	0.076492	0.191496	1270.59	85968.1
410	2.000000	1.136107	7.36908e+06	-56589.1	1005.82	-29738.8	0.000000	0.000000	7.146661	248.076	NaN	0.000000	0.001666	0.001593	28.0799	77.1699	0.001792	43057.7	2.853178	173.211	241.981	1.135831	0.082919	0.082643	248.076	43057.7	0.078598	0.200813	1235.36	87786.7
410	2.000000	1.138196	7.36908e+06	-56589.1	1005.82	-29738.8	0.000000	0.000000	7.149498	266.237	NaN	0.000000	0.001675	0.001633	28.0801	78.1466	0.001750	44643.6	-0.248444	176.735	266.285	1.137924	0.085009	0.084737	266.237	44643.6	0.080536	0.209569	1270.4	89098.1
410	2.000000	1.140040	7.36908e+06	-56589.1	1005.82	-29738.8	0.000000	0.000000	7.151828	278.059	NaN	0.000000	0.001595	0.001597	28.0802	78.9014	0.001766	44678.6	1.644557	174.614	270.041	1.139869	0.086853	0.086682	278.059	44678.6	0.082185	0.217156	1280.46	87596.4
410	2.000000	1.142120	7.36908e+06	-56589.1	1005.82	-29738.8	0.000000	0.000000	7.154753	298.596	NaN	0.000000	0.001580	0.001610	28.0802	83.339	0.001872	44524.4	7.389772	168.943	296.483	1.141815	0.088933	0.088628	298.596	44524.4	0.083903	0.225196	1325.94	85721.8
410	2.000000	1.144160	7.36908e+06	-56589.1	1005.82	-29738.8	0.000000	0.000000	7.156855	300.113	NaN	0.000000	0.001602	0.001599	28.08	84.1706	0.001772	47498.3	6.858627	169.549	296.125	1.143772	0.090973	0.090585	300.113	47498.3	0.086234	0.236324	1269.92	89268.4
410	2.000000	1.146141	7.36908e+06	-56589.1	1005.82	-29738.8	0.000000	0.000000	7.159534	317.075	NaN	0.000000	0.001614	0.001612	28.0801	85.0163	0.001661	51177.2	4.902845	170.101	316.834	1.145801	0.092954	0.092614	317.075	51177.2	0.088307	0.246430	1286.67	94189.5
410	2.000000	1.148177	7.36908e+06	-56589.1	1005.82	-29738.8	0.000000	0.000000	7.161985	327.16	NaN	0.000000	0.001612	0.001554	28.0803	87.3937	0.001710	51115.9	-0.361491	175.942	327.128	1.147990	0.094990	0.094803	327.16	51115.9	0.090190	0.255779	1279.07	92341.5
410	2.000000	1.150119	7.36908e+06	-56589.1	1005.82	-29738.8	0.000000	0.000000	7.164531	341.849	NaN	0.000000	0.001553	0.001597	28.0805	89.542	0.001811	49441.2	5.165303	170.303	340.503	1.149807	0.096931	0.096620	341.849	49441.2	0.091746	0.263629	1296.71	87976.3
410	2.000000	1.152121	7.36908e+06	-56589.1	1005.82	-29738.8	0.000000	0.000000	7.167194	357.896	NaN	0.000000	0.001543	0.001588	28.0802	92.2027	0.001893	48716	4.656306	171.15	355.47	1.151862	0.098934	0.098675	357.896	48716	0.093424	0.272220	1314.73	85307
410	2.000000	1.154186	7.36908e+06	-56589.1	1005.82	-29738.8	0.000000	0.000000	7.169793	370.883	NaN	0.000000	0.001537	0.001580	28.08	93.4697	0.001810	51651	6.858170	169.119	371.896	1.153872	0.100999	0.100684	370.883	51651	0.095614	0.283621	1307.67	88610.1
410	2.000000	1.156157	7.36908e+06	-56589.1	1005.82	-29738.8	0.000000	0.000000	7.172213	381.797	NaN	0.000000	0.001578	0.001599	28.0801	94.9703	0.001939	48987	4.551641	170.686	380.828	1.155947	0.102969	0.102760	381.797	48987	0.097124	0.291614	1309.26	82880.1
410	2.000000	1.158103	7.36908e+06	-56589.1	1005.82	-29738.8	0.000000	0.000000	7.174736	395.838	NaN	0.000000	0.001578	0.001597	28.0799	96.4383	0.001795	53720.4	4.846350	170.04	391.801	1.157904	0.104916	0.104717	395.838	53720.4	0.099389	0.303795	1302.98	89047.6
410	2.000000	1.160076	7.36908e+06	-56589.1	1005.82	-29738.8	0.000000	0.000000	7.177923	425.329	NaN	0.000000	0.001620	0.001595	28.0802	95.4131	0.001703	56023.2	4.003937	171.216	421.529	1.159769	0.106889	0.106581	425.329	56023.2	0.101195	0.313671	1355.97	91391.1
410	2.000000	1.162268	7.36908e+06	-56589.1	1005.82	-29738.8	0.000000	0.000000	7.179768	416.91	NaN	0.000000	0.001606	0.001579	28.0799	100.687	0.001787	56339.6	6.010118	168.241	421.442	1.162012	0.109081	0.108825	416.91	56339.6	0.103531	0.326669	1276.25	90060.2