File: remote_trans/data/nanoindenter/0828-1/data/Data_2025-08-06,11h17m57s/2025-07-22_16-23-58_1_507.txt
2025-07-22, 16:23:58, 1
Index	Phase	Displacement	Time	Pos X	Pos Y	Pos Z	Rot A	Rot B	Piezo Z	Force A	Force B	Gripper	Voltage A	Voltage B	Temperature	Amplitude force	Amplitude pos	Stiffness	Phase shift	Phase excitation	Force A raw	Displacement raw	HMax	HMax raw	Real Force	Real Stiffness	Contact Depth	Area	Hardness	Reduced Mod.
[#]	[#]	[um]	[s]	[um]	[um]	[um]	[m°]	[m°]	[um]	[uN]	[uN]	[V]	[V]	[V]	[°C]	[uN]	[um]	[N/m]	[°]	[°]	[uN]	[um]	[um]	[um]	[uN]	[N/m]	[um]	[um^2]	[MPa]	[MPa]
507	1.000000	0.002540	7.37001e+06	-51739.1	1005.82	-29751.4	0.000000	0.000000	6.002778	0.023095	NaN	0.000000	0.001489	0.001737	28.0796	0.072616	0.001029	70.5786	166.263	-163.847	0.049785	0.001301	-1.068055	-1.069295	0.023095	70.5786	-1.068301	-1.880878E+14	-1.227863E-16	NaN
507	1.000000	0.010519	7.37001e+06	-51739.1	1005.82	-29751.4	0.000000	0.000000	6.010755	-0.006131	NaN	0.000000	0.001515	0.001735	28.0794	0.104779	0.001096	95.6112	-113.816	-165.294	0.074103	0.009184	-1.060077	-1.061411	-0.006131	95.6112	-1.060029	-1.456146E+14	4.210294E-17	NaN
507	1.000000	0.018521	7.37001e+06	-51739.1	1005.82	-29751.4	0.000000	0.000000	6.018758	0.015584	NaN	0.000000	0.001510	0.001704	28.0797	0.062405	0.001802	34.6259	90.265	-166.07	-0.024249	0.017247	-1.052074	-1.053348	0.015584	34.6259	-1.052412	-1.150356E+14	-1.354712E-16	NaN
507	1.000000	0.026525	7.37001e+06	-51739.1	1005.82	-29751.4	0.000000	0.000000	6.026762	0.004385	NaN	0.000000	0.001511	0.001706	28.0795	0.074971	0.001786	41.9723	144.734	-169.132	-0.026001	0.025180	-1.044070	-1.045415	0.004385	41.9723	-1.044148	-8.907294E+13	-4.922606E-17	NaN
507	1.000000	0.034501	7.37001e+06	-51739.1	1005.82	-29751.4	0.000000	0.000000	6.034738	0.017987	NaN	0.000000	0.001511	0.001698	28.0796	0.061393	0.001797	34.1666	-146.282	-165.818	-0.021235	0.033234	-1.036094	-1.037362	0.017987	34.1666	-1.036489	-7.026754E+13	-2.559850E-16	NaN
507	1.000000	0.042509	7.37001e+06	-51739.1	1005.82	-29751.4	0.000000	0.000000	6.042746	0.011653	NaN	0.000000	0.001500	0.001704	28.0797	0.031610	0.002008	15.7398	35.228	-164.911	-0.006130	0.041200	-1.028086	-1.029395	0.011653	15.7398	-1.028641	-5.510671E+13	-2.114700E-16	NaN
507	1.000000	0.050513	7.37001e+06	-51739.1	1005.82	-29751.4	0.000000	0.000000	6.050751	0.034283	NaN	0.000000	0.001523	0.001687	28.0796	0.071038	0.001968	36.0932	-176.151	-166.851	-0.051410	0.049226	-1.020083	-1.021369	0.034283	36.0932	-1.020795	-4.321649E+13	-7.932942E-16	NaN
507	1.000000	0.058513	7.37001e+06	-51739.1	1005.82	-29751.4	0.000000	0.000000	6.058750	0.021821	NaN	0.000000	0.001502	0.001707	28.0803	0.088858	0.002037	43.6138	131.218	-169.388	-0.034351	0.057218	-1.012083	-1.013377	0.021821	43.6138	-1.012458	-3.337802E+13	-6.537423E-16	NaN
507	1.000000	0.066539	7.37001e+06	-51739.1	1005.82	-29751.4	0.000000	0.000000	6.066773	-0.070097	NaN	0.000000	0.001478	0.001742	28.0797	0.035313	0.001935	18.2471	-118.177	-162.716	-0.015570	0.065154	-1.004056	-1.005441	-0.070097	18.2471	-1.001175	-2.352832E+13	2.979271E-15	NaN
507	1.000000	0.074498	7.37001e+06	-51739.1	1005.82	-29751.4	0.000000	0.000000	6.074734	-0.006117	NaN	0.000000	0.001503	0.001651	28.0796	0.077162	0.002072	37.2358	119.566	-167.471	-0.053851	0.073213	-0.996098	-0.997382	-0.006117	37.2358	-0.995975	-2.002483E+13	3.054561E-16	NaN
507	1.000000	0.082535	7.37001e+06	-51739.1	1005.82	-29751.4	0.000000	0.000000	6.082771	-0.007714	NaN	0.000000	0.001481	0.001721	28.0809	0.053973	0.001984	27.2046	-55.5409	-167.592	-0.010345	0.081261	-0.988061	-0.989334	-0.007714	27.2046	-0.987848	-1.556429E+13	4.956006E-16	NaN
507	1.000000	0.090504	7.37001e+06	-51739.1	1005.82	-29751.4	0.000000	0.000000	6.090739	-0.052130	NaN	0.000000	0.001517	0.001733	28.0811	0.115231	0.001920	60.0238	-132.306	-163.579	0.021440	0.089213	-0.980091	-0.981383	-0.052130	60.0238	-0.979440	-1.199118E+13	4.347401E-15	NaN
507	1.000000	0.098547	7.37001e+06	-51739.1	1005.82	-29751.4	0.000000	0.000000	6.098781	-0.063312	NaN	0.000000	0.001515	0.001727	28.0811	0.099687	0.002026	49.2089	141.736	-168.105	-0.029912	0.097223	-0.972048	-0.973372	-0.063312	49.2089	-0.971083	-9.252548E+12	6.842608E-15	NaN
507	1.000000	0.106533	7.37001e+06	-51739.1	1005.82	-29751.4	0.000000	0.000000	6.106767	-0.062765	NaN	0.000000	0.001459	0.001694	28.081	0.105594	0.002043	51.6735	-95.935	-164.835	-0.106261	0.105243	-0.964063	-0.965353	-0.062765	51.6735	-0.963152	-7.233629E+12	8.676852E-15	NaN
507	1.000000	0.114564	7.37001e+06	-51739.1	1005.82	-29751.4	0.000000	0.000000	6.114802	0.044046	NaN	0.000000	0.001473	0.001670	28.0809	0.045320	0.001966	23.0555	-174.789	-163.246	0.051428	0.113220	-0.956032	-0.957375	0.044046	23.0555	-0.957465	-6.062992E+12	-7.264776E-15	NaN
507	1.000000	0.122571	7.37001e+06	-51739.1	1005.82	-29751.4	0.000000	0.000000	6.122809	0.034859	NaN	0.000000	0.001502	0.001674	28.0809	0.009183	0.001960	4.685814	66.1031	-166.82	0.009084	0.121236	-0.948025	-0.949359	0.034859	4.685814	-0.953604	-5.378120E+12	-6.481720E-15	NaN
507	1.000000	0.130531	7.37001e+06	-51739.1	1005.82	-29751.4	0.000000	0.000000	6.130766	-0.040971	NaN	0.000000	0.001488	0.001702	28.0807	0.055540	0.002041	27.2069	68.0819	-166.395	-0.021732	0.129208	-0.940064	-0.941388	-0.040971	27.2069	-0.938935	-3.410111E+12	1.201448E-14	NaN
507	1.000000	0.138547	7.37001e+06	-51739.1	1005.82	-29751.4	0.000000	0.000000	6.138781	-0.045120	NaN	0.000000	0.001503	0.001711	28.081	0.068866	0.002099	32.8058	-133.463	-165.106	-0.137186	0.137269	-0.932049	-0.933326	-0.045120	32.8058	-0.931017	-2.666397E+12	1.692168E-14	NaN
507	1.000000	0.146556	7.37001e+06	-51739.1	1005.82	-29751.4	0.000000	0.000000	6.146793	0.012384	NaN	0.000000	0.001526	0.001701	28.081	0.089329	0.001975	45.224	-115.276	-165.117	0.036788	0.145260	-0.924039	-0.925335	0.012384	45.224	-0.924245	-2.160281E+12	-5.732760E-15	NaN
507	1.000000	0.154545	7.37001e+06	-51739.1	1005.82	-29751.4	0.000000	0.000000	6.154781	-0.019279	NaN	0.000000	0.001515	0.001714	28.0811	0.068564	0.001906	35.9714	41.7656	-167.529	0.000524	0.153239	-0.916051	-0.917357	-0.019279	35.9714	-0.915649	-1.653672E+12	1.165830E-14	NaN
507	1.000000	0.162561	7.37001e+06	-51739.1	1005.82	-29751.4	0.000000	0.000000	6.162797	-0.004131	NaN	0.000000	0.001530	0.001680	28.0815	0.089031	0.002008	44.3408	-105.166	-166.911	-0.064867	0.161265	-0.908034	-0.909330	-0.004131	44.3408	-0.907964	-1.302169E+12	3.172208E-15	NaN
507	1.000000	0.170553	7.37001e+06	-51739.1	1005.82	-29751.4	0.000000	0.000000	6.170786	-0.081728	NaN	0.000000	0.001537	0.001700	28.0808	0.148451	0.001980	74.9653	-159.51	-165.569	-0.047304	0.169248	-0.900042	-0.901347	-0.081728	74.9653	-0.899225	-9.921747E+11	8.237262E-14	NaN
507	1.000000	0.178578	7.37001e+06	-51739.1	1005.82	-29751.4	0.000000	0.000000	6.178813	-0.033930	NaN	0.000000	0.001533	0.001691	28.0807	0.049670	0.002093	23.7294	132.682	-166.474	0.011158	0.177213	-0.892017	-0.893382	-0.033930	23.7294	-0.890945	-7.668153E+11	4.424768E-14	NaN
507	1.000000	0.186556	7.37001e+06	-51739.1	1005.82	-29751.4	0.000000	0.000000	6.186792	-0.009804	NaN	0.000000	0.001548	0.001689	28.0806	0.024479	0.001894	12.9232	83.9663	-168.703	-0.009898	0.185278	-0.884039	-0.885317	-0.009804	12.9232	-0.883470	-6.076248E+11	1.613528E-14	NaN
507	1.000000	0.194572	7.37001e+06	-51739.1	1005.82	-29751.4	0.000000	0.000000	6.194807	-0.042697	NaN	0.000000	0.001560	0.001687	28.0808	0.056288	0.002011	27.9957	-36.2556	-166.373	-0.001428	0.193270	-0.876023	-0.877325	-0.042697	27.9957	-0.874879	-4.649958E+11	9.182258E-14	NaN
507	1.000000	0.202596	7.37001e+06	-51739.1	1005.82	-29751.4	0.000000	0.000000	6.202833	0.011878	NaN	0.000000	0.001519	0.001683	28.0807	0.082603	0.001949	42.3794	-57.8394	-163.829	-0.017991	0.201272	-0.867999	-0.869323	0.011878	42.3794	-0.868209	-3.777622E+11	-3.144179E-14	NaN
507	1.000000	0.210590	7.37001e+06	-51739.1	1005.82	-29751.4	0.000000	0.000000	6.210826	-0.030802	NaN	0.000000	0.001556	0.001692	28.0806	0.036434	0.002012	18.1065	-142.507	-167.793	0.009175	0.209244	-0.860005	-0.861351	-0.030802	18.1065	-0.858729	-2.811390E+11	1.095632E-13	NaN
507	1.000000	0.218574	7.37001e+06	-51739.1	1005.82	-29751.4	0.000000	0.000000	6.218812	0.019797	NaN	0.000000	0.001540	0.001677	28.0792	0.097295	0.001871	52.0075	-160.913	-165.183	-0.015500	0.217285	-0.852021	-0.853310	0.019797	52.0075	-0.852306	-2.301269E+11	-8.602771E-14	NaN
507	1.000000	0.226597	7.37001e+06	-51739.1	1005.82	-29751.4	0.000000	0.000000	6.226835	0.015790	NaN	0.000000	0.001562	0.001711	28.0794	0.102593	0.001939	52.9028	-90.0512	-168.471	0.048294	0.225280	-0.843998	-0.845316	0.015790	52.9028	-0.844222	-1.788472E+11	-8.828935E-14	NaN
507	1.000000	0.234600	7.37001e+06	-51739.1	1005.82	-29751.4	0.000000	0.000000	6.234835	-0.025522	NaN	0.000000	0.001547	0.001669	28.0796	0.035738	0.002025	17.649	55.2527	-163.949	-0.027392	0.233279	-0.835996	-0.837316	-0.025522	17.649	-0.834911	-1.337648E+11	1.907997E-13	NaN
507	1.000000	0.242581	7.37001e+06	-51739.1	1005.82	-29751.4	0.000000	0.000000	6.242819	0.038045	NaN	0.000000	0.001554	0.001701	28.0794	0.065017	0.002007	32.3981	64.0294	-165.957	0.052129	0.241250	-0.828015	-0.829346	0.038045	32.3981	-0.828895	-1.108697E+11	-3.431521E-13	NaN
507	1.000000	0.250573	7.37001e+06	-51739.1	1005.82	-29751.4	0.000000	0.000000	6.250809	-0.028570	NaN	0.000000	0.001550	0.001708	28.0797	0.085664	0.002043	41.9236	-39.4789	-164.896	-0.028845	0.249255	-0.820022	-0.821340	-0.028570	41.9236	-0.819511	-8.271444E+10	3.453998E-13	NaN
507	1.000000	0.258604	7.37001e+06	-51739.1	1005.82	-29751.4	0.000000	0.000000	6.258839	-0.035879	NaN	0.000000	0.001543	0.001667	28.0793	0.094348	0.002096	45.0107	175.635	-166.625	-0.009291	0.257240	-0.811991	-0.813355	-0.035879	45.0107	-0.811393	-6.419093E+10	5.589464E-13	NaN
507	1.000000	0.266586	7.37001e+06	-51739.1	1005.82	-29751.4	0.000000	0.000000	6.266821	-0.038701	NaN	0.000000	0.001538	0.001701	28.0794	0.036787	0.001931	19.0521	99.6427	-166.23	-0.065060	0.265250	-0.804010	-0.805345	-0.038701	19.0521	-0.802486	-4.859710E+10	7.963683E-13	NaN
507	1.000000	0.274608	7.37001e+06	-51739.1	1005.82	-29751.4	0.000000	0.000000	6.274845	0.002755	NaN	0.000000	0.001569	0.001693	28.0794	0.006961	0.001950	3.569297	133.914	-167.852	-0.060871	0.273303	-0.795987	-0.797293	0.002755	3.569297	-0.796566	-4.038723E+10	-6.820905E-14	NaN
507	1.000000	0.282574	7.37001e+06	-51739.1	1005.82	-29751.4	0.000000	0.000000	6.282811	-0.001442	NaN	0.000000	0.001608	0.001709	28.0795	0.062887	0.001859	33.8263	-130.61	-165.296	-0.004235	0.281250	-0.788021	-0.789345	-0.001442	33.8263	-0.787989	-3.088693E+10	4.670030E-14	NaN
507	1.000000	0.290611	7.37001e+06	-51739.1	1005.82	-29751.4	0.000000	0.000000	6.290851	0.088745	NaN	0.000000	0.001551	0.001682	28.0797	0.056611	0.002084	27.1588	48.7378	-166.125	0.050711	0.289267	-0.779984	-0.781328	0.088745	27.1588	-0.782435	-2.596082E+10	-3.418419E-12	NaN
507	1.000000	0.298613	7.37001e+06	-51739.1	1005.82	-29751.4	0.000000	0.000000	6.298849	-0.023236	NaN	0.000000	0.001567	0.001695	28.0793	0.094962	0.002049	46.3381	49.8764	-163.487	-0.083097	0.297278	-0.771982	-0.773317	-0.023236	46.3381	-0.771606	-1.849884E+10	1.256060E-12	NaN
507	1.000000	0.306618	7.37001e+06	-51739.1	1005.82	-29751.4	0.000000	0.000000	6.306852	-0.063108	NaN	0.000000	0.001574	0.001697	28.0795	0.031774	0.001984	16.0158	141.102	-165.551	-0.090945	0.305368	-0.763978	-0.765227	-0.063108	16.0158	-0.761022	-1.328040E+10	4.751949E-12	NaN
507	1.000000	0.314623	7.37001e+06	-51739.1	1005.82	-29751.4	0.000000	0.000000	6.314860	0.005339	NaN	0.000000	0.001542	0.001689	28.0794	0.068591	0.001991	34.4561	54.3105	-164.992	-0.095531	0.313314	-0.755973	-0.757281	0.005339	34.4561	-0.756089	-1.137855E+10	-4.691759E-13	NaN
507	1.000000	0.322627	7.37001e+06	-51739.1	1005.82	-29751.4	0.000000	0.000000	6.322860	-0.073535	NaN	0.000000	0.001556	0.001728	28.079	0.163275	0.002114	77.2456	48.0636	-165.459	-0.011016	0.321352	-0.747969	-0.749243	-0.073535	77.2456	-0.747255	-8.626749E+9	8.524044E-12	NaN
507	1.000000	0.330639	7.37001e+06	-51739.1	1005.82	-29751.4	0.000000	0.000000	6.330875	-0.007435	NaN	0.000000	0.001572	0.001689	28.0796	0.043655	0.002046	21.3384	18.8214	-166.82	0.006714	0.329324	-0.739956	-0.741271	-0.007435	21.3384	-0.739695	-6.806180E+9	1.092382E-12	NaN
507	1.000000	0.338651	7.37001e+06	-51739.1	1005.82	-29751.4	0.000000	0.000000	6.338886	-0.028206	NaN	0.000000	0.001534	0.001677	28.0794	0.175985	0.002092	84.1048	-140.34	-164.771	0.000393	0.337295	-0.731945	-0.733301	-0.028206	84.1048	-0.731693	-5.295235E+9	5.326760E-12	NaN
507	1.000000	0.346610	7.37001e+06	-51739.1	1005.82	-29751.4	0.000000	0.000000	6.346846	-0.022775	NaN	0.000000	0.001522	0.001675	28.08	0.127952	0.002128	60.12	178.297	-165.067	-0.048707	0.345342	-0.723985	-0.725254	-0.022775	60.12	-0.723701	-4.120442E+9	5.527209E-12	NaN
507	1.000000	0.354602	7.37001e+06	-51739.1	1005.82	-29751.4	0.000000	0.000000	6.354834	-0.110735	NaN	0.000000	0.001557	0.001626	28.0806	0.040345	0.001974	20.4353	-156.207	-165.659	-0.080684	0.353301	-0.715994	-0.717295	-0.110735	20.4353	-0.711929	-2.846937E+9	3.889626E-11	NaN
507	1.000000	0.362644	7.37001e+06	-51739.1	1005.82	-29751.4	0.000000	0.000000	6.362878	-0.051693	NaN	0.000000	0.001555	0.001696	28.0807	0.009953	0.001954	5.093569	47.4556	-166.866	0.018206	0.361359	-0.707951	-0.709236	-0.051693	5.093569	-0.700340	-1.977764E+9	2.613690E-11	NaN
507	1.000000	0.370651	7.37001e+06	-51739.1	1005.82	-29751.4	0.000000	0.000000	6.370889	0.038590	NaN	0.000000	0.001568	0.001713	28.0806	0.059008	0.002040	28.9288	167.773	-162.907	0.071037	0.369342	-0.699944	-0.701254	0.038590	28.9288	-0.700945	-2.015743E+9	-1.914448E-11	NaN
507	1.000000	0.378627	7.37001e+06	-51739.1	1005.82	-29751.4	0.000000	0.000000	6.378864	0.007719	NaN	0.000000	0.001562	0.001727	28.0807	0.016920	0.002016	8.392163	-1.714171	-165.293	0.026148	0.377361	-0.691968	-0.693235	0.007719	8.392163	-0.692658	-1.553252E+9	-4.969857E-12	NaN
507	1.000000	0.386639	7.37001e+06	-51739.1	1005.82	-29751.4	0.000000	0.000000	6.386877	0.054022	NaN	0.000000	0.001578	0.001664	28.0811	0.089317	0.001949	45.8346	-6.041374	-165.841	0.048357	0.385328	-0.683957	-0.685268	0.054022	45.8346	-0.684841	-1.214496E+9	-4.448109E-11	NaN
507	1.000000	0.394667	7.37001e+06	-51739.1	1005.82	-29751.4	0.000000	0.000000	6.394904	0.020385	NaN	0.000000	0.001615	0.001735	28.0808	0.037579	0.002003	18.7583	-61.4691	-164.012	0.027630	0.393356	-0.675929	-0.677239	0.020385	18.7583	-0.676744	-9.411684E+8	-2.165873E-11	NaN
507	1.000000	0.402674	7.37001e+06	-51739.1	1005.82	-29751.4	0.000000	0.000000	6.402909	-0.043741	NaN	0.000000	0.001551	0.001706	28.0811	0.095866	0.002050	46.7679	-105.703	-164.554	-0.100137	0.401327	-0.667921	-0.669269	-0.043741	46.7679	-0.667219	-6.971543E+8	6.274200E-11	NaN
507	1.000000	0.410682	7.37001e+06	-51739.1	1005.82	-29751.4	0.000000	0.000000	6.410920	0.031997	NaN	0.000000	0.001519	0.001710	28.0807	0.055963	0.001981	28.2516	83.7559	-168.536	0.076999	0.409345	-0.659914	-0.661250	0.031997	28.2516	-0.660763	-5.687490E+8	-5.625820E-11	NaN
507	1.000000	0.418713	7.37001e+06	-51739.1	1005.82	-29751.4	0.000000	0.000000	6.418950	0.006329	NaN	0.000000	0.001545	0.001707	28.0808	0.057899	0.002094	27.6455	-49.804	-165.413	0.001402	0.417336	-0.651883	-0.653259	0.006329	27.6455	-0.652054	-4.321118E+8	-1.464567E-11	NaN
507	1.000000	0.426650	7.37001e+06	-51739.1	1005.82	-29751.4	0.000000	0.000000	6.426886	-0.027306	NaN	0.000000	0.001566	0.001702	28.081	0.109805	0.001878	58.4593	-53.2467	-168.413	0.004639	0.425359	-0.643945	-0.645236	-0.027306	58.4593	-0.643595	-3.308277E+8	8.253761E-11	NaN
507	1.000000	0.434667	7.37001e+06	-51739.1	1005.82	-29751.4	0.000000	0.000000	6.434903	0.003331	NaN	0.000000	0.001564	0.001724	28.0807	0.096349	0.001860	51.8077	3.816624	-167.546	-0.069612	0.433366	-0.635929	-0.637230	0.003331	51.8077	-0.635977	-2.600648E+8	-1.280698E-11	NaN
507	1.000000	0.442673	7.37001e+06	-51739.1	1005.82	-29751.4	0.000000	0.000000	6.442908	-0.031567	NaN	0.000000	0.001534	0.001719	28.0812	0.014488	0.001965	7.373977	109.407	-166.115	0.018022	0.441408	-0.627922	-0.629188	-0.031567	7.373977	-0.624712	-1.821308E+8	1.733224E-10	NaN
507	1.000000	0.450688	7.37001e+06	-51739.1	1005.82	-29751.4	0.000000	0.000000	6.450925	0.003342	NaN	0.000000	0.001590	0.001723	28.0811	0.049635	0.001995	24.8799	-7.607362	-166.883	-0.089529	0.449339	-0.619907	-0.621256	0.003342	24.8799	-0.620008	-1.569428E+8	-2.129612E-11	NaN
507	1.000000	0.458654	7.37001e+06	-51739.1	1005.82	-29751.4	0.000000	0.000000	6.458890	-0.000729	NaN	0.000000	0.001602	0.001709	28.0807	0.073192	0.001986	36.8451	162.177	-165.744	0.018073	0.457399	-0.611942	-0.613197	-0.000729	36.8451	-0.611927	-1.215122E+8	5.998809E-12	NaN
507	1.000000	0.466680	7.37001e+06	-51739.1	1005.82	-29751.4	0.000000	0.000000	6.466916	-0.027903	NaN	0.000000	0.001644	0.001709	28.0809	0.074045	0.002030	36.479	21.6603	-166.659	0.019633	0.465354	-0.603915	-0.605241	-0.027903	36.479	-0.603342	-9.257064E+7	3.014259E-10	NaN
507	1.000000	0.474673	7.37001e+06	-51739.1	1005.82	-29751.4	0.000000	0.000000	6.474907	-0.058651	NaN	0.000000	0.001621	0.001669	28.0805	0.069968	0.001949	35.9077	-174.921	-166.982	-0.109384	0.473336	-0.595923	-0.597259	-0.058651	35.9077	-0.594698	-7.037433E+7	8.334216E-10	NaN
507	1.000000	0.482713	7.37001e+06	-51739.1	1005.82	-29751.4	0.000000	0.000000	6.482951	0.028382	NaN	0.000000	0.001605	0.001721	28.0809	0.069953	0.002001	34.9575	-61.5423	-167.214	0.010336	0.481370	-0.587882	-0.589226	0.028382	34.9575	-0.588491	-5.779100E+7	-4.911150E-10	NaN
507	1.000000	0.490703	7.37001e+06	-51739.1	1005.82	-29751.4	0.000000	0.000000	6.490938	-0.024601	NaN	0.000000	0.001634	0.001718	28.0793	0.078188	0.001970	39.6805	22.3448	-168.135	-0.011665	0.489411	-0.579893	-0.581184	-0.024601	39.6805	-0.579428	-4.333387E+7	5.677049E-10	NaN
507	1.000000	0.498719	7.37001e+06	-51739.1	1005.82	-29751.4	0.000000	0.000000	6.498954	-0.045535	NaN	0.000000	0.001624	0.001687	28.0794	0.075100	0.002121	35.4046	-66.937	-167.544	-0.027641	0.497435	-0.571876	-0.573160	-0.045535	35.4046	-0.570911	-3.305409E+7	1.377577E-9	NaN
507	1.000000	0.506700	7.37001e+06	-51739.1	1005.82	-29751.4	0.000000	0.000000	6.506932	-0.102283	NaN	0.000000	0.001643	0.001698	28.0794	0.014554	0.002078	7.002584	73.1543	-166.563	-0.063184	0.505390	-0.563895	-0.565205	-0.102283	7.002584	-0.552941	-1.864998E+7	5.484371E-9	NaN
507	1.000000	0.514691	7.37001e+06	-51739.1	1005.82	-29751.4	0.000000	0.000000	6.514929	0.036961	NaN	0.000000	0.001605	0.001715	28.0792	0.054973	0.002042	26.9235	-114.34	-166.439	-0.052079	0.513345	-0.555905	-0.557250	0.036961	26.9235	-0.556934	-2.118158E+7	-1.744966E-9	NaN
507	1.000000	0.522700	7.37001e+06	-51739.1	1005.82	-29751.4	0.000000	0.000000	6.522937	0.011351	NaN	0.000000	0.001609	0.001731	28.0795	0.065238	0.002002	32.5894	-95.599	-168.823	-0.048266	0.521396	-0.547895	-0.549199	0.011351	32.5894	-0.548156	-1.601087E+7	-7.089568E-10	NaN
507	1.000000	0.530719	7.37001e+06	-51739.1	1005.82	-29751.4	0.000000	0.000000	6.530956	-0.007938	NaN	0.000000	0.001607	0.001746	28.0795	0.051309	0.002211	23.2063	-11.1523	-166.717	0.012817	0.529406	-0.539876	-0.541189	-0.007938	23.2063	-0.539619	-1.219210E+7	6.510366E-10	NaN
507	1.000000	0.538712	7.37001e+06	-51739.1	1005.82	-29751.4	0.000000	0.000000	6.538946	-0.045570	NaN	0.000000	0.001628	0.001686	28.0795	0.020523	0.001952	10.5155	-179.946	-167.288	-0.114524	0.537401	-0.531884	-0.533194	-0.045570	10.5155	-0.528633	-8.58212e+06	5.309832E-9	NaN
507	1.000000	0.546704	7.37001e+06	-51739.1	1005.82	-29751.4	0.000000	0.000000	6.546943	0.060623	NaN	0.000000	0.001624	0.001714	28.0793	0.035504	0.002109	16.8313	116.388	-168.815	0.036212	0.545341	-0.523891	-0.525254	0.060623	16.8313	-0.526592	-8.0397e+06	-7.540466E-9	NaN
507	1.000000	0.554723	7.37001e+06	-51739.1	1005.82	-29751.4	0.000000	0.000000	6.554957	-0.065258	NaN	0.000000	0.001645	0.001683	28.0793	0.014392	0.001932	7.448192	-164.489	-168.86	-0.159614	0.553407	-0.515873	-0.517189	-0.065258	7.448192	-0.509301	-4.62047e+06	1.412358E-8	NaN
507	1.000000	0.562728	7.37001e+06	-51739.1	1005.82	-29751.4	0.000000	0.000000	6.562964	-0.019906	NaN	0.000000	0.001603	0.001707	28.0794	0.112087	0.002072	54.109	170.218	-167.665	0.015386	0.561444	-0.507868	-0.509151	-0.019906	54.109	-0.507592	-4.37386e+06	4.551092E-9	NaN
507	1.000000	0.570722	7.37001e+06	-51739.1	1005.82	-29751.4	0.000000	0.000000	6.570957	-0.052741	NaN	0.000000	0.001628	0.001733	28.0795	0.119163	0.001998	59.649	172.812	-165.432	-0.075122	0.569416	-0.499873	-0.501179	-0.052741	59.649	-0.499210	-3.34193e+06	1.578159E-8	NaN
507	1.000000	0.578746	7.37001e+06	-51739.1	1005.82	-29751.4	0.000000	0.000000	6.578980	-0.061705	NaN	0.000000	0.001636	0.001729	28.0796	0.066399	0.002070	32.0839	-169.789	-166.417	-0.089618	0.577470	-0.491849	-0.493126	-0.061705	32.0839	-0.490407	-2.51813e+06	2.450437E-8	NaN
507	1.000000	0.586729	7.37001e+06	-51739.1	1005.82	-29751.4	0.000000	0.000000	6.586963	-0.067928	NaN	0.000000	0.001593	0.001686	28.0794	0.095020	0.001921	49.4712	-128.886	-163.173	0.008102	0.585417	-0.483866	-0.485179	-0.067928	49.4712	-0.482836	-1.97342e+06	3.442162E-8	NaN
507	1.000000	0.594758	7.37001e+06	-51739.1	1005.82	-29751.4	0.000000	0.000000	6.594994	-0.026840	NaN	0.000000	0.001625	0.001674	28.0797	0.167604	0.001920	87.28	-80.2503	-163.143	-0.064205	0.593447	-0.475837	-0.477148	-0.026840	87.28	-0.475607	-1.56315e+06	1.717022E-8	NaN
507	1.000000	0.602733	7.37001e+06	-51739.1	1005.82	-29751.4	0.000000	0.000000	6.602966	-0.105275	NaN	0.000000	0.001614	0.001707	28.0794	0.051550	0.001913	26.9434	-6.455283	-169.947	-0.104686	0.601468	-0.467862	-0.469127	-0.105275	26.9434	-0.464932	-1.10736e+06	9.506875E-8	NaN
507	1.000000	0.610749	7.37001e+06	-51739.1	1005.82	-29751.4	0.000000	0.000000	6.610987	0.021934	NaN	0.000000	0.001722	0.001727	28.0794	0.059181	0.001974	29.9737	-161.52	-165.857	-0.018184	0.609418	-0.459846	-0.461177	0.021934	29.9737	-0.460395	-956246	-2.293747E-8	NaN
507	1.000000	0.618783	7.37001e+06	-51739.1	1005.82	-29751.4	0.000000	0.000000	6.619022	0.060992	NaN	0.000000	0.001688	0.001706	28.0796	0.063779	0.002023	31.533	164.194	-163.445	0.006321	0.617416	-0.451812	-0.453179	0.060992	31.533	-0.453263	-759062	-8.035166E-8	NaN
507	1.000000	0.626777	7.37001e+06	-51739.1	1005.82	-29751.4	0.000000	0.000000	6.627011	-0.070685	NaN	0.000000	0.001680	0.001683	28.0806	0.018880	0.002052	9.201414	105.703	-167.01	-0.069114	0.625451	-0.443818	-0.445144	-0.070685	9.201414	-0.438056	-463369	1.525458E-7	NaN
507	1.000000	0.634753	7.37001e+06	-51739.1	1005.82	-29751.4	0.000000	0.000000	6.634987	-0.074514	NaN	0.000000	0.001664	0.001699	28.0809	0.038587	0.002045	18.8725	35.7873	-166.354	-0.074085	0.633403	-0.435842	-0.437192	-0.074514	18.8725	-0.432881	-391563	1.903001E-7	NaN
507	1.000000	0.642771	7.37001e+06	-51739.1	1005.82	-29751.4	0.000000	0.000000	6.643007	-0.003155	NaN	0.000000	0.001675	0.001695	28.0807	0.083642	0.001860	44.9596	-63.6304	-166.219	0.037920	0.641437	-0.427824	-0.429159	-0.003155	44.9596	-0.427772	-331536	9.516458E-9	NaN
507	1.000000	0.650763	7.37001e+06	-51739.1	1005.82	-29751.4	0.000000	0.000000	6.650997	-0.042891	NaN	0.000000	0.001649	0.001654	28.0809	0.043205	0.002000	21.6044	152.889	-161.841	-0.016671	0.649418	-0.419833	-0.421178	-0.042891	21.6044	-0.418344	-243736	1.759718E-7	NaN
507	1.000000	0.658771	7.37001e+06	-51739.1	1005.82	-29751.4	0.000000	0.000000	6.659005	-0.041030	NaN	0.000000	0.001657	0.001654	28.0807	0.172667	0.002160	79.9415	-120.226	-166.342	-0.186989	0.657422	-0.411825	-0.413173	-0.041030	79.9415	-0.411440	-194479	2.109739E-7	NaN
507	1.000000	0.666734	7.37001e+06	-51739.1	1005.82	-29751.4	0.000000	0.000000	6.666969	-0.028793	NaN	0.000000	0.001599	0.001710	28.0806	0.056035	0.001939	28.898	-131.558	-166.994	-0.031361	0.665449	-0.403861	-0.405146	-0.028793	28.898	-0.403114	-148042	1.944946E-7	NaN
507	1.000000	0.674788	7.37001e+06	-51739.1	1005.82	-29751.4	0.000000	0.000000	6.675024	-0.012850	NaN	0.000000	0.001581	0.001702	28.0808	0.118049	0.001901	62.11	-41.7062	-169.006	-0.004835	0.673532	-0.395808	-0.397063	-0.012850	62.11	-0.395653	-115866	1.109055E-7	NaN
507	1.000000	0.682767	7.37001e+06	-51739.1	1005.82	-29751.4	0.000000	0.000000	6.683003	-0.020271	NaN	0.000000	0.001623	0.001668	28.0807	0.060105	0.001983	30.304	178.991	-162.357	-0.024216	0.681433	-0.387828	-0.389162	-0.020271	30.304	-0.387326	-88085.1	2.301279E-7	NaN
507	1.000000	0.690761	7.37001e+06	-51739.1	1005.82	-29751.4	0.000000	0.000000	6.690998	0.002101	NaN	0.000000	0.001602	0.001675	28.0811	0.093936	0.002019	46.524	-151.088	-166.081	0.028530	0.689482	-0.379834	-0.381113	0.002101	46.524	-0.379868	-68864.6	-3.050512E-8	NaN
507	1.000000	0.698759	7.37001e+06	-51739.1	1005.82	-29751.4	0.000000	0.000000	6.698995	-0.019345	NaN	0.000000	0.001597	0.001701	28.0809	0.135236	0.002151	62.8662	108.288	-165.769	0.009441	0.697487	-0.371836	-0.373109	-0.019345	62.8662	-0.371606	-52389.4	3.692607E-7	NaN
507	1.000000	0.706735	7.37001e+06	-51739.1	1005.82	-29751.4	0.000000	0.000000	6.706972	0.005630	NaN	0.000000	0.001571	0.001682	28.0807	0.026446	0.002093	12.6335	28.1296	-167.731	-0.039282	0.705483	-0.363860	-0.365112	0.005630	12.6335	-0.364194	-40966.5	-1.374405E-7	NaN
507	1.000000	0.714796	7.37001e+06	-51739.1	1005.82	-29751.4	0.000000	0.000000	6.715034	0.047768	NaN	0.000000	0.001600	0.001677	28.0806	0.046194	0.001917	24.0927	87.1927	-166.832	0.026541	0.713513	-0.355800	-0.357082	0.047768	24.0927	-0.357287	-32554	-1.467352E-6	NaN
507	1.000000	0.722791	7.37001e+06	-51739.1	1005.82	-29751.4	0.000000	0.000000	6.723027	-0.010361	NaN	0.000000	0.001630	0.001673	28.0807	0.051802	0.002049	25.2811	-93.5687	-162.576	-0.014803	0.721539	-0.347804	-0.349056	-0.010361	25.2811	-0.347497	-23477.5	4.413177E-7	NaN
507	1.000000	0.730771	7.37001e+06	-51739.1	1005.82	-29751.4	0.000000	0.000000	6.731006	-0.034011	NaN	0.000000	0.001646	0.001676	28.0809	0.022123	0.002081	10.6292	120.5	-164.927	-0.010561	0.729443	-0.339825	-0.341153	-0.034011	10.6292	-0.337425	-16749.3	2.030562E-6	NaN
507	1.000000	0.738813	7.37001e+06	-51739.1	1005.82	-29751.4	0.000000	0.000000	6.739048	-0.041202	NaN	0.000000	0.001593	0.001695	28.081	0.102702	0.002022	50.799	-101.428	-162.919	-0.046691	0.737548	-0.331782	-0.333047	-0.041202	50.799	-0.331174	-13571.8	3.035858E-6	NaN
507	1.000000	0.746783	7.37001e+06	-51739.1	1005.82	-29751.4	0.000000	0.000000	6.747019	-0.030226	NaN	0.000000	0.001589	0.001686	28.081	0.039644	0.001896	20.9111	173.674	-165.115	-0.085756	0.745472	-0.323812	-0.325124	-0.030226	20.9111	-0.322728	-10203.7	2.962260E-6	NaN
507	1.000000	0.754809	7.37001e+06	-51739.1	1005.82	-29751.4	0.000000	0.000000	6.755047	0.021256	NaN	0.000000	0.001616	0.001694	28.081	0.139493	0.002079	67.0835	-0.343688	-166.692	-0.100493	0.753462	-0.315786	-0.317134	0.021256	67.0835	-0.316024	-8129.21	-2.614776E-6	NaN
507	1.000000	0.762805	7.37001e+06	-51739.1	1005.82	-29751.4	0.000000	0.000000	6.763041	-0.017322	NaN	0.000000	0.001565	0.001688	28.0796	0.070021	0.002030	34.5001	125.236	-164.983	0.080941	0.761473	-0.307790	-0.309122	-0.017322	34.5001	-0.307414	-6063.89	2.856569E-6	NaN
507	1.000000	0.770797	7.37001e+06	-51739.1	1005.82	-29751.4	0.000000	0.000000	6.771031	-0.078445	NaN	0.000000	0.001584	0.001695	28.0796	0.077889	0.001994	39.0708	-80.7012	-165.637	-0.018951	0.769466	-0.299798	-0.301129	-0.078445	39.0708	-0.298292	-4438.14	1.767513E-5	NaN
507	1.000000	0.778796	7.37001e+06	-51739.1	1005.82	-29751.4	0.000000	0.000000	6.779030	-0.058050	NaN	0.000000	0.001649	0.001691	28.0795	0.125097	0.001979	63.2198	-148.168	-163.016	-0.066864	0.777505	-0.291799	-0.293090	-0.058050	63.2198	-0.291111	-3466.87	1.674431E-5	NaN
507	1.000000	0.786808	7.37001e+06	-51739.1	1005.82	-29751.4	0.000000	0.000000	6.787044	-0.006369	NaN	0.000000	0.001619	0.001712	28.0796	0.081275	0.001939	41.9233	138.721	-165.133	0.025491	0.785477	-0.283788	-0.285118	-0.006369	41.9233	-0.283674	-2681.14	2.375297E-6	NaN
507	1.000000	0.794824	7.37001e+06	-51739.1	1005.82	-29751.4	0.000000	0.000000	6.795060	-0.008489	NaN	0.000000	0.001620	0.001715	28.0797	0.035692	0.001840	19.3934	-129.588	-165.62	0.016329	0.793526	-0.275772	-0.277069	-0.008489	19.3934	-0.275443	-2014.25	4.214314E-6	NaN
507	1.000000	0.802830	7.37001e+06	-51739.1	1005.82	-29751.4	0.000000	0.000000	6.803067	-0.001133	NaN	0.000000	0.001643	0.001709	28.0794	0.010592	0.002019	5.247093	-163.06	-168.402	-0.075757	0.801521	-0.267765	-0.269074	-0.001133	5.247093	-0.267603	-1531.36	7.399711E-7	NaN
507	1.000000	0.810832	7.37001e+06	-51739.1	1005.82	-29751.4	0.000000	0.000000	6.811071	0.047484	NaN	0.000000	0.001600	0.001675	28.0795	0.111019	0.001998	55.5523	-119.938	-164.189	0.067639	0.809537	-0.259763	-0.261058	0.047484	55.5523	-0.260404	-1188.8	-3.994296E-5	NaN
507	1.000000	0.818834	7.37002e+06	-51739.1	1005.82	-29751.4	0.000000	0.000000	6.819069	-0.051791	NaN	0.000000	0.001577	0.001698	28.0795	0.098447	0.001809	54.4113	162.743	-161.451	-0.023966	0.817508	-0.251761	-0.253087	-0.051791	54.4113	-0.251047	-853.41	6.068731E-5	NaN
507	1.000000	0.826814	7.37002e+06	-51739.1	1005.82	-29751.4	0.000000	0.000000	6.827047	-0.078883	NaN	0.000000	0.001601	0.001717	28.0794	0.025062	0.002059	12.1703	6.742663	-168.224	-0.146746	0.825542	-0.243782	-0.245053	-0.078883	12.1703	-0.238921	-552.948	0.000143	NaN
507	1.000000	0.834833	7.37002e+06	-51739.1	1005.82	-29751.4	0.000000	0.000000	6.835068	-0.034377	NaN	0.000000	0.001591	0.001740	28.0798	0.153136	0.002006	76.3355	-160.231	-163.241	0.015334	0.833488	-0.235762	-0.237107	-0.034377	76.3355	-0.235425	-487.435	7.052596E-5	NaN
507	1.000000	0.842858	7.37002e+06	-51739.1	1005.82	-29751.4	0.000000	0.000000	6.843093	-0.030675	NaN	0.000000	0.001587	0.001707	28.0797	0.038457	0.002067	18.6024	-164.198	-164.609	-0.086657	0.841567	-0.227737	-0.229028	-0.030675	18.6024	-0.226501	-352.493	8.702229E-5	NaN
507	1.000000	0.850866	7.37002e+06	-51739.1	1005.82	-29751.4	0.000000	0.000000	6.851101	-0.040460	NaN	0.000000	0.001617	0.001687	28.0795	0.135040	0.001957	69.0167	4.955063	-166.101	-0.040465	0.849560	-0.219730	-0.221036	-0.040460	69.0167	-0.219290	-270.597	0.000150	NaN
507	1.000000	0.858841	7.37002e+06	-51739.1	1005.82	-29751.4	0.000000	0.000000	6.859076	-0.026593	NaN	0.000000	0.001649	0.001700	28.0794	0.107109	0.002139	50.0706	-12.6032	-166.694	0.035009	0.857485	-0.211754	-0.213110	-0.026593	50.0706	-0.211356	-201.725	0.000132	NaN
507	1.000000	0.866839	7.37002e+06	-51739.1	1005.82	-29751.4	0.000000	0.000000	6.867075	-0.003506	NaN	0.000000	0.001600	0.001712	28.0795	0.066108	0.001753	37.7202	-43.7217	-168.472	-0.008111	0.865576	-0.203757	-0.205019	-0.003506	37.7202	-0.203687	-151.398	2.315551E-5	NaN
507	1.000000	0.874870	7.37002e+06	-51739.1	1005.82	-29751.4	0.000000	0.000000	6.875105	-0.025368	NaN	0.000000	0.001610	0.001696	28.0798	0.046422	0.001935	23.9847	166.204	-167.532	0.031222	0.873522	-0.195726	-0.197074	-0.025368	23.9847	-0.194932	-108.663	0.000233	NaN
507	1.000000	0.882873	7.37002e+06	-51739.1	1005.82	-29751.4	0.000000	0.000000	6.883112	0.063131	NaN	0.000000	0.001599	0.001694	28.0803	0.080095	0.002142	37.3885	179.012	-163.542	0.066295	0.881524	-0.187723	-0.189072	0.063131	37.3885	-0.188989	-86.5222	-0.000730	NaN
507	1.000000	0.890831	7.37002e+06	-51739.1	1005.82	-29751.4	0.000000	0.000000	6.891064	-0.070198	NaN	0.000000	0.001608	0.001694	28.0795	0.036627	0.001988	18.4198	140.421	-165.945	0.032985	0.889569	-0.179765	-0.181027	-0.070198	18.4198	-0.176906	-54.035	0.001299	NaN
507	1.000000	0.898892	7.37002e+06	-51739.1	1005.82	-29751.4	0.000000	0.000000	6.899128	-0.007023	NaN	0.000000	0.001593	0.001672	28.0801	0.071384	0.001976	36.1221	-82.2636	-165.821	0.004296	0.897581	-0.171704	-0.173015	-0.007023	36.1221	-0.171558	-43.7142	0.000161	NaN
507	1.000000	0.906878	7.37002e+06	-51739.1	1005.82	-29751.4	0.000000	0.000000	6.907113	-0.037362	NaN	0.000000	0.001599	0.001648	28.0807	0.051498	0.002080	24.759	13.0539	-166.116	0.050564	0.905559	-0.163717	-0.165037	-0.037362	24.759	-0.162586	-30.4642	0.001226	NaN
507	1.000000	0.914877	7.37002e+06	-51739.1	1005.82	-29751.4	0.000000	0.000000	6.915112	-0.035955	NaN	0.000000	0.001605	0.001678	28.0809	0.085727	0.001850	46.3348	15.5593	-166.559	-0.031641	0.913565	-0.155719	-0.157030	-0.035955	46.3348	-0.155137	-22.4407	0.001602	NaN
507	1.000000	0.922883	7.37002e+06	-51739.1	1005.82	-29751.4	0.000000	0.000000	6.923120	0.014480	NaN	0.000000	0.001603	0.001639	28.0809	0.067558	0.001979	34.1459	5.263781	-170.452	-0.052976	0.921573	-0.147713	-0.149022	0.014480	34.1459	-0.148031	-16.672	-0.000869	NaN
507	1.000000	0.930879	7.37002e+06	-51739.1	1005.82	-29751.4	0.000000	0.000000	6.931116	0.015860	NaN	0.000000	0.001594	0.001674	28.0808	0.064809	0.002024	32.0237	124.242	-165.931	0.036663	0.929505	-0.139716	-0.141091	0.015860	32.0237	-0.140088	-11.8745	-0.001336	NaN
507	1.000000	0.938894	7.37002e+06	-51739.1	1005.82	-29751.4	0.000000	0.000000	6.939128	-0.061036	NaN	0.000000	0.001610	0.001714	28.0807	0.085009	0.002030	41.885	168.77	-168.36	-0.063640	0.937488	-0.131702	-0.133107	-0.061036	41.885	-0.130609	-7.831117	0.007794	NaN
507	1.000000	0.946909	7.37002e+06	-51739.1	1005.82	-29751.4	0.000000	0.000000	6.947144	-0.045507	NaN	0.000000	0.001610	0.001698	28.0808	0.101184	0.001951	51.8739	167.78	-164.388	-0.110884	0.945602	-0.123686	-0.124994	-0.045507	51.8739	-0.123028	-5.556804	0.008189	NaN
507	1.000000	0.954906	7.37002e+06	-51739.1	1005.82	-29751.4	0.000000	0.000000	6.955142	-0.029413	NaN	0.000000	0.001585	0.001691	28.0807	0.023144	0.001963	11.7914	161.749	-163.445	-0.034089	0.953599	-0.115689	-0.116997	-0.029413	11.7914	-0.113818	-3.611426	0.008144	NaN
507	1.000000	0.962905	7.37002e+06	-51739.1	1005.82	-29751.4	0.000000	0.000000	6.963142	-0.001907	NaN	0.000000	0.001608	0.001690	28.0807	0.114657	0.001946	58.9182	-59.6769	-165.055	-0.002516	0.961596	-0.107690	-0.108999	-0.001907	58.9182	-0.107666	-2.681502	0.000711	NaN
507	1.000000	0.970921	7.37002e+06	-51739.1	1005.82	-29751.4	0.000000	0.000000	6.971157	-0.026734	NaN	0.000000	0.001564	0.001704	28.0805	0.018929	0.002030	9.323860	-136.204	-168.397	-0.045115	0.969591	-0.099674	-0.101004	-0.026734	9.323860	-0.097523	-1.608823	0.016617	NaN
507	1.000000	0.978904	7.37002e+06	-51739.1	1005.82	-29751.4	0.000000	0.000000	6.979141	0.025455	NaN	0.000000	0.001592	0.001698	28.0808	0.026027	0.002127	12.2365	7.718382	-168.177	0.017898	0.977602	-0.091692	-0.092993	0.025455	12.2365	-0.093252	-1.286421	-0.019787	NaN
507	1.000000	0.986909	7.37002e+06	-51739.1	1005.82	-29751.4	0.000000	0.000000	6.987145	-0.026186	NaN	0.000000	0.001658	0.001681	28.0807	0.142258	0.001999	71.1551	-41.6764	-164.533	0.013625	0.985583	-0.083686	-0.085012	-0.026186	71.1551	-0.083410	-0.751637	0.034839	NaN
507	1.000000	0.994911	7.37002e+06	-51739.1	1005.82	-29751.4	0.000000	0.000000	6.995147	0.002580	NaN	0.000000	0.001683	0.001711	28.0805	0.102806	0.001800	57.0991	-69.8366	-166.17	0.042586	0.993585	-0.075685	-0.077010	0.002580	57.0991	-0.075719	-0.482022	-0.005352	NaN
507	1.000000	1.002928	7.37002e+06	-51739.1	1005.82	-29751.4	0.000000	0.000000	7.003164	0.006404	NaN	0.000000	0.001659	0.001677	28.0806	0.065990	0.001977	33.3794	-18.7191	-168.121	-0.027935	1.001575	-0.067668	-0.069021	0.006404	33.3794	-0.067812	-0.297726	-0.021510	NaN
507	1.000000	1.010895	7.37002e+06	-51739.1	1005.82	-29751.4	0.000000	0.000000	7.011130	-0.051111	NaN	0.000000	0.001621	0.001746	28.0804	0.088235	0.002102	41.9862	157.145	-165.463	-0.013029	1.009558	-0.059700	-0.061037	-0.051111	41.9862	-0.058787	-0.166174	0.307573	NaN
507	1.000000	1.018893	7.37002e+06	-51739.1	1005.82	-29751.4	0.000000	0.000000	7.019129	-0.009907	NaN	0.000000	0.001630	0.001662	28.0809	0.059037	0.002120	27.8473	93.4759	-163.837	-0.016913	1.017564	-0.051702	-0.053032	-0.009907	27.8473	-0.051436	-0.100817	0.098266	NaN
507	1.000000	1.026929	7.37002e+06	-51739.1	1005.82	-29751.4	0.000000	0.000000	7.027164	-0.049178	NaN	0.000000	0.001638	0.001690	28.0809	0.026004	0.002133	12.1889	123.116	-164.818	-0.095040	1.025595	-0.043666	-0.045000	-0.049178	12.1889	-0.040640	-0.047295	1.039804	NaN
507	1.000000	1.034898	7.37002e+06	-51739.1	1005.82	-29751.4	0.000000	0.000000	7.035131	-0.081739	NaN	0.000000	0.001627	0.001705	28.0799	0.049325	0.002010	24.5426	112.486	-169.573	-0.076739	1.033646	-0.035697	-0.036949	-0.081739	24.5426	-0.033199	-0.028372	2.880953	NaN
507	1.000000	1.042916	7.37002e+06	-51739.1	1005.82	-29751.4	0.000000	0.000000	7.043151	-0.046887	NaN	0.000000	0.001637	0.001705	28.0791	0.028265	0.002013	14.042	-165.081	-171.687	-0.049165	1.041666	-0.027679	-0.028930	-0.046887	14.042	-0.025175	-0.017049	2.750180	NaN
507	1.000000	1.050892	7.37002e+06	-51739.1	1005.82	-29751.4	0.000000	0.000000	7.051129	0.020551	NaN	0.000000	0.001646	0.001689	28.0791	0.095098	0.002080	45.7265	-23.3751	-165.936	0.013856	1.049629	-0.019704	-0.020967	0.020551	45.7265	-0.020041	-0.012591	-1.632208	NaN
507	1.000000	1.058927	7.37002e+06	-51739.1	1005.82	-29751.4	0.000000	0.000000	7.059165	0.031997	NaN	0.000000	0.001658	0.001691	28.0792	0.059183	0.002028	29.1884	-133.086	-166.045	-0.008095	1.057644	-0.011668	-0.012952	0.031997	29.1884	-0.012491	-0.007809	-4.097329	NaN
507	1.000000	1.066930	7.37002e+06	-51739.1	1005.82	-29751.4	0.000000	0.000000	7.067172	0.126172	NaN	0.000000	0.001667	0.001716	28.0793	0.354113	0.002080	170.278	24.9188	-167.213	-0.020815	1.065629	-0.003665	-0.004966	0.126172	170.278	-0.004221	-0.002922	-43.1863	NaN
507	1.000000	1.074838	7.37002e+06	-51739.1	1005.82	-29751.4	0.000000	0.000000	7.075358	6.887419	NaN	0.000000	0.001679	0.001732	28.0793	7.951707	0.001758	4523.96	12.2995	-173.875	5.425811	1.073592	0.004243	0.002997	6.887419	4523.96	0.003101	0.002465	2794.02	83248.9
507	2.000000	1.077596	7.37002e+06	-51739.1	1005.82	-29751.4	0.000000	0.000000	7.078209	9.169600	NaN	0.000000	0.001673	0.001712	28.0793	10.5469	0.001649	6394.97	7.205156	-173.824	8.725334	1.077227	0.007000	0.006632	9.169600	6394.97	0.005925	0.004993	1836.4	82683.7
507	2.000000	1.079542	7.37002e+06	-51739.1	1005.82	-29751.4	0.000000	0.000000	7.080301	12.7199	NaN	0.000000	0.001635	0.001701	28.0793	12.3065	0.001663	7399.36	6.151489	-174.759	11.9439	1.079251	0.008946	0.008656	12.7199	7399.36	0.007657	0.006692	1900.76	82639.8
507	2.000000	1.081529	7.37002e+06	-51739.1	1005.82	-29751.4	0.000000	0.000000	7.082395	15.3	NaN	0.000000	0.001639	0.001700	28.0792	15.3214	0.001732	8843.93	7.167432	-176.337	14.9001	1.081165	0.010934	0.010570	15.3	8843.93	0.009637	0.008780	1742.52	86230.5
507	2.000000	1.083535	7.37002e+06	-51739.1	1005.82	-29751.4	0.000000	0.000000	7.084529	18.3996	NaN	0.000000	0.001655	0.001692	28.0796	16.9553	0.001792	9462.9	6.044470	-174.675	17.4374	1.083196	0.012940	0.012600	18.3996	9462.9	0.011482	0.010875	1691.9	82904.9
507	2.000000	1.085517	7.37002e+06	-51739.1	1005.82	-29751.4	0.000000	0.000000	7.086708	23.1976	NaN	0.000000	0.001652	0.001714	28.0797	19.3308	0.001617	11956	5.458049	-178.762	22.5866	1.085171	0.014922	0.014576	23.1976	11956	0.013467	0.013295	1744.83	94735.9
507	2.000000	1.087471	7.37002e+06	-51739.1	1005.82	-29751.4	0.000000	0.000000	7.088806	26.7001	NaN	0.000000	0.001625	0.001655	28.0795	20.9106	0.001791	11676.4	4.848989	-176.085	25.8281	1.087220	0.016876	0.016625	26.7001	11676.4	0.015161	0.015500	1722.58	85686.8
507	2.000000	1.089502	7.37002e+06	-51739.1	1005.82	-29751.4	0.000000	0.000000	7.091042	31.6897	NaN	0.000000	0.001602	0.001663	28.0793	23.158	0.001853	12494.7	10.1765	178.051	30.6628	1.089220	0.018907	0.018625	31.6897	12494.7	0.017005	0.018052	1755.45	84963.9
507	2.000000	1.091511	7.37002e+06	-51739.1	1005.82	-29751.4	0.000000	0.000000	7.093166	34.4814	NaN	0.000000	0.001598	0.001677	28.0793	24.8582	0.001802	13797.8	8.504937	179.239	34.8289	1.091186	0.020916	0.020591	34.4814	13797.8	0.019041	0.021058	1637.44	86871.1
507	2.000000	1.093525	7.37002e+06	-51739.1	1005.82	-29751.4	0.000000	0.000000	7.095480	41.7944	NaN	0.000000	0.001618	0.001696	28.0789	26.8297	0.001796	14942.5	4.211250	-177.474	41.0391	1.093130	0.022929	0.022534	41.7944	14942.5	0.020832	0.023866	1751.22	88370.5
507	2.000000	1.095456	7.37002e+06	-51739.1	1005.82	-29751.4	0.000000	0.000000	7.097479	43.4348	NaN	0.000000	0.001601	0.001683	28.0798	28.7572	0.001772	16226.4	5.265608	-178.67	43.3913	1.095183	0.024861	0.024587	43.4348	16226.4	0.022853	0.027226	1595.34	89846.7
507	2.000000	1.097493	7.37002e+06	-51739.1	1005.82	-29751.4	0.000000	0.000000	7.099750	49.1229	NaN	0.000000	0.001639	0.001671	28.0797	31.4991	0.001640	19203.3	5.500793	177.231	48.1493	1.097188	0.026898	0.026593	49.1229	19203.3	0.024980	0.030978	1585.71	99682.8
507	2.000000	1.099498	7.37002e+06	-51739.1	1005.82	-29751.4	0.000000	0.000000	7.102015	55.4345	NaN	0.000000	0.001609	0.001715	28.08	33.4394	0.001775	18840.4	8.607117	175.464	55.8454	1.099173	0.028903	0.028578	55.4345	18840.4	0.026696	0.034174	1622.13	93114.4
507	2.000000	1.101473	7.37002e+06	-51739.1	1005.82	-29751.4	0.000000	0.000000	7.104262	62.0608	NaN	0.000000	0.001649	0.001662	28.0811	35.4004	0.001760	20116.1	3.362705	-179.652	61.6413	1.101144	0.030878	0.030549	62.0608	20116.1	0.028564	0.037819	1640.98	94506.2
507	2.000000	1.103496	7.37002e+06	-51739.1	1005.82	-29751.4	0.000000	0.000000	7.106536	68.1695	NaN	0.000000	0.001623	0.001709	28.0804	39.0033	0.001925	20257.5	6.453674	176.456	68.314	1.103178	0.032901	0.032583	68.1695	20257.5	0.030377	0.041529	1641.51	90820.7
507	2.000000	1.105398	7.37002e+06	-51739.1	1005.82	-29751.4	0.000000	0.000000	7.108404	67.3291	NaN	0.000000	0.001609	0.001678	28.0806	39.4516	0.001836	21489.1	2.581691	179.515	64.7139	1.105142	0.034803	0.034546	67.3291	21489.1	0.032453	0.045981	1464.27	91558.8
507	2.000000	1.107456	7.37002e+06	-51739.1	1005.82	-29751.4	0.000000	0.000000	7.111035	81.2645	NaN	0.000000	0.001617	0.001711	28.0805	41.5796	0.001694	24547.9	3.525084	177.882	81.3005	1.107164	0.036861	0.036569	81.2645	24547.9	0.034378	0.050307	1615.36	99993.4
507	2.000000	1.109465	7.37002e+06	-51739.1	1005.82	-29751.4	0.000000	0.000000	7.113282	87.056	NaN	0.000000	0.001589	0.001705	28.0806	43.2383	0.001816	23816	3.004804	178.623	87.3368	1.109208	0.038870	0.038613	87.056	23816	0.036128	0.054405	1600.14	93287
507	2.000000	1.111445	7.37002e+06	-51739.1	1005.82	-29751.4	0.000000	0.000000	7.115939	103.512	NaN	0.000000	0.001587	0.001692	28.0812	46.0971	0.001784	25837.5	6.592849	175.096	101.006	1.111064	0.040850	0.040469	103.512	25837.5	0.037845	0.058577	1767.1	97534.6
507	2.000000	1.113494	7.37002e+06	-51739.1	1005.82	-29751.4	0.000000	0.000000	7.118053	105.107	NaN	0.000000	0.001613	0.001682	28.0806	49.0357	0.001899	25819.7	9.668993	172.107	104.748	1.113026	0.042898	0.042430	105.107	25819.7	0.039845	0.063629	1651.86	93518.1
507	2.000000	1.115470	7.37002e+06	-51739.1	1005.82	-29751.4	0.000000	0.000000	7.120232	110.044	NaN	0.000000	0.001598	0.001676	28.0809	50.0232	0.001792	27915.9	5.330066	174.564	110.709	1.115260	0.044875	0.044664	110.044	27915.9	0.041918	0.069079	1593	97040
507	2.000000	1.117388	7.37002e+06	-51739.1	1005.82	-29751.4	0.000000	0.000000	7.122687	123.108	NaN	0.000000	0.001586	0.001698	28.0805	51.5119	0.001663	30974.5	4.235742	174.519	119.784	1.117156	0.046792	0.046561	123.108	30974.5	0.043811	0.074249	1658.05	103856
507	2.000000	1.119468	7.37002e+06	-51739.1	1005.82	-29751.4	0.000000	0.000000	7.125275	135.444	NaN	0.000000	0.001575	0.001657	28.0804	53.3519	0.001787	29855.5	5.437012	173.898	136.749	1.119156	0.048872	0.048561	135.444	29855.5	0.045470	0.078927	1716.07	97092.2
507	2.000000	1.121386	7.37002e+06	-51739.1	1005.82	-29751.4	0.000000	0.000000	7.127795	150.085	NaN	0.000000	0.001629	0.001685	28.0816	55.0356	0.001878	29301.9	2.756153	176.973	146.99	1.121065	0.050791	0.050470	150.085	29301.9	0.046949	0.083217	1803.53	92803
507	2.000000	1.123430	7.37002e+06	-51739.1	1005.82	-29751.4	0.000000	0.000000	7.130245	159.956	NaN	0.000000	0.001606	0.001715	28.0805	57.2689	0.001818	31506.4	7.651009	172.393	156.47	1.122948	0.052835	0.052353	159.956	31506.4	0.049027	0.089429	1788.63	96257
507	2.000000	1.125426	7.37002e+06	-51739.1	1005.82	-29751.4	0.000000	0.000000	7.132720	171.601	NaN	0.000000	0.001595	0.001695	28.0808	58.5271	0.001723	33963.8	7.287486	171.719	170.266	1.125144	0.054831	0.054548	171.601	33963.8	0.051041	0.095659	1793.88	100329
507	2.000000	1.127366	7.37002e+06	-51739.1	1005.82	-29751.4	0.000000	0.000000	7.135185	184.37	NaN	0.000000	0.001606	0.001717	28.0806	61.0046	0.001766	34543.6	3.922393	174.559	180.467	1.127125	0.056771	0.056530	184.37	34543.6	0.052768	0.101161	1822.54	99228.1
507	2.000000	1.129328	7.37002e+06	-51739.1	1005.82	-29751.4	0.000000	0.000000	7.137739	198.744	NaN	0.000000	0.001620	0.001692	28.0805	61.3163	0.001748	35087	1.844335	176.104	192.83	1.129019	0.058733	0.058423	198.744	35087	0.054485	0.106778	1861.28	98102.1
507	2.000000	1.131396	7.37002e+06	-51739.1	1005.82	-29751.4	0.000000	0.000000	7.140334	211.589	NaN	0.000000	0.001618	0.001713	28.0808	64.0181	0.001723	37146.3	1.868067	176.016	208.807	1.131043	0.060800	0.060448	211.589	37146.3	0.056528	0.113654	1861.7	100669
507	2.000000	1.133459	7.37002e+06	-51739.1	1005.82	-29751.4	0.000000	0.000000	7.142760	220.414	NaN	0.000000	0.001625	0.001718	28.0802	66.7246	0.001728	38622.6	3.303292	173.909	217.764	1.133163	0.062864	0.062568	220.414	38622.6	0.058584	0.120779	1824.94	101536
507	2.000000	1.135384	7.37002e+06	-51739.1	1005.82	-29751.4	0.000000	0.000000	7.145389	237.542	NaN	0.000000	0.001659	0.001722	28.0794	67.9836	0.001725	39418.5	3.060947	174.154	234.783	1.135047	0.064788	0.064452	237.542	39418.5	0.060269	0.126774	1873.74	101148
507	2.000000	1.137365	7.37002e+06	-51739.1	1005.82	-29751.4	0.000000	0.000000	7.147865	249.573	NaN	0.000000	0.001633	0.001685	28.0792	70.3669	0.001596	44085.9	2.754779	174.305	244.305	1.137104	0.066770	0.066509	249.573	44085.9	0.062524	0.135014	1848.5	109619
507	2.000000	1.139344	7.37002e+06	-51739.1	1005.82	-29751.4	0.000000	0.000000	7.150803	272.87	NaN	0.000000	0.001627	0.001720	28.0795	72.3765	0.001759	41138.6	7.137516	170.389	267.911	1.138886	0.068749	0.068291	272.87	41138.6	0.063774	0.139688	1953.42	100564
507	2.000000	1.141371	7.37002e+06	-51739.1	1005.82	-29751.4	0.000000	0.000000	7.153224	282.451	NaN	0.000000	0.001621	0.001725	28.0796	75.7923	0.001850	40962	5.617764	171.966	280.09	1.141125	0.070776	0.070530	282.451	40962	0.065604	0.146668	1925.78	97720.6
507	2.000000	1.143391	7.37002e+06	-51739.1	1005.82	-29751.4	0.000000	0.000000	7.155802	296.028	NaN	0.000000	0.001576	0.001717	28.0792	77.7702	0.001862	41756.3	6.734330	171.314	292.565	1.143014	0.072795	0.072418	296.028	41756.3	0.067478	0.153981	1922.49	97221.4
507	2.000000	1.145378	7.37002e+06	-51739.1	1005.82	-29751.4	0.000000	0.000000	7.158570	315.027	NaN	0.000000	0.001595	0.001689	28.0792	78.6857	0.001826	43099.9	4.261568	172.65	313.586	1.145077	0.074782	0.074482	315.027	43099.9	0.069300	0.161254	1953.61	98060.6
507	2.000000	1.147328	7.37002e+06	-51739.1	1005.82	-29751.4	0.000000	0.000000	7.161274	333.349	NaN	0.000000	0.001638	0.001712	28.0792	80.1151	0.001816	44122.3	2.121570	174.488	328.54	1.147069	0.076732	0.076474	333.349	44122.3	0.071066	0.168452	1978.9	98218.5
507	2.000000	1.149409	7.37002e+06	-51739.1	1005.82	-29751.4	0.000000	0.000000	7.164064	350.613	NaN	0.000000	0.001607	0.001729	28.0795	80.6593	0.001680	48008.7	5.367256	170.48	350.226	1.148993	0.078813	0.078398	350.613	48008.7	0.073336	0.177922	1970.6	103987
507	2.000000	1.151357	7.37002e+06	-51739.1	1005.82	-29751.4	0.000000	0.000000	7.166888	371.891	NaN	0.000000	0.001632	0.001688	28.0794	83.121	0.001767	47045.2	3.304206	173.127	369.732	1.151062	0.080761	0.080466	371.891	47045.2	0.074833	0.184300	2017.86	100121
507	2.000000	1.153440	7.37002e+06	-51739.1	1005.82	-29751.4	0.000000	0.000000	7.169694	389.468	NaN	0.000000	0.001645	0.001719	28.0792	85.5645	0.001784	47961	6.003057	171.377	390.023	1.152984	0.082845	0.082388	389.468	47961	0.076755	0.192645	2021.68	99834.9
507	2.000000	1.155324	7.37002e+06	-51739.1	1005.82	-29751.4	0.000000	0.000000	7.172349	408.218	NaN	0.000000	0.001644	0.001696	28.0794	86.6728	0.001763	49152	2.806931	174.326	403.343	1.154863	0.084729	0.084268	408.218	49152	0.078500	0.200373	2037.29	100322
507	2.000000	1.157306	7.37002e+06	-51739.1	1005.82	-29751.4	0.000000	0.000000	7.174726	417.84	NaN	0.000000	0.001645	0.001634	28.0792	90.1769	0.001910	47214.4	3.247847	173.041	411.267	1.157088	0.086710	0.086493	417.84	47214.4	0.080073	0.207460	2014.07	94706.7
507	2.000000	1.159311	7.37002e+06	-51739.1	1005.82	-29751.4	0.000000	0.000000	7.177624	439.55	NaN	0.000000	0.001628	0.001679	28.0796	90.8236	0.001723	52702.7	2.329247	173.589	434.911	1.159061	0.088716	0.088466	439.55	52702.7	0.082460	0.218436	2012.26	103025
507	2.000000	1.161333	7.37002e+06	-51739.1	1005.82	-29751.4	0.000000	0.000000	7.180257	454.411	NaN	0.000000	0.001662	0.001671	28.0794	92.8931	0.001758	52847.2	4.176646	171.094	450.457	1.161006	0.090737	0.090411	454.411	52847.2	0.084288	0.227018	2001.65	101336
507	2.000000	1.163339	7.37002e+06	-51739.1	1005.82	-29751.4	0.000000	0.000000	7.183460	483.482	NaN	0.000000	0.001667	0.001717	28.0792	95.1257	0.001809	52598.1	3.354937	172.676	479.743	1.163019	0.092744	0.092424	483.482	52598.1	0.085850	0.234474	2061.99	99242.1
507	2.000000	1.165380	7.37002e+06	-51739.1	1005.82	-29751.4	0.000000	0.000000	7.186006	495.793	NaN	0.000000	0.001672	0.001649	28.0794	95.9951	0.001754	54716.5	2.933969	172.825	496.767	1.165044	0.094785	0.094449	495.793	54716.5	0.087989	0.244865	2024.76	101025
507	2.000000	1.167349	7.37002e+06	-51739.1	1005.82	-29751.4	0.000000	0.000000	7.188748	514.567	NaN	0.000000	0.001663	0.001716	28.0794	99.8209	0.001864	53553.9	6.196282	169.629	511.824	1.166957	0.096754	0.096361	514.567	53553.9	0.089548	0.252572	2037.31	97358.1
507	2.000000	1.169364	7.37002e+06	-51739.1	1005.82	-29751.4	0.000000	0.000000	7.191216	525.596	NaN	0.000000	0.001670	0.001729	28.0806	100.507	0.001845	54486.1	4.448148	170.784	524.292	1.169081	0.098769	0.098486	525.596	54486.1	0.091534	0.262556	2001.84	97151.3
507	2.000000	1.171324	7.37002e+06	-51739.1	1005.82	-29751.4	0.000000	0.000000	7.194122	548.579	NaN	0.000000	0.001633	0.001694	28.0806	101.972	0.001854	55014.1	4.481100	170.921	545.489	1.171017	0.100729	0.100422	548.579	55014.1	0.093250	0.271324	2021.86	96494.7
507	2.000000	1.173365	7.37002e+06	-51739.1	1005.82	-29751.4	0.000000	0.000000	7.196336	552.804	NaN	0.000000	0.001644	0.001678	28.0806	103.342	0.001932	53492.4	2.392019	173.222	549.686	1.173022	0.102770	0.102427	552.804	53492.4	0.095019	0.280505	1970.74	92277.3
507	2.000000	1.174447	7.37002e+06	-51739.1	1005.82	-29751.4	0.000000	0.000000	7.197752	560.932	NaN	0.000000	0.001651	0.001635	28.0807	104.734	0.001813	57771.9	5.321443	170.009	565.099	1.173989	0.103852	0.103394	560.932	57771.9	0.096570	0.288667	1943.18	98240.6