File: remote_trans/data/nanoindenter/0828-1/data/Data_2025-08-06,11h17m57s/2025-07-22_16-23-58_1_355.txt
2025-07-22, 16:23:58, 1
Index	Phase	Displacement	Time	Pos X	Pos Y	Pos Z	Rot A	Rot B	Piezo Z	Force A	Force B	Gripper	Voltage A	Voltage B	Temperature	Amplitude force	Amplitude pos	Stiffness	Phase shift	Phase excitation	Force A raw	Displacement raw	HMax	HMax raw	Real Force	Real Stiffness	Contact Depth	Area	Hardness	Reduced Mod.
[#]	[#]	[um]	[s]	[um]	[um]	[um]	[m°]	[m°]	[um]	[uN]	[uN]	[V]	[V]	[V]	[°C]	[uN]	[um]	[N/m]	[°]	[°]	[uN]	[um]	[um]	[um]	[uN]	[N/m]	[um]	[um^2]	[MPa]	[MPa]
355	1.000000	0.002324	7.36853e+06	-56389.1	955.818	-29739.3	0.000000	0.000000	6.002796	0.035165	NaN	0.000000	0.001526	0.001722	28.0817	0.046361	0.001070	43.3304	-158.338	-169.357	0.016769	0.001067	-1.137846	-1.139103	0.035165	43.3304	-1.138455	-1.644441E+15	-2.138437E-17	NaN
355	1.000000	0.012405	7.36853e+06	-56389.1	955.819	-29739.3	0.000000	0.000000	6.012880	0.101117	NaN	0.000000	0.001523	0.001748	28.0813	0.103924	0.001162	89.4338	-3.063414	11.0201	0.055222	0.010941	-1.127765	-1.129229	0.101117	89.4338	-1.128613	-1.213431E+15	-8.333147E-17	NaN
355	1.000000	0.022269	7.36853e+06	-56389.1	955.819	-29739.3	0.000000	0.000000	6.022740	0.015917	NaN	0.000000	0.001524	0.001772	28.0813	0.017811	0.001750	10.1767	-42.2728	-164.698	0.016998	0.020976	-1.117902	-1.119195	0.015917	10.1767	-1.119075	-9.037677E+14	-1.761214E-17	NaN
355	1.000000	0.032267	7.36853e+06	-56389.1	955.818	-29739.3	0.000000	0.000000	6.032737	-0.021902	NaN	0.000000	0.001488	0.001776	28.082	0.117600	0.001970	59.6951	-77.4611	17.2433	-0.012682	0.030910	-1.107903	-1.109260	-0.021902	59.6951	-1.107628	-6.345337E+14	3.451745E-17	NaN
355	1.000000	0.042256	7.36853e+06	-56389.1	955.818	-29739.3	0.000000	0.000000	6.042727	0.011130	NaN	0.000000	0.001494	0.001727	28.0815	0.015413	0.001976	7.798484	-166.214	-164.863	0.001349	0.040988	-1.097914	-1.099182	0.011130	7.798484	-1.098984	-4.857756E+14	-2.291183E-17	NaN
355	1.000000	0.052259	7.36853e+06	-56389.1	955.818	-29739.3	0.000000	0.000000	6.052730	0.003221	NaN	0.000000	0.001491	0.001692	28.0803	0.068373	0.002033	33.6398	97.0298	18.0598	0.042384	0.050921	-1.087911	-1.089249	0.003221	33.6398	-1.087983	-3.457214E+14	-9.315514E-18	NaN
355	1.000000	0.062285	7.36853e+06	-56389.1	955.818	-29739.3	0.000000	0.000000	6.062755	-0.002647	NaN	0.000000	0.001521	0.001733	28.0804	0.044750	0.002098	21.3266	88.4101	-165.822	-0.033075	0.060923	-1.077886	-1.079247	-0.002647	21.3266	-1.077792	-2.522718E+14	1.049433E-17	NaN
355	1.000000	0.072281	7.36853e+06	-56389.1	955.819	-29739.3	0.000000	0.000000	6.072752	-0.005821	NaN	0.000000	0.001540	0.001713	28.0803	0.045199	0.002024	22.3298	-63.9975	16.0665	-0.071765	0.070930	-1.067889	-1.069240	-0.005821	22.3298	-1.067694	-1.845873E+14	3.153584E-17	NaN
355	1.000000	0.082276	7.36853e+06	-56389.1	955.819	-29739.3	0.000000	0.000000	6.082750	0.077004	NaN	0.000000	0.001523	0.001673	28.0803	0.034670	0.001935	17.9174	159.954	-164.931	0.103425	0.080975	-1.057894	-1.059196	0.077004	17.9174	-1.061117	-1.506028E+14	-5.113085E-16	NaN
355	1.000000	0.092316	7.36853e+06	-56389.1	955.817	-29739.3	0.000000	0.000000	6.092787	0.025085	NaN	0.000000	0.001526	0.001695	28.0803	0.053041	0.002040	25.9966	23.4863	14.1802	0.031984	0.090939	-1.047855	-1.049231	0.025085	25.9966	-1.048578	-1.021650E+14	-2.455315E-16	NaN
355	1.000000	0.102302	7.36853e+06	-56389.1	955.818	-29739.3	0.000000	0.000000	6.102773	0.002617	NaN	0.000000	0.001540	0.001700	28.0802	0.055859	0.001952	28.6106	-37.8014	-166.249	0.003457	0.100990	-1.037868	-1.039180	0.002617	28.6106	-1.037937	-7.348947E+13	-3.560485E-17	NaN
355	1.000000	0.112268	7.36853e+06	-56389.1	955.819	-29739.3	0.000000	0.000000	6.112740	0.033050	NaN	0.000000	0.001521	0.001687	28.0802	0.054343	0.002104	25.8232	-86.0575	13.7624	-0.031326	0.110948	-1.027902	-1.029222	0.033050	25.8232	-1.028862	-5.548432E+13	-5.956562E-16	NaN
355	1.000000	0.122299	7.36853e+06	-56389.1	955.818	-29739.3	0.000000	0.000000	6.122771	0.036652	NaN	0.000000	0.001502	0.001712	28.08	0.040709	0.001949	20.8922	-107.384	-165.232	0.124418	0.120960	-1.017872	-1.019210	0.036652	20.8922	-1.019187	-4.111674E+13	-8.914019E-16	NaN
355	1.000000	0.132302	7.36853e+06	-56389.1	955.818	-29739.3	0.000000	0.000000	6.132773	0.009385	NaN	0.000000	0.001510	0.001681	28.0802	0.059660	0.001922	31.0347	43.9343	16.3345	-0.031927	0.130950	-1.007868	-1.009220	0.009385	31.0347	-1.008095	-2.915689E+13	-3.218902E-16	NaN
355	1.000000	0.142318	7.36853e+06	-56389.1	955.818	-29739.3	0.000000	0.000000	6.142789	0.011154	NaN	0.000000	0.001508	0.001691	28.0803	0.024026	0.001976	12.1608	-177.815	-168.585	0.047110	0.140971	-0.997852	-0.999199	0.011154	12.1608	-0.998540	-2.168283E+13	-5.144112E-16	NaN
355	1.000000	0.152301	7.36853e+06	-56389.1	955.818	-29739.3	0.000000	0.000000	6.152772	-0.009999	NaN	0.000000	0.001508	0.001711	28.0804	0.053545	0.002118	25.2815	38.7594	18.0222	-0.106719	0.150883	-0.987869	-0.989287	-0.009999	25.2815	-0.987572	-1.543173E+13	6.479400E-16	NaN
355	1.000000	0.162338	7.36853e+06	-56389.1	955.819	-29739.3	0.000000	0.000000	6.162813	0.095773	NaN	0.000000	0.001546	0.001712	28.0803	0.084396	0.001953	43.2174	-99.0132	-163.703	0.090705	0.161002	-0.977832	-0.979168	0.095773	43.2174	-0.979494	-1.201135E+13	-7.973568E-15	NaN
355	1.000000	0.172303	7.36853e+06	-56389.1	955.817	-29739.3	0.000000	0.000000	6.172776	0.050790	NaN	0.000000	0.001565	0.001716	28.0802	0.031998	0.001947	16.4314	-125.795	17.1664	-0.041509	0.170994	-0.967867	-0.969176	0.050790	16.4314	-0.970185	-8.998270E+12	-5.644397E-15	NaN
355	1.000000	0.182358	7.36853e+06	-56389.1	955.817	-29739.3	0.000000	0.000000	6.182830	0.029766	NaN	0.000000	0.001528	0.001739	28.0814	0.045857	0.002024	22.6545	34.0673	-164.42	0.099293	0.180957	-0.957813	-0.959213	0.029766	22.6545	-0.958798	-6.319232E+12	-4.710304E-15	NaN
355	1.000000	0.192311	7.36853e+06	-56389.1	955.819	-29739.3	0.000000	0.000000	6.192783	0.005580	NaN	0.000000	0.001569	0.001720	28.0815	0.041869	0.001880	22.2655	-129.897	12.7301	-0.003823	0.190964	-0.947859	-0.949207	0.005580	22.2655	-0.948047	-4.525667E+12	-1.232887E-15	NaN
355	1.000000	0.202350	7.36853e+06	-56389.1	955.818	-29739.3	0.000000	0.000000	6.202824	0.072563	NaN	0.000000	0.001547	0.001708	28.0815	0.148193	0.002128	69.625	158.166	-167.828	0.014400	0.201050	-0.937820	-0.939120	0.072563	69.625	-0.938602	-3.374973E+12	-2.150027E-14	NaN
355	1.000000	0.212369	7.36853e+06	-56389.1	955.818	-29739.3	0.000000	0.000000	6.212839	0.001462	NaN	0.000000	0.001558	0.001736	28.081	0.083377	0.001997	41.7614	-90.8176	13.3926	-0.018549	0.210959	-0.927802	-0.929211	0.001462	41.7614	-0.927828	-2.414787E+12	-6.053130E-16	NaN
355	1.000000	0.222339	7.36853e+06	-56389.1	955.818	-29739.3	0.000000	0.000000	6.222808	-0.023792	NaN	0.000000	0.001546	0.001687	28.0814	0.048589	0.002005	24.2321	153.904	-162.728	0.011579	0.221047	-0.917832	-0.919123	-0.023792	24.2321	-0.917095	-1.729757E+12	1.375433E-14	NaN
355	1.000000	0.232366	7.36853e+06	-56389.1	955.819	-29739.3	0.000000	0.000000	6.232837	0.015742	NaN	0.000000	0.001566	0.001689	28.0815	0.188120	0.001954	96.2685	-141.547	17.7526	0.003077	0.230981	-0.907804	-0.909189	0.015742	96.2685	-0.907927	-1.300645E+12	-1.210350E-14	NaN
355	1.000000	0.242351	7.36853e+06	-56389.1	955.818	-29739.3	0.000000	0.000000	6.242823	0.034415	NaN	0.000000	0.001595	0.001686	28.0813	0.081335	0.002158	37.688	85.8475	-167.218	-0.020910	0.241062	-0.897819	-0.899108	0.034415	37.688	-0.898504	-9.701776E+11	-3.547288E-14	NaN
355	1.000000	0.252378	7.36853e+06	-56389.1	955.819	-29739.3	0.000000	0.000000	6.252853	0.102269	NaN	0.000000	0.001601	0.001675	28.0812	0.023798	0.002070	11.4976	-3.424597	17.2377	0.008029	0.251039	-0.887792	-0.889131	0.102269	11.4976	-0.894463	-8.555446E+11	-1.195368E-13	NaN
355	1.000000	0.262339	7.36853e+06	-56389.1	955.818	-29739.3	0.000000	0.000000	6.262812	0.064391	NaN	0.000000	0.001604	0.001689	28.0815	0.023076	0.002039	11.3151	-70.2765	-164.467	0.073243	0.261068	-0.877832	-0.879102	0.064391	11.3151	-0.882100	-5.822384E+11	-1.105914E-13	NaN
355	1.000000	0.272380	7.36853e+06	-56389.1	955.817	-29739.3	0.000000	0.000000	6.272853	0.050077	NaN	0.000000	0.001578	0.001669	28.0814	0.085015	0.001960	43.3698	160.841	16.0521	0.007893	0.271022	-0.867790	-0.869148	0.050077	43.3698	-0.868656	-3.830500E+11	-1.307325E-13	NaN
355	1.000000	0.282369	7.36853e+06	-56389.1	955.818	-29739.3	0.000000	0.000000	6.282838	-0.059679	NaN	0.000000	0.001617	0.001686	28.0813	0.021322	0.002017	10.5711	-66.8018	-161.472	-0.013033	0.281006	-0.857801	-0.859164	-0.059679	10.5711	-0.853567	-2.393482E+11	2.493411E-13	NaN
355	1.000000	0.292383	7.36853e+06	-56389.1	955.818	-29739.3	0.000000	0.000000	6.292853	-0.019174	NaN	0.000000	0.001594	0.001649	28.0814	0.145697	0.002007	72.5806	151.891	14.917	0.030981	0.290981	-0.847787	-0.849189	-0.019174	72.5806	-0.847589	-1.986517E+11	9.652182E-14	NaN
355	1.000000	0.302354	7.36853e+06	-56389.1	955.818	-29739.3	0.000000	0.000000	6.302827	0.045069	NaN	0.000000	0.001618	0.001690	28.0816	0.142559	0.001966	72.5158	39.6349	-168.395	0.008437	0.301086	-0.837816	-0.839084	0.045069	72.5158	-0.838282	-1.486006E+11	-3.032889E-13	NaN
355	1.000000	0.312393	7.36853e+06	-56389.1	955.817	-29739.3	0.000000	0.000000	6.312862	-0.028539	NaN	0.000000	0.001596	0.001693	28.0812	0.044131	0.001857	23.7602	58.1027	13.3203	0.004787	0.310963	-0.827777	-0.829207	-0.028539	23.7602	-0.826877	-1.040989E+11	2.741572E-13	NaN
355	1.000000	0.322381	7.36853e+06	-56389.1	955.818	-29739.3	0.000000	0.000000	6.322852	-0.004923	NaN	0.000000	0.001505	0.001662	28.0801	0.046731	0.001997	23.4049	-150.295	-166.493	-0.007964	0.321106	-0.817789	-0.819064	-0.004923	23.4049	-0.817631	-7.799846E+10	6.311891E-14	NaN
355	1.000000	0.332393	7.36853e+06	-56389.1	955.818	-29739.3	0.000000	0.000000	6.332865	0.022738	NaN	0.000000	0.001544	0.001696	28.0801	0.079383	0.002042	38.8745	-133.986	13.2008	-0.008328	0.331052	-0.807777	-0.809118	0.022738	38.8745	-0.808215	-5.812423E+10	-3.911920E-13	NaN
355	1.000000	0.342398	7.36853e+06	-56389.1	955.818	-29739.3	0.000000	0.000000	6.342868	-0.013807	NaN	0.000000	0.001530	0.001695	28.0802	0.088943	0.001963	45.3059	-21.7658	-166.763	-0.028403	0.341078	-0.797773	-0.799092	-0.013807	45.3059	-0.797544	-4.164107E+10	3.315831E-13	NaN
355	1.000000	0.352430	7.36853e+06	-56389.1	955.819	-29739.3	0.000000	0.000000	6.352902	0.022492	NaN	0.000000	0.001527	0.001720	28.0801	0.108022	0.001940	55.6858	61.5287	16.8732	0.018389	0.351047	-0.787740	-0.789123	0.022492	55.6858	-0.788043	-3.093884E+10	-7.269892E-13	NaN
355	1.000000	0.362397	7.36853e+06	-56389.1	955.818	-29739.3	0.000000	0.000000	6.362869	0.032343	NaN	0.000000	0.001547	0.001730	28.0798	0.088425	0.001916	46.1558	108.599	-165.395	-0.006301	0.361098	-0.777773	-0.779072	0.032343	46.1558	-0.778299	-2.280922E+10	-1.417987E-12	NaN
355	1.000000	0.372416	7.36853e+06	-56389.1	955.818	-29739.3	0.000000	0.000000	6.372888	0.026322	NaN	0.000000	0.001532	0.001699	28.0802	0.072915	0.001940	37.5775	79.6108	16.1434	-0.015170	0.371047	-0.767754	-0.769123	0.026322	37.5775	-0.768279	-1.666894E+10	-1.579122E-12	NaN
355	1.000000	0.382433	7.36853e+06	-56389.1	955.818	-29739.3	0.000000	0.000000	6.382905	0.019525	NaN	0.000000	0.001497	0.001688	28.0803	0.044611	0.002045	21.8097	114.865	-164.559	0.007537	0.381082	-0.757737	-0.759088	0.019525	21.8097	-0.758408	-1.223619E+10	-1.595649E-12	NaN
355	1.000000	0.392409	7.36853e+06	-56389.1	955.818	-29739.3	0.000000	0.000000	6.392877	-0.070211	NaN	0.000000	0.001541	0.001682	28.08	0.094919	0.001901	49.9291	170.832	16.2591	0.013102	0.391061	-0.747761	-0.749109	-0.070211	49.9291	-0.746707	-8.479830E+9	8.279815E-12	NaN
355	1.000000	0.402400	7.36853e+06	-56389.1	955.819	-29739.3	0.000000	0.000000	6.402873	0.073215	NaN	0.000000	0.001547	0.001701	28.0801	0.071588	0.002177	32.8899	-135.095	-166.312	0.052186	0.401118	-0.737771	-0.739052	0.073215	32.8899	-0.739440	-6.751952E+9	-1.084359E-11	NaN
355	1.000000	0.412436	7.36853e+06	-56389.1	955.82	-29739.3	0.000000	0.000000	6.412909	0.041395	NaN	0.000000	0.001509	0.001682	28.0802	0.176059	0.002110	83.426	-110.675	14.1519	0.035101	0.411043	-0.727734	-0.729127	0.041395	83.426	-0.728106	-4.731482E+9	-8.748929E-12	NaN
355	1.000000	0.422455	7.36853e+06	-56389.1	955.819	-29739.3	0.000000	0.000000	6.422929	0.069752	NaN	0.000000	0.001559	0.001698	28.08	0.122950	0.002075	59.2644	160.036	-165.116	0.054000	0.421079	-0.717715	-0.719091	0.069752	59.2644	-0.718598	-3.510343E+9	-1.987052E-11	NaN
355	1.000000	0.432455	7.36853e+06	-56389.1	955.818	-29739.3	0.000000	0.000000	6.432928	0.048171	NaN	0.000000	0.001577	0.001672	28.0801	0.027901	0.002147	12.9926	-20.6183	15.3187	0.062745	0.431103	-0.707715	-0.709067	0.048171	12.9926	-0.710496	-2.721550E+9	-1.769990E-11	NaN
355	1.000000	0.442452	7.36853e+06	-56389.1	955.817	-29739.3	0.000000	0.000000	6.442921	-0.027329	NaN	0.000000	0.001553	0.001710	28.0801	0.052825	0.002007	26.3239	156.314	-163.878	-0.060072	0.441106	-0.697719	-0.699064	-0.027329	26.3239	-0.696940	-1.777202E+9	1.537774E-11	NaN
355	1.000000	0.452422	7.36853e+06	-56389.1	955.818	-29739.3	0.000000	0.000000	6.452894	0.017115	NaN	0.000000	0.001608	0.001698	28.0803	0.144410	0.001891	76.3598	-41.3084	14.6001	-0.015118	0.451095	-0.687748	-0.689075	0.017115	76.3598	-0.687916	-1.337941E+9	-1.279176E-11	NaN
355	1.000000	0.462430	7.36853e+06	-56389.1	955.818	-29739.3	0.000000	0.000000	6.462901	0.013186	NaN	0.000000	0.001543	0.001703	28.0813	0.038404	0.002092	18.3586	1.756859	-161.872	-0.012959	0.461140	-0.677740	-0.679030	0.013186	18.3586	-0.678279	-9.877979E+8	-1.334927E-11	NaN
355	1.000000	0.472441	7.36853e+06	-56389.1	955.82	-29739.3	0.000000	0.000000	6.472911	-0.031550	NaN	0.000000	0.001560	0.001682	28.0812	0.082364	0.001922	42.8588	51.0709	17.6578	-0.040844	0.471094	-0.667729	-0.669076	-0.031550	42.8588	-0.667177	-6.962233E+8	4.531635E-11	NaN
355	1.000000	0.482462	7.36853e+06	-56389.1	955.819	-29739.3	0.000000	0.000000	6.482933	0.021487	NaN	0.000000	0.001534	0.001639	28.0812	0.037851	0.001942	19.4867	-96.5691	-166.489	0.001911	0.481191	-0.657708	-0.658979	0.021487	19.4867	-0.658535	-5.301586E+8	-4.052961E-11	NaN
355	1.000000	0.492439	7.36853e+06	-56389.1	955.818	-29739.3	0.000000	0.000000	6.492911	0.023650	NaN	0.000000	0.001531	0.001701	28.0812	0.027243	0.002069	13.1658	6.288592	18.265	0.024728	0.491087	-0.647731	-0.649083	0.023650	13.1658	-0.649079	-3.933733E+8	-6.012121E-11	NaN
355	1.000000	0.502456	7.36853e+06	-56389.1	955.818	-29739.3	0.000000	0.000000	6.502927	-0.005794	NaN	0.000000	0.001496	0.001686	28.0811	0.042608	0.001989	21.4244	90.5015	-165.292	-0.046858	0.501114	-0.637714	-0.639056	-0.005794	21.4244	-0.637511	-2.729835E+8	2.122326E-11	NaN
355	1.000000	0.512450	7.36853e+06	-56389.1	955.818	-29739.3	0.000000	0.000000	6.512921	0.000387	NaN	0.000000	0.001510	0.001712	28.0812	0.068359	0.001911	35.7701	92.4704	11.9133	-0.050713	0.511079	-0.627720	-0.629091	0.000387	35.7701	-0.627728	-2.003647E+8	-1.933907E-12	NaN
355	1.000000	0.522469	7.36853e+06	-56389.1	955.819	-29739.3	0.000000	0.000000	6.522941	0.020841	NaN	0.000000	0.001535	0.001689	28.0814	0.063277	0.002023	31.2842	146.079	-164.294	0.038828	0.521188	-0.617701	-0.618982	0.020841	31.2842	-0.618200	-1.482157E+8	-1.406116E-10	NaN
355	1.000000	0.532487	7.36853e+06	-56389.1	955.819	-29739.3	0.000000	0.000000	6.532960	0.033378	NaN	0.000000	0.001506	0.001722	28.0812	0.090396	0.002118	42.6866	-2.060082	15.2659	0.017212	0.531140	-0.607683	-0.609030	0.033378	42.6866	-0.608269	-1.082179E+8	-3.084342E-10	NaN
355	1.000000	0.542459	7.36853e+06	-56389.1	955.818	-29739.3	0.000000	0.000000	6.542931	0.022943	NaN	0.000000	0.001480	0.001693	28.0813	0.017611	0.002163	8.143427	-44.6825	-161.993	-0.091674	0.541162	-0.597711	-0.599008	0.022943	8.143427	-0.599824	-8.280093E+7	-2.770885E-10	NaN
355	1.000000	0.552513	7.36853e+06	-56389.1	955.818	-29739.3	0.000000	0.000000	6.552984	0.009187	NaN	0.000000	0.001552	0.001733	28.0814	0.042262	0.001998	21.1574	9.755614	18.6505	-0.061629	0.551129	-0.587657	-0.589041	0.009187	21.1574	-0.587983	-5.686641E+7	-1.615539E-10	NaN
355	1.000000	0.562515	7.36853e+06	-56389.1	955.818	-29739.3	0.000000	0.000000	6.562986	0.012030	NaN	0.000000	0.001530	0.001693	28.0816	0.066945	0.002006	33.3738	103.621	-164.311	-0.035723	0.561200	-0.577655	-0.578970	0.012030	33.3738	-0.577925	-4.131327E+7	-2.911809E-10	NaN
355	1.000000	0.572504	7.36853e+06	-56389.1	955.819	-29739.3	0.000000	0.000000	6.572977	0.044759	NaN	0.000000	0.001520	0.001649	28.0813	0.036915	0.001878	19.6521	-100.205	15.1371	0.024724	0.571167	-0.567666	-0.569003	0.044759	19.6521	-0.569374	-3.147613E+7	-1.422014E-9	NaN
355	1.000000	0.582504	7.36853e+06	-56389.1	955.818	-29739.3	0.000000	0.000000	6.582976	0.019021	NaN	0.000000	0.001521	0.001654	28.0813	0.138777	0.002043	67.9447	-92.9978	-166.17	0.094493	0.581238	-0.557666	-0.558932	0.019021	67.9447	-0.557876	-2.182673E+7	-8.714614E-10	NaN
355	1.000000	0.592476	7.36853e+06	-56389.1	955.818	-29739.3	0.000000	0.000000	6.592946	-0.013939	NaN	0.000000	0.001551	0.001677	28.08	0.061943	0.002017	30.7168	51.8992	15.5545	0.011052	0.591167	-0.547695	-0.549003	-0.013939	30.7168	-0.547354	-1.560646E+7	8.931416E-10	NaN
355	1.000000	0.602499	7.36853e+06	-56389.1	955.818	-29739.3	0.000000	0.000000	6.602971	0.021342	NaN	0.000000	0.001503	0.001708	28.0802	0.169591	0.001995	84.9975	112.209	-170.154	0.025502	0.601140	-0.537671	-0.539030	0.021342	84.9975	-0.537859	-1.152567E+7	-1.851717E-9	NaN
355	1.000000	0.612489	7.36853e+06	-56389.1	955.819	-29739.3	0.000000	0.000000	6.612957	-0.069496	NaN	0.000000	0.001557	0.001721	28.0799	0.054945	0.002002	27.4425	-40.6946	14.3452	-0.013809	0.611153	-0.527681	-0.529017	-0.069496	27.4425	-0.525782	-7.83393e+06	8.871135E-9	NaN
355	1.000000	0.622495	7.36853e+06	-56389.1	955.818	-29739.3	0.000000	0.000000	6.622968	0.042748	NaN	0.000000	0.001549	0.001747	28.0802	0.015154	0.001922	7.883157	60.0568	-163.303	0.036994	0.621237	-0.517675	-0.518933	0.042748	7.883157	-0.521742	-6.88372e+06	-6.210022E-9	NaN
355	1.000000	0.632508	7.36853e+06	-56389.1	955.819	-29739.3	0.000000	0.000000	6.632977	-0.023933	NaN	0.000000	0.001556	0.001700	28.0803	0.015152	0.001936	7.826600	-126.899	16.86	-0.001541	0.631128	-0.507663	-0.509042	-0.023933	7.826600	-0.505369	-4.07277e+06	5.876317E-9	NaN
355	1.000000	0.642569	7.36853e+06	-56389.1	955.818	-29739.3	0.000000	0.000000	6.643041	0.009291	NaN	0.000000	0.001533	0.001693	28.0803	0.073404	0.002033	36.0999	141.276	-162.419	0.020188	0.641202	-0.497601	-0.498969	0.009291	36.0999	-0.497794	-3.19325e+06	-2.909524E-9	NaN
355	1.000000	0.652517	7.36854e+06	-56389.1	955.817	-29739.3	0.000000	0.000000	6.652990	0.054271	NaN	0.000000	0.001524	0.001708	28.0799	0.056227	0.002023	27.7923	-20.9731	14.1897	0.070911	0.651194	-0.487653	-0.488976	0.054271	27.7923	-0.489118	-2.41583e+06	-2.246457E-8	NaN
355	1.000000	0.662542	7.36854e+06	-56389.1	955.819	-29739.3	0.000000	0.000000	6.663014	0.038966	NaN	0.000000	0.001553	0.001715	28.0801	0.052857	0.001935	27.321	109.119	-161.746	0.056751	0.661228	-0.477628	-0.478942	0.038966	27.321	-0.478698	-1.72703e+06	-2.256223E-8	NaN
355	1.000000	0.672546	7.36854e+06	-56389.1	955.819	-29739.3	0.000000	0.000000	6.673017	0.001163	NaN	0.000000	0.001527	0.001702	28.0803	0.131737	0.002035	64.7369	124.446	13.1134	0.011164	0.671189	-0.467624	-0.468981	0.001163	64.7369	-0.467638	-1.20856e+06	-9.619720E-10	NaN
355	1.000000	0.682540	7.36854e+06	-56389.1	955.819	-29739.3	0.000000	0.000000	6.683010	-0.008015	NaN	0.000000	0.001591	0.001684	28.0801	0.023192	0.002055	11.2835	166.229	-166.94	0.026136	0.681193	-0.457630	-0.458977	-0.008015	11.2835	-0.457097	-859442	9.325317E-9	NaN
355	1.000000	0.692565	7.36854e+06	-56389.1	955.818	-29739.3	0.000000	0.000000	6.693036	-0.009383	NaN	0.000000	0.001577	0.001723	28.0799	0.059844	0.001924	31.106	-111.281	14.6987	-0.009794	0.691219	-0.447605	-0.448951	-0.009383	31.106	-0.447379	-627214	1.496005E-8	NaN
355	1.000000	0.702531	7.36854e+06	-56389.1	955.817	-29739.3	0.000000	0.000000	6.703004	0.056433	NaN	0.000000	0.001548	0.001715	28.0803	0.090484	0.001956	46.264	121.981	-167.188	0.098772	0.701246	-0.437639	-0.438924	0.056433	46.264	-0.438554	-470924	-1.198353E-7	NaN
355	1.000000	0.712541	7.36854e+06	-56389.1	955.819	-29739.3	0.000000	0.000000	6.713012	-0.005763	NaN	0.000000	0.001535	0.001753	28.0801	0.052581	0.002043	25.7349	-118.521	19.2846	-0.024291	0.711197	-0.427629	-0.428974	-0.005763	25.7349	-0.427461	-328192	1.755863E-8	NaN
355	1.000000	0.722545	7.36854e+06	-56389.1	955.818	-29739.3	0.000000	0.000000	6.723019	0.075976	NaN	0.000000	0.001541	0.001763	28.0798	0.064138	0.001931	33.2217	-91.3992	-162.71	-0.008472	0.721288	-0.417625	-0.418882	0.075976	33.2217	-0.419340	-251799	-3.017338E-7	NaN
355	1.000000	0.732570	7.36854e+06	-56389.1	955.818	-29739.3	0.000000	0.000000	6.733041	0.018384	NaN	0.000000	0.001518	0.001759	28.0813	0.089433	0.002032	44.0203	48.2847	14.675	0.045639	0.731209	-0.407600	-0.408961	0.018384	44.0203	-0.407914	-173270	-1.060979E-7	NaN
355	1.000000	0.742552	7.36854e+06	-56389.1	955.819	-29739.3	0.000000	0.000000	6.743022	-0.024243	NaN	0.000000	0.001580	0.001748	28.0812	0.096977	0.002047	47.3752	24.5107	-162.721	0.017870	0.741332	-0.397618	-0.398838	-0.024243	47.3752	-0.397234	-122048	1.986307E-7	NaN
355	1.000000	0.752593	7.36854e+06	-56389.1	955.819	-29739.3	0.000000	0.000000	6.753067	0.068192	NaN	0.000000	0.001569	0.001775	28.0812	0.015905	0.002106	7.552988	-44.9936	17.8226	0.058351	0.751216	-0.387577	-0.388954	0.068192	7.552988	-0.394349	-111002	-6.143353E-7	NaN
355	1.000000	0.762605	7.36854e+06	-56389.1	955.819	-29739.3	0.000000	0.000000	6.763078	0.056029	NaN	0.000000	0.001546	0.001753	28.0811	0.022869	0.002021	11.3176	-81.5776	-168.317	-0.000444	0.761240	-0.377566	-0.378931	0.056029	11.3176	-0.381279	-72149.6	-7.765677E-7	NaN
355	1.000000	0.772605	7.36854e+06	-56389.1	955.818	-29739.3	0.000000	0.000000	6.773079	0.059509	NaN	0.000000	0.001550	0.001723	28.0812	0.103088	0.001822	56.5934	133.292	17.1187	0.017741	0.771264	-0.367565	-0.368906	0.059509	56.5934	-0.368353	-47033.3	-1.265254E-6	NaN
355	1.000000	0.782593	7.36854e+06	-56389.1	955.819	-29739.3	0.000000	0.000000	6.783064	0.017806	NaN	0.000000	0.001505	0.001768	28.0812	0.065622	0.001853	35.4136	59.8903	-164.598	0.076501	0.781303	-0.357577	-0.358867	0.017806	35.4136	-0.357954	-33286.2	-5.349255E-7	NaN
355	1.000000	0.792575	7.36854e+06	-56389.1	955.818	-29739.3	0.000000	0.000000	6.793047	0.023818	NaN	0.000000	0.001508	0.001759	28.081	0.025528	0.002040	12.5165	82.8107	14.0463	0.076624	0.791238	-0.347595	-0.348932	0.023818	12.5165	-0.349022	-24706.4	-9.640600E-7	NaN
355	1.000000	0.802592	7.36854e+06	-56389.1	955.819	-29739.3	0.000000	0.000000	6.803065	0.049785	NaN	0.000000	0.001520	0.001756	28.0811	0.028180	0.002051	13.7373	13.0509	-168.82	0.031290	0.801334	-0.337578	-0.338836	0.049785	13.7373	-0.340297	-18444.9	-2.699102E-6	NaN
355	1.000000	0.812595	7.36854e+06	-56389.1	955.819	-29739.3	0.000000	0.000000	6.813066	0.011754	NaN	0.000000	0.001530	0.001727	28.081	0.070065	0.002016	34.748	-130.692	13.4663	0.020199	0.811264	-0.327575	-0.328906	0.011754	34.748	-0.327829	-12123.8	-9.694796E-7	NaN
355	1.000000	0.822613	7.36854e+06	-56389.1	955.819	-29739.3	0.000000	0.000000	6.823085	0.027087	NaN	0.000000	0.001530	0.001752	28.0809	0.084439	0.001924	43.8958	-87.9096	-163.939	-0.008687	0.821255	-0.317558	-0.318915	0.027087	43.8958	-0.318020	-8699.32	-3.113655E-6	NaN
355	1.000000	0.832568	7.36854e+06	-56389.1	955.819	-29739.3	0.000000	0.000000	6.833041	0.050441	NaN	0.000000	0.001497	0.001750	28.0812	0.021931	0.002074	10.5719	-88.0487	19.12	0.033818	0.831229	-0.307602	-0.308941	0.050441	10.5719	-0.311180	-6894.7	-7.315857E-6	NaN
355	1.000000	0.842606	7.36854e+06	-56389.1	955.817	-29739.3	0.000000	0.000000	6.843081	0.096548	NaN	0.000000	0.001472	0.001757	28.081	0.088200	0.001916	46.0225	165.578	-165.685	0.076741	0.841362	-0.297564	-0.298808	0.096548	46.0225	-0.299137	-4568.63	-2.113291E-5	NaN
355	1.000000	0.852634	7.36854e+06	-56389.1	955.82	-29739.3	0.000000	0.000000	6.853106	0.049025	NaN	0.000000	0.001499	0.001756	28.0807	0.077321	0.001968	39.2984	3.006004	17.6739	-0.050693	0.851259	-0.287537	-0.288912	0.049025	39.2984	-0.288472	-3165.2	-1.548863E-5	NaN
355	1.000000	0.862623	7.36854e+06	-56389.1	955.819	-29739.3	0.000000	0.000000	6.863094	0.003098	NaN	0.000000	0.001481	0.001768	28.0808	0.061019	0.001960	31.1283	47.5999	-168.985	-0.003573	0.861320	-0.277547	-0.278850	0.003098	31.1283	-0.277621	-2172.98	-1.425480E-6	NaN
355	1.000000	0.872644	7.36854e+06	-56389.1	955.818	-29739.3	0.000000	0.000000	6.873114	-0.021044	NaN	0.000000	0.001498	0.001770	28.0797	0.111782	0.002026	55.1832	124.892	14.3532	0.046302	0.871228	-0.267526	-0.268942	-0.021044	55.1832	-0.267240	-1511.98	1.391816E-5	NaN
355	1.000000	0.882614	7.36854e+06	-56389.1	955.819	-29739.3	0.000000	0.000000	6.883087	0.053063	NaN	0.000000	0.001494	0.001690	28.0797	0.047808	0.001988	24.0497	-133.076	-169.139	0.151504	0.881342	-0.257556	-0.258828	0.053063	24.0497	-0.259211	-1139.78	-4.655543E-5	NaN
355	1.000000	0.892626	7.36854e+06	-56389.1	955.818	-29739.3	0.000000	0.000000	6.893097	0.022557	NaN	0.000000	0.001504	0.001750	28.0804	0.062788	0.001978	31.7356	-70.3273	16.3103	0.148578	0.891274	-0.247544	-0.248896	0.022557	31.7356	-0.248077	-767.726	-2.938143E-5	NaN
355	1.000000	0.902643	7.36854e+06	-56389.1	955.818	-29739.3	0.000000	0.000000	6.903113	-0.023763	NaN	0.000000	0.001497	0.001686	28.0797	0.031340	0.002070	15.1414	2.222149	-165.524	-0.077635	0.901369	-0.237527	-0.238801	-0.023763	15.1414	-0.236350	-504.008	4.714869E-5	NaN
355	1.000000	0.912635	7.36854e+06	-56389.1	955.819	-29739.3	0.000000	0.000000	6.913107	0.032727	NaN	0.000000	0.001483	0.001651	28.08	0.070589	0.001987	35.5219	-49.9398	13.2719	0.051232	0.911274	-0.227536	-0.228897	0.032727	35.5219	-0.228227	-375.392	-8.718143E-5	NaN
355	1.000000	0.922641	7.36854e+06	-56389.1	955.818	-29739.3	0.000000	0.000000	6.923111	-0.024094	NaN	0.000000	0.001490	0.001653	28.0799	0.025390	0.001931	13.1489	42.1195	-163.241	-0.030505	0.921341	-0.217529	-0.218829	-0.024094	13.1489	-0.216155	-241.03	9.996068E-5	NaN
355	1.000000	0.932653	7.36854e+06	-56389.1	955.818	-29739.3	0.000000	0.000000	6.933122	-0.034545	NaN	0.000000	0.001478	0.001701	28.0802	0.029847	0.001993	14.9754	-23.3533	11.4731	-0.024080	0.931280	-0.207517	-0.208890	-0.034545	14.9754	-0.205787	-163.83	0.000211	NaN
355	1.000000	0.942687	7.36854e+06	-56389.1	955.818	-29739.3	0.000000	0.000000	6.943158	0.007267	NaN	0.000000	0.001483	0.001688	28.0798	0.073248	0.002169	33.7668	65.6135	-164.098	0.050343	0.941345	-0.197483	-0.198825	0.007267	33.7668	-0.197644	-120.479	-6.032112E-5	NaN
355	1.000000	0.952660	7.36854e+06	-56389.1	955.819	-29739.3	0.000000	0.000000	6.953130	-0.021381	NaN	0.000000	0.001419	0.001700	28.0801	0.108597	0.002035	53.368	112.669	16.8785	0.020228	0.951283	-0.187510	-0.188887	-0.021381	53.368	-0.187210	-80.7803	0.000265	NaN
355	1.000000	0.962638	7.36854e+06	-56389.1	955.819	-29739.3	0.000000	0.000000	6.963112	0.066402	NaN	0.000000	0.001463	0.001718	28.0798	0.037465	0.001915	19.5613	-102.519	-165.475	0.013553	0.961356	-0.177532	-0.178815	0.066402	19.5613	-0.180078	-61.2051	-0.001085	NaN
355	1.000000	0.972657	7.36854e+06	-56389.1	955.819	-29739.3	0.000000	0.000000	6.973129	0.029115	NaN	0.000000	0.001491	0.001730	28.08	0.019207	0.001925	9.979046	173.245	16.4476	-0.041480	0.971294	-0.167513	-0.168876	0.029115	9.979046	-0.169702	-40.5909	-0.000717	NaN
355	1.000000	0.982689	7.36854e+06	-56389.1	955.818	-29739.3	0.000000	0.000000	6.983160	-0.004870	NaN	0.000000	0.001461	0.001686	28.0798	0.018309	0.001949	9.393795	-25.4873	-164.932	-0.023861	0.981372	-0.157481	-0.158798	-0.004870	9.393795	-0.157092	-24.3292	0.000200	NaN
355	1.000000	0.992699	7.36854e+06	-56389.1	955.819	-29739.3	0.000000	0.000000	6.993172	0.064779	NaN	0.000000	0.001461	0.001701	28.0799	0.092172	0.001901	48.492	-0.545813	17.6865	0.090171	0.991288	-0.147472	-0.148882	0.064779	48.492	-0.148473	-16.9865	-0.003814	NaN
355	1.000000	1.002715	7.36854e+06	-56389.1	955.819	-29739.3	0.000000	0.000000	7.003187	0.026830	NaN	0.000000	0.001467	0.001708	28.0813	0.060634	0.002165	28.0085	-86.9031	-165.297	0.121425	1.001361	-0.137455	-0.138809	0.026830	28.0085	-0.138173	-10.9284	-0.002455	NaN
355	1.000000	1.012682	7.36854e+06	-56389.1	955.82	-29739.3	0.000000	0.000000	7.013152	-0.005323	NaN	0.000000	0.001500	0.001702	28.0812	0.058467	0.001980	29.5215	-102.116	17.1005	0.037028	1.011307	-0.127488	-0.128863	-0.005323	29.5215	-0.127353	-6.766257	0.000787	NaN
355	1.000000	1.022673	7.36854e+06	-56389.1	955.819	-29739.3	0.000000	0.000000	7.023143	-0.020569	NaN	0.000000	0.001475	0.001760	28.0811	0.010449	0.001994	5.239967	-90.1133	-164.087	-0.055595	1.021364	-0.117497	-0.118806	-0.020569	5.239967	-0.114553	-3.740032	0.005500	NaN
355	1.000000	1.032677	7.36854e+06	-56389.1	955.818	-29739.3	0.000000	0.000000	7.033149	0.038432	NaN	0.000000	0.001466	0.001698	28.0815	0.071080	0.001938	36.6792	27.9139	15.7871	0.060511	1.031310	-0.107494	-0.108860	0.038432	36.6792	-0.108279	-2.763422	-0.013908	NaN
355	1.000000	1.042680	7.36854e+06	-56389.1	955.818	-29739.3	0.000000	0.000000	7.043152	0.028552	NaN	0.000000	0.001498	0.001693	28.0813	0.098707	0.002009	49.1275	-129.916	-165.469	0.103120	1.041355	-0.097490	-0.098815	0.028552	49.1275	-0.097926	-1.642626	-0.017382	NaN
355	1.000000	1.052696	7.36854e+06	-56389.1	955.819	-29739.3	0.000000	0.000000	7.053166	-0.028665	NaN	0.000000	0.001535	0.001712	28.081	0.013284	0.001879	7.071329	-82.7677	17.4591	0.001414	1.051353	-0.087474	-0.088817	-0.028665	7.071329	-0.084434	-0.796067	0.036009	NaN
355	1.000000	1.062709	7.36854e+06	-56389.1	955.82	-29739.3	0.000000	0.000000	7.063183	0.077608	NaN	0.000000	0.001519	0.001667	28.0811	0.047542	0.001844	25.7803	-42.8841	-163.501	0.143008	1.061391	-0.077461	-0.078779	0.077608	25.7803	-0.079719	-0.609035	-0.127428	NaN
355	1.000000	1.072705	7.36854e+06	-56389.1	955.819	-29739.3	0.000000	0.000000	7.073177	0.029123	NaN	0.000000	0.001534	0.001708	28.0813	0.118978	0.002075	57.3266	53.8139	14.3361	0.075623	1.071331	-0.067465	-0.068839	0.029123	57.3266	-0.067846	-0.298374	-0.097605	NaN
355	1.000000	1.082711	7.36854e+06	-56389.1	955.819	-29739.3	0.000000	0.000000	7.083184	0.051118	NaN	0.000000	0.001516	0.001675	28.0812	0.087677	0.001970	44.4976	-146.167	-166.492	0.049439	1.081376	-0.057459	-0.058794	0.051118	44.4976	-0.058321	-0.161088	-0.317330	NaN
355	1.000000	1.092719	7.36854e+06	-56389.1	955.819	-29739.3	0.000000	0.000000	7.093193	0.078500	NaN	0.000000	0.001534	0.001689	28.0811	0.042921	0.002013	21.3202	170.924	15.9683	0.010284	1.091328	-0.047451	-0.048842	0.078500	21.3202	-0.050213	-0.092611	-0.847636	NaN
355	1.000000	1.102732	7.36854e+06	-56389.1	955.819	-29739.3	0.000000	0.000000	7.103205	0.071026	NaN	0.000000	0.001527	0.001722	28.0812	0.105439	0.001890	55.7806	-84.2923	-167.495	0.011297	1.101352	-0.037439	-0.038818	0.071026	55.7806	-0.038394	-0.040432	-1.756694	NaN
355	1.000000	1.112725	7.36854e+06	-56389.1	955.818	-29739.3	0.000000	0.000000	7.113197	0.024874	NaN	0.000000	0.001505	0.001733	28.0815	0.105534	0.001967	53.6531	-149.49	13.9953	0.051934	1.111391	-0.027445	-0.028779	0.024874	53.6531	-0.027793	-0.020015	-1.242778	NaN
355	1.000000	1.122732	7.36854e+06	-56389.1	955.818	-29739.3	0.000000	0.000000	7.123209	0.157576	NaN	0.000000	0.001524	0.001699	28.0812	0.159617	0.002114	75.4914	24.5995	-165.073	0.222878	1.121469	-0.017439	-0.018701	0.157576	75.4914	-0.019004	-0.011847	-13.3007	NaN
355	1.000000	1.132690	7.36854e+06	-56389.1	955.819	-29739.3	0.000000	0.000000	7.133165	0.117494	NaN	0.000000	0.001529	0.001674	28.0811	0.130576	0.002060	63.3998	23.2959	15.1364	0.070857	1.131376	-0.007481	-0.008794	0.117494	63.3998	-0.008871	-0.005738	-20.4759	NaN
355	1.000000	1.142732	7.36854e+06	-56389.1	955.818	-29739.3	0.000000	0.000000	7.143248	1.106566	NaN	0.000000	0.001490	0.001711	28.0802	1.742010	0.001924	905.34	12.8754	-169.562	0.415147	1.141374	0.002562	0.001204	1.106566	905.34	0.001645	0.001270	871.449	23212.2
355	2.000000	1.150864	7.36854e+06	-56389.1	955.819	-29739.3	0.000000	0.000000	7.151723	9.421600	NaN	0.000000	0.001532	0.001736	28.08	9.240629	0.001598	5781.92	3.781686	10.9935	8.688069	1.150519	0.010694	0.010349	9.421600	5781.92	0.009472	0.008600	1095.47	56961.8
355	2.000000	1.153381	7.36854e+06	-56389.1	955.819	-29739.3	0.000000	0.000000	7.154334	11.7211	NaN	0.000000	0.001507	0.001709	28.0803	11.9672	0.001742	6870.59	3.156367	-167.656	11.5794	1.153038	0.013211	0.012868	11.7211	6870.59	0.011932	0.011408	1027.41	58769.9
355	2.000000	1.155882	7.36854e+06	-56389.1	955.818	-29739.3	0.000000	0.000000	7.157058	17.1471	NaN	0.000000	0.001516	0.001701	28.0799	14.4575	0.001706	8474.95	6.706482	7.332669	17.8488	1.155416	0.015712	0.015246	17.1471	8474.95	0.014194	0.014226	1205.34	64918.6
355	2.000000	1.158322	7.36854e+06	-56389.1	955.819	-29739.3	0.000000	0.000000	7.159611	19.907	NaN	0.000000	0.001520	0.001727	28.0806	16.6458	0.001667	9982.94	9.252695	-178.081	20.5185	1.158076	0.018151	0.017905	19.907	9982.94	0.016656	0.017557	1133.83	68834
355	2.000000	1.160798	7.36854e+06	-56389.1	955.819	-29739.3	0.000000	0.000000	7.162398	27.4501	NaN	0.000000	0.001536	0.001710	28.0801	19.9451	0.001814	10997.6	5.532496	4.536260	25.8275	1.160428	0.020628	0.020258	27.4501	10997.6	0.018756	0.020625	1330.94	69964.4
355	2.000000	1.163332	7.36854e+06	-56389.1	955.819	-29739.3	0.000000	0.000000	7.165060	30.5572	NaN	0.000000	0.001529	0.001717	28.0807	22.8007	0.001721	13248.6	3.592474	-174.074	31.0374	1.162972	0.023162	0.022802	30.5572	13248.6	0.021432	0.024843	1230	76796.4
355	2.000000	1.165824	7.36854e+06	-56389.1	955.82	-29739.3	0.000000	0.000000	7.167633	32.5345	NaN	0.000000	0.001545	0.001711	28.08	25.4594	0.001835	13875.3	10.3421	-1.978999	31.9803	1.165538	0.025654	0.025368	32.5345	13875.3	0.023895	0.029036	1120.48	74395
355	2.000000	1.168295	7.36854e+06	-56389.1	955.82	-29739.3	0.000000	0.000000	7.170487	41.8241	NaN	0.000000	0.001558	0.001706	28.081	27.6403	0.001823	15163.4	5.076703	-177.484	41.425	1.167958	0.028125	0.027788	41.8241	15163.4	0.026057	0.032966	1268.71	76302.5
355	2.000000	1.170770	7.36854e+06	-56389.1	955.819	-29739.3	0.000000	0.000000	7.173219	48.0723	NaN	0.000000	0.001575	0.001689	28.0801	29.4471	0.001726	17063.3	3.629871	2.183457	46.588	1.170467	0.030600	0.030297	48.0723	17063.3	0.028487	0.037666	1276.27	80326.8
355	2.000000	1.173265	7.36854e+06	-56389.1	955.819	-29739.3	0.000000	0.000000	7.175824	50.7601	NaN	0.000000	0.001530	0.001719	28.0803	32.6031	0.001846	17664.7	4.211657	-178.504	49.9208	1.173008	0.033094	0.032838	50.7601	17664.7	0.030939	0.042713	1188.4	78090.8
355	2.000000	1.175762	7.36854e+06	-56389.1	955.819	-29739.3	0.000000	0.000000	7.178705	60.0816	NaN	0.000000	0.001548	0.001729	28.0799	33.9137	0.001760	19273.1	2.783162	2.192075	57.0916	1.175371	0.035592	0.035201	60.0816	19273.1	0.033254	0.047759	1258.01	80574.5
355	2.000000	1.178272	7.36854e+06	-56389.1	955.819	-29739.3	0.000000	0.000000	7.181659	70.8832	NaN	0.000000	0.001531	0.001686	28.0803	35.9445	0.001736	20701.3	5.355522	179.363	72.3917	1.177953	0.038102	0.037783	70.8832	20701.3	0.035534	0.052996	1337.51	82157.9
355	2.000000	1.180757	7.36854e+06	-56389.1	955.819	-29739.3	0.000000	0.000000	7.184246	73.3712	NaN	0.000000	0.001535	0.001707	28.0808	37.7877	0.001664	22703.7	1.448025	1.495789	71.5834	1.180443	0.040587	0.040273	73.3712	22703.7	0.038163	0.059368	1235.88	85132.6
355	2.000000	1.183310	7.36854e+06	-56389.1	955.819	-29739.3	0.000000	0.000000	7.186919	76.2904	NaN	0.000000	0.001506	0.001664	28.0819	41.5985	0.001805	23051.8	4.029811	179.633	78.177	1.182993	0.043140	0.042823	76.2904	23051.8	0.040657	0.065738	1160.52	82142.7
355	2.000000	1.185776	7.36854e+06	-56389.1	955.818	-29739.3	0.000000	0.000000	7.189978	90.6816	NaN	0.000000	0.001535	0.001662	28.0812	44.1565	0.001842	23967.1	9.420125	-5.877128	90.0351	1.185429	0.045606	0.045259	90.6816	23967.1	0.042768	0.071378	1270.44	81960.8
355	2.000000	1.188284	7.36854e+06	-56389.1	955.819	-29739.3	0.000000	0.000000	7.192692	95.7008	NaN	0.000000	0.001542	0.001682	28.0815	46.4128	0.001749	26532.7	5.403643	177.47	97.5259	1.187875	0.048113	0.047704	95.7008	26532.7	0.045408	0.078750	1215.24	86383
355	2.000000	1.190731	7.36854e+06	-56389.1	955.818	-29739.3	0.000000	0.000000	7.195732	110.112	NaN	0.000000	0.001496	0.001685	28.0814	49.1168	0.001893	25949.9	6.202928	-3.516565	108.62	1.190345	0.050561	0.050175	110.112	25949.9	0.047379	0.084483	1303.36	81568.9
355	2.000000	1.193214	7.36854e+06	-56389.1	955.819	-29739.3	0.000000	0.000000	7.198511	117.304	NaN	0.000000	0.001519	0.001753	28.0816	51.8794	0.001751	29631.9	8.460481	173.21	116.651	1.192866	0.053044	0.052696	117.304	29631.9	0.050075	0.092645	1266.18	88945.4
355	2.000000	1.195732	7.36854e+06	-56389.1	955.819	-29739.3	0.000000	0.000000	7.201852	137.302	NaN	0.000000	0.001553	0.001716	28.0812	52.6355	0.001728	30452.3	4.577558	-2.839246	133.522	1.195353	0.055562	0.055183	137.302	30452.3	0.052181	0.099273	1383.08	88303.5
355	2.000000	1.198170	7.36854e+06	-56389.1	955.818	-29739.3	0.000000	0.000000	7.204525	143.018	NaN	0.000000	0.001567	0.001672	28.0818	55.235	0.001870	29531.4	0.116076	-178.686	138.981	1.197949	0.058000	0.057779	143.018	29531.4	0.054368	0.106391	1344.26	82718.7
355	2.000000	1.200712	7.36854e+06	-56389.1	955.819	-29739.3	0.000000	0.000000	7.207728	159.098	NaN	0.000000	0.001562	0.001688	28.0813	58.1587	0.001690	34413.4	3.677209	-3.851658	157.431	1.200341	0.060541	0.060171	159.098	34413.4	0.057074	0.115526	1377.16	92504.1
355	2.000000	1.203175	7.36854e+06	-56389.1	955.819	-29739.3	0.000000	0.000000	7.210625	169.641	NaN	0.000000	0.001560	0.001702	28.0815	62.3478	0.001809	34464.8	6.073984	173.738	165.776	1.202919	0.063005	0.062749	169.641	34464.8	0.059314	0.123358	1375.19	89653
355	2.000000	1.205724	7.36854e+06	-56389.1	955.82	-29739.3	0.000000	0.000000	7.213641	180.996	NaN	0.000000	0.001549	0.001670	28.0813	63.4842	0.001862	34094.2	2.595015	-1.926980	178.534	1.205465	0.065553	0.065295	180.996	34094.2	0.061572	0.131505	1376.34	85897.8
355	2.000000	1.208199	7.36854e+06	-56389.1	955.819	-29739.3	0.000000	0.000000	7.216516	190.725	NaN	0.000000	0.001548	0.001655	28.0819	66.6181	0.001878	35471.7	7.034721	172.424	189.598	1.207922	0.068029	0.067752	190.725	35471.7	0.063996	0.140527	1357.22	86452.1
355	2.000000	1.210597	7.36854e+06	-56389.1	955.819	-29739.3	0.000000	0.000000	7.219577	206.825	NaN	0.000000	0.001576	0.001656	28.0814	69.2853	0.001819	38087.3	9.503228	-10.9936	199.836	1.210252	0.070427	0.070082	206.825	38087.3	0.066354	0.149574	1382.76	89975.7
355	2.000000	1.213179	7.36854e+06	-56389.1	955.819	-29739.3	0.000000	0.000000	7.222632	218.334	NaN	0.000000	0.001564	0.001701	28.0818	70.7081	0.001860	38023.5	1.935481	177.545	216.356	1.212954	0.073009	0.072784	218.334	38023.5	0.068702	0.158848	1374.48	87163.6
355	2.000000	1.215749	7.36854e+06	-56389.1	955.82	-29739.3	0.000000	0.000000	7.225965	236.889	NaN	0.000000	0.001549	0.001655	28.0801	72.4398	0.001746	41491.7	4.783026	-5.705743	234.269	1.215360	0.075579	0.075190	236.889	41491.7	0.071297	0.169403	1398.38	92103.1
355	2.000000	1.218160	7.36854e+06	-56389.1	955.82	-29739.3	0.000000	0.000000	7.228955	250.95	NaN	0.000000	0.001548	0.001642	28.0808	74.2886	0.001711	43411.4	1.700979	176.42	249.035	1.217895	0.077990	0.077725	250.95	43411.4	0.073654	0.179269	1399.85	93675.1
355	2.000000	1.220703	7.36854e+06	-56389.1	955.819	-29739.3	0.000000	0.000000	7.232141	266.566	NaN	0.000000	0.001551	0.001675	28.0806	77.7792	0.001781	43670.8	5.732090	-7.449708	264.321	1.220225	0.080533	0.080055	266.566	43670.8	0.075955	0.189152	1409.27	91739.9
355	2.000000	1.223195	7.36854e+06	-56389.1	955.819	-29739.3	0.000000	0.000000	7.235059	276.929	NaN	0.000000	0.001553	0.001701	28.0804	79.7876	0.001703	46837.8	3.094001	174.348	275.369	1.222889	0.083025	0.082719	276.929	46837.8	0.078590	0.200776	1379.29	95502.2
355	2.000000	1.225696	7.36854e+06	-56389.1	955.82	-29739.3	0.000000	0.000000	7.238444	298.405	NaN	0.000000	0.001543	0.001693	28.0805	82.013	0.001895	43278.8	4.980380	-6.341549	296.641	1.225305	0.085526	0.085135	298.405	43278.8	0.080355	0.208743	1429.53	86545
355	2.000000	1.228087	7.36854e+06	-56389.1	955.82	-29739.3	0.000000	0.000000	7.241477	314.011	NaN	0.000000	0.001523	0.001683	28.0806	82.9714	0.001749	47430.7	2.068142	175.914	307.759	1.227815	0.087917	0.087644	314.011	47430.7	0.082952	0.220727	1422.62	92236.9
355	2.000000	1.230673	7.36854e+06	-56389.1	955.819	-29739.3	0.000000	0.000000	7.244803	332.004	NaN	0.000000	0.001547	0.001653	28.0802	85.3187	0.001623	52582.7	3.622759	-6.241771	328.9	1.230291	0.090503	0.090121	332.004	52582.7	0.085767	0.234075	1418.36	99297.5
355	2.000000	1.233222	7.36854e+06	-56389.1	955.82	-29739.3	0.000000	0.000000	7.247755	341.805	NaN	0.000000	0.001570	0.001674	28.0802	89.9381	0.001721	52249	4.125091	172.591	341.756	1.232928	0.093052	0.092758	341.805	52249	0.088146	0.245636	1391.51	96317.3
355	2.000000	1.235680	7.36854e+06	-56389.1	955.821	-29739.3	0.000000	0.000000	7.250926	359.137	NaN	0.000000	0.001519	0.001688	28.0799	90.978	0.001760	51697.5	1.622327	-4.666208	355.575	1.235386	0.095510	0.095216	359.137	51697.5	0.090300	0.256330	1401.07	93291.8
355	2.000000	1.238188	7.36854e+06	-56389.1	955.82	-29739.3	0.000000	0.000000	7.254340	381.162	NaN	0.000000	0.001571	0.001656	28.0803	92.3353	0.001802	51229.6	0.280290	176.747	379.44	1.237941	0.098018	0.097771	381.162	51229.6	0.092438	0.267156	1426.74	90554.9
355	2.000000	1.240588	7.36854e+06	-56389.1	955.819	-29739.3	0.000000	0.000000	7.257302	394.803	NaN	0.000000	0.001549	0.001693	28.0803	96.901	0.001958	49481.1	7.422697	-10.6603	386.817	1.240266	0.100418	0.100096	394.803	49481.1	0.094434	0.277450	1422.97	85826.1
355	2.000000	1.243048	7.36854e+06	-56389.1	955.82	-29739.3	0.000000	0.000000	7.260277	407.338	NaN	0.000000	0.001544	0.001704	28.0802	97.3424	0.001847	52701.1	0.776808	175.95	400.67	1.242898	0.102878	0.102728	407.338	52701.1	0.097081	0.291384	1397.94	89198.9
355	2.000000	1.245632	7.36854e+06	-56389.1	955.821	-29739.3	0.000000	0.000000	7.263820	430.639	NaN	0.000000	0.001541	0.001667	28.0804	99.0518	0.001820	54434.6	-0.498336	-2.849008	425.249	1.245373	0.105462	0.105203	430.639	54434.6	0.099529	0.304553	1414	90119.1
355	2.000000	1.248132	7.36854e+06	-56389.1	955.821	-29739.3	0.000000	0.000000	7.267375	456.291	NaN	0.000000	0.001526	0.001683	28.0802	102.54	0.001856	55260.5	4.516206	171.961	453.891	1.247812	0.107962	0.107642	456.291	55260.5	0.101769	0.316843	1440.12	89694.6
355	2.000000	1.248662	7.36854e+06	-56389.1	955.821	-29739.3	0.000000	0.000000	7.268126	461.658	NaN	0.000000	0.001543	0.001690	28.0805	103.009	0.001827	56376	6.625333	-9.987013	456.888	1.248225	0.108492	0.108055	461.658	56376	0.102350	0.320070	1442.36	91042.6