File: remote_trans/data/nanoindenter/0828-1/data/Data_2025-08-06,11h17m57s/2025-07-22_16-23-58_1_365.txt
2025-07-22, 16:23:58, 1
Index	Phase	Displacement	Time	Pos X	Pos Y	Pos Z	Rot A	Rot B	Piezo Z	Force A	Force B	Gripper	Voltage A	Voltage B	Temperature	Amplitude force	Amplitude pos	Stiffness	Phase shift	Phase excitation	Force A raw	Displacement raw	HMax	HMax raw	Real Force	Real Stiffness	Contact Depth	Area	Hardness	Reduced Mod.
[#]	[#]	[um]	[s]	[um]	[um]	[um]	[m°]	[m°]	[um]	[uN]	[uN]	[V]	[V]	[V]	[°C]	[uN]	[um]	[N/m]	[°]	[°]	[uN]	[um]	[um]	[um]	[uN]	[N/m]	[um]	[um^2]	[MPa]	[MPa]
365	1.000000	0.002082	7.36863e+06	-56889.1	955.817	-29738.2	0.000000	0.000000	6.002774	-0.050384	NaN	0.000000	0.001719	0.001676	28.0804	0.039913	0.001044	38.2457	-153.223	-163.554	-0.083528	0.000848	-1.009297	-1.010532	-0.050384	38.2457	-1.008309	-2.935104E+13	1.716603E-15	NaN
365	1.000000	0.010079	7.36863e+06	-56889.1	955.819	-29738.2	0.000000	0.000000	6.010772	-0.020093	NaN	0.000000	0.001742	0.001654	28.0805	0.017770	0.000964	18.4341	-116.871	-166.416	-0.076175	0.008755	-1.001300	-1.002624	-0.020093	18.4341	-1.000483	-2.302878E+13	8.725091E-16	NaN
365	1.000000	0.018086	7.36863e+06	-56889.1	955.819	-29738.2	0.000000	0.000000	6.018780	0.001782	NaN	0.000000	0.001721	0.001670	28.0802	0.064894	0.001611	40.2857	-128.214	-164.443	0.057457	0.016759	-0.993294	-0.994621	0.001782	40.2857	-0.993327	-1.844650E+13	-9.661984E-17	NaN
365	1.000000	0.026107	7.36863e+06	-56889.1	955.818	-29738.2	0.000000	0.000000	6.026802	0.033053	NaN	0.000000	0.001700	0.001666	28.0803	0.079141	0.001836	43.0988	-79.5839	-165.792	0.035134	0.024779	-0.985272	-0.986601	0.033053	43.0988	-0.985847	-1.462781E+13	-2.259623E-15	NaN
365	1.000000	0.034054	7.36863e+06	-56889.1	955.818	-29738.2	0.000000	0.000000	6.034746	-0.057125	NaN	0.000000	0.001693	0.001655	28.0805	0.037006	0.001795	20.6169	-62.7109	-163.808	0.000898	0.032761	-0.977325	-0.978618	-0.057125	20.6169	-0.975247	-1.052855E+13	5.425729E-15	NaN
365	1.000000	0.042083	7.36863e+06	-56889.1	955.819	-29738.2	0.000000	0.000000	6.042778	0.035124	NaN	0.000000	0.001707	0.001647	28.0802	0.046670	0.001974	23.6445	-22.0726	-168.226	-0.009509	0.040763	-0.969297	-0.970616	0.035124	23.6445	-0.970411	-9.061499E+12	-3.876171E-15	NaN
365	1.000000	0.050053	7.36863e+06	-56889.1	955.818	-29738.2	0.000000	0.000000	6.050745	-0.048633	NaN	0.000000	0.001692	0.001666	28.0811	0.059734	0.002098	28.4693	138.773	-164.302	0.065827	0.048771	-0.961326	-0.962608	-0.048633	28.4693	-0.960045	-6.568683E+12	7.403714E-15	NaN
365	1.000000	0.058049	7.36863e+06	-56889.1	955.818	-29738.2	0.000000	0.000000	6.058744	0.028592	NaN	0.000000	0.001678	0.001666	28.0805	0.076240	0.001964	38.8108	-82.9195	-168.925	0.038398	0.056758	-0.953330	-0.954621	0.028592	38.8108	-0.953883	-5.424882E+12	-5.270550E-15	NaN
365	1.000000	0.066106	7.36863e+06	-56889.1	955.818	-29738.2	0.000000	0.000000	6.066799	-0.030348	NaN	0.000000	0.001684	0.001652	28.0803	0.058503	0.002011	29.0979	-78.2417	-164.978	0.040392	0.064753	-0.945273	-0.946627	-0.030348	29.0979	-0.944491	-4.052514E+12	7.488674E-15	NaN
365	1.000000	0.074072	7.36863e+06	-56889.1	955.818	-29738.2	0.000000	0.000000	6.074768	0.058399	NaN	0.000000	0.001708	0.001676	28.0804	0.163109	0.002101	77.6466	-174.195	-164.88	0.087516	0.072742	-0.937307	-0.938638	0.058399	77.6466	-0.937872	-3.299290E+12	-1.770036E-14	NaN
365	1.000000	0.082054	7.36863e+06	-56889.1	955.818	-29738.2	0.000000	0.000000	6.082745	-0.061113	NaN	0.000000	0.001714	0.001695	28.0802	0.024107	0.001967	12.2575	133.717	-167.94	-0.149056	0.080800	-0.929326	-0.930580	-0.061113	12.2575	-0.925586	-2.252282E+12	2.713397E-14	NaN
365	1.000000	0.090088	7.36863e+06	-56889.1	955.818	-29738.2	0.000000	0.000000	6.090781	-0.007254	NaN	0.000000	0.001729	0.001657	28.0807	0.092388	0.002083	44.3474	41.8238	-166.744	-0.031434	0.088756	-0.921291	-0.922623	-0.007254	44.3474	-0.921169	-1.963295E+12	3.694926E-15	NaN
365	1.000000	0.098090	7.36863e+06	-56889.1	955.818	-29738.2	0.000000	0.000000	6.098782	-0.047553	NaN	0.000000	0.001668	0.001672	28.0805	0.066310	0.002067	32.0858	-96.0124	-163.653	-0.020019	0.096801	-0.913289	-0.914578	-0.047553	32.0858	-0.912178	-1.484489E+12	3.203337E-14	NaN
365	1.000000	0.106035	7.36863e+06	-56889.1	955.82	-29738.2	0.000000	0.000000	6.106728	-0.021497	NaN	0.000000	0.001644	0.001702	28.0806	0.066414	0.001911	34.7597	-161.16	-162.058	-0.032426	0.104741	-0.905345	-0.906638	-0.021497	34.7597	-0.904881	-1.183076E+12	1.817079E-14	NaN
365	1.000000	0.114048	7.36863e+06	-56889.1	955.819	-29738.2	0.000000	0.000000	6.114741	-0.040588	NaN	0.000000	0.001627	0.001693	28.0804	0.105868	0.001926	54.9726	-87.6866	-165.097	-0.092627	0.112781	-0.897331	-0.898599	-0.040588	54.9726	-0.896777	-9.194237E+11	4.414474E-14	NaN
365	1.000000	0.122113	7.36863e+06	-56889.1	955.818	-29738.2	0.000000	0.000000	6.122808	0.017833	NaN	0.000000	0.001638	0.001717	28.0806	0.033172	0.002064	16.0699	-45.8798	-167.159	-0.002128	0.120775	-0.889266	-0.890604	0.017833	16.0699	-0.890099	-7.468749E+11	-2.387684E-14	NaN
365	1.000000	0.130079	7.36863e+06	-56889.1	955.818	-29738.2	0.000000	0.000000	6.130775	0.045928	NaN	0.000000	0.001661	0.001669	28.0809	0.080836	0.002049	39.4574	133.051	-162.831	-0.035531	0.128747	-0.881300	-0.882633	0.045928	39.4574	-0.882173	-5.835786E+11	-7.870102E-14	NaN
365	1.000000	0.138093	7.36863e+06	-56889.1	955.819	-29738.2	0.000000	0.000000	6.138787	0.002390	NaN	0.000000	0.001648	0.001708	28.0819	0.057648	0.001926	29.9265	-12.1268	-164.797	0.052945	0.136763	-0.873286	-0.874616	0.002390	29.9265	-0.873346	-4.433118E+11	-5.391757E-15	NaN
365	1.000000	0.146100	7.36863e+06	-56889.1	955.819	-29738.2	0.000000	0.000000	6.146792	-0.048958	NaN	0.000000	0.001685	0.001682	28.0821	0.057437	0.002102	27.3214	95.9089	-166.899	-0.051884	0.144767	-0.865279	-0.866612	-0.048958	27.3214	-0.863935	-3.306569E+11	1.480619E-13	NaN
365	1.000000	0.154105	7.36863e+06	-56889.1	955.819	-29738.2	0.000000	0.000000	6.154796	-0.091336	NaN	0.000000	0.001627	0.001687	28.0817	0.089658	0.002126	42.1671	-149.033	-166.158	-0.060437	0.152813	-0.857274	-0.858567	-0.091336	42.1671	-0.855649	-2.554043E+11	3.576142E-13	NaN
365	1.000000	0.162139	7.36863e+06	-56889.1	955.817	-29738.2	0.000000	0.000000	6.162832	-0.006391	NaN	0.000000	0.001611	0.001685	28.0818	0.065684	0.002010	32.6852	171.197	-164.133	-0.065247	0.160793	-0.849241	-0.850586	-0.006391	32.6852	-0.849094	-2.081942E+11	3.069779E-14	NaN
365	1.000000	0.170109	7.36863e+06	-56889.1	955.819	-29738.2	0.000000	0.000000	6.170802	-0.024690	NaN	0.000000	0.001643	0.001679	28.0817	0.183380	0.001981	92.5544	160.853	-166.223	0.071135	0.168789	-0.841271	-0.842591	-0.024690	92.5544	-0.841071	-1.621049E+11	1.523104E-13	NaN
365	1.000000	0.178107	7.36863e+06	-56889.1	955.819	-29738.2	0.000000	0.000000	6.178802	0.045089	NaN	0.000000	0.001691	0.001715	28.0817	0.135944	0.001891	71.8745	-123.303	-164.503	0.033082	0.176816	-0.833273	-0.834564	0.045089	71.8745	-0.833743	-1.289781E+11	-3.495860E-13	NaN
365	1.000000	0.186119	7.36863e+06	-56889.1	955.819	-29738.2	0.000000	0.000000	6.186814	0.023713	NaN	0.000000	0.001657	0.001639	28.0818	0.010008	0.002083	4.805583	-154.382	-164.286	-0.006634	0.184778	-0.825261	-0.826601	0.023713	4.805583	-0.828961	-1.110985E+11	-2.134410E-13	NaN
365	1.000000	0.194121	7.36863e+06	-56889.1	955.819	-29738.2	0.000000	0.000000	6.194814	-0.031093	NaN	0.000000	0.001706	0.001676	28.0816	0.096671	0.002012	48.0487	27.2764	-165.169	0.014843	0.192790	-0.817258	-0.818590	-0.031093	48.0487	-0.816773	-7.593587E+10	4.094665E-13	NaN
365	1.000000	0.202127	7.36863e+06	-56889.1	955.818	-29738.2	0.000000	0.000000	6.202821	0.012741	NaN	0.000000	0.001685	0.001675	28.0819	0.149872	0.002081	72.0019	53.0441	-165.745	0.000280	0.200845	-0.809253	-0.810534	0.012741	72.0019	-0.809385	-6.028792E+10	-2.113361E-13	NaN
365	1.000000	0.210127	7.36863e+06	-56889.1	955.818	-29738.2	0.000000	0.000000	6.210823	0.050148	NaN	0.000000	0.001692	0.001703	28.0817	0.028902	0.002060	14.0296	85.3398	-161.223	0.007688	0.208840	-0.801252	-0.802540	0.050148	14.0296	-0.803933	-5.084439E+10	-9.863038E-13	NaN
365	1.000000	0.218114	7.36863e+06	-56889.1	955.818	-29738.2	0.000000	0.000000	6.218805	-0.070845	NaN	0.000000	0.001679	0.001699	28.0817	0.046203	0.002063	22.3929	-104.664	-166.707	-0.064598	0.216811	-0.793266	-0.794568	-0.070845	22.3929	-0.790893	-3.382293E+10	2.094583E-12	NaN
365	1.000000	0.226122	7.36863e+06	-56889.1	955.818	-29738.2	0.000000	0.000000	6.226815	-0.010286	NaN	0.000000	0.001665	0.001705	28.0818	0.089680	0.002151	41.6877	167.525	-165.686	-0.013185	0.224833	-0.785258	-0.786547	-0.010286	41.6877	-0.785073	-2.819384E+10	3.648343E-13	NaN
365	1.000000	0.234111	7.36863e+06	-56889.1	955.819	-29738.2	0.000000	0.000000	6.234804	-0.027570	NaN	0.000000	0.001667	0.001692	28.0817	0.037761	0.002054	18.3802	138.582	-162.667	-0.034989	0.232841	-0.777268	-0.778539	-0.027570	18.3802	-0.776143	-2.132151E+10	1.293037E-12	NaN
365	1.000000	0.242123	7.36863e+06	-56889.1	955.819	-29738.2	0.000000	0.000000	6.242818	0.020923	NaN	0.000000	0.001717	0.001680	28.0823	0.073449	0.002069	35.501	-26.9835	-161.128	-0.010296	0.240874	-0.769256	-0.770505	0.020923	35.501	-0.769698	-1.742626E+10	-1.200680E-12	NaN
365	1.000000	0.250147	7.36863e+06	-56889.1	955.818	-29738.2	0.000000	0.000000	6.250841	0.016449	NaN	0.000000	0.001699	0.001657	28.0818	0.066455	0.002028	32.7659	-105.586	-166.133	-0.042319	0.248923	-0.761233	-0.762456	0.016449	32.7659	-0.761609	-1.352674E+10	-1.216044E-12	NaN
365	1.000000	0.258126	7.36863e+06	-56889.1	955.818	-29738.2	0.000000	0.000000	6.258819	-0.020513	NaN	0.000000	0.001714	0.001689	28.0819	0.038252	0.001984	19.2801	69.3492	-164.572	0.025267	0.256769	-0.753254	-0.754610	-0.020513	19.2801	-0.752456	-1.015414E+10	2.020148E-12	NaN
365	1.000000	0.266146	7.36863e+06	-56889.1	955.819	-29738.2	0.000000	0.000000	6.266842	0.053283	NaN	0.000000	0.001700	0.001691	28.0819	0.104037	0.002027	51.3196	43.7182	-166.639	0.008258	0.264817	-0.745233	-0.746562	0.053283	51.3196	-0.746012	-8.297104E+9	-6.421876E-12	NaN
365	1.000000	0.274145	7.36863e+06	-56889.1	955.818	-29738.2	0.000000	0.000000	6.274838	-0.012334	NaN	0.000000	0.001673	0.001723	28.0804	0.099018	0.001947	50.8496	-31.5112	-163.28	-0.033868	0.272817	-0.737235	-0.738562	-0.012334	50.8496	-0.737053	-6.264804E+9	1.968765E-12	NaN
365	1.000000	0.282171	7.36863e+06	-56889.1	955.818	-29738.2	0.000000	0.000000	6.282862	-0.065067	NaN	0.000000	0.001661	0.001730	28.081	0.046095	0.002034	22.6637	143.086	-164.407	-0.104595	0.280837	-0.729208	-0.730542	-0.065067	22.6637	-0.727055	-4.577888E+9	1.421332E-11	NaN
365	1.000000	0.290188	7.36863e+06	-56889.1	955.818	-29738.2	0.000000	0.000000	6.290881	-0.018278	NaN	0.000000	0.001712	0.001684	28.0806	0.019815	0.002077	9.541109	-139.474	-164.554	-0.067198	0.288886	-0.721191	-0.722493	-0.018278	9.541109	-0.719754	-3.640175E+9	5.021216E-12	NaN
365	1.000000	0.298158	7.36863e+06	-56889.1	955.819	-29738.2	0.000000	0.000000	6.298849	-0.074654	NaN	0.000000	0.001711	0.001689	28.0806	0.126362	0.001935	65.2958	138.916	-164.897	-0.012041	0.296796	-0.713222	-0.714584	-0.074654	65.2958	-0.712364	-2.886076E+9	2.586701E-11	NaN
365	1.000000	0.306180	7.36863e+06	-56889.1	955.819	-29738.2	0.000000	0.000000	6.306875	0.023579	NaN	0.000000	0.001766	0.001678	28.0805	0.042923	0.002051	20.927	155.224	-162.456	-0.068721	0.304831	-0.705199	-0.706548	0.023579	20.927	-0.706044	-2.366207E+9	-9.964958E-12	NaN
365	1.000000	0.314166	7.36863e+06	-56889.1	955.819	-29738.2	0.000000	0.000000	6.314859	-0.023061	NaN	0.000000	0.001732	0.001664	28.0804	0.039539	0.002064	19.1611	-77.1073	-163.971	-0.005264	0.312859	-0.697213	-0.698520	-0.023061	19.1611	-0.696311	-1.742375E+9	1.323546E-11	NaN
365	1.000000	0.322181	7.36863e+06	-56889.1	955.818	-29738.2	0.000000	0.000000	6.322874	-0.027447	NaN	0.000000	0.001710	0.001661	28.0808	0.090524	0.001971	45.9163	-102.315	-164.657	0.065077	0.320841	-0.689198	-0.690538	-0.027447	45.9163	-0.688750	-1.373523E+9	1.998274E-11	NaN
365	1.000000	0.330161	7.36863e+06	-56889.1	955.818	-29738.2	0.000000	0.000000	6.330854	-0.033855	NaN	0.000000	0.001705	0.001697	28.0804	0.029403	0.001922	15.3013	-88.8729	-165.25	0.028271	0.328888	-0.681218	-0.682491	-0.033855	15.3013	-0.679559	-1.028415E+9	3.291971E-11	NaN
365	1.000000	0.338173	7.36863e+06	-56889.1	955.819	-29738.2	0.000000	0.000000	6.338866	-0.019949	NaN	0.000000	0.001664	0.001708	28.0806	0.069705	0.001923	36.2549	152.33	-166.315	0.032940	0.336869	-0.673207	-0.674510	-0.019949	36.2549	-0.672794	-8.310479E+8	2.400427E-11	NaN
365	1.000000	0.346182	7.36863e+06	-56889.1	955.818	-29738.2	0.000000	0.000000	6.346874	-0.040224	NaN	0.000000	0.001731	0.001704	28.0803	0.054226	0.001951	27.7968	-163.617	-167.814	-0.015203	0.344896	-0.665198	-0.666483	-0.040224	27.7968	-0.664112	-6.321040E+8	6.363522E-11	NaN
365	1.000000	0.354185	7.36863e+06	-56889.1	955.819	-29738.2	0.000000	0.000000	6.354879	0.004702	NaN	0.000000	0.001694	0.001713	28.0804	0.092895	0.002020	45.993	133.584	-167.172	-0.003662	0.352909	-0.657194	-0.658470	0.004702	45.993	-0.657271	-5.094283E+8	-9.229656E-12	NaN
365	1.000000	0.362175	7.36863e+06	-56889.1	955.818	-29738.2	0.000000	0.000000	6.362868	-0.027234	NaN	0.000000	0.001731	0.001708	28.0804	0.055022	0.002125	25.8909	34.8663	-161.178	-0.062027	0.360922	-0.649204	-0.650457	-0.027234	25.8909	-0.648415	-3.852209E+8	7.069595E-11	NaN
365	1.000000	0.370199	7.36863e+06	-56889.1	955.818	-29738.2	0.000000	0.000000	6.370893	-0.006808	NaN	0.000000	0.001716	0.001695	28.0804	0.049056	0.002054	23.8844	-61.9393	-166.721	-0.057739	0.368870	-0.641180	-0.642510	-0.006808	23.8844	-0.640966	-3.044705E+8	2.236081E-11	NaN
365	1.000000	0.378221	7.36863e+06	-56889.1	955.818	-29738.2	0.000000	0.000000	6.378913	-0.031443	NaN	0.000000	0.001725	0.001703	28.0806	0.040550	0.002029	19.9828	82.3628	-160.874	0.026283	0.376923	-0.633159	-0.634456	-0.031443	19.9828	-0.631979	-2.291884E+8	1.371946E-10	NaN
365	1.000000	0.386195	7.36863e+06	-56889.1	955.818	-29738.2	0.000000	0.000000	6.386889	-0.002397	NaN	0.000000	0.001670	0.001702	28.0805	0.014092	0.001927	7.312590	-51.3795	-164.124	0.036716	0.384870	-0.625184	-0.626509	-0.002397	7.312590	-0.624938	-1.834420E+8	1.306672E-11	NaN
365	1.000000	0.394196	7.36863e+06	-56889.1	955.818	-29738.2	0.000000	0.000000	6.394892	0.045785	NaN	0.000000	0.001658	0.001679	28.0803	0.050244	0.002090	24.0409	93.888	-165.789	-0.025855	0.392879	-0.617183	-0.618500	0.045785	24.0409	-0.618612	-1.501583E+8	-3.049136E-10	NaN
365	1.000000	0.402194	7.36863e+06	-56889.1	955.819	-29738.2	0.000000	0.000000	6.402888	-0.001825	NaN	0.000000	0.001654	0.001709	28.0803	0.084312	0.001905	44.249	153.291	-164.917	0.033692	0.400908	-0.609185	-0.610471	-0.001825	44.249	-0.609154	-1.112944E+8	1.640007E-11	NaN
365	1.000000	0.410208	7.36863e+06	-56889.1	955.818	-29738.2	0.000000	0.000000	6.410899	-0.054627	NaN	0.000000	0.001617	0.001683	28.0817	0.028555	0.001966	14.5221	-122.801	-165.402	-0.081045	0.408967	-0.601172	-0.602412	-0.054627	14.5221	-0.598350	-7.902031E+7	6.913025E-10	NaN
365	1.000000	0.418203	7.36863e+06	-56889.1	955.819	-29738.2	0.000000	0.000000	6.418902	0.118420	NaN	0.000000	0.001640	0.001678	28.0817	0.092877	0.002066	44.9584	-78.2207	-162.087	-0.025662	0.416918	-0.593176	-0.594461	0.118420	44.9584	-0.595152	-7.139603E+7	-1.658632E-9	NaN
365	1.000000	0.426212	7.36863e+06	-56889.1	955.818	-29738.2	0.000000	0.000000	6.426906	0.012053	NaN	0.000000	0.001656	0.001661	28.082	0.137312	0.001972	69.6149	-132.627	-163.886	-0.010588	0.424879	-0.585167	-0.586501	0.012053	69.6149	-0.585297	-5.221752E+7	-2.308249E-10	NaN
365	1.000000	0.434226	7.36863e+06	-56889.1	955.819	-29738.2	0.000000	0.000000	6.434917	-0.055487	NaN	0.000000	0.001648	0.001707	28.0819	0.032367	0.002042	15.8503	109.293	-166.568	-0.048614	0.432857	-0.577154	-0.578523	-0.055487	15.8503	-0.574528	-3.708359E+7	1.496258E-9	NaN
365	1.000000	0.442239	7.36863e+06	-56889.1	955.819	-29738.2	0.000000	0.000000	6.442934	0.027639	NaN	0.000000	0.001660	0.001670	28.0816	0.077574	0.002137	36.296	-176.149	-164.277	0.012376	0.440909	-0.569140	-0.570470	0.027639	36.296	-0.569712	-3.181606E+7	-8.687238E-10	NaN
365	1.000000	0.450236	7.36863e+06	-56889.1	955.818	-29738.2	0.000000	0.000000	6.450929	-0.010275	NaN	0.000000	0.001652	0.001691	28.0816	0.048484	0.002090	23.1956	-30.007	-163.956	-0.063615	0.448918	-0.561144	-0.562461	-0.010275	23.1956	-0.560811	-2.396626E+7	4.287389E-10	NaN
365	1.000000	0.458223	7.36863e+06	-56889.1	955.82	-29738.2	0.000000	0.000000	6.458919	0.034022	NaN	0.000000	0.001653	0.001700	28.0819	0.112137	0.001904	58.8896	-67.227	-166.773	0.126333	0.456916	-0.553156	-0.554464	0.034022	58.8896	-0.553589	-1.903971E+7	-1.786894E-9	NaN
365	1.000000	0.466214	7.36863e+06	-56889.1	955.819	-29738.2	0.000000	0.000000	6.466905	-0.074643	NaN	0.000000	0.001677	0.001693	28.0818	0.108850	0.002026	53.7271	29.19	-162.905	-0.080236	0.464945	-0.545165	-0.546434	-0.074643	53.7271	-0.544123	-1.407760E+7	5.302255E-9	NaN
365	1.000000	0.474244	7.36863e+06	-56889.1	955.818	-29738.2	0.000000	0.000000	6.474934	-0.102414	NaN	0.000000	0.001639	0.001722	28.082	0.073698	0.001900	38.7968	-147.663	-167.419	-0.077340	0.472929	-0.537135	-0.538451	-0.102414	38.7968	-0.535156	-1.057182E+7	9.687406E-9	NaN
365	1.000000	0.482245	7.36863e+06	-56889.1	955.818	-29738.2	0.000000	0.000000	6.482936	-0.082851	NaN	0.000000	0.001682	0.001632	28.0817	0.015150	0.002067	7.330866	-72.3961	-164.582	-0.087976	0.480934	-0.529134	-0.530445	-0.082851	7.330866	-0.520658	-6.64882e+06	1.246094E-8	NaN
365	1.000000	0.490221	7.36863e+06	-56889.1	955.818	-29738.2	0.000000	0.000000	6.490918	0.067668	NaN	0.000000	0.001666	0.001661	28.0819	0.144407	0.002109	68.48	-178.147	-165.017	-0.032200	0.488982	-0.521158	-0.522397	0.067668	68.48	-0.521899	-6.91844e+06	-9.780812E-9	NaN
365	1.000000	0.498231	7.36863e+06	-56889.1	955.818	-29738.2	0.000000	0.000000	6.498928	0.060701	NaN	0.000000	0.001657	0.001710	28.0818	0.080938	0.002024	39.9949	123.47	-165.149	0.006311	0.497004	-0.513148	-0.514375	0.060701	39.9949	-0.514286	-5.42127e+06	-1.119681E-8	NaN
365	1.000000	0.506248	7.36863e+06	-56889.1	955.818	-29738.2	0.000000	0.000000	6.506945	0.075103	NaN	0.000000	0.001673	0.001676	28.0816	0.071412	0.002062	34.6268	-14.9311	-165.238	-0.008581	0.504930	-0.505131	-0.506449	0.075103	34.6268	-0.506758	-4.2584e+06	-1.763636E-8	NaN
365	1.000000	0.514256	7.36863e+06	-56889.1	955.819	-29738.2	0.000000	0.000000	6.514950	0.003992	NaN	0.000000	0.001693	0.001722	28.0817	0.057451	0.002050	28.0266	167.858	-165.814	-0.036983	0.512956	-0.497124	-0.498424	0.003992	28.0266	-0.497230	-3.13596e+06	-1.273094E-9	NaN
365	1.000000	0.522247	7.36863e+06	-56889.1	955.818	-29738.2	0.000000	0.000000	6.522942	0.039143	NaN	0.000000	0.001642	0.001688	28.0815	0.012597	0.001897	6.641252	61.5038	-163.821	0.000336	0.520956	-0.489133	-0.490423	0.039143	6.641252	-0.493553	-2.78632e+06	-1.404815E-8	NaN
365	1.000000	0.530259	7.36863e+06	-56889.1	955.818	-29738.2	0.000000	0.000000	6.530953	-0.004653	NaN	0.000000	0.001649	0.001691	28.0822	0.099157	0.002068	47.9371	-30.9111	-164.612	0.044036	0.528973	-0.481120	-0.482407	-0.004653	47.9371	-0.481048	-1.8629e+06	2.497791E-9	NaN
365	1.000000	0.538266	7.36863e+06	-56889.1	955.818	-29738.2	0.000000	0.000000	6.538963	0.058927	NaN	0.000000	0.001656	0.001680	28.0819	0.146685	0.002154	68.0894	82.0517	-167.523	0.062461	0.536987	-0.473113	-0.474393	0.058927	68.0894	-0.473762	-1.47283e+06	-4.000927E-8	NaN
365	1.000000	0.546270	7.36863e+06	-56889.1	955.818	-29738.2	0.000000	0.000000	6.546965	0.030069	NaN	0.000000	0.001636	0.001721	28.0804	0.037045	0.002076	17.8428	139.672	-161.789	-0.049597	0.544948	-0.465110	-0.466431	0.030069	17.8428	-0.466373	-1.16018e+06	-2.591729E-8	NaN
365	1.000000	0.554294	7.36863e+06	-56889.1	955.819	-29738.2	0.000000	0.000000	6.554985	-0.062932	NaN	0.000000	0.001662	0.001698	28.0805	0.033606	0.002020	16.6385	144.89	-160.788	-0.045442	0.552977	-0.457086	-0.458402	-0.062932	16.6385	-0.454249	-783699	8.030145E-8	NaN
365	1.000000	0.562267	7.36863e+06	-56889.1	955.819	-29738.2	0.000000	0.000000	6.562959	-0.032238	NaN	0.000000	0.001631	0.001673	28.0804	0.077067	0.002000	38.5239	73.3436	-166.012	-0.017845	0.560938	-0.449113	-0.450442	-0.032238	38.5239	-0.448485	-650140	4.958634E-8	NaN
365	1.000000	0.570272	7.36863e+06	-56889.1	955.819	-29738.2	0.000000	0.000000	6.570964	-0.039523	NaN	0.000000	0.001653	0.001688	28.0809	0.065904	0.002154	30.5892	107.847	-165.908	-0.126445	0.568928	-0.441107	-0.442451	-0.039523	30.5892	-0.440138	-495810	7.971485E-8	NaN
365	1.000000	0.578275	7.36863e+06	-56889.1	955.818	-29738.2	0.000000	0.000000	6.578972	0.067033	NaN	0.000000	0.001635	0.001663	28.0804	0.084058	0.001917	43.856	43.3236	-166.61	-0.004167	0.576963	-0.433104	-0.434416	0.067033	43.856	-0.434250	-409414	-1.637301E-7	NaN
365	1.000000	0.586288	7.36863e+06	-56889.1	955.818	-29738.2	0.000000	0.000000	6.586982	0.003518	NaN	0.000000	0.001682	0.001702	28.0805	0.108239	0.002038	53.1094	-105.863	-161.153	-0.017744	0.584999	-0.425092	-0.426380	0.003518	53.1094	-0.425141	-304288	-1.156169E-8	NaN
365	1.000000	0.594282	7.36863e+06	-56889.1	955.818	-29738.2	0.000000	0.000000	6.594974	-0.066319	NaN	0.000000	0.001650	0.001693	28.0805	0.023754	0.002091	11.3575	-73.0815	-163.366	-0.000752	0.593034	-0.417097	-0.418345	-0.066319	11.3575	-0.412717	-202782	3.270467E-7	NaN
365	1.000000	0.602285	7.36863e+06	-56889.1	955.818	-29738.2	0.000000	0.000000	6.602977	-0.045715	NaN	0.000000	0.001645	0.001673	28.0805	0.123207	0.001928	63.8896	179.592	-164.271	-0.000264	0.601007	-0.409094	-0.410372	-0.045715	63.8896	-0.408558	-176964	2.583263E-7	NaN
365	1.000000	0.610311	7.36863e+06	-56889.1	955.819	-29738.2	0.000000	0.000000	6.611003	-0.039233	NaN	0.000000	0.001662	0.001683	28.0807	0.108019	0.001926	56.0892	-32.0328	-164.745	-0.028878	0.609000	-0.401068	-0.402379	-0.039233	56.0892	-0.400544	-136065	2.883420E-7	NaN
365	1.000000	0.618274	7.36863e+06	-56889.1	955.818	-29738.2	0.000000	0.000000	6.618966	-0.051342	NaN	0.000000	0.001642	0.001690	28.0806	0.166048	0.002032	81.7303	-56.4171	-164.336	0.052024	0.616999	-0.393105	-0.394380	-0.051342	81.7303	-0.392634	-104913	4.893798E-7	NaN
365	1.000000	0.626261	7.36863e+06	-56889.1	955.819	-29738.2	0.000000	0.000000	6.626955	-0.002166	NaN	0.000000	0.001643	0.001671	28.0808	0.057372	0.001987	28.8756	-167.132	-166.647	-0.003621	0.624962	-0.385118	-0.386418	-0.002166	28.8756	-0.385062	-81748.1	2.649931E-8	NaN
365	1.000000	0.634305	7.36863e+06	-56889.1	955.819	-29738.2	0.000000	0.000000	6.635001	0.040165	NaN	0.000000	0.001629	0.001655	28.0806	0.071927	0.001904	37.7785	29.0643	-164.733	-0.008289	0.632960	-0.377074	-0.378419	0.040165	37.7785	-0.377871	-64466	-6.230456E-7	NaN
365	1.000000	0.642318	7.36863e+06	-56889.1	955.82	-29738.2	0.000000	0.000000	6.643010	-0.039315	NaN	0.000000	0.001661	0.001672	28.0806	0.039446	0.001999	19.7329	-39.4046	-165.47	-0.030545	0.641014	-0.369062	-0.370366	-0.039315	19.7329	-0.367568	-45822.7	8.579817E-7	NaN
365	1.000000	0.650333	7.36863e+06	-56889.1	955.819	-29738.2	0.000000	0.000000	6.651026	-0.026053	NaN	0.000000	0.001658	0.001699	28.0808	0.031313	0.001927	16.2479	-86.6785	-164.422	-0.101938	0.649010	-0.361046	-0.362369	-0.026053	16.2479	-0.359844	-35447.4	7.349713E-7	NaN
365	1.000000	0.658294	7.36863e+06	-56889.1	955.819	-29738.2	0.000000	0.000000	6.658988	-0.006206	NaN	0.000000	0.001636	0.001706	28.0808	0.055479	0.001965	28.2393	-122.672	-166.947	0.010273	0.657083	-0.353085	-0.354296	-0.006206	28.2393	-0.352920	-28142.2	2.205056E-7	NaN
365	1.000000	0.666325	7.36863e+06	-56889.1	955.818	-29738.2	0.000000	0.000000	6.667021	0.043233	NaN	0.000000	0.001619	0.001700	28.0809	0.087130	0.001958	44.4943	-17.3125	-165.536	0.048533	0.664974	-0.345054	-0.346405	0.043233	44.4943	-0.345783	-22169	-1.950161E-6	NaN
365	1.000000	0.674333	7.36864e+06	-56889.1	955.818	-29738.2	0.000000	0.000000	6.675026	-0.021139	NaN	0.000000	0.001636	0.001699	28.0807	0.043779	0.002093	20.9178	149.527	-166.886	-0.088517	0.673013	-0.337046	-0.338366	-0.021139	20.9178	-0.336288	-16121.3	1.311245E-6	NaN
365	1.000000	0.682322	7.36864e+06	-56889.1	955.819	-29738.2	0.000000	0.000000	6.683017	0.010359	NaN	0.000000	0.001605	0.001723	28.0818	0.077409	0.001977	39.1452	146.059	-164.002	0.048926	0.680965	-0.329057	-0.330415	0.010359	39.1452	-0.329255	-12721.7	-8.143180E-7	NaN
365	1.000000	0.690351	7.36864e+06	-56889.1	955.819	-29738.2	0.000000	0.000000	6.691045	0.013331	NaN	0.000000	0.001601	0.001681	28.0819	0.102016	0.002097	48.6583	-158.559	-163.357	0.019008	0.689010	-0.321029	-0.322369	0.013331	48.6583	-0.321234	-9700.59	-1.374270E-6	NaN
365	1.000000	0.698358	7.36864e+06	-56889.1	955.818	-29738.2	0.000000	0.000000	6.699053	0.027619	NaN	0.000000	0.001670	0.001723	28.0819	0.012469	0.002061	6.050488	-118.757	-162.994	0.037146	0.697076	-0.313021	-0.314303	0.027619	6.050488	-0.316445	-8246.35	-3.349207E-6	NaN
365	1.000000	0.706345	7.36864e+06	-56889.1	955.818	-29738.2	0.000000	0.000000	6.707037	-0.060824	NaN	0.000000	0.001622	0.001712	28.0822	0.034478	0.002049	16.8274	-97.7481	-164.864	-0.119010	0.705007	-0.305034	-0.306372	-0.060824	16.8274	-0.302323	-5095.6	1.193660E-5	NaN
365	1.000000	0.714347	7.36864e+06	-56889.1	955.818	-29738.2	0.000000	0.000000	6.715038	-0.080019	NaN	0.000000	0.001636	0.001690	28.0821	0.087374	0.001893	46.1617	-34.3621	-163.904	-0.077253	0.713002	-0.297032	-0.298378	-0.080019	46.1617	-0.295732	-4064.59	1.968681E-5	NaN
365	1.000000	0.722326	7.36864e+06	-56889.1	955.818	-29738.2	0.000000	0.000000	6.723022	0.050775	NaN	0.000000	0.001658	0.001694	28.0819	0.064903	0.001949	33.305	-177.388	-166.517	-0.017035	0.720998	-0.289053	-0.290382	0.050775	33.305	-0.290197	-3359.28	-1.511474E-5	NaN
365	1.000000	0.730315	7.36864e+06	-56889.1	955.819	-29738.2	0.000000	0.000000	6.731008	-0.028677	NaN	0.000000	0.001620	0.001702	28.082	0.042215	0.002012	20.9807	82.9885	-166.868	-0.043914	0.729033	-0.281064	-0.282346	-0.028677	20.9807	-0.280039	-2363.54	1.213289E-5	NaN
365	1.000000	0.738327	7.36864e+06	-56889.1	955.818	-29738.2	0.000000	0.000000	6.739019	-0.057244	NaN	0.000000	0.001678	0.001693	28.0819	0.055429	0.001963	28.2411	-113.259	-163.721	-0.077944	0.737064	-0.273052	-0.274315	-0.057244	28.2411	-0.271532	-1757.17	3.257763E-5	NaN
365	1.000000	0.746350	7.36864e+06	-56889.1	955.819	-29738.2	0.000000	0.000000	6.747040	-0.085231	NaN	0.000000	0.001684	0.001680	28.0821	0.011282	0.002090	5.397449	-87.5318	-164.588	-0.070951	0.745061	-0.265030	-0.266319	-0.085231	5.397449	-0.253186	-920.816	9.256020E-5	NaN
365	1.000000	0.754344	7.36864e+06	-56889.1	955.82	-29738.2	0.000000	0.000000	6.755033	-0.119020	NaN	0.000000	0.001652	0.001686	28.0819	0.017207	0.001937	8.883158	-155.947	-166.588	-0.081000	0.753108	-0.257036	-0.258271	-0.119020	8.883158	-0.246987	-738.417	0.000161	NaN
365	1.000000	0.762364	7.36864e+06	-56889.1	955.818	-29738.2	0.000000	0.000000	6.763058	-0.010502	NaN	0.000000	0.001685	0.001684	28.0822	0.167513	0.002056	81.4614	82.3478	-164.819	-0.052779	0.761056	-0.249015	-0.250323	-0.010502	81.4614	-0.248918	-791.099	1.327461E-5	NaN
365	1.000000	0.770336	7.36864e+06	-56889.1	955.819	-29738.2	0.000000	0.000000	6.771030	-0.008137	NaN	0.000000	0.001654	0.001670	28.0818	0.104785	0.002181	48.0365	48.9235	-163.713	-0.064148	0.769034	-0.241043	-0.242345	-0.008137	48.0365	-0.240916	-594.091	1.369689E-5	NaN
365	1.000000	0.778359	7.36864e+06	-56889.1	955.82	-29738.2	0.000000	0.000000	6.779056	0.071103	NaN	0.000000	0.001637	0.001691	28.082	0.037754	0.002012	18.7668	-138.732	-166.368	0.024646	0.777038	-0.233020	-0.234342	0.071103	18.7668	-0.235862	-495.193	-0.000144	NaN
365	1.000000	0.786351	7.36864e+06	-56889.1	955.819	-29738.2	0.000000	0.000000	6.787046	0.023502	NaN	0.000000	0.001672	0.001689	28.082	0.095170	0.002005	47.4614	74.3846	-162.529	-0.005360	0.785085	-0.225028	-0.226295	0.023502	47.4614	-0.225399	-338.592	-6.941073E-5	NaN
365	1.000000	0.794382	7.36864e+06	-56889.1	955.818	-29738.2	0.000000	0.000000	6.795079	0.063059	NaN	0.000000	0.001646	0.001684	28.0817	0.051249	0.001999	25.6364	-20.8626	-165.397	0.103021	0.793079	-0.216997	-0.218301	0.063059	25.6364	-0.218842	-266.166	-0.000237	NaN
365	1.000000	0.802381	7.36864e+06	-56889.1	955.818	-29738.2	0.000000	0.000000	6.803076	0.020221	NaN	0.000000	0.001647	0.001732	28.082	0.049139	0.002133	23.0351	-29.6309	-168.188	-0.018735	0.801072	-0.208998	-0.210307	0.020221	23.0351	-0.209657	-189.346	-0.000107	NaN
365	1.000000	0.810357	7.36864e+06	-56889.1	955.819	-29738.2	0.000000	0.000000	6.811051	0.001150	NaN	0.000000	0.001636	0.001686	28.0817	0.049029	0.002045	23.9741	-137.628	-165.456	0.000295	0.809064	-0.201022	-0.202315	0.001150	23.9741	-0.201058	-137.112	-8.388999E-6	NaN
365	1.000000	0.818402	7.36864e+06	-56889.1	955.817	-29738.2	0.000000	0.000000	6.819096	0.009303	NaN	0.000000	0.001647	0.001714	28.0809	0.041219	0.002027	20.3375	110.439	-163.669	0.008432	0.817020	-0.192978	-0.194359	0.009303	20.3375	-0.193321	-102.175	-9.104661E-5	NaN
365	1.000000	0.826366	7.36864e+06	-56889.1	955.819	-29738.2	0.000000	0.000000	6.827060	-0.013471	NaN	0.000000	0.001639	0.001712	28.0806	0.109963	0.001873	58.6938	-89.1305	-167.581	-0.004684	0.825096	-0.185013	-0.186284	-0.013471	58.6938	-0.184841	-73.697	0.000183	NaN
365	1.000000	0.834352	7.36864e+06	-56889.1	955.818	-29738.2	0.000000	0.000000	6.835044	-0.049489	NaN	0.000000	0.001631	0.001723	28.0805	0.057594	0.001993	28.8919	157.676	-165.916	-0.095935	0.833058	-0.177027	-0.178321	-0.049489	28.8919	-0.175743	-51.6098	0.000959	NaN
365	1.000000	0.842380	7.36864e+06	-56889.1	955.817	-29738.2	0.000000	0.000000	6.843074	0.003062	NaN	0.000000	0.001650	0.001736	28.0807	0.149103	0.001998	74.6406	85.9085	-165.073	0.000664	0.841060	-0.169000	-0.170319	0.003062	74.6406	-0.169031	-39.5149	-7.748208E-5	NaN
365	1.000000	0.850381	7.36864e+06	-56889.1	955.818	-29738.2	0.000000	0.000000	6.851072	-0.070294	NaN	0.000000	0.001648	0.001687	28.0805	0.113678	0.002098	54.1815	169.89	-166.745	0.001279	0.849017	-0.160998	-0.162363	-0.070294	54.1815	-0.160025	-27.4433	0.002561	NaN
365	1.000000	0.858409	7.36864e+06	-56889.1	955.819	-29738.2	0.000000	0.000000	6.859106	0.079740	NaN	0.000000	0.001666	0.001705	28.0813	0.064345	0.002075	31.0126	12.7371	-166.814	0.031077	0.857059	-0.152971	-0.154320	0.079740	31.0126	-0.154899	-22.2209	-0.003589	NaN
365	1.000000	0.866431	7.36864e+06	-56889.1	955.818	-29738.2	0.000000	0.000000	6.867126	0.021581	NaN	0.000000	0.001663	0.001726	28.0805	0.072867	0.001920	37.95	16.3158	-163.272	-0.037814	0.865080	-0.144948	-0.146299	0.021581	37.95	-0.145375	-14.8969	-0.001449	NaN
365	1.000000	0.874380	7.36864e+06	-56889.1	955.818	-29738.2	0.000000	0.000000	6.875072	-0.041837	NaN	0.000000	0.001677	0.001721	28.0806	0.082432	0.001938	42.5324	-49.0302	-163.572	-0.018682	0.873084	-0.136999	-0.138295	-0.041837	42.5324	-0.136262	-10.0536	0.004161	NaN
365	1.000000	0.882401	7.36864e+06	-56889.1	955.818	-29738.2	0.000000	0.000000	6.883095	0.009092	NaN	0.000000	0.001625	0.001693	28.0807	0.054885	0.002127	25.7989	-151.73	-164.919	0.042034	0.881132	-0.128979	-0.130247	0.009092	25.7989	-0.129243	-7.366927	-0.001234	NaN
365	1.000000	0.890392	7.36864e+06	-56889.1	955.819	-29738.2	0.000000	0.000000	6.891085	-0.027349	NaN	0.000000	0.001647	0.001758	28.0806	0.055225	0.002105	26.2323	52.6381	-164.207	0.010524	0.889063	-0.120987	-0.122317	-0.027349	26.2323	-0.120205	-4.877739	0.005607	NaN
365	1.000000	0.898425	7.36864e+06	-56889.1	955.818	-29738.2	0.000000	0.000000	6.899119	-0.015299	NaN	0.000000	0.001686	0.001742	28.081	0.054601	0.002072	26.3499	-136.448	-164.515	-0.081614	0.897156	-0.112954	-0.114223	-0.015299	26.3499	-0.112519	-3.393679	0.004508	NaN
365	1.000000	0.906411	7.36864e+06	-56889.1	955.818	-29738.2	0.000000	0.000000	6.907105	0.013104	NaN	0.000000	0.001648	0.001727	28.0807	0.124226	0.002130	58.3219	-29.6182	-164.509	0.031985	0.905142	-0.104969	-0.106237	0.013104	58.3219	-0.105137	-2.366641	-0.005537	NaN
365	1.000000	0.914410	7.36864e+06	-56889.1	955.818	-29738.2	0.000000	0.000000	6.915102	-0.038845	NaN	0.000000	0.001683	0.001699	28.0806	0.072639	0.001968	36.9021	145.691	-160.044	0.003335	0.913093	-0.096969	-0.098286	-0.038845	36.9021	-0.096180	-1.500400	0.025890	NaN
365	1.000000	0.922389	7.36864e+06	-56889.1	955.819	-29738.2	0.000000	0.000000	6.923080	-0.077227	NaN	0.000000	0.001645	0.001708	28.0808	0.022182	0.002142	10.3556	130.783	-164.485	-0.036050	0.921085	-0.088990	-0.090294	-0.077227	10.3556	-0.083397	-0.751074	0.102822	NaN
365	1.000000	0.930415	7.36864e+06	-56889.1	955.818	-29738.2	0.000000	0.000000	6.931106	-0.074508	NaN	0.000000	0.001647	0.001691	28.0805	0.078965	0.002115	37.3295	-144.431	-165.499	0.030954	0.929115	-0.080964	-0.082265	-0.074508	37.3295	-0.079467	-0.600256	0.124127	NaN
365	1.000000	0.938436	7.36864e+06	-56889.1	955.819	-29738.2	0.000000	0.000000	6.939133	0.066805	NaN	0.000000	0.001615	0.001686	28.0805	0.030113	0.001900	15.8472	-69.6591	-165.548	0.083239	0.937130	-0.072943	-0.074249	0.066805	15.8472	-0.076105	-0.493169	-0.135461	NaN
365	1.000000	0.946430	7.36864e+06	-56889.1	955.818	-29738.2	0.000000	0.000000	6.947122	-0.049064	NaN	0.000000	0.001641	0.001684	28.0806	0.041208	0.001953	21.0958	-0.764871	-164.117	0.035653	0.945103	-0.064949	-0.066277	-0.049064	21.0958	-0.063205	-0.222059	0.220952	NaN
365	1.000000	0.954439	7.36864e+06	-56889.1	955.818	-29738.2	0.000000	0.000000	6.955131	-0.038676	NaN	0.000000	0.001687	0.001703	28.0819	0.073589	0.002035	36.1677	177.104	-165.036	-0.017031	0.953136	-0.056941	-0.058244	-0.038676	36.1677	-0.056139	-0.139119	0.278006	NaN
365	1.000000	0.962446	7.36864e+06	-56889.1	955.82	-29738.2	0.000000	0.000000	6.963139	-0.027929	NaN	0.000000	0.001647	0.001694	28.0819	0.087606	0.002048	42.7692	0.333876	-167.785	0.024233	0.961146	-0.048933	-0.050233	-0.027929	42.7692	-0.048443	-0.081852	0.341217	NaN
365	1.000000	0.970397	7.36864e+06	-56889.1	955.819	-29738.2	0.000000	0.000000	6.971092	0.032279	NaN	0.000000	0.001688	0.001661	28.0818	0.111621	0.002079	53.6922	-98.2242	-164.063	0.038449	0.969181	-0.040982	-0.042199	0.032279	53.6922	-0.041433	-0.050001	-0.645561	NaN
365	1.000000	0.978453	7.36864e+06	-56889.1	955.818	-29738.2	0.000000	0.000000	6.979147	-0.014016	NaN	0.000000	0.001654	0.001689	28.0821	0.001188	0.002070	0.574144	-68.8372	-165.13	0.062270	0.977155	-0.032926	-0.034224	-0.014016	0.574144	-0.014617	-0.009047	1.549282	NaN
365	1.000000	0.986413	7.36864e+06	-56889.1	955.819	-29738.2	0.000000	0.000000	6.987105	-0.052209	NaN	0.000000	0.001648	0.001682	28.0819	0.012094	0.001915	6.316408	-25.9954	-165.419	-0.073738	0.985142	-0.024966	-0.026237	-0.052209	6.316408	-0.018767	-0.011683	4.468956	NaN
365	1.000000	0.994444	7.36864e+06	-56889.1	955.82	-29738.2	0.000000	0.000000	6.995136	-0.049443	NaN	0.000000	0.001660	0.001723	28.082	0.083687	0.001993	41.9936	133.513	-160.768	-0.197080	0.993149	-0.016935	-0.018230	-0.049443	41.9936	-0.016052	-0.009915	4.986616	NaN
365	1.000000	1.002443	7.36864e+06	-56889.1	955.82	-29738.2	0.000000	0.000000	7.003135	-0.044269	NaN	0.000000	0.001670	0.001672	28.082	0.021500	0.002057	10.4538	-12.0425	-163.274	-0.006937	1.001165	-0.008936	-0.010214	-0.044269	10.4538	-0.005760	-0.003889	11.3825	NaN
365	1.000000	1.010430	7.36864e+06	-56889.1	955.82	-29738.2	0.000000	0.000000	7.011125	0.041066	NaN	0.000000	0.001681	0.001678	28.0818	0.134738	0.001925	69.9779	2.584656	-164.062	0.050492	1.009182	-0.000950	-0.002197	0.041066	69.9779	-0.001390	-0.001012	-40.5968	NaN
365	1.000000	1.018451	7.36864e+06	-56889.1	955.82	-29738.2	0.000000	0.000000	7.019416	6.589197	NaN	0.000000	0.001701	0.001676	28.0818	6.886684	0.001688	4078.59	4.623970	-165.053	4.954855	1.017094	0.007072	0.005714	6.589197	4078.59	0.005860	0.004932	1336.05	53061.3
365	2.000000	1.022000	7.36864e+06	-56889.1	955.819	-29738.2	0.000000	0.000000	7.023172	11.6143	NaN	0.000000	0.001720	0.001669	28.0819	11.0426	0.001720	6418.4	4.928837	-170.597	10.4019	1.021703	0.010621	0.010324	11.6143	6418.4	0.009264	0.008375	1386.8	64078
365	2.000000	1.023993	7.36864e+06	-56889.1	955.819	-29738.2	0.000000	0.000000	7.025274	14.2649	NaN	0.000000	0.001727	0.001667	28.0826	13.0987	0.001691	7745.24	6.471394	-173.107	14.0221	1.023633	0.012614	0.012254	14.2649	7745.24	0.011233	0.010584	1347.79	68783.4
365	2.000000	1.025976	7.36864e+06	-56889.1	955.818	-29738.2	0.000000	0.000000	7.027277	14.7412	NaN	0.000000	0.001723	0.001697	28.0818	15.5784	0.001821	8556.11	13.3846	-179.354	15.3213	1.025656	0.014597	0.014276	14.7412	8556.11	0.013305	0.013091	1126.07	68322.7
365	2.000000	1.027945	7.36864e+06	-56889.1	955.818	-29738.2	0.000000	0.000000	7.029469	20.1586	NaN	0.000000	0.001725	0.001666	28.0818	16.8088	0.001765	9522.93	8.711244	-176.588	19.7178	1.027602	0.016566	0.016223	20.1586	9522.93	0.014979	0.015257	1321.29	70438.9
365	2.000000	1.029937	7.36864e+06	-56889.1	955.82	-29738.2	0.000000	0.000000	7.031606	23.6881	NaN	0.000000	0.001727	0.001670	28.0817	19.3251	0.001924	10046.6	4.802992	-172.551	23.2582	1.029624	0.018558	0.018245	23.6881	10046.6	0.016790	0.017746	1334.82	68903
365	2.000000	1.031887	7.36864e+06	-56889.1	955.819	-29738.2	0.000000	0.000000	7.033741	28.2044	NaN	0.000000	0.001743	0.001675	28.0817	21.0751	0.001740	12115.2	2.794708	-173.625	26.1235	1.031547	0.020507	0.020168	28.2044	12115.2	0.018761	0.020633	1366.94	77058.4
365	2.000000	1.033933	7.36864e+06	-56889.1	955.82	-29738.2	0.000000	0.000000	7.035957	32.3157	NaN	0.000000	0.001718	0.001675	28.0823	22.6584	0.001722	13159.9	7.400372	-178.72	32.7839	1.033557	0.022554	0.022178	32.3157	13159.9	0.020712	0.023674	1365.03	78142.8
365	2.000000	1.035953	7.36864e+06	-56889.1	955.819	-29738.2	0.000000	0.000000	7.038152	36.5744	NaN	0.000000	0.001740	0.001662	28.0816	25.0997	0.001839	13646.1	7.236281	-178.172	37.3408	1.035591	0.024574	0.024212	36.5744	13646.1	0.022564	0.026732	1368.2	76255
365	2.000000	1.037896	7.36864e+06	-56889.1	955.819	-29738.2	0.000000	0.000000	7.040308	41.7615	NaN	0.000000	0.001785	0.001681	28.0804	26.4008	0.001717	15376.4	4.288558	-178.235	40.1073	1.037533	0.026517	0.026153	41.7615	15376.4	0.024480	0.030076	1388.52	81006.1
365	2.000000	1.039890	7.36864e+06	-56889.1	955.819	-29738.2	0.000000	0.000000	7.042411	44.3899	NaN	0.000000	0.001788	0.001670	28.0803	28.6387	0.001843	15542	7.018671	-178.714	44.5322	1.039624	0.028511	0.028245	44.3899	15542	0.026369	0.033553	1322.97	77519.7
365	2.000000	1.041867	7.36864e+06	-56889.1	955.819	-29738.2	0.000000	0.000000	7.044665	51.1451	NaN	0.000000	0.001736	0.001676	28.0804	30.4719	0.001884	16176.4	3.374981	-176.106	48.9137	1.041608	0.030488	0.030229	51.1451	16176.4	0.028117	0.036930	1384.91	76906.4
365	2.000000	1.043905	7.36864e+06	-56889.1	955.819	-29738.2	0.000000	0.000000	7.046953	57.2031	NaN	0.000000	0.001699	0.001683	28.0816	32.1485	0.001772	18145	7.045140	178.982	56.3834	1.043578	0.032526	0.032199	57.2031	18145	0.030161	0.041079	1392.52	81794
365	2.000000	1.045874	7.36864e+06	-56889.1	955.818	-29738.2	0.000000	0.000000	7.049063	60.6519	NaN	0.000000	0.001711	0.001712	28.0803	34.9417	0.001909	18304.2	6.135904	179.776	59.2267	1.045600	0.034494	0.034221	60.6519	18304.2	0.032009	0.045011	1347.5	78825.5
365	2.000000	1.047915	7.36864e+06	-56889.1	955.82	-29738.2	0.000000	0.000000	7.051406	67.984	NaN	0.000000	0.001693	0.001672	28.0804	36.1746	0.001696	21329	10.2821	174.439	68.5668	1.047572	0.036535	0.036193	67.984	21329	0.034145	0.049773	1365.88	87346.5
365	2.000000	1.049880	7.36864e+06	-56889.1	955.82	-29738.2	0.000000	0.000000	7.053616	73.937	NaN	0.000000	0.001706	0.001662	28.0803	37.4704	0.001770	21171.6	0.556354	-176.979	71.8108	1.049596	0.038501	0.038217	73.937	21171.6	0.035882	0.053819	1373.8	83379.3
365	2.000000	1.051932	7.36864e+06	-56889.1	955.82	-29738.2	0.000000	0.000000	7.056027	82.6523	NaN	0.000000	0.001681	0.001664	28.0804	40.9008	0.001816	22524.5	6.524916	177.631	82.5898	1.051619	0.040553	0.040239	82.6523	22524.5	0.037801	0.058468	1413.62	85107.4
365	2.000000	1.053836	7.36864e+06	-56889.1	955.819	-29738.2	0.000000	0.000000	7.058255	90.5581	NaN	0.000000	0.001692	0.001628	28.0818	41.1146	0.001698	24220.5	5.483720	177.269	87.6544	1.053538	0.042456	0.042159	90.5581	24220.5	0.039652	0.063133	1434.41	88070.2
365	2.000000	1.055863	7.36864e+06	-56889.1	955.82	-29738.2	0.000000	0.000000	7.060410	93.654	NaN	0.000000	0.001672	0.001647	28.0802	44.4405	0.001767	25144.3	2.260805	-179.252	95.0579	1.055598	0.044483	0.044218	93.654	25144.3	0.041690	0.068469	1367.84	87794.4
365	2.000000	1.057806	7.36864e+06	-56889.1	955.82	-29738.2	0.000000	0.000000	7.062729	102.796	NaN	0.000000	0.001677	0.001661	28.0804	45.3177	0.001831	24751.8	1.583567	-178.559	98.4681	1.057458	0.046426	0.046079	102.796	24751.8	0.043312	0.072866	1410.74	83775.3
365	2.000000	1.059851	7.36864e+06	-56889.1	955.819	-29738.2	0.000000	0.000000	7.065043	109.323	NaN	0.000000	0.001665	0.001643	28.0803	48.2459	0.001749	27584.6	5.415410	175.638	108.643	1.059675	0.048472	0.048296	109.323	27584.6	0.045499	0.079011	1383.65	89659.4
365	2.000000	1.061930	7.36864e+06	-56889.1	955.821	-29738.2	0.000000	0.000000	7.067503	118.586	NaN	0.000000	0.001704	0.001658	28.0804	50.807	0.001742	29162.1	8.263199	173.506	119.902	1.061568	0.050551	0.050188	118.586	29162.1	0.047501	0.084846	1397.66	91469.4
365	2.000000	1.063829	7.36864e+06	-56889.1	955.82	-29738.2	0.000000	0.000000	7.069716	126.224	NaN	0.000000	0.001718	0.001666	28.0813	51.8942	0.001877	27649.3	2.325015	179.834	123.889	1.063489	0.052450	0.052110	126.224	27649.3	0.049026	0.089427	1411.47	84474
365	2.000000	1.065910	7.36864e+06	-56889.1	955.818	-29738.2	0.000000	0.000000	7.072114	133.944	NaN	0.000000	0.001699	0.001673	28.0804	53.5629	0.001684	31814.2	2.503275	177.141	134.458	1.065605	0.054530	0.054225	133.944	31814.2	0.051373	0.096703	1385.11	93470.7
365	2.000000	1.067877	7.36864e+06	-56889.1	955.819	-29738.2	0.000000	0.000000	7.074565	145.711	NaN	0.000000	0.001692	0.001638	28.0806	54.7937	0.001742	31457.1	5.997751	174.486	144.611	1.067564	0.056497	0.056185	145.711	31457.1	0.053023	0.101986	1428.73	89995.5
365	2.000000	1.069809	7.36864e+06	-56889.1	955.819	-29738.2	0.000000	0.000000	7.076991	157.709	NaN	0.000000	0.001643	0.001650	28.0806	57.6902	0.001743	33097.2	6.724471	173.077	155.914	1.069437	0.058429	0.058057	157.709	33097.2	0.054856	0.108010	1460.13	92009.3
365	2.000000	1.071881	7.36864e+06	-56889.1	955.819	-29738.2	0.000000	0.000000	7.079263	162.558	NaN	0.000000	0.001678	0.001690	28.0817	58.421	0.001861	31398.7	3.060333	178.296	160.751	1.071518	0.060502	0.060138	162.558	31398.7	0.056619	0.113964	1426.4	84977
365	2.000000	1.073861	7.36864e+06	-56889.1	955.82	-29738.2	0.000000	0.000000	7.081654	172.568	NaN	0.000000	0.001679	0.001665	28.082	60.0261	0.001753	34244.7	5.388504	174.665	172.605	1.073488	0.062481	0.062109	172.568	34244.7	0.058702	0.121194	1423.89	89872.2
365	2.000000	1.075812	7.36864e+06	-56889.1	955.82	-29738.2	0.000000	0.000000	7.083961	181.207	NaN	0.000000	0.001685	0.001658	28.0816	63.984	0.001888	33881.2	5.353461	174.777	179.412	1.075570	0.064433	0.064191	181.207	33881.2	0.060421	0.127324	1423.2	86751.5
365	2.000000	1.077792	7.36864e+06	-56889.1	955.82	-29738.2	0.000000	0.000000	7.086598	197.177	NaN	0.000000	0.001666	0.001680	28.082	65.5456	0.001837	35685.6	6.052414	173.568	194.351	1.077507	0.066413	0.066127	197.177	35685.6	0.062269	0.134070	1470.7	89043.2
365	2.000000	1.079796	7.36864e+06	-56889.1	955.82	-29738.2	0.000000	0.000000	7.088796	201.897	NaN	0.000000	0.001689	0.001646	28.0816	67.9387	0.001863	36465	3.675200	175.679	199.752	1.079520	0.068417	0.068140	201.897	36465	0.064264	0.141541	1426.42	88553.8
365	2.000000	1.081967	7.36864e+06	-56889.1	955.819	-29738.2	0.000000	0.000000	7.091241	208.555	NaN	0.000000	0.001672	0.001687	28.0817	69.6515	0.001864	37364.8	7.004938	172.586	214.316	1.081549	0.070587	0.070169	208.555	37364.8	0.066401	0.149757	1392.62	88214.9
365	2.000000	1.083818	7.36864e+06	-56889.1	955.819	-29738.2	0.000000	0.000000	7.093861	227.222	NaN	0.000000	0.001642	0.001669	28.0819	69.8184	0.001737	40198.7	2.746351	176.215	224.83	1.083556	0.072439	0.072176	227.222	40198.7	0.068200	0.156841	1448.74	92737.3
365	2.000000	1.085861	7.36864e+06	-56889.1	955.82	-29738.2	0.000000	0.000000	7.096373	238.62	NaN	0.000000	0.001660	0.001711	28.0817	73.4789	0.001872	39257.9	8.049024	171.763	239.656	1.085431	0.074482	0.074052	238.62	39257.9	0.069923	0.163775	1457	88629.1
365	2.000000	1.087892	7.36864e+06	-56889.1	955.819	-29738.2	0.000000	0.000000	7.098988	252.83	NaN	0.000000	0.001653	0.001678	28.0822	74.9012	0.001838	40756.3	10.1076	169.306	254.981	1.087391	0.076512	0.076012	252.83	40756.3	0.071860	0.171735	1472.21	89854.2
365	2.000000	1.089801	7.36864e+06	-56889.1	955.819	-29738.2	0.000000	0.000000	7.101219	260.647	NaN	0.000000	0.001651	0.001699	28.0816	77.6126	0.001892	41013.6	7.785581	171.616	259.803	1.089419	0.078422	0.078039	260.647	41013.6	0.073655	0.179275	1453.9	88499.7
365	2.000000	1.091920	7.36864e+06	-56889.1	955.82	-29738.2	0.000000	0.000000	7.103621	267.554	NaN	0.000000	0.001687	0.001653	28.0817	79.3369	0.001710	46383	7.072584	170.638	274.196	1.091487	0.080540	0.080108	267.554	46383	0.076214	0.190281	1406.1	97148.2
365	2.000000	1.093877	7.36864e+06	-56889.1	955.82	-29738.2	0.000000	0.000000	7.105692	270.315	NaN	0.000000	0.001648	0.001676	28.0817	79.7868	0.001638	48722.2	5.846352	170.86	271.668	1.093698	0.082498	0.082319	270.315	48722.2	0.078337	0.199643	1353.99	99625.9
365	2.000000	1.095863	7.36864e+06	-56889.1	955.821	-29738.2	0.000000	0.000000	7.108520	290.78	NaN	0.000000	0.001709	0.001612	28.0816	84.2743	0.001819	46317.9	6.067295	171.765	290.52	1.095424	0.084484	0.084045	290.78	46317.9	0.079775	0.206109	1410.81	93212.3
365	2.000000	1.097822	7.36864e+06	-56889.1	955.82	-29738.2	0.000000	0.000000	7.111170	307.565	NaN	0.000000	0.001652	0.001669	28.0821	85.6854	0.001880	45586.8	9.150291	169.23	309.166	1.097399	0.086443	0.086019	307.565	45586.8	0.081383	0.213448	1440.94	90150.1
365	2.000000	1.099818	7.36864e+06	-56889.1	955.819	-29738.2	0.000000	0.000000	7.113636	318.99	NaN	0.000000	0.001671	0.001690	28.0816	86.002	0.001767	48681.4	4.893867	173.084	317.831	1.099394	0.088438	0.088014	318.99	48681.4	0.083524	0.223411	1427.82	94098.7
365	2.000000	1.101872	7.36864e+06	-56889.1	955.82	-29738.2	0.000000	0.000000	7.116172	330.707	NaN	0.000000	0.001667	0.001696	28.0817	89.2628	0.001974	45227.1	8.691498	170.06	330.555	1.101417	0.090493	0.090037	330.707	45227.1	0.085009	0.230443	1435.09	86077.7
365	2.000000	1.103852	7.36864e+06	-56889.1	955.82	-29738.2	0.000000	0.000000	7.118810	346.694	NaN	0.000000	0.001648	0.001703	28.0817	90.789	0.001996	45480.2	9.090451	169.752	346.71	1.103394	0.092473	0.092014	346.694	45480.2	0.086756	0.238847	1451.53	85022.8
365	2.000000	1.105688	7.36864e+06	-56889.1	955.819	-29738.2	0.000000	0.000000	7.121213	360.461	NaN	0.000000	0.001657	0.001684	28.0806	91.143	0.001896	48082.6	3.100943	174.662	355.266	1.105436	0.094309	0.094057	360.461	48082.6	0.088687	0.248301	1451.71	88160.1
365	2.000000	1.107753	7.36864e+06	-56889.1	955.819	-29738.2	0.000000	0.000000	7.123493	365.719	NaN	0.000000	0.001703	0.001687	28.0809	92.372	0.001711	54000.5	6.465566	169.933	363.916	1.107567	0.096374	0.096187	365.719	54000.5	0.091294	0.261339	1399.4	96509.2
365	2.000000	1.109789	7.36864e+06	-56889.1	955.82	-29738.2	0.000000	0.000000	7.126384	386.481	NaN	0.000000	0.001673	0.001685	28.0804	93.731	0.001769	52986.6	3.799535	173.431	385.683	1.109565	0.098410	0.098186	386.481	52986.6	0.092939	0.269725	1432.87	93213.5
365	2.000000	1.111900	7.36864e+06	-56889.1	955.82	-29738.2	0.000000	0.000000	7.129092	401.001	NaN	0.000000	0.001693	0.001689	28.0805	97.3882	0.001858	52407.7	9.296691	168.836	403.538	1.111435	0.100520	0.100056	401.001	52407.7	0.094782	0.279263	1435.92	90606.9
365	2.000000	1.113777	7.36864e+06	-56889.1	955.82	-29738.2	0.000000	0.000000	7.131545	415.005	NaN	0.000000	0.001684	0.001670	28.0805	98.4384	0.001731	56862.7	6.819407	169.834	414.625	1.113425	0.102398	0.102046	415.005	56862.7	0.096924	0.290548	1428.35	96381.1
365	2.000000	1.115832	7.36864e+06	-56889.1	955.821	-29738.2	0.000000	0.000000	7.134219	430.048	NaN	0.000000	0.001664	0.001660	28.081	100.361	0.001858	54022.4	5.565703	171.832	429.992	1.115459	0.104452	0.104079	430.048	54022.4	0.098482	0.298887	1438.83	90280.4
365	2.000000	1.117802	7.36864e+06	-56889.1	955.82	-29738.2	0.000000	0.000000	7.136268	431.967	NaN	0.000000	0.001687	0.001651	28.0807	100.541	0.001732	58035.3	5.173800	170.676	429.735	1.117707	0.106422	0.106327	431.967	58035.3	0.100840	0.311719	1385.76	94969.4
365	2.000000	1.118728	7.36864e+06	-56889.1	955.821	-29738.2	0.000000	0.000000	7.138020	452.039	NaN	0.000000	0.001687	0.001646	28.0804	103.083	0.001796	57394.3	4.204645	172.666	447.376	1.118447	0.107349	0.107068	452.039	57394.3	0.101442	0.315034	1434.89	93425