File: remote_trans/data/nanoindenter/0828-1/data/Data_2025-08-06,11h17m57s/2025-07-22_16-23-58_1_607.txt
2025-07-22, 16:23:58, 1
Index	Phase	Displacement	Time	Pos X	Pos Y	Pos Z	Rot A	Rot B	Piezo Z	Force A	Force B	Gripper	Voltage A	Voltage B	Temperature	Amplitude force	Amplitude pos	Stiffness	Phase shift	Phase excitation	Force A raw	Displacement raw	HMax	HMax raw	Real Force	Real Stiffness	Contact Depth	Area	Hardness	Reduced Mod.
[#]	[#]	[um]	[s]	[um]	[um]	[um]	[m°]	[m°]	[um]	[uN]	[uN]	[V]	[V]	[V]	[°C]	[uN]	[um]	[N/m]	[°]	[°]	[uN]	[um]	[um]	[um]	[uN]	[N/m]	[um]	[um^2]	[MPa]	[MPa]
607	1.000000	0.002260	7.37099e+06	-46739.1	1005.82	-29768.2	0.000000	0.000000	6.002808	-0.029429	NaN	0.000000	0.001566	0.001800	28.0826	0.060070	0.001053	57.0341	-18.766	-167.938	-0.024165	0.000982	-1.074563	-1.075841	-0.029429	57.0341	-1.074176	-2.255751E+14	1.304625E-16	NaN
607	1.000000	0.010206	7.37099e+06	-46739.1	1005.82	-29768.2	0.000000	0.000000	6.010752	-0.077677	NaN	0.000000	0.001563	0.001835	28.0821	0.055651	0.000958	58.0733	53.6936	-169.084	-0.154485	0.008918	-1.066617	-1.067905	-0.077677	58.0733	-1.065614	-1.730844E+14	4.487782E-16	NaN
607	1.000000	0.018187	7.37099e+06	-46739.1	1005.82	-29768.2	0.000000	0.000000	6.018734	-0.048535	NaN	0.000000	0.001537	0.001836	28.082	0.079076	0.001625	48.6686	-75.3956	-163.743	0.027750	0.016858	-1.058636	-1.059965	-0.048535	48.6686	-1.057888	-1.362809E+14	3.561393E-16	NaN
607	1.000000	0.026223	7.37099e+06	-46739.1	1005.82	-29768.2	0.000000	0.000000	6.026769	-0.068681	NaN	0.000000	0.001540	0.001842	28.0824	0.065535	0.001890	34.6769	-22.3484	-165.035	-0.028564	0.024903	-1.050600	-1.051920	-0.068681	34.6769	-1.049115	-1.038749E+14	6.611901E-16	NaN
607	1.000000	0.034205	7.37099e+06	-46739.1	1005.82	-29768.2	0.000000	0.000000	6.034753	-0.021727	NaN	0.000000	0.001570	0.001865	28.0822	0.085997	0.001940	44.3322	5.351892	-165.103	-0.009927	0.032903	-1.042618	-1.043920	-0.021727	44.3322	-1.042250	-8.398959E+13	2.586824E-16	NaN
607	1.000000	0.042222	7.37099e+06	-46739.1	1005.82	-29768.2	0.000000	0.000000	6.042771	-0.008270	NaN	0.000000	0.001546	0.001901	28.0827	0.115448	0.001913	60.3576	-4.869741	-167.986	-0.050313	0.040901	-1.034601	-1.035922	-0.008270	60.3576	-1.034498	-6.606622E+13	1.251738E-16	NaN
607	1.000000	0.050169	7.37099e+06	-46739.1	1005.82	-29768.2	0.000000	0.000000	6.050716	-0.059670	NaN	0.000000	0.001541	0.001879	28.0825	0.062527	0.001934	32.3302	1.729800	-168.111	-0.174187	0.048885	-1.026654	-1.027938	-0.059670	32.3302	-1.025269	-4.964174E+13	1.202011E-15	NaN
607	1.000000	0.058201	7.37099e+06	-46739.1	1005.82	-29768.2	0.000000	0.000000	6.058750	0.004486	NaN	0.000000	0.001550	0.001853	28.083	0.105901	0.001928	54.9171	-67.1362	-162.686	0.034181	0.056903	-1.018622	-1.019920	0.004486	54.9171	-1.018684	-4.048014E+13	-1.108266E-16	NaN
607	1.000000	0.066199	7.37099e+06	-46739.1	1005.82	-29768.2	0.000000	0.000000	6.066746	-0.041855	NaN	0.000000	0.001547	0.001855	28.0824	0.102630	0.001984	51.727	147.875	-169.618	-0.083552	0.064848	-1.010624	-1.011975	-0.041855	51.727	-1.010017	-3.094692E+13	1.352482E-15	NaN
607	1.000000	0.074220	7.37099e+06	-46739.1	1005.82	-29768.2	0.000000	0.000000	6.074765	-0.099770	NaN	0.000000	0.001523	0.001871	28.0825	0.013594	0.002132	6.375131	158.109	-163.275	-0.090578	0.072902	-1.002603	-1.003921	-0.099770	6.375131	-0.990865	-1.709101E+13	5.837568E-15	NaN
607	1.000000	0.082236	7.37099e+06	-46739.1	1005.82	-29768.2	0.000000	0.000000	6.082782	-0.056483	NaN	0.000000	0.001526	0.001805	28.0825	0.084161	0.002045	41.1458	81.4465	-164.148	-0.039125	0.080943	-0.994588	-0.995880	-0.056483	41.1458	-0.993558	-1.857924E+13	3.040119E-15	NaN
607	1.000000	0.090190	7.37099e+06	-46739.1	1005.82	-29768.2	0.000000	0.000000	6.090735	-0.092098	NaN	0.000000	0.001539	0.001836	28.0824	0.135563	0.001945	69.7112	25.9645	-163.04	-0.129316	0.088922	-0.986633	-0.987901	-0.092098	69.7112	-0.985642	-1.453517E+13	6.336232E-15	NaN
607	1.000000	0.098249	7.37099e+06	-46739.1	1005.82	-29768.2	0.000000	0.000000	6.098794	-0.083406	NaN	0.000000	0.001572	0.001845	28.0828	0.125803	0.002076	60.5875	121.526	-166.244	-0.000389	0.096939	-0.978574	-0.979884	-0.083406	60.5875	-0.977542	-1.130557E+13	7.377425E-15	NaN
607	1.000000	0.106206	7.37099e+06	-46739.1	1005.82	-29768.2	0.000000	0.000000	6.106752	-0.076630	NaN	0.000000	0.001588	0.001845	28.0821	0.098242	0.001965	49.9886	-154.096	-166.9	-0.084675	0.104942	-0.970617	-0.971882	-0.076630	49.9886	-0.969468	-8.800082E+12	8.707848E-15	NaN
607	1.000000	0.114225	7.37099e+06	-46739.1	1005.82	-29768.2	0.000000	0.000000	6.114772	-0.028925	NaN	0.000000	0.001574	0.001844	28.081	0.044966	0.001960	22.9388	-144.42	-167.123	-0.034808	0.112902	-0.962599	-0.963921	-0.028925	22.9388	-0.961653	-6.904804E+12	4.189157E-15	NaN
607	1.000000	0.122241	7.37099e+06	-46739.1	1005.82	-29768.2	0.000000	0.000000	6.122787	-0.078153	NaN	0.000000	0.001592	0.001884	28.0811	0.102910	0.002038	50.5025	94.3407	-166.77	-0.041459	0.120929	-0.954582	-0.955894	-0.078153	50.5025	-0.953421	-5.347656E+12	1.461448E-14	NaN
607	1.000000	0.130210	7.37099e+06	-46739.1	1005.82	-29768.2	0.000000	0.000000	6.130759	-0.011881	NaN	0.000000	0.001571	0.001857	28.0813	0.035266	0.002071	17.0283	-52.7092	-162.096	-0.067585	0.128879	-0.946613	-0.947945	-0.011881	17.0283	-0.946089	-4.258761E+12	2.789891E-15	NaN
607	1.000000	0.138259	7.37099e+06	-46739.1	1005.82	-29768.2	0.000000	0.000000	6.138807	-0.023377	NaN	0.000000	0.001618	0.001870	28.0814	0.080776	0.001933	41.7952	-174.887	-166.948	-0.035221	0.136936	-0.938564	-0.939887	-0.023377	41.7952	-0.938145	-3.327400E+12	7.025748E-15	NaN
607	1.000000	0.146255	7.37099e+06	-46739.1	1005.82	-29768.2	0.000000	0.000000	6.146800	-0.090816	NaN	0.000000	0.001629	0.001885	28.0812	0.005940	0.002029	2.928144	-152.119	-167.621	-0.144784	0.144920	-0.930568	-0.931903	-0.090816	2.928144	-0.907307	-1.275810E+12	7.118281E-14	NaN
607	1.000000	0.154232	7.37099e+06	-46739.1	1005.82	-29768.2	0.000000	0.000000	6.154775	-0.130574	NaN	0.000000	0.001585	0.001877	28.0814	0.038972	0.002046	19.0489	-10.2886	-166.161	-0.042254	0.152973	-0.922591	-0.923850	-0.130574	19.0489	-0.917450	-1.748959E+12	7.465834E-14	NaN
607	1.000000	0.162246	7.37099e+06	-46739.1	1005.82	-29768.2	0.000000	0.000000	6.162792	-0.061649	NaN	0.000000	0.001524	0.001854	28.081	0.053982	0.001873	28.8231	-122.398	-165.595	-0.082671	0.160989	-0.914577	-0.915834	-0.061649	28.8231	-0.912973	-1.521663E+12	4.051430E-14	NaN
607	1.000000	0.170242	7.37099e+06	-46739.1	1005.82	-29768.2	0.000000	0.000000	6.170790	-0.025057	NaN	0.000000	0.001540	0.001875	28.0811	0.140299	0.001929	72.7311	16.4755	-167.532	-0.006318	0.168940	-0.906581	-0.907883	-0.025057	72.7311	-0.906322	-1.237332E+12	2.025080E-14	NaN
607	1.000000	0.178231	7.37099e+06	-46739.1	1005.82	-29768.2	0.000000	0.000000	6.178779	-0.021513	NaN	0.000000	0.001500	0.001858	28.0813	0.098266	0.002081	47.2196	-122.76	-164.704	0.018401	0.176918	-0.898592	-0.899905	-0.021513	47.2196	-0.898250	-9.625472E+11	2.234974E-14	NaN
607	1.000000	0.186295	7.37099e+06	-46739.1	1005.82	-29768.2	0.000000	0.000000	6.186840	-0.114337	NaN	0.000000	0.001540	0.001878	28.0811	0.103962	0.002022	51.4028	-48.7714	-165.381	-0.201189	0.184969	-0.890528	-0.891854	-0.114337	51.4028	-0.888860	-7.186176E+11	1.591068E-13	NaN
607	1.000000	0.194270	7.37099e+06	-46739.1	1005.82	-29768.2	0.000000	0.000000	6.194819	-0.010750	NaN	0.000000	0.001572	0.001883	28.0816	0.090706	0.002063	43.9714	-95.3196	-167.406	0.055234	0.192995	-0.882553	-0.883828	-0.010750	43.9714	-0.882369	-5.871489E+11	1.830863E-14	NaN
607	1.000000	0.202268	7.37099e+06	-46739.1	1005.82	-29768.2	0.000000	0.000000	6.202814	-0.059454	NaN	0.000000	0.001551	0.001895	28.0811	0.047221	0.001866	25.3046	10.1946	-164.961	-0.043273	0.200962	-0.874555	-0.875861	-0.059454	25.3046	-0.872793	-4.357457E+11	1.364430E-13	NaN
607	1.000000	0.210248	7.37099e+06	-46739.1	1005.82	-29768.2	0.000000	0.000000	6.210793	-0.107166	NaN	0.000000	0.001538	0.001863	28.0812	0.034922	0.001859	18.7878	-102.182	-164.012	-0.050711	0.208938	-0.866575	-0.867885	-0.107166	18.7878	-0.862297	-3.142013E+11	3.410750E-13	NaN
607	1.000000	0.218272	7.37099e+06	-46739.1	1005.82	-29768.2	0.000000	0.000000	6.218820	-0.021748	NaN	0.000000	0.001539	0.001871	28.081	0.067124	0.001875	35.8057	124.49	-166.986	-0.010489	0.216949	-0.858551	-0.859874	-0.021748	35.8057	-0.858095	-2.756379E+11	7.890032E-14	NaN
607	1.000000	0.226270	7.37099e+06	-46739.1	1005.82	-29768.2	0.000000	0.000000	6.226815	-0.083889	NaN	0.000000	0.001602	0.001844	28.0811	0.060834	0.001985	30.6462	134.245	-166.302	-0.117761	0.224982	-0.850553	-0.851841	-0.083889	30.6462	-0.848500	-2.043766E+11	4.104642E-13	NaN
607	1.000000	0.234256	7.37099e+06	-46739.1	1005.82	-29768.2	0.000000	0.000000	6.234807	0.035139	NaN	0.000000	0.001573	0.001868	28.0818	0.044096	0.002187	20.1659	-76.4473	-164.064	0.025240	0.232962	-0.842567	-0.843861	0.035139	20.1659	-0.843874	-1.769157E+11	-1.986228E-13	NaN
607	1.000000	0.242286	7.37099e+06	-46739.1	1005.82	-29768.2	0.000000	0.000000	6.242833	-0.055986	NaN	0.000000	0.001544	0.001889	28.0814	0.049045	0.001964	24.9775	86.8936	-168.551	-0.064953	0.241040	-0.834537	-0.835783	-0.055986	24.9775	-0.832856	-1.254563E+11	4.462616E-13	NaN
607	1.000000	0.250307	7.37099e+06	-46739.1	1005.82	-29768.2	0.000000	0.000000	6.250851	-0.104078	NaN	0.000000	0.001527	0.001889	28.083	0.149150	0.002017	73.9627	23.3679	-164.667	-0.080343	0.248919	-0.826516	-0.827904	-0.104078	73.9627	-0.825461	-9.959946E+10	1.044961E-12	NaN
607	1.000000	0.258272	7.37099e+06	-46739.1	1005.82	-29768.2	0.000000	0.000000	6.258817	-0.079149	NaN	0.000000	0.001547	0.001866	28.0825	0.107241	0.001961	54.6961	-52.5841	-165.29	-0.065796	0.257023	-0.818551	-0.819800	-0.079149	54.6961	-0.817466	-7.759776E+10	1.019985E-12	NaN
607	1.000000	0.266309	7.37099e+06	-46739.1	1005.82	-29768.2	0.000000	0.000000	6.266855	-0.064161	NaN	0.000000	0.001474	0.001875	28.0824	0.079526	0.001998	39.7969	109.582	-162.544	-0.063679	0.264927	-0.810514	-0.811897	-0.064161	39.7969	-0.809305	-6.013762E+10	1.066905E-12	NaN
607	1.000000	0.274295	7.37099e+06	-46739.1	1005.82	-29768.2	0.000000	0.000000	6.274841	-0.066198	NaN	0.000000	0.001523	0.001906	28.0825	0.082583	0.001888	43.737	78.466	-164.914	0.011847	0.272963	-0.802528	-0.803860	-0.066198	43.737	-0.801393	-4.696458E+10	1.409531E-12	NaN
607	1.000000	0.282318	7.37099e+06	-46739.1	1005.82	-29768.2	0.000000	0.000000	6.282866	-0.021497	NaN	0.000000	0.001595	0.001928	28.0826	0.048012	0.001970	24.3729	-61.4629	-168.704	-0.026894	0.281002	-0.794505	-0.795821	-0.021497	24.3729	-0.793843	-3.709138E+10	5.795713E-13	NaN
607	1.000000	0.290321	7.37099e+06	-46739.1	1005.82	-29768.2	0.000000	0.000000	6.290865	-0.141281	NaN	0.000000	0.001634	0.001878	28.083	0.022026	0.002006	10.9811	-38.1868	-165.718	-0.152470	0.288977	-0.786502	-0.787846	-0.141281	10.9811	-0.776852	-2.179981E+10	6.480844E-12	NaN
607	1.000000	0.298306	7.37099e+06	-46739.1	1005.82	-29768.2	0.000000	0.000000	6.298855	0.008979	NaN	0.000000	0.001574	0.001879	28.0827	0.074756	0.002028	36.862	-102.289	-163.894	0.026500	0.296979	-0.778517	-0.779845	0.008979	36.862	-0.778700	-2.309743E+10	-3.887308E-13	NaN
607	1.000000	0.306335	7.37099e+06	-46739.1	1005.82	-29768.2	0.000000	0.000000	6.306878	-0.129358	NaN	0.000000	0.001592	0.001860	28.0828	0.115972	0.001995	58.138	-130.517	-169.777	-0.107812	0.305029	-0.770488	-0.771794	-0.129358	58.138	-0.768820	-1.695338E+10	7.630220E-12	NaN
607	1.000000	0.314298	7.37099e+06	-46739.1	1005.82	-29768.2	0.000000	0.000000	6.314844	-0.067944	NaN	0.000000	0.001599	0.001870	28.0827	0.037764	0.001981	19.0666	54.5446	-165.995	-0.171560	0.313015	-0.762525	-0.763808	-0.067944	19.0666	-0.759853	-1.280262E+10	5.307026E-12	NaN
607	1.000000	0.322335	7.37099e+06	-46739.1	1005.82	-29768.2	0.000000	0.000000	6.322883	-0.012363	NaN	0.000000	0.001622	0.001877	28.0828	0.100351	0.001996	50.2758	150.784	-166.485	0.009680	0.320948	-0.754488	-0.755875	-0.012363	50.2758	-0.754304	-1.075964E+10	1.149048E-12	NaN
607	1.000000	0.330348	7.37099e+06	-46739.1	1005.82	-29768.2	0.000000	0.000000	6.330896	-0.011885	NaN	0.000000	0.001630	0.001872	28.0828	0.084049	0.002037	41.2596	-72.0407	-165.745	-0.021069	0.329001	-0.746475	-0.747822	-0.011885	41.2596	-0.746259	-8.361700E+9	1.421304E-12	NaN
607	1.000000	0.338325	7.37099e+06	-46739.1	1005.82	-29768.2	0.000000	0.000000	6.338872	-0.043896	NaN	0.000000	0.001637	0.001880	28.0828	0.091400	0.002061	44.3503	-155.113	-164.546	0.042265	0.337005	-0.738498	-0.739818	-0.043896	44.3503	-0.737756	-6.404572E+9	6.853813E-12	NaN
607	1.000000	0.346307	7.37099e+06	-46739.1	1005.82	-29768.2	0.000000	0.000000	6.346852	-0.088157	NaN	0.000000	0.001604	0.001837	28.0828	0.041620	0.001933	21.5358	-52.5204	-167.109	-0.140618	0.345022	-0.730516	-0.731802	-0.088157	21.5358	-0.727446	-4.634446E+9	1.902211E-11	NaN
607	1.000000	0.354330	7.37099e+06	-46739.1	1005.82	-29768.2	0.000000	0.000000	6.354877	-0.050788	NaN	0.000000	0.001596	0.001852	28.0826	0.040347	0.001976	20.4165	90.4453	-165.36	-0.084704	0.353026	-0.722493	-0.723797	-0.050788	20.4165	-0.720627	-3.741317E+9	1.357477E-11	NaN
607	1.000000	0.362317	7.37099e+06	-46739.1	1005.82	-29768.2	0.000000	0.000000	6.362864	-0.050911	NaN	0.000000	0.001631	0.001867	28.0826	0.133006	0.001952	68.1339	-107.397	-162.431	-0.065886	0.360970	-0.714506	-0.715853	-0.050911	68.1339	-0.713946	-3.033097E+9	1.678518E-11	NaN
607	1.000000	0.370360	7.37099e+06	-46739.1	1005.82	-29768.2	0.000000	0.000000	6.370905	-0.081496	NaN	0.000000	0.001626	0.001864	28.0826	0.096325	0.001907	50.5011	-160.384	-169.109	-0.028047	0.368998	-0.706463	-0.707825	-0.081496	50.5011	-0.705253	-2.308100E+9	3.530886E-11	NaN
607	1.000000	0.378350	7.37099e+06	-46739.1	1005.82	-29768.2	0.000000	0.000000	6.378897	-0.045518	NaN	0.000000	0.001640	0.001868	28.0828	0.112276	0.001983	56.6322	59.9396	-163.282	-0.042531	0.377003	-0.698473	-0.699821	-0.045518	56.6322	-0.697870	-1.829966E+9	2.487390E-11	NaN
607	1.000000	0.386343	7.37099e+06	-46739.1	1005.82	-29768.2	0.000000	0.000000	6.386889	-0.084311	NaN	0.000000	0.001625	0.001879	28.0818	0.042001	0.001789	23.4741	-144.602	-165.207	-0.069093	0.385021	-0.690480	-0.691802	-0.084311	23.4741	-0.687786	-1.332479E+9	6.327416E-11	NaN
607	1.000000	0.394365	7.37099e+06	-46739.1	1005.82	-29768.3	0.000000	0.000000	6.394914	-0.011108	NaN	0.000000	0.001639	0.001882	28.0815	0.069929	0.001958	35.7191	-140.606	-169.562	0.028444	0.393025	-0.682458	-0.683799	-0.011108	35.7191	-0.682225	-1.118481E+9	9.931464E-12	NaN
607	1.000000	0.402355	7.37099e+06	-46739.1	1005.82	-29768.3	0.000000	0.000000	6.402902	-0.039328	NaN	0.000000	0.001589	0.001884	28.0818	0.037651	0.001943	19.3795	144.569	-166.704	-0.088184	0.401104	-0.674468	-0.675719	-0.039328	19.3795	-0.672946	-8.350510E+8	4.709688E-11	NaN
607	1.000000	0.410351	7.37099e+06	-46739.1	1005.82	-29768.3	0.000000	0.000000	6.410896	-0.072906	NaN	0.000000	0.001645	0.001891	28.0815	0.085149	0.001987	42.85	-52.6545	-168.807	-0.055896	0.409052	-0.666473	-0.667771	-0.072906	42.85	-0.665197	-6.540844E+8	1.114629E-10	NaN
607	1.000000	0.418378	7.37099e+06	-46739.1	1005.82	-29768.3	0.000000	0.000000	6.418925	-0.053369	NaN	0.000000	0.001574	0.001841	28.0815	0.010820	0.002077	5.208323	-24.1467	-168.449	-0.139947	0.417074	-0.658445	-0.659749	-0.053369	5.208323	-0.650760	-4.148107E+8	1.286588E-10	NaN
607	1.000000	0.426380	7.37099e+06	-46739.1	1005.82	-29768.3	0.000000	0.000000	6.426927	-0.051309	NaN	0.000000	0.001550	0.001790	28.0813	0.025677	0.001909	13.45	4.379509	-165.522	-0.021856	0.425032	-0.650443	-0.651791	-0.051309	13.45	-0.647582	-3.752146E+8	1.367466E-10	NaN
607	1.000000	0.434355	7.37099e+06	-46739.1	1005.82	-29768.3	0.000000	0.000000	6.434898	-0.137335	NaN	0.000000	0.001555	0.001834	28.0812	0.033616	0.001815	18.5205	-15.5651	-166.224	-0.263792	0.433089	-0.642468	-0.643735	-0.137335	18.5205	-0.636907	-2.678212E+8	5.127864E-10	NaN
607	1.000000	0.442351	7.37099e+06	-46739.1	1005.82	-29768.3	0.000000	0.000000	6.442897	-0.081080	NaN	0.000000	0.001556	0.001858	28.0818	0.077721	0.002066	37.6189	-116.992	-165.886	-0.000198	0.441070	-0.634472	-0.635753	-0.081080	37.6189	-0.632855	-2.356297E+8	3.441004E-10	NaN
607	1.000000	0.450376	7.37099e+06	-46739.1	1005.82	-29768.3	0.000000	0.000000	6.450922	-0.073380	NaN	0.000000	0.001553	0.001832	28.0815	0.093981	0.002132	44.0905	27.3607	-166.542	-0.106141	0.449008	-0.626447	-0.627815	-0.073380	44.0905	-0.625199	-1.849584E+8	3.967402E-10	NaN
607	1.000000	0.458370	7.37099e+06	-46739.1	1005.82	-29768.3	0.000000	0.000000	6.458914	-0.114821	NaN	0.000000	0.001543	0.001856	28.0816	0.040970	0.002058	19.9121	-8.486759	-164.531	-0.090007	0.457085	-0.618453	-0.619738	-0.114821	19.9121	-0.614128	-1.302871E+8	8.812944E-10	NaN
607	1.000000	0.466367	7.37099e+06	-46739.1	1005.82	-29768.3	0.000000	0.000000	6.466912	-0.108095	NaN	0.000000	0.001560	0.001839	28.0815	0.104887	0.001977	53.0478	-158.755	-167.577	-0.137274	0.465082	-0.610456	-0.611741	-0.108095	53.0478	-0.608928	-1.104989E+8	9.782433E-10	NaN
607	1.000000	0.474362	7.37099e+06	-46739.1	1005.82	-29768.3	0.000000	0.000000	6.474906	-0.095581	NaN	0.000000	0.001547	0.001829	28.0816	0.016030	0.001988	8.064819	117.62	-163.644	-0.188098	0.473034	-0.602462	-0.603789	-0.095581	8.064819	-0.593573	-6.790709E+7	1.407521E-9	NaN
607	1.000000	0.482371	7.37099e+06	-46739.1	1005.82	-29768.3	0.000000	0.000000	6.482917	-0.070984	NaN	0.000000	0.001553	0.001840	28.0822	0.209264	0.002111	99.1467	12.4184	-167.167	-0.085021	0.481066	-0.594452	-0.595757	-0.070984	99.1467	-0.593915	-6.864937E+7	1.034009E-9	NaN
607	1.000000	0.490380	7.37099e+06	-46739.1	1005.82	-29768.3	0.000000	0.000000	6.490926	-0.079435	NaN	0.000000	0.001545	0.001846	28.0814	0.099808	0.001972	50.6185	-173.48	-168.457	-0.091497	0.489041	-0.586443	-0.587782	-0.079435	50.6185	-0.585266	-5.216528E+7	1.522760E-9	NaN
607	1.000000	0.498370	7.37099e+06	-46739.1	1005.82	-29768.3	0.000000	0.000000	6.498916	-0.071092	NaN	0.000000	0.001554	0.001840	28.0816	0.070982	0.001940	36.5878	72.8687	-165.994	0.026950	0.497077	-0.578453	-0.579746	-0.071092	36.5878	-0.576996	-4.011012E+7	1.772429E-9	NaN
607	1.000000	0.506414	7.37099e+06	-46739.1	1005.82	-29768.3	0.000000	0.000000	6.506959	-0.072485	NaN	0.000000	0.001558	0.001844	28.0814	0.042288	0.001935	21.8573	86.5674	-165.65	-0.053195	0.505094	-0.570410	-0.571729	-0.072485	21.8573	-0.567922	-3.005529E+7	2.411734E-9	NaN
607	1.000000	0.514403	7.37099e+06	-46739.1	1005.82	-29768.3	0.000000	0.000000	6.514948	-0.087965	NaN	0.000000	0.001577	0.001880	28.0817	0.074247	0.002034	36.5061	14.1278	-167.289	-0.126438	0.513092	-0.562420	-0.563731	-0.087965	36.5061	-0.560613	-2.381562E+7	3.693579E-9	NaN
607	1.000000	0.522401	7.37099e+06	-46739.1	1005.82	-29768.3	0.000000	0.000000	6.522946	-0.089648	NaN	0.000000	0.001557	0.001874	28.0829	0.014797	0.002075	7.131712	-156.683	-165.538	-0.032226	0.521083	-0.554422	-0.555740	-0.089648	7.131712	-0.544994	-1.447433E+7	6.193554E-9	NaN
607	1.000000	0.530421	7.37099e+06	-46739.1	1005.82	-29768.3	0.000000	0.000000	6.530969	-0.013700	NaN	0.000000	0.001537	0.001874	28.0827	0.060423	0.002074	29.1341	79.3037	-168.927	0.004962	0.529093	-0.546402	-0.547730	-0.013700	29.1341	-0.546049	-1.497008E+7	9.151681E-10	NaN
607	1.000000	0.538409	7.37099e+06	-46739.1	1005.82	-29768.3	0.000000	0.000000	6.538954	-0.106960	NaN	0.000000	0.001546	0.001870	28.0829	0.028195	0.002041	13.8113	78.1224	-165.79	-0.034674	0.537057	-0.538414	-0.539766	-0.106960	13.8113	-0.532606	-9.74439e+06	1.097657E-8	NaN
607	1.000000	0.546413	7.37099e+06	-46739.1	1005.82	-29768.3	0.000000	0.000000	6.546960	-0.044386	NaN	0.000000	0.001529	0.001866	28.0826	0.056150	0.002055	27.3169	172.921	-167.62	-0.019639	0.545104	-0.530410	-0.531719	-0.044386	27.3169	-0.529191	-8.73665e+06	5.080388E-9	NaN
607	1.000000	0.554413	7.37099e+06	-46739.1	1005.82	-29768.3	0.000000	0.000000	6.554958	-0.089915	NaN	0.000000	0.001577	0.001844	28.0828	0.078710	0.001896	41.512	155.03	-162.895	-0.220574	0.553093	-0.522410	-0.523730	-0.089915	41.512	-0.520785	-6.67607e+06	1.346822E-8	NaN
607	1.000000	0.562421	7.37099e+06	-46739.1	1005.82	-29768.3	0.000000	0.000000	6.562968	-0.060975	NaN	0.000000	0.001547	0.001848	28.0825	0.027414	0.002144	12.7852	145.846	-164.828	-0.093462	0.561125	-0.514402	-0.515698	-0.060975	12.7852	-0.510825	-4.85183e+06	1.256750E-8	NaN
607	1.000000	0.570402	7.37099e+06	-46739.1	1005.82	-29768.3	0.000000	0.000000	6.570950	-0.033069	NaN	0.000000	0.001553	0.001878	28.0826	0.048156	0.001956	24.617	113.213	-166.253	-0.071108	0.569109	-0.506421	-0.507714	-0.033069	24.617	-0.505414	-4.07858e+06	8.108029E-9	NaN
607	1.000000	0.578404	7.37099e+06	-46739.1	1005.82	-29768.3	0.000000	0.000000	6.578954	0.022175	NaN	0.000000	0.001589	0.001826	28.0826	0.075404	0.001969	38.3024	66.276	-164.712	0.052140	0.577083	-0.498419	-0.499740	0.022175	38.3024	-0.498853	-3.30385e+06	-6.711768E-9	NaN
607	1.000000	0.586437	7.37099e+06	-46739.1	1005.82	-29768.3	0.000000	0.000000	6.586983	-0.060757	NaN	0.000000	0.001610	0.001829	28.0827	0.048694	0.001904	25.572	-87.7606	-164.311	-0.108898	0.585103	-0.490387	-0.491720	-0.060757	25.572	-0.488605	-2.37624e+06	2.556836E-8	NaN
607	1.000000	0.594439	7.37099e+06	-46739.1	1005.82	-29768.3	0.000000	0.000000	6.594986	-0.037361	NaN	0.000000	0.001624	0.001823	28.0827	0.077626	0.002057	37.746	-177.726	-167.33	-0.102286	0.593115	-0.482384	-0.483708	-0.037361	37.746	-0.481642	-1.89891e+06	1.967482E-8	NaN
607	1.000000	0.602440	7.37099e+06	-46739.1	1005.82	-29768.3	0.000000	0.000000	6.602985	-0.091981	NaN	0.000000	0.001609	0.001834	28.0827	0.057676	0.001965	29.3509	155.088	-167.264	-0.081278	0.601097	-0.474384	-0.475726	-0.091981	29.3509	-0.472033	-1.39289e+06	6.603574E-8	NaN
607	1.000000	0.610414	7.37099e+06	-46739.1	1005.82	-29768.3	0.000000	0.000000	6.610961	-0.051715	NaN	0.000000	0.001590	0.001851	28.0828	0.160282	0.002022	79.2566	4.379600	-163.739	-0.017651	0.609131	-0.466409	-0.467692	-0.051715	79.2566	-0.465919	-1.14328e+06	4.523335E-8	NaN
607	1.000000	0.618449	7.37099e+06	-46739.1	1005.82	-29768.3	0.000000	0.000000	6.618996	-0.051782	NaN	0.000000	0.001610	0.001818	28.0826	0.075804	0.002042	37.1219	-130.434	-162.69	0.027192	0.617150	-0.458374	-0.459674	-0.051782	37.1219	-0.457328	-865885	5.980200E-8	NaN
607	1.000000	0.626453	7.37099e+06	-46739.1	1005.82	-29768.3	0.000000	0.000000	6.626999	-0.065090	NaN	0.000000	0.001597	0.001829	28.0826	0.021581	0.001918	11.2535	-60.0819	-164.624	-0.012125	0.625147	-0.450370	-0.451677	-0.065090	11.2535	-0.446032	-600406	1.084104E-7	NaN
607	1.000000	0.634474	7.37099e+06	-46739.1	1005.82	-29768.3	0.000000	0.000000	6.635020	-0.066894	NaN	0.000000	0.001575	0.001842	28.0828	0.038135	0.001971	19.3516	-128.327	-166.234	-0.057384	0.633123	-0.442349	-0.443700	-0.066894	19.3516	-0.439757	-489702	1.366014E-7	NaN
607	1.000000	0.642465	7.37099e+06	-46739.1	1005.82	-29768.3	0.000000	0.000000	6.643011	-0.079765	NaN	0.000000	0.001574	0.001856	28.0826	0.100869	0.001915	52.6755	-149.73	-166.405	-0.118819	0.641175	-0.434358	-0.435648	-0.079765	52.6755	-0.433222	-395938	2.014578E-7	NaN
607	1.000000	0.650443	7.37099e+06	-46739.1	1005.82	-29768.3	0.000000	0.000000	6.650991	-0.038899	NaN	0.000000	0.001575	0.001837	28.0828	0.079043	0.001880	42.0351	61.0939	-166.975	-0.055484	0.649150	-0.426380	-0.427673	-0.038899	42.0351	-0.425686	-309736	1.255874E-7	NaN
607	1.000000	0.658445	7.37099e+06	-46739.1	1005.82	-29768.3	0.000000	0.000000	6.658991	-0.073521	NaN	0.000000	0.001596	0.001870	28.0814	0.049872	0.001916	26.0351	-106.773	-164.861	-0.048492	0.657109	-0.418378	-0.419714	-0.073521	26.0351	-0.416260	-227691	3.228985E-7	NaN
607	1.000000	0.666437	7.37099e+06	-46739.1	1005.82	-29768.3	0.000000	0.000000	6.666984	-0.041117	NaN	0.000000	0.001555	0.001834	28.0814	0.048566	0.002015	24.1004	-154.982	-170.344	-0.033952	0.665107	-0.410386	-0.411716	-0.041117	24.1004	-0.409107	-180177	2.282056E-7	NaN
607	1.000000	0.674436	7.37099e+06	-46739.1	1005.82	-29768.3	0.000000	0.000000	6.674982	-0.052131	NaN	0.000000	0.001605	0.001824	28.0814	0.041103	0.001969	20.8743	82.0708	-167.022	-0.035354	0.673171	-0.402388	-0.403652	-0.052131	20.8743	-0.400515	-135935	3.834966E-7	NaN
607	1.000000	0.682476	7.37099e+06	-46739.1	1005.82	-29768.3	0.000000	0.000000	6.683021	-0.117355	NaN	0.000000	0.001557	0.001862	28.0814	0.090896	0.002111	43.0646	152.464	-165.793	-0.087371	0.681180	-0.394347	-0.395643	-0.117355	43.0646	-0.392303	-103776	1.130855E-6	NaN
607	1.000000	0.690466	7.37099e+06	-46739.1	1005.82	-29768.3	0.000000	0.000000	6.691012	-0.052054	NaN	0.000000	0.001608	0.001812	28.0815	0.055072	0.002036	27.0465	-129.86	-167.19	-0.003260	0.689113	-0.386358	-0.387711	-0.052054	27.0465	-0.384914	-81349.6	6.398859E-7	NaN
607	1.000000	0.698479	7.37099e+06	-46739.1	1005.82	-29768.3	0.000000	0.000000	6.699023	-0.103799	NaN	0.000000	0.001590	0.001834	28.0815	0.055358	0.002056	26.9289	-55.9198	-165.844	-0.112405	0.697162	-0.378344	-0.379661	-0.103799	26.9289	-0.375454	-59510.1	1.744219E-6	NaN
607	1.000000	0.706472	7.37099e+06	-46739.1	1005.82	-29768.3	0.000000	0.000000	6.707017	-0.103353	NaN	0.000000	0.001549	0.001816	28.0816	0.050497	0.001957	25.8021	-169.868	-163.649	-0.029624	0.705162	-0.370351	-0.371661	-0.103353	25.8021	-0.367346	-45487.7	2.272103E-6	NaN
607	1.000000	0.714483	7.37099e+06	-46739.1	1005.82	-29768.3	0.000000	0.000000	6.715030	-0.042428	NaN	0.000000	0.001543	0.001813	28.0814	0.019178	0.002038	9.409266	39.5268	-165.827	-0.098618	0.713164	-0.362340	-0.363659	-0.042428	9.409266	-0.358959	-34418.2	1.232717E-6	NaN
607	1.000000	0.722520	7.37099e+06	-46739.1	1005.82	-29768.3	0.000000	0.000000	6.723068	-0.023107	NaN	0.000000	0.001618	0.001812	28.0814	0.049660	0.001949	25.4739	164.159	-167.935	-0.112668	0.721164	-0.354303	-0.355659	-0.023107	25.4739	-0.353623	-28809.9	8.020534E-7	NaN
607	1.000000	0.730475	7.37099e+06	-46739.1	1005.82	-29768.3	0.000000	0.000000	6.731021	-0.052135	NaN	0.000000	0.001601	0.001852	28.0816	0.029119	0.001981	14.6982	-130.733	-165.761	-0.121231	0.729182	-0.346349	-0.347642	-0.052135	14.6982	-0.343688	-20666.8	2.522635E-6	NaN
607	1.000000	0.738464	7.37099e+06	-46739.1	1005.82	-29768.3	0.000000	0.000000	6.739012	-0.007833	NaN	0.000000	0.001653	0.001803	28.0814	0.075984	0.001925	39.466	90.6313	-167.586	-0.022946	0.737175	-0.338359	-0.339648	-0.007833	39.466	-0.338211	-17197.2	4.554636E-7	NaN
607	1.000000	0.746476	7.37099e+06	-46739.1	1005.82	-29768.3	0.000000	0.000000	6.747022	-0.054767	NaN	0.000000	0.001661	0.001821	28.0816	0.046364	0.002014	23.0212	-6.451916	-168.349	0.058207	0.745226	-0.330347	-0.331597	-0.054767	23.0212	-0.328563	-12427.9	4.406789E-6	NaN
607	1.000000	0.754512	7.37099e+06	-46739.1	1005.82	-29768.3	0.000000	0.000000	6.755056	-0.124505	NaN	0.000000	0.001652	0.001843	28.0815	0.080661	0.001976	40.8158	141.966	-165.553	-0.097751	0.753187	-0.322311	-0.323636	-0.124505	40.8158	-0.320023	-9310.72	1.337227E-5	NaN
607	1.000000	0.762501	7.37099e+06	-46739.1	1005.82	-29768.3	0.000000	0.000000	6.763043	-0.158487	NaN	0.000000	0.001657	0.001780	28.0817	0.050766	0.001914	26.5192	-154.096	-164.259	-0.108859	0.761202	-0.314322	-0.315621	-0.158487	26.5192	-0.309840	-6587.05	2.406044E-5	NaN
607	1.000000	0.770499	7.37099e+06	-46739.1	1005.82	-29768.3	0.000000	0.000000	6.771043	-0.136947	NaN	0.000000	0.001672	0.001796	28.0819	0.100548	0.002002	50.2237	-151.938	-167.623	-0.040125	0.769182	-0.306324	-0.307641	-0.136947	50.2237	-0.304279	-5448.1	2.513667E-5	NaN
607	1.000000	0.778483	7.37099e+06	-46739.1	1005.82	-29768.3	0.000000	0.000000	6.779029	-0.067053	NaN	0.000000	0.001650	0.001778	28.0817	0.029871	0.002001	14.9306	23.0416	-169.681	-0.132205	0.777234	-0.298340	-0.299589	-0.067053	14.9306	-0.294972	-3959.72	1.693370E-5	NaN
607	1.000000	0.786498	7.37099e+06	-46739.1	1005.82	-29768.3	0.000000	0.000000	6.787043	-0.105667	NaN	0.000000	0.001667	0.001836	28.0816	0.076492	0.002029	37.6906	124.599	-167.062	-0.063770	0.785209	-0.290325	-0.291614	-0.105667	37.6906	-0.288222	-3138	3.367336E-5	NaN
607	1.000000	0.794532	7.37099e+06	-46739.1	1005.82	-29768.3	0.000000	0.000000	6.795078	-0.066613	NaN	0.000000	0.001668	0.001794	28.0831	0.033020	0.001943	16.9898	-111.462	-166.843	-0.113878	0.793224	-0.282291	-0.283599	-0.066613	16.9898	-0.279351	-2307.68	2.886573E-5	NaN
607	1.000000	0.802525	7.37099e+06	-46739.1	1005.82	-29768.3	0.000000	0.000000	6.803072	-0.043037	NaN	0.000000	0.001584	0.001854	28.0834	0.097769	0.002102	46.5104	176.189	-163.542	-0.032392	0.801149	-0.274298	-0.275674	-0.043037	46.5104	-0.273604	-1889.11	2.278169E-5	NaN
607	1.000000	0.810535	7.37099e+06	-46739.1	1005.82	-29768.3	0.000000	0.000000	6.811081	-0.053906	NaN	0.000000	0.001595	0.001860	28.083	0.107148	0.002110	50.7931	17.3328	-165.252	-0.091277	0.809200	-0.266289	-0.267623	-0.053906	50.7931	-0.265493	-1422.02	3.790837E-5	NaN
607	1.000000	0.818539	7.37099e+06	-46739.1	1005.82	-29768.3	0.000000	0.000000	6.819084	-0.075861	NaN	0.000000	0.001579	0.001862	28.0829	0.093664	0.001908	49.081	-7.597837	-166.66	-0.137225	0.817226	-0.258284	-0.259597	-0.075861	49.081	-0.257125	-1058.77	7.165035E-5	NaN
607	1.000000	0.826536	7.37099e+06	-46739.1	1005.82	-29768.3	0.000000	0.000000	6.827083	-0.039883	NaN	0.000000	0.001566	0.001876	28.0829	0.045282	0.002099	21.5694	113.244	-167.617	-0.055394	0.825221	-0.250287	-0.251602	-0.039883	21.5694	-0.248900	-790.585	5.044791E-5	NaN
607	1.000000	0.834555	7.37099e+06	-46739.1	1005.82	-29768.3	0.000000	0.000000	6.835099	-0.108551	NaN	0.000000	0.001579	0.001844	28.0829	0.044636	0.002258	19.7667	82.4777	-166.441	-0.106349	0.833230	-0.242268	-0.243593	-0.108551	19.7667	-0.238149	-537.797	0.000202	NaN
607	1.000000	0.842537	7.37099e+06	-46739.1	1005.82	-29768.3	0.000000	0.000000	6.843083	-0.069637	NaN	0.000000	0.001517	0.001883	28.083	0.058205	0.002040	28.5338	-112.254	-168.523	-0.042861	0.841224	-0.234286	-0.235599	-0.069637	28.5338	-0.232456	-437.762	0.000159	NaN
607	1.000000	0.850543	7.37099e+06	-46739.1	1005.82	-29768.3	0.000000	0.000000	6.851088	-0.077947	NaN	0.000000	0.001491	0.001855	28.083	0.093453	0.002027	46.11	51.3801	-165.975	-0.039435	0.849231	-0.226280	-0.227592	-0.077947	46.11	-0.225013	-333.838	0.000233	NaN
607	1.000000	0.858521	7.37099e+06	-46739.1	1005.82	-29768.3	0.000000	0.000000	6.859067	-0.068853	NaN	0.000000	0.001524	0.001856	28.0832	0.028639	0.001953	14.665	83.3444	-169.026	-0.034892	0.857233	-0.218302	-0.219590	-0.068853	14.665	-0.214780	-229.077	0.000301	NaN
607	1.000000	0.866566	7.37099e+06	-46739.1	1005.82	-29768.3	0.000000	0.000000	6.867109	-0.137692	NaN	0.000000	0.001537	0.001861	28.083	0.087399	0.002045	42.7379	134.728	-166.405	-0.131259	0.865255	-0.210257	-0.211568	-0.137692	42.7379	-0.207841	-176.93	0.000778	NaN
607	1.000000	0.874521	7.37099e+06	-46739.1	1005.82	-29768.3	0.000000	0.000000	6.875065	-0.120984	NaN	0.000000	0.001537	0.001808	28.0831	0.044356	0.002079	21.3369	86.2144	-167.854	-0.101027	0.873242	-0.202302	-0.203581	-0.120984	21.3369	-0.198050	-122.348	0.000989	NaN
607	1.000000	0.882545	7.37099e+06	-46739.1	1005.82	-29768.3	0.000000	0.000000	6.883092	-0.037521	NaN	0.000000	0.001467	0.001830	28.0829	0.029046	0.002029	14.314	-31.5253	-164.386	-0.120968	0.881207	-0.194279	-0.195616	-0.037521	14.314	-0.192313	-98.307	0.000382	NaN
607	1.000000	0.890542	7.37099e+06	-46739.1	1005.82	-29768.3	0.000000	0.000000	6.891087	-0.087222	NaN	0.000000	0.001473	0.001860	28.0828	0.077978	0.002057	37.9045	80.5925	-166.321	-0.147602	0.889188	-0.186281	-0.187635	-0.087222	37.9045	-0.184555	-72.8846	0.001197	NaN
607	1.000000	0.898555	7.37099e+06	-46739.1	1005.82	-29768.3	0.000000	0.000000	6.899103	-0.029192	NaN	0.000000	0.001478	0.001852	28.083	0.027452	0.001887	14.5507	85.1052	-168.794	0.017291	0.897273	-0.178268	-0.179550	-0.029192	14.5507	-0.176763	-53.7312	0.000543	NaN
607	1.000000	0.906565	7.37099e+06	-46739.1	1005.82	-29768.3	0.000000	0.000000	6.907113	-0.032095	NaN	0.000000	0.001501	0.001850	28.0831	0.081482	0.002054	39.6654	-17.1771	-168.644	0.010855	0.905278	-0.170258	-0.171545	-0.032095	39.6654	-0.169651	-40.5086	0.000792	NaN
607	1.000000	0.914554	7.37099e+06	-46739.1	1005.82	-29768.3	0.000000	0.000000	6.915100	-0.061276	NaN	0.000000	0.001488	0.001848	28.0834	0.049821	0.001962	25.3938	-141.003	-163.753	-0.015170	0.913274	-0.162269	-0.163549	-0.061276	25.3938	-0.160459	-27.9347	0.002194	NaN
607	1.000000	0.922547	7.37099e+06	-46739.1	1005.82	-29768.3	0.000000	0.000000	6.923092	-0.092329	NaN	0.000000	0.001513	0.001821	28.083	0.090294	0.002153	41.9359	25.7276	-169.002	-0.112014	0.921216	-0.154276	-0.155607	-0.092329	41.9359	-0.152625	-20.2162	0.004567	NaN
607	1.000000	0.930579	7.37099e+06	-46739.1	1005.82	-29768.3	0.000000	0.000000	6.931128	-0.006168	NaN	0.000000	0.001514	0.001807	28.0819	0.121655	0.002054	59.2317	133.05	-165.982	-0.059195	0.929277	-0.146244	-0.147546	-0.006168	59.2317	-0.146166	-15.4062	0.000400	NaN
607	1.000000	0.938573	7.37099e+06	-46739.1	1005.82	-29768.3	0.000000	0.000000	6.939114	-0.192742	NaN	0.000000	0.001485	0.001824	28.0818	0.030372	0.001973	15.3932	-66.2893	-164.86	-0.179322	0.937249	-0.138250	-0.139574	-0.192742	15.3932	-0.128859	-7.241077	0.026618	NaN
607	1.000000	0.946576	7.37099e+06	-46739.1	1005.82	-29768.3	0.000000	0.000000	6.947124	-0.025958	NaN	0.000000	0.001539	0.001794	28.0817	0.044970	0.001972	22.7999	135.545	-165.371	-0.019831	0.945276	-0.130247	-0.131547	-0.025958	22.7999	-0.129393	-7.416612	0.003500	NaN
607	1.000000	0.954574	7.37099e+06	-46739.1	1005.82	-29768.3	0.000000	0.000000	6.955121	-0.031921	NaN	0.000000	0.001543	0.001819	28.0818	0.037929	0.002006	18.9113	98.7569	-166.541	-0.070497	0.953268	-0.122250	-0.123555	-0.031921	18.9113	-0.120984	-5.057013	0.006312	NaN
607	1.000000	0.962590	7.37099e+06	-46739.1	1005.82	-29768.3	0.000000	0.000000	6.963136	-0.070418	NaN	0.000000	0.001547	0.001864	28.0819	0.105481	0.001915	55.0932	103.699	-168.446	-0.093469	0.961306	-0.114233	-0.115517	-0.070418	55.0932	-0.113274	-3.518780	0.020012	NaN
607	1.000000	0.970578	7.37099e+06	-46739.1	1005.82	-29768.3	0.000000	0.000000	6.971122	-0.119284	NaN	0.000000	0.001534	0.001842	28.082	0.048541	0.001923	25.2393	150.18	-169.472	-0.054089	0.969220	-0.106245	-0.107603	-0.119284	25.2393	-0.102700	-2.095117	0.056934	NaN
607	1.000000	0.978576	7.37099e+06	-46739.1	1005.82	-29768.3	0.000000	0.000000	6.979124	-0.029109	NaN	0.000000	0.001576	0.001846	28.082	0.021541	0.001850	11.6429	118.933	-166.484	-0.083080	0.977267	-0.098247	-0.099556	-0.029109	11.6429	-0.096372	-1.515494	0.019208	NaN
607	1.000000	0.986590	7.37099e+06	-46739.1	1005.82	-29768.3	0.000000	0.000000	6.987136	-0.067121	NaN	0.000000	0.001551	0.001870	28.0819	0.001988	0.002205	0.901640	90.7149	-165.189	-0.147581	0.985271	-0.090233	-0.091552	-0.067121	0.901640	-0.034401	-0.030753	2.182566	NaN
607	1.000000	0.994580	7.37099e+06	-46739.1	1005.82	-29768.3	0.000000	0.000000	6.995125	-0.103925	NaN	0.000000	0.001532	0.001872	28.0816	0.057527	0.002125	27.0708	-5.178220	-166.989	-0.083702	0.993297	-0.082243	-0.083526	-0.103925	27.0708	-0.079363	-0.596670	0.174175	NaN
607	1.000000	1.002600	7.37099e+06	-46739.1	1005.82	-29768.3	0.000000	0.000000	7.003146	-0.087399	NaN	0.000000	0.001594	0.001846	28.0818	0.100002	0.001952	51.2342	-178.986	-165.08	-0.007290	1.001283	-0.074223	-0.075540	-0.087399	51.2342	-0.072943	-0.408252	0.214081	NaN
607	1.000000	1.010596	7.37099e+06	-46739.1	1005.82	-29768.3	0.000000	0.000000	7.011140	-0.118075	NaN	0.000000	0.001608	0.001858	28.0817	0.092180	0.001955	47.1506	-93.9784	-166.652	-0.093003	1.009277	-0.066227	-0.067546	-0.118075	47.1506	-0.064349	-0.239046	0.493943	NaN
607	1.000000	1.018611	7.37099e+06	-46739.1	1005.82	-29768.3	0.000000	0.000000	7.019157	-0.085952	NaN	0.000000	0.001604	0.001860	28.0815	0.076495	0.002040	37.4997	-169.691	-164.525	-0.026424	1.017301	-0.058212	-0.059522	-0.085952	37.4997	-0.056493	-0.142488	0.603223	NaN
607	1.000000	1.026598	7.37099e+06	-46739.1	1005.82	-29768.3	0.000000	0.000000	7.027143	-0.081868	NaN	0.000000	0.001597	0.001851	28.0819	0.045440	0.001917	23.7074	-44.3786	-169.461	-0.065033	1.025288	-0.050225	-0.051535	-0.081868	23.7074	-0.047635	-0.077349	1.058424	NaN
607	1.000000	1.034660	7.37099e+06	-46739.1	1005.82	-29768.3	0.000000	0.000000	7.035207	-0.037795	NaN	0.000000	0.001572	0.001842	28.0814	0.064182	0.002009	31.9547	-65.8377	-165.46	-0.089833	1.033366	-0.042163	-0.043457	-0.037795	31.9547	-0.041276	-0.049452	0.764277	NaN
607	1.000000	1.042595	7.37099e+06	-46739.1	1005.82	-29768.3	0.000000	0.000000	7.043143	-0.023400	NaN	0.000000	0.001610	0.001862	28.0815	0.124794	0.001989	62.7326	102.518	-165.444	-0.013474	1.041279	-0.034228	-0.035544	-0.023400	62.7326	-0.033949	-0.029831	0.784422	NaN
607	1.000000	1.050630	7.37099e+06	-46739.1	1005.82	-29768.3	0.000000	0.000000	7.051178	-0.018267	NaN	0.000000	0.001583	0.001812	28.0815	0.078368	0.002004	39.1016	139.168	-166.631	-0.047154	1.049243	-0.026194	-0.027580	-0.018267	39.1016	-0.025843	-0.017752	1.029004	NaN
607	1.000000	1.058621	7.37099e+06	-46739.1	1005.82	-29768.3	0.000000	0.000000	7.059162	-0.189419	NaN	0.000000	0.001521	0.001844	28.0816	0.047639	0.001839	25.9066	153.429	-167.912	-0.105613	1.057319	-0.018202	-0.019504	-0.189419	25.9066	-0.012719	-0.007940	23.8553	NaN
607	1.000000	1.066627	7.37099e+06	-46739.1	1005.82	-29768.3	0.000000	0.000000	7.067174	-0.046066	NaN	0.000000	0.001534	0.001852	28.0832	0.100141	0.002003	49.9909	79.1114	-167.727	-0.093589	1.065348	-0.010196	-0.011475	-0.046066	49.9909	-0.009505	-0.006104	7.547132	NaN
607	1.000000	1.074617	7.37099e+06	-46739.1	1005.82	-29768.3	0.000000	0.000000	7.075190	0.605248	NaN	0.000000	0.001532	0.001847	28.083	1.001454	0.002003	500.005	7.518093	-169.369	0.054564	1.073287	-0.002206	-0.003536	0.605248	500.005	-0.003114	-0.002197	-275.508	NaN
607	2.000000	1.082095	7.37099e+06	-46739.1	1005.82	-29768.3	0.000000	0.000000	7.082957	7.636102	NaN	0.000000	0.001539	0.001853	28.083	7.930886	0.001635	4850.38	10.4496	-172.057	7.458828	1.081247	0.005271	0.004424	7.636102	4850.38	0.004091	0.003319	2301.01	76925.9
607	2.000000	1.084259	7.37099e+06	-46739.1	1005.82	-29768.3	0.000000	0.000000	7.085211	9.825290	NaN	0.000000	0.001535	0.001832	28.0827	10.0645	0.001503	6697.02	5.990320	-173.379	9.722294	1.083991	0.007436	0.007167	9.825290	6697.02	0.006335	0.005385	1824.49	83378.4
607	2.000000	1.086268	7.37099e+06	-46739.1	1005.82	-29768.3	0.000000	0.000000	7.087312	12.0349	NaN	0.000000	0.001506	0.001870	28.0829	12.5231	0.001762	7108.31	3.543131	-172.141	11.7133	1.085953	0.009445	0.009130	12.0349	7108.31	0.008175	0.007223	1666.18	76415
607	2.000000	1.088239	7.37099e+06	-46739.1	1005.82	-29768.3	0.000000	0.000000	7.089441	15.8806	NaN	0.000000	0.001553	0.001837	28.083	15.5323	0.001909	8135.87	10.8564	-177.502	14.9905	1.088011	0.011416	0.011188	15.8806	8135.87	0.009952	0.009128	1739.69	77800.1
607	2.000000	1.090226	7.37099e+06	-46739.1	1005.82	-29768.3	0.000000	0.000000	7.091671	21.8168	NaN	0.000000	0.001536	0.001822	28.0829	17.1142	0.001663	10291.7	6.233428	-176.951	22.0929	1.089943	0.013402	0.013120	21.8168	10291.7	0.011813	0.011266	1936.46	88586.8
607	2.000000	1.092208	7.37099e+06	-46739.1	1005.82	-29768.3	0.000000	0.000000	7.093685	22.584	NaN	0.000000	0.001564	0.001879	28.0832	19.8664	0.001874	10599.4	5.944878	-175.218	22.1356	1.091841	0.015385	0.015018	22.584	10599.4	0.013786	0.013701	1648.33	82732.8
607	2.000000	1.094184	7.37099e+06	-46739.1	1005.82	-29768.3	0.000000	0.000000	7.095957	29.7706	NaN	0.000000	0.001553	0.001826	28.0828	21.2281	0.001775	11959.1	8.203509	-179.109	28.8264	1.093869	0.017361	0.017046	29.7706	11959.1	0.015494	0.015949	1866.57	86516.8
607	2.000000	1.096181	7.37099e+06	-46739.1	1005.82	-29768.3	0.000000	0.000000	7.098164	34.8739	NaN	0.000000	0.001597	0.001835	28.0831	24.2565	0.001823	13305.2	5.537842	-177.962	33.6342	1.095813	0.019358	0.018990	34.8739	13305.2	0.017392	0.018609	1874.04	89111.3
607	2.000000	1.098242	7.37099e+06	-46739.1	1005.82	-29768.3	0.000000	0.000000	7.100486	41.2199	NaN	0.000000	0.001557	0.001861	28.083	26.3013	0.001848	14235.9	8.535591	179.351	41.156	1.097860	0.021419	0.021037	41.2199	14235.9	0.019248	0.021374	1928.53	88964.5
607	2.000000	1.100217	7.37099e+06	-46739.1	1005.82	-29768.3	0.000000	0.000000	7.102592	44.4246	NaN	0.000000	0.001581	0.001804	28.0831	27.9844	0.001760	15901.7	4.953914	-178.967	45.059	1.099953	0.023394	0.023130	44.4246	15901.7	0.021299	0.024624	1804.12	92584.4
607	2.000000	1.102171	7.37099e+06	-46739.1	1005.82	-29768.3	0.000000	0.000000	7.104747	49.3272	NaN	0.000000	0.001524	0.001817	28.0841	30.4208	0.001824	16681.5	4.290034	-179.177	49.1816	1.101998	0.025347	0.025175	49.3272	16681.5	0.023130	0.027701	1780.72	91571.8
607	2.000000	1.104143	7.37099e+06	-46739.1	1005.82	-29768.3	0.000000	0.000000	7.107198	60.9493	NaN	0.000000	0.001571	0.001819	28.083	32.7649	0.001826	17944.9	8.657544	175.777	60.0143	1.103780	0.027320	0.026957	60.9493	17944.9	0.024773	0.030603	1991.58	93719.1
607	2.000000	1.106181	7.37099e+06	-46739.1	1005.82	-29768.3	0.000000	0.000000	7.109477	66.8396	NaN	0.000000	0.001562	0.001743	28.0835	34.3571	0.001760	19526	5.946239	178.038	67.4542	1.105841	0.029358	0.029018	66.8396	19526	0.026790	0.034353	1945.65	96250.5
607	2.000000	1.108176	7.37099e+06	-46739.1	1005.82	-29768.3	0.000000	0.000000	7.111694	72.2383	NaN	0.000000	0.001560	0.001768	28.0831	37.1249	0.001743	21295.3	6.187062	177.75	73.1872	1.107819	0.031353	0.030996	72.2383	21295.3	0.028808	0.038310	1885.61	99402.8
607	2.000000	1.110163	7.37099e+06	-46739.1	1005.82	-29768.3	0.000000	0.000000	7.114107	82.5786	NaN	0.000000	0.001628	0.001716	28.083	39.1575	0.001930	20287.1	9.811031	174.741	82.6104	1.109787	0.033340	0.032964	82.5786	20287.1	0.030288	0.041342	1997.46	91158.8
607	2.000000	1.112118	7.37099e+06	-46739.1	1005.82	-29768.3	0.000000	0.000000	7.116298	88.3143	NaN	0.000000	0.001604	0.001762	28.082	41.4413	0.001815	22832.4	6.346979	175.202	84.6588	1.111854	0.035295	0.035031	88.3143	22832.4	0.032394	0.045852	1926.07	97419.5
607	2.000000	1.114164	7.37099e+06	-46739.1	1005.82	-29768.3	0.000000	0.000000	7.118799	99.3902	NaN	0.000000	0.001618	0.001768	28.0816	41.9287	0.001755	23896.1	5.932047	175.302	99.4916	1.113804	0.037341	0.036981	99.3902	23896.1	0.034222	0.049950	1989.81	97686.2
607	2.000000	1.116149	7.37099e+06	-46739.1	1005.82	-29768.3	0.000000	0.000000	7.120980	104.169	NaN	0.000000	0.001630	0.001750	28.0823	44.7556	0.001755	25497.8	4.591520	176.023	103.429	1.115888	0.039326	0.039065	104.169	25497.8	0.036262	0.054725	1903.51	99582.7
607	2.000000	1.118200	7.37099e+06	-46739.1	1005.82	-29768.3	0.000000	0.000000	7.123443	114.175	NaN	0.000000	0.001627	0.001742	28.0817	45.9	0.001846	24865.6	7.638429	175.222	116.204	1.117801	0.041377	0.040978	114.175	24865.6	0.037933	0.058796	1941.89	93691.3
607	2.000000	1.120097	7.37099e+06	-46739.1	1005.82	-29768.3	0.000000	0.000000	7.125719	123.402	NaN	0.000000	0.001640	0.001739	28.0817	47.6865	0.001752	27221.4	3.139714	177.574	122.41	1.119781	0.043274	0.042957	123.402	27221.4	0.039874	0.063703	1937.13	98537.8
607	2.000000	1.122078	7.37099e+06	-46739.1	1005.82	-29768.3	0.000000	0.000000	7.128137	134.031	NaN	0.000000	0.001612	0.001771	28.082	50.0604	0.001774	28214	7.005136	173.752	130.644	1.121804	0.045255	0.044981	134.031	28214	0.041692	0.068473	1957.43	98509.4
607	2.000000	1.124125	7.37099e+06	-46739.1	1005.82	-29768.3	0.000000	0.000000	7.130553	143.024	NaN	0.000000	0.001584	0.001780	28.0819	51.1604	0.001737	29449.6	3.042118	177.14	141.292	1.123763	0.047302	0.046940	143.024	29449.6	0.043659	0.073826	1937.31	99025.5
607	2.000000	1.126069	7.37099e+06	-46739.1	1005.82	-29768.3	0.000000	0.000000	7.132876	152.223	NaN	0.000000	0.001631	0.001772	28.0826	53.9499	0.001748	30858.3	5.228964	174.719	148.011	1.125792	0.049246	0.048969	152.223	30858.3	0.045546	0.079146	1923.32	100214
607	2.000000	1.128143	7.37099e+06	-46739.1	1005.82	-29768.3	0.000000	0.000000	7.135394	163.02	NaN	0.000000	0.001644	0.001766	28.0819	57.142	0.001779	32126.3	6.117179	173.769	162.568	1.127735	0.051320	0.050912	163.02	32126.3	0.047515	0.084886	1920.46	100743
607	2.000000	1.130158	7.37099e+06	-46739.1	1005.82	-29768.3	0.000000	0.000000	7.137806	172.666	NaN	0.000000	0.001573	0.001718	28.0816	58.1789	0.001791	32488.8	4.695458	173.893	172.479	1.129878	0.053335	0.053055	172.666	32488.8	0.049349	0.090412	1909.76	98717.2
607	2.000000	1.132104	7.37099e+06	-46739.1	1005.82	-29768.3	0.000000	0.000000	7.140194	183.423	NaN	0.000000	0.001577	0.001744	28.0816	60.9402	0.001817	33547	2.996874	175.784	183.025	1.131921	0.055281	0.055098	183.423	33547	0.051180	0.096096	1908.75	98872.2
607	2.000000	1.134119	7.37099e+06	-46739.1	1005.82	-29768.3	0.000000	0.000000	7.142530	191.261	NaN	0.000000	0.001586	0.001768	28.0816	61.387	0.001796	34177.1	2.321202	176.327	189.712	1.133892	0.057296	0.057069	191.261	34177.1	0.053099	0.102231	1870.88	97660.3
607	2.000000	1.136146	7.37099e+06	-46739.1	1005.82	-29768.3	0.000000	0.000000	7.145369	211.015	NaN	0.000000	0.001553	0.001788	28.082	64.5464	0.001825	35367.6	8.508519	170.489	209.524	1.135654	0.059323	0.058831	211.015	35367.6	0.054848	0.107984	1954.13	98332.8
607	2.000000	1.138184	7.37099e+06	-46739.1	1005.82	-29768.3	0.000000	0.000000	7.147941	223.981	NaN	0.000000	0.001568	0.001785	28.0819	65.2773	0.001717	38009.2	4.998892	174.91	225.183	1.137634	0.061361	0.060811	223.981	38009.2	0.056941	0.115069	1946.48	102372
607	2.000000	1.140124	7.37099e+06	-46739.1	1005.82	-29768.3	0.000000	0.000000	7.150268	233.402	NaN	0.000000	0.001590	0.001802	28.0817	67.5611	0.001786	37838.2	4.024742	174.248	232.934	1.139818	0.063301	0.062995	233.402	37838.2	0.058675	0.121099	1927.37	99342.1
607	2.000000	1.142148	7.37099e+06	-46739.1	1005.82	-29768.3	0.000000	0.000000	7.153010	250.851	NaN	0.000000	0.001605	0.001764	28.0817	70.9609	0.001746	40633	6.937736	170.74	250.144	1.141715	0.065325	0.064892	250.851	40633	0.060695	0.128311	1955.02	103638
607	2.000000	1.144087	7.37099e+06	-46739.1	1005.82	-29768.3	0.000000	0.000000	7.155648	267.853	NaN	0.000000	0.001601	0.001806	28.0816	70.5839	0.001702	41462.1	4.357899	173.443	266.068	1.143708	0.067264	0.066885	267.853	41462.1	0.062419	0.134625	1989.62	103243
607	2.000000	1.146150	7.37099e+06	-46739.1	1005.82	-29768.3	0.000000	0.000000	7.157932	273.241	NaN	0.000000	0.001602	0.001797	28.0831	73.5116	0.001770	41538.2	2.061497	175.337	273.896	1.145826	0.069327	0.069003	273.241	41538.2	0.064394	0.142034	1923.77	100699
607	2.000000	1.148113	7.37099e+06	-46739.1	1005.82	-29768.3	0.000000	0.000000	7.160711	293.094	NaN	0.000000	0.001616	0.001772	28.083	74.626	0.001670	44695.3	1.675157	175.576	291.846	1.147740	0.071290	0.070917	293.094	44695.3	0.066372	0.149642	1958.63	105562
607	2.000000	1.150141	7.37099e+06	-46739.1	1005.82	-29768.3	0.000000	0.000000	7.163265	305.868	NaN	0.000000	0.001577	0.001759	28.0832	77.4735	0.001812	42764.4	5.753211	172.101	308.515	1.149639	0.073318	0.072816	305.868	42764.4	0.067954	0.155865	1962.39	98964.9
607	2.000000	1.152146	7.37099e+06	-46739.1	1005.82	-29768.3	0.000000	0.000000	7.165637	314.81	NaN	0.000000	0.001613	0.001737	28.0828	79.3066	0.001768	44865.7	4.319906	172.287	315.43	1.151868	0.075323	0.075045	314.81	44865.7	0.070060	0.164332	1915.69	101118
607	2.000000	1.154045	7.37099e+06	-46739.1	1005.82	-29768.3	0.000000	0.000000	7.168469	337.512	NaN	0.000000	0.001605	0.001769	28.0829	80.0663	0.001691	47347.2	5.237258	172.293	334.091	1.153684	0.077222	0.076861	337.512	47347.2	0.071875	0.171800	1964.56	104365
607	2.000000	1.156033	7.37099e+06	-46739.1	1005.82	-29768.3	0.000000	0.000000	7.170922	348.813	NaN	0.000000	0.001646	0.001754	28.0829	83.2939	0.001756	47434.2	4.522234	172.372	345.628	1.155769	0.079210	0.078946	348.813	47434.2	0.073695	0.179444	1943.86	102306
607	2.000000	1.158096	7.37099e+06	-46739.1	1005.82	-29768.3	0.000000	0.000000	7.173623	364.344	NaN	0.000000	0.001638	0.001788	28.083	84.5545	0.001766	47888.6	-0.949899	177.923	361.433	1.157788	0.081273	0.080965	364.344	47888.6	0.075567	0.187467	1943.51	101052
607	2.000000	1.160032	7.37099e+06	-46739.1	1005.82	-29768.3	0.000000	0.000000	7.176057	376.436	NaN	0.000000	0.001655	0.001730	28.0831	86.1252	0.001761	48896.6	-0.172083	176.37	372.72	1.159801	0.083209	0.082978	376.436	48896.6	0.077435	0.195641	1924.12	101000
607	2.000000	1.162130	7.37099e+06	-46739.1	1005.82	-29768.3	0.000000	0.000000	7.178566	386.423	NaN	0.000000	0.001611	0.001757	28.0826	89.7979	0.001841	48773.7	4.829009	171.319	389.296	1.161894	0.085307	0.085071	386.423	48773.7	0.079365	0.204258	1891.84	98598.4
607	2.000000	1.164010	7.37099e+06	-46739.1	1005.82	-29768.3	0.000000	0.000000	7.181322	407.776	NaN	0.000000	0.001683	0.001735	28.083	89.2098	0.001690	52788	1.956270	173.959	404.579	1.163848	0.087187	0.087025	407.776	52788	0.081393	0.213496	1909.99	104379
607	2.000000	1.166005	7.37099e+06	-46739.1	1005.82	-29768.3	0.000000	0.000000	7.184061	425.843	NaN	0.000000	0.001595	0.001747	28.0826	92.6195	0.001669	55491.3	6.931228	168.891	422.28	1.165651	0.089182	0.088827	425.843	55491.3	0.083427	0.222953	1910.01	107372
607	2.000000	1.167972	7.37099e+06	-46739.1	1005.82	-29768.3	0.000000	0.000000	7.186631	440.517	NaN	0.000000	0.001586	0.001755	28.0828	94.5257	0.001859	50854.1	4.915526	171.698	432.984	1.167758	0.091149	0.090935	440.517	50854.1	0.084652	0.228746	1925.79	97145.4
607	2.000000	1.170040	7.37099e+06	-46739.1	1005.82	-29768.3	0.000000	0.000000	7.189350	456.365	NaN	0.000000	0.001563	0.001748	28.0827	96.3402	0.001764	54603.6	2.344075	173.433	453.116	1.169713	0.093217	0.092890	456.365	54603.6	0.086948	0.239783	1903.24	101879
607	2.000000	1.172053	7.37099e+06	-46739.1	1005.82	-29768.3	0.000000	0.000000	7.191662	463.63	NaN	0.000000	0.001557	0.001731	28.0825	99.9748	0.001874	53349.5	2.156748	173.165	461.447	1.171788	0.095230	0.094965	463.63	53349.5	0.088712	0.248428	1866.25	97792.1
607	2.000000	1.173995	7.37099e+06	-46739.1	1005.82	-29768.3	0.000000	0.000000	7.194823	493.277	NaN	0.000000	0.001613	0.001733	28.083	101.006	0.001860	54314.1	6.375925	169.635	488.869	1.173695	0.097172	0.096872	493.277	54314.1	0.090361	0.256636	1922.09	97955
607	2.000000	1.176077	7.37099e+06	-46739.1	1005.82	-29768.3	0.000000	0.000000	7.197480	507.265	NaN	0.000000	0.001628	0.001784	28.0828	103.663	0.001794	57794.1	5.270418	170.09	506.664	1.175688	0.099254	0.098865	507.265	57794.1	0.092671	0.268348	1890.32	101931
607	2.000000	1.178087	7.37099e+06	-46739.1	1005.82	-29768.3	0.000000	0.000000	7.200024	520.238	NaN	0.000000	0.001566	0.001767	28.0827	105.162	0.001763	59638.1	3.474937	172.125	521.099	1.177767	0.101264	0.100943	520.238	59638.1	0.094722	0.278952	1864.98	103165
607	2.000000	1.180121	7.371e+06	-46739.1	1005.82	-29768.3	0.000000	0.000000	7.202979	542.654	NaN	0.000000	0.001583	0.001764	28.0815	106.395	0.001798	59170	3.006189	172.222	543.032	1.179650	0.103298	0.102827	542.654	59170	0.096420	0.287873	1885.05	100757
607	2.000000	1.180533	7.371e+06	-46739.1	1005.82	-29768.3	0.000000	0.000000	7.203494	545.156	NaN	0.000000	0.001580	0.001761	28.0816	106.568	0.001809	58909.7	2.571155	-7.342882	541.304	1.180351	0.103710	0.103528	545.156	58909.7	0.096770	0.289729	1881.61	99991.7