File: remote_trans/data/nanoindenter/0828-1/data/Data_2025-08-06,11h17m57s/2025-07-22_16-23-58_1_209.txt
2025-07-22, 16:23:58, 1
Index	Phase	Displacement	Time	Pos X	Pos Y	Pos Z	Rot A	Rot B	Piezo Z	Force A	Force B	Gripper	Voltage A	Voltage B	Temperature	Amplitude force	Amplitude pos	Stiffness	Phase shift	Phase excitation	Force A raw	Displacement raw	HMax	HMax raw	Real Force	Real Stiffness	Contact Depth	Area	Hardness	Reduced Mod.
[#]	[#]	[um]	[s]	[um]	[um]	[um]	[m°]	[m°]	[um]	[uN]	[uN]	[V]	[V]	[V]	[°C]	[uN]	[um]	[N/m]	[°]	[°]	[uN]	[um]	[um]	[um]	[uN]	[N/m]	[um]	[um^2]	[MPa]	[MPa]
209	1.000000	0.002420	7.36709e+06	-49089.1	955.82	-29760.6	0.000000	0.000000	6.002789	-0.038365	NaN	0.000000	0.001652	0.001688	28.0789	0.052030	0.001013	51.3719	-71.5386	-160.497	-0.025080	0.001134	-1.008009	-1.009295	-0.038365	51.3719	-1.007449	-2.857858E+13	1.342429E-15	NaN
209	1.000000	0.010415	7.36709e+06	-49089.1	955.818	-29760.6	0.000000	0.000000	6.010786	0.024872	NaN	0.000000	0.001650	0.001693	28.0787	0.051743	0.000846	61.1443	64.1378	-165.311	-0.019678	0.009088	-1.000014	-1.001341	0.024872	61.1443	-1.000319	-2.291205E+13	-1.085552E-15	NaN
209	1.000000	0.018390	7.36709e+06	-49089.1	955.819	-29760.6	0.000000	0.000000	6.018761	0.017124	NaN	0.000000	0.001646	0.001695	28.0787	0.044874	0.001652	27.1669	157.294	-163.765	0.004547	0.017135	-0.992039	-0.993294	0.017124	27.1669	-0.992511	-1.798597E+13	-9.520789E-16	NaN
209	1.000000	0.026428	7.36709e+06	-49089.1	955.819	-29760.6	0.000000	0.000000	6.026799	0.019972	NaN	0.000000	0.001672	0.001683	28.0787	0.038052	0.001834	20.7502	62.2165	-166.274	0.091317	0.025104	-0.984000	-0.985324	0.019972	20.7502	-0.984722	-1.412623E+13	-1.413809E-15	NaN
209	1.000000	0.034399	7.36709e+06	-49089.1	955.819	-29760.6	0.000000	0.000000	6.034769	-0.021497	NaN	0.000000	0.001682	0.001712	28.079	0.116020	0.001846	62.866	-77.5565	-168.758	-0.068926	0.033109	-0.976030	-0.977319	-0.021497	62.866	-0.975773	-1.070187E+13	2.008704E-15	NaN
209	1.000000	0.042384	7.36709e+06	-49089.1	955.82	-29760.6	0.000000	0.000000	6.042754	-0.020530	NaN	0.000000	0.001694	0.001700	28.0789	0.118062	0.002053	57.5076	-31.467	-160.405	-0.024063	0.041088	-0.968045	-0.969340	-0.020530	57.5076	-0.967777	-8.350263E+12	2.458546E-15	NaN
209	1.000000	0.050382	7.36709e+06	-49089.1	955.819	-29760.6	0.000000	0.000000	6.050752	-0.010966	NaN	0.000000	0.001660	0.001707	28.079	0.085391	0.002107	40.5263	-88.3221	-164.007	0.013585	0.049054	-0.960047	-0.961374	-0.010966	40.5263	-0.959844	-6.527699E+12	1.679931E-15	NaN
209	1.000000	0.058391	7.36709e+06	-49089.1	955.819	-29760.6	0.000000	0.000000	6.058761	-0.018691	NaN	0.000000	0.001644	0.001709	28.0787	0.014874	0.002073	7.175640	-150.493	-165.815	-0.015363	0.057100	-0.952037	-0.953329	-0.018691	7.175640	-0.950084	-4.821206E+12	3.876885E-15	NaN
209	1.000000	0.066356	7.36709e+06	-49089.1	955.82	-29760.6	0.000000	0.000000	6.066728	0.021296	NaN	0.000000	0.001678	0.001704	28.0786	0.106296	0.001983	53.6091	20.058	-162.849	-0.028788	0.065084	-0.944072	-0.945344	0.021296	53.6091	-0.944370	-4.037310E+12	-5.274707E-15	NaN
209	1.000000	0.074429	7.36709e+06	-49089.1	955.818	-29760.6	0.000000	0.000000	6.074800	0.012329	NaN	0.000000	0.001665	0.001705	28.0787	0.080054	0.002053	38.9859	-10.2627	-163.977	-0.000806	0.073044	-0.936000	-0.937385	0.012329	38.9859	-0.936237	-3.135941E+12	-3.931380E-15	NaN
209	1.000000	0.082406	7.36709e+06	-49089.1	955.818	-29760.6	0.000000	0.000000	6.082773	-0.065280	NaN	0.000000	0.001678	0.001709	28.0789	0.093014	0.002091	44.4724	-132.497	-166.681	-0.057925	0.081067	-0.928023	-0.929361	-0.065280	44.4724	-0.926922	-2.347755E+12	2.780544E-14	NaN
209	1.000000	0.090380	7.36709e+06	-49089.1	955.819	-29760.6	0.000000	0.000000	6.090751	0.025861	NaN	0.000000	0.001693	0.001729	28.0787	0.074250	0.001912	38.8282	161.558	-162.425	0.089422	0.089091	-0.920049	-0.921337	0.025861	38.8282	-0.920548	-1.925798E+12	-1.342864E-14	NaN
209	1.000000	0.098364	7.36709e+06	-49089.1	955.819	-29760.6	0.000000	0.000000	6.098735	0.017817	NaN	0.000000	0.001676	0.001721	28.0787	0.014493	0.001948	7.440117	129.557	-165.27	0.040581	0.097096	-0.912065	-0.913332	0.017817	7.440117	-0.913861	-1.564245E+12	-1.139019E-14	NaN
209	1.000000	0.106399	7.36709e+06	-49089.1	955.819	-29760.6	0.000000	0.000000	6.106769	-0.021066	NaN	0.000000	0.001674	0.001710	28.0787	0.078672	0.002089	37.6606	-27.5848	-165.356	0.000916	0.105144	-0.904029	-0.905285	-0.021066	37.6606	-0.903610	-1.137210E+12	1.852471E-14	NaN
209	1.000000	0.114407	7.36709e+06	-49089.1	955.819	-29760.6	0.000000	0.000000	6.114778	0.003663	NaN	0.000000	0.001646	0.001691	28.0787	0.047291	0.002035	23.2395	-115.88	-162.491	0.044814	0.113126	-0.896021	-0.897303	0.003663	23.2395	-0.896139	-9.013577E+11	-4.064059E-15	NaN
209	1.000000	0.122379	7.36709e+06	-49089.1	955.818	-29760.6	0.000000	0.000000	6.122750	0.006396	NaN	0.000000	0.001698	0.001695	28.0789	0.077660	0.001919	40.4771	33.5378	-165.741	0.018234	0.121115	-0.888049	-0.889313	0.006396	40.4771	-0.888168	-7.033118E+11	-9.094414E-15	NaN
209	1.000000	0.130397	7.36709e+06	-49089.1	955.819	-29760.6	0.000000	0.000000	6.130769	0.045730	NaN	0.000000	0.001667	0.001703	28.0776	0.047022	0.001851	25.3974	106.109	-164.02	0.176958	0.129070	-0.880032	-0.881359	0.045730	25.3974	-0.881382	-5.693810E+11	-8.031541E-14	NaN
209	1.000000	0.138445	7.36709e+06	-49089.1	955.818	-29760.6	0.000000	0.000000	6.138817	0.034479	NaN	0.000000	0.001666	0.001675	28.0778	0.051453	0.001975	26.051	-97.732	-163.882	-0.023867	0.137144	-0.871984	-0.873285	0.034479	26.051	-0.872977	-4.382397E+11	-7.867613E-14	NaN
209	1.000000	0.146392	7.36709e+06	-49089.1	955.819	-29760.6	0.000000	0.000000	6.146764	0.020611	NaN	0.000000	0.001638	0.001691	28.0777	0.075608	0.002003	37.754	-32.4902	-165.521	-0.012267	0.145095	-0.864036	-0.865333	0.020611	37.754	-0.864446	-3.359604E+11	-6.134950E-14	NaN
209	1.000000	0.154414	7.36709e+06	-49089.1	955.819	-29760.6	0.000000	0.000000	6.154784	-0.023441	NaN	0.000000	0.001674	0.001698	28.0776	0.021910	0.001915	11.4419	-72.2444	-161.401	-0.045124	0.153095	-0.856015	-0.857334	-0.023441	11.4419	-0.854478	-2.462469E+11	9.519170E-14	NaN
209	1.000000	0.162447	7.36709e+06	-49089.1	955.819	-29760.6	0.000000	0.000000	6.162816	-0.042860	NaN	0.000000	0.001683	0.001697	28.0775	0.083580	0.001979	42.2366	167.625	-165.927	-0.055937	0.161127	-0.847982	-0.849302	-0.042860	42.2366	-0.847221	-1.963810E+11	2.182481E-13	NaN
209	1.000000	0.170407	7.36709e+06	-49089.1	955.819	-29760.6	0.000000	0.000000	6.170778	0.005893	NaN	0.000000	0.001658	0.001723	28.0773	0.078354	0.002032	38.5672	-137.855	-167.356	0.061555	0.169096	-0.840021	-0.841332	0.005893	38.5672	-0.840136	-1.574473E+11	-3.742969E-14	NaN
209	1.000000	0.178442	7.36709e+06	-49089.1	955.819	-29760.6	0.000000	0.000000	6.178815	0.045034	NaN	0.000000	0.001664	0.001715	28.0775	0.042555	0.002058	20.6823	119.178	-164.756	0.014434	0.177137	-0.831986	-0.833292	0.045034	20.6823	-0.833619	-1.284809E+11	-3.505151E-13	NaN
209	1.000000	0.186430	7.36709e+06	-49089.1	955.818	-29760.6	0.000000	0.000000	6.186803	0.058066	NaN	0.000000	0.001647	0.001680	28.0775	0.056694	0.002106	26.9183	26.8023	-166.862	-0.122220	0.185119	-0.823999	-0.825310	0.058066	26.9183	-0.825616	-1.000836E+11	-5.801766E-13	NaN
209	1.000000	0.194451	7.36709e+06	-49089.1	955.82	-29760.6	0.000000	0.000000	6.194822	0.007718	NaN	0.000000	0.001626	0.001703	28.0776	0.172010	0.001888	91.1282	59.3783	-166.975	-0.028605	0.193153	-0.815977	-0.817276	0.007718	91.1282	-0.816041	-7.421934E+10	-1.039838E-13	NaN
209	1.000000	0.202445	7.36709e+06	-49089.1	955.819	-29760.6	0.000000	0.000000	6.202813	-0.068615	NaN	0.000000	0.001646	0.001695	28.0777	0.115269	0.001967	58.6087	31.5325	-163.867	-0.059615	0.201176	-0.807983	-0.809252	-0.068615	58.6087	-0.807105	-5.614305E+10	1.222148E-12	NaN
209	1.000000	0.210466	7.36709e+06	-49089.1	955.818	-29760.6	0.000000	0.000000	6.210837	0.015881	NaN	0.000000	0.001627	0.001700	28.0775	0.064542	0.001951	33.0808	155.021	-166.252	0.043816	0.209132	-0.799963	-0.801297	0.015881	33.0808	-0.800323	-4.541970E+10	-3.496556E-13	NaN
209	1.000000	0.218468	7.36709e+06	-49089.1	955.818	-29760.6	0.000000	0.000000	6.218836	-0.067222	NaN	0.000000	0.001650	0.001642	28.0775	0.115257	0.002010	57.3498	118.907	-167.378	-0.029461	0.217136	-0.791961	-0.793292	-0.067222	57.3498	-0.791081	-3.402286E+10	1.975796E-12	NaN
209	1.000000	0.226458	7.36709e+06	-49089.1	955.819	-29760.6	0.000000	0.000000	6.226826	-0.062087	NaN	0.000000	0.001653	0.001699	28.0775	0.074422	0.001979	37.6027	-164.953	-161.932	-0.043513	0.225135	-0.783971	-0.785294	-0.062087	37.6027	-0.782732	-2.620339E+10	2.369428E-12	NaN
209	1.000000	0.234474	7.36709e+06	-49089.1	955.818	-29760.6	0.000000	0.000000	6.234846	0.033681	NaN	0.000000	0.001643	0.001731	28.0777	0.151739	0.001867	81.273	102.471	-164.206	0.074851	0.233171	-0.775954	-0.777257	0.033681	81.273	-0.776265	-2.140287E+10	-1.573665E-12	NaN
209	1.000000	0.242444	7.36709e+06	-49089.1	955.819	-29760.6	0.000000	0.000000	6.242813	-0.041460	NaN	0.000000	0.001664	0.001710	28.0777	0.050162	0.002007	24.9898	-28.5418	-163.688	-0.020774	0.241134	-0.767985	-0.769295	-0.041460	24.9898	-0.766740	-1.588476E+10	2.610034E-12	NaN
209	1.000000	0.250462	7.36709e+06	-49089.1	955.819	-29760.6	0.000000	0.000000	6.250830	-0.056821	NaN	0.000000	0.001645	0.001708	28.0776	0.056998	0.001983	28.7376	-91.0927	-162.564	-0.047767	0.249128	-0.759967	-0.761300	-0.056821	28.7376	-0.758484	-1.226513E+10	4.632758E-12	NaN
209	1.000000	0.258483	7.36709e+06	-49089.1	955.818	-29760.6	0.000000	0.000000	6.258853	-0.000306	NaN	0.000000	0.001679	0.001684	28.0774	0.119965	0.002007	59.7862	-66.0147	-165.106	0.010407	0.257188	-0.751946	-0.753240	-0.000306	59.7862	-0.751942	-9.992061E+9	3.058217E-14	NaN
209	1.000000	0.266435	7.36709e+06	-49089.1	955.818	-29760.6	0.000000	0.000000	6.266804	-0.026325	NaN	0.000000	0.001663	0.001705	28.0786	0.118739	0.001944	61.0922	153.4	-165.584	-0.034277	0.265120	-0.743994	-0.745309	-0.026325	61.0922	-0.743671	-7.709839E+9	3.414530E-12	NaN
209	1.000000	0.274483	7.36709e+06	-49089.1	955.819	-29760.6	0.000000	0.000000	6.274853	-0.013425	NaN	0.000000	0.001603	0.001721	28.0788	0.078446	0.002066	37.9645	-123.824	-161.709	0.049082	0.273103	-0.735946	-0.737326	-0.013425	37.9645	-0.735681	-6.000879E+9	2.237182E-12	NaN
209	1.000000	0.282487	7.36709e+06	-49089.1	955.819	-29760.6	0.000000	0.000000	6.282859	0.025804	NaN	0.000000	0.001624	0.001675	28.0787	0.052689	0.002020	26.0871	149.681	-166.625	-0.079396	0.281163	-0.727942	-0.729266	0.025804	26.0871	-0.728683	-4.817954E+9	-5.355739E-12	NaN
209	1.000000	0.290487	7.36709e+06	-49089.1	955.818	-29760.6	0.000000	0.000000	6.290857	-0.021146	NaN	0.000000	0.001645	0.001670	28.0787	0.119932	0.002006	59.782	117.896	-165.079	0.049470	0.289158	-0.719942	-0.721271	-0.021146	59.782	-0.719676	-3.631261E+9	5.823416E-12	NaN
209	1.000000	0.298467	7.36709e+06	-49089.1	955.82	-29760.6	0.000000	0.000000	6.298839	0.028336	NaN	0.000000	0.001670	0.001729	28.0786	0.027979	0.002029	13.7925	22.9771	-167.98	-0.017167	0.297210	-0.711961	-0.713219	0.028336	13.7925	-0.713502	-2.991150E+9	-9.473383E-12	NaN
209	1.000000	0.306473	7.36709e+06	-49089.1	955.819	-29760.6	0.000000	0.000000	6.306843	-0.014546	NaN	0.000000	0.001690	0.001741	28.0787	0.033634	0.001994	16.8701	43.6862	-161.015	0.026115	0.305198	-0.703955	-0.705231	-0.014546	16.8701	-0.703309	-2.171254E+9	6.699578E-12	NaN
209	1.000000	0.314474	7.36709e+06	-49089.1	955.818	-29760.6	0.000000	0.000000	6.314845	0.005809	NaN	0.000000	0.001676	0.001701	28.0785	0.039013	0.002009	19.4179	126.7	-164.342	0.041993	0.313126	-0.695955	-0.697302	0.005809	19.4179	-0.696179	-1.735179E+9	-3.347911E-12	NaN
209	1.000000	0.322461	7.36709e+06	-49089.1	955.819	-29760.6	0.000000	0.000000	6.322830	-0.021041	NaN	0.000000	0.001644	0.001718	28.0794	0.075051	0.002014	37.2721	110.679	-162.754	-0.009331	0.321146	-0.687968	-0.689283	-0.021041	37.2721	-0.687544	-1.322378E+9	1.591118E-11	NaN
209	1.000000	0.330491	7.36709e+06	-49089.1	955.819	-29760.6	0.000000	0.000000	6.330862	0.035947	NaN	0.000000	0.001635	0.001721	28.0787	0.086113	0.002039	42.2242	60.5151	-163.194	-0.001750	0.329178	-0.679938	-0.681251	0.035947	42.2242	-0.680577	-1.061917E+9	-3.385114E-11	NaN
209	1.000000	0.338494	7.36709e+06	-49089.1	955.819	-29760.6	0.000000	0.000000	6.338863	-0.032333	NaN	0.000000	0.001633	0.001721	28.0785	0.080642	0.001997	40.386	89.3726	-168.203	-0.047134	0.337202	-0.671934	-0.673227	-0.032333	40.386	-0.671334	-7.936798E+8	4.073856E-11	NaN
209	1.000000	0.346510	7.36709e+06	-49089.1	955.818	-29760.6	0.000000	0.000000	6.346879	-0.055471	NaN	0.000000	0.001631	0.001727	28.0786	0.022979	0.001945	11.8148	4.487909	-163.995	0.010126	0.345179	-0.663918	-0.665250	-0.055471	11.8148	-0.660397	-5.622203E+8	9.866397E-11	NaN
209	1.000000	0.354511	7.36709e+06	-49089.1	955.819	-29760.6	0.000000	0.000000	6.354885	0.099000	NaN	0.000000	0.001661	0.001737	28.0784	0.066614	0.001962	33.9577	-79.5942	-165.017	0.096155	0.353221	-0.655918	-0.657208	0.099000	33.9577	-0.658105	-5.230038E+8	-1.892918E-10	NaN
209	1.000000	0.362500	7.36709e+06	-49089.1	955.819	-29760.6	0.000000	0.000000	6.362871	0.015576	NaN	0.000000	0.001671	0.001719	28.0787	0.026894	0.002077	12.9511	46.1153	-165.656	0.116575	0.361221	-0.647929	-0.649207	0.015576	12.9511	-0.648831	-3.903049E+8	-3.990817E-11	NaN
209	1.000000	0.370504	7.36709e+06	-49089.1	955.818	-29760.6	0.000000	0.000000	6.370875	0.003461	NaN	0.000000	0.001675	0.001720	28.0788	0.122038	0.001966	62.0853	118.839	-164.923	-0.049512	0.369197	-0.639925	-0.641231	0.003461	62.0853	-0.639966	-2.950054E+8	-1.173166E-11	NaN
209	1.000000	0.378510	7.36709e+06	-49089.1	955.819	-29760.6	0.000000	0.000000	6.378881	0.016813	NaN	0.000000	0.001677	0.001719	28.0787	0.082995	0.001947	42.6313	-143.969	-163.21	0.027632	0.377211	-0.631919	-0.633218	0.016813	42.6313	-0.632215	-2.309043E+8	-7.281300E-11	NaN
209	1.000000	0.386491	7.36709e+06	-49089.1	955.819	-29760.6	0.000000	0.000000	6.386862	0.023337	NaN	0.000000	0.001690	0.001692	28.0788	0.074049	0.001932	38.3244	-139.546	-166.161	0.012578	0.385192	-0.623938	-0.625237	0.023337	38.3244	-0.624395	-1.803125E+8	-1.294278E-10	NaN
209	1.000000	0.394511	7.36709e+06	-49089.1	955.818	-29760.6	0.000000	0.000000	6.394881	0.002143	NaN	0.000000	0.001665	0.001697	28.0786	0.067618	0.001998	33.8496	173.361	-166.021	-0.039192	0.393256	-0.615918	-0.617173	0.002143	33.8496	-0.615965	-1.380909E+8	-1.552035E-11	NaN
209	1.000000	0.402527	7.36709e+06	-49089.1	955.818	-29760.6	0.000000	0.000000	6.402899	0.042322	NaN	0.000000	0.001641	0.001736	28.0774	0.056311	0.002079	27.0823	34.3885	-164.869	-0.001406	0.401206	-0.607901	-0.609222	0.042322	27.0823	-0.609073	-1.110110E+8	-3.812396E-10	NaN
209	1.000000	0.410522	7.36709e+06	-49089.1	955.819	-29760.6	0.000000	0.000000	6.410892	-0.004642	NaN	0.000000	0.001658	0.001746	28.0775	0.096654	0.001966	49.1548	-88.0409	-166.337	0.114021	0.409205	-0.599907	-0.601224	-0.004642	49.1548	-0.599836	-8.283318E+7	5.604170E-11	NaN
209	1.000000	0.418529	7.36709e+06	-49089.1	955.818	-29760.6	0.000000	0.000000	6.418896	-0.075664	NaN	0.000000	0.001646	0.001715	28.0774	0.079885	0.001973	40.4864	-33.0999	-163.591	-0.104658	0.417250	-0.591899	-0.593179	-0.075664	40.4864	-0.590498	-6.159274E+7	1.228462E-9	NaN
209	1.000000	0.426542	7.36709e+06	-49089.1	955.818	-29760.6	0.000000	0.000000	6.426916	0.071496	NaN	0.000000	0.001672	0.001732	28.0777	0.112750	0.001906	59.1487	106.818	-165.893	0.054473	0.425224	-0.583886	-0.585205	0.071496	59.1487	-0.584793	-5.138776E+7	-1.391306E-9	NaN
209	1.000000	0.434546	7.36709e+06	-49089.1	955.819	-29760.6	0.000000	0.000000	6.434914	-0.075738	NaN	0.000000	0.001698	0.001704	28.0775	0.112525	0.002058	54.6871	-52.1438	-161.518	-0.029875	0.433233	-0.575882	-0.577195	-0.075738	54.6871	-0.574844	-3.745745E+7	2.021981E-9	NaN
209	1.000000	0.442571	7.36709e+06	-49089.1	955.819	-29760.6	0.000000	0.000000	6.442941	-0.014512	NaN	0.000000	0.001677	0.001700	28.0774	0.060346	0.002045	29.5019	-122.701	-165.615	0.032835	0.441282	-0.567858	-0.569147	-0.014512	29.5019	-0.567489	-2.964361E+7	4.895651E-10	NaN
209	1.000000	0.450551	7.36709e+06	-49089.1	955.818	-29760.6	0.000000	0.000000	6.450919	-0.066075	NaN	0.000000	0.001677	0.001723	28.0776	0.036468	0.001926	18.9352	-66.9336	-163.917	-0.100131	0.449221	-0.559878	-0.561208	-0.066075	18.9352	-0.557261	-2.140311E+7	3.087154E-9	NaN
209	1.000000	0.458550	7.36709e+06	-49089.1	955.819	-29760.6	0.000000	0.000000	6.458920	-0.023588	NaN	0.000000	0.001681	0.001724	28.0775	0.065544	0.002055	31.8947	-118.826	-162.363	-0.035453	0.457250	-0.551878	-0.553179	-0.023588	31.8947	-0.551324	-1.771283E+7	1.331687E-9	NaN
209	1.000000	0.466563	7.36709e+06	-49089.1	955.819	-29760.6	0.000000	0.000000	6.466934	0.034374	NaN	0.000000	0.001676	0.001737	28.0776	0.074374	0.001769	42.0398	103.621	-166.312	0.101095	0.465287	-0.543866	-0.545142	0.034374	42.0398	-0.544479	-1.423846E+7	-2.414197E-9	NaN
209	1.000000	0.474561	7.36709e+06	-49089.1	955.818	-29760.6	0.000000	0.000000	6.474930	-0.041443	NaN	0.000000	0.001693	0.001713	28.0775	0.047443	0.001876	25.2938	-16.5512	-165.044	-0.051181	0.473243	-0.535868	-0.537185	-0.041443	25.2938	-0.534639	-1.039864E+7	3.985475E-9	NaN
209	1.000000	0.482570	7.36709e+06	-49089.1	955.819	-29760.6	0.000000	0.000000	6.482942	0.027353	NaN	0.000000	0.001665	0.001721	28.0775	0.026943	0.002027	13.2953	-44.1675	-164.741	0.018736	0.481287	-0.527858	-0.529142	0.027353	13.2953	-0.529402	-8.79555e+06	-3.109887E-9	NaN
209	1.000000	0.490565	7.36709e+06	-49089.1	955.818	-29760.6	0.000000	0.000000	6.490935	-0.017112	NaN	0.000000	0.001666	0.001719	28.0778	0.049916	0.001970	25.3391	-91.5639	-164.002	-0.062214	0.489228	-0.519863	-0.521201	-0.017112	25.3391	-0.519357	-6.37751e+06	2.683213E-9	NaN
209	1.000000	0.498581	7.36709e+06	-49089.1	955.819	-29760.6	0.000000	0.000000	6.498950	-0.025570	NaN	0.000000	0.001685	0.001688	28.0776	0.097321	0.001918	50.7416	-27.2557	-161.933	-0.041857	0.497194	-0.511848	-0.513235	-0.025570	50.7416	-0.511470	-4.95319e+06	5.162240E-9	NaN
209	1.000000	0.506560	7.36709e+06	-49089.1	955.818	-29760.6	0.000000	0.000000	6.506930	-0.028814	NaN	0.000000	0.001704	0.001699	28.0779	0.030584	0.001963	15.5791	55.3578	-166.212	0.054912	0.505260	-0.503868	-0.505169	-0.028814	15.5791	-0.502481	-3.71216e+06	7.762080E-9	NaN
209	1.000000	0.514548	7.36709e+06	-49089.1	955.82	-29760.6	0.000000	0.000000	6.514918	-0.018145	NaN	0.000000	0.001685	0.001738	28.0779	0.031683	0.001992	15.901	-84.2004	-164.705	-0.121470	0.513272	-0.495880	-0.497157	-0.018145	15.901	-0.495025	-2.92131e+06	6.211104E-9	NaN
209	1.000000	0.522585	7.36709e+06	-49089.1	955.819	-29760.6	0.000000	0.000000	6.522955	-0.019302	NaN	0.000000	0.001671	0.001676	28.0777	0.084845	0.002085	40.6852	148.847	-161.854	-0.018073	0.521269	-0.487844	-0.489160	-0.019302	40.6852	-0.487488	-2.29235e+06	8.420297E-9	NaN
209	1.000000	0.530599	7.36709e+06	-49089.1	955.819	-29760.6	0.000000	0.000000	6.530971	0.035893	NaN	0.000000	0.001670	0.001734	28.0776	0.060443	0.002003	30.1736	-121.879	-162.783	0.023751	0.529298	-0.479830	-0.481131	0.035893	30.1736	-0.480722	-1.84345e+06	-1.947046E-8	NaN
209	1.000000	0.538590	7.36709e+06	-49089.1	955.818	-29760.6	0.000000	0.000000	6.538960	-0.005538	NaN	0.000000	0.001671	0.001721	28.0787	0.044720	0.002063	21.6789	122.691	-167.857	0.039807	0.537295	-0.471838	-0.473134	-0.005538	21.6789	-0.471647	-1.37563e+06	4.025527E-9	NaN
209	1.000000	0.546578	7.36709e+06	-49089.1	955.819	-29760.6	0.000000	0.000000	6.546949	0.008249	NaN	0.000000	0.001660	0.001742	28.0787	0.029374	0.001860	15.7911	-103.843	-166.61	-0.019649	0.545334	-0.463850	-0.465095	0.008249	15.7911	-0.464242	-1.08295e+06	-7.617423E-9	NaN
209	1.000000	0.554603	7.36709e+06	-49089.1	955.817	-29760.6	0.000000	0.000000	6.554974	0.017548	NaN	0.000000	0.001673	0.001722	28.0788	0.091793	0.001900	48.3189	26.5355	-167.248	0.002134	0.553331	-0.455826	-0.457098	0.017548	48.3189	-0.456098	-832082	-2.108917E-8	NaN
209	1.000000	0.562594	7.36709e+06	-49089.1	955.818	-29760.6	0.000000	0.000000	6.562963	-0.031120	NaN	0.000000	0.001664	0.001749	28.0788	0.100201	0.002013	49.7673	67.1726	-164.412	0.025249	0.561322	-0.447834	-0.449107	-0.031120	49.7673	-0.447365	-626947	4.963773E-8	NaN
209	1.000000	0.570606	7.36709e+06	-49089.1	955.818	-29760.6	0.000000	0.000000	6.570978	0.054591	NaN	0.000000	0.001675	0.001702	28.0786	0.097429	0.001889	51.5861	-176.052	-162.714	0.046567	0.569330	-0.439823	-0.441099	0.054591	51.5861	-0.440617	-503576	-1.084065E-7	NaN
209	1.000000	0.578601	7.36709e+06	-49089.1	955.818	-29760.6	0.000000	0.000000	6.578972	0.024110	NaN	0.000000	0.001684	0.001708	28.0785	0.111257	0.002081	53.4545	-61.1892	-164.708	-0.000240	0.577387	-0.431828	-0.433042	0.024110	53.4545	-0.432166	-382558	-6.302361E-8	NaN
209	1.000000	0.586624	7.36709e+06	-49089.1	955.819	-29760.6	0.000000	0.000000	6.586995	0.018529	NaN	0.000000	0.001665	0.001701	28.0785	0.064719	0.002030	31.8889	25.6566	-163.121	0.028822	0.585266	-0.423805	-0.425163	0.018529	31.8889	-0.424241	-295477	-6.270788E-8	NaN
209	1.000000	0.594580	7.36709e+06	-49089.1	955.819	-29760.6	0.000000	0.000000	6.594948	-0.059902	NaN	0.000000	0.001665	0.001741	28.0788	0.064959	0.001881	34.5294	109.568	-166.658	-0.060201	0.593250	-0.415848	-0.417179	-0.059902	34.5294	-0.414547	-215289	2.782382E-7	NaN
209	1.000000	0.602615	7.36709e+06	-49089.1	955.818	-29760.6	0.000000	0.000000	6.602983	-0.047375	NaN	0.000000	0.001652	0.001692	28.0788	0.059159	0.002075	28.5084	154.1	-164.053	-0.060305	0.601333	-0.407814	-0.409096	-0.047375	28.5084	-0.406568	-165793	2.857498E-7	NaN
209	1.000000	0.610597	7.36709e+06	-49089.1	955.819	-29760.6	0.000000	0.000000	6.610969	0.039540	NaN	0.000000	0.001652	0.001705	28.0786	0.013493	0.002102	6.418580	156.777	-162.936	0.044148	0.609292	-0.399832	-0.401137	0.039540	6.418580	-0.404452	-154682	-2.556191E-7	NaN
209	1.000000	0.618613	7.36709e+06	-49089.1	955.819	-29760.6	0.000000	0.000000	6.618984	0.012866	NaN	0.000000	0.001629	0.001693	28.0786	0.026493	0.002143	12.3632	-63.4384	-165.873	-0.067734	0.617347	-0.391816	-0.393081	0.012866	12.3632	-0.392596	-104783	-1.227912E-7	NaN
209	1.000000	0.626650	7.36709e+06	-49089.1	955.82	-29760.6	0.000000	0.000000	6.627020	-0.023455	NaN	0.000000	0.001675	0.001699	28.0785	0.050861	0.001998	25.4602	-66.347	-165.917	0.099032	0.625331	-0.383778	-0.385097	-0.023455	25.4602	-0.383087	-76590.3	3.062432E-7	NaN
209	1.000000	0.634652	7.36709e+06	-49089.1	955.818	-29760.6	0.000000	0.000000	6.635023	0.004267	NaN	0.000000	0.001691	0.001683	28.0786	0.084597	0.002030	41.6777	-130.281	-165.832	0.006029	0.633319	-0.375776	-0.377109	0.004267	41.6777	-0.375853	-60302.3	-7.076584E-8	NaN
209	1.000000	0.642643	7.36709e+06	-49089.1	955.819	-29760.6	0.000000	0.000000	6.643012	-0.048267	NaN	0.000000	0.001681	0.001741	28.0786	0.046735	0.001998	23.3857	81.6566	-162.363	-0.011584	0.641321	-0.367786	-0.369108	-0.048267	23.3857	-0.366238	-43843.5	1.100900E-6	NaN
209	1.000000	0.650622	7.36709e+06	-49089.1	955.818	-29760.6	0.000000	0.000000	6.650992	-0.022752	NaN	0.000000	0.001637	0.001684	28.0785	0.079801	0.001824	43.7444	135.586	-163.847	-0.007140	0.649340	-0.359806	-0.361089	-0.022752	43.7444	-0.359416	-34946.8	6.510577E-7	NaN
209	1.000000	0.658633	7.36709e+06	-49089.1	955.82	-29760.6	0.000000	0.000000	6.659006	0.081400	NaN	0.000000	0.001695	0.001670	28.0789	0.084617	0.002000	42.3071	29.1622	-164.688	0.162374	0.657324	-0.351796	-0.353105	0.081400	42.3071	-0.353239	-28443.3	-2.861838E-6	NaN
209	1.000000	0.666654	7.36709e+06	-49089.1	955.818	-29760.6	0.000000	0.000000	6.667025	0.004865	NaN	0.000000	0.001666	0.001695	28.0788	0.039210	0.002138	18.3374	95.4957	-163.335	0.013773	0.665285	-0.343774	-0.345143	0.004865	18.3374	-0.343973	-20865	-2.331423E-7	NaN
209	1.000000	0.674646	7.36709e+06	-49089.1	955.818	-29760.6	0.000000	0.000000	6.675014	-0.061402	NaN	0.000000	0.001646	0.001688	28.0775	0.122411	0.002029	60.3368	43.5151	-166.299	-0.111428	0.673364	-0.335783	-0.337065	-0.061402	60.3368	-0.335020	-15448.1	3.974718E-6	NaN
209	1.000000	0.682638	7.36709e+06	-49089.1	955.818	-29760.6	0.000000	0.000000	6.683005	-0.068962	NaN	0.000000	0.001650	0.001663	28.0776	0.087504	0.002063	42.4218	-93.9964	-165.888	-0.048239	0.681317	-0.327791	-0.329112	-0.068962	42.4218	-0.326572	-11619.9	5.934777E-6	NaN
209	1.000000	0.690668	7.36709e+06	-49089.1	955.818	-29760.6	0.000000	0.000000	6.691038	-0.032376	NaN	0.000000	0.001646	0.001669	28.0776	0.039901	0.002005	19.8988	68.8645	-166.882	-0.064298	0.689340	-0.319760	-0.321089	-0.032376	19.8988	-0.318540	-8853.99	3.656655E-6	NaN
209	1.000000	0.698651	7.36709e+06	-49089.1	955.819	-29760.6	0.000000	0.000000	6.699020	-0.035041	NaN	0.000000	0.001634	0.001610	28.0778	0.047463	0.001940	24.4615	-151.947	-166.847	-0.006783	0.697354	-0.311778	-0.313075	-0.035041	24.4615	-0.310703	-6783.67	5.165565E-6	NaN
209	1.000000	0.706670	7.36709e+06	-49089.1	955.818	-29760.6	0.000000	0.000000	6.707040	-0.022372	NaN	0.000000	0.001649	0.001698	28.0776	0.072459	0.002065	35.0874	-110.958	-161.412	0.025931	0.705381	-0.303758	-0.305048	-0.022372	35.0874	-0.303280	-5265.24	4.248992E-6	NaN
209	1.000000	0.714659	7.36709e+06	-49089.1	955.819	-29760.6	0.000000	0.000000	6.715027	-0.074088	NaN	0.000000	0.001669	0.001680	28.0777	0.052286	0.001910	27.3742	175.434	-161.898	-0.006358	0.713319	-0.295769	-0.297110	-0.074088	27.3742	-0.293739	-3795.39	1.952059E-5	NaN
209	1.000000	0.722668	7.36709e+06	-49089.1	955.82	-29760.6	0.000000	0.000000	6.723036	-0.064222	NaN	0.000000	0.001670	0.001665	28.0776	0.039891	0.002046	19.4922	-68.2299	-167.668	-0.096712	0.721370	-0.287761	-0.289058	-0.064222	19.4922	-0.285290	-2835.45	2.264956E-5	NaN
209	1.000000	0.730700	7.36709e+06	-49089.1	955.818	-29760.6	0.000000	0.000000	6.731073	0.061009	NaN	0.000000	0.001662	0.001671	28.0774	0.134245	0.001981	67.7661	126.994	-163.695	0.028616	0.729383	-0.279729	-0.281046	0.061009	67.7661	-0.280404	-2393.66	-2.548783E-5	NaN
209	1.000000	0.738658	7.36709e+06	-49089.1	955.818	-29760.6	0.000000	0.000000	6.739030	0.027131	NaN	0.000000	0.001683	0.001706	28.0775	0.009175	0.002008	4.569598	113.289	-164.737	0.020138	0.737354	-0.271771	-0.273075	0.027131	4.569598	-0.276224	-2069.76	-1.310842E-5	NaN
209	1.000000	0.746698	7.36709e+06	-49089.1	955.818	-29760.6	0.000000	0.000000	6.747068	-0.003976	NaN	0.000000	0.001644	0.001685	28.0775	0.048503	0.002013	24.0978	104.151	-163.212	0.055592	0.745384	-0.263731	-0.265045	-0.003976	24.0978	-0.263607	-1330.82	2.987677E-6	NaN
209	1.000000	0.754661	7.36709e+06	-49089.1	955.819	-29760.6	0.000000	0.000000	6.755030	-0.043291	NaN	0.000000	0.001604	0.001699	28.0776	0.186452	0.001916	97.326	-138.855	-167.615	-0.085219	0.753365	-0.255767	-0.257063	-0.043291	97.326	-0.255434	-997.213	4.341222E-5	NaN
209	1.000000	0.762633	7.36709e+06	-49089.1	955.818	-29760.6	0.000000	0.000000	6.763001	-0.076956	NaN	0.000000	0.001654	0.001712	28.0778	0.025325	0.002055	12.3247	118.87	-166.824	-0.075597	0.761350	-0.247795	-0.249078	-0.076956	12.3247	-0.243112	-642.818	0.000120	NaN
209	1.000000	0.770718	7.36709e+06	-49089.1	955.818	-29760.6	0.000000	0.000000	6.771088	-0.002708	NaN	0.000000	0.001658	0.001680	28.0775	0.024484	0.002157	11.3508	94.4601	-163.608	-0.041442	0.769381	-0.239711	-0.241048	-0.002708	11.3508	-0.239532	-565.243	4.791584E-6	NaN
209	1.000000	0.778651	7.36709e+06	-49089.1	955.819	-29760.6	0.000000	0.000000	6.779021	-0.017300	NaN	0.000000	0.001633	0.001693	28.0774	0.008544	0.001891	4.518740	50.0182	-165.026	0.040309	0.777346	-0.231777	-0.233083	-0.017300	4.518740	-0.228906	-384.798	4.495782E-5	NaN
209	1.000000	0.786677	7.36709e+06	-49089.1	955.818	-29760.6	0.000000	0.000000	6.787047	-0.000416	NaN	0.000000	0.001652	0.001692	28.0775	0.102825	0.002058	49.9692	0.293447	-166.859	-0.003287	0.785401	-0.223752	-0.225027	-0.000416	49.9692	-0.223745	-318.709	1.305354E-6	NaN
209	1.000000	0.794685	7.36709e+06	-49089.1	955.818	-29760.6	0.000000	0.000000	6.795056	0.029546	NaN	0.000000	0.001638	0.001698	28.0776	0.167874	0.002046	82.057	-13.7259	-167.729	0.058799	0.793340	-0.215744	-0.217088	0.029546	82.057	-0.216014	-239.781	-0.000123	NaN
209	1.000000	0.802679	7.36709e+06	-49089.1	955.817	-29760.6	0.000000	0.000000	6.803048	-0.037560	NaN	0.000000	0.001645	0.001689	28.0778	0.062355	0.001987	31.3779	-124.179	-162.765	0.019538	0.801374	-0.207749	-0.209054	-0.037560	31.3779	-0.206852	-170.498	0.000220	NaN
209	1.000000	0.810711	7.36709e+06	-49089.1	955.819	-29760.6	0.000000	0.000000	6.811083	0.029488	NaN	0.000000	0.001664	0.001667	28.0792	0.034129	0.001995	17.1055	32.6068	-166.58	-0.033477	0.809449	-0.199718	-0.200980	0.029488	17.1055	-0.201011	-136.865	-0.000215	NaN
209	1.000000	0.818705	7.36709e+06	-49089.1	955.818	-29760.6	0.000000	0.000000	6.819073	-0.058185	NaN	0.000000	0.001632	0.001688	28.0789	0.081163	0.002013	40.3293	146.298	-166.38	-0.127812	0.817439	-0.191724	-0.192989	-0.058185	40.3293	-0.190642	-92.2024	0.000631	NaN
209	1.000000	0.826720	7.36709e+06	-49089.1	955.819	-29760.6	0.000000	0.000000	6.827089	-0.023879	NaN	0.000000	0.001648	0.001683	28.079	0.178011	0.001893	94.0335	90.4867	-160.588	-0.062873	0.825447	-0.183709	-0.184982	-0.023879	94.0335	-0.183518	-70.0043	0.000341	NaN
209	1.000000	0.834716	7.36709e+06	-49089.1	955.819	-29760.6	0.000000	0.000000	6.835087	-0.001221	NaN	0.000000	0.001629	0.001676	28.0789	0.094512	0.002014	46.9355	-112.558	-162.581	-0.011221	0.833371	-0.175712	-0.177057	-0.001221	46.9355	-0.175693	-51.5084	2.371003E-5	NaN
209	1.000000	0.842721	7.36709e+06	-49089.1	955.818	-29760.6	0.000000	0.000000	6.843093	0.029526	NaN	0.000000	0.001622	0.001684	28.079	0.026297	0.001955	13.4539	-57.2018	-166.635	-0.008120	0.841401	-0.167707	-0.169028	0.029526	13.4539	-0.169353	-40.0288	-0.000738	NaN
209	1.000000	0.850711	7.36709e+06	-49089.1	955.819	-29760.6	0.000000	0.000000	6.851078	-0.071957	NaN	0.000000	0.001584	0.001637	28.0788	0.019453	0.002011	9.671702	-174.016	-165.955	-0.076436	0.849390	-0.159718	-0.161039	-0.071957	9.671702	-0.154138	-21.5304	0.003342	NaN
209	1.000000	0.858708	7.36709e+06	-49089.1	955.819	-29760.6	0.000000	0.000000	6.859076	-0.049410	NaN	0.000000	0.001681	0.001685	28.0788	0.046569	0.002047	22.7477	167.91	-164.979	-0.021257	0.857432	-0.151721	-0.152996	-0.049410	22.7477	-0.150092	-18.1834	0.002717	NaN
209	1.000000	0.866710	7.36709e+06	-49089.1	955.819	-29760.6	0.000000	0.000000	6.867077	-0.063636	NaN	0.000000	0.001664	0.001681	28.0788	0.048283	0.002083	23.1789	136.497	-161.579	-0.039553	0.865413	-0.143719	-0.145015	-0.063636	23.1789	-0.141660	-12.7077	0.005008	NaN
209	1.000000	0.874712	7.36709e+06	-49089.1	955.818	-29760.6	0.000000	0.000000	6.875082	-0.014789	NaN	0.000000	0.001661	0.001669	28.0786	0.127758	0.001920	66.5369	-159.315	-165.231	-0.061378	0.873417	-0.135717	-0.137012	-0.014789	66.5369	-0.135550	-9.744979	0.001518	NaN
209	1.000000	0.882734	7.36709e+06	-49089.1	955.818	-29760.6	0.000000	0.000000	6.883105	0.004463	NaN	0.000000	0.001659	0.001666	28.0787	0.103889	0.001882	55.1891	66.4938	-169.986	-0.014498	0.881428	-0.127695	-0.129001	0.004463	55.1891	-0.127755	-6.890208	-0.000648	NaN
209	1.000000	0.890750	7.36709e+06	-49089.1	955.818	-29760.6	0.000000	0.000000	6.891117	-0.069204	NaN	0.000000	0.001672	0.001667	28.0787	0.049282	0.002013	24.482	15.6111	-162.319	-0.025915	0.889425	-0.119679	-0.121003	-0.069204	24.482	-0.117559	-4.310857	0.016053	NaN
209	1.000000	0.898764	7.36709e+06	-49089.1	955.819	-29760.6	0.000000	0.000000	6.899137	0.046488	NaN	0.000000	0.001650	0.001682	28.0789	0.102414	0.002080	49.2376	155.835	-165.866	0.007870	0.897446	-0.111664	-0.112983	0.046488	49.2376	-0.112372	-3.369928	-0.013795	NaN
209	1.000000	0.906749	7.36709e+06	-49089.1	955.82	-29760.6	0.000000	0.000000	6.907117	-0.049470	NaN	0.000000	0.001653	0.001695	28.0788	0.104398	0.001919	54.4129	-33.9752	-165.582	-0.022559	0.905387	-0.103680	-0.105042	-0.049470	54.4129	-0.102998	-2.126685	0.023262	NaN
209	1.000000	0.914778	7.36709e+06	-49089.1	955.819	-29760.6	0.000000	0.000000	6.915144	-0.088318	NaN	0.000000	0.001648	0.001764	28.0787	0.046350	0.001987	23.331	-93.1455	-165.166	-0.050040	0.913492	-0.095651	-0.096936	-0.088318	23.331	-0.092812	-1.256737	0.070275	NaN
209	1.000000	0.922731	7.36709e+06	-49089.1	955.819	-29760.6	0.000000	0.000000	6.923101	-0.006931	NaN	0.000000	0.001657	0.001720	28.0786	0.112326	0.002062	54.4776	37.8339	-164.683	-0.063156	0.921478	-0.087698	-0.088951	-0.006931	54.4776	-0.087602	-0.948743	0.007306	NaN
209	1.000000	0.930760	7.36709e+06	-49089.1	955.819	-29760.6	0.000000	0.000000	6.931130	-0.007208	NaN	0.000000	0.001654	0.001663	28.0788	0.047985	0.002070	23.1867	18.4687	-166.55	-0.026003	0.929463	-0.079669	-0.080965	-0.007208	23.1867	-0.079436	-0.599176	0.012030	NaN
209	1.000000	0.938763	7.36709e+06	-49089.1	955.819	-29760.6	0.000000	0.000000	6.939134	0.036325	NaN	0.000000	0.001649	0.001680	28.0787	0.114479	0.002046	55.9505	-92.3225	-164.107	0.062762	0.937434	-0.071666	-0.072995	0.036325	55.9505	-0.072153	-0.389166	-0.093342	NaN
209	1.000000	0.946761	7.36709e+06	-49089.1	955.818	-29760.6	0.000000	0.000000	6.947131	-0.021839	NaN	0.000000	0.001644	0.001670	28.0776	0.043071	0.001991	21.635	-116.538	-164.658	0.039723	0.945410	-0.063667	-0.065019	-0.021839	21.635	-0.062910	-0.217868	0.100239	NaN
209	1.000000	0.954745	7.36709e+06	-49089.1	955.819	-29760.6	0.000000	0.000000	6.955116	0.023842	NaN	0.000000	0.001664	0.001658	28.0774	0.095086	0.002121	44.8317	15.4203	-165.499	-0.011109	0.953492	-0.055684	-0.056937	0.023842	44.8317	-0.056083	-0.138594	-0.172025	NaN
209	1.000000	0.962771	7.36709e+06	-49089.1	955.818	-29760.6	0.000000	0.000000	6.963141	-0.006146	NaN	0.000000	0.001637	0.001665	28.0775	0.040876	0.002048	19.9614	158.176	-164.229	-0.017477	0.961496	-0.047657	-0.048932	-0.006146	19.9614	-0.047426	-0.076223	0.080630	NaN
209	1.000000	0.970775	7.36709e+06	-49089.1	955.818	-29760.6	0.000000	0.000000	6.971147	0.021466	NaN	0.000000	0.001618	0.001685	28.0773	0.063383	0.002013	31.4911	-70.2069	-165.718	-0.023960	0.969432	-0.039653	-0.040996	0.021466	31.4911	-0.040164	-0.045745	-0.469244	NaN
209	1.000000	0.978752	7.36709e+06	-49089.1	955.818	-29760.6	0.000000	0.000000	6.979121	-0.047354	NaN	0.000000	0.001639	0.001704	28.0774	0.040332	0.001866	21.6101	-16.5561	-166.421	0.003171	0.977432	-0.031676	-0.032997	-0.047354	21.6101	-0.030033	-0.023061	2.053439	NaN
209	1.000000	0.986775	7.36709e+06	-49089.1	955.818	-29760.6	0.000000	0.000000	6.987146	-0.006945	NaN	0.000000	0.001655	0.001689	28.0777	0.063718	0.002093	30.4449	-11.7156	-161.751	-0.017203	0.985458	-0.023653	-0.024971	-0.006945	30.4449	-0.023482	-0.015409	0.450698	NaN
209	1.000000	0.994735	7.36709e+06	-49089.1	955.818	-29760.6	0.000000	0.000000	6.995103	-0.043879	NaN	0.000000	0.001632	0.001697	28.0774	0.129999	0.002045	63.5824	-57.8944	-163.68	-0.008881	0.993454	-0.015694	-0.016975	-0.043879	63.5824	-0.015176	-0.009381	4.677313	NaN
209	1.000000	1.002778	7.36709e+06	-49089.1	955.819	-29760.6	0.000000	0.000000	7.003148	-0.007335	NaN	0.000000	0.001650	0.001678	28.0775	0.038187	0.001973	19.3583	-51.5193	-163.708	-0.019368	1.001493	-0.007651	-0.008936	-0.007335	19.3583	-0.007367	-0.004859	1.509649	NaN
209	1.000000	1.010804	7.36709e+06	-49089.1	955.819	-29760.6	0.000000	0.000000	7.011181	0.172073	NaN	0.000000	0.001638	0.001682	28.0774	0.359597	0.001958	183.673	-0.415911	-164.595	-0.021118	1.009435	0.000375	-0.000994	0.172073	183.673	-0.000327	-0.000243	-707.736	NaN
209	1.000000	1.018672	7.36709e+06	-49089.1	955.82	-29760.6	0.000000	0.000000	7.019352	7.523099	NaN	0.000000	0.001657	0.001668	28.0774	7.408765	0.001675	4424.09	10.8145	-170.736	6.249099	1.017420	0.008244	0.006992	7.523099	4424.09	0.006968	0.006002	1253.33	52171.3
209	2.000000	1.021406	7.36709e+06	-49089.1	955.819	-29760.6	0.000000	0.000000	7.022178	9.773092	NaN	0.000000	0.001627	0.001634	28.0772	10.1381	0.001752	5787.37	10.4986	-174.334	9.965415	1.021040	0.010977	0.010612	9.773092	5787.37	0.009711	0.008862	1102.83	56168.4
209	2.000000	1.023328	7.36709e+06	-49089.1	955.819	-29760.6	0.000000	0.000000	7.024219	12.6547	NaN	0.000000	0.001633	0.001680	28.0776	12.0685	0.001783	6768.65	7.131407	-172.742	12.1283	1.023041	0.012899	0.012613	12.6547	6768.65	0.011497	0.010893	1161.73	59251.8
209	2.000000	1.025303	7.36709e+06	-49089.1	955.82	-29760.6	0.000000	0.000000	7.026278	14.708	NaN	0.000000	0.001617	0.001708	28.0773	13.7739	0.001742	7907.16	5.989362	-171.882	14.3084	1.025039	0.014875	0.014611	14.708	7907.16	0.013480	0.013311	1104.95	62616.4
209	2.000000	1.027304	7.36709e+06	-49089.1	955.819	-29760.6	0.000000	0.000000	7.028480	19.5865	NaN	0.000000	0.001665	0.001669	28.0776	15.8335	0.001685	9396.61	9.193294	-176.973	19.9345	1.026998	0.016876	0.016570	19.5865	9396.61	0.015312	0.015704	1247.23	68507.6
209	2.000000	1.029318	7.36709e+06	-49089.1	955.819	-29760.6	0.000000	0.000000	7.030547	20.8804	NaN	0.000000	0.001647	0.001689	28.0776	18.0778	0.001819	9939.6	5.599970	-174.28	20.6634	1.029028	0.018889	0.018600	20.8804	9939.6	0.017313	0.018495	1128.96	66774.6
209	2.000000	1.031305	7.36709e+06	-49089.1	955.819	-29760.6	0.000000	0.000000	7.032834	28.179	NaN	0.000000	0.001672	0.001662	28.0769	20.3997	0.001830	11145.6	7.996895	-177.074	27.7375	1.030990	0.020876	0.020561	28.179	11145.6	0.018980	0.020965	1344.09	70328.1
209	2.000000	1.033247	7.36709e+06	-49089.1	955.82	-29760.6	0.000000	0.000000	7.034978	33.0873	NaN	0.000000	0.001617	0.001675	28.0777	22.0372	0.001806	12199.7	4.749508	-176.811	32.025	1.033027	0.022819	0.022599	33.0873	12199.7	0.020784	0.023790	1390.81	72264.7
209	2.000000	1.035290	7.36709e+06	-49089.1	955.819	-29760.6	0.000000	0.000000	7.037181	36.9954	NaN	0.000000	0.001665	0.001664	28.0783	24.53	0.001823	13458.9	8.711005	179.457	37.0248	1.034985	0.024861	0.024557	36.9954	13458.9	0.022799	0.027134	1363.45	74650
209	2.000000	1.037259	7.3671e+06	-49089.1	955.819	-29760.6	0.000000	0.000000	7.039486	45.1417	NaN	0.000000	0.001678	0.001656	28.0786	25.974	0.001748	14855.8	6.065376	-178.957	43.4259	1.036958	0.026831	0.026530	45.1417	14855.8	0.024552	0.030205	1494.5	78096.1
209	2.000000	1.039313	7.3671e+06	-49089.1	955.819	-29760.6	0.000000	0.000000	7.041639	47.5707	NaN	0.000000	0.001617	0.001680	28.0788	28.5283	0.001906	14971.4	4.644044	-178.032	46.8717	1.038918	0.028884	0.028490	47.5707	14971.4	0.026501	0.033803	1407.27	74396.7
209	2.000000	1.041266	7.3671e+06	-49089.1	955.818	-29760.6	0.000000	0.000000	7.043910	55.3086	NaN	0.000000	0.001639	0.001662	28.0785	29.9558	0.001815	16505.3	7.721816	177.816	54.164	1.040979	0.030837	0.030551	55.3086	16505.3	0.028324	0.037341	1481.16	78037.3
209	2.000000	1.043235	7.3671e+06	-49089.1	955.819	-29760.6	0.000000	0.000000	7.046116	61.0667	NaN	0.000000	0.001644	0.001692	28.079	31.3694	0.001815	17284	5.118288	-179.429	59.3571	1.042890	0.032806	0.032461	61.0667	17284	0.030156	0.041068	1486.95	77922.7
209	2.000000	1.045228	7.3671e+06	-49089.1	955.819	-29760.6	0.000000	0.000000	7.048384	67.7303	NaN	0.000000	0.001654	0.001663	28.0784	32.5229	0.001859	17491.5	5.568251	-178.981	66.7548	1.044834	0.034800	0.034405	67.7303	17491.5	0.031896	0.044764	1513.04	75532.5
209	2.000000	1.047239	7.3671e+06	-49089.1	955.82	-29760.6	0.000000	0.000000	7.050735	76.0193	NaN	0.000000	0.001660	0.001680	28.0786	34.3874	0.001684	20415.8	5.399103	179.152	74.0767	1.046873	0.036811	0.036445	76.0193	20415.8	0.034018	0.049484	1536.23	83850.7
209	2.000000	1.049269	7.3671e+06	-49089.1	955.819	-29760.6	0.000000	0.000000	7.053062	83.2303	NaN	0.000000	0.001659	0.001658	28.0785	37.0733	0.001829	20269.5	3.768017	-179.388	83.6868	1.048901	0.038841	0.038472	83.2303	20269.5	0.035761	0.053533	1554.76	80039.9
209	2.000000	1.051262	7.3671e+06	-49089.1	955.818	-29760.6	0.000000	0.000000	7.055288	88.8941	NaN	0.000000	0.001652	0.001659	28.0783	39.204	0.001873	20930.3	3.561574	179.993	87.9517	1.050955	0.040833	0.040527	88.8941	20930.3	0.037648	0.058092	1530.24	79339.9
209	2.000000	1.053213	7.3671e+06	-49089.1	955.819	-29760.6	0.000000	0.000000	7.057501	95.2648	NaN	0.000000	0.001648	0.001663	28.0791	40.7934	0.001865	21878.3	4.244899	179.692	94.4982	1.052955	0.042785	0.042526	95.2648	21878.3	0.039519	0.062791	1517.18	79769.7
209	2.000000	1.055255	7.3671e+06	-49089.1	955.819	-29760.6	0.000000	0.000000	7.059979	105.898	NaN	0.000000	0.001641	0.001672	28.0784	41.9716	0.001758	23881.1	1.618475	-178.563	104.389	1.054961	0.044826	0.044532	105.898	23881.1	0.041500	0.067963	1558.17	83693.4
209	2.000000	1.057215	7.3671e+06	-49089.1	955.819	-29760.6	0.000000	0.000000	7.062412	117.381	NaN	0.000000	0.001634	0.001671	28.0787	43.6082	0.001724	25289.7	5.263910	177.468	115.344	1.056835	0.046787	0.046406	117.381	25289.7	0.043305	0.072850	1611.28	85606
209	2.000000	1.059242	7.3671e+06	-49089.1	955.819	-29760.6	0.000000	0.000000	7.064845	127.271	NaN	0.000000	0.001605	0.001671	28.0787	45.7793	0.001810	25297.9	5.035422	177.663	126.129	1.058783	0.048813	0.048354	127.271	25297.9	0.045040	0.077701	1637.95	82917.2
209	2.000000	1.061270	7.3671e+06	-49089.1	955.82	-29760.6	0.000000	0.000000	7.067193	135.04	NaN	0.000000	0.001582	0.001646	28.0785	48.3327	0.001656	29177.8	4.268967	176.654	133.607	1.060894	0.050841	0.050465	135.04	29177.8	0.047370	0.084459	1598.9	91728.3
209	2.000000	1.063242	7.3671e+06	-49089.1	955.819	-29760.6	0.000000	0.000000	7.069612	145.907	NaN	0.000000	0.001582	0.001663	28.079	49.7877	0.001691	29450.7	2.745592	177.639	145.441	1.062947	0.052813	0.052518	145.907	29450.7	0.049097	0.089644	1627.63	89868.7
209	2.000000	1.065179	7.3671e+06	-49089.1	955.818	-29760.6	0.000000	0.000000	7.071906	154.601	NaN	0.000000	0.001590	0.001680	28.0784	52.5065	0.001747	30062.1	2.670771	177.929	150.723	1.065000	0.054750	0.054572	154.601	30062.1	0.050893	0.095194	1624.07	89020.2
209	2.000000	1.067224	7.3671e+06	-49089.1	955.819	-29760.6	0.000000	0.000000	7.074586	170.027	NaN	0.000000	0.001619	0.001682	28.0784	53.5957	0.001699	31542.1	6.494567	174.123	169.127	1.066885	0.056796	0.056456	170.027	31542.1	0.052753	0.101112	1681.57	90628
209	2.000000	1.069188	7.3671e+06	-49089.1	955.82	-29760.6	0.000000	0.000000	7.076954	179.876	NaN	0.000000	0.001606	0.001707	28.0773	55.9289	0.001813	30851.5	5.785269	176.017	177.286	1.068898	0.058759	0.058470	179.876	30851.5	0.054386	0.106451	1689.75	86392.2
209	2.000000	1.071197	7.3671e+06	-49089.1	955.82	-29760.6	0.000000	0.000000	7.079335	188.914	NaN	0.000000	0.001637	0.001646	28.077	58.1883	0.001769	32895.2	6.957038	173.443	185.548	1.070852	0.060768	0.060424	188.914	32895.2	0.056461	0.113425	1665.53	89238.3
209	2.000000	1.073178	7.3671e+06	-49089.1	955.819	-29760.6	0.000000	0.000000	7.081779	200.181	NaN	0.000000	0.001637	0.001656	28.0776	59.5125	0.001764	33729.1	4.427689	174.977	197.471	1.072899	0.062749	0.062470	200.181	33729.1	0.058298	0.119776	1671.3	89041.4
209	2.000000	1.075202	7.3671e+06	-49089.1	955.819	-29760.6	0.000000	0.000000	7.084097	207.333	NaN	0.000000	0.001668	0.001714	28.0773	61.1846	0.001735	35255.2	0.652474	179.577	205.557	1.074853	0.064773	0.064425	207.333	35255.2	0.060363	0.127112	1631.11	90344.8
209	2.000000	1.077289	7.3671e+06	-49089.1	955.819	-29760.6	0.000000	0.000000	7.086648	218.607	NaN	0.000000	0.001633	0.001682	28.0775	62.3393	0.001827	34126.6	1.534786	179.496	222.44	1.076834	0.066860	0.066406	218.607	34126.6	0.062056	0.133284	1640.16	85403.9
209	2.000000	1.079262	7.3671e+06	-49089.1	955.818	-29760.6	0.000000	0.000000	7.089301	235.141	NaN	0.000000	0.001673	0.001705	28.0773	65.3288	0.001794	36414.3	6.931568	173.634	235.799	1.078773	0.068833	0.068345	235.141	36414.3	0.063990	0.140504	1673.55	88756.6
209	2.000000	1.081210	7.3671e+06	-49089.1	955.818	-29760.6	0.000000	0.000000	7.091744	247.178	NaN	0.000000	0.001648	0.001685	28.0773	67.5314	0.001749	38604.5	4.932363	175.304	245.321	1.080815	0.070782	0.070387	247.178	38604.5	0.065980	0.148119	1668.78	91644.2
209	2.000000	1.083183	7.3671e+06	-49089.1	955.819	-29760.6	0.000000	0.000000	7.094300	261.38	NaN	0.000000	0.001664	0.001686	28.0771	69.0278	0.001834	37643.3	2.811879	176.726	258.961	1.082907	0.072754	0.072479	261.38	37643.3	0.067546	0.154250	1694.51	87568.4
209	2.000000	1.085130	7.3671e+06	-49089.1	955.819	-29760.6	0.000000	0.000000	7.096509	267.757	NaN	0.000000	0.001662	0.001667	28.077	70.336	0.001716	40978.1	0.880850	177.198	262.319	1.084939	0.074701	0.074510	267.757	40978.1	0.069800	0.163276	1639.9	92653.8
209	2.000000	1.087164	7.3671e+06	-49089.1	955.82	-29760.6	0.000000	0.000000	7.099275	285.543	NaN	0.000000	0.001671	0.001680	28.0777	71.3127	0.001759	40544.9	1.592770	177.182	282.339	1.086849	0.076736	0.076421	285.543	40544.9	0.071454	0.170051	1679.16	89829.5
209	2.000000	1.089120	7.3671e+06	-49089.1	955.819	-29760.6	0.000000	0.000000	7.101934	302.633	NaN	0.000000	0.001637	0.001682	28.0776	75.1518	0.001732	43379.1	6.639961	172.089	297.65	1.088797	0.078691	0.078368	302.633	43379.1	0.073459	0.178443	1695.97	93821.9
209	2.000000	1.091286	7.3671e+06	-49089.1	955.818	-29760.6	0.000000	0.000000	7.104710	317.458	NaN	0.000000	0.001642	0.001736	28.0772	78.6006	0.001852	42437.3	8.558959	170.32	318.443	1.090853	0.080858	0.080424	317.458	42437.3	0.075247	0.186086	1705.97	89880
209	2.000000	1.093182	7.3671e+06	-49089.1	955.819	-29760.6	0.000000	0.000000	7.107312	334.634	NaN	0.000000	0.001637	0.001695	28.0772	80.4036	0.001876	42853.2	7.221583	171.625	333.152	1.092687	0.082754	0.082258	334.634	42853.2	0.076897	0.193271	1731.43	89058
209	2.000000	1.095214	7.3671e+06	-49089.1	955.819	-29760.6	0.000000	0.000000	7.109935	349.015	NaN	0.000000	0.001645	0.001676	28.0773	83.1084	0.001882	44159.8	6.396054	171.307	349.823	1.094926	0.084786	0.084497	349.015	44159.8	0.078858	0.201977	1727.99	89773.7
209	2.000000	1.097185	7.3671e+06	-49089.1	955.82	-29760.6	0.000000	0.000000	7.112670	367.593	NaN	0.000000	0.001676	0.001660	28.0776	82.9399	0.001816	45663.4	4.663700	172.952	366.591	1.096860	0.086756	0.086431	367.593	45663.4	0.080718	0.210401	1747.11	90953.1
209	2.000000	1.099120	7.3671e+06	-49089.1	955.82	-29760.6	0.000000	0.000000	7.115139	380.59	NaN	0.000000	0.001630	0.001666	28.0776	84.6548	0.001724	49090.9	2.129162	175.417	374.946	1.098898	0.088691	0.088470	380.59	49090.9	0.082877	0.220377	1726.99	95541.2
209	2.000000	1.101173	7.3671e+06	-49089.1	955.819	-29760.6	0.000000	0.000000	7.117906	397.962	NaN	0.000000	0.001655	0.001714	28.0774	88.1476	0.001811	48670.7	5.065979	172.865	394.647	1.100774	0.090744	0.090346	397.962	48670.7	0.084612	0.228552	1741.23	93014
209	2.000000	1.103238	7.3671e+06	-49089.1	955.82	-29760.6	0.000000	0.000000	7.120453	409.681	NaN	0.000000	0.001650	0.001694	28.0784	90.7755	0.001877	48361.9	7.724276	169.306	410.839	1.102905	0.092809	0.092476	409.681	48361.9	0.086456	0.237395	1725.73	90686.1
209	2.000000	1.105226	7.3671e+06	-49089.1	955.82	-29760.6	0.000000	0.000000	7.123065	424.838	NaN	0.000000	0.001659	0.001686	28.0786	92.3201	0.001844	50061.1	6.357999	171.043	424.206	1.104862	0.094797	0.094434	424.838	50061.1	0.088433	0.247048	1719.66	92020.2
209	2.000000	1.107143	7.3671e+06	-49089.1	955.82	-29760.6	0.000000	0.000000	7.125333	433.377	NaN	0.000000	0.001697	0.001699	28.0788	92.0475	0.001797	51232	2.294870	174.942	430.254	1.106943	0.096715	0.096514	433.377	51232	0.090370	0.256685	1688.36	92387.8
209	2.000000	1.109083	7.3671e+06	-49089.1	955.82	-29760.6	0.000000	0.000000	7.128133	454.292	NaN	0.000000	0.001660	0.001665	28.0786	94.8081	0.001781	53227.7	2.954430	173.647	449.423	1.108916	0.098655	0.098487	454.292	53227.7	0.092254	0.266215	1706.48	94252.9
209	2.000000	1.111163	7.3671e+06	-49089.1	955.819	-29760.6	0.000000	0.000000	7.130874	470.368	NaN	0.000000	0.001661	0.001667	28.0787	96.5838	0.001745	55342.1	3.214401	173.134	467.381	1.110858	0.100735	0.100429	470.368	55342.1	0.094360	0.277068	1697.66	96058.4
209	2.000000	1.113271	7.3671e+06	-49089.1	955.82	-29760.6	0.000000	0.000000	7.133169	474.91	NaN	0.000000	0.001699	0.001653	28.0787	98.3977	0.001685	58396.4	3.454518	172.213	478.613	1.113095	0.102842	0.102666	474.91	58396.4	0.096743	0.289588	1639.95	99144.5
209	2.000000	1.115159	7.3671e+06	-49089.1	955.819	-29760.6	0.000000	0.000000	7.136043	498.882	NaN	0.000000	0.001732	0.001679	28.0789	101.305	0.001840	55064.6	2.811872	173.465	498.157	1.114957	0.104731	0.104528	498.882	55064.6	0.097936	0.295952	1685.69	92477.3
209	2.000000	1.117170	7.3671e+06	-49089.1	955.82	-29760.6	0.000000	0.000000	7.138760	516.063	NaN	0.000000	0.001701	0.001665	28.0787	102.62	0.001933	53081.2	2.650132	174.621	515.128	1.116842	0.106742	0.106413	516.063	53081.2	0.099450	0.304125	1696.88	87940.2
209	2.000000	1.118235	7.3671e+06	-49089.1	955.819	-29760.6	0.000000	0.000000	7.140270	526.903	NaN	0.000000	0.001729	0.001687	28.0789	105.682	0.001876	56331.6	6.841101	169.413	529.022	1.117823	0.107806	0.107394	526.903	56331.6	0.100791	0.311449	1691.78	92221.5