File: remote_trans/data/nanoindenter/0828-1/data/Data_2025-08-06,11h17m57s/2025-07-22_16-23-58_1_713.txt
2025-07-22, 16:23:58, 1
Index	Phase	Displacement	Time	Pos X	Pos Y	Pos Z	Rot A	Rot B	Piezo Z	Force A	Force B	Gripper	Voltage A	Voltage B	Temperature	Amplitude force	Amplitude pos	Stiffness	Phase shift	Phase excitation	Force A raw	Displacement raw	HMax	HMax raw	Real Force	Real Stiffness	Contact Depth	Area	Hardness	Reduced Mod.
[#]	[#]	[um]	[s]	[um]	[um]	[um]	[m°]	[m°]	[um]	[uN]	[uN]	[V]	[V]	[V]	[°C]	[uN]	[um]	[N/m]	[°]	[°]	[uN]	[um]	[um]	[um]	[uN]	[N/m]	[um]	[um^2]	[MPa]	[MPa]
713	1.000000	0.002329	7.37203e+06	-41439.1	1005.82	-29786.1	0.000000	0.000000	6.002789	0.012063	NaN	0.000000	0.001615	0.001714	28.0842	0.107052	0.001083	98.8893	22.1081	-172.729	0.043619	0.001076	-1.119438	-1.120691	0.012063	98.8893	-1.119530	-9.165690E+14	-1.316131E-17	NaN
713	1.000000	0.012392	7.37203e+06	-41439.1	1005.82	-29786.1	0.000000	0.000000	6.012853	0.040820	NaN	0.000000	0.001635	0.001704	28.0829	0.079921	0.001161	68.8155	-21.0915	11.4385	0.077598	0.010953	-1.109375	-1.110815	0.040820	68.8155	-1.109820	-6.790106E+14	-6.011690E-17	NaN
713	1.000000	0.022298	7.37203e+06	-41439.1	1005.82	-29786.1	0.000000	0.000000	6.022756	-0.037203	NaN	0.000000	0.001608	0.001722	28.0829	0.070279	0.001677	41.8957	3.424229	-173.158	-0.002354	0.020986	-1.099470	-1.100781	-0.037203	41.8957	-1.098804	-4.830675E+14	7.701415E-17	NaN
713	1.000000	0.032266	7.37203e+06	-41439.1	1005.82	-29786.1	0.000000	0.000000	6.032722	-0.067460	NaN	0.000000	0.001601	0.001702	28.0828	0.123980	0.001972	62.859	-136.406	15.3327	-0.065067	0.030950	-1.089502	-1.090818	-0.067460	62.859	-1.088697	-3.534412E+14	1.908664E-16	NaN
713	1.000000	0.042289	7.37203e+06	-41439.1	1005.82	-29786.1	0.000000	0.000000	6.042746	-0.047606	NaN	0.000000	0.001607	0.001744	28.0836	0.069189	0.002059	33.607	43.6357	-169.651	-0.043939	0.040964	-1.079479	-1.080803	-0.047606	33.607	-1.078417	-2.571882E+14	1.851026E-16	NaN
713	1.000000	0.052300	7.37203e+06	-41439.1	1005.82	-29786.1	0.000000	0.000000	6.052758	-0.027298	NaN	0.000000	0.001599	0.001720	28.0827	0.109228	0.002024	53.9659	135.84	12.2678	-0.036110	0.050902	-1.069468	-1.070866	-0.027298	53.9659	-1.069088	-1.927258E+14	1.416428E-16	NaN
713	1.000000	0.062289	7.37203e+06	-41439.1	1005.82	-29786.1	0.000000	0.000000	6.062748	-0.024061	NaN	0.000000	0.001609	0.001755	28.0829	0.115218	0.001976	58.3143	-144.626	-165.765	0.031735	0.060960	-1.059478	-1.060807	-0.024061	58.3143	-1.059169	-1.417927E+14	1.696899E-16	NaN
713	1.000000	0.072284	7.37203e+06	-41439.1	1005.82	-29786.1	0.000000	0.000000	6.072744	0.020354	NaN	0.000000	0.001584	0.001700	28.0826	0.113649	0.002023	56.1861	80.1252	15.1626	0.090738	0.071004	-1.049484	-1.050763	0.020354	56.1861	-1.049755	-1.059559E+14	-1.920945E-16	NaN
713	1.000000	0.082300	7.37203e+06	-41439.1	1005.82	-29786.1	0.000000	0.000000	6.082758	-0.043501	NaN	0.000000	0.001659	0.001729	28.0832	0.045422	0.001979	22.9498	44.0456	-168.07	0.038845	0.081038	-1.039467	-1.040730	-0.043501	22.9498	-1.038046	-7.373723E+13	5.899446E-16	NaN
713	1.000000	0.092272	7.37203e+06	-41439.1	1005.82	-29786.1	0.000000	0.000000	6.092734	0.037641	NaN	0.000000	0.001615	0.001699	28.0829	0.047913	0.002072	23.1239	100.382	12.993	0.014239	0.090969	-1.029495	-1.030799	0.037641	23.1239	-1.030716	-5.876397E+13	-6.405454E-16	NaN
713	1.000000	0.102299	7.37203e+06	-41439.1	1005.82	-29786.1	0.000000	0.000000	6.102757	-0.033026	NaN	0.000000	0.001618	0.001717	28.0829	0.042516	0.002033	20.9083	130.289	-165.968	0.013306	0.100999	-1.019469	-1.020769	-0.033026	20.9083	-1.018284	-3.998168E+13	8.260323E-16	NaN
713	1.000000	0.112300	7.37203e+06	-41439.1	1005.82	-29786.1	0.000000	0.000000	6.112761	0.028475	NaN	0.000000	0.001622	0.001733	28.0834	0.086462	0.001967	43.956	109.322	15.1451	0.107514	0.110969	-1.009467	-1.010798	0.028475	43.956	-1.009953	-3.088545E+13	-9.219392E-16	NaN
713	1.000000	0.122288	7.37203e+06	-41439.1	1005.82	-29786.1	0.000000	0.000000	6.122747	-0.018206	NaN	0.000000	0.001612	0.001740	28.0829	0.072378	0.001923	37.633	-110.488	-169.038	-0.055713	0.120973	-0.999480	-1.000794	-0.018206	37.633	-0.999117	-2.207386E+13	8.247630E-16	NaN
713	1.000000	0.132325	7.37203e+06	-41439.1	1005.82	-29786.1	0.000000	0.000000	6.132785	0.017728	NaN	0.000000	0.001648	0.001744	28.0828	0.126258	0.001973	64.0014	91.6408	13.691	0.021170	0.130937	-0.989443	-0.990830	0.017728	64.0014	-0.989650	-1.645896E+13	-1.077127E-15	NaN
713	1.000000	0.142304	7.37203e+06	-41439.1	1005.82	-29786.2	0.000000	0.000000	6.142764	0.019035	NaN	0.000000	0.001631	0.001675	28.0829	0.085825	0.001986	43.2229	10.3578	-170.218	0.026015	0.141007	-0.979464	-0.980761	0.019035	43.2229	-0.979794	-1.212370E+13	-1.570026E-15	NaN
713	1.000000	0.152337	7.37203e+06	-41439.1	1005.82	-29786.2	0.000000	0.000000	6.152798	0.027587	NaN	0.000000	0.001652	0.001711	28.0841	0.069181	0.002039	33.9319	148.943	11.817	0.042500	0.150983	-0.969431	-0.970785	0.027587	33.9319	-0.970040	-8.957901E+12	-3.079672E-15	NaN
713	1.000000	0.162330	7.37203e+06	-41439.1	1005.82	-29786.2	0.000000	0.000000	6.162788	-0.051639	NaN	0.000000	0.001664	0.001691	28.084	0.104439	0.002030	51.4424	-114.285	-167.041	0.044670	0.161045	-0.959437	-0.960722	-0.051639	51.4424	-0.958684	-6.296985E+12	8.200667E-15	NaN
713	1.000000	0.172346	7.37203e+06	-41439.1	1005.82	-29786.2	0.000000	0.000000	6.172801	-0.095414	NaN	0.000000	0.001636	0.001698	28.0842	0.097494	0.001879	51.8732	-121.019	14.0172	-0.054545	0.171000	-0.949422	-0.950767	-0.095414	51.8732	-0.948042	-4.525080E+12	2.108554E-14	NaN
713	1.000000	0.182367	7.37203e+06	-41439.1	1005.82	-29786.2	0.000000	0.000000	6.182827	0.002032	NaN	0.000000	0.001662	0.001693	28.084	0.084833	0.002075	40.8799	119.826	-166.456	0.022077	0.181005	-0.939401	-0.940763	0.002032	40.8799	-0.939438	-3.463802E+12	-5.866257E-16	NaN
713	1.000000	0.192360	7.37203e+06	-41439.1	1005.82	-29786.2	0.000000	0.000000	6.192819	-0.003951	NaN	0.000000	0.001655	0.001697	28.084	0.023048	0.001854	12.431	96.3571	13.3293	-0.018244	0.190952	-0.929408	-0.930816	-0.003951	12.431	-0.929169	-2.517585E+12	1.569168E-15	NaN
713	1.000000	0.202358	7.37203e+06	-41439.1	1005.82	-29786.2	0.000000	0.000000	6.202815	-0.063172	NaN	0.000000	0.001671	0.001717	28.0841	0.125378	0.001952	64.2158	-133.882	-165.448	0.018981	0.201117	-0.919410	-0.920651	-0.063172	64.2158	-0.918672	-1.816658E+12	3.477396E-14	NaN
713	1.000000	0.212336	7.37203e+06	-41439.1	1005.82	-29786.2	0.000000	0.000000	6.212795	-0.015403	NaN	0.000000	0.001643	0.001705	28.084	0.024721	0.001968	12.5641	38.996	12.1993	-0.011534	0.210969	-0.909431	-0.910799	-0.015403	12.5641	-0.908512	-1.324530E+12	1.162926E-14	NaN
713	1.000000	0.222382	7.37203e+06	-41439.1	1005.82	-29786.2	0.000000	0.000000	6.222841	-0.019133	NaN	0.000000	0.001645	0.001735	28.0841	0.033047	0.001887	17.5091	6.473521	-163.834	-0.015713	0.221038	-0.899385	-0.900730	-0.019133	17.5091	-0.898566	-9.720461E+11	1.968348E-14	NaN
713	1.000000	0.232365	7.37203e+06	-41439.1	1005.82	-29786.2	0.000000	0.000000	6.232823	-0.040850	NaN	0.000000	0.001620	0.001710	28.0837	0.093066	0.002030	45.8499	-171.086	13.0373	-0.028247	0.231012	-0.889402	-0.890756	-0.040850	45.8499	-0.888734	-7.158130E+11	5.706779E-14	NaN
713	1.000000	0.242373	7.37203e+06	-41439.1	1005.82	-29786.2	0.000000	0.000000	6.242829	-0.090548	NaN	0.000000	0.001645	0.001686	28.0838	0.014577	0.002056	7.091141	2.588048	-167.209	-0.073879	0.241066	-0.879394	-0.880701	-0.090548	7.091141	-0.869817	-3.971683E+11	2.279837E-13	NaN
713	1.000000	0.252376	7.37203e+06	-41439.1	1005.82	-29786.2	0.000000	0.000000	6.252834	-0.034933	NaN	0.000000	0.001641	0.001654	28.0837	0.124202	0.002120	58.5781	51.5142	16.3059	-0.066710	0.251025	-0.869391	-0.870743	-0.034933	58.5781	-0.868944	-3.865087E+11	9.038027E-14	NaN
713	1.000000	0.262395	7.37203e+06	-41439.1	1005.82	-29786.2	0.000000	0.000000	6.262853	-0.063790	NaN	0.000000	0.001661	0.001694	28.0839	0.048326	0.001945	24.8469	-127.555	-168.928	-0.023201	0.261077	-0.859372	-0.860690	-0.063790	24.8469	-0.857447	-2.701204E+11	2.361534E-13	NaN
713	1.000000	0.272398	7.37203e+06	-41439.1	1005.82	-29786.2	0.000000	0.000000	6.272855	-0.059811	NaN	0.000000	0.001631	0.001677	28.0838	0.026369	0.001963	13.4339	-84.2328	13.972	-0.059866	0.271018	-0.849369	-0.850750	-0.059811	13.4339	-0.846030	-1.892232E+11	3.160869E-13	NaN
713	1.000000	0.282403	7.37203e+06	-41439.1	1005.82	-29786.2	0.000000	0.000000	6.282861	-0.036974	NaN	0.000000	0.001651	0.001704	28.0828	0.097409	0.002059	47.3108	110.616	-166.11	-0.111802	0.281094	-0.839365	-0.840673	-0.036974	47.3108	-0.838778	-1.509187E+11	2.449910E-13	NaN
713	1.000000	0.292401	7.37203e+06	-41439.1	1005.82	-29786.2	0.000000	0.000000	6.292862	0.045658	NaN	0.000000	0.001601	0.001697	28.0829	0.045135	0.002116	21.3293	-139.26	15.9912	0.028806	0.291027	-0.829367	-0.830740	0.045658	21.3293	-0.830972	-1.182941E+11	-3.859724E-13	NaN
713	1.000000	0.302408	7.37203e+06	-41439.1	1005.82	-29786.2	0.000000	0.000000	6.302863	-0.101322	NaN	0.000000	0.001668	0.001695	28.0825	0.088057	0.001960	44.919	-37.8433	-166.819	-0.035628	0.301058	-0.819360	-0.820709	-0.101322	44.919	-0.817668	-7.808810E+10	1.297530E-12	NaN
713	1.000000	0.312383	7.37203e+06	-41439.1	1005.82	-29786.2	0.000000	0.000000	6.312841	-0.046467	NaN	0.000000	0.001658	0.001685	28.0828	0.051227	0.001880	27.2479	48.3108	12.2581	-0.076419	0.311035	-0.809384	-0.810733	-0.046467	27.2479	-0.808105	-5.792449E+10	8.021978E-13	NaN
713	1.000000	0.322398	7.37203e+06	-41439.1	1005.82	-29786.2	0.000000	0.000000	6.322856	-0.051455	NaN	0.000000	0.001653	0.001694	28.0827	0.101775	0.002023	50.3024	90.4751	-166.161	-0.052263	0.321072	-0.799369	-0.800696	-0.051455	50.3024	-0.798602	-4.304162E+10	1.195463E-12	NaN
713	1.000000	0.332414	7.37203e+06	-41439.1	1005.82	-29786.2	0.000000	0.000000	6.332872	-0.018307	NaN	0.000000	0.001666	0.001694	28.0829	0.030952	0.002056	15.0575	56.8193	12.4489	-0.035264	0.331064	-0.789354	-0.790703	-0.018307	15.0575	-0.788442	-3.132741E+10	5.843791E-13	NaN
713	1.000000	0.342389	7.37203e+06	-41439.1	1005.82	-29786.2	0.000000	0.000000	6.342846	-0.064930	NaN	0.000000	0.001650	0.001692	28.0825	0.020271	0.002023	10.0208	32.6259	-165.698	-0.040715	0.341113	-0.779379	-0.780654	-0.064930	10.0208	-0.774519	-2.026488E+10	3.204046E-12	NaN
713	1.000000	0.352423	7.37203e+06	-41439.1	1005.82	-29786.2	0.000000	0.000000	6.352882	0.000579	NaN	0.000000	0.001617	0.001730	28.0828	0.082480	0.001930	42.7366	-15.1379	15.435	-0.036916	0.351090	-0.769345	-0.770677	0.000579	42.7366	-0.769355	-1.723996E+10	-3.358741E-14	NaN
713	1.000000	0.362426	7.37203e+06	-41439.1	1005.82	-29786.2	0.000000	0.000000	6.362884	-0.037185	NaN	0.000000	0.001629	0.001714	28.0825	0.044282	0.002022	21.9007	157.298	-165.781	-0.027434	0.361137	-0.759342	-0.760630	-0.037185	21.9007	-0.758068	-1.210652E+10	3.071483E-12	NaN
713	1.000000	0.372425	7.37203e+06	-41439.1	1005.82	-29786.2	0.000000	0.000000	6.372882	-0.069051	NaN	0.000000	0.001641	0.001708	28.0829	0.054271	0.001987	27.3128	-60.3097	11.52	-0.078268	0.371091	-0.749342	-0.750677	-0.069051	27.3128	-0.747446	-8.678701E+9	7.956328E-12	NaN
713	1.000000	0.382447	7.37203e+06	-41439.1	1005.82	-29786.2	0.000000	0.000000	6.382906	-0.025808	NaN	0.000000	0.001615	0.001695	28.0823	0.098960	0.001928	51.3251	91.0331	-165.028	-0.005242	0.381124	-0.739320	-0.740643	-0.025808	51.3251	-0.738943	-6.647530E+9	3.882330E-12	NaN
713	1.000000	0.392440	7.37203e+06	-41439.1	1005.82	-29786.2	0.000000	0.000000	6.392898	-0.037836	NaN	0.000000	0.001647	0.001666	28.0829	0.106866	0.002104	50.7897	-114.954	13.0138	-0.047510	0.391081	-0.729328	-0.730687	-0.037836	50.7897	-0.728769	-4.830912E+9	7.832082E-12	NaN
713	1.000000	0.402438	7.37203e+06	-41439.1	1005.82	-29786.2	0.000000	0.000000	6.402895	-0.068012	NaN	0.000000	0.001629	0.001667	28.0825	0.163251	0.002030	80.4262	162.425	-168.155	-0.018759	0.401136	-0.719329	-0.720631	-0.068012	80.4262	-0.718695	-3.521081E+9	1.931571E-11	NaN
713	1.000000	0.412434	7.37203e+06	-41439.1	1005.82	-29786.2	0.000000	0.000000	6.412896	0.067168	NaN	0.000000	0.001615	0.001723	28.0826	0.082197	0.002008	40.9256	157.006	11.012	0.084401	0.411095	-0.709334	-0.710673	0.067168	40.9256	-0.710565	-2.727443E+9	-2.462689E-11	NaN
713	1.000000	0.422461	7.37203e+06	-41439.1	1005.82	-29786.2	0.000000	0.000000	6.422922	0.042131	NaN	0.000000	0.001588	0.001708	28.0835	0.050736	0.001969	25.762	-61.1403	-167.198	0.009847	0.421107	-0.699306	-0.700660	0.042131	25.762	-0.700533	-1.989802E+9	-2.117355E-11	NaN
713	1.000000	0.432467	7.37203e+06	-41439.1	1005.82	-29786.2	0.000000	0.000000	6.432924	-0.063451	NaN	0.000000	0.001609	0.001716	28.0837	0.045120	0.002024	22.2873	118.698	15.6985	-0.055760	0.431095	-0.689300	-0.690673	-0.063451	22.2873	-0.687165	-1.306682E+9	4.855890E-11	NaN
713	1.000000	0.442454	7.37203e+06	-41439.1	1005.82	-29786.2	0.000000	0.000000	6.442914	0.014422	NaN	0.000000	0.001597	0.001724	28.084	0.040191	0.002111	19.0416	-18.154	-166.781	0.018386	0.441171	-0.679314	-0.680597	0.014422	19.0416	-0.679882	-1.038936E+9	-1.388113E-11	NaN
713	1.000000	0.452450	7.37203e+06	-41439.1	1005.82	-29786.2	0.000000	0.000000	6.452910	0.007345	NaN	0.000000	0.001566	0.001664	28.0837	0.078997	0.001871	42.2329	-27.3885	15.6953	-0.030451	0.451080	-0.669318	-0.670688	0.007345	42.2329	-0.669448	-7.478912E+8	-9.820778E-12	NaN
713	1.000000	0.462478	7.37203e+06	-41439.1	1005.82	-29786.2	0.000000	0.000000	6.462935	-0.068000	NaN	0.000000	0.001571	0.001698	28.0839	0.025137	0.001995	12.6002	71.4561	-163.558	-0.059673	0.461174	-0.659290	-0.660594	-0.068000	12.6002	-0.655242	-4.778441E+8	1.423058E-10	NaN
713	1.000000	0.472483	7.37203e+06	-41439.1	1005.82	-29786.2	0.000000	0.000000	6.472943	0.020584	NaN	0.000000	0.001582	0.001724	28.0835	0.028081	0.002010	13.973	20.5445	14.476	0.041438	0.471133	-0.649285	-0.650634	0.020584	13.973	-0.650390	-4.099946E+8	-5.020528E-11	NaN
713	1.000000	0.482454	7.37203e+06	-41439.1	1005.82	-29786.2	0.000000	0.000000	6.482913	-0.009178	NaN	0.000000	0.001547	0.001705	28.0838	0.030319	0.001939	15.6381	-8.650011	-166.548	0.055357	0.481130	-0.639314	-0.640637	-0.009178	15.6381	-0.638874	-2.849926E+8	3.220370E-11	NaN
713	1.000000	0.492464	7.37203e+06	-41439.1	1005.82	-29786.2	0.000000	0.000000	6.492921	-0.070331	NaN	0.000000	0.001573	0.001701	28.0836	0.054755	0.002068	26.4723	-81.6771	10.3969	-0.077629	0.491154	-0.629304	-0.630613	-0.070331	26.4723	-0.627311	-1.977393E+8	3.556750E-10	NaN
713	1.000000	0.502463	7.37203e+06	-41439.1	1005.82	-29786.2	0.000000	0.000000	6.502920	-0.071644	NaN	0.000000	0.001596	0.001712	28.0836	0.013344	0.002022	6.600232	-28.3658	-162.908	-0.099717	0.501156	-0.619305	-0.620611	-0.071644	6.600232	-0.611163	-1.186098E+8	6.040342E-10	NaN
713	1.000000	0.512489	7.37203e+06	-41439.1	1005.82	-29786.2	0.000000	0.000000	6.512948	-0.006921	NaN	0.000000	0.001567	0.001711	28.0835	0.066814	0.001972	33.8892	-92.7707	15.4295	0.027804	0.511136	-0.609279	-0.610631	-0.006921	33.8892	-0.609125	-1.111938E+8	6.223890E-11	NaN
713	1.000000	0.522495	7.37203e+06	-41439.1	1005.82	-29786.2	0.000000	0.000000	6.522955	0.006221	NaN	0.000000	0.001607	0.001719	28.0836	0.105983	0.002054	51.5988	-31.2338	-164.418	-0.019704	0.521201	-0.599273	-0.600567	0.006221	51.5988	-0.599363	-8.159964E+7	-7.624261E-11	NaN
713	1.000000	0.532511	7.37203e+06	-41439.1	1005.82	-29786.2	0.000000	0.000000	6.532968	-0.048770	NaN	0.000000	0.001644	0.001718	28.0835	0.047988	0.002096	22.895	-81.4394	13.1432	0.023388	0.531142	-0.589257	-0.590625	-0.048770	22.895	-0.587659	-5.628505E+7	8.664883E-10	NaN
713	1.000000	0.542511	7.37203e+06	-41439.1	1005.82	-29786.2	0.000000	0.000000	6.542971	0.025650	NaN	0.000000	0.001642	0.001685	28.0838	0.029909	0.002024	14.7799	131.68	-166.184	0.009597	0.541200	-0.579257	-0.580568	0.025650	14.7799	-0.580558	-4.491932E+7	-5.710131E-10	NaN
713	1.000000	0.552480	7.37203e+06	-41439.1	1005.82	-29786.2	0.000000	0.000000	6.552941	0.033683	NaN	0.000000	0.001607	0.001744	28.0836	0.028721	0.001971	14.5731	2.832661	15.6649	-0.027149	0.551105	-0.569288	-0.570663	0.033683	14.5731	-0.571021	-3.316996E+7	-1.015479E-9	NaN
713	1.000000	0.562532	7.37203e+06	-41439.1	1005.82	-29786.2	0.000000	0.000000	6.562991	-0.003280	NaN	0.000000	0.001658	0.001730	28.0827	0.062997	0.002126	29.6295	-157.731	-162.68	0.009106	0.561182	-0.559236	-0.560585	-0.003280	29.6295	-0.559153	-2.273290E+7	1.442830E-10	NaN
713	1.000000	0.572514	7.37203e+06	-41439.1	1005.82	-29786.2	0.000000	0.000000	6.572973	-0.004747	NaN	0.000000	0.001688	0.001680	28.0824	0.049001	0.001799	27.2303	-14.0759	13.8449	-0.042534	0.571190	-0.549254	-0.550577	-0.004747	27.2303	-0.549123	-1.651220E+7	2.874947E-10	NaN
713	1.000000	0.582535	7.37203e+06	-41439.1	1005.82	-29786.2	0.000000	0.000000	6.582998	0.082099	NaN	0.000000	0.001639	0.001729	28.083	0.040532	0.001974	20.5296	6.124763	-165.139	0.063397	0.581215	-0.539233	-0.540553	0.082099	20.5296	-0.542232	-1.325282E+7	-6.194868E-9	NaN
713	1.000000	0.592497	7.37203e+06	-41439.1	1005.82	-29786.2	0.000000	0.000000	6.592956	-0.014170	NaN	0.000000	0.001699	0.001708	28.0829	0.037451	0.001853	20.2146	-111.736	15.6511	-0.059886	0.591191	-0.529271	-0.530576	-0.014170	20.2146	-0.528745	-8.61287e+06	1.645191E-9	NaN
713	1.000000	0.602513	7.37203e+06	-41439.1	1005.82	-29786.2	0.000000	0.000000	6.602970	-0.069301	NaN	0.000000	0.001678	0.001679	28.0834	0.021111	0.002138	9.871739	179.681	-163.571	-0.087190	0.601214	-0.519255	-0.520554	-0.069301	9.871739	-0.513990	-5.36994e+06	1.290536E-8	NaN
713	1.000000	0.612503	7.37203e+06	-41439.1	1005.82	-29786.2	0.000000	0.000000	6.612962	-0.014257	NaN	0.000000	0.001698	0.001703	28.0827	0.082238	0.002017	40.7669	-80.7388	14.0727	-0.025239	0.611157	-0.509264	-0.510611	-0.014257	40.7669	-0.509002	-4.5763e+06	3.115466E-9	NaN
713	1.000000	0.622531	7.37203e+06	-41439.1	1005.82	-29786.2	0.000000	0.000000	6.622989	-0.042520	NaN	0.000000	0.001614	0.001697	28.0829	0.108056	0.001987	54.3806	-51.29	-166.05	-0.009853	0.621172	-0.499237	-0.500596	-0.042520	54.3806	-0.498650	-3.28238e+06	1.295401E-8	NaN
713	1.000000	0.632503	7.37203e+06	-41439.1	1005.82	-29786.2	0.000000	0.000000	6.632962	-0.037355	NaN	0.000000	0.001597	0.001694	28.0828	0.050786	0.001957	25.9561	51.594	15.455	-0.015388	0.631199	-0.489264	-0.490569	-0.037355	25.9561	-0.488185	-2.34435e+06	1.593406E-8	NaN
713	1.000000	0.642534	7.37203e+06	-41439.1	1005.82	-29786.2	0.000000	0.000000	6.642992	-0.027661	NaN	0.000000	0.001592	0.001708	28.0827	0.023709	0.002140	11.0808	-43.8738	-164.087	-0.050603	0.641219	-0.479234	-0.480548	-0.027661	11.0808	-0.477362	-1.65418e+06	1.672199E-8	NaN
713	1.000000	0.652566	7.37203e+06	-41439.1	1005.82	-29786.2	0.000000	0.000000	6.653023	-0.058922	NaN	0.000000	0.001617	0.001709	28.0826	0.014087	0.002066	6.819589	123.883	13.9819	-0.034899	0.651203	-0.469202	-0.470565	-0.058922	6.819589	-0.462722	-1.03099e+06	5.715057E-8	NaN
713	1.000000	0.662538	7.37203e+06	-41439.1	1005.82	-29786.2	0.000000	0.000000	6.662997	-0.014616	NaN	0.000000	0.001599	0.001710	28.0828	0.112447	0.002084	53.9579	-106.832	-169.978	-0.008339	0.661254	-0.459230	-0.460514	-0.014616	53.9579	-0.459027	-914825	1.597705E-8	NaN
713	1.000000	0.672563	7.37203e+06	-41439.1	1005.82	-29786.2	0.000000	0.000000	6.673017	-0.120709	NaN	0.000000	0.001625	0.001722	28.0828	0.152671	0.001993	76.6066	-158.666	16.5896	-0.042869	0.671175	-0.449205	-0.450592	-0.120709	76.6066	-0.448023	-640469	1.884700E-7	NaN
713	1.000000	0.682553	7.37203e+06	-41439.1	1005.82	-29786.2	0.000000	0.000000	6.683012	-0.030816	NaN	0.000000	0.001591	0.001693	28.0826	0.076743	0.001964	39.0704	85.3092	-166.458	-0.045357	0.681210	-0.439214	-0.440557	-0.030816	39.0704	-0.438623	-471981	6.529018E-8	NaN
713	1.000000	0.692542	7.37203e+06	-41439.1	1005.82	-29786.2	0.000000	0.000000	6.692998	-0.076113	NaN	0.000000	0.001593	0.001709	28.084	0.078434	0.001921	40.8299	152.555	13.2797	-0.077046	0.691143	-0.429226	-0.430625	-0.076113	40.8299	-0.427828	-332139	2.291591E-7	NaN
713	1.000000	0.702527	7.37203e+06	-41439.1	1005.82	-29786.2	0.000000	0.000000	6.702989	0.064903	NaN	0.000000	0.001637	0.001718	28.0842	0.058167	0.001990	29.2274	-123.698	-168.411	0.024735	0.701222	-0.419241	-0.420546	0.064903	29.2274	-0.420906	-265010	-2.449060E-7	NaN
713	1.000000	0.712583	7.37203e+06	-41439.1	1005.82	-29786.2	0.000000	0.000000	6.713042	-0.013114	NaN	0.000000	0.001645	0.001712	28.0837	0.080918	0.001930	41.9307	-149.236	12.2314	0.007800	0.711190	-0.409184	-0.410578	-0.013114	41.9307	-0.408950	-179253	7.315909E-8	NaN
713	1.000000	0.722567	7.37203e+06	-41439.1	1005.82	-29786.2	0.000000	0.000000	6.723027	-0.003762	NaN	0.000000	0.001616	0.001635	28.0838	0.070978	0.002063	34.4051	27.2414	-167.795	0.011554	0.721259	-0.399200	-0.400509	-0.003762	34.4051	-0.399118	-129843	2.897229E-8	NaN
713	1.000000	0.732571	7.37203e+06	-41439.1	1005.82	-29786.2	0.000000	0.000000	6.733032	0.026779	NaN	0.000000	0.001607	0.001611	28.0839	0.174616	0.002084	83.7807	-59.3051	14.6654	0.045279	0.731192	-0.389196	-0.390575	0.026779	83.7807	-0.389436	-94427.4	-2.835911E-7	NaN
713	1.000000	0.742577	7.37203e+06	-41439.1	1005.82	-29786.2	0.000000	0.000000	6.743035	-0.031986	NaN	0.000000	0.001623	0.001601	28.0836	0.087498	0.001993	43.9103	26.9154	-161.636	0.075852	0.741217	-0.379191	-0.380551	-0.031986	43.9103	-0.378645	-66135.2	4.836445E-7	NaN
713	1.000000	0.752547	7.37203e+06	-41439.1	1005.82	-29786.2	0.000000	0.000000	6.753008	0.037907	NaN	0.000000	0.001622	0.001624	28.0838	0.071161	0.001874	37.9672	92.452	12.2798	5.193291E-5	0.751263	-0.369221	-0.370505	0.037907	37.9672	-0.369970	-49624	-7.638786E-7	NaN
713	1.000000	0.762581	7.37203e+06	-41439.1	1005.82	-29786.2	0.000000	0.000000	6.763040	-0.013703	NaN	0.000000	0.001638	0.001631	28.0841	0.054521	0.002061	26.4596	-148.649	-165.153	-0.024238	0.761290	-0.359187	-0.360478	-0.013703	26.4596	-0.358798	-34234.8	4.002643E-7	NaN
713	1.000000	0.772582	7.37203e+06	-41439.1	1005.82	-29786.2	0.000000	0.000000	6.773041	-0.032265	NaN	0.000000	0.001588	0.001671	28.0844	0.102065	0.002035	50.1434	105.042	15.0455	-0.069748	0.771262	-0.349185	-0.350506	-0.032265	50.1434	-0.348702	-24443.6	1.319997E-6	NaN
713	1.000000	0.782598	7.37203e+06	-41439.1	1005.82	-29786.2	0.000000	0.000000	6.783058	0.017831	NaN	0.000000	0.001610	0.001643	28.084	0.020283	0.002119	9.570550	169.674	-165.229	0.056281	0.781314	-0.339170	-0.340453	0.017831	9.570550	-0.340567	-18613.1	-9.579972E-7	NaN
713	1.000000	0.792599	7.37203e+06	-41439.1	1005.82	-29786.2	0.000000	0.000000	6.793060	0.032197	NaN	0.000000	0.001583	0.001649	28.0841	0.076345	0.002067	36.9275	142.765	9.775158	-0.024510	0.791227	-0.329168	-0.330541	0.032197	36.9275	-0.329822	-12967.2	-2.482962E-6	NaN
713	1.000000	0.802614	7.37203e+06	-41439.1	1005.82	-29786.2	0.000000	0.000000	6.803071	-0.070386	NaN	0.000000	0.001584	0.001650	28.0841	0.072619	0.001961	37.0228	-136.634	-164.899	-0.053029	0.801305	-0.319153	-0.320463	-0.070386	37.0228	-0.317727	-8613.21	8.171882E-6	NaN
713	1.000000	0.812641	7.37203e+06	-41439.1	1005.82	-29786.2	0.000000	0.000000	6.813102	0.018734	NaN	0.000000	0.001616	0.001620	28.0839	0.009566	0.001970	4.855318	121.439	12.7347	0.063694	0.811266	-0.309126	-0.310502	0.018734	4.855318	-0.312020	-7094.66	-2.640513E-6	NaN
713	1.000000	0.822630	7.37203e+06	-41439.1	1005.82	-29786.2	0.000000	0.000000	6.823090	-0.000320	NaN	0.000000	0.001610	0.001667	28.0841	0.095172	0.001986	47.9137	179.517	-163.638	-0.052773	0.821312	-0.299137	-0.300455	-0.000320	47.9137	-0.299132	-4567.9	6.999626E-8	NaN
713	1.000000	0.832631	7.37203e+06	-41439.1	1005.82	-29786.2	0.000000	0.000000	6.833092	0.052070	NaN	0.000000	0.001619	0.001653	28.0829	0.048364	0.002010	24.0644	77.2524	13.7307	0.052749	0.831292	-0.289137	-0.290476	0.052070	24.0644	-0.290760	-3425.17	-1.520220E-5	NaN
713	1.000000	0.842611	7.37203e+06	-41439.1	1005.82	-29786.2	0.000000	0.000000	6.843070	-0.020580	NaN	0.000000	0.001629	0.001669	28.083	0.040983	0.002012	20.3721	170.427	-165.146	-0.068800	0.841295	-0.279156	-0.280472	-0.020580	20.3721	-0.278399	-2232.53	9.218374E-6	NaN
713	1.000000	0.852614	7.37203e+06	-41439.1	1005.82	-29786.2	0.000000	0.000000	6.853073	-0.007709	NaN	0.000000	0.001571	0.001638	28.083	0.011992	0.002025	5.922519	4.113658	10.6979	-0.000962	0.851243	-0.269153	-0.270525	-0.007709	5.922519	-0.268177	-1562.49	4.933934E-6	NaN
713	1.000000	0.862621	7.37203e+06	-41439.1	1005.82	-29786.2	0.000000	0.000000	6.863082	0.033539	NaN	0.000000	0.001611	0.001649	28.0828	0.077005	0.001994	38.6108	-2.498047	-163.216	0.038977	0.861346	-0.259147	-0.260421	0.033539	38.6108	-0.259798	-1163.66	-2.882166E-5	NaN
713	1.000000	0.872663	7.37203e+06	-41439.1	1005.82	-29786.2	0.000000	0.000000	6.873122	-0.021922	NaN	0.000000	0.001606	0.001625	28.083	0.038774	0.001975	19.6276	-141.369	11.777	-0.033336	0.871271	-0.249105	-0.250496	-0.021922	19.6276	-0.248267	-772.935	2.836214E-5	NaN
713	1.000000	0.882649	7.37203e+06	-41439.1	1005.82	-29786.2	0.000000	0.000000	6.883107	-0.026315	NaN	0.000000	0.001586	0.001660	28.0828	0.036076	0.001944	18.5572	-61.962	-164.914	0.031145	0.881316	-0.239119	-0.240452	-0.026315	18.5572	-0.238055	-535.978	4.909670E-5	NaN
713	1.000000	0.892651	7.37203e+06	-41439.1	1005.82	-29786.2	0.000000	0.000000	6.893108	-0.055397	NaN	0.000000	0.001586	0.001656	28.0832	0.103974	0.001984	52.3942	-43.1433	11.085	-0.046596	0.891298	-0.229117	-0.230469	-0.055397	52.3942	-0.228324	-376.723	0.000147	NaN
713	1.000000	0.902675	7.37203e+06	-41439.1	1005.82	-29786.2	0.000000	0.000000	6.903129	-0.124082	NaN	0.000000	0.001581	0.001694	28.0826	0.063504	0.002003	31.7116	25.0149	-162.918	-0.191928	0.901355	-0.219093	-0.220413	-0.124082	31.7116	-0.216158	-241.061	0.000515	NaN
713	1.000000	0.912641	7.37203e+06	-41439.1	1005.82	-29786.2	0.000000	0.000000	6.913102	0.029707	NaN	0.000000	0.001590	0.001649	28.0832	0.126741	0.001939	65.3765	178.696	14.8188	0.060375	0.911307	-0.209126	-0.210461	0.029707	65.3765	-0.209467	-188.011	-0.000158	NaN
713	1.000000	0.922652	7.37203e+06	-41439.1	1005.82	-29786.2	0.000000	0.000000	6.923115	0.064083	NaN	0.000000	0.001590	0.001693	28.0828	0.048406	0.002014	24.0346	65.7964	-163.888	-0.003761	0.921354	-0.199115	-0.200413	0.064083	24.0346	-0.201115	-137.405	-0.000466	NaN
713	1.000000	0.932656	7.37203e+06	-41439.1	1005.82	-29786.2	0.000000	0.000000	6.933117	0.019098	NaN	0.000000	0.001587	0.001675	28.083	0.121210	0.002084	58.1655	87.1106	13.5394	0.029305	0.931274	-0.189111	-0.190494	0.019098	58.1655	-0.189358	-87.7591	-0.000218	NaN
713	1.000000	0.942639	7.37203e+06	-41439.1	1005.82	-29786.2	0.000000	0.000000	6.943097	-0.037861	NaN	0.000000	0.001649	0.001670	28.0829	0.046588	0.001958	23.7904	-3.015998	-168.09	-0.014997	0.941358	-0.179129	-0.180409	-0.037861	23.7904	-0.177935	-56.2692	0.000673	NaN
713	1.000000	0.952666	7.37203e+06	-41439.1	1005.82	-29786.2	0.000000	0.000000	6.953124	-0.036700	NaN	0.000000	0.001672	0.001648	28.0831	0.029299	0.002054	14.2626	165.936	13.1414	0.000443	0.951312	-0.169101	-0.170455	-0.036700	14.2626	-0.167172	-36.6729	0.001001	NaN
713	1.000000	0.962699	7.37203e+06	-41439.1	1005.82	-29786.2	0.000000	0.000000	6.963159	0.008246	NaN	0.000000	0.001651	0.001675	28.0831	0.134232	0.001965	68.313	-58.242	-166.476	0.068160	0.961364	-0.159069	-0.160403	0.008246	68.313	-0.159159	-26.4871	-0.000311	NaN
713	1.000000	0.972667	7.37203e+06	-41439.1	1005.82	-29786.2	0.000000	0.000000	6.973125	-0.032435	NaN	0.000000	0.001632	0.001669	28.0839	0.081351	0.002038	39.9212	125.377	12.331	-0.070510	0.971298	-0.149100	-0.150469	-0.032435	39.9212	-0.148491	-16.9992	0.001908	NaN
713	1.000000	0.982673	7.37203e+06	-41439.1	1005.82	-29786.2	0.000000	0.000000	6.983133	0.020087	NaN	0.000000	0.001633	0.001678	28.0838	0.134180	0.002049	65.4816	-123.767	-167.637	0.054270	0.981370	-0.139095	-0.140397	0.020087	65.4816	-0.139325	-11.4887	-0.001748	NaN
713	1.000000	0.992668	7.37203e+06	-41439.1	1005.82	-29786.2	0.000000	0.000000	6.993125	-0.066435	NaN	0.000000	0.001599	0.001674	28.084	0.031048	0.002051	15.1343	82.3065	14.7513	-0.039812	0.991338	-0.129100	-0.130430	-0.066435	15.1343	-0.125807	-6.308773	0.010531	NaN
713	1.000000	1.002674	7.37203e+06	-41439.1	1005.82	-29786.2	0.000000	0.000000	7.003129	-0.113171	NaN	0.000000	0.001613	0.001659	28.0839	0.022092	0.002009	10.9961	-39.7226	-165.986	-0.054898	1.001341	-0.119093	-0.120426	-0.113171	10.9961	-0.111375	-3.211915	0.035235	NaN
713	1.000000	1.012686	7.37203e+06	-41439.1	1005.82	-29786.2	0.000000	0.000000	7.013144	-0.048637	NaN	0.000000	0.001596	0.001674	28.0837	0.154035	0.001987	77.5053	11.4802	13.0015	-0.044641	1.011322	-0.109082	-0.110446	-0.048637	77.5053	-0.108611	-2.808596	0.017317	NaN
713	1.000000	1.022674	7.37203e+06	-41439.1	1005.82	-29786.2	0.000000	0.000000	7.023132	-0.035278	NaN	0.000000	0.001567	0.001671	28.0838	0.098200	0.002043	48.0561	108.795	-168.692	-0.035710	1.021393	-0.099093	-0.100375	-0.035278	48.0561	-0.098543	-1.695694	0.020804	NaN
713	1.000000	1.032719	7.37203e+06	-41439.1	1005.82	-29786.2	0.000000	0.000000	7.033178	-0.017857	NaN	0.000000	0.001580	0.001695	28.0839	0.076482	0.001972	38.7828	-92.6142	13.5041	-0.015481	1.031327	-0.089048	-0.090441	-0.017857	38.7828	-0.088703	-1.007542	0.017724	NaN
713	1.000000	1.042703	7.37203e+06	-41439.1	1005.82	-29786.2	0.000000	0.000000	7.043161	-0.039102	NaN	0.000000	0.001548	0.001688	28.0838	0.032540	0.001919	16.9599	-21.5362	-167.064	-0.045452	1.041360	-0.079065	-0.080408	-0.039102	16.9599	-0.077336	-0.530231	0.073745	NaN
713	1.000000	1.052692	7.37203e+06	-41439.1	1005.82	-29786.2	0.000000	0.000000	7.053152	0.002813	NaN	0.000000	0.001547	0.001687	28.0836	0.141050	0.001956	72.0966	-145.192	13.0672	-0.010221	1.051321	-0.069075	-0.070446	0.002813	72.0966	-0.069105	-0.322722	-0.008716	NaN
713	1.000000	1.062703	7.37203e+06	-41439.1	1005.82	-29786.2	0.000000	0.000000	7.063159	-0.089077	NaN	0.000000	0.001567	0.001659	28.084	0.100560	0.001990	50.5342	150.599	-166.914	-0.036037	1.061426	-0.059064	-0.060342	-0.089077	50.5342	-0.057742	-0.154976	0.574779	NaN
713	1.000000	1.072725	7.37203e+06	-41439.1	1005.82	-29786.2	0.000000	0.000000	7.073183	-0.033261	NaN	0.000000	0.001584	0.001662	28.0836	0.089382	0.002054	43.5198	-54.9388	13.6468	-0.024977	1.071336	-0.049042	-0.050432	-0.033261	43.5198	-0.048469	-0.082002	0.405612	NaN
713	1.000000	1.082728	7.37203e+06	-41439.1	1005.82	-29786.2	0.000000	0.000000	7.083187	-0.022858	NaN	0.000000	0.001523	0.001659	28.0837	0.137143	0.002096	65.4378	130.858	-165.19	0.033236	1.081426	-0.039039	-0.040341	-0.022858	65.4378	-0.038778	-0.041525	0.550466	NaN
713	1.000000	1.092726	7.37203e+06	-41439.1	1005.82	-29786.2	0.000000	0.000000	7.093185	-0.015436	NaN	0.000000	0.001565	0.001680	28.0838	0.015617	0.001950	8.008496	99.2857	13.7155	-0.001333	1.091361	-0.029042	-0.030406	-0.015436	8.008496	-0.027596	-0.019771	0.780727	NaN
713	1.000000	1.102715	7.37203e+06	-41439.1	1005.82	-29786.2	0.000000	0.000000	7.103174	-0.020702	NaN	0.000000	0.001556	0.001686	28.0828	0.125798	0.002057	61.1465	120.631	-163.515	-0.011830	1.101432	-0.019053	-0.020336	-0.020702	61.1465	-0.018799	-0.011705	1.768714	NaN
713	1.000000	1.112696	7.37203e+06	-41439.1	1005.82	-29786.2	0.000000	0.000000	7.113158	0.053289	NaN	0.000000	0.001540	0.001687	28.0825	0.024575	0.001863	13.1934	34.8723	16.6141	-0.044118	1.111416	-0.009072	-0.010351	0.053289	13.1934	-0.012101	-0.007586	-7.024311	NaN
713	1.000000	1.122714	7.37203e+06	-41439.1	1005.82	-29786.2	0.000000	0.000000	7.123424	6.103597	NaN	0.000000	0.001544	0.001650	28.0828	6.791109	0.001846	3678.47	13.1577	-172.542	4.789359	1.121397	0.000946	-0.000371	6.103597	3678.47	-0.000298	-0.000222	-27547.4	NaN
713	2.000000	1.126816	7.37203e+06	-41439.1	1005.82	-29786.2	0.000000	0.000000	7.127670	9.601980	NaN	0.000000	0.001573	0.001688	28.0826	10.2525	0.001643	6241.1	4.870361	8.880088	8.621288	1.126477	0.005048	0.004709	9.601980	6241.1	0.003894	0.003146	3051.77	101655
713	2.000000	1.129255	7.37203e+06	-41439.1	1005.82	-29786.2	0.000000	0.000000	7.130291	14.0263	NaN	0.000000	0.001568	0.001690	28.0837	12.8444	0.001545	8314.1	7.597615	-175.61	13.7414	1.128939	0.007487	0.007172	14.0263	8314.1	0.006222	0.005277	2658.22	104571
713	2.000000	1.131768	7.37203e+06	-41439.1	1005.82	-29786.2	0.000000	0.000000	7.132939	17.309	NaN	0.000000	0.001543	0.001676	28.0826	16.4944	0.001880	8775.84	9.315405	1.836675	16.1486	1.131397	0.010000	0.009630	17.309	8775.84	0.008521	0.007584	2282.38	92070.4
713	2.000000	1.134237	7.37203e+06	-41439.1	1005.82	-29786.2	0.000000	0.000000	7.135656	23.3563	NaN	0.000000	0.001566	0.001665	28.0835	19.4628	0.001771	10987.7	7.787242	-179.37	22.2056	1.133888	0.012469	0.012120	23.3563	10987.7	0.010875	0.010170	2296.54	99544.5
713	2.000000	1.136770	7.37203e+06	-41439.1	1005.82	-29786.2	0.000000	0.000000	7.138458	29.8784	NaN	0.000000	0.001540	0.001662	28.0827	21.3428	0.001782	11980	5.985689	2.030891	28.8238	1.136368	0.015002	0.014601	29.8784	11980	0.013132	0.012874	2320.78	96464.9
713	2.000000	1.139239	7.37203e+06	-41439.1	1005.82	-29786.2	0.000000	0.000000	7.141201	36.544	NaN	0.000000	0.001561	0.001673	28.0839	24.501	0.001879	13040.4	7.259402	-179.362	35.9085	1.138909	0.017472	0.017141	36.544	13040.4	0.015370	0.015782	2315.61	94839.5
713	2.000000	1.141751	7.37203e+06	-41439.1	1005.82	-29786.2	0.000000	0.000000	7.144020	44.0257	NaN	0.000000	0.001561	0.001646	28.0829	26.9635	0.001865	14461.3	5.788659	1.468700	42.7047	1.141410	0.019984	0.019643	44.0257	14461.3	0.017701	0.019057	2310.2	95709
713	2.000000	1.144168	7.37203e+06	-41439.1	1005.82	-29786.2	0.000000	0.000000	7.146675	49.7994	NaN	0.000000	0.001531	0.001674	28.0842	29.2189	0.001695	17233.5	6.204534	177.689	47.3888	1.143925	0.022401	0.022157	49.7994	17233.5	0.020233	0.022910	2173.66	104023
713	2.000000	1.146748	7.37203e+06	-41439.1	1005.82	-29786.2	0.000000	0.000000	7.149800	63.0801	NaN	0.000000	0.001529	0.001660	28.0829	30.8162	0.001664	18523.2	6.011529	-1.579507	61.1068	1.146323	0.024981	0.024556	63.0801	18523.2	0.022426	0.026500	2380.42	103961
713	2.000000	1.149174	7.37203e+06	-41439.1	1005.82	-29786.2	0.000000	0.000000	7.152463	68.8459	NaN	0.000000	0.001526	0.001613	28.0843	33.3395	0.001621	20570.5	3.216605	179.059	66.9453	1.148907	0.027407	0.027139	68.8459	20570.5	0.024897	0.030828	2233.23	107040
713	2.000000	1.151651	7.37203e+06	-41439.1	1005.82	-29786.2	0.000000	0.000000	7.155277	77.0383	NaN	0.000000	0.001568	0.001631	28.0826	37.2605	0.001840	20253.3	5.642367	-2.903349	74.0091	1.151344	0.029884	0.029576	77.0383	20253.3	0.027031	0.034814	2212.86	99172.6
713	2.000000	1.154177	7.37203e+06	-41439.1	1005.82	-29786.2	0.000000	0.000000	7.158207	86.8544	NaN	0.000000	0.001561	0.001669	28.0842	40.6128	0.001756	23128.7	7.182828	174.219	84.3843	1.153902	0.032410	0.032134	86.8544	23128.7	0.029593	0.039905	2176.51	105782
713	2.000000	1.156674	7.37203e+06	-41439.1	1005.82	-29786.2	0.000000	0.000000	7.161143	97.5626	NaN	0.000000	0.001559	0.001691	28.0842	42.3985	0.001916	22126.9	7.547110	-4.214201	92.725	1.156350	0.034907	0.034583	97.5626	22126.9	0.031600	0.044125	2211.07	96239.4
713	2.000000	1.159189	7.37203e+06	-41439.1	1005.82	-29786.2	0.000000	0.000000	7.163949	104.62	NaN	0.000000	0.001543	0.001690	28.0851	44.603	0.001879	23738.3	1.908527	179.441	103.589	1.158954	0.037422	0.037186	104.62	23738.3	0.034116	0.049708	2104.67	97276.5
713	2.000000	1.161632	7.37203e+06	-41439.1	1005.82	-29786.2	0.000000	0.000000	7.167100	121.86	NaN	0.000000	0.001559	0.001691	28.0844	46.9775	0.001890	24855.1	4.949109	-2.066981	118.569	1.161248	0.039865	0.039480	121.86	24855.1	0.036188	0.054547	2234.03	97230.5
713	2.000000	1.164219	7.37203e+06	-41439.1	1005.82	-29786.2	0.000000	0.000000	7.169946	128.165	NaN	0.000000	0.001558	0.001676	28.0846	50.4229	0.001866	27016.8	5.463305	175.431	129.112	1.163854	0.042452	0.042087	128.165	27016.8	0.038894	0.061201	2094.18	99776.7
713	2.000000	1.166665	7.37203e+06	-41439.1	1005.82	-29786.2	0.000000	0.000000	7.173163	146.926	NaN	0.000000	0.001584	0.001638	28.0842	51.4812	0.001747	29461.1	2.170650	-1.986825	142.889	1.166309	0.044897	0.044542	146.926	29461.1	0.041157	0.067052	2191.23	103948
713	2.000000	1.169192	7.37203e+06	-41439.1	1005.82	-29786.2	0.000000	0.000000	7.176036	155.345	NaN	0.000000	0.001578	0.001697	28.0843	54.4632	0.001814	30019.9	7.411611	172.67	155.969	1.168858	0.047425	0.047091	155.345	30019.9	0.043544	0.073507	2113.32	101162
713	2.000000	1.171661	7.37203e+06	-41439.1	1005.82	-29786.2	0.000000	0.000000	7.179022	167.93	NaN	0.000000	0.001558	0.001661	28.0842	56.5474	0.001854	30504.7	1.311650	-0.782879	166.508	1.171332	0.049893	0.049564	167.93	30504.7	0.045765	0.079772	2105.11	98676.3
713	2.000000	1.174171	7.37203e+06	-41439.1	1005.82	-29786.2	0.000000	0.000000	7.182118	182.198	NaN	0.000000	0.001556	0.001675	28.0845	59.5173	0.001780	33428.3	3.196486	175.72	180.382	1.173833	0.052403	0.052065	182.198	33428.3	0.048315	0.087277	2087.58	103380
713	2.000000	1.176769	7.37203e+06	-41439.1	1005.82	-29786.2	0.000000	0.000000	7.185439	199.763	NaN	0.000000	0.001581	0.001688	28.084	61.6794	0.001802	34225.8	7.117540	-7.911272	201.521	1.176277	0.055002	0.054509	199.763	34225.8	0.050624	0.094353	2117.19	101800
713	2.000000	1.179124	7.37203e+06	-41439.1	1005.82	-29786.2	0.000000	0.000000	7.188540	217.921	NaN	0.000000	0.001576	0.001685	28.0843	62.6772	0.001700	36878.6	2.369217	175.732	214.543	1.178779	0.057357	0.057012	217.921	36878.6	0.052925	0.101668	2143.46	105671
713	2.000000	1.181602	7.37203e+06	-41439.1	1005.82	-29786.2	0.000000	0.000000	7.191663	233.615	NaN	0.000000	0.001596	0.001683	28.0841	65.9245	0.001782	36991.8	3.181541	-4.628611	228.577	1.181312	0.059835	0.059545	233.615	36991.8	0.055098	0.108820	2146.8	102453
713	2.000000	1.184175	7.37203e+06	-41439.1	1005.82	-29786.2	0.000000	0.000000	7.194821	247.855	NaN	0.000000	0.001674	0.001664	28.0845	69.6515	0.001831	38048.9	6.661546	170.857	246.907	1.183896	0.062408	0.062128	247.855	38048.9	0.057522	0.117074	2117.09	101598
713	2.000000	1.186717	7.37203e+06	-41439.1	1005.82	-29786.2	0.000000	0.000000	7.197606	253.783	NaN	0.000000	0.001674	0.001681	28.0835	71.1189	0.001768	40222.9	4.876847	-7.723879	254.919	1.186587	0.064949	0.064819	253.783	40222.9	0.060217	0.126589	2004.79	103288
713	2.000000	1.189165	7.37203e+06	-41439.1	1005.82	-29786.2	0.000000	0.000000	7.201118	279.66	NaN	0.000000	0.001696	0.001650	28.0829	73.6605	0.001818	40524.9	9.748248	167.875	277.757	1.188695	0.067397	0.066928	279.66	40524.9	0.062222	0.133896	2088.64	101184
713	2.000000	1.191661	7.37203e+06	-41439.1	1005.82	-29786.2	0.000000	0.000000	7.204461	300.264	NaN	0.000000	0.001605	0.001666	28.0828	75.6079	0.001716	44060.8	5.706997	-8.879007	296.923	1.191182	0.069894	0.069414	300.264	44060.8	0.064783	0.143514	2092.22	106262
713	2.000000	1.194265	7.37203e+06	-41439.1	1005.82	-29786.2	0.000000	0.000000	7.207369	307.678	NaN	0.000000	0.001606	0.001707	28.0831	79.0567	0.001773	44581.2	2.837950	174.464	314.557	1.193886	0.072497	0.072118	307.678	44581.2	0.067321	0.153361	2006.23	104008
713	2.000000	1.196639	7.37203e+06	-41439.1	1005.82	-29786.2	0.000000	0.000000	7.210700	330.944	NaN	0.000000	0.001608	0.001687	28.0827	80.4488	0.001739	46270.7	5.074656	-8.364394	328.621	1.196421	0.074871	0.074653	330.944	46270.7	0.069507	0.162089	2041.74	105003
713	2.000000	1.199194	7.37203e+06	-41439.1	1005.82	-29786.2	0.000000	0.000000	7.213917	347.067	NaN	0.000000	0.001607	0.001696	28.0827	82.9832	0.001795	46231.1	8.871716	169.086	348.961	1.198784	0.077426	0.077016	347.067	46231.1	0.071796	0.171469	2024.08	102003
713	2.000000	1.201624	7.37203e+06	-41439.1	1005.82	-29786.2	0.000000	0.000000	7.217299	370.221	NaN	0.000000	0.001567	0.001692	28.0825	84.9403	0.001775	47840.4	6.894630	-10.1368	366.032	1.201159	0.079857	0.079391	370.221	47840.4	0.074053	0.180963	2045.84	102748
713	2.000000	1.204097	7.37203e+06	-41439.1	1005.82	-29786.2	0.000000	0.000000	7.220446	386.623	NaN	0.000000	0.001602	0.001699	28.0828	88.7194	0.001769	50146.4	6.604702	169.17	382.279	1.203777	0.082330	0.082010	386.623	50146.4	0.076547	0.191736	2016.43	104631
713	2.000000	1.206551	7.37203e+06	-41439.1	1005.82	-29786.2	0.000000	0.000000	7.223860	409.984	NaN	0.000000	0.001617	0.001685	28.0828	90.6355	0.001822	49740.3	6.773860	-10.9484	402.65	1.206324	0.084784	0.084557	409.984	49740.3	0.078602	0.200829	2041.46	101407
713	2.000000	1.209125	7.37203e+06	-41439.1	1005.82	-29786.2	0.000000	0.000000	7.227297	430.977	NaN	0.000000	0.001614	0.001631	28.0828	92.6364	0.001798	51528.8	6.430786	169.911	427.414	1.208713	0.087357	0.086945	430.977	51528.8	0.081085	0.212079	2032.16	102229
713	2.000000	1.211640	7.37203e+06	-41439.1	1005.82	-29786.2	0.000000	0.000000	7.230420	445.775	NaN	0.000000	0.001631	0.001649	28.0831	95.0717	0.001764	53894.3	3.677532	-8.077057	443.265	1.211263	0.089872	0.089495	445.775	53894.3	0.083669	0.224093	1989.24	104017
713	2.000000	1.214209	7.37203e+06	-41439.1	1005.82	-29786.2	0.000000	0.000000	7.233132	449.246	NaN	0.000000	0.001620	0.001688	28.0828	98.4308	0.001894	51970.9	1.577682	173.897	449.287	1.213999	0.092442	0.092232	449.246	51970.9	0.085958	0.234995	1911.72	97949.9
713	2.000000	1.216651	7.37203e+06	-41439.1	1005.82	-29786.2	0.000000	0.000000	7.236951	482.762	NaN	0.000000	0.001650	0.001663	28.0827	99.9737	0.001724	57995.7	3.238492	-7.357362	481.259	1.216260	0.094884	0.094493	482.762	57995.7	0.088641	0.248074	1946.04	106384
713	2.000000	1.219119	7.37203e+06	-41439.1	1005.82	-29786.2	0.000000	0.000000	7.240634	512.326	NaN	0.000000	0.001649	0.001663	28.0828	102.62	0.001769	58008.2	7.576309	167.505	512.085	1.218680	0.097351	0.096913	512.326	58008.2	0.090727	0.258479	1982.08	104244
713	2.000000	1.221609	7.37203e+06	-41439.1	1005.82	-29786.2	0.000000	0.000000	7.243961	532.691	NaN	0.000000	0.001603	0.001669	28.0841	105.72	0.001740	60752.9	3.737099	-9.001798	528.586	1.221256	0.099841	0.099489	532.691	60752.9	0.093265	0.271401	1962.74	106545
713	2.000000	1.223008	7.37203e+06	-41439.1	1005.82	-29786.2	0.000000	0.000000	7.246057	549.665	NaN	0.000000	0.001605	0.001656	28.0838	106.27	0.001696	62657	7.554039	167.481	542.153	1.222800	0.101240	0.101033	549.665	62657	0.094661	0.278632	1972.73	108449