File: remote_trans/data/nanoindenter/0828-1/data/Data_2025-08-06,11h17m57s/2025-07-22_16-23-58_1_519.txt
2025-07-22, 16:23:58, 1
Index	Phase	Displacement	Time	Pos X	Pos Y	Pos Z	Rot A	Rot B	Piezo Z	Force A	Force B	Gripper	Voltage A	Voltage B	Temperature	Amplitude force	Amplitude pos	Stiffness	Phase shift	Phase excitation	Force A raw	Displacement raw	HMax	HMax raw	Real Force	Real Stiffness	Contact Depth	Area	Hardness	Reduced Mod.
[#]	[#]	[um]	[s]	[um]	[um]	[um]	[m°]	[m°]	[um]	[uN]	[uN]	[V]	[V]	[V]	[°C]	[uN]	[um]	[N/m]	[°]	[°]	[uN]	[um]	[um]	[um]	[uN]	[N/m]	[um]	[um^2]	[MPa]	[MPa]
519	1.000000	0.002938	7.37013e+06	-51139.1	1005.82	-29753.3	0.000000	0.000000	6.002796	0.006857	NaN	0.000000	0.001641	0.001707	28.0812	0.010807	0.000914	11.8176	-125.14	-162.683	0.064815	0.001681	-1.126407	-1.127664	0.006857	11.8176	-1.126842	-1.148858E+15	-5.968943E-18	NaN
519	1.000000	0.013010	7.37013e+06	-51139.1	1005.82	-29753.3	0.000000	0.000000	6.012865	-0.056567	NaN	0.000000	0.001650	0.001706	28.0807	0.061721	0.001224	50.4339	121.605	15.8405	-0.037826	0.011513	-1.116335	-1.117832	-0.056567	50.4339	-1.115494	-8.091176E+14	6.991248E-17	NaN
519	1.000000	0.022895	7.37013e+06	-51139.1	1005.82	-29753.3	0.000000	0.000000	6.022752	-0.005241	NaN	0.000000	0.001616	0.001690	28.0811	0.040453	0.001729	23.3904	30.8362	-163.812	-0.038410	0.021594	-1.106451	-1.107752	-0.005241	23.3904	-1.106282	-6.086887E+14	8.610797E-18	NaN
519	1.000000	0.032886	7.37013e+06	-51139.1	1005.82	-29753.3	0.000000	0.000000	6.032742	-0.052276	NaN	0.000000	0.001613	0.001702	28.0807	0.070958	0.001906	37.2244	75.2479	13.0482	-0.025502	0.031528	-1.096459	-1.097817	-0.052276	37.2244	-1.095405	-4.348978E+14	1.202036E-16	NaN
519	1.000000	0.042926	7.37013e+06	-51139.1	1005.82	-29753.3	0.000000	0.000000	6.042785	0.042801	NaN	0.000000	0.001592	0.001696	28.0819	0.033396	0.001975	16.9133	-23.3189	-167.237	0.067596	0.041619	-1.086419	-1.087726	0.042801	16.9133	-1.088317	-3.493115E+14	-1.225308E-16	NaN
519	1.000000	0.052904	7.37013e+06	-51139.1	1005.82	-29753.3	0.000000	0.000000	6.052763	0.029592	NaN	0.000000	0.001613	0.001677	28.0818	0.041703	0.001966	21.2137	93.8862	15.6868	0.006808	0.051545	-1.076441	-1.077800	0.029592	21.2137	-1.077487	-2.499016E+14	-1.184147E-16	NaN
519	1.000000	0.062903	7.37013e+06	-51139.1	1005.82	-29753.3	0.000000	0.000000	6.062761	0.006049	NaN	0.000000	0.001625	0.001700	28.0817	0.100484	0.001963	51.1794	-151.834	-165.293	0.115546	0.061613	-1.066442	-1.067732	0.006049	51.1794	-1.066531	-1.780652E+14	-3.396916E-17	NaN
519	1.000000	0.072924	7.37013e+06	-51139.1	1005.82	-29753.3	0.000000	0.000000	6.072781	-0.007152	NaN	0.000000	0.001628	0.001711	28.0821	0.042074	0.001932	21.7775	-93.6938	12.7362	-0.040991	0.071558	-1.056422	-1.057787	-0.007152	21.7775	-1.056175	-1.292463E+14	5.533451E-17	NaN
519	1.000000	0.082878	7.37013e+06	-51139.1	1005.82	-29753.3	0.000000	0.000000	6.082737	0.017012	NaN	0.000000	0.001637	0.001672	28.082	0.095249	0.002203	43.2261	14.5768	-164.693	0.029357	0.081582	-1.046467	-1.047763	0.017012	43.2261	-1.046762	-9.657921E+13	-1.761456E-16	NaN
519	1.000000	0.092933	7.37013e+06	-51139.1	1005.82	-29753.3	0.000000	0.000000	6.092790	-0.017793	NaN	0.000000	0.001626	0.001644	28.082	0.100676	0.002114	47.6167	-141.629	13.2816	0.060872	0.091570	-1.036412	-1.037775	-0.017793	47.6167	-1.036132	-6.949382E+13	2.560349E-16	NaN
519	1.000000	0.102888	7.37013e+06	-51139.1	1005.82	-29753.3	0.000000	0.000000	6.102744	-0.024354	NaN	0.000000	0.001603	0.001701	28.082	0.030354	0.001999	15.1879	-2.431441	-164.729	0.031060	0.101630	-1.026458	-1.027715	-0.024354	15.1879	-1.025255	-4.961931E+13	4.908177E-16	NaN
519	1.000000	0.112897	7.37013e+06	-51139.1	1005.82	-29753.3	0.000000	0.000000	6.112751	-0.076057	NaN	0.000000	0.001626	0.001685	28.0822	0.064580	0.001887	34.2242	30.4747	15.1928	-0.051424	0.111602	-1.016449	-1.017743	-0.076057	34.2242	-1.014782	-3.587040E+13	2.120318E-15	NaN
519	1.000000	0.122917	7.37013e+06	-51139.1	1005.82	-29753.3	0.000000	0.000000	6.122774	-0.019407	NaN	0.000000	0.001627	0.001688	28.0821	0.051682	0.002050	25.2053	-62.401	-165.833	-0.105660	0.121613	-1.006428	-1.007733	-0.019407	25.2053	-1.005851	-2.719772E+13	7.135637E-16	NaN
519	1.000000	0.132917	7.37013e+06	-51139.1	1005.82	-29753.3	0.000000	0.000000	6.132773	-0.021674	NaN	0.000000	0.001645	0.001711	28.0822	0.095413	0.001990	47.9463	76.216	16.375	0.091710	0.131557	-0.996428	-0.997788	-0.021674	47.9463	-0.996089	-2.009619E+13	1.078523E-15	NaN
519	1.000000	0.142917	7.37013e+06	-51139.1	1005.82	-29753.3	0.000000	0.000000	6.142774	-0.013400	NaN	0.000000	0.001627	0.001674	28.0826	0.113966	0.002034	56.0398	-166.228	-168.238	-0.085475	0.141554	-0.986428	-0.987791	-0.013400	56.0398	-0.986248	-1.481097E+13	9.047474E-16	NaN
519	1.000000	0.152934	7.37013e+06	-51139.1	1005.82	-29753.3	0.000000	0.000000	6.152792	0.009582	NaN	0.000000	0.001598	0.001729	28.0821	0.098064	0.001993	49.2127	-52.9502	15.0135	0.034242	0.151540	-0.976411	-0.977805	0.009582	49.2127	-0.976557	-1.096539E+13	-8.738493E-16	NaN
519	1.000000	0.162971	7.37013e+06	-51139.1	1005.82	-29753.3	0.000000	0.000000	6.162826	-0.054405	NaN	0.000000	0.001591	0.001644	28.0821	0.023349	0.001959	11.9184	99.4069	-165.644	-0.099976	0.161640	-0.966374	-0.967705	-0.054405	11.9184	-0.962951	-7.188671E+12	7.568224E-15	NaN
519	1.000000	0.172914	7.37013e+06	-51139.1	1005.82	-29753.3	0.000000	0.000000	6.172773	0.039468	NaN	0.000000	0.001632	0.001659	28.0822	0.124096	0.001967	63.0761	-17.4934	14.2735	0.045245	0.171521	-0.956431	-0.957824	0.039468	63.0761	-0.956900	-5.957698E+12	-6.624675E-15	NaN
519	1.000000	0.182943	7.37013e+06	-51139.1	1005.82	-29753.3	0.000000	0.000000	6.182798	-0.056839	NaN	0.000000	0.001651	0.001679	28.0809	0.070148	0.002110	33.2427	-19.4681	-165.803	-0.054720	0.181631	-0.946403	-0.947714	-0.056839	33.2427	-0.945120	-4.132475E+12	1.375413E-14	NaN
519	1.000000	0.192936	7.37013e+06	-51139.1	1005.82	-29753.3	0.000000	0.000000	6.192792	-0.020604	NaN	0.000000	0.001625	0.001706	28.0809	0.100211	0.002068	48.4505	-18.4351	14.5176	-0.000193	0.191569	-0.936410	-0.937777	-0.020604	48.4505	-0.936091	-3.121687E+12	6.600180E-15	NaN
519	1.000000	0.202941	7.37013e+06	-51139.1	1005.82	-29753.3	0.000000	0.000000	6.202798	-0.016946	NaN	0.000000	0.001633	0.001652	28.0809	0.064219	0.002026	31.702	-8.849008	-166.147	0.007423	0.201631	-0.926404	-0.927714	-0.016946	31.702	-0.926003	-2.281634E+12	7.427081E-15	NaN
519	1.000000	0.212932	7.37013e+06	-51139.1	1005.82	-29753.3	0.000000	0.000000	6.212787	-0.055008	NaN	0.000000	0.001608	0.001678	28.0812	0.007555	0.001876	4.026672	-85.8305	14.4947	0.034155	0.211583	-0.916413	-0.917762	-0.055008	4.026672	-0.906167	-1.231376E+12	4.467224E-14	NaN
519	1.000000	0.222972	7.37013e+06	-51139.1	1005.82	-29753.3	0.000000	0.000000	6.222829	-0.027072	NaN	0.000000	0.001608	0.001726	28.0807	0.082520	0.001925	42.8728	-111.457	-164.081	-0.054485	0.221682	-0.906373	-0.907663	-0.027072	42.8728	-0.905899	-1.221147E+12	2.216928E-14	NaN
519	1.000000	0.232980	7.37013e+06	-51139.1	1005.82	-29753.3	0.000000	0.000000	6.232837	-0.023728	NaN	0.000000	0.001630	0.001681	28.081	0.033984	0.002028	16.7603	62.8735	11.896	0.017559	0.231576	-0.896365	-0.897769	-0.023728	16.7603	-0.895303	-8.781981E+11	2.701930E-14	NaN
519	1.000000	0.243002	7.37013e+06	-51139.1	1005.82	-29753.3	0.000000	0.000000	6.242858	-0.019039	NaN	0.000000	0.001632	0.001747	28.0809	0.046933	0.002075	22.6204	-56.1191	-167.873	0.013509	0.241673	-0.886344	-0.887672	-0.019039	22.6204	-0.885712	-6.515538E+11	2.922025E-14	NaN
519	1.000000	0.252987	7.37013e+06	-51139.1	1005.82	-29753.3	0.000000	0.000000	6.252844	-0.017086	NaN	0.000000	0.001607	0.001709	28.0811	0.036572	0.002000	18.2868	-99.0422	12.2557	-0.022370	0.251625	-0.876358	-0.877720	-0.017086	18.2868	-0.875657	-4.763985E+11	3.586464E-14	NaN
519	1.000000	0.262939	7.37013e+06	-51139.1	1005.82	-29753.3	0.000000	0.000000	6.262796	-0.011770	NaN	0.000000	0.001594	0.001676	28.081	0.069303	0.001965	35.2657	34.9051	-163.281	-0.032582	0.261610	-0.866406	-0.867736	-0.011770	35.2657	-0.866155	-3.543430E+11	3.321763E-14	NaN
519	1.000000	0.272973	7.37013e+06	-51139.1	1005.82	-29753.3	0.000000	0.000000	6.272830	-0.003831	NaN	0.000000	0.001618	0.001689	28.081	0.077624	0.002007	38.6774	80.9538	10.5398	-0.029499	0.271629	-0.856372	-0.857716	-0.003831	38.6774	-0.856298	-2.606213E+11	1.470035E-14	NaN
519	1.000000	0.282970	7.37013e+06	-51139.1	1005.82	-29753.3	0.000000	0.000000	6.282827	-0.023237	NaN	0.000000	0.001628	0.001685	28.0811	0.015625	0.001909	8.185500	13.1869	-166.229	-0.118560	0.281590	-0.846375	-0.847755	-0.023237	8.185500	-0.844246	-1.789813E+11	1.298293E-13	NaN
519	1.000000	0.292984	7.37013e+06	-51139.1	1005.82	-29753.3	0.000000	0.000000	6.292840	-0.044844	NaN	0.000000	0.001645	0.001697	28.0811	0.115637	0.001969	58.7303	-137.42	14.5938	-0.033730	0.291605	-0.836361	-0.837740	-0.044844	58.7303	-0.835788	-1.374767E+11	3.261960E-13	NaN
519	1.000000	0.303008	7.37013e+06	-51139.1	1005.82	-29753.3	0.000000	0.000000	6.302865	-0.009332	NaN	0.000000	0.001624	0.001702	28.081	0.031565	0.001964	16.0691	18.7	-161.833	-0.075547	0.301704	-0.826337	-0.827642	-0.009332	16.0691	-0.825901	-1.009772E+11	9.241917E-14	NaN
519	1.000000	0.313004	7.37013e+06	-51139.1	1005.82	-29753.3	0.000000	0.000000	6.312861	-0.012269	NaN	0.000000	0.001666	0.001690	28.0813	0.011714	0.002059	5.688251	79.9629	14.9371	-0.028409	0.311628	-0.816341	-0.817717	-0.012269	5.688251	-0.814724	-7.122858E+10	1.722421E-13	NaN
519	1.000000	0.323008	7.37013e+06	-51139.1	1005.82	-29753.3	0.000000	0.000000	6.322866	0.029294	NaN	0.000000	0.001646	0.001668	28.0826	0.042104	0.001945	21.649	159.87	-165.691	-0.024322	0.321672	-0.806338	-0.807673	0.029294	21.649	-0.807352	-5.657804E+10	-5.177637E-13	NaN
519	1.000000	0.332985	7.37013e+06	-51139.1	1005.82	-29753.3	0.000000	0.000000	6.332843	0.002047	NaN	0.000000	0.001642	0.001682	28.0827	0.096789	0.002045	47.3296	-74.1832	15.2696	-0.075318	0.331651	-0.796360	-0.797695	0.002047	47.3296	-0.796393	-4.016884E+10	-5.095301E-14	NaN
519	1.000000	0.343015	7.37013e+06	-51139.1	1005.82	-29753.3	0.000000	0.000000	6.342872	-0.000917	NaN	0.000000	0.001650	0.001688	28.0825	0.105807	0.002026	52.2236	165.937	-168.09	-0.000703	0.341729	-0.786331	-0.787616	-0.000917	52.2236	-0.786317	-2.931320E+10	3.128036E-14	NaN
519	1.000000	0.352999	7.37013e+06	-51139.1	1005.82	-29753.3	0.000000	0.000000	6.352854	-0.066770	NaN	0.000000	0.001659	0.001731	28.082	0.131047	0.002035	64.385	135.469	13.9192	-0.011440	0.351657	-0.776346	-0.777688	-0.066770	64.385	-0.775569	-2.094139E+10	3.188416E-12	NaN
519	1.000000	0.363000	7.37013e+06	-51139.1	1005.82	-29753.3	0.000000	0.000000	6.362856	-0.035472	NaN	0.000000	0.001656	0.001738	28.0821	0.030232	0.002006	15.0682	171.478	-163.257	-0.110232	0.361713	-0.766346	-0.767632	-0.035472	15.0682	-0.764580	-1.484570E+10	2.389373E-12	NaN
519	1.000000	0.373041	7.37013e+06	-51139.1	1005.82	-29753.3	0.000000	0.000000	6.372897	-0.021899	NaN	0.000000	0.001609	0.001674	28.0821	0.066429	0.001961	33.8773	108.003	17.2322	-0.000653	0.371674	-0.756305	-0.757671	-0.021899	33.8773	-0.755820	-1.128306E+10	1.940854E-12	NaN
519	1.000000	0.383009	7.37013e+06	-51139.1	1005.82	-29753.3	0.000000	0.000000	6.382864	-0.056309	NaN	0.000000	0.001658	0.001685	28.0822	0.168655	0.002047	82.3906	-174.555	-169.008	-0.038438	0.381722	-0.746336	-0.747623	-0.056309	82.3906	-0.745824	-8.248263E+9	6.826824E-12	NaN
519	1.000000	0.393018	7.37013e+06	-51139.1	1005.82	-29753.3	0.000000	0.000000	6.392875	0.001531	NaN	0.000000	0.001657	0.001685	28.0822	0.068190	0.002113	32.269	162.138	17.1388	-0.019575	0.391677	-0.736327	-0.737668	0.001531	32.269	-0.736363	-6.130733E+9	-2.497020E-13	NaN
519	1.000000	0.403052	7.37013e+06	-51139.1	1005.82	-29753.3	0.000000	0.000000	6.402909	-0.019890	NaN	0.000000	0.001653	0.001704	28.0822	0.005441	0.001941	2.802815	162.187	-163.283	-0.128824	0.401709	-0.726293	-0.727636	-0.019890	2.802815	-0.720971	-3.781933E+9	5.259154E-12	NaN
519	1.000000	0.413043	7.37013e+06	-51139.1	1005.82	-29753.3	0.000000	0.000000	6.412901	0.004789	NaN	0.000000	0.001628	0.001664	28.0822	0.009483	0.001977	4.797469	-56.0791	14.7034	-0.013212	0.411643	-0.716302	-0.717702	0.004789	4.797469	-0.717051	-3.343851E+9	-1.432059E-12	NaN
519	1.000000	0.423059	7.37013e+06	-51139.1	1005.82	-29753.3	0.000000	0.000000	6.422914	-0.054062	NaN	0.000000	0.001605	0.001719	28.0821	0.091479	0.001987	46.0488	47.4676	-165.781	-0.037857	0.421743	-0.706286	-0.707602	-0.054062	46.0488	-0.705406	-2.319230E+9	2.331051E-11	NaN
519	1.000000	0.433068	7.37013e+06	-51139.1	1005.82	-29753.3	0.000000	0.000000	6.432928	0.044773	NaN	0.000000	0.001628	0.001727	28.0824	0.155631	0.001931	80.6008	-160.888	14.6204	-0.024320	0.431734	-0.696277	-0.697611	0.044773	80.6008	-0.696693	-1.763469E+9	-2.538916E-11	NaN
519	1.000000	0.443067	7.37013e+06	-51139.1	1005.82	-29753.3	0.000000	0.000000	6.442924	-0.007291	NaN	0.000000	0.001621	0.001674	28.0823	0.062310	0.002162	28.8238	117.97	-168.16	0.020642	0.441789	-0.686278	-0.687556	-0.007291	28.8238	-0.686088	-1.263134E+9	5.772196E-12	NaN
519	1.000000	0.453040	7.37013e+06	-51139.1	1005.82	-29753.3	0.000000	0.000000	6.452898	0.010936	NaN	0.000000	0.001635	0.001711	28.0812	0.082730	0.001926	42.9544	-70.1825	12.0356	0.012489	0.451655	-0.676305	-0.677691	0.010936	42.9544	-0.676496	-9.338415E+8	-1.171055E-11	NaN
519	1.000000	0.463073	7.37013e+06	-51139.1	1005.82	-29753.3	0.000000	0.000000	6.462927	-0.074247	NaN	0.000000	0.001600	0.001712	28.0812	0.022222	0.001885	11.7888	57.0509	-161.129	-0.089870	0.461768	-0.666272	-0.667577	-0.074247	11.7888	-0.661549	-5.830193E+8	1.273496E-10	NaN
519	1.000000	0.473031	7.37013e+06	-51139.1	1005.82	-29753.3	0.000000	0.000000	6.472888	-0.011271	NaN	0.000000	0.001605	0.001766	28.081	0.067062	0.002040	32.8726	-50.1667	15.9049	-0.055720	0.471708	-0.656314	-0.657638	-0.011271	32.8726	-0.656057	-4.902859E+8	2.298910E-11	NaN
519	1.000000	0.483090	7.37013e+06	-51139.1	1005.82	-29753.3	0.000000	0.000000	6.482946	-0.046768	NaN	0.000000	0.001629	0.001814	28.0809	0.080068	0.002087	38.363	100.853	-168.177	-0.036884	0.481742	-0.646255	-0.647603	-0.046768	38.363	-0.645341	-3.495818E+8	1.337822E-10	NaN
519	1.000000	0.493067	7.37013e+06	-51139.1	1005.82	-29753.3	0.000000	0.000000	6.492924	0.001247	NaN	0.000000	0.001608	0.001792	28.0809	0.053962	0.001953	27.6246	-171.308	13.3892	0.089899	0.491675	-0.636278	-0.637670	0.001247	27.6246	-0.636312	-2.628350E+8	-4.746216E-12	NaN
519	1.000000	0.503081	7.37013e+06	-51139.1	1005.82	-29753.3	0.000000	0.000000	6.502938	-0.016261	NaN	0.000000	0.001641	0.001719	28.0814	0.104743	0.002081	50.3365	-29.6748	-164.287	0.001152	0.501776	-0.626264	-0.627569	-0.016261	50.3365	-0.626022	-1.898376E+8	8.565711E-11	NaN
519	1.000000	0.513061	7.37013e+06	-51139.1	1005.82	-29753.3	0.000000	0.000000	6.512917	-0.024070	NaN	0.000000	0.001595	0.001734	28.0809	0.077252	0.002092	36.9304	15.0261	9.678614	-0.066673	0.511676	-0.616285	-0.617669	-0.024070	36.9304	-0.615796	-1.373514E+8	1.752444E-10	NaN
519	1.000000	0.523099	7.37013e+06	-51139.1	1005.82	-29753.3	0.000000	0.000000	6.522956	-0.003137	NaN	0.000000	0.001601	0.001743	28.0808	0.069190	0.001944	35.5923	66.6603	-164.533	-0.020825	0.521811	-0.606246	-0.607534	-0.003137	35.5923	-0.606180	-1.012850E+8	3.097132E-11	NaN
519	1.000000	0.533092	7.37013e+06	-51139.1	1005.82	-29753.3	0.000000	0.000000	6.532949	-0.006735	NaN	0.000000	0.001610	0.001710	28.0809	0.056268	0.001872	30.0519	-73.9979	9.764206	0.063418	0.531733	-0.596254	-0.597613	-0.006735	30.0519	-0.596085	-7.354224E+7	9.158440E-11	NaN
519	1.000000	0.543101	7.37013e+06	-51139.1	1005.82	-29753.3	0.000000	0.000000	6.542958	0.000184	NaN	0.000000	0.001610	0.001739	28.0811	0.036339	0.002004	18.1338	150.197	-165.706	0.062829	0.541850	-0.586244	-0.587495	0.000184	18.1338	-0.586252	-5.382472E+7	-3.410101E-12	NaN
519	1.000000	0.553111	7.37013e+06	-51139.1	1005.82	-29753.3	0.000000	0.000000	6.552966	-0.065868	NaN	0.000000	0.001631	0.001738	28.0808	0.067635	0.001902	35.5634	-0.471517	13.4281	-0.126400	0.551752	-0.576234	-0.577594	-0.065868	35.5634	-0.574845	-3.745947E+7	1.758374E-9	NaN
519	1.000000	0.563108	7.37013e+06	-51139.1	1005.82	-29753.3	0.000000	0.000000	6.562962	-0.073538	NaN	0.000000	0.001611	0.001708	28.081	0.032930	0.001919	17.1557	-96.9407	-167.535	-0.121965	0.561819	-0.566237	-0.567526	-0.073538	17.1557	-0.563022	-2.571471E+7	2.859762E-9	NaN
519	1.000000	0.573121	7.37013e+06	-51139.1	1005.82	-29753.3	0.000000	0.000000	6.572978	0.002552	NaN	0.000000	0.001621	0.001721	28.081	0.107736	0.001959	54.986	-65.7265	17.3147	0.040587	0.571719	-0.556225	-0.557626	0.002552	54.986	-0.556259	-2.073097E+7	-1.230825E-10	NaN
519	1.000000	0.583098	7.37013e+06	-51139.1	1005.82	-29753.3	0.000000	0.000000	6.582956	0.017669	NaN	0.000000	0.001607	0.001747	28.0813	0.087593	0.002166	40.444	-97.1019	-163.62	0.072061	0.581830	-0.546248	-0.547515	0.017669	40.444	-0.546575	-1.522331E+7	-1.160669E-9	NaN
519	1.000000	0.593095	7.37013e+06	-51139.1	1005.82	-29753.3	0.000000	0.000000	6.592948	-0.094023	NaN	0.000000	0.001641	0.001736	28.0819	0.102558	0.002017	50.8411	-30.3393	14.9761	0.019405	0.591749	-0.536250	-0.537596	-0.094023	50.8411	-0.534863	-1.047357E+7	8.977209E-9	NaN
519	1.000000	0.603114	7.37013e+06	-51139.1	1005.82	-29753.3	0.000000	0.000000	6.602971	-0.011262	NaN	0.000000	0.001607	0.001792	28.0822	0.021117	0.001982	10.6528	-64.1046	-167.038	0.003458	0.601842	-0.526231	-0.527503	-0.011262	10.6528	-0.525438	-7.74813e+06	1.453544E-9	NaN
519	1.000000	0.613145	7.37013e+06	-51139.1	1005.82	-29753.3	0.000000	0.000000	6.613003	0.008680	NaN	0.000000	0.001643	0.001767	28.0823	0.013709	0.001951	7.026513	-145.521	13.7631	0.042419	0.611775	-0.516200	-0.517570	0.008680	7.026513	-0.517126	-5.93775e+06	-1.461908E-9	NaN
519	1.000000	0.623144	7.37013e+06	-51139.1	1005.82	-29753.3	0.000000	0.000000	6.622999	-0.053661	NaN	0.000000	0.001642	0.001753	28.0822	0.099758	0.001996	49.985	110.355	-163.938	-0.135917	0.621759	-0.506202	-0.507586	-0.053661	49.985	-0.505396	-4.07633e+06	1.316396E-8	NaN
519	1.000000	0.633129	7.37013e+06	-51139.1	1005.82	-29753.3	0.000000	0.000000	6.632987	-0.004175	NaN	0.000000	0.001655	0.001713	28.0822	0.097244	0.001914	50.8163	120.14	12.2042	-0.044309	0.631721	-0.496216	-0.497625	-0.004175	50.8163	-0.496154	-3.02933e+06	1.378280E-9	NaN
519	1.000000	0.643142	7.37013e+06	-51139.1	1005.82	-29753.3	0.000000	0.000000	6.642996	-0.084381	NaN	0.000000	0.001668	0.001737	28.0823	0.066988	0.002053	32.6366	-91.1856	-165.07	-0.148711	0.641841	-0.486203	-0.487504	-0.084381	32.6366	-0.484264	-2.06633e+06	4.083645E-8	NaN
519	1.000000	0.653130	7.37013e+06	-51139.1	1005.82	-29753.3	0.000000	0.000000	6.652985	-0.074290	NaN	0.000000	0.001674	0.001766	28.0824	0.011900	0.002048	5.809574	-146.038	11.0629	-0.072968	0.651790	-0.476215	-0.477555	-0.074290	5.809574	-0.466624	-1.16962e+06	6.351640E-8	NaN
519	1.000000	0.663139	7.37013e+06	-51139.1	1005.82	-29753.3	0.000000	0.000000	6.662996	-0.008133	NaN	0.000000	0.001678	0.001816	28.0823	0.146644	0.002104	69.709	153.322	-168.905	-0.067181	0.661810	-0.466206	-0.467535	-0.008133	69.709	-0.466118	-1.15066e+06	7.068500E-9	NaN
519	1.000000	0.673153	7.37013e+06	-51139.1	1005.82	-29753.3	0.000000	0.000000	6.673010	-0.003534	NaN	0.000000	0.001679	0.001766	28.0821	0.064521	0.002129	30.3052	63.5678	16.4307	-0.029221	0.671784	-0.456192	-0.457561	-0.003534	30.3052	-0.456105	-832256	4.245738E-9	NaN
519	1.000000	0.683171	7.37013e+06	-51139.1	1005.82	-29753.3	0.000000	0.000000	6.683025	-0.070664	NaN	0.000000	0.001710	0.001798	28.0822	0.090545	0.002001	45.2431	-116.067	-163.321	-0.085970	0.681846	-0.446174	-0.447499	-0.070664	45.2431	-0.445003	-580677	1.216919E-7	NaN
519	1.000000	0.693177	7.37013e+06	-51139.1	1005.82	-29753.3	0.000000	0.000000	6.693034	-0.019069	NaN	0.000000	0.001675	0.001759	28.0826	0.033364	0.001924	17.3419	-6.140204	14.7638	0.004683	0.691813	-0.436168	-0.437532	-0.019069	17.3419	-0.435343	-424229	4.494914E-8	NaN
519	1.000000	0.703127	7.37013e+06	-51139.1	1005.82	-29753.3	0.000000	0.000000	6.702984	-0.011864	NaN	0.000000	0.001698	0.001773	28.0825	0.046624	0.001988	23.456	148.496	-167.684	0.080714	0.701821	-0.426218	-0.427524	-0.011864	23.456	-0.425839	-311289	3.811366E-8	NaN
519	1.000000	0.713134	7.37013e+06	-51139.1	1005.82	-29753.3	0.000000	0.000000	6.712990	-0.029094	NaN	0.000000	0.001669	0.001795	28.0823	0.072778	0.001925	37.8129	-36.6032	14.4905	-0.126633	0.711760	-0.416212	-0.417585	-0.029094	37.8129	-0.415635	-223083	1.304187E-7	NaN
519	1.000000	0.723206	7.37013e+06	-51139.1	1005.82	-29753.3	0.000000	0.000000	6.723063	-0.005673	NaN	0.000000	0.001681	0.001749	28.0839	0.022641	0.002056	11.0132	19.534	-167.062	-0.013745	0.721853	-0.406140	-0.407492	-0.005673	11.0132	-0.405753	-161426	3.514485E-8	NaN
519	1.000000	0.733177	7.37013e+06	-51139.1	1005.82	-29753.3	0.000000	0.000000	6.733035	0.012070	NaN	0.000000	0.001678	0.001701	28.0812	0.057083	0.002098	27.2062	36.9703	13.94	0.050132	0.731819	-0.396168	-0.397526	0.012070	27.2062	-0.396500	-119141	-1.013083E-7	NaN
519	1.000000	0.743184	7.37013e+06	-51139.1	1005.82	-29753.3	0.000000	0.000000	6.743045	0.072000	NaN	0.000000	0.001665	0.001709	28.0812	0.088905	0.002005	44.3348	5.445501	-166.489	0.013127	0.741885	-0.386161	-0.387460	0.072000	44.3348	-0.387379	-88238	-8.159792E-7	NaN
519	1.000000	0.753193	7.37013e+06	-51139.1	1005.82	-29753.3	0.000000	0.000000	6.753047	-0.080814	NaN	0.000000	0.001641	0.001687	28.0811	0.072763	0.001948	37.3473	155.743	14.4782	0.042139	0.751860	-0.376152	-0.377485	-0.080814	37.3473	-0.374529	-57716.3	1.400189E-6	NaN
519	1.000000	0.763192	7.37013e+06	-51139.1	1005.82	-29753.3	0.000000	0.000000	6.763048	-0.027808	NaN	0.000000	0.001611	0.001709	28.0814	0.095156	0.001969	48.3177	-36.6155	-166.865	-0.028877	0.761890	-0.366153	-0.367455	-0.027808	48.3177	-0.365722	-43099	6.452105E-7	NaN
519	1.000000	0.773186	7.37013e+06	-51139.1	1005.82	-29753.3	0.000000	0.000000	6.773043	-0.016785	NaN	0.000000	0.001672	0.001719	28.0809	0.141971	0.002000	70.9823	64.4844	13.7329	-0.016249	0.771831	-0.356159	-0.357514	-0.016785	70.9823	-0.355981	-31168	5.385444E-7	NaN
519	1.000000	0.783203	7.37013e+06	-51139.1	1005.82	-29753.3	0.000000	0.000000	6.783057	-0.061890	NaN	0.000000	0.001634	0.001659	28.0811	0.047812	0.002038	23.4607	152.705	-166.147	-0.070209	0.781906	-0.346143	-0.347439	-0.061890	23.4607	-0.344164	-20998.9	2.947303E-6	NaN
519	1.000000	0.793210	7.37013e+06	-51139.1	1005.82	-29753.3	0.000000	0.000000	6.793067	-0.018539	NaN	0.000000	0.001675	0.001699	28.081	0.055614	0.001846	30.1276	114.825	11.5896	-0.080495	0.791891	-0.336135	-0.337454	-0.018539	30.1276	-0.335674	-15791.7	1.173954E-6	NaN
519	1.000000	0.803206	7.37013e+06	-51139.1	1005.82	-29753.3	0.000000	0.000000	6.803063	-0.007741	NaN	0.000000	0.001675	0.001668	28.0812	0.015399	0.002102	7.325926	83.6914	-166.753	0.039338	0.801873	-0.326140	-0.327472	-0.007741	7.325926	-0.325347	-11148.9	6.943149E-7	NaN
519	1.000000	0.813193	7.37013e+06	-51139.1	1005.82	-29753.3	0.000000	0.000000	6.813051	0.006596	NaN	0.000000	0.001714	0.001694	28.0809	0.049314	0.001996	24.7056	-62.8542	13.4973	0.002055	0.811863	-0.316152	-0.317483	0.006596	24.7056	-0.316353	-8220.56	-8.024293E-7	NaN
519	1.000000	0.823202	7.37013e+06	-51139.1	1005.82	-29753.3	0.000000	0.000000	6.823060	0.006712	NaN	0.000000	0.001718	0.001681	28.081	0.068838	0.001784	38.5951	-58.1365	-163.891	0.062969	0.821889	-0.306143	-0.307456	0.006712	38.5951	-0.306273	-5832.41	-1.150779E-6	NaN
519	1.000000	0.833223	7.37013e+06	-51139.1	1005.82	-29753.3	0.000000	0.000000	6.833077	-0.065329	NaN	0.000000	0.001688	0.001729	28.0811	0.088336	0.001977	44.6905	-123.242	13.0144	-0.124145	0.831856	-0.296123	-0.297490	-0.065329	44.6905	-0.295026	-3967.17	1.646747E-5	NaN
519	1.000000	0.843243	7.37013e+06	-51139.1	1005.82	-29753.3	0.000000	0.000000	6.843095	-0.116788	NaN	0.000000	0.001660	0.001693	28.0814	0.065779	0.001918	34.289	-74.8911	-168.26	0.034532	0.841899	-0.286102	-0.287447	-0.116788	34.289	-0.283548	-2669.49	4.374917E-5	NaN
519	1.000000	0.853235	7.37013e+06	-51139.1	1005.82	-29753.3	0.000000	0.000000	6.853094	0.030246	NaN	0.000000	0.001645	0.001719	28.0811	0.015667	0.001969	7.955598	-97.476	14.9507	0.019681	0.851886	-0.276110	-0.277459	0.030246	7.955598	-0.278962	-2276.67	-1.328499E-5	NaN
519	1.000000	0.863238	7.37013e+06	-51139.1	1005.82	-29753.3	0.000000	0.000000	6.863094	-0.028712	NaN	0.000000	0.001605	0.001721	28.0823	0.022345	0.002119	10.5468	27.3207	-164.419	0.031512	0.861925	-0.266107	-0.267420	-0.028712	10.5468	-0.264066	-1352.45	2.122959E-5	NaN
519	1.000000	0.873221	7.37013e+06	-51139.1	1005.82	-29753.3	0.000000	0.000000	6.873077	-0.014192	NaN	0.000000	0.001648	0.001686	28.0825	0.088844	0.001904	46.6684	46.0571	17.1891	0.002693	0.871890	-0.256125	-0.257455	-0.014192	46.6684	-0.255896	-1013.7	1.400061E-5	NaN
519	1.000000	0.883264	7.37013e+06	-51139.1	1005.82	-29753.3	0.000000	0.000000	6.883121	0.001102	NaN	0.000000	0.001646	0.001665	28.0822	0.064062	0.002165	29.5964	-93.2482	-166.296	0.006048	0.881872	-0.246081	-0.247473	0.001102	29.5964	-0.246109	-715.618	-1.540349E-6	NaN
519	1.000000	0.893211	7.37013e+06	-51139.1	1005.82	-29753.3	0.000000	0.000000	6.893068	-0.006660	NaN	0.000000	0.001622	0.001704	28.0821	0.069770	0.001939	35.9819	-37.2522	15.6475	-0.005490	0.891890	-0.236134	-0.237455	-0.006660	35.9819	-0.235995	-497.59	1.338492E-5	NaN
519	1.000000	0.903268	7.37013e+06	-51139.1	1005.82	-29753.3	0.000000	0.000000	6.903124	-0.032563	NaN	0.000000	0.001614	0.001683	28.0822	0.090512	0.002102	43.0605	-35.2355	-164.684	-0.040092	0.901980	-0.226077	-0.227366	-0.032563	43.0605	-0.225510	-339.963	9.578425E-5	NaN
519	1.000000	0.913242	7.37013e+06	-51139.1	1005.82	-29753.3	0.000000	0.000000	6.913096	-0.074087	NaN	0.000000	0.001625	0.001712	28.0822	0.031878	0.002007	15.8866	-112.168	11.4483	0.037238	0.911890	-0.216103	-0.217455	-0.074087	15.8866	-0.212605	-211.319	0.000351	NaN
519	1.000000	0.923267	7.37013e+06	-51139.1	1005.82	-29753.3	0.000000	0.000000	6.923122	-0.048758	NaN	0.000000	0.001634	0.001733	28.0823	0.097061	0.001951	49.7475	55.6344	-167.74	-0.049241	0.921907	-0.206079	-0.207438	-0.048758	49.7475	-0.205343	-161.124	0.000303	NaN
519	1.000000	0.933246	7.37013e+06	-51139.1	1005.82	-29753.3	0.000000	0.000000	6.933099	-0.099793	NaN	0.000000	0.001619	0.001738	28.0822	0.091896	0.001984	46.3266	-137.231	12.8227	-0.070313	0.931926	-0.196100	-0.197419	-0.099793	46.3266	-0.194484	-106.82	0.000934	NaN
519	1.000000	0.943254	7.37013e+06	-51139.1	1005.82	-29753.3	0.000000	0.000000	6.943111	-0.018989	NaN	0.000000	0.001604	0.001722	28.0827	0.054678	0.001986	27.5339	88.5989	-166.943	0.036838	0.941941	-0.186091	-0.187404	-0.018989	27.5339	-0.185574	-75.8217	0.000250	NaN
519	1.000000	0.953245	7.37013e+06	-51139.1	1005.82	-29753.3	0.000000	0.000000	6.953100	-0.077933	NaN	0.000000	0.001590	0.001717	28.0822	0.063443	0.001890	33.5705	166.153	13.3506	-0.076166	0.951947	-0.176100	-0.177398	-0.077933	33.5705	-0.174359	-48.8597	0.001595	NaN
519	1.000000	0.963274	7.37013e+06	-51139.1	1005.82	-29753.3	0.000000	0.000000	6.963132	0.014581	NaN	0.000000	0.001623	0.001644	28.0823	0.091596	0.002020	45.3374	33.6541	-167.146	-0.054071	0.961933	-0.166071	-0.167412	0.014581	45.3374	-0.166312	-35.4256	-0.000412	NaN
519	1.000000	0.973282	7.37013e+06	-51139.1	1005.82	-29753.3	0.000000	0.000000	6.973137	-0.051883	NaN	0.000000	0.001592	0.001686	28.0823	0.095894	0.002055	46.667	-157.802	14.8481	0.060161	0.971914	-0.156063	-0.157431	-0.051883	46.667	-0.155230	-22.5274	0.002303	NaN
519	1.000000	0.983289	7.37013e+06	-51139.1	1005.82	-29753.3	0.000000	0.000000	6.983144	-0.059953	NaN	0.000000	0.001561	0.001716	28.0826	0.093469	0.002021	46.2533	91.2212	-166.36	0.006525	0.981999	-0.146057	-0.147346	-0.059953	46.2533	-0.145084	-14.7139	0.004075	NaN
519	1.000000	0.993293	7.37013e+06	-51139.1	1005.82	-29753.3	0.000000	0.000000	6.993147	-0.086886	NaN	0.000000	0.001620	0.001722	28.0819	0.049306	0.002070	23.8223	-144.337	12.2504	-0.080242	0.991926	-0.136052	-0.137419	-0.086886	23.8223	-0.133316	-8.831889	0.009838	NaN
519	1.000000	1.003270	7.37013e+06	-51139.1	1005.82	-29753.3	0.000000	0.000000	7.003127	-0.014923	NaN	0.000000	0.001571	0.001736	28.0814	0.105301	0.002052	51.3172	46.8689	-164.475	-0.003106	1.001927	-0.126075	-0.127418	-0.014923	51.3172	-0.125857	-6.322965	0.002360	NaN
519	1.000000	1.013302	7.37013e+06	-51139.1	1005.82	-29753.3	0.000000	0.000000	7.013158	-0.026706	NaN	0.000000	0.001589	0.001710	28.0813	0.097985	0.001873	52.3015	-117.422	14.7159	-0.055454	1.011927	-0.116043	-0.117418	-0.026706	52.3015	-0.115660	-3.941806	0.006775	NaN
519	1.000000	1.023285	7.37013e+06	-51139.1	1005.82	-29753.3	0.000000	0.000000	7.023141	-0.027136	NaN	0.000000	0.001551	0.001698	28.0813	0.044169	0.001951	22.6414	94.5586	-165.588	-0.097938	1.021984	-0.106060	-0.107361	-0.027136	22.6414	-0.105161	-2.369483	0.011452	NaN
519	1.000000	1.033353	7.37013e+06	-51139.1	1005.82	-29753.3	0.000000	0.000000	7.033209	-0.048443	NaN	0.000000	0.001563	0.001727	28.0813	0.115802	0.001994	58.0626	137.6	14.335	-0.101322	1.031877	-0.095992	-0.097468	-0.048443	58.0626	-0.095366	-1.437956	0.033689	NaN
519	1.000000	1.043278	7.37013e+06	-51139.1	1005.82	-29753.3	0.000000	0.000000	7.043137	0.053169	NaN	0.000000	0.001567	0.001739	28.0814	0.061875	0.002053	30.1434	169.69	-168.575	0.040225	1.041922	-0.086068	-0.087423	0.053169	30.1434	-0.087391	-0.937780	-0.056697	NaN
519	1.000000	1.053306	7.37013e+06	-51139.1	1005.82	-29753.3	0.000000	0.000000	7.053160	-0.076321	NaN	0.000000	0.001555	0.001733	28.0813	0.075437	0.002037	37.0271	-51.0004	13.909	-0.122802	1.051931	-0.076039	-0.077415	-0.076321	37.0271	-0.074493	-0.448109	0.170318	NaN
519	1.000000	1.063353	7.37013e+06	-51139.1	1005.82	-29753.3	0.000000	0.000000	7.063208	-0.061410	NaN	0.000000	0.001573	0.001718	28.0812	0.129765	0.001890	68.6524	35.028	-163.5	-0.067679	1.062010	-0.065992	-0.067335	-0.061410	68.6524	-0.065321	-0.254373	0.241417	NaN
519	1.000000	1.073328	7.37013e+06	-51139.1	1005.82	-29753.3	0.000000	0.000000	7.073182	-0.064692	NaN	0.000000	0.001587	0.001765	28.081	0.077762	0.002026	38.3839	-119.134	16.3309	-0.071450	1.071942	-0.056018	-0.057403	-0.064692	38.3839	-0.054753	-0.126634	0.510856	NaN
519	1.000000	1.083325	7.37013e+06	-51139.1	1005.82	-29753.3	0.000000	0.000000	7.083181	-0.034294	NaN	0.000000	0.001627	0.001734	28.0813	0.037903	0.001905	19.8929	106.079	-164.763	-0.118090	1.081998	-0.046020	-0.047347	-0.034294	19.8929	-0.044727	-0.063044	0.543969	NaN
519	1.000000	1.093331	7.37013e+06	-51139.1	1005.82	-29753.3	0.000000	0.000000	7.093189	0.007962	NaN	0.000000	0.001592	0.001753	28.0811	0.012337	0.002026	6.088551	-112.305	13.379	0.001031	1.091934	-0.036014	-0.037411	0.007962	6.088551	-0.036995	-0.036703	-0.216936	NaN
519	1.000000	1.103305	7.37013e+06	-51139.1	1005.82	-29753.3	0.000000	0.000000	7.103163	-0.005502	NaN	0.000000	0.001634	0.001698	28.081	0.051781	0.002070	25.0145	107.682	-166.158	-0.012373	1.101998	-0.026040	-0.027347	-0.005502	25.0145	-0.025875	-0.017787	0.309338	NaN
519	1.000000	1.113337	7.37013e+06	-51139.1	1005.82	-29753.3	0.000000	0.000000	7.113194	-0.004491	NaN	0.000000	0.001607	0.001674	28.0809	0.056360	0.001909	29.5252	62.7352	14.4541	-0.048156	1.111962	-0.016008	-0.017383	-0.004491	29.5252	-0.015894	-0.009818	0.457469	NaN
519	1.000000	1.123343	7.37013e+06	-51139.1	1005.82	-29753.3	0.000000	0.000000	7.123202	0.018337	NaN	0.000000	0.001628	0.001695	28.0813	0.132779	0.001981	67.0365	112.085	-167.219	0.009391	1.121988	-0.006002	-0.007358	0.018337	67.0365	-0.006207	-0.004162	-4.405314	NaN
519	1.000000	1.133307	7.37013e+06	-51139.1	1005.82	-29753.3	0.000000	0.000000	7.133169	0.111152	NaN	0.000000	0.001608	0.001718	28.081	0.294317	0.002057	143.106	29.0438	11.4495	0.016695	1.131940	0.003962	0.002595	0.111152	143.106	0.003380	0.002702	41.1359	2515.27
519	2.000000	1.142811	7.37013e+06	-51139.1	1005.82	-29753.3	0.000000	0.000000	7.142991	7.841623	NaN	0.000000	0.001619	0.001684	28.0824	8.353625	0.001743	4792.84	15.0379	-175.728	7.655089	1.141989	0.013466	0.012644	7.841623	4792.84	0.012239	0.011777	665.831	40350.2
519	2.000000	1.145481	7.37013e+06	-51139.1	1005.82	-29753.3	0.000000	0.000000	7.145802	11.2518	NaN	0.000000	0.001613	0.001699	28.0823	11.6202	0.001818	6390.46	5.892706	6.744722	10.4676	1.145127	0.016136	0.015782	11.2518	6390.46	0.014816	0.015041	748.099	47607.3
519	2.000000	1.147938	7.37013e+06	-51139.1	1005.82	-29753.3	0.000000	0.000000	7.148355	13.6088	NaN	0.000000	0.001632	0.001667	28.0825	13.8884	0.001840	7547.14	9.204567	-175.618	13.6252	1.147562	0.018593	0.018217	13.6088	7547.14	0.017241	0.018391	739.989	50846.2
519	2.000000	1.150462	7.37013e+06	-51139.1	1005.82	-29753.3	0.000000	0.000000	7.151067	18.1878	NaN	0.000000	0.001633	0.001691	28.0821	16.3064	0.001847	8828.76	7.845608	4.528368	17.2701	1.150046	0.021117	0.020701	18.1878	8828.76	0.019572	0.021874	831.494	54539.7
519	2.000000	1.152918	7.37013e+06	-51139.1	1005.82	-29753.3	0.000000	0.000000	7.153657	21.4403	NaN	0.000000	0.001620	0.001664	28.0824	18.3196	0.001656	11060.8	7.282561	-177.91	21.0317	1.152575	0.023573	0.023230	21.4403	11060.8	0.022119	0.025982	825.201	62693.8
519	2.000000	1.155353	7.37013e+06	-51139.1	1005.82	-29753.3	0.000000	0.000000	7.156381	28.4586	NaN	0.000000	0.001605	0.001651	28.0824	21.281	0.001761	12084.7	7.795573	0.467013	25.9407	1.155050	0.026008	0.025705	28.4586	12084.7	0.024242	0.029651	959.799	64119.8
519	2.000000	1.157899	7.37013e+06	-51139.1	1005.82	-29753.3	0.000000	0.000000	7.159088	32.3807	NaN	0.000000	0.001630	0.001684	28.0823	23.3798	0.001822	12832.3	3.566929	-175.195	31.2383	1.157623	0.028554	0.028278	32.3807	12832.3	0.026661	0.034108	949.37	63482.3
519	2.000000	1.160402	7.37013e+06	-51139.1	1005.82	-29753.3	0.000000	0.000000	7.161979	41.8262	NaN	0.000000	0.001603	0.001699	28.0819	26.4632	0.001822	14528.2	6.488431	0.028004	39.5195	1.160031	0.031057	0.030686	41.8262	14528.2	0.028897	0.038489	1086.7	67657.5
519	2.000000	1.162848	7.37013e+06	-51139.1	1005.82	-29753.3	0.000000	0.000000	7.164641	47.0751	NaN	0.000000	0.001624	0.001667	28.0823	28.9952	0.001732	16741.2	4.624647	179.852	45.9657	1.162621	0.033503	0.033276	47.0751	16741.2	0.031394	0.043682	1077.68	73182.5
519	2.000000	1.165394	7.37013e+06	-51139.1	1005.82	-29753.3	0.000000	0.000000	7.167519	55.1322	NaN	0.000000	0.001646	0.001731	28.0822	31.6333	0.001750	18074.8	3.615570	0.808270	54.7767	1.164980	0.036049	0.035635	55.1322	18074.8	0.033761	0.048901	1127.42	74677.1
519	2.000000	1.167858	7.37013e+06	-51139.1	1005.82	-29753.3	0.000000	0.000000	7.170315	63.2059	NaN	0.000000	0.001649	0.001709	28.0823	34.4824	0.001768	19501.5	2.490866	-179.141	62.619	1.167597	0.038513	0.038252	63.2059	19501.5	0.036082	0.054296	1164.1	76464.1
519	2.000000	1.170331	7.37013e+06	-51139.1	1005.82	-29753.3	0.000000	0.000000	7.173294	75.5156	NaN	0.000000	0.001629	0.001668	28.0823	36.6328	0.001803	20314.9	4.702452	-1.075079	71.8988	1.169916	0.040986	0.040571	75.5156	20314.9	0.038198	0.059454	1270.15	76119.8
519	2.000000	1.172812	7.37013e+06	-51139.1	1005.82	-29753.3	0.000000	0.000000	7.176063	82.5393	NaN	0.000000	0.001658	0.001662	28.0825	38.4707	0.001750	21984	1.140113	-178.799	79.6064	1.172565	0.043466	0.043219	82.5393	21984	0.040650	0.065720	1255.92	78348.5
519	2.000000	1.175328	7.37013e+06	-51139.1	1005.82	-29753.3	0.000000	0.000000	7.178884	89.9236	NaN	0.000000	0.001707	0.001650	28.0813	40.9407	0.001698	24112.6	3.928589	-2.260469	86.4669	1.174962	0.045983	0.045617	89.9236	24112.6	0.043186	0.072522	1239.95	81805.5
519	2.000000	1.177887	7.37013e+06	-51139.1	1005.82	-29753.3	0.000000	0.000000	7.181795	98.5053	NaN	0.000000	0.001708	0.001656	28.0811	44.2436	0.001796	24638.9	2.935365	178.176	99.4497	1.177566	0.048542	0.048221	98.5053	24638.9	0.045543	0.079137	1244.75	80021.2
519	2.000000	1.180382	7.37013e+06	-51139.1	1005.82	-29753.3	0.000000	0.000000	7.184677	107.922	NaN	0.000000	0.001691	0.001689	28.081	45.9669	0.001706	26952	3.593099	-2.837908	107.094	1.180113	0.051036	0.050768	107.922	26952	0.048033	0.086431	1248.64	83758.3
519	2.000000	1.182819	7.37013e+06	-51139.1	1005.82	-29753.3	0.000000	0.000000	7.187709	122.363	NaN	0.000000	0.001694	0.001706	28.0811	47.8949	0.001683	28459.5	1.947508	178.392	120.131	1.182466	0.053474	0.053121	122.363	28459.5	0.050250	0.093186	1313.1	85177.5
519	2.000000	1.185266	7.37013e+06	-51139.1	1005.82	-29753.3	0.000000	0.000000	7.190451	129.55	NaN	0.000000	0.001705	0.001663	28.0811	50.7236	0.001818	27895.3	4.232200	-3.963737	122.767	1.185018	0.055921	0.055673	129.55	27895.3	0.052438	0.100097	1294.25	80555.4
519	2.000000	1.187849	7.37013e+06	-51139.1	1005.82	-29753.3	0.000000	0.000000	7.193444	139.518	NaN	0.000000	0.001710	0.001670	28.0811	52.4532	0.001719	30514	0.998682	178.922	138.799	1.187583	0.058504	0.058238	139.518	30514	0.055075	0.108743	1283.01	84542
519	2.000000	1.190378	7.37013e+06	-51139.1	1005.82	-29753.3	0.000000	0.000000	7.196616	155.165	NaN	0.000000	0.001727	0.001679	28.0812	54.5257	0.001790	30460.1	5.018438	-4.487279	154.31	1.189988	0.061033	0.060642	155.165	30460.1	0.057212	0.116001	1337.62	81709.7
519	2.000000	1.192850	7.37013e+06	-51139.1	1005.82	-29753.3	0.000000	0.000000	7.199543	166.22	NaN	0.000000	0.001687	0.001684	28.0814	57.6951	0.001778	32440.5	7.389822	171.735	165.481	1.192518	0.063505	0.063173	166.22	32440.5	0.059662	0.124598	1334.05	83966.3
519	2.000000	1.195357	7.37013e+06	-51139.1	1005.82	-29753.3	0.000000	0.000000	7.202590	179.345	NaN	0.000000	0.001715	0.001653	28.081	59.6335	0.001860	32062.3	6.964170	-6.607672	181.551	1.194945	0.066012	0.065599	179.345	32062.3	0.061817	0.132403	1354.54	80504.4
519	2.000000	1.197830	7.37013e+06	-51139.1	1005.82	-29753.3	0.000000	0.000000	7.205726	195.486	NaN	0.000000	0.001696	0.001664	28.081	61.7885	0.001816	34023.9	7.524936	171.908	195.227	1.197509	0.068485	0.068164	195.486	34023.9	0.064175	0.141205	1384.41	82724
519	2.000000	1.200279	7.37013e+06	-51139.1	1005.82	-29753.3	0.000000	0.000000	7.208774	210.046	NaN	0.000000	0.001680	0.001703	28.0811	63.1464	0.001722	36670.7	5.669303	-6.811809	204.508	1.199843	0.070934	0.070498	210.046	36670.7	0.066638	0.150680	1393.99	86310.8
519	2.000000	1.202813	7.37013e+06	-51139.1	1005.82	-29753.3	0.000000	0.000000	7.211957	225.837	NaN	0.000000	0.001699	0.001657	28.0813	65.8117	0.001884	34940.7	5.690233	173.946	226.425	1.202514	0.073468	0.073169	225.837	34940.7	0.068620	0.158520	1424.66	80179.3
519	2.000000	1.205384	7.37013e+06	-51139.1	1005.82	-29753.3	0.000000	0.000000	7.214864	233.979	NaN	0.000000	0.001655	0.001674	28.0813	68.2195	0.001925	35445.9	5.307237	-5.694293	236.932	1.204975	0.076039	0.075630	233.979	35445.9	0.071088	0.168542	1388.25	78883.2
519	2.000000	1.207803	7.37013e+06	-51139.1	1005.82	-29753.3	0.000000	0.000000	7.217884	248.601	NaN	0.000000	0.001640	0.001704	28.0812	70.3775	0.001757	40066.4	5.039706	172.777	248.815	1.207549	0.078458	0.078204	248.601	40066.4	0.073805	0.179909	1381.82	86303.4
519	2.000000	1.210333	7.37013e+06	-51139.1	1005.82	-29753.3	0.000000	0.000000	7.221140	266.259	NaN	0.000000	0.001646	0.001715	28.083	72.5478	0.001795	40410.3	7.270883	-9.407516	263.288	1.209903	0.080988	0.080558	266.259	40410.3	0.076046	0.189548	1404.7	84801.9
519	2.000000	1.212767	7.37013e+06	-51139.1	1005.82	-29753.3	0.000000	0.000000	7.224398	286.292	NaN	0.000000	0.001608	0.001738	28.0822	74.1397	0.001778	41695.4	4.553195	173.676	283.045	1.212466	0.083422	0.083121	286.292	41695.4	0.078272	0.199356	1436.08	85319.1
519	2.000000	1.215268	7.37013e+06	-51139.1	1005.82	-29753.3	0.000000	0.000000	7.227492	300.696	NaN	0.000000	0.001625	0.001668	28.0825	78.2898	0.001744	44884.2	6.807099	-10.1309	295.165	1.214909	0.085923	0.085563	300.696	44884.2	0.080899	0.211226	1423.57	89226.1
519	2.000000	1.217866	7.37013e+06	-51139.1	1005.82	-29753.3	0.000000	0.000000	7.230862	319.494	NaN	0.000000	0.001644	0.001601	28.0823	80.577	0.001778	45308.4	3.243630	173.957	319.808	1.217594	0.088521	0.088249	319.494	45308.4	0.083232	0.222042	1438.89	87848.4
519	2.000000	1.220352	7.37013e+06	-51139.1	1005.82	-29753.3	0.000000	0.000000	7.234124	338.362	NaN	0.000000	0.001620	0.001595	28.0827	82.7667	0.001805	45848.3	4.302715	-6.874341	337.022	1.219989	0.091007	0.090644	338.362	45848.3	0.085472	0.232656	1454.34	86843.8
519	2.000000	1.222728	7.37013e+06	-51139.1	1005.82	-29753.3	0.000000	0.000000	7.237167	354.583	NaN	0.000000	0.001616	0.001613	28.0823	85.1309	0.001768	48149.3	3.585754	172.843	348.994	1.222417	0.093383	0.093072	354.583	48149.3	0.087860	0.244233	1451.82	89014.5
519	2.000000	1.225242	7.37013e+06	-51139.1	1005.82	-29753.3	0.000000	0.000000	7.240384	371.691	NaN	0.000000	0.001620	0.001630	28.0826	88.2253	0.001799	49036.3	1.201308	-4.472999	366.48	1.224885	0.095897	0.095540	371.691	49036.3	0.090212	0.255889	1452.55	88565.6
519	2.000000	1.227846	7.37013e+06	-51139.1	1005.82	-29753.3	0.000000	0.000000	7.243681	388.529	NaN	0.000000	0.001611	0.001644	28.0823	92.0382	0.001810	50849.5	7.291255	169.129	391.906	1.227548	0.098501	0.098202	388.529	50849.5	0.092770	0.268858	1445.11	89598.1
519	2.000000	1.230192	7.37013e+06	-51139.1	1005.82	-29753.3	0.000000	0.000000	7.247005	412.319	NaN	0.000000	0.001611	0.001616	28.0825	94.2067	0.001814	51941.4	10.9292	-14.6647	404.443	1.229813	0.100846	0.100468	412.319	51941.4	0.094893	0.279844	1473.39	89707.5
519	2.000000	1.232816	7.37013e+06	-51139.1	1005.82	-29753.3	0.000000	0.000000	7.250616	436.308	NaN	0.000000	0.001597	0.001639	28.0823	94.6661	0.001760	53775.9	5.853911	170.142	436.56	1.232449	0.103471	0.103103	436.308	53775.9	0.097386	0.293011	1489.05	90765.1
519	2.000000	1.235212	7.37013e+06	-51139.1	1005.82	-29753.3	0.000000	0.000000	7.253408	445.946	NaN	0.000000	0.001696	0.001633	28.0824	96.5184	0.001750	55162.8	3.590757	-8.167921	439.373	1.234998	0.105867	0.105653	445.946	55162.8	0.099803	0.306047	1457.12	91101.4
519	2.000000	1.237843	7.37013e+06	-51139.1	1005.82	-29753.3	0.000000	0.000000	7.256431	455.479	NaN	0.000000	0.001693	0.001629	28.0824	100.61	0.001747	57598.1	5.299904	169.752	456.942	1.237659	0.108498	0.108313	455.479	57598.1	0.102567	0.321274	1417.73	92841.7
519	2.000000	1.240241	7.37013e+06	-51139.1	1005.82	-29753.3	0.000000	0.000000	7.260494	495.96	NaN	0.000000	0.001644	0.001618	28.0822	100.857	0.001719	58659.8	1.622152	-5.718884	489.034	1.239860	0.110896	0.110515	495.96	58659.8	0.104554	0.332443	1491.87	92951.3
519	2.000000	1.241352	7.37013e+06	-51139.1	1005.82	-29753.3	0.000000	0.000000	7.261409	491.212	NaN	0.000000	0.001685	0.001632	28.0828	104.306	0.001782	58546.1	4.329665	-9.017193	491.024	1.241133	0.112006	0.111787	491.212	58546.1	0.105714	0.339039	1448.83	91864.1