File: remote_trans/data/nanoindenter/0828-1/data/Data_2025-08-06,11h17m57s/2025-07-22_16-23-58_1_624.txt
2025-07-22, 16:23:58, 1
Index	Phase	Displacement	Time	Pos X	Pos Y	Pos Z	Rot A	Rot B	Piezo Z	Force A	Force B	Gripper	Voltage A	Voltage B	Temperature	Amplitude force	Amplitude pos	Stiffness	Phase shift	Phase excitation	Force A raw	Displacement raw	HMax	HMax raw	Real Force	Real Stiffness	Contact Depth	Area	Hardness	Reduced Mod.
[#]	[#]	[um]	[s]	[um]	[um]	[um]	[m°]	[m°]	[um]	[uN]	[uN]	[V]	[V]	[V]	[°C]	[uN]	[um]	[N/m]	[°]	[°]	[uN]	[um]	[um]	[um]	[uN]	[N/m]	[um]	[um^2]	[MPa]	[MPa]
624	1.000000	0.001859	7.37115e+06	-45889.1	1005.82	-29771	0.000000	0.000000	6.002810	0.005561	NaN	0.000000	0.001661	0.001722	28.0818	0.148730	0.000956	155.59	18.3045	-166.227	0.024741	0.000593	-1.084908	-1.086174	0.005561	155.59	-1.084935	-3.146241E+14	-1.767499E-17	NaN
624	1.000000	0.009810	7.37115e+06	-45889.1	1005.82	-29771	0.000000	0.000000	6.010757	-0.087068	NaN	0.000000	0.001641	0.001742	28.0818	0.136183	0.001011	134.743	137.935	-162.16	-0.089755	0.008512	-1.076957	-1.078255	-0.087068	134.743	-1.076473	-2.421816E+14	3.595162E-16	NaN
624	1.000000	0.017785	7.37115e+06	-45889.1	1005.82	-29771	0.000000	0.000000	6.018741	0.139134	NaN	0.000000	0.001613	0.001705	28.0817	0.036113	0.001591	22.7046	-128.846	-161.248	0.036134	0.016514	-1.068982	-1.070253	0.139134	22.7046	-1.073578	-2.214391E+14	-6.283187E-16	NaN
624	1.000000	0.025822	7.37115e+06	-45889.1	1005.82	-29771	0.000000	0.000000	6.026772	-0.006937	NaN	0.000000	0.001608	0.001745	28.0817	0.064047	0.001846	34.7015	-105.302	-163.678	-0.035559	0.024494	-1.060945	-1.062273	-0.006937	34.7015	-1.060795	-1.491087E+14	4.652218E-17	NaN
624	1.000000	0.033786	7.37115e+06	-45889.1	1005.82	-29771	0.000000	0.000000	6.034738	0.037780	NaN	0.000000	0.001636	0.001729	28.0804	0.165401	0.001897	87.2094	3.714251	-166.13	0.014494	0.032449	-1.052981	-1.054318	0.037780	87.2094	-1.053306	-1.182645E+14	-3.194569E-16	NaN
624	1.000000	0.041793	7.37115e+06	-45889.1	1005.82	-29771	0.000000	0.000000	6.042743	-0.008402	NaN	0.000000	0.001629	0.001770	28.0806	0.084141	0.002081	40.4272	119.586	-164.952	0.020951	0.040489	-1.044974	-1.046278	-0.008402	40.4272	-1.044818	-9.093954E+13	9.239419E-17	NaN
624	1.000000	0.049793	7.37115e+06	-45889.1	1005.82	-29771	0.000000	0.000000	6.050745	0.028624	NaN	0.000000	0.001622	0.001723	28.0808	0.071311	0.002090	34.1278	-145.12	-166.588	0.071034	0.048478	-1.036974	-1.038289	0.028624	34.1278	-1.037603	-7.273319E+13	-3.935492E-16	NaN
624	1.000000	0.057798	7.37115e+06	-45889.1	1005.82	-29771	0.000000	0.000000	6.058745	-0.074695	NaN	0.000000	0.001623	0.001690	28.0808	0.052687	0.001905	27.6507	-152.327	-166.323	-0.082222	0.056488	-1.028969	-1.030279	-0.074695	27.6507	-1.026943	-5.228306E+13	1.428671E-15	NaN
624	1.000000	0.065823	7.37115e+06	-45889.1	1005.82	-29771	0.000000	0.000000	6.066772	-0.014468	NaN	0.000000	0.001725	0.001740	28.0805	0.047208	0.001953	24.1685	-75.3661	-164.863	0.000296	0.064460	-1.020945	-1.022307	-0.014468	24.1685	-1.020496	-4.281751E+13	3.379017E-16	NaN
624	1.000000	0.073812	7.37116e+06	-45889.1	1005.82	-29771	0.000000	0.000000	6.074765	0.064072	NaN	0.000000	0.001666	0.001721	28.0804	0.045363	0.002106	21.5438	115.337	-167.251	0.124521	0.072467	-1.012955	-1.014301	0.064072	21.5438	-1.015185	-3.632179E+13	-1.764017E-15	NaN
624	1.000000	0.081818	7.37116e+06	-45889.1	1005.82	-29771	0.000000	0.000000	6.082767	-0.035268	NaN	0.000000	0.001687	0.001735	28.0808	0.049900	0.002012	24.7973	129.014	-164.671	-0.055392	0.080541	-1.004949	-1.006226	-0.035268	24.7973	-1.003883	-2.558831E+13	1.378267E-15	NaN
624	1.000000	0.089802	7.37116e+06	-45889.1	1005.82	-29771	0.000000	0.000000	6.090754	0.057032	NaN	0.000000	0.001687	0.001727	28.0807	0.006248	0.001952	3.200721	-17.7353	-163.735	0.141321	0.088523	-0.996965	-0.998244	0.057032	3.200721	-1.010329	-3.124742E+13	-1.825181E-15	NaN
624	1.000000	0.097815	7.37116e+06	-45889.1	1005.82	-29771	0.000000	0.000000	6.098766	0.007038	NaN	0.000000	0.001683	0.001717	28.081	0.024006	0.001865	12.8707	112.552	-164.718	-0.043274	0.096526	-0.988952	-0.990241	0.007038	12.8707	-0.989362	-1.631251E+13	-4.314389E-16	NaN
624	1.000000	0.105819	7.37116e+06	-45889.1	1005.82	-29771	0.000000	0.000000	6.106767	-0.050626	NaN	0.000000	0.001640	0.001689	28.0805	0.102551	0.001881	54.524	115.117	-162.013	-0.046694	0.104500	-0.980948	-0.982268	-0.050626	54.524	-0.980252	-1.229705E+13	4.116889E-15	NaN
624	1.000000	0.113814	7.37116e+06	-45889.1	1005.82	-29771	0.000000	0.000000	6.114766	0.045942	NaN	0.000000	0.001611	0.001739	28.0806	0.024670	0.001994	12.3734	-77.4583	-161.366	-0.009021	0.112479	-0.972953	-0.974288	0.045942	12.3734	-0.975738	-1.069012E+13	-4.297590E-15	NaN
624	1.000000	0.121837	7.37116e+06	-45889.1	1005.82	-29771	0.000000	0.000000	6.122786	-0.036710	NaN	0.000000	0.001621	0.001707	28.0809	0.093180	0.001956	47.6263	80.8996	-167.176	-0.009700	0.120585	-0.964930	-0.966182	-0.036710	47.6263	-0.964352	-7.508186E+12	4.889393E-15	NaN
624	1.000000	0.129839	7.37116e+06	-45889.1	1005.82	-29771	0.000000	0.000000	6.130789	-0.006543	NaN	0.000000	0.001656	0.001698	28.0808	0.037480	0.002017	18.5841	-97.402	-170.123	-0.033332	0.128492	-0.956928	-0.958275	-0.006543	18.5841	-0.956664	-5.914164E+12	1.106352E-15	NaN
624	1.000000	0.137843	7.37116e+06	-45889.1	1005.82	-29771	0.000000	0.000000	6.138793	-0.006529	NaN	0.000000	0.001637	0.001704	28.0811	0.037452	0.001910	19.6049	-163.102	-164.867	0.007100	0.136478	-0.948924	-0.950289	-0.006529	19.6049	-0.948674	-4.614731E+12	1.414921E-15	NaN
624	1.000000	0.145841	7.37116e+06	-45889.1	1005.82	-29771	0.000000	0.000000	6.146791	-0.009388	NaN	0.000000	0.001658	0.001720	28.0804	0.096592	0.001988	48.5912	-114.369	-164.129	-0.014564	0.144523	-0.940926	-0.942244	-0.009388	48.5912	-0.940781	-3.611390E+12	2.599542E-15	NaN
624	1.000000	0.153839	7.37116e+06	-45889.1	1005.82	-29771	0.000000	0.000000	6.154788	-0.023546	NaN	0.000000	0.001658	0.001693	28.0807	0.059013	0.002188	26.972	-94.1396	-164.49	-0.035707	0.152500	-0.932928	-0.934267	-0.023546	26.972	-0.932274	-2.772562E+12	8.492374E-15	NaN
624	1.000000	0.161811	7.37116e+06	-45889.1	1005.82	-29771	0.000000	0.000000	6.162760	-0.035156	NaN	0.000000	0.001666	0.001704	28.0807	0.058760	0.001950	30.1266	-120.289	-166.058	0.000327	0.160516	-0.924957	-0.926251	-0.035156	30.1266	-0.924081	-2.149346E+12	1.635670E-14	NaN
624	1.000000	0.169833	7.37116e+06	-45889.1	1005.82	-29771	0.000000	0.000000	6.170782	-0.051399	NaN	0.000000	0.001668	0.001703	28.0817	0.085208	0.002023	42.1212	-93.9337	-166.898	0.025542	0.168528	-0.916934	-0.918240	-0.051399	42.1212	-0.916019	-1.672812E+12	3.072615E-14	NaN
624	1.000000	0.177856	7.37116e+06	-45889.1	1005.82	-29771	0.000000	0.000000	6.178806	-0.023341	NaN	0.000000	0.001684	0.001702	28.0821	0.081842	0.002145	38.1616	9.221080	-165.85	-0.044355	0.176540	-0.908911	-0.910227	-0.023341	38.1616	-0.908452	-1.322078E+12	1.765479E-14	NaN
624	1.000000	0.185837	7.37116e+06	-45889.1	1005.82	-29771	0.000000	0.000000	6.186789	0.044482	NaN	0.000000	0.001686	0.001726	28.0818	0.012856	0.002075	6.197158	24.4394	-164.543	0.024219	0.184557	-0.900930	-0.902210	0.044482	6.197158	-0.906314	-1.236991E+12	-3.595957E-14	NaN
624	1.000000	0.193868	7.37116e+06	-45889.1	1005.82	-29771	0.000000	0.000000	6.194817	-0.027909	NaN	0.000000	0.001647	0.001733	28.0819	0.073624	0.001992	36.967	-10.7498	-165.516	-0.004386	0.192623	-0.892899	-0.894144	-0.027909	36.967	-0.892333	-8.006685E+11	3.485671E-14	NaN
624	1.000000	0.201848	7.37116e+06	-45889.1	1005.82	-29771	0.000000	0.000000	6.202796	-0.058540	NaN	0.000000	0.001661	0.001709	28.082	0.088926	0.002011	44.211	-71.024	-166.298	-0.022863	0.200582	-0.884919	-0.886185	-0.058540	44.211	-0.883926	-6.163144E+11	9.498433E-14	NaN
624	1.000000	0.209858	7.37116e+06	-45889.1	1005.82	-29771	0.000000	0.000000	6.210808	-0.001946	NaN	0.000000	0.001683	0.001702	28.082	0.082834	0.001987	41.6945	-8.951722	-167.133	0.018647	0.208555	-0.876909	-0.878212	-0.001946	41.6945	-0.876874	-4.948049E+11	3.933746E-15	NaN
624	1.000000	0.217856	7.37116e+06	-45889.1	1005.82	-29771	0.000000	0.000000	6.218804	-0.034618	NaN	0.000000	0.001675	0.001698	28.0821	0.014365	0.001918	7.489055	150.309	-162.963	-0.038610	0.216516	-0.868912	-0.870251	-0.034618	7.489055	-0.865445	-3.465843E+11	9.988222E-14	NaN
624	1.000000	0.225909	7.37116e+06	-45889.1	1005.82	-29771	0.000000	0.000000	6.226858	-0.025369	NaN	0.000000	0.001682	0.001735	28.082	0.049454	0.001966	25.1552	66.7766	-166.282	0.082230	0.224538	-0.860858	-0.862230	-0.025369	25.1552	-0.860102	-2.934290E+11	8.645736E-14	NaN
624	1.000000	0.233878	7.37116e+06	-45889.1	1005.82	-29771	0.000000	0.000000	6.234826	-0.052492	NaN	0.000000	0.001685	0.001738	28.0821	0.102103	0.002026	50.3912	63.4712	-164.841	-0.012476	0.232539	-0.852889	-0.854228	-0.052492	50.3912	-0.852108	-2.287078E+11	2.295147E-13	NaN
624	1.000000	0.241869	7.37116e+06	-45889.1	1005.82	-29771	0.000000	0.000000	6.242820	0.016489	NaN	0.000000	0.001685	0.001748	28.0818	0.095707	0.001925	49.7109	-63.7442	-165.659	-0.005659	0.240562	-0.844898	-0.846205	0.016489	49.7109	-0.845147	-1.840805E+11	-8.957446E-14	NaN
624	1.000000	0.249899	7.37116e+06	-45889.1	1005.82	-29771	0.000000	0.000000	6.250850	0.033106	NaN	0.000000	0.001701	0.001731	28.0821	0.032769	0.002016	16.2567	176.622	-163.431	0.038942	0.248590	-0.836868	-0.838177	0.033106	16.2567	-0.838396	-1.491277E+11	-2.219956E-13	NaN
624	1.000000	0.257870	7.37116e+06	-45889.1	1005.82	-29771	0.000000	0.000000	6.258820	-0.026543	NaN	0.000000	0.001656	0.001745	28.0819	0.082103	0.002164	37.9425	144.116	-166.689	-0.004805	0.256599	-0.828897	-0.830168	-0.026543	37.9425	-0.828372	-1.090731E+11	2.433503E-13	NaN
624	1.000000	0.265875	7.37116e+06	-45889.1	1005.82	-29771	0.000000	0.000000	6.266823	-0.040740	NaN	0.000000	0.001707	0.001749	28.0818	0.050231	0.001887	26.6152	156.498	-163.508	-0.031480	0.264544	-0.820892	-0.822224	-0.040740	26.6152	-0.819744	-8.331915E+10	4.889626E-13	NaN
624	1.000000	0.273860	7.37116e+06	-45889.1	1005.82	-29771	0.000000	0.000000	6.274810	-0.013900	NaN	0.000000	0.001705	0.001754	28.0821	0.102294	0.001868	54.7536	-61.4973	-167.919	0.026193	0.272558	-0.812907	-0.814209	-0.013900	54.7536	-0.812716	-6.689962E+10	2.077711E-13	NaN
624	1.000000	0.281899	7.37116e+06	-45889.1	1005.82	-29771	0.000000	0.000000	6.282849	0.010538	NaN	0.000000	0.001676	0.001691	28.0821	0.052719	0.001843	28.6026	108.966	-164.639	0.063674	0.280592	-0.804869	-0.806175	0.010538	28.6026	-0.805145	-5.280722E+10	-1.995643E-13	NaN
624	1.000000	0.289894	7.37116e+06	-45889.1	1005.82	-29771	0.000000	0.000000	6.290842	-0.063209	NaN	0.000000	0.001669	0.001670	28.082	0.113238	0.002043	55.438	89.6928	-165.854	-0.016383	0.288627	-0.796873	-0.798140	-0.063209	55.438	-0.796018	-3.970125E+10	1.592105E-12	NaN
624	1.000000	0.297881	7.37116e+06	-45889.1	1005.82	-29771	0.000000	0.000000	6.298831	-0.005238	NaN	0.000000	0.001693	0.001691	28.0819	0.100995	0.002091	48.3057	113.068	-164.981	-0.006834	0.296584	-0.788886	-0.790183	-0.005238	48.3057	-0.788805	-3.168459E+10	1.653224E-13	NaN
624	1.000000	0.305926	7.37116e+06	-45889.1	1005.82	-29771	0.000000	0.000000	6.306874	-0.055346	NaN	0.000000	0.001685	0.001707	28.0809	0.113941	0.002075	54.9218	-95.9726	-162.554	-0.017855	0.304616	-0.780841	-0.782151	-0.055346	54.9218	-0.780086	-2.412097E+10	2.294505E-12	NaN
624	1.000000	0.313899	7.37116e+06	-45889.1	1005.82	-29771	0.000000	0.000000	6.314849	0.010767	NaN	0.000000	0.001649	0.001684	28.0808	0.058251	0.001989	29.2848	-6.980117	-165.967	0.009149	0.312635	-0.772868	-0.774132	0.010767	29.2848	-0.773144	-1.941119E+10	-5.546874E-13	NaN
624	1.000000	0.321927	7.37116e+06	-45889.1	1005.82	-29771	0.000000	0.000000	6.322876	-0.048873	NaN	0.000000	0.001668	0.001693	28.0804	0.111117	0.002094	53.0535	-83.9138	-163.211	0.029804	0.320547	-0.764840	-0.766220	-0.048873	53.0535	-0.764149	-1.464674E+10	3.336779E-12	NaN
624	1.000000	0.329890	7.37116e+06	-45889.1	1005.82	-29771	0.000000	0.000000	6.330842	0.028503	NaN	0.000000	0.001692	0.001689	28.0808	0.031478	0.001934	16.2782	-174.18	-161.169	-0.043540	0.328597	-0.756877	-0.758170	0.028503	16.2782	-0.758190	-1.215297E+10	-2.345362E-12	NaN
624	1.000000	0.337944	7.37116e+06	-45889.1	1005.82	-29771	0.000000	0.000000	6.338892	-0.048471	NaN	0.000000	0.001648	0.001697	28.0806	0.073174	0.001936	37.8043	-107.003	-164.813	0.029709	0.336650	-0.748824	-0.750117	-0.048471	37.8043	-0.747862	-8.792526E+9	5.512757E-12	NaN
624	1.000000	0.345895	7.37116e+06	-45889.1	1005.82	-29771	0.000000	0.000000	6.346843	-0.061580	NaN	0.000000	0.001665	0.001724	28.0811	0.114099	0.002074	55.0172	-111.843	-167.043	-0.070479	0.344612	-0.740872	-0.742155	-0.061580	55.0172	-0.740033	-6.878688E+9	8.952271E-12	NaN
624	1.000000	0.353930	7.37116e+06	-45889.1	1005.82	-29771	0.000000	0.000000	6.354878	-0.042764	NaN	0.000000	0.001728	0.001679	28.0809	0.049946	0.002060	24.2396	-53.0951	-165.684	-0.078152	0.352586	-0.732837	-0.734181	-0.042764	24.2396	-0.731514	-5.265568E+9	8.121420E-12	NaN
624	1.000000	0.361941	7.37116e+06	-45889.1	1005.82	-29771	0.000000	0.000000	6.362891	0.002554	NaN	0.000000	0.001752	0.001684	28.0806	0.055405	0.001919	28.8658	125.474	-163.777	-0.009857	0.360595	-0.724826	-0.726172	0.002554	28.8658	-0.724893	-4.277475E+9	-5.971730E-13	NaN
624	1.000000	0.369943	7.37116e+06	-45889.1	1005.82	-29771	0.000000	0.000000	6.370895	0.021766	NaN	0.000000	0.001730	0.001697	28.0808	0.116567	0.001991	58.5401	-151.047	-164.745	0.030969	0.368624	-0.716824	-0.718143	0.021766	58.5401	-0.717103	-3.349316E+9	-6.498646E-12	NaN
624	1.000000	0.377945	7.37116e+06	-45889.1	1005.82	-29771	0.000000	0.000000	6.378895	-0.012807	NaN	0.000000	0.001697	0.001705	28.0807	0.062476	0.001874	33.3445	-45.2578	-166.644	-0.009445	0.376660	-0.708822	-0.710107	-0.012807	33.3445	-0.708534	-2.558854E+9	5.004958E-12	NaN
624	1.000000	0.385933	7.37116e+06	-45889.1	1005.82	-29771	0.000000	0.000000	6.386879	-0.092165	NaN	0.000000	0.001706	0.001706	28.0807	0.066631	0.002014	33.0824	-133.272	-163.599	-0.080442	0.384586	-0.700834	-0.702181	-0.092165	33.0824	-0.698745	-1.881003E+9	4.899760E-11	NaN
624	1.000000	0.393904	7.37116e+06	-45889.1	1005.82	-29771	0.000000	0.000000	6.394854	-0.012864	NaN	0.000000	0.001715	0.001702	28.0806	0.045454	0.002046	22.2163	-51.5398	-162.353	-0.015510	0.392642	-0.692863	-0.694126	-0.012864	22.2163	-0.692429	-1.542070E+9	8.342047E-12	NaN
624	1.000000	0.401917	7.37116e+06	-45889.1	1005.82	-29771	0.000000	0.000000	6.402863	-0.088860	NaN	0.000000	0.001721	0.001708	28.0809	0.095881	0.002120	45.226	152.433	-164.326	-0.062642	0.400631	-0.684850	-0.686136	-0.088860	45.226	-0.683377	-1.159796E+9	7.661726E-11	NaN
624	1.000000	0.409933	7.37116e+06	-45889.1	1005.82	-29771	0.000000	0.000000	6.410882	-0.045110	NaN	0.000000	0.001658	0.001708	28.0809	0.095528	0.002008	47.5798	121.207	-165.879	-0.081781	0.408692	-0.676834	-0.678075	-0.045110	47.5798	-0.676123	-9.229458E+8	4.887565E-11	NaN
624	1.000000	0.417946	7.37116e+06	-45889.1	1005.82	-29771	0.000000	0.000000	6.418898	0.050476	NaN	0.000000	0.001698	0.001715	28.0805	0.057144	0.001961	29.1445	-69.6187	-162.107	0.012343	0.416611	-0.668821	-0.670156	0.050476	29.1445	-0.670120	-7.638950E+8	-6.607721E-11	NaN
624	1.000000	0.425947	7.37116e+06	-45889.1	1005.82	-29771	0.000000	0.000000	6.426898	0.002434	NaN	0.000000	0.001707	0.001693	28.0804	0.083567	0.001897	44.0422	15.5498	-166.78	0.024470	0.424637	-0.660820	-0.662130	0.002434	44.0422	-0.660861	-5.705154E+8	-4.266292E-12	NaN
624	1.000000	0.433963	7.37116e+06	-45889.1	1005.82	-29771	0.000000	0.000000	6.434912	-0.017597	NaN	0.000000	0.001692	0.001708	28.0803	0.131349	0.002068	63.524	159.628	-166.433	-0.069600	0.432646	-0.652804	-0.654121	-0.017597	63.524	-0.652597	-4.395717E+8	4.003181E-11	NaN
624	1.000000	0.441952	7.37116e+06	-45889.1	1005.82	-29771	0.000000	0.000000	6.442900	-0.068752	NaN	0.000000	0.001690	0.001673	28.0816	0.090724	0.002053	44.1935	155.71	-163.23	-0.017276	0.440657	-0.644815	-0.646110	-0.068752	44.1935	-0.643648	-3.313870E+8	2.074684E-10	NaN
624	1.000000	0.449967	7.37116e+06	-45889.1	1005.82	-29771	0.000000	0.000000	6.450916	-0.015640	NaN	0.000000	0.001658	0.001713	28.0819	0.079409	0.001938	40.9721	-52.35	-165.262	0.031413	0.448665	-0.636801	-0.638102	-0.015640	40.9721	-0.636514	-2.645192E+8	5.912591E-11	NaN
624	1.000000	0.457964	7.37116e+06	-45889.1	1005.82	-29771	0.000000	0.000000	6.458915	-0.005316	NaN	0.000000	0.001650	0.001721	28.0817	0.092179	0.002035	45.2858	150.5	-165.672	-0.058324	0.456702	-0.628803	-0.630065	-0.005316	45.2858	-0.628715	-2.067148E+8	2.571636E-11	NaN
624	1.000000	0.465982	7.37116e+06	-45889.1	1005.82	-29771	0.000000	0.000000	6.466931	-0.022289	NaN	0.000000	0.001660	0.001707	28.0818	0.017168	0.001940	8.849276	14.0741	-165.318	0.036518	0.464648	-0.620785	-0.622119	-0.022289	8.849276	-0.618896	-1.515176E+8	1.471060E-10	NaN
624	1.000000	0.473980	7.37116e+06	-45889.1	1005.82	-29771	0.000000	0.000000	6.474932	0.031544	NaN	0.000000	0.001619	0.001688	28.0817	0.065129	0.002017	32.283	174.633	-168.22	-0.019418	0.472696	-0.612787	-0.614072	0.031544	32.283	-0.613520	-1.278015E+8	-2.468169E-10	NaN
624	1.000000	0.481985	7.37116e+06	-45889.1	1005.82	-29771	0.000000	0.000000	6.482935	-0.007855	NaN	0.000000	0.001635	0.001684	28.0817	0.040677	0.001933	21.0484	-62.8323	-166.474	0.008918	0.480662	-0.604783	-0.606105	-0.007855	21.0484	-0.604503	-9.604133E+7	8.178325E-11	NaN
624	1.000000	0.489976	7.37116e+06	-45889.1	1005.82	-29771	0.000000	0.000000	6.490926	-0.010461	NaN	0.000000	0.001625	0.001657	28.0819	0.041908	0.001935	21.6608	-19.9956	-164.326	-0.030968	0.488654	-0.596791	-0.598114	-0.010461	21.6608	-0.596429	-7.434751E+7	1.407000E-10	NaN
624	1.000000	0.497946	7.37116e+06	-45889.1	1005.82	-29771	0.000000	0.000000	6.498895	-0.029273	NaN	0.000000	0.001643	0.001685	28.0819	0.079926	0.001854	43.1081	136.163	-161.789	0.063881	0.496695	-0.588822	-0.590072	-0.029273	43.1081	-0.588312	-5.746422E+7	5.094104E-10	NaN
624	1.000000	0.505987	7.37116e+06	-45889.1	1005.82	-29771	0.000000	0.000000	6.506935	-0.049680	NaN	0.000000	0.001680	0.001682	28.0818	0.093783	0.002048	45.7947	-86.3287	-168.309	-0.015103	0.504698	-0.580781	-0.582069	-0.049680	45.7947	-0.579967	-4.408295E+7	1.126974E-9	NaN
624	1.000000	0.513986	7.37116e+06	-45889.1	1005.82	-29771	0.000000	0.000000	6.514936	0.001552	NaN	0.000000	0.001669	0.001719	28.0817	0.031757	0.001960	16.2028	67.5937	-162.957	0.106445	0.512647	-0.572781	-0.574120	0.001552	16.2028	-0.572853	-3.515996E+7	-4.415170E-11	NaN
624	1.000000	0.522023	7.37116e+06	-45889.1	1005.82	-29771	0.000000	0.000000	6.522974	0.018259	NaN	0.000000	0.001591	0.001708	28.082	0.049114	0.002007	24.473	8.794371	-164.497	-0.054536	0.520639	-0.564744	-0.566128	0.018259	24.473	-0.565303	-2.765159E+7	-6.603242E-10	NaN
624	1.000000	0.530008	7.37116e+06	-45889.1	1005.82	-29771	0.000000	0.000000	6.530959	0.017508	NaN	0.000000	0.001637	0.001661	28.0818	0.087840	0.002037	43.1273	137.013	-166.538	-0.061297	0.528731	-0.556759	-0.558037	0.017508	43.1273	-0.557063	-2.126890E+7	-8.231566E-10	NaN
624	1.000000	0.538010	7.37116e+06	-45889.1	1005.82	-29771	0.000000	0.000000	6.538961	0.008002	NaN	0.000000	0.001656	0.001671	28.0817	0.063389	0.001961	32.3238	106.241	-161.49	-0.039877	0.536636	-0.548757	-0.550132	0.008002	32.3238	-0.548942	-1.641745E+7	-4.874305E-10	NaN
624	1.000000	0.546011	7.37116e+06	-45889.1	1005.82	-29771	0.000000	0.000000	6.546963	0.019216	NaN	0.000000	0.001633	0.001660	28.0819	0.028043	0.001962	14.2935	-52.7025	-164.803	0.077804	0.544731	-0.540756	-0.542036	0.019216	14.2935	-0.541764	-1.305633E+7	-1.471799E-9	NaN
624	1.000000	0.554023	7.37116e+06	-45889.1	1005.82	-29771	0.000000	0.000000	6.554974	0.015150	NaN	0.000000	0.001640	0.001698	28.0818	0.064447	0.002028	31.7712	69.1893	-165.289	0.023471	0.552715	-0.532744	-0.534052	0.015150	31.7712	-0.533101	-9.90005e+06	-1.530322E-9	NaN
624	1.000000	0.562016	7.37116e+06	-45889.1	1005.82	-29771	0.000000	0.000000	6.562967	0.013039	NaN	0.000000	0.001619	0.001715	28.0818	0.091455	0.001974	46.3204	4.500105	-163.311	0.057583	0.560676	-0.524752	-0.526091	0.013039	46.3204	-0.524963	-7.63119e+06	-1.708603E-9	NaN
624	1.000000	0.570022	7.37116e+06	-45889.1	1005.82	-29771	0.000000	0.000000	6.570974	0.037345	NaN	0.000000	0.001569	0.001688	28.0819	0.038456	0.002078	18.5024	22.828	-164.113	0.043697	0.568715	-0.516745	-0.518052	0.037345	18.5024	-0.518259	-6.15719e+06	-6.065225E-9	NaN
624	1.000000	0.578017	7.37116e+06	-45889.1	1005.82	-29771	0.000000	0.000000	6.578969	0.049230	NaN	0.000000	0.001601	0.001669	28.0808	0.066128	0.001906	34.6908	141.705	-164.688	-0.038568	0.576644	-0.508750	-0.510123	0.049230	34.6908	-0.509815	-4.69714e+06	-1.048075E-8	NaN
624	1.000000	0.586021	7.37116e+06	-45889.1	1005.82	-29771	0.000000	0.000000	6.586969	-0.061113	NaN	0.000000	0.001586	0.001701	28.081	0.150206	0.001925	78.0429	43.8785	-165.469	-0.037523	0.584699	-0.500746	-0.502068	-0.061113	78.0429	-0.500159	-3.44535e+06	1.773794E-8	NaN
624	1.000000	0.594050	7.37116e+06	-45889.1	1005.82	-29771	0.000000	0.000000	6.595002	0.024481	NaN	0.000000	0.001599	0.001667	28.0809	0.017658	0.002035	8.678564	-106.629	-166.69	0.023671	0.592675	-0.492717	-0.494092	0.024481	8.678564	-0.494832	-2.90332e+06	-8.431999E-9	NaN
624	1.000000	0.602036	7.37116e+06	-45889.1	1005.82	-29771	0.000000	0.000000	6.602986	-0.008737	NaN	0.000000	0.001529	0.001699	28.0809	0.072766	0.002032	35.8188	36.6777	-163.996	-0.023833	0.600713	-0.484731	-0.486054	-0.008737	35.8188	-0.484548	-2.0853e+06	4.189710E-9	NaN
624	1.000000	0.610031	7.37116e+06	-45889.1	1005.82	-29771	0.000000	0.000000	6.610985	0.067664	NaN	0.000000	0.001589	0.001689	28.0805	0.087695	0.001945	45.083	-122.885	-165.466	0.173685	0.608687	-0.476736	-0.478080	0.067664	45.083	-0.477861	-1.68106e+06	-4.025106E-8	NaN
624	1.000000	0.618047	7.37116e+06	-45889.1	1005.82	-29771	0.000000	0.000000	6.618997	-0.021810	NaN	0.000000	0.001630	0.001691	28.0807	0.034223	0.001962	17.4446	59.5509	-165.501	-0.065347	0.616773	-0.468720	-0.469994	-0.021810	17.4446	-0.467782	-1.21422e+06	1.796186E-8	NaN
624	1.000000	0.626055	7.37116e+06	-45889.1	1005.82	-29771	0.000000	0.000000	6.627005	-0.020019	NaN	0.000000	0.001635	0.001660	28.0808	0.122334	0.002173	56.3011	30.2114	-166.005	-0.002654	0.624757	-0.460712	-0.462010	-0.020019	56.3011	-0.460445	-957800	2.090141E-8	NaN
624	1.000000	0.634028	7.37116e+06	-45889.1	1005.82	-29771	0.000000	0.000000	6.634977	-0.027143	NaN	0.000000	0.001635	0.001739	28.0807	0.041468	0.001998	20.7582	-101.275	-165.489	0.124371	0.632704	-0.452739	-0.454064	-0.027143	20.7582	-0.451759	-722946	3.754441E-8	NaN
624	1.000000	0.642034	7.37116e+06	-45889.1	1005.82	-29771	0.000000	0.000000	6.642984	-0.016667	NaN	0.000000	0.001619	0.001721	28.0807	0.029074	0.001972	14.7454	-161.653	-163.035	-0.048749	0.640762	-0.444733	-0.446005	-0.016667	14.7454	-0.443885	-559978	2.976301E-8	NaN
624	1.000000	0.650046	7.37116e+06	-45889.1	1005.82	-29771	0.000000	0.000000	6.650996	-0.012133	NaN	0.000000	0.001627	0.001700	28.0807	0.052547	0.002121	24.776	-153.724	-163.167	0.002529	0.648716	-0.436721	-0.438051	-0.012133	24.776	-0.436353	-438405	2.767441E-8	NaN
624	1.000000	0.658032	7.37116e+06	-45889.1	1005.82	-29771	0.000000	0.000000	6.658982	-0.018167	NaN	0.000000	0.001598	0.001697	28.0808	0.105238	0.001989	52.9164	-108.373	-167.979	-0.069391	0.656791	-0.428735	-0.429977	-0.018167	52.9164	-0.428478	-339250	5.355007E-8	NaN
624	1.000000	0.666056	7.37116e+06	-45889.1	1005.82	-29771	0.000000	0.000000	6.667003	-0.065273	NaN	0.000000	0.001616	0.001702	28.0807	0.038676	0.001940	19.9353	-168.675	-165.861	0.039668	0.664740	-0.420712	-0.422027	-0.065273	19.9353	-0.418256	-243037	2.685739E-7	NaN
624	1.000000	0.674055	7.37116e+06	-45889.1	1005.82	-29771	0.000000	0.000000	6.675006	0.012749	NaN	0.000000	0.001607	0.001679	28.081	0.058349	0.001990	29.3144	-61.3921	-164.476	-0.011136	0.672786	-0.412712	-0.413981	0.012749	29.3144	-0.413038	-204920	-6.221505E-8	NaN
624	1.000000	0.682052	7.37116e+06	-45889.1	1005.82	-29771	0.000000	0.000000	6.683004	0.041465	NaN	0.000000	0.001607	0.001731	28.0811	0.096955	0.001974	49.1165	136.923	-162.404	-0.006213	0.680774	-0.404715	-0.405993	0.041465	49.1165	-0.405348	-159297	-2.603011E-7	NaN
624	1.000000	0.690057	7.37116e+06	-45889.1	1005.82	-29771	0.000000	0.000000	6.691007	0.005865	NaN	0.000000	0.001614	0.001720	28.081	0.059015	0.002002	29.4756	-31.766	-167.6	0.005961	0.688762	-0.396710	-0.398005	0.005865	29.4756	-0.396860	-120556	-4.864600E-8	NaN
624	1.000000	0.698103	7.37116e+06	-45889.1	1005.82	-29771	0.000000	0.000000	6.699053	0.001637	NaN	0.000000	0.001651	0.001704	28.0816	0.020825	0.002024	10.2913	-66.0543	-168.355	0.112398	0.696812	-0.388665	-0.389955	0.001637	10.2913	-0.388784	-92420	-1.770867E-8	NaN
624	1.000000	0.706086	7.37116e+06	-45889.1	1005.82	-29771	0.000000	0.000000	6.707036	0.005479	NaN	0.000000	0.001656	0.001709	28.0808	0.050061	0.002049	24.4369	-178.718	-163.459	-0.001996	0.704741	-0.380681	-0.382026	0.005479	24.4369	-0.380850	-71134.4	-7.701863E-8	NaN
624	1.000000	0.714073	7.37116e+06	-45889.1	1005.82	-29771	0.000000	0.000000	6.715022	-0.022977	NaN	0.000000	0.001651	0.001717	28.0821	0.068712	0.001973	34.8231	-12.5255	-165.029	-0.004232	0.712752	-0.372694	-0.374015	-0.022977	34.8231	-0.372200	-53430.8	4.300387E-7	NaN
624	1.000000	0.722076	7.37116e+06	-45889.1	1005.82	-29771	0.000000	0.000000	6.723024	-0.068759	NaN	0.000000	0.001632	0.001709	28.0821	0.124433	0.001888	65.9192	-11.1218	-166.101	-0.114638	0.720825	-0.364691	-0.365943	-0.068759	65.9192	-0.363909	-40579.1	1.694448E-6	NaN
624	1.000000	0.730077	7.37116e+06	-45889.1	1005.82	-29771	0.000000	0.000000	6.731029	0.022137	NaN	0.000000	0.001634	0.001692	28.0821	0.028070	0.001850	15.1755	-10.7633	-168.37	0.082501	0.728769	-0.356690	-0.357998	0.022137	15.1755	-0.357784	-33097.5	-6.688411E-7	NaN
624	1.000000	0.738129	7.37116e+06	-45889.1	1005.82	-29771	0.000000	0.000000	6.739081	0.031123	NaN	0.000000	0.001643	0.001676	28.0823	0.135336	0.001922	70.4101	107.613	-163.73	0.021415	0.736706	-0.348638	-0.350062	0.031123	70.4101	-0.348969	-24662.7	-1.261952E-6	NaN
624	1.000000	0.746109	7.37116e+06	-45889.1	1005.82	-29771	0.000000	0.000000	6.747059	-0.021261	NaN	0.000000	0.001643	0.001700	28.0821	0.050050	0.002079	24.0691	110.208	-167.404	-0.031070	0.744824	-0.340658	-0.341943	-0.021261	24.0691	-0.339995	-18259.4	1.164412E-6	NaN
624	1.000000	0.754105	7.37116e+06	-45889.1	1005.82	-29771	0.000000	0.000000	6.755053	-0.045572	NaN	0.000000	0.001634	0.001695	28.0821	0.059494	0.001916	31.0556	-66.9603	-162.06	-0.024490	0.752778	-0.332662	-0.333990	-0.045572	31.0556	-0.331562	-13750.3	3.314289E-6	NaN
624	1.000000	0.762085	7.37116e+06	-45889.1	1005.82	-29771	0.000000	0.000000	6.763036	0.024219	NaN	0.000000	0.001609	0.001705	28.0819	0.084727	0.002034	41.6567	78.5709	-163.819	0.014963	0.760786	-0.324682	-0.325981	0.024219	41.6567	-0.325118	-11063	-2.189205E-6	NaN
624	1.000000	0.770109	7.37116e+06	-45889.1	1005.82	-29771	0.000000	0.000000	6.771059	-0.008060	NaN	0.000000	0.001617	0.001694	28.0819	0.024494	0.002162	11.3312	-43.5003	-165.739	-0.063301	0.768752	-0.316659	-0.318015	-0.008060	11.3312	-0.316125	-8157.3	9.880989E-7	NaN
624	1.000000	0.778082	7.37116e+06	-45889.1	1005.82	-29771	0.000000	0.000000	6.779034	0.035043	NaN	0.000000	0.001611	0.001723	28.0822	0.051795	0.002119	24.4379	116.961	-164.076	0.101685	0.776811	-0.308685	-0.309956	0.035043	24.4379	-0.309760	-6569.17	-5.334471E-6	NaN
624	1.000000	0.786107	7.37116e+06	-45889.1	1005.82	-29771	0.000000	0.000000	6.787055	-0.078427	NaN	0.000000	0.001632	0.001725	28.0821	0.069168	0.001899	36.4256	178.263	-167.171	-0.047300	0.784826	-0.300660	-0.301941	-0.078427	36.4256	-0.299045	-4554.21	1.722068E-5	NaN
624	1.000000	0.794114	7.37116e+06	-45889.1	1005.82	-29771	0.000000	0.000000	6.795067	0.045933	NaN	0.000000	0.001625	0.001723	28.0821	0.019562	0.002003	9.767956	-159.31	-165.212	-0.006783	0.792821	-0.292653	-0.293946	0.045933	9.767956	-0.296180	-4127.58	-1.112840E-5	NaN
624	1.000000	0.802101	7.37116e+06	-45889.1	1005.82	-29771	0.000000	0.000000	6.803051	-0.025229	NaN	0.000000	0.001615	0.001698	28.082	0.140935	0.001878	75.064	-114.783	-166.863	-0.094900	0.800792	-0.284666	-0.285975	-0.025229	75.064	-0.284414	-2750.74	9.171771E-6	NaN
624	1.000000	0.810109	7.37116e+06	-45889.1	1005.82	-29771	0.000000	0.000000	6.811058	-0.026230	NaN	0.000000	0.001682	0.001708	28.0817	0.023197	0.001922	12.069	149.837	-164.644	0.014832	0.808836	-0.276659	-0.277931	-0.026230	12.069	-0.275029	-1985.33	1.321176E-5	NaN
624	1.000000	0.818084	7.37116e+06	-45889.1	1005.82	-29771	0.000000	0.000000	6.819035	0.022825	NaN	0.000000	0.001651	0.001724	28.0821	0.034804	0.001980	17.5784	84.3192	-164.861	-0.015933	0.816778	-0.268683	-0.269990	0.022825	17.5784	-0.269657	-1645.61	-1.387011E-5	NaN
624	1.000000	0.826096	7.37116e+06	-45889.1	1005.82	-29771	0.000000	0.000000	6.827047	0.012314	NaN	0.000000	0.001663	0.001738	28.082	0.039274	0.001961	20.0305	161.809	-164.876	0.101887	0.824849	-0.260671	-0.261918	0.012314	20.0305	-0.261132	-1219.72	-1.009595E-5	NaN
624	1.000000	0.834131	7.37116e+06	-45889.1	1005.82	-29771	0.000000	0.000000	6.835082	0.015907	NaN	0.000000	0.001666	0.001721	28.0822	0.017869	0.001958	9.127133	40.1777	-165.826	-0.031272	0.832822	-0.252636	-0.253945	0.015907	9.127133	-0.253943	-945.873	-1.681674E-5	NaN
624	1.000000	0.842119	7.37116e+06	-45889.1	1005.82	-29771	0.000000	0.000000	6.843071	0.059328	NaN	0.000000	0.001669	0.001687	28.082	0.054206	0.001941	27.9274	40.1996	-168.648	-0.044140	0.840795	-0.244649	-0.245972	0.059328	27.9274	-0.246242	-719.016	-8.251290E-5	NaN
624	1.000000	0.850112	7.37116e+06	-45889.1	1005.82	-29771	0.000000	0.000000	6.851063	0.001632	NaN	0.000000	0.001676	0.001686	28.0808	0.104801	0.002025	51.7647	-84.1122	-163.491	0.022238	0.848864	-0.236655	-0.237903	0.001632	51.7647	-0.236678	-510.011	-3.200734E-6	NaN
624	1.000000	0.858147	7.37116e+06	-45889.1	1005.82	-29771	0.000000	0.000000	6.859100	0.070490	NaN	0.000000	0.001686	0.001722	28.0808	0.065303	0.002018	32.3581	-102.972	-167.176	0.002052	0.856860	-0.228620	-0.229907	0.070490	32.3581	-0.230254	-404.138	-0.000174	NaN
624	1.000000	0.866096	7.37116e+06	-45889.1	1005.82	-29771	0.000000	0.000000	6.867047	0.029920	NaN	0.000000	0.001665	0.001701	28.0807	0.046533	0.001751	26.5823	172.271	-167.507	-0.025876	0.864825	-0.220672	-0.221942	0.029920	26.5823	-0.221516	-293.683	-0.000102	NaN
624	1.000000	0.874156	7.37116e+06	-45889.1	1005.82	-29771	0.000000	0.000000	6.875106	-0.022078	NaN	0.000000	0.001681	0.001726	28.081	0.093893	0.001972	47.6113	-176.691	-162.337	0.008459	0.872833	-0.212611	-0.213935	-0.022078	47.6113	-0.212263	-208.646	0.000106	NaN
624	1.000000	0.882140	7.37116e+06	-45889.1	1005.82	-29771	0.000000	0.000000	6.883091	0.022809	NaN	0.000000	0.001670	0.001700	28.081	0.050221	0.002022	24.8405	63.9	-162.382	0.007949	0.880859	-0.204627	-0.205908	0.022809	24.8405	-0.205316	-160.958	-0.000142	NaN
624	1.000000	0.890168	7.37116e+06	-45889.1	1005.82	-29771	0.000000	0.000000	6.891120	0.041142	NaN	0.000000	0.001585	0.001660	28.0808	0.072408	0.002016	35.9177	-62.6285	-163.253	0.159377	0.888823	-0.196599	-0.197944	0.041142	35.9177	-0.197459	-119.632	-0.000344	NaN
624	1.000000	0.898164	7.37116e+06	-45889.1	1005.82	-29771	0.000000	0.000000	6.899116	0.035247	NaN	0.000000	0.001627	0.001724	28.0806	0.098958	0.002004	49.3776	-45.735	-162.449	-0.046506	0.896844	-0.188603	-0.189923	0.035247	49.3776	-0.189138	-87.0204	-0.000405	NaN
624	1.000000	0.906138	7.37116e+06	-45889.1	1005.82	-29771	0.000000	0.000000	6.907086	-0.066613	NaN	0.000000	0.001640	0.001685	28.0807	0.004226	0.002079	2.032349	-48.5127	-166.815	-0.070459	0.904877	-0.180629	-0.181890	-0.066613	2.032349	-0.156047	-23.3018	0.002859	NaN
624	1.000000	0.914172	7.37116e+06	-45889.1	1005.82	-29771	0.000000	0.000000	6.915122	-0.006853	NaN	0.000000	0.001633	0.001727	28.0809	0.121411	0.002005	60.5681	-143.809	-168.585	-0.046837	0.912838	-0.172595	-0.173930	-0.006853	60.5681	-0.172511	-45.4039	0.000151	NaN
624	1.000000	0.922134	7.37116e+06	-45889.1	1005.82	-29771	0.000000	0.000000	6.923088	0.066064	NaN	0.000000	0.001645	0.001732	28.0809	0.045023	0.001833	24.5599	20.6737	-163.26	0.091510	0.920790	-0.164633	-0.165977	0.066064	24.5599	-0.166650	-35.9111	-0.001840	NaN
624	1.000000	0.930163	7.37116e+06	-45889.1	1005.82	-29771	0.000000	0.000000	6.931112	-0.029084	NaN	0.000000	0.001647	0.001699	28.081	0.055205	0.001922	28.7295	160.779	-164.704	-0.071484	0.928901	-0.156604	-0.157866	-0.029084	28.7295	-0.155845	-23.1081	0.001259	NaN
624	1.000000	0.938181	7.37116e+06	-45889.1	1005.82	-29771	0.000000	0.000000	6.939133	0.022501	NaN	0.000000	0.001618	0.001720	28.0808	0.011430	0.001968	5.809108	-74.3429	-165.091	-0.003759	0.936913	-0.148586	-0.149854	0.022501	5.809108	-0.151491	-19.2814	-0.001167	NaN
624	1.000000	0.946168	7.37116e+06	-45889.1	1005.82	-29771	0.000000	0.000000	6.947119	0.009348	NaN	0.000000	0.001655	0.001708	28.0807	0.072055	0.001973	36.5216	-179.264	-164.861	0.006770	0.944883	-0.140599	-0.141884	0.009348	36.5216	-0.140791	-12.2407	-0.000764	NaN
624	1.000000	0.954158	7.37116e+06	-45889.1	1005.82	-29771	0.000000	0.000000	6.955107	-0.028207	NaN	0.000000	0.001662	0.001692	28.0808	0.069092	0.001950	35.4312	174.685	-166.1	-0.043936	0.952904	-0.132609	-0.133863	-0.028207	35.4312	-0.132012	-8.335939	0.003384	NaN
624	1.000000	0.962156	7.37116e+06	-45889.1	1005.82	-29771	0.000000	0.000000	6.963107	0.018246	NaN	0.000000	0.001669	0.001706	28.0809	0.070109	0.001975	35.4959	-18.6288	-169.636	-0.027809	0.960905	-0.124611	-0.125862	0.018246	35.4959	-0.124997	-6.080384	-0.003001	NaN
624	1.000000	0.970195	7.37116e+06	-45889.1	1005.82	-29771	0.000000	0.000000	6.971147	0.041192	NaN	0.000000	0.001639	0.001695	28.081	0.076831	0.002063	37.2455	128.902	-167.76	-0.010289	0.968905	-0.116573	-0.117862	0.041192	37.2455	-0.117402	-4.279223	-0.009626	NaN
624	1.000000	0.978198	7.37116e+06	-45889.1	1005.82	-29771	0.000000	0.000000	6.979148	-0.010257	NaN	0.000000	0.001636	0.001696	28.081	0.050757	0.002099	24.1842	-172.426	-165.845	0.038670	0.976892	-0.108569	-0.109875	-0.010257	24.1842	-0.108251	-2.759617	0.003717	NaN
624	1.000000	0.986188	7.37116e+06	-45889.1	1005.82	-29771	0.000000	0.000000	6.987140	0.061875	NaN	0.000000	0.001584	0.001704	28.0821	0.047132	0.002058	22.9016	-167.727	-164.592	0.009291	0.984893	-0.100580	-0.101874	0.061875	22.9016	-0.102606	-2.085181	-0.029674	NaN
624	1.000000	0.994183	7.37116e+06	-45889.1	1005.82	-29771	0.000000	0.000000	6.995133	-0.009688	NaN	0.000000	0.001626	0.001690	28.082	0.100912	0.001941	51.9825	-111.019	-167.347	0.046338	0.992906	-0.092584	-0.093861	-0.009688	51.9825	-0.092444	-1.232393	0.007861	NaN
624	1.000000	1.002184	7.37116e+06	-45889.1	1005.82	-29771	0.000000	0.000000	7.003134	-0.004016	NaN	0.000000	0.001602	0.001717	28.082	0.183141	0.002073	88.3589	-74.5646	-160.587	0.038874	1.000919	-0.084583	-0.085848	-0.004016	88.3589	-0.084549	-0.801218	0.005012	NaN
624	1.000000	1.010159	7.37116e+06	-45889.1	1005.82	-29771	0.000000	0.000000	7.011105	-0.101689	NaN	0.000000	0.001616	0.001716	28.082	0.083171	0.002041	40.7483	23.6298	-168.304	-0.121639	1.008897	-0.076608	-0.077870	-0.101689	40.7483	-0.074736	-0.454668	0.223656	NaN
624	1.000000	1.018191	7.37116e+06	-45889.1	1005.82	-29771	0.000000	0.000000	7.019141	-0.009194	NaN	0.000000	0.001658	0.001667	28.082	0.047946	0.002013	23.8149	-142.523	-167.787	0.050638	1.016901	-0.068576	-0.069866	-0.009194	23.8149	-0.068286	-0.306697	0.029978	NaN
624	1.000000	1.026187	7.37116e+06	-45889.1	1005.82	-29771	0.000000	0.000000	7.027135	-0.053607	NaN	0.000000	0.001648	0.001670	28.0822	0.040061	0.002204	18.1777	66.4504	-166.129	-9.964878E-5	1.024927	-0.060580	-0.061840	-0.053607	18.1777	-0.058369	-0.161606	0.331712	NaN
624	1.000000	1.034199	7.37116e+06	-45889.1	1005.82	-29771	0.000000	0.000000	7.035149	-0.010974	NaN	0.000000	0.001663	0.001729	28.0819	0.045176	0.001860	24.2881	151.352	-166.779	-0.023030	1.032845	-0.052568	-0.053922	-0.010974	24.2881	-0.052229	-0.106500	0.103039	NaN
624	1.000000	1.042174	7.37116e+06	-45889.1	1005.82	-29771	0.000000	0.000000	7.043126	0.028358	NaN	0.000000	0.001669	0.001705	28.0823	0.030994	0.002178	14.23	16.8119	-165.409	-0.053167	1.040914	-0.044593	-0.045853	0.028358	14.23	-0.046087	-0.069380	-0.408730	NaN
624	1.000000	1.050226	7.37116e+06	-45889.1	1005.82	-29771	0.000000	0.000000	7.051178	0.043692	NaN	0.000000	0.001656	0.001730	28.082	0.040365	0.002053	19.6573	106.534	-163.246	-0.007150	1.048881	-0.036541	-0.037886	0.043692	19.6573	-0.038208	-0.039914	-1.094652	NaN
624	1.000000	1.058197	7.37116e+06	-45889.1	1005.82	-29771	0.000000	0.000000	7.059146	-0.018131	NaN	0.000000	0.001648	0.001670	28.0821	0.058856	0.001917	30.7013	-159.474	-166.796	0.010322	1.056877	-0.028570	-0.029890	-0.018131	30.7013	-0.028127	-0.020437	0.887168	NaN
624	1.000000	1.066226	7.37116e+06	-45889.1	1005.82	-29771	0.000000	0.000000	7.067175	-0.016253	NaN	0.000000	0.001678	0.001708	28.0822	0.053895	0.001905	28.2853	-53.2798	-167.912	-0.039345	1.064914	-0.020542	-0.021853	-0.016253	28.2853	-0.020111	-0.012643	1.285606	NaN
624	1.000000	1.074200	7.37116e+06	-45889.1	1005.82	-29771	0.000000	0.000000	7.075151	0.017384	NaN	0.000000	0.001661	0.001717	28.0819	0.038174	0.002057	18.5561	-6.131042	-164.402	-0.022426	1.072869	-0.012567	-0.013898	0.017384	18.5561	-0.013270	-0.008258	-2.105035	NaN
624	1.000000	1.082244	7.37116e+06	-45889.1	1005.82	-29771	0.000000	0.000000	7.083209	0.348084	NaN	0.000000	0.001664	0.001697	28.0822	0.737216	0.001929	382.124	18.6108	-165.208	0.014426	1.080941	-0.004523	-0.005826	0.348084	382.124	-0.005206	-0.003546	-98.1642	NaN
624	1.000000	1.090077	7.37116e+06	-45889.1	1005.82	-29771	0.000000	0.000000	7.091336	7.510875	NaN	0.000000	0.001658	0.001694	28.0819	7.442328	0.001697	4384.96	8.805451	-168.9	5.892738	1.088933	0.003310	0.002166	7.510875	4384.96	0.002025	0.001575	4768.17	100941
624	2.000000	1.092853	7.37116e+06	-45889.1	1005.82	-29771	0.000000	0.000000	7.094258	11.0598	NaN	0.000000	0.001637	0.001711	28.082	10.2859	0.001681	6120.62	4.134312	-171.507	10.4457	1.092592	0.006086	0.005825	11.0598	6120.62	0.004731	0.003889	2843.67	89667.2
624	2.000000	1.094860	7.37116e+06	-45889.1	1005.82	-29771	0.000000	0.000000	7.096373	13.6796	NaN	0.000000	0.001679	0.001699	28.082	12.54	0.001674	7489.49	9.033617	-178.187	12.8391	1.094585	0.008093	0.007818	13.6796	7489.49	0.006723	0.005762	2374.32	90148.3
624	2.000000	1.096840	7.37116e+06	-45889.1	1005.82	-29771	0.000000	0.000000	7.098543	18.3208	NaN	0.000000	0.001658	0.001691	28.082	14.3669	0.001661	8651.35	4.110602	-173.658	18.6009	1.096463	0.010073	0.009696	18.3208	8651.35	0.008484	0.007545	2428.11	90995.4
624	2.000000	1.098776	7.37116e+06	-45889.1	1005.82	-29771	0.000000	0.000000	7.100594	21.1014	NaN	0.000000	0.001618	0.001704	28.081	17.6371	0.001770	9964.03	7.413811	-178.229	20.1047	1.098439	0.012009	0.011672	21.1014	9964.03	0.010421	0.009653	2186.07	92658.3
624	2.000000	1.100834	7.37116e+06	-45889.1	1005.82	-29771	0.000000	0.000000	7.102768	23.9275	NaN	0.000000	0.001629	0.001686	28.0807	18.6984	0.001792	10436.6	5.855820	-175.399	25.1949	1.100543	0.014067	0.013776	23.9275	10436.6	0.012347	0.011909	2009.23	87377.6
624	2.000000	1.102776	7.37116e+06	-45889.1	1005.82	-29771	0.000000	0.000000	7.104864	27.675	NaN	0.000000	0.001632	0.001684	28.0808	21.5776	0.001917	11257.5	7.875653	-179.552	26.2677	1.102455	0.016009	0.015688	27.675	11257.5	0.014165	0.014189	1950.51	86346.5
624	2.000000	1.104780	7.37116e+06	-45889.1	1005.82	-29771	0.000000	0.000000	7.107128	33.9909	NaN	0.000000	0.001645	0.001671	28.0807	23.3227	0.001783	13080	4.780161	-178.126	33.1558	1.104568	0.018013	0.017800	33.9909	13080	0.016064	0.016730	2031.73	92391.4
624	2.000000	1.106790	7.37116e+06	-45889.1	1005.82	-29771	0.000000	0.000000	7.109350	39.1557	NaN	0.000000	0.001641	0.001707	28.081	24.8592	0.001709	14548.5	3.834792	-178.152	38.8506	1.106445	0.020023	0.019678	39.1557	14548.5	0.018005	0.019504	2007.62	95177.6
624	2.000000	1.108758	7.37116e+06	-45889.1	1005.82	-29771	0.000000	0.000000	7.111533	44.3841	NaN	0.000000	0.001612	0.001689	28.0809	28.241	0.001782	15847.9	5.505251	179.494	43.5366	1.108446	0.021991	0.021679	44.3841	15847.9	0.019890	0.022370	1984.08	96807.8
624	2.000000	1.110769	7.37116e+06	-45889.1	1005.82	-29771	0.000000	0.000000	7.113870	52.3057	NaN	0.000000	0.001606	0.001728	28.0806	29.3369	0.001772	16552.7	5.272734	-179.968	50.4158	1.110438	0.024002	0.023671	52.3057	16552.7	0.021632	0.025172	2077.89	95318.7
624	2.000000	1.112708	7.37116e+06	-45889.1	1005.82	-29771	0.000000	0.000000	7.116112	59.6836	NaN	0.000000	0.001640	0.001752	28.0809	30.5174	0.001694	18012.5	4.655947	179.176	56.2949	1.112433	0.025941	0.025666	59.6836	18012.5	0.023456	0.028267	2111.45	97883.6
624	2.000000	1.114745	7.37116e+06	-45889.1	1005.82	-29771	0.000000	0.000000	7.118371	65.0688	NaN	0.000000	0.001604	0.001710	28.0809	32.8347	0.001780	18449.3	5.482387	179.173	62.4552	1.114468	0.027978	0.027701	65.0688	18449.3	0.025333	0.031624	2057.57	94785.7
624	2.000000	1.116735	7.37116e+06	-45889.1	1005.82	-29771	0.000000	0.000000	7.120487	68.1334	NaN	0.000000	0.001569	0.001667	28.081	34.9875	0.001767	19803.2	4.511217	178.562	66.7155	1.116398	0.029968	0.029631	68.1334	19803.2	0.027388	0.035503	1919.07	96022.6
624	2.000000	1.118721	7.37116e+06	-45889.1	1005.82	-29771	0.000000	0.000000	7.122823	76.6715	NaN	0.000000	0.001608	0.001723	28.0807	36.2315	0.001691	21421.4	1.025023	-178.82	74.5131	1.118383	0.031954	0.031615	76.6715	21421.4	0.029269	0.039243	1953.76	98796
624	2.000000	1.120784	7.37116e+06	-45889.1	1005.82	-29771	0.000000	0.000000	7.125121	82.3985	NaN	0.000000	0.001609	0.001690	28.0808	37.4763	0.001622	23103.1	5.269230	177.221	83.8243	1.120407	0.034017	0.033640	82.3985	23103.1	0.031342	0.043571	1891.15	101122
624	2.000000	1.122682	7.37116e+06	-45889.1	1005.82	-29771	0.000000	0.000000	7.127509	94.2954	NaN	0.000000	0.001650	0.001700	28.0809	40.2595	0.001739	23148.2	4.648540	177.608	90.7173	1.122388	0.035915	0.035621	94.2954	23148.2	0.032859	0.046879	2011.45	97678.8
624	2.000000	1.124717	7.37116e+06	-45889.1	1005.82	-29771	0.000000	0.000000	7.129728	98.7711	NaN	0.000000	0.001655	0.001733	28.081	42.4825	0.001713	24806.1	3.246545	177.889	94.4035	1.124501	0.037950	0.037734	98.7711	24806.1	0.034964	0.051662	1911.88	99712.1
624	2.000000	1.126724	7.37116e+06	-45889.1	1005.82	-29771	0.000000	0.000000	7.132104	107.766	NaN	0.000000	0.001695	0.001704	28.0806	44.5152	0.001838	24213.4	4.215507	177.701	105.357	1.126320	0.039956	0.039553	107.766	24213.4	0.036618	0.055582	1938.88	93834.8
624	2.000000	1.128697	7.37116e+06	-45889.1	1005.82	-29771	0.000000	0.000000	7.134275	112.572	NaN	0.000000	0.001666	0.001708	28.0806	46.3508	0.001826	25387	1.575204	179.44	109.637	1.128447	0.041930	0.041680	112.572	25387	0.038604	0.060470	1861.61	94322.4
624	2.000000	1.130683	7.37116e+06	-45889.1	1005.82	-29771	0.000000	0.000000	7.136882	127.682	NaN	0.000000	0.001640	0.001700	28.0809	47.3455	0.001801	26287.8	4.022011	176.962	124.96	1.130404	0.043916	0.043637	127.682	26287.8	0.040273	0.064736	1972.35	94396.1
624	2.000000	1.132745	7.37116e+06	-45889.1	1005.82	-29771	0.000000	0.000000	7.139130	132.203	NaN	0.000000	0.001667	0.001715	28.0822	50.208	0.001728	29061	5.056773	174.752	131.971	1.132444	0.045978	0.045677	132.203	29061	0.042566	0.070827	1866.55	99766.2
624	2.000000	1.134749	7.37116e+06	-45889.1	1005.82	-29771	0.000000	0.000000	7.141416	139.058	NaN	0.000000	0.001689	0.001704	28.0823	52.5302	0.001859	28253.3	4.450654	177.109	139.012	1.134376	0.047982	0.047609	139.058	28253.3	0.044291	0.075586	1839.73	93890.4
624	2.000000	1.136725	7.37116e+06	-45889.1	1005.82	-29771	0.000000	0.000000	7.143974	153.225	NaN	0.000000	0.001737	0.001701	28.082	54.0601	0.001868	28941.7	6.477265	174.423	151.889	1.136389	0.049958	0.049622	153.225	28941.7	0.045987	0.080415	1905.44	93246.1
624	2.000000	1.138749	7.37116e+06	-45889.1	1005.82	-29771	0.000000	0.000000	7.146228	158.805	NaN	0.000000	0.001684	0.001739	28.0821	57.4501	0.001948	29490.4	8.884819	171.419	160.608	1.138454	0.051982	0.051687	158.805	29490.4	0.047943	0.086162	1843.1	91790
624	2.000000	1.140685	7.37116e+06	-45889.1	1005.82	-29771	0.000000	0.000000	7.148781	173.813	NaN	0.000000	0.001719	0.001697	28.0821	56.3711	0.001753	32156.3	4.649888	175.378	170.382	1.140380	0.053918	0.053613	173.813	32156.3	0.049864	0.091994	1889.41	96863.5
624	2.000000	1.142649	7.37116e+06	-45889.1	1005.82	-29771	0.000000	0.000000	7.150968	179.239	NaN	0.000000	0.001712	0.001733	28.0822	59.5032	0.001833	32458.9	3.313504	176.134	174.459	1.142351	0.055882	0.055584	179.239	32458.9	0.051741	0.097870	1831.41	94794.5
624	2.000000	1.144675	7.37116e+06	-45889.1	1005.82	-29771	0.000000	0.000000	7.153551	192.812	NaN	0.000000	0.001729	0.001728	28.0821	61.1389	0.001904	32106.2	2.952513	176.948	189.578	1.144342	0.057908	0.057575	192.812	32106.2	0.053403	0.103223	1867.92	91300.7
624	2.000000	1.146713	7.37116e+06	-45889.1	1005.82	-29771	0.000000	0.000000	7.156082	204.781	NaN	0.000000	0.001705	0.001721	28.082	62.6103	0.001814	34523.3	5.498930	173.834	205.06	1.146290	0.059946	0.059523	204.781	34523.3	0.055497	0.110159	1858.96	95033.4
624	2.000000	1.148662	7.37116e+06	-45889.1	1005.82	-29771	0.000000	0.000000	7.158519	216.657	NaN	0.000000	0.001650	0.001733	28.0818	64.6969	0.001667	38808	3.064821	174.372	214.014	1.148398	0.061895	0.061631	216.657	38808	0.057708	0.117717	1840.5	103342
624	2.000000	1.150691	7.37116e+06	-45889.1	1005.82	-29771	0.000000	0.000000	7.161085	229.713	NaN	0.000000	0.001700	0.001724	28.0821	65.4379	0.001737	37668.8	3.362490	174.977	228.031	1.150368	0.063924	0.063601	229.713	37668.8	0.059350	0.123489	1860.18	97935.5
624	2.000000	1.152745	7.37116e+06	-45889.1	1005.82	-29771	0.000000	0.000000	7.163684	243.005	NaN	0.000000	0.001687	0.001710	28.082	69.3167	0.001884	36796.2	4.153442	174.787	245.286	1.152460	0.065977	0.065693	243.005	36796.2	0.061024	0.129507	1876.38	93417.6
624	2.000000	1.154627	7.37116e+06	-45889.1	1005.82	-29771	0.000000	0.000000	7.166055	254.884	NaN	0.000000	0.001710	0.001739	28.0819	70.8491	0.001811	39113.9	2.582667	175.321	249.766	1.154366	0.067859	0.067599	254.884	39113.9	0.062972	0.136681	1864.81	96660.8
624	2.000000	1.156706	7.37116e+06	-45889.1	1005.82	-29771	0.000000	0.000000	7.168800	271.078	NaN	0.000000	0.001734	0.001715	28.0817	73.3269	0.001873	39143.7	5.370273	173.351	270.046	1.156311	0.069938	0.069543	271.078	39143.7	0.064745	0.143369	1890.76	94451
624	2.000000	1.158752	7.37116e+06	-45889.1	1005.82	-29771	0.000000	0.000000	7.170784	269.583	NaN	0.000000	0.001724	0.001693	28.0818	75.5393	0.001786	42305.7	3.995899	172.844	269.441	1.158547	0.071984	0.071780	269.583	42305.7	0.067205	0.152905	1763.07	98846.3
624	2.000000	1.160710	7.37116e+06	-45889.1	1005.82	-29771	0.000000	0.000000	7.173884	297.354	NaN	0.000000	0.001715	0.001729	28.082	75.7387	0.001753	43215.5	3.557326	173.21	296.851	1.160407	0.073943	0.073640	297.354	43215.5	0.068782	0.159170	1868.16	98965.1
624	2.000000	1.162701	7.37116e+06	-45889.1	1005.82	-29771	0.000000	0.000000	7.176314	308.031	NaN	0.000000	0.001663	0.001727	28.0819	78.5615	0.001764	44545.4	2.668682	174.182	307.823	1.162393	0.075933	0.075625	308.031	44545.4	0.070747	0.167141	1842.94	99548.5
624	2.000000	1.164646	7.37116e+06	-45889.1	1005.82	-29771	0.000000	0.000000	7.179069	327.739	NaN	0.000000	0.001651	0.001720	28.0817	81.4084	0.001871	43504.2	5.481380	172.009	323.751	1.164306	0.077879	0.077539	327.739	43504.2	0.072229	0.173273	1891.47	95485.9
624	2.000000	1.166691	7.37116e+06	-45889.1	1005.82	-29771	0.000000	0.000000	7.181662	341.049	NaN	0.000000	0.001653	0.001739	28.0807	82.5341	0.001738	47493.5	9.345740	167.645	340.697	1.166308	0.079924	0.079541	341.049	47493.5	0.074538	0.183038	1863.27	101423
624	2.000000	1.168621	7.37116e+06	-45889.1	1005.82	-29771	0.000000	0.000000	7.184348	359.457	NaN	0.000000	0.001669	0.001761	28.0804	85.819	0.001800	47674.6	6.549776	169.795	355.835	1.168297	0.081853	0.081529	359.457	47674.6	0.076199	0.190213	1889.76	99871.1
624	2.000000	1.170597	7.37116e+06	-45889.1	1005.82	-29771	0.000000	0.000000	7.186777	370.467	NaN	0.000000	0.001674	0.001735	28.0807	85.0888	0.001773	47982.4	2.908085	173.791	364.093	1.170318	0.083830	0.083551	370.467	47982.4	0.078040	0.198321	1868.02	98439.9
624	2.000000	1.172645	7.37116e+06	-45889.1	1005.82	-29771	0.000000	0.000000	7.189011	375	NaN	0.000000	0.001687	0.001746	28.0808	87.4318	0.001885	46386.6	2.127129	174.779	372.325	1.172295	0.085878	0.085527	375	46386.6	0.079815	0.206287	1817.85	93310.1
624	2.000000	1.174631	7.37116e+06	-45889.1	1005.82	-29771	0.000000	0.000000	7.191890	396.724	NaN	0.000000	0.001689	0.001726	28.0808	90.064	0.001909	47172.9	6.663365	170.219	391.484	1.174257	0.087864	0.087490	396.724	47172.9	0.081556	0.214249	1851.69	93112.2
624	2.000000	1.176697	7.37116e+06	-45889.1	1005.82	-29771	0.000000	0.000000	7.194425	408.138	NaN	0.000000	0.001708	0.001734	28.0807	90.6928	0.001819	49860.5	5.464905	169.812	408.452	1.176425	0.089930	0.089658	408.138	49860.5	0.083790	0.224665	1816.65	96108.5
624	2.000000	1.178592	7.37116e+06	-45889.1	1005.82	-29771	0.000000	0.000000	7.197223	430.101	NaN	0.000000	0.001683	0.001705	28.0804	93.5585	0.001774	52738.8	6.289800	169.294	425.276	1.178383	0.091825	0.091616	430.101	52738.8	0.085708	0.233791	1839.68	99652.8
624	2.000000	1.180740	7.37116e+06	-45889.1	1005.82	-29771	0.000000	0.000000	7.199903	443.046	NaN	0.000000	0.001668	0.001738	28.0806	93.6981	0.001809	51794.1	2.924857	172.834	442.775	1.180377	0.093973	0.093610	443.046	51794.1	0.087557	0.242751	1825.11	96044.6
624	2.000000	1.182614	7.37116e+06	-45889.1	1005.82	-29771	0.000000	0.000000	7.202744	466.556	NaN	0.000000	0.001683	0.001745	28.0804	97.0409	0.001808	53676.7	9.114724	167.491	461.962	1.182222	0.095847	0.095455	466.556	53676.7	0.089328	0.251478	1855.26	97793.2
624	2.000000	1.184580	7.37116e+06	-45889.1	1005.82	-29771	0.000000	0.000000	7.205299	480.89	NaN	0.000000	0.001660	0.001752	28.0807	97.599	0.001846	52877.9	4.364274	171.768	473.446	1.184305	0.097813	0.097537	480.89	52877.9	0.090992	0.259811	1850.92	94780.4
624	2.000000	1.186555	7.37116e+06	-45889.1	1005.82	-29771	0.000000	0.000000	7.207670	490.507	NaN	0.000000	0.001691	0.001690	28.0806	99.2298	0.001771	56038.1	3.659156	171.195	484.662	1.186340	0.099788	0.099573	490.507	56038.1	0.093223	0.271186	1808.75	98315.6
624	2.000000	1.188745	7.37116e+06	-45889.1	1005.82	-29771	0.000000	0.000000	7.210695	510.845	NaN	0.000000	0.001684	0.001724	28.0803	101.816	0.001802	56486.8	3.998774	170.924	513.884	1.188409	0.101977	0.101642	510.845	56486.8	0.095195	0.281423	1815.22	97283.7
624	2.000000	1.189599	7.37116e+06	-45889.1	1005.82	-29771	0.000000	0.000000	7.212070	523.489	NaN	0.000000	0.001691	0.001708	28.0807	102.698	0.001775	57873.9	10.2995	165.301	519.14	1.189224	0.102832	0.102457	523.489	57873.9	0.096048	0.285910	1830.96	98887.5