File: remote_trans/data/nanoindenter/0828-1/data/Data_2025-08-06,11h17m57s/2025-07-22_16-23-58_1_1015.txt
2025-07-22, 16:23:58, 1
Index	Phase	Displacement	Time	Pos X	Pos Y	Pos Z	Rot A	Rot B	Piezo Z	Force A	Force B	Gripper	Voltage A	Voltage B	Temperature	Amplitude force	Amplitude pos	Stiffness	Phase shift	Phase excitation	Force A raw	Displacement raw	HMax	HMax raw	Real Force	Real Stiffness	Contact Depth	Area	Hardness	Reduced Mod.
[#]	[#]	[um]	[s]	[um]	[um]	[um]	[m°]	[m°]	[um]	[uN]	[uN]	[V]	[V]	[V]	[°C]	[uN]	[um]	[N/m]	[°]	[°]	[uN]	[um]	[um]	[um]	[uN]	[N/m]	[um]	[um^2]	[MPa]	[MPa]
1015	1.000000	0.003367	7.37498e+06	-50889.1	1055.82	-29754.1	0.000000	0.000000	6.002780	0.049562	NaN	0.000000	0.001553	0.001665	28.0844	0.103053	0.000927	111.178	49.913	170.725	0.062131	0.002076	-1.102736	-1.104027	0.049562	111.178	-1.103071	-5.511706E+14	-8.992097E-17	NaN
1015	1.000000	0.013375	7.37498e+06	-50889.1	1055.82	-29754.1	0.000000	0.000000	6.012788	0.044463	NaN	0.000000	0.001596	0.001651	28.084	0.089487	0.001069	83.7274	-108.701	3.754606	0.044740	0.011897	-1.092729	-1.094206	0.044463	83.7274	-1.093127	-4.053173E+14	-1.097002E-16	NaN
1015	1.000000	0.023260	7.37498e+06	-50889.1	1055.82	-29754.1	0.000000	0.000000	6.022670	-0.024120	NaN	0.000000	0.001590	0.001691	28.0841	0.072975	0.001743	41.8725	-170.69	178.917	-0.023441	0.021977	-1.082843	-1.084127	-0.024120	41.8725	-1.082411	-2.910072E+14	8.288586E-17	NaN
1015	1.000000	0.033238	7.37498e+06	-50889.1	1055.82	-29754.1	0.000000	0.000000	6.032650	0.011004	NaN	0.000000	0.001555	0.001666	28.0829	0.030820	0.001874	16.4483	-79.4777	-6.356800	0.050337	0.031900	-1.072865	-1.074203	0.011004	16.4483	-1.073367	-2.199979E+14	-5.001772E-17	NaN
1015	1.000000	0.043283	7.37498e+06	-50889.1	1055.82	-29754.1	0.000000	0.000000	6.042694	-0.008493	NaN	0.000000	0.001574	0.001664	28.0829	0.169787	0.002011	84.4288	142.719	-179.442	-0.103952	0.041987	-1.062820	-1.064116	-0.008493	84.4288	-1.062745	-1.583825E+14	5.362354E-17	NaN
1015	1.000000	0.053268	7.37498e+06	-50889.1	1055.82	-29754.1	0.000000	0.000000	6.052682	0.058362	NaN	0.000000	0.001595	0.001706	28.0832	0.042995	0.002100	20.4759	73.6219	-4.373115	0.030529	0.051923	-1.052836	-1.054180	0.058362	20.4759	-1.054973	-1.245268E+14	-4.686703E-16	NaN
1015	1.000000	0.063276	7.37498e+06	-50889.1	1055.82	-29754.1	0.000000	0.000000	6.062689	0.035073	NaN	0.000000	0.001585	0.001652	28.083	0.140381	0.001968	71.3384	100.574	174.035	0.045185	0.061925	-1.042828	-1.044179	0.035073	71.3384	-1.043196	-8.648602E+13	-4.055335E-16	NaN
1015	1.000000	0.073294	7.37498e+06	-50889.1	1055.82	-29754.1	0.000000	0.000000	6.072706	0.019176	NaN	0.000000	0.001582	0.001698	28.0837	0.013944	0.001955	7.131382	-17.6246	0.540320	0.017173	0.071907	-1.032809	-1.034196	0.019176	7.131382	-1.034826	-6.674063E+13	-2.873157E-16	NaN
1015	1.000000	0.083296	7.37498e+06	-50889.1	1055.82	-29754.1	0.000000	0.000000	6.082706	-0.038400	NaN	0.000000	0.001589	0.001726	28.0832	0.066962	0.001892	35.3923	140.388	178.23	-0.022218	0.081945	-1.022807	-1.024159	-0.038400	35.3923	-1.021993	-4.485111E+13	8.561557E-16	NaN
1015	1.000000	0.093288	7.37498e+06	-50889.1	1055.82	-29754.1	0.000000	0.000000	6.092702	0.052503	NaN	0.000000	0.001563	0.001697	28.0835	0.015901	0.002014	7.895941	-96.1001	0.190772	0.015430	0.091868	-1.012815	-1.014235	0.052503	7.895941	-1.017802	-3.938935E+13	-1.332929E-15	NaN
1015	1.000000	0.103287	7.37498e+06	-50889.1	1055.82	-29754.1	0.000000	0.000000	6.102700	0.044073	NaN	0.000000	0.001551	0.001691	28.0831	0.069913	0.002103	33.2437	176.842	174.832	0.050080	0.101943	-1.002816	-1.004160	0.044073	33.2437	-1.003810	-2.553103E+13	-1.726248E-15	NaN
1015	1.000000	0.113291	7.37498e+06	-50889.1	1055.82	-29754.1	0.000000	0.000000	6.112703	0.008138	NaN	0.000000	0.001557	0.001672	28.0835	0.088799	0.002094	42.4142	132.038	-1.655076	0.017944	0.111930	-0.992812	-0.994173	0.008138	42.4142	-0.992956	-1.823568E+13	-4.462826E-16	NaN
1015	1.000000	0.123301	7.37498e+06	-50889.1	1055.82	-29754.1	0.000000	0.000000	6.122712	0.010673	NaN	0.000000	0.001631	0.001698	28.083	0.046751	0.001934	24.1755	-73.3916	174.425	-0.013253	0.121998	-0.982803	-0.984105	0.010673	24.1755	-0.983134	-1.344708E+13	-7.937384E-16	NaN
1015	1.000000	0.133310	7.37498e+06	-50889.1	1055.82	-29754.1	0.000000	0.000000	6.132720	-0.037780	NaN	0.000000	0.001623	0.001720	28.0834	0.067553	0.002022	33.406	-52.7804	-2.405165	-0.091580	0.131978	-0.972793	-0.974125	-0.037780	33.406	-0.971945	-9.503378E+12	3.975442E-15	NaN
1015	1.000000	0.143273	7.37498e+06	-50889.1	1055.82	-29754.1	0.000000	0.000000	6.142685	0.034683	NaN	0.000000	0.001619	0.001697	28.0833	0.090005	0.001969	45.703	51.111	-179.326	0.052576	0.142008	-0.962831	-0.964096	0.034683	45.703	-0.963400	-7.289609E+12	-4.757919E-15	NaN
1015	1.000000	0.153300	7.37498e+06	-50889.1	1055.82	-29754.1	0.000000	0.000000	6.152716	0.130713	NaN	0.000000	0.001627	0.001693	28.0835	0.102528	0.001973	51.9704	-11.6481	-1.887493	0.115316	0.151991	-0.952804	-0.954112	0.130713	51.9704	-0.954690	-5.562551E+12	-2.349869E-14	NaN
1015	1.000000	0.163299	7.37498e+06	-50889.1	1055.82	-29754.1	0.000000	0.000000	6.162713	0.076337	NaN	0.000000	0.001629	0.001693	28.0835	0.050660	0.002030	24.9552	107.03	176.937	0.101225	0.162003	-0.942804	-0.944100	0.076337	24.9552	-0.945099	-4.129717E+12	-1.848492E-14	NaN
1015	1.000000	0.173293	7.37498e+06	-50889.1	1055.82	-29754.1	0.000000	0.000000	6.172705	0.006891	NaN	0.000000	0.001601	0.001728	28.085	0.059835	0.002065	28.969	162.86	-2.913381	-0.003262	0.171964	-0.932810	-0.934139	0.006891	28.969	-0.932988	-2.834832E+12	-2.430823E-15	NaN
1015	1.000000	0.183294	7.37498e+06	-50889.1	1055.82	-29754.1	0.000000	0.000000	6.182703	-0.059612	NaN	0.000000	0.001635	0.001695	28.0849	0.119206	0.001984	60.0811	113.951	176.038	0.006979	0.182017	-0.922809	-0.924087	-0.059612	60.0811	-0.922065	-2.018773E+12	2.952896E-14	NaN
1015	1.000000	0.193291	7.37498e+06	-50889.1	1055.82	-29754.1	0.000000	0.000000	6.192702	0.002993	NaN	0.000000	0.001619	0.001688	28.0847	0.065916	0.001905	34.6086	-104.45	-3.447916	0.112545	0.191934	-0.912812	-0.914170	0.002993	34.6086	-0.912877	-1.517135E+12	-1.972829E-15	NaN
1015	1.000000	0.203332	7.37498e+06	-50889.1	1055.82	-29754.1	0.000000	0.000000	6.202746	0.074868	NaN	0.000000	0.001584	0.001693	28.0845	0.038563	0.002092	18.4304	-106.96	176.38	0.089667	0.202060	-0.902771	-0.904043	0.074868	18.4304	-0.905818	-1.218067E+12	-6.146475E-14	NaN
1015	1.000000	0.213361	7.37498e+06	-50889.1	1055.82	-29754.1	0.000000	0.000000	6.212772	0.002047	NaN	0.000000	0.001592	0.001681	28.0845	0.082531	0.002030	40.6464	134.691	-1.709155	-0.081476	0.211976	-0.892743	-0.894127	0.002047	40.6464	-0.892780	-8.118931E+11	-2.520733E-15	NaN
1015	1.000000	0.223321	7.37498e+06	-50889.1	1055.82	-29754.1	0.000000	0.000000	6.222735	0.064083	NaN	0.000000	0.001581	0.001669	28.0844	0.070373	0.001983	35.4935	-119.288	175.646	0.050476	0.221986	-0.882782	-0.884117	0.064083	35.4935	-0.884136	-6.203559E+11	-1.033008E-13	NaN
1015	1.000000	0.233328	7.37498e+06	-50889.1	1055.82	-29754.1	0.000000	0.000000	6.232739	-0.017789	NaN	0.000000	0.001630	0.001687	28.0844	0.058273	0.002013	28.9443	111.055	-0.233602	-0.063245	0.231965	-0.872775	-0.874138	-0.017789	28.9443	-0.872314	-4.292873E+11	4.143767E-14	NaN
1015	1.000000	0.243351	7.37498e+06	-50889.1	1055.82	-29754.1	0.000000	0.000000	6.242763	0.021725	NaN	0.000000	0.001583	0.001658	28.0844	0.092330	0.002009	45.9492	1.680018	175.688	0.096017	0.242032	-0.862752	-0.864071	0.021725	45.9492	-0.863107	-3.222333E+11	-6.742094E-14	NaN
1015	1.000000	0.253348	7.37498e+06	-50889.1	1055.82	-29754.1	0.000000	0.000000	6.252761	0.031504	NaN	0.000000	0.001597	0.001693	28.0844	0.078006	0.001957	39.8644	107.5	-3.846055	0.034055	0.252018	-0.852755	-0.854085	0.031504	39.8644	-0.853348	-2.377231E+11	-1.325245E-13	NaN
1015	1.000000	0.263325	7.37498e+06	-50889.1	1055.82	-29754.1	0.000000	0.000000	6.262740	0.083116	NaN	0.000000	0.001613	0.001687	28.0844	0.072476	0.001808	40.0938	51.139	179.308	0.030252	0.262018	-0.842778	-0.844085	0.083116	40.0938	-0.844333	-1.794669E+11	-4.631288E-13	NaN
1015	1.000000	0.273339	7.37498e+06	-50889.1	1055.82	-29754.1	0.000000	0.000000	6.272750	-0.012819	NaN	0.000000	0.001588	0.001647	28.0842	0.044043	0.002048	21.5037	146.426	-3.113881	0.055722	0.272038	-0.832764	-0.834065	-0.012819	21.5037	-0.832317	-1.233652E+11	1.039080E-13	NaN
1015	1.000000	0.283351	7.37498e+06	-50889.1	1055.82	-29754.1	0.000000	0.000000	6.282762	-0.013218	NaN	0.000000	0.001622	0.001677	28.0844	0.108308	0.002017	53.6899	126.429	174.048	-0.010561	0.282056	-0.822752	-0.824048	-0.013218	53.6899	-0.822567	-9.099673E+10	1.452628E-13	NaN
1015	1.000000	0.293353	7.37498e+06	-50889.1	1055.82	-29754.1	0.000000	0.000000	6.292766	0.047062	NaN	0.000000	0.001590	0.001664	28.0845	0.041716	0.002030	20.5509	-160.294	-0.085117	0.003334	0.292008	-0.812750	-0.814095	0.047062	20.5509	-0.814468	-7.066085E+10	-6.660274E-13	NaN
1015	1.000000	0.303350	7.37498e+06	-50889.1	1055.82	-29754.1	0.000000	0.000000	6.302761	0.008106	NaN	0.000000	0.001556	0.001676	28.083	0.027912	0.001971	14.1619	29.3441	175.109	-0.024764	0.302019	-0.802754	-0.804084	0.008106	14.1619	-0.803183	-4.966673E+10	-1.632042E-13	NaN
1015	1.000000	0.313379	7.37498e+06	-50889.1	1055.82	-29754.1	0.000000	0.000000	6.312789	-0.024974	NaN	0.000000	0.001588	0.001719	28.0829	0.059701	0.001942	30.7418	156.258	-1.707208	-0.071654	0.312018	-0.792725	-0.794085	-0.024974	30.7418	-0.792115	-3.514084E+10	7.106693E-13	NaN
1015	1.000000	0.323368	7.37498e+06	-50889.1	1055.82	-29754.1	0.000000	0.000000	6.322780	0.009729	NaN	0.000000	0.001487	0.001696	28.0833	0.030825	0.002091	14.7438	79.5459	176.372	0.039036	0.322081	-0.782735	-0.784022	0.009729	14.7438	-0.783230	-2.661486E+10	-3.655604E-13	NaN
1015	1.000000	0.333377	7.37498e+06	-50889.1	1055.82	-29754.1	0.000000	0.000000	6.332790	0.032310	NaN	0.000000	0.001524	0.001675	28.083	0.134353	0.002047	65.6408	-156.511	-2.094933	0.013070	0.332028	-0.772726	-0.774076	0.032310	65.6408	-0.773095	-1.938147E+10	-1.667079E-12	NaN
1015	1.000000	0.343384	7.37498e+06	-50889.1	1055.82	-29754.1	0.000000	0.000000	6.342796	0.005302	NaN	0.000000	0.001544	0.001692	28.0831	0.030956	0.002005	15.4412	138.662	176.248	-0.026939	0.342101	-0.762719	-0.764003	0.005302	15.4412	-0.762976	-1.411859E+10	-3.754984E-13	NaN
1015	1.000000	0.353403	7.37498e+06	-50889.1	1055.82	-29754.1	0.000000	0.000000	6.352817	0.047940	NaN	0.000000	0.001543	0.001656	28.083	0.034634	0.001899	18.2371	-128.939	-2.078098	0.061508	0.352090	-0.752700	-0.754013	0.047940	18.2371	-0.754671	-1.088430E+10	-4.404520E-12	NaN
1015	1.000000	0.363404	7.37498e+06	-50889.1	1055.82	-29754.1	0.000000	0.000000	6.362815	-0.015017	NaN	0.000000	0.001515	0.001700	28.0834	0.055212	0.002107	26.1989	-150.138	178.266	-0.065019	0.362068	-0.742699	-0.744036	-0.015017	26.1989	-0.742270	-7.378472E+9	2.035285E-12	NaN
1015	1.000000	0.373396	7.37498e+06	-50889.1	1055.82	-29754.1	0.000000	0.000000	6.372809	0.039718	NaN	0.000000	0.001522	0.001705	28.0831	0.047094	0.002061	22.8552	59.7565	-2.850230	0.008681	0.372065	-0.732707	-0.734038	0.039718	22.8552	-0.734010	-5.694524E+9	-6.974785E-12	NaN
1015	1.000000	0.383410	7.37498e+06	-50889.1	1055.82	-29754.1	0.000000	0.000000	6.382822	0.016461	NaN	0.000000	0.001549	0.001692	28.0832	0.123219	0.002058	59.8832	83.3108	-178.057	0.049020	0.382090	-0.722693	-0.724013	0.016461	59.8832	-0.722899	-4.017994E+9	-4.096716E-12	NaN
1015	1.000000	0.393410	7.37498e+06	-50889.1	1055.82	-29754.1	0.000000	0.000000	6.392822	0.028627	NaN	0.000000	0.001495	0.001710	28.0833	0.106596	0.002007	53.1174	94.7885	1.770383	0.093393	0.392060	-0.712693	-0.714043	0.028627	53.1174	-0.713098	-2.953374E+9	-9.692975E-12	NaN
1015	1.000000	0.403404	7.37498e+06	-50889.1	1055.82	-29754.1	0.000000	0.000000	6.402818	0.050868	NaN	0.000000	0.001518	0.001701	28.0832	0.096979	0.001842	52.6538	37.1809	175.32	0.091121	0.402088	-0.702699	-0.704015	0.050868	52.6538	-0.703424	-2.179110E+9	-2.334357E-11	NaN
1015	1.000000	0.413420	7.37498e+06	-50889.1	1055.82	-29754.1	0.000000	0.000000	6.412832	0.008456	NaN	0.000000	0.001501	0.001666	28.0833	0.087045	0.002011	43.2755	-94.4813	1.073359	0.028349	0.412034	-0.692683	-0.694070	0.008456	43.2755	-0.692830	-1.561663E+9	-5.414959E-12	NaN
1015	1.000000	0.423405	7.37498e+06	-50889.1	1055.82	-29754.1	0.000000	0.000000	6.422818	0.037278	NaN	0.000000	0.001509	0.001690	28.0835	0.025279	0.002059	12.2749	-27.6676	178.518	0.002129	0.422107	-0.682698	-0.683996	0.037278	12.2749	-0.684976	-1.219689E+9	-3.056390E-11	NaN
1015	1.000000	0.433420	7.37498e+06	-50889.1	1055.82	-29754.1	0.000000	0.000000	6.432832	0.022986	NaN	0.000000	0.001506	0.001675	28.0834	0.070441	0.002017	34.9277	-155.622	-1.364842	-0.025552	0.432094	-0.672683	-0.674010	0.022986	34.9277	-0.673177	-8.411393E+8	-2.732678E-11	NaN
1015	1.000000	0.443424	7.37498e+06	-50889.1	1055.82	-29754.1	0.000000	0.000000	6.442839	0.074132	NaN	0.000000	0.001533	0.001706	28.0851	0.061915	0.002076	29.8175	-95.8038	176.311	0.066539	0.442139	-0.662679	-0.663964	0.074132	29.8175	-0.664544	-6.407562E+8	-1.156952E-10	NaN
1015	1.000000	0.453437	7.37498e+06	-50889.1	1055.82	-29754.1	0.000000	0.000000	6.452850	0.028598	NaN	0.000000	0.001508	0.001687	28.0847	0.061589	0.002106	29.2413	103.392	-2.159402	-0.020751	0.452061	-0.652666	-0.654042	0.028598	29.2413	-0.653400	-4.508552E+8	-6.342972E-11	NaN
1015	1.000000	0.463444	7.37498e+06	-50889.1	1055.82	-29754.1	0.000000	0.000000	6.462855	-0.015736	NaN	0.000000	0.001555	0.001662	28.0851	0.007587	0.002009	3.777027	-156.114	177.504	-0.035397	0.462124	-0.642659	-0.643980	-0.015736	3.777027	-0.639534	-2.910050E+8	5.407527E-11	NaN
1015	1.000000	0.473436	7.37498e+06	-50889.1	1055.82	-29754.1	0.000000	0.000000	6.472846	-0.041993	NaN	0.000000	0.001539	0.001689	28.0846	0.063418	0.001966	32.252	-164.401	-6.278580	-0.044868	0.472077	-0.632667	-0.634026	-0.041993	32.252	-0.631691	-2.271110E+8	1.848988E-10	NaN
1015	1.000000	0.483466	7.37498e+06	-50889.1	1055.82	-29754.1	0.000000	0.000000	6.482874	-0.060682	NaN	0.000000	0.001545	0.001667	28.0846	0.103063	0.002049	50.3089	-143.332	-178.515	-0.025784	0.482074	-0.622638	-0.624029	-0.060682	50.3089	-0.621733	-1.657504E+8	3.661069E-10	NaN
1015	1.000000	0.493485	7.37498e+06	-50889.1	1055.82	-29754.1	0.000000	0.000000	6.492894	-0.055882	NaN	0.000000	0.001543	0.001636	28.0845	0.046131	0.001929	23.9099	74.4952	0.181567	0.001802	0.492130	-0.612619	-0.613973	-0.055882	23.9099	-0.610866	-1.174967E+8	4.756079E-10	NaN
1015	1.000000	0.503432	7.37498e+06	-50889.1	1055.82	-29754.1	0.000000	0.000000	6.502844	0.006951	NaN	0.000000	0.001508	0.001694	28.0849	0.091913	0.001886	48.7336	67.0426	174.127	-0.031089	0.502093	-0.602671	-0.604010	0.006951	48.7336	-0.602778	-9.093178E+7	-7.643657E-11	NaN
1015	1.000000	0.513447	7.37498e+06	-50889.1	1055.82	-29754.1	0.000000	0.000000	6.512858	-0.023772	NaN	0.000000	0.001541	0.001751	28.0844	0.022572	0.002027	11.1352	80.9105	-1.417659	-0.027755	0.512116	-0.592656	-0.593987	-0.023772	11.1352	-0.591055	-6.269118E+7	3.791988E-10	NaN
1015	1.000000	0.523480	7.37498e+06	-50889.1	1055.82	-29754.1	0.000000	0.000000	6.522891	-0.004961	NaN	0.000000	0.001548	0.001655	28.0846	0.062999	0.002182	28.8784	-109.481	176.89	0.045430	0.522181	-0.582624	-0.583922	-0.004961	28.8784	-0.582495	-4.777009E+7	1.038446E-10	NaN
1015	1.000000	0.533456	7.37498e+06	-50889.1	1055.82	-29754.1	0.000000	0.000000	6.532868	0.035540	NaN	0.000000	0.001572	0.001705	28.0844	0.022814	0.001992	11.4526	56.952	-3.626451	0.000676	0.532112	-0.572648	-0.573991	0.035540	11.4526	-0.574975	-3.761455E+7	-9.448379E-10	NaN
1015	1.000000	0.543495	7.37498e+06	-50889.1	1055.82	-29754.1	0.000000	0.000000	6.542908	0.038740	NaN	0.000000	0.001561	0.001636	28.0847	0.014987	0.001928	7.771322	141.991	177.523	0.018936	0.542151	-0.562608	-0.563953	0.038740	7.771322	-0.566347	-2.858562E+7	-1.355221E-9	NaN
1015	1.000000	0.553463	7.37498e+06	-50889.1	1055.82	-29754.1	0.000000	0.000000	6.552876	0.033443	NaN	0.000000	0.001529	0.001689	28.0845	0.099345	0.002014	49.3338	-117.525	-2.339770	-0.046212	0.552134	-0.552640	-0.553969	0.033443	49.3338	-0.553148	-1.877396E+7	-1.781357E-9	NaN
1015	1.000000	0.563462	7.37498e+06	-50889.1	1055.82	-29754.1	0.000000	0.000000	6.562875	0.046646	NaN	0.000000	0.001515	0.001680	28.0844	0.125425	0.002016	62.2117	165.533	175.646	0.057835	0.562161	-0.542641	-0.543943	0.046646	62.2117	-0.543204	-1.367035E+7	-3.412235E-9	NaN
1015	1.000000	0.573492	7.37498e+06	-50889.1	1055.82	-29754.1	0.000000	0.000000	6.572904	0.004544	NaN	0.000000	0.001548	0.001688	28.0847	0.073542	0.002047	35.9313	20.1901	-3.203028	-0.000514	0.572118	-0.532611	-0.533985	0.004544	35.9313	-0.532706	-9.77569e+06	-4.648327E-10	NaN
1015	1.000000	0.583494	7.37498e+06	-50889.1	1055.82	-29754.1	0.000000	0.000000	6.582907	0.044465	NaN	0.000000	0.001523	0.001667	28.0834	0.048172	0.001964	24.5295	-143.547	178.339	-0.021969	0.582188	-0.522610	-0.523916	0.044465	24.5295	-0.523969	-7.39237e+06	-6.015046E-9	NaN
1015	1.000000	0.593519	7.37498e+06	-50889.1	1055.82	-29754.1	0.000000	0.000000	6.592931	0.012696	NaN	0.000000	0.001544	0.001671	28.0836	0.020620	0.001928	10.6953	-12.0189	-3.170563	0.040656	0.592135	-0.512585	-0.513968	0.012696	10.6953	-0.513475	-5.28207e+06	-2.403632E-9	NaN
1015	1.000000	0.603501	7.37498e+06	-50889.1	1055.82	-29754.1	0.000000	0.000000	6.602914	0.042245	NaN	0.000000	0.001525	0.001663	28.0833	0.017082	0.002024	8.438501	-82.2092	-178.244	-0.017389	0.602227	-0.502602	-0.503876	0.042245	8.438501	-0.506357	-4.20394e+06	-1.004899E-8	NaN
1015	1.000000	0.613497	7.37498e+06	-50889.1	1055.82	-29754.1	0.000000	0.000000	6.612908	-0.011987	NaN	0.000000	0.001493	0.001721	28.0835	0.035891	0.002102	17.076	-112.33	-1.859069	0.003128	0.612142	-0.492607	-0.493961	-0.011987	17.076	-0.492080	-2.65738e+06	4.510958E-9	NaN
1015	1.000000	0.623521	7.37498e+06	-50889.1	1055.82	-29754.1	0.000000	0.000000	6.622931	-0.039922	NaN	0.000000	0.001547	0.001676	28.0833	0.083669	0.002176	38.4578	48.9681	177.385	0.070120	0.622156	-0.482582	-0.483947	-0.039922	38.4578	-0.481804	-1.90885e+06	2.091443E-8	NaN
1015	1.000000	0.633506	7.37498e+06	-50889.1	1055.82	-29754.1	0.000000	0.000000	6.632920	0.068856	NaN	0.000000	0.001548	0.001680	28.0833	0.145506	0.001952	74.5539	56.4363	0.317512	0.047521	0.632173	-0.472597	-0.473930	0.068856	74.5539	-0.473290	-1.45055e+06	-4.746893E-8	NaN
1015	1.000000	0.643509	7.37498e+06	-50889.1	1055.82	-29754.1	0.000000	0.000000	6.642918	-0.063803	NaN	0.000000	0.001563	0.001652	28.0834	0.049526	0.002038	24.3038	-36.1324	176.168	-0.077846	0.642212	-0.462594	-0.463891	-0.063803	24.3038	-0.460625	-963393	6.622748E-8	NaN
1015	1.000000	0.653488	7.37498e+06	-50889.1	1055.82	-29754.1	0.000000	0.000000	6.652902	0.077710	NaN	0.000000	0.001546	0.001670	28.0831	0.116813	0.001997	58.5009	-144.57	-3.903040	0.068348	0.652159	-0.452616	-0.453945	0.077710	58.5009	-0.453612	-767693	-1.012256E-7	NaN
1015	1.000000	0.663559	7.37498e+06	-50889.1	1055.82	-29754.1	0.000000	0.000000	6.662970	-0.020869	NaN	0.000000	0.001568	0.001635	28.0835	0.057268	0.001912	29.9546	-32.9444	176.935	0.000178	0.662205	-0.442544	-0.443898	-0.020869	29.9546	-0.442022	-527099	3.959221E-8	NaN
1015	1.000000	0.673538	7.37498e+06	-50889.1	1055.82	-29754.1	0.000000	0.000000	6.672948	-0.025872	NaN	0.000000	0.001596	0.001657	28.0834	0.042965	0.001980	21.7049	-96.5992	-0.597010	-0.014736	0.672161	-0.432565	-0.433943	-0.025872	21.7049	-0.431671	-376446	6.872781E-8	NaN
1015	1.000000	0.683531	7.37498e+06	-50889.1	1055.82	-29754.1	0.000000	0.000000	6.682941	-0.017769	NaN	0.000000	0.001540	0.001683	28.0838	0.082599	0.002164	38.1751	-149.19	-177.218	0.029566	0.682266	-0.422573	-0.423837	-0.017769	38.1751	-0.422224	-276657	6.422831E-8	NaN
1015	1.000000	0.693486	7.37498e+06	-50889.1	1055.82	-29754.1	0.000000	0.000000	6.692900	0.050467	NaN	0.000000	0.001521	0.001700	28.0834	0.072990	0.002002	36.4615	-149.429	-0.818657	0.102473	0.692205	-0.412617	-0.413899	0.050467	36.4615	-0.413655	-209098	-2.413553E-7	NaN
1015	1.000000	0.703538	7.37498e+06	-50889.1	1055.82	-29754.1	0.000000	0.000000	6.702952	0.067489	NaN	0.000000	0.001553	0.001692	28.0835	0.134374	0.002042	65.7937	-147.341	173.904	0.041742	0.702280	-0.402565	-0.403824	0.067489	65.7937	-0.403334	-149115	-4.525959E-7	NaN
1015	1.000000	0.713539	7.37498e+06	-50889.1	1055.82	-29754.1	0.000000	0.000000	6.712950	-0.014993	NaN	0.000000	0.001552	0.001715	28.0846	0.121949	0.001945	62.7026	-47.5963	-0.291550	-0.004846	0.712214	-0.392564	-0.393889	-0.014993	62.7026	-0.392385	-104057	1.440856E-7	NaN
1015	1.000000	0.723556	7.37498e+06	-50889.1	1055.82	-29754.1	0.000000	0.000000	6.722969	0.042911	NaN	0.000000	0.001564	0.001693	28.0843	0.037786	0.001939	19.4823	-83.4546	179.428	-0.004710	0.722215	-0.382548	-0.383889	0.042911	19.4823	-0.384200	-79454	-5.400707E-7	NaN
1015	1.000000	0.733565	7.37498e+06	-50889.1	1055.82	-29754.1	0.000000	0.000000	6.732978	0.055367	NaN	0.000000	0.001571	0.001722	28.0847	0.161472	0.001887	85.5508	-135.446	-2.228714	-0.007829	0.732232	-0.372539	-0.373871	0.055367	85.5508	-0.373024	-54910.5	-1.008309E-6	NaN
1015	1.000000	0.743558	7.37498e+06	-50889.1	1055.82	-29754.1	0.000000	0.000000	6.742968	-0.030720	NaN	0.000000	0.001585	0.001662	28.0848	0.126521	0.001962	64.4825	52.4973	177.862	0.005601	0.742260	-0.362545	-0.363844	-0.030720	64.4825	-0.362188	-38323.3	8.015951E-7	NaN
1015	1.000000	0.753556	7.37498e+06	-50889.1	1055.82	-29754.1	0.000000	0.000000	6.752970	0.068189	NaN	0.000000	0.001569	0.001724	28.0847	0.076092	0.002119	35.9011	-169.766	-0.742204	-0.039528	0.752242	-0.352547	-0.353861	0.068189	35.9011	-0.353972	-29147.2	-2.339453E-6	NaN
1015	1.000000	0.763572	7.37498e+06	-50889.1	1055.82	-29754.1	0.000000	0.000000	6.762982	-0.041889	NaN	0.000000	0.001582	0.001704	28.0847	0.155478	0.001874	82.9586	-12.1785	175.608	-0.005397	0.762215	-0.342531	-0.343889	-0.041889	82.9586	-0.342152	-19629.6	2.133959E-6	NaN
1015	1.000000	0.773609	7.37498e+06	-50889.1	1055.82	-29754.1	0.000000	0.000000	6.773023	0.060597	NaN	0.000000	0.001534	0.001720	28.0847	0.122210	0.001950	62.6615	52.2759	3.679767	0.095879	0.772222	-0.332494	-0.333881	0.060597	62.6615	-0.333219	-14539.8	-4.167664E-6	NaN
1015	1.000000	0.783559	7.37498e+06	-50889.1	1055.82	-29754.1	0.000000	0.000000	6.782974	0.069526	NaN	0.000000	0.001552	0.001715	28.0847	0.098797	0.002051	48.1603	37.7544	176.463	0.044323	0.782266	-0.322544	-0.323838	0.069526	48.1603	-0.323627	-10518.9	-6.609671E-6	NaN
1015	1.000000	0.793589	7.37498e+06	-50889.1	1055.82	-29754.1	0.000000	0.000000	6.793004	0.083888	NaN	0.000000	0.001573	0.001655	28.0849	0.046687	0.001976	23.6245	-33.8168	-4.518538	0.051876	0.792281	-0.312514	-0.313822	0.083888	23.6245	-0.315177	-7898.8	-1.062039E-5	NaN
1015	1.000000	0.803590	7.37498e+06	-50889.1	1055.82	-29754.1	0.000000	0.000000	6.803001	-0.015327	NaN	0.000000	0.001551	0.001733	28.0846	0.047196	0.001909	24.7247	-157.825	175.678	-0.112081	0.802284	-0.302513	-0.303820	-0.015327	24.7247	-0.302048	-5047.9	3.036256E-6	NaN
1015	1.000000	0.813590	7.37498e+06	-50889.1	1055.82	-29754.1	0.000000	0.000000	6.813000	-0.026544	NaN	0.000000	0.001582	0.001748	28.0849	0.081399	0.002067	39.3748	179.936	-4.911303	0.011326	0.812210	-0.292514	-0.293894	-0.026544	39.3748	-0.292008	-3575.75	7.423296E-6	NaN
1015	1.000000	0.823582	7.37498e+06	-50889.1	1055.82	-29754.1	0.000000	0.000000	6.822992	-0.029583	NaN	0.000000	0.001567	0.001731	28.0852	0.107107	0.002087	51.3207	-86.5723	178.32	0.019828	0.822266	-0.282521	-0.283838	-0.029583	51.3207	-0.282089	-2537.83	1.165662E-5	NaN
1015	1.000000	0.833604	7.37498e+06	-50889.1	1055.82	-29754.1	0.000000	0.000000	6.833016	0.026659	NaN	0.000000	0.001571	0.001685	28.0853	0.083815	0.002046	40.9586	-73.7851	-0.909625	0.058176	0.832242	-0.272500	-0.273861	0.026659	40.9586	-0.272988	-1848.88	-1.441911E-5	NaN
1015	1.000000	0.843593	7.37498e+06	-50889.1	1055.82	-29754.1	0.000000	0.000000	6.843002	-0.042058	NaN	0.000000	0.001586	0.001696	28.0851	0.093265	0.001953	47.7464	74.4461	175.883	-0.080142	0.842333	-0.262511	-0.263770	-0.042058	47.7464	-0.261850	-1250.98	3.362004E-5	NaN
1015	1.000000	0.853586	7.37498e+06	-50889.1	1055.82	-29754.1	0.000000	0.000000	6.852997	-0.004887	NaN	0.000000	0.001557	0.001718	28.0834	0.134882	0.001955	68.9946	-158.806	-1.851606	0.044296	0.852239	-0.252517	-0.253864	-0.004887	68.9946	-0.252464	-897.503	5.444663E-6	NaN
1015	1.000000	0.863614	7.37498e+06	-50889.1	1055.82	-29754.1	0.000000	0.000000	6.863025	-0.009171	NaN	0.000000	0.001547	0.001670	28.0837	0.016274	0.002003	8.125821	-93.3028	177.326	0.017664	0.862308	-0.242490	-0.243795	-0.009171	8.125821	-0.241643	-609.815	1.503958E-5	NaN
1015	1.000000	0.873589	7.37498e+06	-50889.1	1055.82	-29754.1	0.000000	0.000000	6.872999	-0.029607	NaN	0.000000	0.001563	0.001713	28.0848	0.013210	0.001949	6.778435	-98.8052	-1.694115	0.010037	0.872271	-0.232515	-0.233832	-0.029607	6.778435	-0.229239	-389.487	7.601482E-5	NaN
1015	1.000000	0.883593	7.37498e+06	-50889.1	1055.82	-29754.1	0.000000	0.000000	6.883004	-0.029950	NaN	0.000000	0.001560	0.001696	28.0837	0.038652	0.002022	19.1143	-174.543	175.33	-0.096730	0.882295	-0.222510	-0.223808	-0.029950	19.1143	-0.221335	-291.736	0.000103	NaN
1015	1.000000	0.893607	7.37498e+06	-50889.1	1055.82	-29754.1	0.000000	0.000000	6.893017	-0.038012	NaN	0.000000	0.001541	0.001733	28.0837	0.065119	0.001972	33.0145	-108.437	-3.125376	-0.022967	0.892250	-0.212496	-0.213853	-0.038012	33.0145	-0.211632	-203.81	0.000187	NaN
1015	1.000000	0.903610	7.37498e+06	-50889.1	1055.82	-29754.1	0.000000	0.000000	6.903020	-0.034920	NaN	0.000000	0.001610	0.001745	28.0837	0.073314	0.002022	36.2514	26.787	173.495	-0.059603	0.902319	-0.202493	-0.203785	-0.034920	36.2514	-0.201771	-140.85	0.000248	NaN
1015	1.000000	0.913651	7.37498e+06	-50889.1	1055.82	-29754.1	0.000000	0.000000	6.913064	0.042580	NaN	0.000000	0.001608	0.001705	28.0835	0.063025	0.002020	31.1951	51.4089	-1.678974	0.023471	0.912257	-0.192452	-0.193846	0.042580	31.1951	-0.193476	-102.783	-0.000414	NaN
1015	1.000000	0.923639	7.37498e+06	-50889.1	1055.82	-29754.1	0.000000	0.000000	6.923051	0.024878	NaN	0.000000	0.001594	0.001728	28.0836	0.016923	0.001998	8.470140	165.665	177.095	0.048315	0.922339	-0.182465	-0.183764	0.024878	8.470140	-0.184668	-73.2028	-0.000340	NaN
1015	1.000000	0.933649	7.37498e+06	-50889.1	1055.82	-29754.1	0.000000	0.000000	6.933060	-0.019042	NaN	0.000000	0.001591	0.001704	28.0834	0.064412	0.002041	31.5585	17.0196	-7.252045	0.045262	0.932322	-0.172454	-0.173781	-0.019042	31.5585	-0.172002	-44.4935	0.000428	NaN
1015	1.000000	0.943619	7.37498e+06	-50889.1	1055.82	-29754.1	0.000000	0.000000	6.943029	-0.045340	NaN	0.000000	0.001540	0.001722	28.0837	0.018064	0.002013	8.974616	-28.7391	175.066	-0.004263	0.942302	-0.162484	-0.163802	-0.045340	8.974616	-0.158695	-25.9871	0.001745	NaN
1015	1.000000	0.953623	7.37498e+06	-50889.1	1055.82	-29754.1	0.000000	0.000000	6.953035	0.015994	NaN	0.000000	0.001544	0.001737	28.0836	0.091587	0.002050	44.675	149.038	-3.726363	-0.073815	0.952309	-0.152480	-0.153794	0.015994	44.675	-0.152749	-20.3212	-0.000787	NaN
1015	1.000000	0.963635	7.37498e+06	-50889.1	1055.82	-29754.1	0.000000	0.000000	6.963044	-0.059892	NaN	0.000000	0.001566	0.001730	28.0835	0.125848	0.001977	63.6556	-46.6207	177.908	-0.027325	0.962324	-0.142468	-0.143779	-0.059892	63.6556	-0.141762	-12.7638	0.004692	NaN
1015	1.000000	0.973642	7.37498e+06	-50889.1	1055.82	-29754.1	0.000000	0.000000	6.973052	-0.024659	NaN	0.000000	0.001549	0.001721	28.0837	0.054245	0.002073	26.1657	22.1083	-4.462550	0.001146	0.972300	-0.132461	-0.133804	-0.024659	26.1657	-0.131755	-8.241185	0.002992	NaN
1015	1.000000	0.983683	7.37498e+06	-50889.1	1055.82	-29754.1	0.000000	0.000000	6.983094	-0.008605	NaN	0.000000	0.001557	0.001725	28.0841	0.064846	0.002066	31.3898	134.958	176.218	-0.052993	0.982322	-0.122420	-0.123781	-0.008605	31.3898	-0.122214	-5.352725	0.001608	NaN
1015	1.000000	0.993636	7.37498e+06	-50889.1	1055.82	-29754.1	0.000000	0.000000	6.993049	0.040808	NaN	0.000000	0.001542	0.001712	28.085	0.094328	0.002095	45.0218	-113.548	-2.042021	-0.011800	0.992291	-0.112468	-0.113812	0.040808	45.0218	-0.113147	-3.497525	-0.011668	NaN
1015	1.000000	1.003679	7.37498e+06	-50889.1	1055.82	-29754.1	0.000000	0.000000	7.003090	-0.007956	NaN	0.000000	0.001530	0.001751	28.0849	0.121601	0.002049	59.3434	167.289	175.884	0.004959	1.002327	-0.102424	-0.103776	-0.007956	59.3434	-0.102324	-2.055736	0.003870	NaN
1015	1.000000	1.013677	7.37498e+06	-50889.1	1055.82	-29754.1	0.000000	0.000000	7.013090	0.023983	NaN	0.000000	0.001537	0.001707	28.0853	0.049052	0.001876	26.1484	143.835	-3.117235	0.038376	1.012292	-0.092426	-0.093811	0.023983	26.1484	-0.093114	-1.277042	-0.018780	NaN
1015	1.000000	1.023681	7.37498e+06	-50889.1	1055.82	-29754.1	0.000000	0.000000	7.023093	0.020034	NaN	0.000000	0.001537	0.001695	28.0849	0.020090	0.001928	10.4222	-14.3208	174.406	0.092883	1.022341	-0.082423	-0.083762	0.020034	10.4222	-0.083864	-0.771066	-0.025982	NaN
1015	1.000000	1.033670	7.37498e+06	-50889.1	1055.82	-29754.1	0.000000	0.000000	7.033084	0.055844	NaN	0.000000	0.001564	0.001682	28.0846	0.065552	0.001978	33.1465	87.0685	-6.255956	0.098624	1.032291	-0.072433	-0.073813	0.055844	33.1465	-0.073697	-0.427226	-0.130713	NaN
1015	1.000000	1.043659	7.37498e+06	-50889.1	1055.82	-29754.1	0.000000	0.000000	7.043069	-0.049637	NaN	0.000000	0.001570	0.001709	28.0847	0.093826	0.002070	45.3351	5.531208	174.536	-0.033037	1.042369	-0.062444	-0.063734	-0.049637	45.3351	-0.061623	-0.200359	0.247741	NaN
1015	1.000000	1.053685	7.37498e+06	-50889.1	1055.82	-29754.1	0.000000	0.000000	7.053095	-0.024849	NaN	0.000000	0.001572	0.001739	28.0848	0.027432	0.001935	14.1735	-36.0791	-4.619707	-0.001538	1.052338	-0.052419	-0.053766	-0.024849	14.1735	-0.051104	-0.098526	0.252205	NaN
1015	1.000000	1.063699	7.37498e+06	-50889.1	1055.82	-29754.1	0.000000	0.000000	7.063110	-0.011256	NaN	0.000000	0.001555	0.001692	28.0846	0.045531	0.002078	21.9065	125.065	179.675	-0.063039	1.062371	-0.042404	-0.043733	-0.011256	21.9065	-0.042019	-0.052101	0.216048	NaN
1015	1.000000	1.073645	7.37498e+06	-50889.1	1055.82	-29754.1	0.000000	0.000000	7.073055	-0.039511	NaN	0.000000	0.001547	0.001733	28.0844	0.074540	0.001945	38.3188	90.5993	-3.645949	-0.083132	1.072325	-0.032458	-0.033778	-0.039511	38.3188	-0.031685	-0.025670	1.539194	NaN
1015	1.000000	1.083689	7.37498e+06	-50889.1	1055.82	-29754.1	0.000000	0.000000	7.083100	0.004128	NaN	0.000000	0.001592	0.001738	28.0846	0.055144	0.001978	27.8794	175.51	173.707	0.011322	1.082404	-0.022414	-0.023700	0.004128	27.8794	-0.022526	-0.014564	-0.283479	NaN
1015	1.000000	1.093725	7.37498e+06	-50889.1	1055.82	-29754.1	0.000000	0.000000	7.093135	-0.032773	NaN	0.000000	0.001543	0.001768	28.0847	0.068913	0.002124	32.4407	110.875	-4.386916	-0.051637	1.092377	-0.012379	-0.013727	-0.032773	32.4407	-0.011621	-0.007312	4.482000	NaN
1015	1.000000	1.103690	7.37498e+06	-50889.1	1055.82	-29754.1	0.000000	0.000000	7.103185	2.020841	NaN	0.000000	0.001589	0.001752	28.0844	2.870165	0.002003	1432.6	11.0359	171.554	0.835931	1.102385	-0.002413	-0.003718	2.020841	1432.6	-0.003471	-0.002433	-830.488	NaN
1015	2.000000	1.111882	7.37498e+06	-50889.1	1055.82	-29754.1	0.000000	0.000000	7.111648	8.624341	NaN	0.000000	0.001631	0.001749	28.0845	9.303513	0.001653	5629.63	8.739048	-13.6229	8.402488	1.111551	0.005779	0.005448	8.624341	5629.63	0.004630	0.003798	2270.57	83455.9
1015	2.000000	1.114328	7.37498e+06	-50889.1	1055.82	-29754.1	0.000000	0.000000	7.114204	11.2967	NaN	0.000000	0.001670	0.001749	28.0834	12.3005	0.001768	6958.47	9.083814	166.291	11.5897	1.113938	0.008224	0.007835	11.2967	6958.47	0.007007	0.006041	1870.13	81798.9
1015	2.000000	1.116824	7.37498e+06	-50889.1	1055.82	-29754.1	0.000000	0.000000	7.116831	14.4736	NaN	0.000000	0.001626	0.001730	28.0832	14.7446	0.001674	8809.83	7.203396	-14.5479	13.5041	1.116444	0.010721	0.010341	14.4736	8809.83	0.009489	0.008619	1679.35	86700.7
1015	2.000000	1.119270	7.37498e+06	-50889.1	1055.82	-29754.1	0.000000	0.000000	7.119505	20.0467	NaN	0.000000	0.001628	0.001758	28.0833	17.8761	0.001667	10722.6	7.319979	163.691	19.0789	1.118940	0.013166	0.012837	20.0467	10722.6	0.011764	0.011209	1788.52	92533
1015	2.000000	1.121780	7.37498e+06	-50889.1	1055.82	-29754.1	0.000000	0.000000	7.122099	22.0791	NaN	0.000000	0.001622	0.001708	28.0837	20.4281	0.001815	11255.9	7.454515	-15.8025	21.4795	1.121446	0.015677	0.015343	22.0791	11255.9	0.014205	0.014240	1550.46	86177.4
1015	2.000000	1.124233	7.37498e+06	-50889.1	1055.82	-29754.1	0.000000	0.000000	7.124780	27.6098	NaN	0.000000	0.001547	0.001730	28.0831	22.9998	0.001731	13287.5	5.609907	163.217	26.1988	1.124017	0.018129	0.017914	27.6098	13287.5	0.016571	0.017438	1583.34	91933.1
1015	2.000000	1.126781	7.37498e+06	-50889.1	1055.82	-29754.1	0.000000	0.000000	7.127566	33.4179	NaN	0.000000	0.001570	0.001723	28.0834	25.9806	0.001666	15593.5	3.615160	-16.067	32.3112	1.126488	0.020678	0.020385	33.4179	15593.5	0.019070	0.021102	1583.62	98073.5
1015	2.000000	1.129223	7.37498e+06	-50889.1	1055.82	-29754.1	0.000000	0.000000	7.130112	35.9464	NaN	0.000000	0.001572	0.001751	28.0831	28.2601	0.001761	16044.9	9.170231	157.379	33.4991	1.128901	0.023120	0.022797	35.9464	16044.9	0.021439	0.024855	1446.27	92983.4
1015	2.000000	1.131724	7.37498e+06	-50889.1	1055.82	-29754.1	0.000000	0.000000	7.132909	43.1475	NaN	0.000000	0.001567	0.001727	28.0836	30.8435	0.001731	17819.9	4.326537	-18.5924	40.752	1.131439	0.025620	0.025336	43.1475	17819.9	0.023804	0.028876	1494.22	95809.5
1015	2.000000	1.134181	7.37498e+06	-50889.1	1055.82	-29754.1	0.000000	0.000000	7.135503	46.4658	NaN	0.000000	0.001564	0.001748	28.0832	33.4652	0.001679	19935.7	0.913285	163.879	42.0785	1.133903	0.028078	0.027800	46.4658	19935.7	0.026330	0.033479	1387.91	99544.9
1015	2.000000	1.136701	7.37498e+06	-50889.1	1055.82	-29754.1	0.000000	0.000000	7.138608	60.689	NaN	0.000000	0.001586	0.001722	28.0834	35.413	0.001653	21422.7	4.584286	-19.8317	57.0901	1.136388	0.030597	0.030284	60.689	21422.7	0.028472	0.037637	1612.48	100888
1015	2.000000	1.139239	7.37498e+06	-50889.1	1055.82	-29754.1	0.000000	0.000000	7.141233	62.7963	NaN	0.000000	0.001578	0.001747	28.0834	39.3639	0.001701	23144.7	4.071721	159.317	61.4077	1.138888	0.033135	0.032785	62.7963	23144.7	0.031101	0.043056	1458.49	101908
1015	2.000000	1.141684	7.37498e+06	-50889.1	1055.82	-29754.1	0.000000	0.000000	7.143994	70.4895	NaN	0.000000	0.001594	0.001771	28.0833	42.333	0.001746	24248.2	3.995418	-20.9032	67.3705	1.141411	0.035581	0.035308	70.4895	24248.2	0.033401	0.048088	1465.85	101026
1015	2.000000	1.144276	7.37498e+06	-50889.1	1055.82	-29754.1	0.000000	0.000000	7.146810	75.947	NaN	0.000000	0.001614	0.001765	28.0831	45.5456	0.001775	25654.8	1.676367	161.023	76.2242	1.144047	0.038172	0.037944	75.947	25654.8	0.035952	0.053986	1406.8	100879
1015	2.000000	1.146860	7.37498e+06	-50889.1	1055.82	-29754.1	0.000000	0.000000	7.149996	90.5817	NaN	0.000000	0.001586	0.001744	28.0832	49.1069	0.001737	28270.7	11.0491	-27.8657	96.2984	1.146287	0.040756	0.040183	90.5817	28270.7	0.038353	0.059842	1513.69	105586
1015	2.000000	1.149226	7.37498e+06	-50889.1	1055.82	-29754.1	0.000000	0.000000	7.152734	99.607	NaN	0.000000	0.001565	0.001731	28.0847	50.3527	0.001770	28445.3	5.552791	157.449	98.834	1.148853	0.043123	0.042750	99.607	28445.3	0.040497	0.065319	1524.94	101687
1015	2.000000	1.151737	7.37498e+06	-50889.1	1055.82	-29754.1	0.000000	0.000000	7.155841	114.129	NaN	0.000000	0.001558	0.001719	28.0846	53.6316	0.001827	29349.5	7.355631	-25.9225	113.431	1.151397	0.045633	0.045293	114.129	29349.5	0.042717	0.071238	1602.08	100466
1015	2.000000	1.154230	7.37498e+06	-50889.1	1055.82	-29754.1	0.000000	0.000000	7.158672	122.344	NaN	0.000000	0.001529	0.001742	28.0847	55.9943	0.001740	32187.1	6.640281	154.429	121.973	1.153891	0.048126	0.047787	122.344	32187.1	0.045275	0.078371	1561.09	105045
1015	2.000000	1.156693	7.37498e+06	-50889.1	1055.82	-29754.1	0.000000	0.000000	7.161587	133.326	NaN	0.000000	0.001552	0.001743	28.0853	58.2186	0.001744	33376	5.172034	-24.3373	128.819	1.156346	0.050589	0.050243	133.326	33376	0.047593	0.085120	1566.34	104518
1015	2.000000	1.159239	7.37498e+06	-50889.1	1055.82	-29754.1	0.000000	0.000000	7.164779	149.019	NaN	0.000000	0.001593	0.001725	28.0848	60.6874	0.001688	35959.2	2.070194	158.239	151.766	1.158957	0.053136	0.052854	149.019	35959.2	0.050028	0.092499	1611.04	108023
1015	2.000000	1.161641	7.37498e+06	-50889.1	1055.82	-29754.1	0.000000	0.000000	7.168000	168.945	NaN	0.000000	0.001588	0.001773	28.0849	64.3112	0.001882	34164.6	5.219338	-24.4219	166.202	1.161240	0.055538	0.055137	168.945	34164.6	0.051829	0.098151	1721.27	99632.7
1015	2.000000	1.164126	7.37498e+06	-50889.1	1055.82	-29754.1	0.000000	0.000000	7.171285	188.4	NaN	0.000000	0.001629	0.001772	28.0847	67.2332	0.001818	36982.5	8.166095	151.907	184.812	1.163806	0.058022	0.057703	188.4	36982.5	0.054202	0.105841	1780.03	103859
1015	2.000000	1.166686	7.37498e+06	-50889.1	1055.82	-29754.1	0.000000	0.000000	7.174670	208.474	NaN	0.000000	0.001633	0.001753	28.0852	68.725	0.001682	40867.2	6.432411	-26.3416	205.674	1.166279	0.060582	0.060176	208.474	40867.2	0.056756	0.114435	1821.77	110375
1015	2.000000	1.169118	7.37498e+06	-50889.1	1055.82	-29754.1	0.000000	0.000000	7.177592	220.374	NaN	0.000000	0.001670	0.001788	28.0847	71.4524	0.001640	43577.2	3.992565	154.855	216.49	1.168912	0.063015	0.062809	220.374	43577.2	0.059222	0.123032	1791.19	113507
1015	2.000000	1.171703	7.37498e+06	-50889.1	1055.82	-29754.1	0.000000	0.000000	7.181120	243.308	NaN	0.000000	0.001662	0.001758	28.085	75.6663	0.001812	41763.9	3.472103	-24.1126	243.227	1.171302	0.065600	0.065199	243.308	41763.9	0.061230	0.130257	1867.91	105724
1015	2.000000	1.174120	7.37498e+06	-50889.1	1055.82	-29754.1	0.000000	0.000000	7.184576	268.555	NaN	0.000000	0.001661	0.001742	28.0847	79.1115	0.001768	44752.5	4.919551	153.458	265.588	1.173844	0.068017	0.067741	268.555	44752.5	0.063516	0.138719	1935.96	109780
1015	2.000000	1.176655	7.37498e+06	-50889.1	1055.82	-29754.1	0.000000	0.000000	7.188174	294.426	NaN	0.000000	0.001633	0.001731	28.0852	81.332	0.001831	44417.7	3.223262	-24.3478	289.257	1.176379	0.070552	0.070276	294.426	44417.7	0.065580	0.146575	2008.7	105998
1015	2.000000	1.179123	7.37498e+06	-50889.1	1055.82	-29754.1	0.000000	0.000000	7.191686	319.817	NaN	0.000000	0.001637	0.001739	28.0847	84.3072	0.001779	47387.4	4.778424	153.331	315.011	1.178778	0.073020	0.072675	319.817	47387.4	0.067958	0.155880	2051.69	109658
1015	2.000000	1.181518	7.37498e+06	-50889.1	1055.82	-29754.1	0.000000	0.000000	7.195065	343.749	NaN	0.000000	0.001661	0.001758	28.0843	88.0324	0.001756	50122.8	2.357691	-24.9669	335.793	1.181234	0.075414	0.075131	343.749	50122.8	0.070271	0.165191	2080.92	112672
1015	2.000000	1.184127	7.37498e+06	-50889.1	1055.82	-29754.1	0.000000	0.000000	7.198825	371.722	NaN	0.000000	0.001634	0.001683	28.0833	92.5184	0.001864	49646.8	5.221075	152.412	365.77	1.183875	0.078024	0.077772	371.722	49646.8	0.072408	0.174023	2136.05	108733
1015	2.000000	1.186592	7.37498e+06	-50889.1	1055.82	-29754.1	0.000000	0.000000	7.202452	400.002	NaN	0.000000	0.001619	0.001695	28.0836	94.245	0.001843	51150.4	7.051963	-29.4222	393.314	1.186377	0.080488	0.080273	400.002	51150.4	0.074623	0.183401	2181.02	109124
1015	2.000000	1.189122	7.37498e+06	-50889.1	1055.82	-29754.1	0.000000	0.000000	7.206558	438.322	NaN	0.000000	0.001627	0.001733	28.0834	96.5435	0.001810	53346.9	5.510564	152.016	434.902	1.188737	0.083019	0.082633	438.322	53346.9	0.076856	0.193091	2270.03	110918
1015	2.000000	1.191556	7.37498e+06	-50889.1	1055.82	-29754.1	0.000000	0.000000	7.210228	468.361	NaN	0.000000	0.001629	0.001754	28.0834	98.6017	0.001822	54120.9	1.413610	-23.4581	460.187	1.191256	0.085453	0.085153	468.361	54120.9	0.078963	0.202445	2313.52	109897
1015	2.000000	1.194158	7.37498e+06	-50889.1	1055.82	-29754.1	0.000000	0.000000	7.214077	498.712	NaN	0.000000	0.001615	0.001745	28.0832	102.017	0.001656	61619	2.906025	153.579	496.02	1.193858	0.088054	0.087755	498.712	61619	0.081984	0.216225	2306.45	121070
1015	2.000000	1.196641	7.37498e+06	-50889.1	1055.82	-29754.1	0.000000	0.000000	7.217802	528.877	NaN	0.000000	0.001607	0.001708	28.0834	104.672	0.001728	60580.2	7.054845	-30.3034	525.255	1.196131	0.090538	0.090027	528.877	60580.2	0.083990	0.225609	2344.22	116527
1015	2.000000	1.199119	7.37498e+06	-50889.1	1055.82	-29754.1	0.000000	0.000000	7.221848	567.024	NaN	0.000000	0.001617	0.001753	28.0831	106.025	0.001755	60419	2.735769	153.707	564.387	1.198748	0.093016	0.092644	567.024	60419	0.085977	0.235087	2411.98	113850
1015	2.000000	1.201556	7.37498e+06	-50889.1	1055.82	-29754.1	0.000000	0.000000	7.225818	604.283	NaN	0.000000	0.001595	0.001752	28.0834	108.525	0.001695	64009.9	5.499652	-29.2035	597.974	1.201150	0.095453	0.095047	604.283	64009.9	0.088373	0.246753	2448.94	117730
1015	2.000000	1.204041	7.37498e+06	-50889.1	1055.82	-29754.1	0.000000	0.000000	7.229563	634.953	NaN	0.000000	0.001622	0.001735	28.0835	113.717	0.001789	63561.6	6.525658	149.395	628.108	1.203755	0.097937	0.097651	634.953	63561.6	0.090445	0.257060	2470.06	114538
1015	2.000000	1.206611	7.37498e+06	-50889.1	1055.82	-29754.1	0.000000	0.000000	7.233998	680.301	NaN	0.000000	0.001652	0.001734	28.0835	114.061	0.001756	64956.6	4.344150	-28.1102	675.423	1.206187	0.100508	0.100084	680.301	64956.6	0.092653	0.268255	2536.02	114584
1015	2.000000	1.209011	7.37498e+06	-50889.1	1055.82	-29754.1	0.000000	0.000000	7.237538	708.008	NaN	0.000000	0.001626	0.001763	28.0833	115.959	0.001602	72401.9	1.224643	154.114	698.494	1.208679	0.102908	0.102576	708.008	72401.9	0.095574	0.283412	2498.16	124255
1015	2.000000	1.209565	7.37498e+06	-50889.1	1055.82	-29754.1	0.000000	0.000000	7.238596	720.256	NaN	0.000000	0.001615	0.001765	28.0834	117.113	0.001700	68890.4	4.729150	-29.2657	711.967	1.209185	0.103462	0.103082	720.256	68890.4	0.095621	0.283659	2539.16	118177