File: remote_trans/data/nanoindenter/0828-1/data/Data_2025-08-06,11h17m57s/2025-07-22_16-23-58_1_444.txt
2025-07-22, 16:23:58, 1
Index	Phase	Displacement	Time	Pos X	Pos Y	Pos Z	Rot A	Rot B	Piezo Z	Force A	Force B	Gripper	Voltage A	Voltage B	Temperature	Amplitude force	Amplitude pos	Stiffness	Phase shift	Phase excitation	Force A raw	Displacement raw	HMax	HMax raw	Real Force	Real Stiffness	Contact Depth	Area	Hardness	Reduced Mod.
[#]	[#]	[um]	[s]	[um]	[um]	[um]	[m°]	[m°]	[um]	[uN]	[uN]	[V]	[V]	[V]	[°C]	[uN]	[um]	[N/m]	[°]	[°]	[uN]	[um]	[um]	[um]	[uN]	[N/m]	[um]	[um^2]	[MPa]	[MPa]
444	1.000000	0.002996	7.3694e+06	-54889.1	1005.82	-29742.7	0.000000	0.000000	6.002808	-0.028096	NaN	0.000000	0.001681	0.001626	28.0802	0.146061	0.001066	137.071	-133.409	-160.238	0.114630	0.001721	-1.074768	-1.076044	-0.028096	137.071	-1.074614	-2.286531E+14	1.228755E-16	NaN
444	1.000000	0.010931	7.3694e+06	-54889.1	1005.82	-29742.7	0.000000	0.000000	6.010744	-0.011962	NaN	0.000000	0.001726	0.001689	28.0797	0.066197	0.001100	60.1798	-118.375	-167.193	0.033266	0.009626	-1.066833	-1.068139	-0.011962	60.1798	-1.066684	-1.789118E+14	6.685779E-17	NaN
444	1.000000	0.018916	7.3694e+06	-54889.1	1005.82	-29742.7	0.000000	0.000000	6.018729	-0.008665	NaN	0.000000	0.001739	0.001682	28.0798	0.045434	0.001631	27.8561	13.9309	-167.028	-0.014827	0.017662	-1.058848	-1.060103	-0.008665	27.8561	-1.058615	-1.393809E+14	6.217047E-17	NaN
444	1.000000	0.026951	7.3694e+06	-54889.1	1005.82	-29742.7	0.000000	0.000000	6.026763	-0.009604	NaN	0.000000	0.001736	0.001666	28.0799	0.037859	0.001744	21.7111	28.1312	-166.156	0.091578	0.025635	-1.050814	-1.052129	-0.009604	21.7111	-1.050482	-1.083661E+14	8.862536E-17	NaN
444	1.000000	0.034911	7.3694e+06	-54889.1	1005.82	-29742.7	0.000000	0.000000	6.034724	0.011245	NaN	0.000000	0.001710	0.001676	28.0796	0.118238	0.001972	59.9589	-128.702	-167.14	-0.008368	0.033603	-1.042853	-1.044162	0.011245	59.9589	-1.042994	-8.594563E+13	-1.308346E-16	NaN
444	1.000000	0.042963	7.3694e+06	-54889.1	1005.82	-29742.7	0.000000	0.000000	6.042775	-0.013969	NaN	0.000000	0.001707	0.001672	28.081	0.049016	0.001986	24.6818	-62.1352	-166.72	0.026871	0.041647	-1.034802	-1.036117	-0.013969	24.6818	-1.034377	-6.581918E+13	2.122293E-16	NaN
444	1.000000	0.050955	7.3694e+06	-54889.1	1005.82	-29742.7	0.000000	0.000000	6.050769	0.015670	NaN	0.000000	0.001686	0.001671	28.0811	0.046305	0.001932	23.9621	-43.7767	-167.008	0.037607	0.049635	-1.026809	-1.028129	0.015670	23.9621	-1.027299	-5.286338E+13	-2.964246E-16	NaN
444	1.000000	0.058947	7.3694e+06	-54889.1	1005.82	-29742.7	0.000000	0.000000	6.058759	-0.024752	NaN	0.000000	0.001656	0.001676	28.0812	0.099677	0.002089	47.7173	125.377	-167.997	0.012528	0.057632	-1.018817	-1.020132	-0.024752	47.7173	-1.018428	-4.016061E+13	6.163371E-16	NaN
444	1.000000	0.066944	7.3694e+06	-54889.1	1005.82	-29742.7	0.000000	0.000000	6.066756	-0.014811	NaN	0.000000	0.001685	0.001647	28.0812	0.003953	0.001945	2.032230	46.3357	-168.039	-0.009305	0.065621	-1.010820	-1.012144	-0.014811	2.032230	-1.005354	-2.678252E+13	5.529946E-16	NaN
444	1.000000	0.074939	7.3694e+06	-54889.1	1005.82	-29742.7	0.000000	0.000000	6.074750	-0.033643	NaN	0.000000	0.001663	0.001674	28.0811	0.018335	0.001860	9.855998	-44.2967	-167.614	0.052937	0.073574	-1.002826	-1.004191	-0.033643	9.855998	-1.000265	-2.287404E+13	1.470807E-15	NaN
444	1.000000	0.082937	7.3694e+06	-54889.1	1005.82	-29742.7	0.000000	0.000000	6.082749	-0.000511	NaN	0.000000	0.001645	0.001658	28.0812	0.059751	0.002041	29.2775	150.358	-167.083	-0.010370	0.081646	-0.994828	-0.996119	-0.000511	29.2775	-0.994815	-1.931753E+13	2.646647E-17	NaN
444	1.000000	0.090961	7.3694e+06	-54889.1	1005.82	-29742.7	0.000000	0.000000	6.090777	0.072332	NaN	0.000000	0.001679	0.001669	28.0813	0.093767	0.002027	46.2483	-8.677882	-168.511	0.016264	0.089638	-0.986804	-0.988126	0.072332	46.2483	-0.987977	-1.562650E+13	-4.628831E-15	NaN
444	1.000000	0.098973	7.3694e+06	-54889.1	1005.82	-29742.7	0.000000	0.000000	6.098783	-0.072449	NaN	0.000000	0.001624	0.001666	28.0816	0.096656	0.002164	44.6608	-124.303	-166.717	-0.029799	0.097661	-0.978791	-0.980103	-0.072449	44.6608	-0.977575	-1.131707E+13	6.401718E-15	NaN
444	1.000000	0.106984	7.3694e+06	-54889.1	1005.82	-29742.7	0.000000	0.000000	6.106794	-0.075091	NaN	0.000000	0.001673	0.001647	28.0813	0.035051	0.001900	18.443	73.7186	-167.926	0.028223	0.105638	-0.970780	-0.972126	-0.075091	18.443	-0.967727	-8.337321E+12	9.006631E-15	NaN
444	1.000000	0.114979	7.3694e+06	-54889.1	1005.82	-29742.7	0.000000	0.000000	6.114791	-0.014965	NaN	0.000000	0.001651	0.001651	28.0812	0.146880	0.001820	80.7175	122.924	-166.295	-0.026044	0.113651	-0.962786	-0.964113	-0.014965	80.7175	-0.962646	-7.121090E+12	2.101548E-15	NaN
444	1.000000	0.122979	7.3694e+06	-54889.1	1005.82	-29742.7	0.000000	0.000000	6.122792	0.000860	NaN	0.000000	0.001659	0.001638	28.0813	0.064445	0.001997	32.2643	19.9607	-168.401	-0.108807	0.121656	-0.954786	-0.956108	0.000860	32.2643	-0.954806	-5.582553E+12	-1.540382E-16	NaN
444	1.000000	0.130977	7.3694e+06	-54889.1	1005.82	-29742.7	0.000000	0.000000	6.130789	-0.024048	NaN	0.000000	0.001687	0.001639	28.0814	0.110474	0.002033	54.3381	146.701	-163.7	-0.035752	0.129662	-0.946787	-0.948102	-0.024048	54.3381	-0.946456	-4.307470E+12	5.582901E-15	NaN
444	1.000000	0.138959	7.3694e+06	-54889.1	1005.82	-29742.7	0.000000	0.000000	6.138772	-0.004927	NaN	0.000000	0.001672	0.001626	28.0817	0.048748	0.001997	24.4081	172.182	-167.491	-0.046626	0.137672	-0.938805	-0.940092	-0.004927	24.4081	-0.938654	-3.380447E+12	1.457468E-15	NaN
444	1.000000	0.146969	7.3694e+06	-54889.1	1005.82	-29742.7	0.000000	0.000000	6.146780	-0.042796	NaN	0.000000	0.001662	0.001621	28.0813	0.139226	0.001925	72.3356	39.3854	-168.423	-0.014125	0.145742	-0.930796	-0.932022	-0.042796	72.3356	-0.930352	-2.611838E+12	1.638539E-14	NaN
444	1.000000	0.154951	7.3694e+06	-54889.1	1005.82	-29742.7	0.000000	0.000000	6.154761	-0.056579	NaN	0.000000	0.001682	0.001650	28.0816	0.052490	0.001952	26.8917	-147.142	-166.048	-0.071121	0.153643	-0.922814	-0.924122	-0.056579	26.8917	-0.921236	-1.967398E+12	2.875826E-14	NaN
444	1.000000	0.162996	7.3694e+06	-54889.1	1005.82	-29742.7	0.000000	0.000000	6.162806	-0.072201	NaN	0.000000	0.001629	0.001622	28.0814	0.036580	0.002059	17.7652	25.7734	-166.862	0.051799	0.161684	-0.914769	-0.916080	-0.072201	17.7652	-0.911721	-1.463532E+12	4.933353E-14	NaN
444	1.000000	0.170981	7.3694e+06	-54889.1	1005.82	-29742.7	0.000000	0.000000	6.170791	-0.065089	NaN	0.000000	0.001668	0.001652	28.0815	0.035416	0.002053	17.2492	-168.073	-165.967	-0.063730	0.169662	-0.906783	-0.908103	-0.065089	17.2492	-0.903953	-1.149418E+12	5.662822E-14	NaN
444	1.000000	0.178985	7.3694e+06	-54889.1	1005.82	-29742.7	0.000000	0.000000	6.178796	-0.028345	NaN	0.000000	0.001664	0.001662	28.0807	0.065339	0.002006	32.5693	75.9004	-164.18	0.021512	0.177648	-0.898780	-0.900117	-0.028345	32.5693	-0.898127	-9.588653E+11	2.956056E-14	NaN
444	1.000000	0.186992	7.3694e+06	-54889.1	1005.82	-29742.8	0.000000	0.000000	6.186805	0.003053	NaN	0.000000	0.001668	0.001638	28.08	0.084406	0.001897	44.5035	178.388	-167.001	0.030409	0.185623	-0.890772	-0.892141	0.003053	44.5035	-0.890824	-7.639226E+11	-3.996562E-15	NaN
444	1.000000	0.195003	7.3694e+06	-54889.1	1005.82	-29742.8	0.000000	0.000000	6.194816	0.006715	NaN	0.000000	0.001664	0.001627	28.0804	0.095299	0.002027	47.0103	-44.6892	-163.954	-0.007553	0.193689	-0.882761	-0.884075	0.006715	47.0103	-0.882868	-5.963409E+11	-1.125967E-14	NaN
444	1.000000	0.203000	7.3694e+06	-54889.1	1005.82	-29742.8	0.000000	0.000000	6.202811	-0.049211	NaN	0.000000	0.001606	0.001606	28.08	0.094958	0.001996	47.5634	-76.4276	-164.19	-0.049568	0.201700	-0.874764	-0.876065	-0.049211	47.5634	-0.873988	-4.522696E+11	1.088091E-13	NaN
444	1.000000	0.211005	7.3694e+06	-54889.1	1005.82	-29742.8	0.000000	0.000000	6.210816	-0.042696	NaN	0.000000	0.001618	0.001636	28.0801	0.091562	0.002070	44.2418	103.169	-168.481	-0.024843	0.209726	-0.866760	-0.868038	-0.042696	44.2418	-0.866036	-3.530252E+11	1.209419E-13	NaN
444	1.000000	0.219002	7.3694e+06	-54889.1	1005.82	-29742.8	0.000000	0.000000	6.218816	0.028401	NaN	0.000000	0.001609	0.001628	28.0801	0.077214	0.002065	37.3939	-138.51	-167.043	0.079473	0.217657	-0.858762	-0.860107	0.028401	37.3939	-0.859332	-2.864705E+11	-9.914144E-14	NaN
444	1.000000	0.227003	7.3694e+06	-54889.1	1005.82	-29742.8	0.000000	0.000000	6.226814	-0.023342	NaN	0.000000	0.001658	0.001627	28.0802	0.083560	0.001984	42.1105	-146.35	-162.794	-0.020844	0.225705	-0.850762	-0.852059	-0.023342	42.1105	-0.850346	-2.164838E+11	1.078219E-13	NaN
444	1.000000	0.234993	7.3694e+06	-54889.1	1005.82	-29742.8	0.000000	0.000000	6.234804	-0.032865	NaN	0.000000	0.001643	0.001652	28.0807	0.010246	0.001940	5.281979	-11.5662	-164.41	-0.005679	0.233716	-0.842772	-0.844049	-0.032865	5.281979	-0.838105	-1.477813E+11	2.223929E-13	NaN
444	1.000000	0.243016	7.3694e+06	-54889.1	1005.82	-29742.8	0.000000	0.000000	6.242827	-0.054481	NaN	0.000000	0.001646	0.001645	28.0799	0.036322	0.002035	17.8453	57.2137	-165.649	-0.018766	0.241723	-0.834748	-0.836042	-0.054481	17.8453	-0.832458	-1.239086E+11	4.396848E-13	NaN
444	1.000000	0.251051	7.3694e+06	-54889.1	1005.82	-29742.8	0.000000	0.000000	6.250865	0.024753	NaN	0.000000	0.001613	0.001616	28.0813	0.105019	0.001959	53.6205	16.086	-168.217	-0.000369	0.249719	-0.826713	-0.828045	0.024753	53.6205	-0.827060	-1.046953E+11	-2.364276E-13	NaN
444	1.000000	0.259018	7.3694e+06	-54889.1	1005.82	-29742.8	0.000000	0.000000	6.258830	-0.014115	NaN	0.000000	0.001644	0.001615	28.08	0.125112	0.002232	56.0633	51.4124	-166.37	0.013999	0.257705	-0.818746	-0.820059	-0.014115	56.0633	-0.818557	-8.028776E+10	1.758078E-13	NaN
444	1.000000	0.267049	7.3694e+06	-54889.1	1005.82	-29742.8	0.000000	0.000000	6.266861	-0.028308	NaN	0.000000	0.001646	0.001613	28.0799	0.139952	0.001936	72.2794	-50.7387	-165.97	-0.122501	0.265702	-0.810715	-0.812063	-0.028308	72.2794	-0.810422	-6.227198E+10	4.545862E-13	NaN
444	1.000000	0.275027	7.3694e+06	-54889.1	1005.82	-29742.8	0.000000	0.000000	6.274838	-0.041802	NaN	0.000000	0.001604	0.001601	28.0802	0.070680	0.001965	35.977	-114.207	-162.577	0.035077	0.273741	-0.802738	-0.804024	-0.041802	35.977	-0.801866	-4.766441E+10	8.770158E-13	NaN
444	1.000000	0.283036	7.3694e+06	-54889.1	1005.82	-29742.8	0.000000	0.000000	6.282846	-0.059872	NaN	0.000000	0.001607	0.001619	28.08	0.129322	0.002018	64.079	-45.9613	-167.3	-0.056946	0.281766	-0.794729	-0.795998	-0.059872	64.079	-0.794028	-3.730650E+10	1.604859E-12	NaN
444	1.000000	0.291038	7.3694e+06	-54889.1	1005.82	-29742.8	0.000000	0.000000	6.290849	-0.037811	NaN	0.000000	0.001611	0.001620	28.0801	0.049610	0.001965	25.2417	-173.105	-168.545	0.005144	0.289766	-0.786726	-0.787998	-0.037811	25.2417	-0.785603	-2.866522E+10	1.319048E-12	NaN
444	1.000000	0.299015	7.3694e+06	-54889.1	1005.82	-29742.8	0.000000	0.000000	6.298826	-0.052467	NaN	0.000000	0.001583	0.001641	28.0797	0.079336	0.002036	38.9574	142.172	-164.733	-0.014542	0.297729	-0.778749	-0.780035	-0.052467	38.9574	-0.777739	-2.241349E+10	2.340857E-12	NaN
444	1.000000	0.307011	7.3694e+06	-54889.1	1005.82	-29742.8	0.000000	0.000000	6.306829	0.120656	NaN	0.000000	0.001583	0.001631	28.08	0.036940	0.002056	17.9668	-150.284	-160.576	0.033664	0.305751	-0.770754	-0.772013	0.120656	17.9668	-0.775790	-2.108719E+10	-5.721769E-12	NaN
444	1.000000	0.315062	7.3694e+06	-54889.1	1005.82	-29742.8	0.000000	0.000000	6.314875	0.000582	NaN	0.000000	0.001604	0.001653	28.0807	0.037173	0.001920	19.3607	-126.879	-168.002	0.046941	0.313661	-0.762702	-0.764104	0.000582	19.3607	-0.762724	-1.400761E+10	-4.155705E-14	NaN
444	1.000000	0.323042	7.3694e+06	-54889.1	1005.82	-29742.8	0.000000	0.000000	6.322854	-0.031369	NaN	0.000000	0.001614	0.001668	28.0812	0.106412	0.002106	50.538	-146.029	-168.408	-0.082924	0.321790	-0.754722	-0.755974	-0.031369	50.538	-0.754257	-1.074378E+10	2.919752E-12	NaN
444	1.000000	0.331055	7.3694e+06	-54889.1	1005.82	-29742.8	0.000000	0.000000	6.330865	-0.057883	NaN	0.000000	0.001585	0.001693	28.0815	0.061403	0.002133	28.7931	-175.248	-165.222	-0.108926	0.329759	-0.746710	-0.748005	-0.057883	28.7931	-0.745202	-8.089097E+9	7.155700E-12	NaN
444	1.000000	0.339050	7.3694e+06	-54889.1	1005.82	-29742.8	0.000000	0.000000	6.338861	-0.044731	NaN	0.000000	0.001582	0.001639	28.0811	0.091583	0.002065	44.3422	-105.23	-166.838	-0.027085	0.337727	-0.738715	-0.740038	-0.044731	44.3422	-0.737958	-6.445312E+9	6.940114E-12	NaN
444	1.000000	0.347049	7.3694e+06	-54889.1	1005.82	-29742.8	0.000000	0.000000	6.346862	0.013693	NaN	0.000000	0.001601	0.001654	28.081	0.055327	0.001980	27.9369	155.762	-170.005	0.016436	0.345780	-0.730716	-0.731984	0.013693	27.9369	-0.731083	-5.194869E+9	-2.635797E-12	NaN
444	1.000000	0.355065	7.3694e+06	-54889.1	1005.82	-29742.8	0.000000	0.000000	6.354878	-0.003918	NaN	0.000000	0.001608	0.001624	28.081	0.093404	0.002033	45.9395	-81.8357	-169.027	-0.028087	0.353745	-0.722699	-0.724019	-0.003918	45.9395	-0.722635	-3.984821E+9	9.832482E-13	NaN
444	1.000000	0.363059	7.3694e+06	-54889.1	1005.82	-29742.8	0.000000	0.000000	6.362871	-0.006119	NaN	0.000000	0.001585	0.001593	28.081	0.016327	0.001992	8.195122	-106.686	-167.103	-0.083675	0.361734	-0.714706	-0.716030	-0.006119	8.195122	-0.714146	-3.052218E+9	2.004703E-12	NaN
444	1.000000	0.371034	7.3694e+06	-54889.1	1005.82	-29742.8	0.000000	0.000000	6.370846	-0.010598	NaN	0.000000	0.001585	0.001584	28.0812	0.074580	0.001997	37.3437	61.5157	-165.522	-0.107768	0.369784	-0.706731	-0.707980	-0.010598	37.3437	-0.706518	-2.401731E+9	4.412859E-12	NaN
444	1.000000	0.379084	7.3694e+06	-54889.1	1005.82	-29742.8	0.000000	0.000000	6.378894	-0.072637	NaN	0.000000	0.001569	0.001659	28.0812	0.132862	0.002061	64.4585	-86.0898	-168.383	-0.001180	0.377761	-0.698680	-0.700003	-0.072637	64.4585	-0.697835	-1.827953E+9	3.973660E-11	NaN
444	1.000000	0.387078	7.3694e+06	-54889.1	1005.82	-29742.8	0.000000	0.000000	6.386887	-0.074453	NaN	0.000000	0.001574	0.001619	28.0813	0.021540	0.002023	10.6464	110.418	-167.202	-0.049375	0.385835	-0.690687	-0.691929	-0.074453	10.6464	-0.685442	-1.237700E+9	6.015458E-11	NaN
444	1.000000	0.395067	7.3694e+06	-54889.1	1005.82	-29742.8	0.000000	0.000000	6.394877	-0.070698	NaN	0.000000	0.001597	0.001614	28.0809	0.065606	0.002050	31.9988	-139.77	-166.45	-0.039081	0.393758	-0.682697	-0.684006	-0.070698	31.9988	-0.681040	-1.077532E+9	6.561061E-11	NaN
444	1.000000	0.403105	7.3694e+06	-54889.1	1005.82	-29742.8	0.000000	0.000000	6.402918	-0.005110	NaN	0.000000	0.001598	0.001610	28.081	0.055957	0.001878	29.79	33.8689	-165.544	-0.064897	0.401754	-0.674659	-0.676011	-0.005110	29.79	-0.674530	-8.777773E+8	5.821508E-12	NaN
444	1.000000	0.411097	7.3694e+06	-54889.1	1005.82	-29742.8	0.000000	0.000000	6.410908	-0.035339	NaN	0.000000	0.001586	0.001604	28.081	0.033728	0.002054	16.4208	151.524	-163.926	-0.024422	0.409812	-0.666667	-0.667952	-0.035339	16.4208	-0.665053	-6.511389E+8	5.427279E-11	NaN
444	1.000000	0.419084	7.3694e+06	-54889.1	1005.82	-29742.8	0.000000	0.000000	6.418893	-0.099110	NaN	0.000000	0.001619	0.001641	28.0809	0.060929	0.001988	30.651	72.1156	-165.775	-0.070948	0.417767	-0.658680	-0.659998	-0.099110	30.651	-0.656255	-4.933612E+8	2.008866E-10	NaN
444	1.000000	0.427103	7.3694e+06	-54889.1	1005.82	-29742.8	0.000000	0.000000	6.426914	-0.061623	NaN	0.000000	0.001602	0.001602	28.0813	0.116114	0.001962	59.1796	-34.8666	-166.058	-0.029032	0.425853	-0.650661	-0.651911	-0.061623	59.1796	-0.649880	-4.034531E+8	1.527400E-10	NaN
444	1.000000	0.435105	7.3694e+06	-54889.1	1005.82	-29742.8	0.000000	0.000000	6.434916	-0.034738	NaN	0.000000	0.001592	0.001619	28.0809	0.116310	0.002054	56.6355	9.317395	-165.149	-0.136783	0.433766	-0.642659	-0.643998	-0.034738	56.6355	-0.642199	-3.165660E+8	1.097341E-10	NaN
444	1.000000	0.443060	7.3694e+06	-54889.1	1005.82	-29742.8	0.000000	0.000000	6.442874	0.013745	NaN	0.000000	0.001600	0.001638	28.0812	0.026443	0.001992	13.2722	127.31	-171.107	0.009331	0.441798	-0.634704	-0.635966	0.013745	13.2722	-0.635481	-2.560182E+8	-5.368720E-11	NaN
444	1.000000	0.451103	7.3694e+06	-54889.1	1005.82	-29742.8	0.000000	0.000000	6.450914	-0.032711	NaN	0.000000	0.001598	0.001643	28.0808	0.113291	0.002066	54.8356	-119.683	-167.509	-0.075885	0.449858	-0.626662	-0.627906	-0.032711	54.8356	-0.626214	-1.909974E+8	1.712629E-10	NaN
444	1.000000	0.459117	7.3694e+06	-54889.1	1005.82	-29742.8	0.000000	0.000000	6.458930	0.002261	NaN	0.000000	0.001641	0.001652	28.0798	0.083304	0.002053	40.5834	-97.9831	-168.001	-0.047445	0.457841	-0.618647	-0.619924	0.002261	40.5834	-0.618689	-1.505266E+8	-1.502389E-11	NaN
444	1.000000	0.467116	7.3694e+06	-54889.1	1005.82	-29742.8	0.000000	0.000000	6.466928	-0.034796	NaN	0.000000	0.001622	0.001628	28.0799	0.122437	0.002061	59.3961	-154.31	-164.595	-0.001655	0.465755	-0.610648	-0.612009	-0.034796	59.3961	-0.610209	-1.150761E+8	3.023722E-10	NaN
444	1.000000	0.475114	7.3694e+06	-54889.1	1005.82	-29742.8	0.000000	0.000000	6.474927	-0.009667	NaN	0.000000	0.001633	0.001660	28.0798	0.026263	0.001973	13.3134	138.035	-164.43	-0.072019	0.473824	-0.602650	-0.603941	-0.009667	13.3134	-0.602105	-8.901303E+7	1.086009E-10	NaN
444	1.000000	0.483125	7.3694e+06	-54889.1	1005.82	-29742.8	0.000000	0.000000	6.482938	-0.000326	NaN	0.000000	0.001606	0.001617	28.0807	0.085323	0.002043	41.7697	110.354	-162.464	-0.079808	0.481838	-0.594640	-0.595926	-0.000326	41.7697	-0.594634	-7.023188E+7	4.644220E-12	NaN
444	1.000000	0.491078	7.3694e+06	-54889.1	1005.82	-29742.8	0.000000	0.000000	6.490888	-0.065994	NaN	0.000000	0.001637	0.001630	28.0798	0.065506	0.001834	35.7158	-36.3059	-168.521	-0.142883	0.489804	-0.586687	-0.587961	-0.065994	35.7158	-0.585301	-5.222373E+7	1.263675E-9	NaN
444	1.000000	0.499127	7.3694e+06	-54889.1	1005.82	-29742.8	0.000000	0.000000	6.498939	8.439232E-6	NaN	0.000000	0.001699	0.001585	28.08	0.110394	0.002141	51.5684	39.7835	-168.566	0.040560	0.497793	-0.578638	-0.579971	8.439232E-6	51.5684	-0.578638	-4.225957E+7	-1.996999E-13	NaN
444	1.000000	0.507099	7.3694e+06	-54889.1	1005.82	-29742.8	0.000000	0.000000	6.506911	-0.036293	NaN	0.000000	0.001668	0.001613	28.0798	0.021512	0.001984	10.8412	-71.5498	-167.207	0.009526	0.505843	-0.570665	-0.571922	-0.036293	10.8412	-0.568154	-3.027790E+7	1.198664E-9	NaN
444	1.000000	0.515118	7.3694e+06	-54889.1	1005.82	-29742.8	0.000000	0.000000	6.514928	-0.053339	NaN	0.000000	0.001648	0.001617	28.0799	0.031351	0.001962	15.9815	39.5632	-167.883	-0.064137	0.513836	-0.562647	-0.563928	-0.053339	15.9815	-0.560143	-2.346187E+7	2.273438E-9	NaN
444	1.000000	0.523131	7.3694e+06	-54889.1	1005.82	-29742.8	0.000000	0.000000	6.522943	-0.018878	NaN	0.000000	0.001716	0.001629	28.0801	0.131173	0.001972	66.5123	-89.0633	-166.285	-0.119805	0.521857	-0.554634	-0.555908	-0.018878	66.5123	-0.554421	-1.955118E+7	9.655763E-10	NaN
444	1.000000	0.531169	7.3694e+06	-54889.1	1005.82	-29742.8	0.000000	0.000000	6.530981	-0.015758	NaN	0.000000	0.001715	0.001618	28.0799	0.063087	0.002125	29.6928	0.184995	-165.678	-0.076764	0.529840	-0.546595	-0.547924	-0.015758	29.6928	-0.546197	-1.504093E+7	1.047665E-9	NaN
444	1.000000	0.539163	7.3694e+06	-54889.1	1005.82	-29742.8	0.000000	0.000000	6.538975	-0.042025	NaN	0.000000	0.001714	0.001568	28.0802	0.053524	0.001956	27.3596	111.907	-163.292	-0.065327	0.537813	-0.538601	-0.539951	-0.042025	27.3596	-0.537449	-1.137554E+7	3.694294E-9	NaN
444	1.000000	0.547146	7.3694e+06	-54889.1	1005.82	-29742.8	0.000000	0.000000	6.546956	-0.076481	NaN	0.000000	0.001735	0.001624	28.08	0.076324	0.001970	38.7521	32.5466	-167.358	-0.050384	0.545857	-0.530618	-0.531907	-0.076481	38.7521	-0.529138	-8.72181e+06	8.768887E-9	NaN
444	1.000000	0.555171	7.3694e+06	-54889.1	1005.82	-29742.8	0.000000	0.000000	6.554981	-0.059448	NaN	0.000000	0.001724	0.001589	28.0802	0.046377	0.002036	22.7786	-123.226	-163.788	-0.069241	0.553842	-0.522594	-0.523922	-0.059448	22.7786	-0.520636	-6.64428e+06	8.947220E-9	NaN
444	1.000000	0.563159	7.3694e+06	-54889.1	1005.82	-29742.8	0.000000	0.000000	6.562970	-0.025801	NaN	0.000000	0.001703	0.001601	28.08	0.010414	0.001972	5.280035	162.863	-167.38	-0.003289	0.561863	-0.514606	-0.515902	-0.025801	5.280035	-0.510941	-4.86992e+06	5.298001E-9	NaN
444	1.000000	0.571163	7.3694e+06	-54889.1	1005.82	-29742.8	0.000000	0.000000	6.570974	-0.040064	NaN	0.000000	0.001698	0.001573	28.0801	0.025439	0.001924	13.2235	63.7096	-166.092	-0.057769	0.569878	-0.506602	-0.507887	-0.040064	13.2235	-0.504329	-3.93909e+06	1.017096E-8	NaN
444	1.000000	0.579182	7.3694e+06	-54889.1	1005.82	-29742.8	0.000000	0.000000	6.578993	-0.044659	NaN	0.000000	0.001755	0.001594	28.0801	0.026607	0.001963	13.5548	111.53	-167.017	-0.071917	0.577841	-0.498583	-0.499923	-0.044659	13.5548	-0.496112	-3.02521e+06	1.476243E-8	NaN
444	1.000000	0.587153	7.3694e+06	-54889.1	1005.82	-29742.8	0.000000	0.000000	6.586965	0.000880	NaN	0.000000	0.001750	0.001597	28.0802	0.082618	0.002032	40.6498	78.9888	-166.654	-0.068409	0.585844	-0.490612	-0.491920	0.000880	40.6498	-0.490628	-2.53612e+06	-3.470632E-10	NaN
444	1.000000	0.595152	7.3694e+06	-54889.1	1005.82	-29742.8	0.000000	0.000000	6.594964	-0.013551	NaN	0.000000	0.001763	0.001597	28.0814	0.048522	0.002014	24.0954	117.046	-166.922	-0.018210	0.593836	-0.482613	-0.483929	-0.013551	24.0954	-0.482191	-1.93283e+06	7.010845E-9	NaN
444	1.000000	0.603177	7.3694e+06	-54889.1	1005.82	-29742.8	0.000000	0.000000	6.602987	-0.061573	NaN	0.000000	0.001745	0.001601	28.0813	0.102132	0.001941	52.6191	-129.501	-163.679	0.008907	0.601867	-0.474587	-0.475897	-0.061573	52.6191	-0.473710	-1.47034e+06	4.187647E-8	NaN
444	1.000000	0.611171	7.3694e+06	-54889.1	1005.82	-29742.8	0.000000	0.000000	6.610982	-0.023533	NaN	0.000000	0.001722	0.001592	28.0813	0.053483	0.002030	26.345	162.601	-166.902	-0.001222	0.609842	-0.466594	-0.467923	-0.023533	26.345	-0.465924	-1.14345e+06	2.058054E-8	NaN
444	1.000000	0.619135	7.3694e+06	-54889.1	1005.82	-29742.8	0.000000	0.000000	6.618944	-0.098177	NaN	0.000000	0.001724	0.001585	28.0813	0.057950	0.002007	28.8692	-179.043	-164.415	-0.112471	0.617829	-0.458630	-0.459935	-0.098177	28.8692	-0.456079	-831562	1.180631E-7	NaN
444	1.000000	0.627179	7.3694e+06	-54889.1	1005.82	-29742.8	0.000000	0.000000	6.626991	-0.026896	NaN	0.000000	0.001739	0.001606	28.0815	0.049694	0.002098	23.6884	124.236	-166.781	0.054359	0.625833	-0.450585	-0.451931	-0.026896	23.6884	-0.449734	-677004	3.972820E-8	NaN
444	1.000000	0.635173	7.3694e+06	-54889.1	1005.82	-29742.8	0.000000	0.000000	6.634983	-0.061459	NaN	0.000000	0.001701	0.001599	28.0815	0.067913	0.001938	35.0436	175.378	-168.469	-0.086858	0.633889	-0.442591	-0.443876	-0.061459	35.0436	-0.441276	-514485	1.194572E-7	NaN
444	1.000000	0.643177	7.3694e+06	-54889.1	1005.82	-29742.8	0.000000	0.000000	6.642989	-0.040659	NaN	0.000000	0.001701	0.001577	28.0813	0.039037	0.001768	22.0847	85.4236	-165.262	-0.027128	0.641846	-0.434587	-0.435919	-0.040659	22.0847	-0.433206	-395732	1.027439E-7	NaN
444	1.000000	0.651190	7.3694e+06	-54889.1	1005.82	-29742.8	0.000000	0.000000	6.651001	-0.024554	NaN	0.000000	0.001704	0.001591	28.0814	0.014051	0.002043	6.877816	-109.267	-168.628	-0.126232	0.649875	-0.426575	-0.427890	-0.024554	6.877816	-0.423897	-292188	8.403402E-8	NaN
444	1.000000	0.659193	7.3694e+06	-54889.1	1005.82	-29742.8	0.000000	0.000000	6.659005	-0.021601	NaN	0.000000	0.001673	0.001574	28.0812	0.037102	0.001998	18.5672	-158.902	-166.104	-0.050776	0.657840	-0.418571	-0.419924	-0.021601	18.5672	-0.417698	-238651	9.051243E-8	NaN
444	1.000000	0.667195	7.3694e+06	-54889.1	1005.82	-29742.8	0.000000	0.000000	6.667010	0.052916	NaN	0.000000	0.001643	0.001606	28.0814	0.012586	0.001998	6.300358	-78.6181	-163.875	-0.019863	0.665892	-0.410570	-0.411872	0.052916	6.300358	-0.416869	-232266	-2.278230E-7	NaN
444	1.000000	0.675193	7.3694e+06	-54889.1	1005.82	-29742.8	0.000000	0.000000	6.675000	-0.121700	NaN	0.000000	0.001655	0.001577	28.0815	0.057917	0.002103	27.5418	19.1925	-167.495	-0.097992	0.673871	-0.402572	-0.403894	-0.121700	27.5418	-0.399258	-130439	9.329996E-7	NaN
444	1.000000	0.683185	7.3694e+06	-54889.1	1005.82	-29742.8	0.000000	0.000000	6.682993	-0.113221	NaN	0.000000	0.001629	0.001586	28.0812	0.041713	0.001870	22.3026	-12.9758	-164.467	0.051090	0.681892	-0.394580	-0.395873	-0.113221	22.3026	-0.390772	-98675.9	1.147399E-6	NaN
444	1.000000	0.691227	7.3694e+06	-54889.1	1005.82	-29742.8	0.000000	0.000000	6.691038	-0.058406	NaN	0.000000	0.001669	0.001600	28.0814	0.047477	0.001963	24.1802	-82.1654	-168.262	-0.026640	0.689893	-0.386537	-0.387871	-0.058406	24.1802	-0.384726	-80845.5	7.224460E-7	NaN
444	1.000000	0.699215	7.3694e+06	-54889.1	1005.82	-29742.8	0.000000	0.000000	6.699025	-0.065609	NaN	0.000000	0.001631	0.001675	28.0813	0.068277	0.001985	34.3957	149.761	-165.554	-0.046731	0.697919	-0.378549	-0.379845	-0.065609	34.3957	-0.377119	-62880.7	1.043387E-6	NaN
444	1.000000	0.707229	7.3694e+06	-54889.1	1005.82	-29742.8	0.000000	0.000000	6.707042	0.013821	NaN	0.000000	0.001651	0.001631	28.0815	0.071282	0.001950	36.5524	74.8237	-164.758	-0.067696	0.705929	-0.370535	-0.371836	0.013821	36.5524	-0.370819	-51041	-2.707836E-7	NaN
444	1.000000	0.715204	7.3694e+06	-54889.1	1005.82	-29742.8	0.000000	0.000000	6.715015	-0.035773	NaN	0.000000	0.001659	0.001633	28.0816	0.065551	0.002047	32.024	-14.5848	-164.105	-0.064331	0.713951	-0.362560	-0.363813	-0.035773	32.024	-0.361723	-37734.4	9.480292E-7	NaN
444	1.000000	0.723236	7.3694e+06	-54889.1	1005.82	-29742.8	0.000000	0.000000	6.723048	-0.020713	NaN	0.000000	0.001645	0.001608	28.0815	0.101533	0.002081	48.8014	-50.0879	-165.888	-0.027372	0.721910	-0.354528	-0.355854	-0.020713	48.8014	-0.354210	-29379.8	7.049937E-7	NaN
444	1.000000	0.731227	7.3694e+06	-54889.1	1005.82	-29742.8	0.000000	0.000000	6.731040	-0.006132	NaN	0.000000	0.001667	0.001641	28.0808	0.087704	0.001941	45.1933	-28.5552	-167.798	-0.044798	0.729920	-0.346537	-0.347845	-0.006132	45.1933	-0.346435	-22658.1	2.706479E-7	NaN
444	1.000000	0.739216	7.3694e+06	-54889.1	1005.82	-29742.8	0.000000	0.000000	6.739029	0.006131	NaN	0.000000	0.001692	0.001630	28.0802	0.107457	0.001934	55.5571	49.0879	-165.323	-0.008650	0.737881	-0.338549	-0.339884	0.006131	55.5571	-0.338631	-17442.1	-3.515322E-7	NaN
444	1.000000	0.747229	7.3694e+06	-54889.1	1005.82	-29742.8	0.000000	0.000000	6.747039	-0.086579	NaN	0.000000	0.001647	0.001601	28.0803	0.049985	0.002056	24.3076	-136.415	-164.661	-0.074778	0.745963	-0.330535	-0.331801	-0.086579	24.3076	-0.327864	-12138	7.132871E-6	NaN
444	1.000000	0.755222	7.3694e+06	-54889.1	1005.82	-29742.8	0.000000	0.000000	6.755034	-0.008226	NaN	0.000000	0.001652	0.001632	28.0803	0.108275	0.002069	52.3408	-94.1008	-170.217	-0.031987	0.753973	-0.322542	-0.323791	-0.008226	52.3408	-0.322425	-10099.6	8.144516E-7	NaN
444	1.000000	0.763233	7.3694e+06	-54889.1	1005.82	-29742.8	0.000000	0.000000	6.763040	-0.132748	NaN	0.000000	0.001643	0.001658	28.0802	0.057674	0.002025	28.4768	-1.234428	-166.622	-0.148948	0.761867	-0.314532	-0.315897	-0.132748	28.4768	-0.311036	-6860.85	1.934855E-5	NaN
444	1.000000	0.771232	7.3694e+06	-54889.1	1005.82	-29742.8	0.000000	0.000000	6.771047	0.040494	NaN	0.000000	0.001657	0.001637	28.0805	0.106822	0.001925	55.5053	-101.194	-166.068	-0.015093	0.769944	-0.306532	-0.307820	0.040494	55.5053	-0.307079	-5995.09	-6.754477E-6	NaN
444	1.000000	0.779252	7.3694e+06	-54889.1	1005.82	-29742.8	0.000000	0.000000	6.779064	-0.014752	NaN	0.000000	0.001653	0.001645	28.0802	0.054361	0.002075	26.201	155.843	-167.382	0.004191	0.777903	-0.298512	-0.299862	-0.014752	26.201	-0.298090	-4407.45	3.347090E-6	NaN
444	1.000000	0.787243	7.3694e+06	-54889.1	1005.82	-29742.8	0.000000	0.000000	6.787053	-0.054577	NaN	0.000000	0.001675	0.001636	28.0806	0.130160	0.002043	63.7183	-112.967	-168.149	-0.097276	0.785954	-0.290522	-0.291811	-0.054577	63.7183	-0.289879	-3322.72	1.642555E-5	NaN
444	1.000000	0.795241	7.3694e+06	-54889.1	1005.82	-29742.8	0.000000	0.000000	6.795053	-0.007349	NaN	0.000000	0.001667	0.001661	28.0803	0.047567	0.001945	24.4617	21.9358	-164.643	0.008517	0.793941	-0.282524	-0.283823	-0.007349	24.4617	-0.282299	-2556.33	2.874843E-6	NaN
444	1.000000	0.803231	7.3694e+06	-54889.1	1005.82	-29742.8	0.000000	0.000000	6.803044	-0.014132	NaN	0.000000	0.001652	0.001672	28.0803	0.078612	0.002054	38.2743	15.38	-164.331	0.000603	0.801956	-0.274533	-0.275808	-0.014132	38.2743	-0.274256	-1932.56	7.312419E-6	NaN
444	1.000000	0.811232	7.3694e+06	-54889.1	1005.82	-29742.8	0.000000	0.000000	6.811043	-0.051612	NaN	0.000000	0.001627	0.001665	28.0802	0.110162	0.002006	54.9081	-106.414	-166.574	0.021293	0.809901	-0.266532	-0.267863	-0.051612	54.9081	-0.265827	-1438.82	3.587149E-5	NaN
444	1.000000	0.819251	7.3694e+06	-54889.1	1005.82	-29742.8	0.000000	0.000000	6.819063	-0.030443	NaN	0.000000	0.001631	0.001681	28.0801	0.047480	0.001911	24.8499	89.3866	-165.839	0.029173	0.818017	-0.258513	-0.259747	-0.030443	24.8499	-0.257595	-1076.49	2.827958E-5	NaN
444	1.000000	0.827241	7.3694e+06	-54889.1	1005.82	-29742.8	0.000000	0.000000	6.827054	0.006763	NaN	0.000000	0.001666	0.001652	28.0806	0.048217	0.001990	24.2314	159.011	-169.707	-0.052664	0.825962	-0.250524	-0.251802	0.006763	24.2314	-0.250733	-843.916	-8.013862E-6	NaN
444	1.000000	0.835258	7.3694e+06	-54889.1	1005.82	-29742.8	0.000000	0.000000	6.835067	-0.096316	NaN	0.000000	0.001694	0.001679	28.0807	0.051021	0.001956	26.0788	-133.408	-165.54	-0.095620	0.833906	-0.242506	-0.243858	-0.096316	26.0788	-0.239736	-569.415	0.000169	NaN
444	1.000000	0.843270	7.36941e+06	-54889.1	1005.82	-29742.8	0.000000	0.000000	6.843081	-0.049819	NaN	0.000000	0.001676	0.001696	28.0802	0.033363	0.001968	16.9537	157.879	-166.959	-0.045716	0.841933	-0.234494	-0.235832	-0.049819	16.9537	-0.232290	-435.145	0.000114	NaN
444	1.000000	0.851295	7.36941e+06	-54889.1	1005.82	-29742.8	0.000000	0.000000	6.851104	-0.103798	NaN	0.000000	0.001683	0.001676	28.0802	0.061400	0.002011	30.5389	-120.154	-165.984	-0.102302	0.849930	-0.226469	-0.227834	-0.103798	30.5389	-0.223920	-320.755	0.000324	NaN
444	1.000000	0.859290	7.36941e+06	-54889.1	1005.82	-29742.8	0.000000	0.000000	6.859102	-0.029804	NaN	0.000000	0.001631	0.001676	28.0802	0.057842	0.001887	30.6567	69.7649	-166.186	-0.035971	0.857972	-0.218474	-0.219792	-0.029804	30.6567	-0.217745	-255.618	0.000117	NaN
444	1.000000	0.867253	7.36941e+06	-54889.1	1005.82	-29742.8	0.000000	0.000000	6.867065	-0.007350	NaN	0.000000	0.001634	0.001689	28.0816	0.097908	0.002117	46.2529	65.1686	-167.439	-0.086811	0.865958	-0.210512	-0.211806	-0.007350	46.2529	-0.210392	-194.613	3.776679E-5	NaN
444	1.000000	0.875282	7.36941e+06	-54889.1	1005.82	-29742.8	0.000000	0.000000	6.875094	-0.018326	NaN	0.000000	0.001646	0.001650	28.0815	0.058647	0.002101	27.9151	-107.644	-163.607	0.011681	0.873913	-0.202482	-0.203852	-0.018326	27.9151	-0.201990	-142.019	0.000129	NaN
444	1.000000	0.883261	7.36941e+06	-54889.1	1005.82	-29742.8	0.000000	0.000000	6.883072	-0.029819	NaN	0.000000	0.001654	0.001659	28.0817	0.051178	0.002040	25.087	-91.0328	-167.188	-0.101137	0.881936	-0.194504	-0.195828	-0.029819	25.087	-0.193612	-103.32	0.000289	NaN
444	1.000000	0.891289	7.36941e+06	-54889.1	1005.82	-29742.8	0.000000	0.000000	6.891098	-0.108423	NaN	0.000000	0.001609	0.001682	28.0815	0.174216	0.001834	94.9992	-139.371	-169.228	-0.143306	0.889961	-0.186475	-0.187803	-0.108423	94.9992	-0.185619	-75.9555	0.001427	NaN
444	1.000000	0.899304	7.36941e+06	-54889.1	1005.82	-29742.8	0.000000	0.000000	6.899112	-0.110191	NaN	0.000000	0.001647	0.001666	28.0814	0.062293	0.002154	28.9133	98.0951	-166.546	-0.092148	0.898001	-0.178461	-0.179764	-0.110191	28.9133	-0.175603	-51.3249	0.002147	NaN
444	1.000000	0.907289	7.36941e+06	-54889.1	1005.82	-29742.8	0.000000	0.000000	6.907100	-0.052448	NaN	0.000000	0.001660	0.001666	28.0814	0.049082	0.001976	24.8394	-103.635	-166.893	-0.118535	0.905962	-0.170475	-0.171803	-0.052448	24.8394	-0.168892	-39.2956	0.001335	NaN
444	1.000000	0.915311	7.36941e+06	-54889.1	1005.82	-29742.8	0.000000	0.000000	6.915124	0.004479	NaN	0.000000	0.001682	0.001701	28.0816	0.131893	0.001976	66.7421	-178.6	-160.535	-0.024804	0.914011	-0.162453	-0.163753	0.004479	66.7421	-0.162503	-30.3624	-0.000148	NaN
444	1.000000	0.923288	7.36941e+06	-54889.1	1005.82	-29742.8	0.000000	0.000000	6.923097	-0.111259	NaN	0.000000	0.001645	0.001701	28.0817	0.104024	0.001883	55.2429	122.385	-162.352	-0.118485	0.921966	-0.154476	-0.155798	-0.111259	55.2429	-0.152966	-20.5056	0.005426	NaN
444	1.000000	0.931281	7.36941e+06	-54889.1	1005.82	-29742.8	0.000000	0.000000	6.931093	-0.029449	NaN	0.000000	0.001630	0.001640	28.0813	0.042743	0.002002	21.3514	174.996	-166.804	-0.002984	0.929959	-0.146483	-0.147805	-0.029449	21.3514	-0.145449	-14.9439	0.001971	NaN
444	1.000000	0.939298	7.36941e+06	-54889.1	1005.82	-29742.8	0.000000	0.000000	6.939111	0.006179	NaN	0.000000	0.001619	0.001700	28.0814	0.056773	0.002007	28.2917	82.7221	-165.863	0.008650	0.937940	-0.138466	-0.139824	0.006179	28.2917	-0.138630	-11.1475	-0.000554	NaN
444	1.000000	0.947288	7.36941e+06	-54889.1	1005.82	-29742.8	0.000000	0.000000	6.947099	-0.045806	NaN	0.000000	0.001608	0.001723	28.0814	0.038146	0.002010	18.9813	-83.4158	-166.2	0.025730	0.945995	-0.130476	-0.131770	-0.045806	18.9813	-0.128666	-7.178697	0.006381	NaN
444	1.000000	0.955319	7.36941e+06	-54889.1	1005.82	-29742.8	0.000000	0.000000	6.955132	0.007714	NaN	0.000000	0.001597	0.001662	28.0814	0.030049	0.001990	15.0981	52.6369	-167.073	0.004399	0.954012	-0.122445	-0.123753	0.007714	15.0981	-0.122828	-5.506067	-0.001401	NaN
444	1.000000	0.963340	7.36941e+06	-54889.1	1005.82	-29742.8	0.000000	0.000000	6.963153	0.015738	NaN	0.000000	0.001622	0.001701	28.0814	0.040025	0.001922	20.8217	103.536	-166.397	-0.066150	0.961972	-0.114425	-0.115792	0.015738	20.8217	-0.114991	-3.818825	-0.004121	NaN
444	1.000000	0.971308	7.36941e+06	-54889.1	1005.82	-29742.8	0.000000	0.000000	6.971118	-0.053781	NaN	0.000000	0.001585	0.001672	28.0812	0.086559	0.001919	45.1179	18.9834	-167.406	-0.002910	0.969990	-0.106457	-0.107775	-0.053781	45.1179	-0.105563	-2.417218	0.022249	NaN
444	1.000000	0.979319	7.36941e+06	-54889.1	1005.82	-29742.8	0.000000	0.000000	6.979129	-0.062317	NaN	0.000000	0.001602	0.001691	28.0816	0.055989	0.002131	26.2746	114.35	-166.658	-0.097805	0.978041	-0.098445	-0.099724	-0.062317	26.2746	-0.096667	-1.538904	0.040495	NaN
444	1.000000	0.987315	7.36941e+06	-54889.1	1005.82	-29742.8	0.000000	0.000000	6.987126	-0.047190	NaN	0.000000	0.001619	0.001692	28.0812	0.047755	0.001998	23.8989	127.131	-169.204	-0.040746	0.986054	-0.090449	-0.091711	-0.047190	23.8989	-0.088968	-1.022198	0.046165	NaN
444	1.000000	0.995332	7.36941e+06	-54889.1	1005.82	-29742.8	0.000000	0.000000	6.995144	-0.037570	NaN	0.000000	0.001618	0.001677	28.0814	0.086734	0.001901	45.614	-123.164	-165.63	-0.002888	0.994065	-0.082432	-0.083699	-0.037570	45.614	-0.081814	-0.686722	0.054710	NaN
444	1.000000	1.003339	7.36941e+06	-54889.1	1005.82	-29742.8	0.000000	0.000000	7.003150	-0.023231	NaN	0.000000	0.001652	0.001674	28.0802	0.086843	0.002021	42.9654	-83.1251	-166.177	-0.022380	1.002024	-0.074426	-0.075740	-0.023231	42.9654	-0.074020	-0.435602	0.053330	NaN
444	1.000000	1.011342	7.36941e+06	-54889.1	1005.82	-29742.8	0.000000	0.000000	7.011156	0.017992	NaN	0.000000	0.001653	0.001701	28.0799	0.018820	0.002018	9.325247	-27.522	-165.525	-0.084353	1.010029	-0.066422	-0.067735	0.017992	9.325247	-0.067870	-0.298806	-0.060214	NaN
444	1.000000	1.019354	7.36941e+06	-54889.1	1005.82	-29742.8	0.000000	0.000000	7.019165	-0.045610	NaN	0.000000	0.001639	0.001659	28.0801	0.076564	0.002065	37.0824	-130.551	-164.735	-0.032534	1.018021	-0.058410	-0.059744	-0.045610	37.0824	-0.057488	-0.152358	0.299358	NaN
444	1.000000	1.027353	7.36941e+06	-54889.1	1005.82	-29742.8	0.000000	0.000000	7.027166	-0.003421	NaN	0.000000	0.001666	0.001646	28.08	0.117752	0.002063	57.0834	-40.8135	-167.243	-0.040403	1.026034	-0.050411	-0.051731	-0.003421	57.0834	-0.050366	-0.093605	0.036547	NaN
444	1.000000	1.035342	7.36941e+06	-54889.1	1005.82	-29742.8	0.000000	0.000000	7.035153	-0.042327	NaN	0.000000	0.001649	0.001672	28.0803	0.055815	0.002074	26.9159	173.654	-168.264	-0.063145	1.034036	-0.042422	-0.043728	-0.042327	26.9159	-0.041243	-0.049337	0.857917	NaN
444	1.000000	1.043342	7.36941e+06	-54889.1	1005.82	-29742.8	0.000000	0.000000	7.043155	0.021394	NaN	0.000000	0.001648	0.001712	28.08	0.116289	0.002067	56.2513	54.2997	-165.026	-0.065042	1.042001	-0.034423	-0.035763	0.021394	56.2513	-0.034708	-0.031397	-0.681390	NaN
444	1.000000	1.051351	7.36941e+06	-54889.1	1005.82	-29742.8	0.000000	0.000000	7.051162	-0.047515	NaN	0.000000	0.001590	0.001679	28.0799	0.033296	0.001982	16.8024	-25.056	-167.294	-0.010434	1.050060	-0.026413	-0.027704	-0.047515	16.8024	-0.024293	-0.016170	2.938425	NaN
444	1.000000	1.059355	7.36941e+06	-54889.1	1005.82	-29742.8	0.000000	0.000000	7.059169	0.006182	NaN	0.000000	0.001644	0.001677	28.0798	0.001403	0.001893	0.741501	47.9173	-164.843	-0.041905	1.058022	-0.018409	-0.019742	0.006182	0.741501	-0.024662	-0.016531	-0.373960	NaN
444	1.000000	1.067373	7.36941e+06	-54889.1	1005.82	-29742.8	0.000000	0.000000	7.067185	-0.016563	NaN	0.000000	0.001634	0.001674	28.0801	0.049445	0.001998	24.7454	-116.298	-164.454	-0.021982	1.066054	-0.010392	-0.011711	-0.016563	24.7454	-0.009890	-0.006324	2.619025	NaN
444	1.000000	1.075353	7.36941e+06	-54889.1	1005.82	-29742.8	0.000000	0.000000	7.075162	-0.084895	NaN	0.000000	0.001653	0.001675	28.08	0.077318	0.002170	35.6357	104.321	-165.936	-0.039041	1.074070	-0.002412	-0.003695	-0.084895	35.6357	-0.000625	-0.000461	184.017	NaN
444	1.000000	1.083338	7.36941e+06	-54889.1	1005.82	-29742.8	0.000000	0.000000	7.083266	2.796479	NaN	0.000000	0.001640	0.001684	28.0801	3.658575	0.001633	2240.42	12.622	-169.9	1.781440	1.082040	0.005574	0.004275	2.796479	2240.42	0.004638	0.003805	734.948	33183.7
444	2.000000	1.089929	7.36941e+06	-54889.1	1005.82	-29742.8	0.000000	0.000000	7.090084	8.325578	NaN	0.000000	0.001616	0.001695	28.0799	9.105301	0.001572	5790.46	8.318352	-172.657	8.441260	1.089545	0.012165	0.011781	8.325578	5790.46	0.011086	0.010414	799.466	51841.7
444	2.000000	1.091916	7.36941e+06	-54889.1	1005.82	-29742.8	0.000000	0.000000	7.092244	12.5208	NaN	0.000000	0.001625	0.001666	28.0806	12.3847	0.001607	7707.36	6.108595	-175.269	11.5464	1.091647	0.014152	0.013883	12.5208	7707.36	0.012934	0.012628	991.532	62663.7
444	2.000000	1.093958	7.36941e+06	-54889.1	1005.82	-29742.8	0.000000	0.000000	7.094404	15.3916	NaN	0.000000	0.001629	0.001687	28.08	14.2517	0.001648	8649.72	7.011888	-174.755	14.3423	1.093601	0.016194	0.015836	15.3916	8649.72	0.014859	0.015098	1019.44	64315.3
444	2.000000	1.095872	7.36941e+06	-54889.1	1005.82	-29742.8	0.000000	0.000000	7.096432	18.1591	NaN	0.000000	0.001654	0.001725	28.0801	16.7653	0.001622	10334.5	7.319040	-177.791	17.6927	1.095581	0.018108	0.017817	18.1591	10334.5	0.016790	0.017747	1023.22	70876.3
444	2.000000	1.097876	7.36941e+06	-54889.1	1005.82	-29742.8	0.000000	0.000000	7.098680	24.0827	NaN	0.000000	0.001659	0.001677	28.0801	19.0454	0.001727	11025.2	4.057008	-174.3	22.4903	1.097569	0.020112	0.019805	24.0827	11025.2	0.018474	0.020200	1192.19	70873.1
444	2.000000	1.099918	7.36941e+06	-54889.1	1005.82	-29742.8	0.000000	0.000000	7.100974	30.2071	NaN	0.000000	0.001610	0.001692	28.0802	21.4118	0.001733	12354.1	9.342820	178.504	30.376	1.099573	0.022154	0.021808	30.2071	12354.1	0.020320	0.023048	1310.62	74347.7
444	2.000000	1.101877	7.36941e+06	-54889.1	1005.82	-29742.8	0.000000	0.000000	7.103015	32.2069	NaN	0.000000	0.001616	0.001661	28.0822	24.2114	0.001890	12811.6	7.385333	-179.746	32.9507	1.101631	0.024113	0.023866	32.2069	12811.6	0.022227	0.026164	1230.97	72364.4
444	2.000000	1.103861	7.36941e+06	-54889.1	1005.82	-29742.8	0.000000	0.000000	7.105155	36.0085	NaN	0.000000	0.001639	0.001700	28.0814	25.2232	0.001720	14661	3.738976	-175.724	35.7964	1.103587	0.026096	0.025822	36.0085	14661	0.024254	0.029673	1213.52	77760.2
444	2.000000	1.105879	7.36941e+06	-54889.1	1005.82	-29742.8	0.000000	0.000000	7.107479	43.4541	NaN	0.000000	0.001638	0.001659	28.0814	27.8689	0.001750	15927.1	7.555537	179.647	44.3678	1.105482	0.028114	0.027718	43.4541	15927.1	0.026068	0.032987	1317.31	80119.3
444	2.000000	1.107846	7.36941e+06	-54889.1	1005.82	-29742.8	0.000000	0.000000	7.109692	49.4397	NaN	0.000000	0.001657	0.001703	28.0816	30.6615	0.001845	16618	6.367687	178.557	47.656	1.107531	0.030081	0.029766	49.4397	16618	0.027850	0.036406	1358.02	79573.3
444	2.000000	1.109879	7.36941e+06	-54889.1	1005.82	-29742.8	0.000000	0.000000	7.112078	58.0158	NaN	0.000000	0.001668	0.001695	28.0815	31.4737	0.001724	18251.1	8.510480	176.841	59.0112	1.109500	0.032115	0.031736	58.0158	18251.1	0.029730	0.040187	1443.65	83180.2
444	2.000000	1.111795	7.36941e+06	-54889.1	1005.82	-29742.8	0.000000	0.000000	7.114280	64.9603	NaN	0.000000	0.001676	0.001686	28.0819	34.4588	0.001746	19738.8	0.531855	-177.355	62.0776	1.111505	0.034031	0.033741	64.9603	19738.8	0.031563	0.044045	1474.87	85930.2
444	2.000000	1.113914	7.36941e+06	-54889.1	1005.82	-29742.8	0.000000	0.000000	7.116418	65.4373	NaN	0.000000	0.001671	0.001722	28.0817	36.3294	0.001742	20858.5	6.117594	176.96	65.2116	1.113570	0.036149	0.035806	65.4373	20858.5	0.033796	0.048981	1335.99	86108.3
444	2.000000	1.115856	7.36941e+06	-54889.1	1005.82	-29742.8	0.000000	0.000000	7.118834	76.9565	NaN	0.000000	0.001679	0.001647	28.0815	37.7074	0.001669	22588.8	2.591778	-179.643	77.312	1.115503	0.038091	0.037739	76.9565	22588.8	0.035536	0.053002	1451.95	89643.5
444	2.000000	1.117831	7.36941e+06	-54889.1	1005.82	-29742.8	0.000000	0.000000	7.121265	88.0192	NaN	0.000000	0.001678	0.001665	28.0816	41.8044	0.001810	23101.9	5.560390	175.983	86.6423	1.117557	0.040067	0.039793	88.0192	23101.9	0.037209	0.057015	1543.78	88394.3
444	2.000000	1.119770	7.36941e+06	-54889.1	1005.82	-29742.8	0.000000	0.000000	7.123440	93.7657	NaN	0.000000	0.001651	0.001681	28.0815	42.3814	0.001775	23880	4.797291	176.553	91.4952	1.119505	0.042006	0.041741	93.7657	23880	0.039061	0.061624	1521.58	87888.7
444	2.000000	1.121843	7.36941e+06	-54889.1	1005.82	-29742.8	0.000000	0.000000	7.125834	101.563	NaN	0.000000	0.001678	0.001672	28.0823	45.2818	0.001775	25508.9	5.562010	175.346	100.481	1.121581	0.044079	0.043816	101.563	25508.9	0.041093	0.066883	1518.53	90117.4
444	2.000000	1.123890	7.36941e+06	-54889.1	1005.82	-29742.8	0.000000	0.000000	7.128404	114.293	NaN	0.000000	0.001658	0.001678	28.0818	47.9654	0.001825	26278.8	7.378119	173.041	113.339	1.123573	0.046126	0.045808	114.293	26278.8	0.042864	0.071638	1595.41	89702.5
444	2.000000	1.125871	7.36941e+06	-54889.1	1005.82	-29742.8	0.000000	0.000000	7.130613	119.82	NaN	0.000000	0.001674	0.001713	28.0814	49.6415	0.001871	26531.8	9.266910	171.095	120.568	1.125605	0.048106	0.047841	119.82	26531.8	0.044719	0.076793	1560.31	87474.3
444	2.000000	1.127773	7.36941e+06	-54889.1	1005.82	-29742.8	0.000000	0.000000	7.133111	134.319	NaN	0.000000	0.001661	0.001724	28.0816	50.6538	0.001794	28234.1	4.972681	175.215	130.797	1.127483	0.050009	0.049719	134.319	28234.1	0.046441	0.081731	1643.44	90231
444	2.000000	1.129762	7.36941e+06	-54889.1	1005.82	-29742.8	0.000000	0.000000	7.135655	147.805	NaN	0.000000	0.001679	0.001731	28.0816	51.7463	0.001765	29324.4	2.764290	177.366	145.437	1.129528	0.051997	0.051764	147.805	29324.4	0.048217	0.086982	1699.26	90842.1
444	2.000000	1.131846	7.36941e+06	-54889.1	1005.82	-29742.8	0.000000	0.000000	7.138052	155.417	NaN	0.000000	0.001689	0.001681	28.0816	56.2731	0.001823	30869.1	7.392608	171.601	155.895	1.131522	0.054082	0.053758	155.417	30869.1	0.050306	0.093361	1664.69	92302.6
444	2.000000	1.133848	7.36941e+06	-54889.1	1005.82	-29742.8	0.000000	0.000000	7.140905	176.112	NaN	0.000000	0.001654	0.001723	28.0819	56.875	0.001778	31992.6	4.737503	175.228	175.476	1.133428	0.056083	0.055663	176.112	31992.6	0.051955	0.098550	1787.02	93109.3
444	2.000000	1.135799	7.36941e+06	-54889.1	1005.82	-29742.8	0.000000	0.000000	7.143334	187.731	NaN	0.000000	0.001713	0.001733	28.0802	58.1479	0.001870	31101.6	4.610184	175.005	186.706	1.135473	0.058034	0.057709	187.731	31101.6	0.053507	0.103562	1812.75	88299.1
444	2.000000	1.137726	7.36941e+06	-54889.1	1005.82	-29742.8	0.000000	0.000000	7.145523	194.089	NaN	0.000000	0.001694	0.001729	28.0803	59.7891	0.001806	33112.1	2.270392	176.814	188.458	1.137387	0.059961	0.059622	194.089	33112.1	0.055565	0.110388	1758.24	91054
444	2.000000	1.139756	7.36941e+06	-54889.1	1005.82	-29742.8	0.000000	0.000000	7.148049	206.159	NaN	0.000000	0.001626	0.001718	28.0802	61.1052	0.001740	35120.7	3.850892	174.312	202.151	1.139523	0.061991	0.061759	206.159	35120.7	0.057589	0.117304	1757.48	93687.2
444	2.000000	1.141750	7.36941e+06	-54889.1	1005.82	-29742.8	0.000000	0.000000	7.150551	218.493	NaN	0.000000	0.001647	0.001696	28.0804	64.7766	0.001812	35756	7.316017	171.194	217.212	1.141509	0.063986	0.063745	218.493	35756	0.059402	0.123674	1766.68	92892.8
444	2.000000	1.143867	7.36941e+06	-54889.1	1005.82	-29742.8	0.000000	0.000000	7.153506	238.864	NaN	0.000000	0.001675	0.001664	28.0805	66.385	0.001854	35807.5	2.526610	177.118	241.329	1.143424	0.066103	0.065660	238.864	35807.5	0.061100	0.129781	1840.51	90811.6
444	2.000000	1.145787	7.36941e+06	-54889.1	1005.82	-29742.8	0.000000	0.000000	7.156154	256.566	NaN	0.000000	0.001633	0.001683	28.0802	67.243	0.001664	40413.8	3.124303	174.978	255.734	1.145386	0.068023	0.067621	256.566	40413.8	0.063261	0.137763	1862.38	99480.4
444	2.000000	1.147750	7.36941e+06	-54889.1	1005.82	-29742.8	0.000000	0.000000	7.158787	272.874	NaN	0.000000	0.001633	0.001667	28.0806	69.7597	0.001733	40250.1	3.784023	174.358	268.737	1.147408	0.069985	0.069643	272.874	40250.1	0.064901	0.143965	1895.41	96919.5
444	2.000000	1.149747	7.36941e+06	-54889.1	1005.82	-29742.8	0.000000	0.000000	7.161200	282.974	NaN	0.000000	0.001631	0.001646	28.0804	70.6841	0.001700	41576.3	3.320214	174.085	279.68	1.149404	0.071983	0.071640	282.974	41576.3	0.066878	0.151620	1866.33	97552.8
444	2.000000	1.151710	7.36941e+06	-54889.1	1005.82	-29742.8	0.000000	0.000000	7.163717	296.431	NaN	0.000000	0.001628	0.001673	28.0803	73.5183	0.001652	44499.3	3.612880	172.963	291.857	1.151429	0.073946	0.073664	296.431	44499.3	0.068950	0.159842	1854.53	101691
444	2.000000	1.153759	7.36941e+06	-54889.1	1005.82	-29742.8	0.000000	0.000000	7.166380	311.344	NaN	0.000000	0.001660	0.001639	28.0803	76.3709	0.001779	42939.6	2.734623	174.51	307.258	1.153528	0.075995	0.075764	311.344	42939.6	0.070557	0.166360	1871.5	96184.7
444	2.000000	1.155720	7.36941e+06	-54889.1	1005.82	-29742.8	0.000000	0.000000	7.169214	332.582	NaN	0.000000	0.001634	0.001645	28.0804	77.4263	0.001749	44280.5	2.055281	174.978	328.304	1.155415	0.077955	0.077651	332.582	44280.5	0.072322	0.173663	1915.1	97080.6
444	2.000000	1.157736	7.36941e+06	-54889.1	1005.82	-29742.8	0.000000	0.000000	7.172077	353.172	NaN	0.000000	0.001622	0.001664	28.0804	81.6186	0.001836	44464.6	5.449132	170.903	348.749	1.157456	0.079971	0.079692	353.172	44464.6	0.074014	0.180800	1953.38	95540.7
444	2.000000	1.159700	7.36941e+06	-54889.1	1005.82	-29742.8	0.000000	0.000000	7.174830	372.364	NaN	0.000000	0.001636	0.001625	28.0805	81.8057	0.001727	47356.1	4.323270	171.63	366.616	1.159460	0.081935	0.081696	372.364	47356.1	0.076038	0.189514	1964.84	99386.8
444	2.000000	1.161716	7.36941e+06	-54889.1	1005.82	-29742.8	0.000000	0.000000	7.177298	383.357	NaN	0.000000	0.001622	0.001660	28.0804	84.3908	0.001878	44931.2	5.771950	170.789	379.339	1.161479	0.083952	0.083714	383.357	44931.2	0.077552	0.196160	1954.3	92686.4
444	2.000000	1.163701	7.36941e+06	-54889.1	1005.82	-29742.8	0.000000	0.000000	7.180311	408.333	NaN	0.000000	0.001651	0.001649	28.0801	85.4682	0.001797	47562.8	5.897376	170.777	402.572	1.163373	0.085936	0.085609	408.333	47562.8	0.079498	0.204854	1993.29	96010.4
444	2.000000	1.165711	7.36941e+06	-54889.1	1005.82	-29742.8	0.000000	0.000000	7.183066	426.447	NaN	0.000000	0.001598	0.001655	28.0804	87.3025	0.001841	47428.1	3.610697	173.145	422.978	1.165428	0.087946	0.087664	426.447	47428.1	0.081203	0.212620	2005.67	93973.8
444	2.000000	1.167672	7.36941e+06	-54889.1	1005.82	-29742.8	0.000000	0.000000	7.186108	452.72	NaN	0.000000	0.001609	0.001660	28.0802	89.539	0.001857	48219.8	1.635750	174.882	446.726	1.167406	0.089907	0.089641	452.72	48219.8	0.082866	0.220326	2054.77	93856.7
444	2.000000	1.169647	7.36941e+06	-54889.1	1005.82	-29742.8	0.000000	0.000000	7.188789	469.886	NaN	0.000000	0.001620	0.001671	28.0816	91.5273	0.001807	50650.9	6.137450	169.727	461.661	1.169356	0.091883	0.091592	469.886	50650.9	0.084925	0.230043	2042.6	96484.1
444	2.000000	1.171725	7.36941e+06	-54889.1	1005.82	-29742.8	0.000000	0.000000	7.191872	494.335	NaN	0.000000	0.001624	0.001659	28.0817	93.875	0.001708	54950.2	7.681813	167.655	491.318	1.171393	0.093960	0.093628	494.335	54950.2	0.087213	0.241072	2050.57	102251
444	2.000000	1.173795	7.36941e+06	-54889.1	1005.82	-29742.8	0.000000	0.000000	7.194552	509.132	NaN	0.000000	0.001631	0.001642	28.0814	96.7894	0.001889	51229.4	4.510902	171.548	505.959	1.173475	0.096031	0.095711	509.132	51229.4	0.088577	0.247761	2054.93	94031.9
444	2.000000	1.175795	7.36941e+06	-54889.1	1005.82	-29742.8	0.000000	0.000000	7.197841	540.48	NaN	0.000000	0.001606	0.001648	28.0815	97.324	0.001823	53400.7	5.121630	171.463	539.77	1.175349	0.098030	0.097584	540.48	53400.7	0.090439	0.257031	2102.78	96233.7
444	2.000000	1.177751	7.36941e+06	-54889.1	1005.82	-29742.8	0.000000	0.000000	7.200424	555.735	NaN	0.000000	0.001659	0.001716	28.081	100.62	0.001824	55160.9	5.508150	169.917	554.144	1.177445	0.099987	0.099681	555.735	55160.9	0.092431	0.267119	2080.48	97510.8
444	2.000000	1.179798	7.36941e+06	-54889.1	1005.82	-29742.8	0.000000	0.000000	7.203162	572.504	NaN	0.000000	0.001642	0.001714	28.0812	101.286	0.001761	57521.1	8.837721	166.113	574.332	1.179513	0.102034	0.101749	572.504	57521.1	0.094569	0.278156	2058.21	99645.1
444	2.000000	1.181628	7.36941e+06	-54889.1	1005.82	-29742.8	0.000000	0.000000	7.206000	597.018	NaN	0.000000	0.001621	0.001643	28.0812	103.343	0.001867	55353.6	2.698575	173.213	589.349	1.181253	0.103864	0.103488	597.018	55353.6	0.095775	0.284468	2098.72	94820.5
444	2.000000	1.183694	7.36941e+06	-54889.1	1005.82	-29742.8	0.000000	0.000000	7.208809	615.083	NaN	0.000000	0.001631	0.001669	28.0811	105.675	0.001882	56162	3.221767	172.207	609.911	1.183375	0.105930	0.105610	615.083	56162	0.097716	0.294773	2086.63	94508.6
444	2.000000	1.185743	7.36941e+06	-54889.1	1005.82	-29742.8	0.000000	0.000000	7.211716	635.932	NaN	0.000000	0.001603	0.001658	28.0819	106.262	0.001756	60514.4	2.616075	172.105	632.949	1.185555	0.107979	0.107791	635.932	60514.4	0.100097	0.307651	2067.06	99678.8
444	2.000000	1.187762	7.36941e+06	-54889.1	1005.82	-29742.8	0.000000	0.000000	7.214978	666.164	NaN	0.000000	0.001641	0.001640	28.0813	109.498	0.001723	63562.2	1.783136	172.634	664.215	1.187538	0.109997	0.109774	666.164	63562.2	0.102137	0.318884	2089.05	102839
444	2.000000	1.188141	7.36941e+06	-54889.1	1005.82	-29742.8	0.000000	0.000000	7.215755	675.852	NaN	0.000000	0.001633	0.001639	28.0812	109.548	0.001741	62917.4	3.336450	-8.797564	667.105	1.187872	0.110376	0.110108	675.852	62917.4	0.102320	0.319900	2112.7	101633