File: remote_trans/data/nanoindenter/0828-1/data/Data_2025-08-06,11h17m57s/2025-07-22_16-23-58_1_625.txt
2025-07-22, 16:23:58, 1
Index	Phase	Displacement	Time	Pos X	Pos Y	Pos Z	Rot A	Rot B	Piezo Z	Force A	Force B	Gripper	Voltage A	Voltage B	Temperature	Amplitude force	Amplitude pos	Stiffness	Phase shift	Phase excitation	Force A raw	Displacement raw	HMax	HMax raw	Real Force	Real Stiffness	Contact Depth	Area	Hardness	Reduced Mod.
[#]	[#]	[um]	[s]	[um]	[um]	[um]	[m°]	[m°]	[um]	[uN]	[uN]	[V]	[V]	[V]	[°C]	[uN]	[um]	[N/m]	[°]	[°]	[uN]	[um]	[um]	[um]	[uN]	[N/m]	[um]	[um^2]	[MPa]	[MPa]
625	1.000000	0.002581	7.37116e+06	-45839.1	1005.82	-29771	0.000000	0.000000	6.002795	-0.014350	NaN	0.000000	0.001747	0.001668	28.0836	0.064712	0.000915	70.6923	158.319	-160.91	-0.075577	0.001367	-1.094804	-1.096017	-0.014350	70.6923	-1.094651	-4.248777E+14	3.377522E-17	NaN
625	1.000000	0.012671	7.37116e+06	-45839.1	1005.82	-29771	0.000000	0.000000	6.012886	0.030585	NaN	0.000000	0.001718	0.001652	28.0836	0.014343	0.001171	12.2513	3.498885	19.7417	-0.077292	0.011239	-1.084714	-1.086146	0.030585	12.2513	-1.086586	-3.311091E+14	-9.237143E-17	NaN
625	1.000000	0.022530	7.37116e+06	-45839.1	1005.82	-29771	0.000000	0.000000	6.022745	0.015073	NaN	0.000000	0.001718	0.001651	28.0837	0.018002	0.001710	10.5295	150.947	-162.031	-0.056670	0.021197	-1.074855	-1.076187	0.015073	10.5295	-1.075929	-2.381414E+14	-6.329485E-17	NaN
625	1.000000	0.032537	7.37116e+06	-45839.1	1005.82	-29771	0.000000	0.000000	6.032750	-0.016690	NaN	0.000000	0.001768	0.001676	28.0835	0.045482	0.001837	24.7585	76.9071	16.934	0.024005	0.031193	-1.064848	-1.066192	-0.016690	24.7585	-1.064343	-1.664092E+14	1.002961E-16	NaN
625	1.000000	0.042527	7.37116e+06	-45839.1	1005.82	-29771	0.000000	0.000000	6.042741	0.004472	NaN	0.000000	0.001712	0.001672	28.0836	0.045422	0.001997	22.7419	-10.9325	-164.695	0.014889	0.041230	-1.054858	-1.056154	0.004472	22.7419	-1.055006	-1.246517E+14	-3.587767E-17	NaN
625	1.000000	0.052579	7.37116e+06	-45839.1	1005.82	-29771	0.000000	0.000000	6.052794	0.012014	NaN	0.000000	0.001659	0.001649	28.0835	0.073392	0.001968	37.2964	147.109	17.7958	0.014082	0.051198	-1.044806	-1.046187	0.012014	37.2964	-1.045047	-9.158633E+13	-1.311745E-16	NaN
625	1.000000	0.062572	7.37116e+06	-45839.1	1005.82	-29771.1	0.000000	0.000000	6.062786	0.001535	NaN	0.000000	0.001655	0.001703	28.0835	0.151312	0.002013	75.1841	17.094	-167.335	0.082092	0.061214	-1.034813	-1.036171	0.001535	75.1841	-1.034828	-6.674492E+13	-2.300062E-17	NaN
625	1.000000	0.072533	7.37116e+06	-45839.1	1005.82	-29771.1	0.000000	0.000000	6.072747	-0.019040	NaN	0.000000	0.001661	0.001658	28.0837	0.057382	0.002059	27.8719	-9.070624	13.7941	-0.016643	0.071162	-1.024852	-1.026223	-0.019040	27.8719	-1.024339	-4.823167E+13	3.947557E-16	NaN
625	1.000000	0.082539	7.37116e+06	-45839.1	1005.82	-29771.1	0.000000	0.000000	6.082753	0.003236	NaN	0.000000	0.001639	0.001688	28.0837	0.005519	0.001945	2.837590	59.6488	-165.494	-0.014153	0.081235	-1.014846	-1.016149	0.003236	2.837590	-1.015702	-3.690748E+13	-8.768891E-17	NaN
625	1.000000	0.092562	7.37116e+06	-45839.1	1005.82	-29771.1	0.000000	0.000000	6.092774	-0.053468	NaN	0.000000	0.001654	0.001681	28.0837	0.097869	0.002036	48.075	-104.016	14.304	-0.045000	0.091238	-1.004823	-1.006146	-0.053468	48.075	-1.003989	-2.567251E+13	2.082679E-15	NaN
625	1.000000	0.102560	7.37116e+06	-45839.1	1005.82	-29771.1	0.000000	0.000000	6.102771	-0.067764	NaN	0.000000	0.001653	0.001669	28.0836	0.082615	0.002036	40.5839	-54.1646	-164.229	0.049363	0.101257	-0.994825	-0.996127	-0.067764	40.5839	-0.993573	-1.858764E+13	3.645640E-15	NaN
625	1.000000	0.112540	7.37116e+06	-45839.1	1005.82	-29771.1	0.000000	0.000000	6.112753	-0.037883	NaN	0.000000	0.001652	0.001714	28.0838	0.053006	0.002018	26.2609	-93.1991	14.4634	-0.082091	0.111208	-0.984845	-0.986177	-0.037883	26.2609	-0.983763	-1.371199E+13	2.762780E-15	NaN
625	1.000000	0.122583	7.37117e+06	-45839.1	1005.82	-29771.1	0.000000	0.000000	6.122799	0.040448	NaN	0.000000	0.001678	0.001683	28.0849	0.086187	0.001970	43.7459	54.1134	-165.969	-0.001764	0.121247	-0.974802	-0.976137	0.040448	43.7459	-0.975495	-1.060994E+13	-3.812297E-15	NaN
625	1.000000	0.132587	7.37117e+06	-45839.1	1005.82	-29771.1	0.000000	0.000000	6.132801	-0.008408	NaN	0.000000	0.001659	0.001682	28.0849	0.048997	0.002090	23.4454	-150.647	14.1859	0.023340	0.131188	-0.964798	-0.966197	-0.008408	23.4454	-0.964529	-7.549540E+12	1.113688E-15	NaN
625	1.000000	0.142561	7.37117e+06	-45839.1	1005.82	-29771.1	0.000000	0.000000	6.142777	0.055549	NaN	0.000000	0.001696	0.001692	28.0849	0.024053	0.002032	11.8392	120.416	-166.906	0.023736	0.141253	-0.954824	-0.956131	0.055549	11.8392	-0.958343	-6.230617E+12	-8.915478E-15	NaN
625	1.000000	0.152562	7.37117e+06	-45839.1	1005.82	-29771.1	0.000000	0.000000	6.152777	0.017373	NaN	0.000000	0.001693	0.001688	28.085	0.038481	0.002112	18.2158	-153.688	15.4917	0.055962	0.151239	-0.944822	-0.946146	0.017373	18.2158	-0.945538	-4.186412E+12	-4.149951E-15	NaN
625	1.000000	0.162573	7.37117e+06	-45839.1	1005.82	-29771.1	0.000000	0.000000	6.162787	0.008149	NaN	0.000000	0.001660	0.001675	28.0849	0.142344	0.001902	74.8235	125.299	-166.816	-0.035876	0.161293	-0.934812	-0.936092	0.008149	74.8235	-0.934894	-3.007738E+12	-2.709215E-15	NaN
625	1.000000	0.172592	7.37117e+06	-45839.1	1005.82	-29771.1	0.000000	0.000000	6.172804	-0.049866	NaN	0.000000	0.001695	0.001718	28.0847	0.131274	0.002018	65.0608	-124.442	14.9835	-0.077783	0.171214	-0.924793	-0.926171	-0.049866	65.0608	-0.924218	-2.158523E+12	2.310182E-14	NaN
625	1.000000	0.182625	7.37117e+06	-45839.1	1005.82	-29771.1	0.000000	0.000000	6.182838	-0.035277	NaN	0.000000	0.001678	0.001735	28.0848	0.058866	0.002026	29.0534	-107.875	-166.12	0.039738	0.181287	-0.914760	-0.916098	-0.035277	29.0534	-0.913849	-1.563687E+12	2.256031E-14	NaN
625	1.000000	0.192607	7.37117e+06	-45839.1	1005.82	-29771.1	0.000000	0.000000	6.192819	-0.058344	NaN	0.000000	0.001579	0.001670	28.0847	0.017741	0.002119	8.370529	66.169	12.6236	-0.064597	0.191248	-0.904777	-0.906136	-0.058344	8.370529	-0.899550	-1.002262E+12	5.821222E-14	NaN
625	1.000000	0.202591	7.37117e+06	-45839.1	1005.82	-29771.1	0.000000	0.000000	6.202806	0.003173	NaN	0.000000	0.001607	0.001687	28.0847	0.078122	0.002021	38.6464	-55.4432	-163.647	0.009944	0.201281	-0.894793	-0.896104	0.003173	38.6464	-0.894855	-8.660369E+11	-3.663911E-15	NaN
625	1.000000	0.212590	7.37117e+06	-45839.1	1005.82	-29771.1	0.000000	0.000000	6.212804	0.009043	NaN	0.000000	0.001548	0.001692	28.0842	0.024251	0.002065	11.745	133.119	12.6173	-0.000141	0.211247	-0.884795	-0.886138	0.009043	11.745	-0.885373	-6.447009E+11	-1.402743E-14	NaN
625	1.000000	0.222636	7.37117e+06	-45839.1	1005.82	-29771.1	0.000000	0.000000	6.222850	-0.029473	NaN	0.000000	0.001526	0.001689	28.084	0.105922	0.002034	52.0663	70.5133	-166.701	-0.029850	0.221274	-0.874748	-0.876110	-0.029473	52.0663	-0.874324	-4.570205E+11	6.449043E-14	NaN
625	1.000000	0.232607	7.37117e+06	-45839.1	1005.82	-29771.1	0.000000	0.000000	6.232820	-0.017267	NaN	0.000000	0.001535	0.001688	28.0842	0.068000	0.001935	35.1388	60.6761	15.2947	-0.028128	0.231258	-0.864778	-0.866127	-0.017267	35.1388	-0.864409	-3.355802E+11	5.145539E-14	NaN
625	1.000000	0.242624	7.37117e+06	-45839.1	1005.82	-29771.1	0.000000	0.000000	6.242838	-0.010509	NaN	0.000000	0.001585	0.001668	28.0843	0.072239	0.001998	36.1608	132.178	-168.69	0.004121	0.241278	-0.854760	-0.856106	-0.010509	36.1608	-0.854542	-2.467415E+11	4.259129E-14	NaN
625	1.000000	0.252603	7.37117e+06	-45839.1	1005.82	-29771.1	0.000000	0.000000	6.252814	-0.067176	NaN	0.000000	0.001591	0.001662	28.0842	0.090877	0.001923	47.2594	-49.5409	14.4051	-0.078838	0.251269	-0.844782	-0.846116	-0.067176	47.2594	-0.843716	-1.760479E+11	3.815763E-13	NaN
625	1.000000	0.262602	7.37117e+06	-45839.1	1005.82	-29771.1	0.000000	0.000000	6.262814	-0.075850	NaN	0.000000	0.001568	0.001675	28.083	0.080827	0.001921	42.0791	-133.928	-168.119	-0.035178	0.261291	-0.834782	-0.836093	-0.075850	42.0791	-0.833430	-1.277251E+11	5.938499E-13	NaN
625	1.000000	0.272661	7.37117e+06	-45839.1	1005.82	-29771.1	0.000000	0.000000	6.272876	0.010433	NaN	0.000000	0.001583	0.001676	28.0832	0.023883	0.001994	11.9787	31.4053	12.705	0.092576	0.271257	-0.824724	-0.826128	0.010433	11.9787	-0.825377	-9.933832E+10	-1.050239E-13	NaN
625	1.000000	0.282618	7.37117e+06	-45839.1	1005.82	-29771.1	0.000000	0.000000	6.282837	0.114162	NaN	0.000000	0.001631	0.001725	28.083	0.081076	0.002068	39.2053	-60.5117	-162.916	0.079152	0.281315	-0.814767	-0.816070	0.114162	39.2053	-0.816951	-7.635818E+10	-1.495089E-12	NaN
625	1.000000	0.292653	7.37117e+06	-45839.1	1005.82	-29771.1	0.000000	0.000000	6.292867	0.015153	NaN	0.000000	0.001591	0.001674	28.0836	0.090017	0.001959	45.9405	167.437	17.2801	0.068802	0.291213	-0.804732	-0.806172	0.015153	45.9405	-0.804980	-5.253499E+10	-2.884431E-13	NaN
625	1.000000	0.302627	7.37117e+06	-45839.1	1005.82	-29771.1	0.000000	0.000000	6.302842	0.016915	NaN	0.000000	0.001577	0.001690	28.0833	0.086253	0.002030	42.4861	-171.704	-164.905	-0.078356	0.301327	-0.794757	-0.796057	0.016915	42.4861	-0.795056	-3.852491E+10	-4.390748E-13	NaN
625	1.000000	0.312647	7.37117e+06	-45839.1	1005.82	-29771.1	0.000000	0.000000	6.312862	0.005522	NaN	0.000000	0.001582	0.001694	28.0834	0.055831	0.002051	27.2201	-111.171	16.1492	-0.004019	0.311313	-0.784738	-0.786072	0.005522	27.2201	-0.784890	-2.803296E+10	-1.969826E-13	NaN
625	1.000000	0.322669	7.37117e+06	-45839.1	1005.82	-29771.1	0.000000	0.000000	6.322881	-0.063046	NaN	0.000000	0.001561	0.001707	28.0831	0.042825	0.002102	20.378	-128.806	-167.097	0.029941	0.321317	-0.774716	-0.776068	-0.063046	20.378	-0.772395	-1.896147E+10	3.324961E-12	NaN
625	1.000000	0.332669	7.37117e+06	-45839.1	1005.82	-29771.1	0.000000	0.000000	6.332885	0.032393	NaN	0.000000	0.001549	0.001706	28.0833	0.081775	0.002065	39.6082	-101.132	15.7338	-0.034454	0.331252	-0.764715	-0.766133	0.032393	39.6082	-0.765329	-1.519795E+10	-2.131398E-12	NaN
625	1.000000	0.342654	7.37117e+06	-45839.1	1005.82	-29771.1	0.000000	0.000000	6.342865	-0.072128	NaN	0.000000	0.001578	0.001731	28.0831	0.042137	0.002006	21.0101	93.9754	-170.202	0.035462	0.341299	-0.754731	-0.756086	-0.072128	21.0101	-0.752156	-1.005939E+10	7.170212E-12	NaN
625	1.000000	0.352651	7.37117e+06	-45839.1	1005.82	-29771.1	0.000000	0.000000	6.352863	-0.057546	NaN	0.000000	0.001521	0.001735	28.0836	0.051555	0.001957	26.3473	-89.2924	16.6351	-0.011674	0.351248	-0.744734	-0.746137	-0.057546	26.3473	-0.743096	-7.572183E+9	7.599624E-12	NaN
625	1.000000	0.362657	7.37117e+06	-45839.1	1005.82	-29771.1	0.000000	0.000000	6.362873	0.027947	NaN	0.000000	0.001542	0.001732	28.0836	0.065906	0.002149	30.6633	-161.638	-167.972	0.095510	0.361377	-0.734727	-0.736008	0.027947	30.6633	-0.735411	-5.950343E+9	-4.696674E-12	NaN
625	1.000000	0.372654	7.37117e+06	-45839.1	1005.82	-29771.1	0.000000	0.000000	6.372871	0.061139	NaN	0.000000	0.001532	0.001708	28.0835	0.038522	0.002098	18.3609	36.7339	12.2237	0.089168	0.371266	-0.724730	-0.726119	0.061139	18.3609	-0.727228	-4.602803E+9	-1.328301E-11	NaN
625	1.000000	0.382675	7.37117e+06	-45839.1	1005.82	-29771.1	0.000000	0.000000	6.382886	-0.061503	NaN	0.000000	0.001526	0.001749	28.0835	0.107130	0.002054	52.1552	157.301	-163.91	-0.027522	0.381331	-0.714710	-0.716053	-0.061503	52.1552	-0.713826	-3.021707E+9	2.035375E-11	NaN
625	1.000000	0.392704	7.37117e+06	-45839.1	1005.82	-29771.1	0.000000	0.000000	6.392921	0.062309	NaN	0.000000	0.001561	0.001724	28.0841	0.051401	0.002104	24.4293	-155.641	13.2891	0.049079	0.391280	-0.704681	-0.706105	0.062309	24.4293	-0.706594	-2.407461E+9	-2.588155E-11	NaN
625	1.000000	0.402706	7.37117e+06	-45839.1	1005.82	-29771.1	0.000000	0.000000	6.402919	-0.021193	NaN	0.000000	0.001577	0.001711	28.0847	0.035384	0.002034	17.3979	62.8872	-163.468	0.022190	0.401352	-0.694679	-0.696032	-0.021193	17.3979	-0.693766	-1.608322E+9	1.317728E-11	NaN
625	1.000000	0.412734	7.37117e+06	-45839.1	1005.82	-29771.1	0.000000	0.000000	6.412948	-0.016781	NaN	0.000000	0.001549	0.001707	28.0846	0.116597	0.002072	56.2641	128.903	14.4805	-0.006747	0.411288	-0.684650	-0.686097	-0.016781	56.2641	-0.684427	-1.198775E+9	1.399834E-11	NaN
625	1.000000	0.422679	7.37117e+06	-45839.1	1005.82	-29771.1	0.000000	0.000000	6.422896	0.069149	NaN	0.000000	0.001597	0.001687	28.0849	0.094412	0.001998	47.2609	-127.448	-163.025	0.040475	0.421424	-0.674706	-0.675961	0.069149	47.2609	-0.675803	-9.136952E+8	-7.568025E-11	NaN
625	1.000000	0.432700	7.37117e+06	-45839.1	1005.82	-29771.1	0.000000	0.000000	6.432915	0.000168	NaN	0.000000	0.001579	0.001699	28.0847	0.053997	0.002020	26.7312	-165.042	13.5733	-0.001182	0.431322	-0.664684	-0.666062	0.000168	26.7312	-0.664689	-6.437045E+8	-2.606997E-13	NaN
625	1.000000	0.442725	7.37117e+06	-45839.1	1005.82	-29771.1	0.000000	0.000000	6.442941	0.032327	NaN	0.000000	0.001617	0.001717	28.0846	0.052470	0.002093	25.0697	89.5525	-162.783	-0.005075	0.441404	-0.654659	-0.655980	0.032327	25.0697	-0.655626	-4.836717E+8	-6.683708E-11	NaN
625	1.000000	0.452682	7.37117e+06	-45839.1	1005.82	-29771.1	0.000000	0.000000	6.452894	-0.069106	NaN	0.000000	0.001578	0.001758	28.0847	0.112116	0.001904	58.8922	48.9085	15.0158	0.018159	0.451362	-0.644702	-0.646023	-0.069106	58.8922	-0.643822	-3.332156E+8	2.073915E-10	NaN
625	1.000000	0.462708	7.37117e+06	-45839.1	1005.82	-29771.1	0.000000	0.000000	6.462921	-0.028405	NaN	0.000000	0.001594	0.001748	28.0851	0.064732	0.001950	33.195	154.272	-163.121	-0.095407	0.461474	-0.634677	-0.635911	-0.028405	33.195	-0.634035	-2.445812E+8	1.161389E-10	NaN
625	1.000000	0.472696	7.37117e+06	-45839.1	1005.82	-29771.1	0.000000	0.000000	6.472909	-0.043190	NaN	0.000000	0.001543	0.001739	28.0845	0.081042	0.002051	39.5185	-59.6422	16.6454	-0.046590	0.471342	-0.624688	-0.626043	-0.043190	39.5185	-0.623869	-1.773372E+8	2.435501E-10	NaN
625	1.000000	0.482734	7.37117e+06	-45839.1	1005.82	-29771.1	0.000000	0.000000	6.482947	-0.018033	NaN	0.000000	0.001567	0.001720	28.0847	0.041483	0.001995	20.7892	-43.6506	-162.823	0.014666	0.481437	-0.614651	-0.615948	-0.018033	20.7892	-0.614001	-1.297615E+8	1.389667E-10	NaN
625	1.000000	0.492716	7.37117e+06	-45839.1	1005.82	-29771.1	0.000000	0.000000	6.492928	-0.053205	NaN	0.000000	0.001576	0.001703	28.0847	0.032095	0.002047	15.6821	-158.931	15.7692	-0.042116	0.491378	-0.604669	-0.606007	-0.053205	15.6821	-0.602124	-8.906562E+7	5.973649E-10	NaN
625	1.000000	0.502747	7.37117e+06	-45839.1	1005.82	-29771.1	0.000000	0.000000	6.502958	-0.090474	NaN	0.000000	0.001564	0.001682	28.0849	0.103150	0.002119	48.6808	176.334	-163.365	-0.023514	0.501381	-0.594638	-0.596004	-0.090474	48.6808	-0.593244	-6.720128E+7	1.346308E-9	NaN
625	1.000000	0.512719	7.37117e+06	-45839.1	1005.82	-29771.1	0.000000	0.000000	6.512932	-0.014280	NaN	0.000000	0.001571	0.001701	28.0847	0.157328	0.002106	74.71	42.776	15.1767	-0.001338	0.511365	-0.584666	-0.586020	-0.014280	74.71	-0.584523	-5.094870E+7	2.802778E-10	NaN
625	1.000000	0.522731	7.37117e+06	-45839.1	1005.82	-29771.1	0.000000	0.000000	6.522943	-0.051407	NaN	0.000000	0.001568	0.001750	28.0849	0.045944	0.001909	24.0715	-159.042	-165.416	-0.042124	0.521426	-0.574654	-0.575958	-0.051407	24.0715	-0.573052	-3.538355E+7	1.452862E-9	NaN
625	1.000000	0.532719	7.37117e+06	-45839.1	1005.82	-29771.1	0.000000	0.000000	6.532931	-0.054586	NaN	0.000000	0.001554	0.001768	28.0832	0.074588	0.001926	38.7244	103.506	17.0852	-0.030713	0.531432	-0.564666	-0.565953	-0.054586	38.7244	-0.563608	-2.619901E+7	2.083509E-9	NaN
625	1.000000	0.542755	7.37117e+06	-45839.1	1005.82	-29771.1	0.000000	0.000000	6.542968	-0.045096	NaN	0.000000	0.001597	0.001719	28.0835	0.056279	0.001971	28.5523	-61.6494	-168.802	0.040492	0.541441	-0.554630	-0.555944	-0.045096	28.5523	-0.553445	-1.895234E+7	2.379456E-9	NaN
625	1.000000	0.552771	7.37117e+06	-45839.1	1005.82	-29771.1	0.000000	0.000000	6.552985	-0.017962	NaN	0.000000	0.001609	0.001765	28.0831	0.084884	0.002061	41.181	169.073	14.0217	0.047316	0.551422	-0.544613	-0.545963	-0.017962	41.181	-0.544286	-1.415104E+7	1.269299E-9	NaN
625	1.000000	0.562770	7.37117e+06	-45839.1	1005.82	-29771.1	0.000000	0.000000	6.562985	0.015557	NaN	0.000000	0.001595	0.001701	28.0832	0.057866	0.001930	29.9812	-179.462	-164.228	-0.039067	0.561419	-0.534615	-0.535966	0.015557	29.9812	-0.535004	-1.052081E+7	-1.478642E-9	NaN
625	1.000000	0.572743	7.37117e+06	-45839.1	1005.82	-29771.1	0.000000	0.000000	6.572958	0.022860	NaN	0.000000	0.001617	0.001736	28.0833	0.086716	0.001909	45.4156	176.157	14.4905	0.043203	0.571373	-0.524642	-0.526012	0.022860	45.4156	-0.525019	-7.64504e+06	-2.990122E-9	NaN
625	1.000000	0.582756	7.37117e+06	-45839.1	1005.82	-29771.1	0.000000	0.000000	6.582968	-0.057464	NaN	0.000000	0.001614	0.001743	28.0835	0.020016	0.001987	10.075	61.7214	-167.305	0.041085	0.581450	-0.514628	-0.515935	-0.057464	10.075	-0.510351	-4.7786e+06	1.202522E-8	NaN
625	1.000000	0.592759	7.37117e+06	-45839.1	1005.82	-29771.1	0.000000	0.000000	6.592972	-0.029599	NaN	0.000000	0.001617	0.001699	28.0833	0.096156	0.001973	48.73	-54.3587	13.7576	-0.043727	0.591440	-0.504626	-0.505945	-0.029599	48.73	-0.504170	-3.91902e+06	7.552742E-9	NaN
625	1.000000	0.602761	7.37117e+06	-45839.1	1005.82	-29771.1	0.000000	0.000000	6.602976	0.012647	NaN	0.000000	0.001612	0.001712	28.0836	0.106645	0.002065	51.6342	-98.6895	-166.225	-0.006786	0.601476	-0.494624	-0.495909	0.012647	51.6342	-0.494807	-2.90098e+06	-4.359497E-9	NaN
625	1.000000	0.612766	7.37117e+06	-45839.1	1005.82	-29771.1	0.000000	0.000000	6.612978	-0.057786	NaN	0.000000	0.001657	0.001675	28.0834	0.118819	0.001908	62.2887	148.553	11.3388	-0.090333	0.611374	-0.484618	-0.486010	-0.057786	62.2887	-0.483923	-2.04372e+06	2.827515E-8	NaN
625	1.000000	0.622779	7.37117e+06	-45839.1	1005.82	-29771.1	0.000000	0.000000	6.622991	-0.058123	NaN	0.000000	0.001611	0.001707	28.0833	0.028034	0.001937	14.4715	122.482	-163.577	0.034991	0.621421	-0.474605	-0.475963	-0.058123	14.4715	-0.471593	-1.37324e+06	4.232531E-8	NaN
625	1.000000	0.632781	7.37117e+06	-45839.1	1005.82	-29771.1	0.000000	0.000000	6.632996	0.009621	NaN	0.000000	0.001578	0.001695	28.0831	0.043596	0.002088	20.8767	-141.106	15.1671	0.044997	0.631451	-0.464603	-0.465934	0.009621	20.8767	-0.464949	-1.10798e+06	-8.683485E-9	NaN
625	1.000000	0.642775	7.37117e+06	-45839.1	1005.82	-29771.1	0.000000	0.000000	6.642990	-0.004579	NaN	0.000000	0.001635	0.001703	28.0833	0.063014	0.001952	32.2796	-166.358	-164.599	0.063047	0.641474	-0.454609	-0.455910	-0.004579	32.2796	-0.454503	-790178	5.794730E-9	NaN
625	1.000000	0.652810	7.37117e+06	-45839.1	1005.82	-29771.1	0.000000	0.000000	6.653026	0.050420	NaN	0.000000	0.001607	0.001735	28.0832	0.025591	0.002018	12.6807	43.7549	17.7516	-0.009014	0.651490	-0.444575	-0.445895	0.050420	12.6807	-0.447557	-630863	-7.992214E-8	NaN
625	1.000000	0.662776	7.37117e+06	-45839.1	1005.82	-29771.1	0.000000	0.000000	6.662989	-0.028464	NaN	0.000000	0.001615	0.001710	28.0832	0.057057	0.001979	28.8244	35.704	-165.449	-0.076808	0.661550	-0.434608	-0.435834	-0.028464	28.8244	-0.433868	-404347	7.039408E-8	NaN
625	1.000000	0.672787	7.37117e+06	-45839.1	1005.82	-29771.1	0.000000	0.000000	6.673001	-0.002892	NaN	0.000000	0.001568	0.001678	28.0842	0.087119	0.002139	40.7379	-137.275	17.4128	-0.013258	0.671481	-0.424598	-0.425903	-0.002892	40.7379	-0.424544	-298420	9.692252E-9	NaN
625	1.000000	0.682816	7.37117e+06	-45839.1	1005.82	-29771.1	0.000000	0.000000	6.683030	-0.003077	NaN	0.000000	0.001583	0.001745	28.0844	0.115236	0.002106	54.7061	44.4618	-164.679	0.002690	0.681480	-0.414569	-0.415904	-0.003077	54.7061	-0.414526	-215144	1.430105E-8	NaN
625	1.000000	0.692813	7.37117e+06	-45839.1	1005.82	-29771.1	0.000000	0.000000	6.693029	0.030420	NaN	0.000000	0.001581	0.001697	28.0841	0.106102	0.001935	54.8345	-42.7307	19.2218	0.008138	0.691466	-0.404572	-0.405919	0.030420	54.8345	-0.404988	-157426	-1.932332E-7	NaN
625	1.000000	0.702801	7.37117e+06	-45839.1	1005.82	-29771.1	0.000000	0.000000	6.703017	0.042548	NaN	0.000000	0.001598	0.001751	28.0841	0.067446	0.002024	33.3175	123.102	-167.011	0.049467	0.701530	-0.394583	-0.395855	0.042548	33.3175	-0.395541	-115442	-3.685691E-7	NaN
625	1.000000	0.712823	7.37117e+06	-45839.1	1005.82	-29771.1	0.000000	0.000000	6.713037	-0.011447	NaN	0.000000	0.001669	0.001749	28.0841	0.080619	0.001910	42.2066	122.891	10.0539	0.025867	0.711435	-0.384562	-0.385950	-0.011447	42.2066	-0.384358	-79871.6	1.433159E-7	NaN
625	1.000000	0.722822	7.37117e+06	-45839.1	1005.82	-29771.1	0.000000	0.000000	6.723037	0.015034	NaN	0.000000	0.001681	0.001693	28.0841	0.087328	0.001991	43.8718	-164.161	-164.247	0.004045	0.721519	-0.374562	-0.375866	0.015034	43.8718	-0.374819	-58274.1	-2.579840E-7	NaN
625	1.000000	0.732825	7.37117e+06	-45839.1	1005.82	-29771.1	0.000000	0.000000	6.733035	-0.109889	NaN	0.000000	0.001649	0.001658	28.084	0.080731	0.001998	40.398	60.2279	10.9286	-0.099497	0.731463	-0.364560	-0.365922	-0.109889	40.398	-0.362520	-38748.1	2.835978E-6	NaN
625	1.000000	0.742850	7.37117e+06	-45839.1	1005.82	-29771.1	0.000000	0.000000	6.743064	0.007716	NaN	0.000000	0.001669	0.001713	28.0839	0.049113	0.002047	23.994	111.654	-163.752	0.002588	0.741495	-0.354535	-0.355890	0.007716	23.994	-0.354776	-29940.4	-2.577131E-7	NaN
625	1.000000	0.752834	7.37117e+06	-45839.1	1005.82	-29771.1	0.000000	0.000000	6.753048	-0.010279	NaN	0.000000	0.001568	0.001723	28.0841	0.074722	0.001904	39.2396	-118.685	14.4067	0.007463	0.751469	-0.344551	-0.345916	-0.010279	39.2396	-0.344354	-21133.1	4.863855E-7	NaN
625	1.000000	0.762844	7.37117e+06	-45839.1	1005.82	-29771.1	0.000000	0.000000	6.763059	0.020031	NaN	0.000000	0.001576	0.001720	28.0842	0.049716	0.001914	25.975	-4.158350	-166.633	-0.011742	0.761606	-0.334541	-0.335779	0.020031	25.975	-0.335119	-15499.8	-1.292334E-6	NaN
625	1.000000	0.772848	7.37117e+06	-45839.1	1005.82	-29771.1	0.000000	0.000000	6.773062	-0.010106	NaN	0.000000	0.001585	0.001711	28.0842	0.055659	0.001894	29.3899	-115.051	17.1471	0.028691	0.771442	-0.324536	-0.325943	-0.010106	29.3899	-0.324279	-10753.3	9.398130E-7	NaN
625	1.000000	0.782854	7.37117e+06	-45839.1	1005.82	-29771.1	0.000000	0.000000	6.783069	0.009146	NaN	0.000000	0.001534	0.001723	28.084	0.071960	0.002048	35.1371	131.704	-163.395	0.048955	0.781531	-0.314531	-0.315854	0.009146	35.1371	-0.314726	-7778.65	-1.175812E-6	NaN
625	1.000000	0.792841	7.37117e+06	-45839.1	1005.82	-29771.1	0.000000	0.000000	6.793056	0.001049	NaN	0.000000	0.001536	0.001677	28.0842	0.148058	0.002008	73.749	139.122	11.6698	-0.021295	0.791494	-0.304544	-0.305891	0.001049	73.749	-0.304554	-5499.68	-1.907958E-7	NaN
625	1.000000	0.802857	7.37117e+06	-45839.1	1005.82	-29771.1	0.000000	0.000000	6.803073	0.045819	NaN	0.000000	0.001536	0.001709	28.0832	0.052624	0.001930	27.2675	140.175	-165.721	0.054325	0.801583	-0.294528	-0.295802	0.045819	27.2675	-0.295788	-4072.46	-1.125095E-5	NaN
625	1.000000	0.812838	7.37117e+06	-45839.1	1005.82	-29771.1	0.000000	0.000000	6.813051	-0.023368	NaN	0.000000	0.001601	0.001702	28.0829	0.094299	0.001968	47.921	-122.878	11.5135	-0.062753	0.811482	-0.284547	-0.285902	-0.023368	47.921	-0.284181	-2728.7	8.563673E-6	NaN
625	1.000000	0.822846	7.37117e+06	-45839.1	1005.82	-29771.1	0.000000	0.000000	6.823058	-0.053672	NaN	0.000000	0.001569	0.001689	28.0827	0.032173	0.002042	15.7555	-73.0033	-165.601	-0.067489	0.821501	-0.274539	-0.275884	-0.053672	15.7555	-0.271984	-1785.18	3.006547E-5	NaN
625	1.000000	0.832842	7.37117e+06	-45839.1	1005.82	-29771.1	0.000000	0.000000	6.833056	-0.021045	NaN	0.000000	0.001616	0.001713	28.0831	0.063526	0.002096	30.3092	76.2572	16.6209	-0.066351	0.831514	-0.264542	-0.265871	-0.021045	30.3092	-0.264022	-1350.36	1.558502E-5	NaN
625	1.000000	0.842866	7.37117e+06	-45839.1	1005.82	-29771.1	0.000000	0.000000	6.843079	-0.023556	NaN	0.000000	0.001633	0.001725	28.0829	0.048457	0.002030	23.8695	105.318	-165.313	-0.050686	0.841557	-0.254519	-0.255828	-0.023556	23.8695	-0.253779	-940.383	2.504892E-5	NaN
625	1.000000	0.852872	7.37117e+06	-45839.1	1005.82	-29771.1	0.000000	0.000000	6.853086	-0.000349	NaN	0.000000	0.001630	0.001711	28.083	0.049489	0.001960	25.2494	126.222	14.7411	-0.028945	0.851541	-0.244513	-0.245843	-0.000349	25.2494	-0.244502	-675.642	5.160404E-7	NaN
625	1.000000	0.862852	7.37117e+06	-45839.1	1005.82	-29771.1	0.000000	0.000000	6.863066	0.003145	NaN	0.000000	0.001605	0.001704	28.0828	0.028440	0.001983	14.3431	112.661	-163.495	-0.079890	0.861563	-0.234533	-0.235822	0.003145	14.3431	-0.234698	-474.788	-6.624392E-6	NaN
625	1.000000	0.872880	7.37117e+06	-45839.1	1005.82	-29771.1	0.000000	0.000000	6.873094	0.016011	NaN	0.000000	0.001606	0.001720	28.0833	0.123818	0.001802	68.7166	-59.4277	13.8608	-0.064817	0.871493	-0.224505	-0.225891	0.016011	68.7166	-0.224680	-329.8	-4.854609E-5	NaN
625	1.000000	0.882875	7.37117e+06	-45839.1	1005.82	-29771.1	0.000000	0.000000	6.883087	-0.047494	NaN	0.000000	0.001601	0.001728	28.0829	0.079945	0.002135	37.4447	61.5492	-165.584	-0.053970	0.881552	-0.214510	-0.215832	-0.047494	37.4447	-0.213559	-218.931	0.000217	NaN
625	1.000000	0.892862	7.37117e+06	-45839.1	1005.82	-29771.1	0.000000	0.000000	6.893074	-0.063083	NaN	0.000000	0.001632	0.001706	28.0831	0.149545	0.001968	75.9781	74.8156	14.7662	-0.066353	0.891528	-0.204523	-0.205857	-0.063083	75.9781	-0.203900	-152.618	0.000413	NaN
625	1.000000	0.902856	7.37117e+06	-45839.1	1005.82	-29771.1	0.000000	0.000000	6.903071	0.032545	NaN	0.000000	0.001605	0.001726	28.0827	0.096424	0.001902	50.6986	68.5118	-158.733	0.096508	0.901578	-0.194529	-0.195806	0.032545	50.6986	-0.195010	-108.987	-0.000299	NaN
625	1.000000	0.912909	7.37117e+06	-45839.1	1005.82	-29771.1	0.000000	0.000000	6.913121	-0.051904	NaN	0.000000	0.001630	0.001701	28.0833	0.134009	0.001999	67.0297	-52.3731	11.8091	-0.005601	0.911567	-0.184476	-0.185818	-0.051904	67.0297	-0.183895	-71.0377	0.000731	NaN
625	1.000000	0.922903	7.37117e+06	-45839.1	1005.82	-29771.1	0.000000	0.000000	6.923118	0.029398	NaN	0.000000	0.001588	0.001693	28.083	0.111695	0.001787	62.5166	-100.321	-166.075	0.076054	0.921560	-0.174482	-0.175825	0.029398	62.5166	-0.174835	-49.7898	-0.000590	NaN
625	1.000000	0.932932	7.37117e+06	-45839.1	1005.82	-29771.1	0.000000	0.000000	6.933145	-0.049382	NaN	0.000000	0.001611	0.001665	28.0831	0.045248	0.002120	21.3466	143.673	18.0897	-0.052342	0.931565	-0.164452	-0.165820	-0.049382	21.3466	-0.162717	-30.6278	0.001612	NaN
625	1.000000	0.942906	7.37117e+06	-45839.1	1005.82	-29771.1	0.000000	0.000000	6.943118	-0.042683	NaN	0.000000	0.001596	0.001696	28.0843	0.032385	0.001961	16.516	-54.9655	-163.019	-0.055746	0.941681	-0.154479	-0.155704	-0.042683	16.516	-0.152541	-20.1458	0.002119	NaN
625	1.000000	0.952919	7.37117e+06	-45839.1	1005.82	-29771.1	0.000000	0.000000	6.953131	-0.048559	NaN	0.000000	0.001593	0.001732	28.0844	0.049036	0.002117	23.1631	-39.5805	15.3534	0.012331	0.951597	-0.144466	-0.145787	-0.048559	23.1631	-0.142893	-13.399	0.003624	NaN
625	1.000000	0.962912	7.37117e+06	-45839.1	1005.82	-29771.1	0.000000	0.000000	6.963122	-0.102895	NaN	0.000000	0.001644	0.001705	28.0841	0.016708	0.001943	8.599284	-70.1515	-163.935	-0.101989	0.961585	-0.134473	-0.135800	-0.102895	8.599284	-0.125499	-6.220977	0.016540	NaN
625	1.000000	0.972943	7.37117e+06	-45839.1	1005.82	-29771.1	0.000000	0.000000	6.973158	0.004266	NaN	0.000000	0.001620	0.001740	28.0842	0.024179	0.001863	12.9787	7.845746	12.1273	-0.045923	0.971565	-0.124441	-0.125820	0.004266	12.9787	-0.124688	-5.995373	-0.000712	NaN
625	1.000000	0.982915	7.37117e+06	-45839.1	1005.82	-29771.1	0.000000	0.000000	6.983128	-0.021243	NaN	0.000000	0.001596	0.001769	28.0844	0.071088	0.001959	36.2825	-171.559	-167.8	-0.059492	0.981564	-0.114470	-0.115821	-0.021243	36.2825	-0.114031	-3.648250	0.005823	NaN
625	1.000000	0.992903	7.37117e+06	-45839.1	1005.82	-29771.1	0.000000	0.000000	6.993113	-0.108877	NaN	0.000000	0.001567	0.001711	28.0842	0.108753	0.001904	57.1228	-18.5653	12.6294	-0.130633	0.991542	-0.104482	-0.105843	-0.108877	57.1228	-0.103052	-2.132534	0.051055	NaN
625	1.000000	1.002923	7.37117e+06	-45839.1	1005.82	-29771.1	0.000000	0.000000	7.003136	-0.022751	NaN	0.000000	0.001581	0.001724	28.0843	0.114100	0.002160	52.8331	72.4608	-163.677	0.099824	1.001596	-0.094462	-0.095788	-0.022751	52.8331	-0.094139	-1.348161	0.016875	NaN
625	1.000000	1.012951	7.37117e+06	-45839.1	1005.82	-29771.1	0.000000	0.000000	7.013163	-0.058840	NaN	0.000000	0.001583	0.001730	28.0844	0.098385	0.001945	50.5922	-170.798	12.5018	-0.065073	1.011640	-0.084434	-0.085744	-0.058840	50.5922	-0.083562	-0.758064	0.077619	NaN
625	1.000000	1.022927	7.37117e+06	-45839.1	1005.82	-29771.1	0.000000	0.000000	7.023139	-0.061041	NaN	0.000000	0.001582	0.001727	28.0845	0.096837	0.002057	47.0867	140.058	-164.065	-0.114901	1.021654	-0.074458	-0.075731	-0.061041	47.0867	-0.073485	-0.421825	0.144707	NaN
625	1.000000	1.032924	7.37117e+06	-45839.1	1005.82	-29771.1	0.000000	0.000000	7.033139	0.025626	NaN	0.000000	0.001571	0.001752	28.0841	0.062323	0.002032	30.6745	-131.949	15.7223	0.042207	1.031584	-0.064461	-0.065800	0.025626	30.6745	-0.065088	-0.250613	-0.102254	NaN
625	1.000000	1.042973	7.37117e+06	-45839.1	1005.82	-29771.1	0.000000	0.000000	7.043189	0.048520	NaN	0.000000	0.001584	0.001695	28.0842	0.075009	0.002070	36.2379	-137.965	-162.892	-0.016901	1.041610	-0.054412	-0.055774	0.048520	36.2379	-0.055416	-0.132472	-0.366264	NaN
625	1.000000	1.052955	7.37117e+06	-45839.1	1005.82	-29771.1	0.000000	0.000000	7.053169	-0.017921	NaN	0.000000	0.001634	0.001751	28.0842	0.040782	0.002014	20.2455	-46.6044	13.5772	-0.010027	1.051602	-0.044430	-0.045783	-0.017921	20.2455	-0.043766	-0.058918	0.304171	NaN
625	1.000000	1.062960	7.37117e+06	-45839.1	1005.82	-29771.1	0.000000	0.000000	7.063176	0.040554	NaN	0.000000	0.001613	0.001697	28.0844	0.065720	0.002023	32.4938	23.7157	-165.435	0.014578	1.061689	-0.034424	-0.035695	0.040554	32.4938	-0.035361	-0.032818	-1.235716	NaN
625	1.000000	1.072927	7.37117e+06	-45839.1	1005.82	-29771.1	0.000000	0.000000	7.073140	-0.017714	NaN	0.000000	0.001632	0.001732	28.0842	0.014530	0.001973	7.362934	96.2265	14.8233	0.001103	1.071542	-0.024458	-0.025843	-0.017714	7.362934	-0.022654	-0.014674	1.207184	NaN
625	1.000000	1.082954	7.37117e+06	-45839.1	1005.82	-29771.1	0.000000	0.000000	7.083170	0.028159	NaN	0.000000	0.001616	0.001712	28.0832	0.041921	0.001990	21.0603	-73.7227	-167.215	-0.003647	1.081656	-0.014431	-0.015729	0.028159	21.0603	-0.015433	-0.009537	-2.952748	NaN
625	1.000000	1.092948	7.37117e+06	-45839.1	1005.82	-29771.1	0.000000	0.000000	7.093187	0.599466	NaN	0.000000	0.001588	0.001731	28.083	1.001435	0.002082	481.106	10.5321	13.8965	0.136913	1.091583	-0.004437	-0.005802	0.599466	481.106	-0.005371	-0.003649	-164.291	NaN
625	2.000000	1.101545	7.37117e+06	-45839.1	1005.82	-29771.1	0.000000	0.000000	7.102143	9.338751	NaN	0.000000	0.001559	0.001695	28.0833	9.185233	0.001725	5325.58	4.653285	-169.183	8.634817	1.101152	0.004160	0.003768	9.338751	5325.58	0.002845	0.002250	4151.12	102584
625	2.000000	1.104058	7.37117e+06	-45839.1	1005.82	-29771.1	0.000000	0.000000	7.104768	12.0686	NaN	0.000000	0.001560	0.001742	28.0829	12.0251	0.001719	6994.15	3.310686	9.082464	11.4703	1.103640	0.006673	0.006256	12.0686	6994.15	0.005379	0.004482	2692.82	95451.6
625	2.000000	1.106525	7.37117e+06	-45839.1	1005.82	-29771.1	0.000000	0.000000	7.107502	18.5651	NaN	0.000000	0.001548	0.001717	28.0833	15.8536	0.001690	9383.48	7.944840	-177.167	18.4908	1.106209	0.009140	0.008824	18.5651	9383.48	0.007656	0.006691	2774.68	104808
625	2.000000	1.109046	7.37117e+06	-45839.1	1005.82	-29771.1	0.000000	0.000000	7.110234	23.6776	NaN	0.000000	0.001613	0.001731	28.0831	18.2303	0.001841	9904.88	6.774413	2.837739	22.4561	1.108609	0.011661	0.011224	23.6776	9904.88	0.009868	0.009036	2620.47	95201.4
625	2.000000	1.111489	7.37117e+06	-45839.1	1005.82	-29771.1	0.000000	0.000000	7.112720	24.7161	NaN	0.000000	0.001635	0.001700	28.0835	21.0026	0.001886	11137.3	8.624949	179.777	23.8051	1.111212	0.014104	0.013828	24.7161	11137.3	0.012440	0.012021	2056.02	92806.1
625	2.000000	1.113953	7.37117e+06	-45839.1	1005.82	-29771.1	0.000000	0.000000	7.115518	32.8644	NaN	0.000000	0.001618	0.001739	28.0829	22.4683	0.001728	13000.8	-3.500824	10.8317	30.505	1.113579	0.016568	0.016194	32.8644	13000.8	0.014672	0.014851	2212.95	97469.1
625	2.000000	1.116457	7.37117e+06	-45839.1	1005.82	-29771.1	0.000000	0.000000	7.118390	41.8185	NaN	0.000000	0.001587	0.001739	28.0835	26.3973	0.001759	15008.9	5.077317	-178.755	40.1095	1.116108	0.019072	0.018723	41.8185	15008.9	0.016982	0.018021	2320.6	102150
625	2.000000	1.118944	7.37117e+06	-45839.1	1005.82	-29771.1	0.000000	0.000000	7.121137	48.1256	NaN	0.000000	0.001628	0.001742	28.0829	28.5622	0.001812	15758.9	5.113904	0.265960	45.1001	1.118634	0.021560	0.021249	48.1256	15758.9	0.019269	0.021407	2248.14	98406.3
625	2.000000	1.121421	7.37117e+06	-45839.1	1005.82	-29771.1	0.000000	0.000000	7.123882	54.6647	NaN	0.000000	0.001609	0.001727	28.0832	30.3526	0.001802	16848.1	4.202862	-179.599	51.9393	1.121093	0.024036	0.023708	54.6647	16848.1	0.021603	0.025124	2175.84	97114.7
625	2.000000	1.123938	7.37117e+06	-45839.1	1005.82	-29771.1	0.000000	0.000000	7.126576	58.9556	NaN	0.000000	0.001590	0.001733	28.0828	33.393	0.001770	18863	3.875504	-1.143221	57.4471	1.123696	0.026553	0.026312	58.9556	18863	0.024209	0.029592	1992.25	100183
625	2.000000	1.126476	7.37117e+06	-45839.1	1005.82	-29771.1	0.000000	0.000000	7.129558	69.754	NaN	0.000000	0.001598	0.001730	28.0831	36.4266	0.001817	20045.4	5.905119	177.952	71.2074	1.126104	0.029091	0.028719	69.754	20045.4	0.026481	0.033766	2065.82	99666.4
625	2.000000	1.128992	7.37117e+06	-45839.1	1005.82	-29771.1	0.000000	0.000000	7.132501	80.1413	NaN	0.000000	0.001624	0.001680	28.0838	38.3141	0.001826	20982.3	8.827218	-4.910988	78.2215	1.128523	0.031608	0.031138	80.1413	20982.3	0.028743	0.038179	2099.1	98110.4
625	2.000000	1.131421	7.37117e+06	-45839.1	1005.82	-29771.1	0.000000	0.000000	7.135406	91.7259	NaN	0.000000	0.001594	0.001720	28.0842	40.7937	0.001757	23221.1	9.808392	172.756	91.0052	1.131060	0.034036	0.033676	91.7259	23221.1	0.031074	0.042999	2133.23	102312
625	2.000000	1.133927	7.37117e+06	-45839.1	1005.82	-29771.1	0.000000	0.000000	7.138289	100.892	NaN	0.000000	0.001589	0.001728	28.0837	43.3594	0.001895	22879.4	4.773172	-1.371864	100.861	1.133563	0.036542	0.036178	100.892	22879.4	0.033235	0.047716	2114.4	95693.9
625	2.000000	1.136398	7.37117e+06	-45839.1	1005.82	-29771.1	0.000000	0.000000	7.141138	110.111	NaN	0.000000	0.001595	0.001700	28.0843	46.3839	0.001786	25968.5	4.914445	175.493	108.049	1.136078	0.039013	0.038693	110.111	25968.5	0.035833	0.053703	2050.37	102382
625	2.000000	1.138915	7.37117e+06	-45839.1	1005.82	-29771.1	0.000000	0.000000	7.144165	122.492	NaN	0.000000	0.001576	0.001695	28.0841	47.8664	0.001795	26669.8	6.729373	-5.918990	119.913	1.138518	0.041531	0.041133	122.492	26669.8	0.038086	0.059175	2069.99	100167
625	2.000000	1.141366	7.37117e+06	-45839.1	1005.82	-29771.1	0.000000	0.000000	7.146983	131.421	NaN	0.000000	0.001598	0.001702	28.0842	49.2886	0.001804	27323.8	5.185594	176.178	128.431	1.141065	0.043981	0.043680	131.421	27323.8	0.040374	0.064998	2021.9	97918
625	2.000000	1.143933	7.37117e+06	-45839.1	1005.82	-29771.1	0.000000	0.000000	7.150018	142.823	NaN	0.000000	0.001633	0.001742	28.0839	51.2594	0.001652	31027.5	3.164226	-3.814408	141.063	1.143564	0.046548	0.046179	142.823	31027.5	0.043096	0.072273	1976.16	105446
625	2.000000	1.146331	7.37117e+06	-45839.1	1005.82	-29771.1	0.000000	0.000000	7.152922	155.122	NaN	0.000000	0.001584	0.001699	28.0841	55.0998	0.001743	31605.7	4.139951	174.472	149.749	1.146049	0.048946	0.048664	155.122	31605.7	0.045265	0.078342	1980.06	103167
625	2.000000	1.148908	7.37117e+06	-45839.1	1005.82	-29771.1	0.000000	0.000000	7.156077	169.161	NaN	0.000000	0.001588	0.001740	28.0841	56.3323	0.001756	32086	6.253309	-6.538530	165.354	1.148573	0.051524	0.051188	169.161	32086	0.047570	0.085049	1988.98	100520
625	2.000000	1.151398	7.37117e+06	-45839.1	1005.82	-29771.1	0.000000	0.000000	7.159124	182.729	NaN	0.000000	0.001589	0.001699	28.084	58.634	0.001717	34145.7	7.190223	172.079	180.771	1.150956	0.054014	0.053571	182.729	34145.7	0.050000	0.092413	1977.3	102623
625	2.000000	1.153941	7.37117e+06	-45839.1	1005.82	-29771.1	0.000000	0.000000	7.161933	189.181	NaN	0.000000	0.001599	0.001714	28.0841	61.7981	0.001834	33686.6	1.921060	-2.973256	187.907	1.153592	0.056557	0.056207	189.181	33686.6	0.052345	0.099798	1895.64	97424.7
625	2.000000	1.156367	7.37117e+06	-45839.1	1005.82	-29771.1	0.000000	0.000000	7.165056	206.14	NaN	0.000000	0.001654	0.001753	28.0843	65.491	0.001760	37209.9	7.037999	171.136	204.015	1.156049	0.058983	0.058664	206.14	37209.9	0.054828	0.107917	1910.16	103487
625	2.000000	1.158940	7.37117e+06	-45839.1	1005.82	-29771.1	0.000000	0.000000	7.168105	217.735	NaN	0.000000	0.001672	0.001746	28.084	67.1287	0.001882	35660	3.235994	-4.401247	216.054	1.158573	0.061555	0.061188	217.735	35660	0.056976	0.115188	1890.27	95995.8
625	2.000000	1.161421	7.37117e+06	-45839.1	1005.82	-29771.1	0.000000	0.000000	7.171319	235.558	NaN	0.000000	0.001667	0.001719	28.084	68.9514	0.001787	38575.9	3.500316	174.304	236.653	1.161085	0.064037	0.063700	235.558	38575.9	0.059457	0.123868	1901.69	100140
625	2.000000	1.163905	7.37117e+06	-45839.1	1005.82	-29771.1	0.000000	0.000000	7.174180	244.736	NaN	0.000000	0.001627	0.001724	28.0829	71.4672	0.001872	38168.4	5.598526	-7.441786	242.877	1.163511	0.066521	0.066126	244.736	38168.4	0.061712	0.132018	1853.81	95975.5
625	2.000000	1.166338	7.37117e+06	-45839.1	1005.82	-29771.1	0.000000	0.000000	7.177163	258.123	NaN	0.000000	0.001640	0.001739	28.0832	72.8241	0.001848	39399.6	1.722850	175.959	253.129	1.166088	0.068953	0.068704	258.123	39399.6	0.064039	0.140690	1834.7	95969.6
625	2.000000	1.168935	7.37117e+06	-45839.1	1005.82	-29771.1	0.000000	0.000000	7.180359	272.69	NaN	0.000000	0.001630	0.001758	28.0829	75.3362	0.001778	42359.5	4.428378	-7.222705	273.084	1.168734	0.071550	0.071349	272.69	42359.5	0.066722	0.151010	1805.77	99591.2
625	2.000000	1.171286	7.37117e+06	-45839.1	1005.82	-29771.1	0.000000	0.000000	7.183736	297.659	NaN	0.000000	0.001647	0.001707	28.0829	77.0279	0.001733	44459.5	5.720976	171.746	291.483	1.171011	0.073901	0.073626	297.659	44459.5	0.068880	0.159560	1865.5	101689
625	2.000000	1.173786	7.37117e+06	-45839.1	1005.82	-29771.1	0.000000	0.000000	7.186844	312.423	NaN	0.000000	0.001559	0.001713	28.083	79.8551	0.001695	47109	1.840272	-5.655499	304.209	1.173501	0.076402	0.076117	312.423	47109	0.071428	0.169944	1838.39	104406
625	2.000000	1.176369	7.37117e+06	-45839.1	1005.82	-29771.1	0.000000	0.000000	7.190029	327.101	NaN	0.000000	0.001615	0.001712	28.0831	83.8457	0.001868	44894.3	3.453001	173.169	324.581	1.176141	0.078984	0.078757	327.101	44894.3	0.073519	0.178698	1830.47	97029.6
625	2.000000	1.178809	7.37117e+06	-45839.1	1005.82	-29771.1	0.000000	0.000000	7.193339	348.256	NaN	0.000000	0.001600	0.001694	28.0829	85.2852	0.001775	48054.3	4.471156	-8.715407	341.211	1.178601	0.081424	0.081217	348.256	48054.3	0.075988	0.189298	1839.73	100910
625	2.000000	1.181370	7.37117e+06	-45839.1	1005.82	-29771.1	0.000000	0.000000	7.196841	371.121	NaN	0.000000	0.001599	0.001736	28.0827	85.9505	0.001717	50067.9	2.350601	174.048	369.845	1.181067	0.083985	0.083682	371.121	50067.9	0.078426	0.200044	1855.2	102275
625	2.000000	1.183843	7.37117e+06	-45839.1	1005.82	-29771.1	0.000000	0.000000	7.199808	383.16	NaN	0.000000	0.001610	0.001742	28.0828	90.2974	0.001788	50493.8	5.171899	-9.499606	379.935	1.183548	0.086458	0.086164	383.16	50493.8	0.080767	0.210624	1819.16	100521
625	2.000000	1.186340	7.37117e+06	-45839.1	1005.82	-29771.1	0.000000	0.000000	7.203367	408.989	NaN	0.000000	0.001567	0.001680	28.0827	93.7301	0.001792	52294	6.742961	169.365	406.216	1.185898	0.088955	0.088513	408.989	52294	0.083090	0.221372	1847.52	101546
625	2.000000	1.188821	7.37117e+06	-45839.1	1005.82	-29771.1	0.000000	0.000000	7.206652	428.56	NaN	0.000000	0.001585	0.001683	28.0827	96.2441	0.001791	53749.5	9.205556	-13.6813	423.35	1.188427	0.091436	0.091042	428.56	53749.5	0.085456	0.232582	1842.62	101826
625	2.000000	1.191251	7.37117e+06	-45839.1	1005.82	-29771.1	0.000000	0.000000	7.209932	449.236	NaN	0.000000	0.001613	0.001650	28.0827	96.7558	0.001764	54847.4	6.213180	169.495	442.679	1.191000	0.093866	0.093616	449.236	54847.4	0.087723	0.243561	1844.45	101537
625	2.000000	1.193814	7.37117e+06	-45839.1	1005.82	-29771.1	0.000000	0.000000	7.213417	471.656	NaN	0.000000	0.001633	0.001699	28.0831	100.436	0.001735	57891.6	5.939864	-10.7397	465.612	1.193459	0.096429	0.096075	471.656	57891.6	0.090319	0.256427	1839.34	104450
625	2.000000	1.196363	7.37117e+06	-45839.1	1005.82	-29771.1	0.000000	0.000000	7.216372	481.533	NaN	0.000000	0.001615	0.001664	28.0827	103.264	0.001713	60274	2.258076	172.082	479.732	1.196210	0.098978	0.098826	481.533	60274	0.092986	0.269967	1783.67	105986
625	2.000000	1.198888	7.37117e+06	-45839.1	1005.82	-29771.1	0.000000	0.000000	7.220342	516.674	NaN	0.000000	0.001630	0.001706	28.0842	105.798	0.001844	57359.1	6.005491	-10.9075	513.416	1.198446	0.101503	0.101061	516.674	57359.1	0.094748	0.279086	1851.31	99198.9
625	2.000000	1.199351	7.37117e+06	-45839.1	1005.82	-29771.1	0.000000	0.000000	7.220888	518.704	NaN	0.000000	0.001620	0.001700	28.0844	106.871	0.001837	58182.8	4.235085	170.969	518.09	1.199108	0.101966	0.101723	518.704	58182.8	0.095280	0.281870	1840.23	100125