File: remote_trans/data/nanoindenter/0828-1/data/Data_2025-08-06,11h17m57s/2025-07-22_16-23-58_1_1189.txt
2025-07-22, 16:23:58, 1
Index	Phase	Displacement	Time	Pos X	Pos Y	Pos Z	Rot A	Rot B	Piezo Z	Force A	Force B	Gripper	Voltage A	Voltage B	Temperature	Amplitude force	Amplitude pos	Stiffness	Phase shift	Phase excitation	Force A raw	Displacement raw	HMax	HMax raw	Real Force	Real Stiffness	Contact Depth	Area	Hardness	Reduced Mod.
[#]	[#]	[um]	[s]	[um]	[um]	[um]	[m°]	[m°]	[um]	[uN]	[uN]	[V]	[V]	[V]	[°C]	[uN]	[um]	[N/m]	[°]	[°]	[uN]	[um]	[um]	[um]	[uN]	[N/m]	[um]	[um^2]	[MPa]	[MPa]
1189	1.000000	0.002162	7.37667e+06	-56139.1	1105.82	-29739.6	0.000000	0.000000	6.002791	0.041012	NaN	0.000000	0.001528	0.001744	28.0804	0.085720	0.001034	82.8954	59.7155	-169.29	-0.019538	0.000891	-1.079306	-1.080578	0.041012	82.8954	-1.079677	-2.674161E+14	-1.533640E-16	NaN
1189	1.000000	0.010109	7.37667e+06	-56139.1	1105.82	-29739.6	0.000000	0.000000	6.010738	0.047171	NaN	0.000000	0.001548	0.001740	28.0804	0.039197	0.000945	41.4819	-14.1658	-172.226	0.060291	0.008858	-1.071359	-1.072610	0.047171	41.4819	-1.072212	-2.122807E+14	-2.222092E-16	NaN
1189	1.000000	0.018108	7.37667e+06	-56139.1	1105.82	-29739.6	0.000000	0.000000	6.018733	-0.057844	NaN	0.000000	0.001562	0.001754	28.08	0.058981	0.001691	34.8733	171.353	-164.533	-0.017103	0.016799	-1.063360	-1.064670	-0.057844	34.8733	-1.062116	-1.553304E+14	3.723959E-16	NaN
1189	1.000000	0.026171	7.37667e+06	-56139.1	1105.82	-29739.6	0.000000	0.000000	6.026796	-0.041925	NaN	0.000000	0.001577	0.001792	28.0803	0.036647	0.001997	18.3486	152.428	-167.267	-0.035172	0.024812	-1.055298	-1.056657	-0.041925	18.3486	-1.053584	-1.192867E+14	3.514652E-16	NaN
1189	1.000000	0.034147	7.37667e+06	-56139.1	1105.82	-29739.6	0.000000	0.000000	6.034775	0.022761	NaN	0.000000	0.001576	0.001754	28.0801	0.084154	0.001845	45.6043	132.846	-166.062	0.090416	0.032819	-1.047322	-1.048650	0.022761	45.6043	-1.047696	-9.941237E+13	-2.289557E-16	NaN
1189	1.000000	0.042105	7.37667e+06	-56139.1	1105.82	-29739.6	0.000000	0.000000	6.042732	0.017704	NaN	0.000000	0.001591	0.001760	28.0803	0.033255	0.001931	17.2217	-172.313	-168.021	0.002663	0.040819	-1.039364	-1.040649	0.017704	17.2217	-1.040135	-7.866481E+13	-2.250595E-16	NaN
1189	1.000000	0.050136	7.37667e+06	-56139.1	1105.82	-29739.6	0.000000	0.000000	6.050760	-0.065835	NaN	0.000000	0.001560	0.001763	28.0805	0.155104	0.001944	79.7754	117.394	-165.032	-0.025577	0.048753	-1.031333	-1.032716	-0.065835	79.7754	-1.030714	-5.875968E+13	1.120405E-15	NaN
1189	1.000000	0.058115	7.37667e+06	-56139.1	1105.82	-29739.6	0.000000	0.000000	6.058741	-0.003754	NaN	0.000000	0.001539	0.001749	28.0802	0.041188	0.001973	20.8758	-7.576427	-162.742	0.002767	0.056809	-1.023354	-1.024659	-0.003754	20.8758	-1.023219	-4.658654E+13	8.057901E-17	NaN
1189	1.000000	0.066148	7.37667e+06	-56139.1	1105.82	-29739.6	0.000000	0.000000	6.066774	-0.006547	NaN	0.000000	0.001563	0.001766	28.0803	0.060094	0.002131	28.1996	80.9458	-166.229	-0.070380	0.064790	-1.015321	-1.016679	-0.006547	28.1996	-1.015146	-3.627800E+13	1.804740E-16	NaN
1189	1.000000	0.074114	7.37667e+06	-56139.1	1105.82	-29739.6	0.000000	0.000000	6.074742	0.008087	NaN	0.000000	0.001525	0.001738	28.0802	0.111178	0.002087	53.2655	-13.2522	-165.06	-0.029892	0.072811	-1.007354	-1.008657	0.008087	53.2655	-1.007468	-2.859574E+13	-2.828164E-16	NaN
1189	1.000000	0.082110	7.37667e+06	-56139.1	1105.82	-29739.6	0.000000	0.000000	6.082738	0.034569	NaN	0.000000	0.001581	0.001742	28.0805	0.136015	0.001954	69.6178	175.311	-164.122	0.099851	0.080788	-0.999358	-1.000680	0.034569	69.6178	-0.999731	-2.249810E+13	-1.536529E-15	NaN
1189	1.000000	0.090141	7.37667e+06	-56139.1	1105.82	-29739.6	0.000000	0.000000	6.090768	-0.000827	NaN	0.000000	0.001587	0.001738	28.0814	0.034030	0.002055	16.5616	-81.0606	-165.905	0.111254	0.088786	-0.991328	-0.992682	-0.000827	16.5616	-0.991290	-1.731762E+13	4.776385E-17	NaN
1189	1.000000	0.098146	7.37667e+06	-56139.1	1105.82	-29739.6	0.000000	0.000000	6.098772	-0.002349	NaN	0.000000	0.001565	0.001745	28.0815	0.094728	0.002283	41.4865	70.026	-165.703	0.045766	0.096819	-0.983323	-0.984650	-0.002349	41.4865	-0.983280	-1.350836E+13	1.739182E-16	NaN
1189	1.000000	0.106121	7.37667e+06	-56139.1	1105.82	-29739.6	0.000000	0.000000	6.106746	-0.033995	NaN	0.000000	0.001535	0.001836	28.0815	0.030734	0.001966	15.6364	-39.8452	-167.22	0.029525	0.104859	-0.975348	-0.976609	-0.033995	15.6364	-0.973717	-1.004050E+13	3.385791E-15	NaN
1189	1.000000	0.114160	7.37667e+06	-56139.1	1105.82	-29739.6	0.000000	0.000000	6.114787	-0.001783	NaN	0.000000	0.001542	0.001768	28.0814	0.081326	0.001820	44.6928	52.9399	-168.316	0.009364	0.112844	-0.967308	-0.968624	-0.001783	44.6928	-0.967278	-8.222003E+12	2.168514E-16	NaN
1189	1.000000	0.122127	7.37667e+06	-56139.1	1105.82	-29739.6	0.000000	0.000000	6.122753	-0.019155	NaN	0.000000	0.001550	0.001749	28.0815	0.021339	0.001983	10.7621	-97.9214	-165.335	0.036581	0.120847	-0.959342	-0.960621	-0.019155	10.7621	-0.958007	-6.165893E+12	3.106638E-15	NaN
1189	1.000000	0.130122	7.37667e+06	-56139.1	1105.82	-29739.6	0.000000	0.000000	6.130747	-0.036822	NaN	0.000000	0.001559	0.001764	28.0814	0.130859	0.001983	65.9827	-75.1966	-162.528	0.034104	0.128815	-0.951347	-0.952654	-0.036822	65.9827	-0.950928	-4.949308E+12	7.439729E-15	NaN
1189	1.000000	0.138152	7.37667e+06	-56139.1	1105.82	-29739.6	0.000000	0.000000	6.138778	-0.029363	NaN	0.000000	0.001552	0.001797	28.0818	0.130102	0.002010	64.7247	130.545	-166.875	-0.029941	0.136858	-0.943316	-0.944610	-0.029363	64.7247	-0.942976	-3.866235E+12	7.594834E-15	NaN
1189	1.000000	0.146161	7.37667e+06	-56139.1	1105.82	-29739.6	0.000000	0.000000	6.146786	-0.053143	NaN	0.000000	0.001582	0.001780	28.0818	0.056858	0.001950	29.156	-165.387	-162.902	-0.019777	0.144837	-0.935307	-0.936631	-0.053143	29.156	-0.933940	-2.919930E+12	1.820022E-14	NaN
1189	1.000000	0.154160	7.37667e+06	-56139.1	1105.82	-29739.6	0.000000	0.000000	6.154787	-0.010808	NaN	0.000000	0.001556	0.001768	28.0816	0.053098	0.001906	27.8623	-157.9	-165.714	-0.018695	0.152847	-0.927308	-0.928622	-0.010808	27.8623	-0.927017	-2.354719E+12	4.590053E-15	NaN
1189	1.000000	0.162181	7.37667e+06	-56139.1	1105.82	-29739.6	0.000000	0.000000	6.162807	-0.026743	NaN	0.000000	0.001547	0.001768	28.0817	0.041328	0.002009	20.5707	107.977	-166.001	-0.039818	0.160866	-0.919287	-0.920603	-0.026743	20.5707	-0.918312	-1.796465E+12	1.488625E-14	NaN
1189	1.000000	0.170148	7.37667e+06	-56139.1	1105.82	-29739.6	0.000000	0.000000	6.170774	-0.037995	NaN	0.000000	0.001583	0.001720	28.0814	0.192769	0.002028	95.044	162.329	-167.094	0.005861	0.168790	-0.911320	-0.912678	-0.037995	95.044	-0.911020	-1.432000E+12	2.653311E-14	NaN
1189	1.000000	0.178168	7.37667e+06	-56139.1	1105.82	-29739.6	0.000000	0.000000	6.178796	0.029909	NaN	0.000000	0.001638	0.001790	28.0816	0.019950	0.001992	10.0134	-81.5494	-166.907	0.048642	0.176816	-0.903300	-0.904653	0.029909	10.0134	-0.905541	-1.207603E+12	-2.476732E-14	NaN
1189	1.000000	0.186186	7.37667e+06	-56139.1	1105.82	-29739.6	0.000000	0.000000	6.186809	-0.082804	NaN	0.000000	0.001633	0.001758	28.0813	0.056083	0.001968	28.5029	33.0278	-163.092	-0.078431	0.184862	-0.895283	-0.896607	-0.082804	28.5029	-0.893104	-8.201081E+11	1.009677E-13	NaN
1189	1.000000	0.194170	7.37667e+06	-56139.1	1105.82	-29739.6	0.000000	0.000000	6.194797	0.004725	NaN	0.000000	0.001646	0.001767	28.0812	0.083842	0.002007	41.7696	137.254	-167.019	-0.121269	0.192855	-0.887298	-0.888613	0.004725	41.7696	-0.887383	-6.863407E+11	-6.883688E-15	NaN
1189	1.000000	0.202180	7.37667e+06	-56139.1	1105.82	-29739.6	0.000000	0.000000	6.202807	0.015132	NaN	0.000000	0.001652	0.001759	28.0815	0.053231	0.002093	25.4304	-52.334	-167.668	-0.041192	0.200862	-0.879288	-0.880607	0.015132	25.4304	-0.879735	-5.409052E+11	-2.797580E-14	NaN
1189	1.000000	0.210181	7.37667e+06	-56139.1	1105.82	-29739.6	0.000000	0.000000	6.210806	-0.051099	NaN	0.000000	0.001641	0.001716	28.0815	0.055015	0.002117	25.9846	-37.7344	-164.545	-0.114686	0.208839	-0.871287	-0.872629	-0.051099	25.9846	-0.869812	-3.971063E+11	1.286782E-13	NaN
1189	1.000000	0.218194	7.37667e+06	-56139.1	1105.82	-29739.6	0.000000	0.000000	6.218822	0.015798	NaN	0.000000	0.001683	0.001814	28.0816	0.045537	0.001991	22.8765	-103.788	-167.312	-0.071438	0.216861	-0.863274	-0.864607	0.015798	22.8765	-0.863792	-3.291890E+11	-4.799180E-14	NaN
1189	1.000000	0.226199	7.37667e+06	-56139.1	1105.82	-29739.6	0.000000	0.000000	6.226825	-0.013845	NaN	0.000000	0.001646	0.001756	28.0803	0.109166	0.001924	56.7301	5.941589	-164.409	0.048659	0.224839	-0.855270	-0.856630	-0.013845	56.7301	-0.855087	-2.509629E+11	5.516603E-14	NaN
1189	1.000000	0.234186	7.37667e+06	-56139.1	1105.82	-29739.6	0.000000	0.000000	6.234813	0.005392	NaN	0.000000	0.001620	0.001745	28.0806	0.013886	0.002138	6.496118	103.365	-164.572	-0.108329	0.232879	-0.847283	-0.848589	0.005392	6.496118	-0.847905	-2.006178E+11	-2.687594E-14	NaN
1189	1.000000	0.242215	7.37667e+06	-56139.1	1105.82	-29739.6	0.000000	0.000000	6.242842	-0.019088	NaN	0.000000	0.001593	0.001697	28.0806	0.025059	0.001953	12.83	164.528	-165.126	0.051349	0.240894	-0.839253	-0.840574	-0.019088	12.83	-0.838137	-1.479295E+11	1.290327E-13	NaN
1189	1.000000	0.250195	7.37667e+06	-56139.1	1105.82	-29739.6	0.000000	0.000000	6.250822	-0.006531	NaN	0.000000	0.001535	0.001778	28.0802	0.052559	0.002031	25.8794	-29.5461	-163.612	0.079836	0.248910	-0.831273	-0.832559	-0.006531	25.8794	-0.831084	-1.187074E+11	5.501863E-14	NaN
1189	1.000000	0.258226	7.37668e+06	-56139.1	1105.82	-29739.6	0.000000	0.000000	6.258853	0.009124	NaN	0.000000	0.001544	0.001748	28.0802	0.061942	0.002029	30.5321	-35.8332	-170.595	-0.084147	0.256884	-0.823243	-0.824584	0.009124	30.5321	-0.823467	-9.358813E+10	-9.749626E-14	NaN
1189	1.000000	0.266238	7.37668e+06	-56139.1	1105.82	-29739.6	0.000000	0.000000	6.266865	-1.877048E-5	NaN	0.000000	0.001559	0.001724	28.0802	0.069375	0.001859	37.3216	-120.067	-164.573	-0.039081	0.264844	-0.815230	-0.816625	-1.877048E-5	37.3216	-0.815230	-7.236337E+10	2.593920E-16	NaN
1189	1.000000	0.274258	7.37668e+06	-56139.1	1105.82	-29739.6	0.000000	0.000000	6.274883	-0.041640	NaN	0.000000	0.001560	0.001767	28.0804	0.038140	0.002009	18.9871	-63.0395	-163.699	-0.042701	0.272895	-0.807211	-0.808573	-0.041640	18.9871	-0.805566	-5.350630E+10	7.782331E-13	NaN
1189	1.000000	0.282237	7.37668e+06	-56139.1	1105.82	-29739.6	0.000000	0.000000	6.282862	-0.053905	NaN	0.000000	0.001534	0.001768	28.0804	0.049898	0.001953	25.5549	-152.402	-165.932	-0.029961	0.280956	-0.799232	-0.800512	-0.053905	25.5549	-0.797650	-4.177867E+10	1.290263E-12	NaN
1189	1.000000	0.290197	7.37668e+06	-56139.1	1105.82	-29739.6	0.000000	0.000000	6.290821	-0.050055	NaN	0.000000	0.001558	0.001755	28.0805	0.079600	0.001894	42.0224	137.925	-167.457	-0.008378	0.288870	-0.791272	-0.792598	-0.050055	42.0224	-0.790378	-3.328309E+10	1.503902E-12	NaN
1189	1.000000	0.298222	7.37668e+06	-56139.1	1105.82	-29739.6	0.000000	0.000000	6.298849	-0.001002	NaN	0.000000	0.001543	0.001745	28.0804	0.062451	0.002032	30.7352	134.447	-164.911	-0.031174	0.296954	-0.783247	-0.784515	-0.001002	30.7352	-0.783222	-2.660816E+10	3.764140E-14	NaN
1189	1.000000	0.306204	7.37668e+06	-56139.1	1105.82	-29739.6	0.000000	0.000000	6.306831	0.007124	NaN	0.000000	0.001551	0.001738	28.0803	0.065506	0.002074	31.5824	-35.8742	-165.962	0.035215	0.304929	-0.775264	-0.776539	0.007124	31.5824	-0.775433	-2.085303E+10	-3.416517E-13	NaN
1189	1.000000	0.314227	7.37668e+06	-56139.1	1105.82	-29739.6	0.000000	0.000000	6.314853	-0.016389	NaN	0.000000	0.001604	0.001729	28.0804	0.001262	0.002107	0.599255	-74.9455	-166.547	0.005447	0.312869	-0.767242	-0.768600	-0.016389	0.599255	-0.746730	-8.485929E+9	1.931356E-12	NaN
1189	1.000000	0.322224	7.37668e+06	-56139.1	1105.82	-29739.6	0.000000	0.000000	6.322849	-0.051688	NaN	0.000000	0.001568	0.001726	28.0804	0.039727	0.002022	19.6502	-179.83	-165.311	-0.033945	0.320916	-0.759245	-0.760552	-0.051688	19.6502	-0.757272	-1.180820E+10	4.377336E-12	NaN
1189	1.000000	0.330237	7.37668e+06	-56139.1	1105.82	-29739.6	0.000000	0.000000	6.330864	-0.014105	NaN	0.000000	0.001575	0.001757	28.0806	0.050575	0.001960	25.8027	79.5267	-163.52	-0.010802	0.328890	-0.751231	-0.752579	-0.014105	25.8027	-0.750821	-9.647119E+9	1.462061E-12	NaN
1189	1.000000	0.338217	7.37668e+06	-56139.1	1105.82	-29739.6	0.000000	0.000000	6.338842	-0.053893	NaN	0.000000	0.001594	0.001758	28.0806	0.050093	0.001970	25.4262	91.2034	-166.517	-0.086676	0.336947	-0.743252	-0.744522	-0.053893	25.4262	-0.741662	-7.239216E+9	7.444523E-12	NaN
1189	1.000000	0.346237	7.37668e+06	-56139.1	1105.82	-29739.6	0.000000	0.000000	6.346863	-0.003726	NaN	0.000000	0.001587	0.001759	28.0804	0.065506	0.001926	34.0193	156.398	-164.598	-0.012446	0.344922	-0.735232	-0.736546	-0.003726	34.0193	-0.735150	-5.901751E+9	6.313018E-13	NaN
1189	1.000000	0.354247	7.37668e+06	-56139.1	1105.82	-29739.6	0.000000	0.000000	6.354872	-0.045614	NaN	0.000000	0.001543	0.001765	28.0803	0.031240	0.002166	14.422	-117.638	-162.171	0.007373	0.352922	-0.727222	-0.728547	-0.045614	14.422	-0.724850	-4.271697E+9	1.067813E-11	NaN
1189	1.000000	0.362236	7.37668e+06	-56139.1	1105.82	-29739.6	0.000000	0.000000	6.362864	0.024173	NaN	0.000000	0.001587	0.001754	28.0816	0.097936	0.001921	50.9906	146.211	-166.017	-0.013305	0.360898	-0.719233	-0.720570	0.024173	50.9906	-0.719588	-3.621235E+9	-6.675458E-12	NaN
1189	1.000000	0.370252	7.37668e+06	-56139.1	1105.82	-29739.6	0.000000	0.000000	6.370879	-0.014857	NaN	0.000000	0.001572	0.001737	28.0816	0.075822	0.002129	35.6106	-52.5436	-165.575	-0.095434	0.368916	-0.711216	-0.712552	-0.014857	35.6106	-0.710903	-2.756586E+9	5.389631E-12	NaN
1189	1.000000	0.378228	7.37668e+06	-56139.1	1105.82	-29739.6	0.000000	0.000000	6.378854	-0.021492	NaN	0.000000	0.001569	0.001724	28.0818	0.093424	0.001981	47.1489	63.1136	-172.008	-0.002226	0.376940	-0.703241	-0.704528	-0.021492	47.1489	-0.702899	-2.143464E+9	1.002657E-11	NaN
1189	1.000000	0.386264	7.37668e+06	-56139.1	1105.82	-29739.6	0.000000	0.000000	6.386886	-0.109454	NaN	0.000000	0.001578	0.001757	28.0817	0.022180	0.001945	11.4028	-146.271	-162.081	-0.083428	0.384930	-0.695205	-0.696538	-0.109454	11.4028	-0.688006	-1.341714E+9	8.157785E-11	NaN
1189	1.000000	0.394278	7.37668e+06	-56139.1	1105.82	-29739.6	0.000000	0.000000	6.394905	0.009141	NaN	0.000000	0.001577	0.001776	28.0815	0.072835	0.002107	34.5607	1.813434	-165.657	-0.040242	0.392961	-0.687191	-0.688508	0.009141	34.5607	-0.687389	-1.315926E+9	-6.946640E-12	NaN
1189	1.000000	0.402262	7.37668e+06	-56139.1	1105.82	-29739.6	0.000000	0.000000	6.402889	0.001291	NaN	0.000000	0.001563	0.001778	28.0816	0.080201	0.001979	40.5267	-73.3108	-168.197	0.061350	0.400920	-0.679206	-0.680548	0.001291	40.5267	-0.679230	-1.017834E+9	-1.268086E-12	NaN
1189	1.000000	0.410273	7.37668e+06	-56139.1	1105.82	-29739.6	0.000000	0.000000	6.410900	-0.005913	NaN	0.000000	0.001575	0.001730	28.0814	0.027872	0.001863	14.9575	119.128	-166.602	-0.041795	0.408944	-0.671195	-0.672524	-0.005913	14.9575	-0.670898	-7.828653E+8	7.553549E-12	NaN
1189	1.000000	0.418294	7.37668e+06	-56139.1	1105.82	-29739.6	0.000000	0.000000	6.418921	0.014628	NaN	0.000000	0.001555	0.001745	28.0817	0.070564	0.001960	35.9934	37.6847	-167.251	0.020223	0.416992	-0.663175	-0.664477	0.014628	35.9934	-0.663480	-6.196174E+8	-2.360871E-11	NaN
1189	1.000000	0.426307	7.37668e+06	-56139.1	1105.82	-29739.6	0.000000	0.000000	6.426935	0.026604	NaN	0.000000	0.001535	0.001732	28.0817	0.106198	0.002041	52.0386	-145.126	-166.053	0.024939	0.424993	-0.655161	-0.656475	0.026604	52.0386	-0.655545	-4.824290E+8	-5.514692E-11	NaN
1189	1.000000	0.434260	7.37668e+06	-56139.1	1105.82	-29739.6	0.000000	0.000000	6.434886	-0.023395	NaN	0.000000	0.001540	0.001735	28.0813	0.090508	0.001958	46.2304	-15.9589	-164.227	-0.054134	0.432954	-0.647208	-0.648515	-0.023395	46.2304	-0.646829	-3.664021E+8	6.384967E-11	NaN
1189	1.000000	0.442269	7.37668e+06	-56139.1	1105.82	-29739.6	0.000000	0.000000	6.442895	-0.012036	NaN	0.000000	0.001562	0.001732	28.0814	0.146393	0.001976	74.0724	-87.0548	-165.399	-0.013955	0.440939	-0.639200	-0.640529	-0.012036	74.0724	-0.639078	-2.868363E+8	4.196014E-11	NaN
1189	1.000000	0.450293	7.37668e+06	-56139.1	1105.82	-29739.6	0.000000	0.000000	6.450920	0.004155	NaN	0.000000	0.001572	0.001727	28.0812	0.132664	0.002053	64.6293	-68.258	-166.708	0.032154	0.449036	-0.631175	-0.632433	0.004155	64.6293	-0.631224	-2.237821E+8	-1.856768E-11	NaN
1189	1.000000	0.458296	7.37668e+06	-56139.1	1105.82	-29739.6	0.000000	0.000000	6.458922	-0.031255	NaN	0.000000	0.001577	0.001762	28.0813	0.044783	0.001936	23.129	-13.9351	-167.638	-0.051841	0.456960	-0.623172	-0.624508	-0.031255	23.129	-0.622158	-1.679962E+8	1.860482E-10	NaN
1189	1.000000	0.466330	7.37668e+06	-56139.1	1105.82	-29739.6	0.000000	0.000000	6.466958	0.010394	NaN	0.000000	0.001558	0.001723	28.0813	0.044770	0.001996	22.4344	103.715	-163.493	0.021507	0.464982	-0.615138	-0.616487	0.010394	22.4344	-0.615486	-1.360096E+8	-7.642285E-11	NaN
1189	1.000000	0.474273	7.37668e+06	-56139.1	1105.82	-29739.6	0.000000	0.000000	6.474898	-0.047757	NaN	0.000000	0.001555	0.001743	28.0813	0.127017	0.002013	63.1045	-30.0283	-162.24	-0.037037	0.472964	-0.607195	-0.608505	-0.047757	63.1045	-0.606628	-1.027326E+8	4.648630E-10	NaN
1189	1.000000	0.482278	7.37668e+06	-56139.1	1105.82	-29739.6	0.000000	0.000000	6.482907	0.031944	NaN	0.000000	0.001560	0.001731	28.0815	0.049040	0.001875	26.1591	10.1227	-169.517	-0.015256	0.481029	-0.599190	-0.600440	0.031944	26.1591	-0.600106	-8.354443E+7	-3.823547E-10	NaN
1189	1.000000	0.490326	7.37668e+06	-56139.1	1105.82	-29739.6	0.000000	0.000000	6.490950	-0.074003	NaN	0.000000	0.001539	0.001787	28.0812	0.094734	0.002093	45.2713	-11.4666	-163.336	-0.063187	0.489022	-0.591142	-0.592446	-0.074003	45.2713	-0.589916	-6.046582E+7	1.223878E-9	NaN
1189	1.000000	0.498334	7.37668e+06	-56139.1	1105.82	-29739.6	0.000000	0.000000	6.498963	0.047323	NaN	0.000000	0.001537	0.001799	28.0801	0.073642	0.002021	36.4428	101.585	-166.539	-0.010462	0.497057	-0.583135	-0.584412	0.047323	36.4428	-0.584109	-5.028256E+7	-9.411452E-10	NaN
1189	1.000000	0.506290	7.37668e+06	-56139.1	1105.82	-29739.6	0.000000	0.000000	6.506914	-0.083618	NaN	0.000000	0.001540	0.001823	28.0799	0.023801	0.001887	12.6128	90.2802	-167.091	-0.098639	0.504983	-0.575178	-0.576486	-0.083618	12.6128	-0.570206	-3.232061E+7	2.587134E-9	NaN
1189	1.000000	0.514316	7.37668e+06	-56139.1	1105.82	-29739.6	0.000000	0.000000	6.514943	0.004564	NaN	0.000000	0.001539	0.001788	28.0801	0.025832	0.002042	12.65	-45.0134	-165.098	-0.013721	0.513069	-0.567152	-0.568399	0.004564	12.65	-0.567423	-2.958152E+7	-1.542791E-10	NaN
1189	1.000000	0.522294	7.37668e+06	-56139.1	1105.82	-29739.6	0.000000	0.000000	6.522920	-0.024615	NaN	0.000000	0.001566	0.001735	28.0804	0.034076	0.002010	16.956	81.9595	-163.529	-0.029727	0.521015	-0.559174	-0.560453	-0.024615	16.956	-0.558085	-2.197301E+7	1.120229E-9	NaN
1189	1.000000	0.530319	7.37668e+06	-56139.1	1105.82	-29739.6	0.000000	0.000000	6.530944	-0.048999	NaN	0.000000	0.001553	0.001733	28.0802	0.097954	0.002161	45.3283	-94.0494	-164.319	-0.015264	0.528991	-0.551149	-0.552478	-0.048999	45.3283	-0.550338	-1.716500E+7	2.854584E-9	NaN
1189	1.000000	0.538329	7.37668e+06	-56139.1	1105.82	-29739.6	0.000000	0.000000	6.538956	0.004622	NaN	0.000000	0.001548	0.001743	28.0802	0.030328	0.002041	14.8606	7.907976	-162.731	0.012699	0.536975	-0.543140	-0.544493	0.004622	14.8606	-0.543373	-1.374450E+7	-3.362995E-10	NaN
1189	1.000000	0.546287	7.37668e+06	-56139.1	1105.82	-29739.6	0.000000	0.000000	6.546912	-0.048570	NaN	0.000000	0.001579	0.001719	28.0798	0.009590	0.001946	4.928557	50.0754	-166.161	-0.031645	0.545050	-0.535181	-0.536419	-0.048570	4.928557	-0.527790	-8.35377e+06	5.814083E-9	NaN
1189	1.000000	0.554342	7.37668e+06	-56139.1	1105.82	-29739.6	0.000000	0.000000	6.554967	-0.058467	NaN	0.000000	0.001578	0.001706	28.0801	0.082404	0.001974	41.7474	122.706	-166.321	-0.023106	0.553034	-0.527126	-0.528434	-0.058467	41.7474	-0.526076	-7.90791e+06	7.393493E-9	NaN
1189	1.000000	0.562326	7.37668e+06	-56139.1	1105.82	-29739.6	0.000000	0.000000	6.562952	-0.016798	NaN	0.000000	0.001565	0.001737	28.0803	0.051688	0.001931	26.7716	102.683	-164.847	0.033655	0.561100	-0.519143	-0.520368	-0.016798	26.7716	-0.518672	-6.23916e+06	2.692345E-9	NaN
1189	1.000000	0.570323	7.37668e+06	-56139.1	1105.82	-29739.6	0.000000	0.000000	6.570950	0.000952	NaN	0.000000	0.001541	0.001752	28.0804	0.079240	0.002061	38.4462	-116.035	-164.378	-0.051906	0.569003	-0.511145	-0.512466	0.000952	38.4462	-0.511164	-4.90487e+06	-1.941175E-10	NaN
1189	1.000000	0.578328	7.37668e+06	-56139.1	1105.82	-29739.6	0.000000	0.000000	6.578957	0.073664	NaN	0.000000	0.001552	0.001725	28.0806	0.100275	0.002162	46.3791	100.74	-166.505	0.079495	0.577009	-0.503141	-0.504459	0.073664	46.3791	-0.504332	-3.93943e+06	-1.869916E-8	NaN
1189	1.000000	0.586345	7.37668e+06	-56139.1	1105.82	-29739.6	0.000000	0.000000	6.586968	-0.080988	NaN	0.000000	0.001550	0.001746	28.0803	0.135198	0.001867	72.4221	-98.9509	-165.042	-0.019164	0.585019	-0.495124	-0.496450	-0.080988	72.4221	-0.494285	-2.85266e+06	2.839037E-8	NaN
1189	1.000000	0.594351	7.37668e+06	-56139.1	1105.82	-29739.6	0.000000	0.000000	6.594980	0.034692	NaN	0.000000	0.001552	0.001730	28.0803	0.142204	0.001965	72.3691	121.758	-162.31	0.037155	0.593049	-0.487117	-0.488420	0.034692	72.3691	-0.487476	-2.2915e+06	-1.513937E-8	NaN
1189	1.000000	0.602349	7.37668e+06	-56139.1	1105.82	-29739.6	0.000000	0.000000	6.602973	-0.050488	NaN	0.000000	0.001539	0.001728	28.0803	0.115736	0.002006	57.6839	178.861	-165.803	-0.016176	0.601025	-0.479120	-0.480443	-0.050488	57.6839	-0.478463	-1.71401e+06	2.945621E-8	NaN
1189	1.000000	0.610331	7.37668e+06	-56139.1	1105.82	-29739.6	0.000000	0.000000	6.610958	-0.008716	NaN	0.000000	0.001575	0.001709	28.0804	0.065986	0.002115	31.1956	164.148	-167.211	-0.011686	0.609092	-0.471137	-0.472376	-0.008716	31.1956	-0.470928	-1.34407e+06	6.484514E-9	NaN
1189	1.000000	0.618374	7.37668e+06	-56139.1	1105.82	-29739.6	0.000000	0.000000	6.619002	0.021901	NaN	0.000000	0.001601	0.001684	28.0804	0.115069	0.001954	58.8804	-5.463658	-165.706	0.034238	0.617084	-0.463094	-0.464384	0.021901	58.8804	-0.463373	-1.05295e+06	-2.079975E-8	NaN
1189	1.000000	0.626330	7.37668e+06	-56139.1	1105.82	-29739.6	0.000000	0.000000	6.626957	0.022083	NaN	0.000000	0.001586	0.001682	28.0804	0.125478	0.002020	62.1092	-147.37	-165.473	-0.096762	0.625062	-0.455139	-0.456406	0.022083	62.1092	-0.455406	-813620	-2.714226E-8	NaN
1189	1.000000	0.634367	7.37668e+06	-56139.1	1105.82	-29739.6	0.000000	0.000000	6.634993	-0.014723	NaN	0.000000	0.001566	0.001699	28.0816	0.028768	0.002073	13.8761	-167.734	-167.364	-0.067110	0.633006	-0.447101	-0.448463	-0.014723	13.8761	-0.446305	-605751	2.430596E-8	NaN
1189	1.000000	0.642375	7.37668e+06	-56139.1	1105.82	-29739.6	0.000000	0.000000	6.643001	-0.014661	NaN	0.000000	0.001642	0.001753	28.0815	0.074118	0.001844	40.1979	65.719	-164.771	-0.019587	0.641047	-0.439094	-0.440422	-0.014661	40.1979	-0.438820	-475017	3.086390E-8	NaN
1189	1.000000	0.650372	7.37668e+06	-56139.1	1105.82	-29739.6	0.000000	0.000000	6.650998	-0.023017	NaN	0.000000	0.001648	0.001737	28.0816	0.083536	0.001946	42.9365	111.075	-165.653	-0.015092	0.649020	-0.431097	-0.432449	-0.023017	42.9365	-0.430695	-364662	6.311799E-8	NaN
1189	1.000000	0.658392	7.37668e+06	-56139.1	1105.82	-29739.6	0.000000	0.000000	6.659020	0.011473	NaN	0.000000	0.001640	0.001699	28.0824	0.110220	0.001964	56.1085	61.3737	-162.536	-0.015136	0.657036	-0.423076	-0.424432	0.011473	56.1085	-0.423230	-285891	-4.013143E-8	NaN
1189	1.000000	0.666374	7.37668e+06	-56139.1	1105.82	-29739.6	0.000000	0.000000	6.666999	-0.051272	NaN	0.000000	0.001624	0.001760	28.0819	0.063148	0.001947	32.4401	113.372	-163.883	0.028308	0.665088	-0.415094	-0.416380	-0.051272	32.4401	-0.413909	-210842	2.431758E-7	NaN
1189	1.000000	0.674386	7.37668e+06	-56139.1	1105.82	-29739.6	0.000000	0.000000	6.675012	-0.034367	NaN	0.000000	0.001626	0.001776	28.0815	0.084698	0.001979	42.8019	-123.115	-164.375	-0.023225	0.673135	-0.407082	-0.408333	-0.034367	42.8019	-0.406480	-165318	2.078820E-7	NaN
1189	1.000000	0.682374	7.37668e+06	-56139.1	1105.82	-29739.6	0.000000	0.000000	6.683002	0.007405	NaN	0.000000	0.001546	0.001746	28.0817	0.031937	0.002072	15.4141	104.818	-165.112	0.019986	0.681055	-0.399094	-0.400414	0.007405	15.4141	-0.399454	-131284	-5.640343E-8	NaN
1189	1.000000	0.690384	7.37668e+06	-56139.1	1105.82	-29739.6	0.000000	0.000000	6.691010	-0.013522	NaN	0.000000	0.001528	0.001744	28.082	0.050488	0.001980	25.4982	57.271	-167.963	0.020692	0.689084	-0.391085	-0.392384	-0.013522	25.4982	-0.390687	-98399.7	1.374196E-7	NaN
1189	1.000000	0.698379	7.37668e+06	-56139.1	1105.82	-29739.6	0.000000	0.000000	6.699005	-0.012996	NaN	0.000000	0.001541	0.001704	28.0817	0.114738	0.002076	55.2743	104.723	-165.147	-0.077981	0.697011	-0.383089	-0.384457	-0.012996	55.2743	-0.382913	-76151	1.706562E-7	NaN
1189	1.000000	0.706387	7.37668e+06	-56139.1	1105.82	-29739.6	0.000000	0.000000	6.707013	-0.032637	NaN	0.000000	0.001544	0.001725	28.0819	0.020218	0.002010	10.0601	150.897	-167.309	-0.049125	0.705054	-0.375081	-0.376414	-0.032637	10.0601	-0.372648	-54230.2	6.018204E-7	NaN
1189	1.000000	0.714392	7.37668e+06	-56139.1	1105.82	-29739.6	0.000000	0.000000	6.715019	-0.021353	NaN	0.000000	0.001601	0.001696	28.0817	0.067617	0.001984	34.0891	71.2256	-167.235	-0.132704	0.713055	-0.367076	-0.368413	-0.021353	34.0891	-0.366606	-44383.4	4.811099E-7	NaN
1189	1.000000	0.722355	7.37668e+06	-56139.1	1105.82	-29739.6	0.000000	0.000000	6.722982	0.008079	NaN	0.000000	0.001568	0.001693	28.0819	0.073034	0.002004	36.4426	-120.086	-164.108	0.097803	0.721108	-0.359113	-0.360360	0.008079	36.4426	-0.359280	-34788.2	-2.322215E-7	NaN
1189	1.000000	0.730373	7.37668e+06	-56139.1	1105.82	-29739.6	0.000000	0.000000	6.730998	-0.056582	NaN	0.000000	0.001555	0.001735	28.0818	0.055920	0.001994	28.043	-13.5655	-168.019	-0.003131	0.729066	-0.351095	-0.352403	-0.056582	28.043	-0.349582	-25172.9	2.247733E-6	NaN
1189	1.000000	0.738398	7.37668e+06	-56139.1	1105.82	-29739.6	0.000000	0.000000	6.739028	0.065993	NaN	0.000000	0.001578	0.001739	28.0814	0.090197	0.001956	46.1064	18.8656	-163.397	0.008510	0.737082	-0.343070	-0.344386	0.065993	46.1064	-0.344144	-20984.5	-3.144858E-6	NaN
1189	1.000000	0.746420	7.37668e+06	-56139.1	1105.82	-29739.6	0.000000	0.000000	6.747046	-0.022922	NaN	0.000000	0.001553	0.001752	28.0818	0.109341	0.002080	52.5745	-127.275	-164.977	-0.027648	0.745094	-0.335048	-0.336375	-0.022922	52.5745	-0.334721	-15293.8	1.498795E-6	NaN
1189	1.000000	0.754415	7.37668e+06	-56139.1	1105.82	-29739.6	0.000000	0.000000	6.755038	-0.073976	NaN	0.000000	0.001567	0.001779	28.0815	0.087352	0.001998	43.7282	81.2528	-167.749	-0.028889	0.753152	-0.327054	-0.328316	-0.073976	43.7282	-0.325785	-11315.1	6.537826E-6	NaN
1189	1.000000	0.762449	7.37668e+06	-56139.1	1105.82	-29739.6	0.000000	0.000000	6.763077	0.033434	NaN	0.000000	0.001561	0.001792	28.0819	0.046769	0.002029	23.054	42.6811	-165.866	0.042499	0.761053	-0.319020	-0.320416	0.033434	23.054	-0.320107	-9337.21	-3.580727E-6	NaN
1189	1.000000	0.770420	7.37668e+06	-56139.1	1105.82	-29739.6	0.000000	0.000000	6.771048	0.036065	NaN	0.000000	0.001559	0.001770	28.0804	0.035036	0.002097	16.7083	-81.3893	-166.846	0.034086	0.769130	-0.311049	-0.312339	0.036065	16.7083	-0.312667	-7252.74	-4.972566E-6	NaN
1189	1.000000	0.778447	7.37668e+06	-56139.1	1105.82	-29739.6	0.000000	0.000000	6.779072	-0.026683	NaN	0.000000	0.001558	0.001757	28.0802	0.062301	0.001925	32.366	-97.5881	-164.576	0.083502	0.777151	-0.303022	-0.304317	-0.026683	32.366	-0.302403	-5109.62	5.222146E-6	NaN
1189	1.000000	0.786440	7.37668e+06	-56139.1	1105.82	-29739.6	0.000000	0.000000	6.787065	-0.061282	NaN	0.000000	0.001542	0.001706	28.0805	0.081969	0.002122	38.6344	77.737	-166.016	-0.030089	0.785135	-0.295028	-0.296334	-0.061282	38.6344	-0.293839	-3808.37	1.609129E-5	NaN
1189	1.000000	0.794439	7.37668e+06	-56139.1	1105.82	-29739.6	0.000000	0.000000	6.795065	-0.032271	NaN	0.000000	0.001525	0.001727	28.0804	0.014974	0.001991	7.522152	-141.026	-164.762	-0.034769	0.793171	-0.287029	-0.288297	-0.032271	7.522152	-0.283812	-2694	1.197868E-5	NaN
1189	1.000000	0.802440	7.37668e+06	-56139.1	1105.82	-29739.6	0.000000	0.000000	6.803067	-0.002487	NaN	0.000000	0.001536	0.001736	28.0803	0.082809	0.001985	41.7261	-129.183	-163.255	-0.048543	0.801098	-0.279029	-0.280370	-0.002487	41.7261	-0.278984	-2278.44	1.091385E-6	NaN
1189	1.000000	0.810424	7.37668e+06	-56139.1	1105.82	-29739.6	0.000000	0.000000	6.811048	-0.059594	NaN	0.000000	0.001570	0.001726	28.0802	0.085195	0.001846	46.1417	-85.7438	-166.244	-0.083718	0.809050	-0.271045	-0.272418	-0.059594	46.1417	-0.270076	-1669.93	3.568666E-5	NaN
1189	1.000000	0.818418	7.37668e+06	-56139.1	1105.82	-29739.6	0.000000	0.000000	6.819042	-0.084353	NaN	0.000000	0.001570	0.001708	28.0804	0.031941	0.002084	15.3289	-162.822	-169.793	-0.099991	0.817135	-0.263050	-0.264334	-0.084353	15.3289	-0.258923	-1128.25	7.476466E-5	NaN
1189	1.000000	0.826438	7.37668e+06	-56139.1	1105.82	-29739.6	0.000000	0.000000	6.827066	0.013387	NaN	0.000000	0.001581	0.001694	28.0805	0.054275	0.001919	28.2796	-136.575	-162.691	-0.009240	0.825161	-0.255030	-0.256307	0.013387	28.2796	-0.255385	-995.507	-1.344726E-5	NaN
1189	1.000000	0.834446	7.37668e+06	-56139.1	1105.82	-29739.6	0.000000	0.000000	6.835072	-0.018788	NaN	0.000000	0.001601	0.001712	28.0804	0.030781	0.002019	15.245	100.189	-167.036	-0.102360	0.833143	-0.247023	-0.248326	-0.018788	15.245	-0.246098	-715.336	2.626417E-5	NaN
1189	1.000000	0.842440	7.37668e+06	-56139.1	1105.82	-29739.6	0.000000	0.000000	6.843065	-0.051246	NaN	0.000000	0.001592	0.001680	28.0805	0.054544	0.001756	31.0605	103.714	-167.703	-0.100334	0.841176	-0.239028	-0.240293	-0.051246	31.0605	-0.237791	-530.896	9.652773E-5	NaN
1189	1.000000	0.850429	7.37668e+06	-56139.1	1105.82	-29739.6	0.000000	0.000000	6.851054	-0.049118	NaN	0.000000	0.001583	0.001702	28.0803	0.040434	0.002025	19.9632	85.5449	-166.882	-0.039595	0.849173	-0.231039	-0.232295	-0.049118	19.9632	-0.229194	-388.851	0.000126	NaN
1189	1.000000	0.858470	7.37668e+06	-56139.1	1105.82	-29739.6	0.000000	0.000000	6.859096	-0.017285	NaN	0.000000	0.001606	0.001689	28.0803	0.065905	0.002069	31.8522	-164.495	-169.954	-0.009164	0.857118	-0.222998	-0.224350	-0.017285	31.8522	-0.222591	-305.509	5.657730E-5	NaN
1189	1.000000	0.866465	7.37668e+06	-56139.1	1105.82	-29739.6	0.000000	0.000000	6.867090	-0.040538	NaN	0.000000	0.001559	0.001702	28.0802	0.059185	0.002024	29.2347	131.297	-161.99	-0.069148	0.865132	-0.215004	-0.216336	-0.040538	29.2347	-0.213964	-222.245	0.000182	NaN
1189	1.000000	0.874461	7.37668e+06	-56139.1	1105.82	-29739.6	0.000000	0.000000	6.875089	0.040753	NaN	0.000000	0.001563	0.001689	28.0801	0.077243	0.002089	36.979	6.179065	-166.307	0.059889	0.873178	-0.207008	-0.208290	0.040753	36.979	-0.207834	-176.884	-0.000230	NaN
1189	1.000000	0.882473	7.37668e+06	-56139.1	1105.82	-29739.6	0.000000	0.000000	6.883099	-0.025460	NaN	0.000000	0.001542	0.001690	28.0804	0.019210	0.001889	10.1697	-89.4166	-167.631	0.015826	0.881169	-0.198996	-0.200299	-0.025460	10.1697	-0.197118	-118.094	0.000216	NaN
1189	1.000000	0.890494	7.37668e+06	-56139.1	1105.82	-29739.6	0.000000	0.000000	6.891118	-0.068409	NaN	0.000000	0.001541	0.001721	28.0802	0.056893	0.001930	29.4857	-174.316	-163.964	-0.055820	0.889190	-0.190974	-0.192278	-0.068409	29.4857	-0.189234	-87.343	0.000783	NaN
1189	1.000000	0.898454	7.37668e+06	-56139.1	1105.82	-29739.6	0.000000	0.000000	6.899081	0.004448	NaN	0.000000	0.001554	0.001723	28.0804	0.088046	0.002023	43.52	-163.789	-168.733	-0.030572	0.897163	-0.183014	-0.184305	0.004448	43.52	-0.183091	-68.8499	-6.460339E-5	NaN
1189	1.000000	0.906458	7.37668e+06	-56139.1	1105.82	-29739.6	0.000000	0.000000	6.907087	0.044650	NaN	0.000000	0.001577	0.001670	28.0815	0.036283	0.002003	18.1186	52.7261	-165.825	0.016626	0.905179	-0.175010	-0.176289	0.044650	18.1186	-0.176859	-53.9335	-0.000828	NaN
1189	1.000000	0.914472	7.37668e+06	-56139.1	1105.82	-29739.6	0.000000	0.000000	6.915099	0.006612	NaN	0.000000	0.001580	0.001672	28.0814	0.065799	0.001963	33.5234	-87.2756	-163.88	-0.065801	0.913147	-0.166996	-0.168322	0.006612	33.5234	-0.167144	-36.6326	-0.000180	NaN
1189	1.000000	0.922480	7.37668e+06	-56139.1	1105.82	-29739.6	0.000000	0.000000	6.923107	-0.017481	NaN	0.000000	0.001547	0.001686	28.0814	0.097119	0.001951	49.7705	141.643	-166.295	-0.062451	0.921147	-0.158988	-0.160322	-0.017481	49.7705	-0.158725	-26.0188	0.000672	NaN
1189	1.000000	0.930500	7.37668e+06	-56139.1	1105.82	-29739.6	0.000000	0.000000	6.931129	0.054044	NaN	0.000000	0.001594	0.001692	28.0815	0.042487	0.001997	21.2712	-110.385	-163.963	0.049372	0.929223	-0.150969	-0.152246	0.054044	21.2712	-0.152874	-20.4277	-0.002646	NaN
1189	1.000000	0.938490	7.37668e+06	-56139.1	1105.82	-29739.6	0.000000	0.000000	6.939114	-0.059346	NaN	0.000000	0.001559	0.001695	28.0819	0.135579	0.002064	65.6906	117.694	-165.662	-0.144380	0.937152	-0.142979	-0.144316	-0.059346	65.6906	-0.142301	-13.0629	0.004543	NaN
1189	1.000000	0.946485	7.37668e+06	-56139.1	1105.82	-29739.6	0.000000	0.000000	6.947115	0.056449	NaN	0.000000	0.001613	0.001691	28.0817	0.112771	0.001996	56.5079	46.4504	-167.152	-0.052311	0.945147	-0.134983	-0.136322	0.056449	56.5079	-0.135732	-9.823186	-0.005747	NaN
1189	1.000000	0.954496	7.37668e+06	-56139.1	1105.82	-29739.6	0.000000	0.000000	6.955122	-0.010791	NaN	0.000000	0.001552	0.001695	28.0816	0.099473	0.001970	50.4825	-66.8579	-166.89	-0.115773	0.953155	-0.126973	-0.128314	-0.010791	50.4825	-0.126812	-6.602880	0.001634	NaN
1189	1.000000	0.962499	7.37668e+06	-56139.1	1105.82	-29739.6	0.000000	0.000000	6.963123	-0.071487	NaN	0.000000	0.001575	0.001718	28.0812	0.032720	0.001959	16.6992	96.9335	-169.21	-0.090841	0.961227	-0.118969	-0.120241	-0.071487	16.6992	-0.115759	-3.960192	0.018051	NaN
1189	1.000000	0.970508	7.37668e+06	-56139.1	1105.82	-29739.6	0.000000	0.000000	6.971133	-0.047569	NaN	0.000000	0.001582	0.001674	28.0813	0.102161	0.002069	49.3884	22.2524	-164.356	-0.012176	0.969155	-0.110960	-0.112314	-0.047569	49.3884	-0.110238	-3.040049	0.015647	NaN
1189	1.000000	0.978514	7.37668e+06	-56139.1	1105.82	-29739.6	0.000000	0.000000	6.979142	0.010405	NaN	0.000000	0.001601	0.001701	28.0818	0.079226	0.002001	39.5862	-81.7393	-167.962	0.040374	0.977188	-0.102954	-0.104280	0.010405	39.5862	-0.103151	-2.143132	-0.004855	NaN
1189	1.000000	0.986531	7.37668e+06	-56139.1	1105.82	-29739.6	0.000000	0.000000	6.987157	-0.021579	NaN	0.000000	0.001582	0.001695	28.0815	0.089914	0.001900	47.3213	-131.795	-168.472	0.032574	0.985266	-0.094938	-0.096202	-0.021579	47.3213	-0.094596	-1.380994	0.015626	NaN
1189	1.000000	0.994511	7.37668e+06	-56139.1	1105.82	-29739.6	0.000000	0.000000	6.995139	0.019318	NaN	0.000000	0.001600	0.001699	28.0818	0.125181	0.002020	61.9822	79.2007	-167.025	0.008440	0.993171	-0.086958	-0.088297	0.019318	61.9822	-0.087191	-0.927573	-0.020827	NaN
1189	1.000000	1.002498	7.37668e+06	-56139.1	1105.82	-29739.6	0.000000	0.000000	7.003124	-0.010287	NaN	0.000000	0.001571	0.001727	28.0815	0.070486	0.002134	33.0294	-90.3563	-166.088	-0.041935	1.001182	-0.078971	-0.080287	-0.010287	33.0294	-0.078737	-0.575401	0.017879	NaN
1189	1.000000	1.010480	7.37668e+06	-56139.1	1105.82	-29739.6	0.000000	0.000000	7.011104	-0.065016	NaN	0.000000	0.001571	0.001662	28.0817	0.103515	0.001983	52.2075	-132.587	-164.203	-0.047907	1.009198	-0.070989	-0.072271	-0.065016	52.2075	-0.070055	-0.342256	0.189962	NaN
1189	1.000000	1.018530	7.37668e+06	-56139.1	1105.82	-29739.6	0.000000	0.000000	7.019159	0.048471	NaN	0.000000	0.001548	0.001684	28.0815	0.102401	0.001900	53.9079	46.4911	-164.779	0.078961	1.017236	-0.062939	-0.064232	0.048471	53.9079	-0.063613	-0.227990	-0.212602	NaN
1189	1.000000	1.026531	7.37668e+06	-56139.1	1105.82	-29739.6	0.000000	0.000000	7.027160	0.041114	NaN	0.000000	0.001521	0.001710	28.0815	0.091429	0.001940	47.1229	-97.5473	-165.113	-0.028018	1.025233	-0.054937	-0.056235	0.041114	47.1229	-0.055592	-0.134060	-0.306681	NaN
1189	1.000000	1.034528	7.37668e+06	-56139.1	1105.82	-29739.6	0.000000	0.000000	7.035157	0.034189	NaN	0.000000	0.001555	0.001704	28.0818	0.018403	0.001937	9.498712	48.3024	-168.081	-0.007510	1.033227	-0.046940	-0.048241	0.034189	9.498712	-0.049640	-0.088988	-0.384196	NaN
1189	1.000000	1.042539	7.37668e+06	-56139.1	1105.82	-29739.6	0.000000	0.000000	7.043165	-0.030504	NaN	0.000000	0.001562	0.001691	28.0802	0.068772	0.002059	33.4076	8.664279	-166.424	-0.020286	1.041226	-0.038929	-0.040243	-0.030504	33.4076	-0.038244	-0.040014	0.762328	NaN
1189	1.000000	1.050539	7.37668e+06	-56139.1	1105.82	-29739.6	0.000000	0.000000	7.051166	-0.001774	NaN	0.000000	0.001567	0.001690	28.0805	0.101528	0.001967	51.611	24.7647	-164.161	-0.008133	1.049205	-0.030929	-0.032264	-0.001774	51.611	-0.030904	-0.024395	0.072715	NaN
1189	1.000000	1.058534	7.37668e+06	-56139.1	1105.82	-29739.6	0.000000	0.000000	7.059161	0.010354	NaN	0.000000	0.001566	0.001710	28.0802	0.055219	0.002122	26.0229	162.069	-160.812	0.010930	1.057264	-0.022934	-0.024204	0.010354	26.0229	-0.023233	-0.015184	-0.681900	NaN
1189	1.000000	1.066529	7.37668e+06	-56139.1	1105.82	-29739.6	0.000000	0.000000	7.067156	-0.005568	NaN	0.000000	0.001564	0.001768	28.0802	0.108021	0.001856	58.2056	-93.7826	-165.344	-0.027713	1.065172	-0.014940	-0.016296	-0.005568	58.2056	-0.014868	-0.009196	0.605405	NaN
1189	1.000000	1.074566	7.37668e+06	-56139.1	1105.82	-29739.6	0.000000	0.000000	7.075203	0.231583	NaN	0.000000	0.001546	0.001770	28.0804	0.251654	0.002022	124.449	4.543606	-164.762	0.021304	1.073202	-0.006902	-0.008266	0.231583	124.449	-0.008298	-0.005406	-42.8418	NaN
1189	1.000000	1.082432	7.37668e+06	-56139.1	1105.82	-29739.6	0.000000	0.000000	7.083369	7.533167	NaN	0.000000	0.001523	0.001755	28.0803	6.053809	0.001762	3435.01	12.1193	-171.54	5.749037	1.081174	0.000964	-0.000294	7.533167	3435.01	-0.000681	-0.000502	-15003.8	NaN
1189	2.000000	1.085218	7.37668e+06	-56139.1	1105.82	-29739.6	0.000000	0.000000	7.086330	11.7818	NaN	0.000000	0.001564	0.001701	28.0806	8.300296	0.001727	4806.3	7.577529	-174.434	10.9391	1.084891	0.003749	0.003422	11.7818	4806.3	0.001911	0.001483	7944.8	114030
1189	2.000000	1.087182	7.37668e+06	-56139.1	1105.82	-29739.6	0.000000	0.000000	7.088387	14.0554	NaN	0.000000	0.001539	0.001745	28.0803	9.816920	0.001822	5387.1	5.251502	-171.854	13.3793	1.086845	0.005713	0.005376	14.0554	5387.1	0.003756	0.003026	4644.19	89466.8
1189	2.000000	1.089225	7.37668e+06	-56139.1	1105.82	-29739.6	0.000000	0.000000	7.090578	17.6503	NaN	0.000000	0.001534	0.001739	28.0803	11.8558	0.001861	6370	5.441921	-173.088	16.6222	1.088896	0.007757	0.007428	17.6503	6370	0.005679	0.004761	3707.08	84343.7
1189	2.000000	1.091226	7.37668e+06	-56139.1	1105.82	-29739.6	0.000000	0.000000	7.092756	21.9629	NaN	0.000000	0.001556	0.001733	28.0804	13.2859	0.001774	7489.38	9.120165	-176.136	22.9252	1.090865	0.009757	0.009397	21.9629	7489.38	0.007558	0.006591	3332.06	84281.2
1189	2.000000	1.093172	7.37668e+06	-56139.1	1105.82	-29739.6	0.000000	0.000000	7.094921	27.2836	NaN	0.000000	0.001581	0.001738	28.0802	15.5021	0.001745	8881.63	3.035677	-173.178	26.5749	1.092819	0.011704	0.011351	27.2836	8881.63	0.009400	0.008522	3201.58	87901.8
1189	2.000000	1.095137	7.37668e+06	-56139.1	1105.82	-29739.6	0.000000	0.000000	7.097095	32.3565	NaN	0.000000	0.001595	0.001729	28.0815	17.4499	0.001594	10946	7.534191	-179.579	31.434	1.094857	0.013668	0.013389	32.3565	10946	0.011451	0.010840	2985.05	96055.9
1189	2.000000	1.097181	7.37668e+06	-56139.1	1105.82	-29739.6	0.000000	0.000000	7.099357	37.6623	NaN	0.000000	0.001607	0.001716	28.0802	20.1172	0.001777	11320.1	6.044458	-177.925	37.3222	1.096793	0.015713	0.015324	37.6623	11320.1	0.013217	0.012981	2901.31	90775.4
1189	2.000000	1.099193	7.37668e+06	-56139.1	1105.82	-29739.6	0.000000	0.000000	7.101557	42.2286	NaN	0.000000	0.001558	0.001728	28.0806	22.4058	0.001812	12361.8	8.036462	179.945	42.1665	1.098828	0.017724	0.017360	42.2286	12361.8	0.015162	0.015502	2724.05	90711
1189	2.000000	1.101097	7.37668e+06	-56139.1	1105.82	-29739.6	0.000000	0.000000	7.103655	46.9332	NaN	0.000000	0.001563	0.001702	28.0805	24.1056	0.001889	12762.7	9.492309	178.737	45.8293	1.100793	0.019628	0.019324	46.9332	12762.7	0.016870	0.017861	2627.71	87249.5
1189	2.000000	1.103187	7.37668e+06	-56139.1	1105.82	-29739.6	0.000000	0.000000	7.105851	49.5112	NaN	0.000000	0.001578	0.001691	28.0803	25.3104	0.001876	13490.4	2.747659	-175.064	49.9801	1.102882	0.021719	0.021414	49.5112	13490.4	0.018966	0.020944	2364.01	85167.2
1189	2.000000	1.105131	7.37668e+06	-56139.1	1105.82	-29739.6	0.000000	0.000000	7.108204	59.4547	NaN	0.000000	0.001575	0.001690	28.0807	26.9156	0.001758	15308.2	7.717055	179.114	59.0525	1.104767	0.023663	0.023299	59.4547	15308.2	0.020750	0.023735	2504.95	90782.9
1189	2.000000	1.107148	7.37668e+06	-56139.1	1105.82	-29739.6	0.000000	0.000000	7.110279	60.8804	NaN	0.000000	0.001585	0.001728	28.0816	29.1822	0.001787	16327.2	5.960176	-179.856	61.2166	1.106870	0.025679	0.025402	60.8804	16327.2	0.022883	0.027276	2231.98	90321.5
1189	2.000000	1.109135	7.37668e+06	-56139.1	1105.82	-29739.6	0.000000	0.000000	7.112449	65.3104	NaN	0.000000	0.001590	0.001718	28.0816	30.8658	0.001815	17007	3.336458	-177.899	63.4027	1.108831	0.027667	0.027363	65.3104	17007	0.024786	0.030628	2132.35	88785
1189	2.000000	1.111187	7.37668e+06	-56139.1	1105.82	-29739.6	0.000000	0.000000	7.114692	69.9525	NaN	0.000000	0.001569	0.001692	28.0817	32.8317	0.001758	18677.9	7.953344	177.179	72.0637	1.110894	0.029719	0.029425	69.9525	18677.9	0.026910	0.034582	2022.8	91764.5
1189	2.000000	1.113089	7.37668e+06	-56139.1	1105.82	-29739.6	0.000000	0.000000	7.116774	74.3431	NaN	0.000000	0.001571	0.001737	28.0814	34.8554	0.001815	19203.6	6.084126	177.378	72.4271	1.112880	0.031621	0.031412	74.3431	19203.6	0.028717	0.038127	1949.9	89855
1189	2.000000	1.115118	7.37668e+06	-56139.1	1105.82	-29739.6	0.000000	0.000000	7.119031	79.8793	NaN	0.000000	0.001576	0.001767	28.0826	36.2683	0.001915	18943.6	9.187934	174.975	80.315	1.114868	0.033649	0.033399	79.8793	18943.6	0.030487	0.041759	1912.87	84695.9
1189	2.000000	1.117114	7.37668e+06	-56139.1	1105.82	-29739.6	0.000000	0.000000	7.121332	87.2963	NaN	0.000000	0.001600	0.001705	28.0814	37.7888	0.001799	21004.8	3.974605	179.49	85.855	1.116775	0.035645	0.035307	87.2963	21004.8	0.032528	0.046147	1891.69	89334.1
1189	2.000000	1.119111	7.37668e+06	-56139.1	1105.82	-29739.6	0.000000	0.000000	7.123681	95.8508	NaN	0.000000	0.001586	0.001711	28.0819	40.0154	0.001860	21519.2	3.770141	-179.872	93.4642	1.118720	0.037642	0.037252	95.8508	21519.2	0.034301	0.050132	1911.97	87809.4
1189	2.000000	1.121051	7.37668e+06	-56139.1	1105.82	-29739.6	0.000000	0.000000	7.125748	98.9115	NaN	0.000000	0.001591	0.001693	28.0817	41.3691	0.001852	22333.6	5.420263	177.741	96.4131	1.120754	0.039583	0.039286	98.9115	22333.6	0.036261	0.054724	1807.46	87225.4
1189	2.000000	1.123056	7.37668e+06	-56139.1	1105.82	-29739.6	0.000000	0.000000	7.128231	110.546	NaN	0.000000	0.001568	0.001755	28.0816	43.978	0.001771	24831.2	8.318930	174.058	108.173	1.122669	0.041588	0.041201	110.546	24831.2	0.038249	0.059581	1855.4	92943.3
1189	2.000000	1.125062	7.37668e+06	-56139.1	1105.82	-29739.6	0.000000	0.000000	7.130511	117.204	NaN	0.000000	0.001613	0.001759	28.0818	43.8018	0.001740	25179	2.422214	178.909	114.443	1.124728	0.043594	0.043260	117.204	25179	0.040103	0.064294	1822.94	90724.9
1189	2.000000	1.127100	7.37668e+06	-56139.1	1105.82	-29739.6	0.000000	0.000000	7.132787	123.013	NaN	0.000000	0.001593	0.001745	28.0816	45.9429	0.001658	27715.2	1.219041	179.297	123.425	1.126754	0.045631	0.045286	123.013	27715.2	0.042302	0.070114	1754.47	95628.8
1189	2.000000	1.129109	7.37668e+06	-56139.1	1105.82	-29739.6	0.000000	0.000000	7.135152	131.653	NaN	0.000000	0.001581	0.001756	28.0821	48.3723	0.001751	27623.7	1.065793	-179.803	128.882	1.128840	0.047640	0.047372	131.653	27623.7	0.044066	0.074957	1756.36	92182.3
1189	2.000000	1.131109	7.37668e+06	-56139.1	1105.82	-29739.6	0.000000	0.000000	7.137432	138.454	NaN	0.000000	0.001553	0.001707	28.0817	50.3694	0.001845	27299.2	2.850051	178.082	138.283	1.130841	0.049640	0.049373	138.454	27299.2	0.045836	0.079980	1731.11	88192.7
1189	2.000000	1.133092	7.37668e+06	-56139.1	1105.82	-29739.6	0.000000	0.000000	7.139794	147.669	NaN	0.000000	0.001590	0.001700	28.0816	53.0462	0.001886	28127.8	6.638086	174.881	146.687	1.132696	0.051623	0.051227	147.669	28127.8	0.047686	0.085395	1729.26	87941.3
1189	2.000000	1.135055	7.37668e+06	-56139.1	1105.82	-29739.6	0.000000	0.000000	7.142041	154.575	NaN	0.000000	0.001568	0.001673	28.0817	53.9783	0.001895	28488.8	5.098951	175.289	151.816	1.134676	0.053587	0.053208	154.575	28488.8	0.049517	0.090927	1699.98	86317.9
1189	2.000000	1.137045	7.37668e+06	-56139.1	1105.82	-29739.6	0.000000	0.000000	7.144472	165.284	NaN	0.000000	0.001564	0.001717	28.0817	56.9317	0.001903	29924.7	5.820520	174.274	161.396	1.136695	0.055577	0.055226	165.284	29924.7	0.051434	0.096897	1705.76	87830.7
1189	2.000000	1.139074	7.37668e+06	-56139.1	1105.82	-29739.6	0.000000	0.000000	7.146690	169.87	NaN	0.000000	0.001575	0.001716	28.082	57.3737	0.001781	32212.9	4.196666	175.505	169.139	1.138787	0.057606	0.057318	169.87	32212.9	0.053651	0.104031	1632.89	91247.7
1189	2.000000	1.141093	7.37668e+06	-56139.1	1105.82	-29739.6	0.000000	0.000000	7.149160	180.848	NaN	0.000000	0.001629	0.001679	28.0805	58.1337	0.001788	32515.3	6.239016	173.614	180.746	1.140820	0.059625	0.059351	180.848	32515.3	0.055453	0.110012	1643.9	89565.8
1189	2.000000	1.143034	7.37668e+06	-56139.1	1105.82	-29739.6	0.000000	0.000000	7.151561	192.034	NaN	0.000000	0.001605	0.001729	28.0803	60.5329	0.001878	32226.5	5.886907	173.7	189.132	1.142802	0.061565	0.061334	192.034	32226.5	0.057096	0.115602	1661.16	86597
1189	2.000000	1.145081	7.37668e+06	-56139.1	1105.82	-29739.6	0.000000	0.000000	7.154004	201.674	NaN	0.000000	0.001611	0.001690	28.0803	60.9807	0.001809	33704.7	6.117297	173.803	202.245	1.144716	0.063612	0.063248	201.674	33704.7	0.059125	0.122688	1643.8	87914.9
1189	2.000000	1.146997	7.37668e+06	-56139.1	1105.82	-29739.6	0.000000	0.000000	7.156236	209.356	NaN	0.000000	0.001611	0.001698	28.0802	62.5087	0.001714	36459.3	1.487929	177.17	206.014	1.146837	0.065528	0.065368	209.356	36459.3	0.061222	0.130225	1607.65	92306.9
1189	2.000000	1.149086	7.37668e+06	-56139.1	1105.82	-29739.6	0.000000	0.000000	7.158728	219.135	NaN	0.000000	0.001597	0.001662	28.0808	65.7198	0.001863	35283.5	3.786631	176.226	218.971	1.148746	0.067618	0.067278	219.135	35283.5	0.062960	0.136635	1603.8	87209.6
1189	2.000000	1.150970	7.37668e+06	-56139.1	1105.82	-29739.6	0.000000	0.000000	7.160905	226.238	NaN	0.000000	0.001605	0.001678	28.0802	67.7907	0.001888	35909.9	6.018871	173.45	220.224	1.150647	0.069502	0.069179	226.238	35909.9	0.064777	0.143493	1576.65	86610.8
1189	2.000000	1.153049	7.37668e+06	-56139.1	1105.82	-29739.6	0.000000	0.000000	7.163167	230.688	NaN	0.000000	0.001576	0.001716	28.0803	70.2511	0.001742	40339.3	3.952867	173.67	228.142	1.152819	0.071581	0.071351	230.688	40339.3	0.067292	0.153246	1505.34	94147
1189	2.000000	1.154989	7.37668e+06	-56139.1	1105.82	-29739.6	0.000000	0.000000	7.165679	244.619	NaN	0.000000	0.001566	0.001687	28.0802	70.6553	0.001804	39161.7	3.016342	174.825	240.997	1.154773	0.073520	0.073305	244.619	39161.7	0.068835	0.159383	1534.79	89621.9
1189	2.000000	1.157120	7.37668e+06	-56139.1	1105.82	-29739.6	0.000000	0.000000	7.168413	259.256	NaN	0.000000	0.001590	0.001735	28.0801	73.5458	0.001890	38904.1	5.036439	174.276	260.79	1.156606	0.075652	0.075138	259.256	38904.1	0.070654	0.166758	1554.69	87041.4
1189	2.000000	1.159162	7.37668e+06	-56139.1	1105.82	-29739.6	0.000000	0.000000	7.170846	268.747	NaN	0.000000	0.001568	0.001730	28.0804	75.4562	0.001735	43492.8	5.772493	171.934	272.746	1.158688	0.077694	0.077219	268.747	43492.8	0.073060	0.176757	1520.43	94515.3
1189	2.000000	1.161082	7.37668e+06	-56139.1	1105.82	-29739.6	0.000000	0.000000	7.173430	284.895	NaN	0.000000	0.001595	0.001721	28.0802	76.6091	0.001706	44915.2	9.468779	168.823	283.545	1.160674	0.079614	0.079206	284.895	44915.2	0.074856	0.184403	1544.96	95561.6
1189	2.000000	1.163090	7.37668e+06	-56139.1	1105.82	-29739.6	0.000000	0.000000	7.175685	290.901	NaN	0.000000	0.001577	0.001710	28.0803	79.2989	0.001774	44708.7	5.934624	171.645	293.748	1.162746	0.081622	0.081277	290.901	44708.7	0.076742	0.192589	1510.48	93078.4
1189	2.000000	1.164991	7.37668e+06	-56139.1	1105.82	-29739.6	0.000000	0.000000	7.177975	300.359	NaN	0.000000	0.001578	0.001745	28.08	80.0425	0.001734	46166.8	5.630247	171.023	295.245	1.164764	0.083523	0.083296	300.359	46166.8	0.078643	0.201013	1494.22	94078.5
1189	2.000000	1.167015	7.37668e+06	-56139.1	1105.82	-29739.6	0.000000	0.000000	7.180836	320.71	NaN	0.000000	0.001611	0.001697	28.0802	82.8731	0.001897	43694.4	3.036464	174.871	319.076	1.166683	0.085546	0.085215	320.71	43694.4	0.080041	0.207316	1546.96	87676.2
1189	2.000000	1.169071	7.37668e+06	-56139.1	1105.82	-29739.6	0.000000	0.000000	7.183215	328.558	NaN	0.000000	0.001585	0.001711	28.0803	84.541	0.001812	46658.3	4.180753	172.65	328.056	1.168858	0.087603	0.087390	328.558	46658.3	0.082321	0.217789	1508.61	91345
1189	2.000000	1.171002	7.37668e+06	-56139.1	1105.82	-29739.6	0.000000	0.000000	7.185810	344.68	NaN	0.000000	0.001553	0.001735	28.0803	85.644	0.001847	46367.7	5.310967	172.15	342.301	1.170736	0.089534	0.089268	344.68	46367.7	0.083959	0.225460	1528.78	89218.3
1189	2.000000	1.173038	7.37668e+06	-56139.1	1105.82	-29739.6	0.000000	0.000000	7.188348	356.924	NaN	0.000000	0.001492	0.001737	28.0805	86.1804	0.001677	51390.1	1.003684	175.732	357.369	1.172654	0.091569	0.091186	356.924	51390.1	0.086360	0.236933	1506.43	96458.4
1189	2.000000	1.175079	7.37668e+06	-56139.1	1105.82	-29739.6	0.000000	0.000000	7.190857	368.277	NaN	0.000000	0.001527	0.001727	28.0815	87.2662	0.001801	48458.4	6.474589	171.281	368.723	1.174789	0.093611	0.093321	368.277	48458.4	0.087911	0.244484	1506.35	89540.1
1189	2.000000	1.177088	7.37668e+06	-56139.1	1105.82	-29739.6	0.000000	0.000000	7.193660	387.569	NaN	0.000000	0.001528	0.001723	28.0816	89.2476	0.001844	48394.6	4.873564	172.729	387.987	1.176593	0.095620	0.095124	387.569	48394.6	0.089613	0.252899	1532.5	87921.8
1189	2.000000	1.179135	7.37668e+06	-56139.1	1105.82	-29739.6	0.000000	0.000000	7.195416	380.508	NaN	0.000000	0.001527	0.001715	28.0815	91.1197	0.001853	49166.2	2.213076	174.295	382.787	1.178994	0.097667	0.097526	380.508	49166.2	0.091862	0.264220	1440.12	87389
1189	2.000000	1.181119	7.37668e+06	-56139.1	1105.82	-29739.6	0.000000	0.000000	7.198854	415.844	NaN	0.000000	0.001549	0.001734	28.0815	92.6385	0.001735	53405.7	7.987655	169.161	420.14	1.180609	0.099651	0.099141	415.844	53405.7	0.093811	0.274219	1516.47	93177.7
1189	2.000000	1.181998	7.37668e+06	-56139.1	1105.82	-29739.6	0.000000	0.000000	7.199763	416.592	NaN	0.000000	0.001587	0.001747	28.0815	92.5679	0.001701	54412.8	3.878563	172.215	411.672	1.181733	0.100529	0.100265	416.592	54412.8	0.094787	0.279293	1491.6	94068.5