File: remote_trans/data/nanoindenter/0828-1/data/Data_2025-08-06,11h17m57s/2025-07-22_16-23-58_1_529.txt
2025-07-22, 16:23:58, 1
Index	Phase	Displacement	Time	Pos X	Pos Y	Pos Z	Rot A	Rot B	Piezo Z	Force A	Force B	Gripper	Voltage A	Voltage B	Temperature	Amplitude force	Amplitude pos	Stiffness	Phase shift	Phase excitation	Force A raw	Displacement raw	HMax	HMax raw	Real Force	Real Stiffness	Contact Depth	Area	Hardness	Reduced Mod.
[#]	[#]	[um]	[s]	[um]	[um]	[um]	[m°]	[m°]	[um]	[uN]	[uN]	[V]	[V]	[V]	[°C]	[uN]	[um]	[N/m]	[°]	[°]	[uN]	[um]	[um]	[um]	[uN]	[N/m]	[um]	[um^2]	[MPa]	[MPa]
529	1.000000	0.002675	7.37022e+06	-50639.1	1005.82	-29755	0.000000	0.000000	6.002788	-0.009237	NaN	0.000000	0.001652	0.001733	28.0837	0.127131	0.000887	143.287	-77.3331	-166.28	0.006523	0.001442	-1.145650	-1.146882	-0.009237	143.287	-1.145601	-2.050429E+15	4.504993E-18	NaN
529	1.000000	0.012741	7.37022e+06	-50639.1	1005.82	-29755	0.000000	0.000000	6.012859	0.091545	NaN	0.000000	0.001645	0.001712	28.0834	0.069539	0.001205	57.6995	-24.0753	14.5385	-0.010734	0.011351	-1.135583	-1.136974	0.091545	57.6995	-1.136773	-1.561207E+15	-5.863761E-17	NaN
529	1.000000	0.022649	7.37022e+06	-50639.1	1005.82	-29755	0.000000	0.000000	6.022761	-0.047388	NaN	0.000000	0.001635	0.001744	28.0835	0.105563	0.001503	70.2122	-57.5846	-161.827	-0.006623	0.021301	-1.125676	-1.127023	-0.047388	70.2122	-1.125170	-1.091006E+15	4.343492E-17	NaN
529	1.000000	0.032601	7.37022e+06	-50639.1	1005.82	-29755	0.000000	0.000000	6.032716	0.018202	NaN	0.000000	0.001656	0.001768	28.0834	0.015399	0.002037	7.558718	145.944	15.34	0.012629	0.031246	-1.115723	-1.117078	0.018202	7.558718	-1.117529	-8.616275E+14	-2.112547E-17	NaN
529	1.000000	0.042649	7.37022e+06	-50639.1	1005.82	-29755	0.000000	0.000000	6.042765	0.033828	NaN	0.000000	0.001662	0.001774	28.0835	0.043585	0.001966	22.1736	-124.373	-166.102	0.069556	0.041345	-1.105675	-1.106979	0.033828	22.1736	-1.106819	-6.188707E+14	-5.466153E-17	NaN
529	1.000000	0.052662	7.37022e+06	-50639.1	1005.82	-29755	0.000000	0.000000	6.052776	0.012831	NaN	0.000000	0.001644	0.001759	28.0835	0.111183	0.001863	59.6704	-9.770061	16.1556	0.012662	0.051277	-1.095662	-1.097047	0.012831	59.6704	-1.095824	-4.405588E+14	-2.912486E-17	NaN
529	1.000000	0.062645	7.37022e+06	-50639.1	1005.82	-29755	0.000000	0.000000	6.062762	0.082986	NaN	0.000000	0.001662	0.001810	28.0836	0.134508	0.002017	66.6889	-4.506647	-168.629	0.074208	0.061314	-1.085679	-1.087010	0.082986	66.6889	-1.086613	-3.313798E+14	-2.504245E-16	NaN
529	1.000000	0.072623	7.37022e+06	-50639.1	1005.82	-29755	0.000000	0.000000	6.072738	0.024931	NaN	0.000000	0.001637	0.001776	28.0836	0.042808	0.001944	22.0241	55.3146	15.5276	0.021724	0.071310	-1.075701	-1.077014	0.024931	22.0241	-1.076550	-2.427650E+14	-1.026971E-16	NaN
529	1.000000	0.082647	7.37022e+06	-50639.1	1005.82	-29755	0.000000	0.000000	6.082761	0.019250	NaN	0.000000	0.001639	0.001791	28.0835	0.077998	0.002038	38.2655	-49.5591	-163.964	0.133247	0.081282	-1.065678	-1.067042	0.019250	38.2655	-1.066055	-1.754631E+14	-1.097077E-16	NaN
529	1.000000	0.092671	7.37022e+06	-50639.1	1005.82	-29755	0.000000	0.000000	6.092790	0.123469	NaN	0.000000	0.001644	0.001761	28.0836	0.096802	0.002080	46.5355	42.2909	17.2563	0.054427	0.091267	-1.055654	-1.057058	0.123469	46.5355	-1.057644	-1.352549E+14	-9.128639E-16	NaN
529	1.000000	0.102664	7.37022e+06	-50639.1	1005.82	-29755	0.000000	0.000000	6.102778	-0.000736	NaN	0.000000	0.001614	0.001773	28.0836	0.052594	0.001949	26.9804	149.208	-166.754	-0.044903	0.101362	-1.045660	-1.046963	-0.000736	26.9804	-1.045640	-9.328120E+13	7.893410E-18	NaN
529	1.000000	0.112645	7.37022e+06	-50639.1	1005.82	-29755	0.000000	0.000000	6.112762	0.075583	NaN	0.000000	0.001667	0.001750	28.0823	0.062134	0.002038	30.4856	143.28	9.903200	0.078209	0.111299	-1.035679	-1.037026	0.075583	30.4856	-1.037539	-7.258876E+13	-1.041247E-15	NaN
529	1.000000	0.122677	7.37022e+06	-50639.1	1005.82	-29755	0.000000	0.000000	6.122793	0.049207	NaN	0.000000	0.001643	0.001744	28.0824	0.042561	0.001914	22.2422	-47.5569	-166.059	0.089360	0.121367	-1.025647	-1.026957	0.049207	22.2422	-1.027306	-5.287437E+13	-9.306461E-16	NaN
529	1.000000	0.132662	7.37022e+06	-50639.1	1005.82	-29755	0.000000	0.000000	6.132776	-0.005769	NaN	0.000000	0.001643	0.001712	28.0825	0.034506	0.002124	16.2469	18.6781	13.5194	0.092146	0.131298	-1.015662	-1.017027	-0.005769	16.2469	-1.015396	-3.655981E+13	1.577885E-16	NaN
529	1.000000	0.142681	7.37022e+06	-50639.1	1005.82	-29755	0.000000	0.000000	6.142794	-0.003571	NaN	0.000000	0.001646	0.001713	28.0824	0.021415	0.001919	11.1613	6.730173	-162.445	0.021999	0.141354	-1.005644	-1.006970	-0.003571	11.1613	-1.005404	-2.682355E+13	1.331297E-16	NaN
529	1.000000	0.152681	7.37022e+06	-50639.1	1005.82	-29755	0.000000	0.000000	6.152797	0.046786	NaN	0.000000	0.001641	0.001762	28.082	0.038757	0.001935	20.0322	71.1394	20.4571	0.013438	0.151317	-0.995643	-0.997007	0.046786	20.0322	-0.997395	-2.092629E+13	-2.235768E-15	NaN
529	1.000000	0.162694	7.37022e+06	-50639.1	1005.82	-29755	0.000000	0.000000	6.162809	0.040320	NaN	0.000000	0.001642	0.001760	28.0823	0.092211	0.001938	47.584	-124.385	-164.305	0.090917	0.161378	-0.985631	-0.986946	0.040320	47.584	-0.986266	-1.481904E+13	-2.720798E-15	NaN
529	1.000000	0.172651	7.37022e+06	-50639.1	1005.82	-29755	0.000000	0.000000	6.172764	-0.016333	NaN	0.000000	0.001636	0.001791	28.0822	0.121041	0.001910	63.3573	30.2436	16.0724	0.023326	0.171381	-0.975673	-0.976944	-0.016333	63.3573	-0.975480	-1.060497E+13	1.540166E-15	NaN
529	1.000000	0.182676	7.37022e+06	-50639.1	1005.82	-29755	0.000000	0.000000	6.182792	0.046375	NaN	0.000000	0.001644	0.001706	28.0821	0.080341	0.002067	38.8734	0.225387	-165.903	-0.004994	0.181383	-0.965648	-0.966942	0.046375	38.8734	-0.966543	-8.036472E+12	-5.770566E-15	NaN
529	1.000000	0.192692	7.37022e+06	-50639.1	1005.82	-29755	0.000000	0.000000	6.192805	-0.010232	NaN	0.000000	0.001650	0.001740	28.0823	0.092463	0.001859	49.7426	-103.566	14.1616	0.005175	0.191349	-0.955633	-0.956976	-0.010232	49.7426	-0.955478	-5.700412E+12	1.794882E-15	NaN
529	1.000000	0.202706	7.37022e+06	-50639.1	1005.82	-29755	0.000000	0.000000	6.202819	-0.011181	NaN	0.000000	0.001608	0.001792	28.0826	0.122279	0.001951	62.6631	-21.8428	-164.988	0.010236	0.201414	-0.945619	-0.946911	-0.011181	62.6631	-0.945485	-4.179554E+12	2.675147E-15	NaN
529	1.000000	0.212667	7.37022e+06	-50639.1	1005.82	-29755	0.000000	0.000000	6.212784	0.085424	NaN	0.000000	0.001635	0.001725	28.0821	0.056509	0.002090	27.0406	-107.115	16.1342	-0.025588	0.211319	-0.935658	-0.937005	0.085424	27.0406	-0.938027	-3.315245E+12	-2.576696E-14	NaN
529	1.000000	0.222703	7.37022e+06	-50639.1	1005.82	-29755	0.000000	0.000000	6.222820	0.065540	NaN	0.000000	0.001629	0.001755	28.0822	0.072404	0.002180	33.2065	-121.682	-163.988	-0.004209	0.221405	-0.925621	-0.926919	0.065540	33.2065	-0.927102	-2.360891E+12	-2.776065E-14	NaN
529	1.000000	0.232694	7.37022e+06	-50639.1	1005.82	-29755	0.000000	0.000000	6.232811	0.079556	NaN	0.000000	0.001614	0.001761	28.0822	0.062070	0.002002	31.0078	35.6467	15.2056	0.104545	0.231314	-0.915631	-0.917010	0.079556	31.0078	-0.917555	-1.754658E+12	-4.533988E-14	NaN
529	1.000000	0.242701	7.37022e+06	-50639.1	1005.82	-29755	0.000000	0.000000	6.242818	0.067137	NaN	0.000000	0.001696	0.001755	28.0824	0.089555	0.002097	42.7085	63.5912	-163.62	0.065244	0.241383	-0.905623	-0.906941	0.067137	42.7085	-0.906802	-1.255944E+12	-5.345521E-14	NaN
529	1.000000	0.252667	7.37022e+06	-50639.1	1005.82	-29755	0.000000	0.000000	6.252784	0.073963	NaN	0.000000	0.001671	0.001749	28.0836	0.090475	0.002034	44.4765	108.244	16.5506	0.025404	0.251394	-0.895658	-0.896931	0.073963	44.4765	-0.896905	-9.230828E+11	-8.012651E-14	NaN
529	1.000000	0.262734	7.37022e+06	-50639.1	1005.82	-29755	0.000000	0.000000	6.262849	0.034263	NaN	0.000000	0.001661	0.001737	28.0835	0.063442	0.002021	31.392	13.1503	-164.958	0.093365	0.261432	-0.885590	-0.886893	0.034263	31.392	-0.886409	-6.658372E+11	-5.145790E-14	NaN
529	1.000000	0.272722	7.37022e+06	-50639.1	1005.82	-29755	0.000000	0.000000	6.272836	-0.003084	NaN	0.000000	0.001658	0.001763	28.0837	0.087326	0.001901	45.9367	109.062	13.1608	0.046851	0.271333	-0.875603	-0.876991	-0.003084	45.9367	-0.875552	-4.748460E+11	6.494198E-15	NaN
529	1.000000	0.282736	7.37022e+06	-50639.1	1005.82	-29755	0.000000	0.000000	6.282852	0.048000	NaN	0.000000	0.001662	0.001727	28.0836	0.012193	0.001902	6.411769	-150.021	-167.511	0.024334	0.281414	-0.865588	-0.866910	0.048000	6.411769	-0.871203	-4.146845E+11	-1.157517E-13	NaN
529	1.000000	0.292726	7.37022e+06	-50639.1	1005.82	-29755	0.000000	0.000000	6.292838	-0.049992	NaN	0.000000	0.001660	0.001722	28.0835	0.041928	0.002019	20.7639	28.9099	11.5786	-0.035150	0.291400	-0.855598	-0.856924	-0.049992	20.7639	-0.853792	-2.410379E+11	2.074034E-13	NaN
529	1.000000	0.302763	7.37022e+06	-50639.1	1005.82	-29755	0.000000	0.000000	6.302875	-0.034290	NaN	0.000000	0.001667	0.001704	28.0836	0.071733	0.001991	36.0203	-60.0506	-163.773	-0.084808	0.301404	-0.845562	-0.846920	-0.034290	36.0203	-0.844848	-1.823730E+11	1.880235E-13	NaN
529	1.000000	0.312747	7.37022e+06	-50639.1	1005.82	-29755	0.000000	0.000000	6.312862	0.026005	NaN	0.000000	0.001645	0.001723	28.0833	0.064217	0.001973	32.541	-84.0405	17.133	0.099369	0.311411	-0.835578	-0.836913	0.026005	32.541	-0.836177	-1.391542E+11	-1.868794E-13	NaN
529	1.000000	0.322749	7.37022e+06	-50639.1	1005.82	-29755	0.000000	0.000000	6.322864	0.018794	NaN	0.000000	0.001645	0.001707	28.0834	0.105517	0.001954	53.9926	-138.098	-163.824	-0.009307	0.321468	-0.825575	-0.826856	0.018794	53.9926	-0.825836	-1.007726E+11	-1.864976E-13	NaN
529	1.000000	0.332741	7.37022e+06	-50639.1	1005.82	-29755	0.000000	0.000000	6.332856	0.017044	NaN	0.000000	0.001672	0.001738	28.0832	0.067270	0.002124	31.6768	-139.8	16.8965	0.006265	0.331420	-0.815583	-0.816904	0.017044	31.6768	-0.815986	-7.409352E+10	-2.300371E-13	NaN
529	1.000000	0.342758	7.37022e+06	-50639.1	1005.82	-29755	0.000000	0.000000	6.342874	0.033262	NaN	0.000000	0.001647	0.001719	28.0835	0.109501	0.001965	55.7247	-131.782	-164.28	-0.007144	0.341455	-0.805566	-0.806870	0.033262	55.7247	-0.806014	-5.426022E+10	-6.130003E-13	NaN
529	1.000000	0.352729	7.37022e+06	-50639.1	1005.82	-29755	0.000000	0.000000	6.352844	0.024957	NaN	0.000000	0.001638	0.001711	28.0831	0.123698	0.002060	60.0382	29.1052	14.8761	0.040287	0.351404	-0.795595	-0.796920	0.024957	60.0382	-0.795907	-3.956394E+10	-6.308026E-13	NaN
529	1.000000	0.362765	7.37022e+06	-50639.1	1005.82	-29755	0.000000	0.000000	6.362880	0.019713	NaN	0.000000	0.001605	0.001719	28.0832	0.021902	0.002102	10.4178	-118.576	-165.472	0.053407	0.361462	-0.785560	-0.786862	0.019713	10.4178	-0.786979	-2.992590E+10	-6.587296E-13	NaN
529	1.000000	0.372766	7.37022e+06	-50639.1	1005.82	-29755	0.000000	0.000000	6.372880	0.019231	NaN	0.000000	0.001633	0.001719	28.0831	0.069980	0.002106	33.2333	84.024	12.9315	-0.059820	0.371418	-0.775559	-0.776906	0.019231	33.2333	-0.775993	-2.122130E+10	-9.062162E-13	NaN
529	1.000000	0.382805	7.37022e+06	-50639.1	1005.82	-29755	0.000000	0.000000	6.382917	-0.038534	NaN	0.000000	0.001579	0.001743	28.0831	0.108137	0.001973	54.8081	4.005271	-163.197	0.016904	0.381409	-0.765519	-0.766915	-0.038534	54.8081	-0.764992	-1.503855E+10	2.562319E-12	NaN
529	1.000000	0.392757	7.37023e+06	-50639.1	1005.82	-29755	0.000000	0.000000	6.392873	0.040819	NaN	0.000000	0.001559	0.001722	28.0818	0.046297	0.001967	23.5416	-9.036120	14.6511	0.021018	0.391445	-0.755567	-0.756879	0.040819	23.5416	-0.756868	-1.165966E+10	-3.500859E-12	NaN
529	1.000000	0.402780	7.37023e+06	-50639.1	1005.82	-29755	0.000000	0.000000	6.402897	0.083411	NaN	0.000000	0.001575	0.001752	28.082	0.034182	0.002008	17.0219	177.043	-164.027	0.134746	0.401481	-0.745545	-0.746844	0.083411	17.0219	-0.749220	-9.174820E+9	-9.091257E-12	NaN
529	1.000000	0.412782	7.37023e+06	-50639.1	1005.82	-29755	0.000000	0.000000	6.412901	0.106482	NaN	0.000000	0.001555	0.001736	28.082	0.017400	0.002149	8.098044	144.534	16.461	0.046846	0.411393	-0.735542	-0.736932	0.106482	8.098044	-0.745404	-8.140406E+9	-1.308073E-11	NaN
529	1.000000	0.422774	7.37023e+06	-50639.1	1005.82	-29755	0.000000	0.000000	6.422891	0.064943	NaN	0.000000	0.001574	0.001707	28.082	0.014341	0.002024	7.085506	88.685	-168.25	0.018281	0.421485	-0.725550	-0.726840	0.064943	7.085506	-0.732424	-5.418113E+9	-1.198625E-11	NaN
529	1.000000	0.432778	7.37023e+06	-50639.1	1005.82	-29755	0.000000	0.000000	6.432895	0.083916	NaN	0.000000	0.001590	0.001743	28.082	0.052092	0.001953	26.6775	-67.2512	14.9951	0.034706	0.431436	-0.715547	-0.716888	0.083916	26.6775	-0.717906	-3.434875E+9	-2.443044E-11	NaN
529	1.000000	0.442802	7.37023e+06	-50639.1	1005.82	-29755	0.000000	0.000000	6.442917	0.013844	NaN	0.000000	0.001592	0.001712	28.0821	0.055993	0.002071	27.0416	154.402	-163.918	0.029880	0.441509	-0.705522	-0.706815	0.013844	27.0416	-0.705906	-2.355975E+9	-5.876128E-12	NaN
529	1.000000	0.452811	7.37023e+06	-50639.1	1005.82	-29755	0.000000	0.000000	6.452925	-0.002088	NaN	0.000000	0.001640	0.001694	28.0822	0.054471	0.002084	26.1341	149.305	19.2566	0.012292	0.451448	-0.695514	-0.696876	-0.002088	26.1341	-0.695454	-1.696035E+9	1.231211E-12	NaN
529	1.000000	0.462812	7.37023e+06	-50639.1	1005.82	-29755	0.000000	0.000000	6.462926	0.009548	NaN	0.000000	0.001607	0.001702	28.0821	0.041392	0.002100	19.7098	115.783	-161.923	-0.034942	0.461530	-0.685513	-0.686795	0.009548	19.7098	-0.685876	-1.254728E+9	-7.609831E-12	NaN
529	1.000000	0.472839	7.37023e+06	-50639.1	1005.82	-29755	0.000000	0.000000	6.472959	0.143336	NaN	0.000000	0.001594	0.001704	28.0819	0.032275	0.001906	16.9327	-91.8478	15.1623	0.082540	0.471492	-0.675485	-0.676833	0.143336	16.9327	-0.681834	-1.104797E+9	-1.297392E-10	NaN
529	1.000000	0.482838	7.37023e+06	-50639.1	1005.82	-29755	0.000000	0.000000	6.482956	0.084387	NaN	0.000000	0.001602	0.001730	28.0819	0.086454	0.002027	42.6414	70.6119	-167.082	0.006554	0.481491	-0.665486	-0.666834	0.084387	42.6414	-0.666970	-6.917029E+8	-1.219987E-10	NaN
529	1.000000	0.492808	7.37023e+06	-50639.1	1005.82	-29755	0.000000	0.000000	6.492925	0.056754	NaN	0.000000	0.001588	0.001690	28.0822	0.042889	0.002071	20.7064	89.0857	15.3798	0.059377	0.491470	-0.655516	-0.656854	0.056754	20.7064	-0.657572	-5.142858E+8	-1.103555E-10	NaN
529	1.000000	0.502811	7.37023e+06	-50639.1	1005.82	-29755	0.000000	0.000000	6.502926	0.018575	NaN	0.000000	0.001596	0.001675	28.0821	0.019105	0.001952	9.787296	-171.123	-159.41	0.038913	0.501530	-0.645513	-0.646794	0.018575	9.787296	-0.646937	-3.676503E+8	-5.052364E-11	NaN
529	1.000000	0.512813	7.37023e+06	-50639.1	1005.82	-29755	0.000000	0.000000	6.512930	0.073124	NaN	0.000000	0.001599	0.001683	28.0821	0.069539	0.001998	34.8011	1.891847	15.5901	0.057954	0.511505	-0.635511	-0.636819	0.073124	34.8011	-0.637087	-2.693505E+8	-2.714813E-10	NaN
529	1.000000	0.522841	7.37023e+06	-50639.1	1005.82	-29755	0.000000	0.000000	6.522959	0.078426	NaN	0.000000	0.001595	0.001705	28.0836	0.076152	0.001933	39.39	169.507	-166.762	0.044309	0.521501	-0.625483	-0.626823	0.078426	39.39	-0.626976	-1.956556E+8	-4.008351E-10	NaN
529	1.000000	0.532824	7.37023e+06	-50639.1	1005.82	-29755	0.000000	0.000000	6.532941	0.075425	NaN	0.000000	0.001561	0.001673	28.0833	0.073851	0.002056	35.9244	-38.4297	12.963	0.066901	0.531450	-0.615501	-0.616875	0.075425	35.9244	-0.617075	-1.430308E+8	-5.273368E-10	NaN
529	1.000000	0.542849	7.37023e+06	-50639.1	1005.82	-29755	0.000000	0.000000	6.542963	-0.003019	NaN	0.000000	0.001589	0.001688	28.0835	0.096572	0.002065	46.7651	-62.1495	-164.911	0.015247	0.541529	-0.605476	-0.606795	-0.003019	46.7651	-0.605427	-9.889731E+7	3.052751E-11	NaN
529	1.000000	0.552845	7.37023e+06	-50639.1	1005.82	-29755	0.000000	0.000000	6.552961	0.053110	NaN	0.000000	0.001592	0.001718	28.0835	0.023522	0.001955	12.0335	129.944	17.96	0.057669	0.551531	-0.595479	-0.596794	0.053110	12.0335	-0.598789	-8.012842E+7	-6.628062E-10	NaN
529	1.000000	0.562827	7.37023e+06	-50639.1	1005.82	-29755	0.000000	0.000000	6.562940	-0.012152	NaN	0.000000	0.001589	0.001727	28.0835	0.070083	0.001983	35.3336	100.655	-163.328	0.064743	0.561523	-0.585497	-0.586801	-0.012152	35.3336	-0.585240	-5.212174E+7	2.331386E-10	NaN
529	1.000000	0.572845	7.37023e+06	-50639.1	1005.82	-29755	0.000000	0.000000	6.572960	0.029429	NaN	0.000000	0.001584	0.001707	28.0834	0.033439	0.002069	16.1582	-46.2124	15.9671	0.031235	0.571535	-0.575479	-0.576789	0.029429	16.1582	-0.576845	-3.991900E+7	-7.372107E-10	NaN
529	1.000000	0.582853	7.37023e+06	-50639.1	1005.82	-29755	0.000000	0.000000	6.582969	0.067928	NaN	0.000000	0.001553	0.001719	28.0834	0.060407	0.002025	29.8316	66.103	-161.588	0.084110	0.581559	-0.565472	-0.566766	0.067928	29.8316	-0.567180	-2.935315E+7	-2.314156E-9	NaN
529	1.000000	0.592864	7.37023e+06	-50639.1	1005.82	-29755	0.000000	0.000000	6.592979	0.027468	NaN	0.000000	0.001529	0.001710	28.0848	0.053728	0.001963	27.3724	-25.7276	17.0323	0.021514	0.591504	-0.555460	-0.556821	0.027468	27.3724	-0.556213	-2.070033E+7	-1.326934E-9	NaN
529	1.000000	0.602859	7.37023e+06	-50639.1	1005.82	-29755	0.000000	0.000000	6.602976	0.068676	NaN	0.000000	0.001606	0.001723	28.0834	0.104965	0.002072	50.6696	144.826	-164.89	-0.012910	0.601546	-0.545465	-0.546778	0.068676	50.6696	-0.546481	-1.517787E+7	-4.524754E-9	NaN
529	1.000000	0.612881	7.37023e+06	-50639.1	1005.82	-29755	0.000000	0.000000	6.612995	0.012741	NaN	0.000000	0.001643	0.001692	28.0838	0.030408	0.002054	14.8035	72.7715	15.3112	0.013925	0.611438	-0.535444	-0.536887	0.012741	14.8035	-0.536089	-1.089195E+7	-1.169768E-9	NaN
529	1.000000	0.622906	7.37023e+06	-50639.1	1005.82	-29755	0.000000	0.000000	6.623020	-0.001779	NaN	0.000000	0.001620	0.001701	28.0835	0.145873	0.001978	73.7481	9.203899	-164.011	0.030300	0.621490	-0.525418	-0.526834	-0.001779	73.7481	-0.525400	-7.73873e+06	2.298915E-10	NaN
529	1.000000	0.632854	7.37023e+06	-50639.1	1005.82	-29755	0.000000	0.000000	6.632968	0.017645	NaN	0.000000	0.001619	0.001701	28.084	0.106839	0.001997	53.5074	-100.487	15.9729	0.017554	0.631500	-0.515471	-0.516824	0.017645	53.5074	-0.515718	-5.67577e+06	-3.108817E-9	NaN
529	1.000000	0.642897	7.37023e+06	-50639.1	1005.82	-29755	0.000000	0.000000	6.643013	0.034102	NaN	0.000000	0.001611	0.001703	28.0836	0.099283	0.001997	49.707	-34.5271	-164.861	0.077190	0.641542	-0.505427	-0.506783	0.034102	49.707	-0.505941	-4.14828e+06	-8.220806E-9	NaN
529	1.000000	0.652904	7.37023e+06	-50639.1	1005.82	-29755	0.000000	0.000000	6.653021	0.082974	NaN	0.000000	0.001595	0.001726	28.0839	0.157659	0.002099	75.1012	108.839	16.0292	0.127934	0.651575	-0.495421	-0.496749	0.082974	75.1012	-0.496249	-3.03863e+06	-2.730622E-8	NaN
529	1.000000	0.662872	7.37023e+06	-50639.1	1005.82	-29755	0.000000	0.000000	6.662987	0.016927	NaN	0.000000	0.001620	0.001762	28.0823	0.101824	0.002043	49.8367	51.2728	-166.339	0.022552	0.661563	-0.485452	-0.486761	0.016927	49.8367	-0.485707	-2.16458e+06	-7.820202E-9	NaN
529	1.000000	0.672912	7.37023e+06	-50639.1	1005.82	-29755	0.000000	0.000000	6.673026	0.020967	NaN	0.000000	0.001606	0.001741	28.0829	0.096242	0.002024	47.5566	151.754	13.9132	0.051406	0.671566	-0.475413	-0.476758	0.020967	47.5566	-0.475743	-1.57006e+06	-1.335432E-8	NaN
529	1.000000	0.682898	7.37023e+06	-50639.1	1005.82	-29755	0.000000	0.000000	6.683013	0.017630	NaN	0.000000	0.001595	0.001734	28.082	0.073180	0.001961	37.3158	163.81	-165.739	0.023292	0.681544	-0.465426	-0.466780	0.017630	37.3158	-0.465780	-1.13815e+06	-1.548995E-8	NaN
529	1.000000	0.692905	7.37023e+06	-50639.1	1005.82	-29755	0.000000	0.000000	6.693022	0.068438	NaN	0.000000	0.001587	0.001747	28.0824	0.083869	0.002056	40.7846	-160.26	14.6853	0.025790	0.691511	-0.455419	-0.456814	0.068438	40.7846	-0.456678	-847845	-8.071950E-8	NaN
529	1.000000	0.702936	7.37023e+06	-50639.1	1005.82	-29755	0.000000	0.000000	6.703050	-0.005947	NaN	0.000000	0.001606	0.001716	28.0823	0.073992	0.002056	35.9838	-155.368	-166.577	0.043373	0.701542	-0.445388	-0.446782	-0.005947	35.9838	-0.445265	-585628	1.015466E-8	NaN
529	1.000000	0.712909	7.37023e+06	-50639.1	1005.82	-29755	0.000000	0.000000	6.713023	0.002346	NaN	0.000000	0.001599	0.001731	28.0826	0.055687	0.001996	27.8956	-109.996	14.386	0.090045	0.711594	-0.435415	-0.436731	0.002346	27.8956	-0.435479	-426104	-5.504703E-9	NaN
529	1.000000	0.722905	7.37023e+06	-50639.1	1005.82	-29755	0.000000	0.000000	6.723021	0.050975	NaN	0.000000	0.001568	0.001715	28.0824	0.075943	0.002005	37.8848	51.71	-164.442	0.007935	0.721596	-0.425419	-0.426728	0.050975	37.8848	-0.426428	-317330	-1.606379E-7	NaN
529	1.000000	0.732886	7.37023e+06	-50639.1	1005.82	-29755	0.000000	0.000000	6.733001	0.011909	NaN	0.000000	0.001600	0.001717	28.0823	0.085768	0.002143	40.0146	45.1169	17.1571	0.030519	0.731484	-0.415438	-0.416840	0.011909	40.0146	-0.415661	-223279	-5.333583E-8	NaN
529	1.000000	0.742917	7.37023e+06	-50639.1	1005.82	-29755	0.000000	0.000000	6.743034	0.080557	NaN	0.000000	0.001591	0.001745	28.0825	0.106391	0.002026	52.5044	7.913559	-164.351	0.131561	0.741597	-0.405407	-0.406727	0.080557	52.5044	-0.406558	-165741	-4.860412E-7	NaN
529	1.000000	0.752928	7.37023e+06	-50639.1	1005.82	-29755	0.000000	0.000000	6.753045	0.069807	NaN	0.000000	0.001613	0.001723	28.0826	0.075980	0.001864	40.7669	-28.2328	15.6872	0.115912	0.751525	-0.395396	-0.396800	0.069807	40.7669	-0.396680	-119847	-5.824720E-7	NaN
529	1.000000	0.762921	7.37023e+06	-50639.1	1005.82	-29755	0.000000	0.000000	6.763038	0.065147	NaN	0.000000	0.001609	0.001735	28.0824	0.076732	0.002044	37.5463	156.811	-162.834	0.067635	0.761643	-0.385403	-0.386681	0.065147	37.5463	-0.386705	-86298.1	-7.549066E-7	NaN
529	1.000000	0.772915	7.37023e+06	-50639.1	1005.82	-29755	0.000000	0.000000	6.773029	-0.003210	NaN	0.000000	0.001633	0.001730	28.0825	0.089108	0.002018	44.1572	172.17	16.0214	-0.008249	0.771559	-0.375410	-0.376766	-0.003210	44.1572	-0.375355	-59316.6	5.411310E-8	NaN
529	1.000000	0.782927	7.37023e+06	-50639.1	1005.82	-29755	0.000000	0.000000	6.783044	0.072476	NaN	0.000000	0.001580	0.001770	28.0827	0.041948	0.001992	21.0576	-68.1425	-164.336	0.052924	0.781611	-0.365397	-0.366714	0.072476	21.0576	-0.367978	-46451.9	-1.560244E-6	NaN
529	1.000000	0.792966	7.37023e+06	-50639.1	1005.82	-29755	0.000000	0.000000	6.793081	0.022723	NaN	0.000000	0.001583	0.001747	28.083	0.089303	0.002055	43.4599	-135.183	13.4691	-0.001497	0.791586	-0.355358	-0.356738	0.022723	43.4599	-0.355751	-30929.1	-7.346747E-7	NaN
529	1.000000	0.802978	7.37023e+06	-50639.1	1005.82	-29755	0.000000	0.000000	6.803092	-0.020847	NaN	0.000000	0.001624	0.001742	28.0838	0.007129	0.001974	3.611494	-140.282	-164.571	-0.026572	0.801640	-0.345346	-0.346684	-0.020847	3.611494	-0.341017	-18896	1.103222E-6	NaN
529	1.000000	0.812945	7.37023e+06	-50639.1	1005.82	-29755	0.000000	0.000000	6.813058	-0.022968	NaN	0.000000	0.001598	0.001728	28.0837	0.016778	0.001996	8.407836	-87.2202	15.0172	0.029860	0.811575	-0.335379	-0.336749	-0.022968	8.407836	-0.333330	-14594.3	1.573747E-6	NaN
529	1.000000	0.822929	7.37023e+06	-50639.1	1005.82	-29755	0.000000	0.000000	6.823044	0.013549	NaN	0.000000	0.001612	0.001733	28.0839	0.048803	0.001850	26.3784	-40.9172	-163.822	0.009087	0.821652	-0.325395	-0.326672	0.013549	26.3784	-0.325780	-11313.3	-1.197596E-6	NaN
529	1.000000	0.832950	7.37023e+06	-50639.1	1005.82	-29755	0.000000	0.000000	6.833062	-0.037280	NaN	0.000000	0.001587	0.001796	28.0836	0.067620	0.002049	33.0049	139.871	17.0355	0.007152	0.831567	-0.315374	-0.316758	-0.037280	33.0049	-0.314527	-7726.26	4.825066E-6	NaN
529	1.000000	0.842988	7.37023e+06	-50639.1	1005.82	-29755	0.000000	0.000000	6.843103	0.019902	NaN	0.000000	0.001587	0.001774	28.0836	0.021971	0.001962	11.2	109.314	-165.564	0.045357	0.841684	-0.305337	-0.306641	0.019902	11.2	-0.306669	-5911.78	-3.366444E-6	NaN
529	1.000000	0.852972	7.37023e+06	-50639.1	1005.82	-29755	0.000000	0.000000	6.853089	0.065051	NaN	0.000000	0.001691	0.001745	28.0838	0.106536	0.002008	53.0516	-109.62	18.163	0.025393	0.851585	-0.295352	-0.296739	0.065051	53.0516	-0.296272	-4140.71	-1.571002E-5	NaN
529	1.000000	0.862970	7.37023e+06	-50639.1	1005.82	-29755	0.000000	0.000000	6.863088	0.100294	NaN	0.000000	0.001703	0.001732	28.0835	0.046848	0.001948	24.0473	-135.566	-163.029	0.066893	0.861722	-0.285355	-0.286603	0.100294	24.0473	-0.288483	-3166.34	-3.167499E-5	NaN
529	1.000000	0.873014	7.37023e+06	-50639.1	1005.82	-29755	0.000000	0.000000	6.873131	0.070250	NaN	0.000000	0.001691	0.001744	28.0834	0.102244	0.001983	51.5504	-11.5795	17.8883	0.000345	0.871615	-0.275311	-0.276710	0.070250	51.5504	-0.276333	-2077.64	-3.381239E-5	NaN
529	1.000000	0.882975	7.37023e+06	-50639.1	1005.82	-29755	0.000000	0.000000	6.883090	0.019415	NaN	0.000000	0.001689	0.001758	28.0835	0.061427	0.001904	32.2537	110.928	-166.523	-0.005283	0.881727	-0.265349	-0.266598	0.019415	32.2537	-0.265801	-1437.5	-1.350587E-5	NaN
529	1.000000	0.892961	7.37023e+06	-50639.1	1005.82	-29755	0.000000	0.000000	6.893075	0.011183	NaN	0.000000	0.001657	0.001701	28.0836	0.028617	0.001947	14.6947	-62.633	13.2882	0.014112	0.891580	-0.255364	-0.256744	0.011183	14.6947	-0.255934	-1015.07	-1.101697E-5	NaN
529	1.000000	0.902996	7.37023e+06	-50639.1	1005.82	-29755	0.000000	0.000000	6.903108	-0.037959	NaN	0.000000	0.001657	0.001730	28.0835	0.093901	0.001970	47.6546	-160.571	-165.744	-0.004578	0.901640	-0.245329	-0.246685	-0.037959	47.6546	-0.244731	-681.201	5.572356E-5	NaN
529	1.000000	0.912956	7.37023e+06	-50639.1	1005.82	-29755	0.000000	0.000000	6.913072	0.040562	NaN	0.000000	0.001638	0.001729	28.0834	0.073392	0.001941	37.8139	-96.1777	13.6438	0.028428	0.911663	-0.235368	-0.236662	0.040562	37.8139	-0.236173	-500.783	-8.099797E-5	NaN
529	1.000000	0.922999	7.37023e+06	-50639.1	1005.82	-29755	0.000000	0.000000	6.923115	0.044974	NaN	0.000000	0.001657	0.001707	28.0833	0.121717	0.002072	58.7496	149.17	-165.53	0.058334	0.921675	-0.225325	-0.226649	0.044974	58.7496	-0.225899	-344.837	-0.000130	NaN
529	1.000000	0.933022	7.37023e+06	-50639.1	1005.82	-29755	0.000000	0.000000	6.933137	0.016046	NaN	0.000000	0.001602	0.001734	28.0823	0.070790	0.002087	33.9264	-53.9864	12.9491	-0.008672	0.931645	-0.215302	-0.216679	0.016046	33.9264	-0.215657	-236.634	-6.781114E-5	NaN
529	1.000000	0.943002	7.37023e+06	-50639.1	1005.82	-29755	0.000000	0.000000	6.943115	-0.043564	NaN	0.000000	0.001654	0.001700	28.0823	0.077476	0.001990	38.9407	62.1419	-164.385	-0.000543	0.941751	-0.205322	-0.206573	-0.043564	38.9407	-0.204483	-155.999	0.000279	NaN
529	1.000000	0.953023	7.37023e+06	-50639.1	1005.82	-29755	0.000000	0.000000	6.953139	0.055298	NaN	0.000000	0.001654	0.001718	28.0821	0.118005	0.001959	60.2321	162.297	13.201	0.012097	0.951690	-0.195301	-0.196635	0.055298	60.2321	-0.195990	-113.132	-0.000489	NaN
529	1.000000	0.963003	7.37023e+06	-50639.1	1005.82	-29755	0.000000	0.000000	6.963117	-0.002821	NaN	0.000000	0.001609	0.001703	28.0821	0.098722	0.002018	48.9243	122.401	-167.217	0.008391	0.961707	-0.185321	-0.186617	-0.002821	48.9243	-0.185278	-74.9578	3.762830E-5	NaN
529	1.000000	0.973036	7.37023e+06	-50639.1	1005.82	-29755	0.000000	0.000000	6.973148	-0.046941	NaN	0.000000	0.001637	0.001699	28.0821	0.072348	0.001973	36.6696	-77.5827	16.9923	-0.027208	0.971674	-0.175288	-0.176650	-0.046941	36.6696	-0.174328	-48.8006	0.000962	NaN
529	1.000000	0.983012	7.37023e+06	-50639.1	1005.82	-29755	0.000000	0.000000	6.983128	0.039501	NaN	0.000000	0.001585	0.001690	28.082	0.094305	0.002074	45.4671	2.684670	-161.969	0.002151	0.981684	-0.165312	-0.166641	0.039501	45.4671	-0.165964	-34.9307	-0.001131	NaN
529	1.000000	0.993014	7.37023e+06	-50639.1	1005.82	-29755	0.000000	0.000000	6.993131	0.079139	NaN	0.000000	0.001606	0.001679	28.082	0.050798	0.001968	25.8121	-175.187	14.2658	0.034248	0.991617	-0.155311	-0.156707	0.079139	25.8121	-0.157610	-24.854	-0.003184	NaN
529	1.000000	1.003029	7.37023e+06	-50639.1	1005.82	-29755	0.000000	0.000000	7.003144	0.048663	NaN	0.000000	0.001575	0.001725	28.0822	0.053244	0.001978	26.9217	-80.7	-164.98	0.097627	1.001713	-0.145296	-0.146612	0.048663	26.9217	-0.146651	-15.727	-0.003094	NaN
529	1.000000	1.013028	7.37023e+06	-50639.1	1005.82	-29755	0.000000	0.000000	7.013142	0.007049	NaN	0.000000	0.001595	0.001722	28.082	0.070508	0.002068	34.101	82.9661	16.4482	0.061016	1.011698	-0.135296	-0.136626	0.007049	34.101	-0.135452	-9.702938	-0.000726	NaN
529	1.000000	1.023034	7.37023e+06	-50639.1	1005.82	-29755	0.000000	0.000000	7.023151	0.065924	NaN	0.000000	0.001594	0.001712	28.0821	0.065956	0.002039	32.3551	149.178	-162.11	0.022948	1.021722	-0.125290	-0.126602	0.065924	32.3551	-0.126818	-6.604664	-0.009981	NaN
529	1.000000	1.033033	7.37023e+06	-50639.1	1005.82	-29755	0.000000	0.000000	7.033151	0.089349	NaN	0.000000	0.001598	0.001699	28.0819	0.106599	0.002056	51.8482	-38.0934	18.3882	0.041234	1.031747	-0.115291	-0.116577	0.089349	51.8482	-0.116583	-4.117512	-0.021700	NaN
529	1.000000	1.043039	7.37023e+06	-50639.1	1005.82	-29755	0.000000	0.000000	7.043155	0.043539	NaN	0.000000	0.001630	0.001682	28.0824	0.072370	0.002020	35.8191	164.147	-163.213	-0.037365	1.041720	-0.105285	-0.106605	0.043539	35.8191	-0.106197	-2.494281	-0.017456	NaN
529	1.000000	1.053065	7.37023e+06	-50639.1	1005.82	-29755	0.000000	0.000000	7.053179	0.001838	NaN	0.000000	0.001638	0.001646	28.0818	0.128124	0.001957	65.4814	111.974	16.0955	0.024432	1.051704	-0.095259	-0.096620	0.001838	65.4814	-0.095280	-1.431501	-0.001284	NaN
529	1.000000	1.063059	7.37023e+06	-50639.1	1005.82	-29755	0.000000	0.000000	7.063174	0.028567	NaN	0.000000	0.001623	0.001666	28.082	0.091340	0.002031	44.9635	-124.336	-165.939	0.051145	1.061772	-0.085266	-0.086553	0.028567	44.9635	-0.085742	-0.856251	-0.033363	NaN
529	1.000000	1.073036	7.37023e+06	-50639.1	1005.82	-29755	0.000000	0.000000	7.073151	0.017337	NaN	0.000000	0.001613	0.001713	28.0831	0.109273	0.002052	53.2547	-66.6815	16.8568	0.016698	1.071712	-0.075288	-0.076613	0.017337	53.2547	-0.075533	-0.476732	-0.036367	NaN
529	1.000000	1.083079	7.37023e+06	-50639.1	1005.82	-29755	0.000000	0.000000	7.083194	0.028378	NaN	0.000000	0.001575	0.001708	28.0832	0.156450	0.001958	79.9207	138.028	-164.625	-0.034817	1.081745	-0.065245	-0.066579	0.028378	79.9207	-0.065512	-0.257480	-0.110215	NaN
529	1.000000	1.093076	7.37023e+06	-50639.1	1005.82	-29755	0.000000	0.000000	7.093191	0.020470	NaN	0.000000	0.001581	0.001671	28.0831	0.056400	0.001966	28.6851	-32.3544	15.5741	0.013856	1.091711	-0.055248	-0.056613	0.020470	28.6851	-0.055784	-0.135816	-0.150720	NaN
529	1.000000	1.103068	7.37023e+06	-50639.1	1005.82	-29755	0.000000	0.000000	7.103185	0.070824	NaN	0.000000	0.001585	0.001663	28.0833	0.058809	0.002000	29.4101	-157.605	-163.557	0.082794	1.101720	-0.045257	-0.046605	0.070824	29.4101	-0.047063	-0.074302	-0.953188	NaN
529	1.000000	1.113089	7.37023e+06	-50639.1	1005.82	-29755	0.000000	0.000000	7.113203	0.007330	NaN	0.000000	0.001634	0.001685	28.0835	0.031330	0.001910	16.404	-142.781	15.4147	0.017935	1.111775	-0.035235	-0.036549	0.007330	16.404	-0.035570	-0.033290	-0.220179	NaN
529	1.000000	1.123042	7.37023e+06	-50639.1	1005.82	-29755	0.000000	0.000000	7.123157	0.023743	NaN	0.000000	0.001675	0.001661	28.0837	0.065136	0.002015	32.3257	-78.6057	-162.483	0.047515	1.121764	-0.025282	-0.026561	0.023743	32.3257	-0.025833	-0.017742	-1.338268	NaN
529	1.000000	1.133054	7.37023e+06	-50639.1	1005.82	-29755	0.000000	0.000000	7.133167	-0.038144	NaN	0.000000	0.001647	0.001650	28.0834	0.109547	0.002096	52.2579	-99.4332	14.2832	-0.020530	1.131696	-0.015270	-0.016628	-0.038144	52.2579	-0.014723	-0.009110	4.187126	NaN
529	1.000000	1.143076	7.37023e+06	-50639.1	1005.82	-29755	0.000000	0.000000	7.143191	0.038466	NaN	0.000000	0.001673	0.001659	28.0835	0.008371	0.002063	4.058194	-137.364	-160.74	0.045304	1.141781	-0.005248	-0.006544	0.038466	4.058194	-0.012357	-0.007733	-4.974261	NaN
529	1.000000	1.153045	7.37023e+06	-50639.1	1005.82	-29755	0.000000	0.000000	7.153333	4.228677	NaN	0.000000	0.001679	0.001677	28.0837	5.370115	0.001678	3201.1	14.4301	7.792970	2.226389	1.151694	0.004720	0.003370	4.228677	3201.1	0.003730	0.003003	1408.01	53367
529	2.000000	1.157707	7.37023e+06	-50639.1	1005.82	-29755	0.000000	0.000000	7.158276	11.0835	NaN	0.000000	0.001633	0.001701	28.0833	10.7001	0.001640	6525.34	9.040316	-174.954	10.3325	1.157405	0.009382	0.009080	11.0835	6525.34	0.008108	0.007154	1549.24	70485.2
529	2.000000	1.160228	7.37023e+06	-50639.1	1005.82	-29755	0.000000	0.000000	7.160945	14.6458	NaN	0.000000	0.001649	0.001739	28.0835	12.9214	0.001783	7248.66	6.556888	8.337010	14.1795	1.159858	0.011904	0.011533	14.6458	7248.66	0.010389	0.009617	1522.96	67533.3
529	2.000000	1.162696	7.37023e+06	-50639.1	1005.82	-29755	0.000000	0.000000	7.163607	19.3816	NaN	0.000000	0.001664	0.001689	28.0832	15.3774	0.001661	9256.38	4.259212	-172.623	19.3433	1.162352	0.014372	0.014027	19.3816	9256.38	0.012801	0.012464	1555.01	75750.8
529	2.000000	1.165165	7.37023e+06	-50639.1	1005.82	-29755	0.000000	0.000000	7.166225	22.9969	NaN	0.000000	0.001676	0.001701	28.0838	18.0434	0.001834	9838.28	9.046522	2.897283	21.8834	1.164764	0.016841	0.016440	22.9969	9838.28	0.015087	0.015402	1493.09	72427
529	2.000000	1.167616	7.37023e+06	-50639.1	1005.82	-29755	0.000000	0.000000	7.168791	25.7986	NaN	0.000000	0.001672	0.001711	28.0828	20.4183	0.001998	10218.3	6.758942	-176.043	24.0646	1.167390	0.019292	0.019065	25.7986	10218.3	0.017398	0.018617	1385.72	68421.6
529	2.000000	1.170154	7.37023e+06	-50639.1	1005.82	-29755	0.000000	0.000000	7.171458	28.9426	NaN	0.000000	0.001652	0.001657	28.0827	22.1638	0.001823	12159.9	6.969037	2.874751	28.3219	1.169826	0.021830	0.021502	28.9426	12159.9	0.020045	0.022612	1279.94	73880.6
529	2.000000	1.172649	7.37023e+06	-50639.1	1005.82	-29755	0.000000	0.000000	7.174189	34.6785	NaN	0.000000	0.001688	0.001709	28.0824	23.0465	0.001669	13812	1.991216	-172.305	34.5246	1.172315	0.024324	0.023991	34.6785	13812	0.022441	0.026524	1307.42	77483.4
529	2.000000	1.175092	7.37023e+06	-50639.1	1005.82	-29755	0.000000	0.000000	7.176879	40.6926	NaN	0.000000	0.001675	0.001715	28.0827	26.422	0.001739	15197.6	3.861266	4.387388	38.9993	1.174770	0.026768	0.026446	40.6926	15197.6	0.024759	0.030580	1330.71	79402.4
529	2.000000	1.177610	7.37023e+06	-50639.1	1005.82	-29755	0.000000	0.000000	7.179543	44.2268	NaN	0.000000	0.001694	0.001681	28.0823	30.0264	0.001836	16353	4.736215	-177.78	43.6491	1.177284	0.029286	0.028960	44.2268	16353	0.027257	0.035251	1254.63	79576.8
529	2.000000	1.180101	7.37023e+06	-50639.1	1005.82	-29755	0.000000	0.000000	7.182296	50.5925	NaN	0.000000	0.001656	0.001694	28.0827	31.546	0.001774	17778.7	5.101324	1.444103	47.7054	1.179773	0.031777	0.031448	50.5925	17778.7	0.029643	0.040006	1264.61	81209.9
529	2.000000	1.182643	7.37023e+06	-50639.1	1005.82	-29755	0.000000	0.000000	7.185159	58.4079	NaN	0.000000	0.001639	0.001655	28.0826	34.1559	0.001824	18722.1	7.489893	-179.976	60.1851	1.182278	0.034319	0.033953	58.4079	18722.1	0.031979	0.044945	1299.53	80683.5
529	2.000000	1.185184	7.37023e+06	-50639.1	1005.82	-29755	0.000000	0.000000	7.187928	63.9627	NaN	0.000000	0.001630	0.001694	28.0828	37.0189	0.001859	19917.3	9.430080	-3.664904	63.3126	1.184748	0.036860	0.036423	63.9627	19917.3	0.034451	0.050476	1267.19	80995.6
529	2.000000	1.187577	7.37023e+06	-50639.1	1005.82	-29755	0.000000	0.000000	7.190657	72.134	NaN	0.000000	0.001661	0.001704	28.0825	39.6875	0.001862	21320	8.855894	174.955	70.0881	1.187348	0.039252	0.039023	72.134	21320	0.036715	0.055814	1292.4	82449.7
529	2.000000	1.190085	7.37023e+06	-50639.1	1005.82	-29755	0.000000	0.000000	7.193554	81.6094	NaN	0.000000	0.001604	0.001693	28.0831	40.7563	0.001826	22322	4.018411	0.309318	78.8015	1.189717	0.041760	0.041393	81.6094	22322	0.039018	0.061516	1326.64	82226.7
529	2.000000	1.192572	7.37023e+06	-50639.1	1005.82	-29755	0.000000	0.000000	7.196297	87.8057	NaN	0.000000	0.001651	0.001722	28.0826	42.9095	0.001749	24538.3	6.683248	176.347	86.4769	1.192303	0.044248	0.043978	87.8057	24538.3	0.041564	0.068133	1288.75	85889.5
529	2.000000	1.195051	7.37023e+06	-50639.1	1005.82	-29755	0.000000	0.000000	7.199243	99.1565	NaN	0.000000	0.001612	0.001716	28.0827	44.8726	0.001764	25438.4	3.067377	-0.312404	95.6055	1.194734	0.046727	0.046410	99.1565	25438.4	0.043804	0.074227	1335.85	85306.4
529	2.000000	1.197596	7.37023e+06	-50639.1	1005.82	-29755	0.000000	0.000000	7.201957	103.288	NaN	0.000000	0.001633	0.001738	28.0824	47.8207	0.001748	27363.7	2.907399	178.612	101.372	1.197351	0.049271	0.049027	103.288	27363.7	0.046440	0.081729	1263.78	87450
529	2.000000	1.200089	7.37023e+06	-50639.1	1005.82	-29755	0.000000	0.000000	7.204864	113.346	NaN	0.000000	0.001594	0.001711	28.0829	49.6766	0.001769	28082.5	5.290688	-3.368165	110.369	1.199811	0.051764	0.051487	113.346	28082.5	0.048737	0.088550	1280.03	86221.3
529	2.000000	1.202504	7.37023e+06	-50639.1	1005.82	-29755	0.000000	0.000000	7.207971	130.177	NaN	0.000000	0.001604	0.001689	28.0837	51.7145	0.001778	29088.5	5.469314	175.682	123.927	1.202132	0.054179	0.053807	130.177	29088.5	0.050823	0.094973	1370.66	86237
529	2.000000	1.205162	7.37023e+06	-50639.1	1005.82	-29755	0.000000	0.000000	7.210913	137.086	NaN	0.000000	0.001583	0.001710	28.0845	54.7099	0.001836	29800.6	4.741705	-2.685335	140.272	1.204713	0.056837	0.056388	137.086	29800.6	0.053387	0.103170	1328.75	84766.2
529	2.000000	1.207574	7.37023e+06	-50639.1	1005.82	-29755	0.000000	0.000000	7.213557	142.709	NaN	0.000000	0.001611	0.001668	28.0836	56.8947	0.001792	31743.8	3.240143	177.163	140.669	1.207341	0.059250	0.059017	142.709	31743.8	0.055878	0.111444	1280.55	86876.7
529	2.000000	1.210069	7.37023e+06	-50639.1	1005.82	-29755	0.000000	0.000000	7.216800	160.894	NaN	0.000000	0.001598	0.001646	28.0845	58.4676	0.001735	33698.7	5.140207	-4.693134	157.125	1.209739	0.061745	0.061415	160.894	33698.7	0.058164	0.119308	1348.56	89135.9
529	2.000000	1.212534	7.37023e+06	-50639.1	1005.82	-29755	0.000000	0.000000	7.219851	175.162	NaN	0.000000	0.001605	0.001691	28.084	60.3197	0.001733	34804.2	2.764441	177.664	173.333	1.212247	0.064209	0.063922	175.162	34804.2	0.060435	0.127372	1375.2	89098
529	2.000000	1.215016	7.37023e+06	-50639.1	1005.82	-29755	0.000000	0.000000	7.222670	183.367	NaN	0.000000	0.001639	0.001709	28.084	64.2212	0.001950	32931.8	5.709623	-4.851687	179.446	1.214687	0.066691	0.066362	183.367	32931.8	0.062515	0.134981	1358.46	81894
529	2.000000	1.217498	7.37023e+06	-50639.1	1005.82	-29755	0.000000	0.000000	7.225783	198.71	NaN	0.000000	0.001588	0.001693	28.0837	65.9809	0.001869	35298.2	3.490065	176.88	194.969	1.217222	0.069173	0.068898	198.71	35298.2	0.064951	0.144159	1378.41	84938.5
529	2.000000	1.220040	7.37023e+06	-50639.1	1005.82	-29755	0.000000	0.000000	7.228975	214.53	NaN	0.000000	0.001586	0.001714	28.0842	67.0603	0.001648	40699.4	2.918258	-3.961017	210.711	1.219773	0.071715	0.071449	214.53	40699.4	0.067762	0.155103	1383.15	94417.3
529	2.000000	1.222517	7.37023e+06	-50639.1	1005.82	-29755	0.000000	0.000000	7.232416	237.967	NaN	0.000000	0.001575	0.001705	28.0839	68.7783	0.001708	40274.5	4.242430	175.433	234.323	1.222083	0.074192	0.073759	237.967	40274.5	0.069761	0.163116	1458.88	91107.7
529	2.000000	1.225088	7.37023e+06	-50639.1	1005.82	-29755	0.000000	0.000000	7.235240	244.116	NaN	0.000000	0.001568	0.001728	28.0837	72.4336	0.001691	42823.3	3.528104	-5.260086	240.691	1.224713	0.076763	0.076389	244.116	42823.3	0.072488	0.174355	1400.11	93699.2
529	2.000000	1.227555	7.37023e+06	-50639.1	1005.82	-29755	0.000000	0.000000	7.238590	265.574	NaN	0.000000	0.001583	0.001686	28.0833	76.3613	0.001752	43584	5.827383	173.058	264.289	1.227161	0.079230	0.078837	265.574	43584	0.074660	0.183561	1446.79	92941.5
529	2.000000	1.230071	7.37023e+06	-50639.1	1005.82	-29755	0.000000	0.000000	7.241683	279.605	NaN	0.000000	0.001600	0.001689	28.0837	76.9406	0.001659	46365.5	1.188434	-3.040860	276.376	1.229799	0.081747	0.081475	279.605	46365.5	0.077224	0.194708	1436.02	96001.1
529	2.000000	1.232476	7.37023e+06	-50639.1	1005.82	-29755	0.000000	0.000000	7.245132	304.992	NaN	0.000000	0.001605	0.001724	28.0832	80.3206	0.001644	48869.9	3.178180	174.278	300.768	1.232102	0.084151	0.083778	304.992	48869.9	0.079471	0.204733	1489.71	98678.2
529	2.000000	1.234967	7.37023e+06	-50639.1	1005.82	-29755	0.000000	0.000000	7.248338	322.393	NaN	0.000000	0.001604	0.001657	28.0836	83.2401	0.001711	48650.2	1.323685	-4.269031	316.126	1.234701	0.086642	0.086377	322.393	48650.2	0.081672	0.214784	1501.01	95908.4
529	2.000000	1.237546	7.37023e+06	-50639.1	1005.82	-29755	0.000000	0.000000	7.251715	341.784	NaN	0.000000	0.001601	0.001667	28.0821	86.9756	0.001780	48861.3	3.687110	173.91	341.486	1.237223	0.089222	0.088899	341.784	48861.3	0.083976	0.225539	1515.41	93999.8
529	2.000000	1.240045	7.37023e+06	-50639.1	1005.82	-29755	0.000000	0.000000	7.255291	367.995	NaN	0.000000	0.001626	0.001702	28.0824	88.7889	0.001844	48151	2.543191	-4.623825	366.192	1.239736	0.091720	0.091412	367.995	48151	0.085988	0.235139	1565.01	90722.7
529	2.000000	1.242574	7.37023e+06	-50639.1	1005.82	-29755	0.000000	0.000000	7.258368	381.299	NaN	0.000000	0.001607	0.001651	28.0823	91.711	0.001898	48317.3	5.431621	172.522	383.49	1.242281	0.094250	0.093957	381.299	48317.3	0.088331	0.246548	1546.55	88904.9
529	2.000000	1.244994	7.37023e+06	-50639.1	1005.82	-29755	0.000000	0.000000	7.261692	403.289	NaN	0.000000	0.001642	0.001670	28.0822	94.1937	0.001858	50702.3	1.890151	-4.344686	398.693	1.244611	0.096669	0.096287	403.289	50702.3	0.090704	0.258360	1560.95	91135.6
529	2.000000	1.247454	7.37023e+06	-50639.1	1005.82	-29755	0.000000	0.000000	7.264971	423.185	NaN	0.000000	0.001606	0.001677	28.0822	96.6828	0.001730	55887	5.114171	171.362	417.564	1.247132	0.099130	0.098807	423.185	55887	0.093451	0.272359	1553.78	97839.3
529	2.000000	1.249939	7.37023e+06	-50639.1	1005.82	-29755	0.000000	0.000000	7.268583	450.602	NaN	0.000000	0.001651	0.001710	28.0826	96.7151	0.001640	58981	4.098857	-7.608248	442.099	1.249595	0.101615	0.101270	450.602	58981	0.095885	0.285049	1580.79	100931
529	2.000000	1.252501	7.37023e+06	-50639.1	1005.82	-29755	0.000000	0.000000	7.271664	463.236	NaN	0.000000	0.001661	0.001691	28.0822	100.21	0.001798	55746.5	4.550130	171.732	460.785	1.252284	0.104177	0.103959	463.236	55746.5	0.097944	0.295999	1565	93615.1
529	2.000000	1.254447	7.37023e+06	-50639.1	1005.82	-29755	0.000000	0.000000	7.274371	481.723	NaN	0.000000	0.001635	0.001717	28.0822	102.437	0.001796	57027.7	3.623697	172.44	477.007	1.254220	0.106123	0.105896	481.723	57027.7	0.099787	0.305960	1574.46	94194.8