File: remote_trans/data/nanoindenter/0828-1/data/Data_2025-08-06,11h17m57s/2025-07-22_16-23-58_1_69.txt
2025-07-22, 16:23:58, 1
Index	Phase	Displacement	Time	Pos X	Pos Y	Pos Z	Rot A	Rot B	Piezo Z	Force A	Force B	Gripper	Voltage A	Voltage B	Temperature	Amplitude force	Amplitude pos	Stiffness	Phase shift	Phase excitation	Force A raw	Displacement raw	HMax	HMax raw	Real Force	Real Stiffness	Contact Depth	Area	Hardness	Reduced Mod.
[#]	[#]	[um]	[s]	[um]	[um]	[um]	[m°]	[m°]	[um]	[uN]	[uN]	[V]	[V]	[V]	[°C]	[uN]	[um]	[N/m]	[°]	[°]	[uN]	[um]	[um]	[um]	[uN]	[N/m]	[um]	[um^2]	[MPa]	[MPa]
69	1.000000	0.002598	7.36572e+06	-42089.1	955.818	-29784.5	0.000000	0.000000	6.002770	0.057658	NaN	0.000000	0.001525	0.001616	28.0785	0.121242	0.000916	132.406	132.094	171.23	0.123040	0.001379	-1.102756	-1.103975	0.057658	132.406	-1.103082	-5.513667E+14	-1.045727E-16	NaN
69	1.000000	0.012608	7.36572e+06	-42089.1	955.82	-29784.5	0.000000	0.000000	6.012777	-0.030315	NaN	0.000000	0.001537	0.001630	28.0996	0.131288	0.001139	115.23	164.632	-2.697603	-0.058760	0.011142	-1.092745	-1.094211	-0.030315	115.23	-1.092548	-3.981269E+14	7.614341E-17	NaN
69	1.000000	0.022524	7.36572e+06	-42089.1	955.819	-29784.5	0.000000	0.000000	6.022693	-0.030511	NaN	0.000000	0.001538	0.001641	28.1274	0.070037	0.001858	37.6992	-149.275	175.883	-0.029649	0.021234	-1.082829	-1.084119	-0.030511	37.6992	-1.082222	-2.893103E+14	1.054617E-16	NaN
69	1.000000	0.032533	7.36572e+06	-42089.1	955.819	-29784.5	0.000000	0.000000	6.032705	0.055015	NaN	0.000000	0.001573	0.001617	28.0921	0.044505	0.001807	24.6253	144.472	-3.959922	0.009267	0.031151	-1.072821	-1.074202	0.055015	24.6253	-1.074496	-2.278216E+14	-2.414844E-16	NaN
69	1.000000	0.042551	7.36572e+06	-42089.1	955.819	-29784.5	0.000000	0.000000	6.042718	-0.051075	NaN	0.000000	0.001550	0.001608	28.0785	0.039546	0.001944	20.3469	107.933	175.496	-0.019290	0.041219	-1.062803	-1.064134	-0.051075	20.3469	-1.060920	-1.496889E+14	3.412106E-16	NaN
69	1.000000	0.052527	7.36572e+06	-42089.1	955.818	-29784.5	0.000000	0.000000	6.052697	0.007114	NaN	0.000000	0.001586	0.001637	28.1017	0.083649	0.001887	44.3365	50.362	-2.153884	-0.009797	0.051184	-1.052827	-1.054170	0.007114	44.3365	-1.052947	-1.169578E+14	-6.082278E-17	NaN
69	1.000000	0.062505	7.36572e+06	-42089.1	955.819	-29784.5	0.000000	0.000000	6.062674	-0.012220	NaN	0.000000	0.001563	0.001629	28.1292	0.031437	0.002029	15.4937	38.4448	177.915	0.042279	0.061159	-1.042849	-1.044194	-0.012220	15.4937	-1.042257	-8.400780E+13	1.454618E-16	NaN
69	1.000000	0.072523	7.36572e+06	-42089.1	955.818	-29784.5	0.000000	0.000000	6.072693	0.022577	NaN	0.000000	0.001550	0.001635	28.0929	0.057918	0.001905	30.4004	-82.4147	-3.308997	0.018632	0.071145	-1.032831	-1.034208	0.022577	30.4004	-1.033388	-6.383324E+13	-3.536844E-16	NaN
69	1.000000	0.082516	7.36572e+06	-42089.1	955.818	-29784.5	0.000000	0.000000	6.082685	-0.018375	NaN	0.000000	0.001564	0.001628	28.0789	0.039140	0.001970	19.8712	149.491	177.933	-0.016113	0.081203	-1.022837	-1.024150	-0.018375	19.8712	-1.022144	-4.506029E+13	4.077870E-16	NaN
69	1.000000	0.092531	7.36572e+06	-42089.1	955.818	-29784.5	0.000000	0.000000	6.092702	0.052502	NaN	0.000000	0.001572	0.001610	28.1003	0.128021	0.001954	65.5321	-136.119	-2.230676	0.061549	0.091206	-1.012823	-1.014147	0.052502	65.5321	-1.013424	-3.439237E+13	-1.526556E-15	NaN
69	1.000000	0.102540	7.36572e+06	-42089.1	955.818	-29784.5	0.000000	0.000000	6.102709	-0.011104	NaN	0.000000	0.001547	0.001612	28.1281	0.115920	0.001993	58.1661	-139.174	175.093	-0.067703	0.101235	-1.002814	-1.004119	-0.011104	58.1661	-1.002671	-2.464463E+13	4.505533E-16	NaN
69	1.000000	0.112562	7.36572e+06	-42089.1	955.819	-29784.5	0.000000	0.000000	6.112734	0.053617	NaN	0.000000	0.001545	0.001587	28.0922	0.018574	0.001887	9.842734	5.755104	-4.349658	0.041349	0.111208	-0.992792	-0.994146	0.053617	9.842734	-0.996877	-2.059317E+13	-2.603641E-15	NaN
69	1.000000	0.122557	7.36572e+06	-42089.1	955.819	-29784.5	0.000000	0.000000	6.122728	0.028416	NaN	0.000000	0.001559	0.001623	28.0793	0.063254	0.001940	32.6071	13.8671	173.594	0.015426	0.121230	-0.982797	-0.984123	0.028416	32.6071	-0.983450	-1.357982E+13	-2.092505E-15	NaN
69	1.000000	0.132549	7.36572e+06	-42089.1	955.818	-29784.5	0.000000	0.000000	6.132719	0.023383	NaN	0.000000	0.001571	0.001629	28.1013	0.071689	0.001971	36.3676	-160.356	-3.609868	0.052604	0.131199	-0.972805	-0.974155	0.023383	36.3676	-0.973287	-9.907429E+12	-2.360150E-15	NaN
69	1.000000	0.142574	7.36572e+06	-42089.1	955.819	-29784.5	0.000000	0.000000	6.142747	0.079182	NaN	0.000000	0.001594	0.001614	28.1294	0.053057	0.002112	25.1204	-129.534	174.276	0.109177	0.141248	-0.962779	-0.964105	0.079182	25.1204	-0.965143	-7.694914E+12	-1.029024E-14	NaN
69	1.000000	0.152560	7.36572e+06	-42089.1	955.818	-29784.5	0.000000	0.000000	6.152733	0.079891	NaN	0.000000	0.001591	0.001612	28.0929	0.079041	0.002037	38.8101	-16.4924	-4.156038	0.193415	0.151196	-0.952793	-0.954157	0.079891	38.8101	-0.954337	-5.501944E+12	-1.452048E-14	NaN
69	1.000000	0.162549	7.36572e+06	-42089.1	955.818	-29784.5	0.000000	0.000000	6.162721	0.048513	NaN	0.000000	0.001578	0.001597	28.0767	0.028534	0.002052	13.9033	-14.0847	174.78	0.046969	0.161252	-0.942805	-0.944102	0.048513	13.9033	-0.945422	-4.171336E+12	-1.163019E-14	NaN
69	1.000000	0.172550	7.36572e+06	-42089.1	955.818	-29784.5	0.000000	0.000000	6.172722	0.041156	NaN	0.000000	0.001574	0.001648	28.0988	0.061000	0.002062	29.5778	166.733	-1.979331	0.041969	0.171177	-0.932803	-0.934177	0.041156	29.5778	-0.933847	-2.911474E+12	-1.413578E-14	NaN
69	1.000000	0.182546	7.36572e+06	-42089.1	955.819	-29784.5	0.000000	0.000000	6.182714	-0.028137	NaN	0.000000	0.001586	0.001648	28.1271	0.107992	0.002009	53.7547	-84.2616	176.198	0.031100	0.181205	-0.922808	-0.924149	-0.028137	53.7547	-0.922415	-2.040876E+12	1.378673E-14	NaN
69	1.000000	0.192556	7.36572e+06	-42089.1	955.818	-29784.5	0.000000	0.000000	6.192724	-0.033722	NaN	0.000000	0.001590	0.001645	28.0915	0.186263	0.001909	97.5917	-168.874	-6.526178	0.007633	0.191219	-0.912798	-0.914135	-0.033722	97.5917	-0.912539	-1.501237E+12	2.246278E-14	NaN
69	1.000000	0.202603	7.36572e+06	-42089.1	955.819	-29784.5	0.000000	0.000000	6.202776	0.068066	NaN	0.000000	0.001581	0.001626	28.0775	0.088186	0.002089	42.2184	123.092	175.57	0.116726	0.201251	-0.902751	-0.904102	0.068066	42.2184	-0.903960	-1.149655E+12	-5.920579E-14	NaN
69	1.000000	0.212595	7.36572e+06	-42089.1	955.819	-29784.5	0.000000	0.000000	6.212767	0.054214	NaN	0.000000	0.001536	0.001600	28.0985	0.029612	0.002054	14.4193	-76.7955	-2.385068	0.049449	0.211211	-0.892758	-0.894142	0.054214	14.4193	-0.895578	-8.857466E+11	-6.120731E-14	NaN
69	1.000000	0.222582	7.36572e+06	-42089.1	955.817	-29784.5	0.000000	0.000000	6.222750	-0.045059	NaN	0.000000	0.001541	0.001616	28.1282	0.067731	0.002075	32.6378	85.9831	174.385	-0.068788	0.221317	-0.882771	-0.884037	-0.045059	32.6378	-0.881736	-5.756828E+11	7.827089E-14	NaN
69	1.000000	0.232600	7.36572e+06	-42089.1	955.818	-29784.5	0.000000	0.000000	6.232768	-0.041516	NaN	0.000000	0.001535	0.001620	28.0921	0.077598	0.001904	40.7594	76.2813	-5.462119	-0.030715	0.231306	-0.872754	-0.874048	-0.041516	40.7594	-0.871990	-4.249767E+11	9.768968E-14	NaN
69	1.000000	0.242602	7.36572e+06	-42089.1	955.818	-29784.5	0.000000	0.000000	6.242773	0.030993	NaN	0.000000	0.001532	0.001612	28.0778	0.057979	0.002074	27.9574	149.746	178.125	0.093786	0.241281	-0.862752	-0.864072	0.030993	27.9574	-0.863583	-3.270529E+11	-9.476435E-14	NaN
69	1.000000	0.252567	7.36572e+06	-42089.1	955.818	-29784.5	0.000000	0.000000	6.252736	-0.034096	NaN	0.000000	0.001646	0.001612	28.0976	0.095363	0.002033	46.9169	-147.314	-2.688264	-0.004592	0.251160	-0.852786	-0.854194	-0.034096	46.9169	-0.852241	-2.296593E+11	1.484653E-13	NaN
69	1.000000	0.262610	7.36572e+06	-42089.1	955.819	-29784.5	0.000000	0.000000	6.262780	0.011086	NaN	0.000000	0.001623	0.001632	28.127	0.076027	0.001931	39.3658	-37.8324	175.692	-0.019257	0.261251	-0.842743	-0.844103	0.011086	39.3658	-0.842955	-1.719172E+11	-6.448514E-14	NaN
69	1.000000	0.272638	7.36572e+06	-42089.1	955.819	-29784.5	0.000000	0.000000	6.272809	0.044732	NaN	0.000000	0.001629	0.001632	28.0918	0.041300	0.001881	21.9506	-178.314	-4.765740	0.022376	0.271258	-0.832716	-0.834095	0.044732	21.9506	-0.834244	-1.310105E+11	-3.414415E-13	NaN
69	1.000000	0.282597	7.36572e+06	-42089.1	955.818	-29784.5	0.000000	0.000000	6.282767	0.006380	NaN	0.000000	0.001657	0.001630	28.0789	0.056516	0.001984	28.4818	-76.1178	174.476	-0.002521	0.281287	-0.822757	-0.824067	0.006380	28.4818	-0.822925	-9.201686E+10	-6.933483E-14	NaN
69	1.000000	0.292632	7.36572e+06	-42089.1	955.818	-29784.5	0.000000	0.000000	6.292805	0.073364	NaN	0.000000	0.001561	0.001651	28.0983	0.077023	0.001988	38.7509	-123.386	-5.306079	0.021084	0.291242	-0.812722	-0.814111	0.073364	38.7509	-0.814142	-6.994476E+10	-1.048884E-12	NaN
69	1.000000	0.302646	7.36572e+06	-42089.1	955.818	-29784.5	0.000000	0.000000	6.302815	-0.022346	NaN	0.000000	0.001646	0.001595	28.1296	0.117803	0.002160	54.5376	115.382	174.578	-0.044479	0.301289	-0.802708	-0.804064	-0.022346	54.5376	-0.802400	-4.846655E+10	4.610677E-13	NaN
69	1.000000	0.312604	7.36572e+06	-42089.1	955.818	-29784.5	0.000000	0.000000	6.312774	0.013644	NaN	0.000000	0.001630	0.001632	28.094	0.063201	0.002071	30.5239	140.606	-7.595448	-0.033679	0.311306	-0.792749	-0.794048	0.013644	30.5239	-0.793085	-3.622225E+10	-3.766741E-13	NaN
69	1.000000	0.322659	7.36572e+06	-42089.1	955.818	-29784.5	0.000000	0.000000	6.322828	-0.017262	NaN	0.000000	0.001640	0.001632	28.0796	0.075814	0.001895	40.0025	28.031	176.47	-0.007220	0.321316	-0.782695	-0.784038	-0.017262	40.0025	-0.782371	-2.590899E+10	6.662559E-13	NaN
69	1.000000	0.332644	7.36572e+06	-42089.1	955.818	-29784.5	0.000000	0.000000	6.332815	0.040823	NaN	0.000000	0.001629	0.001698	28.0983	0.059688	0.001890	31.5836	46.474	-4.444768	0.045660	0.331282	-0.772710	-0.774072	0.040823	31.5836	-0.773679	-1.973882E+10	-2.068146E-12	NaN
69	1.000000	0.342641	7.36572e+06	-42089.1	955.818	-29784.5	0.000000	0.000000	6.342809	-0.036430	NaN	0.000000	0.001621	0.001673	28.1286	0.046671	0.002081	22.4253	-84.7359	177.451	-0.078645	0.341346	-0.762712	-0.764008	-0.036430	22.4253	-0.761494	-1.347806E+10	2.702882E-12	NaN
69	1.000000	0.352637	7.36572e+06	-42089.1	955.818	-29784.5	0.000000	0.000000	6.352805	-0.045870	NaN	0.000000	0.001620	0.001691	28.0926	0.119212	0.002069	57.6303	-165.385	-2.947256	-0.008208	0.351287	-0.752717	-0.754067	-0.045870	57.6303	-0.752120	-1.004784E+10	4.565201E-12	NaN
69	1.000000	0.362646	7.36572e+06	-42089.1	955.818	-29784.5	0.000000	0.000000	6.362813	-0.045718	NaN	0.000000	0.001603	0.001654	28.0801	0.101977	0.001928	52.8833	15.7021	175.706	0.042396	0.361332	-0.742708	-0.744022	-0.045718	52.8833	-0.742060	-7.330065E+9	6.237104E-12	NaN
69	1.000000	0.372675	7.36572e+06	-42089.1	955.818	-29784.5	0.000000	0.000000	6.372845	0.024533	NaN	0.000000	0.001587	0.001666	28.1	0.019445	0.002009	9.679746	-89.4873	-4.540279	-0.019063	0.371280	-0.732679	-0.734073	0.024533	9.679746	-0.734580	-5.797181E+9	-4.231944E-12	NaN
69	1.000000	0.382679	7.36572e+06	-42089.1	955.818	-29784.5	0.000000	0.000000	6.382851	0.056580	NaN	0.000000	0.001597	0.001628	28.1296	0.100766	0.001899	53.0707	-150.951	175.349	0.078928	0.381360	-0.722675	-0.723994	0.056580	53.0707	-0.723474	-4.091213E+9	-1.382956E-11	NaN
69	1.000000	0.392678	7.36572e+06	-42089.1	955.818	-29784.5	0.000000	0.000000	6.392847	-0.022203	NaN	0.000000	0.001609	0.001623	28.094	0.076487	0.002091	36.5799	-123.178	-8.985453	0.057536	0.391276	-0.712675	-0.714077	-0.022203	36.5799	-0.712220	-2.873047E+9	7.728156E-12	NaN
69	1.000000	0.402664	7.36572e+06	-42089.1	955.818	-29784.5	0.000000	0.000000	6.402834	-0.008897	NaN	0.000000	0.001631	0.001633	28.0789	0.016766	0.001957	8.566218	76.6613	179.927	-0.032863	0.401381	-0.702689	-0.703973	-0.008897	8.566218	-0.701910	-2.077865E+9	4.281926E-12	NaN
69	1.000000	0.412678	7.36572e+06	-42089.1	955.818	-29784.5	0.000000	0.000000	6.412845	-0.054522	NaN	0.000000	0.001599	0.001624	28.0985	0.019196	0.002014	9.528926	-113.513	-3.645723	0.080724	0.411275	-0.692676	-0.694079	-0.054522	9.528926	-0.688385	-1.357817E+9	4.015399E-11	NaN
69	1.000000	0.422684	7.36572e+06	-42089.1	955.818	-29784.5	0.000000	0.000000	6.422853	-0.010456	NaN	0.000000	0.001588	0.001655	28.1286	0.047062	0.002094	22.478	-35.2623	176.556	-0.076147	0.421392	-0.682670	-0.683961	-0.010456	22.478	-0.682321	-1.121868E+9	9.319819E-12	NaN
69	1.000000	0.432666	7.36572e+06	-42089.1	955.818	-29784.5	0.000000	0.000000	6.432838	0.043127	NaN	0.000000	0.001609	0.001634	28.0936	0.146441	0.002108	69.4728	146.757	-3.521319	-0.002624	0.431301	-0.672687	-0.674052	0.043127	69.4728	-0.673153	-8.404987E+8	-5.131131E-11	NaN
69	1.000000	0.442672	7.36572e+06	-42089.1	955.818	-29784.5	0.000000	0.000000	6.442842	0.009609	NaN	0.000000	0.001635	0.001609	28.0785	0.071346	0.001823	39.1279	-30.9599	173.459	0.028698	0.441393	-0.662681	-0.663961	0.009609	39.1279	-0.662865	-6.077338E+8	-1.581106E-11	NaN
69	1.000000	0.452687	7.36572e+06	-42089.1	955.819	-29784.5	0.000000	0.000000	6.452857	0.003523	NaN	0.000000	0.001544	0.001631	28.0986	0.057337	0.001958	29.2822	67.0795	-2.578844	0.059848	0.451368	-0.652667	-0.653985	0.003523	29.2822	-0.652757	-4.418029E+8	-7.974123E-12	NaN
69	1.000000	0.462693	7.36572e+06	-42089.1	955.819	-29784.5	0.000000	0.000000	6.462863	0.000287	NaN	0.000000	0.001532	0.001615	28.1284	0.130915	0.001882	69.5635	-145.543	173.392	0.057684	0.461310	-0.642660	-0.644044	0.000287	69.5635	-0.642663	-3.212381E+8	-8.941810E-13	NaN
69	1.000000	0.472708	7.36572e+06	-42089.1	955.818	-29784.5	0.000000	0.000000	6.472878	0.005710	NaN	0.000000	0.001518	0.001607	28.0928	0.017870	0.002035	8.781619	-178.942	-4.577839	0.030315	0.471358	-0.632645	-0.633996	0.005710	8.781619	-0.633133	-2.377079E+8	-2.402071E-11	NaN
69	1.000000	0.482677	7.36572e+06	-42089.1	955.818	-29784.5	0.000000	0.000000	6.482848	0.023951	NaN	0.000000	0.001517	0.001637	28.0769	0.080463	0.002036	39.5235	2.311686	-179.167	0.029302	0.481409	-0.622676	-0.623944	0.023951	39.5235	-0.623131	-1.732450E+8	-1.382497E-10	NaN
69	1.000000	0.492694	7.36572e+06	-42089.1	955.818	-29784.5	0.000000	0.000000	6.492862	-0.036021	NaN	0.000000	0.001542	0.001659	28.0971	0.053753	0.002055	26.1536	-124.119	-3.621669	-0.069221	0.491343	-0.612659	-0.614011	-0.036021	26.1536	-0.611626	-1.203624E+8	2.992722E-10	NaN
69	1.000000	0.502693	7.36572e+06	-42089.1	955.819	-29784.5	0.000000	0.000000	6.502865	0.055942	NaN	0.000000	0.001536	0.001635	28.1275	0.031469	0.001939	16.2265	46.1416	176.345	0.134330	0.501449	-0.602660	-0.603905	0.055942	16.2265	-0.605246	-9.833115E+7	-5.689153E-10	NaN
69	1.000000	0.512724	7.36572e+06	-42089.1	955.818	-29784.5	0.000000	0.000000	6.512893	-0.015585	NaN	0.000000	0.001556	0.001612	28.0924	0.078418	0.002040	38.4377	-10.3996	-3.119942	-0.025320	0.511336	-0.592630	-0.594017	-0.015585	38.4377	-0.592326	-6.527227E+7	2.387623E-10	NaN
69	1.000000	0.522710	7.36572e+06	-42089.1	955.819	-29784.5	0.000000	0.000000	6.522881	0.024987	NaN	0.000000	0.001562	0.001630	28.0775	0.045656	0.002003	22.789	159.516	176.862	-0.001094	0.521381	-0.582643	-0.583973	0.024987	22.789	-0.583466	-4.926593E+7	-5.071943E-10	NaN
69	1.000000	0.532712	7.36572e+06	-42089.1	955.819	-29784.5	0.000000	0.000000	6.532882	0.011999	NaN	0.000000	0.001518	0.001604	28.0974	0.046758	0.002038	22.9434	90.8161	0.306607	-0.017472	0.531360	-0.572641	-0.573993	0.011999	22.9434	-0.573034	-3.536225E+7	-3.393223E-10	NaN
69	1.000000	0.542721	7.36572e+06	-42089.1	955.818	-29784.5	0.000000	0.000000	6.542892	0.031008	NaN	0.000000	0.001558	0.001637	28.1289	0.077662	0.002047	37.9374	28.1951	175.704	0.090132	0.541384	-0.562632	-0.563970	0.031008	37.9374	-0.563245	-2.589798E+7	-1.197315E-9	NaN
69	1.000000	0.552766	7.36572e+06	-42089.1	955.818	-29784.5	0.000000	0.000000	6.552936	8.863590E-5	NaN	0.000000	0.001575	0.001587	28.0933	0.078540	0.002046	38.3789	83.7422	-3.934292	0.075892	0.551370	-0.552588	-0.553984	8.863590E-5	38.3789	-0.552589	-1.844228E+7	-4.806125E-12	NaN
69	1.000000	0.562743	7.36572e+06	-42089.1	955.818	-29784.5	0.000000	0.000000	6.562913	0.008089	NaN	0.000000	0.001559	0.001624	28.0788	0.090996	0.001973	46.1116	-83.0833	174.839	-0.070099	0.561424	-0.542611	-0.543929	0.008089	46.1116	-0.542742	-1.347051E+7	-6.005321E-10	NaN
69	1.000000	0.572721	7.36572e+06	-42089.1	955.818	-29784.5	0.000000	0.000000	6.572889	-0.055238	NaN	0.000000	0.001556	0.001626	28.0974	0.039307	0.002060	19.0843	-171.507	-2.738864	-0.046038	0.571396	-0.532632	-0.533958	-0.055238	19.0843	-0.530462	-9.09885e+06	6.070863E-9	NaN
69	1.000000	0.582734	7.36572e+06	-42089.1	955.819	-29784.5	0.000000	0.000000	6.582903	-0.029022	NaN	0.000000	0.001543	0.001618	28.1289	0.058545	0.001997	29.3198	176.478	176.326	-0.089257	0.581398	-0.522619	-0.523955	-0.029022	29.3198	-0.521877	-6.91346e+06	4.197827E-9	NaN
69	1.000000	0.592746	7.36572e+06	-42089.1	955.818	-29784.5	0.000000	0.000000	6.592914	-0.038571	NaN	0.000000	0.001566	0.001621	28.0936	0.097815	0.002041	47.9181	46.7278	-3.911581	-0.040895	0.591422	-0.512608	-0.513932	-0.038571	47.9181	-0.512004	-5.03878e+06	7.654848E-9	NaN
69	1.000000	0.602737	7.36572e+06	-42089.1	955.818	-29784.5	0.000000	0.000000	6.602906	-0.017006	NaN	0.000000	0.001591	0.001612	28.0801	0.008628	0.002082	4.144279	-30.8459	175.195	0.016926	0.601488	-0.502616	-0.503865	-0.017006	4.144279	-0.499539	-3.37739e+06	5.035378E-9	NaN
69	1.000000	0.612787	7.36572e+06	-42089.1	955.818	-29784.5	0.000000	0.000000	6.612957	-0.008818	NaN	0.000000	0.001555	0.001596	28.0983	0.076416	0.002141	35.688	179.19	-5.953794	0.021045	0.611463	-0.492566	-0.493890	-0.008818	35.688	-0.492381	-2.68324e+06	3.286390E-9	NaN
69	1.000000	0.622751	7.36572e+06	-42089.1	955.818	-29784.5	0.000000	0.000000	6.622919	-0.061603	NaN	0.000000	0.001591	0.001647	28.1302	0.062968	0.002011	31.3049	100.752	177.03	0.002626	0.621429	-0.482602	-0.483924	-0.061603	31.3049	-0.481126	-1.86764e+06	3.298419E-8	NaN
69	1.000000	0.632770	7.36572e+06	-42089.1	955.818	-29784.5	0.000000	0.000000	6.632939	-0.020886	NaN	0.000000	0.001678	0.001637	28.0966	0.107759	0.001983	54.3302	-6.766111	-5.605205	-0.054964	0.631374	-0.472583	-0.473979	-0.020886	54.3302	-0.472295	-1.40471e+06	1.486822E-8	NaN
69	1.000000	0.642770	7.36572e+06	-42089.1	955.818	-29784.5	0.000000	0.000000	6.642938	-0.032345	NaN	0.000000	0.001635	0.001645	28.0772	0.118339	0.001947	60.7928	-174.595	177.803	-0.008979	0.641458	-0.462584	-0.463896	-0.032345	60.7928	-0.462185	-1.01324e+06	3.192249E-8	NaN
69	1.000000	0.652797	7.36572e+06	-42089.1	955.818	-29784.5	0.000000	0.000000	6.652966	-0.031549	NaN	0.000000	0.001665	0.001609	28.0969	0.063758	0.001951	32.6793	112.895	-4.499916	0.044297	0.651401	-0.452556	-0.453952	-0.031549	32.6793	-0.451832	-724665	4.353539E-8	NaN
69	1.000000	0.662786	7.36572e+06	-42089.1	955.818	-29784.5	0.000000	0.000000	6.662958	0.071085	NaN	0.000000	0.001637	0.001587	28.1294	0.032010	0.002030	15.768	-155.051	175.452	0.063305	0.661461	-0.442568	-0.443892	0.071085	15.768	-0.445949	-598782	-1.187156E-7	NaN
69	1.000000	0.672808	7.36572e+06	-42089.1	955.818	-29784.5	0.000000	0.000000	6.672977	-0.007271	NaN	0.000000	0.001672	0.001624	28.0939	0.095957	0.001974	48.5979	116.442	-9.912745	0.009285	0.671454	-0.432546	-0.433899	-0.007271	48.5979	-0.432433	-385902	1.884100E-8	NaN
69	1.000000	0.682787	7.36572e+06	-42089.1	955.818	-29784.5	0.000000	0.000000	6.682953	-0.085474	NaN	0.000000	0.001654	0.001625	28.0792	0.165942	0.002090	79.4124	2.525773	177.31	-0.066618	0.681422	-0.422567	-0.423932	-0.085474	79.4124	-0.421760	-272500	3.136656E-7	NaN
69	1.000000	0.692791	7.36572e+06	-42089.1	955.818	-29784.5	0.000000	0.000000	6.692961	0.026341	NaN	0.000000	0.001627	0.001649	28.0983	0.087563	0.002014	43.4751	106.995	-4.743676	-0.001269	0.691443	-0.412563	-0.413911	0.026341	43.4751	-0.413017	-204783	-1.286305E-7	NaN
69	1.000000	0.702785	7.36572e+06	-42089.1	955.818	-29784.5	0.000000	0.000000	6.702955	0.008602	NaN	0.000000	0.001656	0.001632	28.1297	0.103697	0.002082	49.7948	-92.3175	177.312	0.046077	0.701496	-0.402568	-0.403858	0.008602	49.7948	-0.402698	-146034	-5.890448E-8	NaN
69	1.000000	0.712794	7.36572e+06	-42089.1	955.819	-29784.5	0.000000	0.000000	6.712965	0.047324	NaN	0.000000	0.001616	0.001605	28.0946	0.123233	0.002035	60.5671	-165.328	-2.359221	-0.004020	0.711450	-0.392560	-0.393904	0.047324	60.5671	-0.393146	-106696	-4.435428E-7	NaN
69	1.000000	0.722792	7.36572e+06	-42089.1	955.818	-29784.5	0.000000	0.000000	6.722961	-0.019169	NaN	0.000000	0.001635	0.001609	28.0786	0.076940	0.002013	38.2204	136.397	178.058	-0.057625	0.721456	-0.382562	-0.383898	-0.019169	38.2204	-0.382186	-74343.7	2.578365E-7	NaN
69	1.000000	0.732801	7.36572e+06	-42089.1	955.818	-29784.5	0.000000	0.000000	6.732971	0.008088	NaN	0.000000	0.001651	0.001564	28.0961	0.084032	0.001958	42.9068	158.653	-6.252376	-0.027801	0.731456	-0.372553	-0.373898	0.008088	42.9068	-0.372694	-54314.1	-1.489200E-7	NaN
69	1.000000	0.742840	7.36572e+06	-42089.1	955.818	-29784.5	0.000000	0.000000	6.743008	-0.031937	NaN	0.000000	0.001642	0.001607	28.1275	0.070749	0.002058	34.381	140.6	176.174	0.000275	0.741483	-0.362514	-0.363871	-0.031937	34.381	-0.361817	-37853.6	8.436934E-7	NaN
69	1.000000	0.752798	7.36572e+06	-42089.1	955.818	-29784.5	0.000000	0.000000	6.752968	0.010882	NaN	0.000000	0.001644	0.001579	28.0939	0.149955	0.002039	73.5281	-84.0509	-6.074386	0.038781	0.751453	-0.352556	-0.353900	0.010882	73.5281	-0.352667	-27905.4	-3.899738E-7	NaN
69	1.000000	0.762831	7.36572e+06	-42089.1	955.819	-29784.5	0.000000	0.000000	6.763001	0.008505	NaN	0.000000	0.001658	0.001573	28.0782	0.104548	0.001989	52.5589	-129.977	177.006	0.014595	0.761483	-0.342522	-0.343871	0.008505	52.5589	-0.342644	-19955.7	-4.261985E-7	NaN
69	1.000000	0.772836	7.36572e+06	-42089.1	955.818	-29784.5	0.000000	0.000000	6.773006	0.015433	NaN	0.000000	0.001650	0.001543	28.096	0.019642	0.002005	9.796471	-28.8367	-1.180707	0.031975	0.771512	-0.332518	-0.333841	0.015433	9.796471	-0.333699	-14776.7	-1.044387E-6	NaN
69	1.000000	0.782809	7.36572e+06	-42089.1	955.818	-29784.5	0.000000	0.000000	6.782977	-0.030008	NaN	0.000000	0.001635	0.001612	28.1287	0.014079	0.001960	7.181698	-170.879	177.138	0.022781	0.781478	-0.322545	-0.323876	-0.030008	7.181698	-0.319411	-9119.4	3.290532E-6	NaN
69	1.000000	0.792849	7.36572e+06	-42089.1	955.819	-29784.5	0.000000	0.000000	6.793015	-0.078813	NaN	0.000000	0.001660	0.001604	28.0952	0.106811	0.001925	55.4743	-116.115	-1.957862	-0.044447	0.791557	-0.312505	-0.313796	-0.078813	55.4743	-0.311440	-6955.86	1.133040E-5	NaN
69	1.000000	0.802851	7.36572e+06	-42089.1	955.818	-29784.5	0.000000	0.000000	6.803021	0.016878	NaN	0.000000	0.001641	0.001569	28.0779	0.097398	0.002021	48.1992	175.721	176.084	0.062608	0.801523	-0.302503	-0.303830	0.016878	48.1992	-0.302765	-5173.26	-3.262612E-6	NaN
69	1.000000	0.812839	7.36572e+06	-42089.1	955.818	-29784.5	0.000000	0.000000	6.813011	0.057050	NaN	0.000000	0.001654	0.001609	28.0951	0.031448	0.002006	15.6763	38.6367	-1.913477	-0.012677	0.811487	-0.292515	-0.293867	0.057050	15.6763	-0.295244	-3997.04	-1.427297E-5	NaN
69	1.000000	0.822837	7.36572e+06	-42089.1	955.818	-29784.5	0.000000	0.000000	6.823007	-0.002839	NaN	0.000000	0.001635	0.001549	28.1275	0.089156	0.001955	45.5984	-147.617	175.364	-0.022310	0.821516	-0.282516	-0.283838	-0.002839	45.5984	-0.282470	-2571.56	1.104043E-6	NaN
69	1.000000	0.832843	7.36572e+06	-42089.1	955.819	-29784.5	0.000000	0.000000	6.833013	0.022446	NaN	0.000000	0.001661	0.001564	28.0946	0.086402	0.002038	42.3952	117.271	-4.600717	0.009346	0.831476	-0.272511	-0.273878	0.022446	42.3952	-0.272908	-1843.72	-1.217438E-5	NaN
69	1.000000	0.842846	7.36572e+06	-42089.1	955.818	-29784.5	0.000000	0.000000	6.843017	0.031140	NaN	0.000000	0.001636	0.001560	28.0783	0.100883	0.001899	53.1283	141.886	176.498	-0.031766	0.841522	-0.262507	-0.263831	0.031140	53.1283	-0.262947	-1300.25	-2.394936E-5	NaN
69	1.000000	0.852832	7.36572e+06	-42089.1	955.818	-29784.5	0.000000	0.000000	6.853001	-0.025726	NaN	0.000000	0.001623	0.001562	28.0974	0.049318	0.001961	25.1467	-103.716	0.617402	-0.015937	0.851527	-0.252521	-0.253827	-0.025726	25.1467	-0.251754	-875.121	2.939680E-5	NaN
69	1.000000	0.862867	7.36572e+06	-42089.1	955.818	-29784.5	0.000000	0.000000	6.863037	-0.001626	NaN	0.000000	0.001645	0.001541	28.1299	0.082362	0.001894	43.4944	-158.296	175.797	0.051190	0.861548	-0.242486	-0.243806	-0.001626	43.4944	-0.242458	-627.918	2.589803E-6	NaN
69	1.000000	0.872859	7.36572e+06	-42089.1	955.818	-29784.5	0.000000	0.000000	6.873031	0.063704	NaN	0.000000	0.001648	0.001564	28.0963	0.037842	0.002028	18.6603	135.205	-6.062197	0.003086	0.871511	-0.232495	-0.233842	0.063704	18.6603	-0.235055	-480.967	-0.000132	NaN
69	1.000000	0.882871	7.36572e+06	-42089.1	955.819	-29784.5	0.000000	0.000000	6.883039	-0.042635	NaN	0.000000	0.001666	0.001569	28.0785	0.061897	0.002109	29.3426	-12.1307	174.821	0.023963	0.881516	-0.222482	-0.223838	-0.042635	29.3426	-0.221393	-292.356	0.000146	NaN
69	1.000000	0.892854	7.36572e+06	-42089.1	955.819	-29784.5	0.000000	0.000000	6.893023	-0.025926	NaN	0.000000	0.001702	0.001571	28.0965	0.133928	0.002092	64.0271	123.113	-2.521158	-0.072588	0.891501	-0.212499	-0.213852	-0.025926	64.0271	-0.212196	-208.124	0.000125	NaN
69	1.000000	0.902899	7.36572e+06	-42089.1	955.818	-29784.5	0.000000	0.000000	6.903072	0.068232	NaN	0.000000	0.001669	0.001568	28.1291	0.047690	0.001909	24.9789	-125.963	179.006	-0.017491	0.901542	-0.202454	-0.203812	0.068232	24.9789	-0.204503	-156.116	-0.000437	NaN
69	1.000000	0.912882	7.36572e+06	-42089.1	955.819	-29784.5	0.000000	0.000000	6.913049	-0.074407	NaN	0.000000	0.001654	0.001575	28.096	0.083335	0.001880	44.316	-149.703	-3.193818	0.004676	0.911568	-0.192472	-0.193785	-0.074407	44.316	-0.191212	-94.2454	0.000790	NaN
69	1.000000	0.922894	7.36572e+06	-42089.1	955.818	-29784.5	0.000000	0.000000	6.923064	0.003428	NaN	0.000000	0.001663	0.001572	28.0801	0.020781	0.002039	10.1907	128.339	177.633	0.017426	0.921586	-0.182460	-0.183768	0.003428	10.1907	-0.182712	-67.8405	-5.052976E-5	NaN
69	1.000000	0.932910	7.36572e+06	-42089.1	955.819	-29784.5	0.000000	0.000000	6.933081	0.039547	NaN	0.000000	0.001649	0.001597	28.0973	0.063538	0.002099	30.2724	-35.6232	-4.962038	-0.035240	0.931515	-0.172444	-0.173839	0.039547	30.2724	-0.173424	-47.0815	-0.000840	NaN
69	1.000000	0.942889	7.36572e+06	-42089.1	955.818	-29784.5	0.000000	0.000000	6.943058	-0.003494	NaN	0.000000	0.001656	0.001633	28.13	0.092861	0.002055	45.1919	176.14	173.481	-0.011615	0.941592	-0.162465	-0.163762	-0.003494	45.1919	-0.162407	-30.2433	0.000116	NaN
69	1.000000	0.952886	7.36572e+06	-42089.1	955.818	-29784.5	0.000000	0.000000	6.953057	0.039343	NaN	0.000000	0.001638	0.001613	28.0968	0.110942	0.002039	54.4015	-71.1712	-6.771005	0.080139	0.951540	-0.152468	-0.153814	0.039343	54.4015	-0.153010	-20.5439	-0.001915	NaN
69	1.000000	0.962910	7.36572e+06	-42089.1	955.819	-29784.5	0.000000	0.000000	6.963076	-0.102761	NaN	0.000000	0.001664	0.001660	28.0788	0.040854	0.001954	20.9076	-150.443	174.332	-0.097244	0.961544	-0.142443	-0.143809	-0.102761	20.9076	-0.138757	-11.2092	0.009168	NaN
69	1.000000	0.972907	7.36572e+06	-42089.1	955.818	-29784.5	0.000000	0.000000	6.973076	-0.006272	NaN	0.000000	0.001657	0.001621	28.0958	0.079062	0.002072	38.1518	152.793	-2.714327	0.010539	0.971569	-0.132447	-0.133784	-0.006272	38.1518	-0.132324	-8.452092	0.000742	NaN
69	1.000000	0.982910	7.36572e+06	-42089.1	955.819	-29784.5	0.000000	0.000000	6.983077	-0.059722	NaN	0.000000	0.001713	0.001621	28.1275	0.061159	0.001968	31.0745	-150.772	177.962	-0.091156	0.981553	-0.122444	-0.123801	-0.059722	31.0745	-0.121003	-5.061473	0.011799	NaN
69	1.000000	0.992895	7.36572e+06	-42089.1	955.819	-29784.5	0.000000	0.000000	6.993067	0.054137	NaN	0.000000	0.001713	0.001607	28.0951	0.099580	0.001931	51.5559	141.35	-8.066977	0.005578	0.991625	-0.112459	-0.113729	0.054137	51.5559	-0.113246	-3.514094	-0.015406	NaN
69	1.000000	1.002908	7.36572e+06	-42089.1	955.819	-29784.5	0.000000	0.000000	7.003077	-0.027610	NaN	0.000000	0.001704	0.001576	28.0781	0.095938	0.001931	49.6768	-56.9382	176.044	-0.050544	1.001593	-0.102445	-0.103761	-0.027610	49.6768	-0.102028	-2.025341	0.013632	NaN
69	1.000000	1.012910	7.36572e+06	-42089.1	955.819	-29784.5	0.000000	0.000000	7.013080	0.017263	NaN	0.000000	0.001735	0.001607	28.0954	0.029164	0.001960	14.8762	-24.3028	-5.320183	0.075036	1.011540	-0.092444	-0.093813	0.017263	14.8762	-0.093314	-1.290658	-0.013375	NaN
69	1.000000	1.022908	7.36572e+06	-42089.1	955.82	-29784.5	0.000000	0.000000	7.023079	0.039858	NaN	0.000000	0.001673	0.001564	28.1291	0.145264	0.002115	68.6905	142.934	177.879	0.080242	1.021587	-0.082446	-0.083767	0.039858	68.6905	-0.082881	-0.729543	-0.054634	NaN
69	1.000000	1.032911	7.36572e+06	-42089.1	955.819	-29784.5	0.000000	0.000000	7.033081	0.010026	NaN	0.000000	0.001638	0.001546	28.0961	0.042299	0.001989	21.269	-121.452	-5.737535	0.023198	1.031543	-0.072442	-0.073811	0.010026	21.269	-0.072796	-0.404630	-0.024779	NaN
69	1.000000	1.042916	7.36572e+06	-42089.1	955.819	-29784.5	0.000000	0.000000	7.043088	0.043243	NaN	0.000000	0.001660	0.001556	28.0775	0.113406	0.002055	55.1746	-23.1518	175.415	0.017880	1.041629	-0.062437	-0.063725	0.043243	55.1746	-0.063025	-0.219490	-0.197018	NaN
69	1.000000	1.052934	7.36572e+06	-42089.1	955.819	-29784.5	0.000000	0.000000	7.053105	0.039694	NaN	0.000000	0.001756	0.001563	28.0948	0.019511	0.002017	9.672754	-70.8621	-2.363011	0.039424	1.051601	-0.052420	-0.053752	0.039694	9.672754	-0.055498	-0.133209	-0.297987	NaN
69	1.000000	1.062946	7.36572e+06	-42089.1	955.819	-29784.5	0.000000	0.000000	7.063119	0.080470	NaN	0.000000	0.001725	0.001605	28.1279	0.016699	0.002111	7.911047	-28.5578	175.247	-0.030423	1.061618	-0.042407	-0.043735	0.080470	7.911047	-0.050036	-0.091481	-0.879637	NaN
69	1.000000	1.072947	7.36572e+06	-42089.1	955.819	-29784.5	0.000000	0.000000	7.073116	-0.035219	NaN	0.000000	0.001758	0.001578	28.0949	0.016370	0.002035	8.046021	-43.5497	-6.422235	0.076883	1.071583	-0.032406	-0.033770	-0.035219	8.046021	-0.029123	-0.021761	1.618459	NaN
69	1.000000	1.082934	7.36572e+06	-42089.1	955.82	-29784.5	0.000000	0.000000	7.083104	0.005930	NaN	0.000000	0.001733	0.001545	28.0798	0.051738	0.001885	27.4528	-32.973	173.222	-0.017353	1.081657	-0.022419	-0.023697	0.005930	27.4528	-0.022581	-0.014612	-0.405861	NaN
69	1.000000	1.092977	7.36572e+06	-42089.1	955.819	-29784.5	0.000000	0.000000	7.093146	0.000745	NaN	0.000000	0.001740	0.001638	28.0947	0.098179	0.001882	52.1631	34.3542	1.534329	0.036472	1.091582	-0.012377	-0.013772	0.000745	52.1631	-0.012388	-0.007750	-0.096104	NaN
69	1.000000	1.102984	7.36572e+06	-42089.1	955.819	-29784.5	0.000000	0.000000	7.103148	-0.123860	NaN	0.000000	0.001736	0.001597	28.1288	0.083772	0.001961	42.7206	113.1	175.185	-0.012271	1.101649	-0.002370	-0.003705	-0.123860	42.7206	-0.000196	-0.000146	850.975	NaN
69	1.000000	1.112901	7.36572e+06	-42089.1	955.819	-29784.5	0.000000	0.000000	7.113338	6.525743	NaN	0.000000	0.001718	0.001645	28.0967	6.659508	0.001674	3977.39	10.9997	-8.843726	4.746000	1.111599	0.007547	0.006245	6.525743	3977.39	0.006316	0.005367	1215.87	49602.1
69	2.000000	1.116704	7.36572e+06	-42089.1	955.819	-29784.5	0.000000	0.000000	7.117307	10.5636	NaN	0.000000	0.001723	0.001618	28.0782	11.2737	0.001733	6503.76	7.600428	167.149	10.5718	1.116350	0.011350	0.010997	10.5636	6503.76	0.010132	0.009328	1132.42	61522.6
69	2.000000	1.119194	7.36572e+06	-42089.1	955.819	-29784.5	0.000000	0.000000	7.119954	14.347	NaN	0.000000	0.001720	0.001622	28.0948	13.4561	0.001672	8049.1	8.640737	-15.8775	13.4952	1.118834	0.013841	0.013480	14.347	8049.1	0.012504	0.012099	1185.76	66855.6
69	2.000000	1.121657	7.36572e+06	-42089.1	955.819	-29784.5	0.000000	0.000000	7.122644	19.8698	NaN	0.000000	0.001749	0.001619	28.1293	15.8883	0.001837	8648.81	8.542418	163.752	19.9842	1.121303	0.016304	0.015949	19.8698	8648.81	0.014581	0.014731	1348.89	65105.9
69	2.000000	1.124149	7.36572e+06	-42089.1	955.819	-29784.5	0.000000	0.000000	7.125300	23.8669	NaN	0.000000	0.001739	0.001639	28.0974	18.5576	0.001845	10060.7	3.176964	-15.1075	23.0163	1.123810	0.018796	0.018456	23.8669	10060.7	0.017017	0.018069	1320.85	68380.6
69	2.000000	1.126606	7.36572e+06	-42089.1	955.818	-29784.5	0.000000	0.000000	7.128048	30.9516	NaN	0.000000	0.001766	0.001631	28.0801	21.6902	0.001880	11538.9	4.088630	166.29	30.875	1.126322	0.021252	0.020969	30.9516	11538.9	0.019240	0.021363	1448.87	72128.9
69	2.000000	1.129185	7.36572e+06	-42089.1	955.819	-29784.5	0.000000	0.000000	7.130828	35.8396	NaN	0.000000	0.001740	0.001626	28.0961	23.6583	0.001768	13378.2	8.587935	-18.2911	36.3202	1.128847	0.023831	0.023494	35.8396	13378.2	0.021822	0.025487	1406.2	76561.9
69	2.000000	1.131607	7.36572e+06	-42089.1	955.82	-29784.5	0.000000	0.000000	7.133611	44.6192	NaN	0.000000	0.001714	0.001649	28.1303	25.9603	0.001691	15354.4	4.785412	162.595	42.9824	1.131288	0.026254	0.025935	44.6192	15354.4	0.024074	0.029353	1520.1	81880.4
69	2.000000	1.134125	7.36572e+06	-42089.1	955.819	-29784.5	0.000000	0.000000	7.136476	53.0653	NaN	0.000000	0.001719	0.001622	28.0979	29.5758	0.001749	16911.1	4.916093	-18.1299	51.786	1.133802	0.028772	0.028449	53.0653	16911.1	0.026418	0.033647	1577.14	84231.5
69	2.000000	1.136545	7.36572e+06	-42089.1	955.82	-29784.5	0.000000	0.000000	7.139264	62.0321	NaN	0.000000	0.001684	0.001639	28.0781	32.2728	0.001698	19003.9	2.675904	163.016	60.3507	1.136240	0.031191	0.030886	62.0321	19003.9	0.028743	0.038179	1624.78	88859.4
69	2.000000	1.139095	7.36572e+06	-42089.1	955.819	-29784.5	0.000000	0.000000	7.142247	72.5516	NaN	0.000000	0.001707	0.001625	28.0942	34.1803	0.001797	19018.7	5.155650	-18.9259	70.6324	1.138762	0.033742	0.033408	72.5516	19018.7	0.030881	0.042589	1703.53	84198.7
69	2.000000	1.141531	7.36572e+06	-42089.1	955.82	-29784.5	0.000000	0.000000	7.145093	82.5331	NaN	0.000000	0.001714	0.001632	28.1287	36.5735	0.001761	20764.6	3.080674	161.545	79.5603	1.141220	0.036178	0.035866	82.5331	20764.6	0.033197	0.047630	1732.79	86927.2
69	2.000000	1.144052	7.36572e+06	-42089.1	955.82	-29784.5	0.000000	0.000000	7.147996	91.8475	NaN	0.000000	0.001667	0.001630	28.0975	39.5	0.001789	22084.7	3.402410	-18.8121	89.8953	1.143686	0.038698	0.038332	91.8475	22084.7	0.035579	0.053103	1729.62	87560.1
69	2.000000	1.146577	7.36572e+06	-42089.1	955.82	-29784.5	0.000000	0.000000	7.150795	98.5154	NaN	0.000000	0.001702	0.001605	28.0799	43.7699	0.001866	23456.5	4.738889	158.568	97.5547	1.146300	0.041223	0.040947	98.5154	23456.5	0.038073	0.059143	1665.71	88121.9
69	2.000000	1.149070	7.36572e+06	-42089.1	955.82	-29784.5	0.000000	0.000000	7.153898	113.356	NaN	0.000000	0.001700	0.001643	28.0951	44.3523	0.001805	24572	3.781669	-20.4124	110.889	1.148713	0.043716	0.043360	113.356	24572	0.040256	0.064693	1752.22	88264.4
69	2.000000	1.151478	7.36572e+06	-42089.1	955.82	-29784.5	0.000000	0.000000	7.156818	125.787	NaN	0.000000	0.001707	0.001638	28.1289	46.1334	0.001763	26168.1	5.830490	155.984	121.334	1.151193	0.046125	0.045839	125.787	26168.1	0.042519	0.070702	1779.12	89914.8
69	2.000000	1.154030	7.36572e+06	-42089.1	955.821	-29784.5	0.000000	0.000000	7.160061	142.621	NaN	0.000000	0.001678	0.001610	28.0974	48.1394	0.001781	27033.3	3.359019	-21.1007	140.347	1.153736	0.048676	0.048383	142.621	27033.3	0.044720	0.076793	1857.21	89127.3
69	2.000000	1.156531	7.36572e+06	-42089.1	955.82	-29784.5	0.000000	0.000000	7.162739	146.932	NaN	0.000000	0.001702	0.001629	28.0772	51.7054	0.001754	29480	3.373563	158.539	146.281	1.156228	0.051177	0.050875	146.932	29480	0.047439	0.084663	1735.5	92566.6
69	2.000000	1.159141	7.36573e+06	-42089.1	955.82	-29784.5	0.000000	0.000000	7.165743	156.51	NaN	0.000000	0.001747	0.001621	28.0931	53.4678	0.001845	28972.5	4.742993	-22.8699	157.279	1.158814	0.053788	0.053461	156.51	28972.5	0.049736	0.091599	1708.63	87460.7
69	2.000000	1.161595	7.36573e+06	-42089.1	955.82	-29784.5	0.000000	0.000000	7.168953	174.91	NaN	0.000000	0.001707	0.001601	28.1273	54.7465	0.001698	32237	1.844069	159.255	175.399	1.161209	0.056242	0.055855	174.91	32237	0.052172	0.099246	1762.39	93491.5
69	2.000000	1.164045	7.36573e+06	-42089.1	955.82	-29784.5	0.000000	0.000000	7.171796	184.454	NaN	0.000000	0.001704	0.001581	28.0961	58.6335	0.001817	32269.7	4.339992	-23.3729	184.076	1.163760	0.058691	0.058407	184.454	32269.7	0.054404	0.106511	1731.77	90337.8
69	2.000000	1.166564	7.36573e+06	-42089.1	955.819	-29784.5	0.000000	0.000000	7.174899	198.675	NaN	0.000000	0.001714	0.001615	28.0784	60.5325	0.001781	33979.8	2.131002	158.282	198.059	1.166260	0.061211	0.060906	198.675	33979.8	0.056826	0.114672	1732.55	91678.2
69	2.000000	1.168988	7.36573e+06	-42089.1	955.819	-29784.5	0.000000	0.000000	7.178083	217.168	NaN	0.000000	0.001664	0.001604	28.0938	61.3745	0.001748	35106.5	-0.538338	-17.9859	211.938	1.168664	0.063634	0.063310	217.168	35106.5	0.058995	0.122228	1776.75	91743.6
69	2.000000	1.171407	7.36573e+06	-42089.1	955.819	-29784.5	0.000000	0.000000	7.180874	226.208	NaN	0.000000	0.001707	0.001596	28.1286	64.1906	0.001691	37956.7	2.104503	157.399	218.542	1.171174	0.066054	0.065821	226.208	37956.7	0.061584	0.131549	1719.57	95613.1
69	2.000000	1.174070	7.36573e+06	-42089.1	955.819	-29784.5	0.000000	0.000000	7.184036	238.355	NaN	0.000000	0.001681	0.001601	28.0981	67.6955	0.001852	36561.9	1.587970	-21.5244	239.082	1.173786	0.068716	0.068432	238.355	36561.9	0.063827	0.139888	1703.89	89312.3
69	2.000000	1.176510	7.36573e+06	-42089.1	955.82	-29784.5	0.000000	0.000000	7.187151	254.778	NaN	0.000000	0.001667	0.001538	28.0779	71.0593	0.001831	38818.3	5.522300	153.651	253.176	1.176265	0.071157	0.070912	254.778	38818.3	0.066234	0.149107	1708.69	91845.9
69	2.000000	1.179035	7.36573e+06	-42089.1	955.82	-29784.5	0.000000	0.000000	7.190531	275.605	NaN	0.000000	0.001704	0.001582	28.0921	71.8231	0.001814	39586.4	2.791881	-23.1628	273.596	1.178829	0.073681	0.073475	275.605	39586.4	0.068459	0.157878	1745.69	91024.5
69	2.000000	1.181493	7.36573e+06	-42089.1	955.82	-29784.5	0.000000	0.000000	7.193913	298.066	NaN	0.000000	0.001694	0.001562	28.1276	74.3384	0.001756	42326.7	3.554259	155.669	293.883	1.181091	0.076140	0.075737	298.066	42326.7	0.070858	0.167597	1778.47	94461.6
69	2.000000	1.184060	7.36573e+06	-42089.1	955.82	-29784.5	0.000000	0.000000	7.197090	312.901	NaN	0.000000	0.001730	0.001594	28.0983	77.3296	0.001837	42092.2	3.254196	-24.5429	312.346	1.183720	0.078707	0.078366	312.901	42092.2	0.073132	0.177059	1767.21	91393.6
69	2.000000	1.186510	7.36573e+06	-42089.1	955.819	-29784.5	0.000000	0.000000	7.200262	330.474	NaN	0.000000	0.001738	0.001606	28.08	80.0755	0.001890	42374	5.217091	153.472	328.417	1.186235	0.081156	0.080881	330.474	42374	0.075307	0.186345	1773.45	89683.7
69	2.000000	1.189022	7.36573e+06	-42089.1	955.82	-29784.5	0.000000	0.000000	7.203799	355.421	NaN	0.000000	0.001672	0.001635	28.0945	81.5106	0.001803	45208.2	6.601503	-28.0021	352.188	1.188586	0.083668	0.083232	355.421	45208.2	0.077772	0.197133	1802.95	93027.4
69	2.000000	1.191538	7.36573e+06	-42089.1	955.819	-29784.5	0.000000	0.000000	7.207213	377.28	NaN	0.000000	0.001663	0.001682	28.1298	82.8859	0.001717	48281.1	5.230491	152.996	377.629	1.191174	0.086184	0.085820	377.28	48281.1	0.080324	0.208599	1808.64	96581.5
69	2.000000	1.193984	7.36573e+06	-42089.1	955.82	-29784.5	0.000000	0.000000	7.210463	396.814	NaN	0.000000	0.001694	0.001632	28.0997	85.5999	0.001798	47604.4	3.045712	-24.8068	392.9	1.193606	0.088631	0.088252	396.814	47604.4	0.082379	0.218058	1819.77	93139.5
69	2.000000	1.196442	7.36573e+06	-42089.1	955.819	-29784.5	0.000000	0.000000	7.213831	418.951	NaN	0.000000	0.001704	0.001642	28.0781	89.0521	0.001781	50003.3	3.154969	154.579	414.436	1.196213	0.091089	0.090860	418.951	50003.3	0.084805	0.229472	1825.71	95368.9
69	2.000000	1.199040	7.36573e+06	-42089.1	955.82	-29784.5	0.000000	0.000000	7.217381	442.14	NaN	0.000000	0.001729	0.001613	28.0938	90.8337	0.001828	49680.4	4.870944	-26.1066	440.513	1.198525	0.093687	0.093172	442.14	49680.4	0.087012	0.240092	1841.54	92633.7
69	2.000000	1.201443	7.36573e+06	-42089.1	955.82	-29784.5	0.000000	0.000000	7.220816	467.229	NaN	0.000000	0.001686	0.001653	28.1289	92.7635	0.001794	51696.4	2.843639	155.015	461.627	1.201061	0.096090	0.095708	467.229	51696.4	0.089311	0.251396	1858.54	94200.7
69	2.000000	1.203992	7.36573e+06	-42089.1	955.819	-29784.5	0.000000	0.000000	7.224145	486.215	NaN	0.000000	0.001731	0.001664	28.0983	96.1813	0.001810	53126.9	5.596984	-28.1392	485.284	1.203586	0.098638	0.098233	486.215	53126.9	0.091774	0.263775	1843.3	94508.6
69	2.000000	1.206514	7.36573e+06	-42089.1	955.819	-29784.5	0.000000	0.000000	7.227266	500.81	NaN	0.000000	0.001729	0.001652	28.0802	96.9447	0.001741	55687.1	0.506456	156.512	498.811	1.206259	0.101160	0.100905	500.81	55687.1	0.094415	0.277353	1805.67	96607.5
69	2.000000	1.208933	7.36573e+06	-42089.1	955.82	-29784.5	0.000000	0.000000	7.230837	528.812	NaN	0.000000	0.001726	0.001673	28.0934	98.5447	0.001744	56514.8	3.351391	-25.8365	522.843	1.208549	0.103580	0.103195	528.812	56514.8	0.096562	0.288627	1832.16	96109.6
69	2.000000	1.211473	7.36573e+06	-42089.1	955.82	-29784.5	0.000000	0.000000	7.234429	554.421	NaN	0.000000	0.001690	0.001645	28.1304	102.015	0.001765	57808.9	5.083416	151.829	554.525	1.211088	0.106120	0.105734	554.421	57808.9	0.098927	0.301288	1840.17	96222.6
69	2.000000	1.212925	7.36573e+06	-42089.1	955.82	-29784.5	0.000000	0.000000	7.236381	566.598	NaN	0.000000	0.001723	0.001636	28.094	104.501	0.001975	52909.7	7.023289	-29.5004	561.78	1.212591	0.107571	0.107237	566.598	52909.7	0.099539	0.304611	1860.07	87586.3