File: remote_trans/data/nanoindenter/0828-1/data/Data_2025-08-06,11h17m57s/2025-07-22_16-23-58_1_518.txt
2025-07-22, 16:23:58, 1
Index	Phase	Displacement	Time	Pos X	Pos Y	Pos Z	Rot A	Rot B	Piezo Z	Force A	Force B	Gripper	Voltage A	Voltage B	Temperature	Amplitude force	Amplitude pos	Stiffness	Phase shift	Phase excitation	Force A raw	Displacement raw	HMax	HMax raw	Real Force	Real Stiffness	Contact Depth	Area	Hardness	Reduced Mod.
[#]	[#]	[um]	[s]	[um]	[um]	[um]	[m°]	[m°]	[um]	[uN]	[uN]	[V]	[V]	[V]	[°C]	[uN]	[um]	[N/m]	[°]	[°]	[uN]	[um]	[um]	[um]	[uN]	[N/m]	[um]	[um^2]	[MPa]	[MPa]
518	1.000000	0.002254	7.37012e+06	-51189.1	1005.82	-29753.1	0.000000	0.000000	6.002810	-0.092334	NaN	0.000000	0.001587	0.001722	28.0802	0.101099	0.000924	109.418	65.1518	-166.426	-0.077578	0.000988	-1.002748	-1.004013	-0.092334	109.418	-1.002115	-2.422383E+13	3.811683E-15	NaN
518	1.000000	0.010189	7.37012e+06	-51189.1	1005.82	-29753.1	0.000000	0.000000	6.010750	0.032635	NaN	0.000000	0.001631	0.001671	28.081	0.091403	0.000914	99.9861	164.91	-169.049	-0.031840	0.008873	-0.994813	-0.996128	0.032635	99.9861	-0.995057	-1.946344E+13	-1.676736E-15	NaN
518	1.000000	0.018211	7.37012e+06	-51189.1	1005.82	-29753.1	0.000000	0.000000	6.018770	-0.020168	NaN	0.000000	0.001586	0.001744	28.0816	0.032902	0.001781	18.4711	81.0611	-163.291	0.014406	0.016878	-0.986791	-0.988123	-0.020168	18.4711	-0.985972	-1.468450E+13	1.373425E-15	NaN
518	1.000000	0.026218	7.37012e+06	-51189.1	1005.82	-29753.1	0.000000	0.000000	6.026776	-0.048064	NaN	0.000000	0.001585	0.001720	28.0815	0.056354	0.001833	30.7474	168.813	-163.865	-0.009254	0.024885	-0.978784	-0.980117	-0.048064	30.7474	-0.977611	-1.132999E+13	4.242193E-15	NaN
518	1.000000	0.034198	7.37012e+06	-51189.1	1005.82	-29753.1	0.000000	0.000000	6.034757	-0.010632	NaN	0.000000	0.001603	0.001677	28.0815	0.048568	0.001817	26.7359	39.6833	-167.702	-0.054433	0.032860	-0.970804	-0.972141	-0.010632	26.7359	-0.970506	-9.088186E+12	1.169864E-15	NaN
518	1.000000	0.042184	7.37012e+06	-51189.1	1005.82	-29753.1	0.000000	0.000000	6.042742	-0.047596	NaN	0.000000	0.001613	0.001694	28.0814	0.025861	0.002057	12.5744	48.2229	-165.267	-0.075337	0.040943	-0.962818	-0.964058	-0.047596	12.5744	-0.959979	-6.555221E+12	7.260705E-15	NaN
518	1.000000	0.050189	7.37012e+06	-51189.1	1005.82	-29753.1	0.000000	0.000000	6.050748	-0.036213	NaN	0.000000	0.001623	0.001690	28.0816	0.065471	0.001996	32.7974	155.179	-167.21	0.008539	0.048892	-0.954812	-0.956109	-0.036213	32.7974	-0.953984	-5.441933E+12	6.654434E-15	NaN
518	1.000000	0.058204	7.37012e+06	-51189.1	1005.82	-29753.1	0.000000	0.000000	6.058763	-0.034315	NaN	0.000000	0.001580	0.001694	28.0815	0.080705	0.002156	37.4313	150.982	-165.956	-0.052797	0.056876	-0.946797	-0.948125	-0.034315	37.4313	-0.946110	-4.261478E+12	8.052384E-15	NaN
518	1.000000	0.066173	7.37012e+06	-51189.1	1005.82	-29753.1	0.000000	0.000000	6.066731	-0.044959	NaN	0.000000	0.001571	0.001674	28.0813	0.079996	0.001973	40.5517	-26.6098	-167.204	7.652358E-5	0.064799	-0.938828	-0.940202	-0.044959	40.5517	-0.937997	-3.312137E+12	1.357411E-14	NaN
518	1.000000	0.074226	7.37012e+06	-51189.1	1005.82	-29753.1	0.000000	0.000000	6.074781	-0.113615	NaN	0.000000	0.001641	0.001665	28.0814	0.034292	0.001866	18.3747	85.657	-167.947	-0.082908	0.072918	-0.930776	-0.932084	-0.113615	18.3747	-0.926138	-2.291264E+12	4.958604E-14	NaN
518	1.000000	0.082204	7.37012e+06	-51189.1	1005.82	-29753.1	0.000000	0.000000	6.082762	-0.051918	NaN	0.000000	0.001599	0.001653	28.0813	0.063435	0.002082	30.4692	-145.681	-164.187	-0.034838	0.080909	-0.922797	-0.924092	-0.051918	30.4692	-0.921520	-1.984822E+12	2.615762E-14	NaN
518	1.000000	0.090204	7.37012e+06	-51189.1	1005.82	-29753.1	0.000000	0.000000	6.090763	-0.027279	NaN	0.000000	0.001588	0.001679	28.0815	0.088079	0.001913	46.0507	134.924	-163.822	-0.073789	0.088852	-0.914798	-0.916150	-0.027279	46.0507	-0.914353	-1.588398E+12	1.717416E-14	NaN
518	1.000000	0.098203	7.37012e+06	-51189.1	1005.82	-29753.1	0.000000	0.000000	6.098758	-0.108422	NaN	0.000000	0.001602	0.001657	28.0816	0.006807	0.001883	3.615435	77.2268	-166.2	-0.080842	0.096934	-0.906799	-0.908067	-0.108422	3.615435	-0.884307	-6.236668E+11	1.738468E-13	NaN
518	1.000000	0.106231	7.37012e+06	-51189.1	1005.82	-29753.1	0.000000	0.000000	6.106788	-0.057170	NaN	0.000000	0.001610	0.001672	28.0817	0.110369	0.002028	54.4105	3.653816	-165.027	-0.108685	0.104900	-0.898771	-0.900102	-0.057170	54.4105	-0.897983	-9.545702E+11	5.989120E-14	NaN
518	1.000000	0.114244	7.37012e+06	-51189.1	1005.82	-29753.1	0.000000	0.000000	6.114800	-0.109076	NaN	0.000000	0.001608	0.001662	28.0815	0.114148	0.002150	53.0969	161.782	-167.28	-0.111051	0.112907	-0.890757	-0.892095	-0.109076	53.0969	-0.889217	-7.266512E+11	1.501077E-13	NaN
518	1.000000	0.122200	7.37012e+06	-51189.1	1005.82	-29753.1	0.000000	0.000000	6.122758	-0.050018	NaN	0.000000	0.001610	0.001698	28.0816	0.147071	0.001866	78.837	-77.2464	-167.468	-0.056964	0.120916	-0.882802	-0.884086	-0.050018	78.837	-0.882326	-5.863546E+11	8.530410E-14	NaN
518	1.000000	0.130199	7.37012e+06	-51189.1	1005.82	-29753.1	0.000000	0.000000	6.130760	0.006554	NaN	0.000000	0.001538	0.001681	28.0815	0.048549	0.001982	24.5002	-94.7414	-166.038	-0.005024	0.128921	-0.874802	-0.876081	0.006554	24.5002	-0.875003	-4.667884E+11	-1.404068E-14	NaN
518	1.000000	0.138203	7.37012e+06	-51189.1	1005.82	-29753.1	0.000000	0.000000	6.138760	-0.070544	NaN	0.000000	0.001570	0.001705	28.0816	0.076533	0.001996	38.3406	-117.58	-165.638	-0.075899	0.136885	-0.866799	-0.868117	-0.070544	38.3406	-0.865419	-3.463021E+11	2.037065E-13	NaN
518	1.000000	0.146243	7.37012e+06	-51189.1	1005.82	-29753.1	0.000000	0.000000	6.146803	-0.002027	NaN	0.000000	0.001589	0.001684	28.0814	0.010769	0.002091	5.149309	-84.2406	-167.956	-0.055588	0.144914	-0.858758	-0.860087	-0.002027	5.149309	-0.858463	-2.788179E+11	7.268211E-15	NaN
518	1.000000	0.154211	7.37012e+06	-51189.1	1005.82	-29753.1	0.000000	0.000000	6.154771	0.017415	NaN	0.000000	0.001623	0.001667	28.0804	0.036962	0.002045	18.0747	-128.868	-168.492	-0.026033	0.152951	-0.850791	-0.852051	0.017415	18.0747	-0.851514	-2.245083E+11	-7.756968E-14	NaN
518	1.000000	0.162260	7.37012e+06	-51189.1	1005.82	-29753.1	0.000000	0.000000	6.162816	-0.077620	NaN	0.000000	0.001622	0.001677	28.0804	0.064709	0.001971	32.8248	167.593	-165.57	-0.089105	0.160945	-0.842742	-0.844056	-0.077620	32.8248	-0.840968	-1.615888E+11	4.803559E-13	NaN
518	1.000000	0.170253	7.37012e+06	-51189.1	1005.82	-29753.1	0.000000	0.000000	6.170811	-0.041459	NaN	0.000000	0.001631	0.001693	28.0801	0.075622	0.001987	38.0604	5.729049	-164.951	0.000351	0.168897	-0.834748	-0.836104	-0.041459	38.0604	-0.833931	-1.297378E+11	3.195588E-13	NaN
518	1.000000	0.178246	7.37012e+06	-51189.1	1005.82	-29753.1	0.000000	0.000000	6.178802	-0.104597	NaN	0.000000	0.001604	0.001688	28.0807	0.142331	0.001988	71.6132	98.8282	-162.874	-0.026674	0.176954	-0.826755	-0.828048	-0.104597	71.6132	-0.825660	-1.002190E+11	1.043681E-12	NaN
518	1.000000	0.186230	7.37012e+06	-51189.1	1005.82	-29753.1	0.000000	0.000000	6.186791	0.006413	NaN	0.000000	0.001586	0.001698	28.0799	0.052031	0.002008	25.918	125.313	-166.004	-0.034917	0.184938	-0.818771	-0.820064	0.006413	25.918	-0.818957	-8.129486E+10	-7.888642E-14	NaN
518	1.000000	0.194257	7.37012e+06	-51189.1	1005.82	-29753.1	0.000000	0.000000	6.194816	-0.039708	NaN	0.000000	0.001683	0.001684	28.0816	0.113742	0.001899	59.9072	-29.0987	-163.938	-0.105341	0.192923	-0.810744	-0.812079	-0.039708	59.9072	-0.810247	-6.193307E+10	6.411386E-13	NaN
518	1.000000	0.202257	7.37012e+06	-51189.1	1005.82	-29753.1	0.000000	0.000000	6.202817	-0.019304	NaN	0.000000	0.001642	0.001696	28.0802	0.082569	0.002048	40.3193	-93.6497	-164.225	0.007958	0.200958	-0.802744	-0.804043	-0.019304	40.3193	-0.802385	-4.844365E+10	3.984776E-13	NaN
518	1.000000	0.210242	7.37012e+06	-51189.1	1005.82	-29753.1	0.000000	0.000000	6.210802	-0.004299	NaN	0.000000	0.001675	0.001707	28.0803	0.094375	0.002062	45.7735	31.4141	-164.276	-0.061943	0.208916	-0.794759	-0.796086	-0.004299	45.7735	-0.794689	-3.808505E+10	1.128808E-13	NaN
518	1.000000	0.218241	7.37012e+06	-51189.1	1005.82	-29753.1	0.000000	0.000000	6.218800	-0.022511	NaN	0.000000	0.001666	0.001680	28.0802	0.096367	0.001969	48.9403	75.6109	-166.802	0.067311	0.217014	-0.786760	-0.787988	-0.022511	48.9403	-0.786415	-2.940314E+10	7.656074E-13	NaN
518	1.000000	0.226273	7.37012e+06	-51189.1	1005.82	-29753.1	0.000000	0.000000	6.226833	0.015350	NaN	0.000000	0.001718	0.001659	28.0799	0.077737	0.002058	37.7711	129.685	-168.924	-0.034980	0.224952	-0.778729	-0.780049	0.015350	37.7711	-0.779034	-2.333987E+10	-6.576618E-13	NaN
518	1.000000	0.234262	7.37012e+06	-51189.1	1005.82	-29753.1	0.000000	0.000000	6.234820	-0.057567	NaN	0.000000	0.001716	0.001681	28.08	0.083176	0.002082	39.9562	149.672	-164.654	-0.008587	0.232984	-0.770739	-0.772018	-0.057567	39.9562	-0.769658	-1.740451E+10	3.307608E-12	NaN
518	1.000000	0.242289	7.37012e+06	-51189.1	1005.82	-29753.1	0.000000	0.000000	6.242850	0.029753	NaN	0.000000	0.001655	0.001695	28.0801	0.063662	0.002076	30.6714	109.139	-165.459	0.015873	0.240920	-0.762713	-0.764081	0.029753	30.6714	-0.763440	-1.432518E+10	-2.076994E-12	NaN
518	1.000000	0.250259	7.37012e+06	-51189.1	1005.82	-29753.1	0.000000	0.000000	6.250814	-0.099950	NaN	0.000000	0.001672	0.001666	28.0801	0.049258	0.002012	24.482	-128.868	-166.12	-0.020964	0.248981	-0.754743	-0.756020	-0.099950	24.482	-0.751681	-9.910608E+9	1.008513E-11	NaN
518	1.000000	0.258270	7.37012e+06	-51189.1	1005.82	-29753.1	0.000000	0.000000	6.258828	-0.053980	NaN	0.000000	0.001674	0.001702	28.0801	0.037296	0.002012	18.5353	-91.1461	-168.493	-0.024973	0.256939	-0.746731	-0.748063	-0.053980	18.5353	-0.744547	-7.924702E+9	6.811660E-12	NaN
518	1.000000	0.266309	7.37012e+06	-51189.1	1005.82	-29753.1	0.000000	0.000000	6.266865	-0.103572	NaN	0.000000	0.001623	0.001678	28.0799	0.036473	0.001985	18.3731	-156.631	-166.277	-0.028544	0.264942	-0.738693	-0.740059	-0.103572	18.3731	-0.734465	-5.776282E+9	1.793055E-11	NaN
518	1.000000	0.274288	7.37012e+06	-51189.1	1005.82	-29753.1	0.000000	0.000000	6.274846	-0.060063	NaN	0.000000	0.001605	0.001685	28.0801	0.101698	0.002023	50.2741	166.933	-165.266	-0.041740	0.273000	-0.730713	-0.732002	-0.060063	50.2741	-0.729817	-4.992478E+9	1.203068E-11	NaN
518	1.000000	0.282278	7.37012e+06	-51189.1	1005.82	-29753.1	0.000000	0.000000	6.282835	-0.083994	NaN	0.000000	0.001643	0.001686	28.0799	0.035051	0.001964	17.8482	166.009	-164.153	-0.021433	0.281005	-0.722723	-0.723997	-0.083994	17.8482	-0.719194	-3.576673E+9	2.348387E-11	NaN
518	1.000000	0.290316	7.37012e+06	-51189.1	1005.82	-29753.1	0.000000	0.000000	6.290878	0.026064	NaN	0.000000	0.001599	0.001665	28.0817	0.020904	0.002049	10.1997	-151.146	-168.533	-0.019542	0.288981	-0.714685	-0.716020	0.026064	10.1997	-0.716602	-3.297007E+9	-7.905332E-12	NaN
518	1.000000	0.298294	7.37012e+06	-51189.1	1005.82	-29753.1	0.000000	0.000000	6.298854	-0.006556	NaN	0.000000	0.001596	0.001693	28.0813	0.025242	0.002136	11.819	15.8673	-163.559	-0.089806	0.296994	-0.706707	-0.708007	-0.006556	11.819	-0.706291	-2.384689E+9	2.749022E-12	NaN
518	1.000000	0.306321	7.37012e+06	-51189.1	1005.82	-29753.1	0.000000	0.000000	6.306879	-0.041665	NaN	0.000000	0.001572	0.001721	28.0811	0.020717	0.001961	10.5617	-48.9283	-166.684	0.018579	0.305012	-0.698681	-0.699989	-0.041665	10.5617	-0.695722	-1.710405E+9	2.435999E-11	NaN
518	1.000000	0.314290	7.37012e+06	-51189.1	1005.82	-29753.1	0.000000	0.000000	6.314848	-0.048601	NaN	0.000000	0.001601	0.001736	28.0817	0.079601	0.002063	38.5899	-177.342	-163.558	-0.012468	0.312968	-0.690712	-0.692033	-0.048601	38.5899	-0.689767	-1.418202E+9	3.426968E-11	NaN
518	1.000000	0.322320	7.37012e+06	-51189.1	1005.82	-29753.1	0.000000	0.000000	6.322879	-0.039694	NaN	0.000000	0.001609	0.001729	28.0812	0.054291	0.001944	27.9234	-135.678	-165.877	-0.034628	0.320959	-0.682681	-0.684043	-0.039694	27.9234	-0.681615	-1.097219E+9	3.617722E-11	NaN
518	1.000000	0.330313	7.37012e+06	-51189.1	1005.82	-29753.1	0.000000	0.000000	6.330872	-0.017901	NaN	0.000000	0.001588	0.001644	28.0812	0.085832	0.001902	45.1204	18.1402	-163.979	-0.018605	0.329004	-0.674689	-0.675998	-0.017901	45.1204	-0.674391	-8.739351E+8	2.048308E-11	NaN
518	1.000000	0.338317	7.37012e+06	-51189.1	1005.82	-29753.1	0.000000	0.000000	6.338878	0.018224	NaN	0.000000	0.001639	0.001650	28.0811	0.044118	0.002188	20.1663	37.6678	-167.531	-0.033362	0.336987	-0.666684	-0.668014	0.018224	20.1663	-0.667362	-7.002969E+8	-2.602307E-11	NaN
518	1.000000	0.346290	7.37012e+06	-51189.1	1005.82	-29753.1	0.000000	0.000000	6.346850	-0.000903	NaN	0.000000	0.001626	0.001651	28.0812	0.056772	0.001860	30.5222	-107.847	-166.133	0.009580	0.344987	-0.658711	-0.660015	-0.000903	30.5222	-0.658689	-5.327308E+8	1.694273E-12	NaN
518	1.000000	0.354314	7.37012e+06	-51189.1	1005.82	-29753.1	0.000000	0.000000	6.354873	-0.004507	NaN	0.000000	0.001631	0.001664	28.0816	0.066163	0.001889	35.0278	166.929	-167.826	-0.011410	0.352939	-0.650688	-0.652062	-0.004507	35.0278	-0.650591	-4.126140E+8	1.092258E-11	NaN
518	1.000000	0.362325	7.37012e+06	-51189.1	1005.82	-29753.1	0.000000	0.000000	6.362883	-0.042004	NaN	0.000000	0.001600	0.001663	28.0812	0.087444	0.001996	43.8062	-50.8781	-163.051	-0.022614	0.361004	-0.642677	-0.643997	-0.042004	43.8062	-0.641958	-3.141561E+8	1.337049E-10	NaN
518	1.000000	0.370320	7.37012e+06	-51189.1	1005.82	-29753.1	0.000000	0.000000	6.370877	-0.067275	NaN	0.000000	0.001603	0.001669	28.0814	0.065571	0.002009	32.6346	119.607	-164.024	-0.052327	0.369013	-0.634682	-0.635989	-0.067275	32.6346	-0.633136	-2.377271E+8	2.829944E-10	NaN
518	1.000000	0.378320	7.37012e+06	-51189.1	1005.82	-29753.1	0.000000	0.000000	6.378879	-0.032272	NaN	0.000000	0.001595	0.001648	28.0815	0.018635	0.002082	8.952302	-96.1165	-165.65	-0.014122	0.377047	-0.626681	-0.627955	-0.032272	8.952302	-0.623978	-1.779505E+8	1.813544E-10	NaN
518	1.000000	0.386330	7.37012e+06	-51189.1	1005.82	-29753.1	0.000000	0.000000	6.386885	-0.125908	NaN	0.000000	0.001564	0.001667	28.0813	0.076348	0.001824	41.8684	2.638092	-163.783	-0.096290	0.384950	-0.618672	-0.620052	-0.125908	41.8684	-0.616416	-1.400757E+8	8.988567E-10	NaN
518	1.000000	0.394330	7.37012e+06	-51189.1	1005.82	-29753.1	0.000000	0.000000	6.394889	-0.031747	NaN	0.000000	0.001592	0.001662	28.0813	0.073030	0.001929	37.8547	-157.75	-166.907	-0.082524	0.393034	-0.610671	-0.611968	-0.031747	37.8547	-0.610042	-1.144704E+8	2.773395E-10	NaN
518	1.000000	0.402366	7.37012e+06	-51189.1	1005.82	-29753.1	0.000000	0.000000	6.402924	-0.047815	NaN	0.000000	0.001576	0.001672	28.0815	0.074380	0.001810	41.1014	-64.7811	-166.483	-0.073154	0.401067	-0.602635	-0.603935	-0.047815	41.1014	-0.601763	-8.805186E+7	5.430299E-10	NaN
518	1.000000	0.410327	7.37012e+06	-51189.1	1005.82	-29753.1	0.000000	0.000000	6.410888	0.032304	NaN	0.000000	0.001573	0.001646	28.0816	0.055873	0.001965	28.4279	-24.1485	-163.255	0.006013	0.409024	-0.594675	-0.595978	0.032304	28.4279	-0.595527	-7.225039E+7	-4.471061E-10	NaN
518	1.000000	0.418348	7.37012e+06	-51189.1	1005.82	-29753.1	0.000000	0.000000	6.418904	-0.097817	NaN	0.000000	0.001632	0.001665	28.0813	0.090777	0.002024	44.8489	135.118	-163.663	-0.069352	0.417084	-0.586653	-0.587917	-0.097817	44.8489	-0.585017	-5.175526E+7	1.889999E-9	NaN
518	1.000000	0.426349	7.37012e+06	-51189.1	1005.82	-29753.1	0.000000	0.000000	6.426906	-0.070309	NaN	0.000000	0.001602	0.001684	28.0804	0.052282	0.001924	27.1678	126.173	-168.473	-0.032700	0.425018	-0.578652	-0.579983	-0.070309	27.1678	-0.576712	-3.974947E+7	1.768796E-9	NaN
518	1.000000	0.434342	7.37012e+06	-51189.1	1005.82	-29753.1	0.000000	0.000000	6.434899	-0.078224	NaN	0.000000	0.001594	0.001713	28.0801	0.059505	0.002039	29.1868	-129.999	-166.751	-0.126860	0.433055	-0.570659	-0.571946	-0.078224	29.1868	-0.568649	-3.075877E+7	2.543142E-9	NaN
518	1.000000	0.442353	7.37012e+06	-51189.1	1005.82	-29753.1	0.000000	0.000000	6.442913	-0.017812	NaN	0.000000	0.001593	0.001721	28.0803	0.058881	0.001998	29.4758	-76.8864	-167.089	-0.005629	0.441068	-0.562648	-0.563934	-0.017812	29.4758	-0.562195	-2.504600E+7	7.111656E-10	NaN
518	1.000000	0.450334	7.37012e+06	-51189.1	1005.82	-29753.1	0.000000	0.000000	6.450889	-0.103172	NaN	0.000000	0.001604	0.001666	28.0803	0.082118	0.002051	40.0303	126.149	-165.735	-0.069593	0.449083	-0.554668	-0.555918	-0.103172	40.0303	-0.552735	-1.852800E+7	5.568417E-9	NaN
518	1.000000	0.458348	7.37012e+06	-51189.1	1005.82	-29753.1	0.000000	0.000000	6.458904	-0.097801	NaN	0.000000	0.001622	0.001673	28.0801	0.099100	0.001923	51.5297	-76.4838	-166.059	-0.086385	0.457101	-0.546654	-0.547901	-0.097801	51.5297	-0.545230	-1.458372E+7	6.706200E-9	NaN
518	1.000000	0.466382	7.37012e+06	-51189.1	1005.82	-29753.1	0.000000	0.000000	6.466941	-0.030730	NaN	0.000000	0.001610	0.001655	28.0805	0.067314	0.002069	32.5289	-117.841	-164.136	-0.032938	0.465051	-0.538620	-0.539950	-0.030730	32.5289	-0.537911	-1.154468E+7	2.661834E-9	NaN
518	1.000000	0.474390	7.37012e+06	-51189.1	1005.82	-29753.1	0.000000	0.000000	6.474949	-0.017357	NaN	0.000000	0.001586	0.001671	28.0802	0.028540	0.002087	13.6748	49.5124	-163.991	-0.063177	0.473047	-0.530612	-0.531954	-0.017357	13.6748	-0.529660	-8.86853e+06	1.957170E-9	NaN
518	1.000000	0.482379	7.37012e+06	-51189.1	1005.82	-29753.1	0.000000	0.000000	6.482935	-0.088287	NaN	0.000000	0.001600	0.001647	28.0803	0.045617	0.001921	23.7416	-36.5492	-165.404	-0.104756	0.481100	-0.522623	-0.523901	-0.088287	23.7416	-0.519834	-6.47571e+06	1.363363E-8	NaN
518	1.000000	0.490379	7.37012e+06	-51189.1	1005.82	-29753.1	0.000000	0.000000	6.490935	-0.086032	NaN	0.000000	0.001613	0.001647	28.0801	0.049447	0.001996	24.7675	-154.528	-164.888	-0.080209	0.489066	-0.514623	-0.515935	-0.086032	24.7675	-0.512018	-5.04099e+06	1.706657E-8	NaN
518	1.000000	0.498344	7.37012e+06	-51189.1	1005.82	-29753.1	0.000000	0.000000	6.498902	-0.042533	NaN	0.000000	0.001639	0.001687	28.0801	0.030833	0.001964	15.6964	24.6036	-164.673	0.026279	0.497075	-0.506658	-0.507927	-0.042533	15.6964	-0.504626	-3.97673e+06	1.069535E-8	NaN
518	1.000000	0.506385	7.37012e+06	-51189.1	1005.82	-29753.1	0.000000	0.000000	6.506943	-0.037445	NaN	0.000000	0.001603	0.001671	28.08	0.068973	0.002072	33.2846	-154.548	-162.858	-0.037133	0.505089	-0.498617	-0.499913	-0.037445	33.2846	-0.497773	-3.19114e+06	1.173414E-8	NaN
518	1.000000	0.514380	7.37012e+06	-51189.1	1005.82	-29753.1	0.000000	0.000000	6.514939	-0.024113	NaN	0.000000	0.001605	0.001677	28.0801	0.020385	0.001914	10.6517	27.6838	-163.903	-0.087563	0.513066	-0.490621	-0.491936	-0.024113	10.6517	-0.488924	-2.40076e+06	1.004383E-8	NaN
518	1.000000	0.522404	7.37012e+06	-51189.1	1005.82	-29753.1	0.000000	0.000000	6.522966	0.066432	NaN	0.000000	0.001628	0.001662	28.0805	0.037266	0.001997	18.6601	-86.1263	-165.03	0.050728	0.521060	-0.482598	-0.483942	0.066432	18.6601	-0.485268	-2.13421e+06	-3.112728E-8	NaN
518	1.000000	0.530398	7.37012e+06	-51189.1	1005.82	-29753.1	0.000000	0.000000	6.530957	-0.042001	NaN	0.000000	0.001610	0.001646	28.0803	0.046929	0.002094	22.4115	-121.381	-166.211	-0.074670	0.529142	-0.474603	-0.475859	-0.042001	22.4115	-0.473197	-1.44623e+06	2.904151E-8	NaN
518	1.000000	0.538369	7.37012e+06	-51189.1	1005.82	-29753.1	0.000000	0.000000	6.538928	-0.007350	NaN	0.000000	0.001625	0.001670	28.0803	0.019064	0.002022	9.430187	-147.334	-165.948	-0.003080	0.537095	-0.466633	-0.467906	-0.007350	9.430187	-0.466048	-1.14806e+06	6.402433E-9	NaN
518	1.000000	0.546398	7.37012e+06	-51189.1	1005.82	-29753.1	0.000000	0.000000	6.546955	-0.058549	NaN	0.000000	0.001645	0.001642	28.0803	0.081497	0.002026	40.2279	78.4105	-161.708	-0.052376	0.545082	-0.458604	-0.459920	-0.058549	40.2279	-0.457512	-871057	6.721549E-8	NaN
518	1.000000	0.554429	7.37012e+06	-51189.1	1005.82	-29753.1	0.000000	0.000000	6.554988	-0.015936	NaN	0.000000	0.001602	0.001673	28.0802	0.047637	0.002069	23.0274	-138.327	-162.972	-0.057433	0.553144	-0.450573	-0.451858	-0.015936	23.0274	-0.450054	-684067	2.329542E-8	NaN
518	1.000000	0.562373	7.37012e+06	-51189.1	1005.82	-29753.1	0.000000	0.000000	6.562930	-0.076589	NaN	0.000000	0.001631	0.001635	28.0814	0.134287	0.002016	66.6198	76.0147	-168.042	-0.073979	0.561072	-0.442628	-0.443929	-0.076589	66.6198	-0.441766	-522733	1.465174E-7	NaN
518	1.000000	0.570411	7.37012e+06	-51189.1	1005.82	-29753.1	0.000000	0.000000	6.570970	-0.022528	NaN	0.000000	0.001636	0.001717	28.0816	0.047723	0.001993	23.9414	-152.228	-168.372	-0.113191	0.569092	-0.434590	-0.435909	-0.022528	23.9414	-0.433884	-404565	5.568427E-8	NaN
518	1.000000	0.578413	7.37012e+06	-51189.1	1005.82	-29753.1	0.000000	0.000000	6.578971	-0.060829	NaN	0.000000	0.001631	0.001670	28.0821	0.163797	0.002025	80.9072	-31.0092	-168.557	0.005373	0.577107	-0.426588	-0.427894	-0.060829	80.9072	-0.426025	-313179	1.942311E-7	NaN
518	1.000000	0.586389	7.37012e+06	-51189.1	1005.82	-29753.1	0.000000	0.000000	6.586948	-0.016175	NaN	0.000000	0.001556	0.001686	28.0815	0.126389	0.002075	60.9009	-173.36	-163.99	-0.066841	0.585129	-0.418613	-0.419873	-0.016175	60.9009	-0.418413	-244292	6.621050E-8	NaN
518	1.000000	0.594410	7.37012e+06	-51189.1	1005.82	-29753.1	0.000000	0.000000	6.594965	-0.109101	NaN	0.000000	0.001587	0.001656	28.0815	0.023301	0.002025	11.5091	89.5394	-163.621	-0.050250	0.593090	-0.410592	-0.411911	-0.109101	11.5091	-0.403482	-149841	7.281158E-7	NaN
518	1.000000	0.602411	7.37012e+06	-51189.1	1005.82	-29753.1	0.000000	0.000000	6.602970	-0.031001	NaN	0.000000	0.001642	0.001677	28.0814	0.071872	0.001985	36.203	106.56	-162.824	-0.068085	0.601134	-0.402590	-0.403868	-0.031001	36.203	-0.401948	-142485	2.175714E-7	NaN
518	1.000000	0.610420	7.37012e+06	-51189.1	1005.82	-29753.1	0.000000	0.000000	6.610979	-0.013722	NaN	0.000000	0.001644	0.001702	28.0814	0.054715	0.001974	27.717	75.6262	-168.06	-0.066031	0.609131	-0.394582	-0.395870	-0.013722	27.717	-0.394210	-110498	1.241865E-7	NaN
518	1.000000	0.618447	7.37012e+06	-51189.1	1005.82	-29753.1	0.000000	0.000000	6.619004	-0.091142	NaN	0.000000	0.001659	0.001681	28.0815	0.037131	0.001930	19.2392	-23.76	-163.876	-0.066560	0.617142	-0.386554	-0.387860	-0.091142	19.2392	-0.383001	-76372.7	1.193389E-6	NaN
518	1.000000	0.626431	7.37012e+06	-51189.1	1005.82	-29753.1	0.000000	0.000000	6.626991	0.002620	NaN	0.000000	0.001679	0.001657	28.0815	0.047032	0.001948	24.1378	-145.03	-167.491	-0.057282	0.625153	-0.378570	-0.379849	0.002620	24.1378	-0.378652	-66150.4	-3.961151E-8	NaN
518	1.000000	0.634426	7.37012e+06	-51189.1	1005.82	-29753.1	0.000000	0.000000	6.634984	-0.038019	NaN	0.000000	0.001676	0.001669	28.0816	0.082105	0.002106	38.9925	-114.371	-167.581	-0.028794	0.633090	-0.370576	-0.371911	-0.038019	38.9925	-0.369845	-49418.6	7.693266E-7	NaN
518	1.000000	0.642427	7.37012e+06	-51189.1	1005.82	-29753.1	0.000000	0.000000	6.642984	-0.070626	NaN	0.000000	0.001663	0.001723	28.0811	0.117207	0.002053	57.0844	-108.34	-167.619	-0.160132	0.641124	-0.362574	-0.363877	-0.070626	57.0844	-0.361646	-37638.7	1.876415E-6	NaN
518	1.000000	0.650458	7.37012e+06	-51189.1	1005.82	-29753.1	0.000000	0.000000	6.651020	0.032730	NaN	0.000000	0.001685	0.001690	28.0815	0.008324	0.001983	4.197828	2.554970	-166.35	-0.046214	0.649165	-0.354543	-0.355837	0.032730	4.197828	-0.360391	-36099.1	-9.066635E-7	NaN
518	1.000000	0.658445	7.37012e+06	-51189.1	1005.82	-29753.1	0.000000	0.000000	6.659003	-0.043000	NaN	0.000000	0.001688	0.001652	28.0813	0.035547	0.002174	16.3539	12.4213	-166.239	-0.051686	0.657135	-0.346556	-0.347867	-0.043000	16.3539	-0.344584	-21296.6	2.019113E-6	NaN
518	1.000000	0.666451	7.37012e+06	-51189.1	1005.82	-29753.1	0.000000	0.000000	6.667012	0.008729	NaN	0.000000	0.001681	0.001691	28.0813	0.140630	0.001863	75.4916	-2.845399	-166.7	-0.011889	0.665202	-0.338550	-0.339800	0.008729	75.4916	-0.338637	-17445.4	-5.003852E-7	NaN
518	1.000000	0.674448	7.37012e+06	-51189.1	1005.82	-29753.1	0.000000	0.000000	6.675009	0.008245	NaN	0.000000	0.001717	0.001672	28.0814	0.065388	0.001843	35.4778	90.1151	-162.362	-0.025911	0.673096	-0.330553	-0.331906	0.008245	35.4778	-0.330727	-13369	-6.167229E-7	NaN
518	1.000000	0.682451	7.37012e+06	-51189.1	1005.82	-29753.1	0.000000	0.000000	6.683010	-0.029459	NaN	0.000000	0.001672	0.001747	28.0812	0.025796	0.001987	12.9839	145.701	-165.497	-0.073539	0.681158	-0.322551	-0.323843	-0.029459	12.9839	-0.320849	-9574.82	3.076671E-6	NaN
518	1.000000	0.690471	7.37012e+06	-51189.1	1005.82	-29753.1	0.000000	0.000000	6.691030	-0.031340	NaN	0.000000	0.001689	0.001715	28.0816	0.093573	0.002172	43.0833	166.835	-165.828	0.005766	0.689159	-0.314530	-0.315843	-0.031340	43.0833	-0.313985	-7585.07	4.131858E-6	NaN
518	1.000000	0.698468	7.37012e+06	-51189.1	1005.82	-29753.1	0.000000	0.000000	6.699028	-0.008628	NaN	0.000000	0.001686	0.001697	28.0802	0.071821	0.001883	38.1352	134.666	-165.885	0.057120	0.697135	-0.306533	-0.307867	-0.008628	38.1352	-0.306364	-5850.4	1.474857E-6	NaN
518	1.000000	0.706480	7.37012e+06	-51189.1	1005.82	-29753.1	0.000000	0.000000	6.707039	-0.026477	NaN	0.000000	0.001701	0.001691	28.0802	0.159068	0.002134	74.5416	31.1675	-164.654	-0.089433	0.705170	-0.298521	-0.299832	-0.026477	74.5416	-0.298255	-4432.41	5.973507E-6	NaN
518	1.000000	0.714475	7.37012e+06	-51189.1	1005.82	-29753.1	0.000000	0.000000	6.715034	-0.024342	NaN	0.000000	0.001664	0.001702	28.0804	0.039415	0.002048	19.2487	-94.0483	-168.905	-0.053505	0.713144	-0.290526	-0.291857	-0.024342	19.2487	-0.289578	-3288.32	7.402594E-6	NaN
518	1.000000	0.722464	7.37012e+06	-51189.1	1005.82	-29753.1	0.000000	0.000000	6.723024	-0.011705	NaN	0.000000	0.001649	0.001711	28.08	0.087438	0.001972	44.3472	-137.303	-169.006	0.004112	0.721139	-0.282537	-0.283863	-0.011705	44.3472	-0.282339	-2559.94	4.572205E-6	NaN
518	1.000000	0.730472	7.37012e+06	-51189.1	1005.82	-29753.1	0.000000	0.000000	6.731031	-0.026198	NaN	0.000000	0.001664	0.001697	28.0804	0.090122	0.002004	44.9695	-115.863	-168.968	0.081989	0.729172	-0.274529	-0.275829	-0.026198	44.9695	-0.274092	-1921.54	1.363365E-5	NaN
518	1.000000	0.738493	7.37012e+06	-51189.1	1005.82	-29753.1	0.000000	0.000000	6.739051	-0.046086	NaN	0.000000	0.001646	0.001699	28.08	0.051654	0.002024	25.5156	-176.874	-164.732	0.057074	0.737147	-0.266509	-0.267854	-0.046086	25.5156	-0.265154	-1405.21	3.279623E-5	NaN
518	1.000000	0.746486	7.37012e+06	-51189.1	1005.82	-29753.1	0.000000	0.000000	6.747044	-0.035822	NaN	0.000000	0.001640	0.001662	28.0802	0.090779	0.001868	48.6092	40.8327	-166.115	-0.094089	0.745169	-0.258516	-0.259832	-0.035822	48.6092	-0.257963	-1090.62	3.284555E-5	NaN
518	1.000000	0.754487	7.37012e+06	-51189.1	1005.82	-29753.1	0.000000	0.000000	6.755044	-0.087179	NaN	0.000000	0.001624	0.001659	28.0801	0.039582	0.001836	21.5637	-74.9115	-163.633	-0.063552	0.753192	-0.250514	-0.251810	-0.087179	21.5637	-0.247482	-751.584	0.000116	NaN
518	1.000000	0.762488	7.37012e+06	-51189.1	1005.82	-29753.1	0.000000	0.000000	6.763049	0.007548	NaN	0.000000	0.001634	0.001646	28.0801	0.091740	0.002153	42.6169	-159.479	-165.221	-0.092857	0.761172	-0.242513	-0.243829	0.007548	42.6169	-0.242646	-632.16	-1.194021E-5	NaN
518	1.000000	0.770467	7.37012e+06	-51189.1	1005.82	-29753.1	0.000000	0.000000	6.771027	-0.002529	NaN	0.000000	0.001679	0.001701	28.0801	0.030031	0.002053	14.6313	-66.2703	-166.137	-0.084692	0.769168	-0.234534	-0.235833	-0.002529	14.6313	-0.234404	-469.778	5.382591E-6	NaN
518	1.000000	0.778494	7.37012e+06	-51189.1	1005.82	-29753.1	0.000000	0.000000	6.779052	-0.047750	NaN	0.000000	0.001613	0.001698	28.0802	0.031905	0.001963	16.2541	-5.411403	-167.575	-0.049099	0.777204	-0.226508	-0.227798	-0.047750	16.2541	-0.224304	-325.296	0.000147	NaN
518	1.000000	0.786484	7.37012e+06	-51189.1	1005.82	-29753.1	0.000000	0.000000	6.787042	-0.032369	NaN	0.000000	0.001652	0.001715	28.08	0.127343	0.001974	64.5012	-52.3477	-163.765	0.020383	0.785201	-0.218518	-0.219800	-0.032369	64.5012	-0.218141	-259.381	0.000125	NaN
518	1.000000	0.794498	7.37012e+06	-51189.1	1005.82	-29753.1	0.000000	0.000000	6.795059	0.027505	NaN	0.000000	0.001656	0.001644	28.08	0.041261	0.002034	20.2806	53.2558	-167.449	0.004744	0.793171	-0.210503	-0.211830	0.027505	20.2806	-0.211521	-202.963	-0.000136	NaN
518	1.000000	0.802501	7.37012e+06	-51189.1	1005.82	-29753.1	0.000000	0.000000	6.803059	-0.073185	NaN	0.000000	0.001656	0.001683	28.0801	0.142197	0.002043	69.6129	153.002	-166.617	-0.124309	0.801225	-0.202500	-0.203776	-0.073185	69.6129	-0.201711	-140.536	0.000521	NaN
518	1.000000	0.810504	7.37012e+06	-51189.1	1005.82	-29753.1	0.000000	0.000000	6.811063	-0.024567	NaN	0.000000	0.001649	0.001685	28.0801	0.035822	0.002087	17.162	59.8158	-166.959	-0.070929	0.809174	-0.194497	-0.195827	-0.024567	17.162	-0.193424	-102.579	0.000239	NaN
518	1.000000	0.818540	7.37012e+06	-51189.1	1005.82	-29753.1	0.000000	0.000000	6.819099	-0.018898	NaN	0.000000	0.001587	0.001698	28.0802	0.120852	0.001986	60.8634	-20.7034	-169.734	-0.084383	0.817228	-0.186462	-0.187774	-0.018898	60.8634	-0.186229	-77.7715	0.000243	NaN
518	1.000000	0.826496	7.37012e+06	-51189.1	1005.82	-29753.1	0.000000	0.000000	6.827053	-0.079366	NaN	0.000000	0.001624	0.001686	28.0802	0.087637	0.002030	43.1637	-67.4508	-166.164	-0.085873	0.825159	-0.178505	-0.179843	-0.079366	43.1637	-0.177126	-54.5049	0.001456	NaN
518	1.000000	0.834511	7.37012e+06	-51189.1	1005.82	-29753.1	0.000000	0.000000	6.835070	-0.035034	NaN	0.000000	0.001610	0.001674	28.0815	0.168235	0.002168	77.5956	47.0648	-165.039	-0.064573	0.833212	-0.170490	-0.171790	-0.035034	77.5956	-0.170152	-41.3286	0.000848	NaN
518	1.000000	0.842544	7.37012e+06	-51189.1	1005.82	-29753.1	0.000000	0.000000	6.843102	-0.039634	NaN	0.000000	0.001568	0.001683	28.0815	0.048617	0.001833	26.5219	-100.778	-163.552	-0.059784	0.841211	-0.162457	-0.163790	-0.039634	26.5219	-0.161337	-28.9535	0.001369	NaN
518	1.000000	0.850529	7.37012e+06	-51189.1	1005.82	-29753.1	0.000000	0.000000	6.851087	-0.062156	NaN	0.000000	0.001595	0.001654	28.0815	0.044964	0.002030	22.148	-128.147	-164.127	-0.065709	0.849214	-0.154472	-0.155788	-0.062156	22.148	-0.152367	-20.0006	0.003108	NaN
518	1.000000	0.858517	7.37012e+06	-51189.1	1005.82	-29753.1	0.000000	0.000000	6.859076	-0.005936	NaN	0.000000	0.001618	0.001666	28.0816	0.122182	0.002063	59.2354	-56.6701	-165.916	-0.014682	0.857216	-0.146485	-0.147785	-0.005936	59.2354	-0.146410	-15.5666	0.000381	NaN
518	1.000000	0.866515	7.37012e+06	-51189.1	1005.82	-29753.1	0.000000	0.000000	6.867073	-0.036512	NaN	0.000000	0.001672	0.001672	28.0816	0.078507	0.001947	40.3139	-44.1655	-165.93	-0.019010	0.865217	-0.138487	-0.139785	-0.036512	40.3139	-0.137807	-10.7556	0.003395	NaN
518	1.000000	0.874543	7.37012e+06	-51189.1	1005.82	-29753.1	0.000000	0.000000	6.875096	-0.164451	NaN	0.000000	0.001681	0.001671	28.0818	0.100817	0.001933	52.1526	84.9933	-166.919	-0.102084	0.873222	-0.130458	-0.131780	-0.164451	52.1526	-0.128093	-6.995957	0.023507	NaN
518	1.000000	0.882562	7.37012e+06	-51189.1	1005.82	-29753.1	0.000000	0.000000	6.883121	-0.034277	NaN	0.000000	0.001664	0.001628	28.0815	0.076032	0.001886	40.3094	29.1511	-166.41	-0.050596	0.881237	-0.122439	-0.123764	-0.034277	40.3094	-0.121801	-5.251776	0.006527	NaN
518	1.000000	0.890570	7.37012e+06	-51189.1	1005.82	-29753.1	0.000000	0.000000	6.891127	-0.082895	NaN	0.000000	0.001703	0.001686	28.0814	0.175249	0.002049	85.5179	-154.297	-166.242	-0.089087	0.889255	-0.114431	-0.115746	-0.082895	85.5179	-0.113704	-3.591834	0.023079	NaN
518	1.000000	0.898550	7.37012e+06	-51189.1	1005.82	-29753.1	0.000000	0.000000	6.899108	-0.030380	NaN	0.000000	0.001716	0.001652	28.0816	0.136565	0.002009	67.9771	176.361	-167.848	-0.082395	0.897271	-0.106452	-0.107731	-0.030380	67.9771	-0.106117	-2.484430	0.012228	NaN
518	1.000000	0.906541	7.37012e+06	-51189.1	1005.82	-29753.1	0.000000	0.000000	6.907100	-0.026427	NaN	0.000000	0.001711	0.001676	28.0816	0.119695	0.001958	61.1261	-75.3711	-164.093	-0.004646	0.905228	-0.098460	-0.099774	-0.026427	61.1261	-0.098136	-1.660517	0.015915	NaN
518	1.000000	0.914565	7.37012e+06	-51189.1	1005.82	-29753.1	0.000000	0.000000	6.915122	-0.085281	NaN	0.000000	0.001711	0.001691	28.0819	0.115102	0.002087	55.1447	-25.6419	-165.793	-0.043298	0.913238	-0.090436	-0.091763	-0.085281	55.1447	-0.089276	-1.039446	0.082044	NaN
518	1.000000	0.922541	7.37012e+06	-51189.1	1005.82	-29753.1	0.000000	0.000000	6.923099	-0.039817	NaN	0.000000	0.001655	0.001685	28.0816	0.023811	0.001909	12.4705	36.3563	-166.961	-0.083503	0.921244	-0.082461	-0.083757	-0.039817	12.4705	-0.080066	-0.621353	0.064080	NaN
518	1.000000	0.930572	7.37012e+06	-51189.1	1005.82	-29753.1	0.000000	0.000000	6.931133	0.011531	NaN	0.000000	0.001690	0.001650	28.0816	0.047008	0.001803	26.0656	-38.0992	-163.426	-0.086248	0.929264	-0.074429	-0.075738	0.011531	26.0656	-0.074761	-0.455337	-0.025323	NaN
518	1.000000	0.938573	7.37012e+06	-51189.1	1005.82	-29753.1	0.000000	0.000000	6.939130	-0.071168	NaN	0.000000	0.001691	0.001677	28.0816	0.082352	0.001934	42.5823	46.785	-167.376	-0.025344	0.937237	-0.066429	-0.067765	-0.071168	42.5823	-0.065175	-0.252023	0.282388	NaN
518	1.000000	0.946543	7.37012e+06	-51189.1	1005.82	-29753.1	0.000000	0.000000	6.947099	-0.081903	NaN	0.000000	0.001713	0.001676	28.0816	0.081869	0.002018	40.5719	124.794	-166.584	-0.180894	0.945262	-0.058459	-0.059739	-0.081903	40.5719	-0.056945	-0.146895	0.557560	NaN
518	1.000000	0.954554	7.37012e+06	-51189.1	1005.82	-29753.1	0.000000	0.000000	6.955113	-0.017375	NaN	0.000000	0.001664	0.001658	28.0817	0.033418	0.001939	17.2344	128.445	-167.894	-0.040903	0.953266	-0.050448	-0.051736	-0.017375	17.2344	-0.049692	-0.089312	0.194547	NaN
518	1.000000	0.962559	7.37012e+06	-51189.1	1005.82	-29753.1	0.000000	0.000000	6.963114	-0.110621	NaN	0.000000	0.001641	0.001690	28.0816	0.114764	0.002170	52.8977	48.5359	-167.698	-0.043712	0.961292	-0.042443	-0.043709	-0.110621	52.8977	-0.040874	-0.048077	2.300917	NaN
518	1.000000	0.970589	7.37012e+06	-51189.1	1005.82	-29753.1	0.000000	0.000000	6.971148	-0.023889	NaN	0.000000	0.001639	0.001661	28.0805	0.066844	0.001994	33.5278	14.1958	-169.237	-0.032754	0.969224	-0.034412	-0.035778	-0.023889	33.5278	-0.033878	-0.029689	0.804632	NaN
518	1.000000	0.978595	7.37012e+06	-51189.1	1005.82	-29753.1	0.000000	0.000000	6.979168	0.319662	NaN	0.000000	0.001666	0.001685	28.0806	0.298679	0.002028	147.295	27.2215	-166.785	0.307878	0.977293	-0.026407	-0.027708	0.319662	147.295	-0.028034	-0.020319	-15.7323	NaN
518	1.000000	0.986577	7.37012e+06	-51189.1	1005.82	-29753.1	0.000000	0.000000	6.987178	0.985171	NaN	0.000000	0.001661	0.001662	28.0803	0.723467	0.002093	345.581	23.3574	-168.794	0.938019	0.985329	-0.018424	-0.019673	0.985171	345.581	-0.020562	-0.012981	-75.891	NaN
518	1.000000	0.994567	7.37012e+06	-51189.1	1005.82	-29753.1	0.000000	0.000000	6.995214	2.117356	NaN	0.000000	0.001667	0.001648	28.0804	0.813359	0.001883	431.922	17.5034	-165.126	2.011058	0.993273	-0.010435	-0.011729	2.117356	431.922	-0.014111	-0.008749	-242.024	NaN
518	1.000000	1.002601	7.37012e+06	-51189.1	1005.82	-29753.1	0.000000	0.000000	7.003293	3.208096	NaN	0.000000	0.001635	0.001655	28.0805	1.192892	0.002001	596.228	19.4086	-171.165	3.108728	1.001282	-0.002401	-0.003719	3.208096	596.228	-0.006436	-0.004302	-745.799	NaN
518	1.000000	1.010577	7.37012e+06	-51189.1	1005.82	-29753.1	0.000000	0.000000	7.011316	4.345923	NaN	0.000000	0.001657	0.001648	28.0807	1.449733	0.002005	722.933	19.4077	-167.796	4.284771	1.009265	0.005576	0.004263	4.345923	722.933	0.001067	0.000814	5337.66	23147.6
518	1.000000	1.018611	7.37012e+06	-51189.1	1005.82	-29753.1	0.000000	0.000000	7.019359	4.563371	NaN	0.000000	0.001684	0.001629	28.0803	1.956157	0.001957	999.733	22.429	-172.268	4.712457	1.017280	0.013609	0.012279	4.563371	999.733	0.010186	0.009389	486.04	9426.5
518	1.000000	1.026580	7.37012e+06	-51189.1	1005.82	-29753.1	0.000000	0.000000	7.027342	4.911397	NaN	0.000000	0.001671	0.001629	28.0801	2.299021	0.002152	1068.4	23.208	-168	4.733011	1.025295	0.021578	0.020294	4.911397	1068.4	0.018131	0.019690	249.442	6956.51
518	1.000000	1.034585	7.37012e+06	-51189.1	1005.82	-29753.1	0.000000	0.000000	7.035368	5.425845	NaN	0.000000	0.001650	0.001652	28.0802	2.681547	0.001948	1376.46	20.5705	-169.818	5.354271	1.033302	0.029584	0.028301	5.425845	1376.46	0.026627	0.034043	159.384	6815.91
518	1.000000	1.042618	7.37012e+06	-51189.1	1005.82	-29753.1	0.000000	0.000000	7.043423	5.948319	NaN	0.000000	0.001613	0.001668	28.0807	3.230639	0.001846	1750.14	23.9407	-171.697	5.921490	1.041274	0.037617	0.036273	5.948319	1750.14	0.035068	0.051904	114.603	7018.55
518	1.000000	1.050597	7.37012e+06	-51189.1	1005.82	-29753.1	0.000000	0.000000	7.051434	6.737666	NaN	0.000000	0.001676	0.001667	28.0805	3.835588	0.001887	2032.23	19.2824	-169.346	6.805562	1.049360	0.045595	0.044359	6.737666	2032.23	0.043109	0.072309	93.1785	6904.76
518	1.000000	1.058603	7.37012e+06	-51189.1	1005.82	-29753.1	0.000000	0.000000	7.059467	7.388728	NaN	0.000000	0.001604	0.001659	28.0807	4.555991	0.002056	2216.45	23.8627	-173.267	7.212547	1.057312	0.053602	0.052311	7.388728	2216.45	0.051101	0.095848	77.0878	6540.92
518	2.000000	1.064256	7.37012e+06	-51189.1	1005.82	-29753.1	0.000000	0.000000	7.065111	7.188086	NaN	0.000000	0.001661	0.001640	28.0804	5.182521	0.001967	2634.07	17.7533	-172.235	7.486194	1.063973	0.059254	0.058972	7.188086	2634.07	0.057208	0.115986	61.9736	7066.38
518	2.000000	1.066256	7.37012e+06	-51189.1	1005.82	-29753.1	0.000000	0.000000	7.067104	6.990479	NaN	0.000000	0.001672	0.001668	28.0804	5.399734	0.002069	2609.53	16.8516	-169.645	7.042030	1.065990	0.061255	0.060989	6.990479	2609.53	0.059246	0.123117	56.779	6794.78
518	2.000000	1.068239	7.37012e+06	-51189.1	1005.82	-29753.1	0.000000	0.000000	7.069108	7.514976	NaN	0.000000	0.001671	0.001691	28.0805	5.576889	0.002027	2751.02	14.9722	-168.535	7.707059	1.067912	0.063238	0.062910	7.514976	2751.02	0.061189	0.130107	57.7602	6968.15
518	2.000000	1.070229	7.37012e+06	-51189.1	1005.82	-29753.1	0.000000	0.000000	7.071127	8.214353	NaN	0.000000	0.001625	0.001700	28.0804	5.906598	0.002099	2813.75	18.1775	-172.383	8.560933	1.069990	0.065228	0.064988	8.214353	2813.75	0.063038	0.136927	59.9906	6947.26
518	2.000000	1.072203	7.37012e+06	-51189.1	1005.82	-29753.1	0.000000	0.000000	7.073124	8.790323	NaN	0.000000	0.001665	0.001660	28.0804	6.376078	0.002000	3187.29	16.4297	-171.395	8.911349	1.071832	0.067201	0.066830	8.790323	3187.29	0.065133	0.144854	60.6839	7651.19
518	2.000000	1.074185	7.37012e+06	-51189.1	1005.82	-29753.1	0.000000	0.000000	7.075112	8.925548	NaN	0.000000	0.001663	0.001648	28.0815	6.458850	0.001959	3296.63	14.461	-169.497	8.920753	1.073905	0.069184	0.068904	8.925548	3296.63	0.067153	0.152701	58.4512	7707.66
518	2.000000	1.076181	7.37012e+06	-51189.1	1005.82	-29753.1	0.000000	0.000000	7.077116	9.112322	NaN	0.000000	0.001612	0.001679	28.0812	6.768831	0.002013	3362.63	17.4943	-173.163	9.018001	1.075870	0.071179	0.070868	9.112322	3362.63	0.069147	0.160635	56.7269	7665.37
518	2.000000	1.078177	7.37012e+06	-51189.1	1005.82	-29753.1	0.000000	0.000000	7.079137	9.722875	NaN	0.000000	0.001623	0.001671	28.0814	7.098335	0.001948	3643.78	15.9294	-171.437	9.572802	1.077841	0.073175	0.072839	9.722875	3643.78	0.071174	0.168897	57.567	8100.57
518	2.000000	1.080171	7.37012e+06	-51189.1	1005.82	-29753.1	0.000000	0.000000	7.081143	10.032	NaN	0.000000	0.001632	0.001670	28.0814	7.371034	0.002082	3540.9	18.4617	-173.608	9.941760	1.079842	0.075169	0.074840	10.032	3540.9	0.073044	0.176692	56.777	7696.24
518	2.000000	1.082143	7.37012e+06	-51189.1	1005.82	-29753.1	0.000000	0.000000	7.083146	10.7696	NaN	0.000000	0.001639	0.001668	28.0817	7.791728	0.002059	3784.08	18.4129	-174.82	10.5766	1.081828	0.077142	0.076827	10.7696	3784.08	0.075007	0.185051	58.1977	8036.89
518	2.000000	1.084174	7.37012e+06	-51189.1	1005.82	-29753.1	0.000000	0.000000	7.085211	11.5999	NaN	0.000000	0.001674	0.001653	28.0816	8.320015	0.001922	4329.58	15.8991	-174.568	11.656	1.083836	0.079172	0.078834	11.5999	4329.58	0.077163	0.194439	59.6584	8970.71
518	2.000000	1.086134	7.37012e+06	-51189.1	1005.82	-29753.1	0.000000	0.000000	7.087205	12.419	NaN	0.000000	0.001641	0.001668	28.0812	8.622163	0.001809	4766.58	12.1364	-171.857	12.1049	1.085839	0.081133	0.080837	12.419	4766.58	0.079179	0.203417	61.052	9655.75
518	2.000000	1.088158	7.37012e+06	-51189.1	1005.82	-29753.1	0.000000	0.000000	7.089272	13.4574	NaN	0.000000	0.001633	0.001658	28.0818	9.459383	0.002081	4545	16.8753	-174.303	13.5144	1.087764	0.083157	0.082762	13.4574	4545	0.080936	0.211398	63.6589	9031.44
518	2.000000	1.090143	7.37012e+06	-51189.1	1005.82	-29753.1	0.000000	0.000000	7.091245	13.1942	NaN	0.000000	0.001651	0.001673	28.0812	9.623514	0.001923	5004.54	14.7341	-174.571	12.9569	1.089836	0.085141	0.084835	13.1942	5004.54	0.083164	0.221721	59.508	9710.33
518	2.000000	1.092145	7.37012e+06	-51189.1	1005.82	-29753.1	0.000000	0.000000	7.093305	14.5957	NaN	0.000000	0.001651	0.001658	28.0819	10.0029	0.001752	5710.32	13.9511	-176.967	14.9316	1.091821	0.087143	0.086819	14.5957	5710.32	0.085226	0.231482	63.0534	10843.6
518	2.000000	1.094166	7.37012e+06	-51189.1	1005.82	-29753.1	0.000000	0.000000	7.095366	15.548	NaN	0.000000	0.001732	0.001644	28.0816	10.7036	0.002060	5196.32	12.4403	-173.263	15.8	1.093830	0.089165	0.088828	15.548	5196.32	0.086921	0.239650	64.878	9697.96
518	2.000000	1.096149	7.37012e+06	-51189.1	1005.82	-29753.1	0.000000	0.000000	7.097401	16.8272	NaN	0.000000	0.001731	0.001656	28.0813	11.033	0.001989	5547.85	12.431	-173.608	16.8883	1.095827	0.091148	0.090826	16.8272	5547.85	0.088873	0.249222	67.5187	10153.2
518	2.000000	1.098125	7.37012e+06	-51189.1	1005.82	-29753.1	0.000000	0.000000	7.099394	17.2454	NaN	0.000000	0.001699	0.001668	28.0817	11.5888	0.001912	6060.6	12.9331	-176.14	17.353	1.097830	0.093123	0.092828	17.2454	6060.6	0.090989	0.259798	66.3799	10863.5
518	2.000000	1.100130	7.37012e+06	-51189.1	1005.82	-29753.1	0.000000	0.000000	7.101488	19.4002	NaN	0.000000	0.001681	0.001691	28.0815	11.9303	0.001876	6357.85	10.7233	-173.78	19.3212	1.099790	0.095128	0.094788	19.4002	6357.85	0.092840	0.269215	72.0619	11195.2
518	2.000000	1.102132	7.37012e+06	-51189.1	1005.82	-29753.1	0.000000	0.000000	7.103556	21.01	NaN	0.000000	0.001673	0.001665	28.0818	12.7855	0.001973	6479.16	13.1952	-176.537	21.0524	1.101841	0.097130	0.096839	21.01	6479.16	0.094698	0.278829	75.3507	11210.4
518	2.000000	1.104112	7.37012e+06	-51189.1	1005.82	-29753.1	0.000000	0.000000	7.105609	22.7875	NaN	0.000000	0.001677	0.001694	28.0816	13.3822	0.002008	6664.88	13.3201	-176.109	22.6932	1.103848	0.099110	0.098847	22.7875	6664.88	0.096546	0.288543	78.9743	11336
518	2.000000	1.106136	7.37012e+06	-51189.1	1005.82	-29753.1	0.000000	0.000000	7.107715	24.7775	NaN	0.000000	0.001658	0.001678	28.0812	13.5872	0.001980	6861.02	12.8178	-176.604	24.7385	1.105829	0.101134	0.100828	24.7775	6861.02	0.098426	0.298585	82.9831	11471.7
518	2.000000	1.108109	7.37012e+06	-51189.1	1005.82	-29753.1	0.000000	0.000000	7.109766	26.6759	NaN	0.000000	0.001641	0.001695	28.0807	14.4814	0.001996	7255.57	13.5475	-177.105	26.0513	1.107752	0.103107	0.102751	26.6759	7255.57	0.100350	0.309032	86.321	11924.6
518	2.000000	1.110100	7.37012e+06	-51189.1	1005.82	-29753.1	0.000000	0.000000	7.111803	27.7886	NaN	0.000000	0.001644	0.001693	28.0803	14.9024	0.001930	7723.27	11.2357	-176.544	27.3897	1.109824	0.105099	0.104823	27.7886	7723.27	0.102400	0.320348	86.7453	12467.1
518	2.000000	1.112113	7.37012e+06	-51189.1	1005.82	-29753.1	0.000000	0.000000	7.113897	29.7588	NaN	0.000000	0.001685	0.001697	28.0809	15.2877	0.001995	7661.78	10.666	-174.835	29.7023	1.111789	0.107112	0.106788	29.7588	7661.78	0.104199	0.330430	90.0609	12177.6
518	2.000000	1.114130	7.37012e+06	-51189.1	1005.82	-29753.1	0.000000	0.000000	7.116015	32.221	NaN	0.000000	0.001688	0.001695	28.0802	16.5889	0.001984	8362.37	13.9015	-179.782	32.4616	1.113814	0.109129	0.108812	32.221	8362.37	0.106239	0.342048	94.2002	13063.5
518	2.000000	1.116098	7.37012e+06	-51189.1	1005.82	-29753.1	0.000000	0.000000	7.118124	35.6447	NaN	0.000000	0.001672	0.001704	28.0802	16.6887	0.001810	9217.97	8.695588	-175.37	35.2231	1.115774	0.111097	0.110773	35.6447	9217.97	0.108196	0.353370	100.871	14167.5
518	2.000000	1.118118	7.37012e+06	-51189.1	1005.82	-29753.1	0.000000	0.000000	7.120150	35.7839	NaN	0.000000	0.001659	0.001691	28.0808	17.6862	0.001918	9219.85	11.3986	-177.85	35.7066	1.117852	0.113117	0.112850	35.7839	9219.85	0.110206	0.365174	97.9915	13939.5
518	2.000000	1.120090	7.37012e+06	-51189.1	1005.82	-29753.1	0.000000	0.000000	7.122220	38.1715	NaN	0.000000	0.001682	0.001697	28.0802	18.0344	0.001880	9591.74	10.8534	-178.12	37.5872	1.119753	0.115089	0.114752	38.1715	9591.74	0.112104	0.376492	101.387	14282.1
518	2.000000	1.122118	7.37012e+06	-51189.1	1005.82	-29753.1	0.000000	0.000000	7.124328	40.1111	NaN	0.000000	0.001675	0.001707	28.0809	19.3372	0.001925	10043.3	12.4489	179.426	39.993	1.121802	0.117117	0.116801	40.1111	10043.3	0.114121	0.388700	103.193	14717.8
518	2.000000	1.124148	7.37012e+06	-51189.1	1005.82	-29753.1	0.000000	0.000000	7.126420	41.6449	NaN	0.000000	0.001697	0.001677	28.0803	19.5561	0.001934	10113.2	8.134483	-175.281	42.9721	1.123823	0.119146	0.118821	41.6449	10113.2	0.116058	0.400594	103.958	14598.6
518	2.000000	1.126109	7.37012e+06	-51189.1	1005.82	-29753.1	0.000000	0.000000	7.128620	47.4264	NaN	0.000000	0.001694	0.001698	28.0802	21.1882	0.002017	10505.7	14.1976	177.722	48.046	1.125795	0.121108	0.120794	47.4264	10505.7	0.117722	0.410949	115.407	14972.9
518	2.000000	1.128076	7.37012e+06	-51189.1	1005.82	-29753.1	0.000000	0.000000	7.130700	50.18	NaN	0.000000	0.001671	0.001685	28.0803	21.9428	0.001941	11303.5	11.5577	-179.502	49.853	1.127835	0.123075	0.122834	50.18	11303.5	0.119745	0.423711	118.43	15865.5
518	2.000000	1.130028	7.37012e+06	-51189.1	1005.82	-29753.1	0.000000	0.000000	7.132813	54.1056	NaN	0.000000	0.001648	0.001686	28.0802	22.8637	0.001851	12351.9	13.2006	176.529	51.331	1.129743	0.125027	0.124742	54.1056	12351.9	0.121741	0.436480	123.959	17081.5
518	2.000000	1.132059	7.37012e+06	-51189.1	1005.82	-29753.1	0.000000	0.000000	7.134955	56.7947	NaN	0.000000	0.001698	0.001702	28.0808	24.1958	0.001862	12997.2	10.0673	179.325	55.6623	1.131807	0.127058	0.126806	56.7947	12997.2	0.123781	0.449714	126.291	17707.5
518	2.000000	1.134122	7.37012e+06	-51189.1	1005.82	-29753.1	0.000000	0.000000	7.137238	62.1533	NaN	0.000000	0.001697	0.001658	28.0803	25.5007	0.001700	15000.8	5.873555	-178.017	61.5583	1.133750	0.129121	0.128749	62.1533	15000.8	0.126013	0.464421	133.83	20110.9
518	2.000000	1.136062	7.37012e+06	-51189.1	1005.82	-29753.1	0.000000	0.000000	7.139377	66.9728	NaN	0.000000	0.001613	0.001676	28.0802	28.1663	0.002009	14020.2	10.644	177.576	66.6043	1.135735	0.131061	0.130733	66.9728	14020.2	0.127478	0.474194	141.235	18601.5
518	2.000000	1.138103	7.37012e+06	-51189.1	1005.82	-29753.1	0.000000	0.000000	7.141632	72.2096	NaN	0.000000	0.001652	0.001693	28.0802	29.3949	0.001918	15323.6	10.2545	177.081	72.7455	1.137823	0.133101	0.132821	72.2096	15323.6	0.129567	0.488297	147.88	20035.1
518	2.000000	1.140069	7.37012e+06	-51189.1	1005.82	-29753.1	0.000000	0.000000	7.143896	79.4369	NaN	0.000000	0.001641	0.001670	28.0802	30.5207	0.001775	17197.7	10.6718	175.524	78.0023	1.139793	0.135068	0.134791	79.4369	17197.7	0.131603	0.502238	158.166	22171.1
518	2.000000	1.142193	7.37012e+06	-51189.1	1005.82	-29753.1	0.000000	0.000000	7.146110	81.6292	NaN	0.000000	0.001628	0.001696	28.0822	32.5421	0.001771	18374.2	10.6615	173.856	83.5056	1.141778	0.137191	0.136777	81.6292	18374.2	0.133859	0.517905	157.614	23326.9
518	2.000000	1.144065	7.37012e+06	-51189.1	1005.82	-29753.1	0.000000	0.000000	7.148368	91.0194	NaN	0.000000	0.001619	0.001679	28.0814	34.6588	0.001719	20162.4	9.704123	173.908	88.8666	1.143754	0.139063	0.138753	91.0194	20162.4	0.135677	0.530701	171.508	25286.6
518	2.000000	1.146065	7.37012e+06	-51189.1	1005.82	-29753.1	0.000000	0.000000	7.150483	93.831	NaN	0.000000	0.001643	0.001652	28.0814	35.8604	0.001845	19440.5	10.0351	174.822	93.9029	1.145773	0.141063	0.140772	93.831	19440.5	0.137443	0.543275	172.714	24097.5
518	2.000000	1.148096	7.37012e+06	-51189.1	1005.82	-29753.1	0.000000	0.000000	7.152794	100.612	NaN	0.000000	0.001646	0.001677	28.0812	37.7291	0.001858	20310.1	7.905239	176.145	101.129	1.147763	0.143095	0.142761	100.612	20310.1	0.139380	0.557226	180.558	24858.1
518	2.000000	1.150009	7.37012e+06	-51189.1	1005.82	-29753.1	0.000000	0.000000	7.154867	104.506	NaN	0.000000	0.001680	0.001674	28.0813	37.6256	0.001755	21444.1	3.539823	179.219	100.681	1.149679	0.145008	0.144677	104.506	21444.1	0.141353	0.571621	182.824	25913.6
518	2.000000	1.152042	7.37012e+06	-51189.1	1005.82	-29753.1	0.000000	0.000000	7.157032	107.729	NaN	0.000000	0.001623	0.001710	28.0819	40.1292	0.001741	23050.6	5.309749	177.128	106.126	1.151732	0.147041	0.146731	107.729	23050.6	0.143535	0.587754	183.289	27469.9
518	2.000000	1.154026	7.37012e+06	-51189.1	1005.82	-29753.1	0.000000	0.000000	7.159363	116.164	NaN	0.000000	0.001648	0.001669	28.0814	42.4893	0.001734	24498.9	6.029773	175.457	112.988	1.153722	0.149024	0.148721	116.164	24498.9	0.145468	0.602223	192.892	28843.1
518	2.000000	1.156107	7.37012e+06	-51189.1	1005.82	-29753.1	0.000000	0.000000	7.161650	121.163	NaN	0.000000	0.001640	0.001660	28.0815	44.3103	0.001884	23515.1	7.399888	174.62	123.146	1.155770	0.151106	0.150769	121.163	23515.1	0.147241	0.615652	196.804	27381.2
518	2.000000	1.158043	7.37012e+06	-51189.1	1005.82	-29753.1	0.000000	0.000000	7.163860	127.812	NaN	0.000000	0.001667	0.001665	28.0814	45.9058	0.001839	24957.7	7.181576	174.344	126.685	1.157785	0.153042	0.152784	127.812	24957.7	0.149201	0.630661	202.664	28713.1
518	2.000000	1.160096	7.37012e+06	-51189.1	1005.82	-29753.1	0.000000	0.000000	7.166190	134.58	NaN	0.000000	0.001657	0.001682	28.0814	46.5298	0.001687	27578.2	6.426131	173.399	135.479	1.159719	0.155094	0.154717	134.58	27578.2	0.151434	0.647983	207.691	31300.9
518	2.000000	1.161989	7.37012e+06	-51189.1	1005.82	-29753.1	0.000000	0.000000	7.168436	143.15	NaN	0.000000	0.001599	0.001702	28.0817	48.933	0.001802	27152.5	3.428584	176.571	139.097	1.161697	0.156988	0.156696	143.15	27152.5	0.153034	0.660535	216.718	30523.6