File: remote_trans/data/nanoindenter/0828-1/data/Data_2025-08-06,11h17m57s/2025-07-22_16-23-58_1_189.txt
2025-07-22, 16:23:58, 1
Index	Phase	Displacement	Time	Pos X	Pos Y	Pos Z	Rot A	Rot B	Piezo Z	Force A	Force B	Gripper	Voltage A	Voltage B	Temperature	Amplitude force	Amplitude pos	Stiffness	Phase shift	Phase excitation	Force A raw	Displacement raw	HMax	HMax raw	Real Force	Real Stiffness	Contact Depth	Area	Hardness	Reduced Mod.
[#]	[#]	[um]	[s]	[um]	[um]	[um]	[m°]	[m°]	[um]	[uN]	[uN]	[V]	[V]	[V]	[°C]	[uN]	[um]	[N/m]	[°]	[°]	[uN]	[um]	[um]	[um]	[uN]	[N/m]	[um]	[um^2]	[MPa]	[MPa]
189	1.000000	0.002359	7.36689e+06	-48089.1	955.818	-29763.6	0.000000	0.000000	6.002798	0.045636	NaN	0.000000	0.001624	0.001684	28.0752	0.060318	0.001022	58.9926	-66.0617	-160.949	-0.002981	0.001093	-1.706638	-1.707903	0.045636	58.9926	-1.707218	-6.343346E+22	-7.194254E-25	NaN
189	1.000000	0.014384	7.36689e+06	-48089.1	955.818	-29763.6	0.000000	0.000000	6.014822	0.014621	NaN	0.000000	0.001631	0.001726	28.0753	0.078389	0.001587	49.4041	-9.603717	-163.903	-0.077997	0.013187	-1.694612	-1.695809	0.014621	49.4041	-1.694834	-4.343242E+22	-3.366475E-25	NaN
189	1.000000	0.026370	7.36689e+06	-48089.1	955.818	-29763.6	0.000000	0.000000	6.026810	0.049133	NaN	0.000000	0.001641	0.001745	28.0753	0.089576	0.001768	50.666	44.2553	-162.988	-0.019416	0.024994	-1.682626	-1.684002	0.049133	50.666	-1.683354	-3.056915E+22	-1.607279E-24	NaN
189	1.000000	0.038306	7.36689e+06	-48089.1	955.819	-29763.6	0.000000	0.000000	6.038745	0.041580	NaN	0.000000	0.001626	0.001739	28.0765	0.049791	0.001814	27.4425	-14.3789	-162.946	0.087282	0.036995	-1.670691	-1.672002	0.041580	27.4425	-1.671827	-2.148432E+22	-1.935356E-24	NaN
189	1.000000	0.050305	7.36689e+06	-48089.1	955.817	-29763.6	0.000000	0.000000	6.050743	-0.001488	NaN	0.000000	0.001636	0.001690	28.0764	0.065897	0.002038	32.3417	116.548	-165.832	-0.065987	0.049023	-1.658691	-1.659974	-0.001488	32.3417	-1.658657	-1.435799E+22	1.036343E-25	NaN
189	1.000000	0.062305	7.36689e+06	-48089.1	955.818	-29763.6	0.000000	0.000000	6.062742	-0.011553	NaN	0.000000	0.001594	0.001695	28.0767	0.062438	0.002007	31.1112	155.551	-165.476	-0.008606	0.061003	-1.646692	-1.647994	-0.011553	31.1112	-1.646413	-9.870899E+21	1.170381E-24	NaN
189	1.000000	0.074321	7.36689e+06	-48089.1	955.817	-29763.6	0.000000	0.000000	6.074756	-0.038530	NaN	0.000000	0.001649	0.001695	28.0768	0.066269	0.001986	33.3596	136.197	-162.712	0.006305	0.073005	-1.634676	-1.635991	-0.038530	33.3596	-1.633810	-6.711382E+21	5.741040E-24	NaN
189	1.000000	0.086331	7.36689e+06	-48089.1	955.818	-29763.6	0.000000	0.000000	6.086769	0.017961	NaN	0.000000	0.001642	0.001684	28.0765	0.125758	0.001977	63.6229	-83.6927	-166.139	0.016032	0.084973	-1.622666	-1.624024	0.017961	63.6229	-1.622878	-4.802423E+21	-3.740021E-24	NaN
189	1.000000	0.098345	7.36689e+06	-48089.1	955.817	-29763.6	0.000000	0.000000	6.098782	-0.017088	NaN	0.000000	0.001605	0.001733	28.0766	0.042270	0.001973	21.4201	-9.071187	-164.362	0.090874	0.097063	-1.610652	-1.611934	-0.017088	21.4201	-1.610053	-3.242862E+21	5.269445E-24	NaN
189	1.000000	0.110364	7.36689e+06	-48089.1	955.818	-29763.6	0.000000	0.000000	6.110802	0.006249	NaN	0.000000	0.001620	0.001740	28.0762	0.049778	0.001884	26.4231	149.327	-165.536	0.005274	0.109053	-1.598633	-1.599944	0.006249	26.4231	-1.598810	-2.298255E+21	-2.718897E-24	NaN
189	1.000000	0.122321	7.36689e+06	-48089.1	955.819	-29763.6	0.000000	0.000000	6.122758	-0.020628	NaN	0.000000	0.001612	0.001750	28.0768	0.106973	0.001899	56.34	63.0934	-164.514	-0.001252	0.121027	-1.586676	-1.587969	-0.020628	56.34	-1.586401	-1.571598E+21	1.312545E-23	NaN
189	1.000000	0.134321	7.36689e+06	-48089.1	955.819	-29763.6	0.000000	0.000000	6.134759	0.017635	NaN	0.000000	0.001597	0.001726	28.0768	0.133790	0.002047	65.3507	-151.107	-166.535	-0.036157	0.133094	-1.574675	-1.575903	0.017635	65.3507	-1.574878	-1.104180E+21	-1.597086E-23	NaN
189	1.000000	0.146371	7.36689e+06	-48089.1	955.818	-29763.6	0.000000	0.000000	6.146807	-0.035012	NaN	0.000000	0.001632	0.001718	28.0767	0.033926	0.002097	16.1797	-61.487	-162.038	-0.010756	0.145076	-1.562626	-1.563920	-0.035012	16.1797	-1.561003	-7.218052E+20	4.850559E-23	NaN
189	1.000000	0.158358	7.36689e+06	-48089.1	955.818	-29763.6	0.000000	0.000000	6.158794	-0.013801	NaN	0.000000	0.001598	0.001773	28.0766	0.145630	0.001983	73.4294	-156.288	-166.379	-0.062651	0.157016	-1.550639	-1.551981	-0.013801	73.4294	-1.550498	-5.231505E+20	2.638090E-23	NaN
189	1.000000	0.170353	7.36689e+06	-48089.1	955.818	-29763.6	0.000000	0.000000	6.170789	-0.029485	NaN	0.000000	0.001639	0.001732	28.0765	0.112649	0.001972	57.1273	-30.0085	-162.798	-0.057799	0.169046	-1.538644	-1.539951	-0.029485	57.1273	-1.538256	-3.594906E+20	8.201910E-23	NaN
189	1.000000	0.182367	7.36689e+06	-48089.1	955.817	-29763.6	0.000000	0.000000	6.182805	0.020426	NaN	0.000000	0.001659	0.001728	28.0753	0.003008	0.001963	1.532283	-146.491	-167.401	0.054095	0.181092	-1.526630	-1.527905	0.020426	1.532283	-1.536627	-3.419798E+20	-5.972734E-23	NaN
189	1.000000	0.194366	7.36689e+06	-48089.1	955.819	-29763.6	0.000000	0.000000	6.194805	0.029350	NaN	0.000000	0.001646	0.001727	28.0753	0.027327	0.002058	13.2812	6.612548	-164.427	0.038086	0.193056	-1.514631	-1.515940	0.029350	13.2812	-1.516288	-1.833239E+20	-1.600973E-22	NaN
189	1.000000	0.206372	7.36689e+06	-48089.1	955.818	-29763.6	0.000000	0.000000	6.206808	-0.016699	NaN	0.000000	0.001633	0.001747	28.0752	0.121188	0.002025	59.8376	32.666	-165.115	-0.005730	0.205089	-1.502625	-1.503908	-0.016699	59.8376	-1.502416	-1.198080E+20	1.393809E-22	NaN
189	1.000000	0.218407	7.36689e+06	-48089.1	955.819	-29763.6	0.000000	0.000000	6.218844	0.012033	NaN	0.000000	0.001670	0.001757	28.0752	0.023257	0.001973	11.7882	-149.194	-162.686	0.023940	0.217095	-1.490590	-1.491902	0.012033	11.7882	-1.491356	-8.534501E+19	-1.409883E-22	NaN
189	1.000000	0.230374	7.36689e+06	-48089.1	955.818	-29763.6	0.000000	0.000000	6.230809	-0.049801	NaN	0.000000	0.001652	0.001755	28.0753	0.068335	0.002061	33.1495	-136.543	-162.849	0.002903	0.229063	-1.478623	-1.479933	-0.049801	33.1495	-1.477496	-5.578930E+19	8.926535E-22	NaN
189	1.000000	0.242360	7.36689e+06	-48089.1	955.818	-29763.6	0.000000	0.000000	6.242799	0.046168	NaN	0.000000	0.001659	0.001751	28.0752	0.052410	0.001972	26.5808	109.276	-165.874	0.014797	0.241082	-1.466637	-1.467915	0.046168	26.5808	-1.467940	-4.161238E+19	-1.109476E-21	NaN
189	1.000000	0.254410	7.36689e+06	-48089.1	955.818	-29763.6	0.000000	0.000000	6.254844	-0.072125	NaN	0.000000	0.001637	0.001731	28.0755	0.054112	0.001918	28.2066	8.719866	-163.785	-0.006017	0.253072	-1.454587	-1.455924	-0.072125	28.2066	-1.452669	-2.604500E+19	2.769236E-21	NaN
189	1.000000	0.266418	7.36689e+06	-48089.1	955.818	-29763.6	0.000000	0.000000	6.266855	-0.014241	NaN	0.000000	0.001666	0.001724	28.0752	0.018687	0.001865	10.0196	-179.645	-164.895	0.041361	0.265092	-1.442579	-1.443905	-0.014241	10.0196	-1.441513	-1.849352E+19	7.700379E-22	NaN
189	1.000000	0.278427	7.36689e+06	-48089.1	955.819	-29763.6	0.000000	0.000000	6.278863	-0.030709	NaN	0.000000	0.001670	0.001744	28.0751	0.052457	0.001856	28.2699	20.6513	-165.996	0.008604	0.277082	-1.430570	-1.431914	-0.030709	28.2699	-1.429755	-1.289061E+19	2.382243E-21	NaN
189	1.000000	0.290380	7.36689e+06	-48089.1	955.817	-29763.6	0.000000	0.000000	6.290816	-0.029310	NaN	0.000000	0.001652	0.001740	28.0755	0.035845	0.001947	18.4128	-39.1588	-164.476	-0.019062	0.289148	-1.418617	-1.419849	-0.029310	18.4128	-1.417423	-8.827607E+18	3.320249E-21	NaN
189	1.000000	0.302430	7.36689e+06	-48089.1	955.818	-29763.6	0.000000	0.000000	6.302866	-0.045733	NaN	0.000000	0.001656	0.001741	28.0754	0.026469	0.002155	12.2805	122.971	-165.873	-0.077995	0.301072	-1.406567	-1.407925	-0.045733	12.2805	-1.403774	-5.804996E+18	7.878189E-21	NaN
189	1.000000	0.314424	7.36689e+06	-48089.1	955.818	-29763.6	0.000000	0.000000	6.314859	-0.049556	NaN	0.000000	0.001688	0.001754	28.0761	0.035369	0.001960	18.0458	138.138	-163.6	-0.060606	0.313152	-1.394573	-1.395845	-0.049556	18.0458	-1.392514	-4.107688E+18	1.206420E-20	NaN
189	1.000000	0.326444	7.36689e+06	-48089.1	955.817	-29763.6	0.000000	0.000000	6.326878	-0.066827	NaN	0.000000	0.001636	0.001762	28.0767	0.097175	0.002060	47.175	-55.8452	-164.538	-0.042050	0.325089	-1.382553	-1.383908	-0.066827	47.175	-1.381491	-2.927734E+18	2.282540E-20	NaN
189	1.000000	0.338440	7.36689e+06	-48089.1	955.818	-29763.6	0.000000	0.000000	6.338877	0.004590	NaN	0.000000	0.001661	0.001747	28.0767	0.084254	0.001921	43.8686	10.5811	-164.302	-0.001473	0.337128	-1.370557	-1.371868	0.004590	43.8686	-1.370635	-2.097354E+18	-2.188251E-21	NaN
189	1.000000	0.350432	7.36689e+06	-48089.1	955.818	-29763.6	0.000000	0.000000	6.350871	0.028109	NaN	0.000000	0.001671	0.001748	28.0765	0.026388	0.002078	12.6971	-82.1432	-162.729	0.046775	0.349155	-1.358564	-1.359842	0.028109	12.6971	-1.360225	-1.523086E+18	-1.845528E-20	NaN
189	1.000000	0.362447	7.36689e+06	-48089.1	955.818	-29763.6	0.000000	0.000000	6.362884	-0.011422	NaN	0.000000	0.001735	0.001721	28.0766	0.038711	0.002140	18.0899	-62.7225	-163.652	-0.051843	0.361140	-1.346549	-1.347857	-0.011422	18.0899	-1.346076	-9.859121E+17	1.158562E-20	NaN
189	1.000000	0.374431	7.36689e+06	-48089.1	955.818	-29763.6	0.000000	0.000000	6.374868	0.005007	NaN	0.000000	0.001698	0.001755	28.0764	0.067469	0.002068	32.6247	-43.7875	-160.569	0.023297	0.373094	-1.334566	-1.335903	0.005007	32.6247	-1.334681	-6.945226E+17	-7.209863E-21	NaN
189	1.000000	0.386456	7.36689e+06	-48089.1	955.819	-29763.6	0.000000	0.000000	6.386895	0.035821	NaN	0.000000	0.001680	0.001761	28.0767	0.053910	0.001964	27.4448	-147.52	-168.917	0.021605	0.385155	-1.322541	-1.323842	0.035821	27.4448	-1.323520	-4.927449E+17	-7.269780E-20	NaN
189	1.000000	0.398446	7.36689e+06	-48089.1	955.818	-29763.6	0.000000	0.000000	6.398886	0.079301	NaN	0.000000	0.001686	0.001684	28.0764	0.084522	0.001931	43.7817	-137.562	-166.131	0.116179	0.397178	-1.310551	-1.311818	0.079301	43.7817	-1.311910	-3.447661E+17	-2.300136E-19	NaN
189	1.000000	0.410462	7.36689e+06	-48089.1	955.818	-29763.6	0.000000	0.000000	6.410898	-0.047773	NaN	0.000000	0.001670	0.001718	28.0766	0.050589	0.002012	25.1482	-16.5631	-163.856	0.071973	0.409152	-1.298535	-1.299845	-0.047773	25.1482	-1.297110	-2.186624E+17	2.184770E-19	NaN
189	1.000000	0.422483	7.36689e+06	-48089.1	955.818	-29763.6	0.000000	0.000000	6.422923	0.068442	NaN	0.000000	0.001687	0.001714	28.0766	0.046524	0.002012	23.1192	-140.293	-164.776	0.054513	0.421158	-1.286513	-1.287839	0.068442	23.1192	-1.288734	-1.689780E+17	-4.050348E-19	NaN
189	1.000000	0.434480	7.36689e+06	-48089.1	955.818	-29763.5	0.000000	0.000000	6.434915	-0.043514	NaN	0.000000	0.001678	0.001748	28.077	0.013571	0.001901	7.137576	170.368	-163.849	0.011173	0.433144	-1.274517	-1.275853	-0.043514	7.137576	-1.269945	-9.476574E+16	4.591727E-19	NaN
189	1.000000	0.446461	7.36689e+06	-48089.1	955.817	-29763.5	0.000000	0.000000	6.446897	-0.020958	NaN	0.000000	0.001662	0.001743	28.0762	0.055577	0.002160	25.7245	22.1575	-163.654	-0.024899	0.445200	-1.262536	-1.263797	-0.020958	25.7245	-1.261925	-7.403058E+16	2.831009E-19	NaN
189	1.000000	0.458494	7.36689e+06	-48089.1	955.817	-29763.5	0.000000	0.000000	6.458930	-0.048807	NaN	0.000000	0.001626	0.001751	28.0752	0.074486	0.001927	38.6534	170.016	-165.01	-0.030954	0.457257	-1.250502	-1.251740	-0.048807	38.6534	-1.249555	-5.057943E+16	9.649603E-19	NaN
189	1.000000	0.470459	7.36689e+06	-48089.1	955.817	-29763.5	0.000000	0.000000	6.470896	-0.000937	NaN	0.000000	0.001665	0.001747	28.0754	0.120384	0.002053	58.6522	-165.012	-160.968	-0.010874	0.469177	-1.238538	-1.239820	-0.000937	58.6522	-1.238526	-3.600997E+16	2.603376E-20	NaN
189	1.000000	0.482489	7.36689e+06	-48089.1	955.817	-29763.5	0.000000	0.000000	6.482926	0.008691	NaN	0.000000	0.001645	0.001742	28.0756	0.063463	0.002009	31.5873	-39.8658	-165.804	0.016109	0.481186	-1.226508	-1.227811	0.008691	31.5873	-1.226715	-2.502488E+16	-3.473079E-19	NaN
189	1.000000	0.494508	7.36689e+06	-48089.1	955.817	-29763.5	0.000000	0.000000	6.494944	-0.041551	NaN	0.000000	0.001663	0.001750	28.0754	0.048921	0.001986	24.6322	164.458	-166.029	-0.039646	0.493198	-1.214489	-1.215798	-0.041551	24.6322	-1.213223	-1.651181E+16	2.516422E-18	NaN
189	1.000000	0.506505	7.36689e+06	-48089.1	955.818	-29763.5	0.000000	0.000000	6.506944	0.026756	NaN	0.000000	0.001658	0.001766	28.0754	0.024028	0.002066	11.6322	87.3593	-163.959	0.000274	0.505252	-1.202492	-1.203745	0.026756	11.6322	-1.204217	-1.250865E+16	-2.139040E-18	NaN
189	1.000000	0.518506	7.36689e+06	-48089.1	955.819	-29763.5	0.000000	0.000000	6.518945	0.034539	NaN	0.000000	0.001667	0.001749	28.0756	0.084746	0.001869	45.3374	-86.1422	-165.95	-0.004159	0.517224	-1.190491	-1.191772	0.034539	45.3374	-1.191062	-8.337816E+15	-4.142438E-18	NaN
189	1.000000	0.530519	7.36689e+06	-48089.1	955.818	-29763.5	0.000000	0.000000	6.530955	-0.035789	NaN	0.000000	0.001628	0.001772	28.0756	0.050631	0.001894	26.7368	40.3917	-165.275	0.008668	0.529215	-1.178477	-1.179782	-0.035789	26.7368	-1.177474	-5.483065E+15	6.527221E-18	NaN
189	1.000000	0.542548	7.36689e+06	-48089.1	955.818	-29763.5	0.000000	0.000000	6.542986	0.017410	NaN	0.000000	0.001639	0.001778	28.0755	0.037562	0.002156	17.4182	-175.613	-167.639	-0.016494	0.541186	-1.166449	-1.167810	0.017410	17.4182	-1.167198	-3.993383E+15	-4.359709E-18	NaN
189	1.000000	0.554552	7.36689e+06	-48089.1	955.818	-29763.5	0.000000	0.000000	6.554989	-0.005782	NaN	0.000000	0.001648	0.001768	28.0755	0.058619	0.002117	27.6942	148.349	-165.494	-0.055147	0.553217	-1.154445	-1.155780	-0.005782	27.6942	-1.154288	-2.681045E+15	2.156646E-18	NaN
189	1.000000	0.566528	7.36689e+06	-48089.1	955.818	-29763.5	0.000000	0.000000	6.566966	0.022556	NaN	0.000000	0.001640	0.001700	28.0755	0.056964	0.001952	29.1822	-144.959	-164.545	0.055008	0.565246	-1.142469	-1.143751	0.022556	29.1822	-1.143049	-1.895036E+15	-1.190282E-17	NaN
189	1.000000	0.578547	7.36689e+06	-48089.1	955.817	-29763.5	0.000000	0.000000	6.578988	0.078190	NaN	0.000000	0.001672	0.001737	28.0757	0.044048	0.002023	21.7782	-59.7839	-159.954	0.127746	0.577248	-1.130450	-1.131748	0.078190	21.7782	-1.133142	-1.395622E+15	-5.602500E-17	NaN
189	1.000000	0.590547	7.36689e+06	-48089.1	955.819	-29763.5	0.000000	0.000000	6.590983	-0.026665	NaN	0.000000	0.001653	0.001771	28.0767	0.057533	0.001991	28.9028	-98.4255	-164.413	0.057477	0.589232	-1.118450	-1.119765	-0.026665	28.9028	-1.117758	-8.677491E+14	3.072907E-17	NaN
189	1.000000	0.602521	7.36689e+06	-48089.1	955.816	-29763.5	0.000000	0.000000	6.602958	-0.025283	NaN	0.000000	0.001631	0.001724	28.0766	0.035541	0.001997	17.794	104.885	-165.865	0.013933	0.601221	-1.106476	-1.107776	-0.025283	17.794	-1.105410	-5.924945E+14	4.267187E-17	NaN
189	1.000000	0.614552	7.36689e+06	-48089.1	955.817	-29763.5	0.000000	0.000000	6.614990	0.025438	NaN	0.000000	0.001629	0.001721	28.0766	0.057519	0.001967	29.2353	-127.499	-165.875	0.021196	0.613213	-1.094445	-1.095784	0.025438	29.2353	-1.095098	-4.307818E+14	-5.904973E-17	NaN
189	1.000000	0.626584	7.36689e+06	-48089.1	955.818	-29763.5	0.000000	0.000000	6.627022	0.010004	NaN	0.000000	0.001644	0.001720	28.0768	0.073370	0.001964	37.3506	139.901	-165.026	-0.088481	0.625276	-1.082412	-1.083720	0.010004	37.3506	-1.082613	-2.928304E+14	-3.416294E-17	NaN
189	1.000000	0.638595	7.36689e+06	-48089.1	955.818	-29763.5	0.000000	0.000000	6.639030	-0.038217	NaN	0.000000	0.001678	0.001726	28.0767	0.069748	0.001934	36.0578	113.948	-164.569	-0.033616	0.637204	-1.070402	-1.071793	-0.038217	36.0578	-1.069607	-1.958452E+14	1.951398E-16	NaN
189	1.000000	0.650579	7.36689e+06	-48089.1	955.817	-29763.5	0.000000	0.000000	6.651015	-0.042810	NaN	0.000000	0.001663	0.001787	28.076	0.093856	0.001895	49.5159	-88.0598	-163.719	-0.029257	0.649236	-1.058418	-1.059761	-0.042810	49.5159	-1.057769	-1.357822E+14	3.152868E-16	NaN
189	1.000000	0.662585	7.36689e+06	-48089.1	955.819	-29763.5	0.000000	0.000000	6.663024	0.033404	NaN	0.000000	0.001657	0.001751	28.0763	0.048303	0.002027	23.8295	98.5116	-164.137	-0.010736	0.661257	-1.046412	-1.047740	0.033404	23.8295	-1.047463	-9.869907E+13	-3.384439E-16	NaN
189	1.000000	0.674600	7.36689e+06	-48089.1	955.818	-29763.5	0.000000	0.000000	6.675037	0.010310	NaN	0.000000	0.001631	0.001737	28.0766	0.022577	0.002048	11.024	-160.988	-163.958	0.010889	0.673225	-1.034397	-1.035772	0.010310	11.024	-1.035099	-6.730638E+13	-1.531834E-16	NaN
189	1.000000	0.686593	7.36689e+06	-48089.1	955.818	-29763.5	0.000000	0.000000	6.687028	-0.051538	NaN	0.000000	0.001643	0.001775	28.0763	0.045786	0.001988	23.0272	-34.5696	-166.002	-0.018020	0.685199	-1.022404	-1.023798	-0.051538	23.0272	-1.020725	-4.312272E+13	1.195151E-15	NaN
189	1.000000	0.698559	7.36689e+06	-48089.1	955.819	-29763.5	0.000000	0.000000	6.698998	0.040144	NaN	0.000000	0.001606	0.001754	28.0765	0.069958	0.002048	34.1508	57.1737	-167.147	0.053674	0.697278	-1.010437	-1.011719	0.040144	34.1508	-1.011319	-3.222058E+13	-1.245899E-15	NaN
189	1.000000	0.710572	7.36689e+06	-48089.1	955.818	-29763.5	0.000000	0.000000	6.711009	0.005480	NaN	0.000000	0.001686	0.001756	28.0765	0.093128	0.001977	47.094	-151.146	-167.971	-0.017125	0.709345	-0.998425	-0.999652	0.005480	47.094	-0.998512	-2.166398E+13	-2.529510E-16	NaN
189	1.000000	0.722595	7.36689e+06	-48089.1	955.818	-29763.5	0.000000	0.000000	6.723032	-0.010222	NaN	0.000000	0.001709	0.001778	28.0754	0.021505	0.001942	11.0727	44.0941	-165.612	0.042619	0.721270	-0.986401	-0.987727	-0.010222	11.0727	-0.985709	-1.456527E+13	7.018076E-16	NaN
189	1.000000	0.734598	7.36689e+06	-48089.1	955.818	-29763.5	0.000000	0.000000	6.735032	-0.065383	NaN	0.000000	0.001745	0.001734	28.0754	0.117732	0.002006	58.6943	-135.166	-166.029	-0.068510	0.733310	-0.974399	-0.975687	-0.065383	58.6943	-0.973564	-9.992828E+12	6.542967E-15	NaN
189	1.000000	0.746616	7.36689e+06	-48089.1	955.819	-29763.5	0.000000	0.000000	6.747053	-0.027894	NaN	0.000000	0.001737	0.001751	28.0753	0.128925	0.001993	64.6787	-29.1448	-166.57	-0.079262	0.745318	-0.962380	-0.963678	-0.027894	64.6787	-0.962057	-6.991962E+12	3.989506E-15	NaN
189	1.000000	0.758605	7.36689e+06	-48089.1	955.818	-29763.5	0.000000	0.000000	6.759043	0.023390	NaN	0.000000	0.001734	0.001770	28.0751	0.068944	0.001978	34.854	146.029	-164.764	-0.010212	0.757285	-0.950392	-0.951712	0.023390	34.854	-0.950895	-4.944297E+12	-4.730772E-15	NaN
189	1.000000	0.770621	7.36689e+06	-48089.1	955.817	-29763.5	0.000000	0.000000	6.771058	-0.014493	NaN	0.000000	0.001752	0.001727	28.0754	0.110959	0.001970	56.3197	-131.177	-164.043	0.040746	0.769325	-0.938376	-0.939672	-0.014493	56.3197	-0.938183	-3.331331E+12	4.350521E-15	NaN
189	1.000000	0.782598	7.36689e+06	-48089.1	955.818	-29763.5	0.000000	0.000000	6.783034	-0.028506	NaN	0.000000	0.001736	0.001709	28.0752	0.030781	0.001966	15.6584	-94.9233	-162.33	-0.092732	0.781306	-0.926399	-0.927691	-0.028506	15.6584	-0.925033	-2.213911E+12	1.287564E-14	NaN
189	1.000000	0.794626	7.36689e+06	-48089.1	955.817	-29763.5	0.000000	0.000000	6.795065	0.052060	NaN	0.000000	0.001751	0.001767	28.075	0.062053	0.002048	30.3037	165.116	-164.903	0.013470	0.793328	-0.914371	-0.915669	0.052060	30.3037	-0.915659	-1.654229E+12	-3.147094E-14	NaN
189	1.000000	0.806652	7.36689e+06	-48089.1	955.819	-29763.5	0.000000	0.000000	6.807087	-0.040361	NaN	0.000000	0.001738	0.001741	28.0751	0.079873	0.001987	40.1994	-72.9602	-162.801	-0.003309	0.805350	-0.902345	-0.903646	-0.040361	40.1994	-0.901592	-1.068017E+12	3.779037E-14	NaN
189	1.000000	0.818612	7.36689e+06	-48089.1	955.818	-29763.5	0.000000	0.000000	6.819052	0.056659	NaN	0.000000	0.001723	0.001759	28.0754	0.079393	0.002012	39.4689	94.5795	-163.536	0.037452	0.817326	-0.890385	-0.891671	0.056659	39.4689	-0.891461	-7.792339E+11	-7.271138E-14	NaN
189	1.000000	0.830643	7.36689e+06	-48089.1	955.818	-29763.5	0.000000	0.000000	6.831080	-0.004170	NaN	0.000000	0.001745	0.001756	28.0754	0.031430	0.002029	15.4934	146.183	-165.306	-0.048063	0.829340	-0.878354	-0.879657	-0.004170	15.4934	-0.878152	-5.148956E+11	8.098640E-15	NaN
189	1.000000	0.842638	7.36689e+06	-48089.1	955.819	-29763.5	0.000000	0.000000	6.843076	-0.001072	NaN	0.000000	0.001736	0.001775	28.0751	0.106923	0.001933	55.3234	-56.8344	-162.499	0.046979	0.841331	-0.866359	-0.867666	-0.001072	55.3234	-0.866344	-3.564322E+11	3.006922E-15	NaN
189	1.000000	0.854626	7.36689e+06	-48089.1	955.818	-29763.5	0.000000	0.000000	6.855061	-0.039933	NaN	0.000000	0.001646	0.001738	28.0752	0.055989	0.001942	28.8271	41.106	-163.896	-0.047610	0.853317	-0.854371	-0.855680	-0.039933	28.8271	-0.853332	-2.376050E+11	1.680633E-13	NaN
189	1.000000	0.866654	7.36689e+06	-48089.1	955.819	-29763.5	0.000000	0.000000	6.867089	-0.043788	NaN	0.000000	0.001658	0.001778	28.0766	0.025551	0.001996	12.8	109.8	-165.93	-0.006240	0.865353	-0.842343	-0.843643	-0.043788	12.8	-0.839777	-1.556961E+11	2.812420E-13	NaN
189	1.000000	0.878654	7.36689e+06	-48089.1	955.817	-29763.5	0.000000	0.000000	6.879090	-0.049628	NaN	0.000000	0.001641	0.001739	28.0763	0.058779	0.001965	29.9123	-123.923	-164.232	-0.044136	0.877308	-0.830342	-0.831689	-0.049628	29.9123	-0.829098	-1.115733E+11	4.448060E-13	NaN
189	1.000000	0.890701	7.36689e+06	-48089.1	955.817	-29763.5	0.000000	0.000000	6.891135	-0.080526	NaN	0.000000	0.001659	0.001757	28.0766	0.032482	0.001911	16.9966	67.0887	-165.093	-0.000496	0.889326	-0.818296	-0.819671	-0.080526	16.9966	-0.814743	-7.127020E+10	1.129873E-12	NaN
189	1.000000	0.902660	7.36689e+06	-48089.1	955.818	-29763.5	0.000000	0.000000	6.903096	-0.048882	NaN	0.000000	0.001676	0.001706	28.0766	0.012646	0.001920	6.587302	9.126483	-164.514	-0.051993	0.901397	-0.806336	-0.807600	-0.048882	6.587302	-0.800771	-4.606028E+10	1.061257E-12	NaN
189	1.000000	0.914669	7.36689e+06	-48089.1	955.818	-29763.5	0.000000	0.000000	6.915106	-0.004367	NaN	0.000000	0.001665	0.001741	28.0767	0.071116	0.002006	35.4576	-94.8599	-162.973	-0.009761	0.913346	-0.794328	-0.795651	-0.004367	35.4576	-0.794235	-3.754920E+10	1.162879E-13	NaN
189	1.000000	0.926691	7.36689e+06	-48089.1	955.817	-29763.5	0.000000	0.000000	6.927127	-0.027354	NaN	0.000000	0.001643	0.001739	28.0763	0.045227	0.002047	22.0897	132.004	-162.377	-0.083155	0.925407	-0.782306	-0.783590	-0.027354	22.0897	-0.781377	-2.511562E+10	1.089109E-12	NaN
189	1.000000	0.938697	7.36689e+06	-48089.1	955.818	-29763.5	0.000000	0.000000	6.939131	-0.069940	NaN	0.000000	0.001668	0.001768	28.0763	0.042969	0.002042	21.0376	-88.2861	-163.804	-0.099844	0.937380	-0.770300	-0.771616	-0.069940	21.0376	-0.767806	-1.642396E+10	4.258413E-12	NaN
189	1.000000	0.950698	7.36689e+06	-48089.1	955.819	-29763.5	0.000000	0.000000	6.951134	-0.022988	NaN	0.000000	0.001666	0.001751	28.0765	0.051421	0.002001	25.6992	160.551	-164.448	0.032456	0.949375	-0.758299	-0.759622	-0.022988	25.6992	-0.757628	-1.194067E+10	1.925192E-12	NaN
189	1.000000	0.962690	7.36689e+06	-48089.1	955.818	-29763.5	0.000000	0.000000	6.963128	-0.005162	NaN	0.000000	0.001660	0.001803	28.0767	0.051552	0.001906	27.0481	100.008	-163.163	-0.045602	0.961433	-0.746306	-0.747564	-0.005162	27.0481	-0.746163	-8.336555E+9	6.192100E-13	NaN
189	1.000000	0.974675	7.36689e+06	-48089.1	955.819	-29763.5	0.000000	0.000000	6.975111	-0.028167	NaN	0.000000	0.001655	0.001733	28.0764	0.044593	0.001903	23.438	18.1513	-166.909	-0.008933	0.973334	-0.734321	-0.735663	-0.028167	23.438	-0.733420	-5.590063E+9	5.038693E-12	NaN
189	1.000000	0.986737	7.36689e+06	-48089.1	955.82	-29763.5	0.000000	0.000000	6.987171	-0.079759	NaN	0.000000	0.001697	0.001725	28.0766	0.076518	0.002095	36.5225	-24.0297	-163.263	-0.034886	0.985409	-0.722260	-0.723588	-0.079759	36.5225	-0.720622	-3.740697E+9	2.132184E-11	NaN
189	1.000000	0.998721	7.36689e+06	-48089.1	955.819	-29763.5	0.000000	0.000000	6.999157	-0.031673	NaN	0.000000	0.001640	0.001717	28.0753	0.076089	0.001985	38.3328	101.132	-166.347	-0.015742	0.997379	-0.710276	-0.711618	-0.031673	38.3328	-0.709656	-2.650689E+9	1.194897E-11	NaN
189	1.000000	1.010707	7.36689e+06	-48089.1	955.821	-29763.5	0.000000	0.000000	7.011143	-0.010048	NaN	0.000000	0.001688	0.001732	28.0754	0.115409	0.002138	53.9771	90.8007	-165.728	-0.001544	1.009389	-0.698290	-0.699608	-0.010048	53.9771	-0.698151	-1.846177E+9	5.442433E-12	NaN
189	1.000000	1.022689	7.36689e+06	-48089.1	955.82	-29763.5	0.000000	0.000000	7.023126	-0.022437	NaN	0.000000	0.001652	0.001753	28.0756	0.033890	0.001995	16.9906	75.1826	-166.54	-0.014601	1.021490	-0.686307	-0.687507	-0.022437	16.9906	-0.685317	-1.232847E+9	1.819925E-11	NaN
189	1.000000	1.034718	7.36689e+06	-48089.1	955.819	-29763.5	0.000000	0.000000	7.035153	-0.053745	NaN	0.000000	0.001664	0.001752	28.0753	0.101155	0.002004	50.4734	35.022	-168.128	-0.016122	1.033354	-0.674279	-0.675642	-0.053745	50.4734	-0.673480	-8.492130E+8	6.328790E-11	NaN
189	1.000000	1.046732	7.36689e+06	-48089.1	955.819	-29763.5	0.000000	0.000000	7.047167	-0.071505	NaN	0.000000	0.001684	0.001744	28.0755	0.010943	0.002112	5.181294	-156.871	-165.822	-0.046306	1.045427	-0.662265	-0.663570	-0.071505	5.181294	-0.651914	-4.302043E+8	1.662116E-10	NaN
189	1.000000	1.058756	7.36689e+06	-48089.1	955.818	-29763.5	0.000000	0.000000	7.059192	-0.023220	NaN	0.000000	0.001638	0.001771	28.0754	0.026167	0.002102	12.4472	-75.8142	-165.857	0.009170	1.057428	-0.650241	-0.651569	-0.023220	12.4472	-0.648842	-3.904461E+8	5.946999E-11	NaN
189	1.000000	1.070747	7.36689e+06	-48089.1	955.817	-29763.5	0.000000	0.000000	7.071186	0.021001	NaN	0.000000	0.001667	0.001741	28.0753	0.022640	0.001998	11.3298	48.5873	-164.687	0.028073	1.069390	-0.638249	-0.639607	0.021001	11.3298	-0.639640	-2.919737E+8	-7.192818E-11	NaN
189	1.000000	1.082749	7.36689e+06	-48089.1	955.819	-29763.5	0.000000	0.000000	7.083187	0.025313	NaN	0.000000	0.001634	0.001740	28.0754	0.138076	0.001964	70.3101	129.691	-164.535	0.022754	1.081405	-0.626248	-0.627591	0.025313	70.3101	-0.626518	-1.928414E+8	-1.312622E-10	NaN
189	1.000000	1.094772	7.36689e+06	-48089.1	955.819	-29763.5	0.000000	0.000000	7.095208	-0.048785	NaN	0.000000	0.001647	0.001750	28.0755	0.017785	0.002002	8.883121	-107.29	-163.997	-0.008996	1.093452	-0.614224	-0.615545	-0.048785	8.883121	-0.610105	-1.147005E+8	4.253288E-10	NaN
189	1.000000	1.106743	7.36689e+06	-48089.1	955.82	-29763.5	0.000000	0.000000	7.107180	-0.000443	NaN	0.000000	0.001619	0.001760	28.0756	0.113458	0.002041	55.5973	142.174	-164.337	0.000443	1.105468	-0.602254	-0.603528	-0.000443	55.5973	-0.602248	-8.941539E+7	4.957278E-12	NaN
189	1.000000	1.118753	7.36689e+06	-48089.1	955.819	-29763.5	0.000000	0.000000	7.119193	0.064808	NaN	0.000000	0.001657	0.001731	28.0756	0.058857	0.001916	30.7127	-45.5724	-164.446	0.069469	1.117405	-0.590244	-0.591592	0.064808	30.7127	-0.591826	-6.424516E+7	-1.008768E-9	NaN
189	1.000000	1.130788	7.36689e+06	-48089.1	955.819	-29763.5	0.000000	0.000000	7.131224	-0.023470	NaN	0.000000	0.001616	0.001698	28.0766	0.088055	0.002114	41.657	42.9787	-164.701	-0.009962	1.129441	-0.578209	-0.579556	-0.023470	41.657	-0.577787	-4.113149E+7	5.705990E-10	NaN
189	1.000000	1.142757	7.36689e+06	-48089.1	955.819	-29763.5	0.000000	0.000000	7.143193	-0.033304	NaN	0.000000	0.001693	0.001763	28.0767	0.055098	0.001980	27.8302	18.3893	-167.763	-0.099388	1.141493	-0.566240	-0.567504	-0.033304	27.8302	-0.565342	-2.768560E+7	1.202939E-9	NaN
189	1.000000	1.154783	7.36689e+06	-48089.1	955.819	-29763.5	0.000000	0.000000	7.155220	-0.002901	NaN	0.000000	0.001645	0.001733	28.0769	0.091184	0.001972	46.2313	-53.3583	-163.807	-0.005792	1.153516	-0.554214	-0.555481	-0.002901	46.2313	-0.554166	-1.939322E+7	1.495875E-10	NaN
189	1.000000	1.166760	7.36689e+06	-48089.1	955.82	-29763.5	0.000000	0.000000	7.167197	-0.008902	NaN	0.000000	0.001637	0.001679	28.0767	0.108125	0.001901	56.8675	111.642	-167.553	-0.029705	1.165451	-0.542237	-0.543546	-0.008902	56.8675	-0.542120	-1.320544E+7	6.741275E-10	NaN
189	1.000000	1.178778	7.36689e+06	-48089.1	955.818	-29763.5	0.000000	0.000000	7.179213	-0.040649	NaN	0.000000	0.001642	0.001707	28.0768	0.080717	0.001975	40.8727	55.6101	-166.663	-0.093237	1.177466	-0.530219	-0.531531	-0.040649	40.8727	-0.529473	-8.81575e+06	4.610941E-9	NaN
189	1.000000	1.190758	7.36689e+06	-48089.1	955.819	-29763.5	0.000000	0.000000	7.191195	-0.010162	NaN	0.000000	0.001629	0.001713	28.0768	0.058769	0.002039	28.8242	84.7616	-167.976	0.078193	1.189465	-0.518239	-0.519532	-0.010162	28.8242	-0.517974	-6.10123e+06	1.665488E-9	NaN
189	1.000000	1.202773	7.36689e+06	-48089.1	955.82	-29763.5	0.000000	0.000000	7.203213	0.075611	NaN	0.000000	0.001675	0.001757	28.0769	0.023429	0.002163	10.8315	-47.4213	-162.749	0.036209	1.201442	-0.506224	-0.507555	0.075611	10.8315	-0.511459	-4.95153e+06	-1.527019E-8	NaN
189	1.000000	1.214781	7.36689e+06	-48089.1	955.82	-29763.5	0.000000	0.000000	7.215216	-0.048865	NaN	0.000000	0.001641	0.001728	28.0766	0.013778	0.002088	6.598510	-171.632	-165.43	0.002244	1.213478	-0.494216	-0.495518	-0.048865	6.598510	-0.488662	-2.38061e+06	2.052642E-8	NaN
189	1.000000	1.226808	7.36689e+06	-48089.1	955.819	-29763.5	0.000000	0.000000	7.227247	0.024290	NaN	0.000000	0.001626	0.001746	28.0765	0.045591	0.001946	23.4314	112.292	-163.5	0.004095	1.225440	-0.482188	-0.483557	0.024290	23.4314	-0.482966	-1.9817e+06	-1.225739E-8	NaN
189	1.000000	1.238816	7.36689e+06	-48089.1	955.82	-29763.5	0.000000	0.000000	7.239252	-0.036757	NaN	0.000000	0.001658	0.001704	28.0766	0.037711	0.002072	18.2037	26.955	-163.533	-0.002330	1.237487	-0.470181	-0.471510	-0.036757	18.2037	-0.468666	-1.24939e+06	2.942027E-8	NaN
189	1.000000	1.250818	7.36689e+06	-48089.1	955.82	-29763.5	0.000000	0.000000	7.251254	-0.038820	NaN	0.000000	0.001653	0.001719	28.0764	0.074445	0.001986	37.4767	-47.9505	-169.161	-0.049650	1.249520	-0.458179	-0.459477	-0.038820	37.4767	-0.457402	-867960	4.472503E-8	NaN
189	1.000000	1.262834	7.36689e+06	-48089.1	955.82	-29763.5	0.000000	0.000000	7.263271	-0.014577	NaN	0.000000	0.001611	0.001753	28.0767	0.066344	0.002099	31.6097	-52.317	-164.286	-0.060745	1.261582	-0.446162	-0.447415	-0.014577	31.6097	-0.445817	-596216	2.444999E-8	NaN
189	1.000000	1.274825	7.36689e+06	-48089.1	955.821	-29763.5	0.000000	0.000000	7.275261	-0.039004	NaN	0.000000	0.001584	0.001717	28.0756	0.094142	0.002007	46.9094	176.58	-165.149	-0.048447	1.273512	-0.434172	-0.435485	-0.039004	46.9094	-0.433548	-400162	9.747007E-8	NaN
189	1.000000	1.286851	7.3669e+06	-48089.1	955.821	-29763.5	0.000000	0.000000	7.287286	-0.053382	NaN	0.000000	0.001612	0.001718	28.0754	0.078695	0.001955	40.2548	-121.276	-165.627	-0.090639	1.285568	-0.422146	-0.423429	-0.053382	40.2548	-0.421151	-267141	1.998255E-7	NaN
189	1.000000	1.298845	7.3669e+06	-48089.1	955.821	-29763.5	0.000000	0.000000	7.299284	0.030646	NaN	0.000000	0.001625	0.001725	28.0754	0.167056	0.002046	81.6617	-19.5624	-163.304	0.081985	1.297515	-0.410152	-0.411482	0.030646	81.6617	-0.410433	-188174	-1.628584E-7	NaN
189	1.000000	1.310849	7.3669e+06	-48089.1	955.82	-29763.5	0.000000	0.000000	7.311285	-0.042272	NaN	0.000000	0.001640	0.001690	28.0755	0.037713	0.002027	18.6091	-121.581	-164.071	-0.024765	1.309493	-0.398148	-0.399504	-0.042272	18.6091	-0.396444	-118919	3.554670E-7	NaN
189	1.000000	1.322846	7.3669e+06	-48089.1	955.82	-29763.5	0.000000	0.000000	7.323280	-0.095621	NaN	0.000000	0.001642	0.001738	28.0753	0.050299	0.001916	26.2507	-70.8718	-166.611	0.044359	1.321567	-0.386150	-0.387430	-0.095621	26.2507	-0.383418	-77432	1.234906E-6	NaN
189	1.000000	1.334834	7.3669e+06	-48089.1	955.822	-29763.5	0.000000	0.000000	7.335272	0.027489	NaN	0.000000	0.001617	0.001719	28.0753	0.067938	0.002021	33.6126	-123.599	-163.196	-0.029792	1.333559	-0.374163	-0.375438	0.027489	33.6126	-0.374776	-58191.1	-4.723904E-7	NaN
189	1.000000	1.346847	7.3669e+06	-48089.1	955.821	-29763.5	0.000000	0.000000	7.347285	0.018483	NaN	0.000000	0.001615	0.001735	28.0754	0.049184	0.001932	25.4629	78.6857	-167.121	0.010017	1.345513	-0.362150	-0.363484	0.018483	25.4629	-0.362695	-38974.3	-4.742463E-7	NaN
189	1.000000	1.358838	7.3669e+06	-48089.1	955.82	-29763.5	0.000000	0.000000	7.359274	-0.042463	NaN	0.000000	0.001628	0.001714	28.0751	0.066017	0.002032	32.4952	140.528	-164.068	-0.017494	1.357541	-0.350159	-0.351456	-0.042463	32.4952	-0.349179	-24835.9	1.709748E-6	NaN
189	1.000000	1.370887	7.3669e+06	-48089.1	955.821	-29763.5	0.000000	0.000000	7.371325	0.006265	NaN	0.000000	0.001590	0.001706	28.0754	0.120435	0.002039	59.0574	147.586	-162.937	0.062816	1.369565	-0.338110	-0.339432	0.006265	59.0574	-0.338189	-17184.9	-3.645704E-7	NaN
189	1.000000	1.382858	7.3669e+06	-48089.1	955.821	-29763.5	0.000000	0.000000	7.383293	-0.064430	NaN	0.000000	0.001594	0.001740	28.0752	0.052076	0.001990	26.1672	43.1971	-165.398	-0.071961	1.381526	-0.326138	-0.327471	-0.064430	26.1672	-0.324292	-10758.1	5.989006E-6	NaN
189	1.000000	1.394868	7.3669e+06	-48089.1	955.82	-29763.5	0.000000	0.000000	7.395305	-0.008578	NaN	0.000000	0.001624	0.001752	28.0754	0.096359	0.002153	44.7511	60.1748	-164.114	0.042629	1.393606	-0.314129	-0.315391	-0.008578	44.7511	-0.313985	-7585.25	1.130930E-6	NaN
189	1.000000	1.406864	7.3669e+06	-48089.1	955.82	-29763.5	0.000000	0.000000	7.407299	-0.051953	NaN	0.000000	0.001644	0.001746	28.0764	0.152047	0.001907	79.7114	-159.304	-168.109	-0.031852	1.405571	-0.302133	-0.303426	-0.051953	79.7114	-0.301644	-4978.49	1.043544E-5	NaN
189	1.000000	1.418871	7.3669e+06	-48089.1	955.822	-29763.5	0.000000	0.000000	7.419310	0.042850	NaN	0.000000	0.001614	0.001710	28.0764	0.129135	0.002033	63.5096	-7.459542	-164.262	0.024791	1.417587	-0.290126	-0.291410	0.042850	63.5096	-0.290632	-3410.06	-1.256561E-5	NaN
189	1.000000	1.430902	7.3669e+06	-48089.1	955.823	-29763.5	0.000000	0.000000	7.431336	-0.072149	NaN	0.000000	0.001637	0.001706	28.0764	0.058458	0.002057	28.4152	-58.3945	-166.507	-0.010790	1.429561	-0.278095	-0.279436	-0.072149	28.4152	-0.276190	-2067.37	3.489892E-5	NaN
189	1.000000	1.442908	7.3669e+06	-48089.1	955.82	-29763.5	0.000000	0.000000	7.443344	-0.034581	NaN	0.000000	0.001618	0.001730	28.0763	0.021838	0.002036	10.7237	25.5584	-166.99	0.017714	1.441571	-0.266088	-0.267426	-0.034581	10.7237	-0.263670	-1333.76	2.592711E-5	NaN
189	1.000000	1.454919	7.3669e+06	-48089.1	955.821	-29763.5	0.000000	0.000000	7.455356	-0.005333	NaN	0.000000	0.001630	0.001703	28.0764	0.054810	0.001977	27.7247	23.8053	-165.299	-0.027092	1.453627	-0.254078	-0.255370	-0.005333	27.7247	-0.253933	-945.556	5.640303E-6	NaN
189	1.000000	1.466933	7.3669e+06	-48089.1	955.822	-29763.5	0.000000	0.000000	7.467369	-0.028425	NaN	0.000000	0.001576	0.001702	28.0766	0.046924	0.002150	21.8253	-61.1048	-167.094	-0.043609	1.465637	-0.242064	-0.243360	-0.028425	21.8253	-0.241087	-597.757	4.755308E-5	NaN
189	1.000000	1.478889	7.3669e+06	-48089.1	955.821	-29763.5	0.000000	0.000000	7.479327	0.028928	NaN	0.000000	0.001555	0.001730	28.0767	0.116821	0.002037	57.3603	42.2896	-166.54	-0.006248	1.477595	-0.230108	-0.231402	0.028928	57.3603	-0.230486	-407.565	-7.097826E-5	NaN
189	1.000000	1.490912	7.3669e+06	-48089.1	955.821	-29763.5	0.000000	0.000000	7.491347	-0.054682	NaN	0.000000	0.001597	0.001695	28.0767	0.091879	0.001976	46.509	-36.2993	-163.266	-0.073493	1.489574	-0.218084	-0.219422	-0.054682	46.509	-0.217203	-250.549	0.000218	NaN
189	1.000000	1.502903	7.3669e+06	-48089.1	955.822	-29763.5	0.000000	0.000000	7.503340	-0.016539	NaN	0.000000	0.001611	0.001741	28.0763	0.030040	0.001960	15.3302	70.0823	-163.31	-0.004685	1.501607	-0.206094	-0.207390	-0.016539	15.3302	-0.205285	-160.769	0.000103	NaN
189	1.000000	1.514928	7.3669e+06	-48089.1	955.822	-29763.5	0.000000	0.000000	7.515365	-0.012125	NaN	0.000000	0.001558	0.001686	28.0763	0.054507	0.001927	28.2823	-31.4834	-163.801	-0.085840	1.513541	-0.194069	-0.195456	-0.012125	28.2823	-0.193747	-103.855	0.000117	NaN
189	1.000000	1.526912	7.3669e+06	-48089.1	955.822	-29763.5	0.000000	0.000000	7.527345	-0.101895	NaN	0.000000	0.001565	0.001657	28.0768	0.051860	0.001839	28.1935	-116.389	-166.018	-0.111978	1.525640	-0.182085	-0.183357	-0.101895	28.1935	-0.179375	-59.5415	0.001711	NaN
189	1.000000	1.538917	7.3669e+06	-48089.1	955.821	-29763.5	0.000000	0.000000	7.539357	0.047386	NaN	0.000000	0.001533	0.001725	28.076	0.030956	0.002030	15.2526	-18.843	-166.083	-0.022297	1.537604	-0.170079	-0.171392	0.047386	15.2526	-0.172409	-45.2217	-0.001048	NaN
189	1.000000	1.550955	7.3669e+06	-48089.1	955.821	-29763.5	0.000000	0.000000	7.551392	0.009605	NaN	0.000000	0.001532	0.001723	28.0753	0.101614	0.002066	49.1726	136.834	-164.334	-0.044084	1.549679	-0.158042	-0.159318	0.009605	49.1726	-0.158189	-25.4522	-0.000377	NaN
189	1.000000	1.562962	7.3669e+06	-48089.1	955.821	-29763.5	0.000000	0.000000	7.563398	-0.038325	NaN	0.000000	0.001480	0.001761	28.0752	0.039296	0.001968	19.972	60.1172	-162.597	0.022722	1.561607	-0.146035	-0.147389	-0.038325	19.972	-0.144596	-14.4106	0.002659	NaN
189	1.000000	1.574963	7.3669e+06	-48089.1	955.821	-29763.5	0.000000	0.000000	7.575400	-0.015904	NaN	0.000000	0.001532	0.001733	28.0756	0.095025	0.001905	49.8931	130.641	-165.535	0.047560	1.573655	-0.134034	-0.135341	-0.015904	49.8931	-0.133795	-9.020602	0.001763	NaN
189	1.000000	1.586957	7.3669e+06	-48089.1	955.821	-29763.5	0.000000	0.000000	7.587394	-0.025830	NaN	0.000000	0.001519	0.001727	28.0754	0.081467	0.001936	42.0755	-109.088	-167.922	-0.005955	1.585681	-0.122039	-0.123316	-0.025830	42.0755	-0.121579	-5.198119	0.004969	NaN
189	1.000000	1.598991	7.3669e+06	-48089.1	955.822	-29763.5	0.000000	0.000000	7.599425	-0.080471	NaN	0.000000	0.001525	0.001682	28.0753	0.047284	0.002009	23.5415	52.2748	-164.645	-0.091744	1.597656	-0.110006	-0.111341	-0.080471	23.5415	-0.107442	-2.652194	0.030341	NaN
189	1.000000	1.610996	7.3669e+06	-48089.1	955.821	-29763.5	0.000000	0.000000	7.611431	-0.056861	NaN	0.000000	0.001583	0.001717	28.0754	0.048784	0.001943	25.1129	-25.6987	-163.479	-0.016663	1.609665	-0.098001	-0.099332	-0.056861	25.1129	-0.096303	-1.510051	0.037655	NaN
189	1.000000	1.622972	7.3669e+06	-48089.1	955.822	-29763.5	0.000000	0.000000	7.623409	-0.005823	NaN	0.000000	0.001606	0.001765	28.0757	0.039677	0.001956	20.289	-53.378	-163.624	-0.044306	1.621604	-0.086025	-0.087393	-0.005823	20.289	-0.085810	-0.859473	0.006775	NaN
189	1.000000	1.634988	7.3669e+06	-48089.1	955.821	-29763.5	0.000000	0.000000	7.635419	-0.150904	NaN	0.000000	0.001621	0.001758	28.0754	0.077968	0.001955	39.877	82.1734	-159.388	-0.098402	1.633662	-0.074009	-0.075334	-0.150904	39.877	-0.071171	-0.366547	0.411691	NaN
189	1.000000	1.646996	7.3669e+06	-48089.1	955.822	-29763.5	0.000000	0.000000	7.647436	0.062306	NaN	0.000000	0.001640	0.001757	28.0754	0.108901	0.002052	53.069	-136.586	-166.06	0.043135	1.645623	-0.062001	-0.063373	0.062306	53.069	-0.062881	-0.217456	-0.286523	NaN
189	1.000000	1.659007	7.3669e+06	-48089.1	955.822	-29763.5	0.000000	0.000000	7.659443	-0.017020	NaN	0.000000	0.001623	0.001755	28.0757	0.109102	0.002009	54.3108	-112.654	-162.754	0.005899	1.657709	-0.049990	-0.051288	-0.017020	54.3108	-0.049755	-0.089707	0.189727	NaN
189	1.000000	1.670987	7.3669e+06	-48089.1	955.823	-29763.5	0.000000	0.000000	7.671422	-0.059625	NaN	0.000000	0.001699	0.001740	28.0756	0.123752	0.002030	60.9753	-153.772	-167.41	-0.076563	1.669710	-0.038009	-0.039286	-0.059625	60.9753	-0.037276	-0.037422	1.593315	NaN
189	1.000000	1.683024	7.3669e+06	-48089.1	955.822	-29763.5	0.000000	0.000000	7.683461	-0.012136	NaN	0.000000	0.001627	0.001725	28.0772	0.098570	0.001977	49.8666	111.83	-165.98	-0.085146	1.681678	-0.025972	-0.027319	-0.012136	49.8666	-0.025790	-0.017695	0.685825	NaN
189	1.000000	1.695031	7.3669e+06	-48089.1	955.823	-29763.5	0.000000	0.000000	7.695464	-0.119747	NaN	0.000000	0.001665	0.001745	28.0766	0.036853	0.001926	19.1296	-169.019	-164.532	-0.099481	1.693687	-0.013966	-0.015309	-0.119747	19.1296	-0.009271	-0.005969	20.061	NaN
189	1.000000	1.707035	7.3669e+06	-48089.1	955.823	-29763.5	0.000000	0.000000	7.707473	0.007263	NaN	0.000000	0.001644	0.001801	28.0767	0.074606	0.001979	37.694	21.7862	-166.293	0.019646	1.705779	-0.001962	-0.003218	0.007263	37.694	-0.002106	-0.001513	-4.800918	NaN
189	2.000000	1.717670	7.3669e+06	-48089.1	955.822	-29763.5	0.000000	0.000000	7.718421	7.630665	NaN	0.000000	0.001641	0.001803	28.0766	8.619492	0.001818	4742.32	14.0855	-175.375	8.264507	1.717263	0.008674	0.008266	7.630665	4742.32	0.007467	0.006500	1174.01	53742.6
189	2.000000	1.720669	7.3669e+06	-48089.1	955.823	-29763.5	0.000000	0.000000	7.721602	12.0697	NaN	0.000000	0.001648	0.001767	28.0768	11.5371	0.001721	6702.14	8.634914	-173.573	12.2186	1.720305	0.011672	0.011308	12.0697	6702.14	0.010321	0.009541	1265.05	62689.2
189	2.000000	1.723616	7.3669e+06	-48089.1	955.823	-29763.5	0.000000	0.000000	7.724710	15.9805	NaN	0.000000	0.001649	0.001717	28.0767	14.8551	0.001755	8463.27	6.277334	-174.596	15.8738	1.723307	0.014619	0.014310	15.9805	8463.27	0.013203	0.012963	1232.78	67914
189	2.000000	1.726607	7.3669e+06	-48089.1	955.822	-29763.5	0.000000	0.000000	7.727951	22.0566	NaN	0.000000	0.001658	0.001715	28.0767	18.1225	0.001816	9981.49	9.006238	-176.971	22.9813	1.726296	0.017610	0.017299	22.0566	9981.49	0.015953	0.016577	1330.58	70830.3
189	2.000000	1.729557	7.3669e+06	-48089.1	955.823	-29763.5	0.000000	0.000000	7.731215	29.691	NaN	0.000000	0.001648	0.001732	28.0771	21.3044	0.001809	11774.9	5.515777	-175.562	28.6636	1.729294	0.020560	0.020297	29.691	11774.9	0.018669	0.020494	1448.76	75147.8
189	2.000000	1.732520	7.3669e+06	-48089.1	955.822	-29763.5	0.000000	0.000000	7.734476	36.9585	NaN	0.000000	0.001650	0.001752	28.0767	24.7148	0.001798	13743	5.185872	-176.735	34.7937	1.732177	0.023523	0.023181	36.9585	13743	0.021506	0.024964	1480.47	79469.1
189	2.000000	1.735562	7.3669e+06	-48089.1	955.823	-29763.5	0.000000	0.000000	7.737704	41.4608	NaN	0.000000	0.001635	0.001729	28.0766	28.0092	0.001722	16261	5.450086	-178.863	41.9287	1.735171	0.026565	0.026174	41.4608	16261	0.024653	0.030387	1364.41	85226.6
189	2.000000	1.738559	7.3669e+06	-48089.1	955.822	-29763.5	0.000000	0.000000	7.740951	47.5486	NaN	0.000000	0.001691	0.001742	28.0779	30.9196	0.001799	17188	4.641222	-178.975	48.6962	1.738339	0.029562	0.029342	47.5486	17188	0.027487	0.035696	1332.04	83116.9
189	2.000000	1.741523	7.3669e+06	-48089.1	955.822	-29763.5	0.000000	0.000000	7.744500	61.7709	NaN	0.000000	0.001690	0.001736	28.0751	33.6601	0.001837	18318.6	2.721117	-176.848	59.1697	1.741146	0.032526	0.032150	61.7709	18318.6	0.029997	0.040738	1516.29	82920.9
189	2.000000	1.744517	7.3669e+06	-48089.1	955.823	-29763.5	0.000000	0.000000	7.747679	66.2857	NaN	0.000000	0.001662	0.001743	28.0755	36.9586	0.001815	20358.3	9.327008	175.436	64.2399	1.744198	0.035520	0.035201	66.2857	20358.3	0.033078	0.047365	1399.46	85464.5
189	2.000000	1.747521	7.3669e+06	-48089.1	955.823	-29763.5	0.000000	0.000000	7.751112	76.6892	NaN	0.000000	0.001628	0.001736	28.0752	38.951	0.001860	20938.3	8.638351	176.422	76.4088	1.747199	0.038524	0.038203	76.6892	20938.3	0.035777	0.053572	1431.52	82650.6
189	2.000000	1.750494	7.3669e+06	-48089.1	955.822	-29763.5	0.000000	0.000000	7.754442	85.3721	NaN	0.000000	0.001652	0.001712	28.0753	41.1301	0.001858	22140.1	2.805763	-178.919	83.8799	1.750215	0.041498	0.041218	85.3721	22140.1	0.038606	0.060474	1411.71	82255.9
189	2.000000	1.753521	7.3669e+06	-48089.1	955.823	-29763.5	0.000000	0.000000	7.757970	97.5648	NaN	0.000000	0.001656	0.001738	28.0766	43.3279	0.001809	23954.2	2.623327	-178.544	96.8222	1.753133	0.044524	0.044136	97.5648	23954.2	0.041470	0.067882	1437.28	83999.9
189	2.000000	1.756494	7.3669e+06	-48089.1	955.823	-29763.5	0.000000	0.000000	7.761245	104.924	NaN	0.000000	0.001673	0.001758	28.0754	46.1435	0.001835	25148.5	2.196022	-179.421	103.224	1.756232	0.047497	0.047236	104.924	25148.5	0.044368	0.075804	1384.14	83452.3
189	2.000000	1.759503	7.3669e+06	-48089.1	955.822	-29763.5	0.000000	0.000000	7.764795	118.071	NaN	0.000000	0.001685	0.001744	28.0754	48.5748	0.001719	28262.1	2.114763	179.288	117.259	1.759211	0.050506	0.050214	118.071	28262.1	0.047373	0.084467	1397.84	88845.4
189	2.000000	1.762499	7.3669e+06	-48089.1	955.823	-29763.5	0.000000	0.000000	7.768287	130.143	NaN	0.000000	0.001666	0.001728	28.0752	52.1973	0.001885	27686.7	3.514026	178.27	128.528	1.762166	0.053502	0.053169	130.143	27686.7	0.049976	0.092340	1409.39	83243.2
189	2.000000	1.765501	7.3669e+06	-48089.1	955.824	-29763.5	0.000000	0.000000	7.771597	137.647	NaN	0.000000	0.001651	0.001744	28.0753	54.6753	0.001801	30364.2	5.365802	175.948	138.359	1.765151	0.056504	0.056154	137.647	30364.2	0.053104	0.102249	1346.2	86757.4
189	2.000000	1.768501	7.3669e+06	-48089.1	955.823	-29763.5	0.000000	0.000000	7.775190	152.038	NaN	0.000000	0.001645	0.001737	28.0754	57.4502	0.001793	32038.5	2.583821	178.212	151.104	1.768159	0.059504	0.059163	152.038	32038.5	0.055945	0.111672	1361.47	87593.8
189	2.000000	1.771456	7.3669e+06	-48089.1	955.822	-29763.5	0.000000	0.000000	7.778647	164.271	NaN	0.000000	0.001679	0.001753	28.0752	60.4598	0.001898	31847.4	6.807953	174.194	163.328	1.771167	0.062459	0.062171	164.271	31847.4	0.058590	0.120802	1359.83	83716.3
189	2.000000	1.774452	7.3669e+06	-48089.1	955.823	-29763.5	0.000000	0.000000	7.782170	177.074	NaN	0.000000	0.001642	0.001814	28.0753	61.7586	0.001805	34224.4	4.795232	175.51	172.431	1.774067	0.065455	0.065070	177.074	34224.4	0.061575	0.131515	1346.41	86222.5
189	2.000000	1.777510	7.3669e+06	-48089.1	955.823	-29763.5	0.000000	0.000000	7.785897	193.364	NaN	0.000000	0.001693	0.001842	28.0766	64.1283	0.001794	35751.5	10.4732	170.762	192.671	1.777027	0.068513	0.068031	193.364	35751.5	0.064457	0.142273	1359.11	86597.6
189	2.000000	1.780400	7.3669e+06	-48089.1	955.823	-29763.5	0.000000	0.000000	7.789561	212.19	NaN	0.000000	0.001674	0.001823	28.0766	65.5333	0.001650	39724.3	3.533437	175.262	207.725	1.780121	0.071403	0.071124	212.19	39724.3	0.067397	0.153659	1380.91	92587.1
189	2.000000	1.783482	7.3669e+06	-48089.1	955.822	-29763.5	0.000000	0.000000	7.792933	219.223	NaN	0.000000	0.001674	0.001825	28.0767	69.8893	0.001692	41297.7	5.163253	173.15	219.197	1.783268	0.074486	0.074271	219.223	41297.7	0.070504	0.166146	1319.46	92566.6
189	2.000000	1.786582	7.3669e+06	-48089.1	955.824	-29763.5	0.000000	0.000000	7.796872	239.634	NaN	0.000000	0.001687	0.001820	28.0763	73.2246	0.001774	41283.2	2.667671	176.111	244.435	1.786138	0.077585	0.077141	239.634	41283.2	0.073232	0.177483	1350.18	89530.1
189	2.000000	1.789416	7.3669e+06	-48089.1	955.823	-29763.5	0.000000	0.000000	7.800500	258.966	NaN	0.000000	0.001667	0.001784	28.0764	75.4741	0.001746	43222.2	0.759715	177.829	255.805	1.789074	0.080419	0.080077	258.966	43222.2	0.075925	0.189022	1370.03	90828.7
189	2.000000	1.792640	7.3669e+06	-48089.1	955.823	-29763.5	0.000000	0.000000	7.803958	264.644	NaN	0.000000	0.001644	0.001838	28.0766	80.5742	0.001887	42691.8	6.997976	171.506	274.461	1.792271	0.083644	0.083274	264.644	42691.8	0.078994	0.202588	1306.32	86658.4
189	2.000000	1.795551	7.3669e+06	-48089.1	955.823	-29763.5	0.000000	0.000000	7.807742	285.857	NaN	0.000000	0.001664	0.001772	28.0763	82.1906	0.001819	45177.6	5.872691	172.667	290.018	1.795155	0.086555	0.086158	285.857	45177.6	0.081809	0.215415	1327	88932.1
189	2.000000	1.798459	7.3669e+06	-48089.1	955.824	-29763.5	0.000000	0.000000	7.811268	300.921	NaN	0.000000	0.001658	0.001863	28.0766	84.547	0.001760	48036.9	4.505145	172.949	301.144	1.798230	0.089462	0.089233	300.921	48036.9	0.084764	0.229276	1312.48	91657.6
189	2.000000	1.801403	7.3669e+06	-48089.1	955.824	-29763.5	0.000000	0.000000	7.814988	319.781	NaN	0.000000	0.001653	0.001846	28.0764	88.0988	0.001877	46942.7	4.494576	173.241	316.267	1.801172	0.092406	0.092175	319.781	46942.7	0.087297	0.241479	1324.26	87277.3
189	2.000000	1.804441	7.3669e+06	-48089.1	955.824	-29763.5	0.000000	0.000000	7.818854	339.921	NaN	0.000000	0.001649	0.001841	28.0766	90.8237	0.001913	47481.6	4.939375	173.724	335.876	1.803998	0.095444	0.095002	339.921	47481.6	0.090075	0.255204	1331.96	85872.8
189	2.000000	1.807407	7.3669e+06	-48089.1	955.823	-29763.5	0.000000	0.000000	7.822397	353.939	NaN	0.000000	0.001648	0.001822	28.0765	91.4852	0.001894	48311.4	2.144698	175.184	350.306	1.807223	0.098411	0.098226	353.939	48311.4	0.092916	0.269605	1312.81	85007.8
189	2.000000	1.810271	7.3669e+06	-48089.1	955.824	-29763.5	0.000000	0.000000	7.826373	380.996	NaN	0.000000	0.001649	0.001815	28.075	93.0572	0.001763	52775.3	3.286057	173.711	371.118	1.810043	0.101274	0.101046	380.996	52775.3	0.095860	0.284916	1337.22	90332.8
189	2.000000	1.813405	7.3669e+06	-48089.1	955.824	-29763.5	0.000000	0.000000	7.830363	401.831	NaN	0.000000	0.001680	0.001807	28.0751	95.9682	0.001781	53874.7	3.216071	173.626	398.387	1.813181	0.104408	0.104184	401.831	53874.7	0.098814	0.300680	1336.41	89764.9
189	2.000000	1.815813	7.3669e+06	-48089.1	955.824	-29763.5	0.000000	0.000000	7.833693	424.268	NaN	0.000000	0.001705	0.001798	28.0751	98.5193	0.001843	53450.3	4.998090	-7.832934	415.696	1.815484	0.106816	0.106487	424.268	53450.3	0.100863	0.311843	1360.52	87449.2