File: remote_trans/data/nanoindenter/0828-1/data/Data_2025-08-06,11h17m57s/2025-07-22_16-23-58_1_76.txt
2025-07-22, 16:23:58, 1
Index	Phase	Displacement	Time	Pos X	Pos Y	Pos Z	Rot A	Rot B	Piezo Z	Force A	Force B	Gripper	Voltage A	Voltage B	Temperature	Amplitude force	Amplitude pos	Stiffness	Phase shift	Phase excitation	Force A raw	Displacement raw	HMax	HMax raw	Real Force	Real Stiffness	Contact Depth	Area	Hardness	Reduced Mod.
[#]	[#]	[um]	[s]	[um]	[um]	[um]	[m°]	[m°]	[um]	[uN]	[uN]	[V]	[V]	[V]	[°C]	[uN]	[um]	[N/m]	[°]	[°]	[uN]	[um]	[um]	[um]	[uN]	[N/m]	[um]	[um^2]	[MPa]	[MPa]
76	1.000000	0.002731	7.36579e+06	-42439.1	955.817	-29783.3	0.000000	0.000000	6.002800	-0.011297	NaN	0.000000	0.001621	0.001714	28.1225	0.074596	0.000978	76.2565	-84.5243	-168.089	-0.012701	0.001496	-1.059629	-1.060863	-0.011297	76.2565	-1.059517	-1.433298E+14	7.881659E-17	NaN
76	1.000000	0.010722	7.36579e+06	-42439.1	955.818	-29783.3	0.000000	0.000000	6.010792	0.014029	NaN	0.000000	0.001586	0.001697	28.1216	0.044017	0.001025	42.9303	18.3689	-169.431	-0.062607	0.009391	-1.051637	-1.052969	0.014029	42.9303	-1.051883	-1.131669E+14	-1.239662E-16	NaN
76	1.000000	0.018697	7.36579e+06	-42439.1	955.819	-29783.3	0.000000	0.000000	6.018768	0.058246	NaN	0.000000	0.001583	0.001682	28.1216	0.063711	0.001486	42.8655	-59.312	-164.934	-0.045185	0.017410	-1.043663	-1.044950	0.058246	42.8655	-1.044682	-9.055712E+13	-6.432002E-16	NaN
76	1.000000	0.026791	7.36579e+06	-42439.1	955.818	-29783.3	0.000000	0.000000	6.026862	0.044960	NaN	0.000000	0.001591	0.001693	28.1216	0.038703	0.001920	20.1625	67.4854	-167.136	0.019439	0.025392	-1.035569	-1.036968	0.044960	20.1625	-1.037241	-7.192377E+13	-6.251004E-16	NaN
76	1.000000	0.034682	7.36579e+06	-42439.1	955.819	-29783.3	0.000000	0.000000	6.034752	0.018892	NaN	0.000000	0.001625	0.001709	28.1217	0.049921	0.001881	26.5381	-86.3835	-167.141	0.015384	0.033396	-1.027678	-1.028963	0.018892	26.5381	-1.028212	-5.437896E+13	-3.474134E-16	NaN
76	1.000000	0.042679	7.36579e+06	-42439.1	955.819	-29783.3	0.000000	0.000000	6.042749	0.008027	NaN	0.000000	0.001625	0.001700	28.1209	0.157609	0.002187	72.0667	109.837	-167.418	-0.048980	0.041364	-1.019681	-1.020996	0.008027	72.0667	-1.019764	-4.185824E+13	-1.917735E-16	NaN
76	1.000000	0.050720	7.36579e+06	-42439.1	955.818	-29783.3	0.000000	0.000000	6.050788	-0.026149	NaN	0.000000	0.001598	0.001718	28.1201	0.090941	0.002194	41.4428	-130.924	-166.364	0.019620	0.049442	-1.011640	-1.012918	-0.026149	41.4428	-1.011167	-3.206901E+13	8.153945E-16	NaN
76	1.000000	0.058695	7.36579e+06	-42439.1	955.818	-29783.3	0.000000	0.000000	6.058765	0.017266	NaN	0.000000	0.001547	0.001705	28.1211	0.046616	0.002059	22.6455	-69.4499	-167.855	0.005240	0.057357	-1.003665	-1.005003	0.017266	22.6455	-1.004237	-2.587055E+13	-6.673959E-16	NaN
76	1.000000	0.066708	7.36579e+06	-42439.1	955.818	-29783.3	0.000000	0.000000	6.066777	-0.005649	NaN	0.000000	0.001628	0.001700	28.1204	0.036691	0.001907	19.2446	65.8739	-162.619	-0.069440	0.065414	-0.995651	-0.996945	-0.005649	19.2446	-0.995431	-1.969033E+13	2.868830E-16	NaN
76	1.000000	0.074707	7.36579e+06	-42439.1	955.819	-29783.3	0.000000	0.000000	6.074778	0.040059	NaN	0.000000	0.001622	0.001726	28.1203	0.054729	0.002040	26.8338	-92.7849	-164.348	0.039925	0.073404	-0.987653	-0.988956	0.040059	26.8338	-0.988772	-1.601682E+13	-2.501049E-15	NaN
76	1.000000	0.082709	7.36579e+06	-42439.1	955.818	-29783.3	0.000000	0.000000	6.082779	0.004707	NaN	0.000000	0.001603	0.001710	28.1213	0.053464	0.001960	27.2832	-37.2258	-166.073	0.048729	0.081329	-0.979650	-0.981031	0.004707	27.2832	-0.979780	-1.211836E+13	-3.884360E-16	NaN
76	1.000000	0.090679	7.36579e+06	-42439.1	955.817	-29783.3	0.000000	0.000000	6.090750	0.034732	NaN	0.000000	0.001635	0.001699	28.1222	0.104260	0.001960	53.2044	90.0993	-165.167	0.030667	0.089383	-0.971681	-0.972976	0.034732	53.2044	-0.972171	-9.570052E+12	-3.629281E-15	NaN
76	1.000000	0.098698	7.36579e+06	-42439.1	955.819	-29783.3	0.000000	0.000000	6.098769	0.058041	NaN	0.000000	0.001631	0.001659	28.123	0.062453	0.002085	29.9523	-48.2723	-166.247	-0.008072	0.097413	-0.963662	-0.964947	0.058041	29.9523	-0.965115	-7.688236E+12	-7.549292E-15	NaN
76	1.000000	0.106684	7.36579e+06	-42439.1	955.818	-29783.3	0.000000	0.000000	6.106754	0.007687	NaN	0.000000	0.001630	0.001679	28.1229	0.070364	0.002032	34.628	-117.425	-164.954	0.005349	0.105463	-0.955675	-0.956897	0.007687	34.628	-0.955842	-5.765074E+12	-1.333295E-15	NaN
76	1.000000	0.114680	7.36579e+06	-42439.1	955.818	-29783.3	0.000000	0.000000	6.114748	-0.032832	NaN	0.000000	0.001597	0.001682	28.1228	0.130235	0.001888	68.9822	-129.174	-166.888	-0.061435	0.113385	-0.947680	-0.948975	-0.032832	68.9822	-0.947323	-4.425067E+12	7.419472E-15	NaN
76	1.000000	0.122709	7.36579e+06	-42439.1	955.818	-29783.3	0.000000	0.000000	6.122781	0.064473	NaN	0.000000	0.001598	0.001677	28.1215	0.086947	0.002009	43.2747	-137.132	-162.081	0.062544	0.121426	-0.939651	-0.940934	0.064473	43.2747	-0.940768	-3.609941E+12	-1.785984E-14	NaN
76	1.000000	0.130726	7.36579e+06	-42439.1	955.818	-29783.3	0.000000	0.000000	6.130797	0.033177	NaN	0.000000	0.001634	0.001696	28.1217	0.076607	0.002036	37.6265	19.2451	-168.283	0.015190	0.129412	-0.931634	-0.932948	0.033177	37.6265	-0.932295	-2.774403E+12	-1.195840E-14	NaN
76	1.000000	0.138728	7.36579e+06	-42439.1	955.819	-29783.3	0.000000	0.000000	6.138797	0.010192	NaN	0.000000	0.001642	0.001694	28.1214	0.020115	0.001911	10.5262	-153.734	-168.785	0.013459	0.137404	-0.923632	-0.924956	0.010192	10.5262	-0.924358	-2.167922E+12	-4.701103E-15	NaN
76	1.000000	0.146715	7.36579e+06	-42439.1	955.819	-29783.3	0.000000	0.000000	6.146785	0.004757	NaN	0.000000	0.001655	0.001714	28.1212	0.035620	0.002042	17.4432	52.1756	-167.855	0.008139	0.145403	-0.915645	-0.916956	0.004757	17.4432	-0.915849	-1.664021E+12	-2.858478E-15	NaN
76	1.000000	0.154724	7.36579e+06	-42439.1	955.818	-29783.3	0.000000	0.000000	6.154800	0.143024	NaN	0.000000	0.001619	0.001764	28.1212	0.036072	0.002087	17.2802	-88.9081	-167.223	0.114407	0.153428	-0.907635	-0.908932	0.143024	17.2802	-0.913843	-1.563381E+12	-9.148380E-14	NaN
76	1.000000	0.162717	7.36579e+06	-42439.1	955.818	-29783.3	0.000000	0.000000	6.162786	-0.022762	NaN	0.000000	0.001584	0.001767	28.1227	0.116104	0.002062	56.3024	-83.2353	-166.859	0.046011	0.161460	-0.899642	-0.900900	-0.022762	56.3024	-0.899339	-9.957193E+11	2.286006E-14	NaN
76	1.000000	0.170696	7.36579e+06	-42439.1	955.818	-29783.3	0.000000	0.000000	6.170765	-0.012365	NaN	0.000000	0.001591	0.001759	28.1226	0.060523	0.001965	30.804	-46.736	-169.391	0.011143	0.169470	-0.891664	-0.892890	-0.012365	30.804	-0.891363	-7.768523E+11	1.591728E-14	NaN
76	1.000000	0.178740	7.36579e+06	-42439.1	955.817	-29783.3	0.000000	0.000000	6.178809	0.005264	NaN	0.000000	0.001595	0.001709	28.1223	0.091110	0.001885	48.3242	52.1557	-166.881	0.088010	0.177416	-0.883620	-0.884943	0.005264	48.3242	-0.883702	-6.120185E+11	-8.600321E-15	NaN
76	1.000000	0.186744	7.36579e+06	-42439.1	955.818	-29783.3	0.000000	0.000000	6.186817	0.080572	NaN	0.000000	0.001578	0.001677	28.1228	0.075449	0.001973	38.2315	151.271	-170.726	0.058864	0.185455	-0.875615	-0.876904	0.080572	38.2315	-0.877196	-4.997858E+11	-1.612131E-13	NaN
76	1.000000	0.194759	7.36579e+06	-42439.1	955.817	-29783.3	0.000000	0.000000	6.194825	-0.089408	NaN	0.000000	0.001589	0.001684	28.1226	0.081190	0.001991	40.7855	99.5549	-166.052	-0.090296	0.193371	-0.867601	-0.868988	-0.089408	40.7855	-0.865957	-3.521570E+11	2.538854E-13	NaN
76	1.000000	0.202749	7.36579e+06	-42439.1	955.818	-29783.3	0.000000	0.000000	6.202815	-0.067816	NaN	0.000000	0.001584	0.001683	28.1209	0.056171	0.001980	28.3731	-120.023	-165.201	-9.661016E-5	0.201492	-0.859611	-0.860868	-0.067816	28.3731	-0.857818	-2.732674E+11	2.481671E-13	NaN
76	1.000000	0.210745	7.36579e+06	-42439.1	955.819	-29783.3	0.000000	0.000000	6.210811	-0.087322	NaN	0.000000	0.001611	0.001697	28.1217	0.091898	0.002015	45.6078	-49.7167	-171.028	-0.116895	0.209422	-0.851615	-0.852938	-0.087322	45.6078	-0.850179	-2.153563E+11	4.054773E-13	NaN
76	1.000000	0.218745	7.36579e+06	-42439.1	955.818	-29783.3	0.000000	0.000000	6.218817	0.060409	NaN	0.000000	0.001576	0.001687	28.1214	0.126881	0.001971	64.3735	64.3563	-164.898	-0.044402	0.217425	-0.843615	-0.844934	0.060409	64.3735	-0.844318	-1.793875E+11	-3.367518E-13	NaN
76	1.000000	0.226753	7.36579e+06	-42439.1	955.818	-29783.3	0.000000	0.000000	6.226824	0.037389	NaN	0.000000	0.001555	0.001678	28.1197	0.053873	0.001923	28.0096	-149.885	-165.339	0.063959	0.225472	-0.835607	-0.836887	0.037389	28.0096	-0.836608	-1.410380E+11	-2.651023E-13	NaN
76	1.000000	0.234744	7.36579e+06	-42439.1	955.818	-29783.3	0.000000	0.000000	6.234813	-0.001442	NaN	0.000000	0.001531	0.001654	28.12	0.038629	0.001949	19.8179	136.573	-165.847	-0.021500	0.233445	-0.827616	-0.828914	-0.001442	19.8179	-0.827561	-1.063484E+11	1.355599E-14	NaN
76	1.000000	0.242756	7.36579e+06	-42439.1	955.819	-29783.3	0.000000	0.000000	6.242824	-0.028015	NaN	0.000000	0.001565	0.001685	28.121	0.058779	0.002108	27.8799	142.11	-166.174	0.010785	0.241463	-0.819604	-0.820896	-0.028015	27.8799	-0.818850	-8.102558E+10	3.457501E-13	NaN
76	1.000000	0.250809	7.36579e+06	-42439.1	955.818	-29783.3	0.000000	0.000000	6.250878	-0.009605	NaN	0.000000	0.001592	0.001685	28.1217	0.036235	0.002105	17.2167	-106.479	-163.619	0.008427	0.249467	-0.811550	-0.812892	-0.009605	17.2167	-0.811132	-6.366929E+10	1.508579E-13	NaN
76	1.000000	0.258766	7.36579e+06	-42439.1	955.818	-29783.3	0.000000	0.000000	6.258837	0.021108	NaN	0.000000	0.001562	0.001708	28.1209	0.139098	0.002011	69.1857	146.562	-164.801	0.003759	0.257399	-0.803593	-0.804960	0.021108	69.1857	-0.803822	-5.066867E+10	-4.165976E-13	NaN
76	1.000000	0.266762	7.36579e+06	-42439.1	955.819	-29783.3	0.000000	0.000000	6.266831	-0.012354	NaN	0.000000	0.001607	0.001709	28.1209	0.062993	0.001920	32.8164	23.5139	-165.863	-0.029753	0.265405	-0.795597	-0.796955	-0.012354	32.8164	-0.795315	-3.883836E+10	3.180798E-13	NaN
76	1.000000	0.274782	7.36579e+06	-42439.1	955.818	-29783.3	0.000000	0.000000	6.274854	0.057394	NaN	0.000000	0.001597	0.001734	28.1208	0.164009	0.002086	78.6403	-119.11	-163.675	0.084011	0.273449	-0.787577	-0.788911	0.057394	78.6403	-0.788125	-3.101788E+10	-1.850367E-12	NaN
76	1.000000	0.282775	7.36579e+06	-42439.1	955.818	-29783.3	0.000000	0.000000	6.282847	0.062296	NaN	0.000000	0.001570	0.001718	28.1194	0.056881	0.001852	30.7197	13.4948	-163.899	-0.066044	0.281544	-0.779585	-0.780815	0.062296	30.7197	-0.781106	-2.490323E+10	-2.501534E-12	NaN
76	1.000000	0.290798	7.36579e+06	-42439.1	955.818	-29783.3	0.000000	0.000000	6.290865	-0.040648	NaN	0.000000	0.001572	0.001688	28.1201	0.048468	0.001930	25.1082	-73.4544	-167.956	0.006866	0.289410	-0.771562	-0.772949	-0.040648	25.1082	-0.770348	-1.778430E+10	2.285592E-12	NaN
76	1.000000	0.298767	7.36579e+06	-42439.1	955.819	-29783.3	0.000000	0.000000	6.298838	0.033594	NaN	0.000000	0.001576	0.001726	28.1195	0.039796	0.002072	19.2066	15.3023	-162.863	0.020573	0.297522	-0.763592	-0.764838	0.033594	19.2066	-0.764904	-1.499716E+10	-2.240044E-12	NaN
76	1.000000	0.306809	7.36579e+06	-42439.1	955.818	-29783.3	0.000000	0.000000	6.306876	-0.062479	NaN	0.000000	0.001567	0.001730	28.1192	0.081085	0.002003	40.4881	91.1484	-163.893	-0.008350	0.305486	-0.755551	-0.756874	-0.062479	40.4881	-0.754393	-1.078981E+10	5.790534E-12	NaN
76	1.000000	0.314795	7.36579e+06	-42439.1	955.818	-29783.3	0.000000	0.000000	6.314862	-0.043710	NaN	0.000000	0.001592	0.001686	28.1194	0.095920	0.001998	48.0072	-73.7088	-166.774	-0.063883	0.313488	-0.747565	-0.748871	-0.043710	48.0072	-0.746882	-8.526612E+9	5.126331E-12	NaN
76	1.000000	0.322806	7.36579e+06	-42439.1	955.819	-29783.3	0.000000	0.000000	6.322876	0.010922	NaN	0.000000	0.001568	0.001712	28.1204	0.038119	0.001895	20.1162	-61.5414	-163.441	-0.042483	0.321498	-0.739554	-0.740862	0.010922	20.1162	-0.739961	-6.863141E+9	-1.591382E-12	NaN
76	1.000000	0.330803	7.36579e+06	-42439.1	955.818	-29783.3	0.000000	0.000000	6.330874	0.039619	NaN	0.000000	0.001589	0.001680	28.1207	0.037927	0.001978	19.1745	155.545	-163.485	0.109426	0.329498	-0.731557	-0.732862	0.039619	19.1745	-0.733107	-5.535375E+9	-7.157359E-12	NaN
76	1.000000	0.338791	7.36579e+06	-42439.1	955.818	-29783.3	0.000000	0.000000	6.338862	0.033656	NaN	0.000000	0.001513	0.001716	28.1208	0.109940	0.002073	53.0334	172.54	-162.88	-0.013690	0.337456	-0.723568	-0.724904	0.033656	53.0334	-0.724044	-4.165083E+9	-8.080420E-12	NaN
76	1.000000	0.346810	7.36579e+06	-42439.1	955.819	-29783.3	0.000000	0.000000	6.346881	0.039552	NaN	0.000000	0.001584	0.001690	28.1206	0.038427	0.001961	19.5989	34.275	-165.257	0.044050	0.345508	-0.715550	-0.716852	0.039552	19.5989	-0.717063	-3.345156E+9	-1.182373E-11	NaN
76	1.000000	0.354793	7.36579e+06	-42439.1	955.818	-29783.3	0.000000	0.000000	6.354861	-0.043490	NaN	0.000000	0.001602	0.001671	28.1212	0.097292	0.002032	47.8724	-108.891	-165.001	-0.011260	0.353500	-0.707567	-0.708860	-0.043490	47.8724	-0.706885	-2.429625E+9	1.789992E-11	NaN
76	1.000000	0.362839	7.36579e+06	-42439.1	955.819	-29783.3	0.000000	0.000000	6.362908	-0.015199	NaN	0.000000	0.001601	0.001670	28.1204	0.063124	0.001870	33.7576	125.884	-168.147	-0.034909	0.361527	-0.699521	-0.700833	-0.015199	33.7576	-0.699183	-1.907097E+9	7.969639E-12	NaN
76	1.000000	0.370818	7.36579e+06	-42439.1	955.818	-29783.3	0.000000	0.000000	6.370890	0.065163	NaN	0.000000	0.001538	0.001665	28.1203	0.095398	0.002040	46.7601	-11.0774	-165.293	0.030731	0.369477	-0.691542	-0.692883	0.065163	46.7601	-0.692587	-1.549780E+9	-4.204682E-11	NaN
76	1.000000	0.378808	7.36579e+06	-42439.1	955.818	-29783.3	0.000000	0.000000	6.378875	-0.057784	NaN	0.000000	0.001555	0.001656	28.1207	0.028413	0.001991	14.2692	-91.9593	-167.881	0.015238	0.377558	-0.683552	-0.684802	-0.057784	14.2692	-0.680514	-1.059841E+9	5.452136E-11	NaN
76	1.000000	0.386801	7.36579e+06	-42439.1	955.819	-29783.3	0.000000	0.000000	6.386867	-0.093098	NaN	0.000000	0.001557	0.001705	28.1208	0.034667	0.001948	17.7967	-134.476	-170.717	-0.062255	0.385555	-0.675558	-0.676804	-0.093098	17.7967	-0.671635	-8.012481E+8	1.161911E-10	NaN
76	1.000000	0.394812	7.36579e+06	-42439.1	955.818	-29783.3	0.000000	0.000000	6.394883	0.037860	NaN	0.000000	0.001580	0.001667	28.1205	0.056104	0.001966	28.5394	-116.853	-169.034	-0.102260	0.393477	-0.667547	-0.668883	0.037860	28.5394	-0.668542	-7.268410E+8	-5.208849E-11	NaN
76	1.000000	0.402834	7.36579e+06	-42439.1	955.818	-29783.3	0.000000	0.000000	6.402900	-0.074677	NaN	0.000000	0.001598	0.001670	28.1213	0.059999	0.002124	28.2466	-1.872458	-166.125	-0.001056	0.401504	-0.659526	-0.660856	-0.074677	28.2466	-0.657543	-5.138233E+8	1.453365E-10	NaN
76	1.000000	0.410833	7.36579e+06	-42439.1	955.819	-29783.3	0.000000	0.000000	6.410902	-0.018726	NaN	0.000000	0.001575	0.001684	28.1215	0.054594	0.001971	27.6916	114.737	-165.928	-0.049120	0.409508	-0.651526	-0.652851	-0.018726	27.6916	-0.651019	-4.182226E+8	4.477418E-11	NaN
76	1.000000	0.418811	7.36579e+06	-42439.1	955.818	-29783.3	0.000000	0.000000	6.418879	-0.010460	NaN	0.000000	0.001554	0.001691	28.1214	0.095948	0.002019	47.5133	119.305	-167.087	0.021857	0.417588	-0.643549	-0.644772	-0.010460	47.5133	-0.643384	-3.286353E+8	3.182740E-11	NaN
76	1.000000	0.426854	7.36579e+06	-42439.1	955.818	-29783.3	0.000000	0.000000	6.426921	-0.056868	NaN	0.000000	0.001625	0.001682	28.1219	0.038936	0.001936	20.1095	-155.011	-167.318	-0.044308	0.425504	-0.635506	-0.636856	-0.056868	20.1095	-0.633385	-2.396060E+8	2.373381E-10	NaN
76	1.000000	0.434834	7.36579e+06	-42439.1	955.818	-29783.3	0.000000	0.000000	6.434901	-0.050218	NaN	0.000000	0.001581	0.001676	28.1218	0.104385	0.002019	51.6908	-138.753	-165.651	-0.047759	0.433513	-0.627526	-0.628846	-0.050218	51.6908	-0.626797	-1.945530E+8	2.581186E-10	NaN
76	1.000000	0.442834	7.36579e+06	-42439.1	955.818	-29783.3	0.000000	0.000000	6.442903	-0.002584	NaN	0.000000	0.001609	0.001674	28.1204	0.053308	0.002056	25.9255	88.1313	-167.58	0.040458	0.441540	-0.619526	-0.620820	-0.002584	25.9255	-0.619451	-1.541997E+8	1.675860E-11	NaN
76	1.000000	0.450868	7.36579e+06	-42439.1	955.818	-29783.3	0.000000	0.000000	6.450938	0.035427	NaN	0.000000	0.001617	0.001676	28.1208	0.059666	0.001992	29.9592	-11.2626	-163.878	0.032809	0.449576	-0.611492	-0.612784	0.035427	29.9592	-0.612379	-1.232654E+8	-2.874051E-10	NaN
76	1.000000	0.458845	7.36579e+06	-42439.1	955.818	-29783.3	0.000000	0.000000	6.458916	0.030188	NaN	0.000000	0.001635	0.001700	28.1202	0.137671	0.002159	63.7521	-163.932	-168.385	-0.067102	0.457523	-0.603514	-0.604837	0.030188	63.7521	-0.603870	-9.413318E+7	-3.206972E-10	NaN
76	1.000000	0.466865	7.36579e+06	-42439.1	955.818	-29783.3	0.000000	0.000000	6.466933	-0.051441	NaN	0.000000	0.001596	0.001680	28.1199	0.165629	0.002026	81.7434	146.594	-167.987	0.016431	0.465596	-0.595494	-0.596764	-0.051441	81.7434	-0.595022	-7.110328E+7	7.234672E-10	NaN
76	1.000000	0.474852	7.36579e+06	-42439.1	955.819	-29783.3	0.000000	0.000000	6.474919	-0.056375	NaN	0.000000	0.001607	0.001658	28.12	0.029265	0.001921	15.2308	-6.054670	-167.876	-0.016440	0.473576	-0.587508	-0.588784	-0.056375	15.2308	-0.584732	-5.128830E+7	1.099186E-9	NaN
76	1.000000	0.482869	7.36579e+06	-42439.1	955.818	-29783.3	0.000000	0.000000	6.482938	-0.009050	NaN	0.000000	0.001588	0.001648	28.1212	0.032036	0.002062	15.533	115.472	-169.033	0.033594	0.481516	-0.579491	-0.580843	-0.009050	15.533	-0.579054	-4.282237E+7	2.113265E-10	NaN
76	1.000000	0.490865	7.36579e+06	-42439.1	955.819	-29783.3	0.000000	0.000000	6.490934	-0.009880	NaN	0.000000	0.001551	0.001661	28.1209	0.048822	0.001979	24.6667	-124.091	-168.612	0.040715	0.489556	-0.571494	-0.572803	-0.009880	24.6667	-0.571194	-3.335262E+7	2.962319E-10	NaN
76	1.000000	0.498871	7.36579e+06	-42439.1	955.818	-29783.3	0.000000	0.000000	6.498939	-0.050506	NaN	0.000000	0.001568	0.001643	28.1196	0.029188	0.001887	15.4711	136.658	-163.446	-0.034619	0.497564	-0.563488	-0.564795	-0.050506	15.4711	-0.561040	-2.414140E+7	2.092099E-9	NaN
76	1.000000	0.506896	7.36579e+06	-42439.1	955.819	-29783.3	0.000000	0.000000	6.506964	-0.027522	NaN	0.000000	0.001570	0.001658	28.1195	0.020520	0.002018	10.1669	155.354	-162.987	-0.053042	0.505555	-0.555464	-0.556805	-0.027522	10.1669	-0.553433	-1.894525E+7	1.452725E-9	NaN
76	1.000000	0.514878	7.36579e+06	-42439.1	955.818	-29783.3	0.000000	0.000000	6.514946	-0.053825	NaN	0.000000	0.001565	0.001626	28.1197	0.102219	0.001990	51.36	-112.457	-163.774	-0.046609	0.513534	-0.547481	-0.548825	-0.053825	51.36	-0.546695	-1.528174E+7	3.522150E-9	NaN
76	1.000000	0.522868	7.36579e+06	-42439.1	955.818	-29783.3	0.000000	0.000000	6.522940	0.076025	NaN	0.000000	0.001603	0.001630	28.1186	0.019403	0.002099	9.242192	128.423	-164.337	0.033981	0.521561	-0.539492	-0.540799	0.076025	9.242192	-0.545661	-1.478573E+7	-5.141788E-9	NaN
76	1.000000	0.530892	7.36579e+06	-42439.1	955.819	-29783.3	0.000000	0.000000	6.530959	-0.073651	NaN	0.000000	0.001582	0.001655	28.1184	0.072683	0.002089	34.7909	-2.219876	-164.099	-0.056461	0.529535	-0.531467	-0.532824	-0.073651	34.7909	-0.529880	-8.93108e+06	8.246618E-9	NaN
76	1.000000	0.538906	7.36579e+06	-42439.1	955.818	-29783.3	0.000000	0.000000	6.538976	0.028231	NaN	0.000000	0.001543	0.001650	28.1181	0.090088	0.001996	45.1329	-102.393	-166.824	0.034901	0.537603	-0.523454	-0.524756	0.028231	45.1329	-0.523923	-7.38147e+06	-3.824620E-9	NaN
76	1.000000	0.546857	7.36579e+06	-42439.1	955.818	-29783.3	0.000000	0.000000	6.546924	-0.046361	NaN	0.000000	0.001571	0.001623	28.1178	0.136556	0.002091	65.3035	144.913	-165.148	-0.057073	0.545577	-0.515503	-0.516783	-0.046361	65.3035	-0.514971	-5.54148e+06	8.366118E-9	NaN
76	1.000000	0.554894	7.36579e+06	-42439.1	955.818	-29783.3	0.000000	0.000000	6.554962	-0.033329	NaN	0.000000	0.001560	0.001617	28.1183	0.107579	0.002069	51.9977	-64.1261	-165.171	-0.076179	0.553578	-0.507466	-0.508782	-0.033329	51.9977	-0.506985	-4.28956e+06	7.769839E-9	NaN
76	1.000000	0.562922	7.36579e+06	-42439.1	955.818	-29783.3	0.000000	0.000000	6.562992	0.031639	NaN	0.000000	0.001496	0.001651	28.1193	0.031364	0.002082	15.0656	75.0122	-170.098	0.058988	0.561643	-0.499438	-0.500716	0.031639	15.0656	-0.501013	-3.54122e+06	-8.934396E-9	NaN
76	1.000000	0.570896	7.36579e+06	-42439.1	955.817	-29783.3	0.000000	0.000000	6.570968	0.052255	NaN	0.000000	0.001576	0.001649	28.1191	0.046380	0.001926	24.0867	-15.3453	-168.967	0.033288	0.569572	-0.491463	-0.492788	0.052255	24.0867	-0.493091	-2.74517e+06	-1.903508E-8	NaN
76	1.000000	0.578921	7.36579e+06	-42439.1	955.818	-29783.3	0.000000	0.000000	6.578989	-0.029588	NaN	0.000000	0.001598	0.001661	28.1193	0.135389	0.002090	64.7718	179.122	-166.5	-0.034180	0.577597	-0.483439	-0.484763	-0.029588	64.7718	-0.483096	-1.99002e+06	1.486832E-8	NaN
76	1.000000	0.586893	7.36579e+06	-42439.1	955.819	-29783.3	0.000000	0.000000	6.586961	-0.019748	NaN	0.000000	0.001599	0.001668	28.1193	0.034916	0.001973	17.6995	172.004	-165.195	-0.114191	0.585598	-0.475467	-0.476762	-0.019748	17.6995	-0.474630	-1.51468e+06	1.303784E-8	NaN
76	1.000000	0.594911	7.36579e+06	-42439.1	955.819	-29783.3	0.000000	0.000000	6.594980	-0.001333	NaN	0.000000	0.001633	0.001616	28.1194	0.062988	0.001936	32.5375	86.8488	-166.359	-0.023491	0.593591	-0.467449	-0.468769	-0.001333	32.5375	-0.467418	-1.20002e+06	1.110449E-9	NaN
76	1.000000	0.602901	7.36579e+06	-42439.1	955.818	-29783.3	0.000000	0.000000	6.602966	-0.116068	NaN	0.000000	0.001645	0.001623	28.1182	0.052093	0.001912	27.2492	-166.941	-162.701	-0.085768	0.601613	-0.459459	-0.460747	-0.116068	27.2492	-0.456264	-836558	1.387445E-7	NaN
76	1.000000	0.610933	7.36579e+06	-42439.1	955.818	-29783.3	0.000000	0.000000	6.611005	0.058760	NaN	0.000000	0.001628	0.001649	28.1179	0.068844	0.002057	33.4705	-80.8639	-167.829	0.044605	0.609607	-0.451427	-0.452752	0.058760	33.4705	-0.452743	-746390	-7.872509E-8	NaN
76	1.000000	0.618914	7.36579e+06	-42439.1	955.817	-29783.3	0.000000	0.000000	6.618983	-0.024151	NaN	0.000000	0.001505	0.001672	28.1179	0.042161	0.002026	20.8136	92.1121	-168.289	0.015556	0.617649	-0.443445	-0.444711	-0.024151	20.8136	-0.442575	-536660	4.500241E-8	NaN
76	1.000000	0.626918	7.36579e+06	-42439.1	955.819	-29783.3	0.000000	0.000000	6.626988	0.016550	NaN	0.000000	0.001496	0.001658	28.1179	0.086148	0.001958	43.9901	74.9266	-164.829	-0.036540	0.625566	-0.435442	-0.436793	0.016550	43.9901	-0.435724	-429521	-3.853102E-8	NaN
76	1.000000	0.634936	7.36579e+06	-42439.1	955.818	-29783.3	0.000000	0.000000	6.635004	-0.016837	NaN	0.000000	0.001528	0.001622	28.1189	0.026933	0.002037	13.22	-85.5684	-166.345	0.046928	0.633664	-0.427424	-0.428696	-0.016837	13.22	-0.426469	-317748	5.298877E-8	NaN
76	1.000000	0.642940	7.36579e+06	-42439.1	955.819	-29783.3	0.000000	0.000000	6.643009	0.004818	NaN	0.000000	0.001522	0.001662	28.1201	0.046196	0.001982	23.3101	29.9633	-166.081	0.014907	0.641654	-0.419420	-0.420706	0.004818	23.3101	-0.419575	-253738	-1.898622E-8	NaN
76	1.000000	0.650903	7.36579e+06	-42439.1	955.818	-29783.3	0.000000	0.000000	6.650970	-0.053029	NaN	0.000000	0.001521	0.001693	28.1198	0.008087	0.001855	4.360487	56.8628	-166.023	-0.023993	0.649603	-0.411456	-0.412756	-0.053029	4.360487	-0.402335	-144308	3.674742E-7	NaN
76	1.000000	0.658930	7.36579e+06	-42439.1	955.819	-29783.3	0.000000	0.000000	6.658998	-0.029671	NaN	0.000000	0.001532	0.001664	28.1203	0.078870	0.001952	40.4114	158.639	-165.599	-0.033248	0.657625	-0.403430	-0.404735	-0.029671	40.4114	-0.402879	-146904	2.019748E-7	NaN
76	1.000000	0.666958	7.36579e+06	-42439.1	955.818	-29783.3	0.000000	0.000000	6.667029	0.033540	NaN	0.000000	0.001550	0.001670	28.1203	0.027095	0.001921	14.1045	89.4835	-164.784	-0.063317	0.665678	-0.395401	-0.396682	0.033540	14.1045	-0.397185	-121851	-2.752544E-7	NaN
76	1.000000	0.674956	7.36579e+06	-42439.1	955.818	-29783.3	0.000000	0.000000	6.675025	-0.006081	NaN	0.000000	0.001540	0.001684	28.1199	0.105892	0.002029	52.1959	55.9136	-169.446	0.035169	0.673633	-0.387404	-0.388726	-0.006081	52.1959	-0.387317	-88057.7	6.905465E-8	NaN
76	1.000000	0.682930	7.36579e+06	-42439.1	955.819	-29783.3	0.000000	0.000000	6.682998	-0.018010	NaN	0.000000	0.001548	0.001682	28.1196	0.048975	0.001971	24.8525	17.8914	-165.841	-0.033298	0.681630	-0.379430	-0.380730	-0.018010	24.8525	-0.378886	-66665.9	2.701485E-7	NaN
76	1.000000	0.690984	7.36579e+06	-42439.1	955.818	-29783.3	0.000000	0.000000	6.691053	-0.006522	NaN	0.000000	0.001584	0.001604	28.1182	0.062429	0.002069	30.17	-144.848	-163.889	0.019162	0.689609	-0.371376	-0.372750	-0.006522	30.17	-0.371214	-51713.4	1.261223E-7	NaN
76	1.000000	0.698967	7.36579e+06	-42439.1	955.818	-29783.3	0.000000	0.000000	6.699035	-0.033639	NaN	0.000000	0.001560	0.001671	28.1186	0.061466	0.002035	30.1976	152.846	-167.692	0.014064	0.697661	-0.363392	-0.364698	-0.033639	30.1976	-0.362557	-38796	8.670612E-7	NaN
76	1.000000	0.706962	7.36579e+06	-42439.1	955.818	-29783.3	0.000000	0.000000	6.707031	-0.003436	NaN	0.000000	0.001560	0.001671	28.1187	0.087632	0.001923	45.5779	19.0881	-164.034	0.016702	0.705623	-0.355398	-0.356736	-0.003436	45.5779	-0.355341	-30509.6	1.126278E-7	NaN
76	1.000000	0.714965	7.36579e+06	-42439.1	955.819	-29783.3	0.000000	0.000000	6.715035	0.013129	NaN	0.000000	0.001571	0.001663	28.1183	0.100148	0.001960	51.1024	102.378	-167.187	0.080011	0.713645	-0.347395	-0.348715	0.013129	51.1024	-0.347588	-23548.9	-5.575151E-7	NaN
76	1.000000	0.722968	7.36579e+06	-42439.1	955.819	-29783.3	0.000000	0.000000	6.723036	-0.021462	NaN	0.000000	0.001569	0.001627	28.1201	0.030560	0.002072	14.7484	80.3195	-165.289	0.022376	0.721662	-0.339392	-0.340698	-0.021462	14.7484	-0.338300	-17249.3	1.244220E-6	NaN
76	1.000000	0.730964	7.36579e+06	-42439.1	955.818	-29783.3	0.000000	0.000000	6.731033	-0.013845	NaN	0.000000	0.001571	0.001626	28.1199	0.053773	0.002027	26.5274	79.2196	-166.943	-0.010076	0.729658	-0.331396	-0.332701	-0.013845	26.5274	-0.331004	-13494.4	1.025945E-6	NaN
76	1.000000	0.738980	7.36579e+06	-42439.1	955.819	-29783.3	0.000000	0.000000	6.739048	-0.020593	NaN	0.000000	0.001580	0.001618	28.1198	0.168663	0.002059	81.9243	-168.252	-166.834	0.002530	0.737625	-0.323380	-0.324735	-0.020593	81.9243	-0.323191	-10365	1.986738E-6	NaN
76	1.000000	0.746975	7.36579e+06	-42439.1	955.819	-29783.3	0.000000	0.000000	6.747046	0.029334	NaN	0.000000	0.001574	0.001639	28.1201	0.122855	0.001943	63.2442	126.961	-169.635	0.042636	0.745665	-0.315384	-0.316695	0.029334	63.2442	-0.315732	-8049.16	-3.644295E-6	NaN
76	1.000000	0.754965	7.36579e+06	-42439.1	955.818	-29783.3	0.000000	0.000000	6.755034	-0.009064	NaN	0.000000	0.001565	0.001638	28.1198	0.021761	0.001909	11.4018	134.521	-164.693	-0.000838	0.753673	-0.307394	-0.308687	-0.009064	11.4018	-0.306798	-5937.84	1.526402E-6	NaN
76	1.000000	0.762956	7.36579e+06	-42439.1	955.818	-29783.3	0.000000	0.000000	6.763026	0.015798	NaN	0.000000	0.001568	0.001631	28.1194	0.058272	0.002191	26.5948	-69.6006	-165.926	0.032433	0.761660	-0.299404	-0.300700	0.015798	26.5948	-0.299849	-4681.55	-3.374602E-6	NaN
76	1.000000	0.770951	7.36579e+06	-42439.1	955.819	-29783.3	0.000000	0.000000	6.771019	-0.021399	NaN	0.000000	0.001579	0.001631	28.1172	0.157466	0.002006	78.5117	-111.584	-164.262	0.007392	0.769671	-0.291409	-0.292689	-0.021399	78.5117	-0.291205	-3478.12	6.152523E-6	NaN
76	1.000000	0.779035	7.36579e+06	-42439.1	955.818	-29783.3	0.000000	0.000000	6.779102	-0.064124	NaN	0.000000	0.001556	0.001621	28.117	0.122777	0.001907	64.3983	25.7928	-164.377	0.018525	0.777682	-0.283324	-0.284677	-0.064124	64.3983	-0.282577	-2581.18	2.484295E-5	NaN
76	1.000000	0.787021	7.36579e+06	-42439.1	955.818	-29783.3	0.000000	0.000000	6.787093	0.055143	NaN	0.000000	0.001560	0.001637	28.1174	0.125651	0.002116	59.3753	-148.101	-165.264	0.025187	0.785734	-0.275338	-0.276626	0.055143	59.3753	-0.276035	-2056.21	-2.681790E-5	NaN
76	1.000000	0.795003	7.36579e+06	-42439.1	955.819	-29783.3	0.000000	0.000000	6.795070	-0.058971	NaN	0.000000	0.001571	0.001635	28.1173	0.047072	0.001984	23.7254	60.1729	-164.207	-0.075316	0.793747	-0.267357	-0.268612	-0.058971	23.7254	-0.265493	-1422.04	4.146940E-5	NaN
76	1.000000	0.803014	7.36579e+06	-42439.1	955.817	-29783.3	0.000000	0.000000	6.803082	-0.027394	NaN	0.000000	0.001616	0.001627	28.1187	0.106273	0.001892	56.1556	5.019325	-166.128	-0.060117	0.801689	-0.259346	-0.260671	-0.027394	56.1556	-0.258980	-1130.52	2.423095E-5	NaN
76	1.000000	0.810991	7.36579e+06	-42439.1	955.819	-29783.3	0.000000	0.000000	6.811058	-0.040694	NaN	0.000000	0.001652	0.001659	28.1186	0.023068	0.002008	11.49	81.4183	-167.618	-0.038119	0.809699	-0.251369	-0.252660	-0.040694	11.49	-0.248713	-785.318	5.181871E-5	NaN
76	1.000000	0.819004	7.36579e+06	-42439.1	955.818	-29783.3	0.000000	0.000000	6.819074	0.027634	NaN	0.000000	0.001614	0.001641	28.1181	0.055638	0.001971	28.2352	39.4131	-170.007	0.105877	0.817670	-0.243356	-0.244689	0.027634	28.2352	-0.244090	-665.733	-4.150862E-5	NaN
76	1.000000	0.827020	7.36579e+06	-42439.1	955.819	-29783.3	0.000000	0.000000	6.827090	0.025219	NaN	0.000000	0.001657	0.001683	28.1183	0.078836	0.001891	41.6843	-69.168	-164.911	-0.017013	0.825688	-0.235340	-0.236672	0.025219	41.6843	-0.235794	-493.98	-5.105289E-5	NaN
76	1.000000	0.835011	7.36579e+06	-42439.1	955.818	-29783.3	0.000000	0.000000	6.835078	-0.037375	NaN	0.000000	0.001663	0.001681	28.1178	0.040349	0.002094	19.271	166.201	-168.407	-0.067240	0.833719	-0.227349	-0.228641	-0.037375	19.271	-0.225894	-344.774	0.000108	NaN
76	1.000000	0.843029	7.36579e+06	-42439.1	955.818	-29783.3	0.000000	0.000000	6.843100	0.049633	NaN	0.000000	0.001693	0.001665	28.1168	0.121304	0.001889	64.2263	159.907	-165.219	0.027557	0.841694	-0.219331	-0.220666	0.049633	64.2263	-0.219910	-276.851	-0.000179	NaN
76	1.000000	0.851005	7.36579e+06	-42439.1	955.819	-29783.3	0.000000	0.000000	6.851071	-0.080900	NaN	0.000000	0.001696	0.001643	28.1168	0.120444	0.001985	60.689	166.2	-163.864	-0.102369	0.849745	-0.211354	-0.212615	-0.080900	60.689	-0.210355	-194.339	0.000416	NaN
76	1.000000	0.859039	7.36579e+06	-42439.1	955.818	-29783.3	0.000000	0.000000	6.859107	-0.019646	NaN	0.000000	0.001633	0.001652	28.117	0.122909	0.001941	63.3194	-123.613	-169.399	0.052858	0.857703	-0.203321	-0.204657	-0.019646	63.3194	-0.203088	-148.023	0.000133	NaN
76	1.000000	0.867041	7.36579e+06	-42439.1	955.818	-29783.3	0.000000	0.000000	6.867108	-0.040970	NaN	0.000000	0.001580	0.001656	28.1168	0.043919	0.001964	22.3667	-142.376	-164.575	-0.103766	0.865751	-0.195319	-0.196609	-0.040970	22.3667	-0.193945	-104.644	0.000392	NaN
76	1.000000	0.875045	7.36579e+06	-42439.1	955.819	-29783.3	0.000000	0.000000	6.875113	-0.034396	NaN	0.000000	0.001589	0.001669	28.1166	0.024791	0.002040	12.1544	102.966	-166.842	0.012861	0.873687	-0.187315	-0.188673	-0.034396	12.1544	-0.185193	-74.71	0.000460	NaN
76	1.000000	0.883006	7.36579e+06	-42439.1	955.818	-29783.3	0.000000	0.000000	6.883075	-0.028009	NaN	0.000000	0.001623	0.001658	28.1181	0.073087	0.001903	38.4046	-16.3733	-168.014	-0.021783	0.881719	-0.179353	-0.180641	-0.028009	38.4046	-0.178806	-58.2285	0.000481	NaN
76	1.000000	0.891028	7.36579e+06	-42439.1	955.818	-29783.3	0.000000	0.000000	6.891097	-0.012329	NaN	0.000000	0.001595	0.001650	28.1183	0.029524	0.002004	14.7294	146.936	-166.007	0.039767	0.889702	-0.171332	-0.172658	-0.012329	14.7294	-0.170704	-42.2503	0.000292	NaN
76	1.000000	0.899043	7.36579e+06	-42439.1	955.818	-29783.3	0.000000	0.000000	6.899112	-0.019347	NaN	0.000000	0.001601	0.001669	28.1179	0.090971	0.002116	43.0021	159.046	-167.504	-0.018351	0.897697	-0.163316	-0.164663	-0.019347	43.0021	-0.162979	-30.9549	0.000625	NaN
76	1.000000	0.907049	7.36579e+06	-42439.1	955.818	-29783.3	0.000000	0.000000	6.907118	0.000115	NaN	0.000000	0.001565	0.001674	28.1188	0.144888	0.002048	70.7342	100.9	-162.042	-0.012878	0.905737	-0.155311	-0.156623	0.000115	70.7342	-0.155312	-22.6044	-5.082229E-6	NaN
76	1.000000	0.915039	7.36579e+06	-42439.1	955.819	-29783.3	0.000000	0.000000	6.915109	0.006163	NaN	0.000000	0.001576	0.001625	28.1191	0.052670	0.001935	27.2258	168.458	-163.58	-0.074013	0.913739	-0.147321	-0.148621	0.006163	27.2258	-0.147490	-16.2957	-0.000378	NaN
76	1.000000	0.923051	7.36579e+06	-42439.1	955.817	-29783.3	0.000000	0.000000	6.923121	0.015960	NaN	0.000000	0.001620	0.001602	28.1181	0.096607	0.001938	49.8414	50.7639	-170.67	-0.083633	0.921657	-0.139309	-0.140703	0.015960	49.8414	-0.139549	-11.6008	-0.001376	NaN
76	1.000000	0.931063	7.36579e+06	-42439.1	955.819	-29783.3	0.000000	0.000000	6.931130	-0.041378	NaN	0.000000	0.001606	0.001611	28.1177	0.020337	0.001813	11.2198	77.9894	-166.419	0.035270	0.929688	-0.131297	-0.132671	-0.041378	11.2198	-0.128531	-7.135096	0.005799	NaN
76	1.000000	0.939059	7.36579e+06	-42439.1	955.818	-29783.3	0.000000	0.000000	6.939126	-0.044351	NaN	0.000000	0.001610	0.001631	28.118	0.114598	0.001971	58.1396	-54.5491	-163.519	0.036727	0.937739	-0.123301	-0.124621	-0.044351	58.1396	-0.122729	-5.480921	0.008092	NaN
76	1.000000	0.947048	7.36579e+06	-42439.1	955.819	-29783.3	0.000000	0.000000	6.947116	-0.015073	NaN	0.000000	0.001620	0.001676	28.1183	0.089422	0.002020	44.265	-57.7983	-166.937	0.027418	0.945780	-0.115312	-0.116580	-0.015073	44.265	-0.115057	-3.830647	0.003935	NaN
76	1.000000	0.955045	7.36579e+06	-42439.1	955.818	-29783.3	0.000000	0.000000	6.955117	0.064546	NaN	0.000000	0.001617	0.001629	28.1181	0.169739	0.002025	83.8352	179.812	-164.525	0.040296	0.953797	-0.107314	-0.108563	0.064546	83.8352	-0.107892	-2.711444	-0.023805	NaN
76	1.000000	0.963060	7.36579e+06	-42439.1	955.819	-29783.3	0.000000	0.000000	6.963126	-0.067266	NaN	0.000000	0.001666	0.001637	28.1197	0.048757	0.002015	24.201	106.115	-164.574	-0.018129	0.961763	-0.099300	-0.100596	-0.067266	24.201	-0.097215	-1.583351	0.042483	NaN
76	1.000000	0.971052	7.36579e+06	-42439.1	955.819	-29783.3	0.000000	0.000000	6.971119	-0.054695	NaN	0.000000	0.001645	0.001677	28.1191	0.092618	0.002016	45.9329	106.034	-167.883	0.018630	0.969751	-0.091308	-0.092609	-0.054695	45.9329	-0.090415	-1.105435	0.049478	NaN
76	1.000000	0.979081	7.36579e+06	-42439.1	955.818	-29783.3	0.000000	0.000000	6.979152	0.034822	NaN	0.000000	0.001600	0.001630	28.1184	0.044538	0.002151	20.7037	74.3893	-163.818	0.028517	0.977773	-0.083278	-0.084587	0.034822	20.7037	-0.084540	-0.800801	-0.043484	NaN
76	1.000000	0.987069	7.36579e+06	-42439.1	955.819	-29783.3	0.000000	0.000000	6.987137	-0.031462	NaN	0.000000	0.001608	0.001643	28.1194	0.026856	0.002080	12.9104	-122.119	-168.218	0.048681	0.985815	-0.075291	-0.076545	-0.031462	12.9104	-0.073463	-0.421263	0.074685	NaN
76	1.000000	0.995045	7.36579e+06	-42439.1	955.819	-29783.3	0.000000	0.000000	6.995116	0.026404	NaN	0.000000	0.001627	0.001628	28.1187	0.034441	0.002013	17.1075	-99.5255	-167.864	0.034024	0.993762	-0.067314	-0.068598	0.026404	17.1075	-0.068472	-0.310269	-0.085100	NaN
76	1.000000	1.003079	7.36579e+06	-42439.1	955.819	-29783.3	0.000000	0.000000	7.003146	-0.067557	NaN	0.000000	0.001605	0.001667	28.1176	0.057147	0.002041	28.0046	149.451	-165.294	-0.112065	1.001790	-0.059281	-0.060570	-0.067557	28.0046	-0.057471	-0.152189	0.443904	NaN
76	1.000000	1.011121	7.36579e+06	-42439.1	955.819	-29783.3	0.000000	0.000000	7.011191	0.022074	NaN	0.000000	0.001609	0.001660	28.1179	0.072851	0.001934	37.6759	56.2294	-165.723	-0.047306	1.009755	-0.051238	-0.052604	0.022074	37.6759	-0.051678	-0.102522	-0.215310	NaN
76	1.000000	1.019083	7.36579e+06	-42439.1	955.819	-29783.3	0.000000	0.000000	7.019154	0.025200	NaN	0.000000	0.001596	0.001661	28.1175	0.036230	0.002023	17.9079	-65.9798	-166.934	0.024924	1.017815	-0.043276	-0.044545	0.025200	17.9079	-0.044332	-0.061313	-0.410999	NaN
76	1.000000	1.027098	7.36579e+06	-42439.1	955.817	-29783.3	0.000000	0.000000	7.027165	-0.068062	NaN	0.000000	0.001605	0.001643	28.1179	0.053542	0.001806	29.6441	51.9283	-166.97	0.002191	1.025762	-0.035262	-0.036598	-0.068062	29.6441	-0.033540	-0.029024	2.344983	NaN
76	1.000000	1.035083	7.36579e+06	-42439.1	955.819	-29783.3	0.000000	0.000000	7.035150	-0.038287	NaN	0.000000	0.001607	0.001648	28.1183	0.060992	0.002088	29.2065	75.1796	-165.499	-0.019165	1.033766	-0.027277	-0.028593	-0.038287	29.2065	-0.026294	-0.018247	2.098273	NaN
76	1.000000	1.043081	7.36579e+06	-42439.1	955.818	-29783.3	0.000000	0.000000	7.043150	0.005799	NaN	0.000000	0.001598	0.001663	28.1181	0.045275	0.001964	23.0577	139.001	-166.885	0.077797	1.041805	-0.019279	-0.020555	0.005799	23.0577	-0.019468	-0.012175	-0.476331	NaN
76	1.000000	1.051085	7.36579e+06	-42439.1	955.819	-29783.3	0.000000	0.000000	7.051154	-0.001480	NaN	0.000000	0.001588	0.001678	28.1173	0.117897	0.001984	59.4335	-102.912	-166.588	-0.027952	1.049782	-0.011275	-0.012578	-0.001480	59.4335	-0.011256	-0.007104	0.208370	NaN
76	1.000000	1.059106	7.36579e+06	-42439.1	955.819	-29783.3	0.000000	0.000000	7.059175	0.007545	NaN	0.000000	0.001590	0.001666	28.1173	0.115064	0.001987	57.9185	-146.937	-169.075	-0.036012	1.057772	-0.003254	-0.004588	0.007545	57.9185	-0.003352	-0.002355	-3.204263	NaN
76	1.000000	1.067060	7.36579e+06	-42439.1	955.818	-29783.3	0.000000	0.000000	7.067306	4.278714	NaN	0.000000	0.001621	0.001690	28.1166	4.990681	0.001768	2822.93	14.0702	-173.484	3.077830	1.065796	0.004701	0.003436	4.278714	2822.93	0.003564	0.002860	1495.99	48225.9
76	2.000000	1.071749	7.36579e+06	-42439.1	955.819	-29783.3	0.000000	0.000000	7.072168	8.507941	NaN	0.000000	0.001585	0.001674	28.117	9.069684	0.001649	5498.89	9.825822	-177.156	8.148973	1.071511	0.009390	0.009151	8.507941	5498.89	0.008229	0.007279	1168.82	58885.8
76	2.000000	1.073725	7.36579e+06	-42439.1	955.819	-29783.3	0.000000	0.000000	7.074292	12.1166	NaN	0.000000	0.001579	0.001676	28.1162	12.0931	0.001751	6907.16	6.851373	-176.424	11.4051	1.073366	0.011365	0.011007	12.1166	6907.16	0.010049	0.009236	1311.82	65662.9
76	2.000000	1.075729	7.36579e+06	-42439.1	955.818	-29783.3	0.000000	0.000000	7.076425	15.2574	NaN	0.000000	0.001536	0.001659	28.1162	13.2534	0.001570	8443.06	0.716939	-171.585	14.8953	1.075364	0.013369	0.013004	15.2574	8443.06	0.012014	0.011506	1325.99	71912.3
76	2.000000	1.077650	7.36579e+06	-42439.1	955.819	-29783.3	0.000000	0.000000	7.078420	17.0657	NaN	0.000000	0.001518	0.001688	28.1163	15.911	0.001874	8489.26	7.037277	-175.78	16.443	1.077424	0.015290	0.015065	17.0657	8489.26	0.013782	0.013696	1246.06	66275.2
76	2.000000	1.079688	7.36579e+06	-42439.1	955.818	-29783.3	0.000000	0.000000	7.080677	22.37	NaN	0.000000	0.001531	0.001661	28.116	17.5019	0.001713	10219.2	5.837103	-176.68	22.6124	1.079397	0.017328	0.017037	22.37	10219.2	0.015686	0.016212	1379.87	73329
76	2.000000	1.081659	7.36579e+06	-42439.1	955.819	-29783.3	0.000000	0.000000	7.082722	24.1673	NaN	0.000000	0.001569	0.001657	28.1166	18.5909	0.001715	10842.5	5.217101	-175.629	23.9792	1.081368	0.019299	0.019008	24.1673	10842.5	0.017628	0.018951	1275.27	71959.7
76	2.000000	1.083668	7.36579e+06	-42439.1	955.818	-29783.3	0.000000	0.000000	7.084905	28.4122	NaN	0.000000	0.001540	0.001727	28.117	21.9426	0.001712	12817	9.422082	177.363	27.887	1.083365	0.021309	0.021005	28.4122	12817	0.019646	0.021989	1292.1	78969
76	2.000000	1.085650	7.36579e+06	-42439.1	955.819	-29783.3	0.000000	0.000000	7.087180	35.5267	NaN	0.000000	0.001572	0.001692	28.1171	23.3777	0.001733	13486.8	6.726918	179.274	34.5106	1.085297	0.023291	0.022937	35.5267	13486.8	0.021315	0.024651	1441.19	78481.3
76	2.000000	1.087614	7.36579e+06	-42439.1	955.818	-29783.3	0.000000	0.000000	7.089168	36.1231	NaN	0.000000	0.001534	0.001673	28.1165	26.2951	0.001898	13854	3.611592	-178.22	35.0599	1.087338	0.025254	0.024978	36.1231	13854	0.023299	0.027993	1290.43	75652.8
76	2.000000	1.089693	7.36579e+06	-42439.1	955.818	-29783.3	0.000000	0.000000	7.091452	41.1277	NaN	0.000000	0.001568	0.001695	28.1171	27.6691	0.001875	14758.7	5.794248	-178.934	42.7638	1.089353	0.027333	0.026993	41.1277	14758.7	0.025243	0.031459	1307.33	76023.3
76	2.000000	1.091646	7.36579e+06	-42439.1	955.819	-29783.3	0.000000	0.000000	7.093674	47.6578	NaN	0.000000	0.001541	0.001701	28.1184	29.0178	0.001811	16021.6	6.260071	179.308	49.5203	1.091328	0.029286	0.028968	47.6578	16021.6	0.027056	0.034862	1367.06	78398.1
76	2.000000	1.093640	7.36579e+06	-42439.1	955.82	-29783.3	0.000000	0.000000	7.095852	52.1326	NaN	0.000000	0.001558	0.001690	28.1154	31.4607	0.001853	16980.2	5.871252	179.114	51.9413	1.093355	0.031280	0.030995	52.1326	16980.2	0.028978	0.038652	1348.78	78910.2
76	2.000000	1.095649	7.36579e+06	-42439.1	955.819	-29783.3	0.000000	0.000000	7.098054	56.8318	NaN	0.000000	0.001591	0.001701	28.116	33.1576	0.001840	18017.3	8.455682	174.293	57.8042	1.095342	0.033289	0.032982	56.8318	18017.3	0.030923	0.042679	1331.62	79681.2
76	2.000000	1.097644	7.36579e+06	-42439.1	955.819	-29783.3	0.000000	0.000000	7.100186	60.1705	NaN	0.000000	0.001596	0.001680	28.1157	35.0305	0.001818	19267.9	6.182367	177.673	59.6734	1.097343	0.035284	0.034983	60.1705	19267.9	0.032942	0.047063	1278.51	81146
76	2.000000	1.099608	7.36579e+06	-42439.1	955.819	-29783.3	0.000000	0.000000	7.102461	67.7239	NaN	0.000000	0.001565	0.001700	28.1171	36.4945	0.001771	20606.5	5.228984	178.152	67.2968	1.099263	0.037248	0.036903	67.7239	20606.5	0.034783	0.051243	1321.64	83169.2
76	2.000000	1.101607	7.36579e+06	-42439.1	955.818	-29783.3	0.000000	0.000000	7.104668	72.8049	NaN	0.000000	0.001578	0.001701	28.117	38.3605	0.001780	21547.3	5.681086	176.041	70.8671	1.101370	0.039247	0.039010	72.8049	21547.3	0.036713	0.055810	1304.52	83332.1
76	2.000000	1.103712	7.36579e+06	-42439.1	955.819	-29783.3	0.000000	0.000000	7.107102	80.7985	NaN	0.000000	0.001598	0.001700	28.1179	39.772	0.001854	21449.6	6.673654	177.318	84.4339	1.103321	0.041352	0.040961	80.7985	21449.6	0.038527	0.060278	1340.44	79820.4
76	2.000000	1.105639	7.36579e+06	-42439.1	955.819	-29783.3	0.000000	0.000000	7.109374	89.1754	NaN	0.000000	0.001605	0.001715	28.1174	41.4959	0.001879	22088.1	7.089037	176.501	89.6154	1.105194	0.043279	0.042834	89.1754	22088.1	0.040251	0.064680	1378.72	79350.1
76	2.000000	1.107624	7.36579e+06	-42439.1	955.819	-29783.3	0.000000	0.000000	7.111648	96.2158	NaN	0.000000	0.001560	0.001700	28.1179	43.8557	0.001807	24275.9	6.894047	174.132	95.1957	1.107267	0.045265	0.044908	96.2158	24275.9	0.042292	0.070086	1372.82	83778.4
76	2.000000	1.109602	7.36579e+06	-42439.1	955.819	-29783.3	0.000000	0.000000	7.113851	101.683	NaN	0.000000	0.001586	0.001656	28.1171	45.1186	0.001716	26299.4	4.858556	175.344	100.96	1.109443	0.047242	0.047083	101.683	26299.4	0.044343	0.075732	1342.67	87312.9
76	2.000000	1.111572	7.36579e+06	-42439.1	955.818	-29783.3	0.000000	0.000000	7.116250	112.14	NaN	0.000000	0.001578	0.001667	28.1178	46.6793	0.001767	26416.2	4.651381	175.568	110.427	1.111270	0.049212	0.048910	112.14	26416.2	0.046028	0.080533	1392.48	85046.7
76	2.000000	1.113610	7.36579e+06	-42439.1	955.819	-29783.3	0.000000	0.000000	7.118505	117.431	NaN	0.000000	0.001555	0.001667	28.1166	49.981	0.001717	29108.7	4.150859	174.657	116.652	1.113298	0.051250	0.050938	117.431	29108.7	0.048224	0.087003	1349.73	90163
76	2.000000	1.115575	7.36579e+06	-42439.1	955.819	-29783.3	0.000000	0.000000	7.121027	130.951	NaN	0.000000	0.001571	0.001695	28.1166	51.5562	0.001784	28893.7	9.875216	169.111	129.103	1.115178	0.053216	0.052818	130.951	28893.7	0.049817	0.091847	1425.75	87105.1
76	2.000000	1.117560	7.36579e+06	-42439.1	955.819	-29783.3	0.000000	0.000000	7.123222	136.059	NaN	0.000000	0.001570	0.001699	28.1178	53.4555	0.001905	28060.8	4.920271	175.667	133.478	1.117215	0.055201	0.054855	136.059	28060.8	0.051564	0.097309	1398.22	82185.9
76	2.000000	1.119592	7.36579e+06	-42439.1	955.819	-29783.3	0.000000	0.000000	7.125539	143.013	NaN	0.000000	0.001546	0.001679	28.1161	55.3929	0.001881	29444.3	4.488164	174.879	142.135	1.119309	0.057233	0.056949	143.013	29444.3	0.053590	0.103831	1377.36	83485.3
76	2.000000	1.121563	7.36579e+06	-42439.1	955.819	-29783.3	0.000000	0.000000	7.127879	151.988	NaN	0.000000	0.001599	0.001694	28.1164	56.3109	0.001661	33906.7	4.564715	173.197	149.271	1.121347	0.059203	0.058988	151.988	33906.7	0.055841	0.111319	1365.34	92848.1
76	2.000000	1.123537	7.36579e+06	-42439.1	955.82	-29783.3	0.000000	0.000000	7.130348	164.023	NaN	0.000000	0.001527	0.001689	28.1174	58.4308	0.001715	34070.8	1.603594	176.056	160.114	1.123296	0.061178	0.060936	164.023	34070.8	0.057567	0.117229	1399.17	90915.6
76	2.000000	1.125631	7.36579e+06	-42439.1	955.819	-29783.3	0.000000	0.000000	7.133176	181.905	NaN	0.000000	0.001578	0.001664	28.1172	60.1573	0.001799	33438.4	3.026912	175.872	185.234	1.125281	0.063271	0.062922	181.905	33438.4	0.059191	0.122923	1479.83	87136.8
76	2.000000	1.127557	7.36579e+06	-42439.1	955.819	-29783.3	0.000000	0.000000	7.135682	196.006	NaN	0.000000	0.001574	0.001722	28.118	63.3195	0.001842	34367.9	9.286767	169.78	195.08	1.127206	0.065197	0.064846	196.006	34367.9	0.060920	0.129127	1517.93	87381.1
76	2.000000	1.129689	7.36579e+06	-42439.1	955.821	-29783.3	0.000000	0.000000	7.138295	207.687	NaN	0.000000	0.001596	0.001710	28.1173	65.8034	0.001703	38633.6	9.216610	168.742	211.825	1.129284	0.067330	0.066924	207.687	38633.6	0.063298	0.137899	1506.08	95051.3
76	2.000000	1.131495	7.36579e+06	-42439.1	955.82	-29783.3	0.000000	0.000000	7.140586	219.5	NaN	0.000000	0.001586	0.001698	28.1171	66.4903	0.001762	37731.6	5.471136	171.761	216.083	1.131346	0.069136	0.068987	219.5	37731.6	0.064773	0.143477	1529.87	91009.8
76	2.000000	1.133569	7.36579e+06	-42439.1	955.82	-29783.3	0.000000	0.000000	7.143333	235.859	NaN	0.000000	0.001541	0.001708	28.1153	69.2089	0.001724	40152.8	4.574321	173.062	235.362	1.133167	0.071210	0.070807	235.859	40152.8	0.066804	0.151331	1558.56	94302.7
76	2.000000	1.135560	7.36579e+06	-42439.1	955.82	-29783.3	0.000000	0.000000	7.145819	247.933	NaN	0.000000	0.001635	0.001697	28.1151	69.9074	0.001749	39969.1	4.738488	172.82	246.211	1.135261	0.073200	0.072901	247.933	39969.1	0.068548	0.158230	1566.91	91802.1
76	2.000000	1.137503	7.36579e+06	-42439.1	955.82	-29783.3	0.000000	0.000000	7.148358	262.422	NaN	0.000000	0.001616	0.001733	28.115	73.5038	0.001759	41784.8	6.257724	170.392	257.372	1.137183	0.075143	0.074823	262.422	41784.8	0.070433	0.165853	1582.25	93740.9
76	2.000000	1.139599	7.36579e+06	-42439.1	955.819	-29783.3	0.000000	0.000000	7.150990	275.449	NaN	0.000000	0.001654	0.001686	28.1148	75.919	0.001788	42464.7	6.860355	170.24	273.251	1.139155	0.077240	0.076795	275.449	42464.7	0.072375	0.173882	1584.12	93040.9
76	2.000000	1.141673	7.36579e+06	-42439.1	955.82	-29783.3	0.000000	0.000000	7.153426	284.284	NaN	0.000000	0.001668	0.001713	28.1147	76.8929	0.001830	42023.1	4.994286	172.16	288.391	1.141244	0.079313	0.078885	284.284	42023.1	0.074240	0.181761	1564.05	90055.7
76	2.000000	1.143524	7.36579e+06	-42439.1	955.82	-29783.3	0.000000	0.000000	7.155980	301.386	NaN	0.000000	0.001668	0.001740	28.1167	79.3091	0.001885	42080.7	2.143515	174.693	298.666	1.143281	0.081164	0.080921	301.386	42080.7	0.075792	0.188446	1599.33	88565.3
76	2.000000	1.145473	7.36579e+06	-42439.1	955.819	-29783.3	0.000000	0.000000	7.158902	325.042	NaN	0.000000	0.001687	0.001737	28.1158	79.7217	0.001777	44854.4	3.790151	172.373	319.743	1.145189	0.083113	0.082829	325.042	44854.4	0.077678	0.196718	1652.33	92396.7
76	2.000000	1.147434	7.36579e+06	-42439.1	955.82	-29783.3	0.000000	0.000000	7.161243	334.308	NaN	0.000000	0.001584	0.001736	28.116	82.7098	0.001855	44591.3	6.101611	170.651	327.623	1.147102	0.085074	0.084743	334.308	44591.3	0.079451	0.204645	1633.6	90058.1
76	2.000000	1.149600	7.36579e+06	-42439.1	955.82	-29783.3	0.000000	0.000000	7.163668	340.592	NaN	0.000000	0.001569	0.001743	28.1158	84.0043	0.001756	47847.2	2.630884	173.346	340.005	1.149384	0.087240	0.087025	340.592	47847.2	0.081902	0.215844	1577.96	94093.6
76	2.000000	1.151593	7.36579e+06	-42439.1	955.82	-29783.3	0.000000	0.000000	7.166317	356.558	NaN	0.000000	0.001605	0.001714	28.1153	85.7913	0.001808	47454.1	4.702540	171.055	356.604	1.151358	0.089233	0.088998	356.558	47454.1	0.083598	0.223758	1593.5	91655.3
76	2.000000	1.153636	7.36579e+06	-42439.1	955.82	-29783.3	0.000000	0.000000	7.168960	371.15	NaN	0.000000	0.001597	0.001705	28.115	88.1858	0.001803	48897.4	2.317104	173.198	373.616	1.153303	0.091277	0.090943	371.15	48897.4	0.085584	0.233194	1591.59	92512.4
76	2.000000	1.155527	7.36579e+06	-42439.1	955.82	-29783.3	0.000000	0.000000	7.171696	391.709	NaN	0.000000	0.001602	0.001708	28.1142	89.0709	0.001717	51861.9	4.581007	170.574	390.398	1.155289	0.093168	0.092929	391.709	51861.9	0.087503	0.242486	1615.39	96222.9
76	2.000000	1.157538	7.36579e+06	-42439.1	955.82	-29783.3	0.000000	0.000000	7.174421	409.095	NaN	0.000000	0.001601	0.001725	28.1137	92.4077	0.001877	49220	3.157014	172.577	406.973	1.157199	0.095178	0.094840	409.095	49220	0.088944	0.249576	1639.16	90014.7
76	2.000000	1.159695	7.36579e+06	-42439.1	955.82	-29783.3	0.000000	0.000000	7.177120	422.287	NaN	0.000000	0.001588	0.001743	28.114	95.423	0.001907	50030.2	12.3246	164.37	427.606	1.159219	0.097335	0.096859	422.287	50030.2	0.091005	0.259877	1624.95	89664.6
76	2.000000	1.161413	7.36579e+06	-42439.1	955.821	-29783.3	0.000000	0.000000	7.179647	441.972	NaN	0.000000	0.001594	0.001717	28.1142	95.3932	0.001789	53324.9	6.303183	168.957	435.518	1.161077	0.099053	0.098718	441.972	53324.9	0.092837	0.269198	1641.81	93900.3
76	2.000000	1.163546	7.36579e+06	-42439.1	955.821	-29783.3	0.000000	0.000000	7.181938	445.815	NaN	0.000000	0.001570	0.001717	28.1158	97.7507	0.001760	55542.7	3.875279	171.006	446.323	1.163374	0.101186	0.101015	445.815	55542.7	0.095166	0.281275	1584.98	95682.9
76	2.000000	1.165502	7.36579e+06	-42439.1	955.82	-29783.3	0.000000	0.000000	7.185115	475.514	NaN	0.000000	0.001579	0.001688	28.1151	98.4832	0.001738	56658.9	5.017784	169.368	473.4	1.165226	0.103142	0.102866	475.514	56658.9	0.096848	0.290144	1638.89	96102.4
76	2.000000	1.167440	7.36579e+06	-42439.1	955.82	-29783.3	0.000000	0.000000	7.187642	489.857	NaN	0.000000	0.001587	0.001671	28.1166	99.844	0.001704	58585	4.206150	170.493	483.247	1.167148	0.105080	0.104788	489.857	58585	0.098809	0.300654	1629.31	97617.2
76	2.000000	1.168943	7.36579e+06	-42439.1	955.819	-29783.3	0.000000	0.000000	7.189565	500.069	NaN	0.000000	0.001571	0.001652	28.0826	101.827	0.001819	55988.6	6.438399	-11.8062	492.414	1.168620	0.106583	0.106261	500.069	55988.6	0.099884	0.306487	1631.62	92398.9