File: remote_trans/data/nanoindenter/0828-1/data/Data_2025-08-06,11h17m57s/2025-07-22_16-23-58_1_745.txt
2025-07-22, 16:23:58, 1
Index	Phase	Displacement	Time	Pos X	Pos Y	Pos Z	Rot A	Rot B	Piezo Z	Force A	Force B	Gripper	Voltage A	Voltage B	Temperature	Amplitude force	Amplitude pos	Stiffness	Phase shift	Phase excitation	Force A raw	Displacement raw	HMax	HMax raw	Real Force	Real Stiffness	Contact Depth	Area	Hardness	Reduced Mod.
[#]	[#]	[um]	[s]	[um]	[um]	[um]	[m°]	[m°]	[um]	[uN]	[uN]	[V]	[V]	[V]	[°C]	[uN]	[um]	[N/m]	[°]	[°]	[uN]	[um]	[um]	[um]	[uN]	[N/m]	[um]	[um^2]	[MPa]	[MPa]
745	1.000000	0.002585	7.37234e+06	-39839.1	1005.82	-29792.4	0.000000	0.000000	6.002733	0.019209	NaN	0.000000	0.001559	0.001716	28.0819	0.103574	0.000884	117.116	-154.058	173.992	-0.010774	0.001353	-1.103076	-1.104308	0.019209	117.116	-1.103199	-5.533645E+14	-3.471236E-17	NaN
745	1.000000	0.012652	7.37234e+06	-39839.1	1005.82	-29792.4	0.000000	0.000000	6.012797	-0.047421	NaN	0.000000	0.001614	0.001746	28.082	0.060485	0.001173	51.5805	32.9382	-3.814508	0.014556	0.011190	-1.093009	-1.094471	-0.047421	51.5805	-1.092320	-3.953314E+14	1.199530E-16	NaN
745	1.000000	0.022510	7.37234e+06	-39839.1	1005.82	-29792.4	0.000000	0.000000	6.022660	0.061206	NaN	0.000000	0.001624	0.001697	28.0815	0.062881	0.001658	37.9153	2.502805	177.233	0.021591	0.021182	-1.083151	-1.084479	0.061206	37.9153	-1.084362	-3.091020E+14	-1.980110E-16	NaN
745	1.000000	0.032514	7.37234e+06	-39839.1	1005.82	-29792.4	0.000000	0.000000	6.032661	-0.009867	NaN	0.000000	0.001607	0.001734	28.0817	0.080871	0.002063	39.2057	138.972	-3.356981	-0.046648	0.031191	-1.073148	-1.074470	-0.009867	39.2057	-1.072959	-2.172404E+14	4.541883E-17	NaN
745	1.000000	0.042509	7.37234e+06	-39839.1	1005.82	-29792.4	0.000000	0.000000	6.042655	-0.035145	NaN	0.000000	0.001606	0.001704	28.0817	0.097794	0.001933	50.5884	129.423	175.9	-0.011160	0.041167	-1.063152	-1.064494	-0.035145	50.5884	-1.062631	-1.578275E+14	2.226806E-16	NaN
745	1.000000	0.052536	7.37234e+06	-39839.1	1005.82	-29792.4	0.000000	0.000000	6.052683	-0.006850	NaN	0.000000	0.001572	0.001711	28.0816	0.086846	0.002047	42.4297	123.056	-6.791564	0.051823	0.051193	-1.053126	-1.054469	-0.006850	42.4297	-1.053005	-1.171661E+14	5.846228E-17	NaN
745	1.000000	0.062536	7.37234e+06	-39839.1	1005.82	-29792.4	0.000000	0.000000	6.062683	-0.011424	NaN	0.000000	0.001592	0.001740	28.0816	0.114096	0.002043	55.8585	144.049	176.559	-0.046005	0.061199	-1.043125	-1.044462	-0.011424	55.8585	-1.042972	-8.588609E+13	1.330186E-16	NaN
745	1.000000	0.072538	7.37234e+06	-39839.1	1005.82	-29792.4	0.000000	0.000000	6.072688	0.066835	NaN	0.000000	0.001599	0.001740	28.0817	0.117519	0.002062	57.0001	152.808	-5.659715	0.047916	0.071189	-1.033124	-1.034473	0.066835	57.0001	-1.034003	-6.506098E+13	-1.027267E-15	NaN
745	1.000000	0.082539	7.37234e+06	-39839.1	1005.82	-29792.4	0.000000	0.000000	6.082687	0.015184	NaN	0.000000	0.001587	0.001762	28.0818	0.108398	0.001966	55.1353	83.7138	178.884	0.071246	0.081283	-1.023122	-1.024378	0.015184	55.1353	-1.023329	-4.674524E+13	-3.248327E-16	NaN
745	1.000000	0.092571	7.37234e+06	-39839.1	1005.82	-29792.4	0.000000	0.000000	6.092718	-0.009144	NaN	0.000000	0.001624	0.001773	28.0818	0.096655	0.001972	49.0018	-142.079	-3.801308	-0.026367	0.091176	-1.013090	-1.014485	-0.009144	49.0018	-1.012950	-3.389094E+13	2.698037E-16	NaN
745	1.000000	0.102559	7.37234e+06	-39839.1	1005.82	-29792.4	0.000000	0.000000	6.102704	-0.060104	NaN	0.000000	0.001622	0.001754	28.0812	0.062638	0.002035	30.7875	-82.5609	178.831	-0.072318	0.101232	-1.003102	-1.004429	-0.060104	30.7875	-1.001638	-2.386826E+13	2.518141E-15	NaN
745	1.000000	0.112560	7.37234e+06	-39839.1	1005.82	-29792.4	0.000000	0.000000	6.112709	0.035554	NaN	0.000000	0.001606	0.001761	28.0804	0.017384	0.001927	9.021052	-11.8259	-5.208661	-0.043354	0.111162	-0.993101	-0.994499	0.035554	9.021052	-0.996057	-2.007613E+13	-1.770959E-15	NaN
745	1.000000	0.122579	7.37234e+06	-39839.1	1005.82	-29792.4	0.000000	0.000000	6.122727	0.016850	NaN	0.000000	0.001617	0.001722	28.0805	0.108877	0.001996	54.5443	-40.724	179.178	0.093112	0.121248	-0.983083	-0.984414	0.016850	54.5443	-0.983314	-1.352258E+13	-1.246100E-15	NaN
745	1.000000	0.132564	7.37234e+06	-39839.1	1005.82	-29792.4	0.000000	0.000000	6.132712	0.024461	NaN	0.000000	0.001628	0.001729	28.0804	0.098112	0.002019	48.5895	-22.2091	-2.884649	0.041109	0.131131	-0.973097	-0.974531	0.024461	48.5895	-0.973475	-9.965301E+12	-2.454649E-15	NaN
745	1.000000	0.142573	7.37234e+06	-39839.1	1005.82	-29792.4	0.000000	0.000000	6.142723	0.059642	NaN	0.000000	0.001588	0.001717	28.0805	0.090206	0.002024	44.5776	-161.779	175.596	0.077946	0.141259	-0.963088	-0.964402	0.059642	44.5776	-0.964091	-7.447697E+12	-8.008154E-15	NaN
745	1.000000	0.152558	7.37234e+06	-39839.1	1005.82	-29792.4	0.000000	0.000000	6.152706	0.013253	NaN	0.000000	0.001647	0.001741	28.0807	0.061874	0.002021	30.6153	-173.975	-4.088632	0.005481	0.151190	-0.953103	-0.954471	0.013253	30.6153	-0.953428	-5.348798E+12	-2.477785E-15	NaN
745	1.000000	0.162564	7.37234e+06	-39839.1	1005.82	-29792.4	0.000000	0.000000	6.162710	-0.026272	NaN	0.000000	0.001627	0.001742	28.0802	0.032015	0.002029	15.7788	136.816	175.331	-0.006438	0.161251	-0.943098	-0.944410	-0.026272	15.7788	-0.941849	-3.733182E+12	7.037296E-15	NaN
745	1.000000	0.172584	7.37234e+06	-39839.1	1005.82	-29792.4	0.000000	0.000000	6.172732	0.011659	NaN	0.000000	0.001605	0.001726	28.0804	0.128107	0.002111	60.6771	111.022	-4.551017	0.050985	0.171249	-0.933077	-0.934412	0.011659	60.6771	-0.933222	-2.855447E+12	-4.083189E-15	NaN
745	1.000000	0.182580	7.37234e+06	-39839.1	1005.82	-29792.4	0.000000	0.000000	6.182728	0.027543	NaN	0.000000	0.001636	0.001727	28.0803	0.085035	0.001940	43.8401	-161.907	178.768	-0.020891	0.181276	-0.923081	-0.924385	0.027543	43.8401	-0.923553	-2.114312E+12	-1.302689E-14	NaN
745	1.000000	0.192622	7.37234e+06	-39839.1	1005.82	-29792.4	0.000000	0.000000	6.192771	0.041960	NaN	0.000000	0.001583	0.001713	28.0805	0.097591	0.002110	46.251	-122.583	1.080418	-0.018345	0.191271	-0.913040	-0.914390	0.041960	46.251	-0.913720	-1.557419E+12	-2.694176E-14	NaN
745	1.000000	0.202613	7.37234e+06	-39839.1	1005.82	-29792.4	0.000000	0.000000	6.202763	0.058977	NaN	0.000000	0.001575	0.001732	28.0803	0.064496	0.002078	31.0303	-87.9575	176.491	0.070894	0.201238	-0.903048	-0.904423	0.058977	31.0303	-0.904473	-1.168169E+12	-5.048700E-14	NaN
745	1.000000	0.212616	7.37234e+06	-39839.1	1005.82	-29792.4	0.000000	0.000000	6.212764	0.007660	NaN	0.000000	0.001597	0.001718	28.0803	0.095332	0.001956	48.737	-94.8693	-1.977876	0.084167	0.211236	-0.893045	-0.894426	0.007660	48.737	-0.893163	-8.216195E+11	-9.323174E-15	NaN
745	1.000000	0.222616	7.37234e+06	-39839.1	1005.82	-29792.4	0.000000	0.000000	6.222766	0.065656	NaN	0.000000	0.001649	0.001703	28.0804	0.061159	0.001926	31.7461	7.329072	178.832	0.044881	0.221278	-0.883045	-0.884383	0.065656	31.7461	-0.884596	-6.292995E+11	-1.043318E-13	NaN
745	1.000000	0.232622	7.37234e+06	-39839.1	1005.82	-29792.4	0.000000	0.000000	6.232771	0.039920	NaN	0.000000	0.001634	0.001689	28.0805	0.013722	0.001856	7.393561	53.6132	-5.224847	0.069670	0.231268	-0.873040	-0.874394	0.039920	7.393561	-0.877089	-4.981276E+11	-8.013990E-14	NaN
745	1.000000	0.242619	7.37234e+06	-39839.1	1005.82	-29792.4	0.000000	0.000000	6.242767	0.021155	NaN	0.000000	0.001534	0.001704	28.0816	0.021813	0.001998	10.915	-61.3522	-177.289	0.022972	0.241293	-0.863043	-0.864368	0.021155	10.915	-0.864496	-3.364913E+11	-6.286815E-14	NaN
745	1.000000	0.252623	7.37234e+06	-39839.1	1005.82	-29792.4	0.000000	0.000000	6.252770	-0.011611	NaN	0.000000	0.001541	0.001714	28.0815	0.085711	0.002032	42.1809	155.771	-5.471981	0.000247	0.251264	-0.853038	-0.854397	-0.011611	42.1809	-0.852832	-2.339263E+11	4.963410E-14	NaN
745	1.000000	0.262639	7.37234e+06	-39839.1	1005.82	-29792.4	0.000000	0.000000	6.262788	0.031624	NaN	0.000000	0.001570	0.001736	28.0817	0.087290	0.002044	42.7117	-103.71	177.321	-0.021332	0.261308	-0.843022	-0.844353	0.031624	42.7117	-0.843577	-1.752893E+11	-1.804128E-13	NaN
745	1.000000	0.272636	7.37234e+06	-39839.1	1005.82	-29792.4	0.000000	0.000000	6.272787	0.081587	NaN	0.000000	0.001532	0.001708	28.0818	0.076500	0.001987	38.4935	-58.8024	-4.611800	0.051408	0.271279	-0.833025	-0.834383	0.081587	38.4935	-0.834615	-1.325334E+11	-6.155943E-13	NaN
745	1.000000	0.282645	7.37234e+06	-39839.1	1005.82	-29792.4	0.000000	0.000000	6.282791	-0.028982	NaN	0.000000	0.001524	0.001735	28.0815	0.047198	0.002066	22.8407	-162.572	175.24	-0.033713	0.281319	-0.823016	-0.824343	-0.028982	22.8407	-0.822065	-8.957902E+10	3.235343E-13	NaN
745	1.000000	0.292645	7.37234e+06	-39839.1	1005.82	-29792.4	0.000000	0.000000	6.292794	0.028372	NaN	0.000000	0.001574	0.001720	28.0816	0.066157	0.002074	31.8962	-40.5669	-4.239299	0.033077	0.291288	-0.813016	-0.814374	0.028372	31.8962	-0.813683	-6.895099E+10	-4.114847E-13	NaN
745	1.000000	0.302658	7.37234e+06	-39839.1	1005.82	-29792.4	0.000000	0.000000	6.302810	0.109767	NaN	0.000000	0.001593	0.001715	28.0817	0.058345	0.001896	30.7721	-115.004	177.729	0.128101	0.301307	-0.803003	-0.804355	0.109767	30.7721	-0.805678	-5.369487E+10	-2.044267E-12	NaN
745	1.000000	0.312624	7.37234e+06	-39839.1	1005.82	-29792.4	0.000000	0.000000	6.312770	-0.037470	NaN	0.000000	0.001563	0.001738	28.0817	0.053584	0.001989	26.9365	-101.425	-5.033835	-0.109735	0.311301	-0.793037	-0.794360	-0.037470	26.9365	-0.791994	-3.500725E+10	1.070337E-12	NaN
745	1.000000	0.322643	7.37234e+06	-39839.1	1005.82	-29792.4	0.000000	0.000000	6.322791	0.016922	NaN	0.000000	0.001583	0.001694	28.0818	0.063052	0.001997	31.5733	-130.719	178.355	-0.002668	0.321393	-0.783018	-0.784269	0.016922	31.5733	-0.783420	-2.677320E+10	-6.320346E-13	NaN
745	1.000000	0.332665	7.37234e+06	-39839.1	1005.82	-29792.4	0.000000	0.000000	6.332817	0.113313	NaN	0.000000	0.001551	0.001721	28.0818	0.030993	0.001969	15.743	-79.5975	-3.177955	0.063105	0.331353	-0.772996	-0.774308	0.113313	15.743	-0.778395	-2.287786E+10	-4.952954E-12	NaN
745	1.000000	0.342644	7.37234e+06	-39839.1	1005.82	-29792.4	0.000000	0.000000	6.342793	0.042251	NaN	0.000000	0.001567	0.001706	28.0819	0.037179	0.001992	18.6603	30.2693	174.544	0.077360	0.341336	-0.763018	-0.764325	0.042251	18.6603	-0.764716	-1.490898E+10	-2.833921E-12	NaN
745	1.000000	0.352659	7.37234e+06	-39839.1	1005.82	-29792.4	0.000000	0.000000	6.352806	-0.008108	NaN	0.000000	0.001544	0.001734	28.0819	0.087138	0.002058	42.3497	-108.007	-2.118924	-0.062746	0.351317	-0.753002	-0.754344	-0.008108	42.3497	-0.752859	-1.028322E+10	7.884865E-13	NaN
745	1.000000	0.362677	7.37234e+06	-39839.1	1005.82	-29792.4	0.000000	0.000000	6.362824	0.000699	NaN	0.000000	0.001584	0.001722	28.0816	0.095868	0.001990	48.1655	-109.008	-178.78	0.021197	0.361382	-0.742985	-0.744279	0.000699	48.1655	-0.742995	-7.548348E+9	-9.263086E-14	NaN
745	1.000000	0.372664	7.37234e+06	-39839.1	1005.82	-29792.4	0.000000	0.000000	6.372813	0.031631	NaN	0.000000	0.001641	0.001727	28.0818	0.083547	0.002000	41.7787	-11.6148	-4.153514	-0.023875	0.371319	-0.732997	-0.734342	0.031631	41.7787	-0.733565	-5.615528E+9	-5.632755E-12	NaN
745	1.000000	0.382665	7.37234e+06	-39839.1	1005.82	-29792.4	0.000000	0.000000	6.382810	-0.035461	NaN	0.000000	0.001680	0.001724	28.0804	0.018089	0.002120	8.530807	136.158	177.398	-0.097445	0.381321	-0.722997	-0.724340	-0.035461	8.530807	-0.719879	-3.654472E+9	9.703376E-12	NaN
745	1.000000	0.392660	7.37234e+06	-39839.1	1005.82	-29792.4	0.000000	0.000000	6.392807	-0.009824	NaN	0.000000	0.001643	0.001697	28.0806	0.093699	0.001989	47.1185	-84.0867	0.426677	0.007866	0.391368	-0.713001	-0.714293	-0.009824	47.1185	-0.712845	-2.929991E+9	3.352908E-12	NaN
745	1.000000	0.402687	7.37234e+06	-39839.1	1005.82	-29792.4	0.000000	0.000000	6.402835	0.007902	NaN	0.000000	0.001608	0.001718	28.0806	0.114392	0.001928	59.3213	109.304	177.719	0.035553	0.401408	-0.702974	-0.704253	0.007902	59.3213	-0.703074	-2.155316E+9	-3.666180E-12	NaN
745	1.000000	0.412680	7.37234e+06	-39839.1	1005.82	-29792.4	0.000000	0.000000	6.412828	0.014548	NaN	0.000000	0.001634	0.001746	28.0807	0.022639	0.001963	11.53	-111.586	-0.936134	-0.095729	0.411377	-0.692982	-0.694285	0.014548	11.53	-0.693928	-1.616559E+9	-8.999522E-12	NaN
745	1.000000	0.422686	7.37234e+06	-39839.1	1005.82	-29792.4	0.000000	0.000000	6.422833	-0.018785	NaN	0.000000	0.001651	0.001731	28.0806	0.067426	0.001938	34.7966	-22.0564	174.813	-0.003713	0.421363	-0.682975	-0.684298	-0.018785	34.7966	-0.682570	-1.130723E+9	1.661288E-11	NaN
745	1.000000	0.432702	7.37234e+06	-39839.1	1005.82	-29792.4	0.000000	0.000000	6.432853	0.065629	NaN	0.000000	0.001638	0.001733	28.0807	0.039228	0.002042	19.21	-67.7282	1.822211	0.108832	0.431344	-0.672959	-0.674317	0.065629	19.21	-0.675521	-9.056093E+8	-7.246915E-11	NaN
745	1.000000	0.442723	7.37234e+06	-39839.1	1005.82	-29792.4	0.000000	0.000000	6.442873	0.049273	NaN	0.000000	0.001645	0.001716	28.0807	0.103262	0.001956	52.7861	29.0948	176.805	0.035729	0.441371	-0.662938	-0.664290	0.049273	52.7861	-0.663638	-6.227227E+8	-7.912501E-11	NaN
745	1.000000	0.452723	7.37234e+06	-39839.1	1005.82	-29792.4	0.000000	0.000000	6.452867	-0.069555	NaN	0.000000	0.001665	0.001724	28.0809	0.115468	0.001931	59.786	-122.967	-0.394238	0.051007	0.451378	-0.652938	-0.654283	-0.069555	59.786	-0.652066	-4.322708E+8	1.609057E-10	NaN
745	1.000000	0.462708	7.37234e+06	-39839.1	1005.82	-29792.4	0.000000	0.000000	6.462856	0.002859	NaN	0.000000	0.001653	0.001700	28.0803	0.095143	0.001990	47.8099	-130.865	179.697	0.034496	0.461351	-0.642953	-0.644310	0.002859	47.8099	-0.642998	-3.246514E+8	-8.804849E-12	NaN
745	1.000000	0.472725	7.37234e+06	-39839.1	1005.82	-29792.4	0.000000	0.000000	6.472872	-0.007198	NaN	0.000000	0.001613	0.001714	28.0808	0.029197	0.002022	14.4382	175.608	-3.883242	0.031855	0.471320	-0.632936	-0.634342	-0.007198	14.4382	-0.632562	-2.334560E+8	3.083108E-11	NaN
745	1.000000	0.482724	7.37234e+06	-39839.1	1005.82	-29792.4	0.000000	0.000000	6.482871	-0.001669	NaN	0.000000	0.001637	0.001732	28.0807	0.035992	0.002009	17.9146	-124.244	176.796	-0.001063	0.481363	-0.622938	-0.624298	-0.001669	17.9146	-0.622868	-1.718092E+8	9.714911E-12	NaN
745	1.000000	0.492709	7.37234e+06	-39839.1	1005.82	-29792.4	0.000000	0.000000	6.492855	-0.031925	NaN	0.000000	0.001596	0.001708	28.0806	0.072893	0.002020	36.0938	39.9755	-0.280040	-0.098546	0.491389	-0.612952	-0.614272	-0.031925	36.0938	-0.612289	-1.229148E+8	2.597326E-10	NaN
745	1.000000	0.502719	7.37234e+06	-39839.1	1005.82	-29792.4	0.000000	0.000000	6.502866	-0.007266	NaN	0.000000	0.001621	0.001716	28.0805	0.025743	0.002108	12.2127	-90.4328	179.551	-0.082336	0.501465	-0.602942	-0.604196	-0.007266	12.2127	-0.602496	-9.012196E+7	8.062674E-11	NaN
745	1.000000	0.512766	7.37234e+06	-39839.1	1005.82	-29792.4	0.000000	0.000000	6.512912	-0.017483	NaN	0.000000	0.001620	0.001720	28.0811	0.100371	0.001999	50.21	-42.0032	-4.759950	0.031853	0.511354	-0.592896	-0.594307	-0.017483	50.21	-0.592634	-6.591455E+7	2.652365E-10	NaN
745	1.000000	0.522737	7.37234e+06	-39839.1	1005.82	-29792.4	0.000000	0.000000	6.522887	0.045288	NaN	0.000000	0.001613	0.001724	28.0819	0.046119	0.002135	21.605	111.594	175.56	-0.062431	0.521403	-0.582924	-0.584258	0.045288	21.605	-0.584496	-5.090517E+7	-8.896529E-10	NaN
745	1.000000	0.532746	7.37234e+06	-39839.1	1005.82	-29792.4	0.000000	0.000000	6.532891	-0.067453	NaN	0.000000	0.001599	0.001733	28.0818	0.110996	0.002019	54.987	-46.6597	-5.075168	-0.037255	0.531406	-0.572915	-0.574256	-0.067453	54.987	-0.571995	-3.421326E+7	1.971547E-9	NaN
745	1.000000	0.542714	7.37234e+06	-39839.1	1005.82	-29792.4	0.000000	0.000000	6.542859	-0.061843	NaN	0.000000	0.001595	0.001728	28.0817	0.119872	0.001991	60.2163	-143.368	176.322	-0.095012	0.541442	-0.562947	-0.564219	-0.061843	60.2163	-0.562177	-2.503179E+7	2.470589E-9	NaN
745	1.000000	0.552759	7.37234e+06	-39839.1	1005.82	-29792.4	0.000000	0.000000	6.552906	-0.018280	NaN	0.000000	0.001596	0.001731	28.0817	0.054364	0.001926	28.2214	-107.513	-1.123958	-0.071050	0.551433	-0.552902	-0.554229	-0.018280	28.2214	-0.552416	-1.834075E+7	9.966699E-10	NaN
745	1.000000	0.562746	7.37234e+06	-39839.1	1005.82	-29792.4	0.000000	0.000000	6.562893	-0.014938	NaN	0.000000	0.001579	0.001705	28.0819	0.015476	0.001944	7.960372	-54.5805	176.764	0.017766	0.561456	-0.542915	-0.544205	-0.014938	7.960372	-0.541507	-1.294974E+7	1.153570E-9	NaN
745	1.000000	0.572754	7.37234e+06	-39839.1	1005.82	-29792.4	0.000000	0.000000	6.572904	0.061324	NaN	0.000000	0.001571	0.001725	28.0816	0.065609	0.001972	33.2723	65.802	-3.290265	0.113950	0.571368	-0.532907	-0.534293	0.061324	33.2723	-0.534289	-1.028314E+7	-5.963561E-9	NaN
745	1.000000	0.582754	7.37234e+06	-39839.1	1005.82	-29792.4	0.000000	0.000000	6.582901	-0.008334	NaN	0.000000	0.001630	0.001736	28.0817	0.028715	0.002096	13.6976	-120.329	172.995	0.085271	0.581451	-0.522907	-0.524210	-0.008334	13.6976	-0.522451	-7.04163e+06	1.183500E-9	NaN
745	1.000000	0.592751	7.37234e+06	-39839.1	1005.82	-29792.4	0.000000	0.000000	6.592898	-0.001083	NaN	0.000000	0.001644	0.001681	28.0817	0.066434	0.002043	32.5191	32.2931	-0.601911	0.043122	0.591378	-0.512910	-0.514283	-0.001083	32.5191	-0.512885	-5.18318e+06	2.089526E-10	NaN
745	1.000000	0.602750	7.37234e+06	-39839.1	1005.82	-29792.4	0.000000	0.000000	6.602897	0.001968	NaN	0.000000	0.001618	0.001739	28.0818	0.084715	0.002023	41.878	72.0006	179.207	0.045527	0.601480	-0.502912	-0.504181	0.001968	41.878	-0.502947	-3.76807e+06	-5.223307E-10	NaN
745	1.000000	0.612761	7.37234e+06	-39839.1	1005.82	-29792.4	0.000000	0.000000	6.612907	-0.037703	NaN	0.000000	0.001636	0.001703	28.0816	0.079287	0.002063	38.4338	165.021	-2.781070	-0.009701	0.611446	-0.492900	-0.494215	-0.037703	38.4338	-0.492164	-2.66458e+06	1.414951E-8	NaN
745	1.000000	0.622779	7.37234e+06	-39839.1	1005.82	-29792.4	0.000000	0.000000	6.622924	-0.057349	NaN	0.000000	0.001595	0.001738	28.0815	0.076741	0.001984	38.6862	-60.8626	179.504	-0.056378	0.621486	-0.482882	-0.484175	-0.057349	38.6862	-0.481771	-1.90683e+06	3.007575E-8	NaN
745	1.000000	0.632785	7.37234e+06	-39839.1	1005.82	-29792.4	0.000000	0.000000	6.632932	-0.005059	NaN	0.000000	0.001696	0.001710	28.0816	0.063337	0.001907	33.2111	-175.171	-1.837551	-0.014593	0.631444	-0.472876	-0.474218	-0.005059	33.2111	-0.472762	-1.42605e+06	3.547298E-9	NaN
745	1.000000	0.642767	7.37234e+06	-39839.1	1005.82	-29792.4	0.000000	0.000000	6.642911	-0.079340	NaN	0.000000	0.001694	0.001720	28.0818	0.062322	0.002044	30.4929	-175.884	175.173	-0.051662	0.641468	-0.462894	-0.464193	-0.079340	30.4929	-0.460942	-973333	8.151407E-8	NaN
745	1.000000	0.652795	7.37234e+06	-39839.1	1005.82	-29792.4	0.000000	0.000000	6.652941	-0.045110	NaN	0.000000	0.001688	0.001724	28.0802	0.038822	0.002021	19.208	-78.9813	-3.462449	-0.076219	0.651432	-0.452866	-0.454230	-0.045110	19.208	-0.451105	-707778	6.373532E-8	NaN
745	1.000000	0.662803	7.37234e+06	-39839.1	1005.82	-29792.4	0.000000	0.000000	6.662950	-0.004995	NaN	0.000000	0.001652	0.001722	28.0802	0.055229	0.001972	28.0089	-178.587	173.471	-0.015244	0.661504	-0.442858	-0.444158	-0.004995	28.0089	-0.442724	-539264	9.262504E-9	NaN
745	1.000000	0.672801	7.37234e+06	-39839.1	1005.82	-29792.4	0.000000	0.000000	6.672947	-0.022732	NaN	0.000000	0.001638	0.001715	28.0802	0.041551	0.001947	21.3405	-132.315	-2.501350	-0.002639	0.671531	-0.432861	-0.434130	-0.022732	21.3405	-0.432062	-381260	5.962298E-8	NaN
745	1.000000	0.682801	7.37234e+06	-39839.1	1005.82	-29792.4	0.000000	0.000000	6.682947	-0.044153	NaN	0.000000	0.001668	0.001700	28.0803	0.085080	0.002032	41.8752	160.985	178.919	-0.018324	0.681439	-0.422860	-0.424222	-0.044153	41.8752	-0.422069	-275265	1.604013E-7	NaN
745	1.000000	0.692813	7.37234e+06	-39839.1	1005.82	-29792.4	0.000000	0.000000	6.692960	-0.018938	NaN	0.000000	0.001643	0.001741	28.0801	0.016946	0.002159	7.850053	-166.171	-2.572374	-0.050587	0.691425	-0.412848	-0.414236	-0.018938	7.850053	-0.411038	-191940	9.866718E-8	NaN
745	1.000000	0.702807	7.37234e+06	-39839.1	1005.82	-29792.4	0.000000	0.000000	6.702954	-0.009452	NaN	0.000000	0.001659	0.001725	28.0801	0.143898	0.002015	71.4005	-102.696	176.309	-0.064354	0.701539	-0.402855	-0.404122	-0.009452	71.4005	-0.402755	-146310	6.460364E-8	NaN
745	1.000000	0.712824	7.37234e+06	-39839.1	1005.82	-29792.4	0.000000	0.000000	6.712972	0.015853	NaN	0.000000	0.001653	0.001731	28.0805	0.137274	0.002087	65.7667	40.8064	-5.173120	-0.055987	0.711485	-0.392837	-0.394176	0.015853	65.7667	-0.393018	-106246	-1.492096E-7	NaN
745	1.000000	0.722828	7.37234e+06	-39839.1	1005.82	-29792.4	0.000000	0.000000	6.722973	-0.047831	NaN	0.000000	0.001647	0.001715	28.0802	0.051540	0.001879	27.4259	-69.0561	177.727	-0.019478	0.721487	-0.382834	-0.384174	-0.047831	27.4259	-0.381526	-72740.9	6.575507E-7	NaN
745	1.000000	0.732818	7.37234e+06	-39839.1	1005.82	-29792.4	0.000000	0.000000	6.732966	-0.004319	NaN	0.000000	0.001572	0.001726	28.0804	0.101028	0.002126	47.5158	84.9875	0.536198	0.076583	0.731503	-0.372843	-0.374159	-0.004319	47.5158	-0.372775	-54458.6	7.931603E-8	NaN
745	1.000000	0.742812	7.37234e+06	-39839.1	1005.82	-29792.4	0.000000	0.000000	6.742960	0.007915	NaN	0.000000	0.001596	0.001696	28.0804	0.074144	0.001959	37.8438	101.557	176.698	0.025405	0.741489	-0.362849	-0.364172	0.007915	37.8438	-0.363006	-39379.7	-2.010017E-7	NaN
745	1.000000	0.752790	7.37234e+06	-39839.1	1005.82	-29792.4	0.000000	0.000000	6.752937	-0.001962	NaN	0.000000	0.001572	0.001724	28.0805	0.042750	0.002050	20.8574	101.767	-4.904840	-0.022270	0.751521	-0.352871	-0.354141	-0.001962	20.8574	-0.352801	-28030.5	7.000235E-8	NaN
745	1.000000	0.762823	7.37234e+06	-39839.1	1005.82	-29792.4	0.000000	0.000000	6.762970	-0.006250	NaN	0.000000	0.001557	0.001761	28.0803	0.037522	0.002049	18.3159	-127.534	178.994	0.046321	0.761534	-0.342838	-0.344127	-0.006250	18.3159	-0.342583	-19914.8	3.138454E-7	NaN
745	1.000000	0.772825	7.37234e+06	-39839.1	1005.82	-29792.4	0.000000	0.000000	6.772973	0.012520	NaN	0.000000	0.001573	0.001724	28.0805	0.053647	0.002073	25.876	-135	-0.893303	-0.060213	0.771472	-0.332836	-0.334190	0.012520	25.876	-0.333199	-14530	-8.616890E-7	NaN
745	1.000000	0.782831	7.37234e+06	-39839.1	1005.82	-29792.4	0.000000	0.000000	6.782976	-0.056072	NaN	0.000000	0.001604	0.001725	28.0804	0.060529	0.001958	30.9108	-138.44	177.661	0.034629	0.781511	-0.322831	-0.324151	-0.056072	30.9108	-0.321470	-9778.4	5.734301E-6	NaN
745	1.000000	0.792861	7.37234e+06	-39839.1	1005.82	-29792.4	0.000000	0.000000	6.793007	-0.047594	NaN	0.000000	0.001573	0.001728	28.0819	0.018915	0.002197	8.609600	-22.8358	-7.937362	-0.056896	0.791492	-0.312800	-0.314169	-0.047594	8.609600	-0.308654	-6325.96	7.523544E-6	NaN
745	1.000000	0.802851	7.37234e+06	-39839.1	1005.82	-29792.4	0.000000	0.000000	6.803000	0.047849	NaN	0.000000	0.001607	0.001735	28.0815	0.071988	0.002095	34.3628	-56.7245	179.414	-0.033108	0.801565	-0.302810	-0.304097	0.047849	34.3628	-0.303855	-5369.68	-8.910968E-6	NaN
745	1.000000	0.812869	7.37234e+06	-39839.1	1005.82	-29792.4	0.000000	0.000000	6.813017	0.016254	NaN	0.000000	0.001615	0.001711	28.0817	0.040546	0.002029	19.9847	6.409478	-4.003082	0.017485	0.811516	-0.292792	-0.294146	0.016254	19.9847	-0.293402	-3751.59	-4.332652E-6	NaN
745	1.000000	0.822843	7.37234e+06	-39839.1	1005.82	-29792.4	0.000000	0.000000	6.822991	-0.001384	NaN	0.000000	0.001610	0.001722	28.0817	0.060525	0.002024	29.9068	-152.485	179.352	0.013382	0.821581	-0.282818	-0.284080	-0.001384	29.9068	-0.282783	-2599.65	5.323049E-7	NaN
745	1.000000	0.832885	7.37234e+06	-39839.1	1005.82	-29792.4	0.000000	0.000000	6.833031	-0.029186	NaN	0.000000	0.001621	0.001735	28.0817	0.024365	0.002032	11.9909	-48.2975	-2.609934	-0.066787	0.831503	-0.272776	-0.274158	-0.029186	11.9909	-0.270951	-1721.83	1.695053E-5	NaN
745	1.000000	0.842879	7.37234e+06	-39839.1	1005.82	-29792.4	0.000000	0.000000	6.843029	0.062759	NaN	0.000000	0.001591	0.001715	28.0815	0.036889	0.001927	19.1412	-168.522	176.968	0.115681	0.841507	-0.262782	-0.264155	0.062759	19.1412	-0.265241	-1409.52	-4.452486E-5	NaN
745	1.000000	0.852857	7.37234e+06	-39839.1	1005.82	-29792.4	0.000000	0.000000	6.853004	-0.011559	NaN	0.000000	0.001571	0.001719	28.0819	0.069560	0.002004	34.7044	-160.402	-0.148356	-0.029415	0.851507	-0.252804	-0.254154	-0.011559	34.7044	-0.252555	-900.388	1.283731E-5	NaN
745	1.000000	0.862858	7.37235e+06	-39839.1	1005.82	-29792.4	0.000000	0.000000	6.863006	0.011648	NaN	0.000000	0.001615	0.001722	28.0817	0.071416	0.001991	35.8667	-160.319	173.93	0.052954	0.861616	-0.242803	-0.244045	0.011648	35.8667	-0.243046	-641.301	-1.816283E-5	NaN
745	1.000000	0.872876	7.37235e+06	-39839.1	1005.82	-29792.4	0.000000	0.000000	6.873024	-0.005495	NaN	0.000000	0.001598	0.001761	28.0818	0.137666	0.002061	66.8116	-99.9482	-4.184347	0.023925	0.871534	-0.232785	-0.234127	-0.005495	66.8116	-0.232723	-442.03	1.243130E-5	NaN
745	1.000000	0.882904	7.37235e+06	-39839.1	1005.82	-29792.4	0.000000	0.000000	6.883051	0.002026	NaN	0.000000	0.001619	0.001730	28.0815	0.073819	0.001918	38.4896	-130.426	174.116	-0.007497	0.881562	-0.222758	-0.224099	0.002026	38.4896	-0.222797	-307.82	-6.580972E-6	NaN
745	1.000000	0.892893	7.37235e+06	-39839.1	1005.82	-29792.4	0.000000	0.000000	6.893039	-0.031637	NaN	0.000000	0.001593	0.001691	28.0818	0.021807	0.001973	11.0509	160.453	-0.369442	0.043864	0.891553	-0.212769	-0.214108	-0.031637	11.0509	-0.210621	-196.281	0.000161	NaN
745	1.000000	0.902898	7.37235e+06	-39839.1	1005.82	-29792.4	0.000000	0.000000	6.903048	0.062947	NaN	0.000000	0.001572	0.001670	28.0817	0.114792	0.001883	60.96	52.0459	178.012	0.038835	0.901610	-0.202763	-0.204051	0.062947	60.96	-0.203538	-150.551	-0.000418	NaN
745	1.000000	0.912910	7.37235e+06	-39839.1	1005.82	-29792.4	0.000000	0.000000	6.913058	0.015472	NaN	0.000000	0.001605	0.001713	28.0816	0.025323	0.002075	12.2023	130.565	-0.399792	0.008707	0.911566	-0.192752	-0.194095	0.015472	12.2023	-0.193703	-103.678	-0.000149	NaN
745	1.000000	0.922875	7.37235e+06	-39839.1	1005.82	-29792.4	0.000000	0.000000	6.923025	0.061160	NaN	0.000000	0.001593	0.001728	28.0807	0.046252	0.001975	23.4209	-84.3723	174.477	0.016050	0.921615	-0.182787	-0.184046	0.061160	23.4209	-0.184745	-73.4233	-0.000833	NaN
745	1.000000	0.932907	7.37235e+06	-39839.1	1005.82	-29792.4	0.000000	0.000000	6.933054	-0.003439	NaN	0.000000	0.001630	0.001696	28.0807	0.027927	0.001898	14.712	169.034	-1.744945	0.015572	0.931499	-0.172755	-0.174162	-0.003439	14.712	-0.172579	-45.5284	7.552776E-5	NaN
745	1.000000	0.942912	7.37235e+06	-39839.1	1005.82	-29792.4	0.000000	0.000000	6.943059	-0.012343	NaN	0.000000	0.001598	0.001643	28.0804	0.054125	0.002054	26.3528	-124.679	176.795	-0.022030	0.941591	-0.162749	-0.164070	-0.012343	26.3528	-0.162398	-30.2321	0.000408	NaN
745	1.000000	0.952912	7.37235e+06	-39839.1	1005.82	-29792.4	0.000000	0.000000	6.953056	-0.099442	NaN	0.000000	0.001591	0.001687	28.0805	0.060443	0.002092	28.8936	49.3348	-0.935322	0.003836	0.951583	-0.152749	-0.154078	-0.099442	28.8936	-0.150168	-18.2416	0.005451	NaN
745	1.000000	0.962925	7.37235e+06	-39839.1	1005.82	-29792.4	0.000000	0.000000	6.963074	0.037568	NaN	0.000000	0.001599	0.001703	28.0805	0.078274	0.001876	41.7189	91.7706	179.125	0.065668	0.961586	-0.142736	-0.144075	0.037568	41.7189	-0.143411	-13.6996	-0.002742	NaN
745	1.000000	0.972922	7.37235e+06	-39839.1	1005.82	-29792.4	0.000000	0.000000	6.973069	-0.007152	NaN	0.000000	0.001628	0.001749	28.0808	0.052464	0.002062	25.4437	160.844	-4.818209	0.059541	0.971528	-0.132739	-0.134133	-0.007152	25.4437	-0.132528	-8.529187	0.000839	NaN
745	1.000000	0.982895	7.37235e+06	-39839.1	1005.82	-29792.4	0.000000	0.000000	6.983044	0.038322	NaN	0.000000	0.001630	0.001736	28.0806	0.096037	0.001927	49.8352	-124.48	-179.969	0.037433	0.981579	-0.122766	-0.124082	0.038322	49.8352	-0.123343	-5.637640	-0.006798	NaN
745	1.000000	0.992932	7.37235e+06	-39839.1	1005.82	-29792.4	0.000000	0.000000	6.993078	-0.046416	NaN	0.000000	0.001607	0.001739	28.0806	0.027474	0.001956	14.0475	65.6841	-0.401992	-0.080871	0.991546	-0.112729	-0.114116	-0.046416	14.0475	-0.110251	-3.042012	0.015258	NaN
745	1.000000	1.002913	7.37235e+06	-39839.1	1005.82	-29792.4	0.000000	0.000000	7.003062	0.040616	NaN	0.000000	0.001601	0.001774	28.0806	0.074529	0.002023	36.8426	-179.728	177.812	-0.029107	1.001582	-0.102749	-0.104079	0.040616	36.8426	-0.103575	-2.189220	-0.018553	NaN
745	1.000000	1.012885	7.37235e+06	-39839.1	1005.82	-29792.4	0.000000	0.000000	7.013031	-0.045626	NaN	0.000000	0.001596	0.001748	28.0808	0.101440	0.002056	49.3338	-164.3	-3.306319	-0.050001	1.011589	-0.092776	-0.094073	-0.045626	49.3338	-0.092083	-1.208867	0.037743	NaN
745	1.000000	1.022944	7.37235e+06	-39839.1	1005.82	-29792.4	0.000000	0.000000	7.023093	0.027358	NaN	0.000000	0.001596	0.001739	28.0807	0.058948	0.002041	28.883	107.594	177.874	-0.003353	1.021620	-0.082717	-0.084041	0.027358	28.883	-0.083427	-0.752352	-0.036364	NaN
745	1.000000	1.032921	7.37235e+06	-39839.1	1005.82	-29792.4	0.000000	0.000000	7.033066	-0.036852	NaN	0.000000	0.001561	0.001706	28.0805	0.135323	0.002035	66.5081	44.9647	-1.831578	-0.045266	1.031618	-0.072741	-0.074043	-0.036852	66.5081	-0.072325	-0.393254	0.093710	NaN
745	1.000000	1.042935	7.37235e+06	-39839.1	1005.82	-29792.4	0.000000	0.000000	7.043081	-0.035367	NaN	0.000000	0.001584	0.001693	28.0809	0.102854	0.001866	55.111	-37.3463	177.327	-0.040123	1.041641	-0.062726	-0.064020	-0.035367	55.111	-0.062245	-0.208651	0.169504	NaN
745	1.000000	1.052933	7.37235e+06	-39839.1	1005.82	-29792.4	0.000000	0.000000	7.053080	-0.006949	NaN	0.000000	0.001609	0.001705	28.0805	0.068369	0.002040	33.5097	148.829	-1.841140	0.024368	1.051561	-0.052729	-0.054100	-0.006949	33.5097	-0.052573	-0.109058	0.063722	NaN
745	1.000000	1.062940	7.37235e+06	-39839.1	1005.82	-29792.4	0.000000	0.000000	7.063088	0.001110	NaN	0.000000	0.001574	0.001687	28.0819	0.122214	0.001872	65.2921	94.8402	174.048	-0.030311	1.061618	-0.042721	-0.044043	0.001110	65.2921	-0.042734	-0.054789	-0.020264	NaN
745	1.000000	1.072956	7.37235e+06	-39839.1	1005.82	-29792.4	0.000000	0.000000	7.073104	0.023575	NaN	0.000000	0.001601	0.001698	28.0818	0.095738	0.001986	48.2174	47.4408	-6.898611	0.009190	1.071619	-0.032705	-0.034043	0.023575	48.2174	-0.033072	-0.028132	-0.837991	NaN
745	1.000000	1.082976	7.37235e+06	-39839.1	1005.82	-29792.4	0.000000	0.000000	7.083122	-0.035676	NaN	0.000000	0.001669	0.001690	28.0821	0.083756	0.001986	42.1834	114.196	178.229	0.015354	1.081665	-0.022685	-0.023996	-0.035676	42.1834	-0.022051	-0.014163	2.518926	NaN
745	1.000000	1.092963	7.37235e+06	-39839.1	1005.82	-29792.4	0.000000	0.000000	7.093110	-0.008479	NaN	0.000000	0.001687	0.001693	28.0817	0.103131	0.001945	53.0316	-137.486	-5.961523	-0.034843	1.091607	-0.012699	-0.014054	-0.008479	53.0316	-0.012579	-0.007860	1.078786	NaN
745	1.000000	1.102978	7.37235e+06	-39839.1	1005.82	-29792.4	0.000000	0.000000	7.103143	0.426608	NaN	0.000000	0.001695	0.001739	28.0817	0.647519	0.001988	325.661	14.5045	176.529	0.181656	1.101651	-0.002683	-0.004011	0.426608	325.661	-0.003666	-0.002561	-166.576	NaN
745	2.000000	1.112731	7.37235e+06	-39839.1	1005.82	-29792.4	0.000000	0.000000	7.113188	7.544409	NaN	0.000000	0.001619	0.001696	28.0818	7.962054	0.001587	5016.85	10.5176	-11.6874	6.546219	1.111606	0.007070	0.005945	7.544409	5016.85	0.005942	0.005009	1506.08	64761.3
745	2.000000	1.115638	7.37235e+06	-39839.1	1005.82	-29792.4	0.000000	0.000000	7.116203	10.1622	NaN	0.000000	0.001651	0.001710	28.0829	11.4981	0.001902	6043.97	10.0482	166.172	9.824805	1.115327	0.009977	0.009666	10.1622	6043.97	0.008716	0.007789	1304.73	62569.5
745	2.000000	1.118116	7.37235e+06	-39839.1	1005.82	-29792.4	0.000000	0.000000	7.118772	12.3742	NaN	0.000000	0.001640	0.001711	28.0818	13.0492	0.001721	7582.25	5.353215	-9.913800	11.6756	1.117736	0.012455	0.012074	12.3742	7582.25	0.011231	0.010582	1169.37	67342.5
745	2.000000	1.120607	7.37235e+06	-39839.1	1005.82	-29792.4	0.000000	0.000000	7.121476	17.5653	NaN	0.000000	0.001623	0.001745	28.0818	15.2906	0.001590	9618.54	0.001853	171.269	16.8238	1.120312	0.014946	0.014651	17.5653	9618.54	0.013576	0.013433	1307.62	75822
745	2.000000	1.123110	7.37235e+06	-39839.1	1005.82	-29792.4	0.000000	0.000000	7.124125	21.1047	NaN	0.000000	0.001632	0.001733	28.0818	18.1107	0.001726	10494	6.053599	-13.1131	21.2029	1.122800	0.017449	0.017139	21.1047	10494	0.015941	0.016560	1274.41	74503.9
745	2.000000	1.125593	7.37235e+06	-39839.1	1005.82	-29792.4	0.000000	0.000000	7.126823	26.3627	NaN	0.000000	0.001612	0.001721	28.0835	21.175	0.001767	11985.6	5.348002	166.268	26.3445	1.125346	0.019931	0.019685	26.3627	11985.6	0.018282	0.019914	1323.85	77599.4
745	2.000000	1.128119	7.37235e+06	-39839.1	1005.82	-29792.4	0.000000	0.000000	7.129615	32.8335	NaN	0.000000	0.001623	0.001701	28.0819	23.5399	0.001738	13543.2	5.879141	-15.5809	32.6215	1.127798	0.022457	0.022137	32.8335	13543.2	0.020639	0.023557	1393.82	80619
745	2.000000	1.130572	7.37235e+06	-39839.1	1005.82	-29792.4	0.000000	0.000000	7.132339	39.4151	NaN	0.000000	0.001597	0.001731	28.082	25.9453	0.001754	14790	4.130277	166.141	38.8965	1.130248	0.024911	0.024587	39.4151	14790	0.022912	0.027326	1442.41	81743.8
745	2.000000	1.133091	7.37235e+06	-39839.1	1005.82	-29792.4	0.000000	0.000000	7.135060	44.3324	NaN	0.000000	0.001602	0.001708	28.0819	28.6574	0.001834	15622.2	5.518715	-16.151	43.8483	1.132738	0.027430	0.027076	44.3324	15622.2	0.025301	0.031566	1404.43	80335.1
745	2.000000	1.135579	7.37235e+06	-39839.1	1005.82	-29792.4	0.000000	0.000000	7.137933	53.6953	NaN	0.000000	0.001604	0.001719	28.0817	31.2416	0.001676	18644.9	5.353265	162.07	53.5922	1.135275	0.029918	0.029614	53.6953	18644.9	0.027758	0.036225	1482.26	89500.7
745	2.000000	1.138092	7.37235e+06	-39839.1	1005.82	-29792.4	0.000000	0.000000	7.140771	61.6194	NaN	0.000000	0.001647	0.001694	28.0805	33.2842	0.001769	18812.4	5.769950	-17.5698	60.8505	1.137692	0.032430	0.032031	61.6194	18812.4	0.029974	0.040689	1514.39	85207.5
745	2.000000	1.140489	7.37235e+06	-39839.1	1005.82	-29792.4	0.000000	0.000000	7.143509	69.913	NaN	0.000000	0.001634	0.001738	28.0812	35.761	0.001805	19809	3.762532	161.995	66.4127	1.140145	0.034827	0.034484	69.913	19809	0.032180	0.045384	1540.47	84954.2
745	2.000000	1.143100	7.37235e+06	-39839.1	1005.82	-29792.4	0.000000	0.000000	7.146276	73.6851	NaN	0.000000	0.001606	0.001756	28.0805	37.8257	0.001691	22367.4	3.514166	-18.5684	74.4399	1.142765	0.037439	0.037104	73.6851	22367.4	0.034968	0.051673	1426	89899.8
745	2.000000	1.145638	7.37235e+06	-39839.1	1005.82	-29792.4	0.000000	0.000000	7.148960	77.2415	NaN	0.000000	0.001604	0.001743	28.0808	40.1256	0.001784	22491.4	3.464437	162.374	82.6561	1.145308	0.039977	0.039646	77.2415	22491.4	0.037401	0.057485	1343.68	85706
745	2.000000	1.148067	7.37235e+06	-39839.1	1005.82	-29792.4	0.000000	0.000000	7.152169	96.2427	NaN	0.000000	0.001610	0.001769	28.0804	41.0374	0.001964	20892.1	6.638610	-18.6487	94.4349	1.147527	0.042406	0.041866	96.2427	20892.1	0.038951	0.061345	1568.88	77066.6
745	2.000000	1.150533	7.37235e+06	-39839.1	1005.82	-29792.4	0.000000	0.000000	7.154789	99.972	NaN	0.000000	0.001599	0.001731	28.0809	44.8173	0.001778	25210.3	6.187181	159.671	99.3123	1.150118	0.044872	0.044457	99.972	25210.3	0.041898	0.069025	1448.35	87669.8
745	2.000000	1.153014	7.37235e+06	-39839.1	1005.82	-29792.4	0.000000	0.000000	7.157638	108.944	NaN	0.000000	0.001608	0.001720	28.0804	46.9458	0.001753	26778.3	2.402113	-18.3809	107.399	1.152716	0.047353	0.047055	108.944	26778.3	0.044301	0.075616	1440.75	88971.2
745	2.000000	1.155502	7.37235e+06	-39839.1	1005.82	-29792.4	0.000000	0.000000	7.160421	116.131	NaN	0.000000	0.001577	0.001740	28.0808	50.2451	0.001812	27723.6	-0.199522	163.119	114.421	1.155270	0.049841	0.049609	116.131	27723.6	0.046699	0.082483	1407.93	88194.2
745	2.000000	1.158024	7.37235e+06	-39839.1	1005.82	-29792.4	0.000000	0.000000	7.163588	131.819	NaN	0.000000	0.001616	0.001772	28.0805	52.056	0.001874	27775.2	4.296611	-19.5049	128.597	1.157653	0.052362	0.051992	131.819	27775.2	0.048803	0.088749	1485.3	85182.4
745	2.000000	1.160492	7.37235e+06	-39839.1	1005.82	-29792.4	0.000000	0.000000	7.166631	145.79	NaN	0.000000	0.001597	0.001770	28.0806	54.3103	0.001911	28414.1	5.212585	158.871	143.647	1.160156	0.054831	0.054495	145.79	28414.1	0.050983	0.095475	1527.01	84016.3
745	2.000000	1.162982	7.37235e+06	-39839.1	1005.82	-29792.4	0.000000	0.000000	7.169378	152.055	NaN	0.000000	0.001619	0.001750	28.0807	57.8861	0.001848	31317.9	5.638133	-22.8713	147.068	1.162651	0.057321	0.056989	152.055	31317.9	0.053679	0.104124	1460.33	88673
745	2.000000	1.165501	7.37235e+06	-39839.1	1005.82	-29792.4	0.000000	0.000000	7.172277	161.297	NaN	0.000000	0.001614	0.001737	28.0805	59.4098	0.001747	34000.8	5.282053	157.252	158.845	1.165188	0.059840	0.059527	161.297	34000.8	0.056282	0.112814	1429.77	92487.1
745	2.000000	1.168011	7.37235e+06	-39839.1	1005.82	-29792.4	0.000000	0.000000	7.175277	173.234	NaN	0.000000	0.001599	0.001735	28.0815	61.0528	0.001867	32694	3.042861	-20.454	170.027	1.167757	0.062350	0.062096	173.234	32694	0.058376	0.120049	1443.03	86211
745	2.000000	1.170596	7.37235e+06	-39839.1	1005.82	-29792.4	0.000000	0.000000	7.178416	186.708	NaN	0.000000	0.001587	0.001743	28.0816	63.3626	0.001710	37046	5.792435	156.3	191.199	1.170176	0.064935	0.064514	186.708	37046	0.061155	0.129983	1436.4	93879.4
745	2.000000	1.172984	7.37235e+06	-39839.1	1005.82	-29792.4	0.000000	0.000000	7.181718	208.943	NaN	0.000000	0.001575	0.001768	28.0819	64.772	0.001717	37718.5	0.575040	-18.541	205.727	1.172620	0.067323	0.066958	208.943	37718.5	0.063168	0.137414	1520.53	92963.5
745	2.000000	1.175523	7.37235e+06	-39839.1	1005.82	-29792.4	0.000000	0.000000	7.184325	210.592	NaN	0.000000	0.001603	0.001757	28.0818	68.6456	0.001757	39072.9	0.936104	159.685	208.791	1.175382	0.069862	0.069721	210.592	39072.9	0.065820	0.147500	1427.75	92950.9
745	2.000000	1.178077	7.37235e+06	-39839.1	1005.82	-29792.4	0.000000	0.000000	7.187787	232.696	NaN	0.000000	0.001583	0.001752	28.0817	71.645	0.001873	38261.1	7.615385	-25.5827	233.113	1.177630	0.072416	0.071968	232.696	38261.1	0.067855	0.155471	1496.72	88655.5
745	2.000000	1.180493	7.37235e+06	-39839.1	1005.82	-29792.4	0.000000	0.000000	7.190954	250.964	NaN	0.000000	0.001569	0.001780	28.0816	72.2514	0.001789	40385.3	5.952046	155.476	249.538	1.180054	0.074832	0.074393	250.964	40385.3	0.070171	0.164786	1522.97	90894.4
745	2.000000	1.182968	7.37235e+06	-39839.1	1005.82	-29792.4	0.000000	0.000000	7.194139	268.248	NaN	0.000000	0.001617	0.001720	28.082	74.9851	0.001820	41195	3.173757	-22.2723	265.943	1.182752	0.077307	0.077091	268.248	41195	0.072423	0.174084	1540.91	90206.7
745	2.000000	1.185486	7.37235e+06	-39839.1	1005.82	-29792.4	0.000000	0.000000	7.197436	287.205	NaN	0.000000	0.001621	0.001737	28.0817	77.306	0.001742	44373.2	2.884608	157.435	285.513	1.185087	0.079825	0.079426	287.205	44373.2	0.074971	0.184894	1553.35	94283
745	2.000000	1.187980	7.37235e+06	-39839.1	1005.82	-29792.4	0.000000	0.000000	7.200891	310.573	NaN	0.000000	0.001580	0.001735	28.0818	78.2206	0.001793	43614.9	2.146226	-20.9948	307.442	1.187575	0.082319	0.081913	310.573	43614.9	0.076979	0.193629	1603.96	90557.4
745	2.000000	1.190519	7.37235e+06	-39839.1	1005.82	-29792.4	0.000000	0.000000	7.203836	320.476	NaN	0.000000	0.001577	0.001738	28.0819	80.9107	0.001767	45791.9	2.632637	157.448	320.495	1.190169	0.084858	0.084508	320.476	45791.9	0.079609	0.205356	1560.59	92322.7
745	2.000000	1.192930	7.37235e+06	-39839.1	1005.82	-29792.4	0.000000	0.000000	7.206946	337.484	NaN	0.000000	0.001585	0.001714	28.0819	83.6294	0.001855	45073.1	1.622451	-20.9548	331.812	1.192532	0.087268	0.086871	337.484	45073.1	0.081653	0.214693	1571.94	88875.4
745	2.000000	1.195485	7.37235e+06	-39839.1	1005.82	-29792.4	0.000000	0.000000	7.210422	359.895	NaN	0.000000	0.001580	0.001776	28.0818	85.9447	0.001709	50296.6	3.361544	156.294	359.629	1.195127	0.089823	0.089465	359.895	50296.6	0.084457	0.227817	1579.76	96276.2
745	2.000000	1.197958	7.37235e+06	-39839.1	1005.82	-29792.4	0.000000	0.000000	7.213644	378.142	NaN	0.000000	0.001598	0.001789	28.082	87.2616	0.001777	49106.9	1.991366	-22.2991	375.576	1.197631	0.092296	0.091970	378.142	49106.9	0.086521	0.237711	1590.76	92021.8
745	2.000000	1.200450	7.37235e+06	-39839.1	1005.82	-29792.4	0.000000	0.000000	7.216976	398.541	NaN	0.000000	0.001614	0.001731	28.082	88.775	0.001805	49186.7	3.795054	155.995	395.17	1.200170	0.094789	0.094509	398.541	49186.7	0.088712	0.248428	1604.25	90161.4
745	2.000000	1.202987	7.37235e+06	-39839.1	1005.82	-29792.4	0.000000	0.000000	7.220456	421.517	NaN	0.000000	0.001647	0.001736	28.0805	91.6357	0.001788	51237.6	2.749714	-23.3368	419.827	1.202629	0.097326	0.096968	421.517	51237.6	0.091156	0.260638	1617.25	91694.3
745	2.000000	1.205448	7.37235e+06	-39839.1	1005.82	-29792.4	0.000000	0.000000	7.223276	430.252	NaN	0.000000	0.001588	0.001731	28.0805	94.2958	0.001712	55086.6	4.107172	154.363	428.438	1.205295	0.099787	0.099634	430.252	55086.6	0.093929	0.274830	1565.52	96003.5
745	2.000000	1.207925	7.37235e+06	-39839.1	1005.82	-29792.4	0.000000	0.000000	7.227159	464.47	NaN	0.000000	0.001588	0.001767	28.0807	95.4298	0.001893	50406.6	3.319049	-22.9815	459.76	1.207461	0.102263	0.101800	464.47	50406.6	0.095352	0.282250	1645.6	86684.9
745	2.000000	1.210370	7.37235e+06	-39839.1	1005.82	-29792.4	0.000000	0.000000	7.230421	484.337	NaN	0.000000	0.001594	0.001768	28.0806	98.5177	0.001880	52391.6	4.970319	154.385	478.528	1.210101	0.104709	0.104439	484.337	52391.6	0.097776	0.295093	1641.3	88116.1
745	2.000000	1.211481	7.37235e+06	-39839.1	1005.82	-29792.4	0.000000	0.000000	7.232000	495.735	NaN	0.000000	0.001610	0.001743	28.0805	100.367	0.001899	52859.1	6.530748	152.746	492.825	1.211063	0.105820	0.105402	495.735	52859.1	0.098786	0.300527	1649.55	88095