File: remote_trans/data/nanoindenter/0828-1/data/Data_2025-08-06,11h17m57s/2025-07-22_16-23-58_1_1102.txt
2025-07-22, 16:23:58, 1
Index	Phase	Displacement	Time	Pos X	Pos Y	Pos Z	Rot A	Rot B	Piezo Z	Force A	Force B	Gripper	Voltage A	Voltage B	Temperature	Amplitude force	Amplitude pos	Stiffness	Phase shift	Phase excitation	Force A raw	Displacement raw	HMax	HMax raw	Real Force	Real Stiffness	Contact Depth	Area	Hardness	Reduced Mod.
[#]	[#]	[um]	[s]	[um]	[um]	[um]	[m°]	[m°]	[um]	[uN]	[uN]	[V]	[V]	[V]	[°C]	[uN]	[um]	[N/m]	[°]	[°]	[uN]	[um]	[um]	[um]	[uN]	[N/m]	[um]	[um^2]	[MPa]	[MPa]
1102	1.000000	0.002512	7.37583e+06	-55239.1	1055.82	-29741.9	0.000000	0.000000	6.002803	-0.041638	NaN	0.000000	0.001650	0.001700	28.083	0.063057	0.000978	64.4996	135.935	-169.147	-0.129273	0.001210	-1.167482	-1.168785	-0.041638	64.4996	-1.166998	-3.968826E+15	1.049124E-17	NaN
1102	1.000000	0.012597	7.37583e+06	-55239.1	1055.82	-29741.9	0.000000	0.000000	6.012886	-0.076695	NaN	0.000000	0.001682	0.001687	28.0832	0.034752	0.001252	27.7582	-100.655	13.8941	-0.080933	0.011139	-1.157398	-1.158856	-0.076695	27.7582	-1.155326	-2.768343E+15	2.770424E-17	NaN
1102	1.000000	0.022477	7.37583e+06	-55239.1	1055.82	-29741.9	0.000000	0.000000	6.022767	-0.070713	NaN	0.000000	0.001689	0.001668	28.0827	0.065750	0.001700	38.6798	-106.71	-164.551	-0.054065	0.021163	-1.147517	-1.148832	-0.070713	38.6798	-1.146146	-2.085222E+15	3.391136E-17	NaN
1102	1.000000	0.032446	7.37583e+06	-55239.1	1055.82	-29741.9	0.000000	0.000000	6.032736	-0.066489	NaN	0.000000	0.001675	0.001683	28.0815	0.050287	0.002007	25.06	-57.5456	14.2993	0.013514	0.031098	-1.137549	-1.138897	-0.066489	25.06	-1.135559	-1.503760E+15	4.421485E-17	NaN
1102	1.000000	0.042468	7.37583e+06	-55239.1	1055.82	-29741.9	0.000000	0.000000	6.042760	-0.022053	NaN	0.000000	0.001661	0.001697	28.0817	0.079902	0.001829	43.6785	-166.602	-167.928	-0.004848	0.041142	-1.127527	-1.128853	-0.022053	43.6785	-1.127148	-1.159749E+15	1.901493E-17	NaN
1102	1.000000	0.052482	7.37583e+06	-55239.1	1055.82	-29741.9	0.000000	0.000000	6.052774	-0.018525	NaN	0.000000	0.001641	0.001725	28.0815	0.052940	0.001863	28.417	-65.0548	14.8826	-0.032632	0.051117	-1.117512	-1.118877	-0.018525	28.417	-1.117024	-8.482747E+14	2.183812E-17	NaN
1102	1.000000	0.062452	7.37583e+06	-55239.1	1055.82	-29741.9	0.000000	0.000000	6.062746	0.028100	NaN	0.000000	0.001603	0.001733	28.0814	0.092866	0.001985	46.7938	-177.464	-164.601	-0.004287	0.061141	-1.107543	-1.108854	0.028100	46.7938	-1.107993	-6.417323E+14	-4.378760E-17	NaN
1102	1.000000	0.072450	7.37583e+06	-55239.1	1055.82	-29741.9	0.000000	0.000000	6.072743	0.017522	NaN	0.000000	0.001657	0.001677	28.0815	0.084884	0.002027	41.8694	140.562	12.0974	-0.051546	0.071075	-1.097545	-1.098920	0.017522	41.8694	-1.097859	-4.691593E+14	-3.734825E-17	NaN
1102	1.000000	0.082465	7.37583e+06	-55239.1	1055.82	-29741.9	0.000000	0.000000	6.082756	-0.019036	NaN	0.000000	0.001666	0.001732	28.0812	0.076481	0.002004	38.1711	-127.07	-163.924	0.066754	0.081160	-1.087530	-1.088835	-0.019036	38.1711	-1.087156	-3.369971E+14	5.648819E-17	NaN
1102	1.000000	0.092470	7.37583e+06	-55239.1	1055.82	-29741.9	0.000000	0.000000	6.092761	-0.037889	NaN	0.000000	0.001652	0.001723	28.0813	0.117340	0.001979	59.2836	172.365	16.5802	-0.017718	0.091093	-1.077525	-1.078902	-0.037889	59.2836	-1.077045	-2.465084E+14	1.537012E-16	NaN
1102	1.000000	0.102463	7.37583e+06	-55239.1	1055.82	-29741.9	0.000000	0.000000	6.102755	-0.001219	NaN	0.000000	0.001671	0.001707	28.0812	0.116867	0.002095	55.7942	-156.225	-167.27	0.003589	0.101152	-1.067532	-1.068843	-0.001219	55.7942	-1.067516	-1.835736E+14	6.641071E-18	NaN
1102	1.000000	0.112458	7.37583e+06	-55239.1	1055.82	-29741.9	0.000000	0.000000	6.112748	-0.062426	NaN	0.000000	0.001691	0.001681	28.0811	0.051972	0.002052	25.3311	75.1334	15.0326	-0.052063	0.111109	-1.057537	-1.058886	-0.062426	25.3311	-1.055689	-1.273152E+14	4.903289E-16	NaN
1102	1.000000	0.122491	7.37583e+06	-55239.1	1055.82	-29741.9	0.000000	0.000000	6.122783	-0.017733	NaN	0.000000	0.001611	0.001713	28.0811	0.121701	0.001929	63.0744	-139.36	-164.892	-0.027656	0.121200	-1.047504	-1.048795	-0.017733	63.0744	-1.047293	-9.817961E+13	1.806137E-16	NaN
1102	1.000000	0.132504	7.37583e+06	-55239.1	1055.82	-29741.9	0.000000	0.000000	6.132795	-0.034463	NaN	0.000000	0.001649	0.001718	28.0809	0.073457	0.001992	36.8686	-121.929	14.817	-0.025110	0.131145	-1.037491	-1.038850	-0.034463	36.8686	-1.036790	-7.092547E+13	4.859069E-16	NaN
1102	1.000000	0.142475	7.37583e+06	-55239.1	1055.82	-29741.9	0.000000	0.000000	6.142765	-0.040892	NaN	0.000000	0.001658	0.001726	28.0809	0.093162	0.002055	45.3248	-70.9308	-163.57	-0.014559	0.141140	-1.027520	-1.028855	-0.040892	45.3248	-1.026844	-5.212219E+13	7.845378E-16	NaN
1102	1.000000	0.152493	7.37583e+06	-55239.1	1055.82	-29741.9	0.000000	0.000000	6.152783	-0.054511	NaN	0.000000	0.001665	0.001725	28.0809	0.021660	0.002044	10.5951	160.25	15.4818	0.006462	0.151123	-1.017502	-1.018872	-0.054511	10.5951	-1.013643	-3.462686E+13	1.574251E-15	NaN
1102	1.000000	0.162518	7.37583e+06	-55239.1	1055.82	-29741.9	0.000000	0.000000	6.162811	0.019293	NaN	0.000000	0.001668	0.001709	28.0824	0.170290	0.002032	83.8226	-165.454	-168.65	-0.017870	0.161217	-1.007477	-1.008778	0.019293	83.8226	-1.007650	-2.875744E+13	-6.708893E-16	NaN
1102	1.000000	0.172495	7.37583e+06	-55239.1	1055.82	-29741.9	0.000000	0.000000	6.172791	0.072536	NaN	0.000000	0.001670	0.001668	28.0822	0.042208	0.002046	20.6345	-50.9112	17.376	0.057840	0.171079	-0.997499	-0.998915	0.072536	20.6345	-1.000136	-2.278230E+13	-3.183865E-15	NaN
1102	1.000000	0.182518	7.37583e+06	-55239.1	1055.82	-29741.9	0.000000	0.000000	6.182811	0.036029	NaN	0.000000	0.001705	0.001677	28.082	0.044108	0.002013	21.9108	113.639	-163.911	0.031912	0.181268	-0.987477	-0.988727	0.036029	21.9108	-0.988710	-1.598617E+13	-2.253730E-15	NaN
1102	1.000000	0.192510	7.37583e+06	-55239.1	1055.82	-29741.9	0.000000	0.000000	6.192801	-0.037109	NaN	0.000000	0.001683	0.001664	28.0822	0.032705	0.001982	16.5049	47.1108	16.0392	-0.113136	0.191156	-0.977485	-0.978839	-0.037109	16.5049	-0.975799	-1.071031E+13	3.464751E-15	NaN
1102	1.000000	0.202499	7.37583e+06	-55239.1	1055.82	-29741.9	0.000000	0.000000	6.202790	-0.034937	NaN	0.000000	0.001691	0.001744	28.0826	0.159995	0.001949	82.0988	-132.219	-166.049	0.059932	0.201205	-0.967496	-0.968790	-0.034937	82.0988	-0.967177	-8.196217E+12	4.262580E-15	NaN
1102	1.000000	0.212555	7.37583e+06	-55239.1	1055.82	-29741.9	0.000000	0.000000	6.212846	-0.027466	NaN	0.000000	0.001693	0.001728	28.0822	0.131484	0.002105	62.4489	-0.680568	16.181	-0.019767	0.211137	-0.957440	-0.958858	-0.027466	62.4489	-0.957110	-5.996586E+12	4.580194E-15	NaN
1102	1.000000	0.222513	7.37583e+06	-55239.1	1055.82	-29741.9	0.000000	0.000000	6.222803	-0.069301	NaN	0.000000	0.001678	0.001681	28.0823	0.072157	0.001980	36.45	-138.471	-163.467	-0.081505	0.221170	-0.947482	-0.948825	-0.069301	36.45	-0.946056	-4.254292E+12	1.628960E-14	NaN
1102	1.000000	0.232535	7.37583e+06	-55239.1	1055.82	-29741.9	0.000000	0.000000	6.232825	-0.046964	NaN	0.000000	0.001708	0.001681	28.0824	0.083912	0.002070	40.5434	52.8713	14.4767	-0.097736	0.231191	-0.937460	-0.938804	-0.046964	40.5434	-0.936592	-3.170655E+12	1.481217E-14	NaN
1102	1.000000	0.242548	7.37583e+06	-55239.1	1055.82	-29741.9	0.000000	0.000000	6.242840	-0.030650	NaN	0.000000	0.001641	0.001705	28.0824	0.064801	0.001980	32.7234	148.211	-165.669	-0.131638	0.241169	-0.927446	-0.928826	-0.030650	32.7234	-0.926744	-2.334795E+12	1.312758E-14	NaN
1102	1.000000	0.252544	7.37583e+06	-55239.1	1055.82	-29741.9	0.000000	0.000000	6.252836	-0.017485	NaN	0.000000	0.001660	0.001745	28.0823	0.047701	0.001989	23.9776	-150.978	14.6164	-0.116048	0.251176	-0.917451	-0.918819	-0.017485	23.9776	-0.916904	-1.719489E+12	1.016881E-14	NaN
1102	1.000000	0.262530	7.37583e+06	-55239.1	1055.82	-29741.9	0.000000	0.000000	6.262820	-0.057599	NaN	0.000000	0.001664	0.001686	28.0823	0.124646	0.002043	61.0136	8.781020	-165.872	-0.006426	0.261218	-0.907465	-0.908777	-0.057599	61.0136	-0.906757	-1.254181E+12	4.592533E-14	NaN
1102	1.000000	0.272527	7.37583e+06	-55239.1	1055.82	-29741.9	0.000000	0.000000	6.272819	-0.004824	NaN	0.000000	0.001700	0.001725	28.0826	0.076462	0.001862	41.0556	-178.252	13.7515	0.092350	0.271165	-0.897468	-0.898829	-0.004824	41.0556	-0.897380	-9.368210E+11	5.149599E-15	NaN
1102	1.000000	0.282536	7.37583e+06	-55239.1	1055.82	-29741.9	0.000000	0.000000	6.282828	-0.003602	NaN	0.000000	0.001680	0.001727	28.0822	0.125509	0.002088	60.0972	11.5212	-163.922	0.077648	0.281260	-0.887459	-0.888735	-0.003602	60.0972	-0.887414	-6.869962E+11	5.242709E-15	NaN
1102	1.000000	0.292557	7.37583e+06	-55239.1	1055.82	-29741.9	0.000000	0.000000	6.292853	0.089707	NaN	0.000000	0.001689	0.001753	28.0823	0.067482	0.001946	34.6796	-177.13	16.3435	-0.036285	0.291203	-0.877438	-0.878791	0.089707	34.6796	-0.879378	-5.349341E+11	-1.676976E-13	NaN
1102	1.000000	0.302578	7.37583e+06	-55239.1	1055.82	-29741.9	0.000000	0.000000	6.302871	0.010041	NaN	0.000000	0.001659	0.001695	28.0812	0.040497	0.001960	20.6629	4.774638	-161.584	-0.060911	0.301177	-0.867416	-0.868818	0.010041	20.6629	-0.867781	-3.727513E+11	-2.693690E-14	NaN
1102	1.000000	0.312577	7.37583e+06	-55239.1	1055.82	-29741.9	0.000000	0.000000	6.312869	-0.011617	NaN	0.000000	0.001666	0.001726	28.0813	0.070942	0.002101	33.764	170.86	13.3363	-0.009213	0.311170	-0.857418	-0.858825	-0.011617	33.764	-0.857159	-2.677142E+11	4.339279E-14	NaN
1102	1.000000	0.322575	7.37583e+06	-55239.1	1055.82	-29741.9	0.000000	0.000000	6.322865	-0.066219	NaN	0.000000	0.001684	0.001701	28.0811	0.068599	0.001985	34.5579	-168.483	-164.515	-0.061612	0.321288	-0.847419	-0.848707	-0.066219	34.5579	-0.845982	-1.889412E+11	3.504736E-13	NaN
1102	1.000000	0.332566	7.37583e+06	-55239.1	1055.82	-29741.9	0.000000	0.000000	6.332856	-0.052237	NaN	0.000000	0.001664	0.001733	28.0812	0.100342	0.002054	48.8607	-18.733	15.7253	-0.044096	0.331206	-0.837429	-0.838789	-0.052237	48.8607	-0.836627	-1.411205E+11	3.701574E-13	NaN
1102	1.000000	0.342565	7.37583e+06	-55239.1	1055.82	-29741.9	0.000000	0.000000	6.342857	-0.017863	NaN	0.000000	0.001674	0.001737	28.0814	0.042103	0.002033	20.7148	28.558	-165.532	-0.031559	0.341238	-0.827430	-0.828756	-0.017863	20.7148	-0.826783	-1.037949E+11	1.720967E-13	NaN
1102	1.000000	0.352604	7.37583e+06	-55239.1	1055.82	-29741.9	0.000000	0.000000	6.352894	-0.059288	NaN	0.000000	0.001653	0.001703	28.0812	0.121072	0.002116	57.2219	148.445	14.9456	-0.049926	0.351189	-0.817391	-0.818806	-0.059288	57.2219	-0.816614	-7.556016E+10	7.846402E-13	NaN
1102	1.000000	0.362576	7.37583e+06	-55239.1	1055.82	-29741.9	0.000000	0.000000	6.362866	-0.038425	NaN	0.000000	0.001680	0.001696	28.0811	0.066214	0.002036	32.5288	109.179	-169.337	-0.067157	0.361293	-0.807419	-0.808702	-0.038425	32.5288	-0.806533	-5.514848E+10	6.967487E-13	NaN
1102	1.000000	0.372596	7.37583e+06	-55239.1	1055.82	-29741.9	0.000000	0.000000	6.372886	-0.065160	NaN	0.000000	0.001660	0.001688	28.0811	0.057021	0.001892	30.1449	-164.072	15.7484	-0.062740	0.371235	-0.797399	-0.798760	-0.065160	30.1449	-0.795778	-3.940414E+10	1.653642E-12	NaN
1102	1.000000	0.382585	7.37583e+06	-55239.1	1055.82	-29741.9	0.000000	0.000000	6.382877	-0.013533	NaN	0.000000	0.001629	0.001738	28.0812	0.048636	0.001984	24.5139	29.6156	-167.429	-0.012825	0.381308	-0.787410	-0.788686	-0.013533	24.5139	-0.786996	-2.994199E+10	4.519841E-13	NaN
1102	1.000000	0.392601	7.37583e+06	-55239.1	1055.82	-29741.9	0.000000	0.000000	6.392893	-0.024189	NaN	0.000000	0.001621	0.001722	28.081	0.057583	0.002115	27.2275	-172.36	12.1408	-0.035802	0.391279	-0.777394	-0.778716	-0.024189	27.2275	-0.776727	-2.171486E+10	1.113930E-12	NaN
1102	1.000000	0.402647	7.37583e+06	-55239.1	1055.82	-29741.9	0.000000	0.000000	6.402937	-0.039440	NaN	0.000000	0.001672	0.001709	28.0811	0.127298	0.002046	62.2107	-134.652	-165.61	-0.038073	0.401304	-0.767348	-0.768690	-0.039440	62.2107	-0.766873	-1.595078E+10	2.472616E-12	NaN
1102	1.000000	0.412592	7.37583e+06	-55239.1	1055.82	-29741.9	0.000000	0.000000	6.412884	-0.008357	NaN	0.000000	0.001626	0.001711	28.0811	0.021194	0.001859	11.4026	22.5574	14.2581	0.060966	0.411281	-0.757403	-0.758714	-0.008357	11.4026	-0.756853	-1.165438E+10	7.170512E-13	NaN
1102	1.000000	0.422619	7.37583e+06	-55239.1	1055.82	-29741.9	0.000000	0.000000	6.422912	0.032003	NaN	0.000000	0.001626	0.001728	28.0809	0.083284	0.002090	39.8499	-53.9482	-166.08	0.111992	0.421361	-0.747376	-0.748634	0.032003	39.8499	-0.747979	-8.824761E+9	-3.626486E-12	NaN
1102	1.000000	0.432625	7.37583e+06	-55239.1	1055.82	-29741.9	0.000000	0.000000	6.432916	-0.038972	NaN	0.000000	0.001603	0.001735	28.081	0.057492	0.002029	28.3284	94.1788	18.954	0.025931	0.431307	-0.737370	-0.738688	-0.038972	28.3284	-0.736338	-6.125920E+9	6.361833E-12	NaN
1102	1.000000	0.442628	7.37583e+06	-55239.1	1055.82	-29741.9	0.000000	0.000000	6.442920	-0.019021	NaN	0.000000	0.001650	0.001735	28.0822	0.056386	0.001851	30.4547	94.9744	-163.89	-0.007073	0.441343	-0.727367	-0.728652	-0.019021	30.4547	-0.726898	-4.555431E+9	4.175365E-12	NaN
1102	1.000000	0.452642	7.37583e+06	-55239.1	1055.82	-29741.9	0.000000	0.000000	6.452931	-0.094253	NaN	0.000000	0.001659	0.001761	28.0825	0.110027	0.001871	58.7909	-153.202	12.8291	-0.099791	0.451296	-0.717353	-0.718699	-0.094253	58.7909	-0.716150	-3.250590E+9	2.899572E-11	NaN
1102	1.000000	0.462638	7.37583e+06	-55239.1	1055.82	-29741.9	0.000000	0.000000	6.462931	0.023175	NaN	0.000000	0.001665	0.001736	28.0822	0.093795	0.002055	45.6335	-8.856626	-164.263	0.050610	0.461317	-0.707357	-0.708677	0.023175	45.6335	-0.707738	-2.495594E+9	-9.286553E-12	NaN
1102	1.000000	0.472599	7.37583e+06	-55239.1	1055.82	-29741.9	0.000000	0.000000	6.472890	-0.035900	NaN	0.000000	0.001664	0.001744	28.0824	0.059864	0.002082	28.7503	-101.285	11.0057	-0.006666	0.471233	-0.697396	-0.698762	-0.035900	28.7503	-0.696459	-1.750524E+9	2.050834E-11	NaN
1102	1.000000	0.482608	7.37583e+06	-55239.1	1055.82	-29741.9	0.000000	0.000000	6.482899	-0.028032	NaN	0.000000	0.001652	0.001736	28.0823	0.039724	0.001905	20.8485	142.738	-163.555	0.019097	0.481290	-0.687387	-0.688705	-0.028032	20.8485	-0.686379	-1.274750E+9	2.199000E-11	NaN
1102	1.000000	0.492643	7.37583e+06	-55239.1	1055.82	-29741.9	0.000000	0.000000	6.492935	-0.007242	NaN	0.000000	0.001673	0.001722	28.0826	0.052967	0.002001	26.4698	-43.5349	16.6312	0.072035	0.491232	-0.677352	-0.678763	-0.007242	26.4698	-0.677147	-9.531854E+8	7.597366E-12	NaN
1102	1.000000	0.502632	7.37583e+06	-55239.1	1055.82	-29741.9	0.000000	0.000000	6.502920	-0.096209	NaN	0.000000	0.001637	0.001736	28.0824	0.025870	0.001950	13.2648	78.4896	-165.59	-0.110809	0.501375	-0.667363	-0.668620	-0.096209	13.2648	-0.661923	-5.899398E+8	1.630834E-10	NaN
1102	1.000000	0.512653	7.37583e+06	-55239.1	1055.82	-29741.9	0.000000	0.000000	6.512946	0.012866	NaN	0.000000	0.001679	0.001722	28.0823	0.096103	0.002011	47.7813	145.522	14.388	0.012829	0.511251	-0.657342	-0.658744	0.012866	47.7813	-0.657544	-5.138278E+8	-2.503878E-11	NaN
1102	1.000000	0.522684	7.37583e+06	-55239.1	1055.82	-29741.9	0.000000	0.000000	6.522973	-0.082420	NaN	0.000000	0.001635	0.001697	28.0823	0.034861	0.002090	16.6783	-168.728	-165.638	0.007917	0.521323	-0.647311	-0.648672	-0.082420	16.6783	-0.643605	-3.309318E+8	2.490556E-10	NaN
1102	1.000000	0.532682	7.37583e+06	-55239.1	1055.82	-29741.9	0.000000	0.000000	6.532973	-0.041655	NaN	0.000000	0.001632	0.001755	28.0826	0.048057	0.001969	24.4011	-177.684	15.6361	-0.013919	0.531253	-0.637313	-0.638742	-0.041655	24.4011	-0.636032	-2.605197E+8	1.598912E-10	NaN
1102	1.000000	0.542670	7.37583e+06	-55239.1	1055.82	-29741.9	0.000000	0.000000	6.542965	0.071577	NaN	0.000000	0.001661	0.001721	28.0823	0.093242	0.001995	46.728	-39.6597	-167.85	0.101148	0.541379	-0.627325	-0.628616	0.071577	46.728	-0.628474	-2.051460E+8	-3.489059E-10	NaN
1102	1.000000	0.552670	7.37584e+06	-55239.1	1055.82	-29741.9	0.000000	0.000000	6.552962	-0.000543	NaN	0.000000	0.001646	0.001761	28.0824	0.033876	0.001997	16.9645	42.544	14.0498	-0.007635	0.551350	-0.617325	-0.618645	-0.000543	16.9645	-0.617301	-1.440566E+8	3.768496E-12	NaN
1102	1.000000	0.562683	7.37584e+06	-55239.1	1055.82	-29741.9	0.000000	0.000000	6.562977	0.029167	NaN	0.000000	0.001676	0.001714	28.0826	0.013354	0.002098	6.364885	-79.0827	-162.473	0.024128	0.561441	-0.607311	-0.608554	0.029167	6.364885	-0.610748	-1.170604E+8	-2.491624E-10	NaN
1102	1.000000	0.572686	7.37584e+06	-55239.1	1055.82	-29741.9	0.000000	0.000000	6.572978	-0.019673	NaN	0.000000	0.001666	0.001717	28.0817	0.064542	0.001982	32.5563	145.178	14.2965	0.008987	0.571357	-0.597308	-0.598638	-0.019673	32.5563	-0.596855	-7.536028E+7	2.610527E-10	NaN
1102	1.000000	0.582676	7.37584e+06	-55239.1	1055.82	-29741.9	0.000000	0.000000	6.582970	0.037712	NaN	0.000000	0.001640	0.001750	28.081	0.046731	0.001918	24.3708	-102.55	-166.914	-0.020985	0.581394	-0.587319	-0.588601	0.037712	24.3708	-0.588479	-5.776981E+7	-6.528056E-10	NaN
1102	1.000000	0.592683	7.37584e+06	-55239.1	1055.82	-29741.9	0.000000	0.000000	6.592973	-0.041899	NaN	0.000000	0.001659	0.001738	28.0813	0.082174	0.001997	41.1465	125.143	14.011	0.009200	0.591295	-0.577312	-0.578700	-0.041899	41.1465	-0.576549	-3.954401E+7	1.059547E-9	NaN
1102	1.000000	0.602718	7.37584e+06	-55239.1	1055.82	-29741.9	0.000000	0.000000	6.603009	-0.054017	NaN	0.000000	0.001601	0.001721	28.0813	0.078106	0.002120	36.8474	1.348772	-166.929	0.018329	0.601374	-0.567276	-0.568621	-0.054017	36.8474	-0.566177	-2.843123E+7	1.899935E-9	NaN
1102	1.000000	0.612681	7.37584e+06	-55239.1	1055.82	-29741.9	0.000000	0.000000	6.612973	0.000259	NaN	0.000000	0.001606	0.001721	28.0812	0.050213	0.002038	24.6421	57.3216	14.8202	-0.034981	0.611395	-0.557314	-0.558600	0.000259	24.6421	-0.557322	-2.144477E+7	-1.209200E-11	NaN
1102	1.000000	0.622729	7.37584e+06	-55239.1	1055.82	-29741.9	0.000000	0.000000	6.623024	0.071787	NaN	0.000000	0.001632	0.001727	28.0811	0.032472	0.001962	16.554	148.343	-164.184	-0.008096	0.621391	-0.547266	-0.548603	0.071787	16.554	-0.550519	-1.726394E+7	-4.158229E-9	NaN
1102	1.000000	0.632671	7.37584e+06	-55239.1	1055.82	-29741.9	0.000000	0.000000	6.632962	-0.042496	NaN	0.000000	0.001634	0.001767	28.0813	0.008156	0.001948	4.186445	-58.4	15.0099	-0.031495	0.631337	-0.537324	-0.538658	-0.042496	4.186445	-0.529711	-8.8829e+06	4.784011E-9	NaN
1102	1.000000	0.642705	7.37584e+06	-55239.1	1055.82	-29741.9	0.000000	0.000000	6.642998	0.010081	NaN	0.000000	0.001632	0.001730	28.0812	0.057195	0.002007	28.4918	31.6449	-166.468	0.031561	0.641370	-0.527290	-0.528624	0.010081	28.4918	-0.527555	-8.29119e+06	-1.215920E-9	NaN
1102	1.000000	0.652709	7.37584e+06	-55239.1	1055.82	-29741.9	0.000000	0.000000	6.653001	-0.005919	NaN	0.000000	0.001591	0.001748	28.0811	0.018703	0.001880	9.950742	154.051	15.5617	-0.046812	0.651312	-0.517286	-0.518683	-0.005919	9.950742	-0.516840	-5.88346e+06	1.006005E-9	NaN
1102	1.000000	0.662730	7.37584e+06	-55239.1	1055.82	-29741.9	0.000000	0.000000	6.663018	-0.096847	NaN	0.000000	0.001620	0.001735	28.0811	0.060290	0.001971	30.5845	-148.365	-166.255	-0.072804	0.661445	-0.507265	-0.508550	-0.096847	30.5845	-0.504890	-4.0106e+06	2.414763E-8	NaN
1102	1.000000	0.672725	7.37584e+06	-55239.1	1055.82	-29741.9	0.000000	0.000000	6.673017	-0.017469	NaN	0.000000	0.001648	0.001712	28.0809	0.101498	0.002006	50.5976	103.845	16.1786	-0.100946	0.671345	-0.497269	-0.498650	-0.017469	50.5976	-0.497010	-3.11387e+06	5.610142E-9	NaN
1102	1.000000	0.682711	7.37584e+06	-55239.1	1055.82	-29741.9	0.000000	0.000000	6.683003	-0.029189	NaN	0.000000	0.001619	0.001755	28.081	0.066476	0.001946	34.1608	-145.584	-167.051	-0.014870	0.681410	-0.487283	-0.488585	-0.029189	34.1608	-0.486643	-2.2308e+06	1.308440E-8	NaN
1102	1.000000	0.692714	7.37584e+06	-55239.1	1055.82	-29741.9	0.000000	0.000000	6.693004	-0.051586	NaN	0.000000	0.001626	0.001724	28.081	0.043198	0.001946	22.2023	-117.598	10.83	-0.034974	0.691337	-0.477281	-0.478657	-0.051586	22.2023	-0.475538	-1.55971e+06	3.307397E-8	NaN
1102	1.000000	0.702714	7.37584e+06	-55239.1	1055.82	-29741.9	0.000000	0.000000	6.703006	-0.003144	NaN	0.000000	0.001639	0.001735	28.0811	0.165194	0.002061	80.1557	-127.664	-168.548	0.034110	0.701388	-0.467281	-0.468607	-0.003144	80.1557	-0.467251	-1.19357e+06	2.634165E-9	NaN
1102	1.000000	0.712736	7.37584e+06	-55239.1	1055.82	-29741.9	0.000000	0.000000	6.713032	0.092763	NaN	0.000000	0.001651	0.001737	28.0822	0.113348	0.002038	55.6159	-1.329650	13.1695	0.045660	0.711390	-0.457259	-0.458605	0.092763	55.6159	-0.458510	-899653	-1.031092E-7	NaN
1102	1.000000	0.722727	7.37584e+06	-55239.1	1055.82	-29741.9	0.000000	0.000000	6.723019	0.002400	NaN	0.000000	0.001672	0.001724	28.0823	0.026661	0.001964	13.5781	-164.854	-166.936	0.007281	0.721473	-0.447268	-0.448521	0.002400	13.5781	-0.447401	-627662	-3.824482E-9	NaN
1102	1.000000	0.732755	7.37584e+06	-55239.1	1055.82	-29741.9	0.000000	0.000000	6.733047	-0.019503	NaN	0.000000	0.001652	0.001729	28.0822	0.044986	0.002077	21.6547	-123.291	15.6234	0.037013	0.731335	-0.437240	-0.438660	-0.019503	21.6547	-0.436564	-441423	4.418295E-8	NaN
1102	1.000000	0.742734	7.37584e+06	-55239.1	1055.82	-29741.9	0.000000	0.000000	6.743024	-0.049097	NaN	0.000000	0.001637	0.001747	28.0825	0.090243	0.002098	43.0214	103.556	-163.272	0.016776	0.741439	-0.427261	-0.428555	-0.049097	43.0214	-0.426405	-317090	1.548345E-7	NaN
1102	1.000000	0.752761	7.37584e+06	-55239.1	1055.82	-29741.9	0.000000	0.000000	6.753054	0.015161	NaN	0.000000	0.001651	0.001727	28.0823	0.086221	0.002069	41.6639	132.211	17.5414	-0.023558	0.751392	-0.417234	-0.418603	0.015161	41.6639	-0.417507	-237161	-6.392716E-8	NaN
1102	1.000000	0.762765	7.37584e+06	-55239.1	1055.82	-29741.9	0.000000	0.000000	6.763056	-0.049519	NaN	0.000000	0.001676	0.001739	28.0825	0.027970	0.001909	14.653	146.821	-163.937	-0.017114	0.761429	-0.407230	-0.408565	-0.049519	14.653	-0.404695	-155921	3.175913E-7	NaN
1102	1.000000	0.772785	7.37584e+06	-55239.1	1055.82	-29741.9	0.000000	0.000000	6.773076	-0.035504	NaN	0.000000	0.001672	0.001715	28.0823	0.119824	0.001924	62.2895	147.686	13.4941	-0.012184	0.771418	-0.397209	-0.398577	-0.035504	62.2895	-0.396782	-120248	2.952554E-7	NaN
1102	1.000000	0.782764	7.37584e+06	-55239.1	1055.82	-29741.9	0.000000	0.000000	6.783059	0.056870	NaN	0.000000	0.001647	0.001735	28.0827	0.029217	0.002040	14.3228	115.586	-165.645	-0.006264	0.781490	-0.387230	-0.388505	0.056870	14.3228	-0.390208	-96860.6	-5.871331E-7	NaN
1102	1.000000	0.792777	7.37584e+06	-55239.1	1055.82	-29741.9	0.000000	0.000000	6.793069	0.008588	NaN	0.000000	0.001646	0.001725	28.0825	0.086182	0.002070	41.6396	-170.706	15.5844	-0.026270	0.791381	-0.377218	-0.378614	0.008588	41.6396	-0.377373	-63411.5	-1.354330E-7	NaN
1102	1.000000	0.802776	7.37584e+06	-55239.1	1055.82	-29741.9	0.000000	0.000000	6.803067	-0.025642	NaN	0.000000	0.001662	0.001708	28.0824	0.108460	0.001960	55.3231	-121.459	-167.49	-0.007128	0.801435	-0.367219	-0.368560	-0.025642	55.3231	-0.366871	-44775.6	5.726676E-7	NaN
1102	1.000000	0.812782	7.37584e+06	-55239.1	1055.82	-29741.9	0.000000	0.000000	6.813076	0.032887	NaN	0.000000	0.001669	0.001758	28.0823	0.065822	0.001951	33.7454	74.0432	12.4076	0.006318	0.811416	-0.357213	-0.358579	0.032887	33.7454	-0.357944	-33274.4	-9.883576E-7	NaN
1102	1.000000	0.822767	7.37584e+06	-55239.1	1055.82	-29741.9	0.000000	0.000000	6.823056	-0.078850	NaN	0.000000	0.001681	0.001749	28.0835	0.102223	0.002131	47.9634	139.16	-164.963	-0.001217	0.821453	-0.347228	-0.348542	-0.078850	47.9634	-0.345995	-22326.6	3.531651E-6	NaN
1102	1.000000	0.832791	7.37584e+06	-55239.1	1055.82	-29741.9	0.000000	0.000000	6.833085	0.045305	NaN	0.000000	0.001654	0.001765	28.0822	0.066334	0.002020	32.845	-42.8722	16.4526	0.040758	0.831435	-0.337204	-0.338560	0.045305	32.845	-0.338238	-17213.2	-2.631991E-6	NaN
1102	1.000000	0.842800	7.37584e+06	-55239.1	1055.82	-29741.9	0.000000	0.000000	6.843091	-0.046396	NaN	0.000000	0.001645	0.001747	28.0824	0.054910	0.001963	27.9748	27.447	-168.328	-0.042398	0.841500	-0.327195	-0.328494	-0.046396	27.9748	-0.325951	-11378.7	4.077440E-6	NaN
1102	1.000000	0.852764	7.37584e+06	-55239.1	1055.82	-29741.9	0.000000	0.000000	6.853058	0.049870	NaN	0.000000	0.001690	0.001744	28.0811	0.071103	0.002022	35.1624	68.9598	16.904	-0.077844	0.851469	-0.317231	-0.318526	0.049870	35.1624	-0.318295	-8780.64	-5.679494E-6	NaN
1102	1.000000	0.862777	7.37584e+06	-55239.1	1055.82	-29741.9	0.000000	0.000000	6.863070	0.008281	NaN	0.000000	0.001662	0.001682	28.0809	0.093496	0.002091	44.7124	-89.5997	-161.803	0.045510	0.861527	-0.307218	-0.308468	0.008281	44.7124	-0.307357	-6052.13	-1.368282E-6	NaN
1102	1.000000	0.872807	7.37584e+06	-55239.1	1055.82	-29741.9	0.000000	0.000000	6.873100	0.016612	NaN	0.000000	0.001641	0.001760	28.0812	0.042907	0.001821	23.5566	162.576	12.1295	0.025141	0.871429	-0.297188	-0.298566	0.016612	23.5566	-0.297717	-4351.37	-3.817613E-6	NaN
1102	1.000000	0.882811	7.37584e+06	-55239.1	1055.82	-29741.9	0.000000	0.000000	6.883107	0.070771	NaN	0.000000	0.001635	0.001738	28.081	0.017941	0.002159	8.311913	127.001	-167.362	0.088071	0.881549	-0.287183	-0.288445	0.070771	8.311913	-0.293569	-3773.22	-1.875613E-5	NaN
1102	1.000000	0.892820	7.37584e+06	-55239.1	1055.82	-29741.9	0.000000	0.000000	6.893115	0.069558	NaN	0.000000	0.001646	0.001737	28.0813	0.046618	0.002088	22.3297	-27.036	12.9299	0.041771	0.891423	-0.277175	-0.278572	0.069558	22.3297	-0.279511	-2320.56	-2.997442E-5	NaN
1102	1.000000	0.902780	7.37584e+06	-55239.1	1055.82	-29741.9	0.000000	0.000000	6.903072	-0.005214	NaN	0.000000	0.001631	0.001742	28.081	0.060362	0.002084	28.9663	-139.189	-166.174	0.026204	0.901454	-0.267215	-0.268541	-0.005214	28.9663	-0.267080	-1503.49	3.468162E-6	NaN
1102	1.000000	0.912805	7.37584e+06	-55239.1	1055.82	-29741.9	0.000000	0.000000	6.913103	0.141691	NaN	0.000000	0.001612	0.001722	28.0811	0.077546	0.002024	38.3176	-39.9376	14.0966	0.102044	0.911457	-0.257190	-0.258538	0.141691	38.3176	-0.259964	-1170.47	-0.000121	NaN
1102	1.000000	0.922807	7.37584e+06	-55239.1	1055.82	-29741.9	0.000000	0.000000	6.923099	0.001208	NaN	0.000000	0.001698	0.001756	28.0811	0.139164	0.001998	69.6505	-30.5841	-165.13	0.013905	0.921498	-0.247188	-0.248497	0.001208	69.6505	-0.247201	-744.083	-1.622955E-6	NaN
1102	1.000000	0.932831	7.37584e+06	-55239.1	1055.82	-29741.9	0.000000	0.000000	6.933122	-0.038320	NaN	0.000000	0.001667	0.001758	28.0813	0.034497	0.002015	17.1189	-168.625	13.575	-0.027522	0.931420	-0.237164	-0.238575	-0.038320	17.1189	-0.235485	-488.499	7.844384E-5	NaN
1102	1.000000	0.942831	7.37584e+06	-55239.1	1055.82	-29741.9	0.000000	0.000000	6.943125	0.027008	NaN	0.000000	0.001689	0.001724	28.081	0.043520	0.001937	22.4704	140.231	-163.53	0.069858	0.941520	-0.227164	-0.228475	0.027008	22.4704	-0.228065	-373.191	-7.237182E-5	NaN
1102	1.000000	0.952820	7.37584e+06	-55239.1	1055.82	-29741.9	0.000000	0.000000	6.953115	0.062565	NaN	0.000000	0.001679	0.001704	28.0812	0.071543	0.001954	36.6161	145.089	16.702	0.074409	0.951446	-0.217175	-0.218548	0.062565	36.6161	-0.218456	-262.41	-0.000238	NaN
1102	1.000000	0.962827	7.37584e+06	-55239.1	1055.82	-29741.9	0.000000	0.000000	6.963123	0.101240	NaN	0.000000	0.001651	0.001741	28.0812	0.074380	0.001994	37.306	85.6214	-167.886	0.101906	0.961569	-0.207168	-0.208426	0.101240	37.306	-0.209204	-186.172	-0.000544	NaN
1102	1.000000	0.972856	7.37584e+06	-55239.1	1055.82	-29741.9	0.000000	0.000000	6.973152	0.091290	NaN	0.000000	0.001650	0.001768	28.0813	0.156625	0.001912	81.9216	94.02	10.2383	0.091146	0.971526	-0.197139	-0.198469	0.091290	81.9216	-0.197975	-122.001	-0.000748	NaN
1102	1.000000	0.982885	7.37584e+06	-55239.1	1055.82	-29741.9	0.000000	0.000000	6.983184	0.158699	NaN	0.000000	0.001655	0.001728	28.082	0.066364	0.001873	35.4306	-41.3452	-162.819	0.129604	0.981517	-0.187110	-0.188478	0.158699	35.4306	-0.190470	-91.5946	-0.001733	NaN
1102	1.000000	0.992860	7.37584e+06	-55239.1	1055.82	-29741.9	0.000000	0.000000	6.993160	0.190549	NaN	0.000000	0.001642	0.001704	28.0822	0.058985	0.001963	30.0417	-93.5818	13.4088	0.136156	0.991495	-0.177135	-0.178500	0.190549	30.0417	-0.181892	-65.7051	-0.002900	NaN
1102	1.000000	1.002843	7.37584e+06	-55239.1	1055.82	-29741.9	0.000000	0.000000	7.003143	0.176225	NaN	0.000000	0.001637	0.001734	28.083	0.022211	0.001957	11.349	101.953	-164.093	0.129483	1.001582	-0.167152	-0.168413	0.176225	11.349	-0.178798	-58.2089	-0.003027	NaN
1102	1.000000	1.012906	7.37584e+06	-55239.1	1055.82	-29741.9	0.000000	0.000000	7.013205	0.160941	NaN	0.000000	0.001638	0.001723	28.0832	0.193713	0.001945	99.5944	21.348	16.8765	0.213677	1.011513	-0.157089	-0.158482	0.160941	99.5944	-0.158301	-25.5697	-0.006294	NaN
1102	1.000000	1.022882	7.37584e+06	-55239.1	1055.82	-29741.9	0.000000	0.000000	7.023184	0.225947	NaN	0.000000	0.001656	0.001740	28.0823	0.072147	0.002025	35.6196	11.8568	-167.139	0.158767	1.021568	-0.147113	-0.148427	0.225947	35.6196	-0.151870	-19.5895	-0.011534	NaN
1102	1.000000	1.032874	7.37584e+06	-55239.1	1055.82	-29741.9	0.000000	0.000000	7.033172	0.147346	NaN	0.000000	0.001646	0.001714	28.0823	0.117297	0.001998	58.7016	-8.175405	13.7212	0.137925	1.031455	-0.137121	-0.138540	0.147346	58.7016	-0.139003	-11.3297	-0.013005	NaN
1102	1.000000	1.042862	7.37584e+06	-55239.1	1055.82	-29741.9	0.000000	0.000000	7.043162	0.196927	NaN	0.000000	0.001636	0.001713	28.0826	0.102354	0.002053	49.8663	-25.9518	-164.326	0.121086	1.041546	-0.127133	-0.128449	0.196927	49.8663	-0.130095	-7.653405	-0.025731	NaN
1102	1.000000	1.052862	7.37584e+06	-55239.1	1055.82	-29741.9	0.000000	0.000000	7.053164	0.215243	NaN	0.000000	0.001663	0.001706	28.0825	0.029666	0.001980	14.9829	107.404	16.4219	0.231842	1.051482	-0.117132	-0.118513	0.215243	14.9829	-0.127907	-6.937448	-0.031026	NaN
1102	1.000000	1.062867	7.37584e+06	-55239.1	1055.82	-29741.9	0.000000	0.000000	7.063166	0.147282	NaN	0.000000	0.001660	0.001681	28.0822	0.132424	0.001927	68.7163	141.554	-164.314	0.178858	1.061585	-0.107127	-0.108410	0.147282	68.7163	-0.108735	-2.825643	-0.052123	NaN
1102	1.000000	1.072876	7.37584e+06	-55239.1	1055.82	-29741.9	0.000000	0.000000	7.073174	0.152417	NaN	0.000000	0.001660	0.001747	28.0824	0.066101	0.001855	35.6286	8.419227	15.5231	0.128363	1.071504	-0.097119	-0.098491	0.152417	35.6286	-0.100328	-1.857920	-0.082037	NaN
1102	1.000000	1.082880	7.37584e+06	-55239.1	1055.82	-29741.9	0.000000	0.000000	7.083181	0.204216	NaN	0.000000	0.001675	0.001732	28.0823	0.178342	0.001988	89.717	39.2477	-164.709	0.173894	1.081601	-0.087115	-0.088394	0.204216	89.717	-0.088822	-1.014079	-0.201381	NaN
1102	1.000000	1.092889	7.37584e+06	-55239.1	1055.82	-29741.9	0.000000	0.000000	7.093189	0.182677	NaN	0.000000	0.001674	0.001747	28.0823	0.124483	0.001979	62.9008	-8.377410	13.0408	0.201936	1.091495	-0.077106	-0.078500	0.182677	62.9008	-0.079284	-0.593931	-0.307572	NaN
1102	1.000000	1.102917	7.37584e+06	-55239.1	1055.82	-29741.9	0.000000	0.000000	7.103218	0.213037	NaN	0.000000	0.001682	0.001708	28.0823	0.078796	0.001949	40.4215	50.1626	-164.34	0.187691	1.101554	-0.067078	-0.068441	0.213037	40.4215	-0.071031	-0.363424	-0.586194	NaN
1102	1.000000	1.112909	7.37584e+06	-55239.1	1055.82	-29741.9	0.000000	0.000000	7.113212	0.257826	NaN	0.000000	0.001665	0.001735	28.0825	0.071450	0.002044	34.9596	69.2842	16.724	0.270035	1.111541	-0.057086	-0.058454	0.257826	34.9596	-0.062617	-0.213765	-1.206116	NaN
1102	1.000000	1.122888	7.37584e+06	-55239.1	1055.82	-29741.9	0.000000	0.000000	7.123192	0.273041	NaN	0.000000	0.001737	0.001719	28.0812	0.160546	0.002018	79.5444	79.9003	-162.065	0.143855	1.121638	-0.047107	-0.048357	0.273041	79.5444	-0.049681	-0.089246	-3.059432	NaN
1102	1.000000	1.132920	7.37584e+06	-55239.1	1055.82	-29741.9	0.000000	0.000000	7.133226	0.323778	NaN	0.000000	0.001756	0.001708	28.0807	0.031214	0.001876	16.6376	-90.4028	16.6336	0.273268	1.131533	-0.037074	-0.038462	0.323778	16.6376	-0.051670	-0.102465	-3.159892	NaN
1102	1.000000	1.142905	7.37584e+06	-55239.1	1055.82	-29741.9	0.000000	0.000000	7.143212	0.345197	NaN	0.000000	0.001711	0.001715	28.0807	0.141353	0.001967	71.8609	40.2681	-164.263	0.344610	1.141552	-0.027090	-0.028443	0.345197	71.8609	-0.030692	-0.024063	-14.3456	NaN
1102	1.000000	1.152935	7.37584e+06	-55239.1	1055.82	-29741.9	0.000000	0.000000	7.153239	0.287614	NaN	0.000000	0.001762	0.001717	28.0811	0.146367	0.002072	70.6428	28.7914	14.6322	0.292398	1.151556	-0.017060	-0.018439	0.287614	70.6428	-0.020114	-0.012645	-22.7453	NaN
1102	1.000000	1.162949	7.37584e+06	-55239.1	1055.82	-29741.9	0.000000	0.000000	7.163253	0.299119	NaN	0.000000	0.001687	0.001732	28.0809	0.081260	0.001881	43.2056	32.2418	-165.969	0.375791	1.161618	-0.007046	-0.008377	0.299119	43.2056	-0.012238	-0.007665	-39.0246	NaN
1102	1.000000	1.172879	7.37584e+06	-55239.1	1055.82	-29741.9	0.000000	0.000000	7.173434	6.390544	NaN	0.000000	0.001738	0.001758	28.081	6.800269	0.001851	3673.65	19.3357	6.128957	5.248440	1.171468	0.002884	0.001473	6.390544	3673.65	0.001579	0.001217	5249.28	96194.9
1102	2.000000	1.177427	7.37584e+06	-55239.1	1055.82	-29741.9	0.000000	0.000000	7.178213	11.9875	NaN	0.000000	0.001686	0.001751	28.0811	10.515	0.001591	6607.7	6.055728	-171.729	11.3138	1.177143	0.007432	0.007148	11.9875	6607.7	0.006072	0.005133	2335.48	84265.1
1102	2.000000	1.179983	7.37584e+06	-55239.1	1055.82	-29741.9	0.000000	0.000000	7.180839	13.6974	NaN	0.000000	0.001674	0.001759	28.0812	13.7271	0.001631	8416.75	5.938401	6.180826	13.654	1.179599	0.009988	0.009604	13.6974	8416.75	0.008768	0.007844	1746.23	86826
1102	2.000000	1.182371	7.37584e+06	-55239.1	1055.82	-29741.9	0.000000	0.000000	7.183401	17.9261	NaN	0.000000	0.001674	0.001726	28.081	16.5759	0.001860	8911.53	4.705454	-172.296	16.9684	1.182096	0.012376	0.012101	17.9261	8911.53	0.010868	0.010162	1764.05	80767.8
1102	2.000000	1.184935	7.37584e+06	-55239.1	1055.82	-29741.9	0.000000	0.000000	7.186103	21.2772	NaN	0.000000	0.001647	0.001748	28.0812	19.0735	0.001785	10682.8	4.786049	5.549869	20.1391	1.184610	0.014940	0.014616	21.2772	10682.8	0.013446	0.013269	1603.51	84729.5
1102	2.000000	1.187398	7.37584e+06	-55239.1	1055.82	-29741.9	0.000000	0.000000	7.188837	27.8676	NaN	0.000000	0.001663	0.001729	28.0814	21.8685	0.001848	11835.4	5.403233	-175.98	27.4249	1.187086	0.017403	0.017091	27.8676	11835.4	0.015637	0.016145	1726.12	85102.1
1102	2.000000	1.189901	7.37584e+06	-55239.1	1055.82	-29741.9	0.000000	0.000000	7.191559	33.207	NaN	0.000000	0.001685	0.001713	28.0812	23.6941	0.001712	13840.3	4.578943	3.781297	33.4992	1.189466	0.019906	0.019471	33.207	13840.3	0.018106	0.019654	1689.6	90197.7
1102	2.000000	1.192377	7.37584e+06	-55239.1	1055.82	-29741.9	0.000000	0.000000	7.194308	39.8489	NaN	0.000000	0.001706	0.001675	28.0811	27.3734	0.001797	15231.8	2.747396	-175.97	38.7175	1.192058	0.022382	0.022064	39.8489	15231.8	0.020420	0.023206	1717.17	91352.8
1102	2.000000	1.194886	7.37584e+06	-55239.1	1055.82	-29741.9	0.000000	0.000000	7.197059	45.7339	NaN	0.000000	0.001688	0.001746	28.0813	29.0731	0.001844	15769.8	5.492261	1.973586	44.3981	1.194521	0.024891	0.024526	45.7339	15769.8	0.022716	0.026991	1694.44	87699
1102	2.000000	1.197396	7.37584e+06	-55239.1	1055.82	-29741.9	0.000000	0.000000	7.199877	53.1928	NaN	0.000000	0.001658	0.001735	28.0825	31.3755	0.001697	18490.8	4.405556	-179.356	53.2769	1.197050	0.027401	0.027055	53.1928	18490.8	0.025244	0.031460	1690.79	95246.1
1102	2.000000	1.199887	7.37584e+06	-55239.1	1055.82	-29741.9	0.000000	0.000000	7.202664	60.4122	NaN	0.000000	0.001650	0.001748	28.0822	34.234	0.001751	19549.4	4.966922	0.329024	60.1116	1.199460	0.029892	0.029466	60.4122	19549.4	0.027574	0.035866	1684.38	94311.5
1102	2.000000	1.202325	7.37584e+06	-55239.1	1055.82	-29741.9	0.000000	0.000000	7.205424	68.2228	NaN	0.000000	0.001663	0.001720	28.0822	37.512	0.001941	19330.2	5.974598	179.367	67.456	1.202138	0.032330	0.032143	68.2228	19330.2	0.029683	0.040090	1701.76	88204.8
1102	2.000000	1.204825	7.37584e+06	-55239.1	1055.82	-29741.9	0.000000	0.000000	7.208400	79.7948	NaN	0.000000	0.001653	0.001715	28.0827	38.2581	0.001786	21415.6	3.336146	1.315613	76.2251	1.204461	0.034830	0.034466	79.7948	21415.6	0.032036	0.045069	1770.52	92165.1
1102	2.000000	1.207371	7.37584e+06	-55239.1	1055.82	-29741.9	0.000000	0.000000	7.211225	86.5633	NaN	0.000000	0.001623	0.001696	28.0823	40.6404	0.001746	23281.9	3.349323	179.332	87.0186	1.207065	0.037376	0.037070	86.5633	23281.9	0.034588	0.050791	1704.31	94383.9
1102	2.000000	1.209803	7.37584e+06	-55239.1	1055.82	-29741.9	0.000000	0.000000	7.213965	94.0732	NaN	0.000000	0.001637	0.001723	28.0824	43.9054	0.001793	24488.2	6.443801	-4.419817	90.9037	1.209453	0.039808	0.039458	94.0732	24488.2	0.036927	0.056328	1670.09	94268.8
1102	2.000000	1.212332	7.37584e+06	-55239.1	1055.82	-29741.9	0.000000	0.000000	7.217087	108.492	NaN	0.000000	0.001653	0.001714	28.0824	46.6564	0.001837	25392.8	5.907500	176.82	107.871	1.211964	0.042337	0.041969	108.492	25392.8	0.039132	0.061805	1755.38	93319.3
1102	2.000000	1.214852	7.37584e+06	-55239.1	1055.82	-29741.9	0.000000	0.000000	7.220213	123.199	NaN	0.000000	0.001618	0.001719	28.0826	48.7703	0.001870	26084.8	7.882505	-4.441420	121.105	1.214455	0.044857	0.044460	123.199	26084.8	0.041315	0.067471	1825.94	91748.9
1102	2.000000	1.217332	7.37584e+06	-55239.1	1055.82	-29741.9	0.000000	0.000000	7.223010	130.904	NaN	0.000000	0.001642	0.001722	28.0825	50.6474	0.001781	28438.9	2.363295	179.021	131.087	1.216999	0.047337	0.047005	130.904	28438.9	0.043885	0.074454	1758.19	95222.9
1102	2.000000	1.219804	7.37584e+06	-55239.1	1055.82	-29741.9	0.000000	0.000000	7.226078	145.4	NaN	0.000000	0.001644	0.001711	28.0825	53.3765	0.001695	31489.6	3.921991	-3.786942	142.196	1.219486	0.049809	0.049491	145.4	31489.6	0.046346	0.081455	1785.02	100805
1102	2.000000	1.222302	7.37584e+06	-55239.1	1055.82	-29741.9	0.000000	0.000000	7.229054	157.019	NaN	0.000000	0.001663	0.001725	28.0826	57.4618	0.001924	29863.8	5.283024	175.618	154.492	1.222039	0.052307	0.052044	157.019	29863.8	0.048364	0.087423	1796.08	92279.4
1102	2.000000	1.224809	7.37584e+06	-55239.1	1055.82	-29741.9	0.000000	0.000000	7.232168	171.774	NaN	0.000000	0.001654	0.001695	28.0826	58.5622	0.001860	31477.8	6.651785	-6.029526	168.111	1.224474	0.054815	0.054479	171.774	31477.8	0.050722	0.094657	1814.7	93476.1
1102	2.000000	1.227294	7.37584e+06	-55239.1	1055.82	-29741.9	0.000000	0.000000	7.235308	187.694	NaN	0.000000	0.001687	0.001715	28.0825	59.7694	0.001770	33764.6	4.655136	176.388	185.706	1.226983	0.057300	0.056988	187.694	33764.6	0.053130	0.102334	1834.13	96432.7
1102	2.000000	1.229721	7.37584e+06	-55239.1	1055.82	-29741.9	0.000000	0.000000	7.238353	202.735	NaN	0.000000	0.001661	0.001702	28.0813	61.2159	0.001770	34589.7	0.388724	0.491001	197.375	1.229349	0.059726	0.059355	202.735	34589.7	0.055330	0.109598	1849.81	95459.7
1102	2.000000	1.232295	7.37584e+06	-55239.1	1055.82	-29741.9	0.000000	0.000000	7.241176	208.802	NaN	0.000000	0.001634	0.001694	28.0814	65.4417	0.001814	36081.2	3.297596	176.225	206.806	1.232002	0.062300	0.062008	208.802	36081.2	0.057959	0.118593	1760.66	95724.7
1102	2.000000	1.234803	7.37584e+06	-55239.1	1055.82	-29741.9	0.000000	0.000000	7.244398	226.148	NaN	0.000000	0.001672	0.001702	28.0812	67.7613	0.001788	37893.2	7.517077	-7.765657	223.328	1.234400	0.064808	0.064405	226.148	37893.2	0.060332	0.127001	1780.67	97147.1
1102	2.000000	1.237332	7.37584e+06	-55239.1	1055.82	-29741.9	0.000000	0.000000	7.247433	238.431	NaN	0.000000	0.001606	0.001701	28.0812	70.235	0.001915	36681.2	6.436277	173.566	239.225	1.236925	0.067337	0.066930	238.431	36681.2	0.062462	0.134785	1768.97	91284.2
1102	2.000000	1.239754	7.37584e+06	-55239.1	1055.82	-29741.9	0.000000	0.000000	7.250738	259.896	NaN	0.000000	0.001571	0.001710	28.0813	71.0073	0.001752	40524.9	1.217155	-2.717645	254.535	1.239378	0.069759	0.069383	259.896	40524.9	0.064949	0.144151	1802.94	97518.2
1102	2.000000	1.242307	7.37584e+06	-55239.1	1055.82	-29741.9	0.000000	0.000000	7.253779	271.763	NaN	0.000000	0.001628	0.001697	28.0813	74.9816	0.001748	42904.7	5.654969	172.81	272.462	1.241975	0.072312	0.071980	271.763	42904.7	0.067562	0.154310	1761.15	99788.6
1102	2.000000	1.244790	7.37584e+06	-55239.1	1055.82	-29741.9	0.000000	0.000000	7.256801	284.888	NaN	0.000000	0.001619	0.001685	28.0812	75.7742	0.001673	45293.4	5.840912	-7.383934	282.376	1.244429	0.074795	0.074434	284.888	45293.4	0.070077	0.164403	1732.86	102059
1102	2.000000	1.247272	7.37584e+06	-55239.1	1055.82	-29741.9	0.000000	0.000000	7.260451	313.263	NaN	0.000000	0.001610	0.001668	28.081	77.045	0.001806	42652.9	4.407047	174.804	312.337	1.246878	0.077277	0.076883	313.263	42652.9	0.071769	0.171358	1828.12	94139.1
1102	2.000000	1.249843	7.37584e+06	-55239.1	1055.82	-29741.9	0.000000	0.000000	7.263417	322.866	NaN	0.000000	0.001611	0.001700	28.0813	81.7621	0.001768	46246.9	8.971171	-10.3845	324.358	1.249428	0.079848	0.079434	322.866	46246.9	0.074612	0.183353	1760.9	98676.1
1102	2.000000	1.252295	7.37584e+06	-55239.1	1055.82	-29741.9	0.000000	0.000000	7.266555	339.539	NaN	0.000000	0.001619	0.001701	28.0811	83.5297	0.001748	47779.8	3.482303	174.32	339.412	1.251935	0.082300	0.081941	339.539	47779.8	0.076970	0.193591	1753.9	99214.5
1102	2.000000	1.254703	7.37584e+06	-55239.1	1055.82	-29741.9	0.000000	0.000000	7.269807	360.061	NaN	0.000000	0.001597	0.001730	28.0812	84.7356	0.001726	49080.8	2.746432	-5.206548	351.427	1.254412	0.084708	0.084418	360.061	49080.8	0.079206	0.203541	1768.99	99393.8
1102	2.000000	1.257246	7.37584e+06	-55239.1	1055.82	-29741.9	0.000000	0.000000	7.273246	381.852	NaN	0.000000	0.001610	0.001760	28.0813	87.1012	0.001683	51753	3.357423	174.117	379.711	1.256911	0.087251	0.086917	381.852	51753	0.081717	0.214990	1776.13	101976
1102	2.000000	1.259694	7.37584e+06	-55239.1	1055.82	-29741.9	0.000000	0.000000	7.276360	398.02	NaN	0.000000	0.001660	0.001699	28.0813	91.6123	0.001762	51988.8	5.216154	-8.029766	391.563	1.259466	0.089699	0.089471	398.02	51988.8	0.083958	0.225454	1765.42	100036
1102	2.000000	1.262361	7.37584e+06	-55239.1	1055.82	-29741.9	0.000000	0.000000	7.279386	406.748	NaN	0.000000	0.001655	0.001717	28.081	94.7766	0.001811	52339.9	3.940657	173.135	410.1	1.262054	0.092366	0.092059	406.748	52339.9	0.086537	0.237791	1710.53	98063.8
1102	2.000000	1.264807	7.37584e+06	-55239.1	1055.82	-29741.9	0.000000	0.000000	7.282933	433.519	NaN	0.000000	0.001660	0.001681	28.0823	95.7054	0.001825	52448.1	3.326995	-5.955767	431.037	1.264522	0.094812	0.094527	433.519	52448.1	0.088613	0.247939	1748.49	96234.4
1102	2.000000	1.267220	7.37584e+06	-55239.1	1055.82	-29741.9	0.000000	0.000000	7.286380	458.656	NaN	0.000000	0.001652	0.001718	28.0826	98.6607	0.001767	55844.3	5.137482	171.591	454.356	1.266912	0.097225	0.096917	458.656	55844.3	0.091065	0.260182	1762.83	100026
1102	2.000000	1.269693	7.37584e+06	-55239.1	1055.82	-29741.9	0.000000	0.000000	7.289700	479.236	NaN	0.000000	0.001637	0.001716	28.0827	101.019	0.001867	54109.9	5.389682	-7.833654	473.519	1.269347	0.099698	0.099352	479.236	54109.9	0.093056	0.270324	1772.82	95084
1102	2.000000	1.272342	7.37584e+06	-55239.1	1055.82	-29741.9	0.000000	0.000000	7.292564	484.457	NaN	0.000000	0.001603	0.001745	28.0825	103.657	0.001829	56666.1	3.844360	172.455	485.878	1.272125	0.102348	0.102130	484.457	56666.1	0.095936	0.285316	1697.97	96924.4
1102	2.000000	1.274287	7.37584e+06	-55239.1	1055.82	-29741.9	0.000000	0.000000	7.295779	515.342	NaN	0.000000	0.001646	0.001723	28.0823	105.097	0.001819	57783.2	8.235982	168.507	516.199	1.273907	0.104292	0.103912	515.342	57783.2	0.097603	0.294172	1751.84	97336