File: remote_trans/data/nanoindenter/0828-1/data/Data_2025-08-06,11h17m57s/2025-07-22_16-23-58_1_533.txt
2025-07-22, 16:23:58, 1
Index	Phase	Displacement	Time	Pos X	Pos Y	Pos Z	Rot A	Rot B	Piezo Z	Force A	Force B	Gripper	Voltage A	Voltage B	Temperature	Amplitude force	Amplitude pos	Stiffness	Phase shift	Phase excitation	Force A raw	Displacement raw	HMax	HMax raw	Real Force	Real Stiffness	Contact Depth	Area	Hardness	Reduced Mod.
[#]	[#]	[um]	[s]	[um]	[um]	[um]	[m°]	[m°]	[um]	[uN]	[uN]	[V]	[V]	[V]	[°C]	[uN]	[um]	[N/m]	[°]	[°]	[uN]	[um]	[um]	[um]	[uN]	[N/m]	[um]	[um^2]	[MPa]	[MPa]
533	1.000000	0.002465	7.37026e+06	-50439.1	1005.82	-29755.6	0.000000	0.000000	6.002790	-0.009686	NaN	0.000000	0.001640	0.001749	28.0826	0.046629	0.000848	54.9753	75.6136	-160.167	0.043433	0.001243	-1.061665	-1.062886	-0.009686	54.9753	-1.061533	-1.525523E+14	6.349060E-17	NaN
533	1.000000	0.010415	7.37026e+06	-50439.1	1005.82	-29755.6	0.000000	0.000000	6.010744	0.061798	NaN	0.000000	0.001649	0.001745	28.0836	0.106216	0.000905	117.425	39.562	-163.05	-0.021960	0.009119	-1.053714	-1.055010	0.061798	117.425	-1.054109	-1.212397E+14	-5.097210E-16	NaN
533	1.000000	0.018442	7.37026e+06	-50439.1	1005.82	-29755.7	0.000000	0.000000	6.018770	0.048305	NaN	0.000000	0.001692	0.001776	28.0838	0.062806	0.001775	35.3909	-109.706	-170.704	0.039644	0.017128	-1.045687	-1.047001	0.048305	35.3909	-1.046711	-9.642649E+13	-5.009492E-16	NaN
533	1.000000	0.026439	7.37026e+06	-50439.1	1005.82	-29755.7	0.000000	0.000000	6.026765	-0.010270	NaN	0.000000	0.001655	0.001724	28.0836	0.023252	0.001885	12.3351	102.18	-165.033	-0.042200	0.025155	-1.037690	-1.038974	-0.010270	12.3351	-1.037066	-7.153303E+13	1.435745E-16	NaN
533	1.000000	0.034419	7.37026e+06	-50439.1	1005.82	-29755.7	0.000000	0.000000	6.034746	0.016456	NaN	0.000000	0.001667	0.001742	28.0839	0.089384	0.001821	49.0935	-9.194674	-165.755	-0.030918	0.033125	-1.029710	-1.031004	0.016456	49.0935	-1.029962	-5.740701E+13	-2.866552E-16	NaN
533	1.000000	0.042428	7.37026e+06	-50439.1	1005.82	-29755.7	0.000000	0.000000	6.042756	0.055393	NaN	0.000000	0.001654	0.001758	28.0837	0.098297	0.001936	50.762	51.0631	-165.498	0.081352	0.041130	-1.021702	-1.022999	0.055393	50.762	-1.022520	-4.558897E+13	-1.215056E-15	NaN
533	1.000000	0.050425	7.37026e+06	-50439.1	1005.82	-29755.7	0.000000	0.000000	6.050753	0.049434	NaN	0.000000	0.001625	0.001733	28.0837	0.070626	0.002024	34.8896	104.311	-168.567	0.038755	0.049126	-1.013704	-1.015003	0.049434	34.8896	-1.014767	-3.585348E+13	-1.378777E-15	NaN
533	1.000000	0.058415	7.37026e+06	-50439.1	1005.82	-29755.7	0.000000	0.000000	6.058742	0.022884	NaN	0.000000	0.001666	0.001717	28.0837	0.096807	0.002126	45.5249	-176.12	-168.28	-0.018891	0.057104	-1.005714	-1.007025	0.022884	45.5249	-1.006091	-2.740114E+13	-8.351545E-16	NaN
533	1.000000	0.066419	7.37026e+06	-50439.1	1005.82	-29755.7	0.000000	0.000000	6.066746	0.008197	NaN	0.000000	0.001624	0.001734	28.0835	0.060238	0.001959	30.753	-133.04	-167.722	0.055335	0.065102	-0.997710	-0.999027	0.008197	30.753	-0.997910	-2.126311E+13	-3.854806E-16	NaN
533	1.000000	0.074418	7.37026e+06	-50439.1	1005.82	-29755.7	0.000000	0.000000	6.074742	-0.041250	NaN	0.000000	0.001618	0.001766	28.0839	0.143738	0.002062	69.7019	-127.655	-169.458	0.046129	0.073145	-0.989712	-0.990984	-0.041250	69.7019	-0.989268	-1.626498E+13	2.536123E-15	NaN
533	1.000000	0.082422	7.37026e+06	-50439.1	1005.82	-29755.7	0.000000	0.000000	6.082747	-0.004359	NaN	0.000000	0.001652	0.001744	28.0839	0.113788	0.001868	60.9274	164.177	-165.369	0.015109	0.081085	-0.981708	-0.983045	-0.004359	60.9274	-0.981654	-1.284389E+13	3.393960E-16	NaN
533	1.000000	0.090434	7.37026e+06	-50439.1	1005.82	-29755.7	0.000000	0.000000	6.090760	-0.011096	NaN	0.000000	0.001645	0.001779	28.0838	0.040588	0.001899	21.3774	109.609	-170.062	0.078023	0.089127	-0.973695	-0.975002	-0.011096	21.3774	-0.973306	-9.913181E+12	1.119287E-15	NaN
533	1.000000	0.098423	7.37026e+06	-50439.1	1005.82	-29755.7	0.000000	0.000000	6.098749	0.009939	NaN	0.000000	0.001595	0.001751	28.0835	0.052285	0.002038	25.6568	-72.2209	-163.85	0.030294	0.097131	-0.965707	-0.966998	0.009939	25.6568	-0.965997	-7.901614E+12	-1.257817E-15	NaN
533	1.000000	0.106473	7.37026e+06	-50439.1	1005.82	-29755.7	0.000000	0.000000	6.106797	-0.057713	NaN	0.000000	0.001583	0.001738	28.0836	0.044264	0.001910	23.1734	-92.4026	-169.412	0.013542	0.105130	-0.957656	-0.959000	-0.057713	23.1734	-0.955789	-5.755547E+12	1.002729E-14	NaN
533	1.000000	0.114450	7.37026e+06	-50439.1	1005.82	-29755.7	0.000000	0.000000	6.114776	-0.002896	NaN	0.000000	0.001603	0.001724	28.0842	0.069500	0.002060	33.741	-14.7738	-168.827	-0.005329	0.113112	-0.949679	-0.951017	-0.002896	33.741	-0.949615	-4.751493E+12	6.095804E-16	NaN
533	1.000000	0.122442	7.37026e+06	-50439.1	1005.82	-29755.7	0.000000	0.000000	6.122769	0.020379	NaN	0.000000	0.001619	0.001735	28.0837	0.173286	0.001830	94.6865	-39.5885	-169.089	0.068658	0.121120	-0.941687	-0.943010	0.020379	94.6865	-0.941849	-3.733180E+12	-5.458808E-15	NaN
533	1.000000	0.130453	7.37026e+06	-50439.1	1005.82	-29755.7	0.000000	0.000000	6.130779	-0.004020	NaN	0.000000	0.001683	0.001732	28.0838	0.029456	0.001801	16.3584	-109.36	-167.918	-0.018732	0.129145	-0.933676	-0.934985	-0.004020	16.3584	-0.933492	-2.879533E+12	1.396195E-15	NaN
533	1.000000	0.138440	7.37026e+06	-50439.1	1005.82	-29755.7	0.000000	0.000000	6.138764	-0.035278	NaN	0.000000	0.001682	0.001737	28.0836	0.034547	0.001969	17.5494	18.2426	-163.152	-0.040687	0.137108	-0.925690	-0.927021	-0.035278	17.5494	-0.924182	-2.156103E+12	1.636170E-14	NaN
533	1.000000	0.146504	7.37026e+06	-50439.1	1005.82	-29755.7	0.000000	0.000000	6.146827	-0.082764	NaN	0.000000	0.001684	0.001772	28.0825	0.053054	0.002010	26.4003	-116.226	-166.565	-0.065839	0.145144	-0.917625	-0.918986	-0.082764	26.4003	-0.915274	-1.634518E+12	5.063504E-14	NaN
533	1.000000	0.154451	7.37026e+06	-50439.1	1005.82	-29755.7	0.000000	0.000000	6.154774	-0.068526	NaN	0.000000	0.001679	0.001766	28.0836	0.204365	0.001926	106.115	-158.601	-163.726	-0.052257	0.153088	-0.909679	-0.911042	-0.068526	106.115	-0.909194	-1.352948E+12	5.064916E-14	NaN
533	1.000000	0.162470	7.37026e+06	-50439.1	1005.82	-29755.7	0.000000	0.000000	6.162797	0.027266	NaN	0.000000	0.001668	0.001755	28.0826	0.101823	0.002004	50.8012	-133.491	-167.896	0.004224	0.161138	-0.901660	-0.902991	0.027266	50.8012	-0.902062	-1.083756E+12	-2.515924E-14	NaN
533	1.000000	0.170472	7.37026e+06	-50439.1	1005.82	-29755.7	0.000000	0.000000	6.170800	0.036517	NaN	0.000000	0.001678	0.001782	28.0828	0.064612	0.001976	32.6998	42.5927	-168.548	0.043467	0.169200	-0.893657	-0.894930	0.036517	32.6998	-0.894495	-8.563847E+11	-4.264065E-14	NaN
533	1.000000	0.178463	7.37026e+06	-50439.1	1005.82	-29755.7	0.000000	0.000000	6.178790	0.012931	NaN	0.000000	0.001644	0.001793	28.0826	0.025914	0.001948	13.3056	-0.936196	-166.904	-0.088002	0.177200	-0.885666	-0.886930	0.012931	13.3056	-0.886395	-6.655484E+11	-1.942903E-14	NaN
533	1.000000	0.186495	7.37026e+06	-50439.1	1005.82	-29755.7	0.000000	0.000000	6.186820	-0.006856	NaN	0.000000	0.001684	0.001770	28.0829	0.049211	0.001922	25.6101	-65.8964	-164.7	0.062092	0.185160	-0.877635	-0.878969	-0.006856	25.6101	-0.877434	-5.035067E+11	1.361607E-14	NaN
533	1.000000	0.194486	7.37026e+06	-50439.1	1005.82	-29755.7	0.000000	0.000000	6.194810	-0.038218	NaN	0.000000	0.001669	0.001781	28.0827	0.050988	0.002023	25.2039	-172.045	-164.825	0.007680	0.193201	-0.869644	-0.870928	-0.038218	25.2039	-0.868507	-3.812741E+11	1.002387E-13	NaN
533	1.000000	0.202489	7.37026e+06	-50439.1	1005.82	-29755.7	0.000000	0.000000	6.202815	-0.013911	NaN	0.000000	0.001675	0.001746	28.0825	0.165136	0.002095	78.8266	126.597	-167.567	-0.055916	0.201190	-0.861640	-0.862940	-0.013911	78.8266	-0.861508	-3.065688E+11	4.537663E-14	NaN
533	1.000000	0.210503	7.37026e+06	-50439.1	1005.82	-29755.7	0.000000	0.000000	6.210832	0.080298	NaN	0.000000	0.001704	0.001773	28.0827	0.169701	0.002033	83.4925	107.258	-164.857	0.040582	0.209141	-0.853626	-0.854989	0.080298	83.4925	-0.854348	-2.452483E+11	-3.274138E-13	NaN
533	1.000000	0.218485	7.37026e+06	-50439.1	1005.82	-29755.7	0.000000	0.000000	6.218814	0.076290	NaN	0.000000	0.001685	0.001770	28.0826	0.177346	0.001963	90.3387	0.461942	-169.436	0.091446	0.217166	-0.845644	-0.846964	0.076290	90.3387	-0.846278	-1.906908E+11	-4.000698E-13	NaN
533	1.000000	0.226499	7.37026e+06	-50439.1	1005.82	-29755.7	0.000000	0.000000	6.226827	0.047288	NaN	0.000000	0.001694	0.001747	28.0828	0.015425	0.001917	8.046093	108.773	-168.531	-0.052024	0.225239	-0.837630	-0.838891	0.047288	8.046093	-0.842038	-1.670723E+11	-2.830363E-13	NaN
533	1.000000	0.234489	7.37026e+06	-50439.1	1005.82	-29755.7	0.000000	0.000000	6.234819	0.091683	NaN	0.000000	0.001643	0.001749	28.0823	0.066611	0.001891	35.217	-109.926	-167.567	0.059813	0.233219	-0.829640	-0.830910	0.091683	35.217	-0.831593	-1.206068E+11	-7.601796E-13	NaN
533	1.000000	0.242486	7.37026e+06	-50439.1	1005.82	-29755.7	0.000000	0.000000	6.242811	-0.036755	NaN	0.000000	0.001670	0.001750	28.0825	0.028970	0.002037	14.2221	30.8545	-166.904	-0.033812	0.241225	-0.821643	-0.822904	-0.036755	14.2221	-0.819705	-8.321640E+10	4.416768E-13	NaN
533	1.000000	0.250507	7.37026e+06	-50439.1	1005.82	-29755.7	0.000000	0.000000	6.250833	-0.006776	NaN	0.000000	0.001699	0.001765	28.0824	0.068937	0.002076	33.1998	-156.549	-166.278	0.015320	0.249228	-0.813622	-0.814902	-0.006776	33.1998	-0.813469	-6.849073E+10	9.892898E-14	NaN
533	1.000000	0.258519	7.37026e+06	-50439.1	1005.82	-29755.7	0.000000	0.000000	6.258843	-0.047579	NaN	0.000000	0.001706	0.001778	28.0826	0.014970	0.001903	7.867478	106.769	-165.839	-0.036828	0.257130	-0.805610	-0.807000	-0.047579	7.867478	-0.801075	-4.649992E+10	1.023200E-12	NaN
533	1.000000	0.266512	7.37026e+06	-50439.1	1005.82	-29755.7	0.000000	0.000000	6.266839	0.022062	NaN	0.000000	0.001721	0.001762	28.083	0.064256	0.001960	32.7778	-133.972	-166.893	-0.018462	0.265251	-0.797617	-0.798879	0.022062	32.7778	-0.798122	-4.240010E+10	-5.203324E-13	NaN
533	1.000000	0.274525	7.37026e+06	-50439.1	1005.82	-29755.7	0.000000	0.000000	6.274854	0.065273	NaN	0.000000	0.001681	0.001748	28.0824	0.068032	0.002047	33.2337	-105.836	-168.694	0.031582	0.273215	-0.789604	-0.790914	0.065273	33.2337	-0.791077	-3.401849E+10	-1.918742E-12	NaN
533	1.000000	0.282507	7.37026e+06	-50439.1	1005.82	-29755.7	0.000000	0.000000	6.282832	-0.019795	NaN	0.000000	0.001652	0.001771	28.0836	0.058428	0.001952	29.9276	97.647	-165.055	0.029057	0.281203	-0.781623	-0.782926	-0.019795	29.9276	-0.781127	-2.491959E+10	7.943716E-13	NaN
533	1.000000	0.290516	7.37026e+06	-50439.1	1005.82	-29755.7	0.000000	0.000000	6.290840	-0.038341	NaN	0.000000	0.001727	0.001752	28.0834	0.046110	0.001941	23.7606	21.5025	-167.734	-0.104497	0.289199	-0.773614	-0.774930	-0.038341	23.7606	-0.772403	-1.896627E+10	2.021559E-12	NaN
533	1.000000	0.298544	7.37026e+06	-50439.1	1005.82	-29755.7	0.000000	0.000000	6.298873	0.077762	NaN	0.000000	0.001672	0.001701	28.0837	0.040126	0.002140	18.7467	-152.651	-168.458	0.000719	0.297228	-0.765586	-0.766902	0.077762	18.7467	-0.768697	-1.688816E+10	-4.604498E-12	NaN
533	1.000000	0.306532	7.37026e+06	-50439.1	1005.82	-29755.7	0.000000	0.000000	6.306858	0.000625	NaN	0.000000	0.001663	0.001762	28.0839	0.051077	0.001841	27.7369	-125.186	-167.551	0.059199	0.305245	-0.757597	-0.758884	0.000625	27.7369	-0.757614	-1.193563E+10	-5.237915E-14	NaN
533	1.000000	0.314557	7.37026e+06	-50439.1	1005.82	-29755.7	0.000000	0.000000	6.314885	0.049779	NaN	0.000000	0.001669	0.001766	28.0835	0.073475	0.002018	36.4009	65.6258	-165.092	0.027658	0.313213	-0.749572	-0.750916	0.049779	36.4009	-0.750598	-9.579876E+9	-5.196183E-12	NaN
533	1.000000	0.322544	7.37026e+06	-50439.1	1005.82	-29755.7	0.000000	0.000000	6.322870	0.014551	NaN	0.000000	0.001682	0.001740	28.0841	0.118627	0.002025	58.5807	-22.1877	-168.238	-0.077835	0.321266	-0.741586	-0.742863	0.014551	58.5807	-0.741772	-7.264247E+9	-2.003039E-12	NaN
533	1.000000	0.330518	7.37026e+06	-50439.1	1005.82	-29755.7	0.000000	0.000000	6.330845	0.022954	NaN	0.000000	0.001660	0.001749	28.0835	0.067528	0.001973	34.2265	138.088	-167.002	-0.006548	0.329248	-0.733612	-0.734881	0.022954	34.2265	-0.734115	-5.713181E+9	-4.017641E-12	NaN
533	1.000000	0.338547	7.37026e+06	-50439.1	1005.82	-29755.7	0.000000	0.000000	6.338872	-0.011168	NaN	0.000000	0.001654	0.001744	28.0835	0.024523	0.001782	13.7607	63.7723	-166.807	-0.048820	0.337241	-0.725583	-0.726889	-0.011168	13.7607	-0.724974	-4.288415E+9	2.604247E-12	NaN
533	1.000000	0.346546	7.37026e+06	-50439.1	1005.82	-29755.7	0.000000	0.000000	6.346872	0.000856	NaN	0.000000	0.001605	0.001752	28.0838	0.024491	0.001905	12.8591	90.4707	-168.368	-0.020913	0.345238	-0.717583	-0.718892	0.000856	12.8591	-0.717633	-3.405552E+9	-2.512539E-13	NaN
533	1.000000	0.354551	7.37026e+06	-50439.1	1005.82	-29755.7	0.000000	0.000000	6.354877	0.014615	NaN	0.000000	0.001594	0.001761	28.0838	0.109943	0.001970	55.8218	158.231	-165.407	0.030213	0.353237	-0.709579	-0.710892	0.014615	55.8218	-0.709775	-2.660598E+9	-5.492996E-12	NaN
533	1.000000	0.362559	7.37026e+06	-50439.1	1005.82	-29755.7	0.000000	0.000000	6.362885	0.015254	NaN	0.000000	0.001615	0.001741	28.084	0.081923	0.002121	38.6271	121.573	-167.786	0.006080	0.361270	-0.701571	-0.702859	0.015254	38.6271	-0.701867	-2.075028E+9	-7.351373E-12	NaN
533	1.000000	0.370546	7.37026e+06	-50439.1	1005.82	-29755.7	0.000000	0.000000	6.370875	0.062405	NaN	0.000000	0.001617	0.001735	28.0834	0.051329	0.002119	24.2284	-112.769	-167.867	0.008393	0.369194	-0.693583	-0.694936	0.062405	24.2284	-0.695515	-1.699312E+9	-3.672382E-11	NaN
533	1.000000	0.378558	7.37026e+06	-50439.1	1005.82	-29755.7	0.000000	0.000000	6.378886	0.060498	NaN	0.000000	0.001623	0.001737	28.0836	0.040094	0.002037	19.6847	-136.037	-165.535	0.029668	0.377247	-0.685572	-0.686883	0.060498	19.6847	-0.687877	-1.336285E+9	-4.527321E-11	NaN
533	1.000000	0.386564	7.37026e+06	-50439.1	1005.82	-29755.7	0.000000	0.000000	6.386890	0.005077	NaN	0.000000	0.001634	0.001759	28.0834	0.060006	0.002015	29.7821	-142.656	-166.676	-0.100546	0.385246	-0.677565	-0.678884	0.005077	29.7821	-0.677693	-9.697356E+8	-5.235545E-12	NaN
533	1.000000	0.394576	7.37026e+06	-50439.1	1005.82	-29755.7	0.000000	0.000000	6.394904	0.064513	NaN	0.000000	0.001616	0.001750	28.0834	0.060484	0.002167	27.91	-42.4354	-165.542	-0.056145	0.393245	-0.669554	-0.670884	0.064513	27.91	-0.671287	-7.925140E+8	-8.140259E-11	NaN
533	1.000000	0.402586	7.37026e+06	-50439.1	1005.82	-29755.7	0.000000	0.000000	6.402911	-0.012930	NaN	0.000000	0.001646	0.001777	28.0838	0.032089	0.001981	16.2019	-80.5686	-169.251	-0.014638	0.401276	-0.661543	-0.662854	-0.012930	16.2019	-0.660945	-5.720195E+8	2.260383E-11	NaN
533	1.000000	0.410588	7.37026e+06	-50439.1	1005.82	-29755.7	0.000000	0.000000	6.410912	-0.056618	NaN	0.000000	0.001611	0.001774	28.0834	0.089605	0.002024	44.2822	173.039	-170.38	-0.067424	0.409262	-0.653541	-0.654867	-0.056618	44.2822	-0.652582	-4.393735E+8	1.288609E-10	NaN
533	1.000000	0.418581	7.37026e+06	-50439.1	1005.82	-29755.7	0.000000	0.000000	6.418906	-0.018347	NaN	0.000000	0.001613	0.001756	28.0826	0.161001	0.002025	79.4995	122.293	-165.116	0.048978	0.417302	-0.645549	-0.646828	-0.018347	79.4995	-0.645376	-3.499685E+8	5.242419E-11	NaN
533	1.000000	0.426591	7.37026e+06	-50439.1	1005.82	-29755.7	0.000000	0.000000	6.426913	-0.088407	NaN	0.000000	0.001602	0.001751	28.0822	0.114554	0.002034	56.3228	103.752	-169.309	-0.005209	0.425248	-0.637539	-0.638881	-0.088407	56.3228	-0.636362	-2.632455E+8	3.358360E-10	NaN
533	1.000000	0.434587	7.37026e+06	-50439.1	1005.82	-29755.7	0.000000	0.000000	6.434913	0.021957	NaN	0.000000	0.001599	0.001747	28.0824	0.022723	0.002003	11.3455	-7.929682	-166.127	0.041705	0.433249	-0.629543	-0.630880	0.021957	11.3455	-0.630994	-2.221661E+8	-9.883006E-11	NaN
533	1.000000	0.442586	7.37026e+06	-50439.1	1005.82	-29755.7	0.000000	0.000000	6.442913	0.038715	NaN	0.000000	0.001630	0.001718	28.0822	0.019598	0.001964	9.978069	106.184	-167.669	0.066067	0.441319	-0.621544	-0.622811	0.038715	9.978069	-0.624454	-1.806509E+8	-2.143081E-10	NaN
533	1.000000	0.450598	7.37026e+06	-50439.1	1005.82	-29755.7	0.000000	0.000000	6.450923	-0.018804	NaN	0.000000	0.001624	0.001727	28.0822	0.067706	0.002055	32.9484	-103.482	-167.422	-0.043808	0.449286	-0.613531	-0.614843	-0.018804	32.9484	-0.613103	-1.261260E+8	1.490915E-10	NaN
533	1.000000	0.458602	7.37026e+06	-50439.1	1005.82	-29755.7	0.000000	0.000000	6.458927	-0.014357	NaN	0.000000	0.001625	0.001748	28.0824	0.061498	0.001975	31.1407	-142.896	-168.289	0.062246	0.457265	-0.605528	-0.606865	-0.014357	31.1407	-0.605182	-9.813196E+7	1.463033E-10	NaN
533	1.000000	0.466589	7.37026e+06	-50439.1	1005.82	-29755.7	0.000000	0.000000	6.466915	-0.001769	NaN	0.000000	0.001635	0.001727	28.0824	0.061679	0.001988	31.019	-73.3789	-160.626	0.068357	0.465297	-0.597540	-0.598832	-0.001769	31.019	-0.597497	-7.691093E+7	2.300285E-11	NaN
533	1.000000	0.474611	7.37026e+06	-50439.1	1005.82	-29755.7	0.000000	0.000000	6.474939	0.044155	NaN	0.000000	0.001633	0.001752	28.0826	0.077456	0.001954	39.6448	-35.1258	-166.943	0.000547	0.473309	-0.589519	-0.590820	0.044155	39.6448	-0.590354	-6.131184E+7	-7.201684E-10	NaN
533	1.000000	0.482597	7.37026e+06	-50439.1	1005.82	-29755.7	0.000000	0.000000	6.482921	-0.038012	NaN	0.000000	0.001645	0.001726	28.0821	0.053971	0.002043	26.4236	149.547	-163.525	-0.028354	0.481271	-0.581532	-0.582859	-0.038012	26.4236	-0.580454	-4.476987E+7	8.490461E-10	NaN
533	1.000000	0.490641	7.37026e+06	-50439.1	1005.82	-29755.7	0.000000	0.000000	6.490966	-0.003354	NaN	0.000000	0.001623	0.001742	28.0822	0.075332	0.001943	38.7708	149.999	-166.628	-0.020964	0.489278	-0.573489	-0.574852	-0.003354	38.7708	-0.573424	-3.580401E+7	9.368842E-11	NaN
533	1.000000	0.498593	7.37026e+06	-50439.1	1005.82	-29755.7	0.000000	0.000000	6.498920	0.037222	NaN	0.000000	0.001594	0.001695	28.0821	0.154951	0.001986	78.0226	-168.732	-164.65	0.078181	0.497281	-0.565537	-0.566849	0.037222	78.0226	-0.565894	-2.817677E+7	-1.321001E-9	NaN
533	1.000000	0.506629	7.37027e+06	-50439.1	1005.82	-29755.7	0.000000	0.000000	6.506954	-0.017239	NaN	0.000000	0.001638	0.001672	28.0823	0.105467	0.002038	51.7621	39.0491	-163.863	-0.028661	0.505317	-0.557501	-0.558813	-0.017239	51.7621	-0.557251	-2.139635E+7	8.057189E-10	NaN
533	1.000000	0.514629	7.37027e+06	-50439.1	1005.82	-29755.7	0.000000	0.000000	6.514955	0.001786	NaN	0.000000	0.001629	0.001672	28.0824	0.128859	0.002147	60.0262	54.0662	-168.03	-0.028207	0.513313	-0.549500	-0.550817	0.001786	60.0262	-0.549523	-1.672419E+7	-1.067985E-10	NaN
533	1.000000	0.522638	7.37027e+06	-50439.1	1005.82	-29755.7	0.000000	0.000000	6.522964	0.007700	NaN	0.000000	0.001636	0.001719	28.0819	0.030171	0.001982	15.2199	-149.82	-164.445	0.004629	0.521324	-0.541491	-0.542805	0.007700	15.2199	-0.541871	-1.310078E+7	-5.877270E-10	NaN
533	1.000000	0.530608	7.37027e+06	-50439.1	1005.82	-29755.7	0.000000	0.000000	6.530936	0.041295	NaN	0.000000	0.001626	0.001677	28.0823	0.044436	0.002032	21.8725	-118.836	-168.16	0.121664	0.529303	-0.533521	-0.534826	0.041295	21.8725	-0.534937	-1.049828E+7	-3.933474E-9	NaN
533	1.000000	0.538622	7.37027e+06	-50439.1	1005.82	-29755.7	0.000000	0.000000	6.538947	-0.014281	NaN	0.000000	0.001613	0.001666	28.0823	0.070031	0.002170	32.2651	13.8512	-166.457	-0.009974	0.537279	-0.525507	-0.526851	-0.014281	32.2651	-0.525175	-7.68328e+06	1.858676E-9	NaN
533	1.000000	0.546607	7.37027e+06	-50439.1	1005.82	-29755.7	0.000000	0.000000	6.546936	0.072776	NaN	0.000000	0.001621	0.001691	28.0825	0.122290	0.001979	61.791	57.7409	-166.306	0.043785	0.545257	-0.517522	-0.518873	0.072776	61.791	-0.518406	-6.18617e+06	-1.176424E-8	NaN
533	1.000000	0.554634	7.37027e+06	-50439.1	1005.82	-29755.7	0.000000	0.000000	6.554956	-0.086153	NaN	0.000000	0.001621	0.001666	28.0838	0.047237	0.001937	24.3825	155.405	-167.16	-0.065010	0.553420	-0.509495	-0.510709	-0.086153	24.3825	-0.506845	-4.27037e+06	2.017454E-8	NaN
533	1.000000	0.562621	7.37027e+06	-50439.1	1005.82	-29755.7	0.000000	0.000000	6.562948	0.018465	NaN	0.000000	0.001597	0.001708	28.0835	0.052919	0.001880	28.15	-16.1888	-164.666	-0.003256	0.561376	-0.501508	-0.502753	0.018465	28.15	-0.502000	-3.65528e+06	-5.051675E-9	NaN
533	1.000000	0.570683	7.37027e+06	-50439.1	1005.82	-29755.7	0.000000	0.000000	6.571008	-0.023690	NaN	0.000000	0.001653	0.001666	28.0838	0.064228	0.001970	32.6004	-98.0831	-165.366	-0.016981	0.569388	-0.493446	-0.494742	-0.023690	32.6004	-0.492901	-2.7285e+06	8.682460E-9	NaN
533	1.000000	0.578658	7.37027e+06	-50439.1	1005.82	-29755.7	0.000000	0.000000	6.578984	0.006783	NaN	0.000000	0.001663	0.001676	28.0835	0.085359	0.002078	41.07	-154.669	-166.686	0.095229	0.577373	-0.485471	-0.486756	0.006783	41.07	-0.485595	-2.15683e+06	-3.144666E-9	NaN
533	1.000000	0.586669	7.37027e+06	-50439.1	1005.82	-29755.7	0.000000	0.000000	6.586995	0.020455	NaN	0.000000	0.001664	0.001677	28.0837	0.051848	0.001986	26.1124	146.826	-167.147	0.038567	0.585349	-0.477461	-0.478780	0.020455	26.1124	-0.478048	-1.69122e+06	-1.209503E-8	NaN
533	1.000000	0.594629	7.37027e+06	-50439.1	1005.82	-29755.7	0.000000	0.000000	6.594957	0.044129	NaN	0.000000	0.001638	0.001689	28.0835	0.020503	0.001926	10.6432	149.813	-164.87	0.076987	0.593333	-0.469500	-0.470796	0.044129	10.6432	-0.472610	-1.41907e+06	-3.109721E-8	NaN
533	1.000000	0.602676	7.37027e+06	-50439.1	1005.82	-29755.7	0.000000	0.000000	6.603001	-0.025502	NaN	0.000000	0.001626	0.001673	28.0835	0.033207	0.001855	17.9015	-78.5029	-167.376	0.029329	0.601361	-0.461453	-0.462769	-0.025502	17.9015	-0.460385	-955922	2.667780E-8	NaN
533	1.000000	0.610650	7.37027e+06	-50439.1	1005.82	-29755.7	0.000000	0.000000	6.610975	-0.018044	NaN	0.000000	0.001644	0.001694	28.0839	0.062681	0.001942	32.2715	112.379	-167.054	-0.000731	0.609382	-0.453479	-0.454747	-0.018044	32.2715	-0.453060	-754081	2.392823E-8	NaN
533	1.000000	0.618642	7.37027e+06	-50439.1	1005.82	-29755.7	0.000000	0.000000	6.618968	0.007110	NaN	0.000000	0.001613	0.001661	28.0835	0.060503	0.002051	29.5061	-16.6551	-162.669	0.007215	0.617414	-0.445487	-0.446715	0.007110	29.5061	-0.445668	-593350	-1.198343E-8	NaN
533	1.000000	0.626662	7.37027e+06	-50439.1	1005.82	-29755.7	0.000000	0.000000	6.626988	0.004146	NaN	0.000000	0.001603	0.001700	28.0837	0.101931	0.002069	49.2753	-61.5262	-168.375	-0.029437	0.625351	-0.437468	-0.438778	0.004146	49.2753	-0.437531	-455514	-9.101247E-9	NaN
533	1.000000	0.634673	7.37027e+06	-50439.1	1005.82	-29755.7	0.000000	0.000000	6.635001	0.045272	NaN	0.000000	0.001622	0.001678	28.0833	0.029443	0.001939	15.1814	92.0676	-168.001	0.006874	0.633368	-0.429456	-0.430761	0.045272	15.1814	-0.431693	-376709	-1.201788E-7	NaN
533	1.000000	0.642691	7.37027e+06	-50439.1	1005.82	-29755.7	0.000000	0.000000	6.643018	0.047539	NaN	0.000000	0.001614	0.001654	28.0833	0.055488	0.002045	27.1298	165.386	-164.943	0.129027	0.641351	-0.421439	-0.422778	0.047539	27.1298	-0.422753	-281479	-1.688910E-7	NaN
533	1.000000	0.650656	7.37027e+06	-50439.1	1005.82	-29755.7	0.000000	0.000000	6.650982	-0.000352	NaN	0.000000	0.001616	0.001649	28.0844	0.105900	0.002080	50.9216	110.571	-162.951	0.009242	0.649362	-0.413474	-0.414768	-0.000352	50.9216	-0.413468	-207827	1.691374E-9	NaN
533	1.000000	0.658629	7.37027e+06	-50439.1	1005.82	-29755.7	0.000000	0.000000	6.658953	-0.038395	NaN	0.000000	0.001631	0.001677	28.0832	0.079042	0.001888	41.8718	170.865	-166.173	0.035962	0.657351	-0.405501	-0.406779	-0.038395	41.8718	-0.404813	-156525	2.452940E-7	NaN
533	1.000000	0.666691	7.37027e+06	-50439.1	1005.82	-29755.7	0.000000	0.000000	6.667015	-0.030507	NaN	0.000000	0.001623	0.001664	28.0836	0.078289	0.001968	39.7882	-61.15	-162.598	0.065667	0.665327	-0.397439	-0.398803	-0.030507	39.7882	-0.396864	-120572	2.530181E-7	NaN
533	1.000000	0.674705	7.37027e+06	-50439.1	1005.82	-29755.7	0.000000	0.000000	6.675030	-0.034892	NaN	0.000000	0.001633	0.001629	28.0832	0.125403	0.002039	61.5005	65.33	-163.738	-0.045014	0.673344	-0.389424	-0.390786	-0.034892	61.5005	-0.388999	-93076.7	3.748721E-7	NaN
533	1.000000	0.682700	7.37027e+06	-50439.1	1005.82	-29755.7	0.000000	0.000000	6.683027	0.033457	NaN	0.000000	0.001623	0.001655	28.0833	0.025562	0.002000	12.7829	-146.084	-166.907	0.025244	0.681400	-0.381430	-0.382729	0.033457	12.7829	-0.383393	-77366.1	-4.324472E-7	NaN
533	1.000000	0.690709	7.37027e+06	-50439.1	1005.82	-29755.7	0.000000	0.000000	6.691034	-0.009564	NaN	0.000000	0.001639	0.001661	28.0822	0.057141	0.001999	28.5804	42.5224	-167.263	-0.063556	0.689405	-0.373420	-0.374724	-0.009564	28.5804	-0.373169	-55175.5	1.733385E-7	NaN
533	1.000000	0.698712	7.37027e+06	-50439.1	1005.82	-29755.7	0.000000	0.000000	6.699038	-0.005782	NaN	0.000000	0.001630	0.001650	28.0822	0.060075	0.001987	30.2393	-21.4894	-168.206	-0.144546	0.697392	-0.365417	-0.366737	-0.005782	30.2393	-0.365274	-42462.5	1.361623E-7	NaN
533	1.000000	0.706697	7.37027e+06	-50439.1	1005.82	-29755.7	0.000000	0.000000	6.707023	-0.011349	NaN	0.000000	0.001633	0.001692	28.0823	0.182982	0.001869	97.8888	-106.441	-165.131	0.022557	0.705452	-0.357432	-0.358678	-0.011349	97.8888	-0.357345	-32617.2	3.479462E-7	NaN
533	1.000000	0.714686	7.37027e+06	-50439.1	1005.82	-29755.7	0.000000	0.000000	6.715012	0.011123	NaN	0.000000	0.001601	0.001695	28.0821	0.073779	0.001999	36.913	-157.493	-164.595	0.045739	0.713384	-0.349443	-0.350745	0.011123	36.913	-0.349669	-25246.7	-4.405852E-7	NaN
533	1.000000	0.722722	7.37027e+06	-50439.1	1005.82	-29755.7	0.000000	0.000000	6.723047	-0.031442	NaN	0.000000	0.001647	0.001669	28.0822	0.100188	0.002110	47.4826	-104.268	-162.642	0.065616	0.721415	-0.341407	-0.342715	-0.031442	47.4826	-0.340911	-18828.9	1.669883E-6	NaN
533	1.000000	0.730703	7.37027e+06	-50439.1	1005.82	-29755.7	0.000000	0.000000	6.731030	0.009215	NaN	0.000000	0.001647	0.001699	28.082	0.069334	0.002071	33.4863	10.5711	-164.868	0.023769	0.729394	-0.333426	-0.334735	0.009215	33.4863	-0.333632	-14743.5	-6.249978E-7	NaN
533	1.000000	0.738719	7.37027e+06	-50439.1	1005.82	-29755.7	0.000000	0.000000	6.739044	-0.015917	NaN	0.000000	0.001646	0.001682	28.0829	0.082189	0.001922	42.7548	168.957	-164.15	0.004291	0.737380	-0.325411	-0.326750	-0.015917	42.7548	-0.325131	-11067.9	1.438086E-6	NaN
533	1.000000	0.746726	7.37027e+06	-50439.1	1005.82	-29755.7	0.000000	0.000000	6.747051	-0.014362	NaN	0.000000	0.001647	0.001691	28.0824	0.047911	0.001896	25.2694	13.9599	-168.418	-0.068666	0.745427	-0.317404	-0.318702	-0.014362	25.2694	-0.316978	-8396.85	1.710387E-6	NaN
533	1.000000	0.754718	7.37027e+06	-50439.1	1005.82	-29755.7	0.000000	0.000000	6.755042	-0.046427	NaN	0.000000	0.001654	0.001678	28.0825	0.028281	0.002119	13.3466	-20.5293	-165.575	-0.027557	0.753437	-0.309412	-0.310692	-0.046427	13.3466	-0.306803	-5938.8	7.817589E-6	NaN
533	1.000000	0.762745	7.37027e+06	-50439.1	1005.82	-29755.7	0.000000	0.000000	6.763073	0.050257	NaN	0.000000	0.001605	0.001666	28.0822	0.080365	0.001911	42.0639	153.877	-169.556	-0.013941	0.761476	-0.301384	-0.302653	0.050257	42.0639	-0.302280	-5088.16	-9.877242E-6	NaN
533	1.000000	0.770752	7.37027e+06	-50439.1	1005.82	-29755.7	0.000000	0.000000	6.771081	0.063839	NaN	0.000000	0.001618	0.001713	28.0823	0.066454	0.001980	33.5676	-42.8158	-167.227	0.045056	0.769464	-0.293377	-0.294666	0.063839	33.5676	-0.294803	-3936.88	-1.621552E-5	NaN
533	1.000000	0.778730	7.37027e+06	-50439.1	1005.82	-29755.7	0.000000	0.000000	6.779056	0.001666	NaN	0.000000	0.001608	0.001678	28.0825	0.111873	0.002111	52.9828	-86.5848	-169.138	-0.015945	0.777383	-0.285399	-0.286746	0.001666	52.9828	-0.285423	-2848.56	-5.847195E-7	NaN
533	1.000000	0.786703	7.37027e+06	-50439.1	1005.82	-29755.7	0.000000	0.000000	6.787029	0.009668	NaN	0.000000	0.001597	0.001743	28.0822	0.048520	0.002088	23.2328	-143.472	-168.743	-0.038874	0.785421	-0.277426	-0.278708	0.009668	23.2328	-0.277739	-2181.86	-4.431141E-6	NaN
533	1.000000	0.794722	7.37027e+06	-50439.1	1005.82	-29755.7	0.000000	0.000000	6.795049	0.007075	NaN	0.000000	0.001654	0.001639	28.0824	0.053262	0.002059	25.8653	98.9491	-168.265	-0.027349	0.793451	-0.269407	-0.270679	0.007075	25.8653	-0.269612	-1643.04	-4.306158E-6	NaN
533	1.000000	0.802761	7.37027e+06	-50439.1	1005.82	-29755.7	0.000000	0.000000	6.803086	-0.022279	NaN	0.000000	0.001636	0.001672	28.0822	0.041655	0.002008	20.7421	28.1511	-159.717	0.044524	0.801417	-0.261368	-0.262712	-0.022279	20.7421	-0.260563	-1195.47	1.863659E-5	NaN
533	1.000000	0.810752	7.37027e+06	-50439.1	1005.82	-29755.7	0.000000	0.000000	6.811077	-0.003682	NaN	0.000000	0.001606	0.001681	28.0822	0.132288	0.001995	66.3218	-63.9085	-164.23	0.064491	0.809419	-0.253378	-0.254710	-0.003682	66.3218	-0.253336	-925.728	3.977399E-6	NaN
533	1.000000	0.818727	7.37027e+06	-50439.1	1005.82	-29755.7	0.000000	0.000000	6.819056	0.070841	NaN	0.000000	0.001660	0.001724	28.0824	0.082237	0.001925	42.7228	160.292	-168.19	0.059899	0.817398	-0.245402	-0.246731	0.070841	42.7228	-0.246646	-729.469	-9.711347E-5	NaN
533	1.000000	0.826770	7.37027e+06	-50439.1	1005.82	-29755.7	0.000000	0.000000	6.827096	-0.002390	NaN	0.000000	0.001629	0.001660	28.0833	0.137043	0.001933	70.9102	-170.827	-166.935	0.064236	0.825402	-0.237359	-0.238728	-0.002390	70.9102	-0.237334	-522.222	4.576335E-6	NaN
533	1.000000	0.834743	7.37027e+06	-50439.1	1005.82	-29755.7	0.000000	0.000000	6.835072	0.070982	NaN	0.000000	0.001606	0.001686	28.0833	0.080010	0.002091	38.255	53.5803	-166.526	0.080178	0.833472	-0.229386	-0.230657	0.070982	38.255	-0.230778	-411.9	-0.000172	NaN
533	1.000000	0.842758	7.37027e+06	-50439.1	1005.82	-29755.7	0.000000	0.000000	6.843086	0.053718	NaN	0.000000	0.001634	0.001680	28.0834	0.119228	0.002016	59.1467	67.6069	-167.684	-0.026897	0.841491	-0.221372	-0.222638	0.053718	59.1467	-0.222053	-299.53	-0.000179	NaN
533	1.000000	0.850759	7.37027e+06	-50439.1	1005.82	-29755.7	0.000000	0.000000	6.851086	0.022653	NaN	0.000000	0.001647	0.001702	28.0834	0.025493	0.002032	12.5484	-63.097	-165.571	0.046589	0.849469	-0.213370	-0.214661	0.022653	12.5484	-0.214724	-228.6	-9.909240E-5	NaN
533	1.000000	0.858726	7.37027e+06	-50439.1	1005.82	-29755.7	0.000000	0.000000	6.859049	-0.064211	NaN	0.000000	0.001660	0.001649	28.0838	0.096557	0.001901	50.7862	178.537	-170.508	-0.029974	0.857456	-0.205404	-0.206674	-0.064211	50.7862	-0.204455	-155.838	0.000412	NaN
533	1.000000	0.866771	7.37027e+06	-50439.1	1005.82	-29755.7	0.000000	0.000000	6.867100	0.055665	NaN	0.000000	0.001655	0.001671	28.0835	0.089305	0.002048	43.5974	150.097	-167.659	-0.040148	0.865458	-0.197358	-0.198672	0.055665	43.5974	-0.198316	-123.589	-0.000450	NaN
533	1.000000	0.874737	7.37027e+06	-50439.1	1005.82	-29755.7	0.000000	0.000000	6.875060	-0.067702	NaN	0.000000	0.001648	0.001671	28.0837	0.089860	0.002135	42.0868	28.2302	-165.001	-0.040922	0.873440	-0.189392	-0.190690	-0.067702	42.0868	-0.188186	-83.8829	0.000807	NaN
533	1.000000	0.882791	7.37027e+06	-50439.1	1005.82	-29755.7	0.000000	0.000000	6.883116	-0.019393	NaN	0.000000	0.001629	0.001696	28.0837	0.081005	0.001943	41.6911	147.55	-162.595	0.038798	0.881424	-0.181338	-0.182706	-0.019393	41.6911	-0.180989	-63.4282	0.000306	NaN
533	1.000000	0.890766	7.37027e+06	-50439.1	1005.82	-29755.7	0.000000	0.000000	6.891091	-0.025253	NaN	0.000000	0.001644	0.001690	28.0837	0.080110	0.001951	41.0582	-139.606	-163.364	-0.041639	0.889468	-0.173363	-0.174661	-0.025253	41.0582	-0.172902	-46.1158	0.000548	NaN
533	1.000000	0.898793	7.37027e+06	-50439.1	1005.82	-29755.7	0.000000	0.000000	6.899119	-0.001659	NaN	0.000000	0.001584	0.001662	28.084	0.028742	0.002051	14.0152	-36.2946	-167.496	0.012065	0.897452	-0.165336	-0.166678	-0.001659	14.0152	-0.165248	-33.9353	4.890080E-5	NaN
533	1.000000	0.906781	7.37027e+06	-50439.1	1005.82	-29755.7	0.000000	0.000000	6.907107	-0.012666	NaN	0.000000	0.001565	0.001679	28.0835	0.058670	0.002024	28.9886	89.1923	-166.207	-0.002664	0.905450	-0.157348	-0.158679	-0.012666	28.9886	-0.157021	-24.2575	0.000522	NaN
533	1.000000	0.914783	7.37027e+06	-50439.1	1005.82	-29755.7	0.000000	0.000000	6.915112	0.086744	NaN	0.000000	0.001594	0.001653	28.0838	0.112496	0.001926	58.4229	122.718	-168.616	0.025951	0.913473	-0.149347	-0.150656	0.086744	58.4229	-0.150460	-18.4669	-0.004697	NaN
533	1.000000	0.922791	7.37027e+06	-50439.1	1005.82	-29755.7	0.000000	0.000000	6.923115	-0.037814	NaN	0.000000	0.001649	0.001662	28.0835	0.055574	0.002086	26.6407	-24.6015	-170.299	0.011539	0.921506	-0.141338	-0.142623	-0.037814	26.6407	-0.140274	-11.9704	0.003159	NaN
533	1.000000	0.930791	7.37027e+06	-50439.1	1005.82	-29755.7	0.000000	0.000000	6.931114	-0.057049	NaN	0.000000	0.001610	0.001684	28.0837	0.050862	0.002058	24.7134	-111.279	-165.496	-0.085208	0.929485	-0.133339	-0.134644	-0.057049	24.7134	-0.131607	-8.187387	0.006968	NaN
533	1.000000	0.938801	7.37027e+06	-50439.1	1005.82	-29755.7	0.000000	0.000000	6.939128	0.026081	NaN	0.000000	0.001617	0.001663	28.0837	0.100177	0.002023	49.5164	-106.627	-168.133	-0.040471	0.937474	-0.125328	-0.126656	0.026081	49.5164	-0.125723	-6.284780	-0.004150	NaN
533	1.000000	0.946772	7.37027e+06	-50439.1	1005.82	-29755.7	0.000000	0.000000	6.947098	0.013939	NaN	0.000000	0.001644	0.001657	28.0836	0.077458	0.002014	38.459	80.9561	-166.137	-0.044005	0.945484	-0.117357	-0.118645	0.013939	38.459	-0.117629	-4.325117	-0.003223	NaN
533	1.000000	0.954763	7.37027e+06	-50439.1	1005.82	-29755.7	0.000000	0.000000	6.955089	0.019284	NaN	0.000000	0.001654	0.001713	28.0841	0.035646	0.001892	18.8408	-114.953	-166.06	-0.015005	0.953493	-0.109367	-0.110637	0.019284	18.8408	-0.110134	-3.024876	-0.006375	NaN
533	1.000000	0.962829	7.37027e+06	-50439.1	1005.82	-29755.7	0.000000	0.000000	6.963155	0.007415	NaN	0.000000	0.001628	0.001680	28.083	0.038481	0.002083	18.4753	156.096	-166.826	-0.067039	0.961519	-0.101300	-0.102610	0.007415	18.4753	-0.101601	-1.982089	-0.003741	NaN
533	1.000000	0.970801	7.37027e+06	-50439.1	1005.82	-29755.7	0.000000	0.000000	6.971128	0.014729	NaN	0.000000	0.001640	0.001663	28.0825	0.105275	0.002151	48.9473	142.604	-163.556	0.024552	0.969499	-0.093328	-0.094630	0.014729	48.9473	-0.093554	-1.307144	-0.011268	NaN
533	1.000000	0.978815	7.37027e+06	-50439.1	1005.82	-29755.7	0.000000	0.000000	6.979140	-0.020675	NaN	0.000000	0.001666	0.001688	28.0824	0.058170	0.001938	30.0089	-29.9653	-163.072	-0.043043	0.977478	-0.085314	-0.086652	-0.020675	30.0089	-0.084797	-0.812408	0.025449	NaN
533	1.000000	0.986823	7.37027e+06	-50439.1	1005.82	-29755.7	0.000000	0.000000	6.987151	0.049358	NaN	0.000000	0.001616	0.001687	28.0824	0.087000	0.002057	42.2854	106.082	-166.889	0.022663	0.985544	-0.077306	-0.078585	0.049358	42.2854	-0.078182	-0.557107	-0.088597	NaN
533	1.000000	0.994835	7.37027e+06	-50439.1	1005.82	-29755.7	0.000000	0.000000	6.995160	-0.023366	NaN	0.000000	0.001671	0.001722	28.0826	0.026300	0.002081	12.6385	-167.212	-167.78	-0.064255	0.993531	-0.069294	-0.070599	-0.023366	12.6385	-0.067908	-0.299524	0.078010	NaN
533	1.000000	1.002836	7.37027e+06	-50439.1	1005.82	-29755.7	0.000000	0.000000	7.003161	-0.018863	NaN	0.000000	0.001642	0.001678	28.0828	0.014111	0.002039	6.921374	49.6598	-167.448	0.003239	1.001530	-0.061293	-0.062599	-0.018863	6.921374	-0.059249	-0.171361	0.110080	NaN
533	1.000000	1.010804	7.37027e+06	-50439.1	1005.82	-29755.7	0.000000	0.000000	7.011128	-0.036201	NaN	0.000000	0.001635	0.001696	28.0826	0.107869	0.002076	51.9502	91.6449	-168.508	-0.053522	1.009506	-0.053325	-0.054623	-0.036201	51.9502	-0.052803	-0.110797	0.326730	NaN
533	1.000000	1.018809	7.37027e+06	-50439.1	1005.82	-29755.7	0.000000	0.000000	7.019134	-0.015714	NaN	0.000000	0.001640	0.001707	28.0823	0.099691	0.001876	53.1394	-96.2375	-167.788	-0.036531	1.017563	-0.045321	-0.046566	-0.015714	53.1394	-0.045099	-0.064718	0.242804	NaN
533	1.000000	1.026830	7.37027e+06	-50439.1	1005.82	-29755.7	0.000000	0.000000	7.027157	0.027321	NaN	0.000000	0.001662	0.001663	28.0824	0.047601	0.002174	21.8938	125.682	-168.087	0.047313	1.025547	-0.037299	-0.038582	0.027321	21.8938	-0.038235	-0.039989	-0.683213	NaN
533	1.000000	1.034862	7.37027e+06	-50439.1	1005.82	-29755.7	0.000000	0.000000	7.035187	-0.037640	NaN	0.000000	0.001655	0.001719	28.0825	0.019849	0.002193	9.049496	-90.1219	-168.054	-0.071575	1.033547	-0.029267	-0.030582	-0.037640	9.049496	-0.026148	-0.018085	2.081345	NaN
533	1.000000	1.042835	7.37027e+06	-50439.1	1005.82	-29755.7	0.000000	0.000000	7.043161	0.020253	NaN	0.000000	0.001659	0.001673	28.0824	0.020538	0.002048	10.0305	-71.461	-167.633	-0.074322	1.041509	-0.021295	-0.022621	0.020253	10.0305	-0.022809	-0.014809	-1.367629	NaN
533	1.000000	1.050831	7.37027e+06	-50439.1	1005.82	-29755.7	0.000000	0.000000	7.051156	-0.025130	NaN	0.000000	0.001633	0.001663	28.0825	0.039698	0.002078	19.1084	146.687	-168.269	0.048693	1.049518	-0.013298	-0.014612	-0.025130	19.1084	-0.012312	-0.007707	3.260804	NaN
533	1.000000	1.058858	7.37027e+06	-50439.1	1005.82	-29755.7	0.000000	0.000000	7.059185	0.025387	NaN	0.000000	0.001660	0.001660	28.0823	0.078792	0.002118	37.1973	165.107	-169.892	-0.004037	1.057546	-0.005271	-0.006583	0.025387	37.1973	-0.005783	-0.003903	-6.503663	NaN
533	1.000000	1.066813	7.37027e+06	-50439.1	1005.82	-29755.7	0.000000	0.000000	7.067261	2.953869	NaN	0.000000	0.001626	0.001671	28.0824	3.864922	0.001721	2245.29	7.805914	-167.435	1.706744	1.065501	0.002684	0.001372	2.953869	2245.29	0.001697	0.001311	2252.54	56648.3
533	2.000000	1.072410	7.37027e+06	-50439.1	1005.82	-29755.7	0.000000	0.000000	7.073112	9.161447	NaN	0.000000	0.001643	0.001694	28.0823	9.097728	0.001520	5985.98	11.6481	-176.005	9.683501	1.072064	0.008280	0.007934	9.161447	5985.98	0.007132	0.006165	1486	69652.4
533	2.000000	1.074364	7.37027e+06	-50439.1	1005.82	-29755.7	0.000000	0.000000	7.075137	10.8789	NaN	0.000000	0.001663	0.001654	28.0825	11.7452	0.001800	6523.93	3.522384	-169.968	10.4571	1.074072	0.010234	0.009943	10.8789	6523.93	0.008983	0.008074	1347.48	66336.3
533	2.000000	1.076355	7.37027e+06	-50439.1	1005.82	-29755.7	0.000000	0.000000	7.077309	15.2852	NaN	0.000000	0.001633	0.001651	28.0825	13.5779	0.001722	7883.64	2.313447	-171.127	14.6406	1.076040	0.012225	0.011910	15.2852	7883.64	0.010771	0.010051	1520.71	71843.6
533	2.000000	1.078341	7.37027e+06	-50439.1	1005.82	-29755.7	0.000000	0.000000	7.079437	18.716	NaN	0.000000	0.001708	0.001658	28.0827	16.3229	0.001820	8970.46	4.987877	-174.197	18.6308	1.078049	0.014212	0.013920	18.716	8970.46	0.012647	0.012274	1524.83	73976.4
533	2.000000	1.080320	7.37027e+06	-50439.1	1005.82	-29755.7	0.000000	0.000000	7.081585	22.8315	NaN	0.000000	0.001684	0.001644	28.0837	18.1331	0.001768	10258	4.573269	-174.035	22.9106	1.080026	0.016191	0.015896	22.8315	10258	0.014522	0.014653	1558.18	77424.1
533	2.000000	1.082310	7.37027e+06	-50439.1	1005.82	-29755.7	0.000000	0.000000	7.083800	28.3079	NaN	0.000000	0.001722	0.001626	28.0838	20.1998	0.001843	10961.1	8.646610	-179.275	26.3136	1.081958	0.018181	0.017828	28.3079	10961.1	0.016244	0.016980	1667.16	76853
533	2.000000	1.084319	7.37027e+06	-50439.1	1005.82	-29755.7	0.000000	0.000000	7.085937	31.4282	NaN	0.000000	0.001707	0.001674	28.0837	22.2913	0.001741	12805.4	7.794757	-179.46	30.4622	1.083929	0.020189	0.019800	31.4282	12805.4	0.018349	0.020014	1570.33	82699.6
533	2.000000	1.086309	7.37027e+06	-50439.1	1005.82	-29755.7	0.000000	0.000000	7.088155	36.9665	NaN	0.000000	0.001664	0.001638	28.0838	23.8764	0.001774	13458.8	6.244908	-178.866	37.003	1.086048	0.022180	0.021918	36.9665	13458.8	0.020120	0.022731	1626.29	81559.8
533	2.000000	1.088312	7.37027e+06	-50439.1	1005.82	-29755.7	0.000000	0.000000	7.090346	41.5272	NaN	0.000000	0.001671	0.001673	28.0836	26.3116	0.001789	14711.2	4.310663	-177.306	41.0886	1.087934	0.024183	0.023805	41.5272	14711.2	0.022066	0.025893	1603.82	83528.1
533	2.000000	1.090317	7.37027e+06	-50439.1	1005.82	-29755.7	0.000000	0.000000	7.092646	48.6994	NaN	0.000000	0.001647	0.001750	28.0838	28.9138	0.001683	17183.1	3.603454	-178.717	48.4772	1.089924	0.026188	0.025795	48.6994	17183.1	0.024062	0.029332	1660.29	91665.1
533	2.000000	1.092279	7.37027e+06	-50439.1	1005.82	-29755.7	0.000000	0.000000	7.094747	52.0906	NaN	0.000000	0.001604	0.001694	28.0836	30.6667	0.001714	17889.9	8.304784	176.046	50.9017	1.091923	0.028150	0.027794	52.0906	17889.9	0.025966	0.032796	1588.31	90254.8
533	2.000000	1.094247	7.37027e+06	-50439.1	1005.82	-29755.7	0.000000	0.000000	7.097040	60.0061	NaN	0.000000	0.001635	0.001698	28.0839	32.7768	0.001689	19400.5	2.926322	-179.42	57.4103	1.093954	0.030117	0.029825	60.0061	19400.5	0.027797	0.036302	1652.97	93029.5
533	2.000000	1.096289	7.37027e+06	-50439.1	1005.82	-29755.7	0.000000	0.000000	7.099363	66.8262	NaN	0.000000	0.001637	0.001704	28.0838	34.7402	0.001726	20130	10.1892	174.355	67.286	1.095937	0.032160	0.031808	66.8262	20130	0.029670	0.040063	1668.03	91885.3
533	2.000000	1.098271	7.37027e+06	-50439.1	1005.82	-29755.7	0.000000	0.000000	7.101708	75.6567	NaN	0.000000	0.001654	0.001691	28.0837	38.0767	0.001834	20765.4	8.076963	175.212	75.8007	1.097945	0.034142	0.033815	75.6567	20765.4	0.031409	0.043715	1730.66	90739.7
533	2.000000	1.100341	7.37027e+06	-50439.1	1005.82	-29755.7	0.000000	0.000000	7.104094	83.3415	NaN	0.000000	0.001631	0.001693	28.0837	38.908	0.001655	23503.3	4.351382	178.465	83.17	1.099891	0.036212	0.035762	83.3415	23503.3	0.033552	0.048428	1720.93	97578.1
533	2.000000	1.102241	7.37027e+06	-50439.1	1005.82	-29755.7	0.000000	0.000000	7.106310	91.0325	NaN	0.000000	0.001645	0.001720	28.0836	40.5932	0.001787	22714.2	4.256660	177.888	89.7627	1.102025	0.038112	0.037895	91.0325	22714.2	0.035106	0.051993	1750.86	91012
533	2.000000	1.104256	7.37027e+06	-50439.1	1005.82	-29755.7	0.000000	0.000000	7.108569	96.9793	NaN	0.000000	0.001648	0.001718	28.0836	43.5536	0.001829	23814.7	7.401621	175.369	95.9749	1.103917	0.040126	0.039788	96.9793	23814.7	0.037072	0.056681	1710.97	91390.4
533	2.000000	1.106237	7.37027e+06	-50439.1	1005.82	-29755.7	0.000000	0.000000	7.110821	103.552	NaN	0.000000	0.001610	0.001725	28.0847	43.8388	0.001725	25410.4	0.959910	-179.835	101.908	1.105997	0.042108	0.041868	103.552	25410.4	0.039051	0.061599	1681.07	93540
533	2.000000	1.108201	7.37027e+06	-50439.1	1005.82	-29755.7	0.000000	0.000000	7.113258	115.037	NaN	0.000000	0.001636	0.001740	28.0837	46.7034	0.001681	27778.3	5.541258	174.355	112.431	1.107952	0.044072	0.043823	115.037	27778.3	0.040966	0.066548	1728.63	98381
533	2.000000	1.110313	7.37027e+06	-50439.1	1005.82	-29755.7	0.000000	0.000000	7.115748	124.251	NaN	0.000000	0.001633	0.001714	28.0834	49.0227	0.001783	27495	8.112348	174.234	124.044	1.109871	0.046183	0.045741	124.251	27495	0.042794	0.071449	1739.02	93978.7
533	2.000000	1.112252	7.37027e+06	-50439.1	1005.82	-29755.7	0.000000	0.000000	7.118059	133.291	NaN	0.000000	0.001617	0.001763	28.0834	50.1779	0.001712	29317.3	2.846349	177.315	134.306	1.111934	0.048123	0.047805	133.291	29317.3	0.044713	0.076775	1736.12	96668.8
533	2.000000	1.114217	7.37027e+06	-50439.1	1005.82	-29755.7	0.000000	0.000000	7.120305	140.118	NaN	0.000000	0.001613	0.001790	28.0824	52.9508	0.001793	29523.9	4.846126	175.337	137.111	1.113974	0.050088	0.049845	140.118	29523.9	0.046528	0.081985	1709.05	94205.9
533	2.000000	1.116254	7.37027e+06	-50439.1	1005.82	-29755.7	0.000000	0.000000	7.122840	152.218	NaN	0.000000	0.001601	0.001788	28.0832	53.517	0.001744	30684.4	3.689739	176.022	151.132	1.115948	0.052125	0.051818	152.218	30684.4	0.048404	0.087545	1738.73	94748.8
533	2.000000	1.118171	7.37027e+06	-50439.1	1005.82	-29755.7	0.000000	0.000000	7.125214	163.33	NaN	0.000000	0.001622	0.001758	28.0827	57.3615	0.001922	29843.3	5.996239	174.08	160.718	1.117882	0.054042	0.053753	163.33	29843.3	0.049937	0.092219	1771.11	89786.2
533	2.000000	1.120273	7.37027e+06	-50439.1	1005.82	-29755.7	0.000000	0.000000	7.127637	171.174	NaN	0.000000	0.001580	0.001760	28.0823	59.1824	0.001827	32399.5	5.564912	173.858	171.233	1.119908	0.056143	0.055779	171.174	32399.5	0.052181	0.099273	1724.28	93949.8
533	2.000000	1.122207	7.37027e+06	-50439.1	1005.82	-29755.7	0.000000	0.000000	7.130138	184.94	NaN	0.000000	0.001654	0.001793	28.0825	60.1296	0.001865	32245.2	7.452639	172.774	182.46	1.121857	0.058078	0.057728	184.94	32245.2	0.053776	0.104442	1770.75	91159.5
533	2.000000	1.124218	7.37027e+06	-50439.1	1005.82	-29755.7	0.000000	0.000000	7.132352	189.89	NaN	0.000000	0.001592	0.001791	28.0824	61.7859	0.001677	36833.4	3.289713	174.262	186.982	1.124100	0.060089	0.059971	189.89	36833.4	0.056222	0.112610	1686.25	100282
533	2.000000	1.126169	7.37027e+06	-50439.1	1005.82	-29755.7	0.000000	0.000000	7.135039	207.79	NaN	0.000000	0.001643	0.001780	28.0827	63.0101	0.001745	36114.3	6.229574	172.594	203.025	1.125874	0.062039	0.061745	207.79	36114.3	0.057724	0.117773	1764.32	96145.4
533	2.000000	1.128153	7.37027e+06	-50439.1	1005.82	-29755.7	0.000000	0.000000	7.137586	221.477	NaN	0.000000	0.001626	0.001770	28.0825	65.6683	0.001833	35819.3	6.414648	172.634	217.851	1.127911	0.064023	0.063781	221.477	35819.3	0.059386	0.123615	1791.67	93079.6
533	2.000000	1.130223	7.37027e+06	-50439.1	1005.82	-29755.7	0.000000	0.000000	7.140140	233.237	NaN	0.000000	0.001622	0.001771	28.0822	67.8912	0.001800	37719.2	7.997704	170.659	231.807	1.129831	0.066093	0.065702	233.237	37719.2	0.061456	0.131080	1779.35	95184.8
533	2.000000	1.132248	7.37027e+06	-50439.1	1005.82	-29755.7	0.000000	0.000000	7.142564	242.937	NaN	0.000000	0.001611	0.001773	28.0825	69.0165	0.001786	38649.1	6.729005	171.068	241.467	1.131899	0.068119	0.067770	242.937	38649.1	0.063405	0.138299	1756.6	94951.7
533	2.000000	1.134170	7.37027e+06	-50439.1	1005.82	-29755.7	0.000000	0.000000	7.145296	262.639	NaN	0.000000	0.001599	0.001796	28.0823	71.0598	0.001781	39892.4	3.468265	174.323	259.318	1.133840	0.070041	0.069711	262.639	39892.4	0.065103	0.144741	1814.55	95800.5
533	2.000000	1.136197	7.37027e+06	-50439.1	1005.82	-29755.7	0.000000	0.000000	7.147731	272.579	NaN	0.000000	0.001603	0.001818	28.0827	71.5012	0.001677	42646	1.782741	175.703	271.064	1.135914	0.072067	0.071785	272.579	42646	0.067273	0.153174	1779.54	99554.3
533	2.000000	1.138269	7.37027e+06	-50439.1	1005.82	-29755.7	0.000000	0.000000	7.150078	279.23	NaN	0.000000	0.001598	0.001802	28.0824	76.135	0.001781	42743.7	4.108304	173.346	283.627	1.137863	0.074140	0.073734	279.23	42743.7	0.069241	0.161012	1734.22	97323.2
533	2.000000	1.140231	7.37027e+06	-50439.1	1005.82	-29755.7	0.000000	0.000000	7.152982	302.14	NaN	0.000000	0.001561	0.001781	28.0825	77.9034	0.001776	43875.3	3.776194	174.213	301.038	1.139800	0.076102	0.075671	302.14	43875.3	0.070937	0.167921	1799.3	97823
533	2.000000	1.142129	7.37027e+06	-50439.1	1005.82	-29755.7	0.000000	0.000000	7.155585	319.305	NaN	0.000000	0.001602	0.001796	28.083	79.9647	0.001810	44187.8	5.437285	172.121	314.658	1.141786	0.078000	0.077656	319.305	44187.8	0.072580	0.174742	1827.29	96577.7
533	2.000000	1.144278	7.37027e+06	-50439.1	1005.82	-29755.7	0.000000	0.000000	7.157923	323.898	NaN	0.000000	0.001594	0.001751	28.0824	82.0313	0.001778	46129.7	3.080504	173.365	324.787	1.143973	0.080149	0.079843	323.898	46129.7	0.074883	0.184515	1755.4	98115.6
533	2.000000	1.146204	7.37027e+06	-50439.1	1005.82	-29755.7	0.000000	0.000000	7.160541	340.714	NaN	0.000000	0.001579	0.001793	28.0826	81.6847	0.001615	50580.4	3.094232	173.081	338.318	1.145925	0.082075	0.081795	340.714	50580.4	0.077023	0.193824	1757.85	104967
533	2.000000	1.148246	7.37027e+06	-50439.1	1005.82	-29755.7	0.000000	0.000000	7.163137	354.18	NaN	0.000000	0.001601	0.001800	28.0834	85.9224	0.001812	47428.7	7.944937	169.726	354.978	1.147789	0.084117	0.083660	354.18	47428.7	0.078516	0.200446	1766.96	96786.8
533	2.000000	1.150233	7.37027e+06	-50439.1	1005.82	-29755.7	0.000000	0.000000	7.165884	372.693	NaN	0.000000	0.001594	0.001783	28.0836	87.8917	0.001846	47607.4	4.874465	172.33	371.333	1.149893	0.086103	0.085764	372.693	47607.4	0.080232	0.208182	1790.22	95329.1
533	2.000000	1.152214	7.37027e+06	-50439.1	1005.82	-29755.7	0.000000	0.000000	7.168426	386.328	NaN	0.000000	0.001614	0.001780	28.0838	90.7958	0.001761	51549	9.359436	166.694	386.029	1.151836	0.088085	0.087707	386.328	51549	0.082464	0.218453	1768.47	100766
533	2.000000	1.154180	7.37027e+06	-50439.1	1005.82	-29755.7	0.000000	0.000000	7.170975	400.487	NaN	0.000000	0.001627	0.001747	28.0837	93.3678	0.001847	50541.7	2.697448	173.315	397.907	1.153912	0.090051	0.089782	400.487	50541.7	0.084108	0.226164	1770.78	97098.2
533	2.000000	1.156213	7.37027e+06	-50439.1	1005.82	-29755.7	0.000000	0.000000	7.173574	414.262	NaN	0.000000	0.001614	0.001788	28.0838	94.7053	0.001819	52060.1	4.009973	171.923	413.324	1.155822	0.092083	0.091693	414.262	52060.1	0.086115	0.235751	1757.2	97960.7
533	2.000000	1.158185	7.37027e+06	-50439.1	1005.82	-29755.7	0.000000	0.000000	7.175883	422.457	NaN	0.000000	0.001622	0.001770	28.0837	96.8605	0.001765	54884.6	5.171252	169.74	420.395	1.157881	0.094056	0.093751	422.457	54884.6	0.088283	0.246311	1715.13	101037
533	2.000000	1.160263	7.37027e+06	-50439.1	1005.82	-29755.7	0.000000	0.000000	7.179015	448.114	NaN	0.000000	0.001603	0.001774	28.0839	99.5744	0.001881	52949.5	5.555556	170.769	448.791	1.159799	0.096133	0.095670	448.114	52949.5	0.089786	0.253759	1765.9	96033.8
533	2.000000	1.162220	7.37027e+06	-50439.1	1005.82	-29755.7	0.000000	0.000000	7.181723	466.343	NaN	0.000000	0.001568	0.001813	28.0838	100.68	0.001789	56287.9	7.704123	168.424	467.998	1.161725	0.098091	0.097595	466.343	56287.9	0.091877	0.264296	1764.47	100033
533	2.000000	1.164164	7.37027e+06	-50439.1	1005.82	-29755.7	0.000000	0.000000	7.184299	481.722	NaN	0.000000	0.001611	0.001784	28.0837	103.124	0.001868	55198.4	5.934742	169.868	478.881	1.163874	0.100035	0.099745	481.722	55198.4	0.093489	0.272556	1767.42	96598.8
533	2.000000	1.166152	7.37027e+06	-50439.1	1005.82	-29755.7	0.000000	0.000000	7.187038	499.983	NaN	0.000000	0.001587	0.001790	28.0839	103.668	0.001743	59463.7	6.615934	169.596	497.934	1.165721	0.102023	0.101591	499.983	59463.7	0.095717	0.284164	1759.49	101916
533	2.000000	1.168146	7.37027e+06	-50439.1	1005.82	-29755.7	0.000000	0.000000	7.189687	515.893	NaN	0.000000	0.001583	0.001779	28.0838	106.31	0.001889	56264.4	3.865817	171.848	513.878	1.167912	0.104017	0.103783	515.893	56264.4	0.097140	0.291700	1768.58	95178.5
533	2.000000	1.170092	7.37027e+06	-50439.1	1005.82	-29755.7	0.000000	0.000000	7.192343	533.181	NaN	0.000000	0.001599	0.001804	28.0843	107.924	0.001840	58652.4	4.301296	170.924	529.133	1.169846	0.105963	0.105717	533.181	58652.4	0.099145	0.302468	1762.77	97436