File: remote_trans/data/nanoindenter/0828-1/data/Data_2025-08-06,11h17m57s/2025-07-22_16-23-58_1_1079.txt
2025-07-22, 16:23:58, 1
Index	Phase	Displacement	Time	Pos X	Pos Y	Pos Z	Rot A	Rot B	Piezo Z	Force A	Force B	Gripper	Voltage A	Voltage B	Temperature	Amplitude force	Amplitude pos	Stiffness	Phase shift	Phase excitation	Force A raw	Displacement raw	HMax	HMax raw	Real Force	Real Stiffness	Contact Depth	Area	Hardness	Reduced Mod.
[#]	[#]	[um]	[s]	[um]	[um]	[um]	[m°]	[m°]	[um]	[uN]	[uN]	[V]	[V]	[V]	[°C]	[uN]	[um]	[N/m]	[°]	[°]	[uN]	[um]	[um]	[um]	[uN]	[N/m]	[um]	[um^2]	[MPa]	[MPa]
1079	1.000000	0.002517	7.3756e+06	-54089.1	1055.82	-29744.2	0.000000	0.000000	6.002791	0.089339	NaN	0.000000	0.001531	0.001649	28.0842	0.040384	0.000930	43.4067	-59.1068	-163.392	0.071098	0.001274	-1.253737	-1.254981	0.089339	43.4067	-1.255281	-6.033334E+16	-1.480759E-18	NaN
1079	1.000000	0.012576	7.3756e+06	-54089.1	1055.82	-29744.2	0.000000	0.000000	6.012849	0.078211	NaN	0.000000	0.001573	0.001652	28.084	0.083256	0.001322	62.9655	55.3183	17.7382	0.066812	0.011147	-1.243679	-1.245108	0.078211	62.9655	-1.244610	-4.343324E+16	-1.800726E-18	NaN
1079	1.000000	0.022478	7.3756e+06	-54089.1	1055.82	-29744.2	0.000000	0.000000	6.022749	0.032786	NaN	0.000000	0.001597	0.001632	28.084	0.049877	0.001535	32.4937	122.966	-164.577	0.002309	0.021203	-1.233777	-1.235052	0.032786	32.4937	-1.234534	-3.184245E+16	-1.029636E-18	NaN
1079	1.000000	0.032474	7.3756e+06	-54089.1	1055.82	-29744.2	0.000000	0.000000	6.032747	0.071187	NaN	0.000000	0.001590	0.001621	28.0838	0.008580	0.001813	4.731915	64.0276	11.4778	0.119986	0.031132	-1.223781	-1.225123	0.071187	4.731915	-1.235064	-3.236650E+16	-2.199411E-18	NaN
1079	1.000000	0.042507	7.3756e+06	-54089.1	1055.82	-29744.2	0.000000	0.000000	6.042778	0.003145	NaN	0.000000	0.001609	0.001639	28.0842	0.072368	0.001948	37.15	146.821	-166.184	-0.021457	0.041169	-1.213747	-1.215085	0.003145	37.15	-1.213811	-1.681337E+16	-1.870813E-19	NaN
1079	1.000000	0.052501	7.3756e+06	-54089.1	1055.82	-29744.2	0.000000	0.000000	6.052772	0.027096	NaN	0.000000	0.001622	0.001634	28.0841	0.032302	0.001850	17.4578	-85.6371	15.9275	0.056767	0.051171	-1.203754	-1.205083	0.027096	17.4578	-1.204918	-1.278197E+16	-2.119897E-18	NaN
1079	1.000000	0.062468	7.3756e+06	-54089.1	1055.82	-29744.2	0.000000	0.000000	6.062740	0.046820	NaN	0.000000	0.001667	0.001672	28.084	0.042951	0.002001	21.4607	-17.0747	-164.976	-0.001827	0.061126	-1.193787	-1.195128	0.046820	21.4607	-1.195423	-9.538030E+15	-4.908771E-18	NaN
1079	1.000000	0.072490	7.3756e+06	-54089.1	1055.82	-29744.2	0.000000	0.000000	6.072761	0.027906	NaN	0.000000	0.001626	0.001625	28.0843	0.030445	0.002067	14.7304	163.303	12.3844	0.028826	0.071174	-1.183765	-1.185081	0.027906	14.7304	-1.185185	-6.955612E+15	-4.012053E-18	NaN
1079	1.000000	0.082482	7.3756e+06	-54089.1	1055.82	-29744.2	0.000000	0.000000	6.082754	0.060145	NaN	0.000000	0.001620	0.001633	28.0843	0.103575	0.002031	51.0091	86.5372	-164.498	0.049956	0.081124	-1.173773	-1.175131	0.060145	51.0091	-1.174657	-5.026744E+15	-1.196508E-17	NaN
1079	1.000000	0.092493	7.3756e+06	-54089.1	1055.82	-29744.2	0.000000	0.000000	6.092761	-0.064753	NaN	0.000000	0.001668	0.001623	28.0842	0.125401	0.002111	59.4137	103.537	12.8359	0.045654	0.091166	-1.163761	-1.165088	-0.064753	59.4137	-1.162944	-3.502080E+15	1.848997E-17	NaN
1079	1.000000	0.102476	7.3756e+06	-54089.1	1055.82	-29744.2	0.000000	0.000000	6.102748	0.049840	NaN	0.000000	0.001596	0.001611	28.0841	0.055673	0.002007	27.7374	-100.256	-164.193	0.033244	0.101145	-1.153779	-1.155109	0.049840	27.7374	-1.155126	-2.751318E+15	-1.811489E-17	NaN
1079	1.000000	0.112535	7.3756e+06	-54089.1	1055.82	-29744.2	0.000000	0.000000	6.112808	0.090811	NaN	0.000000	0.001560	0.001600	28.0843	0.058435	0.002051	28.4848	-145.358	11.7417	0.023062	0.111182	-1.143720	-1.145073	0.090811	28.4848	-1.146111	-2.082954E+15	-4.359702E-17	NaN
1079	1.000000	0.122516	7.3756e+06	-54089.1	1055.82	-29744.2	0.000000	0.000000	6.122789	0.068759	NaN	0.000000	0.001575	0.001624	28.0831	0.014263	0.001875	7.608667	51.141	-168.127	0.105422	0.121206	-1.133738	-1.135049	0.068759	7.608667	-1.140516	-1.752490E+15	-3.923486E-17	NaN
1079	1.000000	0.132509	7.3756e+06	-54089.1	1055.82	-29744.2	0.000000	0.000000	6.132780	0.019832	NaN	0.000000	0.001599	0.001624	28.0832	0.085960	0.001902	45.204	157.928	12.0222	-0.005578	0.131131	-1.123746	-1.125123	0.019832	45.204	-1.124075	-1.054726E+15	-1.880290E-17	NaN
1079	1.000000	0.142500	7.3756e+06	-54089.1	1055.82	-29744.2	0.000000	0.000000	6.142772	0.038472	NaN	0.000000	0.001600	0.001642	28.083	0.012342	0.001893	6.521580	-14.5839	-167.282	-0.024513	0.141192	-1.113755	-1.115062	0.038472	6.521580	-1.118179	-8.791058E+14	-4.376288E-17	NaN
1079	1.000000	0.152525	7.3756e+06	-54089.1	1055.82	-29744.2	0.000000	0.000000	6.152793	-0.030309	NaN	0.000000	0.001636	0.001663	28.0832	0.042106	0.001996	21.0962	-6.804421	14.6402	-0.043782	0.151168	-1.103730	-1.105086	-0.030309	21.0962	-1.102652	-5.440927E+14	5.570641E-17	NaN
1079	1.000000	0.162527	7.3756e+06	-54089.1	1055.82	-29744.2	0.000000	0.000000	6.162798	0.021210	NaN	0.000000	0.001588	0.001667	28.083	0.060945	0.001990	30.63	-66.1014	-164.165	0.070015	0.161232	-1.093728	-1.095023	0.021210	30.63	-1.094247	-4.196017E+14	-5.054702E-17	NaN
1079	1.000000	0.172542	7.3756e+06	-54089.1	1055.82	-29744.2	0.000000	0.000000	6.172816	0.104881	NaN	0.000000	0.001604	0.001634	28.0832	0.051401	0.001965	26.1521	-78.7972	16.0921	0.025673	0.171169	-1.083713	-1.085085	0.104881	26.1521	-1.086720	-3.324861E+14	-3.154433E-16	NaN
1079	1.000000	0.182509	7.3756e+06	-54089.1	1055.82	-29744.2	0.000000	0.000000	6.182780	0.024073	NaN	0.000000	0.001595	0.001643	28.083	0.068557	0.002001	34.2614	76.5949	-168.04	-0.027674	0.181242	-1.073746	-1.075013	0.024073	34.2614	-1.074273	-2.262505E+14	-1.063976E-16	NaN
1079	1.000000	0.192525	7.3756e+06	-54089.1	1055.82	-29744.2	0.000000	0.000000	6.192797	0.043037	NaN	0.000000	0.001612	0.001648	28.0832	0.077700	0.001812	42.8851	-76.4676	12.8715	0.101884	0.191207	-1.063729	-1.065048	0.043037	42.8851	-1.064482	-1.671284E+14	-2.575069E-16	NaN
1079	1.000000	0.202526	7.3756e+06	-54089.1	1055.82	-29744.2	0.000000	0.000000	6.202799	0.065327	NaN	0.000000	0.001541	0.001619	28.0832	0.046447	0.002059	22.5631	102.051	-168.737	0.107570	0.201236	-1.053729	-1.055019	0.065327	22.5631	-1.055900	-1.281506E+14	-5.097687E-16	NaN
1079	1.000000	0.212547	7.3756e+06	-54089.1	1055.82	-29744.2	0.000000	0.000000	6.212820	0.076259	NaN	0.000000	0.001585	0.001685	28.0829	0.048054	0.002076	23.1493	68.4413	13.096	0.051599	0.211178	-1.043707	-1.045077	0.076259	23.1493	-1.046178	-9.484910E+13	-8.040030E-16	NaN
1079	1.000000	0.222535	7.3756e+06	-54089.1	1055.82	-29744.2	0.000000	0.000000	6.222807	0.060994	NaN	0.000000	0.001583	0.001657	28.0833	0.057045	0.002081	27.4189	166.041	-165.206	0.062050	0.221242	-1.033720	-1.035012	0.060994	27.4189	-1.035388	-6.791247E+13	-8.981195E-16	NaN
1079	1.000000	0.232569	7.3756e+06	-54089.1	1055.82	-29744.2	0.000000	0.000000	6.232840	0.022182	NaN	0.000000	0.001554	0.001657	28.0832	0.065922	0.001990	33.1277	-49.4189	15.0869	0.009688	0.231167	-1.023686	-1.025088	0.022182	33.1277	-1.024188	-4.800618E+13	-4.620695E-16	NaN
1079	1.000000	0.242526	7.37561e+06	-54089.1	1055.82	-29744.2	0.000000	0.000000	6.242800	0.083851	NaN	0.000000	0.001576	0.001671	28.0833	0.051137	0.002030	25.1921	-160.792	-166.931	0.027975	0.241225	-1.013728	-1.015030	0.083851	25.1921	-1.016224	-3.751023E+13	-2.235407E-15	NaN
1079	1.000000	0.252579	7.37561e+06	-54089.1	1055.82	-29744.2	0.000000	0.000000	6.252853	0.101686	NaN	0.000000	0.001538	0.001685	28.0842	0.046744	0.002137	21.8758	-112.518	15.6417	0.090441	0.251163	-1.003676	-1.005091	0.101686	21.8758	-1.007162	-2.832600E+13	-3.589833E-15	NaN
1079	1.000000	0.262564	7.37561e+06	-54089.1	1055.82	-29744.2	0.000000	0.000000	6.262835	0.043293	NaN	0.000000	0.001557	0.001679	28.0847	0.021466	0.001969	10.9046	-31.0532	-166.425	0.029182	0.261259	-0.993691	-0.994996	0.043293	10.9046	-0.996669	-2.046042E+13	-2.115942E-15	NaN
1079	1.000000	0.272562	7.37561e+06	-54089.1	1055.82	-29744.2	0.000000	0.000000	6.272832	0.010935	NaN	0.000000	0.001585	0.001665	28.0843	0.052340	0.002004	26.1193	-165.084	13.9887	0.043587	0.271189	-0.983693	-0.985066	0.010935	26.1193	-0.984007	-1.381614E+13	-7.914921E-16	NaN
1079	1.000000	0.282569	7.37561e+06	-54089.1	1055.82	-29744.2	0.000000	0.000000	6.282841	0.049288	NaN	0.000000	0.001567	0.001630	28.0843	0.045826	0.001933	23.7117	110.223	-166.337	0.106588	0.281222	-0.973686	-0.975033	0.049288	23.7117	-0.975245	-1.052783E+13	-4.681647E-15	NaN
1079	1.000000	0.292552	7.37561e+06	-54089.1	1055.82	-29744.2	0.000000	0.000000	6.292823	0.017571	NaN	0.000000	0.001621	0.001638	28.084	0.169403	0.002034	83.28	63.2534	15.2304	0.104963	0.291213	-0.963703	-0.965042	0.017571	83.28	-0.963861	-7.394678E+12	-2.376111E-15	NaN
1079	1.000000	0.302581	7.37561e+06	-54089.1	1055.82	-29744.2	0.000000	0.000000	6.302852	0.033364	NaN	0.000000	0.001557	0.001645	28.0844	0.092075	0.001748	52.6673	-62.4658	-167.718	0.137204	0.301261	-0.953674	-0.954994	0.033364	52.6673	-0.954149	-5.469891E+12	-6.099578E-15	NaN
1079	1.000000	0.312592	7.37561e+06	-54089.1	1055.82	-29744.2	0.000000	0.000000	6.312865	0.056110	NaN	0.000000	0.001565	0.001658	28.0841	0.036859	0.002028	18.1785	-161.908	15.2565	-0.046936	0.311249	-0.943662	-0.945005	0.056110	18.1785	-0.945977	-4.243956E+12	-1.322125E-14	NaN
1079	1.000000	0.322588	7.37561e+06	-54089.1	1055.82	-29744.2	0.000000	0.000000	6.322859	0.015335	NaN	0.000000	0.001589	0.001651	28.0841	0.124702	0.001975	63.1366	67.3107	-168.214	0.134422	0.321253	-0.933666	-0.935002	0.015335	63.1366	-0.933848	-2.911607E+12	-5.266808E-15	NaN
1079	1.000000	0.332579	7.37561e+06	-54089.1	1055.82	-29744.2	0.000000	0.000000	6.332852	0.061081	NaN	0.000000	0.001597	0.001649	28.0841	0.114338	0.001986	57.577	125.713	14.2278	0.118144	0.331236	-0.923675	-0.925019	0.061081	57.577	-0.924471	-2.175534E+12	-2.807613E-14	NaN
1079	1.000000	0.342580	7.37561e+06	-54089.1	1055.82	-29744.2	0.000000	0.000000	6.342853	0.054163	NaN	0.000000	0.001579	0.001674	28.0841	0.064314	0.001981	32.4589	-165.244	-166.566	0.003978	0.341267	-0.913674	-0.914987	0.054163	32.4589	-0.914926	-1.616913E+12	-3.349797E-14	NaN
1079	1.000000	0.352585	7.37561e+06	-54089.1	1055.82	-29744.2	0.000000	0.000000	6.352856	0.019101	NaN	0.000000	0.001583	0.001673	28.084	0.046540	0.002021	23.0294	174.663	13.9569	0.120034	0.351226	-0.903670	-0.905029	0.019101	23.0294	-0.904292	-1.161588E+12	-1.644391E-14	NaN
1079	1.000000	0.362576	7.37561e+06	-54089.1	1055.82	-29744.2	0.000000	0.000000	6.362847	0.034970	NaN	0.000000	0.001577	0.001639	28.0842	0.114847	0.001917	59.9111	21.5355	-166.766	-0.031622	0.361298	-0.893679	-0.894957	0.034970	59.9111	-0.894117	-8.463697E+11	-4.131731E-14	NaN
1079	1.000000	0.372625	7.37561e+06	-54089.1	1055.82	-29744.2	0.000000	0.000000	6.372895	0.011122	NaN	0.000000	0.001572	0.001684	28.0844	0.111926	0.002096	53.3966	-149.138	14.759	0.129730	0.371229	-0.883630	-0.885026	0.011122	53.3966	-0.883786	-6.136233E+11	-1.812525E-14	NaN
1079	1.000000	0.382626	7.37561e+06	-54089.1	1055.82	-29744.2	0.000000	0.000000	6.382896	0.001438	NaN	0.000000	0.001543	0.001642	28.0844	0.090340	0.002056	43.9437	-132.006	-167.42	-0.011081	0.381317	-0.873629	-0.874938	0.001438	43.9437	-0.873654	-4.475790E+11	-3.213664E-15	NaN
1079	1.000000	0.392612	7.37561e+06	-54089.1	1055.82	-29744.2	0.000000	0.000000	6.392884	0.037369	NaN	0.000000	0.001578	0.001623	28.0831	0.089606	0.002071	43.2742	163.555	15.8408	-0.047986	0.391223	-0.863642	-0.865032	0.037369	43.2742	-0.864290	-3.343359E+11	-1.117696E-13	NaN
1079	1.000000	0.402638	7.37561e+06	-54089.1	1055.82	-29744.2	0.000000	0.000000	6.402912	0.097937	NaN	0.000000	0.001656	0.001628	28.0833	0.046853	0.001974	23.7377	87.0494	-165.576	0.119293	0.401358	-0.853617	-0.854897	0.097937	23.7377	-0.856711	-2.639978E+11	-3.709773E-13	NaN
1079	1.000000	0.412597	7.37561e+06	-54089.1	1055.82	-29744.2	0.000000	0.000000	6.412869	0.036648	NaN	0.000000	0.001644	0.001634	28.0832	0.009535	0.001982	4.810870	-94.9694	8.890208	0.026562	0.411254	-0.843657	-0.845000	0.036648	4.810870	-0.849371	-2.099977E+11	-1.745167E-13	NaN
1079	1.000000	0.422651	7.37561e+06	-54089.1	1055.82	-29744.2	0.000000	0.000000	6.422922	0.021680	NaN	0.000000	0.001620	0.001643	28.0831	0.146593	0.001821	80.5022	161.237	-163.347	-0.032546	0.421295	-0.833603	-0.834960	0.021680	80.5022	-0.833805	-1.292280E+11	-1.677682E-13	NaN
1079	1.000000	0.432648	7.37561e+06	-54089.1	1055.82	-29744.2	0.000000	0.000000	6.432921	0.067419	NaN	0.000000	0.001627	0.001626	28.083	0.083504	0.002042	40.8855	-60.9492	13.6885	0.080175	0.431226	-0.823607	-0.825029	0.067419	40.8855	-0.824844	-9.769808E+10	-6.900764E-13	NaN
1079	1.000000	0.442654	7.37561e+06	-54089.1	1055.82	-29744.2	0.000000	0.000000	6.442926	0.040328	NaN	0.000000	0.001576	0.001659	28.0834	0.061308	0.001879	32.6365	-96.4356	-165.367	0.067196	0.441314	-0.813601	-0.814941	0.040328	32.6365	-0.814527	-7.079305E+10	-5.696658E-13	NaN
1079	1.000000	0.452644	7.37561e+06	-54089.1	1055.82	-29744.2	0.000000	0.000000	6.452917	0.083243	NaN	0.000000	0.001608	0.001674	28.0831	0.068346	0.001964	34.8033	-138.309	12.2055	0.088890	0.451281	-0.803611	-0.804974	0.083243	34.8033	-0.805404	-5.323710E+10	-1.563634E-12	NaN
1079	1.000000	0.462665	7.37561e+06	-54089.1	1055.82	-29744.2	0.000000	0.000000	6.462936	0.015735	NaN	0.000000	0.001626	0.001645	28.083	0.043100	0.001978	21.7847	114.64	-166.414	0.037407	0.461343	-0.793589	-0.794912	0.015735	21.7847	-0.794131	-3.742668E+10	-4.204300E-13	NaN
1079	1.000000	0.472661	7.37561e+06	-54089.1	1055.82	-29744.3	0.000000	0.000000	6.472932	0.021026	NaN	0.000000	0.001622	0.001640	28.0831	0.064521	0.001909	33.7895	-112.408	15.6613	0.015225	0.471359	-0.783594	-0.784896	0.021026	33.7895	-0.784061	-2.731515E+10	-7.697509E-13	NaN
1079	1.000000	0.482669	7.37561e+06	-54089.1	1055.82	-29744.2	0.000000	0.000000	6.482940	0.027397	NaN	0.000000	0.001662	0.001603	28.0833	0.034482	0.002091	16.4888	147.087	-163.823	0.083346	0.481354	-0.773586	-0.774900	0.027397	16.4888	-0.774832	-2.046406E+10	-1.338767E-12	NaN
1079	1.000000	0.492627	7.37561e+06	-54089.1	1055.82	-29744.3	0.000000	0.000000	6.492901	0.082750	NaN	0.000000	0.001591	0.001620	28.0832	0.085561	0.002171	39.4093	-63.9635	16.7027	0.016943	0.491299	-0.763627	-0.764955	0.082750	39.4093	-0.765202	-1.513781E+10	-5.466464E-12	NaN
1079	1.000000	0.502692	7.37561e+06	-54089.1	1055.82	-29744.2	0.000000	0.000000	6.502963	0.009799	NaN	0.000000	0.001618	0.001658	28.0831	0.046303	0.002109	21.9535	-128.13	-167.941	0.025735	0.501346	-0.753562	-0.754908	0.009799	21.9535	-0.753897	-1.062335E+10	-9.223769E-13	NaN
1079	1.000000	0.512666	7.37561e+06	-54089.1	1055.82	-29744.3	0.000000	0.000000	6.512935	-0.022437	NaN	0.000000	0.001604	0.001636	28.0832	0.030707	0.002009	15.2879	-40.3142	12.765	0.013582	0.511318	-0.743589	-0.744936	-0.022437	15.2879	-0.742488	-7.429141E+9	3.020118E-12	NaN
1079	1.000000	0.522662	7.37561e+06	-54089.1	1055.82	-29744.3	0.000000	0.000000	6.522931	-0.033030	NaN	0.000000	0.001562	0.001651	28.0835	0.039361	0.001882	20.9104	-123.173	-165.218	0.029662	0.521357	-0.733592	-0.734898	-0.033030	20.9104	-0.732408	-5.415284E+9	6.099340E-12	NaN
1079	1.000000	0.532688	7.37561e+06	-54089.1	1055.82	-29744.3	0.000000	0.000000	6.532962	0.098452	NaN	0.000000	0.001588	0.001645	28.0845	0.014347	0.001985	7.226167	-178.385	12.6732	0.005261	0.531359	-0.723566	-0.724895	0.098452	7.226167	-0.733785	-5.654377E+9	-1.741162E-11	NaN
1079	1.000000	0.542690	7.37561e+06	-54089.1	1055.82	-29744.3	0.000000	0.000000	6.542963	0.088206	NaN	0.000000	0.001590	0.001634	28.0845	0.045577	0.001958	23.2785	97.0575	-165.973	0.107378	0.541403	-0.713565	-0.714851	0.088206	23.2785	-0.716407	-3.276910E+9	-2.691754E-11	NaN
1079	1.000000	0.552659	7.37561e+06	-54089.1	1055.82	-29744.3	0.000000	0.000000	6.552932	0.061283	NaN	0.000000	0.001543	0.001611	28.0847	0.128924	0.001992	64.7306	-31.9726	17.1117	-0.031543	0.551356	-0.703595	-0.704899	0.061283	64.7306	-0.704305	-2.240350E+9	-2.735420E-11	NaN
1079	1.000000	0.562701	7.37561e+06	-54089.1	1055.82	-29744.3	0.000000	0.000000	6.562972	0.016070	NaN	0.000000	0.001561	0.001631	28.0846	0.073937	0.001978	37.3882	-121.825	-164.926	-0.000934	0.561390	-0.693553	-0.694865	0.016070	37.3882	-0.693876	-1.613899E+9	-9.957460E-12	NaN
1079	1.000000	0.572685	7.37561e+06	-54089.1	1055.82	-29744.3	0.000000	0.000000	6.572955	-0.000956	NaN	0.000000	0.001560	0.001635	28.0847	0.051184	0.001985	25.7865	-125.057	13.4697	-0.026597	0.571382	-0.683569	-0.684873	-0.000956	25.7865	-0.683542	-1.165830E+9	8.199414E-13	NaN
1079	1.000000	0.582727	7.37561e+06	-54089.1	1055.82	-29744.3	0.000000	0.000000	6.582997	-0.005883	NaN	0.000000	0.001573	0.001649	28.0843	0.107791	0.001938	55.6233	-166.18	-168.368	-0.035315	0.581426	-0.673527	-0.674828	-0.005883	55.6233	-0.673448	-8.483490E+8	6.934842E-12	NaN
1079	1.000000	0.592703	7.37561e+06	-54089.1	1055.82	-29744.3	0.000000	0.000000	6.592975	0.064593	NaN	0.000000	0.001546	0.001646	28.0846	0.086504	0.002122	40.7627	150.455	13.9049	0.046754	0.591396	-0.663552	-0.664859	0.064593	40.7627	-0.664740	-6.447459E+8	-1.001830E-10	NaN
1079	1.000000	0.602691	7.37561e+06	-54089.1	1055.82	-29744.3	0.000000	0.000000	6.602963	0.036415	NaN	0.000000	0.001546	0.001698	28.0842	0.067392	0.002005	33.608	174.072	-164.337	0.027150	0.601445	-0.653563	-0.654810	0.036415	33.608	-0.654376	-4.649578E+8	-7.831799E-11	NaN
1079	1.000000	0.612710	7.37561e+06	-54089.1	1055.82	-29744.3	0.000000	0.000000	6.612978	-0.038951	NaN	0.000000	0.001546	0.001653	28.0845	0.133635	0.001844	72.4831	121.33	13.5203	0.061680	0.611396	-0.643545	-0.644859	-0.038951	72.4831	-0.643142	-3.261311E+8	1.194346E-10	NaN
1079	1.000000	0.622712	7.37561e+06	-54089.1	1055.82	-29744.3	0.000000	0.000000	6.622984	0.064319	NaN	0.000000	0.001529	0.001646	28.0843	0.082255	0.001954	42.0881	97.5007	-166.583	0.052746	0.621442	-0.633543	-0.634812	0.064319	42.0881	-0.634689	-2.496908E+8	-2.575948E-10	NaN
1079	1.000000	0.632725	7.37561e+06	-54089.1	1055.82	-29744.3	0.000000	0.000000	6.632996	0.033672	NaN	0.000000	0.001569	0.001670	28.0845	0.034848	0.001811	19.2457	-109.797	11.7798	-0.087801	0.631377	-0.623530	-0.624877	0.033672	19.2457	-0.624842	-1.828846E+8	-1.841186E-10	NaN
1079	1.000000	0.642713	7.37561e+06	-54089.1	1055.82	-29744.3	0.000000	0.000000	6.642985	0.047296	NaN	0.000000	0.001574	0.001657	28.0842	0.027798	0.002077	13.3868	-125.075	-165.983	0.018039	0.641398	-0.613542	-0.614856	0.047296	13.3868	-0.616192	-1.390842E+8	-3.400552E-10	NaN
1079	1.000000	0.652719	7.37561e+06	-54089.1	1055.82	-29744.3	0.000000	0.000000	6.652985	-0.088257	NaN	0.000000	0.001570	0.001675	28.0845	0.061054	0.002080	29.3499	-73.2709	12.7891	-0.132724	0.651342	-0.603536	-0.604913	-0.088257	29.3499	-0.601281	-8.671557E+7	1.017774E-9	NaN
1079	1.000000	0.662712	7.37561e+06	-54089.1	1055.82	-29744.3	0.000000	0.000000	6.662984	0.053145	NaN	0.000000	0.001553	0.001692	28.0834	0.041146	0.002001	20.5581	-3.440390	-161.738	0.078004	0.661431	-0.593543	-0.594824	0.053145	20.5581	-0.595482	-7.214704E+7	-7.366219E-10	NaN
1079	1.000000	0.672734	7.37561e+06	-54089.1	1055.82	-29744.3	0.000000	0.000000	6.673003	-0.013047	NaN	0.000000	0.001565	0.001674	28.0833	0.073721	0.002086	35.3345	26.1881	15.208	0.032151	0.671373	-0.583521	-0.584882	-0.013047	35.3345	-0.583244	-4.891998E+7	2.666907E-10	NaN
1079	1.000000	0.682756	7.37561e+06	-54089.1	1055.82	-29744.3	0.000000	0.000000	6.683027	0.000613	NaN	0.000000	0.001550	0.001638	28.0831	0.105948	0.001972	53.7129	-26.7727	-168.44	0.034510	0.681400	-0.573498	-0.574855	0.000613	53.7129	-0.573507	-3.589836E+7	-1.708324E-11	NaN
1079	1.000000	0.692768	7.37561e+06	-54089.1	1055.82	-29744.3	0.000000	0.000000	6.693040	0.053968	NaN	0.000000	0.001577	0.001673	28.083	0.018849	0.001912	9.860053	154.433	13.6822	0.086236	0.691365	-0.563487	-0.564889	0.053968	9.860053	-0.567592	-2.974075E+7	-1.814600E-9	NaN
1079	1.000000	0.702713	7.37561e+06	-54089.1	1055.82	-29744.3	0.000000	0.000000	6.702983	-0.003194	NaN	0.000000	0.001551	0.001625	28.0836	0.047105	0.002015	23.3735	-97.2041	-163.821	0.096974	0.701405	-0.553542	-0.554849	-0.003194	23.3735	-0.553439	-1.894878E+7	1.685725E-10	NaN
1079	1.000000	0.712755	7.37561e+06	-54089.1	1055.82	-29744.3	0.000000	0.000000	6.713028	0.082013	NaN	0.000000	0.001564	0.001655	28.0832	0.081796	0.002016	40.5749	140.781	16.3025	0.097026	0.711439	-0.543500	-0.544816	0.082013	40.5749	-0.545016	-1.448426E+7	-5.662192E-9	NaN
1079	1.000000	0.722772	7.37561e+06	-54089.1	1055.82	-29744.3	0.000000	0.000000	6.723040	-0.050148	NaN	0.000000	0.001597	0.001644	28.083	0.036936	0.001884	19.6102	-46.6729	-168.294	0.030570	0.721446	-0.533483	-0.534808	-0.050148	19.6102	-0.531565	-9.42544e+06	5.320510E-9	NaN
1079	1.000000	0.732731	7.37561e+06	-54089.1	1055.82	-29744.3	0.000000	0.000000	6.733003	0.027713	NaN	0.000000	0.001604	0.001627	28.0832	0.050208	0.002028	24.7554	59.4912	16.3706	0.022099	0.731404	-0.523523	-0.524851	0.027713	24.7554	-0.524363	-7.48609e+06	-3.701973E-9	NaN
1079	1.000000	0.742777	7.37561e+06	-54089.1	1055.82	-29744.3	0.000000	0.000000	6.743051	0.095109	NaN	0.000000	0.001582	0.001651	28.0833	0.029377	0.001834	16.0141	-59.2615	-167.332	0.104753	0.741424	-0.513477	-0.514831	0.095109	16.0141	-0.517931	-6.0929e+06	-1.560983E-8	NaN
1079	1.000000	0.752794	7.37561e+06	-54089.1	1055.82	-29744.3	0.000000	0.000000	6.753067	0.068166	NaN	0.000000	0.001589	0.001673	28.0832	0.080957	0.002050	39.49	11.4599	10.2872	0.025778	0.751363	-0.503461	-0.504892	0.068166	39.49	-0.504755	-3.99333e+06	-1.707008E-8	NaN
1079	1.000000	0.762779	7.37561e+06	-54089.1	1055.82	-29744.3	0.000000	0.000000	6.763051	0.036080	NaN	0.000000	0.001596	0.001682	28.083	0.026566	0.002006	13.2428	-32.533	-163.844	0.007371	0.761423	-0.493476	-0.494832	0.036080	13.2428	-0.495519	-2.96811e+06	-1.215585E-8	NaN
1079	1.000000	0.772769	7.37561e+06	-54089.1	1055.82	-29744.3	0.000000	0.000000	6.773040	0.011153	NaN	0.000000	0.001559	0.001634	28.083	0.055594	0.001952	28.4785	-33.7609	17.5522	0.016255	0.771434	-0.483485	-0.484821	0.011153	28.4785	-0.483779	-2.03429e+06	-5.482670E-9	NaN
1079	1.000000	0.782794	7.37561e+06	-54089.1	1055.82	-29744.3	0.000000	0.000000	6.783063	-0.026140	NaN	0.000000	0.001585	0.001646	28.0832	0.094158	0.001979	47.5882	142.808	-163.924	0.000629	0.781464	-0.473461	-0.474790	-0.026140	47.5882	-0.473049	-1.43932e+06	1.816095E-8	NaN
1079	1.000000	0.792797	7.37561e+06	-54089.1	1055.82	-29744.3	0.000000	0.000000	6.793071	0.100732	NaN	0.000000	0.001588	0.001617	28.0829	0.062248	0.001918	32.449	19.0251	13.2146	-0.037019	0.791399	-0.463458	-0.464855	0.100732	32.449	-0.465786	-1.13837e+06	-8.848757E-8	NaN
1079	1.000000	0.802775	7.37561e+06	-54089.1	1055.82	-29744.3	0.000000	0.000000	6.803047	0.034396	NaN	0.000000	0.001590	0.001635	28.0841	0.064451	0.001936	33.2864	-160.356	-168.535	0.013007	0.801472	-0.453479	-0.454783	0.034396	33.2864	-0.454254	-783841	-4.388110E-8	NaN
1079	1.000000	0.812790	7.37561e+06	-54089.1	1055.82	-29744.3	0.000000	0.000000	6.813060	0.008350	NaN	0.000000	0.001576	0.001647	28.0842	0.059646	0.002048	29.1264	155.396	12.2052	-0.040831	0.811413	-0.443465	-0.444841	0.008350	29.1264	-0.443680	-556255	-1.501078E-8	NaN
1079	1.000000	0.822805	7.37561e+06	-54089.1	1055.82	-29744.3	0.000000	0.000000	6.823074	-0.009687	NaN	0.000000	0.001585	0.001666	28.0843	0.056860	0.001966	28.9159	178.083	-165.495	0.022598	0.821451	-0.433450	-0.434803	-0.009687	28.9159	-0.433199	-395636	2.448582E-8	NaN
1079	1.000000	0.832828	7.37561e+06	-54089.1	1055.82	-29744.3	0.000000	0.000000	6.833099	0.029530	NaN	0.000000	0.001572	0.001631	28.0843	0.113452	0.002046	55.4565	147.167	16.2919	0.085768	0.831406	-0.423426	-0.424849	0.029530	55.4565	-0.423826	-291506	-1.013014E-7	NaN
1079	1.000000	0.842802	7.37561e+06	-54089.1	1055.82	-29744.3	0.000000	0.000000	6.843071	-0.011918	NaN	0.000000	0.001592	0.001624	28.0841	0.062476	0.002002	31.2132	102.035	-166.367	-0.033144	0.841512	-0.413453	-0.414743	-0.011918	31.2132	-0.413167	-205784	5.791366E-8	NaN
1079	1.000000	0.852825	7.37561e+06	-54089.1	1055.82	-29744.3	0.000000	0.000000	6.853097	0.025593	NaN	0.000000	0.001548	0.001616	28.0842	0.010383	0.001923	5.400380	-29.2491	12.5658	0.009591	0.851438	-0.403429	-0.404816	0.025593	5.400380	-0.406983	-168068	-1.522777E-7	NaN
1079	1.000000	0.862813	7.37561e+06	-54089.1	1055.82	-29744.3	0.000000	0.000000	6.863087	0.095999	NaN	0.000000	0.001550	0.001623	28.0842	0.064692	0.001825	35.444	139.464	-168.89	0.105545	0.861492	-0.393442	-0.394762	0.095999	35.444	-0.395473	-115184	-8.334359E-7	NaN
1079	1.000000	0.872816	7.37561e+06	-54089.1	1055.82	-29744.3	0.000000	0.000000	6.873087	0.027084	NaN	0.000000	0.001568	0.001651	28.0843	0.037731	0.002035	18.5371	122.396	14.8918	0.008971	0.871449	-0.383438	-0.384806	0.027084	18.5371	-0.384534	-80336	-3.371322E-7	NaN
1079	1.000000	0.882803	7.37561e+06	-54089.1	1055.82	-29744.3	0.000000	0.000000	6.883074	0.041578	NaN	0.000000	0.001594	0.001651	28.0842	0.040084	0.002003	20.0112	-140.433	-166.158	0.050121	0.881482	-0.373452	-0.374772	0.041578	20.0112	-0.375010	-58643.3	-7.089946E-7	NaN
1079	1.000000	0.892837	7.37561e+06	-54089.1	1055.82	-29744.3	0.000000	0.000000	6.893110	0.055571	NaN	0.000000	0.001576	0.001662	28.0846	0.044328	0.002003	22.1273	144.781	15.1876	0.035373	0.891465	-0.363417	-0.364789	0.055571	22.1273	-0.365301	-42500.3	-1.307553E-6	NaN
1079	1.000000	0.902823	7.37561e+06	-54089.1	1055.82	-29744.3	0.000000	0.000000	6.903096	0.072834	NaN	0.000000	0.001609	0.001656	28.0847	0.144845	0.002066	70.1126	-104.213	-167.227	0.001278	0.901549	-0.353431	-0.354706	0.072834	70.1126	-0.354210	-29380.3	-2.479010E-6	NaN
1079	1.000000	0.912806	7.37561e+06	-54089.1	1055.82	-29744.3	0.000000	0.000000	6.913075	-0.012891	NaN	0.000000	0.001569	0.001636	28.0843	0.063455	0.001894	33.5096	-56.3833	14.2593	0.018616	0.911483	-0.343449	-0.344771	-0.012891	33.5096	-0.343160	-20304.2	6.349124E-7	NaN
1079	1.000000	0.922865	7.37561e+06	-54089.1	1055.82	-29744.3	0.000000	0.000000	6.923137	0.037554	NaN	0.000000	0.001570	0.001647	28.0846	0.043456	0.001979	21.9603	129.984	-165.115	0.043462	0.921593	-0.333389	-0.334662	0.037554	21.9603	-0.334672	-15268.5	-2.459589E-6	NaN
1079	1.000000	0.932824	7.37561e+06	-54089.1	1055.82	-29744.3	0.000000	0.000000	6.933096	0.064346	NaN	0.000000	0.001544	0.001665	28.084	0.039770	0.002079	19.126	-93.0522	14.5791	0.071302	0.931525	-0.323431	-0.324730	0.064346	19.126	-0.325954	-11380	-5.654294E-6	NaN
1079	1.000000	0.942853	7.37561e+06	-54089.1	1055.82	-29744.3	0.000000	0.000000	6.943124	0.025503	NaN	0.000000	0.001578	0.001676	28.0833	0.177680	0.001966	90.3887	150.528	-166.122	0.035042	0.941573	-0.313401	-0.314681	0.025503	90.3887	-0.313613	-7489.81	-3.405008E-6	NaN
1079	1.000000	0.952846	7.37561e+06	-54089.1	1055.82	-29744.3	0.000000	0.000000	6.953118	0.039662	NaN	0.000000	0.001518	0.001679	28.0828	0.074373	0.002090	35.5915	-81.4517	17.6955	-0.008904	0.951505	-0.303408	-0.304750	0.039662	35.5915	-0.304244	-5441.71	-7.288523E-6	NaN
1079	1.000000	0.962827	7.37561e+06	-54089.1	1055.82	-29744.3	0.000000	0.000000	6.963099	0.027600	NaN	0.000000	0.001539	0.001653	28.083	0.046221	0.001948	23.733	-13.9224	-163.798	-0.024091	0.961539	-0.293427	-0.294716	0.027600	23.733	-0.294299	-3869.22	-7.133277E-6	NaN
1079	1.000000	0.972869	7.37561e+06	-54089.1	1055.82	-29744.3	0.000000	0.000000	6.973140	0.036308	NaN	0.000000	0.001565	0.001646	28.0828	0.123630	0.002003	61.7286	-22.6448	11.7009	0.042708	0.971493	-0.283386	-0.284762	0.036308	61.7286	-0.283827	-2695.43	-1.347009E-5	NaN
1079	1.000000	0.982899	7.37561e+06	-54089.1	1055.82	-29744.3	0.000000	0.000000	6.983168	-0.038905	NaN	0.000000	0.001549	0.001647	28.0831	0.115176	0.002034	56.627	-19.331	-167.867	-0.040670	0.981593	-0.273355	-0.274662	-0.038905	56.627	-0.272840	-1839.37	2.115139E-5	NaN
1079	1.000000	0.992886	7.37561e+06	-54089.1	1055.82	-29744.3	0.000000	0.000000	6.993156	-0.008400	NaN	0.000000	0.001515	0.001675	28.0831	0.021191	0.002029	10.4452	53.0685	13.168	0.054818	0.991567	-0.263368	-0.264688	-0.008400	10.4452	-0.262765	-1291.95	6.502022E-6	NaN
1079	1.000000	1.002897	7.37561e+06	-54089.1	1055.82	-29744.3	0.000000	0.000000	7.003167	-0.005060	NaN	0.000000	0.001487	0.001696	28.0833	0.109816	0.001957	56.1274	105.811	-167.107	-0.028141	1.001554	-0.253358	-0.254700	-0.005060	56.1274	-0.253290	-924.209	5.475435E-6	NaN
1079	1.000000	1.012896	7.37561e+06	-54089.1	1055.82	-29744.3	0.000000	0.000000	7.013166	-0.010612	NaN	0.000000	0.001516	0.001705	28.0829	0.013240	0.001983	6.675911	-40.3475	14.8489	0.013600	1.011503	-0.243358	-0.244751	-0.010612	6.675911	-0.242166	-621.365	1.707910E-5	NaN
1079	1.000000	1.022862	7.37561e+06	-54089.1	1055.82	-29744.3	0.000000	0.000000	7.023131	-0.015245	NaN	0.000000	0.001476	0.001696	28.0831	0.084196	0.001843	45.677	34.3078	-163.244	-0.023024	1.021567	-0.233393	-0.234687	-0.015245	45.677	-0.233143	-448.8	3.396894E-5	NaN
1079	1.000000	1.032880	7.37561e+06	-54089.1	1055.82	-29744.3	0.000000	0.000000	7.033151	0.030412	NaN	0.000000	0.001527	0.001677	28.083	0.075155	0.002062	36.4521	-142.403	13.2715	0.043366	1.031522	-0.223375	-0.224733	0.030412	36.4521	-0.224001	-321.699	-9.453527E-5	NaN
1079	1.000000	1.042885	7.37561e+06	-54089.1	1055.82	-29744.3	0.000000	0.000000	7.043151	-0.091199	NaN	0.000000	0.001538	0.001653	28.0832	0.054516	0.002096	26.0085	-84.7157	-167.899	-0.059026	1.041592	-0.213370	-0.214663	-0.091199	26.0085	-0.210740	-197.147	0.000463	NaN
1079	1.000000	1.052884	7.37561e+06	-54089.1	1055.82	-29744.3	0.000000	0.000000	7.053152	-0.031251	NaN	0.000000	0.001570	0.001692	28.0828	0.103703	0.001963	52.8175	-107.967	11.057	-0.113040	1.051572	-0.203371	-0.204683	-0.031251	52.8175	-0.202927	-147.128	0.000212	NaN
1079	1.000000	1.062879	7.37561e+06	-54089.1	1055.82	-29744.3	0.000000	0.000000	7.063152	0.051342	NaN	0.000000	0.001534	0.001669	28.083	0.084879	0.002089	40.6264	-78.2616	-163.979	-0.035566	1.061570	-0.193375	-0.194684	0.051342	40.6264	-0.194323	-106.164	-0.000484	NaN
1079	1.000000	1.072884	7.37561e+06	-54089.1	1055.82	-29744.3	0.000000	0.000000	7.073154	0.001453	NaN	0.000000	0.001552	0.001688	28.0844	0.107599	0.001808	59.5173	37.7248	14.7649	0.005997	1.071517	-0.183371	-0.184737	0.001453	59.5173	-0.183389	-69.6531	-2.086731E-5	NaN
1079	1.000000	1.082915	7.37561e+06	-54089.1	1055.82	-29744.3	0.000000	0.000000	7.083187	0.034175	NaN	0.000000	0.001507	0.001672	28.0842	0.080377	0.001981	40.581	-169.279	-166.345	0.004193	1.081580	-0.173339	-0.174675	0.034175	40.581	-0.173971	-48.1151	-0.000710	NaN
1079	1.000000	1.092876	7.37561e+06	-54089.1	1055.82	-29744.3	0.000000	0.000000	7.093147	0.024364	NaN	0.000000	0.001540	0.001640	28.0841	0.088750	0.002007	44.2257	93.4852	10.6614	-0.005093	1.091515	-0.163379	-0.164739	0.024364	44.2257	-0.163792	-31.9937	-0.000762	NaN
1079	1.000000	1.102908	7.37561e+06	-54089.1	1055.82	-29744.3	0.000000	0.000000	7.103177	-0.025022	NaN	0.000000	0.001545	0.001647	28.0842	0.022418	0.001889	11.8652	-70.032	-163.716	-0.045991	1.101652	-0.153347	-0.154603	-0.025022	11.8652	-0.151765	-19.504	0.001283	NaN
1079	1.000000	1.112915	7.37561e+06	-54089.1	1055.82	-29744.3	0.000000	0.000000	7.113184	-0.030620	NaN	0.000000	0.001562	0.001672	28.0844	0.062037	0.002025	30.6411	-175.672	12.8331	0.054380	1.111496	-0.143340	-0.144758	-0.030620	30.6411	-0.142590	-13.2258	0.002315	NaN
1079	1.000000	1.122901	7.37561e+06	-54089.1	1055.82	-29744.3	0.000000	0.000000	7.123172	0.032647	NaN	0.000000	0.001549	0.001668	28.0842	0.183551	0.001922	95.4791	146.07	-166.373	0.012526	1.121575	-0.133354	-0.134679	0.032647	95.4791	-0.133610	-8.947291	-0.003649	NaN
1079	1.000000	1.132907	7.37561e+06	-54089.1	1055.82	-29744.3	0.000000	0.000000	7.133180	0.073690	NaN	0.000000	0.001554	0.001649	28.0845	0.041708	0.002023	20.6205	-118.651	11.973	0.043161	1.131570	-0.123348	-0.124684	0.073690	20.6205	-0.126028	-6.372237	-0.011564	NaN
1079	1.000000	1.142930	7.37561e+06	-54089.1	1055.82	-29744.3	0.000000	0.000000	7.143199	-0.017180	NaN	0.000000	0.001548	0.001688	28.0843	0.073129	0.002038	35.8801	-80.4842	-166.831	0.004685	1.141604	-0.113325	-0.114651	-0.017180	35.8801	-0.112966	-3.467238	0.004955	NaN
1079	1.000000	1.152957	7.37561e+06	-54089.1	1055.82	-29744.3	0.000000	0.000000	7.153229	0.053738	NaN	0.000000	0.001591	0.001650	28.0844	0.110038	0.001955	56.2806	-166.063	12.7172	0.102108	1.151562	-0.103298	-0.104692	0.053738	56.2806	-0.104014	-2.237802	-0.024014	NaN
1079	1.000000	1.162938	7.37561e+06	-54089.1	1055.82	-29744.3	0.000000	0.000000	7.163209	0.028806	NaN	0.000000	0.001569	0.001670	28.0842	0.067490	0.002056	32.8259	173.797	-164.42	0.036513	1.161655	-0.093317	-0.094600	0.028806	32.8259	-0.093975	-1.336577	-0.021552	NaN
1079	1.000000	1.172947	7.37561e+06	-54089.1	1055.82	-29744.3	0.000000	0.000000	7.173219	0.041644	NaN	0.000000	0.001541	0.001690	28.0841	0.073811	0.001874	39.3793	117.278	13.6671	0.065200	1.171524	-0.083307	-0.084731	0.041644	39.3793	-0.084100	-0.781346	-0.053298	NaN
1079	1.000000	1.182930	7.37561e+06	-54089.1	1055.82	-29744.3	0.000000	0.000000	7.183202	0.063633	NaN	0.000000	0.001563	0.001675	28.0842	0.096320	0.002115	45.5383	65.6298	-167.716	0.031713	1.181650	-0.073325	-0.074605	0.063633	45.5383	-0.074373	-0.444902	-0.143026	NaN
1079	1.000000	1.192961	7.37561e+06	-54089.1	1055.82	-29744.3	0.000000	0.000000	7.193234	0.070062	NaN	0.000000	0.001591	0.001646	28.0843	0.082664	0.001960	42.1831	-171.643	14.0046	0.094842	1.191538	-0.063293	-0.064716	0.070062	42.1831	-0.064539	-0.241970	-0.289549	NaN
1079	1.000000	1.202963	7.37561e+06	-54089.1	1055.82	-29744.3	0.000000	0.000000	7.203236	0.061089	NaN	0.000000	0.001582	0.001688	28.0842	0.047575	0.002101	22.6468	-151.074	-166.653	-0.032208	1.201622	-0.053291	-0.054632	0.061089	22.6468	-0.055314	-0.131561	-0.464335	NaN
1079	1.000000	1.212918	7.37561e+06	-54089.1	1055.82	-29744.3	0.000000	0.000000	7.213189	0.020855	NaN	0.000000	0.001593	0.001686	28.083	0.191196	0.002035	93.9661	-134.225	14.412	-0.084870	1.211567	-0.043337	-0.044687	0.020855	93.9661	-0.043503	-0.057838	-0.360573	NaN
1079	1.000000	1.222964	7.37561e+06	-54089.1	1055.82	-29744.3	0.000000	0.000000	7.223237	0.064629	NaN	0.000000	0.001566	0.001669	28.0831	0.040809	0.002066	19.7514	-136.49	-167.139	0.071910	1.221678	-0.033290	-0.034577	0.064629	19.7514	-0.035744	-0.033687	-1.918497	NaN
1079	1.000000	1.232967	7.37561e+06	-54089.1	1055.82	-29744.3	0.000000	0.000000	7.233236	-0.028852	NaN	0.000000	0.001557	0.001651	28.0832	0.049582	0.002061	24.0541	-164.457	14.3063	0.000493	1.231637	-0.023288	-0.024618	-0.028852	24.0541	-0.022388	-0.014446	1.997160	NaN
1079	1.000000	1.242951	7.37561e+06	-54089.1	1055.82	-29744.3	0.000000	0.000000	7.243221	-0.013568	NaN	0.000000	0.001549	0.001712	28.0829	0.060840	0.001960	31.0357	12.753	-164.98	-0.012409	1.241646	-0.013304	-0.014609	-0.013568	31.0357	-0.012976	-0.008088	1.677444	NaN
1079	1.000000	1.252989	7.37561e+06	-54089.1	1055.82	-29744.3	0.000000	0.000000	7.253258	-0.027053	NaN	0.000000	0.001583	0.001656	28.0833	0.067827	0.002057	32.9667	164.363	14.3566	0.029284	1.251644	-0.003266	-0.004611	-0.027053	32.9667	-0.002650	-0.001885	14.3512	NaN
1079	1.000000	1.262864	7.37561e+06	-54089.1	1055.82	-29744.3	0.000000	0.000000	7.263457	7.836914	NaN	0.000000	0.001585	0.001636	28.083	8.100868	0.001667	4858.7	12.2582	-174.485	6.560004	1.261630	0.006610	0.005376	7.836914	4858.7	0.005400	0.004502	1740.95	66162.9
1079	2.000000	1.266024	7.37561e+06	-54089.1	1055.82	-29744.3	0.000000	0.000000	7.266818	12.7432	NaN	0.000000	0.001591	0.001665	28.0833	11.6894	0.001610	7259.55	2.191945	8.618013	10.8176	1.265693	0.009770	0.009439	12.7432	7259.55	0.008453	0.007512	1696.28	76523.2
1079	2.000000	1.268532	7.37561e+06	-54089.1	1055.82	-29744.3	0.000000	0.000000	7.269436	15.4095	NaN	0.000000	0.001590	0.001633	28.0827	15.2425	0.001871	8148.53	7.747053	-175.951	14.3891	1.268249	0.012277	0.011994	15.4095	8148.53	0.010859	0.010152	1517.87	73888.3
1079	2.000000	1.271065	7.37561e+06	-54089.1	1055.82	-29744.3	0.000000	0.000000	7.272178	20.4984	NaN	0.000000	0.001593	0.001675	28.0832	17.5504	0.001845	9510.41	7.039834	3.768373	19.504	1.270667	0.014810	0.014412	20.4984	9510.41	0.013194	0.012952	1582.69	76350.3
1079	2.000000	1.273479	7.37561e+06	-54089.1	1055.82	-29744.3	0.000000	0.000000	7.274794	25.4199	NaN	0.000000	0.001560	0.001670	28.0828	19.7056	0.001691	11651.6	3.842872	-176.267	24.1437	1.273210	0.017224	0.016956	25.4199	11651.6	0.015588	0.016077	1581.12	83956.6
1079	2.000000	1.275971	7.37561e+06	-54089.1	1055.82	-29744.3	0.000000	0.000000	7.277553	31.8799	NaN	0.000000	0.001610	0.001651	28.0831	22.9031	0.001647	13907.2	6.139388	0.516037	29.9744	1.275666	0.019717	0.019411	31.8799	13907.2	0.017998	0.019493	1635.45	91006.6
1079	2.000000	1.278469	7.37561e+06	-54089.1	1055.82	-29744.3	0.000000	0.000000	7.280236	36.3938	NaN	0.000000	0.001583	0.001624	28.0828	26.3875	0.001839	14352.5	5.114616	-178.561	35.1584	1.278227	0.022214	0.021972	36.3938	14352.5	0.020313	0.023036	1579.88	86397
1079	2.000000	1.280933	7.37561e+06	-54089.1	1055.82	-29744.3	0.000000	0.000000	7.283119	46.5972	NaN	0.000000	0.001586	0.001649	28.0831	29.1338	0.001886	15444.8	7.360113	-1.193116	43.3238	1.280563	0.024678	0.024308	46.5972	15444.8	0.022415	0.026481	1759.67	86714.6
1079	2.000000	1.283454	7.37561e+06	-54089.1	1055.82	-29744.3	0.000000	0.000000	7.285785	50.1146	NaN	0.000000	0.001599	0.001672	28.0834	31.6449	0.001843	17169.9	10.898	174.324	49.8476	1.283141	0.027199	0.026886	50.1146	17169.9	0.025010	0.031034	1614.8	89047
1079	2.000000	1.285958	7.37561e+06	-54089.1	1055.82	-29744.3	0.000000	0.000000	7.288634	58.4861	NaN	0.000000	0.001586	0.001632	28.0841	33.2588	0.001822	18256.1	4.404897	-0.122850	56.0251	1.285587	0.029704	0.029332	58.4861	18256.1	0.027301	0.035335	1655.19	88731.8
1079	2.000000	1.288433	7.37561e+06	-54089.1	1055.82	-29744.3	0.000000	0.000000	7.291533	68.7973	NaN	0.000000	0.001568	0.001623	28.0841	35.7258	0.001811	19732.1	4.596422	179.415	66.818	1.288124	0.032178	0.031869	68.7973	19732.1	0.029563	0.039844	1726.68	90316.7
1079	2.000000	1.291005	7.37561e+06	-54089.1	1055.82	-29744.3	0.000000	0.000000	7.294508	78.5862	NaN	0.000000	0.001594	0.001664	28.0842	37.5692	0.001809	20767.6	5.087931	-1.270437	78.6175	1.290609	0.034751	0.034354	78.5862	20767.6	0.031913	0.044801	1754.11	89642.7
1079	2.000000	1.293478	7.37561e+06	-54089.1	1055.82	-29744.3	0.000000	0.000000	7.297273	85.6918	NaN	0.000000	0.001534	0.001652	28.0842	39.8606	0.001699	23458.9	5.726682	175.934	84.888	1.293168	0.037223	0.036914	85.6918	23458.9	0.034484	0.050551	1695.16	95327.1
1079	2.000000	1.295953	7.37561e+06	-54089.1	1055.82	-29744.3	0.000000	0.000000	7.300152	95.5064	NaN	0.000000	0.001582	0.001692	28.0841	42.4739	0.001698	25015.1	2.063288	-1.149183	94.2106	1.295678	0.039699	0.039423	95.5064	25015.1	0.036835	0.056106	1702.26	96487.5
1079	2.000000	1.298442	7.37561e+06	-54089.1	1055.82	-29744.3	0.000000	0.000000	7.302829	100.101	NaN	0.000000	0.001473	0.001694	28.0843	45.6764	0.001784	25609.2	3.656398	177.755	98.7541	1.298221	0.042187	0.041967	100.101	25609.2	0.039256	0.062119	1611.44	93876.5
1079	2.000000	1.300912	7.37561e+06	-54089.1	1055.82	-29744.3	0.000000	0.000000	7.305931	115.449	NaN	0.000000	0.001503	0.001682	28.0844	47.6227	0.001766	26959.1	6.183897	-5.375066	110.136	1.300520	0.044658	0.044265	115.449	26959.1	0.041446	0.067818	1702.34	94581.2
1079	2.000000	1.303368	7.37561e+06	-54089.1	1055.82	-29744.3	0.000000	0.000000	7.308910	128.184	NaN	0.000000	0.001503	0.001698	28.0841	49.6325	0.001775	27967.3	4.940314	175.75	125.743	1.303138	0.047113	0.046884	128.184	27967.3	0.043676	0.073872	1735.21	94011.8
1079	2.000000	1.305941	7.37561e+06	-54089.1	1055.82	-29744.3	0.000000	0.000000	7.311844	136.938	NaN	0.000000	0.001514	0.001668	28.0841	53.0467	0.001849	28688.2	6.708148	-5.656674	136.357	1.305508	0.049686	0.049253	136.938	28688.2	0.046106	0.080759	1695.64	92231.8
1079	2.000000	1.308426	7.37561e+06	-54089.1	1055.82	-29744.3	0.000000	0.000000	7.314967	152.446	NaN	0.000000	0.001471	0.001702	28.0842	55.1562	0.001811	30462.7	2.263612	177.926	150.364	1.308138	0.052172	0.051884	152.446	30462.7	0.048419	0.087588	1740.49	94041.7
1079	2.000000	1.310894	7.37561e+06	-54089.1	1055.82	-29744.3	0.000000	0.000000	7.318009	166.411	NaN	0.000000	0.001521	0.001696	28.084	57.412	0.001824	31469.5	6.084021	-6.062465	161.315	1.310558	0.054640	0.054304	166.411	31469.5	0.050674	0.094507	1760.83	93525.9
1079	2.000000	1.313394	7.37561e+06	-54089.1	1055.82	-29744.3	0.000000	0.000000	7.321248	184.365	NaN	0.000000	0.001529	0.001676	28.0842	58.539	0.001688	34669.4	2.018961	177.476	182.079	1.313041	0.057140	0.056787	184.365	34669.4	0.053151	0.102402	1800.41	98984
1079	2.000000	1.315861	7.37561e+06	-54089.1	1055.82	-29744.3	0.000000	0.000000	7.324373	200.365	NaN	0.000000	0.001539	0.001680	28.084	63.2084	0.001806	34996	4.526836	-5.507847	194.098	1.315418	0.059606	0.059164	200.365	34996	0.055312	0.109538	1829.19	96607.4
1079	2.000000	1.318400	7.37561e+06	-54089.1	1055.82	-29744.3	0.000000	0.000000	7.327696	219.442	NaN	0.000000	0.001525	0.001698	28.0832	65.3497	0.001716	38091.2	7.555656	171.815	217.227	1.317994	0.062145	0.061739	219.442	38091.2	0.057824	0.118123	1857.75	101259
1079	2.000000	1.320887	7.37561e+06	-54089.1	1055.82	-29744.3	0.000000	0.000000	7.330700	231.992	NaN	0.000000	0.001579	0.001700	28.0828	67.5604	0.001727	39112.4	3.981514	-5.725347	225.888	1.320609	0.064633	0.064354	231.992	39112.4	0.060184	0.126469	1834.38	100484
1079	2.000000	1.323376	7.37561e+06	-54089.1	1055.82	-29744.3	0.000000	0.000000	7.334031	252.467	NaN	0.000000	0.001602	0.001697	28.0829	70.5252	0.001786	39488	5.469823	172.443	250.29	1.323134	0.067122	0.066879	252.467	39488	0.062327	0.134283	1880.11	98452.5
1079	2.000000	1.325864	7.37561e+06	-54089.1	1055.82	-29744.3	0.000000	0.000000	7.337262	270.548	NaN	0.000000	0.001623	0.001693	28.0829	71.58	0.001676	42699.3	4.664634	-6.599208	268.334	1.325460	0.069609	0.069205	270.548	42699.3	0.064857	0.143800	1881.42	102876
1079	2.000000	1.328352	7.37561e+06	-54089.1	1055.82	-29744.3	0.000000	0.000000	7.340207	281.652	NaN	0.000000	0.001620	0.001678	28.0828	74.8804	0.001720	43543.1	1.505256	175.417	276.092	1.328194	0.072098	0.071939	281.652	43543.1	0.067246	0.153067	1840.06	101684
1079	2.000000	1.330894	7.37561e+06	-54089.1	1055.82	-29744.3	0.000000	0.000000	7.343870	308.889	NaN	0.000000	0.001640	0.001696	28.0826	77.3981	0.001839	42079	7.300876	-8.515008	305.232	1.330331	0.074639	0.074076	308.889	42079	0.069134	0.160583	1923.55	95937.6
1079	2.000000	1.333341	7.37561e+06	-54089.1	1055.82	-29744.3	0.000000	0.000000	7.346983	325.099	NaN	0.000000	0.001638	0.001687	28.083	78.212	0.001809	43237.6	4.522600	173.481	321.338	1.333088	0.077086	0.076833	325.099	43237.6	0.071447	0.170024	1912.08	95803
1079	2.000000	1.335866	7.37561e+06	-54089.1	1055.82	-29744.3	0.000000	0.000000	7.350313	344.663	NaN	0.000000	0.001620	0.001648	28.0831	81.661	0.001785	45760.1	3.772466	-6.155545	341.147	1.335456	0.079611	0.079201	344.663	45760.1	0.073962	0.180578	1908.66	98384.7
1079	2.000000	1.338464	7.37561e+06	-54089.1	1055.82	-29744.3	0.000000	0.000000	7.353237	352.563	NaN	0.000000	0.001619	0.001681	28.0831	85.8893	0.001827	47007.6	4.560676	171.97	354.635	1.338239	0.082210	0.081984	352.563	47007.6	0.076585	0.191901	1837.21	98039.9
1079	2.000000	1.340938	7.37561e+06	-54089.1	1055.82	-29744.3	0.000000	0.000000	7.356963	383.006	NaN	0.000000	0.001628	0.001687	28.0829	86.8783	0.001843	47137	5.588104	-8.230822	382.909	1.340434	0.084684	0.084179	383.006	47137	0.078590	0.200775	1907.64	96112.6
1079	2.000000	1.343323	7.37561e+06	-54089.1	1055.82	-29744.3	0.000000	0.000000	7.360260	405.18	NaN	0.000000	0.001635	0.001673	28.0828	87.6871	0.001690	51887.9	5.162785	170.979	400.415	1.343018	0.087069	0.086763	405.18	51887.9	0.081212	0.212664	1905.26	102800
1079	2.000000	1.345818	7.37561e+06	-54089.1	1055.82	-29744.3	0.000000	0.000000	7.363647	426.87	NaN	0.000000	0.001575	0.001695	28.083	90.4362	0.001732	52209	4.164312	-7.991502	421.688	1.345543	0.089564	0.089289	426.87	52209	0.083432	0.222977	1914.41	101016
1079	2.000000	1.348402	7.37561e+06	-54089.1	1055.82	-29744.3	0.000000	0.000000	7.366873	442.505	NaN	0.000000	0.001582	0.001701	28.0827	94.4283	0.001723	54813	8.217625	167.609	445.203	1.348113	0.092147	0.091858	442.505	54813	0.086092	0.235641	1877.88	103165
1079	2.000000	1.350853	7.37561e+06	-54089.1	1055.82	-29744.3	0.000000	0.000000	7.370510	471.322	NaN	0.000000	0.001576	0.001668	28.0828	95.9301	0.001739	55152.3	7.981094	-11.3752	467.186	1.350388	0.094598	0.094133	471.322	55152.3	0.088189	0.245847	1917.13	101626
1079	2.000000	1.353360	7.37561e+06	-54089.1	1055.82	-29744.3	0.000000	0.000000	7.374069	496.883	NaN	0.000000	0.001592	0.001633	28.0842	98.8781	0.001863	53078.2	5.991208	170.672	496.246	1.352926	0.097106	0.096671	496.883	53078.2	0.090085	0.255253	1946.63	95985.2
1079	2.000000	1.355813	7.37561e+06	-54089.1	1055.82	-29744.3	0.000000	0.000000	7.377667	524.743	NaN	0.000000	0.001584	0.001665	28.084	100.571	0.001745	57629.7	3.411534	-7.613794	518.476	1.355486	0.099558	0.099231	524.743	57629.7	0.092729	0.268648	1953.28	101585
1079	2.000000	1.358396	7.37561e+06	-54089.1	1055.82	-29744.3	0.000000	0.000000	7.380782	537.672	NaN	0.000000	0.001563	0.001662	28.0839	104.587	0.001847	56611.2	3.823053	171.916	538.93	1.358116	0.102141	0.101861	537.672	56611.2	0.095018	0.280498	1916.85	97658.6
1079	2.000000	1.360857	7.37561e+06	-54089.1	1055.82	-29744.3	0.000000	0.000000	7.384883	577.526	NaN	0.000000	0.001569	0.001643	28.084	105.31	0.001741	60479.3	4.024521	-7.861660	573.255	1.360508	0.104602	0.104254	577.526	60479.3	0.097441	0.293302	1969.05	102029
1079	2.000000	1.362200	7.37561e+06	-54089.1	1055.82	-29744.3	0.000000	0.000000	7.386704	589.165	NaN	0.000000	0.001567	0.001671	28.0839	106.276	0.001692	62800.5	-0.154242	175.154	579.963	1.362000	0.105945	0.105746	589.165	62800.5	0.098909	0.301194	1956.1	104547