File: remote_trans/data/nanoindenter/0828-1/data/Data_2025-08-06,11h17m57s/2025-07-22_16-23-58_1_309.txt
2025-07-22, 16:23:58, 1
Index	Phase	Displacement	Time	Pos X	Pos Y	Pos Z	Rot A	Rot B	Piezo Z	Force A	Force B	Gripper	Voltage A	Voltage B	Temperature	Amplitude force	Amplitude pos	Stiffness	Phase shift	Phase excitation	Force A raw	Displacement raw	HMax	HMax raw	Real Force	Real Stiffness	Contact Depth	Area	Hardness	Reduced Mod.
[#]	[#]	[um]	[s]	[um]	[um]	[um]	[m°]	[m°]	[um]	[uN]	[uN]	[V]	[V]	[V]	[°C]	[uN]	[um]	[N/m]	[°]	[°]	[uN]	[um]	[um]	[um]	[uN]	[N/m]	[um]	[um^2]	[MPa]	[MPa]
309	1.000000	0.002547	7.36809e+06	-54089.1	955.819	-29744.2	0.000000	0.000000	6.002785	0.019353	NaN	0.000000	0.001753	0.001605	28.0776	0.079202	0.000999	79.2905	157.422	-171.019	0.055046	0.001278	-1.689481	-1.690750	0.019353	79.2905	-1.689664	-3.707845E+22	-5.219361E-25	NaN
309	1.000000	0.014587	7.36809e+06	-54089.1	955.819	-29744.2	0.000000	0.000000	6.014821	-0.053628	NaN	0.000000	0.001710	0.001632	28.0772	0.038623	0.001606	24.054	91.7929	-169.426	-0.018867	0.013418	-1.677441	-1.678611	-0.053628	24.054	-1.675769	-2.423829E+22	2.212523E-24	NaN
309	1.000000	0.026545	7.36809e+06	-54089.1	955.818	-29744.2	0.000000	0.000000	6.026781	-0.027905	NaN	0.000000	0.001729	0.001618	28.0772	0.049204	0.001823	26.9951	152.348	-166.212	-0.041722	0.025217	-1.665483	-1.666812	-0.027905	26.9951	-1.664708	-1.727869E+22	1.614974E-24	NaN
309	1.000000	0.038537	7.36809e+06	-54089.1	955.819	-29744.2	0.000000	0.000000	6.038772	-0.036852	NaN	0.000000	0.001691	0.001608	28.0775	0.033404	0.002026	16.4902	-43.3683	-168.352	0.003669	0.037166	-1.653491	-1.654862	-0.036852	16.4902	-1.651815	-1.164548E+22	3.164482E-24	NaN
309	1.000000	0.050510	7.36809e+06	-54089.1	955.818	-29744.2	0.000000	0.000000	6.050747	-0.002575	NaN	0.000000	0.001736	0.001581	28.077	0.072497	0.001892	38.3201	-153.718	-168.568	-0.011996	0.049249	-1.641518	-1.642779	-0.002575	38.3201	-1.641468	-8.484227E+21	3.035542E-25	NaN
309	1.000000	0.062492	7.36809e+06	-54089.1	955.819	-29744.2	0.000000	0.000000	6.062732	0.078064	NaN	0.000000	0.001738	0.001571	28.0771	0.078420	0.002092	37.4814	-26.819	-165.51	0.016969	0.061203	-1.629536	-1.630825	0.078064	37.4814	-1.631098	-6.176744E+21	-1.263843E-23	NaN
309	1.000000	0.074547	7.36809e+06	-54089.1	955.819	-29744.2	0.000000	0.000000	6.074784	0.007088	NaN	0.000000	0.001701	0.001580	28.0772	0.062560	0.002011	31.1103	-155.532	-167.738	0.053693	0.073231	-1.617481	-1.618798	0.007088	31.1103	-1.617652	-4.092416E+21	-1.732093E-24	NaN
309	1.000000	0.086494	7.36809e+06	-54089.1	955.818	-29744.2	0.000000	0.000000	6.086732	0.026960	NaN	0.000000	0.001710	0.001623	28.0775	0.016776	0.002015	8.326161	-102.751	-164.196	0.050928	0.085186	-1.605534	-1.606842	0.026960	8.326161	-1.607962	-3.041732E+21	-8.863212E-24	NaN
309	1.000000	0.098554	7.36809e+06	-54089.1	955.817	-29744.2	0.000000	0.000000	6.098792	0.019436	NaN	0.000000	0.001730	0.001587	28.0788	0.058479	0.002075	28.1808	35.717	-168.829	0.080194	0.097226	-1.593474	-1.594802	0.019436	28.1808	-1.593991	-1.982902E+21	-9.801963E-24	NaN
309	1.000000	0.110514	7.36809e+06	-54089.1	955.818	-29744.2	0.000000	0.000000	6.110754	0.094302	NaN	0.000000	0.001686	0.001584	28.0786	0.008323	0.002045	4.070383	5.143852	-166.886	0.036540	0.109232	-1.581514	-1.582796	0.094302	4.070383	-1.598890	-2.303901E+21	-4.093145E-23	NaN
309	1.000000	0.122575	7.36809e+06	-54089.1	955.818	-29744.2	0.000000	0.000000	6.122812	0.010165	NaN	0.000000	0.001708	0.001580	28.0785	0.110027	0.002051	53.6471	69.2648	-169.694	0.008604	0.121251	-1.569453	-1.570777	0.010165	53.6471	-1.569595	-9.391831E+20	-1.082322E-23	NaN
309	1.000000	0.134532	7.36809e+06	-54089.1	955.817	-29744.2	0.000000	0.000000	6.134770	0.015142	NaN	0.000000	0.001730	0.001589	28.0784	0.051667	0.001957	26.4036	30.516	-165.285	-0.012139	0.133220	-1.557496	-1.558809	0.015142	26.4036	-1.557926	-6.568638E+20	-2.305236E-23	NaN
309	1.000000	0.146546	7.36809e+06	-54089.1	955.819	-29744.2	0.000000	0.000000	6.146786	0.081152	NaN	0.000000	0.001697	0.001601	28.0783	0.104300	0.002034	51.2877	-75.609	-169.044	-0.028452	0.145287	-1.545482	-1.546741	0.081152	51.2877	-1.546669	-4.652267E+20	-1.744362E-22	NaN
309	1.000000	0.158551	7.36809e+06	-54089.1	955.819	-29744.2	0.000000	0.000000	6.158788	0.018602	NaN	0.000000	0.001658	0.001567	28.0784	0.057167	0.001994	28.6728	-139.74	-164.953	0.075846	0.157249	-1.533477	-1.534779	0.018602	28.6728	-1.533964	-3.151709E+20	-5.902208E-23	NaN
309	1.000000	0.170539	7.36809e+06	-54089.1	955.818	-29744.2	0.000000	0.000000	6.170779	0.079957	NaN	0.000000	0.001744	0.001610	28.0785	0.129070	0.002193	58.8578	97.7394	-168.091	0.079893	0.169259	-1.521489	-1.522769	0.079957	58.8578	-1.522508	-2.218397E+20	-3.604284E-22	NaN
309	1.000000	0.182574	7.36809e+06	-54089.1	955.818	-29744.2	0.000000	0.000000	6.182811	0.008863	NaN	0.000000	0.001706	0.001627	28.0786	0.067294	0.002070	32.5141	11.2254	-164.135	0.071978	0.181246	-1.509454	-1.510782	0.008863	32.5141	-1.509659	-1.496033E+20	-5.924475E-23	NaN
309	1.000000	0.194580	7.36809e+06	-54089.1	955.818	-29744.2	0.000000	0.000000	6.194819	0.051450	NaN	0.000000	0.001669	0.001586	28.0786	0.054369	0.001886	28.8226	90.6477	-167.338	-0.002416	0.193310	-1.497448	-1.498719	0.051450	28.8226	-1.498787	-1.071900E+20	-4.799912E-22	NaN
309	1.000000	0.206592	7.36809e+06	-54089.1	955.819	-29744.2	0.000000	0.000000	6.206830	0.038149	NaN	0.000000	0.001668	0.001589	28.0786	0.095814	0.002107	45.483	-107.294	-164.958	0.119456	0.205272	-1.485437	-1.486756	0.038149	45.483	-1.486066	-7.256249E+19	-5.257386E-22	NaN
309	1.000000	0.218590	7.36809e+06	-54089.1	955.818	-29744.2	0.000000	0.000000	6.218829	0.065551	NaN	0.000000	0.001667	0.001594	28.0786	0.081374	0.002018	40.3149	128.135	-165.867	0.069948	0.217292	-1.473438	-1.474737	0.065551	40.3149	-1.474658	-5.113645E+19	-1.281891E-21	NaN
309	1.000000	0.230578	7.36809e+06	-54089.1	955.818	-29744.2	0.000000	0.000000	6.230816	0.038952	NaN	0.000000	0.001718	0.001603	28.0773	0.073061	0.001996	36.6033	133.921	-163.984	0.123977	0.229255	-1.461450	-1.462773	0.038952	36.6033	-1.462248	-3.494454E+19	-1.114684E-21	NaN
309	1.000000	0.242605	7.36809e+06	-54089.1	955.819	-29744.2	0.000000	0.000000	6.242840	-0.046637	NaN	0.000000	0.001678	0.001630	28.0773	0.039205	0.002018	19.432	86.1847	-167.356	-0.049711	0.241289	-1.449423	-1.450739	-0.046637	19.432	-1.447623	-2.230840E+19	2.090548E-21	NaN
309	1.000000	0.254629	7.36809e+06	-54089.1	955.819	-29744.2	0.000000	0.000000	6.254866	-0.001977	NaN	0.000000	0.001670	0.001609	28.0773	0.054932	0.002071	26.5256	-112.024	-166.801	-0.045074	0.253295	-1.437399	-1.438733	-0.001977	26.5256	-1.437343	-1.627167E+19	1.215210E-22	NaN
309	1.000000	0.266590	7.36809e+06	-54089.1	955.819	-29744.2	0.000000	0.000000	6.266830	0.080761	NaN	0.000000	0.001619	0.001615	28.0773	0.097577	0.002186	44.6325	23.4794	-169.299	0.108242	0.265285	-1.425438	-1.426743	0.080761	44.6325	-1.426795	-1.177095E+19	-6.861039E-21	NaN
309	1.000000	0.278587	7.36809e+06	-54089.1	955.818	-29744.2	0.000000	0.000000	6.278826	0.078565	NaN	0.000000	0.001593	0.001615	28.0777	0.013282	0.002085	6.370862	-93.4819	-164.86	0.149472	0.277238	-1.413442	-1.414790	0.078565	6.370862	-1.422691	-1.037719E+19	-7.570899E-21	NaN
309	1.000000	0.290586	7.36809e+06	-54089.1	955.818	-29744.2	0.000000	0.000000	6.290822	-0.018935	NaN	0.000000	0.001607	0.001628	28.0776	0.062516	0.002092	29.8841	149.926	-168.724	0.016361	0.289282	-1.401442	-1.402746	-0.018935	29.8841	-1.400967	-5.325586E+18	3.555542E-21	NaN
309	1.000000	0.302628	7.36809e+06	-54089.1	955.818	-29744.2	0.000000	0.000000	6.302867	0.059854	NaN	0.000000	0.001635	0.001615	28.0775	0.065920	0.001927	34.2125	-95.5656	-165.505	0.025914	0.301301	-1.389400	-1.390728	0.059854	34.2125	-1.390712	-3.886565E+18	-1.540012E-20	NaN
309	1.000000	0.314619	7.36809e+06	-54089.1	955.818	-29744.2	0.000000	0.000000	6.314858	0.068072	NaN	0.000000	0.001668	0.001625	28.0775	0.075136	0.001939	38.7492	-160.519	-162.193	0.065291	0.313343	-1.377409	-1.378685	0.068072	38.7492	-1.378727	-2.689367E+18	-2.531144E-20	NaN
309	1.000000	0.326627	7.36809e+06	-54089.1	955.817	-29744.2	0.000000	0.000000	6.326863	-0.004598	NaN	0.000000	0.001677	0.001606	28.0777	0.144944	0.002024	71.623	116.776	-169.654	0.054312	0.325326	-1.365401	-1.366702	-0.004598	71.623	-1.365353	-1.783098E+18	2.578914E-21	NaN
309	1.000000	0.338650	7.36809e+06	-54089.1	955.818	-29744.2	0.000000	0.000000	6.338883	-0.092693	NaN	0.000000	0.001628	0.001593	28.0775	0.059784	0.002002	29.8682	-178.167	-162.702	-0.052530	0.337317	-1.353378	-1.354711	-0.092693	29.8682	-1.351050	-1.148824E+18	8.068488E-20	NaN
309	1.000000	0.350612	7.36809e+06	-54089.1	955.818	-29744.2	0.000000	0.000000	6.350849	0.000603	NaN	0.000000	0.001656	0.001593	28.0775	0.084205	0.002055	40.9821	-58.785	-166.423	-0.023815	0.349351	-1.341416	-1.342677	0.000603	40.9821	-1.341427	-8.546093E+17	-7.055588E-22	NaN
309	1.000000	0.362640	7.36809e+06	-54089.1	955.818	-29744.2	0.000000	0.000000	6.362875	-0.030349	NaN	0.000000	0.001650	0.001564	28.0776	0.125013	0.002074	60.2847	-127.814	-165.911	-0.028004	0.361343	-1.329388	-1.330685	-0.030349	60.2847	-1.329011	-5.833915E+17	5.202225E-20	NaN
309	1.000000	0.374638	7.36809e+06	-54089.1	955.819	-29744.2	0.000000	0.000000	6.374875	0.001843	NaN	0.000000	0.001605	0.001617	28.0791	0.064991	0.002076	31.2994	88.7003	-167.277	-0.079462	0.373341	-1.317390	-1.318687	0.001843	31.2994	-1.317434	-4.086283E+17	-4.509266E-21	NaN
309	1.000000	0.386649	7.36809e+06	-54089.1	955.819	-29744.2	0.000000	0.000000	6.386887	0.023692	NaN	0.000000	0.001573	0.001602	28.079	0.110810	0.001933	57.3395	42.4907	-164.224	-0.032065	0.385359	-1.305379	-1.306669	0.023692	57.3395	-1.305689	-2.847154E+17	-8.321177E-20	NaN
309	1.000000	0.398649	7.36809e+06	-54089.1	955.818	-29744.2	0.000000	0.000000	6.398885	-0.021347	NaN	0.000000	0.001609	0.001587	28.0789	0.034540	0.002032	17.0008	-110.391	-166.008	-0.071155	0.397395	-1.293379	-1.294633	-0.021347	17.0008	-1.292437	-1.893788E+17	1.127198E-19	NaN
309	1.000000	0.410645	7.36809e+06	-54089.1	955.818	-29744.2	0.000000	0.000000	6.410880	-0.032182	NaN	0.000000	0.001612	0.001613	28.0787	0.165355	0.002045	80.8779	150.386	-162.772	-0.011080	0.409390	-1.281383	-1.282638	-0.032182	80.8779	-1.281085	-1.335335E+17	2.410030E-19	NaN
309	1.000000	0.422651	7.36809e+06	-54089.1	955.819	-29744.2	0.000000	0.000000	6.422888	0.018886	NaN	0.000000	0.001631	0.001596	28.0786	0.108317	0.002061	52.5529	-125.098	-170.165	-0.002940	0.421309	-1.269377	-1.270719	0.018886	52.5529	-1.269647	-9.390085E+16	-2.011315E-19	NaN
309	1.000000	0.434688	7.36809e+06	-54089.1	955.818	-29744.2	0.000000	0.000000	6.434925	0.006007	NaN	0.000000	0.001615	0.001585	28.0787	0.068617	0.001959	35.0207	158.01	-165.395	0.098929	0.433344	-1.257340	-1.258684	0.006007	35.0207	-1.257469	-6.453891E+16	-9.308169E-20	NaN
309	1.000000	0.446707	7.36809e+06	-54089.1	955.818	-29744.2	0.000000	0.000000	6.446948	0.086277	NaN	0.000000	0.001621	0.001590	28.0786	0.122605	0.002014	60.8762	99.9521	-168.853	0.170108	0.445334	-1.245321	-1.246694	0.086277	60.8762	-1.246384	-4.587172E+16	-1.880825E-18	NaN
309	1.000000	0.458685	7.36809e+06	-54089.1	955.819	-29744.2	0.000000	0.000000	6.458919	-0.063426	NaN	0.000000	0.001636	0.001622	28.0787	0.120564	0.001980	60.8805	-137.1	-167.014	-0.028941	0.457407	-1.233344	-1.234621	-0.063426	60.8805	-1.232562	-2.996566E+16	2.116637E-18	NaN
309	1.000000	0.470680	7.36809e+06	-54089.1	955.819	-29744.2	0.000000	0.000000	6.470917	0.015460	NaN	0.000000	0.001636	0.001575	28.079	0.104012	0.002032	51.1932	-141.414	-167.485	-0.055951	0.469387	-1.221348	-1.222641	0.015460	51.1932	-1.221575	-2.135890E+16	-7.238078E-19	NaN
309	1.000000	0.482699	7.36809e+06	-54089.1	955.819	-29744.2	0.000000	0.000000	6.482935	-0.024107	NaN	0.000000	0.001597	0.001587	28.0789	0.128935	0.001958	65.8463	150.87	-166.152	-0.101058	0.481408	-1.209329	-1.210620	-0.024107	65.8463	-1.209054	-1.452042E+16	1.660203E-18	NaN
309	1.000000	0.494676	7.36809e+06	-54089.1	955.818	-29744.2	0.000000	0.000000	6.494915	0.059416	NaN	0.000000	0.001640	0.001568	28.0785	0.089723	0.001889	47.4881	-92.55	-167.063	-0.026929	0.493350	-1.197353	-1.198678	0.059416	47.4881	-1.198291	-1.041988E+16	-5.702212E-18	NaN
309	1.000000	0.506715	7.36809e+06	-54089.1	955.818	-29744.2	0.000000	0.000000	6.506950	-0.027284	NaN	0.000000	0.001583	0.001641	28.0774	0.061507	0.001955	31.465	-157.097	-163.975	-0.095786	0.505417	-1.185313	-1.186611	-0.027284	31.465	-1.184663	-6.844470E+15	3.986281E-18	NaN
309	1.000000	0.518694	7.36809e+06	-54089.1	955.819	-29744.2	0.000000	0.000000	6.518931	0.023722	NaN	0.000000	0.001609	0.001642	28.0772	0.046137	0.001958	23.5586	113.113	-165.592	-0.026886	0.517418	-1.173334	-1.174610	0.023722	23.5586	-1.174089	-4.939500E+15	-4.802431E-18	NaN
309	1.000000	0.530719	7.36809e+06	-54089.1	955.819	-29744.2	0.000000	0.000000	6.530956	0.008354	NaN	0.000000	0.001619	0.001577	28.0773	0.009009	0.001975	4.561401	-57.2709	-163.011	-0.021498	0.529472	-1.161309	-1.162556	0.008354	4.561401	-1.162682	-3.473938E+15	-2.404859E-18	NaN
309	1.000000	0.542709	7.36809e+06	-54089.1	955.818	-29744.2	0.000000	0.000000	6.542944	-0.028084	NaN	0.000000	0.001598	0.001617	28.0775	0.047487	0.002070	22.9422	83.401	-165.917	-0.020649	0.541392	-1.149319	-1.150636	-0.028084	22.9422	-1.148401	-2.235568E+15	1.256235E-17	NaN
309	1.000000	0.554697	7.36809e+06	-54089.1	955.819	-29744.1	0.000000	0.000000	6.554935	0.021517	NaN	0.000000	0.001612	0.001603	28.0774	0.120563	0.001898	63.5253	-74.6304	-164.411	-0.002666	0.553452	-1.137331	-1.138576	0.021517	63.5253	-1.137585	-1.600855E+15	-1.344088E-17	NaN
309	1.000000	0.566719	7.36809e+06	-54089.1	955.818	-29744.1	0.000000	0.000000	6.566955	-0.006816	NaN	0.000000	0.001611	0.001595	28.0778	0.009355	0.001915	4.885065	-146.761	-165.318	-0.059838	0.565434	-1.125309	-1.126594	-0.006816	4.885065	-1.124263	-1.060861E+15	6.425090E-18	NaN
309	1.000000	0.578710	7.36809e+06	-54089.1	955.818	-29744.1	0.000000	0.000000	6.578945	-0.041352	NaN	0.000000	0.001604	0.001615	28.0776	0.091524	0.001997	45.8197	-38.2577	-165.183	-0.017877	0.577426	-1.113318	-1.114602	-0.041352	45.8197	-1.112641	-7.408478E+14	5.581749E-17	NaN
309	1.000000	0.590747	7.36809e+06	-54089.1	955.818	-29744.1	0.000000	0.000000	6.590984	0.021701	NaN	0.000000	0.001599	0.001607	28.0775	0.043887	0.001947	22.5464	21.0041	-162.892	0.046046	0.589417	-1.101281	-1.102611	0.021701	22.5464	-1.102003	-5.332804E+14	-4.069266E-17	NaN
309	1.000000	0.602770	7.36809e+06	-54089.1	955.818	-29744.1	0.000000	0.000000	6.603006	-0.011185	NaN	0.000000	0.001622	0.001585	28.0774	0.061340	0.001939	31.6327	91.2064	-168.358	0.053201	0.601420	-1.089258	-1.090608	-0.011185	31.6327	-1.088993	-3.566892E+14	3.135697E-17	NaN
309	1.000000	0.614747	7.36809e+06	-54089.1	955.818	-29744.1	0.000000	0.000000	6.614986	0.040182	NaN	0.000000	0.001620	0.001580	28.0776	0.115815	0.002036	56.8794	60.9628	-167.077	0.059151	0.613426	-1.077281	-1.078602	0.040182	56.8794	-1.077811	-2.524132E+14	-1.591925E-16	NaN
309	1.000000	0.626752	7.36809e+06	-54089.1	955.818	-29744.1	0.000000	0.000000	6.626989	-0.007421	NaN	0.000000	0.001601	0.001599	28.0773	0.058549	0.002039	28.7109	63.6677	-168.212	-0.068152	0.625354	-1.065276	-1.066674	-0.007421	28.7109	-1.065082	-1.702598E+14	4.358705E-17	NaN
309	1.000000	0.638770	7.36809e+06	-54089.1	955.818	-29744.1	0.000000	0.000000	6.639006	-0.001423	NaN	0.000000	0.001618	0.001605	28.0785	0.074560	0.002039	36.5749	-78.8384	-163.225	0.009206	0.637458	-1.053258	-1.054570	-0.001423	36.5749	-1.053229	-1.179831E+14	1.205943E-17	NaN
309	1.000000	0.650782	7.36809e+06	-54089.1	955.818	-29744.1	0.000000	0.000000	6.651016	-0.072930	NaN	0.000000	0.001602	0.001620	28.0785	0.081738	0.002019	40.4802	67.9285	-166.782	-0.143559	0.649481	-1.041246	-1.042548	-0.072930	40.4802	-1.039895	-7.808220E+13	9.340174E-16	NaN
309	1.000000	0.662758	7.36809e+06	-54089.1	955.818	-29744.1	0.000000	0.000000	6.662994	-0.032108	NaN	0.000000	0.001622	0.001595	28.0787	0.025918	0.001938	13.3731	20.3057	-164.611	0.044056	0.661495	-1.029270	-1.030534	-0.032108	13.3731	-1.027469	-5.314178E+13	6.041899E-16	NaN
309	1.000000	0.674787	7.36809e+06	-54089.1	955.819	-29744.1	0.000000	0.000000	6.675027	0.084916	NaN	0.000000	0.001628	0.001606	28.079	0.032690	0.001975	16.5511	-23.5973	-167.112	0.111216	0.673549	-1.017241	-1.018479	0.084916	16.5511	-1.021089	-4.361181E+13	-1.947088E-15	NaN
309	1.000000	0.686792	7.36809e+06	-54089.1	955.819	-29744.1	0.000000	0.000000	6.687030	0.025334	NaN	0.000000	0.001596	0.001599	28.0788	0.049929	0.001978	25.2373	-59.1709	-167.987	0.002342	0.685447	-1.005236	-1.006581	0.025334	25.2373	-1.005989	-2.731437E+13	-9.274983E-16	NaN
309	1.000000	0.698766	7.36809e+06	-54089.1	955.818	-29744.1	0.000000	0.000000	6.699003	0.001509	NaN	0.000000	0.001616	0.001585	28.0786	0.027264	0.001999	13.6372	159.084	-169.083	0.018029	0.697466	-0.993262	-0.994563	0.001509	13.6372	-0.993345	-1.845692E+13	-8.174009E-17	NaN
309	1.000000	0.710814	7.36809e+06	-54089.1	955.819	-29744.1	0.000000	0.000000	6.711052	0.031798	NaN	0.000000	0.001607	0.001604	28.0787	0.104028	0.002013	51.6715	37.7929	-165.452	-0.010747	0.709473	-0.981214	-0.982556	0.031798	51.6715	-0.981676	-1.285237E+13	-2.474086E-15	NaN
309	1.000000	0.722808	7.36809e+06	-54089.1	955.818	-29744.1	0.000000	0.000000	6.723045	0.002212	NaN	0.000000	0.001640	0.001580	28.0787	0.109180	0.002053	53.1735	126.447	-168.654	0.077428	0.721527	-0.969220	-0.970502	0.002212	53.1735	-0.969251	-8.741273E+12	-2.530091E-16	NaN
309	1.000000	0.734776	7.36809e+06	-54089.1	955.818	-29744.1	0.000000	0.000000	6.735011	-0.035996	NaN	0.000000	0.001652	0.001604	28.0786	0.030373	0.001943	15.6327	121.674	-164.383	-0.018347	0.733502	-0.957252	-0.958526	-0.035996	15.6327	-0.955525	-5.708713E+12	6.305478E-15	NaN
309	1.000000	0.746829	7.36809e+06	-54089.1	955.818	-29744.1	0.000000	0.000000	6.747068	0.065132	NaN	0.000000	0.001615	0.001619	28.0787	0.110343	0.001929	57.2144	-149.228	-167.447	0.135733	0.745498	-0.945199	-0.946531	0.065132	57.2144	-0.946053	-4.253920E+12	-1.531110E-14	NaN
309	1.000000	0.758807	7.36809e+06	-54089.1	955.818	-29744.1	0.000000	0.000000	6.759043	-0.014799	NaN	0.000000	0.001624	0.001640	28.0789	0.050459	0.002083	24.2199	-147.291	-166.494	-0.066638	0.757487	-0.933222	-0.934541	-0.014799	24.2199	-0.932763	-2.815071E+12	5.257122E-15	NaN
309	1.000000	0.770850	7.36809e+06	-54089.1	955.818	-29744.1	0.000000	0.000000	6.771087	0.004297	NaN	0.000000	0.001597	0.001578	28.0787	0.088543	0.001995	44.3737	-112.565	-166.503	0.066922	0.769508	-0.921178	-0.922520	0.004297	44.3737	-0.921251	-1.968313E+12	-2.183197E-15	NaN
309	1.000000	0.782805	7.36809e+06	-54089.1	955.817	-29744.1	0.000000	0.000000	6.783038	-0.093128	NaN	0.000000	0.001616	0.001580	28.0774	0.064733	0.001970	32.8623	77.6447	-167.181	-0.106707	0.781523	-0.909223	-0.910505	-0.093128	32.8623	-0.907098	-1.267533E+12	7.347168E-14	NaN
309	1.000000	0.794828	7.36809e+06	-54089.1	955.819	-29744.1	0.000000	0.000000	6.795064	-0.011864	NaN	0.000000	0.001631	0.001589	28.0772	0.057650	0.002026	28.4535	-62.9057	-168.104	-0.065571	0.793509	-0.897201	-0.898519	-0.011864	28.4535	-0.896888	-9.225947E+11	1.285908E-14	NaN
309	1.000000	0.806828	7.36809e+06	-54089.1	955.82	-29744.1	0.000000	0.000000	6.807066	0.043976	NaN	0.000000	0.001600	0.001567	28.0774	0.096612	0.002037	47.4305	-94.1344	-165.929	0.091152	0.805503	-0.885200	-0.886525	0.043976	47.4305	-0.885896	-6.552862E+11	-6.710999E-14	NaN
309	1.000000	0.818833	7.36809e+06	-54089.1	955.819	-29744.1	0.000000	0.000000	6.819068	-0.030091	NaN	0.000000	0.001585	0.001540	28.0776	0.093746	0.002011	46.6062	152.425	-164.521	-0.049623	0.817623	-0.873195	-0.874406	-0.030091	46.6062	-0.872711	-4.346279E+11	6.923490E-14	NaN
309	1.000000	0.830839	7.36809e+06	-54089.1	955.817	-29744.1	0.000000	0.000000	6.831074	-0.027396	NaN	0.000000	0.001596	0.001590	28.0776	0.040656	0.001944	20.9086	20.042	-167.156	-0.034901	0.829544	-0.861189	-0.862484	-0.027396	20.9086	-0.860207	-2.943878E+11	9.306032E-14	NaN
309	1.000000	0.842807	7.36809e+06	-54089.1	955.818	-29744.1	0.000000	0.000000	6.843046	0.058695	NaN	0.000000	0.001611	0.001578	28.0775	0.027261	0.001987	13.7229	-59.8041	-164.681	-0.063365	0.841545	-0.849221	-0.850483	0.058695	13.7229	-0.852429	-2.310058E+11	-2.540829E-13	NaN
309	1.000000	0.854835	7.36809e+06	-54089.1	955.819	-29744.1	0.000000	0.000000	6.855072	0.009415	NaN	0.000000	0.001560	0.001562	28.0774	0.099816	0.001899	52.5742	-28.5452	-164.446	-0.006951	0.853549	-0.837193	-0.838479	0.009415	52.5742	-0.837328	-1.442399E+11	-6.526995E-14	NaN
309	1.000000	0.866850	7.36809e+06	-54089.1	955.819	-29744.1	0.000000	0.000000	6.867088	0.029695	NaN	0.000000	0.001602	0.001557	28.0774	0.084742	0.002011	42.1388	-80.3415	-166.557	0.016855	0.865559	-0.825178	-0.826470	0.029695	42.1388	-0.825707	-1.003669E+11	-2.958620E-13	NaN
309	1.000000	0.878821	7.36809e+06	-54089.1	955.817	-29744.1	0.000000	0.000000	6.879060	0.067343	NaN	0.000000	0.001634	0.001585	28.0774	0.038826	0.001924	20.1832	57.9915	-168.506	0.091492	0.877544	-0.813207	-0.814484	0.067343	20.1832	-0.815710	-7.345545E+10	-9.167818E-13	NaN
309	1.000000	0.890859	7.36809e+06	-54089.1	955.817	-29744.1	0.000000	0.000000	6.891096	0.018303	NaN	0.000000	0.001617	0.001561	28.0772	0.112174	0.001998	56.1383	-42.1809	-166.777	0.003365	0.889542	-0.801169	-0.802487	0.018303	56.1383	-0.801414	-4.699541E+10	-3.894717E-13	NaN
309	1.000000	0.902880	7.36809e+06	-54089.1	955.819	-29744.1	0.000000	0.000000	6.903116	-0.017199	NaN	0.000000	0.001628	0.001620	28.0774	0.069374	0.001944	35.6804	-28.7924	-168.265	-0.013908	0.901576	-0.789148	-0.790452	-0.017199	35.6804	-0.788786	-3.166630E+10	5.431193E-13	NaN
309	1.000000	0.914871	7.36809e+06	-54089.1	955.818	-29744.1	0.000000	0.000000	6.915106	-0.045476	NaN	0.000000	0.001615	0.001598	28.0786	0.043249	0.001930	22.4108	112.112	-162.144	-0.051307	0.913560	-0.777157	-0.778468	-0.045476	22.4108	-0.775635	-2.098517E+10	2.167048E-12	NaN
309	1.000000	0.926877	7.36809e+06	-54089.1	955.819	-29744.1	0.000000	0.000000	6.927115	0.020861	NaN	0.000000	0.001621	0.001597	28.0785	0.095493	0.002052	46.5274	-145.327	-169.803	0.062892	0.925596	-0.765151	-0.766432	0.020861	46.5274	-0.765487	-1.527351E+10	-1.365814E-12	NaN
309	1.000000	0.938893	7.36809e+06	-54089.1	955.818	-29744.1	0.000000	0.000000	6.939129	-0.015223	NaN	0.000000	0.001600	0.001595	28.0786	0.056809	0.001876	30.2767	14.1045	-162.841	-0.002212	0.937577	-0.753135	-0.754451	-0.015223	30.2767	-0.752758	-1.025083E+10	1.485045E-12	NaN
309	1.000000	0.950884	7.36809e+06	-54089.1	955.819	-29744.1	0.000000	0.000000	6.951120	-0.029848	NaN	0.000000	0.001646	0.001601	28.0788	0.041212	0.002119	19.4496	73.104	-168.75	-0.066296	0.949631	-0.741144	-0.742397	-0.029848	19.4496	-0.739993	-6.870008E+9	4.344747E-12	NaN
309	1.000000	0.962889	7.36809e+06	-54089.1	955.818	-29744.1	0.000000	0.000000	6.963123	-0.065988	NaN	0.000000	0.001656	0.001621	28.0786	0.087197	0.001886	46.2244	-50.3785	-165.937	-0.022859	0.961612	-0.729139	-0.730416	-0.065988	46.2244	-0.728069	-4.725889E+9	1.396314E-11	NaN
309	1.000000	0.974894	7.36809e+06	-54089.1	955.817	-29744.1	0.000000	0.000000	6.975130	-0.013422	NaN	0.000000	0.001612	0.001626	28.0785	0.113220	0.001954	57.9299	-34.9794	-162.705	-0.026199	0.973561	-0.717134	-0.718467	-0.013422	57.9299	-0.716960	-3.334339E+9	4.025451E-12	NaN
309	1.000000	0.986914	7.36809e+06	-54089.1	955.818	-29744.1	0.000000	0.000000	6.987152	0.019896	NaN	0.000000	0.001602	0.001609	28.0783	0.049532	0.001933	25.627	45.5241	-164.757	-0.014630	0.985581	-0.705114	-0.706447	0.019896	25.627	-0.705696	-2.340480E+9	-8.500853E-12	NaN
309	1.000000	0.998887	7.36809e+06	-54089.1	955.818	-29744.1	0.000000	0.000000	6.999122	-0.038193	NaN	0.000000	0.001627	0.001613	28.0784	0.093862	0.001990	47.1716	-86.4463	-167.479	-0.036429	0.997598	-0.693141	-0.694431	-0.038193	47.1716	-0.692534	-1.547183E+9	2.468546E-11	NaN
309	1.000000	1.010886	7.36809e+06	-54089.1	955.817	-29744.1	0.000000	0.000000	7.011120	-0.076215	NaN	0.000000	0.001621	0.001586	28.0788	0.091408	0.002009	45.5065	66.2482	-162.816	-0.103211	1.009563	-0.681142	-0.682465	-0.076215	45.5065	-0.679886	-1.039064E+9	7.334934E-11	NaN
309	1.000000	1.022899	7.36809e+06	-54089.1	955.817	-29744.1	0.000000	0.000000	7.023135	-0.021496	NaN	0.000000	0.001620	0.001584	28.0786	0.115770	0.002070	55.9191	-4.571029	-162	0.005351	1.021634	-0.669129	-0.670394	-0.021496	55.9191	-0.668840	-7.337000E+8	2.929811E-11	NaN
309	1.000000	1.034931	7.36809e+06	-54089.1	955.819	-29744.1	0.000000	0.000000	7.035168	0.004484	NaN	0.000000	0.001592	0.001607	28.0785	0.091080	0.001870	48.7164	-71.5242	-166.816	-0.061768	1.033618	-0.657097	-0.658410	0.004484	48.7164	-0.657166	-5.077411E+8	-8.830546E-12	NaN
309	1.000000	1.046924	7.36809e+06	-54089.1	955.818	-29744.1	0.000000	0.000000	7.047159	-0.027589	NaN	0.000000	0.001626	0.001569	28.0777	0.066294	0.001873	35.3884	-142.142	-165.706	-0.011632	1.045593	-0.645105	-0.646435	-0.027589	35.3884	-0.644520	-3.406375E+8	8.099246E-11	NaN
309	1.000000	1.058914	7.36809e+06	-54089.1	955.818	-29744.1	0.000000	0.000000	7.059147	-0.080932	NaN	0.000000	0.001650	0.001662	28.0772	0.098211	0.002093	46.9159	-173.038	-166.646	0.087496	1.057637	-0.633114	-0.634391	-0.080932	46.9159	-0.631821	-2.280474E+8	3.548894E-10	NaN
309	1.000000	1.070916	7.36809e+06	-54089.1	955.817	-29744.1	0.000000	0.000000	7.071151	-0.045094	NaN	0.000000	0.001628	0.001624	28.0773	0.089783	0.002049	43.8213	122.507	-167.187	-0.048491	1.069624	-0.621112	-0.622404	-0.045094	43.8213	-0.620340	-1.586020E+8	2.843242E-10	NaN
309	1.000000	1.082940	7.36809e+06	-54089.1	955.818	-29744.1	0.000000	0.000000	7.083175	-0.024323	NaN	0.000000	0.001630	0.001612	28.0776	0.176851	0.002020	87.556	56.4418	-165.9	0.046195	1.081644	-0.609088	-0.610384	-0.024323	87.556	-0.608880	-1.103325E+8	2.204522E-10	NaN
309	1.000000	1.094948	7.36809e+06	-54089.1	955.818	-29744.1	0.000000	0.000000	7.095186	0.035298	NaN	0.000000	0.001602	0.001633	28.0772	0.065707	0.002034	32.3041	-78.5346	-169.803	0.015064	1.093639	-0.597080	-0.598389	0.035298	32.3041	-0.597900	-7.789942E+7	-4.531180E-10	NaN
309	1.000000	1.106948	7.36809e+06	-54089.1	955.818	-29744.1	0.000000	0.000000	7.107183	-0.023591	NaN	0.000000	0.001633	0.001615	28.0773	0.097487	0.002061	47.3107	35.066	-165.012	-0.071767	1.105653	-0.585080	-0.586375	-0.023591	47.3107	-0.584706	-5.124672E+7	4.603346E-10	NaN
309	1.000000	1.118944	7.36809e+06	-54089.1	955.818	-29744.1	0.000000	0.000000	7.119179	-0.039235	NaN	0.000000	0.001623	0.001593	28.0772	0.037194	0.001923	19.3397	-60.6343	-164.851	-0.014118	1.117636	-0.573084	-0.574392	-0.039235	19.3397	-0.571563	-3.374595E+7	1.162668E-9	NaN
309	1.000000	1.130976	7.36809e+06	-54089.1	955.818	-29744.1	0.000000	0.000000	7.131212	-0.017377	NaN	0.000000	0.001609	0.001613	28.0772	0.019939	0.001923	10.3677	61.2665	-167.554	-0.086867	1.129655	-0.561052	-0.562374	-0.017377	10.3677	-0.559795	-2.320298E+7	7.489242E-10	NaN
309	1.000000	1.142940	7.36809e+06	-54089.1	955.818	-29744.1	0.000000	0.000000	7.143175	-0.042798	NaN	0.000000	0.001667	0.001636	28.0774	0.116534	0.002010	57.9828	167.733	-166.583	-0.091390	1.141661	-0.549088	-0.550368	-0.042798	57.9828	-0.548534	-1.620522E+7	2.640979E-9	NaN
309	1.000000	1.154969	7.36809e+06	-54089.1	955.817	-29744.1	0.000000	0.000000	7.155202	-0.077277	NaN	0.000000	0.001666	0.001611	28.0773	0.069208	0.001926	35.9307	-16.3118	-164.834	-0.017973	1.153628	-0.537059	-0.538400	-0.077277	35.9307	-0.535446	-1.067044E+7	7.242121E-9	NaN
309	1.000000	1.166972	7.36809e+06	-54089.1	955.817	-29744.1	0.000000	0.000000	7.167208	-0.010900	NaN	0.000000	0.001638	0.001606	28.0774	0.009656	0.001995	4.840885	81.7656	-164.89	0.021574	1.165691	-0.525057	-0.526337	-0.010900	4.840885	-0.523368	-7.25145e+06	1.503099E-9	NaN
309	1.000000	1.179000	7.36809e+06	-54089.1	955.818	-29744.1	0.000000	0.000000	7.179236	-0.012275	NaN	0.000000	0.001633	0.001615	28.0772	0.086930	0.002028	42.863	145.856	-164.045	-0.076465	1.177673	-0.513028	-0.514355	-0.012275	42.863	-0.512813	-5.17118e+06	2.373711E-9	NaN
309	1.000000	1.190979	7.36809e+06	-54089.1	955.817	-29744.1	0.000000	0.000000	7.191215	-0.004267	NaN	0.000000	0.001633	0.001612	28.0793	0.102864	0.001942	52.9699	-67.8899	-167.329	0.038544	1.189654	-0.501049	-0.502374	-0.004267	52.9699	-0.500989	-3.53845e+06	1.205981E-9	NaN
309	1.000000	1.202978	7.36809e+06	-54089.1	955.817	-29744.1	0.000000	0.000000	7.203211	-0.090071	NaN	0.000000	0.001677	0.001647	28.0785	0.124798	0.001994	62.5761	-175.802	-166.073	-0.094504	1.201692	-0.489050	-0.490336	-0.090071	62.5761	-0.487970	-2.32822e+06	3.868659E-8	NaN
309	1.000000	1.214987	7.36809e+06	-54089.1	955.818	-29744.1	0.000000	0.000000	7.215223	0.001137	NaN	0.000000	0.001698	0.001616	28.0785	0.155451	0.002050	75.8329	-72.4873	-162.085	-0.005367	1.213700	-0.477042	-0.478328	0.001137	75.8329	-0.477053	-1.63779e+06	-6.940802E-10	NaN
309	1.000000	1.226992	7.36809e+06	-54089.1	955.816	-29744.1	0.000000	0.000000	7.227226	-0.064762	NaN	0.000000	0.001607	0.001631	28.0788	0.063334	0.002037	31.0947	104.518	-162.868	-0.027274	1.225729	-0.465036	-0.466299	-0.064762	31.0947	-0.463474	-1.05638e+06	6.130602E-8	NaN
309	1.000000	1.239023	7.36809e+06	-54089.1	955.817	-29744.1	0.000000	0.000000	7.239261	0.027518	NaN	0.000000	0.001611	0.001608	28.0785	0.055009	0.002066	26.6263	66.623	-160.447	0.017859	1.237679	-0.453005	-0.454349	0.027518	26.6263	-0.453780	-771893	-3.565007E-8	NaN
309	1.000000	1.251028	7.36809e+06	-54089.1	955.817	-29744.1	0.000000	0.000000	7.251263	-0.039847	NaN	0.000000	0.001582	0.001632	28.0788	0.109627	0.001984	55.2622	-87.2105	-164.451	-0.055868	1.249685	-0.441000	-0.442343	-0.039847	55.2622	-0.440459	-501009	7.953414E-8	NaN
309	1.000000	1.263035	7.36809e+06	-54089.1	955.815	-29744.1	0.000000	0.000000	7.263272	0.009179	NaN	0.000000	0.001598	0.001659	28.0788	0.038438	0.001932	19.893	152.976	-164.007	0.029611	1.261715	-0.428993	-0.430313	0.009179	19.893	-0.429339	-348908	-2.630703E-8	NaN
309	1.000000	1.275063	7.36809e+06	-54089.1	955.817	-29744.1	0.000000	0.000000	7.275298	-0.019873	NaN	0.000000	0.001616	0.001659	28.0786	0.044092	0.001896	23.2505	-109.157	-165.948	0.071625	1.273687	-0.416966	-0.418341	-0.019873	23.2505	-0.416324	-228171	8.709546E-8	NaN
309	1.000000	1.287036	7.36809e+06	-54089.1	955.817	-29744.1	0.000000	0.000000	7.287273	0.005054	NaN	0.000000	0.001591	0.001656	28.0787	0.017080	0.001980	8.627843	-33.5917	-164.232	-0.011117	1.285717	-0.404992	-0.406311	0.005054	8.627843	-0.405431	-159731	-3.163820E-8	NaN
309	1.000000	1.299029	7.36809e+06	-54089.1	955.818	-29744.1	0.000000	0.000000	7.299264	-0.034601	NaN	0.000000	0.001590	0.001648	28.0786	0.089977	0.001968	45.7264	47.4764	-165.983	-0.124712	1.297681	-0.392999	-0.394347	-0.034601	45.7264	-0.392431	-104216	3.320090E-7	NaN
309	1.000000	1.311042	7.36809e+06	-54089.1	955.818	-29744.1	0.000000	0.000000	7.311277	-0.045251	NaN	0.000000	0.001583	0.001635	28.0787	0.059041	0.001972	29.9365	153.702	-163.085	0.014790	1.309741	-0.380986	-0.382287	-0.045251	29.9365	-0.379852	-68828.4	6.574476E-7	NaN
309	1.000000	1.323035	7.36809e+06	-54089.1	955.818	-29744.1	0.000000	0.000000	7.323271	-0.006561	NaN	0.000000	0.001600	0.001614	28.0775	0.047692	0.002021	23.5938	-152.85	-163.916	-0.037955	1.321791	-0.368993	-0.370237	-0.006561	23.5938	-0.368785	-47711.3	1.375046E-7	NaN
309	1.000000	1.335051	7.36809e+06	-54089.1	955.817	-29744.1	0.000000	0.000000	7.335287	-0.028087	NaN	0.000000	0.001596	0.001644	28.0773	0.099858	0.001938	51.5393	-165.038	-163.017	0.043104	1.333720	-0.356977	-0.358308	-0.028087	51.5393	-0.356568	-31783.6	8.836836E-7	NaN
309	1.000000	1.347043	7.36809e+06	-54089.1	955.817	-29744.1	0.000000	0.000000	7.347279	0.000914	NaN	0.000000	0.001633	0.001626	28.0776	0.100002	0.002180	45.8799	-91.1173	-163.755	0.026360	1.345768	-0.344986	-0.346260	0.000914	45.8799	-0.345001	-21595.6	-4.231080E-8	NaN
309	1.000000	1.359075	7.36809e+06	-54089.1	955.818	-29744.1	0.000000	0.000000	7.359309	-0.050534	NaN	0.000000	0.001592	0.001635	28.0776	0.032061	0.002077	15.437	-142.796	-165.398	-0.092694	1.357830	-0.332954	-0.334198	-0.050534	15.437	-0.330498	-13266.2	3.809201E-6	NaN
309	1.000000	1.371048	7.36809e+06	-54089.1	955.818	-29744.1	0.000000	0.000000	7.371285	0.004169	NaN	0.000000	0.001613	0.001613	28.0774	0.092157	0.002167	42.527	-140.065	-164.867	-0.018890	1.369789	-0.320980	-0.322240	0.004169	42.527	-0.321054	-9641.42	-4.324013E-7	NaN
309	1.000000	1.383085	7.36809e+06	-54089.1	955.818	-29744.1	0.000000	0.000000	7.383323	0.019748	NaN	0.000000	0.001618	0.001637	28.0774	0.024772	0.001980	12.5105	-120.15	-165.697	-0.034908	1.381727	-0.308943	-0.310301	0.019748	12.5105	-0.310127	-6651.74	-2.968918E-6	NaN
309	1.000000	1.395094	7.36809e+06	-54089.1	955.818	-29744.1	0.000000	0.000000	7.395329	-0.042310	NaN	0.000000	0.001634	0.001642	28.0775	0.021440	0.001907	11.2413	-153.316	-166.118	0.005635	1.393730	-0.296934	-0.298299	-0.042310	11.2413	-0.294111	-3844.29	1.100582E-5	NaN
309	1.000000	1.407086	7.36809e+06	-54089.1	955.818	-29744.1	0.000000	0.000000	7.407322	-0.007583	NaN	0.000000	0.001662	0.001602	28.0771	0.018277	0.001924	9.498041	97.0357	-163.879	0.022230	1.405723	-0.284942	-0.286306	-0.007583	9.498041	-0.284344	-2744.08	2.763351E-6	NaN
309	1.000000	1.419112	7.36809e+06	-54089.1	955.819	-29744.1	0.000000	0.000000	7.419349	0.008037	NaN	0.000000	0.001641	0.001607	28.0775	0.073952	0.002106	35.1222	-90.1513	-166.191	0.049075	1.417815	-0.272916	-0.274213	0.008037	35.1222	-0.273088	-1855.36	-4.331669E-6	NaN
309	1.000000	1.431062	7.36809e+06	-54089.1	955.818	-29744.1	0.000000	0.000000	7.431296	-0.077497	NaN	0.000000	0.001646	0.001636	28.0775	0.052488	0.002059	25.4939	-133.398	-165.795	-0.011728	1.429793	-0.260966	-0.262235	-0.077497	25.4939	-0.258686	-1118.83	6.926641E-5	NaN
309	1.000000	1.443081	7.36809e+06	-54089.1	955.818	-29744.1	0.000000	0.000000	7.443314	-0.094121	NaN	0.000000	0.001608	0.001630	28.0777	0.071326	0.001999	35.6896	-156.186	-165.904	-0.026555	1.441798	-0.248947	-0.250230	-0.094121	35.6896	-0.246969	-737.94	0.000128	NaN
309	1.000000	1.455115	7.36809e+06	-54089.1	955.818	-29744.1	0.000000	0.000000	7.455351	-0.007065	NaN	0.000000	0.001624	0.001593	28.0777	0.018946	0.001964	9.648190	-116.095	-166.676	-0.008309	1.453757	-0.236914	-0.238272	-0.007065	9.648190	-0.236364	-504.262	1.401107E-5	NaN
309	1.000000	1.467098	7.36809e+06	-54089.1	955.82	-29744.1	0.000000	0.000000	7.467336	0.031020	NaN	0.000000	0.001602	0.001617	28.0788	0.076276	0.002107	36.1954	146.895	-166.502	-0.052771	1.465797	-0.224930	-0.226231	0.031020	36.1954	-0.225572	-340.741	-9.103740E-5	NaN
309	1.000000	1.479130	7.36809e+06	-54089.1	955.819	-29744.1	0.000000	0.000000	7.479366	0.008724	NaN	0.000000	0.001605	0.001625	28.0787	0.038876	0.001882	20.6521	-140.515	-164.541	0.075587	1.477828	-0.212899	-0.214200	0.008724	20.6521	-0.213215	-216.161	-4.035806E-5	NaN
309	1.000000	1.491098	7.36809e+06	-54089.1	955.819	-29744.1	0.000000	0.000000	7.491335	-0.000575	NaN	0.000000	0.001644	0.001632	28.0784	0.075474	0.001986	37.995	140.985	-163.171	0.005519	1.489772	-0.200930	-0.202256	-0.000575	37.995	-0.200919	-136.392	4.218002E-6	NaN
309	1.000000	1.503094	7.36809e+06	-54089.1	955.818	-29744.1	0.000000	0.000000	7.503330	-0.017997	NaN	0.000000	0.001680	0.001627	28.0788	0.059549	0.001918	31.053	159.064	-163.242	-0.021031	1.501791	-0.188934	-0.190238	-0.017997	31.053	-0.188500	-84.905	0.000212	NaN
309	1.000000	1.515138	7.36809e+06	-54089.1	955.819	-29744.1	0.000000	0.000000	7.515374	-0.021130	NaN	0.000000	0.001642	0.001601	28.0788	0.123823	0.002057	60.2034	84.3333	-164.791	0.035533	1.513823	-0.176890	-0.178205	-0.021130	60.2034	-0.176627	-53.4434	0.000395	NaN
309	1.000000	1.527149	7.36809e+06	-54089.1	955.818	-29744.1	0.000000	0.000000	7.527385	-0.030779	NaN	0.000000	0.001666	0.001589	28.0788	0.092271	0.002107	43.7844	156.561	-165.177	-0.027565	1.525815	-0.164879	-0.166213	-0.030779	43.7844	-0.164352	-32.7275	0.000940	NaN
309	1.000000	1.539133	7.36809e+06	-54089.1	955.818	-29744.1	0.000000	0.000000	7.539369	-0.012836	NaN	0.000000	0.001659	0.001569	28.0793	0.044806	0.001966	22.7893	-71.2723	-166.903	0.008098	1.537805	-0.152895	-0.154223	-0.012836	22.7893	-0.152472	-20.0884	0.000639	NaN
309	1.000000	1.551130	7.36809e+06	-54089.1	955.819	-29744.1	0.000000	0.000000	7.551367	0.010679	NaN	0.000000	0.001663	0.001595	28.0786	0.038841	0.002000	19.4161	106.195	-164.749	0.024491	1.549850	-0.140898	-0.142178	0.010679	19.4161	-0.141311	-12.5182	-0.000853	NaN
309	1.000000	1.563136	7.36809e+06	-54089.1	955.819	-29744.1	0.000000	0.000000	7.563373	0.003284	NaN	0.000000	0.001642	0.001559	28.0787	0.063194	0.001890	33.4349	95.1974	-161.138	0.022778	1.561822	-0.128892	-0.130206	0.003284	33.4349	-0.128966	-7.275966	-0.000451	NaN
309	1.000000	1.575171	7.36809e+06	-54089.1	955.819	-29744.1	0.000000	0.000000	7.575409	0.024867	NaN	0.000000	0.001640	0.001549	28.0788	0.085986	0.001923	44.7167	-115.047	-164.284	0.052682	1.573880	-0.116857	-0.118148	0.024867	44.7167	-0.117274	-4.253509	-0.005846	NaN
309	1.000000	1.587185	7.36809e+06	-54089.1	955.819	-29744.1	0.000000	0.000000	7.587418	-0.090470	NaN	0.000000	0.001612	0.001638	28.0787	0.068933	0.002054	33.5539	111.531	-163.221	-0.027250	1.585879	-0.104843	-0.106150	-0.090470	33.5539	-0.102821	-2.107825	0.042921	NaN
309	1.000000	1.599178	7.36809e+06	-54089.1	955.82	-29744.1	0.000000	0.000000	7.599412	-0.051903	NaN	0.000000	0.001620	0.001604	28.0778	0.077264	0.002095	36.8801	161.955	-163.117	-0.096023	1.597855	-0.092851	-0.094173	-0.051903	36.8801	-0.091795	-1.190445	0.043599	NaN
309	1.000000	1.611179	7.36809e+06	-54089.1	955.819	-29744.1	0.000000	0.000000	7.611415	-0.012671	NaN	0.000000	0.001622	0.001621	28.0779	0.094825	0.001982	47.8492	-55.5315	-165.967	-0.012403	1.609865	-0.080849	-0.082163	-0.012671	47.8492	-0.080651	-0.642570	0.019719	NaN
309	1.000000	1.623171	7.36809e+06	-54089.1	955.819	-29744.1	0.000000	0.000000	7.623411	0.073520	NaN	0.000000	0.001605	0.001638	28.0777	0.085767	0.002023	42.3937	-104.62	-165.166	0.042553	1.621919	-0.068857	-0.070109	0.073520	42.3937	-0.070157	-0.344433	-0.213452	NaN
309	1.000000	1.635193	7.36809e+06	-54089.1	955.819	-29744.1	0.000000	0.000000	7.635430	0.004057	NaN	0.000000	0.001667	0.001650	28.0778	0.112030	0.001950	57.4458	129.647	-163.845	0.062787	1.633849	-0.056835	-0.058179	0.004057	57.4458	-0.056888	-0.146334	-0.027722	NaN
309	1.000000	1.647204	7.36809e+06	-54089.1	955.819	-29744.1	0.000000	0.000000	7.647440	-0.008741	NaN	0.000000	0.001690	0.001607	28.0775	0.089844	0.002053	43.7697	127.346	-168.462	0.008142	1.645863	-0.044824	-0.046166	-0.008741	43.7697	-0.044674	-0.062811	0.139159	NaN
309	1.000000	1.659200	7.36809e+06	-54089.1	955.82	-29744.1	0.000000	0.000000	7.659436	-0.016118	NaN	0.000000	0.001656	0.001641	28.0775	0.060383	0.002030	29.7505	-5.899839	-164.594	0.070001	1.657923	-0.032828	-0.034106	-0.016118	29.7505	-0.032422	-0.026946	0.598181	NaN
309	1.000000	1.671213	7.36809e+06	-54089.1	955.82	-29744.1	0.000000	0.000000	7.671448	-0.045371	NaN	0.000000	0.001694	0.001633	28.0776	0.050330	0.001922	26.1817	-162.11	-165.147	-0.060233	1.669921	-0.020815	-0.022107	-0.045371	26.1817	-0.019516	-0.012209	3.716101	NaN
309	1.000000	1.683221	7.36809e+06	-54089.1	955.82	-29744.1	0.000000	0.000000	7.683458	-0.010202	NaN	0.000000	0.001633	0.001652	28.0774	0.024356	0.002246	10.8454	31.1157	-164.05	-0.010876	1.681904	-0.008807	-0.010124	-0.010202	10.8454	-0.008101	-0.005291	1.928183	NaN
309	1.000000	1.695162	7.36809e+06	-54089.1	955.82	-29744.1	0.000000	0.000000	7.695505	2.582625	NaN	0.000000	0.001616	0.001636	28.0774	3.431300	0.001773	1935.74	4.093197	-163.773	1.361710	1.693859	0.003134	0.001831	2.582625	1935.74	0.002134	0.001663	1552.83	43366.3
309	2.000000	1.701934	7.36809e+06	-54089.1	955.819	-29744.1	0.000000	0.000000	7.702611	10.6983	NaN	0.000000	0.001621	0.001689	28.0773	10.3154	0.001711	6029.45	6.731945	-171.62	10.423	1.701535	0.009906	0.009507	10.6983	6029.45	0.008576	0.007641	1400.12	63019.6
309	2.000000	1.704831	7.36809e+06	-54089.1	955.819	-29744.1	0.000000	0.000000	7.705690	15.1495	NaN	0.000000	0.001651	0.001625	28.0776	13.1903	0.001700	7759.33	7.618279	-175.177	14.0539	1.704561	0.012802	0.012533	15.1495	7759.33	0.011338	0.010707	1414.93	68511.8
309	2.000000	1.707845	7.36809e+06	-54089.1	955.821	-29744.1	0.000000	0.000000	7.708840	18.4452	NaN	0.000000	0.001627	0.001649	28.0786	15.7801	0.001591	9921.11	5.874840	-174.403	18.9918	1.707541	0.015817	0.015513	18.4452	9921.11	0.014422	0.014523	1270.11	75216.3
309	2.000000	1.710835	7.36809e+06	-54089.1	955.819	-29744.1	0.000000	0.000000	7.712026	23.2035	NaN	0.000000	0.001658	0.001609	28.0788	18.6368	0.001817	10256.6	3.308492	-172.457	22.9682	1.710522	0.018807	0.018493	23.2035	10256.6	0.017111	0.018204	1274.67	69454.1
309	2.000000	1.713845	7.36809e+06	-54089.1	955.819	-29744.1	0.000000	0.000000	7.715296	29.5222	NaN	0.000000	0.001622	0.001647	28.0786	22.5231	0.001834	12281.1	11.2097	178.084	30.1821	1.713511	0.021817	0.021483	29.5222	12281.1	0.020014	0.022564	1308.36	74696.3
309	2.000000	1.716812	7.36809e+06	-54089.1	955.819	-29744.1	0.000000	0.000000	7.718508	35.4729	NaN	0.000000	0.001606	0.001650	28.0793	25.1522	0.001753	14345.8	7.745515	-179.675	36.4609	1.716529	0.024784	0.024501	35.4729	14345.8	0.022929	0.027356	1296.73	79245.6
309	2.000000	1.719765	7.36809e+06	-54089.1	955.82	-29744.1	0.000000	0.000000	7.721806	43.8711	NaN	0.000000	0.001652	0.001664	28.0786	27.9677	0.001787	15647.7	4.134200	-177.378	42.0829	1.719445	0.027736	0.027417	43.8711	15647.7	0.025634	0.032179	1363.36	79696.9
309	2.000000	1.722758	7.36809e+06	-54089.1	955.82	-29744.1	0.000000	0.000000	7.724979	48.2457	NaN	0.000000	0.001624	0.001683	28.0788	30.6017	0.001801	16991.4	2.894805	-176.714	47.2088	1.722514	0.030730	0.030485	48.2457	16991.4	0.028600	0.037893	1273.22	79748.9
309	2.000000	1.725776	7.36809e+06	-54089.1	955.82	-29744.1	0.000000	0.000000	7.728324	56.1926	NaN	0.000000	0.001585	0.001653	28.0789	33.594	0.001765	19035.5	6.235861	177.96	55.6046	1.725470	0.033748	0.033442	56.1926	19035.5	0.031534	0.043984	1277.57	82925.9
309	2.000000	1.728765	7.36809e+06	-54089.1	955.82	-29744.1	0.000000	0.000000	7.731740	66.5907	NaN	0.000000	0.001626	0.001676	28.0788	36.6704	0.001838	19951.5	3.414449	-178.828	65.1959	1.728462	0.036736	0.036434	66.5907	19951.5	0.034233	0.049976	1332.47	81539.7
309	2.000000	1.731802	7.36809e+06	-54089.1	955.821	-29744.1	0.000000	0.000000	7.735246	77.9635	NaN	0.000000	0.001614	0.001664	28.0787	39.3407	0.001815	21672.3	5.666547	179.413	76.602	1.731409	0.039774	0.039380	77.9635	21672.3	0.037076	0.056691	1375.24	83161.6
309	2.000000	1.734742	7.36809e+06	-54089.1	955.82	-29744.1	0.000000	0.000000	7.738747	91.617	NaN	0.000000	0.001609	0.001661	28.0784	40.7141	0.001743	23353.5	1.961566	-178.64	88.0448	1.734416	0.042714	0.042388	91.617	23353.5	0.039772	0.063439	1444.17	84712.1
309	2.000000	1.737745	7.36809e+06	-54089.1	955.82	-29744.1	0.000000	0.000000	7.742075	99.5001	NaN	0.000000	0.001638	0.001625	28.0788	44.4278	0.001845	24075.8	5.079409	177.531	98.42	1.737428	0.045717	0.045400	99.5001	24075.8	0.042618	0.070968	1402.04	82570
309	2.000000	1.740753	7.3681e+06	-54089.1	955.82	-29744.1	0.000000	0.000000	7.745578	111.542	NaN	0.000000	0.001612	0.001654	28.0783	46.5647	0.001792	25991.9	3.270870	179.351	112.327	1.740470	0.048725	0.048441	111.542	25991.9	0.045506	0.079031	1411.36	84471.7
309	2.000000	1.743741	7.3681e+06	-54089.1	955.82	-29744.1	0.000000	0.000000	7.749093	124.375	NaN	0.000000	0.001626	0.001671	28.0772	49.0969	0.001797	27315.9	3.787826	178.459	123.082	1.743412	0.051713	0.051384	124.375	27315.9	0.048298	0.087224	1425.93	84502.9
309	2.000000	1.746651	7.3681e+06	-54089.1	955.82	-29744.1	0.000000	0.000000	7.752488	136.151	NaN	0.000000	0.001607	0.001624	28.0773	52.6596	0.001925	27360.2	3.541743	178.892	131.484	1.746370	0.054623	0.054342	136.151	27360.2	0.050890	0.095185	1430.37	81022.7
309	2.000000	1.749737	7.3681e+06	-54089.1	955.82	-29744.1	0.000000	0.000000	7.756063	148.055	NaN	0.000000	0.001622	0.001669	28.0773	53.9725	0.001716	31447.2	2.605418	177.808	146.19	1.749487	0.057709	0.057459	148.055	31447.2	0.054178	0.105762	1399.9	88346.9
309	2.000000	1.752661	7.3681e+06	-54089.1	955.82	-29744.1	0.000000	0.000000	7.759809	168.016	NaN	0.000000	0.001603	0.001627	28.0779	57.2594	0.001730	33094.6	2.517731	177.856	164.195	1.752417	0.060633	0.060389	168.016	33094.6	0.056826	0.114672	1465.19	89289.7
309	2.000000	1.755715	7.3681e+06	-54089.1	955.82	-29744.1	0.000000	0.000000	7.763337	179.552	NaN	0.000000	0.001624	0.001636	28.0772	59.4945	0.001789	33264.2	2.605560	177.678	177.215	1.755410	0.063686	0.063382	179.552	33264.2	0.059638	0.124514	1442.03	86127.4
309	2.000000	1.758772	7.3681e+06	-54089.1	955.82	-29744.1	0.000000	0.000000	7.766893	191.684	NaN	0.000000	0.001620	0.001658	28.0771	62.5688	0.001763	35499.4	3.191966	176.952	193.948	1.758413	0.066743	0.066385	191.684	35499.4	0.062694	0.135644	1413.14	88063
309	2.000000	1.761757	7.3681e+06	-54089.1	955.82	-29744.1	0.000000	0.000000	7.770849	215.264	NaN	0.000000	0.001633	0.001601	28.0769	64.9249	0.001877	34589.3	3.337485	178.033	214.889	1.761375	0.069729	0.069347	215.264	34589.3	0.065062	0.144582	1488.87	83111
309	2.000000	1.764713	7.3681e+06	-54089.1	955.82	-29744.1	0.000000	0.000000	7.774371	229.039	NaN	0.000000	0.001636	0.001629	28.0771	68.0846	0.001789	38058.2	6.479690	173.614	228.035	1.764327	0.072685	0.072299	229.039	38058.2	0.068171	0.156729	1461.37	87830.8
309	2.000000	1.767783	7.3681e+06	-54089.1	955.821	-29744.1	0.000000	0.000000	7.777966	241.789	NaN	0.000000	0.001712	0.001730	28.0774	71.582	0.001844	38818	4.118628	175.384	245.164	1.767423	0.075755	0.075395	241.789	38818	0.071084	0.168524	1434.74	86392.3
309	2.000000	1.770757	7.3681e+06	-54089.1	955.821	-29744.1	0.000000	0.000000	7.781627	258.517	NaN	0.000000	0.001649	0.001739	28.0772	74.2202	0.001752	42351.5	5.571938	172.886	261.025	1.770407	0.078728	0.078379	258.517	42351.5	0.074150	0.181380	1425.28	90854.6
309	2.000000	1.773865	7.3681e+06	-54089.1	955.819	-29744.1	0.000000	0.000000	7.785076	266.801	NaN	0.000000	0.001682	0.001773	28.0772	77.6972	0.001643	47296.4	4.535375	173.407	276.951	1.773402	0.081836	0.081373	266.801	47296.4	0.077606	0.196396	1358.49	97506.9
309	2.000000	1.776671	7.3681e+06	-54089.1	955.819	-29744.1	0.000000	0.000000	7.789235	299.694	NaN	0.000000	0.001690	0.001704	28.0794	81.1968	0.001927	42129	4.591997	174.143	296.625	1.776338	0.084643	0.084310	299.694	42129	0.079308	0.203998	1469.1	85219.8
309	2.000000	1.779678	7.3681e+06	-54089.1	955.82	-29744.1	0.000000	0.000000	7.793010	318.348	NaN	0.000000	0.001707	0.001712	28.0786	83.7394	0.001826	45850.2	3.536184	174.505	315.985	1.779377	0.087650	0.087349	318.348	45850.2	0.082443	0.218355	1457.94	89646.4
309	2.000000	1.782649	7.3681e+06	-54089.1	955.819	-29744.1	0.000000	0.000000	7.796715	336.226	NaN	0.000000	0.001717	0.001714	28.0786	87.1579	0.001840	47360.5	7.308194	170.851	332.4	1.782344	0.090621	0.090316	336.226	47360.5	0.085296	0.231816	1450.4	89870.5
309	2.000000	1.785699	7.3681e+06	-54089.1	955.82	-29744.1	0.000000	0.000000	7.800549	355.272	NaN	0.000000	0.001673	0.001725	28.0786	89.877	0.001929	46601.2	4.503596	173.488	353.789	1.785404	0.093671	0.093376	355.272	46601.2	0.087953	0.244691	1451.92	86071.8
309	2.000000	1.788696	7.3681e+06	-54089.1	955.82	-29744.1	0.000000	0.000000	7.804364	375.139	NaN	0.000000	0.001732	0.001716	28.0784	92.0697	0.001885	48835.1	3.109573	174.555	375.745	1.788428	0.096668	0.096400	375.139	48835.1	0.090907	0.259383	1446.27	87606
309	2.000000	1.791733	7.3681e+06	-54089.1	955.82	-29744.1	0.000000	0.000000	7.808511	402.132	NaN	0.000000	0.001672	0.001722	28.0788	94.9118	0.001795	52890.1	8.466108	169.424	401.257	1.791289	0.099705	0.099261	402.132	52890.1	0.094003	0.275212	1461.17	92111.5
309	2.000000	1.794642	7.3681e+06	-54089.1	955.82	-29744.1	0.000000	0.000000	7.812359	424.972	NaN	0.000000	0.001715	0.001713	28.0784	95.9238	0.001838	52195.5	3.248118	173.921	420.966	1.794370	0.102614	0.102342	424.972	52195.5	0.096508	0.288339	1473.86	88808.4
309	2.000000	1.797661	7.3681e+06	-54089.1	955.82	-29744.1	0.000000	0.000000	7.816155	443.869	NaN	0.000000	0.001702	0.001729	28.0787	98.706	0.001830	53945.6	0.631252	176.227	441.202	1.797420	0.105633	0.105392	443.869	53945.6	0.099462	0.304189	1459.19	89362.9
309	2.000000	1.798645	7.3681e+06	-54089.1	955.819	-29744.1	0.000000	0.000000	7.817728	458.177	NaN	0.000000	0.001690	0.001699	28.0787	99.7972	0.001794	55631.8	1.418616	175.536	455.448	1.798349	0.106617	0.106321	458.177	55631.8	0.100440	0.309523	1480.27	91358.7