File: remote_trans/data/nanoindenter/0828-1/data/Data_2025-08-06,11h17m57s/2025-07-22_16-23-58_1_726.txt
2025-07-22, 16:23:58, 1
Index	Phase	Displacement	Time	Pos X	Pos Y	Pos Z	Rot A	Rot B	Piezo Z	Force A	Force B	Gripper	Voltage A	Voltage B	Temperature	Amplitude force	Amplitude pos	Stiffness	Phase shift	Phase excitation	Force A raw	Displacement raw	HMax	HMax raw	Real Force	Real Stiffness	Contact Depth	Area	Hardness	Reduced Mod.
[#]	[#]	[um]	[s]	[um]	[um]	[um]	[m°]	[m°]	[um]	[uN]	[uN]	[V]	[V]	[V]	[°C]	[uN]	[um]	[N/m]	[°]	[°]	[uN]	[um]	[um]	[um]	[uN]	[N/m]	[um]	[um^2]	[MPa]	[MPa]
726	1.000000	0.002442	7.37216e+06	-40789.1	1005.82	-29788.5	0.000000	0.000000	6.002813	0.011041	NaN	0.000000	0.001644	0.001733	28.0834	0.069924	0.001007	69.4454	5.220992	-163.341	0.013370	0.001162	-1.125694	-1.126974	0.011041	69.4454	-1.125813	-1.112920E+15	-9.920648E-18	NaN
726	1.000000	0.012441	7.37216e+06	-40789.1	1005.82	-29788.5	0.000000	0.000000	6.012811	-0.012636	NaN	0.000000	0.001619	0.001747	28.0837	0.099685	0.001126	88.5312	81.1711	15.3548	0.040389	0.011073	-1.115695	-1.117064	-0.012636	88.5312	-1.115588	-8.114784E+14	1.557175E-17	NaN
726	1.000000	0.022378	7.37216e+06	-40789.1	1005.82	-29788.5	0.000000	0.000000	6.022747	-0.046745	NaN	0.000000	0.001670	0.001775	28.0832	0.047638	0.001655	28.7926	-117.576	-164.917	-0.008275	0.021120	-1.105758	-1.107017	-0.046745	28.7926	-1.104541	-5.767863E+14	8.104329E-17	NaN
726	1.000000	0.032407	7.37216e+06	-40789.1	1005.82	-29788.5	0.000000	0.000000	6.032776	-0.037428	NaN	0.000000	0.001652	0.001802	28.0833	0.068769	0.001881	36.5674	93.351	12.9426	-0.058872	0.031040	-1.095730	-1.097096	-0.037428	36.5674	-1.094962	-4.289767E+14	8.724957E-17	NaN
726	1.000000	0.042383	7.37216e+06	-40789.1	1005.82	-29788.5	0.000000	0.000000	6.042751	-0.065028	NaN	0.000000	0.001685	0.001774	28.0839	0.082961	0.001987	41.7439	-45.9656	-165.801	-0.059742	0.041139	-1.085753	-1.086997	-0.065028	41.7439	-1.084585	-3.112376E+14	2.089352E-16	NaN
726	1.000000	0.052364	7.37216e+06	-40789.1	1005.82	-29788.5	0.000000	0.000000	6.052732	-0.059773	NaN	0.000000	0.001662	0.001786	28.0836	0.076003	0.001957	38.837	-112.461	17.0791	-0.028969	0.051020	-1.075772	-1.077116	-0.059773	38.837	-1.074618	-2.286777E+14	2.613871E-16	NaN
726	1.000000	0.062366	7.37216e+06	-40789.1	1005.82	-29788.5	0.000000	0.000000	6.062740	0.074148	NaN	0.000000	0.001643	0.001784	28.0831	0.071885	0.001918	37.4865	134.711	-164.908	0.095779	0.061097	-1.065770	-1.067039	0.074148	37.4865	-1.067253	-1.820902E+14	-4.072071E-16	NaN
726	1.000000	0.072390	7.37216e+06	-40789.1	1005.82	-29788.5	0.000000	0.000000	6.072760	0.001731	NaN	0.000000	0.001647	0.001837	28.0833	0.040221	0.001927	20.8673	22.4691	16.2228	-0.045660	0.071036	-1.055747	-1.057100	0.001731	20.8673	-1.055809	-1.277887E+14	-1.354237E-17	NaN
726	1.000000	0.082414	7.37216e+06	-40789.1	1005.82	-29788.5	0.000000	0.000000	6.082784	-0.011741	NaN	0.000000	0.001627	0.001825	28.0834	0.076450	0.002061	37.0955	79.1043	-162.378	0.004385	0.081117	-1.045722	-1.047019	-0.011741	37.0955	-1.045485	-9.283630E+13	1.264751E-16	NaN
726	1.000000	0.092383	7.37216e+06	-40789.1	1005.82	-29788.5	0.000000	0.000000	6.092752	-0.021865	NaN	0.000000	0.001617	0.001768	28.0843	0.055809	0.001930	28.9158	32.2283	15.1148	-0.044972	0.090994	-1.035753	-1.037143	-0.021865	28.9158	-1.035186	-6.748923E+13	3.239785E-16	NaN
726	1.000000	0.102431	7.37216e+06	-40789.1	1005.82	-29788.5	0.000000	0.000000	6.102799	-0.064466	NaN	0.000000	0.001612	0.001771	28.0843	0.069549	0.001994	34.8803	93.3401	-167.201	-0.007688	0.101082	-1.025705	-1.027054	-0.064466	34.8803	-1.024319	-4.820092E+13	1.337442E-15	NaN
726	1.000000	0.112390	7.37216e+06	-40789.1	1005.82	-29788.5	0.000000	0.000000	6.112760	0.003989	NaN	0.000000	0.001604	0.001767	28.0843	0.046458	0.001952	23.8034	-158.241	13.9941	-0.006408	0.111065	-1.015747	-1.017071	0.003989	23.8034	-1.015872	-3.710314E+13	-1.075096E-16	NaN
726	1.000000	0.122389	7.37216e+06	-40789.1	1005.82	-29788.5	0.000000	0.000000	6.122758	-0.022112	NaN	0.000000	0.001602	0.001763	28.0846	0.077101	0.002124	36.3027	-63.4995	-166.172	-0.047487	0.121143	-1.005748	-1.006994	-0.022112	36.3027	-1.005291	-2.672989E+13	8.272286E-16	NaN
726	1.000000	0.132395	7.37216e+06	-40789.1	1005.82	-29788.5	0.000000	0.000000	6.132765	-0.016938	NaN	0.000000	0.001608	0.001776	28.0845	0.036368	0.001952	18.6266	-128.374	13.2604	0.037477	0.131062	-0.995741	-0.997074	-0.016938	18.6266	-0.995059	-1.946459E+13	8.702014E-16	NaN
726	1.000000	0.142415	7.37216e+06	-40789.1	1005.82	-29788.5	0.000000	0.000000	6.142785	-0.016048	NaN	0.000000	0.001638	0.001755	28.0846	0.082324	0.001890	43.5608	-87.4026	-163.441	-0.045229	0.141115	-0.985721	-0.987022	-0.016048	43.5608	-0.985445	-1.444636E+13	1.110874E-15	NaN
726	1.000000	0.152443	7.37216e+06	-40789.1	1005.82	-29788.5	0.000000	0.000000	6.152813	-0.015620	NaN	0.000000	0.001597	0.001733	28.0847	0.075467	0.002024	37.2804	-57.5126	19.0603	-0.040143	0.151074	-0.975693	-0.977062	-0.015620	37.2804	-0.975379	-1.057171E+13	1.477573E-15	NaN
726	1.000000	0.162434	7.37216e+06	-40789.1	1005.82	-29788.5	0.000000	0.000000	6.162804	0.008029	NaN	0.000000	0.001597	0.001746	28.085	0.049365	0.002018	24.4604	-123.423	-164.871	0.038582	0.161100	-0.965703	-0.967037	0.008029	24.4604	-0.965949	-7.889744E+12	-1.017684E-15	NaN
726	1.000000	0.172431	7.37216e+06	-40789.1	1005.82	-29788.5	0.000000	0.000000	6.172800	-0.035456	NaN	0.000000	0.001595	0.001779	28.0845	0.037864	0.002021	18.7354	134.776	15.9686	-0.143448	0.171026	-0.955705	-0.957111	-0.035456	18.7354	-0.954286	-5.493133E+12	6.454649E-15	NaN
726	1.000000	0.182411	7.37216e+06	-40789.1	1005.82	-29788.5	0.000000	0.000000	6.182781	-0.021415	NaN	0.000000	0.001580	0.001798	28.0849	0.054841	0.002139	25.634	-97.0802	-163.71	0.053148	0.181175	-0.945725	-0.946961	-0.021415	25.634	-0.945098	-4.129659E+12	5.185777E-15	NaN
726	1.000000	0.192472	7.37216e+06	-40789.1	1005.82	-29788.5	0.000000	0.000000	6.192845	0.041557	NaN	0.000000	0.001622	0.001727	28.0849	0.051836	0.001897	27.3192	-121.733	12.2404	0.029123	0.191052	-0.935664	-0.937084	0.041557	27.3192	-0.936805	-3.191721E+12	-1.302014E-14	NaN
726	1.000000	0.202450	7.37216e+06	-40789.1	1005.82	-29788.5	0.000000	0.000000	6.202816	-0.098305	NaN	0.000000	0.001623	0.001736	28.0844	0.029642	0.001948	15.2183	147.274	-165.768	-0.023778	0.201132	-0.925687	-0.927004	-0.098305	15.2183	-0.920842	-1.943447E+12	5.058270E-14	NaN
726	1.000000	0.212447	7.37216e+06	-40789.1	1005.82	-29788.5	0.000000	0.000000	6.212820	0.059017	NaN	0.000000	0.001640	0.001786	28.0845	0.058094	0.001974	29.4242	-75.4893	13.9284	-0.049988	0.211101	-0.915690	-0.917035	0.059017	29.4242	-0.917194	-1.735069E+12	-3.401425E-14	NaN
726	1.000000	0.222429	7.37216e+06	-40789.1	1005.82	-29788.5	0.000000	0.000000	6.222801	0.020657	NaN	0.000000	0.001625	0.001786	28.0841	0.058521	0.002046	28.5981	-166.903	-166.134	0.027526	0.221160	-0.905707	-0.906976	0.020657	28.5981	-0.906249	-1.234501E+12	-1.673306E-14	NaN
726	1.000000	0.232450	7.37216e+06	-40789.1	1005.82	-29788.5	0.000000	0.000000	6.232820	-0.012273	NaN	0.000000	0.001659	0.001826	28.0835	0.083711	0.002069	40.4509	145.131	17.3457	-0.024412	0.231097	-0.895687	-0.897039	-0.012273	40.4509	-0.895459	-8.824732E+11	1.390723E-14	NaN
726	1.000000	0.242463	7.37216e+06	-40789.1	1005.82	-29788.5	0.000000	0.000000	6.242834	0.011027	NaN	0.000000	0.001630	0.001829	28.0831	0.051135	0.002090	24.4629	16.1186	-166.029	0.016129	0.241168	-0.885673	-0.886969	0.011027	24.4629	-0.886011	-6.576493E+11	-1.676753E-14	NaN
726	1.000000	0.252463	7.37216e+06	-40789.1	1005.82	-29788.5	0.000000	0.000000	6.252830	-0.064472	NaN	0.000000	0.001606	0.001815	28.0834	0.042089	0.001946	21.6295	75.7036	12.4444	-0.072103	0.251079	-0.875674	-0.877057	-0.064472	21.6295	-0.873438	-4.445861E+11	1.450168E-13	NaN
726	1.000000	0.262452	7.37216e+06	-40789.1	1005.82	-29788.5	0.000000	0.000000	6.262821	-0.048220	NaN	0.000000	0.001627	0.001748	28.0832	0.095562	0.001943	49.1736	-117.068	-163.496	0.001101	0.261175	-0.865684	-0.866962	-0.048220	49.1736	-0.864949	-3.412671E+11	1.412964E-13	NaN
726	1.000000	0.272444	7.37216e+06	-40789.1	1005.82	-29788.5	0.000000	0.000000	6.272815	0.018541	NaN	0.000000	0.001656	0.001740	28.0835	0.051083	0.001933	26.4284	113.638	13.2776	0.057746	0.271070	-0.855692	-0.857067	0.018541	26.4284	-0.856219	-2.599766E+11	-7.131868E-14	NaN
726	1.000000	0.282488	7.37216e+06	-40789.1	1005.82	-29788.5	0.000000	0.000000	6.282859	0.016970	NaN	0.000000	0.001600	0.001764	28.0833	0.020836	0.001960	10.6304	133.675	-164.415	0.037495	0.281175	-0.845648	-0.846961	0.016970	10.6304	-0.846846	-1.940978E+11	-8.743126E-14	NaN
726	1.000000	0.292494	7.37216e+06	-40789.1	1005.82	-29788.5	0.000000	0.000000	6.292862	-0.062021	NaN	0.000000	0.001628	0.001688	28.0833	0.035362	0.001946	18.169	96.1543	18.2555	-0.056631	0.291134	-0.835642	-0.837002	-0.062021	18.169	-0.833082	-1.263445E+11	4.908900E-13	NaN
726	1.000000	0.302489	7.37216e+06	-40789.1	1005.82	-29788.6	0.000000	0.000000	6.302856	-0.082719	NaN	0.000000	0.001658	0.001725	28.0833	0.092648	0.002056	45.0522	132.253	-162.558	-0.090478	0.301189	-0.825647	-0.826947	-0.082719	45.0522	-0.824270	-9.596368E+10	8.619861E-13	NaN
726	1.000000	0.312486	7.37216e+06	-40789.1	1005.82	-29788.6	0.000000	0.000000	6.312857	0.009837	NaN	0.000000	0.001632	0.001696	28.0831	0.055318	0.002062	26.8269	-15.764	16.8615	-0.026378	0.311160	-0.815650	-0.816977	0.009837	26.8269	-0.815925	-7.395121E+10	-1.330210E-13	NaN
726	1.000000	0.322487	7.37216e+06	-40789.1	1005.82	-29788.6	0.000000	0.000000	6.322854	-0.100121	NaN	0.000000	0.001653	0.001711	28.083	0.063386	0.002037	31.1111	-115.803	-164.645	-0.034224	0.321178	-0.805649	-0.806958	-0.100121	31.1111	-0.803235	-4.974790E+10	2.012577E-12	NaN
726	1.000000	0.332473	7.37216e+06	-40789.1	1005.82	-29788.6	0.000000	0.000000	6.332841	-0.043322	NaN	0.000000	0.001616	0.001745	28.083	0.073489	0.001986	36.9988	139.652	15.8139	-0.108732	0.331165	-0.795664	-0.796972	-0.043322	36.9988	-0.794785	-3.820034E+10	1.134079E-12	NaN
726	1.000000	0.342538	7.37216e+06	-40789.1	1005.82	-29788.6	0.000000	0.000000	6.342907	-0.033668	NaN	0.000000	0.001646	0.001752	28.0831	0.013429	0.002023	6.637879	-23.5838	-161.214	-0.015348	0.341156	-0.785598	-0.786981	-0.033668	6.637879	-0.781794	-2.544526E+10	1.323140E-12	NaN
726	1.000000	0.352506	7.37216e+06	-40789.1	1005.82	-29788.6	0.000000	0.000000	6.352876	-0.022042	NaN	0.000000	0.001641	0.001763	28.0829	0.091316	0.001898	48.1048	8.147988	19.6846	-0.060172	0.351131	-0.775630	-0.777006	-0.022042	48.1048	-0.775287	-2.075741E+10	1.061895E-12	NaN
726	1.000000	0.362513	7.37216e+06	-40789.1	1005.82	-29788.6	0.000000	0.000000	6.362880	-0.077458	NaN	0.000000	0.001601	0.001726	28.0842	0.021307	0.001969	10.8208	-54.6774	-166.358	-0.113071	0.361171	-0.765623	-0.766965	-0.077458	10.8208	-0.760254	-1.296476E+10	5.974491E-12	NaN
726	1.000000	0.372507	7.37216e+06	-40789.1	1005.82	-29788.6	0.000000	0.000000	6.372878	-0.005376	NaN	0.000000	0.001639	0.001745	28.0842	0.022698	0.001959	11.5881	-45.6721	14.1913	-0.099604	0.371133	-0.755629	-0.757003	-0.005376	11.5881	-0.755281	-1.109416E+10	4.845514E-13	NaN
726	1.000000	0.382525	7.37216e+06	-40789.1	1005.82	-29788.6	0.000000	0.000000	6.382893	-0.068729	NaN	0.000000	0.001634	0.001775	28.0844	0.113530	0.001796	63.2292	147.142	-166.423	-0.069575	0.381169	-0.745611	-0.746967	-0.068729	63.2292	-0.744796	-7.986675E+9	8.605504E-12	NaN
726	1.000000	0.392544	7.37216e+06	-40789.1	1005.82	-29788.6	0.000000	0.000000	6.392914	-0.017804	NaN	0.000000	0.001628	0.001782	28.0843	0.047191	0.002086	22.6195	-23.4745	16.2291	0.111463	0.391147	-0.735592	-0.736990	-0.017804	22.6195	-0.735002	-5.874481E+9	3.030677E-12	NaN
726	1.000000	0.402553	7.37216e+06	-40789.1	1005.82	-29788.6	0.000000	0.000000	6.402923	-0.013167	NaN	0.000000	0.001617	0.001777	28.0843	0.068475	0.001973	34.6978	17.2922	-164.494	0.003122	0.401285	-0.725583	-0.726851	-0.013167	34.6978	-0.725299	-4.332361E+9	3.039119E-12	NaN
726	1.000000	0.412507	7.37216e+06	-40789.1	1005.82	-29788.6	0.000000	0.000000	6.412877	-0.013807	NaN	0.000000	0.001648	0.001768	28.0853	0.039001	0.002075	18.7965	-101.392	9.936885	-0.039559	0.411189	-0.715629	-0.716948	-0.013807	18.7965	-0.715078	-3.142979E+9	4.392892E-12	NaN
726	1.000000	0.422551	7.37216e+06	-40789.1	1005.82	-29788.6	0.000000	0.000000	6.422922	0.009961	NaN	0.000000	0.001612	0.001767	28.0845	0.085591	0.002012	42.5454	-2.942140	-164.198	0.084353	0.421186	-0.705585	-0.706950	0.009961	42.5454	-0.705760	-2.345208E+9	-4.247526E-12	NaN
726	1.000000	0.432538	7.37216e+06	-40789.1	1005.82	-29788.6	0.000000	0.000000	6.432908	-0.023273	NaN	0.000000	0.001603	0.001787	28.0844	0.057191	0.001905	30.017	15.9999	12.8433	0.052647	0.431217	-0.695598	-0.696920	-0.023273	30.017	-0.695016	-1.672869E+9	1.391208E-11	NaN
726	1.000000	0.442557	7.37216e+06	-40789.1	1005.82	-29788.6	0.000000	0.000000	6.442929	0.039020	NaN	0.000000	0.001666	0.001773	28.0844	0.167273	0.002026	82.5699	-3.877375	-165.777	-0.013242	0.441223	-0.685579	-0.686913	0.039020	82.5699	-0.685934	-1.257018E+9	-3.104136E-11	NaN
726	1.000000	0.452548	7.37216e+06	-40789.1	1005.82	-29788.6	0.000000	0.000000	6.452914	-0.111473	NaN	0.000000	0.001646	0.001778	28.0846	0.077205	0.002003	38.5504	-142.672	15.4212	-0.129627	0.451179	-0.675588	-0.676957	-0.111473	38.5504	-0.673419	-8.475869E+8	1.315176E-10	NaN
726	1.000000	0.462566	7.37216e+06	-40789.1	1005.82	-29788.6	0.000000	0.000000	6.462934	-0.056994	NaN	0.000000	0.001634	0.001824	28.0843	0.033831	0.002065	16.3848	-166.516	-166.031	-0.006783	0.461224	-0.665570	-0.666913	-0.056994	16.3848	-0.662962	-6.095791E+8	9.349731E-11	NaN
726	1.000000	0.472589	7.37216e+06	-40789.1	1005.82	-29788.6	0.000000	0.000000	6.472957	-0.049695	NaN	0.000000	0.001644	0.001798	28.0845	0.089285	0.001979	45.1217	-65.4676	13.4998	-0.045539	0.471173	-0.655547	-0.656963	-0.049695	45.1217	-0.654721	-4.700563E+8	1.057208E-10	NaN
726	1.000000	0.482532	7.37216e+06	-40789.1	1005.82	-29788.6	0.000000	0.000000	6.482903	0.025118	NaN	0.000000	0.001633	0.001775	28.0844	0.047474	0.001955	24.2849	122.888	-166.08	-0.022734	0.481245	-0.645604	-0.646892	0.025118	24.2849	-0.646380	-3.612483E+8	-6.953052E-11	NaN
726	1.000000	0.492548	7.37216e+06	-40789.1	1005.82	-29788.6	0.000000	0.000000	6.492920	0.026198	NaN	0.000000	0.001637	0.001748	28.084	0.032765	0.001997	16.4078	168.745	17.3831	-0.016405	0.491139	-0.635588	-0.636997	0.026198	16.4078	-0.636786	-2.667959E+8	-9.819314E-11	NaN
726	1.000000	0.502543	7.37216e+06	-40789.1	1005.82	-29788.6	0.000000	0.000000	6.502912	-0.033379	NaN	0.000000	0.001679	0.001729	28.0832	0.114425	0.001990	57.5127	101.845	-162.472	-0.031730	0.501269	-0.625593	-0.626867	-0.033379	57.5127	-0.625158	-1.847199E+8	1.807010E-10	NaN
726	1.000000	0.512571	7.37216e+06	-40789.1	1005.82	-29788.6	0.000000	0.000000	6.512942	0.005005	NaN	0.000000	0.001733	0.001747	28.0831	0.149709	0.001981	75.5864	162.287	16.5566	0.021087	0.511260	-0.615565	-0.616876	0.005005	75.5864	-0.615615	-1.365672E+8	-3.665147E-11	NaN
726	1.000000	0.522568	7.37216e+06	-40789.1	1005.82	-29788.6	0.000000	0.000000	6.522937	-0.033884	NaN	0.000000	0.001716	0.001735	28.0835	0.070926	0.002135	33.2237	-31.8404	-165.744	-8.629588E-5	0.521242	-0.605569	-0.606894	-0.033884	33.2237	-0.604804	-9.696219E+7	3.494547E-10	NaN
726	1.000000	0.532561	7.37216e+06	-40789.1	1005.82	-29788.6	0.000000	0.000000	6.532931	-0.017212	NaN	0.000000	0.001704	0.001754	28.0833	0.096993	0.002034	47.6829	-112.664	15.9814	-0.050625	0.531208	-0.595575	-0.596929	-0.017212	47.6829	-0.595304	-7.174175E+7	2.399107E-10	NaN
726	1.000000	0.542599	7.37216e+06	-40789.1	1005.82	-29788.6	0.000000	0.000000	6.542969	-0.032105	NaN	0.000000	0.001640	0.001785	28.0835	0.061067	0.002024	30.1755	-125.071	-164.863	-0.029423	0.541326	-0.585537	-0.586810	-0.032105	30.1755	-0.584739	-5.129945E+7	6.258288E-10	NaN
726	1.000000	0.552586	7.37216e+06	-40789.1	1005.82	-29788.6	0.000000	0.000000	6.552957	0.012617	NaN	0.000000	0.001617	0.001751	28.0829	0.159640	0.001903	83.8686	72.111	16.2604	-0.053709	0.551236	-0.575550	-0.576901	0.012617	83.8686	-0.575663	-3.844652E+7	-3.281578E-10	NaN
726	1.000000	0.562592	7.37216e+06	-40789.1	1005.82	-29788.6	0.000000	0.000000	6.562959	-0.071960	NaN	0.000000	0.001618	0.001827	28.0837	0.095544	0.001970	48.511	1.128561	-168.808	-0.028783	0.561332	-0.565544	-0.566804	-0.071960	48.511	-0.564432	-2.689495E+7	2.675587E-9	NaN
726	1.000000	0.572592	7.37216e+06	-40789.1	1005.82	-29788.6	0.000000	0.000000	6.572964	0.036221	NaN	0.000000	0.001633	0.001789	28.0833	0.032503	0.002110	15.4053	-143.898	13.1946	-0.043192	0.571235	-0.555544	-0.556901	0.036221	15.4053	-0.557307	-2.143487E+7	-1.689809E-9	NaN
726	1.000000	0.582597	7.37216e+06	-40789.1	1005.82	-29788.6	0.000000	0.000000	6.582968	0.017681	NaN	0.000000	0.001652	0.001797	28.0832	0.051772	0.001886	27.4472	-134.574	-168.161	-0.062773	0.581292	-0.545539	-0.546844	0.017681	27.4472	-0.546023	-1.495720E+7	-1.182133E-9	NaN
726	1.000000	0.592598	7.37216e+06	-40789.1	1005.82	-29788.6	0.000000	0.000000	6.592966	-0.045515	NaN	0.000000	0.001618	0.001802	28.0831	0.070330	0.001847	38.08	-13.231	15.2182	-0.105880	0.591197	-0.535539	-0.536939	-0.045515	38.08	-0.534642	-1.039980E+7	4.376544E-9	NaN
726	1.000000	0.602617	7.37216e+06	-40789.1	1005.82	-29788.6	0.000000	0.000000	6.602987	-0.018968	NaN	0.000000	0.001688	0.001788	28.0832	0.084163	0.001946	43.2555	-148.668	-165.367	-0.004575	0.601284	-0.525519	-0.526852	-0.018968	43.2555	-0.525190	-7.68692e+06	2.467630E-9	NaN
726	1.000000	0.612615	7.37216e+06	-40789.1	1005.82	-29788.6	0.000000	0.000000	6.612981	-0.098808	NaN	0.000000	0.001680	0.001770	28.0828	0.013280	0.002045	6.494805	-8.769031	15.6761	0.027864	0.611281	-0.515521	-0.516855	-0.098808	6.494805	-0.504111	-3.91161e+06	2.526027E-8	NaN
726	1.000000	0.622618	7.37216e+06	-40789.1	1005.82	-29788.6	0.000000	0.000000	6.622988	-0.023802	NaN	0.000000	0.001709	0.001810	28.0829	0.085542	0.002029	42.1627	-71.2972	-165.039	-0.022284	0.621318	-0.505518	-0.506819	-0.023802	42.1627	-0.505095	-4.03706e+06	5.895814E-9	NaN
726	1.000000	0.632643	7.37216e+06	-40789.1	1005.82	-29788.6	0.000000	0.000000	6.633010	-0.092644	NaN	0.000000	0.001702	0.001802	28.0837	0.044283	0.001835	24.1334	-46.9205	15.5066	-0.078109	0.631294	-0.495493	-0.496842	-0.092644	24.1334	-0.492614	-2.70344e+06	3.426904E-8	NaN
726	1.000000	0.642634	7.37216e+06	-40789.1	1005.82	-29788.6	0.000000	0.000000	6.643005	-0.004074	NaN	0.000000	0.001715	0.001795	28.0842	0.057129	0.002056	27.7922	-112.931	-166.954	-0.026702	0.641352	-0.485502	-0.486784	-0.004074	27.7922	-0.485392	-2.14276e+06	1.901197E-9	NaN
726	1.000000	0.652632	7.37216e+06	-40789.1	1005.82	-29788.6	0.000000	0.000000	6.653001	-0.021499	NaN	0.000000	0.001688	0.001811	28.0841	0.169072	0.002042	82.8017	101.503	17.8962	-0.019342	0.651223	-0.475504	-0.476914	-0.021499	82.8017	-0.475310	-1.54824e+06	1.388628E-8	NaN
726	1.000000	0.662631	7.37216e+06	-40789.1	1005.82	-29788.6	0.000000	0.000000	6.663000	-0.035480	NaN	0.000000	0.001622	0.001770	28.0843	0.070034	0.002059	34.007	-158.477	-165.273	-0.081891	0.661388	-0.465505	-0.466748	-0.035480	34.007	-0.464723	-1.0999e+06	3.225718E-8	NaN
726	1.000000	0.672639	7.37216e+06	-40789.1	1005.82	-29788.6	0.000000	0.000000	6.673007	-0.074089	NaN	0.000000	0.001572	0.001739	28.0842	0.059389	0.002034	29.194	-53.7453	15.1521	-0.089989	0.671220	-0.455497	-0.456916	-0.074089	29.194	-0.453594	-767236	9.656660E-8	NaN
726	1.000000	0.682658	7.37216e+06	-40789.1	1005.82	-29788.6	0.000000	0.000000	6.683030	0.041039	NaN	0.000000	0.001598	0.001755	28.084	0.069016	0.002080	33.1848	130.816	-163.276	0.048220	0.681331	-0.445478	-0.446805	0.041039	33.1848	-0.446406	-607728	-6.752892E-8	NaN
726	1.000000	0.692649	7.37216e+06	-40789.1	1005.82	-29788.6	0.000000	0.000000	6.693019	-0.022498	NaN	0.000000	0.001606	0.001765	28.0839	0.097413	0.001945	50.0959	67.079	15.7445	-0.048806	0.691290	-0.435487	-0.436846	-0.022498	50.0959	-0.435150	-421575	5.336721E-8	NaN
726	1.000000	0.702646	7.37216e+06	-40789.1	1005.82	-29788.6	0.000000	0.000000	6.703015	-0.041734	NaN	0.000000	0.001649	0.001736	28.0839	0.051408	0.001947	26.4023	-29.7718	-166.775	-0.029656	0.701292	-0.425490	-0.426845	-0.041734	26.4023	-0.424304	-296094	1.409484E-7	NaN
726	1.000000	0.712650	7.37216e+06	-40789.1	1005.82	-29788.6	0.000000	0.000000	6.713018	-0.069125	NaN	0.000000	0.001619	0.001751	28.0841	0.140756	0.002073	67.9144	34.0429	14.2755	-0.040452	0.711291	-0.415486	-0.416846	-0.069125	67.9144	-0.414723	-216529	3.192416E-7	NaN
726	1.000000	0.722679	7.37216e+06	-40789.1	1005.82	-29788.6	0.000000	0.000000	6.723049	-0.006013	NaN	0.000000	0.001617	0.001730	28.0839	0.015024	0.002099	7.157446	-26.5215	-165.094	-0.024033	0.721353	-0.405458	-0.406783	-0.006013	7.157446	-0.404828	-156600	3.839402E-8	NaN
726	1.000000	0.732658	7.37216e+06	-40789.1	1005.82	-29788.6	0.000000	0.000000	6.733028	-0.022684	NaN	0.000000	0.001653	0.001780	28.0842	0.091770	0.001917	47.8757	-53.6423	13.7088	-0.036498	0.731351	-0.395478	-0.396786	-0.022684	47.8757	-0.395122	-113863	1.992247E-7	NaN
726	1.000000	0.742655	7.37216e+06	-40789.1	1005.82	-29788.6	0.000000	0.000000	6.743025	-0.011752	NaN	0.000000	0.001607	0.001780	28.0844	0.112406	0.001927	58.3417	107.311	-161.326	-0.062868	0.741289	-0.385481	-0.386847	-0.011752	58.3417	-0.385330	-82474.6	1.424920E-7	NaN
726	1.000000	0.752695	7.37216e+06	-40789.1	1005.82	-29788.6	0.000000	0.000000	6.753062	-0.080575	NaN	0.000000	0.001637	0.001757	28.0843	0.032048	0.001972	16.2502	-28.0269	17.4975	-0.043449	0.751387	-0.375441	-0.376749	-0.080575	16.2502	-0.371722	-52592.6	1.532060E-6	NaN
726	1.000000	0.762687	7.37216e+06	-40789.1	1005.82	-29788.6	0.000000	0.000000	6.763054	-0.079171	NaN	0.000000	0.001624	0.001788	28.0844	0.065431	0.002026	32.2921	92.7258	-163.29	-0.034368	0.761350	-0.365449	-0.366786	-0.079171	32.2921	-0.363610	-40178.8	1.970466E-6	NaN
726	1.000000	0.772691	7.37216e+06	-40789.1	1005.82	-29788.6	0.000000	0.000000	6.773058	-0.085382	NaN	0.000000	0.001642	0.001746	28.0832	0.107952	0.001922	56.1754	65.4706	14.4743	-0.096312	0.771314	-0.355446	-0.356822	-0.085382	56.1754	-0.354306	-29473.9	2.896866E-6	NaN
726	1.000000	0.782711	7.37216e+06	-40789.1	1005.82	-29788.6	0.000000	0.000000	6.783080	-0.028621	NaN	0.000000	0.001627	0.001788	28.0834	0.090056	0.002104	42.7934	-162.15	-164.85	-0.073641	0.781373	-0.345425	-0.346763	-0.028621	42.7934	-0.344924	-21540	1.328741E-6	NaN
726	1.000000	0.792710	7.37216e+06	-40789.1	1005.82	-29788.6	0.000000	0.000000	6.793078	-0.054357	NaN	0.000000	0.001593	0.001737	28.083	0.028638	0.001972	14.5213	50.9867	15.6558	-0.068713	0.791344	-0.335426	-0.336793	-0.054357	14.5213	-0.332618	-14248.7	3.814905E-6	NaN
726	1.000000	0.802682	7.37216e+06	-40789.1	1005.82	-29788.6	0.000000	0.000000	6.803052	-0.013027	NaN	0.000000	0.001602	0.001775	28.0831	0.054748	0.001985	27.577	138.499	-164.83	-0.084308	0.801381	-0.325454	-0.326755	-0.013027	27.577	-0.325100	-11056.1	1.178218E-6	NaN
726	1.000000	0.812722	7.37216e+06	-40789.1	1005.82	-29788.6	0.000000	0.000000	6.813092	0.003059	NaN	0.000000	0.001621	0.001765	28.0832	0.049882	0.001924	25.9314	-118.869	9.453950	0.003622	0.811387	-0.315415	-0.316750	0.003059	25.9314	-0.315503	-7986.75	-3.830439E-7	NaN
726	1.000000	0.822719	7.37216e+06	-40789.1	1005.82	-29788.6	0.000000	0.000000	6.823090	0.004845	NaN	0.000000	0.001629	0.001803	28.0832	0.115784	0.001962	59.0059	-59.4317	-161.312	0.011111	0.821364	-0.305417	-0.306772	0.004845	59.0059	-0.305479	-5676.25	-8.535378E-7	NaN
726	1.000000	0.832719	7.37216e+06	-40789.1	1005.82	-29788.6	0.000000	0.000000	6.833089	-0.007573	NaN	0.000000	0.001645	0.001784	28.083	0.008509	0.001987	4.281876	124.051	16.5295	0.021618	0.831350	-0.295418	-0.296786	-0.007573	4.281876	-0.294091	-3841.6	1.971364E-6	NaN
726	1.000000	0.842725	7.37216e+06	-40789.1	1005.82	-29788.6	0.000000	0.000000	6.843093	-0.071663	NaN	0.000000	0.001633	0.001801	28.0831	0.052828	0.002023	26.1147	42.6215	-163.657	-0.024435	0.841407	-0.285411	-0.286730	-0.071663	26.1147	-0.283353	-2651.52	2.702731E-5	NaN
726	1.000000	0.852705	7.37216e+06	-40789.1	1005.82	-29788.6	0.000000	0.000000	6.853075	-0.013423	NaN	0.000000	0.001603	0.001743	28.0834	0.095816	0.001956	48.9962	102.25	18.1718	-0.043385	0.851384	-0.275431	-0.276752	-0.013423	48.9962	-0.275225	-1999	6.714654E-6	NaN
726	1.000000	0.862721	7.37216e+06	-40789.1	1005.82	-29788.6	0.000000	0.000000	6.863086	-0.112897	NaN	0.000000	0.001650	0.001742	28.083	0.033404	0.001965	16.9988	100.884	-165.354	-0.056637	0.861409	-0.265416	-0.266727	-0.112897	16.9988	-0.260435	-1190.08	9.486503E-5	NaN
726	1.000000	0.872730	7.37216e+06	-40789.1	1005.82	-29788.6	0.000000	0.000000	6.873101	0.028630	NaN	0.000000	0.001629	0.001799	28.0831	0.018445	0.002128	8.667329	52.842	15.056	0.008550	0.871382	-0.255407	-0.256754	0.028630	8.667329	-0.257884	-1087.57	-2.632470E-5	NaN
726	1.000000	0.882740	7.37216e+06	-40789.1	1005.82	-29788.6	0.000000	0.000000	6.883107	-0.067483	NaN	0.000000	0.001682	0.001780	28.0832	0.018648	0.001964	9.495446	80.3096	-168.365	-0.076761	0.881361	-0.245397	-0.246776	-0.067483	9.495446	-0.240066	-576.222	0.000117	NaN
726	1.000000	0.892758	7.37216e+06	-40789.1	1005.82	-29788.6	0.000000	0.000000	6.893128	-0.008217	NaN	0.000000	0.001648	0.001788	28.0833	0.066269	0.001943	34.0993	-100.138	17.0622	0.013023	0.891398	-0.235379	-0.236738	-0.008217	34.0993	-0.235198	-483.453	1.699705E-5	NaN
726	1.000000	0.902725	7.37216e+06	-40789.1	1005.82	-29788.6	0.000000	0.000000	6.903094	-0.046760	NaN	0.000000	0.001658	0.001748	28.0831	0.038893	0.001941	20.0339	-31.4437	-165.916	-0.035057	0.901360	-0.225411	-0.226776	-0.046760	20.0339	-0.223660	-317.715	0.000147	NaN
726	1.000000	0.912741	7.37216e+06	-40789.1	1005.82	-29788.6	0.000000	0.000000	6.913113	0.038383	NaN	0.000000	0.001641	0.001750	28.0846	0.028405	0.002019	14.068	-4.404573	15.0492	-0.040776	0.911388	-0.215395	-0.216749	0.038383	14.068	-0.217441	-252.766	-0.000152	NaN
726	1.000000	0.922721	7.37216e+06	-40789.1	1005.82	-29788.6	0.000000	0.000000	6.923089	-0.039187	NaN	0.000000	0.001631	0.001799	28.0844	0.023116	0.001993	11.5982	-85.2006	-167.52	-0.022388	0.921374	-0.205416	-0.206762	-0.039187	11.5982	-0.202882	-146.876	0.000267	NaN
726	1.000000	0.932745	7.37216e+06	-40789.1	1005.82	-29788.6	0.000000	0.000000	6.933112	-0.090716	NaN	0.000000	0.001637	0.001780	28.0839	0.037975	0.002103	18.0541	123.291	13.6953	-0.067891	0.931362	-0.195391	-0.196775	-0.090716	18.0541	-0.191623	-95.7412	0.000948	NaN
726	1.000000	0.942752	7.37216e+06	-40789.1	1005.82	-29788.6	0.000000	0.000000	6.943122	-0.007253	NaN	0.000000	0.001617	0.001784	28.0841	0.104704	0.001979	52.9153	-176.927	-162.851	-0.054190	0.941423	-0.185384	-0.186714	-0.007253	52.9153	-0.185282	-74.9684	9.674185E-5	NaN
726	1.000000	0.952730	7.37216e+06	-40789.1	1005.82	-29788.6	0.000000	0.000000	6.953103	0.047631	NaN	0.000000	0.001682	0.001733	28.0842	0.005100	0.001877	2.717288	-163.206	14.0015	0.076717	0.951383	-0.175406	-0.176753	0.047631	2.717288	-0.188553	-85.0782	-0.000560	NaN
726	1.000000	0.962788	7.37216e+06	-40789.1	1005.82	-29788.6	0.000000	0.000000	6.963156	-0.065897	NaN	0.000000	0.001720	0.001732	28.0847	0.115796	0.002089	55.4281	162.212	-167.172	-0.053717	0.961487	-0.165348	-0.166650	-0.065897	55.4281	-0.164456	-32.8665	0.002005	NaN
726	1.000000	0.972744	7.37216e+06	-40789.1	1005.82	-29788.6	0.000000	0.000000	6.973111	-0.074772	NaN	0.000000	0.001698	0.001709	28.0843	0.089601	0.002012	44.5402	71.2012	14.0374	-0.060528	0.971378	-0.155392	-0.156758	-0.074772	44.5402	-0.154133	-21.5262	0.003474	NaN
726	1.000000	0.982750	7.37216e+06	-40789.1	1005.82	-29788.6	0.000000	0.000000	6.983117	-0.062380	NaN	0.000000	0.001728	0.001765	28.0843	0.029771	0.002131	13.97	146.357	-165.271	-0.048457	0.981436	-0.145387	-0.146700	-0.062380	13.97	-0.142038	-12.9158	0.004830	NaN
726	1.000000	0.992801	7.37216e+06	-40789.1	1005.82	-29788.6	0.000000	0.000000	6.993170	-0.038373	NaN	0.000000	0.001764	0.001690	28.0843	0.055848	0.001913	29.1865	-157.21	10.3328	-0.018049	0.991434	-0.135335	-0.136703	-0.038373	29.1865	-0.134349	-9.243667	0.004151	NaN
726	1.000000	1.002814	7.37216e+06	-40789.1	1005.82	-29788.6	0.000000	0.000000	7.003182	-0.060100	NaN	0.000000	0.001726	0.001736	28.0845	0.067976	0.002096	32.4391	116.984	-164.555	-0.073555	1.001495	-0.125323	-0.126641	-0.060100	32.4391	-0.123933	-5.792125	0.010376	NaN
726	1.000000	1.012799	7.37216e+06	-40789.1	1005.82	-29788.6	0.000000	0.000000	7.013169	-0.002610	NaN	0.000000	0.001712	0.001739	28.0841	0.046014	0.002089	22.031	-125.012	17.0049	-0.024046	1.011440	-0.115337	-0.116696	-0.002610	22.031	-0.115248	-3.865659	0.000675	NaN
726	1.000000	1.022766	7.37216e+06	-40789.1	1005.82	-29788.6	0.000000	0.000000	7.023135	-0.031826	NaN	0.000000	0.001725	0.001737	28.0843	0.015955	0.002054	7.766000	177.715	-163.576	-0.021209	1.021457	-0.105370	-0.106679	-0.031826	7.766000	-0.102297	-2.052924	0.015503	NaN
726	1.000000	1.032800	7.37216e+06	-40789.1	1005.82	-29788.6	0.000000	0.000000	7.033167	-0.086187	NaN	0.000000	0.001695	0.001773	28.0846	0.060469	0.001905	31.7497	37.7346	15.9706	-0.047279	1.031383	-0.095336	-0.096754	-0.086187	31.7497	-0.093300	-1.289703	0.066827	NaN
726	1.000000	1.042770	7.37216e+06	-40789.1	1005.82	-29788.6	0.000000	0.000000	7.043139	-0.038705	NaN	0.000000	0.001680	0.001798	28.0838	0.040903	0.001992	20.5328	165	-166.293	-0.003740	1.041479	-0.085366	-0.086657	-0.038705	20.5328	-0.083952	-0.774872	0.049951	NaN
726	1.000000	1.052786	7.37216e+06	-40789.1	1005.82	-29788.6	0.000000	0.000000	7.053156	0.003453	NaN	0.000000	0.001647	0.001758	28.0831	0.077844	0.002014	38.6474	98.4249	10.2146	-0.047276	1.051437	-0.075351	-0.076699	0.003453	38.6474	-0.075418	-0.473488	-0.007293	NaN
726	1.000000	1.062794	7.37216e+06	-40789.1	1005.82	-29788.6	0.000000	0.000000	7.063164	-0.023769	NaN	0.000000	0.001641	0.001740	28.0832	0.042828	0.001975	21.6849	78.6385	-164.596	-0.073976	1.061475	-0.065342	-0.066661	-0.023769	21.6849	-0.064520	-0.241675	0.098352	NaN
726	1.000000	1.072788	7.37216e+06	-40789.1	1005.82	-29788.6	0.000000	0.000000	7.073158	-0.023999	NaN	0.000000	0.001659	0.001750	28.0832	0.109926	0.001871	58.7461	-80.5956	18.7351	-0.000990	1.071439	-0.055348	-0.056697	-0.023999	58.7461	-0.055042	-0.129144	0.185830	NaN
726	1.000000	1.082806	7.37216e+06	-40789.1	1005.82	-29788.6	0.000000	0.000000	7.083174	-0.052010	NaN	0.000000	0.001618	0.001738	28.0831	0.097221	0.002070	46.9579	81.2661	-163.011	-0.066900	1.081523	-0.045330	-0.046613	-0.052010	46.9579	-0.044499	-0.062042	0.838302	NaN
726	1.000000	1.092818	7.37216e+06	-40789.1	1005.82	-29788.6	0.000000	0.000000	7.093232	1.053926	NaN	0.000000	0.001618	0.001728	28.0828	0.885185	0.002016	439.182	16.178	13.2919	0.931307	1.091430	-0.035318	-0.036706	1.053926	439.182	-0.037118	-0.037017	-28.4716	NaN
726	1.000000	1.102795	7.37216e+06	-40789.1	1005.82	-29788.6	0.000000	0.000000	7.103254	2.166008	NaN	0.000000	0.001697	0.001720	28.0828	1.637381	0.001827	896.229	19.8315	-167.4	2.240423	1.101545	-0.025341	-0.026591	2.166008	896.229	-0.027154	-0.019237	-112.596	NaN
726	1.000000	1.112811	7.37216e+06	-40789.1	1005.82	-29788.6	0.000000	0.000000	7.113225	1.065489	NaN	0.000000	0.001657	0.001730	28.083	1.056608	0.002010	525.769	18.9104	12.6764	1.158539	1.111526	-0.015325	-0.016611	1.065489	525.769	-0.016845	-0.010412	-102.334	NaN
726	1.000000	1.122810	7.37216e+06	-40789.1	1005.82	-29788.6	0.000000	0.000000	7.123376	4.737727	NaN	0.000000	0.001642	0.001763	28.083	4.113351	0.001933	2128.36	15.1774	-165.322	3.880468	1.121471	-0.005326	-0.006665	4.737727	2128.36	-0.006995	-0.004638	-1021.58	NaN
726	2.000000	1.128908	7.37216e+06	-40789.1	1005.82	-29788.6	0.000000	0.000000	7.129675	9.641425	NaN	0.000000	0.001676	0.001780	28.0831	8.234528	0.001831	4496.18	15.0349	7.940594	9.180986	1.128552	0.000772	0.000415	9.641425	4496.18	-0.000836	-0.000615	-15673.4	NaN
726	2.000000	1.131330	7.37216e+06	-40789.1	1005.82	-29788.6	0.000000	0.000000	7.132320	15.0667	NaN	0.000000	0.001677	0.001728	28.0832	11.9229	0.001783	6687.54	8.856836	-172.534	14.5025	1.130993	0.003194	0.002857	15.0667	6687.54	0.001504	0.001158	13012.1	179558
726	2.000000	1.133808	7.37216e+06	-40789.1	1005.82	-29788.6	0.000000	0.000000	7.135067	21.624	NaN	0.000000	0.001645	0.001776	28.0833	15.8966	0.001790	8883.19	7.450981	4.199272	20.0417	1.133442	0.005671	0.005306	21.624	8883.19	0.003846	0.003104	6966.02	145669
726	2.000000	1.136251	7.37216e+06	-40789.1	1005.82	-29788.6	0.000000	0.000000	7.138041	34.5563	NaN	0.000000	0.001643	0.001783	28.0834	18.7703	0.001567	11975.8	4.913588	-177.056	32.6047	1.135958	0.008115	0.007822	34.5563	11975.8	0.005951	0.005018	6886.99	154465
726	2.000000	1.138803	7.37216e+06	-40789.1	1005.82	-29788.6	0.000000	0.000000	7.141287	51.4173	NaN	0.000000	0.001617	0.001748	28.0829	21.0194	0.001754	11982.5	5.695298	3.749095	48.7834	1.138364	0.010667	0.010228	51.4173	11982.5	0.007449	0.006481	7933.09	135984
726	2.000000	1.141225	7.37216e+06	-40789.1	1005.82	-29788.6	0.000000	0.000000	7.144275	65.2018	NaN	0.000000	0.001634	0.001748	28.0846	24.1777	0.001812	13343.5	5.075435	-178.705	62.6516	1.140937	0.013089	0.012801	65.2018	13343.5	0.009424	0.008549	7627.26	131855
726	2.000000	1.143749	7.37216e+06	-40789.1	1005.82	-29788.6	0.000000	0.000000	7.147413	80.1401	NaN	0.000000	0.001627	0.001739	28.0842	26.1247	0.001887	13846	10.1352	-3.446491	78.1756	1.143395	0.015613	0.015259	80.1401	13846	0.011272	0.010630	7539.22	122697
726	2.000000	1.146180	7.37216e+06	-40789.1	1005.82	-29788.6	0.000000	0.000000	7.150435	94.5289	NaN	0.000000	0.001676	0.001756	28.0847	27.1364	0.001706	15906.6	1.928484	-176.964	90.6743	1.145897	0.018043	0.017761	94.5289	15906.6	0.013586	0.013446	7030.08	125328
726	2.000000	1.148754	7.37216e+06	-40789.1	1005.82	-29788.6	0.000000	0.000000	7.153450	105.265	NaN	0.000000	0.001678	0.001747	28.0842	30.0816	0.001775	16945.5	8.181188	-3.231346	103.325	1.148387	0.020618	0.020251	105.265	16945.5	0.015959	0.016585	6346.91	120217
726	2.000000	1.151247	7.37216e+06	-40789.1	1005.82	-29788.6	0.000000	0.000000	7.156416	116.77	NaN	0.000000	0.001675	0.001736	28.0846	32.0372	0.001887	16979.4	8.360461	177.243	115.377	1.150936	0.023111	0.022799	116.77	16979.4	0.017953	0.019427	6010.63	111299
726	2.000000	1.153733	7.37216e+06	-40789.1	1005.82	-29788.6	0.000000	0.000000	7.159492	131.139	NaN	0.000000	0.001674	0.001729	28.0842	32.0969	0.001805	17779	2.334588	2.313403	129.253	1.153442	0.025596	0.025306	131.139	17779	0.020064	0.022644	5791.43	107947
726	2.000000	1.156241	7.37216e+06	-40789.1	1005.82	-29788.6	0.000000	0.000000	7.162413	141.181	NaN	0.000000	0.001685	0.001745	28.0842	34.3163	0.001828	18771.6	5.892742	179.055	140.841	1.155943	0.028104	0.027807	141.181	18771.6	0.022464	0.026562	5315.03	105230
726	2.000000	1.158804	7.37216e+06	-40789.1	1005.82	-29788.6	0.000000	0.000000	7.165451	152.716	NaN	0.000000	0.001714	0.001720	28.0841	35.2624	0.001904	18523.5	4.596095	0.958052	152.147	1.158369	0.030668	0.030233	152.716	18523.5	0.024485	0.030085	5076.14	97571.2
726	2.000000	1.161232	7.37216e+06	-40789.1	1005.82	-29788.6	0.000000	0.000000	7.168113	158.42	NaN	0.000000	0.001728	0.001709	28.0844	37.0811	0.001966	18862.9	6.717265	178.183	157.302	1.160895	0.033096	0.032759	158.42	18862.9	0.026797	0.034366	4609.75	92964.1
726	2.000000	1.163729	7.37216e+06	-40789.1	1005.82	-29788.6	0.000000	0.000000	7.171029	168.621	NaN	0.000000	0.001694	0.001714	28.084	38.5853	0.001903	20277.8	5.049253	-1.294137	167.776	1.163425	0.035593	0.035288	168.621	20277.8	0.029356	0.039419	4277.62	93312.6
726	2.000000	1.166296	7.37216e+06	-40789.1	1005.82	-29788.6	0.000000	0.000000	7.173776	173.001	NaN	0.000000	0.001703	0.001732	28.0841	40.6503	0.001872	21720.2	7.060736	175.899	175.266	1.165956	0.038160	0.037820	173.001	21720.2	0.032186	0.045397	3810.89	93137.6
726	2.000000	1.168741	7.37216e+06	-40789.1	1005.82	-29788.6	0.000000	0.000000	7.176754	185.953	NaN	0.000000	0.001673	0.001727	28.0838	41.9763	0.001814	23141.2	7.498258	-4.906685	185.925	1.168332	0.040605	0.040196	185.953	23141.2	0.034578	0.050769	3662.73	93834
726	2.000000	1.171139	7.37216e+06	-40789.1	1005.82	-29788.6	0.000000	0.000000	7.179426	192.645	NaN	0.000000	0.001699	0.001737	28.0843	42.7182	0.001856	23011.8	4.832568	177.52	188.662	1.170845	0.043002	0.042709	192.645	23011.8	0.036724	0.055835	3450.24	88975.2
726	2.000000	1.173791	7.37216e+06	-40789.1	1005.82	-29788.6	0.000000	0.000000	7.182293	197.863	NaN	0.000000	0.001708	0.001724	28.084	44.6564	0.001879	23769.7	5.143061	-1.470015	201.695	1.173418	0.045655	0.045281	197.863	23769.7	0.039412	0.062517	3164.93	86855.3
726	2.000000	1.176228	7.37216e+06	-40789.1	1005.82	-29788.6	0.000000	0.000000	7.184944	203.081	NaN	0.000000	0.001585	0.001759	28.083	46.6599	0.001904	24502.7	4.309005	177.839	203.2	1.175947	0.048091	0.047810	203.081	24502.7	0.041875	0.068965	2944.72	85246.1
726	2.000000	1.178682	7.37216e+06	-40789.1	1005.82	-29788.6	0.000000	0.000000	7.187849	214.059	NaN	0.000000	0.001603	0.001739	28.0828	47.6866	0.001839	25923.7	4.821026	-2.465912	211.036	1.178380	0.050546	0.050244	214.059	25923.7	0.044353	0.075760	2825.49	86049.8
726	2.000000	1.181213	7.37216e+06	-40789.1	1005.82	-29788.6	0.000000	0.000000	7.190708	222.031	NaN	0.000000	0.001614	0.001770	28.0831	49.5203	0.001831	27041	4.285848	177.194	222.723	1.180894	0.053076	0.052758	222.031	27041	0.046918	0.083126	2671.02	85689.4
726	2.000000	1.183799	7.37216e+06	-40789.1	1005.82	-29788.6	0.000000	0.000000	7.193487	226.735	NaN	0.000000	0.001625	0.001748	28.0827	51.7282	0.001718	30112.7	3.327413	-2.768279	229.841	1.183478	0.055663	0.055342	226.735	30112.7	0.050015	0.092461	2452.23	90478.2
726	2.000000	1.186264	7.37216e+06	-40789.1	1005.82	-29788.6	0.000000	0.000000	7.196331	235.949	NaN	0.000000	0.001638	0.001766	28.0828	54.7745	0.001826	29993.7	3.107815	177.442	237.453	1.185990	0.058127	0.057854	235.949	29993.7	0.052228	0.099422	2373.2	86908.4
726	2.000000	1.188778	7.37216e+06	-40789.1	1005.82	-29788.6	0.000000	0.000000	7.199370	248.713	NaN	0.000000	0.001611	0.001735	28.083	56.633	0.001781	31805.7	5.404599	-5.393321	250.09	1.188422	0.060642	0.060286	248.713	31805.7	0.054777	0.107748	2308.28	88526.4
726	2.000000	1.191112	7.37216e+06	-40789.1	1005.82	-29788.6	0.000000	0.000000	7.201484	243.371	NaN	0.000000	0.001600	0.001716	28.0831	58.9418	0.001817	32445.4	4.023783	175.28	238.686	1.190888	0.062976	0.062752	243.371	32445.4	0.057350	0.116478	2089.41	86856.6
726	2.000000	1.193652	7.37216e+06	-40789.1	1005.82	-29788.6	0.000000	0.000000	7.204846	263.372	NaN	0.000000	0.001634	0.001747	28.0829	60.6472	0.001784	33987.8	3.423165	-4.236739	258.843	1.193393	0.065516	0.065257	263.372	33987.8	0.059704	0.124750	2111.2	87917.5
726	2.000000	1.196170	7.37216e+06	-40789.1	1005.82	-29788.6	0.000000	0.000000	7.207903	276.483	NaN	0.000000	0.001652	0.001729	28.0831	63.555	0.001816	34988.1	4.167330	174.909	274.765	1.195927	0.068034	0.067790	276.483	34988.1	0.062107	0.133473	2071.46	87497.7
726	2.000000	1.198698	7.37216e+06	-40789.1	1005.82	-29788.6	0.000000	0.000000	7.210883	287.487	NaN	0.000000	0.001637	0.001760	28.0832	65.0293	0.001688	38522.1	1.778481	-2.875987	284.964	1.198377	0.070561	0.070241	287.487	38522.1	0.064964	0.144209	1993.55	92680.3
726	2.000000	1.201195	7.37216e+06	-40789.1	1005.82	-29788.6	0.000000	0.000000	7.213656	294.193	NaN	0.000000	0.001625	0.001767	28.0828	68.0352	0.001924	35356	5.508497	173.73	292.697	1.200956	0.073059	0.072819	294.193	35356	0.066818	0.151386	1943.33	83022
726	2.000000	1.203683	7.37216e+06	-40789.1	1005.82	-29788.6	0.000000	0.000000	7.216796	310.059	NaN	0.000000	0.001652	0.001755	28.083	70.7823	0.001824	38805.8	6.966171	-8.342909	306.669	1.203312	0.075547	0.075176	310.059	38805.8	0.069554	0.162280	1910.64	88011.1
726	2.000000	1.206059	7.37216e+06	-40789.1	1005.82	-29788.6	0.000000	0.000000	7.219872	327.088	NaN	0.000000	0.001658	0.001769	28.0828	73.2819	0.001831	40022.7	3.438407	175.175	321.603	1.205821	0.077923	0.077685	327.088	40022.7	0.071794	0.171460	1907.66	88307.5
726	2.000000	1.208771	7.37216e+06	-40789.1	1005.82	-29788.6	0.000000	0.000000	7.223049	338.413	NaN	0.000000	0.001603	0.001725	28.0843	74.9324	0.001840	40728.6	3.662976	-4.714630	339.356	1.208331	0.080635	0.080194	338.413	40728.6	0.074403	0.182458	1854.74	87114.6
726	2.000000	1.211283	7.37216e+06	-40789.1	1005.82	-29788.6	0.000000	0.000000	7.226031	349.847	NaN	0.000000	0.001677	0.001749	28.0842	76.8219	0.001760	43646.1	4.219118	174.082	355.044	1.210965	0.083147	0.082829	349.847	43646.1	0.077135	0.194318	1800.38	90461.1
726	2.000000	1.213841	7.37216e+06	-40789.1	1005.82	-29788.6	0.000000	0.000000	7.229097	362.21	NaN	0.000000	0.001701	0.001771	28.0846	80.3292	0.001861	43154.5	6.785358	-7.940360	370.001	1.213323	0.085705	0.085187	362.21	43154.5	0.079410	0.204460	1771.55	87195.8
726	2.000000	1.216246	7.37216e+06	-40789.1	1005.82	-29788.6	0.000000	0.000000	7.231734	367.839	NaN	0.000000	0.001717	0.001764	28.0844	82.0845	0.001737	47265.3	2.186774	174.339	368.834	1.216167	0.088110	0.088031	367.839	47265.3	0.082273	0.217566	1690.7	92580.5
726	2.000000	1.218638	7.37216e+06	-40789.1	1005.82	-29788.6	0.000000	0.000000	7.235581	403.255	NaN	0.000000	0.001704	0.001760	28.0843	84.7062	0.001833	46221.3	4.391227	-6.669695	398.62	1.218304	0.090502	0.090167	403.255	46221.3	0.083959	0.225460	1788.59	88936.6
726	2.000000	1.221157	7.37216e+06	-40789.1	1005.82	-29788.6	0.000000	0.000000	7.238308	408.316	NaN	0.000000	0.001714	0.001758	28.084	87.784	0.001885	46564.1	6.312891	170.917	404.785	1.220840	0.093021	0.092704	408.316	46564.1	0.086444	0.237339	1720.39	87325.2
726	2.000000	1.223669	7.37216e+06	-40789.1	1005.82	-29788.6	0.000000	0.000000	7.241544	425.935	NaN	0.000000	0.001671	0.001740	28.0843	89.4998	0.001686	53079.8	3.452903	-7.489863	424.602	1.223420	0.095533	0.095284	425.935	53079.8	0.089514	0.252406	1687.5	96527.8
726	2.000000	1.226161	7.37216e+06	-40789.1	1005.82	-29788.6	0.000000	0.000000	7.244845	445.629	NaN	0.000000	0.001709	0.001804	28.0843	93.7404	0.001773	52862.3	5.436011	170.595	445.593	1.225967	0.098025	0.097831	445.629	52862.3	0.091702	0.263409	1691.78	94103.1