File: remote_trans/data/nanoindenter/0828-1/data/Data_2025-08-06,11h17m57s/2025-07-22_16-23-58_1_1130.txt
2025-07-22, 16:23:58, 1
Index	Phase	Displacement	Time	Pos X	Pos Y	Pos Z	Rot A	Rot B	Piezo Z	Force A	Force B	Gripper	Voltage A	Voltage B	Temperature	Amplitude force	Amplitude pos	Stiffness	Phase shift	Phase excitation	Force A raw	Displacement raw	HMax	HMax raw	Real Force	Real Stiffness	Contact Depth	Area	Hardness	Reduced Mod.
[#]	[#]	[um]	[s]	[um]	[um]	[um]	[m°]	[m°]	[um]	[uN]	[uN]	[V]	[V]	[V]	[°C]	[uN]	[um]	[N/m]	[°]	[°]	[uN]	[um]	[um]	[um]	[uN]	[N/m]	[um]	[um^2]	[MPa]	[MPa]
1130	1.000000	0.002542	7.3761e+06	-56639.1	1055.82	-29738.5	0.000000	0.000000	6.002831	-0.088788	NaN	0.000000	0.001557	0.001660	28.0812	0.111498	0.000962	115.891	68.5392	-167.043	-0.076268	0.001294	-1.023942	-1.025190	-0.088788	115.891	-1.023368	-4.680146E+13	1.897130E-15	NaN
1130	1.000000	0.010461	7.3761e+06	-56639.1	1055.82	-29738.5	0.000000	0.000000	6.010757	0.072833	NaN	0.000000	0.001615	0.001690	28.081	0.035834	0.001039	34.4979	133.119	-171.446	-0.056475	0.009163	-1.016023	-1.017322	0.072833	34.4979	-1.017607	-3.915136E+13	-1.860292E-15	NaN
1130	1.000000	0.018449	7.3761e+06	-56639.1	1055.82	-29738.5	0.000000	0.000000	6.018740	-0.033219	NaN	0.000000	0.001605	0.001696	28.0812	0.113049	0.001660	68.1135	-143.373	-167.057	0.020339	0.017160	-1.008036	-1.009325	-0.033219	68.1135	-1.007670	-2.877519E+13	1.154442E-15	NaN
1130	1.000000	0.026491	7.3761e+06	-56639.1	1055.82	-29738.5	0.000000	0.000000	6.026781	-0.053456	NaN	0.000000	0.001613	0.001649	28.0823	0.017515	0.001798	9.739992	-142.904	-165.098	-0.029868	0.025194	-0.999994	-1.001290	-0.053456	9.739992	-0.995877	-1.996458E+13	2.677529E-15	NaN
1130	1.000000	0.034458	7.3761e+06	-56639.1	1055.82	-29738.5	0.000000	0.000000	6.034752	0.036555	NaN	0.000000	0.001605	0.001682	28.0824	0.021480	0.001902	11.2953	-118.755	-165.962	0.006894	0.033126	-0.992026	-0.993359	0.036555	11.2953	-0.994453	-1.910230E+13	-1.913644E-15	NaN
1130	1.000000	0.042480	7.3761e+06	-56639.1	1055.82	-29738.5	0.000000	0.000000	6.042774	0.049972	NaN	0.000000	0.001579	0.001694	28.0826	0.030999	0.001934	16.0316	-53.5468	-162.435	0.035846	0.041135	-0.984005	-0.985349	0.049972	16.0316	-0.986343	-1.485439E+13	-3.364148E-15	NaN
1130	1.000000	0.050474	7.3761e+06	-56639.1	1055.82	-29738.5	0.000000	0.000000	6.050767	0.023971	NaN	0.000000	0.001573	0.001693	28.0822	0.078696	0.001838	42.8195	64.8347	-163.743	0.022689	0.049203	-0.976011	-0.977282	0.023971	42.8195	-0.976431	-1.092251E+13	-2.194671E-15	NaN
1130	1.000000	0.058449	7.3761e+06	-56639.1	1055.82	-29738.5	0.000000	0.000000	6.058742	0.020432	NaN	0.000000	0.001544	0.001701	28.0827	0.037396	0.001948	19.2022	3.954192	-167.52	0.043510	0.057137	-0.968036	-0.969347	0.020432	19.2022	-0.968834	-8.628659E+12	-2.367950E-15	NaN
1130	1.000000	0.066481	7.37611e+06	-56639.1	1055.82	-29738.5	0.000000	0.000000	6.066775	0.039654	NaN	0.000000	0.001546	0.001642	28.0824	0.098003	0.002034	48.1833	-159.047	-167.469	0.053509	0.065149	-0.960004	-0.961335	0.039654	48.1833	-0.960621	-6.687141E+12	-5.929901E-15	NaN
1130	1.000000	0.074472	7.37611e+06	-56639.1	1055.82	-29738.5	0.000000	0.000000	6.074762	-0.053329	NaN	0.000000	0.001584	0.001654	28.0825	0.027663	0.001994	13.8707	61.1514	-163.378	-0.055377	0.073164	-0.952012	-0.953321	-0.053329	13.8707	-0.949129	-4.680346E+12	1.139425E-14	NaN
1130	1.000000	0.082463	7.37611e+06	-56639.1	1055.82	-29738.5	0.000000	0.000000	6.082758	0.066046	NaN	0.000000	0.001561	0.001676	28.0825	0.017464	0.002009	8.694154	6.884870	-163.563	0.059640	0.081120	-0.944022	-0.945364	0.066046	8.694154	-0.949719	-4.766978E+12	-1.385495E-14	NaN
1130	1.000000	0.090477	7.37611e+06	-56639.1	1055.82	-29738.5	0.000000	0.000000	6.090768	-0.032936	NaN	0.000000	0.001582	0.001659	28.0823	0.133491	0.001921	69.4862	10.7742	-168.747	-0.043475	0.089192	-0.936007	-0.937292	-0.032936	69.4862	-0.935652	-3.079421E+12	1.069545E-14	NaN
1130	1.000000	0.098477	7.37611e+06	-56639.1	1055.82	-29738.5	0.000000	0.000000	6.098770	0.010750	NaN	0.000000	0.001570	0.001701	28.0827	0.068875	0.001918	35.9069	-5.809538	-165.558	-0.001582	0.097170	-0.928007	-0.929314	0.010750	35.9069	-0.928232	-2.445306E+12	-4.396234E-15	NaN
1130	1.000000	0.106471	7.37611e+06	-56639.1	1055.82	-29738.5	0.000000	0.000000	6.106765	0.035088	NaN	0.000000	0.001547	0.001680	28.0825	0.061917	0.001969	31.4502	-2.107080	-164.716	0.058312	0.105119	-0.920014	-0.921365	0.035088	31.4502	-0.920850	-1.943954E+12	-1.804968E-14	NaN
1130	1.000000	0.114485	7.37611e+06	-56639.1	1055.82	-29738.5	0.000000	0.000000	6.114776	-0.049807	NaN	0.000000	0.001564	0.001702	28.0826	0.025414	0.002013	12.627	77.9445	-166.633	-0.037183	0.113121	-0.911999	-0.913364	-0.049807	12.627	-0.909041	-1.346509E+12	3.698977E-14	NaN
1130	1.000000	0.122493	7.37611e+06	-56639.1	1055.82	-29738.5	0.000000	0.000000	6.122784	-0.033586	NaN	0.000000	0.001528	0.001742	28.0824	0.032733	0.002113	15.49	14.2172	-168.681	0.001963	0.121207	-0.903991	-0.905278	-0.033586	15.49	-0.902365	-1.094013E+12	3.069949E-14	NaN
1130	1.000000	0.130489	7.37611e+06	-56639.1	1055.82	-29738.5	0.000000	0.000000	6.130784	0.052279	NaN	0.000000	0.001524	0.001705	28.0825	0.128216	0.002021	63.4271	155.068	-166.66	0.013659	0.129189	-0.895995	-0.897296	0.052279	63.4271	-0.896613	-9.147502E+11	-5.715083E-14	NaN
1130	1.000000	0.138483	7.37611e+06	-56639.1	1055.82	-29738.5	0.000000	0.000000	6.138776	0.003121	NaN	0.000000	0.001536	0.001711	28.0826	0.047199	0.001966	24.0133	-104.402	-167.869	-0.008095	0.137236	-0.888001	-0.889249	0.003121	24.0133	-0.888099	-7.018000E+11	-4.447363E-15	NaN
1130	1.000000	0.146530	7.37611e+06	-56639.1	1055.82	-29738.5	0.000000	0.000000	6.146821	-0.024167	NaN	0.000000	0.001538	0.001671	28.0826	0.057565	0.002134	26.9764	-36.8411	-164.803	-0.069285	0.145226	-0.879955	-0.881258	-0.024167	26.9764	-0.879283	-5.333499E+11	4.531096E-14	NaN
1130	1.000000	0.154496	7.37611e+06	-56639.1	1055.82	-29738.5	0.000000	0.000000	6.154788	-0.014455	NaN	0.000000	0.001575	0.001706	28.0827	0.020543	0.002133	9.630037	125.603	-164.889	-0.071915	0.153197	-0.871988	-0.873288	-0.014455	9.630037	-0.870863	-4.103119E+11	3.522935E-14	NaN
1130	1.000000	0.162507	7.37611e+06	-56639.1	1055.82	-29738.5	0.000000	0.000000	6.162798	-0.017602	NaN	0.000000	0.001572	0.001684	28.0815	0.021195	0.001952	10.8567	43.2673	-167.611	-0.080030	0.161169	-0.863978	-0.865315	-0.017602	10.8567	-0.862762	-3.187876E+11	5.521608E-14	NaN
1130	1.000000	0.170508	7.37611e+06	-56639.1	1055.82	-29738.5	0.000000	0.000000	6.170798	-0.065677	NaN	0.000000	0.001573	0.001709	28.0811	0.059128	0.002028	29.1518	160.421	-163.477	-0.003054	0.169182	-0.855976	-0.857303	-0.065677	29.1518	-0.854287	-2.447809E+11	2.683112E-13	NaN
1130	1.000000	0.178506	7.37611e+06	-56639.1	1055.82	-29738.5	0.000000	0.000000	6.178800	0.031031	NaN	0.000000	0.001552	0.001717	28.0813	0.062598	0.001863	33.5991	-8.382495	-163.682	0.039132	0.177165	-0.847978	-0.849320	0.031031	33.5991	-0.848671	-2.054659E+11	-1.510294E-13	NaN
1130	1.000000	0.186514	7.37611e+06	-56639.1	1055.82	-29738.5	0.000000	0.000000	6.186807	0.001979	NaN	0.000000	0.001586	0.001686	28.0812	0.039236	0.002011	19.5079	120.26	-169.014	0.047488	0.185248	-0.839970	-0.841236	0.001979	19.5079	-0.840046	-1.570069E+11	-1.260221E-14	NaN
1130	1.000000	0.194540	7.37611e+06	-56639.1	1055.82	-29738.5	0.000000	0.000000	6.194834	0.027822	NaN	0.000000	0.001566	0.001690	28.0815	0.017069	0.002041	8.363812	-118.969	-167.987	0.008930	0.193194	-0.831944	-0.833291	0.027822	8.363812	-0.834439	-1.318093E+11	-2.110742E-13	NaN
1130	1.000000	0.202519	7.37611e+06	-56639.1	1055.82	-29738.5	0.000000	0.000000	6.202811	-0.013190	NaN	0.000000	0.001551	0.001666	28.0811	0.068355	0.001982	34.4954	163.661	-167.602	-0.049173	0.201190	-0.823965	-0.825295	-0.013190	34.4954	-0.823679	-9.420872E+10	1.400105E-13	NaN
1130	1.000000	0.210533	7.37611e+06	-56639.1	1055.82	-29738.5	0.000000	0.000000	6.210824	-0.033600	NaN	0.000000	0.001589	0.001660	28.0816	0.031287	0.001975	15.8431	129.403	-161.58	-0.125491	0.209199	-0.815952	-0.817285	-0.033600	15.8431	-0.814361	-7.042586E+10	4.770954E-13	NaN
1130	1.000000	0.218531	7.37611e+06	-56639.1	1055.82	-29738.5	0.000000	0.000000	6.218822	-0.027351	NaN	0.000000	0.001541	0.001705	28.0812	0.066885	0.001975	33.8682	-105.682	-164.188	0.050712	0.217185	-0.807953	-0.809300	-0.027351	33.8682	-0.807348	-5.656982E+10	4.834913E-13	NaN
1130	1.000000	0.226530	7.37611e+06	-56639.1	1055.82	-29738.5	0.000000	0.000000	6.226822	-0.029838	NaN	0.000000	0.001563	0.001669	28.0813	0.033023	0.002002	16.4954	160.941	-166.59	-0.075449	0.225223	-0.799954	-0.801261	-0.029838	16.4954	-0.798597	-4.303515E+10	6.933514E-13	NaN
1130	1.000000	0.234529	7.37611e+06	-56639.1	1055.82	-29738.5	0.000000	0.000000	6.234820	-0.054809	NaN	0.000000	0.001555	0.001677	28.0811	0.085444	0.001868	45.7394	168.89	-166.148	-0.055839	0.233247	-0.791955	-0.793238	-0.054809	45.7394	-0.791056	-3.399624E+10	1.612194E-12	NaN
1130	1.000000	0.242543	7.37611e+06	-56639.1	1055.82	-29738.5	0.000000	0.000000	6.242835	-0.010928	NaN	0.000000	0.001582	0.001697	28.081	0.094719	0.001928	49.1407	146.882	-170.919	-0.028389	0.241238	-0.783942	-0.785247	-0.010928	49.1407	-0.783775	-2.707217E+10	4.036722E-13	NaN
1130	1.000000	0.250534	7.37611e+06	-56639.1	1055.82	-29738.5	0.000000	0.000000	6.250825	-0.022323	NaN	0.000000	0.001553	0.001673	28.0817	0.069040	0.001962	35.18	168.385	-163.259	-0.031936	0.249195	-0.775951	-0.777290	-0.022323	35.18	-0.775475	-2.088014E+10	1.069118E-12	NaN
1130	1.000000	0.258539	7.37611e+06	-56639.1	1055.82	-29738.5	0.000000	0.000000	6.258829	-0.042686	NaN	0.000000	0.001576	0.001704	28.0811	0.027360	0.001909	14.3343	-38.3433	-164.312	-0.037852	0.257265	-0.767946	-0.769219	-0.042686	14.3343	-0.765712	-1.538157E+10	2.775152E-12	NaN
1130	1.000000	0.266539	7.37611e+06	-56639.1	1055.82	-29738.5	0.000000	0.000000	6.266831	-0.012350	NaN	0.000000	0.001580	0.001727	28.0816	0.119013	0.001972	60.3461	177.537	-165.304	-0.020468	0.265209	-0.759946	-0.761276	-0.012350	60.3461	-0.759792	-1.277837E+10	9.664600E-13	NaN
1130	1.000000	0.274521	7.37611e+06	-56639.1	1055.82	-29738.5	0.000000	0.000000	6.274813	-0.006218	NaN	0.000000	0.001570	0.001721	28.0811	0.032873	0.001938	16.9658	-45.5494	-165.01	-0.017801	0.273249	-0.751964	-0.753236	-0.006218	16.9658	-0.751689	-9.913092E+9	6.272279E-13	NaN
1130	1.000000	0.282575	7.37611e+06	-56639.1	1055.82	-29738.5	0.000000	0.000000	6.282864	-0.082829	NaN	0.000000	0.001569	0.001720	28.0812	0.054803	0.002005	27.3367	-60.2874	-166.479	-0.059841	0.281204	-0.743910	-0.745281	-0.082829	27.3367	-0.741637	-7.233667E+9	1.145045E-11	NaN
1130	1.000000	0.290547	7.37611e+06	-56639.1	1055.82	-29738.5	0.000000	0.000000	6.290838	-0.033937	NaN	0.000000	0.001528	0.001737	28.0815	0.046549	0.002079	22.3851	15.9683	-166.308	-0.041980	0.289218	-0.735937	-0.737266	-0.033937	22.3851	-0.734800	-5.837390E+9	5.813658E-12	NaN
1130	1.000000	0.298552	7.37611e+06	-56639.1	1055.82	-29738.5	0.000000	0.000000	6.298845	0.020832	NaN	0.000000	0.001510	0.001741	28.0824	0.026462	0.001921	13.7765	-123.511	-164.719	0.079078	0.297264	-0.727933	-0.729220	0.020832	13.7765	-0.729067	-4.876270E+9	-4.272158E-12	NaN
1130	1.000000	0.306540	7.37611e+06	-56639.1	1055.82	-29738.5	0.000000	0.000000	6.306831	-0.030974	NaN	0.000000	0.001532	0.001751	28.0828	0.090767	0.002125	42.7091	-59.0659	-162.696	-0.010954	0.305235	-0.719944	-0.721249	-0.030974	42.7091	-0.719400	-3.599934E+9	8.604096E-12	NaN
1130	1.000000	0.314565	7.37611e+06	-56639.1	1055.82	-29738.5	0.000000	0.000000	6.314856	-0.035672	NaN	0.000000	0.001515	0.001750	28.0825	0.011084	0.002173	5.100400	-10.402	-165.534	-0.081213	0.313253	-0.711920	-0.713232	-0.035672	5.100400	-0.706674	-2.413539E+9	1.478010E-11	NaN
1130	1.000000	0.322550	7.37611e+06	-56639.1	1055.82	-29738.5	0.000000	0.000000	6.322839	-0.060896	NaN	0.000000	0.001538	0.001741	28.0826	0.034531	0.001892	18.2479	-25.7333	-164.711	-0.097653	0.321243	-0.703935	-0.705242	-0.060896	18.2479	-0.701432	-2.046858E+9	2.975091E-11	NaN
1130	1.000000	0.330605	7.37611e+06	-56639.1	1055.82	-29738.5	0.000000	0.000000	6.330898	0.026407	NaN	0.000000	0.001534	0.001725	28.0823	0.091384	0.001966	46.479	3.236801	-167.138	0.044358	0.329282	-0.695880	-0.697203	0.026407	46.479	-0.696306	-1.742114E+9	-1.515792E-11	NaN
1130	1.000000	0.338572	7.37611e+06	-56639.1	1055.82	-29738.5	0.000000	0.000000	6.338862	-0.067904	NaN	0.000000	0.001595	0.001759	28.0822	0.028473	0.002125	13.399	-110.729	-164.876	-0.084690	0.337309	-0.687912	-0.689176	-0.067904	13.399	-0.684111	-1.186929E+9	5.720987E-11	NaN
1130	1.000000	0.346581	7.37611e+06	-56639.1	1055.82	-29738.5	0.000000	0.000000	6.346868	-0.122322	NaN	0.000000	0.001563	0.001753	28.0826	0.093004	0.002046	45.4457	81.266	-166.844	-0.102174	0.345218	-0.679904	-0.681266	-0.122322	45.4457	-0.677885	-9.756150E+8	1.253795E-10	NaN
1130	1.000000	0.354587	7.37611e+06	-56639.1	1055.82	-29738.5	0.000000	0.000000	6.354877	-0.049724	NaN	0.000000	0.001577	0.001741	28.0823	0.066191	0.001985	33.3386	89.4715	-160.008	-0.077551	0.353275	-0.671898	-0.673209	-0.049724	33.3386	-0.670779	-7.799278E+8	6.375439E-11	NaN
1130	1.000000	0.362605	7.37611e+06	-56639.1	1055.82	-29738.5	0.000000	0.000000	6.362897	-0.008158	NaN	0.000000	0.001584	0.001747	28.0827	0.081021	0.002110	38.3977	57.7314	-165.435	0.058237	0.361286	-0.663880	-0.665198	-0.008158	38.3977	-0.663720	-6.243386E+8	1.306636E-11	NaN
1130	1.000000	0.370601	7.37611e+06	-56639.1	1055.82	-29738.5	0.000000	0.000000	6.370893	-0.031335	NaN	0.000000	0.001595	0.001738	28.0826	0.035399	0.001781	19.8717	-136.937	-166.078	-0.016523	0.369293	-0.655883	-0.657192	-0.031335	19.8717	-0.654700	-4.697453E+8	6.670621E-11	NaN
1130	1.000000	0.378598	7.37611e+06	-56639.1	1055.82	-29738.5	0.000000	0.000000	6.378888	-0.041464	NaN	0.000000	0.001611	0.001750	28.0823	0.117934	0.001909	61.7818	-13.3936	-166.574	0.001886	0.377298	-0.647887	-0.649187	-0.041464	61.7818	-0.647384	-3.728756E+8	1.111998E-10	NaN
1130	1.000000	0.386608	7.37611e+06	-56639.1	1055.82	-29738.5	0.000000	0.000000	6.386896	-0.098626	NaN	0.000000	0.001579	0.001746	28.0826	0.071808	0.002060	34.8565	-48.7849	-165.849	-0.125637	0.385297	-0.639877	-0.641188	-0.098626	34.8565	-0.637754	-2.750914E+8	3.585198E-10	NaN
1130	1.000000	0.394599	7.37611e+06	-56639.1	1055.82	-29738.5	0.000000	0.000000	6.394887	-0.089347	NaN	0.000000	0.001632	0.001731	28.0825	0.105270	0.002072	50.8071	-153.088	-163.077	0.023198	0.393327	-0.631886	-0.633157	-0.089347	50.8071	-0.630567	-2.191849E+8	4.076319E-10	NaN
1130	1.000000	0.402610	7.37611e+06	-56639.1	1055.82	-29738.5	0.000000	0.000000	6.402900	-0.056264	NaN	0.000000	0.001589	0.001739	28.0826	0.150255	0.002082	72.1655	121.194	-164.793	-0.037644	0.401274	-0.623875	-0.625210	-0.056264	72.1655	-0.623290	-1.741197E+8	3.231359E-10	NaN
1130	1.000000	0.410626	7.37611e+06	-56639.1	1055.82	-29738.5	0.000000	0.000000	6.410917	-0.024860	NaN	0.000000	0.001562	0.001716	28.0822	0.009001	0.002065	4.359527	148.362	-168.114	-0.019325	0.409264	-0.615859	-0.617221	-0.024860	4.359527	-0.611582	-1.201919E+8	2.068325E-10	NaN
1130	1.000000	0.418608	7.37611e+06	-56639.1	1055.82	-29738.5	0.000000	0.000000	6.418898	-0.050204	NaN	0.000000	0.001559	0.001741	28.0824	0.063507	0.002024	31.3819	-168.708	-163.496	-0.122592	0.417238	-0.607877	-0.609247	-0.050204	31.3819	-0.606677	-1.028940E+8	4.879232E-10	NaN
1130	1.000000	0.426639	7.37611e+06	-56639.1	1055.82	-29738.5	0.000000	0.000000	6.426931	-0.013625	NaN	0.000000	0.001580	0.001700	28.0822	0.126947	0.001975	64.263	113.923	-163.152	0.039143	0.425289	-0.599845	-0.601196	-0.013625	64.263	-0.599686	-8.243975E+7	1.652716E-10	NaN
1130	1.000000	0.434610	7.37611e+06	-56639.1	1055.82	-29738.5	0.000000	0.000000	6.434901	-0.033423	NaN	0.000000	0.001573	0.001735	28.0812	0.060042	0.001878	31.9659	-54.2269	-165.574	-0.047275	0.433292	-0.591875	-0.593192	-0.033423	31.9659	-0.591091	-6.276251E+7	5.325315E-10	NaN
1130	1.000000	0.442624	7.37611e+06	-56639.1	1055.82	-29738.5	0.000000	0.000000	6.442914	-0.057597	NaN	0.000000	0.001566	0.001729	28.0813	0.115422	0.002019	57.1785	154.147	-168.026	-0.051447	0.441336	-0.583860	-0.585148	-0.057597	57.1785	-0.583105	-4.870474E+7	1.182579E-9	NaN
1130	1.000000	0.450623	7.37611e+06	-56639.1	1055.82	-29738.5	0.000000	0.000000	6.450915	0.000377	NaN	0.000000	0.001577	0.001745	28.0814	0.051416	0.001991	25.8264	167.707	-168.494	-0.005498	0.449311	-0.575862	-0.577174	0.000377	25.8264	-0.575872	-3.870312E+7	-9.733597E-12	NaN
1130	1.000000	0.458635	7.37611e+06	-56639.1	1055.82	-29738.5	0.000000	0.000000	6.458925	-0.056948	NaN	0.000000	0.001500	0.001724	28.0816	0.088375	0.001918	46.0845	8.887092	-163.651	-0.016005	0.457298	-0.567849	-0.569187	-0.056948	46.0845	-0.566923	-2.911401E+7	1.956022E-9	NaN
1130	1.000000	0.466656	7.37611e+06	-56639.1	1055.82	-29738.5	0.000000	0.000000	6.466947	-0.035731	NaN	0.000000	0.001555	0.001744	28.0813	0.077936	0.002014	38.7062	-133.827	-165.377	0.012571	0.465299	-0.559829	-0.561186	-0.035731	38.7062	-0.559136	-2.272117E+7	1.572593E-9	NaN
1130	1.000000	0.474632	7.37611e+06	-56639.1	1055.82	-29738.5	0.000000	0.000000	6.474924	0.004353	NaN	0.000000	0.001527	0.001754	28.0811	0.072718	0.001913	38.0142	-62.8658	-163.923	-0.010197	0.473305	-0.551853	-0.553180	0.004353	38.0142	-0.551939	-1.806360E+7	-2.409970E-10	NaN
1130	1.000000	0.482582	7.37611e+06	-56639.1	1055.82	-29738.5	0.000000	0.000000	6.482872	-0.055343	NaN	0.000000	0.001521	0.001721	28.0811	0.147335	0.002077	70.9481	81.6757	-163.727	-0.018984	0.481281	-0.543903	-0.545203	-0.055343	70.9481	-0.543318	-1.372032E+7	4.033622E-9	NaN
1130	1.000000	0.490666	7.37611e+06	-56639.1	1055.82	-29738.5	0.000000	0.000000	6.490958	-0.017617	NaN	0.000000	0.001632	0.001724	28.0813	0.038882	0.002151	18.0728	130.677	-163.297	0.012601	0.489366	-0.535819	-0.537119	-0.017617	18.0728	-0.535088	-1.054884E+7	1.670006E-9	NaN
1130	1.000000	0.498645	7.37611e+06	-56639.1	1055.82	-29738.5	0.000000	0.000000	6.498934	-0.088161	NaN	0.000000	0.001627	0.001730	28.0813	0.139252	0.001926	72.3181	135.579	-164.114	-0.114018	0.497331	-0.527839	-0.529154	-0.088161	72.3181	-0.526925	-8.12573e+06	1.084961E-8	NaN
1130	1.000000	0.506653	7.37611e+06	-56639.1	1055.82	-29738.5	0.000000	0.000000	6.506942	-0.077771	NaN	0.000000	0.001589	0.001747	28.0811	0.130497	0.002081	62.6986	40.0981	-166.326	-0.104908	0.505355	-0.519831	-0.521130	-0.077771	62.6986	-0.518901	-6.28511e+06	1.237379E-8	NaN
1130	1.000000	0.514695	7.37611e+06	-56639.1	1055.82	-29738.5	0.000000	0.000000	6.514987	-0.010395	NaN	0.000000	0.001588	0.001736	28.0814	0.047699	0.002059	23.1698	-54.139	-164.368	-0.044567	0.513331	-0.511790	-0.513153	-0.010395	23.1698	-0.511453	-4.95059e+06	2.099666E-9	NaN
1130	1.000000	0.522661	7.37611e+06	-56639.1	1055.82	-29738.5	0.000000	0.000000	6.522951	-0.054248	NaN	0.000000	0.001612	0.001728	28.0812	0.061391	0.002057	29.845	-87.2884	-165.576	-0.034456	0.521324	-0.503824	-0.505160	-0.054248	29.845	-0.502461	-3.70969e+06	1.462326E-8	NaN
1130	1.000000	0.530664	7.37611e+06	-56639.1	1055.82	-29738.5	0.000000	0.000000	6.530955	-0.024618	NaN	0.000000	0.001624	0.001714	28.0814	0.070646	0.001998	35.3565	144.015	-162.507	0.015852	0.529327	-0.495821	-0.497158	-0.024618	35.3565	-0.495299	-2.94717e+06	8.353104E-9	NaN
1130	1.000000	0.538681	7.37611e+06	-56639.1	1055.82	-29738.5	0.000000	0.000000	6.538974	0.006314	NaN	0.000000	0.001595	0.001731	28.0814	0.118429	0.002003	59.1269	14.6939	-164.09	0.039217	0.537355	-0.487804	-0.489130	0.006314	59.1269	-0.487884	-2.32174e+06	-2.719373E-9	NaN
1130	1.000000	0.546666	7.37611e+06	-56639.1	1055.82	-29738.5	0.000000	0.000000	6.546956	-0.066526	NaN	0.000000	0.001587	0.001741	28.0811	0.023238	0.002066	11.2455	-134.032	-163.497	-0.055212	0.545352	-0.479819	-0.481132	-0.066526	11.2455	-0.475382	-1.55185e+06	4.286891E-8	NaN
1130	1.000000	0.554691	7.37611e+06	-56639.1	1055.82	-29738.5	0.000000	0.000000	6.554982	-0.041033	NaN	0.000000	0.001607	0.001695	28.0816	0.046923	0.002005	23.3987	114.329	-166.447	-0.009490	0.553383	-0.471793	-0.473102	-0.041033	23.3987	-0.470478	-1.32468e+06	3.097563E-8	NaN
1130	1.000000	0.562685	7.37611e+06	-56639.1	1055.82	-29738.5	0.000000	0.000000	6.562975	-0.058999	NaN	0.000000	0.001584	0.001679	28.0811	0.123336	0.002149	57.3953	111.857	-163.041	-0.116016	0.561319	-0.463799	-0.465166	-0.058999	57.3953	-0.463028	-1.04127e+06	5.666111E-8	NaN
1130	1.000000	0.570670	7.37611e+06	-56639.1	1055.82	-29738.5	0.000000	0.000000	6.570960	-0.062553	NaN	0.000000	0.001604	0.001656	28.0823	0.078365	0.002040	38.4153	-104.986	-166.449	-0.033622	0.569396	-0.455814	-0.457088	-0.062553	38.4153	-0.454593	-792487	7.893283E-8	NaN
1130	1.000000	0.578702	7.37611e+06	-56639.1	1055.82	-29738.5	0.000000	0.000000	6.578992	-0.057931	NaN	0.000000	0.001596	0.001681	28.0826	0.151538	0.001995	75.9464	167.791	-166.781	-0.148175	0.577408	-0.447782	-0.449076	-0.057931	75.9464	-0.447210	-623799	9.286828E-8	NaN
1130	1.000000	0.586676	7.37611e+06	-56639.1	1055.82	-29738.5	0.000000	0.000000	6.586966	-0.052380	NaN	0.000000	0.001596	0.001672	28.0825	0.083890	0.002045	41.029	-21.8584	-166.715	-0.015108	0.585434	-0.439808	-0.441050	-0.052380	41.029	-0.438851	-475493	1.101598E-7	NaN
1130	1.000000	0.594672	7.37611e+06	-56639.1	1055.82	-29738.5	0.000000	0.000000	6.594959	-0.111631	NaN	0.000000	0.001616	0.001709	28.0829	0.136611	0.001987	68.7609	145.034	-166.863	-0.040135	0.593351	-0.431813	-0.433134	-0.111631	68.7609	-0.430595	-363482	3.071166E-7	NaN
1130	1.000000	0.602692	7.37611e+06	-56639.1	1055.82	-29738.5	0.000000	0.000000	6.602983	-0.038696	NaN	0.000000	0.001582	0.001697	28.0824	0.096975	0.002090	46.4041	48.8184	-163.621	-0.043893	0.601365	-0.423792	-0.425119	-0.038696	46.4041	-0.423167	-285307	1.356281E-7	NaN
1130	1.000000	0.610697	7.37611e+06	-56639.1	1055.82	-29738.5	0.000000	0.000000	6.610987	-0.055838	NaN	0.000000	0.001596	0.001674	28.0825	0.033001	0.002094	15.7583	92.1814	-164.094	0.022517	0.609367	-0.415788	-0.417118	-0.055838	15.7583	-0.413130	-205541	2.716618E-7	NaN
1130	1.000000	0.618717	7.37611e+06	-56639.1	1055.82	-29738.5	0.000000	0.000000	6.619007	-0.056630	NaN	0.000000	0.001569	0.001672	28.0823	0.046017	0.002002	22.9873	-48.6383	-166.304	-0.038053	0.617411	-0.407768	-0.409073	-0.056630	22.9873	-0.405920	-162311	3.488993E-7	NaN
1130	1.000000	0.626699	7.37611e+06	-56639.1	1055.82	-29738.5	0.000000	0.000000	6.626992	0.011709	NaN	0.000000	0.001549	0.001730	28.082	0.036019	0.001944	18.5268	117.761	-162.693	0.000527	0.625380	-0.399786	-0.401105	0.011709	18.5268	-0.400260	-134802	-8.686167E-8	NaN
1130	1.000000	0.634702	7.37611e+06	-56639.1	1055.82	-29738.5	0.000000	0.000000	6.634992	-0.061406	NaN	0.000000	0.001581	0.001688	28.0824	0.003087	0.002022	1.526953	39.1601	-164.848	-0.070433	0.633428	-0.391782	-0.393056	-0.061406	1.526953	-0.361621	-37607.3	1.632823E-6	NaN
1130	1.000000	0.642684	7.37611e+06	-56639.1	1055.82	-29738.5	0.000000	0.000000	6.642974	-0.073072	NaN	0.000000	0.001582	0.001695	28.0823	0.100548	0.001975	50.8991	22.5913	-165.801	-0.047233	0.641368	-0.383800	-0.385116	-0.073072	50.8991	-0.382723	-75675.6	9.655943E-7	NaN
1130	1.000000	0.650684	7.37611e+06	-56639.1	1055.82	-29738.5	0.000000	0.000000	6.650974	-0.053452	NaN	0.000000	0.001594	0.001683	28.0827	0.169265	0.001947	86.9405	-22.922	-165.205	0.024536	0.649350	-0.375801	-0.377134	-0.053452	86.9405	-0.375340	-59286.7	9.015862E-7	NaN
1130	1.000000	0.658699	7.37611e+06	-56639.1	1055.82	-29738.5	0.000000	0.000000	6.658991	-0.011840	NaN	0.000000	0.001591	0.001688	28.0824	0.013809	0.002063	6.695122	-67.9669	-164.349	-0.064532	0.657438	-0.367786	-0.369047	-0.011840	6.695122	-0.366459	-44167.6	2.680798E-7	NaN
1130	1.000000	0.666718	7.37611e+06	-56639.1	1055.82	-29738.5	0.000000	0.000000	6.667010	-0.011661	NaN	0.000000	0.001587	0.001715	28.0821	0.052941	0.002002	26.4461	-51.7656	-165.913	0.028620	0.665405	-0.359766	-0.361080	-0.011661	26.4461	-0.359436	-34969.3	3.334730E-7	NaN
1130	1.000000	0.674734	7.37611e+06	-56639.1	1055.82	-29738.5	0.000000	0.000000	6.675025	-0.046259	NaN	0.000000	0.001588	0.001697	28.0823	0.108486	0.002080	52.1493	100.978	-160.165	-0.056477	0.673427	-0.351750	-0.353057	-0.046259	52.1493	-0.351085	-26469.4	1.747643E-6	NaN
1130	1.000000	0.682715	7.37611e+06	-56639.1	1055.82	-29738.5	0.000000	0.000000	6.683005	-0.041834	NaN	0.000000	0.001583	0.001706	28.0823	0.108844	0.002039	53.3932	54.2736	-163.041	-0.050312	0.681446	-0.343770	-0.345039	-0.041834	53.3932	-0.343182	-20319.2	2.058855E-6	NaN
1130	1.000000	0.690731	7.37611e+06	-56639.1	1055.82	-29738.5	0.000000	0.000000	6.691023	-0.009898	NaN	0.000000	0.001584	0.001677	28.0826	0.108958	0.002120	51.3924	91.9795	-166.771	-0.001884	0.689381	-0.335753	-0.337104	-0.009898	51.3924	-0.335609	-15757.4	6.281417E-7	NaN
1130	1.000000	0.698734	7.37611e+06	-56639.1	1055.82	-29738.5	0.000000	0.000000	6.699027	-0.006638	NaN	0.000000	0.001615	0.001751	28.0824	0.043064	0.001986	21.6888	2.816235	-166.297	0.025962	0.697437	-0.327750	-0.329047	-0.006638	21.6888	-0.327521	-11998.2	5.532874E-7	NaN
1130	1.000000	0.706753	7.37611e+06	-56639.1	1055.82	-29738.5	0.000000	0.000000	6.707044	-0.019255	NaN	0.000000	0.001610	0.001693	28.0814	0.048080	0.001993	24.1298	4.032166	-163.315	0.055436	0.705441	-0.319732	-0.321043	-0.019255	24.1298	-0.319134	-9034.05	2.131375E-6	NaN
1130	1.000000	0.714752	7.37611e+06	-56639.1	1055.82	-29738.5	0.000000	0.000000	6.715047	0.079924	NaN	0.000000	0.001664	0.001708	28.081	0.066770	0.002125	31.4161	24.9725	-164.009	0.049915	0.713491	-0.311733	-0.312993	0.079924	31.4161	-0.313641	-7496.94	-1.066094E-5	NaN
1130	1.000000	0.722733	7.37611e+06	-56639.1	1055.82	-29738.5	0.000000	0.000000	6.723026	0.001105	NaN	0.000000	0.001594	0.001713	28.0811	0.061838	0.001889	32.7433	123.863	-168.795	-0.025046	0.721430	-0.303751	-0.305055	0.001105	32.7433	-0.303777	-5355.42	-2.063216E-7	NaN
1130	1.000000	0.730731	7.37611e+06	-56639.1	1055.82	-29738.5	0.000000	0.000000	6.731021	-0.053710	NaN	0.000000	0.001622	0.001683	28.081	0.080321	0.001989	40.3754	4.855515	-165.769	-0.116072	0.729437	-0.295754	-0.297047	-0.053710	40.3754	-0.294756	-3930.47	1.366516E-5	NaN
1130	1.000000	0.738765	7.37611e+06	-56639.1	1055.82	-29738.5	0.000000	0.000000	6.739059	0.038537	NaN	0.000000	0.001622	0.001687	28.0813	0.073716	0.002145	34.3609	-48.8335	-163.353	-0.005965	0.737426	-0.287720	-0.289058	0.038537	34.3609	-0.288561	-3174.9	-1.213801E-5	NaN
1130	1.000000	0.746729	7.37611e+06	-56639.1	1055.82	-29738.5	0.000000	0.000000	6.747019	-0.068022	NaN	0.000000	0.001647	0.001695	28.0812	0.069309	0.001999	34.677	1.106982	-163.625	-0.053905	0.745426	-0.279755	-0.281058	-0.068022	34.677	-0.278284	-2223.64	3.059034E-5	NaN
1130	1.000000	0.754738	7.37611e+06	-56639.1	1055.82	-29738.5	0.000000	0.000000	6.755029	-0.021783	NaN	0.000000	0.001662	0.001679	28.0811	0.033025	0.002015	16.3904	-86.5377	-161.76	-0.010259	0.753373	-0.271747	-0.273112	-0.021783	16.3904	-0.270750	-1709.77	1.274031E-5	NaN
1130	1.000000	0.762773	7.37611e+06	-56639.1	1055.82	-29738.5	0.000000	0.000000	6.763062	-0.074840	NaN	0.000000	0.001643	0.001656	28.081	0.050335	0.001934	26.0267	25.5031	-165.497	-0.155613	0.761419	-0.263712	-0.265065	-0.074840	26.0267	-0.261555	-1238.06	6.044920E-5	NaN
1130	1.000000	0.770750	7.37611e+06	-56639.1	1055.82	-29738.5	0.000000	0.000000	6.771041	-0.033379	NaN	0.000000	0.001652	0.001696	28.0811	0.061992	0.002012	30.8128	-37.3914	-166.371	-0.071086	0.769415	-0.255735	-0.257069	-0.033379	30.8128	-0.254923	-979.318	3.408430E-5	NaN
1130	1.000000	0.778748	7.37611e+06	-56639.1	1055.82	-29738.5	0.000000	0.000000	6.779038	-0.044368	NaN	0.000000	0.001618	0.001688	28.0811	0.052663	0.001963	26.8313	172.775	-167.06	-0.045689	0.777431	-0.247737	-0.249053	-0.044368	26.8313	-0.246497	-725.6	6.114607E-5	NaN
1130	1.000000	0.786783	7.37611e+06	-56639.1	1055.82	-29738.5	0.000000	0.000000	6.787077	0.037603	NaN	0.000000	0.001627	0.001704	28.0812	0.045006	0.001931	23.3068	50.4747	-164.622	0.014378	0.785503	-0.239702	-0.240982	0.037603	23.3068	-0.240912	-594	-6.330406E-5	NaN
1130	1.000000	0.794745	7.37611e+06	-56639.1	1055.82	-29738.5	0.000000	0.000000	6.795037	-0.008046	NaN	0.000000	0.001618	0.001691	28.081	0.098627	0.002043	48.2723	168.452	-171.782	-0.004006	0.793488	-0.231740	-0.232997	-0.008046	48.2723	-0.231615	-424.614	1.894836E-5	NaN
1130	1.000000	0.802797	7.37611e+06	-56639.1	1055.82	-29738.5	0.000000	0.000000	6.803088	-0.047092	NaN	0.000000	0.001624	0.001618	28.0814	0.065565	0.001872	35.03	-95.0054	-163.974	0.057363	0.801456	-0.223687	-0.225029	-0.047092	35.03	-0.222679	-306.489	0.000154	NaN
1130	1.000000	0.810740	7.37611e+06	-56639.1	1055.82	-29738.5	0.000000	0.000000	6.811032	-0.013487	NaN	0.000000	0.001633	0.001634	28.081	0.118793	0.002123	55.9593	-56.0216	-163.294	-0.032499	0.809404	-0.215744	-0.217081	-0.013487	55.9593	-0.215563	-235.815	5.719377E-5	NaN
1130	1.000000	0.818770	7.37611e+06	-56639.1	1055.82	-29738.5	0.000000	0.000000	6.819060	-0.040124	NaN	0.000000	0.001645	0.001587	28.0812	0.137370	0.001894	72.5111	-119.098	-165.028	-0.026940	0.817454	-0.207715	-0.209031	-0.040124	72.5111	-0.207300	-173.384	0.000231	NaN
1130	1.000000	0.826778	7.37611e+06	-56639.1	1055.82	-29738.5	0.000000	0.000000	6.827066	-0.102982	NaN	0.000000	0.001667	0.001584	28.0814	0.050438	0.001900	26.54	50.0869	-165.847	-0.113291	0.825468	-0.199707	-0.201017	-0.102982	26.54	-0.196796	-116.659	0.000883	NaN
1130	1.000000	0.834809	7.37611e+06	-56639.1	1055.82	-29738.5	0.000000	0.000000	6.835099	-0.059958	NaN	0.000000	0.001665	0.001620	28.0811	0.057205	0.002065	27.7067	-134.927	-164.058	-0.011760	0.833442	-0.191676	-0.193042	-0.059958	27.7067	-0.190053	-90.1387	0.000665	NaN
1130	1.000000	0.842791	7.37611e+06	-56639.1	1055.82	-29738.5	0.000000	0.000000	6.843080	-0.080713	NaN	0.000000	0.001618	0.001612	28.082	0.116535	0.002047	56.9269	79.1524	-164.14	-0.065098	0.841467	-0.183694	-0.185018	-0.080713	56.9269	-0.182631	-67.6254	0.001194	NaN
1130	1.000000	0.850776	7.37611e+06	-56639.1	1055.82	-29738.5	0.000000	0.000000	6.851069	0.009372	NaN	0.000000	0.001588	0.001618	28.0824	0.041887	0.002030	20.6388	-8.542740	-162.564	-0.057595	0.849430	-0.175708	-0.177054	0.009372	20.6388	-0.176049	-52.2373	-0.000179	NaN
1130	1.000000	0.858804	7.37611e+06	-56639.1	1055.82	-29738.5	0.000000	0.000000	6.859094	-0.057394	NaN	0.000000	0.001619	0.001641	28.0826	0.070976	0.002047	34.673	177.145	-164.561	-0.057174	0.857494	-0.167681	-0.168991	-0.057394	34.673	-0.166439	-35.607	0.001612	NaN
1130	1.000000	0.866790	7.37611e+06	-56639.1	1055.82	-29738.5	0.000000	0.000000	6.867080	-0.062572	NaN	0.000000	0.001634	0.001594	28.0824	0.055659	0.002043	27.2477	16.5394	-166.109	-0.046864	0.865478	-0.159694	-0.161006	-0.062572	27.2477	-0.157972	-25.2265	0.002480	NaN
1130	1.000000	0.874803	7.37611e+06	-56639.1	1055.82	-29738.5	0.000000	0.000000	6.875094	-0.041435	NaN	0.000000	0.001623	0.001612	28.0824	0.044338	0.002088	21.2315	58.4068	-165.307	-0.006441	0.873461	-0.151681	-0.153023	-0.041435	21.2315	-0.150217	-18.2797	0.002267	NaN
1130	1.000000	0.882773	7.37611e+06	-56639.1	1055.82	-29738.5	0.000000	0.000000	6.883065	-0.022260	NaN	0.000000	0.001640	0.001635	28.0824	0.040461	0.001899	21.3014	-165.013	-164.774	-0.015218	0.881497	-0.143711	-0.144987	-0.022260	21.3014	-0.142927	-13.4185	0.001659	NaN
1130	1.000000	0.890799	7.37611e+06	-56639.1	1055.82	-29738.5	0.000000	0.000000	6.891092	-0.001150	NaN	0.000000	0.001643	0.001626	28.0824	0.056250	0.001849	30.4269	125.893	-165.293	-0.011679	0.889481	-0.135685	-0.137003	-0.001150	30.4269	-0.135657	-9.790757	0.000117	NaN
1130	1.000000	0.898807	7.37611e+06	-56639.1	1055.82	-29738.5	0.000000	0.000000	6.899100	0.021367	NaN	0.000000	0.001634	0.001601	28.0825	0.031579	0.001978	15.9653	14.1024	-162.102	-0.017769	0.897489	-0.127678	-0.128996	0.021367	15.9653	-0.128681	-7.183522	-0.002974	NaN
1130	1.000000	0.906803	7.37611e+06	-56639.1	1055.82	-29738.5	0.000000	0.000000	6.907092	-0.066274	NaN	0.000000	0.001635	0.001676	28.0822	0.086371	0.001920	44.9933	-112.877	-163.904	-0.044616	0.905490	-0.119682	-0.120995	-0.066274	44.9933	-0.118577	-4.521496	0.014657	NaN
1130	1.000000	0.914816	7.37611e+06	-56639.1	1055.82	-29738.5	0.000000	0.000000	6.915106	-0.044931	NaN	0.000000	0.001578	0.001687	28.0825	0.055543	0.002041	27.2193	-80.69	-161.97	-0.039293	0.913520	-0.111669	-0.112965	-0.044931	27.2193	-0.110431	-3.068655	0.014642	NaN
1130	1.000000	0.922825	7.37611e+06	-56639.1	1055.82	-29738.5	0.000000	0.000000	6.923114	-0.079280	NaN	0.000000	0.001570	0.001664	28.0824	0.023282	0.001900	12.2524	158.349	-167.799	-0.050518	0.921518	-0.103660	-0.104967	-0.079280	12.2524	-0.098807	-1.718885	0.046123	NaN
1130	1.000000	0.930846	7.37611e+06	-56639.1	1055.82	-29738.5	0.000000	0.000000	6.931137	-0.033705	NaN	0.000000	0.001535	0.001671	28.0826	0.105451	0.001944	54.2373	-78.5567	-163.1	0.033442	0.929525	-0.095639	-0.096960	-0.033705	54.2373	-0.095173	-1.423477	0.023678	NaN
1130	1.000000	0.938846	7.37611e+06	-56639.1	1055.82	-29738.5	0.000000	0.000000	6.939135	-0.087890	NaN	0.000000	0.001551	0.001680	28.0824	0.038587	0.002041	18.9036	-60.5953	-164.256	-0.072776	0.937566	-0.087638	-0.088919	-0.087890	18.9036	-0.084151	-0.783576	0.112165	NaN
1130	1.000000	0.946841	7.37611e+06	-56639.1	1055.82	-29738.5	0.000000	0.000000	6.947133	-0.020579	NaN	0.000000	0.001566	0.001630	28.0825	0.025205	0.001830	13.7726	130.262	-165.555	-0.034963	0.945477	-0.079643	-0.081007	-0.020579	13.7726	-0.078522	-0.568269	0.036214	NaN
1130	1.000000	0.954829	7.37611e+06	-56639.1	1055.82	-29738.5	0.000000	0.000000	6.955118	-0.076418	NaN	0.000000	0.001562	0.001644	28.0826	0.119261	0.001933	61.6939	99.9659	-163.602	-0.134719	0.953523	-0.071656	-0.072961	-0.076418	61.6939	-0.070727	-0.356704	0.214233	NaN
1130	1.000000	0.962828	7.37611e+06	-56639.1	1055.82	-29738.5	0.000000	0.000000	6.963121	0.012874	NaN	0.000000	0.001537	0.001669	28.0827	0.121627	0.002043	59.5337	0.330009	-165.148	-0.071271	0.961507	-0.063656	-0.064978	0.012874	59.5337	-0.063819	-0.231030	-0.055726	NaN
1130	1.000000	0.970828	7.37611e+06	-56639.1	1055.82	-29738.5	0.000000	0.000000	6.971124	0.094373	NaN	0.000000	0.001532	0.001677	28.0826	0.103740	0.002033	51.0286	-42.4412	-162.722	0.150506	0.969535	-0.055657	-0.056949	0.094373	51.0286	-0.057044	-0.147881	-0.638166	NaN
1130	1.000000	0.978841	7.37611e+06	-56639.1	1055.82	-29738.5	0.000000	0.000000	6.979142	0.206092	NaN	0.000000	0.001560	0.001718	28.0819	0.075295	0.001947	38.6775	17.617	-163.6	0.204895	0.977517	-0.047644	-0.048967	0.206092	38.6775	-0.051640	-0.102254	-2.015487	NaN
1130	1.000000	0.986864	7.37611e+06	-56639.1	1055.82	-29738.5	0.000000	0.000000	6.987173	0.401547	NaN	0.000000	0.001543	0.001675	28.0815	0.379106	0.001867	203.043	12.4647	-162.833	0.361370	0.985476	-0.039621	-0.041008	0.401547	203.043	-0.041104	-0.048859	-8.218540	NaN
1130	1.000000	0.994826	7.37611e+06	-56639.1	1055.82	-29738.5	0.000000	0.000000	6.995156	0.906485	NaN	0.000000	0.001528	0.001676	28.0811	0.499280	0.001950	256.044	26.2971	-167.342	0.802200	0.993506	-0.031659	-0.032978	0.906485	256.044	-0.034314	-0.030573	-29.6499	NaN
1130	1.000000	1.002881	7.37611e+06	-56639.1	1055.82	-29738.5	0.000000	0.000000	7.003246	1.756615	NaN	0.000000	0.001540	0.001661	28.0813	0.806115	0.002037	395.792	26.5311	-165.245	1.625393	1.001481	-0.023603	-0.025004	1.756615	395.792	-0.026932	-0.018975	-92.5734	NaN
1130	1.000000	1.010840	7.37611e+06	-56639.1	1055.82	-29738.5	0.000000	0.000000	7.011242	2.664421	NaN	0.000000	0.001594	0.001626	28.0818	0.960048	0.002005	478.899	13.0065	-163.024	2.458871	1.009571	-0.015645	-0.016914	2.664421	478.899	-0.019817	-0.012427	-214.403	NaN
1130	1.000000	1.018874	7.37611e+06	-56639.1	1055.82	-29738.5	0.000000	0.000000	7.019315	3.628592	NaN	0.000000	0.001583	0.001661	28.0812	1.148485	0.002039	563.324	20.4478	-166.947	3.464105	1.017542	-0.007611	-0.008943	3.628592	563.324	-0.012442	-0.007781	-466.311	NaN
1130	1.000000	1.026823	7.37611e+06	-56639.1	1055.82	-29738.5	0.000000	0.000000	7.027326	5.108654	NaN	0.000000	0.001609	0.001638	28.0815	2.189766	0.002015	1086.91	12.7537	-166.061	4.563134	1.025486	0.000339	-0.000999	5.108654	1086.91	-0.003186	-0.002245	-2275.71	NaN
1130	2.000000	1.032487	7.37611e+06	-56639.1	1055.82	-29738.5	0.000000	0.000000	7.033141	8.789486	NaN	0.000000	0.001550	0.001635	28.0811	6.236575	0.001681	3710.37	8.651920	-171.056	8.932552	1.032148	0.006002	0.005663	8.789486	3710.37	0.004225	0.003437	2556.98	57819.3
1130	2.000000	1.034423	7.37611e+06	-56639.1	1055.82	-29738.5	0.000000	0.000000	7.035227	12.4405	NaN	0.000000	0.001559	0.001645	28.0822	9.454196	0.001862	5076.56	5.980662	-170.385	11.675	1.034085	0.007939	0.007600	12.4405	5076.56	0.006101	0.005160	2410.77	64565.6
1130	2.000000	1.036427	7.37611e+06	-56639.1	1055.82	-29738.5	0.000000	0.000000	7.037321	14.6098	NaN	0.000000	0.001568	0.001623	28.0814	11.3195	0.001637	6912.84	5.783291	-172.336	14.1461	1.036125	0.009943	0.009640	14.6098	6912.84	0.008358	0.007413	1970.87	73356.1
1130	2.000000	1.038412	7.37611e+06	-56639.1	1055.82	-29738.5	0.000000	0.000000	7.039384	16.5263	NaN	0.000000	0.001531	0.001674	28.0812	13.6474	0.001999	6828.31	9.182105	-173.13	16.9607	1.038107	0.011927	0.011622	16.5263	6828.31	0.010112	0.009306	1775.85	64669.9
1130	2.000000	1.040376	7.37611e+06	-56639.1	1055.82	-29738.5	0.000000	0.000000	7.041580	22.1788	NaN	0.000000	0.001527	0.001664	28.0815	15.5606	0.001738	8954.18	8.308147	-175.431	21.403	1.040024	0.013891	0.013539	22.1788	8954.18	0.012033	0.011530	1923.56	76187.4
1130	2.000000	1.042403	7.37611e+06	-56639.1	1055.82	-29738.5	0.000000	0.000000	7.043752	25.6856	NaN	0.000000	0.001549	0.001666	28.081	17.3857	0.001584	10977.4	8.465673	-179.599	26.09	1.042169	0.015918	0.015685	25.6856	10977.4	0.014163	0.014186	1810.66	84206.3
1130	2.000000	1.044348	7.37611e+06	-56639.1	1055.82	-29738.5	0.000000	0.000000	7.045897	30.5657	NaN	0.000000	0.001588	0.001666	28.0812	19.9509	0.001736	11492.7	2.120376	-172.674	28.7453	1.044023	0.017863	0.017538	30.5657	11492.7	0.015868	0.016461	1856.88	81841.1
1130	2.000000	1.046364	7.37611e+06	-56639.1	1055.82	-29738.5	0.000000	0.000000	7.048004	32.7727	NaN	0.000000	0.001557	0.001656	28.0812	21.5039	0.001751	12280.2	8.631846	-179.762	32.5535	1.046085	0.019879	0.019601	32.7727	12280.2	0.017878	0.019316	1696.63	80726.5
1130	2.000000	1.048350	7.37611e+06	-56639.1	1055.82	-29738.5	0.000000	0.000000	7.050085	35.0544	NaN	0.000000	0.001511	0.001664	28.0815	23.9035	0.001779	13436.2	9.188397	179.431	33.9605	1.048021	0.021866	0.021537	35.0544	13436.2	0.019909	0.022399	1564.99	82022.8
1130	2.000000	1.050404	7.37611e+06	-56639.1	1055.82	-29738.5	0.000000	0.000000	7.052373	40.7464	NaN	0.000000	0.001582	0.001650	28.0816	26.1322	0.001867	13999.1	7.628977	-177.876	41.8125	1.050054	0.023919	0.023570	40.7464	13999.1	0.021736	0.025344	1607.7	80339.8
1130	2.000000	1.052368	7.37611e+06	-56639.1	1055.82	-29738.5	0.000000	0.000000	7.054458	43.684	NaN	0.000000	0.001565	0.001680	28.0814	27.2396	0.001846	14759.4	4.796039	-176.902	43.8255	1.052054	0.025884	0.025570	43.684	14759.4	0.023664	0.028630	1525.81	79695
1130	2.000000	1.054360	7.37611e+06	-56639.1	1055.82	-29738.5	0.000000	0.000000	7.056756	51.1295	NaN	0.000000	0.001556	0.001673	28.0827	29.6541	0.001796	16509.3	2.934228	-175.362	51.2891	1.053978	0.027875	0.027494	51.1295	16509.3	0.025553	0.032028	1596.38	84281.8
1130	2.000000	1.056380	7.37611e+06	-56639.1	1055.82	-29738.5	0.000000	0.000000	7.059072	58.3375	NaN	0.000000	0.001556	0.001645	28.0826	30.8068	0.001799	17124.2	6.062188	-178.884	59.8037	1.056008	0.029895	0.029524	58.3375	17124.2	0.027340	0.035411	1647.43	83140.6
1130	2.000000	1.058373	7.37611e+06	-56639.1	1055.82	-29738.5	0.000000	0.000000	7.061241	62.606	NaN	0.000000	0.001544	0.001691	28.0828	33.5938	0.001852	18140.7	7.352599	179.4	63.4566	1.058030	0.031889	0.031546	62.606	18140.7	0.029300	0.039306	1592.77	83598.3
1130	2.000000	1.060370	7.37611e+06	-56639.1	1055.82	-29738.5	0.000000	0.000000	7.063297	64.0525	NaN	0.000000	0.001630	0.001691	28.0826	35.5013	0.001844	19252.3	8.062172	177.977	63.7388	1.060094	0.033885	0.033609	64.0525	19252.3	0.031390	0.043674	1466.61	84167.6
1130	2.000000	1.062307	7.37611e+06	-56639.1	1055.82	-29738.5	0.000000	0.000000	7.065525	71.1131	NaN	0.000000	0.001610	0.001654	28.0825	36.4542	0.001888	19306.3	4.591234	-179.186	69.3101	1.061947	0.035822	0.035462	71.1131	19306.3	0.033059	0.047324	1502.69	81083.4
1130	2.000000	1.064311	7.37611e+06	-56639.1	1055.82	-29738.5	0.000000	0.000000	7.067788	77.4159	NaN	0.000000	0.001648	0.001678	28.0826	38.9381	0.001839	21176.2	6.154975	178.273	75.3646	1.063958	0.037826	0.037474	77.4159	21176.2	0.035084	0.051943	1490.41	84890.5
1130	2.000000	1.066337	7.37611e+06	-56639.1	1055.82	-29738.5	0.000000	0.000000	7.069980	81.4442	NaN	0.000000	0.001620	0.001645	28.0827	39.2503	0.001861	21091.5	2.041796	-176.993	81.7578	1.066063	0.039853	0.039578	81.4442	21091.5	0.036957	0.056400	1444.05	81141.4
1130	2.000000	1.068396	7.37611e+06	-56639.1	1055.82	-29738.5	0.000000	0.000000	7.072264	86.9068	NaN	0.000000	0.001650	0.001639	28.083	42.8024	0.001862	22982.2	8.031055	176.002	90.626	1.068035	0.041912	0.041550	86.9068	22982.2	0.039076	0.061662	1409.41	84558.6
1130	2.000000	1.070437	7.37611e+06	-56639.1	1055.82	-29738.5	0.000000	0.000000	7.074576	93.5021	NaN	0.000000	0.001621	0.001680	28.0824	44.0471	0.001827	24113	9.280681	175.447	98.4575	1.070046	0.043952	0.043562	93.5021	24113	0.041044	0.066754	1400.69	85267.8
1130	2.000000	1.072251	7.37611e+06	-56639.1	1055.82	-29738.5	0.000000	0.000000	7.076883	105.498	NaN	0.000000	0.001605	0.001677	28.0823	45.5066	0.001836	24785.4	7.944486	176.384	102.714	1.071867	0.045766	0.045382	105.498	24785.4	0.042574	0.070849	1489.06	85075.1
1130	2.000000	1.074373	7.37611e+06	-56639.1	1055.82	-29738.5	0.000000	0.000000	7.079079	107.269	NaN	0.000000	0.001595	0.001641	28.0827	47.0737	0.001724	27298.5	6.059897	177.227	109.61	1.073996	0.047889	0.047511	107.269	27298.5	0.044942	0.077422	1385.51	89635.6
1130	2.000000	1.076313	7.37611e+06	-56639.1	1055.82	-29738.5	0.000000	0.000000	7.081649	122.597	NaN	0.000000	0.001622	0.001642	28.0826	48.9474	0.001809	27059.3	6.590619	176.496	122.147	1.075941	0.049828	0.049456	122.597	27059.3	0.046430	0.081700	1500.58	86492.5
1130	2.000000	1.078265	7.37611e+06	-56639.1	1055.82	-29738.5	0.000000	0.000000	7.084004	132.389	NaN	0.000000	0.001640	0.001717	28.083	51.9183	0.001764	29427.5	7.315525	174.157	130.054	1.078025	0.051781	0.051540	132.389	29427.5	0.048407	0.087552	1512.13	90864.6
1130	2.000000	1.080419	7.37611e+06	-56639.1	1055.82	-29738.5	0.000000	0.000000	7.086553	141.987	NaN	0.000000	0.001602	0.001705	28.0827	53.7708	0.001790	30043.5	9.939698	172.985	144.756	1.079985	0.053934	0.053501	141.987	30043.5	0.050390	0.093622	1516.61	89709
1130	2.000000	1.082311	7.37611e+06	-56639.1	1055.82	-29738.5	0.000000	0.000000	7.088743	149.242	NaN	0.000000	0.001624	0.001705	28.0825	55.0907	0.001643	33535.2	5.717751	174.23	149.058	1.081985	0.055826	0.055500	149.242	33535.2	0.052488	0.100260	1488.55	96763.2
1130	2.000000	1.084265	7.37611e+06	-56639.1	1055.82	-29738.5	0.000000	0.000000	7.090955	155.515	NaN	0.000000	0.001571	0.001699	28.0827	60.095	0.001856	32372.6	6.427153	173.85	153.706	1.084078	0.057780	0.057594	155.515	32372.6	0.054177	0.105761	1470.45	90947
1130	2.000000	1.086273	7.37611e+06	-56639.1	1055.82	-29738.5	0.000000	0.000000	7.093563	170.083	NaN	0.000000	0.001576	0.001673	28.0822	59.8279	0.001718	34825.4	7.324638	172.755	168.867	1.085912	0.059788	0.059428	170.083	34825.4	0.056125	0.112282	1514.78	94954.2
1130	2.000000	1.088250	7.37611e+06	-56639.1	1055.82	-29738.5	0.000000	0.000000	7.095778	175.875	NaN	0.000000	0.001558	0.001733	28.0814	63.0725	0.001800	35042.5	7.547973	172.451	175.089	1.087992	0.061765	0.061507	175.875	35042.5	0.058001	0.118739	1481.19	92911.9
1130	2.000000	1.090264	7.37611e+06	-56639.1	1055.82	-29738.5	0.000000	0.000000	7.098406	190.798	NaN	0.000000	0.001596	0.001735	28.0811	63.5461	0.001596	39827.7	5.329526	174.493	188.156	1.089887	0.063779	0.063403	190.798	39827.7	0.060186	0.126477	1508.56	102318
1130	2.000000	1.092289	7.37611e+06	-56639.1	1055.82	-29738.5	0.000000	0.000000	7.100584	194.506	NaN	0.000000	0.001602	0.001728	28.0813	65.1745	0.001794	36328.3	1.575511	178.21	193.984	1.092143	0.065805	0.065658	194.506	36328.3	0.061789	0.132302	1470.16	91250.3
1130	2.000000	1.094270	7.37611e+06	-56639.1	1055.82	-29738.5	0.000000	0.000000	7.103207	210.108	NaN	0.000000	0.001592	0.001718	28.0812	68.7749	0.001779	38659.5	8.139889	170.934	208.166	1.094023	0.067786	0.067539	210.108	38659.5	0.063710	0.139446	1506.73	94585.9
1130	2.000000	1.096285	7.37611e+06	-56639.1	1055.82	-29738.5	0.000000	0.000000	7.105757	223.13	NaN	0.000000	0.001619	0.001749	28.0812	70.2687	0.001763	39862.9	12.3524	167.256	222.94	1.095889	0.069800	0.069405	223.13	39862.9	0.065602	0.146659	1521.42	95101.5
1130	2.000000	1.098178	7.37611e+06	-56639.1	1055.82	-29738.5	0.000000	0.000000	7.108067	233.254	NaN	0.000000	0.001632	0.001765	28.0816	71.4406	0.001792	39862.8	5.016827	174.232	226.293	1.097843	0.071693	0.071359	233.254	39862.8	0.067305	0.153297	1521.58	93019.6
1130	2.000000	1.100208	7.37611e+06	-56639.1	1055.82	-29738.5	0.000000	0.000000	7.110449	241.812	NaN	0.000000	0.001573	0.001742	28.0809	73.5243	0.001753	41945.7	4.547904	174.39	236.038	1.099905	0.073723	0.073420	241.812	41945.7	0.069400	0.161654	1495.86	95316.4
1130	2.000000	1.102260	7.37611e+06	-56639.1	1055.82	-29738.5	0.000000	0.000000	7.112693	246.491	NaN	0.000000	0.001551	0.001760	28.0815	74.6962	0.001775	42075.2	4.113452	174.677	244.97	1.102031	0.075775	0.075546	246.491	42075.2	0.071382	0.169753	1452.05	93301.8
1130	2.000000	1.104257	7.37611e+06	-56639.1	1055.82	-29738.5	0.000000	0.000000	7.115324	261.891	NaN	0.000000	0.001562	0.001776	28.0813	76.9459	0.001841	41799.1	0.980234	177.374	259.662	1.104008	0.077772	0.077523	261.891	41799.1	0.073073	0.176813	1481.18	90820.4
1130	2.000000	1.106294	7.37611e+06	-56639.1	1055.82	-29738.5	0.000000	0.000000	7.117797	272.496	NaN	0.000000	0.001578	0.001770	28.0812	78.1797	0.001813	43116.8	5.886802	173.176	271.905	1.105967	0.079809	0.079483	272.496	43116.8	0.075069	0.185319	1470.41	91508
1130	2.000000	1.108240	7.37611e+06	-56639.1	1055.82	-29738.5	0.000000	0.000000	7.120273	285.372	NaN	0.000000	0.001574	0.001767	28.0815	81.4261	0.001764	46147.2	5.533568	171.968	282.186	1.107986	0.081756	0.081502	285.372	46147.2	0.077118	0.194241	1469.17	95664
1130	2.000000	1.110190	7.37611e+06	-56639.1	1055.82	-29738.5	0.000000	0.000000	7.122709	297.2	NaN	0.000000	0.001575	0.001722	28.081	82.6586	0.001861	44421.1	1.168742	177.448	290.047	1.109889	0.083705	0.083404	297.2	44421.1	0.078687	0.201210	1477.06	90476.9
1130	2.000000	1.112292	7.37611e+06	-56639.1	1055.82	-29738.5	0.000000	0.000000	7.125191	306.419	NaN	0.000000	0.001572	0.001751	28.0822	84.7564	0.001856	45666.3	6.140037	172.065	304.8	1.111943	0.085808	0.085459	306.419	45666.3	0.080775	0.210662	1454.56	90902.6
1130	2.000000	1.114303	7.37611e+06	-56639.1	1055.82	-29738.5	0.000000	0.000000	7.127960	324.827	NaN	0.000000	0.001568	0.001802	28.0812	88.3621	0.001792	49305.3	8.711808	169.353	324.515	1.114014	0.087819	0.087530	324.827	49305.3	0.082878	0.220382	1473.92	95957.3
1130	2.000000	1.116209	7.37611e+06	-56639.1	1055.82	-29738.5	0.000000	0.000000	7.130156	331.909	NaN	0.000000	0.001564	0.001816	28.081	87.3389	0.001642	53197	3.893916	172.498	327.83	1.115896	0.089724	0.089411	331.909	53197	0.085045	0.230615	1439.24	101208
1130	2.000000	1.118244	7.37611e+06	-56639.1	1055.82	-29738.5	0.000000	0.000000	7.133012	351.844	NaN	0.000000	0.001560	0.001820	28.0811	91.6488	0.001822	50307.2	5.968076	171.497	350.098	1.117979	0.091760	0.091495	351.844	50307.2	0.086514	0.237678	1480.33	94277.6
1130	2.000000	1.120209	7.37611e+06	-56639.1	1055.82	-29738.5	0.000000	0.000000	7.135700	369.422	NaN	0.000000	0.001561	0.001786	28.081	92.6977	0.001838	50437	4.835908	173.053	364.379	1.119837	0.093724	0.093353	369.422	50437	0.088231	0.246055	1501.38	92897.8
1130	2.000000	1.122326	7.37611e+06	-56639.1	1055.82	-29738.5	0.000000	0.000000	7.138017	374.269	NaN	0.000000	0.001601	0.001777	28.0829	95.0855	0.001725	55109.2	9.791947	166.8	375.644	1.121970	0.095842	0.095486	374.269	55109.2	0.090748	0.258583	1447.39	99014.2
1130	2.000000	1.124144	7.37611e+06	-56639.1	1055.82	-29738.5	0.000000	0.000000	7.140649	394.07	NaN	0.000000	0.001592	0.001756	28.0824	96.1	0.001724	55744.8	-0.112703	176.79	387.882	1.123959	0.097659	0.097474	394.07	55744.8	0.092357	0.266743	1477.34	98612.2
1130	2.000000	1.126168	7.37611e+06	-56639.1	1055.82	-29738.5	0.000000	0.000000	7.143346	410.425	NaN	0.000000	0.001586	0.001767	28.0823	97.1009	0.001736	55948.4	0.801207	175.988	404.696	1.125925	0.099683	0.099440	410.425	55948.4	0.094181	0.276138	1486.3	97274.3
1130	2.000000	1.128137	7.37611e+06	-56639.1	1055.82	-29738.5	0.000000	0.000000	7.145868	423.872	NaN	0.000000	0.001567	0.001717	28.0825	99.6625	0.001760	56629.8	1.771778	175.051	416.614	1.127841	0.101652	0.101356	423.872	56629.8	0.096039	0.285860	1482.8	96770.3
1130	2.000000	1.130277	7.37611e+06	-56639.1	1055.82	-29738.5	0.000000	0.000000	7.148784	442.738	NaN	0.000000	0.001558	0.001752	28.0821	101.907	0.001741	58541.4	3.565358	173.229	440.341	1.129801	0.103792	0.103316	442.738	58541.4	0.098120	0.296942	1490.99	98152.3