File: remote_trans/data/nanoindenter/0828-1/data/Data_2025-08-06,11h17m57s/2025-07-22_16-23-58_1_732.txt
2025-07-22, 16:23:58, 1
Index	Phase	Displacement	Time	Pos X	Pos Y	Pos Z	Rot A	Rot B	Piezo Z	Force A	Force B	Gripper	Voltage A	Voltage B	Temperature	Amplitude force	Amplitude pos	Stiffness	Phase shift	Phase excitation	Force A raw	Displacement raw	HMax	HMax raw	Real Force	Real Stiffness	Contact Depth	Area	Hardness	Reduced Mod.
[#]	[#]	[um]	[s]	[um]	[um]	[um]	[m°]	[m°]	[um]	[uN]	[uN]	[V]	[V]	[V]	[°C]	[uN]	[um]	[N/m]	[°]	[°]	[uN]	[um]	[um]	[um]	[uN]	[N/m]	[um]	[um^2]	[MPa]	[MPa]
732	1.000000	0.002302	7.37221e+06	-40489.1	1005.82	-29789.8	0.000000	0.000000	6.002819	0.032696	NaN	0.000000	0.001635	0.001616	28.0828	0.051754	0.000866	59.7294	-85.6819	-163.234	-0.003392	0.000968	-1.100487	-1.101821	0.032696	59.7294	-1.100898	-5.153730E+14	-6.344183E-17	NaN
732	1.000000	0.012318	7.37221e+06	-40489.1	1005.82	-29789.8	0.000000	0.000000	6.012833	0.008356	NaN	0.000000	0.001629	0.001591	28.0823	0.006882	0.001293	5.323021	32.4809	18.002	0.081986	0.010882	-1.090472	-1.091908	0.008356	5.323021	-1.091649	-3.872208E+14	-2.157914E-17	NaN
732	1.000000	0.022224	7.37221e+06	-40489.1	1005.82	-29789.8	0.000000	0.000000	6.022739	0.001459	NaN	0.000000	0.001619	0.001589	28.0825	0.036181	0.001767	20.4703	-52.8138	-163.658	0.016684	0.020892	-1.080566	-1.081898	0.001459	20.4703	-1.080620	-2.753215E+14	-5.299329E-18	NaN
732	1.000000	0.032219	7.37221e+06	-40489.1	1005.82	-29789.8	0.000000	0.000000	6.032734	-0.011776	NaN	0.000000	0.001610	0.001632	28.0822	0.038923	0.001905	20.4276	71.9168	12.8924	0.063037	0.030903	-1.070571	-1.071887	-0.011776	20.4276	-1.070139	-1.990903E+14	5.914795E-17	NaN
732	1.000000	0.042212	7.37221e+06	-40489.1	1005.82	-29789.8	0.000000	0.000000	6.042728	0.014959	NaN	0.000000	0.001623	0.001624	28.0816	0.076179	0.001952	39.0211	-105.056	-161.441	-0.000135	0.040870	-1.060578	-1.061920	0.014959	39.0211	-1.060866	-1.494357E+14	-1.001062E-16	NaN
732	1.000000	0.052232	7.37221e+06	-40489.1	1005.82	-29789.8	0.000000	0.000000	6.052748	0.024431	NaN	0.000000	0.001648	0.001655	28.0813	0.093054	0.002026	45.9293	128.693	15.454	-0.019460	0.050837	-1.050558	-1.051952	0.024431	45.9293	-1.050957	-1.099706E+14	-2.221580E-16	NaN
732	1.000000	0.062262	7.37221e+06	-40489.1	1005.82	-29789.8	0.000000	0.000000	6.062779	0.039975	NaN	0.000000	0.001658	0.001667	28.0812	0.027030	0.002036	13.2761	-152.491	-166.675	0.061820	0.060925	-1.040528	-1.041864	0.039975	13.2761	-1.042786	-8.539523E+13	-4.681214E-16	NaN
732	1.000000	0.072245	7.37221e+06	-40489.1	1005.82	-29789.8	0.000000	0.000000	6.072762	0.022086	NaN	0.000000	0.001675	0.001628	28.0811	0.094694	0.001936	48.9022	92.855	17.5871	0.018291	0.070858	-1.030544	-1.031932	0.022086	48.9022	-1.030883	-5.906899E+13	-3.738943E-16	NaN
732	1.000000	0.082202	7.37221e+06	-40489.1	1005.82	-29789.8	0.000000	0.000000	6.082717	-0.007636	NaN	0.000000	0.001647	0.001641	28.0812	0.087519	0.001975	44.3082	38.3244	-166.425	-0.052888	0.080906	-1.020587	-1.021883	-0.007636	44.3082	-1.020458	-4.276771E+13	1.785448E-16	NaN
732	1.000000	0.092251	7.37221e+06	-40489.1	1005.82	-29789.8	0.000000	0.000000	6.092770	0.087431	NaN	0.000000	0.001614	0.001664	28.0811	0.066102	0.001946	33.9624	-121.616	16.2114	0.025011	0.090900	-1.010539	-1.011889	0.087431	33.9624	-1.012470	-3.339014E+13	-2.618475E-15	NaN
732	1.000000	0.102276	7.37221e+06	-40489.1	1005.82	-29789.8	0.000000	0.000000	6.102789	-0.037800	NaN	0.000000	0.001616	0.001685	28.0812	0.073394	0.002132	34.4201	153.509	-161.978	-0.026771	0.100993	-1.000514	-1.001797	-0.037800	34.4201	-0.999691	-2.246996E+13	1.682256E-15	NaN
732	1.000000	0.112262	7.37221e+06	-40489.1	1005.82	-29789.8	0.000000	0.000000	6.112781	0.084901	NaN	0.000000	0.001631	0.001643	28.0812	0.053626	0.001944	27.5839	74.5024	11.8543	0.056269	0.110915	-0.990528	-0.991875	0.084901	27.5839	-0.992836	-1.816790E+13	-4.673135E-15	NaN
732	1.000000	0.122238	7.37221e+06	-40489.1	1005.82	-29789.8	0.000000	0.000000	6.122756	0.081146	NaN	0.000000	0.001686	0.001658	28.0813	0.059511	0.001956	30.4302	-157.761	-164.247	0.018735	0.120934	-0.980552	-0.981856	0.081146	30.4302	-0.982552	-1.320659E+13	-6.144355E-15	NaN
732	1.000000	0.132255	7.37221e+06	-40489.1	1005.82	-29789.8	0.000000	0.000000	6.132771	0.012352	NaN	0.000000	0.001656	0.001654	28.0813	0.110951	0.001964	56.5014	-124.423	16.8416	0.027665	0.130845	-0.970534	-0.971944	0.012352	56.5014	-0.970698	-9.142725E+12	-1.351006E-15	NaN
732	1.000000	0.142245	7.37221e+06	-40489.1	1005.82	-29789.8	0.000000	0.000000	6.142761	0.016892	NaN	0.000000	0.001652	0.001651	28.0812	0.044863	0.001945	23.0716	13.0487	-164.555	-0.014423	0.140971	-0.960545	-0.961819	0.016892	23.0716	-0.961094	-6.786025E+12	-2.489267E-15	NaN
732	1.000000	0.152255	7.37221e+06	-40489.1	1005.82	-29789.8	0.000000	0.000000	6.152770	0.004693	NaN	0.000000	0.001613	0.001639	28.0813	0.102011	0.001850	55.1527	-19.1611	14.9859	0.007634	0.150880	-0.950535	-0.951910	0.004693	55.1527	-0.950599	-4.898928E+12	-9.579202E-16	NaN
732	1.000000	0.162281	7.37221e+06	-40489.1	1005.82	-29789.8	0.000000	0.000000	6.162796	-0.021656	NaN	0.000000	0.001640	0.001628	28.0812	0.117076	0.002103	55.658	78.5173	-167.121	-0.032873	0.160939	-0.940508	-0.941850	-0.021656	55.658	-0.940217	-3.548621E+12	6.102724E-15	NaN
732	1.000000	0.172286	7.37221e+06	-40489.1	1005.82	-29789.8	0.000000	0.000000	6.172802	-0.002902	NaN	0.000000	0.001616	0.001670	28.0825	0.141639	0.002051	69.0426	80.4197	15.1954	0.061802	0.170942	-0.930503	-0.931847	-0.002902	69.0426	-0.930472	-2.621600E+12	1.106965E-15	NaN
732	1.000000	0.182278	7.37222e+06	-40489.1	1005.82	-29789.8	0.000000	0.000000	6.182794	0.006137	NaN	0.000000	0.001651	0.001716	28.0825	0.063942	0.002043	31.295	-87.9984	-168.495	0.019865	0.180966	-0.920511	-0.921824	0.006137	31.295	-0.920659	-1.932400E+12	-3.175784E-15	NaN
732	1.000000	0.192259	7.37222e+06	-40489.1	1005.82	-29789.8	0.000000	0.000000	6.192776	0.028239	NaN	0.000000	0.001646	0.001643	28.0824	0.084681	0.001949	43.4494	38.2854	16.9957	-0.038622	0.190952	-0.910531	-0.911838	0.028239	43.4494	-0.911018	-1.431898E+12	-1.972108E-14	NaN
732	1.000000	0.202305	7.37222e+06	-40489.1	1005.82	-29789.8	0.000000	0.000000	6.202820	-0.001126	NaN	0.000000	0.001630	0.001641	28.0824	0.104873	0.001885	55.6267	57.3275	-164.565	0.029885	0.200985	-0.900485	-0.901804	-0.001126	55.6267	-0.900470	-1.031373E+12	1.091466E-15	NaN
732	1.000000	0.212276	7.37222e+06	-40489.1	1005.82	-29789.8	0.000000	0.000000	6.212791	-0.027165	NaN	0.000000	0.001670	0.001616	28.0824	0.100070	0.001951	51.2914	128.931	13.4626	0.034115	0.210949	-0.890513	-0.891841	-0.027165	51.2914	-0.890116	-7.472859E+11	3.635127E-14	NaN
732	1.000000	0.222289	7.37222e+06	-40489.1	1005.82	-29789.8	0.000000	0.000000	6.222807	0.063751	NaN	0.000000	0.001653	0.001673	28.0828	0.005778	0.001921	3.008232	-132.595	-167.199	0.050300	0.221006	-0.880501	-0.881784	0.063751	3.008232	-0.896395	-9.085532E+11	-7.016813E-14	NaN
732	1.000000	0.232298	7.37222e+06	-40489.1	1005.82	-29789.8	0.000000	0.000000	6.232814	0.019262	NaN	0.000000	0.001659	0.001689	28.0823	0.071097	0.002001	35.5334	-159.723	13.8289	0.020781	0.230900	-0.870492	-0.871889	0.019262	35.5334	-0.870899	-4.107724E+11	-4.689200E-14	NaN
732	1.000000	0.242285	7.37222e+06	-40489.1	1005.82	-29789.8	0.000000	0.000000	6.242800	-0.012997	NaN	0.000000	0.001682	0.001699	28.0828	0.067725	0.001920	35.2706	-9.278897	-169.643	0.055530	0.240991	-0.860505	-0.861799	-0.012997	35.2706	-0.860229	-2.945890E+11	4.411884E-14	NaN
732	1.000000	0.252307	7.37222e+06	-40489.1	1005.82	-29789.8	0.000000	0.000000	6.252824	0.030500	NaN	0.000000	0.001673	0.001703	28.0824	0.133825	0.002082	64.2801	101.045	9.751971	0.019062	0.250977	-0.850483	-0.851813	0.030500	64.2801	-0.850839	-2.198327E+11	-1.387419E-13	NaN
732	1.000000	0.262320	7.37222e+06	-40489.1	1005.82	-29789.8	0.000000	0.000000	6.262837	0.033796	NaN	0.000000	0.001693	0.001690	28.0827	0.064541	0.001964	32.8617	-37.9706	-164.821	0.054270	0.260979	-0.840470	-0.841810	0.033796	32.8617	-0.841241	-1.629689E+11	-2.073777E-13	NaN
732	1.000000	0.272308	7.37222e+06	-40489.1	1005.82	-29789.8	0.000000	0.000000	6.272826	0.052653	NaN	0.000000	0.001711	0.001674	28.0823	0.139611	0.002067	67.5504	-8.871887	16.8836	0.002625	0.271041	-0.830481	-0.831749	0.052653	67.5504	-0.831066	-1.186399E+11	-4.438065E-13	NaN
732	1.000000	0.282337	7.37222e+06	-40489.1	1005.82	-29789.8	0.000000	0.000000	6.282853	0.027872	NaN	0.000000	0.001622	0.001662	28.0824	0.041074	0.001988	20.6645	-132.082	-163.879	0.017276	0.280977	-0.820453	-0.821813	0.027872	20.6645	-0.821465	-8.791716E+10	-3.170209E-13	NaN
732	1.000000	0.292334	7.37222e+06	-40489.1	1005.82	-29789.8	0.000000	0.000000	6.292850	0.014106	NaN	0.000000	0.001637	0.001694	28.0825	0.076318	0.002057	37.0982	64.2626	19.1765	0.033689	0.290980	-0.810456	-0.811810	0.014106	37.0982	-0.810741	-6.289562E+10	-2.242820E-13	NaN
732	1.000000	0.302331	7.37222e+06	-40489.1	1005.82	-29789.8	0.000000	0.000000	6.302847	0.018586	NaN	0.000000	0.001660	0.001615	28.0827	0.093950	0.001936	48.529	0.017189	-164.77	0.119660	0.300998	-0.800459	-0.801792	0.018586	48.529	-0.800746	-4.602496E+10	-4.038209E-13	NaN
732	1.000000	0.312330	7.37222e+06	-40489.1	1005.82	-29789.8	0.000000	0.000000	6.312846	0.013520	NaN	0.000000	0.001600	0.001616	28.0813	0.148448	0.001959	75.7732	119.272	18.0056	-0.009296	0.310994	-0.790460	-0.791795	0.013520	75.7732	-0.790594	-3.350796E+10	-4.034732E-13	NaN
732	1.000000	0.322327	7.37222e+06	-40489.1	1005.82	-29789.8	0.000000	0.000000	6.322843	0.014616	NaN	0.000000	0.001576	0.001658	28.081	0.032754	0.001932	16.9494	9.957602	-165.654	-0.014741	0.321035	-0.780462	-0.781754	0.014616	16.9494	-0.781109	-2.490592E+10	-5.868351E-13	NaN
732	1.000000	0.332373	7.37222e+06	-40489.1	1005.82	-29789.8	0.000000	0.000000	6.332892	0.077524	NaN	0.000000	0.001603	0.001652	28.0814	0.071427	0.001965	36.3486	-71.9411	16.3503	0.003786	0.331030	-0.770416	-0.771760	0.077524	36.3486	-0.772016	-1.873750E+10	-4.137349E-12	NaN
732	1.000000	0.342336	7.37222e+06	-40489.1	1005.82	-29789.8	0.000000	0.000000	6.342853	0.050097	NaN	0.000000	0.001614	0.001700	28.0813	0.058985	0.002047	28.8121	31.0683	-166.266	0.009959	0.341068	-0.760454	-0.761722	0.050097	28.8121	-0.761758	-1.359002E+10	-3.686336E-12	NaN
732	1.000000	0.352361	7.37222e+06	-40489.1	1005.82	-29789.8	0.000000	0.000000	6.352878	0.029041	NaN	0.000000	0.001600	0.001621	28.0812	0.101406	0.002005	50.5681	118.034	14.8754	-0.013229	0.351042	-0.750428	-0.751747	0.029041	50.5681	-0.750859	-9.658550E+9	-3.006767E-12	NaN
732	1.000000	0.362371	7.37222e+06	-40489.1	1005.82	-29789.8	0.000000	0.000000	6.362888	0.044719	NaN	0.000000	0.001645	0.001630	28.0812	0.021476	0.002094	10.2539	-148.923	-166.205	0.044954	0.361080	-0.740419	-0.741709	0.044719	10.2539	-0.743690	-7.714478E+9	-5.796707E-12	NaN
732	1.000000	0.372364	7.37222e+06	-40489.1	1005.82	-29789.8	0.000000	0.000000	6.372884	0.115129	NaN	0.000000	0.001612	0.001646	28.0814	0.011144	0.002002	5.565851	119.292	14.1648	0.028999	0.371003	-0.730426	-0.731786	0.115129	5.565851	-0.745939	-8.278218E+9	-1.390746E-11	NaN
732	1.000000	0.382390	7.37222e+06	-40489.1	1005.82	-29789.8	0.000000	0.000000	6.382907	0.050857	NaN	0.000000	0.001647	0.001657	28.0813	0.073788	0.001899	38.8518	4.018233	-163.806	0.019581	0.381077	-0.720400	-0.721713	0.050857	38.8518	-0.721382	-3.831048E+9	-1.327488E-11	NaN
732	1.000000	0.392378	7.37222e+06	-40489.1	1005.82	-29789.8	0.000000	0.000000	6.392896	0.059639	NaN	0.000000	0.001653	0.001665	28.0809	0.156470	0.002023	77.3423	12.2112	16.66	0.112697	0.390991	-0.710412	-0.711799	0.059639	77.3423	-0.710990	-2.764125E+9	-2.157593E-11	NaN
732	1.000000	0.402394	7.37222e+06	-40489.1	1005.82	-29789.8	0.000000	0.000000	6.402911	0.052930	NaN	0.000000	0.001676	0.001640	28.0812	0.068448	0.002057	33.272	-116.664	-163.743	0.034044	0.401086	-0.700396	-0.701703	0.052930	33.272	-0.701589	-2.056988E+9	-2.573186E-11	NaN
732	1.000000	0.412356	7.37222e+06	-40489.1	1005.82	-29789.8	0.000000	0.000000	6.412872	0.024166	NaN	0.000000	0.001695	0.001646	28.0814	0.091513	0.002034	44.9966	34.4487	13.5675	0.035374	0.411050	-0.690434	-0.691740	0.024166	44.9966	-0.690837	-1.466737E+9	-1.647611E-11	NaN
732	1.000000	0.422382	7.37222e+06	-40489.1	1005.82	-29789.8	0.000000	0.000000	6.422898	0.003393	NaN	0.000000	0.001695	0.001631	28.0812	0.062483	0.002004	31.1777	67.205	-164.259	0.037071	0.421045	-0.680407	-0.681744	0.003393	31.1777	-0.680489	-1.058990E+9	-3.203756E-12	NaN
732	1.000000	0.432394	7.37222e+06	-40489.1	1005.82	-29789.8	0.000000	0.000000	6.432912	0.072453	NaN	0.000000	0.001707	0.001639	28.0813	0.079760	0.001880	42.4166	80.5711	9.500991	0.103195	0.431046	-0.670396	-0.671744	0.072453	42.4166	-0.671677	-8.023103E+8	-9.030513E-11	NaN
732	1.000000	0.442413	7.37222e+06	-40489.1	1005.82	-29789.8	0.000000	0.000000	6.442926	-0.058811	NaN	0.000000	0.001700	0.001649	28.0817	0.058683	0.002042	28.7417	-153.255	-163.767	-0.079531	0.441136	-0.660377	-0.661653	-0.058811	28.7417	-0.658843	-5.353203E+8	1.098610E-10	NaN
732	1.000000	0.452401	7.37222e+06	-40489.1	1005.82	-29789.8	0.000000	0.000000	6.452921	0.095502	NaN	0.000000	0.001658	0.001666	28.0827	0.144486	0.001991	72.568	-35.4321	10.7573	0.043135	0.451078	-0.650388	-0.651712	0.095502	72.568	-0.651375	-4.229505E+8	-2.258003E-10	NaN
732	1.000000	0.462438	7.37222e+06	-40489.1	1005.82	-29789.8	0.000000	0.000000	6.462953	-0.016095	NaN	0.000000	0.001693	0.001637	28.0825	0.127284	0.002058	61.8334	-84.2843	-164.849	-0.032610	0.461091	-0.640352	-0.641698	-0.016095	61.8334	-0.640156	-2.967806E+8	5.423243E-11	NaN
732	1.000000	0.472382	7.37222e+06	-40489.1	1005.82	-29789.8	0.000000	0.000000	6.472898	0.020923	NaN	0.000000	0.001700	0.001678	28.0826	0.047535	0.002042	23.2733	-41.2629	13.6634	0.073150	0.471053	-0.630408	-0.631737	0.020923	23.2733	-0.631082	-2.227848E+8	-9.391512E-11	NaN
732	1.000000	0.482393	7.37222e+06	-40489.1	1005.82	-29789.8	0.000000	0.000000	6.482906	-0.044876	NaN	0.000000	0.001734	0.001636	28.0825	0.068121	0.002109	32.2974	48.3201	-164.188	0.062662	0.481080	-0.620397	-0.621710	-0.044876	32.2974	-0.619355	-1.537335E+8	2.919094E-10	NaN
732	1.000000	0.492401	7.37222e+06	-40489.1	1005.82	-29789.8	0.000000	0.000000	6.492915	-0.034092	NaN	0.000000	0.001705	0.001644	28.0828	0.119674	0.001984	60.3091	57.9509	16.0938	-0.050626	0.491042	-0.610388	-0.611748	-0.034092	60.3091	-0.609965	-1.141894E+8	2.985581E-10	NaN
732	1.000000	0.502426	7.37222e+06	-40489.1	1005.82	-29789.8	0.000000	0.000000	6.502941	-0.030543	NaN	0.000000	0.001721	0.001647	28.0826	0.031609	0.002026	15.6045	-168.154	-165.39	-0.023238	0.501101	-0.600363	-0.601689	-0.030543	15.6045	-0.598895	-8.039801E+7	3.799000E-10	NaN
732	1.000000	0.512432	7.37222e+06	-40489.1	1005.82	-29789.8	0.000000	0.000000	6.512949	0.040499	NaN	0.000000	0.001682	0.001641	28.0826	0.027613	0.002025	13.6382	149.361	11.3642	0.043469	0.511110	-0.590357	-0.591679	0.040499	13.6382	-0.592585	-6.581050E+7	-6.153894E-10	NaN
732	1.000000	0.522448	7.37222e+06	-40489.1	1005.82	-29789.8	0.000000	0.000000	6.522963	-0.009023	NaN	0.000000	0.001622	0.001658	28.0829	0.066775	0.002043	32.6825	99.0527	-164.163	0.048919	0.521105	-0.580342	-0.581684	-0.009023	32.6825	-0.580134	-4.431811E+7	2.036039E-10	NaN
732	1.000000	0.532452	7.37222e+06	-40489.1	1005.82	-29789.8	0.000000	0.000000	6.532968	0.020619	NaN	0.000000	0.001664	0.001649	28.0825	0.056958	0.002020	28.1947	-92.8812	16.263	0.018940	0.531090	-0.570338	-0.571700	0.020619	28.1947	-0.570886	-3.302737E+7	-6.243034E-10	NaN
732	1.000000	0.542449	7.37222e+06	-40489.1	1005.82	-29789.8	0.000000	0.000000	6.542965	0.010592	NaN	0.000000	0.001607	0.001648	28.0825	0.053568	0.002004	26.7364	77.3915	-165.154	0.012346	0.541165	-0.560340	-0.561625	0.010592	26.7364	-0.560637	-2.383386E+7	-4.444199E-10	NaN
732	1.000000	0.552453	7.37222e+06	-40489.1	1005.82	-29789.8	0.000000	0.000000	6.552968	-0.006568	NaN	0.000000	0.001608	0.001678	28.0826	0.118307	0.002020	58.5574	-58.1947	15.3049	0.019429	0.551068	-0.550337	-0.551722	-0.006568	58.5574	-0.550253	-1.711821E+7	3.836664E-10	NaN
732	1.000000	0.562414	7.37222e+06	-40489.1	1005.82	-29789.8	0.000000	0.000000	6.562931	0.043575	NaN	0.000000	0.001565	0.001658	28.0827	0.086942	0.001920	45.2716	-59.9944	-164.732	-0.024090	0.561185	-0.540376	-0.541605	0.043575	45.2716	-0.541098	-1.278144E+7	-3.409251E-9	NaN
732	1.000000	0.572453	7.37222e+06	-40489.1	1005.82	-29789.8	0.000000	0.000000	6.572967	-0.042029	NaN	0.000000	0.001660	0.001680	28.0826	0.137414	0.001939	70.8625	86.5307	14.0776	0.060822	0.571098	-0.530336	-0.531691	-0.042029	70.8625	-0.529891	-8.93444e+06	4.704158E-9	NaN
732	1.000000	0.582449	7.37222e+06	-40489.1	1005.82	-29789.8	0.000000	0.000000	6.582962	-0.052780	NaN	0.000000	0.001644	0.001660	28.0814	0.095458	0.002110	45.2401	-71.8744	-166.262	-0.027277	0.581188	-0.520341	-0.521602	-0.052780	45.2401	-0.519466	-6.39983e+06	8.247165E-9	NaN
732	1.000000	0.592474	7.37222e+06	-40489.1	1005.82	-29789.8	0.000000	0.000000	6.592988	-0.019706	NaN	0.000000	0.001661	0.001633	28.0816	0.108173	0.002052	52.7097	-142.979	15.6276	-0.025027	0.591128	-0.510316	-0.511661	-0.019706	52.7097	-0.510036	-4.73057e+06	4.165630E-9	NaN
732	1.000000	0.602476	7.37222e+06	-40489.1	1005.82	-29789.8	0.000000	0.000000	6.602991	-0.006517	NaN	0.000000	0.001626	0.001658	28.0813	0.016691	0.002036	8.198949	88.47	-168.284	0.037315	0.601124	-0.500314	-0.501666	-0.006517	8.198949	-0.499718	-3.3969e+06	1.918565E-9	NaN
732	1.000000	0.612468	7.37222e+06	-40489.1	1005.82	-29789.8	0.000000	0.000000	6.612983	-0.020703	NaN	0.000000	0.001662	0.001637	28.0813	0.088673	0.002076	42.7034	87.7523	15.3623	-0.002366	0.611107	-0.490322	-0.491682	-0.020703	42.7034	-0.489958	-2.48203e+06	8.341231E-9	NaN
732	1.000000	0.622453	7.37222e+06	-40489.1	1005.82	-29789.8	0.000000	0.000000	6.622967	-0.045598	NaN	0.000000	0.001609	0.001639	28.0814	0.025224	0.001967	12.8208	-115.4	-165.544	0.010119	0.621187	-0.480337	-0.481603	-0.045598	12.8208	-0.477669	-1.67068e+06	2.729322E-8	NaN
732	1.000000	0.632460	7.37222e+06	-40489.1	1005.82	-29789.8	0.000000	0.000000	6.632978	0.063286	NaN	0.000000	0.001589	0.001605	28.0815	0.039962	0.001909	20.9332	63.3897	14.2634	-0.086607	0.631096	-0.470329	-0.471694	0.063286	20.9332	-0.472597	-1.41847e+06	-4.461560E-8	NaN
732	1.000000	0.642508	7.37222e+06	-40489.1	1005.82	-29789.8	0.000000	0.000000	6.643023	-0.011340	NaN	0.000000	0.001563	0.001616	28.0816	0.090256	0.002008	44.9526	26.2327	-162.439	0.041844	0.641160	-0.460282	-0.461630	-0.011340	44.9526	-0.460093	-946938	1.197541E-8	NaN
732	1.000000	0.652478	7.37222e+06	-40489.1	1005.82	-29789.8	0.000000	0.000000	6.652995	0.028285	NaN	0.000000	0.001559	0.001621	28.0815	0.036244	0.002113	17.1564	134.519	16.7058	-0.006491	0.651110	-0.450312	-0.451680	0.028285	17.1564	-0.451548	-718024	-3.939220E-8	NaN
732	1.000000	0.662491	7.37222e+06	-40489.1	1005.82	-29789.8	0.000000	0.000000	6.663008	0.028130	NaN	0.000000	0.001599	0.001648	28.0819	0.095119	0.002013	47.2529	119.016	-165.337	0.026856	0.661140	-0.440298	-0.441650	0.028130	47.2529	-0.440745	-505677	-5.562804E-8	NaN
732	1.000000	0.672505	7.37222e+06	-40489.1	1005.82	-29789.8	0.000000	0.000000	6.673022	0.040017	NaN	0.000000	0.001589	0.001655	28.0817	0.042271	0.002030	20.8245	-27.6491	14.616	0.069569	0.671133	-0.430285	-0.431657	0.040017	20.8245	-0.431726	-377113	-1.061145E-7	NaN
732	1.000000	0.682503	7.37222e+06	-40489.1	1005.82	-29789.8	0.000000	0.000000	6.683021	0.043721	NaN	0.000000	0.001583	0.001632	28.0814	0.101905	0.002014	50.5885	102.933	-165.842	0.046478	0.681150	-0.420286	-0.421640	0.043721	50.5885	-0.420934	-265257	-1.648253E-7	NaN
732	1.000000	0.692507	7.37222e+06	-40489.1	1005.82	-29789.8	0.000000	0.000000	6.693026	0.083701	NaN	0.000000	0.001605	0.001649	28.0812	0.046315	0.001948	23.7782	-134.195	15.1371	0.083649	0.691164	-0.410282	-0.411626	0.083701	23.7782	-0.412922	-204147	-4.100053E-7	NaN
732	1.000000	0.702498	7.37222e+06	-40489.1	1005.82	-29789.8	0.000000	0.000000	6.703015	0.021983	NaN	0.000000	0.001581	0.001665	28.0819	0.118468	0.001900	62.3388	109.565	-171.669	0.047425	0.701183	-0.400291	-0.401607	0.021983	62.3388	-0.400556	-136120	-1.614963E-7	NaN
732	1.000000	0.712483	7.37222e+06	-40489.1	1005.82	-29789.8	0.000000	0.000000	6.713001	0.075798	NaN	0.000000	0.001580	0.001616	28.0812	0.091090	0.001915	47.5601	47.7466	12.6837	0.039966	0.711169	-0.390307	-0.391621	0.075798	47.5601	-0.391502	-101076	-7.499084E-7	NaN
732	1.000000	0.722518	7.37222e+06	-40489.1	1005.82	-29789.8	0.000000	0.000000	6.723035	0.034658	NaN	0.000000	0.001595	0.001625	28.0827	0.093207	0.002016	46.2328	-164.901	-162.901	-0.049527	0.721209	-0.380272	-0.381581	0.034658	46.2328	-0.380834	-71097.6	-4.874770E-7	NaN
732	1.000000	0.732505	7.37222e+06	-40489.1	1005.82	-29789.8	0.000000	0.000000	6.733021	0.006518	NaN	0.000000	0.001596	0.001628	28.0824	0.118934	0.002021	58.8587	139.788	12.908	0.015222	0.731150	-0.370284	-0.371640	0.006518	58.8587	-0.370367	-50282.6	-1.296294E-7	NaN
732	1.000000	0.742525	7.37222e+06	-40489.1	1005.82	-29789.8	0.000000	0.000000	6.743040	-0.005766	NaN	0.000000	0.001606	0.001606	28.083	0.023846	0.002023	11.785	162.869	-164.751	-0.016303	0.741200	-0.360265	-0.361589	-0.005766	11.785	-0.359898	-35511.3	1.623695E-7	NaN
732	1.000000	0.752540	7.37222e+06	-40489.1	1005.82	-29789.8	0.000000	0.000000	6.753057	0.031347	NaN	0.000000	0.001597	0.001630	28.0822	0.067599	0.001996	33.8706	-28.0786	11.739	0.009239	0.751231	-0.350250	-0.351559	0.031347	33.8706	-0.350944	-26344.9	-1.189886E-6	NaN
732	1.000000	0.762538	7.37222e+06	-40489.1	1005.82	-29789.8	0.000000	0.000000	6.763053	-0.008940	NaN	0.000000	0.001583	0.001613	28.0825	0.064121	0.002043	31.3806	-92.3523	-164.647	0.064956	0.761274	-0.340252	-0.341516	-0.008940	31.3806	-0.340038	-18285.6	4.889022E-7	NaN
732	1.000000	0.772570	7.37222e+06	-40489.1	1005.82	-29789.8	0.000000	0.000000	6.773087	0.035830	NaN	0.000000	0.001591	0.001619	28.0824	0.098579	0.001892	52.1076	21.0002	13.5535	0.018798	0.771164	-0.330220	-0.331626	0.035830	52.1076	-0.330736	-13372.8	-2.679304E-6	NaN
732	1.000000	0.782563	7.37222e+06	-40489.1	1005.82	-29789.8	0.000000	0.000000	6.783080	0.020292	NaN	0.000000	0.001585	0.001639	28.0828	0.113981	0.002040	55.8735	-96.3701	-168.716	0.021823	0.781251	-0.320226	-0.321539	0.020292	55.8735	-0.320499	-9461.88	-2.144560E-6	NaN
732	1.000000	0.792544	7.37222e+06	-40489.1	1005.82	-29789.8	0.000000	0.000000	6.793062	0.053425	NaN	0.000000	0.001625	0.001683	28.0823	0.093763	0.001912	49.0379	-74.1541	13.337	0.060066	0.791175	-0.310246	-0.311615	0.053425	49.0379	-0.311063	-6867.2	-7.779808E-6	NaN
732	1.000000	0.802549	7.37222e+06	-40489.1	1005.82	-29789.8	0.000000	0.000000	6.803064	-0.002297	NaN	0.000000	0.001620	0.001653	28.0826	0.027490	0.002079	13.2217	138.273	-165.322	0.009346	0.801226	-0.300241	-0.301563	-0.002297	13.2217	-0.300111	-4723.73	4.862931E-7	NaN
732	1.000000	0.812552	7.37222e+06	-40489.1	1005.82	-29789.8	0.000000	0.000000	6.813068	0.005460	NaN	0.000000	0.001643	0.001661	28.0833	0.029211	0.002040	14.3195	-131.04	13.0407	-0.069046	0.811205	-0.290237	-0.291585	0.005460	14.3195	-0.290523	-3397.35	-1.607278E-6	NaN
732	1.000000	0.822566	7.37222e+06	-40489.1	1005.82	-29789.8	0.000000	0.000000	6.823082	-0.002894	NaN	0.000000	0.001637	0.001686	28.0824	0.049400	0.002044	24.1637	103.031	-164.979	0.007633	0.821237	-0.280223	-0.281552	-0.002894	24.1637	-0.280134	-2371.3	1.220502E-6	NaN
732	1.000000	0.832538	7.37222e+06	-40489.1	1005.82	-29789.8	0.000000	0.000000	6.833055	0.040941	NaN	0.000000	0.001636	0.001649	28.0823	0.091784	0.002014	45.5678	-91.7178	13.6855	0.084581	0.831179	-0.270252	-0.271611	0.040941	45.5678	-0.270925	-1720.31	-2.379850E-5	NaN
732	1.000000	0.842568	7.37222e+06	-40489.1	1005.82	-29789.8	0.000000	0.000000	6.843084	0.017881	NaN	0.000000	0.001590	0.001656	28.0828	0.058049	0.001996	29.0806	-57.4162	-166.352	0.109748	0.841198	-0.260222	-0.261592	0.017881	29.0806	-0.260683	-1200.55	-1.489363E-5	NaN
732	1.000000	0.852591	7.37222e+06	-40489.1	1005.82	-29789.8	0.000000	0.000000	6.853108	0.043135	NaN	0.000000	0.001646	0.001663	28.082	0.071705	0.001960	36.5906	-0.239039	16.1404	0.040738	0.851198	-0.250199	-0.251591	0.043135	36.5906	-0.251083	-854.484	-5.048051E-5	NaN
732	1.000000	0.862571	7.37222e+06	-40489.1	1005.82	-29789.8	0.000000	0.000000	6.863087	0.022468	NaN	0.000000	0.001684	0.001655	28.0814	0.090430	0.001954	46.2808	-119.974	-166.664	-0.000369	0.861304	-0.240219	-0.241485	0.022468	46.2808	-0.240583	-587.023	-3.827395E-5	NaN
732	1.000000	0.872605	7.37222e+06	-40489.1	1005.82	-29789.8	0.000000	0.000000	6.873124	0.074834	NaN	0.000000	0.001642	0.001631	28.0814	0.070579	0.002026	34.8438	-125.252	14.9565	0.110209	0.871182	-0.230184	-0.231608	0.074834	34.8438	-0.231795	-427.4	-0.000175	NaN
732	1.000000	0.882584	7.37222e+06	-40489.1	1005.82	-29789.8	0.000000	0.000000	6.883101	0.031310	NaN	0.000000	0.001638	0.001667	28.0813	0.101068	0.001959	51.5814	-57.6524	-167.029	-0.004939	0.881310	-0.220206	-0.221479	0.031310	51.5814	-0.220661	-284.598	-0.000110	NaN
732	1.000000	0.892582	7.37222e+06	-40489.1	1005.82	-29789.8	0.000000	0.000000	6.893098	0.031378	NaN	0.000000	0.001658	0.001681	28.0813	0.057925	0.002080	27.8504	145.899	16.7764	0.098544	0.891253	-0.210208	-0.211536	0.031378	27.8504	-0.211053	-199.461	-0.000157	NaN
732	1.000000	0.902600	7.37222e+06	-40489.1	1005.82	-29789.8	0.000000	0.000000	6.903115	-0.011429	NaN	0.000000	0.001647	0.001650	28.0811	0.038115	0.002094	18.2027	54.9978	-165.476	0.026510	0.901259	-0.200190	-0.201531	-0.011429	18.2027	-0.199719	-130.342	8.768457E-5	NaN
732	1.000000	0.912589	7.37222e+06	-40489.1	1005.82	-29789.8	0.000000	0.000000	6.913104	-0.004178	NaN	0.000000	0.001670	0.001638	28.0815	0.094197	0.002054	45.8657	40.8926	18.0754	-0.002957	0.911264	-0.190200	-0.191526	-0.004178	45.8657	-0.190132	-90.4141	4.620690E-5	NaN
732	1.000000	0.922581	7.37222e+06	-40489.1	1005.82	-29789.8	0.000000	0.000000	6.923095	-0.037152	NaN	0.000000	0.001687	0.001652	28.0813	0.059715	0.002058	29.013	91.3652	-164.063	0.020187	0.921277	-0.180209	-0.181513	-0.037152	29.013	-0.179248	-59.2477	0.000627	NaN
732	1.000000	0.932589	7.37222e+06	-40489.1	1005.82	-29789.8	0.000000	0.000000	6.933106	0.043390	NaN	0.000000	0.001630	0.001658	28.0816	0.071255	0.002099	33.9461	-84.9991	12.5233	-0.044648	0.931255	-0.170201	-0.171535	0.043390	33.9461	-0.171160	-43.0256	-0.001008	NaN
732	1.000000	0.942597	7.37222e+06	-40489.1	1005.82	-29789.8	0.000000	0.000000	6.943113	0.002095	NaN	0.000000	0.001659	0.001614	28.0814	0.119696	0.001967	60.8553	71.3362	-166.758	0.026726	0.941304	-0.160192	-0.161485	0.002095	60.8553	-0.160218	-27.6605	-7.575775E-5	NaN
732	1.000000	0.952611	7.37222e+06	-40489.1	1005.82	-29789.8	0.000000	0.000000	6.953126	-0.002723	NaN	0.000000	0.001624	0.001653	28.0815	0.045918	0.002018	22.7597	-90.5204	16.1166	-0.043835	0.951238	-0.150179	-0.151552	-0.002723	22.7597	-0.150089	-18.1817	0.000150	NaN
732	1.000000	0.962608	7.37222e+06	-40489.1	1005.82	-29789.8	0.000000	0.000000	6.963123	-0.007970	NaN	0.000000	0.001640	0.001632	28.0812	0.121113	0.002167	55.8783	79.0738	-164.268	-0.059329	0.961301	-0.140181	-0.141489	-0.007970	55.8783	-0.140074	-11.8676	0.000672	NaN
732	1.000000	0.972607	7.37222e+06	-40489.1	1005.82	-29789.8	0.000000	0.000000	6.973125	0.070717	NaN	0.000000	0.001674	0.001640	28.0814	0.044239	0.002050	21.5819	-49.4765	13.1165	0.052956	0.971207	-0.130183	-0.131582	0.070717	21.5819	-0.132641	-8.571664	-0.008250	NaN
732	1.000000	0.982648	7.37222e+06	-40489.1	1005.82	-29789.8	0.000000	0.000000	6.983164	0.008070	NaN	0.000000	0.001634	0.001636	28.0813	0.011953	0.002048	5.835013	-40.041	-165.236	-0.071518	0.981302	-0.120142	-0.121488	0.008070	5.835013	-0.121179	-5.102980	-0.001582	NaN
732	1.000000	0.992627	7.37222e+06	-40489.1	1005.82	-29789.8	0.000000	0.000000	6.993143	0.025929	NaN	0.000000	0.001681	0.001607	28.0828	0.065234	0.002033	32.0826	69.9112	16.3359	0.083972	0.991204	-0.110163	-0.111585	0.025929	32.0826	-0.110769	-3.119332	-0.008312	NaN
732	1.000000	1.002639	7.37222e+06	-40489.1	1005.82	-29789.8	0.000000	0.000000	7.003153	-0.034058	NaN	0.000000	0.001602	0.001655	28.0829	0.132350	0.002047	64.6463	170.602	-165.069	0.045601	1.001356	-0.100151	-0.101434	-0.034058	64.6463	-0.099755	-1.804469	0.018874	NaN
732	1.000000	1.012621	7.37222e+06	-40489.1	1005.82	-29789.8	0.000000	0.000000	7.013136	-0.008150	NaN	0.000000	0.001629	0.001675	28.0826	0.035123	0.002001	17.5506	38.2197	12.36	-0.056519	1.011263	-0.090169	-0.091527	-0.008150	17.5506	-0.089820	-1.070531	0.007613	NaN
732	1.000000	1.022638	7.37222e+06	-40489.1	1005.82	-29789.8	0.000000	0.000000	7.023154	0.012683	NaN	0.000000	0.001670	0.001679	28.0825	0.066102	0.001920	34.4212	138.827	-166.27	-0.061812	1.021272	-0.080151	-0.081518	0.012683	34.4212	-0.080428	-0.634405	-0.019992	NaN
732	1.000000	1.032651	7.37222e+06	-40489.1	1005.82	-29789.8	0.000000	0.000000	7.033167	0.013747	NaN	0.000000	0.001665	0.001653	28.0827	0.027659	0.002093	13.2179	74.9416	13.7007	0.033819	1.031320	-0.070139	-0.071470	0.013747	13.2179	-0.070919	-0.360927	-0.038087	NaN
732	1.000000	1.042639	7.37222e+06	-40489.1	1005.82	-29789.8	0.000000	0.000000	7.043155	0.002962	NaN	0.000000	0.001660	0.001647	28.0828	0.068138	0.001908	35.7179	113.538	-164.164	-0.045549	1.041326	-0.060151	-0.061464	0.002962	35.7179	-0.060213	-0.182641	-0.016219	NaN
732	1.000000	1.052649	7.37222e+06	-40489.1	1005.82	-29789.8	0.000000	0.000000	7.053162	-0.058228	NaN	0.000000	0.001660	0.001628	28.0825	0.082290	0.001996	41.2356	27.2485	14.1145	-0.046293	1.051266	-0.050140	-0.051524	-0.058228	41.2356	-0.049081	-0.085587	0.680341	NaN
732	1.000000	1.062623	7.37222e+06	-40489.1	1005.82	-29789.8	0.000000	0.000000	7.063142	0.086312	NaN	0.000000	0.001667	0.001649	28.0826	0.104404	0.002110	49.4699	2.987080	-166.782	0.056768	1.061351	-0.040167	-0.041439	0.086312	49.4699	-0.041476	-0.050150	-1.721099	NaN
732	1.000000	1.072644	7.37222e+06	-40489.1	1005.82	-29789.8	0.000000	0.000000	7.073160	0.017780	NaN	0.000000	0.001674	0.001632	28.0827	0.121537	0.002031	59.8516	3.758203	15.6713	0.049055	1.071265	-0.030146	-0.031525	0.017780	59.8516	-0.030369	-0.023565	-0.754494	NaN
732	1.000000	1.082666	7.37222e+06	-40489.1	1005.82	-29789.8	0.000000	0.000000	7.083184	0.067558	NaN	0.000000	0.001663	0.001639	28.0825	0.057374	0.001949	29.4421	105.88	-165.626	0.117200	1.081345	-0.020124	-0.021445	0.067558	29.4421	-0.021845	-0.013993	-4.828011	NaN
732	1.000000	1.092655	7.37222e+06	-40489.1	1005.82	-29789.8	0.000000	0.000000	7.093171	0.015970	NaN	0.000000	0.001619	0.001630	28.0825	0.130405	0.002173	60.0229	157.305	12.6211	0.021334	1.091315	-0.010135	-0.011475	0.015970	60.0229	-0.010334	-0.006578	-2.427683	NaN
732	1.000000	1.102663	7.37222e+06	-40489.1	1005.82	-29789.8	0.000000	0.000000	7.103190	0.282271	NaN	0.000000	0.001638	0.001618	28.0824	0.470783	0.001932	243.69	23.1817	-165.091	0.123219	1.101334	-0.000127	-0.001455	0.282271	243.69	-0.000996	-0.000730	-386.7	NaN
732	2.000000	1.111696	7.37222e+06	-40489.1	1005.82	-29789.8	0.000000	0.000000	7.112542	8.046161	NaN	0.000000	0.001617	0.001666	28.0829	8.472778	0.001704	4970.96	8.285008	8.651855	7.627916	1.111151	0.008906	0.008361	8.046161	4970.96	0.007692	0.006727	1196.04	55372.2
732	2.000000	1.114273	7.37222e+06	-40489.1	1005.82	-29789.8	0.000000	0.000000	7.115242	11.0436	NaN	0.000000	0.001603	0.001655	28.0826	11.3799	0.001819	6256.09	6.920467	-172.28	11.197	1.113942	0.011483	0.011153	11.0436	6256.09	0.010159	0.009359	1180.01	59083.1
732	2.000000	1.116739	7.37222e+06	-40489.1	1005.82	-29789.8	0.000000	0.000000	7.117877	15.1518	NaN	0.000000	0.001620	0.001610	28.0816	13.536	0.001806	7496.53	7.743201	4.731435	14.3076	1.116363	0.013949	0.013573	15.1518	7496.53	0.012433	0.012013	1261.25	62488.7
732	2.000000	1.119155	7.37222e+06	-40489.1	1005.82	-29789.8	0.000000	0.000000	7.120540	21.1549	NaN	0.000000	0.001624	0.001661	28.0814	15.7371	0.001810	8692.39	4.317832	-173.427	20.105	1.118889	0.016365	0.016100	21.1549	8692.39	0.014540	0.014677	1441.41	65554.1
732	2.000000	1.121678	7.37222e+06	-40489.1	1005.82	-29789.8	0.000000	0.000000	7.123207	24.6609	NaN	0.000000	0.001660	0.001643	28.0819	18.5278	0.001807	10252.3	7.751345	0.987451	23.6447	1.121333	0.018889	0.018543	24.6609	10252.3	0.017085	0.018166	1357.5	69496.1
732	2.000000	1.124204	7.37222e+06	-40489.1	1005.82	-29789.8	0.000000	0.000000	7.125938	29.6347	NaN	0.000000	0.001677	0.001676	28.0815	20.9051	0.001751	11941.9	4.578638	-177.835	30.3252	1.123892	0.021415	0.021102	29.6347	11941.9	0.019553	0.021845	1356.56	73818.6
732	2.000000	1.126725	7.37222e+06	-40489.1	1005.82	-29789.8	0.000000	0.000000	7.128657	34.4507	NaN	0.000000	0.001714	0.001640	28.0816	22.555	0.001796	12560	1.692524	6.808651	34.3012	1.126327	0.023936	0.023537	34.4507	12560	0.021879	0.025581	1346.75	71747.7
732	2.000000	1.129145	7.37222e+06	-40489.1	1005.82	-29789.8	0.000000	0.000000	7.131386	42.0007	NaN	0.000000	0.001676	0.001644	28.0814	24.7764	0.001723	14377.5	4.779437	-178.401	40.7065	1.128859	0.026355	0.026069	42.0007	14377.5	0.024164	0.029513	1423.14	76462.8
732	2.000000	1.131668	7.37222e+06	-40489.1	1005.82	-29789.8	0.000000	0.000000	7.134228	49.7521	NaN	0.000000	0.001652	0.001652	28.0819	27.321	0.001753	15586.4	5.049530	0.776077	48.4298	1.131258	0.028878	0.028468	49.7521	15586.4	0.026484	0.033771	1473.21	77489.8
732	2.000000	1.134186	7.37222e+06	-40489.1	1005.82	-29789.8	0.000000	0.000000	7.136962	55.0164	NaN	0.000000	0.001593	0.001613	28.0813	29.9178	0.001811	16521.8	1.523302	-176.527	54.2297	1.133888	0.031396	0.031099	55.0164	16521.8	0.028899	0.038492	1429.3	76938.8
732	2.000000	1.136658	7.37222e+06	-40489.1	1005.82	-29789.8	0.000000	0.000000	7.139710	61.7367	NaN	0.000000	0.001604	0.001652	28.0815	32.1232	0.001705	18839	2.125335	1.561016	59.4109	1.136292	0.033868	0.033503	61.7367	18839	0.031410	0.043717	1412.18	82319.6
732	2.000000	1.139142	7.37222e+06	-40489.1	1005.82	-29789.8	0.000000	0.000000	7.142448	67.9167	NaN	0.000000	0.001577	0.001654	28.0814	34.8436	0.001786	19513.2	5.272342	178.082	67.033	1.138846	0.036352	0.036056	67.9167	19513.2	0.033742	0.048856	1390.13	80656.9
732	2.000000	1.141651	7.37222e+06	-40489.1	1005.82	-29789.8	0.000000	0.000000	7.145426	79.3319	NaN	0.000000	0.001599	0.001647	28.0815	36.2933	0.001708	21255	3.931132	-1.223040	77.656	1.141246	0.038861	0.038457	79.3319	21255	0.036062	0.054247	1462.41	83376.9
732	2.000000	1.144130	7.37222e+06	-40489.1	1005.82	-29789.8	0.000000	0.000000	7.147966	80.8064	NaN	0.000000	0.001635	0.001645	28.0816	38.6896	0.001747	22151.4	5.323880	176.98	78.702	1.143880	0.041340	0.041090	80.8064	22151.4	0.038605	0.060472	1336.27	82299.9
732	2.000000	1.146636	7.37222e+06	-40489.1	1005.82	-29789.8	0.000000	0.000000	7.151035	94.503	NaN	0.000000	0.001622	0.001585	28.0813	40.9154	0.001802	22706	3.365817	-0.515799	92.1935	1.146240	0.043847	0.043450	94.503	22706	0.040725	0.065916	1433.69	80801.3
732	2.000000	1.149123	7.37222e+06	-40489.1	1005.82	-29789.8	0.000000	0.000000	7.154032	106.917	NaN	0.000000	0.001607	0.001615	28.082	43.3698	0.001805	24021.7	3.951119	177.649	105.344	1.148820	0.046333	0.046030	106.917	24021.7	0.042995	0.071997	1485.01	81793.4
732	2.000000	1.151598	7.37222e+06	-40489.1	1005.82	-29789.8	0.000000	0.000000	7.156594	109.026	NaN	0.000000	0.001626	0.001633	28.0825	46.5409	0.001842	25262	4.190218	-3.218816	106.297	1.151354	0.048808	0.048565	109.026	25262	0.045571	0.079218	1376.29	82003.1
732	2.000000	1.154177	7.37222e+06	-40489.1	1005.82	-29789.8	0.000000	0.000000	7.159804	124.363	NaN	0.000000	0.001682	0.001655	28.0825	47.9602	0.001800	26646.6	2.112089	178.687	126.324	1.153858	0.051388	0.051069	124.363	26646.6	0.047887	0.085995	1446.16	83019.1
732	2.000000	1.156657	7.37222e+06	-40489.1	1005.82	-29789.8	0.000000	0.000000	7.162875	138.765	NaN	0.000000	0.001672	0.001649	28.0828	50.0392	0.001931	25914.2	3.119495	-0.984949	137.869	1.156274	0.053868	0.053484	138.765	25914.2	0.049852	0.091955	1509.05	78076.9
732	2.000000	1.159123	7.37222e+06	-40489.1	1005.82	-29789.8	0.000000	0.000000	7.165605	145.187	NaN	0.000000	0.001694	0.001604	28.0828	51.6533	0.001759	29357.6	0.739527	179.83	145.035	1.158832	0.056334	0.056042	145.187	29357.6	0.052624	0.100698	1441.81	84524.8
732	2.000000	1.161572	7.37222e+06	-40489.1	1005.82	-29789.8	0.000000	0.000000	7.168613	158.793	NaN	0.000000	0.001642	0.001660	28.0826	54.8887	0.001757	31241.1	1.896207	-2.270594	155.866	1.161283	0.058783	0.058493	158.793	31241.1	0.054971	0.108394	1464.97	86695.8
732	2.000000	1.164151	7.37222e+06	-40489.1	1005.82	-29789.8	0.000000	0.000000	7.171714	171.501	NaN	0.000000	0.001676	0.001665	28.0824	57.9094	0.001834	31572.1	5.028078	175.79	173.233	1.163731	0.061361	0.060941	171.501	31572.1	0.057287	0.116261	1475.14	84597.9
732	2.000000	1.166593	7.37222e+06	-40489.1	1005.82	-29789.8	0.000000	0.000000	7.174619	182.754	NaN	0.000000	0.001654	0.001655	28.0824	59.5551	0.001721	34614.5	5.211587	-6.271293	180.509	1.166278	0.063804	0.063489	182.754	34614.5	0.059844	0.125249	1459.12	89359.9
732	2.000000	1.169090	7.37222e+06	-40489.1	1005.82	-29789.8	0.000000	0.000000	7.177833	200.194	NaN	0.000000	0.001630	0.001715	28.0828	61.9195	0.001811	34187.2	6.993210	172.331	197.923	1.168691	0.066300	0.065901	200.194	34187.2	0.061909	0.132741	1508.15	85730.1
732	2.000000	1.171611	7.37222e+06	-40489.1	1005.82	-29789.8	0.000000	0.000000	7.180764	210.181	NaN	0.000000	0.001640	0.001693	28.0827	64.2537	0.001802	35666.8	5.209176	-6.502904	208.749	1.171244	0.068822	0.068454	210.181	35666.8	0.064402	0.142065	1479.47	86455.7
732	2.000000	1.174085	7.37222e+06	-40489.1	1005.82	-29789.8	0.000000	0.000000	7.183843	224.891	NaN	0.000000	0.001626	0.001682	28.0827	67.3455	0.001903	35385	5.386828	172.982	225.101	1.173799	0.071295	0.071009	224.891	35385	0.066529	0.150255	1496.73	83402.4
732	2.000000	1.176571	7.37222e+06	-40489.1	1005.82	-29789.8	0.000000	0.000000	7.187013	241.55	NaN	0.000000	0.001656	0.001693	28.0826	67.534	0.001734	38953.6	2.352602	-4.087479	237.154	1.176155	0.073781	0.073365	241.55	38953.6	0.069130	0.160569	1504.34	88815.9
732	2.000000	1.179087	7.37222e+06	-40489.1	1005.82	-29789.8	0.000000	0.000000	7.189973	252.363	NaN	0.000000	0.001618	0.001666	28.0828	70.0458	0.001893	37005.7	3.757448	174.614	249.676	1.178793	0.076297	0.076003	252.363	37005.7	0.071182	0.168931	1493.88	82259.6
732	2.000000	1.181586	7.37222e+06	-40489.1	1005.82	-29789.8	0.000000	0.000000	7.193056	266.574	NaN	0.000000	0.001692	0.001661	28.0825	72.0819	0.001837	39229.4	3.078739	-4.754231	262.66	1.181126	0.078796	0.078336	266.574	39229.4	0.073699	0.179461	1485.41	84605.6
732	2.000000	1.184030	7.37222e+06	-40489.1	1005.82	-29789.8	0.000000	0.000000	7.196121	281.651	NaN	0.000000	0.001663	0.001670	28.0815	74.5114	0.001748	42635.8	2.077740	175.355	278.996	1.183750	0.081241	0.080960	281.651	42635.8	0.076286	0.190596	1477.74	89225.9
732	2.000000	1.186636	7.37222e+06	-40489.1	1005.82	-29789.8	0.000000	0.000000	7.199179	292.664	NaN	0.000000	0.001662	0.001620	28.0815	76.0224	0.001777	42785.1	2.550341	-5.105328	292.293	1.186336	0.083847	0.083547	292.664	42785.1	0.078716	0.201341	1453.57	87116.4
732	2.000000	1.189038	7.37222e+06	-40489.1	1005.82	-29789.8	0.000000	0.000000	7.202516	315.415	NaN	0.000000	0.001676	0.001682	28.0815	78.5208	0.001843	42605.1	4.231551	173.183	312.681	1.188724	0.086248	0.085934	315.415	42605.1	0.080696	0.210299	1499.85	84882.2
732	2.000000	1.191552	7.37222e+06	-40489.1	1005.82	-29789.8	0.000000	0.000000	7.205657	330.692	NaN	0.000000	0.001638	0.001679	28.0812	82.1226	0.001824	45016.9	8.551326	-12.0053	326.903	1.191198	0.088762	0.088408	330.692	45016.9	0.083253	0.222138	1488.68	87264.6
732	2.000000	1.194188	7.37222e+06	-40489.1	1005.82	-29789.8	0.000000	0.000000	7.208802	343.087	NaN	0.000000	0.001586	0.001685	28.0818	84.1971	0.001785	47164.3	4.903859	171.891	350.285	1.193818	0.091398	0.091028	343.087	47164.3	0.085942	0.234916	1460.47	88905.9
732	2.000000	1.196600	7.37222e+06	-40489.1	1005.82	-29789.8	0.000000	0.000000	7.212304	369.6	NaN	0.000000	0.001613	0.001641	28.0813	85.7651	0.001821	47100.4	4.673588	-8.104459	365.896	1.196200	0.093810	0.093410	369.6	47100.4	0.087925	0.244552	1511.34	87018.7
732	2.000000	1.199074	7.37222e+06	-40489.1	1005.82	-29789.8	0.000000	0.000000	7.215019	375.434	NaN	0.000000	0.001669	0.001657	28.0814	88.0969	0.001852	47557.8	5.003989	171.528	376.563	1.198853	0.096285	0.096063	375.434	47557.8	0.090364	0.256653	1462.81	85767.3
732	2.000000	1.201521	7.37222e+06	-40489.1	1005.82	-29789.8	0.000000	0.000000	7.218624	403.623	NaN	0.000000	0.001665	0.001649	28.0811	89.3092	0.001715	52084.8	1.876731	-6.166095	399.334	1.201233	0.098731	0.098443	403.623	52084.8	0.092919	0.269623	1496.99	91644.4
732	2.000000	1.204065	7.37222e+06	-40489.1	1005.82	-29789.8	0.000000	0.000000	7.221822	419.546	NaN	0.000000	0.001620	0.001674	28.0817	93.3427	0.001786	52255.6	4.239523	171.49	418.953	1.203792	0.101275	0.101003	419.546	52255.6	0.095254	0.281732	1489.17	89947.3
732	2.000000	1.206497	7.37222e+06	-40489.1	1005.82	-29789.8	0.000000	0.000000	7.225228	443.24	NaN	0.000000	0.001643	0.001685	28.0812	94.571	0.001768	53486.4	2.600260	-6.386081	436.1	1.206223	0.103707	0.103433	443.24	53486.4	0.097492	0.293577	1509.79	90189.3
732	2.000000	1.209078	7.37222e+06	-40489.1	1005.82	-29789.8	0.000000	0.000000	7.228404	457.735	NaN	0.000000	0.001642	0.001630	28.0814	96.1888	0.001693	56810.7	1.018936	174.556	459.384	1.208725	0.106288	0.105935	457.735	56810.7	0.100245	0.308460	1483.94	93455.3
732	2.000000	1.210021	7.37222e+06	-40489.1	1005.82	-29789.8	0.000000	0.000000	7.229916	471.572	NaN	0.000000	0.001593	0.001632	28.0814	99.6381	0.001848	53913.1	5.507290	170.52	468.018	1.209733	0.107231	0.106944	471.572	53913.1	0.100671	0.310789	1517.33	88355.6