File: remote_trans/data/nanoindenter/0828-1/data/Data_2025-08-06,11h17m57s/2025-07-22_16-23-58_1_123.txt
2025-07-22, 16:23:58, 1
Index	Phase	Displacement	Time	Pos X	Pos Y	Pos Z	Rot A	Rot B	Piezo Z	Force A	Force B	Gripper	Voltage A	Voltage B	Temperature	Amplitude force	Amplitude pos	Stiffness	Phase shift	Phase excitation	Force A raw	Displacement raw	HMax	HMax raw	Real Force	Real Stiffness	Contact Depth	Area	Hardness	Reduced Mod.
[#]	[#]	[um]	[s]	[um]	[um]	[um]	[m°]	[m°]	[um]	[uN]	[uN]	[V]	[V]	[V]	[°C]	[uN]	[um]	[N/m]	[°]	[°]	[uN]	[um]	[um]	[um]	[uN]	[N/m]	[um]	[um^2]	[MPa]	[MPa]
123	1.000000	0.002241	7.36624e+06	-44789.1	955.819	-29775.1	0.000000	0.000000	6.002820	-0.078322	NaN	0.000000	0.001504	0.001673	28.0926	0.171746	0.000913	188.059	-153.935	-161.569	-0.091868	0.000935	-1.209800	-1.211106	-0.078322	188.059	-1.209487	-1.471565E+16	5.322391E-18	NaN
123	1.000000	0.012273	7.36624e+06	-44789.1	955.819	-29775.1	0.000000	0.000000	6.012852	-0.082384	NaN	0.000000	0.001534	0.001655	28.1296	0.087762	0.001300	67.5048	149.769	13.7994	0.024464	0.010848	-1.199768	-1.201193	-0.082384	67.5048	-1.198852	-1.060179E+16	7.770762E-18	NaN
123	1.000000	0.022167	7.36624e+06	-44789.1	955.818	-29775.1	0.000000	0.000000	6.022747	-0.071745	NaN	0.000000	0.001506	0.001688	28.1014	0.123831	0.001663	74.4656	21.2819	-164.717	-0.140484	0.020855	-1.189874	-1.191186	-0.071745	74.4656	-1.189151	-7.860599E+15	9.127145E-18	NaN
123	1.000000	0.032189	7.36624e+06	-44789.1	955.818	-29775.1	0.000000	0.000000	6.032770	-0.036412	NaN	0.000000	0.001566	0.001681	28.0797	0.049746	0.002045	24.3237	59.7848	18.9765	-0.118337	0.030787	-1.179852	-1.181254	-0.036412	24.3237	-1.178729	-5.699594E+15	6.388460E-18	NaN
123	1.000000	0.042171	7.36624e+06	-44789.1	955.818	-29775.1	0.000000	0.000000	6.042752	-0.033342	NaN	0.000000	0.001576	0.001684	28.0932	0.050964	0.001831	27.8391	106.36	-163.073	0.021272	0.040880	-1.169870	-1.171161	-0.033342	27.8391	-1.168971	-4.217947E+15	7.904749E-18	NaN
123	1.000000	0.052190	7.36624e+06	-44789.1	955.82	-29775.1	0.000000	0.000000	6.052769	-0.087678	NaN	0.000000	0.001561	0.001736	28.1293	0.037098	0.001897	19.5541	93.7361	13.2416	0.018712	0.050802	-1.159851	-1.161239	-0.087678	19.5541	-1.156488	-2.869418E+15	3.055586E-17	NaN
123	1.000000	0.062174	7.36624e+06	-44789.1	955.819	-29775.1	0.000000	0.000000	6.062755	-0.041229	NaN	0.000000	0.001582	0.001675	28.1018	0.183838	0.001927	95.4231	112.186	-164.669	-0.095292	0.060855	-1.149867	-1.151186	-0.041229	95.4231	-1.149543	-2.315737E+15	1.780383E-17	NaN
123	1.000000	0.072171	7.36624e+06	-44789.1	955.819	-29775.1	0.000000	0.000000	6.072752	-0.028279	NaN	0.000000	0.001600	0.001699	28.0798	0.120489	0.002032	59.3102	122.799	14.5586	-0.021160	0.070789	-1.139870	-1.141252	-0.028279	59.3102	-1.139512	-1.699008E+15	1.664432E-17	NaN
123	1.000000	0.082221	7.36624e+06	-44789.1	955.818	-29775.1	0.000000	0.000000	6.082802	-0.028920	NaN	0.000000	0.001593	0.001628	28.0915	0.087769	0.001990	44.0945	-146.558	-166.167	-0.047891	0.080839	-1.129820	-1.131201	-0.028920	44.0945	-1.129328	-1.240534E+15	2.331282E-17	NaN
123	1.000000	0.092179	7.36624e+06	-44789.1	955.819	-29775.1	0.000000	0.000000	6.092760	-0.043947	NaN	0.000000	0.001573	0.001670	28.1283	0.047001	0.001988	23.6461	3.683252	12.6363	-0.011675	0.090803	-1.119862	-1.121238	-0.043947	23.6461	-1.118468	-8.869768E+14	4.954678E-17	NaN
123	1.000000	0.102190	7.36624e+06	-44789.1	955.819	-29775.1	0.000000	0.000000	6.102769	-0.087449	NaN	0.000000	0.001564	0.001678	28.101	0.111919	0.002015	55.5299	4.445793	-166.035	-0.111875	0.100836	-1.109851	-1.111205	-0.087449	55.5299	-1.108670	-6.552925E+14	1.334510E-16	NaN
123	1.000000	0.112177	7.36624e+06	-44789.1	955.817	-29775.1	0.000000	0.000000	6.112757	-0.042754	NaN	0.000000	0.001575	0.001670	28.0788	0.036016	0.001991	18.0859	133.838	13.9843	-0.079730	0.110839	-1.099864	-1.101202	-0.042754	18.0859	-1.098091	-4.725464E+14	9.047633E-17	NaN
123	1.000000	0.122198	7.36624e+06	-44789.1	955.819	-29775.1	0.000000	0.000000	6.122778	-0.054383	NaN	0.000000	0.001577	0.001663	28.0913	0.090569	0.002136	42.4104	114.743	-160.103	-0.088142	0.120871	-1.089843	-1.091170	-0.054383	42.4104	-1.088882	-3.554630E+14	1.529909E-16	NaN
123	1.000000	0.132187	7.36624e+06	-44789.1	955.818	-29775.1	0.000000	0.000000	6.132767	-0.044809	NaN	0.000000	0.001579	0.001667	28.1298	0.108087	0.002101	51.4555	-139.755	18.6556	0.024300	0.130860	-1.079854	-1.081181	-0.044809	51.4555	-1.079201	-2.635038E+14	1.700513E-16	NaN
123	1.000000	0.142194	7.36624e+06	-44789.1	955.818	-29775.1	0.000000	0.000000	6.142773	-0.070277	NaN	0.000000	0.001569	0.001657	28.1028	0.161922	0.002094	77.326	130.774	-160.441	-0.029252	0.140911	-1.069847	-1.071130	-0.070277	77.326	-1.069166	-1.931873E+14	3.637775E-16	NaN
123	1.000000	0.152193	7.36624e+06	-44789.1	955.819	-29775.1	0.000000	0.000000	6.152776	0.017083	NaN	0.000000	0.001557	0.001687	28.0785	0.111814	0.001846	60.5773	150.575	13.3247	0.102226	0.150874	-1.059848	-1.061167	0.017083	60.5773	-1.060059	-1.457522E+14	-1.172043E-16	NaN
123	1.000000	0.162243	7.36624e+06	-44789.1	955.819	-29775.1	0.000000	0.000000	6.162824	-0.047969	NaN	0.000000	0.001574	0.001669	28.0915	0.053552	0.002059	26.0079	122.902	-169.899	-0.092512	0.160952	-1.049798	-1.051089	-0.047969	26.0079	-1.048414	-1.016478E+14	4.719164E-16	NaN
123	1.000000	0.172212	7.36624e+06	-44789.1	955.819	-29775.1	0.000000	0.000000	6.172792	-0.077008	NaN	0.000000	0.001588	0.001662	28.1293	0.050462	0.001963	25.7058	116.176	14.3332	-0.112791	0.170852	-1.039828	-1.041189	-0.077008	25.7058	-1.037582	-7.268556E+13	1.059465E-15	NaN
123	1.000000	0.182223	7.36624e+06	-44789.1	955.819	-29775.1	0.000000	0.000000	6.182804	-0.020810	NaN	0.000000	0.001573	0.001688	28.1025	0.091090	0.002069	44.0325	173.452	-165.096	-0.016653	0.180930	-1.029818	-1.031111	-0.020810	44.0325	-1.029464	-5.652870E+13	3.681358E-16	NaN
123	1.000000	0.192226	7.36624e+06	-44789.1	955.818	-29775.1	0.000000	0.000000	6.192809	0.025830	NaN	0.000000	0.001576	0.001725	28.0799	0.041757	0.001959	21.3106	159.495	14.8083	0.079646	0.190929	-1.019815	-1.021112	0.025830	21.3106	-1.020724	-4.312193E+13	-5.989953E-16	NaN
123	1.000000	0.202215	7.36624e+06	-44789.1	955.818	-29775.1	0.000000	0.000000	6.202797	-0.026819	NaN	0.000000	0.001614	0.001735	28.0925	0.055037	0.002041	26.9596	120.22	-164.874	-0.037534	0.200870	-1.009826	-1.011171	-0.026819	26.9596	-1.009079	-3.006021E+13	8.921883E-16	NaN
123	1.000000	0.212257	7.36624e+06	-44789.1	955.818	-29775.1	0.000000	0.000000	6.212839	-0.018780	NaN	0.000000	0.001577	0.001705	28.1306	0.032503	0.001887	17.2228	-100.789	16.3308	-0.083371	0.210863	-0.999784	-1.001178	-0.018780	17.2228	-0.998966	-2.197075E+13	8.547688E-16	NaN
123	1.000000	0.222234	7.36624e+06	-44789.1	955.818	-29775.1	0.000000	0.000000	6.222815	-0.036845	NaN	0.000000	0.001619	0.001669	28.1042	0.061034	0.002081	29.3332	-19.9911	-160.747	-0.058350	0.221002	-0.989807	-0.991039	-0.036845	29.3332	-0.988865	-1.606277E+13	2.293814E-15	NaN
123	1.000000	0.232246	7.36624e+06	-44789.1	955.818	-29775.1	0.000000	0.000000	6.232828	0.001266	NaN	0.000000	0.001591	0.001706	28.0795	0.039121	0.002107	18.5697	-130.848	16.5289	0.084376	0.230842	-0.979795	-0.981199	0.001266	18.5697	-0.979846	-1.214327E+13	-1.042197E-16	NaN
123	1.000000	0.242252	7.36624e+06	-44789.1	955.817	-29775.1	0.000000	0.000000	6.242831	-0.066455	NaN	0.000000	0.001580	0.001703	28.0917	0.091986	0.001858	49.4959	17.6141	-162.693	0.105277	0.240983	-0.969789	-0.971058	-0.066455	49.4959	-0.968782	-8.614885E+12	7.714026E-15	NaN
123	1.000000	0.252268	7.36624e+06	-44789.1	955.818	-29775.1	0.000000	0.000000	6.252852	0.054076	NaN	0.000000	0.001595	0.001690	28.1294	0.059123	0.001933	30.587	72.0052	14.0879	0.005187	0.250843	-0.959773	-0.961198	0.054076	30.587	-0.961099	-6.787124E+12	-7.967379E-15	NaN
123	1.000000	0.262251	7.36624e+06	-44789.1	955.819	-29775.1	0.000000	0.000000	6.262831	-0.043162	NaN	0.000000	0.001560	0.001724	28.1036	0.051933	0.001834	28.3137	166.86	-162.698	-0.037253	0.260943	-0.949790	-0.951098	-0.043162	28.3137	-0.948647	-4.610814E+12	9.361110E-15	NaN
123	1.000000	0.272274	7.36624e+06	-44789.1	955.818	-29775.1	0.000000	0.000000	6.272854	-0.065590	NaN	0.000000	0.001574	0.001690	28.0795	0.062337	0.002103	29.6388	-165.372	13.9054	-0.030582	0.270833	-0.939767	-0.941208	-0.065590	29.6388	-0.938107	-3.323518E+12	1.973517E-14	NaN
123	1.000000	0.282278	7.36624e+06	-44789.1	955.818	-29775.1	0.000000	0.000000	6.282859	-0.048591	NaN	0.000000	0.001573	0.001759	28.0924	0.031931	0.001989	16.0567	132.41	-162.831	-0.020180	0.280958	-0.929763	-0.931083	-0.048591	16.0567	-0.927493	-2.389794E+12	2.033287E-14	NaN
123	1.000000	0.292290	7.36624e+06	-44789.1	955.819	-29775.1	0.000000	0.000000	6.292872	-0.023109	NaN	0.000000	0.001626	0.001740	28.1306	0.114763	0.001915	59.9338	-103.669	17.6152	-0.115032	0.290913	-0.919751	-0.921128	-0.023109	59.9338	-0.919462	-1.861815E+12	1.241226E-14	NaN
123	1.000000	0.302299	7.36624e+06	-44789.1	955.819	-29775.1	0.000000	0.000000	6.302878	-0.087156	NaN	0.000000	0.001628	0.001693	28.1053	0.096153	0.002017	47.6754	-123.25	-165.228	-0.101673	0.300959	-0.909742	-0.911082	-0.087156	47.6754	-0.908371	-1.318745E+12	6.608996E-14	NaN
123	1.000000	0.312294	7.36624e+06	-44789.1	955.818	-29775.1	0.000000	0.000000	6.312875	-0.037535	NaN	0.000000	0.001596	0.001659	28.0805	0.094812	0.001929	49.1559	108.242	15.4771	-0.041152	0.310907	-0.899747	-0.901134	-0.037535	49.1559	-0.899174	-9.906113E+11	3.789041E-14	NaN
123	1.000000	0.322289	7.36624e+06	-44789.1	955.819	-29775.1	0.000000	0.000000	6.322870	-0.017848	NaN	0.000000	0.001571	0.001661	28.0905	0.037704	0.001966	19.1795	100.529	-163.069	-0.075008	0.320980	-0.889752	-0.891061	-0.017848	19.1795	-0.889054	-7.229898E+11	2.468582E-14	NaN
123	1.000000	0.332303	7.36624e+06	-44789.1	955.818	-29775.1	0.000000	0.000000	6.332885	-0.016250	NaN	0.000000	0.001602	0.001677	28.1284	0.154297	0.001992	77.472	61.8114	14.462	0.047680	0.330924	-0.879738	-0.881117	-0.016250	77.472	-0.879581	-5.383141E+11	3.018645E-14	NaN
123	1.000000	0.342301	7.36624e+06	-44789.1	955.818	-29775.1	0.000000	0.000000	6.342881	-0.046980	NaN	0.000000	0.001571	0.001715	28.1033	0.018904	0.002016	9.376044	177.087	-163.809	-0.042528	0.340972	-0.869740	-0.871069	-0.046980	9.376044	-0.865982	-3.524386E+11	1.333007E-13	NaN
123	1.000000	0.352308	7.36624e+06	-44789.1	955.818	-29775.1	0.000000	0.000000	6.352889	-0.025532	NaN	0.000000	0.001594	0.001674	28.0779	0.047110	0.001886	24.9723	113.492	17.1969	-0.073081	0.350971	-0.859733	-0.861070	-0.025532	24.9723	-0.858966	-2.832240E+11	9.014825E-14	NaN
123	1.000000	0.362296	7.36624e+06	-44789.1	955.818	-29775.1	0.000000	0.000000	6.362876	-0.068551	NaN	0.000000	0.001571	0.001684	28.091	0.080310	0.002018	39.7895	-60.302	-165.652	-0.065095	0.360983	-0.849745	-0.851058	-0.068551	39.7895	-0.848453	-2.040722E+11	3.359148E-13	NaN
123	1.000000	0.372323	7.36624e+06	-44789.1	955.818	-29775.1	0.000000	0.000000	6.372902	-0.081111	NaN	0.000000	0.001574	0.001655	28.1294	0.140235	0.002038	68.8224	29.4645	16.7431	-0.076928	0.370909	-0.839718	-0.841132	-0.081111	68.8224	-0.838834	-1.511786E+11	5.365211E-13	NaN
123	1.000000	0.382305	7.36624e+06	-44789.1	955.818	-29775.1	0.000000	0.000000	6.382886	-0.021934	NaN	0.000000	0.001553	0.001686	28.104	0.076138	0.002070	36.7732	172.567	-165.613	-0.040641	0.381019	-0.829736	-0.831022	-0.021934	36.7732	-0.829289	-1.122389E+11	1.954266E-13	NaN
123	1.000000	0.392324	7.36624e+06	-44789.1	955.819	-29775.1	0.000000	0.000000	6.392904	-0.066644	NaN	0.000000	0.001557	0.001704	28.0802	0.023894	0.001887	12.6618	51.7069	16.621	-0.017070	0.390959	-0.819716	-0.821082	-0.066644	12.6618	-0.815769	-7.359178E+10	9.055846E-13	NaN
123	1.000000	0.402312	7.36624e+06	-44789.1	955.819	-29775.1	0.000000	0.000000	6.402894	-0.006632	NaN	0.000000	0.001608	0.001678	28.09	0.033977	0.001993	17.0459	92.3624	-162.098	-0.050169	0.400983	-0.809729	-0.811058	-0.006632	17.0459	-0.809437	-6.038566E+10	1.098244E-13	NaN
123	1.000000	0.412367	7.36624e+06	-44789.1	955.819	-29775.1	0.000000	0.000000	6.412950	-0.002000	NaN	0.000000	0.001543	0.001703	28.1277	0.023238	0.001972	11.7818	156.039	15.5264	0.009844	0.411009	-0.799674	-0.801032	-0.002000	11.7818	-0.799546	-4.433062E+10	4.512582E-14	NaN
123	1.000000	0.422325	7.36624e+06	-44789.1	955.819	-29775.1	0.000000	0.000000	6.422907	-0.005918	NaN	0.000000	0.001575	0.001704	28.1029	0.072796	0.001931	37.6973	157.773	-165.581	0.042018	0.420992	-0.789716	-0.791049	-0.005918	37.6973	-0.789598	-3.248042E+10	1.821998E-13	NaN
123	1.000000	0.432326	7.36624e+06	-44789.1	955.819	-29775.1	0.000000	0.000000	6.432906	-0.061770	NaN	0.000000	0.001602	0.001690	28.0787	0.050217	0.002063	24.3383	-2.616365	16.9634	-0.062732	0.430972	-0.779715	-0.781069	-0.061770	24.3383	-0.777811	-2.246413E+10	2.749738E-12	NaN
123	1.000000	0.442350	7.36624e+06	-44789.1	955.819	-29775.1	0.000000	0.000000	6.442932	-0.013775	NaN	0.000000	0.001577	0.001734	28.09	0.071179	0.002024	35.1693	133.742	-165.135	-0.051076	0.441019	-0.769691	-0.771022	-0.013775	35.1693	-0.769397	-1.726280E+10	7.979671E-13	NaN
123	1.000000	0.452327	7.36624e+06	-44789.1	955.818	-29775.1	0.000000	0.000000	6.452907	-0.055136	NaN	0.000000	0.001578	0.001719	28.1287	0.011024	0.002006	5.496505	-111.835	13.069	-0.036561	0.450938	-0.759714	-0.761103	-0.055136	5.496505	-0.752190	-1.007009E+10	5.475269E-12	NaN
123	1.000000	0.462357	7.36624e+06	-44789.1	955.818	-29775.1	0.000000	0.000000	6.462935	-0.088948	NaN	0.000000	0.001592	0.001728	28.106	0.005150	0.001987	2.591487	27.2581	-165.895	0.056080	0.461038	-0.749684	-0.751003	-0.088948	2.591487	-0.723942	-4.151679E+9	2.142459E-11	NaN
123	1.000000	0.472341	7.36624e+06	-44789.1	955.818	-29775.1	0.000000	0.000000	6.472923	-0.010106	NaN	0.000000	0.001564	0.001688	28.0806	0.069108	0.001987	34.7716	-20.0961	13.1176	0.032281	0.470975	-0.739700	-0.741066	-0.010106	34.7716	-0.739482	-6.760739E+9	1.494756E-12	NaN
123	1.000000	0.482352	7.36624e+06	-44789.1	955.819	-29775.1	0.000000	0.000000	6.482931	-0.080373	NaN	0.000000	0.001588	0.001700	28.0905	0.129227	0.002005	64.4427	-115.293	-164.846	-0.130708	0.481061	-0.729689	-0.730980	-0.080373	64.4427	-0.728753	-4.828512E+9	1.664544E-11	NaN
123	1.000000	0.492367	7.36624e+06	-44789.1	955.818	-29775.1	0.000000	0.000000	6.492948	-0.034108	NaN	0.000000	0.001602	0.001738	28.1283	0.019086	0.001991	9.587191	-94.2589	14.3154	-0.065016	0.490992	-0.719674	-0.721049	-0.034108	9.587191	-0.717006	-3.339172E+9	1.021453E-11	NaN
123	1.000000	0.502359	7.36624e+06	-44789.1	955.819	-29775.1	0.000000	0.000000	6.502940	-0.050853	NaN	0.000000	0.001596	0.001711	28.1045	0.076951	0.002062	37.3221	-142.007	-165.756	-0.028373	0.501025	-0.709682	-0.711016	-0.050853	37.3221	-0.708660	-2.568950E+9	1.979534E-11	NaN
123	1.000000	0.512347	7.36624e+06	-44789.1	955.818	-29775.1	0.000000	0.000000	6.512928	-0.033864	NaN	0.000000	0.001535	0.001728	28.0801	0.165185	0.002009	82.2261	55.9949	15.91	-0.023152	0.511036	-0.699694	-0.701005	-0.033864	82.2261	-0.699385	-1.919271E+9	1.764435E-11	NaN
123	1.000000	0.522369	7.36624e+06	-44789.1	955.818	-29775.1	0.000000	0.000000	6.522950	-0.048753	NaN	0.000000	0.001620	0.001735	28.0907	0.031547	0.002022	15.6033	93.0099	-164.79	-0.060843	0.521131	-0.689672	-0.690910	-0.048753	15.6033	-0.687328	-1.313417E+9	3.711926E-11	NaN
123	1.000000	0.532395	7.36624e+06	-44789.1	955.818	-29775.1	0.000000	0.000000	6.532975	-0.058621	NaN	0.000000	0.001554	0.001742	28.1296	0.125532	0.001892	66.3395	136.984	12.7183	-0.018092	0.531056	-0.679646	-0.680985	-0.058621	66.3395	-0.678983	-1.009944E+9	5.804410E-11	NaN
123	1.000000	0.542360	7.36624e+06	-44789.1	955.818	-29775.1	0.000000	0.000000	6.542944	0.036439	NaN	0.000000	0.001579	0.001761	28.1053	0.037388	0.001943	19.2384	86.1137	-167.427	-0.001987	0.541092	-0.669681	-0.670949	0.036439	19.2384	-0.671102	-7.878961E+8	-4.624882E-11	NaN
123	1.000000	0.552398	7.36624e+06	-44789.1	955.818	-29775.1	0.000000	0.000000	6.552979	-0.014093	NaN	0.000000	0.001555	0.001731	28.0799	0.129116	0.002000	64.5717	-174.201	15.9213	-0.097001	0.551010	-0.659643	-0.661031	-0.014093	64.5717	-0.659480	-5.461857E+8	2.580336E-11	NaN
123	1.000000	0.562367	7.36624e+06	-44789.1	955.818	-29775.1	0.000000	0.000000	6.562948	-0.032693	NaN	0.000000	0.001609	0.001721	28.0916	0.097997	0.001934	50.6775	-105.585	-161.893	-0.031148	0.561063	-0.649674	-0.650978	-0.032693	50.6775	-0.649190	-3.947603E+8	8.281624E-11	NaN
123	1.000000	0.572415	7.36624e+06	-44789.1	955.817	-29775.1	0.000000	0.000000	6.572996	-0.028846	NaN	0.000000	0.001586	0.001668	28.1289	0.056223	0.002033	27.6486	-49.6344	20.7524	-0.041449	0.571037	-0.639626	-0.641004	-0.028846	27.6486	-0.638843	-2.847207E+8	1.013118E-10	NaN
123	1.000000	0.582395	7.36624e+06	-44789.1	955.818	-29775.1	0.000000	0.000000	6.582977	-0.000520	NaN	0.000000	0.001563	0.001661	28.1082	0.042559	0.002027	20.9992	12.3937	-164.679	0.083581	0.581097	-0.629646	-0.630944	-0.000520	20.9992	-0.629627	-2.127686E+8	2.443290E-12	NaN
123	1.000000	0.592391	7.36624e+06	-44789.1	955.818	-29775.1	0.000000	0.000000	6.592969	-0.092248	NaN	0.000000	0.001584	0.001668	28.0814	0.008391	0.001941	4.323882	119.309	16.0069	-0.137098	0.591042	-0.619650	-0.620999	-0.092248	4.323882	-0.603649	-9.347864E+7	9.868371E-10	NaN
123	1.000000	0.602428	7.36624e+06	-44789.1	955.818	-29775.1	0.000000	0.000000	6.603010	-0.021622	NaN	0.000000	0.001564	0.001650	28.0906	0.064034	0.002056	31.1375	-178.303	-165.031	-0.065798	0.601124	-0.609613	-0.610917	-0.021622	31.1375	-0.609092	-1.110763E+8	1.946625E-10	NaN
123	1.000000	0.612417	7.36624e+06	-44789.1	955.818	-29775.1	0.000000	0.000000	6.612999	0.001155	NaN	0.000000	0.001593	0.001627	28.1295	0.017710	0.002025	8.745225	-41.6299	17.4622	-0.026765	0.611049	-0.599624	-0.600992	0.001155	8.745225	-0.599723	-8.253704E+7	-1.398784E-11	NaN
123	1.000000	0.622427	7.36624e+06	-44789.1	955.819	-29775.1	0.000000	0.000000	6.623007	-0.054085	NaN	0.000000	0.001593	0.001601	28.106	0.044861	0.002095	21.4089	-127.046	-162.881	-0.051878	0.621165	-0.589614	-0.590876	-0.054085	21.4089	-0.587720	-5.639273E+7	9.590837E-10	NaN
123	1.000000	0.632387	7.36624e+06	-44789.1	955.819	-29775.1	0.000000	0.000000	6.632966	-0.086213	NaN	0.000000	0.001583	0.001659	28.0803	0.049477	0.002017	24.5309	-116.872	18.429	-0.113488	0.631050	-0.579654	-0.580991	-0.086213	24.5309	-0.577018	-4.013845E+7	2.147890E-9	NaN
123	1.000000	0.642410	7.36624e+06	-44789.1	955.819	-29775.1	0.000000	0.000000	6.642992	-0.006364	NaN	0.000000	0.001546	0.001626	28.0897	0.045584	0.001864	24.4602	63.9081	-163.835	-0.025875	0.641097	-0.569631	-0.570944	-0.006364	24.4602	-0.569436	-3.153823E+7	2.017972E-10	NaN
123	1.000000	0.652436	7.36624e+06	-44789.1	955.818	-29775.1	0.000000	0.000000	6.653014	-0.103602	NaN	0.000000	0.001537	0.001657	28.1286	0.054459	0.001884	28.9059	53.0844	19.2173	-0.096773	0.651041	-0.559605	-0.561000	-0.103602	28.9059	-0.556917	-2.116986E+7	4.893848E-9	NaN
123	1.000000	0.662458	7.36624e+06	-44789.1	955.818	-29775.1	0.000000	0.000000	6.663038	-0.053189	NaN	0.000000	0.001571	0.001657	28.1049	0.098735	0.001851	53.3356	-51.3831	-164.417	0.112757	0.661136	-0.549583	-0.550905	-0.053189	53.3356	-0.548835	-1.636116E+7	3.250947E-9	NaN
123	1.000000	0.672424	7.36624e+06	-44789.1	955.818	-29775.1	0.000000	0.000000	6.673006	-0.014820	NaN	0.000000	0.001558	0.001704	28.079	0.056291	0.002088	26.9557	161.69	13.4285	0.058572	0.671088	-0.539617	-0.540953	-0.014820	26.9557	-0.539204	-1.203161E+7	1.231753E-9	NaN
123	1.000000	0.682447	7.36624e+06	-44789.1	955.819	-29775.1	0.000000	0.000000	6.683029	-0.013881	NaN	0.000000	0.001562	0.001685	28.0908	0.156561	0.001990	78.6914	-84.2461	-163.14	-0.051000	0.681102	-0.529594	-0.530939	-0.013881	78.6914	-0.529461	-8.81243e+06	1.575125E-9	NaN
123	1.000000	0.692443	7.36624e+06	-44789.1	955.819	-29775.1	0.000000	0.000000	6.693023	-0.066978	NaN	0.000000	0.001535	0.001768	28.1291	0.104389	0.001989	52.4897	111.878	15.6196	-0.069833	0.691082	-0.519598	-0.520959	-0.066978	52.4897	-0.518641	-6.23296e+06	1.074579E-8	NaN
123	1.000000	0.702467	7.36624e+06	-44789.1	955.819	-29775.1	0.000000	0.000000	6.703047	-0.038067	NaN	0.000000	0.001538	0.001730	28.1077	0.058758	0.001958	30.0118	22.8777	-163.444	-0.005592	0.701148	-0.509574	-0.510893	-0.038067	30.0118	-0.508623	-4.52101e+06	8.420033E-9	NaN
123	1.000000	0.712459	7.36624e+06	-44789.1	955.818	-29775.1	0.000000	0.000000	6.713040	-0.018683	NaN	0.000000	0.001539	0.001724	28.0811	0.088126	0.001948	45.2469	-149.267	14.2695	0.025634	0.711128	-0.499582	-0.500913	-0.018683	45.2469	-0.499273	-3.34864e+06	5.579419E-9	NaN
123	1.000000	0.722450	7.36624e+06	-44789.1	955.819	-29775.1	0.000000	0.000000	6.723032	-0.014872	NaN	0.000000	0.001549	0.001704	28.0892	0.054677	0.001939	28.1962	120.298	-164.631	-0.044743	0.721138	-0.489591	-0.490903	-0.014872	28.1962	-0.489195	-2.42183e+06	6.140998E-9	NaN
123	1.000000	0.732481	7.36624e+06	-44789.1	955.818	-29775.1	0.000000	0.000000	6.733062	-0.044709	NaN	0.000000	0.001550	0.001716	28.1291	0.054607	0.002011	27.1563	-22.9445	16.1613	-0.044871	0.731096	-0.479559	-0.480945	-0.044709	27.1563	-0.478325	-1.70636e+06	2.620148E-8	NaN
123	1.000000	0.742470	7.36624e+06	-44789.1	955.819	-29775.1	0.000000	0.000000	6.743051	-0.040517	NaN	0.000000	0.001569	0.001707	28.1076	0.053784	0.001947	27.6301	92.1159	-165.003	-0.112554	0.741156	-0.469571	-0.470885	-0.040517	27.6301	-0.468471	-1.24154e+06	3.263421E-8	NaN
123	1.000000	0.752483	7.36624e+06	-44789.1	955.818	-29775.1	0.000000	0.000000	6.753063	-0.043400	NaN	0.000000	0.001545	0.001652	28.081	0.064184	0.002042	31.4267	-136.194	17.3309	-0.038490	0.751100	-0.459558	-0.460941	-0.043400	31.4267	-0.458522	-900014	4.822096E-8	NaN
123	1.000000	0.762444	7.36624e+06	-44789.1	955.818	-29775.1	0.000000	0.000000	6.763023	-0.073586	NaN	0.000000	0.001555	0.001697	28.0901	0.074412	0.001931	38.538	-103.346	-167.606	-0.007734	0.761120	-0.449597	-0.450921	-0.073586	38.538	-0.448165	-643419	1.143673E-7	NaN
123	1.000000	0.772459	7.36624e+06	-44789.1	955.818	-29775.1	0.000000	0.000000	6.773040	-0.027606	NaN	0.000000	0.001590	0.001668	28.1298	0.116877	0.002042	57.2417	53.1689	16.1111	0.057715	0.771091	-0.439582	-0.440950	-0.027606	57.2417	-0.439220	-481232	5.736605E-8	NaN
123	1.000000	0.782477	7.36624e+06	-44789.1	955.818	-29775.1	0.000000	0.000000	6.783060	0.023012	NaN	0.000000	0.001572	0.001673	28.1082	0.068974	0.002044	33.744	154.718	-163.167	-0.001903	0.781186	-0.429564	-0.430855	0.023012	33.744	-0.430076	-357381	-6.439001E-8	NaN
123	1.000000	0.792443	7.36624e+06	-44789.1	955.819	-29775.1	0.000000	0.000000	6.793024	-0.042585	NaN	0.000000	0.001537	0.001711	28.0815	0.082500	0.002044	40.3541	-55.3618	18.2409	-0.104009	0.791157	-0.419597	-0.420884	-0.042585	40.3541	-0.418806	-247445	1.721005E-7	NaN
123	1.000000	0.802475	7.36624e+06	-44789.1	955.819	-29775.1	0.000000	0.000000	6.803055	-0.045519	NaN	0.000000	0.001566	0.001723	28.0905	0.102254	0.002042	50.0858	-87.7201	-164.339	-0.105958	0.801120	-0.409566	-0.410921	-0.045519	50.0858	-0.408884	-178868	2.544807E-7	NaN
123	1.000000	0.812502	7.36624e+06	-44789.1	955.818	-29775.1	0.000000	0.000000	6.813083	-0.054314	NaN	0.000000	0.001555	0.001713	28.129	0.033855	0.002028	16.6909	-153.8	14.1101	-0.077158	0.811137	-0.399539	-0.400904	-0.054314	16.6909	-0.397098	-121504	4.470187E-7	NaN
123	1.000000	0.822497	7.36624e+06	-44789.1	955.818	-29775.1	0.000000	0.000000	6.823075	-0.108377	NaN	0.000000	0.001546	0.001680	28.1072	0.162652	0.002094	77.6873	-11.4098	-169.159	-0.102950	0.821259	-0.389544	-0.390782	-0.108377	77.6873	-0.388498	-91552.4	1.183770E-6	NaN
123	1.000000	0.832502	7.36624e+06	-44789.1	955.818	-29775.1	0.000000	0.000000	6.833081	-0.077609	NaN	0.000000	0.001523	0.001683	28.0807	0.090667	0.001975	45.9035	-68.0159	10.6348	-0.036604	0.831165	-0.379539	-0.380876	-0.077609	45.9035	-0.378271	-65322.9	1.188085E-6	NaN
123	1.000000	0.842472	7.36624e+06	-44789.1	955.818	-29775.1	0.000000	0.000000	6.843052	-0.074664	NaN	0.000000	0.001516	0.001709	28.0905	0.052002	0.001955	26.5941	-7.813282	-166.884	-0.025557	0.841210	-0.369569	-0.370831	-0.074664	26.5941	-0.367463	-45663.8	1.635076E-6	NaN
123	1.000000	0.852511	7.36624e+06	-44789.1	955.818	-29775.1	0.000000	0.000000	6.853089	-0.111890	NaN	0.000000	0.001562	0.001721	28.1307	0.053926	0.002061	26.1678	18.3892	14.4333	-0.102204	0.851112	-0.359530	-0.360929	-0.111890	26.1678	-0.356323	-31524.9	3.549240E-6	NaN
123	1.000000	0.862531	7.36624e+06	-44789.1	955.819	-29775.1	0.000000	0.000000	6.863112	-0.048618	NaN	0.000000	0.001572	0.001695	28.108	0.132013	0.001998	66.0869	89.5291	-166.207	0.000902	0.861217	-0.349510	-0.350824	-0.048618	66.0869	-0.348958	-24653.3	1.972083E-6	NaN
123	1.000000	0.872508	7.36624e+06	-44789.1	955.818	-29775.1	0.000000	0.000000	6.873086	-0.104859	NaN	0.000000	0.001563	0.001694	28.0802	0.121052	0.002004	60.3976	-101.829	14.0948	-0.061716	0.871173	-0.339533	-0.340868	-0.104859	60.3976	-0.338231	-17208.8	6.093352E-6	NaN
123	1.000000	0.882533	7.36624e+06	-44789.1	955.818	-29775.1	0.000000	0.000000	6.883114	-0.042614	NaN	0.000000	0.001559	0.001689	28.0887	0.018071	0.001984	9.106961	-123.915	-164.202	0.001593	0.881254	-0.329508	-0.330787	-0.042614	9.106961	-0.325998	-11397	3.739013E-6	NaN
123	1.000000	0.892551	7.36624e+06	-44789.1	955.819	-29775.1	0.000000	0.000000	6.893132	-0.023497	NaN	0.000000	0.001553	0.001708	28.1277	0.064881	0.002113	30.7012	-45.9732	12.1353	-0.040027	0.891169	-0.319490	-0.320872	-0.023497	30.7012	-0.318916	-8967.78	2.620186E-6	NaN
123	1.000000	0.902516	7.36624e+06	-44789.1	955.818	-29775.1	0.000000	0.000000	6.903096	-0.058918	NaN	0.000000	0.001563	0.001690	28.1066	0.088419	0.002087	42.3642	134.315	-164.474	-0.153113	0.901220	-0.309525	-0.310821	-0.058918	42.3642	-0.308482	-6289.06	9.368399E-6	NaN
123	1.000000	0.912535	7.36624e+06	-44789.1	955.818	-29775.1	0.000000	0.000000	6.913117	-0.010634	NaN	0.000000	0.001574	0.001709	28.0801	0.034020	0.002004	16.9758	106.988	13.5208	0.134313	0.911149	-0.299506	-0.300892	-0.010634	16.9758	-0.299036	-4552.8	2.335610E-6	NaN
123	1.000000	0.922525	7.36624e+06	-44789.1	955.819	-29775.1	0.000000	0.000000	6.923107	-0.016274	NaN	0.000000	0.001578	0.001756	28.0892	0.199796	0.001855	107.723	-44.9192	-164.436	0.056327	0.921176	-0.289516	-0.290865	-0.016274	107.723	-0.289402	-3268.5	4.979142E-6	NaN
123	1.000000	0.932527	7.36624e+06	-44789.1	955.818	-29775.1	0.000000	0.000000	6.933108	-0.034518	NaN	0.000000	0.001568	0.001711	28.1285	0.074563	0.002023	36.8652	25.2063	12.6612	-0.129558	0.931188	-0.279513	-0.280853	-0.034518	36.8652	-0.278811	-2264.79	1.524100E-5	NaN
123	1.000000	0.942573	7.36624e+06	-44789.1	955.818	-29775.1	0.000000	0.000000	6.943153	-0.047956	NaN	0.000000	0.001556	0.001710	28.1091	0.090796	0.001910	47.5289	-50.9133	-164.559	-0.068735	0.941157	-0.269468	-0.270883	-0.047956	47.5289	-0.268712	-1592.03	3.012285E-5	NaN
123	1.000000	0.952522	7.36624e+06	-44789.1	955.818	-29775.1	0.000000	0.000000	6.953103	-0.014121	NaN	0.000000	0.001547	0.001722	28.0806	0.018104	0.001989	9.104046	-7.121142	15.3912	-0.043923	0.951218	-0.259519	-0.260822	-0.014121	9.104046	-0.258356	-1105.86	1.276933E-5	NaN
123	1.000000	0.962539	7.36624e+06	-44789.1	955.818	-29775.1	0.000000	0.000000	6.963121	-0.005280	NaN	0.000000	0.001545	0.001676	28.0876	0.060152	0.001905	31.5699	138.544	-164.613	-0.052880	0.961216	-0.249502	-0.250825	-0.005280	31.5699	-0.249376	-804.112	6.565661E-6	NaN
123	1.000000	0.972566	7.36624e+06	-44789.1	955.818	-29775.1	0.000000	0.000000	6.973144	-0.101054	NaN	0.000000	0.001562	0.001680	28.1266	0.061650	0.002042	30.1936	-176.791	16.363	-0.133961	0.971143	-0.239475	-0.240897	-0.101054	30.1936	-0.236965	-515.31	0.000196	NaN
123	1.000000	0.982558	7.36624e+06	-44789.1	955.819	-29775.1	0.000000	0.000000	6.983138	-0.065501	NaN	0.000000	0.001537	0.001690	28.1068	0.073951	0.002075	35.6336	-142.214	-169.15	-0.010342	0.981299	-0.229483	-0.230742	-0.065501	35.6336	-0.228104	-373.722	0.000175	NaN
123	1.000000	0.992568	7.36624e+06	-44789.1	955.818	-29775.1	0.000000	0.000000	6.993148	-0.067979	NaN	0.000000	0.001575	0.001682	28.0792	0.040194	0.002029	19.8093	67.1567	15.8659	-0.118537	0.991201	-0.219473	-0.220840	-0.067979	19.8093	-0.216899	-247.755	0.000274	NaN
123	1.000000	1.002607	7.36624e+06	-44789.1	955.818	-29775.1	0.000000	0.000000	7.003188	-0.023140	NaN	0.000000	0.001545	0.001674	28.0897	0.033668	0.002087	16.1332	-166.22	-160.516	-0.116170	1.001296	-0.209434	-0.210745	-0.023140	16.1332	-0.208358	-180.387	0.000128	NaN
123	1.000000	1.012576	7.36624e+06	-44789.1	955.818	-29775.1	0.000000	0.000000	7.013155	-0.078381	NaN	0.000000	0.001562	0.001713	28.129	0.051419	0.002002	25.6885	-37.1219	16.3728	-0.067936	1.011209	-0.199465	-0.200832	-0.078381	25.6885	-0.197176	-118.356	0.000662	NaN
123	1.000000	1.022596	7.36624e+06	-44789.1	955.818	-29775.1	0.000000	0.000000	7.023175	-0.082081	NaN	0.000000	0.001515	0.001690	28.109	0.037807	0.002008	18.8248	107.949	-160.322	0.005626	1.021279	-0.189444	-0.190761	-0.082081	18.8248	-0.186174	-77.6073	0.001058	NaN
123	1.000000	1.032576	7.36624e+06	-44789.1	955.819	-29775.1	0.000000	0.000000	7.033158	-0.012442	NaN	0.000000	0.001537	0.001676	28.0816	0.081172	0.001932	42.0124	-98.5392	15.6174	0.044495	1.031192	-0.179465	-0.180849	-0.012442	42.0124	-0.179243	-59.2344	0.000210	NaN
123	1.000000	1.042604	7.36624e+06	-44789.1	955.819	-29775.1	0.000000	0.000000	7.043184	-0.040795	NaN	0.000000	0.001524	0.001670	28.0898	0.184982	0.002149	86.079	-156.253	-165.297	-0.017374	1.041320	-0.169437	-0.170721	-0.040795	86.079	-0.169082	-39.5962	0.001030	NaN
123	1.000000	1.052605	7.36624e+06	-44789.1	955.819	-29775.1	0.000000	0.000000	7.053185	-0.062397	NaN	0.000000	0.001533	0.001719	28.1281	0.144876	0.002008	72.1448	-90.3257	14.2682	-0.039368	1.051271	-0.159436	-0.160770	-0.062397	72.1448	-0.158787	-26.086	0.002392	NaN
123	1.000000	1.062596	7.36624e+06	-44789.1	955.818	-29775.1	0.000000	0.000000	7.063175	-0.083073	NaN	0.000000	0.001534	0.001703	28.1078	0.069637	0.001917	36.3329	152.931	-165.666	-0.066154	1.061315	-0.149445	-0.150726	-0.083073	36.3329	-0.147730	-16.4615	0.005046	NaN
123	1.000000	1.072608	7.36624e+06	-44789.1	955.818	-29775.1	0.000000	0.000000	7.073188	-0.057238	NaN	0.000000	0.001532	0.001687	28.0809	0.072427	0.001870	38.7283	-112.646	17.5591	0.005111	1.071203	-0.139433	-0.140838	-0.057238	38.7283	-0.138324	-11.0004	0.005203	NaN
123	1.000000	1.082584	7.36624e+06	-44789.1	955.818	-29775.1	0.000000	0.000000	7.083165	-0.032608	NaN	0.000000	0.001549	0.001672	28.0895	0.033510	0.002109	15.889	10.9677	-165.634	-0.042654	1.081302	-0.129457	-0.130739	-0.032608	15.889	-0.127918	-6.940992	0.004698	NaN
123	1.000000	1.092588	7.36624e+06	-44789.1	955.819	-29775.1	0.000000	0.000000	7.093172	0.028101	NaN	0.000000	0.001534	0.001690	28.1297	0.075314	0.001950	38.6316	-125.239	13.8968	0.136051	1.091317	-0.119453	-0.120724	0.028101	38.6316	-0.119998	-4.831125	-0.005817	NaN
123	1.000000	1.102612	7.36624e+06	-44789.1	955.819	-29775.1	0.000000	0.000000	7.103192	-0.064766	NaN	0.000000	0.001544	0.001665	28.1092	0.068558	0.002010	34.1146	30.4937	-164.514	-0.033122	1.101330	-0.109429	-0.110711	-0.064766	34.1146	-0.108005	-2.726489	0.023755	NaN
123	1.000000	1.112596	7.36624e+06	-44789.1	955.818	-29775.1	0.000000	0.000000	7.113176	-0.070901	NaN	0.000000	0.001604	0.001712	28.0821	0.089135	0.001935	46.0745	112.481	17.3072	-0.097733	1.111283	-0.099445	-0.100758	-0.070901	46.0745	-0.098290	-1.673796	0.042359	NaN
123	1.000000	1.122618	7.36624e+06	-44789.1	955.818	-29775.1	0.000000	0.000000	7.123200	0.002178	NaN	0.000000	0.001620	0.001670	28.0892	0.066375	0.001929	34.4139	-51.5971	-165.353	-0.085195	1.121277	-0.089423	-0.090764	0.002178	34.4139	-0.089471	-1.050466	-0.002073	NaN
123	1.000000	1.132618	7.36625e+06	-44789.1	955.818	-29775.1	0.000000	0.000000	7.133196	-0.089891	NaN	0.000000	0.001583	0.001685	28.1279	0.072612	0.002001	36.2936	-149.346	16.1936	0.064187	1.131274	-0.079423	-0.080767	-0.089891	36.2936	-0.077566	-0.537422	0.167263	NaN
123	1.000000	1.142638	7.36625e+06	-44789.1	955.817	-29775.1	0.000000	0.000000	7.143220	-0.014925	NaN	0.000000	0.001603	0.001681	28.1086	0.090445	0.001961	46.1113	31.4629	-165.117	-0.052933	1.141342	-0.069403	-0.070699	-0.014925	46.1113	-0.069160	-0.323834	0.046089	NaN
123	1.000000	1.152616	7.36625e+06	-44789.1	955.819	-29775.1	0.000000	0.000000	7.153194	-0.106656	NaN	0.000000	0.001621	0.001679	28.0796	0.076710	0.002027	37.842	-128.701	17.4678	-0.099797	1.151251	-0.059425	-0.060790	-0.106656	37.842	-0.057311	-0.150561	0.708390	NaN
123	1.000000	1.162597	7.36625e+06	-44789.1	955.818	-29775.1	0.000000	0.000000	7.163177	-0.062780	NaN	0.000000	0.001556	0.001724	28.0882	0.236591	0.001904	124.284	-91.5021	-165.892	-0.069976	1.161342	-0.049444	-0.050699	-0.062780	124.284	-0.049065	-0.085489	0.734368	NaN
123	1.000000	1.172622	7.36625e+06	-44789.1	955.819	-29775.1	0.000000	0.000000	7.173202	-0.048532	NaN	0.000000	0.001541	0.001699	28.1281	0.070344	0.001979	35.5373	47.101	16.5609	-0.083417	1.171302	-0.039419	-0.040739	-0.048532	35.5373	-0.038395	-0.040435	1.200248	NaN
123	1.000000	1.182621	7.36625e+06	-44789.1	955.818	-29775.1	0.000000	0.000000	7.183201	-0.041788	NaN	0.000000	0.001569	0.001658	28.1096	0.084964	0.001945	43.6775	-154.249	-163.2	-0.037447	1.181321	-0.029420	-0.030720	-0.041788	43.6775	-0.028703	-0.021190	1.972094	NaN
123	1.000000	1.192659	7.36625e+06	-44789.1	955.818	-29775.1	0.000000	0.000000	7.193237	-0.107236	NaN	0.000000	0.001596	0.001694	28.0813	0.052119	0.002003	26.0225	101.521	13.3802	-0.070885	1.191325	-0.019381	-0.020716	-0.107236	26.0225	-0.016291	-0.010063	10.6562	NaN
123	1.000000	1.202646	7.36625e+06	-44789.1	955.819	-29775.1	0.000000	0.000000	7.203227	-0.042292	NaN	0.000000	0.001592	0.001697	28.0877	0.057699	0.002145	26.9052	-4.184374	-163.68	-0.107633	1.201333	-0.009395	-0.010708	-0.042292	26.9052	-0.008216	-0.005358	7.893480	NaN
123	1.000000	1.212656	7.36625e+06	-44789.1	955.819	-29775.1	0.000000	0.000000	7.213253	0.352053	NaN	0.000000	0.001544	0.001710	28.1262	0.723922	0.001866	388.043	13.4423	17.1342	0.010941	1.211303	0.000615	-0.000738	0.352053	388.043	-6.559227E-5	-4.895562E-5	-7191.28	NaN
123	2.000000	1.222036	7.36625e+06	-44789.1	955.819	-29775.1	0.000000	0.000000	7.223005	9.421052	NaN	0.000000	0.001537	0.001690	28.1074	9.623028	0.001575	6110.53	9.547944	-173.403	9.177685	1.221286	0.009995	0.009245	9.421052	6110.53	0.008838	0.007919	1189.68	62736.1
123	2.000000	1.224686	7.36625e+06	-44789.1	955.819	-29775.1	0.000000	0.000000	7.225804	13.0275	NaN	0.000000	0.001525	0.001698	28.0791	12.2149	0.001664	7340.95	6.176689	7.009828	13.2452	1.224227	0.012645	0.012186	13.0275	7340.95	0.011314	0.010679	1219.92	64902.6
123	2.000000	1.227122	7.36625e+06	-44789.1	955.819	-29775.1	0.000000	0.000000	7.228357	15.8722	NaN	0.000000	0.001572	0.001726	28.088	14.74	0.001628	9053.03	2.311918	-171.908	16.281	1.226827	0.015082	0.014786	15.8722	9053.03	0.013767	0.013676	1160.62	70728.3
123	2.000000	1.229592	7.36625e+06	-44789.1	955.819	-29775.1	0.000000	0.000000	7.230915	18.0104	NaN	0.000000	0.001565	0.001696	28.1276	17.1348	0.001792	9560.28	9.692605	1.863449	17.7474	1.229231	0.017551	0.017190	18.0104	9560.28	0.016138	0.016833	1069.92	67322.3
123	2.000000	1.232056	7.36625e+06	-44789.1	955.819	-29775.1	0.000000	0.000000	7.233661	24.8885	NaN	0.000000	0.001538	0.001692	28.1093	19.4057	0.001744	11126.2	6.180344	-176.977	24.2427	1.231754	0.020015	0.019713	24.8885	11126.2	0.018337	0.019997	1244.64	71885.5
123	2.000000	1.234599	7.36625e+06	-44789.1	955.82	-29775.1	0.000000	0.000000	7.236362	28.7265	NaN	0.000000	0.001530	0.001700	28.081	22.4864	0.001897	11854.6	5.078111	5.126487	28.9906	1.234194	0.022558	0.022153	28.7265	11854.6	0.020741	0.023720	1211.09	70324.3
123	2.000000	1.237063	7.36625e+06	-44789.1	955.818	-29775.1	0.000000	0.000000	7.239178	37.3015	NaN	0.000000	0.001566	0.001667	28.088	25.5213	0.001769	14428.4	10.5306	178.869	38.1332	1.236773	0.025022	0.024732	37.3015	14428.4	0.023083	0.027620	1350.53	79319.7
123	2.000000	1.239566	7.36625e+06	-44789.1	955.818	-29775.1	0.000000	0.000000	7.241844	41.2466	NaN	0.000000	0.001595	0.001683	28.1292	27.0012	0.001784	15135.9	3.843229	3.481668	39.9951	1.239304	0.027525	0.027263	41.2466	15135.9	0.025481	0.031897	1293.13	77429.9
123	2.000000	1.242041	7.36625e+06	-44789.1	955.819	-29775.1	0.000000	0.000000	7.244690	50.2792	NaN	0.000000	0.001583	0.001703	28.1098	29.4858	0.001772	16643.8	5.675707	-179.262	49.1322	1.241761	0.030000	0.029720	50.2792	16643.8	0.027734	0.036178	1389.76	79946.8
123	2.000000	1.244497	7.36625e+06	-44789.1	955.819	-29775.1	0.000000	0.000000	7.247532	59.6679	NaN	0.000000	0.001567	0.001689	28.0824	32.8999	0.001833	17950.5	8.946858	-3.097318	58.3263	1.244140	0.032456	0.032099	59.6679	17950.5	0.029963	0.040667	1467.24	81325.9
123	2.000000	1.247038	7.36625e+06	-44789.1	955.819	-29775.1	0.000000	0.000000	7.250224	63.3407	NaN	0.000000	0.001564	0.001675	28.0886	35.1175	0.001736	20225.5	4.925186	179.767	63.3075	1.246818	0.034997	0.034777	63.3407	20225.5	0.032648	0.046412	1364.75	85774.6
123	2.000000	1.249529	7.36625e+06	-44789.1	955.819	-29775.1	0.000000	0.000000	7.253121	73.208	NaN	0.000000	0.001541	0.001688	28.1287	37.3002	0.001827	20414.7	10.1954	-4.467748	72.661	1.249117	0.037488	0.037076	73.208	20414.7	0.034798	0.051278	1427.67	82366.5
123	2.000000	1.252020	7.36625e+06	-44789.1	955.819	-29775.1	0.000000	0.000000	7.255959	81.6578	NaN	0.000000	0.001563	0.001680	28.1117	38.8993	0.001807	21527.6	6.812449	177.6	81.3342	1.251706	0.039979	0.039665	81.6578	21527.6	0.037135	0.056833	1436.8	82502.7
123	2.000000	1.254531	7.36625e+06	-44789.1	955.819	-29775.1	0.000000	0.000000	7.258859	91.1177	NaN	0.000000	0.001566	0.001724	28.0819	42.179	0.001887	22347.8	5.519071	-1.340983	90.5365	1.254155	0.042490	0.042114	91.1177	22347.8	0.039432	0.062569	1456.28	81626.3
123	2.000000	1.256994	7.36625e+06	-44789.1	955.819	-29775.1	0.000000	0.000000	7.261778	102.217	NaN	0.000000	0.001525	0.001697	28.0879	45.1274	0.001827	24697.6	8.064862	175.619	100.523	1.256703	0.044953	0.044662	102.217	24697.6	0.041849	0.068895	1483.68	85967.8
123	2.000000	1.259484	7.36625e+06	-44789.1	955.819	-29775.1	0.000000	0.000000	7.264838	116.077	NaN	0.000000	0.001547	0.001688	28.1276	45.698	0.001791	25513.1	3.886738	-0.854620	112.638	1.259163	0.047443	0.047122	116.077	25513.1	0.044031	0.074860	1550.59	85194.6
123	2.000000	1.261959	7.36625e+06	-44789.1	955.819	-29775.1	0.000000	0.000000	7.267491	120.436	NaN	0.000000	0.001541	0.001713	28.1099	48.5074	0.001716	28272	4.152978	176.772	117.865	1.261692	0.049918	0.049651	120.436	28272	0.046723	0.082553	1458.89	89900.6
123	2.000000	1.264537	7.36625e+06	-44789.1	955.819	-29775.1	0.000000	0.000000	7.270584	132.944	NaN	0.000000	0.001584	0.001696	28.0816	51.5568	0.001855	27793.7	5.274399	-2.512077	132.364	1.264127	0.052496	0.052086	132.944	27793.7	0.048908	0.089069	1492.6	85085.7
123	2.000000	1.266995	7.36625e+06	-44789.1	955.819	-29775.1	0.000000	0.000000	7.273549	145.263	NaN	0.000000	0.001554	0.001663	28.0887	53.105	0.001677	31668.9	2.696287	177.832	143.052	1.266636	0.054954	0.054595	145.263	31668.9	0.051514	0.097151	1495.23	92828.9
123	2.000000	1.269487	7.36625e+06	-44789.1	955.82	-29775.1	0.000000	0.000000	7.276444	155.085	NaN	0.000000	0.001537	0.001692	28.1267	56.492	0.001851	30520.3	7.217305	-6.172102	152.134	1.269160	0.057446	0.057119	155.085	30520.3	0.053635	0.103980	1491.48	86474.3
123	2.000000	1.271953	7.36625e+06	-44789.1	955.819	-29775.1	0.000000	0.000000	7.279578	171.334	NaN	0.000000	0.001551	0.001717	28.1095	58.2568	0.001848	31529.9	6.723237	174.546	168.176	1.271671	0.059912	0.059630	171.334	31529.9	0.055837	0.111304	1539.33	86345.4
123	2.000000	1.274486	7.36625e+06	-44789.1	955.819	-29775.1	0.000000	0.000000	7.282634	184.072	NaN	0.000000	0.001562	0.001698	28.082	60.9153	0.001766	34487.8	5.697059	-5.961605	181.584	1.274187	0.062445	0.062146	184.072	34487.8	0.058442	0.120280	1530.37	90853.9
123	2.000000	1.276963	7.36625e+06	-44789.1	955.819	-29775.1	0.000000	0.000000	7.285547	194.657	NaN	0.000000	0.001548	0.001703	28.0872	62.5928	0.001791	34941.3	2.519029	177.74	191.571	1.276574	0.064922	0.064533	194.657	34941.3	0.060744	0.128490	1514.95	89058.9
123	2.000000	1.279492	7.36625e+06	-44789.1	955.818	-29775.1	0.000000	0.000000	7.288825	212.895	NaN	0.000000	0.001584	0.001722	28.1258	64.8924	0.001788	36294.4	7.971319	-7.278652	209.044	1.279080	0.067451	0.067039	212.895	36294.4	0.063052	0.136978	1554.23	89595.7
123	2.000000	1.281985	7.36625e+06	-44789.1	955.819	-29775.1	0.000000	0.000000	7.291929	227.74	NaN	0.000000	0.001579	0.001729	28.1095	67.6597	0.001818	37214.5	5.975823	174.437	226.387	1.281610	0.069944	0.069569	227.74	37214.5	0.065355	0.145706	1563.01	89073.1
123	2.000000	1.284417	7.36625e+06	-44789.1	955.819	-29775.1	0.000000	0.000000	7.294771	237.723	NaN	0.000000	0.001582	0.001707	28.0803	70.8386	0.001907	37137.9	4.331894	-4.486131	232.532	1.284094	0.072376	0.072053	237.723	37137.9	0.067575	0.154363	1540.03	86361.3
123	2.000000	1.286947	7.36625e+06	-44789.1	955.819	-29775.1	0.000000	0.000000	7.297779	249.349	NaN	0.000000	0.001585	0.001748	28.0873	72.4299	0.001830	39578.5	1.607038	177.17	246.517	1.286734	0.074906	0.074693	249.349	39578.5	0.070181	0.164824	1512.82	89068.2
123	2.000000	1.289482	7.36625e+06	-44789.1	955.819	-29775.1	0.000000	0.000000	7.301070	267.735	NaN	0.000000	0.001583	0.001752	28.1264	73.5474	0.001736	42360.3	4.043613	-5.058858	265.47	1.289109	0.077441	0.077068	267.735	42360.3	0.072701	0.175248	1527.75	92449.9
123	2.000000	1.291990	7.36625e+06	-44789.1	955.819	-29775.1	0.000000	0.000000	7.304427	288.39	NaN	0.000000	0.001586	0.001737	28.1103	75.7784	0.001704	44477.8	3.630753	174.967	287.901	1.291622	0.079950	0.079581	288.39	44477.8	0.075087	0.185393	1555.56	94377.9
123	2.000000	1.294534	7.36625e+06	-44789.1	955.819	-29775.1	0.000000	0.000000	7.307387	298.521	NaN	0.000000	0.001589	0.001745	28.0792	80.204	0.001737	46175.8	9.444215	-11.1251	300.888	1.294025	0.082493	0.081984	298.521	46175.8	0.077644	0.196566	1518.68	95155.4
123	2.000000	1.296938	7.36625e+06	-44789.1	955.819	-29775.1	0.000000	0.000000	7.310644	319.286	NaN	0.000000	0.001530	0.001739	28.0857	82.8263	0.001834	45164.2	4.408069	174.003	317.908	1.296622	0.084897	0.084581	319.286	45164.2	0.079595	0.205293	1555.27	91071.2
123	2.000000	1.299455	7.36625e+06	-44789.1	955.819	-29775.1	0.000000	0.000000	7.314067	341.316	NaN	0.000000	0.001600	0.001748	28.1257	84.5463	0.001836	46043.5	7.173337	-8.488610	337.082	1.299052	0.087414	0.087011	341.316	46043.5	0.081854	0.215625	1582.92	90592.5
123	2.000000	1.302019	7.36625e+06	-44789.1	955.819	-29775.1	0.000000	0.000000	7.317244	356.221	NaN	0.000000	0.001578	0.001776	28.1101	86.6163	0.001771	48921.5	8.582295	168.875	357.393	1.301632	0.089978	0.089591	356.221	48921.5	0.084517	0.228102	1561.67	93585.4
123	2.000000	1.304437	7.36625e+06	-44789.1	955.819	-29775.1	0.000000	0.000000	7.320376	373.587	NaN	0.000000	0.001571	0.001784	28.0818	90.9177	0.001824	49834.5	9.157746	-12.0836	369.75	1.304077	0.092396	0.092036	373.587	49834.5	0.086774	0.238935	1563.55	93145.9
123	2.000000	1.307015	7.36625e+06	-44789.1	955.82	-29775.1	0.000000	0.000000	7.324041	400.019	NaN	0.000000	0.001556	0.001784	28.0868	93.1012	0.001822	51091.4	6.003069	170.888	401.382	1.306672	0.094974	0.094631	400.019	51091.4	0.089102	0.250359	1597.78	93291.1
123	2.000000	1.309516	7.36625e+06	-44789.1	955.82	-29775.1	0.000000	0.000000	7.327413	421.225	NaN	0.000000	0.001548	0.001761	28.1271	93.4765	0.001712	54602.9	3.055153	-6.291534	418.923	1.309131	0.097475	0.097090	421.225	54602.9	0.091689	0.263341	1599.54	97214.1
123	2.000000	1.311975	7.36625e+06	-44789.1	955.819	-29775.1	0.000000	0.000000	7.330692	441.172	NaN	0.000000	0.001534	0.001744	28.1125	96.7301	0.001688	57305.2	7.068297	169.678	441.005	1.311598	0.099934	0.099557	441.172	57305.2	0.094160	0.276026	1598.3	99653.6
123	2.000000	1.314404	7.36625e+06	-44789.1	955.818	-29775.1	0.000000	0.000000	7.333840	458.675	NaN	0.000000	0.001540	0.001701	28.0831	98.7998	0.001895	52124	4.246568	-7.180309	454.703	1.314044	0.102363	0.102003	458.675	52124	0.095763	0.284407	1612.74	89297.7
123	2.000000	1.317018	7.36625e+06	-44789.1	955.819	-29775.1	0.000000	0.000000	7.337142	475.405	NaN	0.000000	0.001565	0.001699	28.0874	101.884	0.001862	54713.5	6.005344	170.745	480.763	1.316688	0.104977	0.104647	475.405	54713.5	0.098460	0.298770	1591.21	91453.3
123	2.000000	1.319392	7.36625e+06	-44789.1	955.819	-29775.1	0.000000	0.000000	7.340661	503.266	NaN	0.000000	0.001607	0.001705	28.1267	103.262	0.001827	56508.2	5.035764	-8.445225	495.568	1.319006	0.107351	0.106965	503.266	56508.2	0.100671	0.310791	1619.31	92608.4
123	2.000000	1.320482	7.36625e+06	-44789.1	955.819	-29775.1	0.000000	0.000000	7.342013	509.626	NaN	0.000000	0.001623	0.001695	28.0827	105.589	0.001777	59432.1	8.041874	-11.1955	510.123	1.320034	0.108441	0.107993	509.626	59432.1	0.102010	0.318180	1601.69	96262.6