File: remote_trans/data/nanoindenter/0828-1/data/Data_2025-08-06,11h17m57s/2025-07-22_16-23-58_1_1194.txt
2025-07-22, 16:23:58, 1
Index	Phase	Displacement	Time	Pos X	Pos Y	Pos Z	Rot A	Rot B	Piezo Z	Force A	Force B	Gripper	Voltage A	Voltage B	Temperature	Amplitude force	Amplitude pos	Stiffness	Phase shift	Phase excitation	Force A raw	Displacement raw	HMax	HMax raw	Real Force	Real Stiffness	Contact Depth	Area	Hardness	Reduced Mod.
[#]	[#]	[um]	[s]	[um]	[um]	[um]	[m°]	[m°]	[um]	[uN]	[uN]	[V]	[V]	[V]	[°C]	[uN]	[um]	[N/m]	[°]	[°]	[uN]	[um]	[um]	[um]	[uN]	[N/m]	[um]	[um^2]	[MPa]	[MPa]
1194	1.000000	0.002298	7.37672e+06	-55889.1	1105.82	-29740.4	0.000000	0.000000	6.002822	-0.073558	NaN	0.000000	0.001670	0.001715	28.0823	0.085251	0.000882	96.635	11.3006	-164.103	-0.037444	0.001005	-1.037215	-1.038508	-0.073558	96.635	-1.036644	-7.060537E+13	1.041813E-15	NaN
1194	1.000000	0.010218	7.37672e+06	-55889.1	1105.82	-29740.4	0.000000	0.000000	6.010747	0.060213	NaN	0.000000	0.001669	0.001710	28.0826	0.009778	0.001083	9.028406	-171.816	-167.946	0.020747	0.008901	-1.029296	-1.030612	0.060213	9.028406	-1.034298	-6.565714E+13	-9.170894E-16	NaN
1194	1.000000	0.018231	7.37672e+06	-55889.1	1105.82	-29740.4	0.000000	0.000000	6.018757	-0.022681	NaN	0.000000	0.001667	0.001703	28.0826	0.084451	0.001723	49.0263	103.912	-168.767	-0.008157	0.016958	-1.021282	-1.022556	-0.022681	49.0263	-1.020935	-4.340416E+13	5.225623E-16	NaN
1194	1.000000	0.026273	7.37672e+06	-55889.1	1105.82	-29740.4	0.000000	0.000000	6.026796	-0.087102	NaN	0.000000	0.001682	0.001671	28.0822	0.070950	0.001851	38.3372	-83.9195	-162.58	-0.014930	0.024874	-1.013241	-1.014639	-0.087102	38.3372	-1.011537	-3.243866E+13	2.685136E-15	NaN
1194	1.000000	0.034195	7.37672e+06	-55889.1	1105.82	-29740.4	0.000000	0.000000	6.034722	-0.007725	NaN	0.000000	0.001641	0.001688	28.0822	0.070365	0.001956	35.9761	46.0953	-166.667	-0.006566	0.032963	-1.005318	-1.006550	-0.007725	35.9761	-1.005157	-2.661899E+13	2.902144E-16	NaN
1194	1.000000	0.042212	7.37672e+06	-55889.1	1105.82	-29740.4	0.000000	0.000000	6.042739	0.016807	NaN	0.000000	0.001645	0.001677	28.0823	0.064947	0.001971	32.9471	-29.6231	-165.51	-0.047690	0.040982	-0.997301	-0.998532	0.016807	32.9471	-0.997684	-2.111455E+13	-7.959736E-16	NaN
1194	1.000000	0.050223	7.37672e+06	-55889.1	1105.82	-29740.4	0.000000	0.000000	6.050749	-0.013221	NaN	0.000000	0.001637	0.001662	28.0822	0.049243	0.001918	25.6716	-132.157	-165.14	-0.034535	0.048931	-0.989290	-0.990582	-0.013221	25.6716	-0.988904	-1.608237E+13	8.220634E-16	NaN
1194	1.000000	0.058232	7.37672e+06	-55889.1	1105.82	-29740.4	0.000000	0.000000	6.058760	0.023722	NaN	0.000000	0.001631	0.001633	28.0823	0.070830	0.001816	39.0127	179.994	-165.617	0.004374	0.056945	-0.981281	-0.982568	0.023722	39.0127	-0.981737	-1.287682E+13	-1.842229E-15	NaN
1194	1.000000	0.066271	7.37672e+06	-55889.1	1105.82	-29740.4	0.000000	0.000000	6.066797	0.003152	NaN	0.000000	0.001645	0.001662	28.0822	0.060281	0.001978	30.4782	113.208	-168.238	0.018780	0.064871	-0.973243	-0.974643	0.003152	30.4782	-0.973320	-9.917571E+12	-3.178363E-16	NaN
1194	1.000000	0.074220	7.37672e+06	-55889.1	1105.82	-29740.4	0.000000	0.000000	6.074749	0.052318	NaN	0.000000	0.001682	0.001654	28.082	0.058441	0.002013	29.0324	-35.2512	-167.038	-0.026163	0.072994	-0.965293	-0.966519	0.052318	29.0324	-0.966645	-8.062005E+12	-6.489512E-15	NaN
1194	1.000000	0.082217	7.37672e+06	-55889.1	1105.82	-29740.4	0.000000	0.000000	6.082742	-0.031727	NaN	0.000000	0.001634	0.001652	28.0824	0.070303	0.002155	32.6167	109.4	-167.472	0.079324	0.081001	-0.957296	-0.958513	-0.031727	32.6167	-0.956566	-5.896262E+12	5.380796E-15	NaN
1194	1.000000	0.090221	7.37672e+06	-55889.1	1105.82	-29740.4	0.000000	0.000000	6.090749	0.043802	NaN	0.000000	0.001634	0.001635	28.082	0.037262	0.002020	18.4508	-94.7201	-164.22	0.020591	0.088949	-0.949292	-0.950565	0.043802	18.4508	-0.951073	-4.971580E+12	-8.810525E-15	NaN
1194	1.000000	0.098265	7.37672e+06	-55889.1	1105.82	-29740.4	0.000000	0.000000	6.098791	0.003295	NaN	0.000000	0.001643	0.001626	28.0811	0.081236	0.002034	39.9354	159.822	-164.05	-0.081327	0.096959	-0.941249	-0.942555	0.003295	39.9354	-0.941310	-3.671275E+12	-8.976303E-16	NaN
1194	1.000000	0.106263	7.37672e+06	-55889.1	1105.82	-29740.4	0.000000	0.000000	6.106790	0.021319	NaN	0.000000	0.001628	0.001652	28.0811	0.177049	0.001857	95.3407	116.343	-168.313	0.048160	0.104930	-0.933250	-0.934583	0.021319	95.3407	-0.933418	-2.872932E+12	-7.420806E-15	NaN
1194	1.000000	0.114218	7.37672e+06	-55889.1	1105.82	-29740.4	0.000000	0.000000	6.114745	0.001773	NaN	0.000000	0.001579	0.001634	28.0809	0.073106	0.002060	35.4955	-5.795129	-168.294	-0.038160	0.112926	-0.925295	-0.926587	0.001773	35.4955	-0.925332	-2.234571E+12	-7.933157E-16	NaN
1194	1.000000	0.122256	7.37672e+06	-55889.1	1105.82	-29740.4	0.000000	0.000000	6.122781	-0.033116	NaN	0.000000	0.001565	0.001668	28.081	0.016224	0.001898	8.548363	153.291	-164.629	-0.061360	0.120900	-0.917257	-0.918613	-0.033116	8.548363	-0.914352	-1.588318E+12	2.084957E-14	NaN
1194	1.000000	0.130264	7.37672e+06	-55889.1	1105.82	-29740.4	0.000000	0.000000	6.130789	-0.043062	NaN	0.000000	0.001596	0.001638	28.0809	0.084840	0.001859	45.6289	-64.2367	-167.978	-0.065517	0.129006	-0.909249	-0.910508	-0.043062	45.6289	-0.908542	-1.325753E+12	3.248151E-14	NaN
1194	1.000000	0.138272	7.37672e+06	-55889.1	1105.82	-29740.4	0.000000	0.000000	6.138797	-0.044927	NaN	0.000000	0.001568	0.001646	28.0813	0.070069	0.001995	35.1157	41.9296	-167.262	-0.028986	0.136919	-0.901241	-0.902594	-0.044927	35.1157	-0.900282	-1.025351E+12	4.381628E-14	NaN
1194	1.000000	0.146296	7.37672e+06	-55889.1	1105.82	-29740.4	0.000000	0.000000	6.146821	-0.031032	NaN	0.000000	0.001591	0.001616	28.0811	0.143983	0.002215	65.0179	108.263	-166.796	-0.038277	0.145021	-0.893217	-0.894492	-0.031032	65.0179	-0.892859	-8.138925E+11	3.812794E-14	NaN
1194	1.000000	0.154255	7.37672e+06	-55889.1	1105.82	-29740.4	0.000000	0.000000	6.154782	0.005604	NaN	0.000000	0.001579	0.001618	28.081	0.035813	0.001979	18.1	-71.9643	-165.855	-0.011189	0.152911	-0.885258	-0.886602	0.005604	18.1	-0.885490	-6.470663E+11	-8.660187E-15	NaN
1194	1.000000	0.162263	7.37672e+06	-55889.1	1105.82	-29740.4	0.000000	0.000000	6.162790	-0.002419	NaN	0.000000	0.001536	0.001646	28.0812	0.093468	0.002106	44.3784	174.974	-164.041	-0.008639	0.160977	-0.877250	-0.878536	-0.002419	44.3784	-0.877209	-4.999898E+11	4.838131E-15	NaN
1194	1.000000	0.170264	7.37672e+06	-55889.1	1105.82	-29740.4	0.000000	0.000000	6.170786	-0.105063	NaN	0.000000	0.001592	0.001604	28.081	0.063058	0.001990	31.6847	-136.352	-163.506	-0.110777	0.168937	-0.869249	-0.870576	-0.105063	31.6847	-0.866762	-3.611076E+11	2.909467E-13	NaN
1194	1.000000	0.178261	7.37672e+06	-55889.1	1105.82	-29740.4	0.000000	0.000000	6.178786	-0.042316	NaN	0.000000	0.001567	0.001603	28.0812	0.138057	0.002078	66.4374	-150.655	-165.337	-0.082158	0.176910	-0.861252	-0.862603	-0.042316	66.4374	-0.860775	-2.996446E+11	1.412195E-13	NaN
1194	1.000000	0.186290	7.37672e+06	-55889.1	1105.82	-29740.4	0.000000	0.000000	6.186816	-0.002826	NaN	0.000000	0.001622	0.001618	28.0809	0.070350	0.002081	33.8087	122.336	-169.164	0.040914	0.184979	-0.853223	-0.854534	-0.002826	33.8087	-0.853161	-2.363395E+11	1.195548E-14	NaN
1194	1.000000	0.194276	7.37672e+06	-55889.1	1105.82	-29740.4	0.000000	0.000000	6.194803	0.017100	NaN	0.000000	0.001573	0.001606	28.0808	0.031659	0.001909	16.5841	-154.127	-162.795	-0.052794	0.193016	-0.845237	-0.846497	0.017100	16.5841	-0.846010	-1.891075E+11	-9.042728E-14	NaN
1194	1.000000	0.202271	7.37672e+06	-55889.1	1105.82	-29740.4	0.000000	0.000000	6.202794	-0.074157	NaN	0.000000	0.001578	0.001610	28.0809	0.025724	0.001990	12.9287	-164.243	-165.583	-0.048082	0.200941	-0.837243	-0.838573	-0.074157	12.9287	-0.832941	-1.257885E+11	5.895374E-13	NaN
1194	1.000000	0.210296	7.37672e+06	-55889.1	1105.82	-29740.4	0.000000	0.000000	6.210823	0.000523	NaN	0.000000	0.001571	0.001604	28.0806	0.061054	0.002086	29.2674	-91.4979	-164.858	0.016799	0.209023	-0.829217	-0.830491	0.000523	29.2674	-0.829231	-1.120358E+11	-4.665774E-15	NaN
1194	1.000000	0.218273	7.37672e+06	-55889.1	1105.82	-29740.4	0.000000	0.000000	6.218799	-0.020097	NaN	0.000000	0.001598	0.001589	28.0806	0.059035	0.001979	29.8244	-107.172	-168.013	0.039448	0.216961	-0.821240	-0.822553	-0.020097	29.8244	-0.820735	-8.593632E+10	2.338553E-13	NaN
1194	1.000000	0.226302	7.37672e+06	-55889.1	1105.82	-29740.4	0.000000	0.000000	6.226828	-0.012309	NaN	0.000000	0.001608	0.001585	28.0805	0.103661	0.001997	51.9134	-138.424	-164.791	-0.001133	0.224968	-0.813212	-0.814546	-0.012309	51.9134	-0.813034	-6.756604E+10	1.821762E-13	NaN
1194	1.000000	0.234320	7.37672e+06	-55889.1	1105.82	-29740.4	0.000000	0.000000	6.234846	-0.021363	NaN	0.000000	0.001615	0.001620	28.0819	0.132487	0.001905	69.5499	-33.6479	-167.424	-0.033248	0.232987	-0.805193	-0.806526	-0.021363	69.5499	-0.804963	-5.250735E+10	4.068514E-13	NaN
1194	1.000000	0.242267	7.37672e+06	-55889.1	1105.82	-29740.4	0.000000	0.000000	6.242797	0.065878	NaN	0.000000	0.001596	0.001604	28.0823	0.021946	0.001978	11.0927	34.9818	-166.765	0.118730	0.240989	-0.797246	-0.798524	0.065878	11.0927	-0.801700	-4.741733E+10	-1.389315E-12	NaN
1194	1.000000	0.250328	7.37672e+06	-55889.1	1105.82	-29740.4	0.000000	0.000000	6.250854	-0.004190	NaN	0.000000	0.001565	0.001586	28.0821	0.069300	0.001999	34.6724	-41.3635	-163.607	-0.016343	0.249036	-0.789186	-0.790477	-0.004190	34.6724	-0.789095	-3.197358E+10	1.310520E-13	NaN
1194	1.000000	0.258294	7.37672e+06	-55889.1	1105.82	-29740.4	0.000000	0.000000	6.258818	-0.056325	NaN	0.000000	0.001584	0.001627	28.0822	0.131908	0.002123	62.131	-166.562	-166.902	-0.057111	0.257043	-0.781220	-0.782470	-0.056325	62.131	-0.780540	-2.446619E+10	2.302158E-12	NaN
1194	1.000000	0.266294	7.37672e+06	-55889.1	1105.82	-29740.4	0.000000	0.000000	6.266821	0.008642	NaN	0.000000	0.001566	0.001631	28.0821	0.030394	0.001903	15.9726	166.184	-167.589	-0.037074	0.265015	-0.773219	-0.774498	0.008642	15.9726	-0.773625	-1.970526E+10	-4.385644E-13	NaN
1194	1.000000	0.274291	7.37672e+06	-55889.1	1105.82	-29740.4	0.000000	0.000000	6.274816	-0.044360	NaN	0.000000	0.001580	0.001621	28.0821	0.042972	0.001929	22.2711	-28.8535	-165.748	-0.034772	0.273023	-0.765222	-0.766491	-0.044360	22.2711	-0.763728	-1.445482E+10	3.068905E-12	NaN
1194	1.000000	0.282315	7.37672e+06	-55889.1	1105.82	-29740.4	0.000000	0.000000	6.282841	-0.009249	NaN	0.000000	0.001600	0.001661	28.082	0.016262	0.002130	7.633729	157.521	-167.649	-1.804436E-5	0.281004	-0.757199	-0.758509	-0.009249	7.633729	-0.756290	-1.145051E+10	8.077488E-13	NaN
1194	1.000000	0.290330	7.37672e+06	-55889.1	1105.82	-29740.4	0.000000	0.000000	6.290855	-0.044339	NaN	0.000000	0.001619	0.001629	28.0821	0.114957	0.001968	58.4184	-125.95	-163.264	-0.012713	0.289014	-0.749183	-0.750499	-0.044339	58.4184	-0.748613	-9.002138E+9	4.925427E-12	NaN
1194	1.000000	0.298322	7.37672e+06	-55889.1	1105.82	-29740.4	0.000000	0.000000	6.298846	-0.073543	NaN	0.000000	0.001573	0.001622	28.0822	0.071197	0.001891	37.6559	70.5239	-167.394	-0.105522	0.297030	-0.741191	-0.742483	-0.073543	37.6559	-0.739726	-6.812770E+9	1.079488E-11	NaN
1194	1.000000	0.306365	7.37672e+06	-55889.1	1105.82	-29740.4	0.000000	0.000000	6.306893	0.031011	NaN	0.000000	0.001540	0.001636	28.082	0.071691	0.002018	35.5247	-39.6035	-168.858	0.082721	0.305072	-0.733148	-0.734441	0.031011	35.5247	-0.733803	-5.657617E+9	-5.481200E-12	NaN
1194	1.000000	0.314360	7.37672e+06	-55889.1	1105.82	-29740.4	0.000000	0.000000	6.314884	-0.068737	NaN	0.000000	0.001592	0.001645	28.0822	0.152157	0.002087	72.8965	-36.6581	-166.225	-0.025772	0.313055	-0.725153	-0.726459	-0.068737	72.8965	-0.724446	-4.217862E+9	1.629662E-11	NaN
1194	1.000000	0.322331	7.37672e+06	-55889.1	1105.82	-29740.4	0.000000	0.000000	6.322858	0.008686	NaN	0.000000	0.001598	0.001629	28.0821	0.112276	0.001956	57.4156	138.614	-163.136	0.063544	0.321025	-0.717182	-0.718488	0.008686	57.4156	-0.717295	-3.369648E+9	-2.577762E-12	NaN
1194	1.000000	0.330318	7.37672e+06	-55889.1	1105.82	-29740.4	0.000000	0.000000	6.330844	-0.030406	NaN	0.000000	0.001576	0.001607	28.0821	0.123838	0.001923	64.4126	-166.286	-165.899	0.009335	0.329042	-0.709195	-0.710471	-0.030406	64.4126	-0.708841	-2.583610E+9	1.176862E-11	NaN
1194	1.000000	0.338338	7.37672e+06	-55889.1	1105.82	-29740.4	0.000000	0.000000	6.338863	-0.048325	NaN	0.000000	0.001580	0.001634	28.0819	0.065246	0.001991	32.777	-108.355	-166.877	0.026115	0.337066	-0.701175	-0.702447	-0.048325	32.777	-0.700069	-1.960994E+9	2.464322E-11	NaN
1194	1.000000	0.346363	7.37672e+06	-55889.1	1105.82	-29740.4	0.000000	0.000000	6.346888	-0.028951	NaN	0.000000	0.001602	0.001635	28.0819	0.129421	0.001910	67.7693	-137.402	-169.291	-0.092368	0.345048	-0.693150	-0.694465	-0.028951	67.7693	-0.692830	-1.561674E+9	1.853867E-11	NaN
1194	1.000000	0.354339	7.37672e+06	-55889.1	1105.82	-29740.4	0.000000	0.000000	6.354865	0.004988	NaN	0.000000	0.001599	0.001597	28.0819	0.085766	0.001929	44.4726	16.8464	-165.48	-0.000452	0.352985	-0.685175	-0.686529	0.004988	44.4726	-0.685259	-1.230584E+9	-4.053241E-12	NaN
1194	1.000000	0.362348	7.37672e+06	-55889.1	1105.82	-29740.4	0.000000	0.000000	6.362875	0.015212	NaN	0.000000	0.001568	0.001616	28.0817	0.073441	0.002026	36.2543	24.6701	-168.45	-0.024457	0.361094	-0.677166	-0.678420	0.015212	36.2543	-0.677480	-9.632585E+8	-1.579274E-11	NaN
1194	1.000000	0.370370	7.37672e+06	-55889.1	1105.82	-29740.4	0.000000	0.000000	6.370894	-0.074990	NaN	0.000000	0.001540	0.001631	28.0807	0.087284	0.001962	44.4904	124.051	-163.12	-0.032335	0.369020	-0.669143	-0.670494	-0.074990	44.4904	-0.667879	-7.117985E+8	1.053528E-10	NaN
1194	1.000000	0.378372	7.37672e+06	-55889.1	1105.82	-29740.4	0.000000	0.000000	6.378901	0.068261	NaN	0.000000	0.001554	0.001646	28.0807	0.059135	0.002062	28.6815	98.6532	-166.252	-0.003588	0.377031	-0.661141	-0.662482	0.068261	28.6815	-0.662926	-6.088986E+8	-1.121065E-10	NaN
1194	1.000000	0.386367	7.37672e+06	-55889.1	1105.82	-29740.4	0.000000	0.000000	6.386892	-0.031145	NaN	0.000000	0.001556	0.001650	28.0808	0.065554	0.001933	33.9171	-154.056	-169.35	0.051742	0.385112	-0.653146	-0.654401	-0.031145	33.9171	-0.652458	-4.376466E+8	7.116444E-11	NaN
1194	1.000000	0.394400	7.37672e+06	-55889.1	1105.82	-29740.4	0.000000	0.000000	6.394924	-0.059883	NaN	0.000000	0.001569	0.001630	28.081	0.078833	0.002090	37.719	-32.2494	-166.534	0.029595	0.393085	-0.645113	-0.646428	-0.059883	37.719	-0.643923	-3.342727E+8	1.791434E-10	NaN
1194	1.000000	0.402353	7.37672e+06	-55889.1	1105.82	-29740.4	0.000000	0.000000	6.402881	0.054433	NaN	0.000000	0.001557	0.001649	28.0807	0.009709	0.001934	5.018825	-114.878	-166.853	0.035133	0.401067	-0.637161	-0.638446	0.054433	5.018825	-0.645295	-3.490782E+8	-1.559350E-10	NaN
1194	1.000000	0.410378	7.37672e+06	-55889.1	1105.82	-29740.4	0.000000	0.000000	6.410904	-0.022302	NaN	0.000000	0.001581	0.001649	28.0811	0.048145	0.001957	24.6023	49.0949	-164.666	-0.068662	0.409077	-0.629135	-0.630436	-0.022302	24.6023	-0.628455	-2.050236E+8	1.087762E-10	NaN
1194	1.000000	0.418408	7.37672e+06	-55889.1	1105.82	-29740.4	0.000000	0.000000	6.418932	-0.041794	NaN	0.000000	0.001585	0.001653	28.0808	0.039834	0.002091	19.0519	-43.4877	-165.138	-0.067318	0.417031	-0.621106	-0.622482	-0.041794	19.0519	-0.619460	-1.542467E+8	2.709541E-10	NaN
1194	1.000000	0.426375	7.37672e+06	-55889.1	1105.82	-29740.4	0.000000	0.000000	6.426903	0.030959	NaN	0.000000	0.001581	0.001622	28.0807	0.026026	0.001862	13.9801	37.5566	-167.849	0.085787	0.425057	-0.613138	-0.614456	0.030959	13.9801	-0.614799	-1.330858E+8	-2.326278E-10	NaN
1194	1.000000	0.434389	7.37672e+06	-55889.1	1105.82	-29740.4	0.000000	0.000000	6.434914	-0.034149	NaN	0.000000	0.001611	0.001665	28.0808	0.070902	0.001996	35.5236	179.847	-165.85	-0.027430	0.433028	-0.605124	-0.606486	-0.034149	35.5236	-0.604403	-9.573967E+7	3.566894E-10	NaN
1194	1.000000	0.442370	7.37672e+06	-55889.1	1105.82	-29740.4	0.000000	0.000000	6.442896	-0.018745	NaN	0.000000	0.001607	0.001642	28.0806	0.099089	0.001934	51.2315	150.684	-167.108	-0.034942	0.441071	-0.597143	-0.598442	-0.018745	51.2315	-0.596869	-7.539229E+7	2.486301E-10	NaN
1194	1.000000	0.450379	7.37672e+06	-55889.1	1105.82	-29740.4	0.000000	0.000000	6.450906	0.027252	NaN	0.000000	0.001600	0.001626	28.081	0.007426	0.002006	3.701705	163.338	-166.213	0.017917	0.449053	-0.589134	-0.590460	0.027252	3.701705	-0.594656	-7.028171E+7	-3.877596E-10	NaN
1194	1.000000	0.458422	7.37672e+06	-55889.1	1105.82	-29740.4	0.000000	0.000000	6.458948	-0.032987	NaN	0.000000	0.001643	0.001602	28.0806	0.116892	0.002086	56.0285	131.091	-167.021	-0.098686	0.457105	-0.581091	-0.582408	-0.032987	56.0285	-0.580649	-4.504898E+7	7.322419E-10	NaN
1194	1.000000	0.466397	7.37672e+06	-55889.1	1105.82	-29740.4	0.000000	0.000000	6.466923	-0.021907	NaN	0.000000	0.001637	0.001647	28.0807	0.033867	0.001899	17.8351	-117.701	-165.787	-0.022375	0.465112	-0.573116	-0.574401	-0.021907	17.8351	-0.572195	-3.443166E+7	6.362570E-10	NaN
1194	1.000000	0.474400	7.37672e+06	-55889.1	1105.82	-29740.4	0.000000	0.000000	6.474925	-0.036200	NaN	0.000000	0.001640	0.001626	28.0806	0.028251	0.001962	14.402	-57.4191	-165.94	0.075572	0.473106	-0.565113	-0.566407	-0.036200	14.402	-0.563228	-2.588378E+7	1.398566E-9	NaN
1194	1.000000	0.482406	7.37672e+06	-55889.1	1105.82	-29740.4	0.000000	0.000000	6.482930	-0.050945	NaN	0.000000	0.001611	0.001633	28.0807	0.079165	0.002014	39.3056	55.1058	-165.197	-0.036866	0.481094	-0.557108	-0.558419	-0.050945	39.3056	-0.556135	-2.064924E+7	2.467155E-9	NaN
1194	1.000000	0.490426	7.37672e+06	-55889.1	1105.82	-29740.4	0.000000	0.000000	6.490952	0.001476	NaN	0.000000	0.001628	0.001612	28.0811	0.105098	0.002051	51.2433	-154.143	-166.138	-0.037255	0.489115	-0.549088	-0.550399	0.001476	51.2433	-0.549109	-1.650510E+7	-8.944248E-11	NaN
1194	1.000000	0.498403	7.37672e+06	-55889.1	1105.82	-29740.4	0.000000	0.000000	6.498927	-0.071988	NaN	0.000000	0.001633	0.001636	28.0806	0.099274	0.001906	52.0903	88.3185	-168.094	-0.028561	0.497163	-0.541110	-0.542350	-0.071988	52.0903	-0.540074	-1.237035E+7	5.819380E-9	NaN
1194	1.000000	0.506437	7.37672e+06	-55889.1	1105.82	-29740.4	0.000000	0.000000	6.506967	0.066004	NaN	0.000000	0.001587	0.001633	28.0821	0.143567	0.002171	66.1323	12.9412	-162.727	0.007836	0.505075	-0.533076	-0.534438	0.066004	66.1323	-0.533824	-1.013151E+7	-6.514691E-9	NaN
1194	1.000000	0.514404	7.37672e+06	-55889.1	1105.82	-29740.4	0.000000	0.000000	6.514929	-0.036847	NaN	0.000000	0.001579	0.001641	28.0821	0.094139	0.001958	48.07	-118.37	-165.239	0.040059	0.513131	-0.525109	-0.526382	-0.036847	48.07	-0.524534	-7.52727e+06	4.895154E-9	NaN
1194	1.000000	0.522399	7.37672e+06	-55889.1	1105.82	-29740.4	0.000000	0.000000	6.522924	-0.026745	NaN	0.000000	0.001580	0.001608	28.0819	0.036082	0.002038	17.701	1.525781	-162.501	-0.030781	0.521136	-0.517114	-0.518377	-0.026745	17.701	-0.515981	-5.72382e+06	4.672641E-9	NaN
1194	1.000000	0.530403	7.37672e+06	-55889.1	1105.82	-29740.4	0.000000	0.000000	6.530928	-0.042959	NaN	0.000000	0.001553	0.001623	28.0819	0.089835	0.002108	42.6172	10.2537	-165.88	-0.075537	0.529151	-0.509110	-0.510363	-0.042959	42.6172	-0.508354	-4.48214e+06	9.584526E-9	NaN
1194	1.000000	0.538433	7.37672e+06	-55889.1	1105.82	-29740.4	0.000000	0.000000	6.538959	-0.017845	NaN	0.000000	0.001569	0.001616	28.0816	0.054377	0.002074	26.2178	-138.436	-162.934	-0.088253	0.537094	-0.501080	-0.502419	-0.017845	26.2178	-0.500570	-3.49115e+06	5.111550E-9	NaN
1194	1.000000	0.546449	7.37672e+06	-55889.1	1105.82	-29740.4	0.000000	0.000000	6.546975	-0.003651	NaN	0.000000	0.001615	0.001642	28.082	0.093938	0.001868	50.2787	153.648	-170.361	0.002977	0.545099	-0.493065	-0.494414	-0.003651	50.2787	-0.493010	-2.73808e+06	1.333480E-9	NaN
1194	1.000000	0.554434	7.37672e+06	-55889.1	1105.82	-29740.4	0.000000	0.000000	6.554962	0.031599	NaN	0.000000	0.001574	0.001640	28.082	0.032154	0.001884	17.0661	-42.3537	-168.91	0.046694	0.553136	-0.485079	-0.486377	0.031599	17.0661	-0.486468	-2.2183e+06	-1.424470E-8	NaN
1194	1.000000	0.562415	7.37672e+06	-55889.1	1105.82	-29740.4	0.000000	0.000000	6.562943	0.020803	NaN	0.000000	0.001570	0.001646	28.082	0.023165	0.001900	12.1934	-7.609161	-167.789	0.010468	0.561101	-0.477098	-0.478412	0.020803	12.1934	-0.478377	-1.70927e+06	-1.217048E-8	NaN
1194	1.000000	0.570442	7.37672e+06	-55889.1	1105.82	-29740.4	0.000000	0.000000	6.570968	-0.026761	NaN	0.000000	0.001588	0.001632	28.0819	0.114948	0.001830	62.7994	-172.331	-168.903	-0.015862	0.569126	-0.469071	-0.470388	-0.026761	62.7994	-0.468752	-1.25284e+06	2.136027E-8	NaN
1194	1.000000	0.578449	7.37673e+06	-55889.1	1105.82	-29740.4	0.000000	0.000000	6.578975	-0.026329	NaN	0.000000	0.001570	0.001625	28.0818	0.026130	0.001809	14.4424	55.11	-166.979	-0.069679	0.577124	-0.461064	-0.462389	-0.026329	14.4424	-0.459697	-934885	2.816268E-8	NaN
1194	1.000000	0.586461	7.37673e+06	-55889.1	1105.82	-29740.4	0.000000	0.000000	6.586988	0.024959	NaN	0.000000	0.001559	0.001645	28.0821	0.108365	0.002160	50.1658	-112.748	-163.882	0.066962	0.585128	-0.453052	-0.454385	0.024959	50.1658	-0.453426	-763073	-3.270830E-8	NaN
1194	1.000000	0.594458	7.37673e+06	-55889.1	1105.82	-29740.4	0.000000	0.000000	6.594984	-0.000205	NaN	0.000000	0.001551	0.001624	28.0827	0.110515	0.002083	53.0449	142.733	-166.06	0.057420	0.593144	-0.445055	-0.446369	-0.000205	53.0449	-0.445052	-581611	3.528896E-10	NaN
1194	1.000000	0.602446	7.37673e+06	-55889.1	1105.82	-29740.4	0.000000	0.000000	6.602972	-0.008249	NaN	0.000000	0.001569	0.001620	28.0823	0.101226	0.002218	45.6451	86.0239	-165.135	-0.072175	0.601145	-0.437067	-0.438369	-0.008249	45.6451	-0.436931	-446725	1.846586E-8	NaN
1194	1.000000	0.610477	7.37673e+06	-55889.1	1105.82	-29740.4	0.000000	0.000000	6.611004	4.669680E-5	NaN	0.000000	0.001578	0.001614	28.0819	0.107846	0.002009	53.6927	174.7	-164.098	-0.033321	0.609101	-0.429036	-0.430412	4.669680E-5	53.6927	-0.429037	-345486	-1.351627E-10	NaN
1194	1.000000	0.618446	7.37673e+06	-55889.1	1105.82	-29740.4	0.000000	0.000000	6.618973	0.009027	NaN	0.000000	0.001574	0.001655	28.0821	0.076736	0.002080	36.8976	149.373	-165.466	-0.050456	0.617100	-0.421067	-0.422413	0.009027	36.8976	-0.421251	-268009	-3.368144E-8	NaN
1194	1.000000	0.626468	7.37673e+06	-55889.1	1105.82	-29740.4	0.000000	0.000000	6.626995	0.002931	NaN	0.000000	0.001577	0.001659	28.0821	0.116601	0.001941	60.0736	-0.000151	-165.624	0.088821	0.625173	-0.413045	-0.414341	0.002931	60.0736	-0.413082	-205212	-1.428228E-8	NaN
1194	1.000000	0.634482	7.37673e+06	-55889.1	1105.82	-29740.4	0.000000	0.000000	6.635009	0.008013	NaN	0.000000	0.001546	0.001620	28.0821	0.078303	0.002011	38.9283	-172.934	-167.854	-0.026172	0.633167	-0.405031	-0.406346	0.008013	38.9283	-0.405185	-158447	-5.057414E-8	NaN
1194	1.000000	0.642509	7.37673e+06	-55889.1	1105.82	-29740.4	0.000000	0.000000	6.643038	0.060470	NaN	0.000000	0.001587	0.001637	28.0809	0.049520	0.002010	24.6384	130.857	-168.116	-0.002767	0.641166	-0.397005	-0.398347	0.060470	24.6384	-0.398845	-128684	-4.699101E-7	NaN
1194	1.000000	0.650469	7.37673e+06	-55889.1	1105.82	-29740.4	0.000000	0.000000	6.650997	0.049355	NaN	0.000000	0.001562	0.001638	28.0808	0.100415	0.001903	52.7621	143.005	-166.773	0.065258	0.649211	-0.389045	-0.390302	0.049355	52.7621	-0.389746	-95397.2	-5.173678E-7	NaN
1194	1.000000	0.658492	7.37673e+06	-55889.1	1105.82	-29740.4	0.000000	0.000000	6.659018	-0.009545	NaN	0.000000	0.001577	0.001625	28.0812	0.045064	0.002055	21.9328	-132.745	-165.375	-0.042587	0.657119	-0.381021	-0.382394	-0.009545	21.9328	-0.380695	-70771.2	1.348752E-7	NaN
1194	1.000000	0.666477	7.37673e+06	-55889.1	1105.82	-29740.4	0.000000	0.000000	6.667003	0.001607	NaN	0.000000	0.001572	0.001629	28.0809	0.040266	0.001911	21.0662	48.9791	-170.817	0.042336	0.665181	-0.373037	-0.374332	0.001607	21.0662	-0.373094	-55037.6	-2.920592E-8	NaN
1194	1.000000	0.674464	7.37673e+06	-55889.1	1105.82	-29740.4	0.000000	0.000000	6.674991	0.016497	NaN	0.000000	0.001596	0.001642	28.0809	0.064236	0.002073	30.9894	130.927	-166.009	0.009280	0.673238	-0.365050	-0.366275	0.016497	30.9894	-0.365449	-42710.1	-3.862593E-7	NaN
1194	1.000000	0.682478	7.37673e+06	-55889.1	1105.82	-29740.4	0.000000	0.000000	6.683005	0.006021	NaN	0.000000	0.001568	0.001648	28.081	0.024245	0.002019	12.0063	134.401	-166.724	0.041343	0.681193	-0.357035	-0.358320	0.006021	12.0063	-0.357411	-32689.4	-1.841749E-7	NaN
1194	1.000000	0.690504	7.37673e+06	-55889.1	1105.82	-29740.4	0.000000	0.000000	6.691030	-0.008058	NaN	0.000000	0.001562	0.001603	28.0807	0.033629	0.001983	16.9585	0.028037	-165.242	-0.020902	0.689191	-0.349010	-0.350322	-0.008058	16.9585	-0.348653	-24403.4	3.302075E-7	NaN
1194	1.000000	0.698494	7.37673e+06	-55889.1	1105.82	-29740.4	0.000000	0.000000	6.699019	-0.059846	NaN	0.000000	0.001557	0.001631	28.0812	0.092402	0.001843	50.1395	-37.3882	-165.206	-0.031045	0.697159	-0.341019	-0.342354	-0.059846	50.1395	-0.340124	-18338.1	3.263473E-6	NaN
1194	1.000000	0.706506	7.37673e+06	-55889.1	1105.82	-29740.4	0.000000	0.000000	6.707033	-0.002598	NaN	0.000000	0.001574	0.001634	28.0809	0.042343	0.002040	20.7541	-65.3224	-164.331	-0.051312	0.705148	-0.333007	-0.334365	-0.002598	20.7541	-0.332913	-14390.6	1.805280E-7	NaN
1194	1.000000	0.714519	7.37673e+06	-55889.1	1105.82	-29740.4	0.000000	0.000000	6.715044	-0.019939	NaN	0.000000	0.001560	0.001639	28.0809	0.069207	0.002141	32.3264	42.8323	-167.92	0.049490	0.713141	-0.324995	-0.326372	-0.019939	32.3264	-0.324532	-10845.9	1.838352E-6	NaN
1194	1.000000	0.722486	7.37673e+06	-55889.1	1105.82	-29740.4	0.000000	0.000000	6.723011	-0.020667	NaN	0.000000	0.001568	0.001639	28.0812	0.024937	0.001858	13.4221	-118.792	-167.494	0.009385	0.721184	-0.317028	-0.318329	-0.020667	13.4221	-0.315873	-8087.7	2.555363E-6	NaN
1194	1.000000	0.730499	7.37673e+06	-55889.1	1105.82	-29740.4	0.000000	0.000000	6.731024	-0.023550	NaN	0.000000	0.001567	0.001638	28.0809	0.085547	0.001979	43.2192	-31.4827	-166.979	0.012324	0.729154	-0.309015	-0.310359	-0.023550	43.2192	-0.308606	-6315.65	3.728803E-6	NaN
1194	1.000000	0.738517	7.37673e+06	-55889.1	1105.82	-29740.4	0.000000	0.000000	6.739042	-0.016345	NaN	0.000000	0.001540	0.001637	28.0811	0.039628	0.002095	18.9122	47.8615	-165.48	-0.005607	0.737248	-0.300997	-0.302265	-0.016345	18.9122	-0.300348	-4762.36	3.432204E-6	NaN
1194	1.000000	0.746491	7.37673e+06	-55889.1	1105.82	-29740.4	0.000000	0.000000	6.747018	0.005293	NaN	0.000000	0.001578	0.001617	28.0809	0.043075	0.001953	22.0581	-141.652	-167.546	0.004593	0.745203	-0.293022	-0.294310	0.005293	22.0581	-0.293202	-3725.83	-1.420538E-6	NaN
1194	1.000000	0.754522	7.37673e+06	-55889.1	1105.82	-29740.4	0.000000	0.000000	6.755048	-0.016943	NaN	0.000000	0.001558	0.001634	28.0809	0.021731	0.001967	11.0468	8.747466	-164.269	-0.031964	0.753207	-0.284991	-0.286306	-0.016943	11.0468	-0.283841	-2696.68	6.282958E-6	NaN
1194	1.000000	0.762524	7.37673e+06	-55889.1	1105.82	-29740.4	0.000000	0.000000	6.763048	-0.058447	NaN	0.000000	0.001544	0.001613	28.081	0.115512	0.001999	57.7751	32.0237	-163.835	-0.057712	0.761188	-0.276989	-0.278325	-0.058447	57.7751	-0.276230	-2070.24	2.823214E-5	NaN
1194	1.000000	0.770515	7.37673e+06	-55889.1	1105.82	-29740.4	0.000000	0.000000	6.771044	0.043082	NaN	0.000000	0.001545	0.001626	28.081	0.120913	0.001861	64.984	84.3252	-167.872	0.017412	0.769218	-0.268998	-0.270295	0.043082	64.984	-0.269495	-1636.31	-2.632847E-5	NaN
1194	1.000000	0.778528	7.37673e+06	-55889.1	1105.82	-29740.4	0.000000	0.000000	6.779054	-0.028500	NaN	0.000000	0.001517	0.001628	28.0823	0.083360	0.002004	41.5888	-90.2587	-168.49	-0.016426	0.777205	-0.260985	-0.262308	-0.028500	41.5888	-0.260471	-1191.62	2.391723E-5	NaN
1194	1.000000	0.786518	7.37673e+06	-55889.1	1105.82	-29740.4	0.000000	0.000000	6.787046	0.033636	NaN	0.000000	0.001509	0.001599	28.0824	0.070005	0.002048	34.1749	-149.838	-166.007	-0.000355	0.785194	-0.252995	-0.254319	0.033636	34.1749	-0.253733	-938.872	-3.582557E-5	NaN
1194	1.000000	0.794547	7.37673e+06	-55889.1	1105.82	-29740.4	0.000000	0.000000	6.795070	-0.068502	NaN	0.000000	0.001567	0.001641	28.0824	0.071066	0.002020	35.1823	-141.718	-164.776	-0.075116	0.793221	-0.244967	-0.246293	-0.068502	35.1823	-0.243506	-651.963	0.000105	NaN
1194	1.000000	0.802527	7.37673e+06	-55889.1	1105.82	-29740.4	0.000000	0.000000	6.803054	0.004588	NaN	0.000000	0.001518	0.001617	28.0824	0.030438	0.001929	15.7824	-111.182	-162.076	0.025121	0.801133	-0.236986	-0.238380	0.004588	15.7824	-0.237204	-519.773	-8.826033E-6	NaN
1194	1.000000	0.810554	7.37673e+06	-55889.1	1105.82	-29740.4	0.000000	0.000000	6.811078	-0.066484	NaN	0.000000	0.001555	0.001616	28.0822	0.048387	0.001899	25.4835	25.791	-165.781	-0.068995	0.809233	-0.228959	-0.230280	-0.066484	25.4835	-0.227002	-359.004	0.000185	NaN
1194	1.000000	0.818540	7.37673e+06	-55889.1	1105.82	-29740.4	0.000000	0.000000	6.819069	0.055778	NaN	0.000000	0.001561	0.001581	28.0823	0.056637	0.001965	28.8183	160.731	-165.14	-0.005308	0.817228	-0.220973	-0.222285	0.055778	28.8183	-0.222425	-303.65	-0.000184	NaN
1194	1.000000	0.826567	7.37673e+06	-55889.1	1105.82	-29740.4	0.000000	0.000000	6.827095	0.027759	NaN	0.000000	0.001538	0.001616	28.0822	0.069066	0.002055	33.6018	66.7015	-170.661	0.021428	0.825261	-0.212946	-0.214252	0.027759	33.6018	-0.213566	-218.991	-0.000127	NaN
1194	1.000000	0.834544	7.37673e+06	-55889.1	1105.82	-29740.4	0.000000	0.000000	6.835068	-0.057234	NaN	0.000000	0.001542	0.001646	28.0824	0.062911	0.002026	31.0586	-48.0821	-166.864	0.001454	0.833279	-0.204969	-0.206234	-0.057234	31.0586	-0.203587	-150.831	0.000379	NaN
1194	1.000000	0.842576	7.37673e+06	-55889.1	1105.82	-29740.4	0.000000	0.000000	6.843102	-0.005796	NaN	0.000000	0.001531	0.001672	28.0825	0.059123	0.002025	29.1995	-13.6269	-165.281	-0.036618	0.841250	-0.196937	-0.198263	-0.005796	29.1995	-0.196788	-116.623	4.969693E-5	NaN
1194	1.000000	0.850574	7.37673e+06	-55889.1	1105.82	-29740.4	0.000000	0.000000	6.851101	0.002853	NaN	0.000000	0.001527	0.001664	28.0825	0.058026	0.001907	30.4328	-48.8644	-168.319	-0.040577	0.849274	-0.188939	-0.190239	0.002853	30.4328	-0.189010	-86.5905	-3.294376E-5	NaN
1194	1.000000	0.858579	7.37673e+06	-55889.1	1105.82	-29740.4	0.000000	0.000000	6.859107	0.026935	NaN	0.000000	0.001537	0.001678	28.0823	0.024096	0.001969	12.2379	108.86	-162.209	0.038501	0.857195	-0.180934	-0.182319	0.026935	12.2379	-0.182585	-67.5053	-0.000399	NaN
1194	1.000000	0.866596	7.37673e+06	-55889.1	1105.82	-29740.4	0.000000	0.000000	6.867123	0.016637	NaN	0.000000	0.001520	0.001656	28.0823	0.104079	0.001899	54.7968	-82.1559	-164.325	-0.059970	0.865285	-0.172917	-0.174228	0.016637	54.7968	-0.173145	-46.563	-0.000357	NaN
1194	1.000000	0.874554	7.37673e+06	-55889.1	1105.82	-29740.4	0.000000	0.000000	6.875082	0.034315	NaN	0.000000	0.001552	0.001630	28.0825	0.064428	0.002113	30.4945	113.631	-166.868	-0.029705	0.873239	-0.164959	-0.166275	0.034315	30.4945	-0.165803	-34.7047	-0.000989	NaN
1194	1.000000	0.882563	7.37673e+06	-55889.1	1105.82	-29740.4	0.000000	0.000000	6.883089	-0.013627	NaN	0.000000	0.001560	0.001628	28.0825	0.076583	0.002004	38.2064	-120.761	-167.315	-0.022301	0.881243	-0.156950	-0.158270	-0.013627	38.2064	-0.156683	-23.922	0.000570	NaN
1194	1.000000	0.890589	7.37673e+06	-55889.1	1105.82	-29740.4	0.000000	0.000000	6.891114	-0.029817	NaN	0.000000	0.001539	0.001657	28.0826	0.071306	0.001999	35.6687	-116.449	-168.361	0.001638	0.889272	-0.148924	-0.150241	-0.029817	35.6687	-0.148297	-16.8606	0.001768	NaN
1194	1.000000	0.898582	7.37673e+06	-55889.1	1105.82	-29740.4	0.000000	0.000000	6.899107	-0.036922	NaN	0.000000	0.001528	0.001674	28.0821	0.146155	0.001867	78.2661	-106.979	-168.111	-0.063564	0.897279	-0.140931	-0.142234	-0.036922	78.2661	-0.140577	-12.1284	0.003044	NaN
1194	1.000000	0.906600	7.37673e+06	-55889.1	1105.82	-29740.4	0.000000	0.000000	6.907126	-0.021396	NaN	0.000000	0.001512	0.001658	28.0823	0.066516	0.001908	34.8671	-43.7918	-166.506	0.002707	0.905254	-0.132913	-0.134260	-0.021396	34.8671	-0.132453	-8.500741	0.002517	NaN
1194	1.000000	0.914578	7.37673e+06	-55889.1	1105.82	-29740.4	0.000000	0.000000	6.915105	-0.008271	NaN	0.000000	0.001522	0.001672	28.081	0.081490	0.002034	40.0689	-59.8724	-164.615	-0.021415	0.913272	-0.124935	-0.126241	-0.008271	40.0689	-0.124780	-6.020570	0.001374	NaN
1194	1.000000	0.922560	7.37673e+06	-55889.1	1105.82	-29740.4	0.000000	0.000000	6.923084	-0.056631	NaN	0.000000	0.001538	0.001645	28.0809	0.098513	0.001956	50.3684	155.63	-168.304	-0.061205	0.921287	-0.116953	-0.118227	-0.056631	50.3684	-0.116110	-4.026550	0.014064	NaN
1194	1.000000	0.930599	7.37673e+06	-55889.1	1105.82	-29740.4	0.000000	0.000000	6.931124	-0.050045	NaN	0.000000	0.001535	0.001667	28.0811	0.083919	0.002026	41.4275	117.512	-166.809	-0.064316	0.929269	-0.108914	-0.110244	-0.050045	41.4275	-0.108008	-2.726911	0.018352	NaN
1194	1.000000	0.938561	7.37673e+06	-55889.1	1105.82	-29740.4	0.000000	0.000000	6.939087	-0.020720	NaN	0.000000	0.001609	0.001635	28.0809	0.064205	0.002009	31.9627	-162.597	-164.935	-0.045002	0.937277	-0.100952	-0.102236	-0.020720	31.9627	-0.100466	-1.871063	0.011074	NaN
1194	1.000000	0.946598	7.37673e+06	-55889.1	1105.82	-29740.4	0.000000	0.000000	6.947124	-0.012029	NaN	0.000000	0.001540	0.001632	28.0811	0.019680	0.002064	9.535855	-171.195	-167.022	0.021370	0.945356	-0.092915	-0.094157	-0.012029	9.535855	-0.091969	-1.201539	0.010012	NaN
1194	1.000000	0.954601	7.37673e+06	-55889.1	1105.82	-29740.4	0.000000	0.000000	6.955127	-0.002159	NaN	0.000000	0.001528	0.001642	28.0812	0.055374	0.001810	30.5905	10.8459	-163.935	-0.015104	0.953267	-0.084912	-0.086247	-0.002159	30.5905	-0.084859	-0.815220	0.002649	NaN
1194	1.000000	0.962599	7.37673e+06	-55889.1	1105.82	-29740.4	0.000000	0.000000	6.963126	0.022044	NaN	0.000000	0.001512	0.001637	28.0809	0.074462	0.002089	35.6418	-118.873	-168.016	0.033078	0.961296	-0.076914	-0.078217	0.022044	35.6418	-0.077378	-0.531547	-0.041471	NaN
1194	1.000000	0.970611	7.37673e+06	-55889.1	1105.82	-29740.4	0.000000	0.000000	6.971137	-0.023191	NaN	0.000000	0.001525	0.001614	28.0811	0.043956	0.001990	22.0886	145.167	-167.847	-0.011401	0.969273	-0.068902	-0.070240	-0.023191	22.0886	-0.068115	-0.303422	0.076432	NaN
1194	1.000000	0.978622	7.37673e+06	-55889.1	1105.82	-29740.4	0.000000	0.000000	6.979151	0.052156	NaN	0.000000	0.001525	0.001639	28.081	0.105945	0.002046	51.7763	-72.3803	-165.696	0.105339	0.977267	-0.060891	-0.062246	0.052156	51.7763	-0.061647	-0.200669	-0.259910	NaN
1194	1.000000	0.986632	7.37673e+06	-55889.1	1105.82	-29740.4	0.000000	0.000000	6.987158	-0.010743	NaN	0.000000	0.001533	0.001639	28.0812	0.129854	0.002073	62.6312	-87.7795	-167.117	0.040081	0.985277	-0.052881	-0.054236	-0.010743	62.6312	-0.052752	-0.110412	0.097301	NaN
1194	1.000000	0.994595	7.37673e+06	-55889.1	1105.82	-29740.4	0.000000	0.000000	6.995121	-0.021280	NaN	0.000000	0.001503	0.001631	28.0809	0.039927	0.002101	19.0036	-86.1237	-168.581	0.015794	0.993344	-0.044918	-0.046169	-0.021280	19.0036	-0.044078	-0.060228	0.353326	NaN
1194	1.000000	1.002629	7.37673e+06	-55889.1	1105.82	-29740.4	0.000000	0.000000	7.003155	0.003222	NaN	0.000000	0.001529	0.001627	28.0808	0.035187	0.001941	18.1299	39.9027	-163.133	-0.033119	1.001332	-0.036885	-0.038181	0.003222	18.1299	-0.037018	-0.036762	-0.087645	NaN
1194	1.000000	1.010617	7.37673e+06	-55889.1	1105.82	-29740.4	0.000000	0.000000	7.011145	0.028860	NaN	0.000000	0.001554	0.001665	28.081	0.077029	0.001995	38.6126	-160.848	-166.065	0.003528	1.009337	-0.028896	-0.030176	0.028860	38.6126	-0.029456	-0.022227	-1.298413	NaN
1194	1.000000	1.018617	7.37673e+06	-55889.1	1105.82	-29740.4	0.000000	0.000000	7.019144	0.008191	NaN	0.000000	0.001538	0.001606	28.0809	0.053204	0.001961	27.1338	154.815	-165.001	0.026105	1.017294	-0.020896	-0.022219	0.008191	27.1338	-0.021122	-0.013414	-0.610652	NaN
1194	1.000000	1.026618	7.37673e+06	-55889.1	1105.82	-29740.4	0.000000	0.000000	7.027143	-0.039309	NaN	0.000000	0.001545	0.001623	28.081	0.083985	0.002005	41.886	-44.5345	-163.114	-0.007332	1.025308	-0.012895	-0.014206	-0.039309	41.886	-0.012192	-0.007638	5.146390	NaN
1194	1.000000	1.034614	7.37673e+06	-55889.1	1105.82	-29740.4	0.000000	0.000000	7.035139	-0.032513	NaN	0.000000	0.001549	0.001656	28.081	0.052039	0.001865	27.8982	16.4307	-164.179	-0.089419	1.033343	-0.004900	-0.006171	-0.032513	27.8982	-0.004026	-0.002795	11.6312	NaN
1194	1.000000	1.042617	7.37673e+06	-55889.1	1105.82	-29740.4	0.000000	0.000000	7.043359	5.236029	NaN	0.000000	0.001530	0.001664	28.0808	6.087943	0.001930	3153.67	14.4103	-172.873	4.174717	1.041330	0.003104	0.001817	5.236029	3153.67	0.001859	0.001441	3633.45	75901.1
1194	2.000000	1.047217	7.37673e+06	-55889.1	1105.82	-29740.4	0.000000	0.000000	7.048134	9.494853	NaN	0.000000	0.001540	0.001648	28.0822	10.083	0.001656	6088.91	6.920697	-173.108	9.452644	1.046873	0.007703	0.007360	9.494853	6088.91	0.006534	0.005577	1702.45	74491.3
1194	2.000000	1.049142	7.37673e+06	-55889.1	1105.82	-29740.4	0.000000	0.000000	7.050218	13.349	NaN	0.000000	0.001547	0.001664	28.082	12.7095	0.001693	7505.39	5.203909	-172.742	12.5711	1.048812	0.009629	0.009299	13.349	7505.39	0.008295	0.007347	1816.9	79999.4
1194	2.000000	1.051139	7.37673e+06	-55889.1	1105.82	-29740.4	0.000000	0.000000	7.052329	16.1295	NaN	0.000000	0.001587	0.001626	28.0822	15.1245	0.001862	8124.12	7.726070	-174.821	15.5038	1.050828	0.011626	0.011315	16.1295	8124.12	0.010137	0.009334	1728.09	76828.5
1194	2.000000	1.053126	7.37673e+06	-55889.1	1105.82	-29740.4	0.000000	0.000000	7.054406	18.31	NaN	0.000000	0.001575	0.001682	28.0819	16.8864	0.001775	9512.54	6.075032	-175.736	17.8717	1.052886	0.013613	0.013373	18.31	9512.54	0.012169	0.011694	1565.81	80370.4
1194	2.000000	1.055126	7.37673e+06	-55889.1	1105.82	-29740.4	0.000000	0.000000	7.056503	20.6656	NaN	0.000000	0.001566	0.001648	28.0822	19.6057	0.002027	9671.84	5.846256	-175.034	20.1589	1.054790	0.015613	0.015276	20.6656	9671.84	0.014010	0.013988	1477.38	74714.6
1194	2.000000	1.057115	7.37673e+06	-55889.1	1105.82	-29740.4	0.000000	0.000000	7.058733	26.5223	NaN	0.000000	0.001547	0.001646	28.0825	20.9039	0.001775	11778.7	5.935623	-177.208	25.9772	1.056760	0.017602	0.017247	26.5223	11778.7	0.015913	0.016522	1605.24	83720.7
1194	2.000000	1.059098	7.37673e+06	-55889.1	1105.82	-29740.4	0.000000	0.000000	7.060891	30.7896	NaN	0.000000	0.001551	0.001642	28.0821	22.4064	0.001572	14249.1	5.886548	-179.845	29.879	1.058744	0.019585	0.019231	30.7896	14249.1	0.017964	0.019444	1583.53	93362.2
1194	2.000000	1.061160	7.37673e+06	-55889.1	1105.82	-29740.4	0.000000	0.000000	7.063069	33.5869	NaN	0.000000	0.001517	0.001654	28.0821	24.5043	0.001779	13771.8	6.147242	-177.923	33.9898	1.060858	0.021647	0.021345	33.5869	13771.8	0.019818	0.022257	1509.04	84339.3
1194	2.000000	1.063058	7.37673e+06	-55889.1	1105.82	-29740.4	0.000000	0.000000	7.065065	35.9932	NaN	0.000000	0.001551	0.001645	28.0822	27.1613	0.001852	14664.8	6.949913	179.544	35.8393	1.062785	0.023545	0.023272	35.9932	14664.8	0.021704	0.025291	1423.16	84249.6
1194	2.000000	1.065122	7.37673e+06	-55889.1	1105.82	-29740.4	0.000000	0.000000	7.067409	42.7951	NaN	0.000000	0.001545	0.001643	28.0823	29.176	0.001786	16338.1	7.729697	177.517	42.4767	1.064753	0.025609	0.025240	42.7951	16338.1	0.023644	0.028595	1496.59	88273.1
1194	2.000000	1.067064	7.37673e+06	-55889.1	1105.82	-29740.4	0.000000	0.000000	7.069730	52.0181	NaN	0.000000	0.001564	0.001671	28.083	29.9871	0.001730	17337.9	1.967339	-177.344	50.3959	1.066710	0.027551	0.027197	52.0181	17337.9	0.025300	0.031565	1647.99	89159.8
1194	2.000000	1.069089	7.37673e+06	-55889.1	1105.82	-29740.4	0.000000	0.000000	7.071959	56.9659	NaN	0.000000	0.001591	0.001692	28.0823	33.6826	0.001920	17544.1	10.4866	175.025	57.2725	1.068686	0.029575	0.029173	56.9659	17544.1	0.027140	0.035025	1626.46	85648.4
1194	2.000000	1.071122	7.37673e+06	-55889.1	1105.82	-29740.4	0.000000	0.000000	7.074147	60.7252	NaN	0.000000	0.001554	0.001648	28.0823	35.1959	0.001922	18310.6	9.575404	176.189	61.3247	1.070706	0.031609	0.031193	60.7252	18310.6	0.029122	0.038943	1559.33	84773.8
1194	2.000000	1.073047	7.37673e+06	-55889.1	1105.82	-29740.4	0.000000	0.000000	7.076344	67.3574	NaN	0.000000	0.001581	0.001645	28.0823	35.8006	0.001838	19482.9	4.436665	179.426	66.1482	1.072714	0.033534	0.033201	67.3574	19482.9	0.030941	0.042716	1576.87	86125.5
1194	2.000000	1.075044	7.37673e+06	-55889.1	1105.82	-29740.4	0.000000	0.000000	7.078689	75.7826	NaN	0.000000	0.001542	0.001671	28.0822	37.6725	0.001741	21636.2	3.744840	179.062	74.7877	1.074761	0.035531	0.035248	75.7826	21636.2	0.032904	0.046979	1613.12	91201.8
1194	2.000000	1.077076	7.37673e+06	-55889.1	1105.82	-29740.4	0.000000	0.000000	7.081047	83.7202	NaN	0.000000	0.001587	0.001672	28.0824	38.5319	0.001751	22000.6	6.549160	177.202	82.9823	1.076654	0.037563	0.037141	83.7202	22000.6	0.034709	0.051070	1639.31	88945.4
1194	2.000000	1.079025	7.37673e+06	-55889.1	1105.82	-29740.4	0.000000	0.000000	7.083199	88.6831	NaN	0.000000	0.001563	0.001689	28.0823	40.8596	0.001688	24206.6	2.803963	178.899	87.3682	1.078732	0.039511	0.039219	88.6831	24206.6	0.036764	0.055932	1585.54	93513.8
1194	2.000000	1.081054	7.37673e+06	-55889.1	1105.82	-29740.4	0.000000	0.000000	7.085514	95.6111	NaN	0.000000	0.001590	0.001676	28.0809	43.4224	0.001701	25532.5	5.982223	175.861	94.1144	1.080621	0.041541	0.041108	95.6111	25532.5	0.038733	0.060794	1572.7	94609.8
1194	2.000000	1.083098	7.37673e+06	-55889.1	1105.82	-29740.4	0.000000	0.000000	7.087665	98.228	NaN	0.000000	0.001545	0.001678	28.0812	45.7623	0.001895	24145.3	4.367289	177.004	99.4863	1.082814	0.043584	0.043301	98.228	24145.3	0.040533	0.065414	1501.65	86252.6
1194	2.000000	1.085008	7.37673e+06	-55889.1	1105.82	-29740.4	0.000000	0.000000	7.090034	109.364	NaN	0.000000	0.001565	0.001670	28.0811	47.6605	0.001884	25292.9	4.278520	177.404	106.624	1.084796	0.045495	0.045283	109.364	25292.9	0.042252	0.069979	1562.82	87355.3
1194	2.000000	1.086992	7.37673e+06	-55889.1	1105.82	-29740.4	0.000000	0.000000	7.092459	120.093	NaN	0.000000	0.001551	0.001645	28.081	48.1157	0.001743	27608.3	5.442123	175.96	117.608	1.086632	0.047478	0.047119	120.093	27608.3	0.044216	0.075377	1593.24	91874.2
1194	2.000000	1.088967	7.37673e+06	-55889.1	1105.82	-29740.4	0.000000	0.000000	7.094755	127.893	NaN	0.000000	0.001533	0.001636	28.081	50.4013	0.001739	28987.1	5.555647	174.608	124.063	1.088692	0.049454	0.049179	127.893	28987.1	0.046145	0.080871	1581.43	93128.2
1194	2.000000	1.091050	7.37673e+06	-55889.1	1105.82	-29740.4	0.000000	0.000000	7.097098	134.208	NaN	0.000000	0.001594	0.001627	28.0811	52.8092	0.001856	28455.2	4.100574	176.579	132.954	1.090707	0.051537	0.051193	134.208	28455.2	0.048000	0.086330	1554.58	88481.8
1194	2.000000	1.093023	7.37673e+06	-55889.1	1105.82	-29740.4	0.000000	0.000000	7.099591	146.865	NaN	0.000000	0.001610	0.001627	28.0812	54.1435	0.001714	31590.6	3.747213	176.008	146.864	1.092652	0.053510	0.053139	146.865	31590.6	0.050023	0.092484	1588	94907.1
1194	2.000000	1.095061	7.37673e+06	-55889.1	1105.82	-29740.4	0.000000	0.000000	7.101860	152.475	NaN	0.000000	0.001577	0.001671	28.0812	58.1213	0.001816	32012.1	7.164727	171.457	151.944	1.094681	0.055548	0.055168	152.475	32012.1	0.051975	0.098617	1546.14	93134.9
1194	2.000000	1.096978	7.37673e+06	-55889.1	1105.82	-29740.4	0.000000	0.000000	7.104326	165.826	NaN	0.000000	0.001564	0.001633	28.0812	57.9402	0.001774	32662.5	2.784684	176.532	162.807	1.096766	0.057464	0.057253	165.826	32662.5	0.053657	0.104050	1593.71	92512.6
1194	2.000000	1.099002	7.37673e+06	-55889.1	1105.82	-29740.4	0.000000	0.000000	7.106716	174.708	NaN	0.000000	0.001574	0.001593	28.0811	60.2142	0.001878	32057.2	3.034801	176.696	172.949	1.098664	0.059489	0.059151	174.708	32057.2	0.055401	0.109836	1590.63	88374.2
1194	2.000000	1.101060	7.37673e+06	-55889.1	1105.82	-29740.4	0.000000	0.000000	7.109193	184.913	NaN	0.000000	0.001566	0.001643	28.0811	62.1759	0.001762	35294.1	4.856405	174.46	184.789	1.100669	0.061546	0.061156	184.913	35294.1	0.057617	0.117402	1575.05	94110.5
1194	2.000000	1.103099	7.37673e+06	-55889.1	1105.82	-29740.4	0.000000	0.000000	7.111636	194.708	NaN	0.000000	0.001597	0.001654	28.081	63.9218	0.001860	34362.7	5.457000	173.414	197.562	1.102687	0.063586	0.063174	194.708	34362.7	0.059336	0.123438	1577.38	89358.6
1194	2.000000	1.105034	7.37673e+06	-55889.1	1105.82	-29740.4	0.000000	0.000000	7.114160	209.036	NaN	0.000000	0.001593	0.001615	28.0811	66.6917	0.001832	36405.4	5.617912	172.825	207.589	1.104664	0.065520	0.065151	209.036	36405.4	0.061214	0.130197	1605.53	92180.3
1194	2.000000	1.106973	7.37673e+06	-55889.1	1105.82	-29740.4	0.000000	0.000000	7.116508	218.97	NaN	0.000000	0.001621	0.001635	28.081	66.9131	0.001825	36664.3	4.045073	174.319	216.474	1.106796	0.067460	0.067283	218.97	36664.3	0.062980	0.136712	1601.69	90597
1194	2.000000	1.109032	7.37673e+06	-55889.1	1105.82	-29740.4	0.000000	0.000000	7.118926	227.7	NaN	0.000000	0.001574	0.001627	28.0812	70.8381	0.001903	37216.4	3.460034	175.016	227.428	1.108730	0.069519	0.069217	227.7	37216.4	0.064930	0.144077	1580.4	89579.7
1194	2.000000	1.111025	7.37673e+06	-55889.1	1105.82	-29740.4	0.000000	0.000000	7.121549	243.029	NaN	0.000000	0.001586	0.001648	28.0812	72.232	0.001869	38643.6	4.932954	173.164	243.078	1.110783	0.071512	0.071270	243.029	38643.6	0.066795	0.151294	1606.33	90769.4
1194	2.000000	1.112918	7.37673e+06	-55889.1	1105.82	-29740.4	0.000000	0.000000	7.124009	256.781	NaN	0.000000	0.001575	0.001622	28.0811	72.8991	0.001759	41438.8	2.721487	174.101	252.059	1.112676	0.073405	0.073163	256.781	41438.8	0.068758	0.159071	1614.25	94925.9
1194	2.000000	1.114979	7.37673e+06	-55889.1	1105.82	-29740.4	0.000000	0.000000	7.126560	268.694	NaN	0.000000	0.001585	0.001624	28.0821	76.3232	0.001867	40881.4	4.070848	173.178	265.521	1.114722	0.075466	0.075209	268.694	40881.4	0.070537	0.166279	1615.92	91596.8
1194	2.000000	1.117031	7.37673e+06	-55889.1	1105.82	-29740.4	0.000000	0.000000	7.128943	276.74	NaN	0.000000	0.001505	0.001634	28.082	77.9188	0.001792	43476.9	7.713460	169.775	278.798	1.116652	0.077518	0.077138	276.74	43476.9	0.072744	0.175430	1577.5	94837.5
1194	2.000000	1.118956	7.37673e+06	-55889.1	1105.82	-29740.4	0.000000	0.000000	7.131529	292.832	NaN	0.000000	0.001595	0.001643	28.0822	80.1451	0.001914	41882.2	11.5395	166.481	290.677	1.118630	0.079443	0.079117	292.832	41882.2	0.074199	0.181586	1612.63	89796.9
1194	2.000000	1.120925	7.37673e+06	-55889.1	1105.82	-29740.4	0.000000	0.000000	7.134195	309.769	NaN	0.000000	0.001582	0.001650	28.0826	81.032	0.001785	45397.8	6.752295	170.053	304.231	1.120611	0.081412	0.081098	309.769	45397.8	0.076294	0.190630	1624.98	94997.7
1194	2.000000	1.123039	7.37673e+06	-55889.1	1105.82	-29740.4	0.000000	0.000000	7.136769	320.953	NaN	0.000000	0.001609	0.001667	28.0821	81.1361	0.001743	46549.7	3.049076	173.461	322.075	1.122683	0.083526	0.083170	320.953	46549.7	0.078354	0.199723	1606.99	95164.6
1194	2.000000	1.124973	7.37673e+06	-55889.1	1105.82	-29740.4	0.000000	0.000000	7.139134	331.42	NaN	0.000000	0.001601	0.001640	28.0819	85.2011	0.001775	48007.4	4.070629	172.075	328.769	1.124695	0.085460	0.085181	331.42	48007.4	0.080282	0.208412	1590.22	96077.1
1194	2.000000	1.126972	7.37673e+06	-55889.1	1105.82	-29740.4	0.000000	0.000000	7.142037	353.387	NaN	0.000000	0.001584	0.001668	28.082	85.5402	0.001793	47718.2	4.647425	172.156	350.789	1.126621	0.087459	0.087108	353.387	47718.2	0.081904	0.215856	1637.14	93837.1
1194	2.000000	1.128992	7.37673e+06	-55889.1	1105.82	-29740.4	0.000000	0.000000	7.144547	365.311	NaN	0.000000	0.001605	0.001629	28.0823	88.1752	0.001705	51711.8	4.763107	171.887	365.449	1.128665	0.089479	0.089152	365.311	51711.8	0.084181	0.226508	1612.79	99270.7
1194	2.000000	1.130919	7.37673e+06	-55889.1	1105.82	-29740.4	0.000000	0.000000	7.147203	383.016	NaN	0.000000	0.001635	0.001613	28.0827	90.895	0.001902	47791.5	6.849276	169.725	376.911	1.130638	0.091406	0.091125	383.016	47791.5	0.085395	0.232292	1648.85	90595.6
1194	2.000000	1.133034	7.37673e+06	-55889.1	1105.82	-29740.4	0.000000	0.000000	7.149807	394.893	NaN	0.000000	0.001586	0.001590	28.0819	90.2983	0.001647	54838.1	0.066620	175.448	395.067	1.132630	0.093521	0.093117	394.893	54838.1	0.088120	0.245512	1608.45	101116
1194	2.000000	1.134936	7.37673e+06	-55889.1	1105.82	-29740.4	0.000000	0.000000	7.152460	413.179	NaN	0.000000	0.001600	0.001618	28.082	94.1412	0.001821	51710.1	3.437794	172.609	410.662	1.134593	0.095423	0.095080	413.179	51710.1	0.089430	0.251986	1639.69	94115.4
1194	2.000000	1.137095	7.37673e+06	-55889.1	1105.82	-29740.4	0.000000	0.000000	7.155179	426.804	NaN	0.000000	0.001590	0.001627	28.0819	96.6553	0.001822	53060	10.1891	166.998	430.696	1.136496	0.097581	0.096983	426.804	53060	0.091548	0.262627	1625.13	94595.5
1194	2.000000	1.138907	7.37673e+06	-55889.1	1105.82	-29740.4	0.000000	0.000000	7.157566	440.762	NaN	0.000000	0.001591	0.001599	28.0825	97.4597	0.001758	55432.5	4.671564	170.789	438.81	1.138602	0.099394	0.099089	440.762	55432.5	0.093430	0.272252	1618.95	97062.6
1194	2.000000	1.141022	7.37673e+06	-55889.1	1105.82	-29740.4	0.000000	0.000000	7.160378	457.681	NaN	0.000000	0.001604	0.001633	28.0822	100.504	0.001714	58652.8	7.975013	167.893	457.435	1.140578	0.101509	0.101065	457.681	58652.8	0.095657	0.283848	1612.41	100582
1194	2.000000	1.143020	7.37673e+06	-55889.1	1105.82	-29740.4	0.000000	0.000000	7.163050	474.075	NaN	0.000000	0.001627	0.001626	28.0821	102.361	0.001856	55162.6	5.865488	170.244	476.58	1.142589	0.103507	0.103076	474.075	55162.6	0.097062	0.291282	1627.55	93381.6
1194	2.000000	1.144510	7.37673e+06	-55889.1	1105.82	-29740.4	0.000000	0.000000	7.165128	488.367	NaN	0.000000	0.001658	0.001605	28.0821	104.778	0.001764	59392.8	7.307004	-11.4057	489.414	1.143898	0.104997	0.104385	488.367	59392.8	0.098830	0.300766	1623.75	98944.8