File: remote_trans/data/nanoindenter/0828-1/data/Data_2025-08-06,11h17m57s/2025-07-22_16-23-58_1_281.txt
2025-07-22, 16:23:58, 1
Index	Phase	Displacement	Time	Pos X	Pos Y	Pos Z	Rot A	Rot B	Piezo Z	Force A	Force B	Gripper	Voltage A	Voltage B	Temperature	Amplitude force	Amplitude pos	Stiffness	Phase shift	Phase excitation	Force A raw	Displacement raw	HMax	HMax raw	Real Force	Real Stiffness	Contact Depth	Area	Hardness	Reduced Mod.
[#]	[#]	[um]	[s]	[um]	[um]	[um]	[m°]	[m°]	[um]	[uN]	[uN]	[V]	[V]	[V]	[°C]	[uN]	[um]	[N/m]	[°]	[°]	[uN]	[um]	[um]	[um]	[uN]	[N/m]	[um]	[um^2]	[MPa]	[MPa]
281	1.000000	0.002282	7.3678e+06	-52689.1	955.818	-29748.6	0.000000	0.000000	6.002795	-0.036496	NaN	0.000000	0.001595	0.001712	28.0827	0.055420	0.000962	57.5831	-156.966	-160.115	0.049986	0.001017	-1.234556	-1.235820	-0.036496	57.5831	-1.234080	-3.140070E+16	1.162266E-18	NaN
281	1.000000	0.012356	7.3678e+06	-52689.1	955.819	-29748.6	0.000000	0.000000	6.012872	-0.004607	NaN	0.000000	0.001639	0.001696	28.0817	0.072463	0.001206	60.0914	-85.6669	17.158	-0.020255	0.010891	-1.224481	-1.225946	-0.004607	60.0914	-1.224423	-2.331885E+16	1.975549E-19	NaN
281	1.000000	0.022233	7.3678e+06	-52689.1	955.818	-29748.6	0.000000	0.000000	6.022748	-0.004781	NaN	0.000000	0.001615	0.001722	28.0815	0.085230	0.001602	53.2029	75.0558	-166.839	-0.028243	0.020963	-1.214605	-1.215875	-0.004781	53.2029	-1.214537	-1.719424E+16	2.780294E-19	NaN
281	1.000000	0.032227	7.3678e+06	-52689.1	955.819	-29748.6	0.000000	0.000000	6.032744	0.041017	NaN	0.000000	0.001599	0.001707	28.0811	0.095612	0.001934	49.4357	148.452	14.4011	0.065958	0.030913	-1.204610	-1.205925	0.041017	49.4357	-1.205232	-1.290658E+16	-3.178017E-18	NaN
281	1.000000	0.042235	7.3678e+06	-52689.1	955.818	-29748.6	0.000000	0.000000	6.042750	-0.010881	NaN	0.000000	0.001647	0.001711	28.0816	0.104671	0.002077	50.3939	-174.716	-168.527	0.112873	0.040894	-1.194603	-1.195943	-0.010881	50.3939	-1.194441	-9.253349E+15	1.175884E-18	NaN
281	1.000000	0.052238	7.3678e+06	-52689.1	955.818	-29748.6	0.000000	0.000000	6.052754	0.013813	NaN	0.000000	0.001635	0.001729	28.0816	0.102307	0.001890	54.1326	-156.659	13.1424	0.072751	0.050883	-1.184599	-1.185954	0.013813	54.1326	-1.184791	-6.871476E+15	-2.010217E-18	NaN
281	1.000000	0.062228	7.3678e+06	-52689.1	955.817	-29748.6	0.000000	0.000000	6.062744	0.016158	NaN	0.000000	0.001584	0.001728	28.0815	0.090894	0.002072	43.8653	135.961	-164.881	-0.012598	0.060913	-1.174609	-1.175924	0.016158	43.8653	-1.174886	-5.062316E+15	-3.191729E-18	NaN
281	1.000000	0.072227	7.3678e+06	-52689.1	955.819	-29748.6	0.000000	0.000000	6.072744	0.027585	NaN	0.000000	0.001601	0.001717	28.0815	0.058869	0.001965	29.9553	100.745	13.2501	0.001396	0.070852	-1.164610	-1.165986	0.027585	29.9553	-1.165301	-3.766267E+15	-7.324236E-18	NaN
281	1.000000	0.082251	7.3678e+06	-52689.1	955.818	-29748.6	0.000000	0.000000	6.082767	0.004615	NaN	0.000000	0.001678	0.001717	28.0826	0.111647	0.002018	55.3281	-164.228	-163.805	0.008117	0.080909	-1.154586	-1.155928	0.004615	55.3281	-1.154649	-2.711070E+15	-1.702127E-18	NaN
281	1.000000	0.092264	7.3678e+06	-52689.1	955.818	-29748.6	0.000000	0.000000	6.092775	-0.114666	NaN	0.000000	0.001611	0.001703	28.0814	0.134961	0.002005	67.3026	120.895	14.8026	-0.031893	0.090954	-1.144573	-1.145883	-0.114666	67.3026	-1.143295	-1.909518E+15	6.004948E-17	NaN
281	1.000000	0.102263	7.3678e+06	-52689.1	955.817	-29748.6	0.000000	0.000000	6.102778	-0.007835	NaN	0.000000	0.001620	0.001707	28.0813	0.106077	0.002059	51.5089	47.033	-167.228	0.024200	0.100958	-1.134574	-1.135879	-0.007835	51.5089	-1.134460	-1.453584E+15	5.389904E-18	NaN
281	1.000000	0.112236	7.3678e+06	-52689.1	955.819	-29748.6	0.000000	0.000000	6.112750	-0.030094	NaN	0.000000	0.001594	0.001690	28.0813	0.058088	0.001952	29.7541	99.5135	16.0203	-0.025486	0.110914	-1.124602	-1.125923	-0.030094	29.7541	-1.123843	-1.047205E+15	2.873716E-17	NaN
281	1.000000	0.122259	7.3678e+06	-52689.1	955.818	-29748.6	0.000000	0.000000	6.122773	-0.032396	NaN	0.000000	0.001598	0.001702	28.0802	0.120935	0.002145	56.3721	116.078	-165.211	-0.005106	0.120939	-1.114579	-1.115898	-0.032396	56.3721	-1.114148	-7.761496E+14	4.173931E-17	NaN
281	1.000000	0.132268	7.3678e+06	-52689.1	955.818	-29748.6	0.000000	0.000000	6.132782	-0.041312	NaN	0.000000	0.001613	0.001717	28.0802	0.140926	0.002058	68.485	-124.226	14.0118	-0.005992	0.130881	-1.104569	-1.105956	-0.041312	68.485	-1.104117	-5.692780E+14	7.256897E-17	NaN
281	1.000000	0.142272	7.3678e+06	-52689.1	955.818	-29748.6	0.000000	0.000000	6.142789	0.051326	NaN	0.000000	0.001644	0.001689	28.0802	0.032122	0.002091	15.3599	-46.4856	-165.508	0.053947	0.140940	-1.094565	-1.095898	0.051326	15.3599	-1.097072	-4.578843E+14	-1.120947E-16	NaN
281	1.000000	0.152263	7.3678e+06	-52689.1	955.818	-29748.6	0.000000	0.000000	6.152778	-0.002505	NaN	0.000000	0.001615	0.001701	28.0803	0.047586	0.001930	24.6622	82.5753	15.0733	-0.022138	0.150896	-1.084574	-1.085941	-0.002505	24.6622	-1.084498	-3.104078E+14	8.070658E-18	NaN
281	1.000000	0.162303	7.3678e+06	-52689.1	955.818	-29748.6	0.000000	0.000000	6.162819	0.001952	NaN	0.000000	0.001615	0.001729	28.0805	0.042466	0.001956	21.712	-118.186	-166.433	0.115610	0.160954	-1.074534	-1.075883	0.001952	21.712	-1.074602	-2.285634E+14	-8.538564E-18	NaN
281	1.000000	0.172264	7.3678e+06	-52689.1	955.819	-29748.6	0.000000	0.000000	6.172781	0.026497	NaN	0.000000	0.001566	0.001704	28.0801	0.063199	0.001963	32.2022	157.18	12.1131	-0.014729	0.170996	-1.064573	-1.065842	0.026497	32.2022	-1.065190	-1.708313E+14	-1.551055E-16	NaN
281	1.000000	0.182276	7.3678e+06	-52689.1	955.819	-29748.6	0.000000	0.000000	6.182789	-0.045269	NaN	0.000000	0.001611	0.001692	28.0799	0.052558	0.001996	26.3352	45.3211	-168.674	-0.046365	0.181004	-1.054561	-1.055833	-0.045269	26.3352	-1.053272	-1.181408E+14	3.831822E-16	NaN
281	1.000000	0.192304	7.3678e+06	-52689.1	955.818	-29748.6	0.000000	0.000000	6.192819	-0.017567	NaN	0.000000	0.001579	0.001720	28.0801	0.014317	0.001975	7.248207	-23.7777	15.9461	-0.056551	0.190948	-1.044533	-1.045890	-0.017567	7.248207	-1.042716	-8.520805E+13	2.061657E-16	NaN
281	1.000000	0.202289	7.3678e+06	-52689.1	955.818	-29748.6	0.000000	0.000000	6.202803	-0.029733	NaN	0.000000	0.001649	0.001733	28.0797	0.025852	0.001974	13.0996	103.532	-165.519	-0.041618	0.200970	-1.034548	-1.035868	-0.029733	13.0996	-1.032846	-6.277073E+13	4.736684E-16	NaN
281	1.000000	0.212286	7.3678e+06	-52689.1	955.818	-29748.6	0.000000	0.000000	6.212800	-0.028579	NaN	0.000000	0.001603	0.001735	28.0796	0.117624	0.002098	56.0553	-63.9546	16.1669	0.025349	0.210931	-1.024551	-1.025906	-0.028579	56.0553	-1.024169	-4.797810E+13	5.956630E-16	NaN
281	1.000000	0.222311	7.3678e+06	-52689.1	955.818	-29748.6	0.000000	0.000000	6.222822	-0.102159	NaN	0.000000	0.001598	0.001726	28.0794	0.014734	0.002130	6.915806	-13.7007	-165.815	-0.143492	0.220976	-1.014526	-1.015861	-0.102159	6.915806	-1.003448	-2.524541E+13	4.046655E-15	NaN
281	1.000000	0.232282	7.3678e+06	-52689.1	955.819	-29748.6	0.000000	0.000000	6.232797	-0.012271	NaN	0.000000	0.001631	0.001722	28.0796	0.103995	0.002002	51.9368	23.2099	13.5394	-0.032216	0.230955	-1.004555	-1.005882	-0.012271	51.9368	-1.004378	-2.598425E+13	4.722302E-16	NaN
281	1.000000	0.242308	7.3678e+06	-52689.1	955.818	-29748.6	0.000000	0.000000	6.242824	0.013675	NaN	0.000000	0.001642	0.001708	28.0795	0.116283	0.002061	56.4118	-56.1029	-164.567	-0.007669	0.240976	-0.994529	-0.995861	0.013675	56.4118	-0.994711	-1.925528E+13	-7.101748E-16	NaN
281	1.000000	0.252294	7.3678e+06	-52689.1	955.818	-29748.6	0.000000	0.000000	6.252812	0.040180	NaN	0.000000	0.001643	0.001715	28.0808	0.054600	0.002076	26.2963	6.321332	16.4631	0.035445	0.251016	-0.984543	-0.985822	0.040180	26.2963	-0.985689	-1.455610E+13	-2.760357E-15	NaN
281	1.000000	0.262339	7.3678e+06	-52689.1	955.818	-29748.6	0.000000	0.000000	6.262855	0.025488	NaN	0.000000	0.001660	0.001738	28.0808	0.142149	0.002025	70.1827	-100.004	-166.331	0.087387	0.261029	-0.974498	-0.975808	0.025488	70.1827	-0.974771	-1.037416E+13	-2.456870E-15	NaN
281	1.000000	0.272344	7.3678e+06	-52689.1	955.818	-29748.6	0.000000	0.000000	6.272860	0.025598	NaN	0.000000	0.001641	0.001711	28.0813	0.155632	0.002005	77.6197	19.5752	16.6586	0.093251	0.270987	-0.964494	-0.965850	0.025598	77.6197	-0.964741	-7.599416E+12	-3.368352E-15	NaN
281	1.000000	0.282322	7.3678e+06	-52689.1	955.819	-29748.6	0.000000	0.000000	6.282837	-0.018191	NaN	0.000000	0.001607	0.001723	28.0813	0.061971	0.002030	30.5286	8.934542	-164.003	-0.039312	0.281007	-0.954515	-0.955830	-0.018191	30.5286	-0.954068	-5.456177E+12	3.333959E-15	NaN
281	1.000000	0.292337	7.3678e+06	-52689.1	955.818	-29748.6	0.000000	0.000000	6.292851	-0.050634	NaN	0.000000	0.001591	0.001738	28.0812	0.153275	0.002083	73.5951	145.309	14.9799	-0.149802	0.290936	-0.944500	-0.945901	-0.050634	73.5951	-0.943984	-3.989150E+12	1.269290E-14	NaN
281	1.000000	0.302347	7.3678e+06	-52689.1	955.819	-29748.6	0.000000	0.000000	6.302863	0.004065	NaN	0.000000	0.001559	0.001756	28.0813	0.054985	0.001921	28.6254	-77.8685	-167.024	0.012002	0.301009	-0.934490	-0.935828	0.004065	28.6254	-0.934596	-2.980081E+12	-1.364122E-15	NaN
281	1.000000	0.312349	7.3678e+06	-52689.1	955.819	-29748.6	0.000000	0.000000	6.312866	0.040864	NaN	0.000000	0.001575	0.001721	28.0814	0.060255	0.002093	28.7944	6.354773	16.4485	0.034642	0.310928	-0.924488	-0.925909	0.040864	28.7944	-0.925553	-2.249942E+12	-1.816236E-14	NaN
281	1.000000	0.322349	7.3678e+06	-52689.1	955.819	-29748.6	0.000000	0.000000	6.322865	0.013702	NaN	0.000000	0.001600	0.001732	28.0812	0.032079	0.001987	16.1427	143.8	-166.779	0.024522	0.321025	-0.914488	-0.915812	0.013702	16.1427	-0.915125	-1.626951E+12	-8.421600E-15	NaN
281	1.000000	0.332338	7.3678e+06	-52689.1	955.819	-29748.6	0.000000	0.000000	6.332852	-0.022458	NaN	0.000000	0.001591	0.001779	28.0814	0.030266	0.001994	15.1789	130.19	11.2957	-0.104489	0.330997	-0.904500	-0.905841	-0.022458	15.1789	-0.903390	-1.129454E+12	1.988363E-14	NaN
281	1.000000	0.342376	7.3678e+06	-52689.1	955.819	-29748.6	0.000000	0.000000	6.342891	-0.009780	NaN	0.000000	0.001632	0.001766	28.0814	0.107437	0.002021	53.1493	-158.628	-164.15	0.016061	0.341028	-0.894462	-0.895809	-0.009780	53.1493	-0.894324	-8.518387E+11	1.148099E-14	NaN
281	1.000000	0.352352	7.3678e+06	-52689.1	955.819	-29748.6	0.000000	0.000000	6.352867	-0.010037	NaN	0.000000	0.001623	0.001742	28.0816	0.127577	0.001934	65.9814	169.567	16.8094	0.025590	0.351056	-0.884486	-0.885782	-0.010037	65.9814	-0.884372	-6.249174E+11	1.606080E-14	NaN
281	1.000000	0.362390	7.3678e+06	-52689.1	955.819	-29748.6	0.000000	0.000000	6.362904	-0.026775	NaN	0.000000	0.001630	0.001738	28.0811	0.012684	0.002054	6.173993	163.368	-162.009	-0.038942	0.361046	-0.874447	-0.875791	-0.026775	6.173993	-0.871195	-4.145802E+11	6.458341E-14	NaN
281	1.000000	0.372350	7.3678e+06	-52689.1	955.819	-29748.6	0.000000	0.000000	6.372864	-0.040568	NaN	0.000000	0.001633	0.001712	28.0811	0.099067	0.001980	50.032	-29.6713	15.5199	0.026636	0.371013	-0.864487	-0.865824	-0.040568	50.032	-0.863879	-3.300815E+11	1.229043E-13	NaN
281	1.000000	0.382396	7.3678e+06	-52689.1	955.818	-29748.6	0.000000	0.000000	6.382910	-0.025489	NaN	0.000000	0.001644	0.001769	28.081	0.043576	0.001940	22.463	112.469	-162.032	-0.020699	0.381083	-0.854441	-0.855754	-0.025489	22.463	-0.853590	-2.395252E+11	1.064136E-13	NaN
281	1.000000	0.392393	7.3678e+06	-52689.1	955.818	-29748.6	0.000000	0.000000	6.392906	-0.053482	NaN	0.000000	0.001630	0.001753	28.0803	0.055634	0.002096	26.5461	106.612	13.3217	0.037007	0.391009	-0.844445	-0.845829	-0.053482	26.5461	-0.842934	-1.718045E+11	3.112953E-13	NaN
281	1.000000	0.402406	7.3678e+06	-52689.1	955.818	-29748.6	0.000000	0.000000	6.402920	-0.046984	NaN	0.000000	0.001619	0.001721	28.0799	0.045983	0.002026	22.6984	-8.459325	-165.371	-0.065035	0.401076	-0.834431	-0.835761	-0.046984	22.6984	-0.832879	-1.255455E+11	3.742404E-13	NaN
281	1.000000	0.412383	7.3678e+06	-52689.1	955.819	-29748.6	0.000000	0.000000	6.412899	0.006998	NaN	0.000000	0.001620	0.001764	28.08	0.070421	0.002028	34.7319	70.9033	13.6962	0.019835	0.411062	-0.824454	-0.825775	0.006998	34.7319	-0.824605	-9.697341E+10	-7.216475E-14	NaN
281	1.000000	0.422377	7.3678e+06	-52689.1	955.819	-29748.6	0.000000	0.000000	6.422894	0.033101	NaN	0.000000	0.001616	0.001749	28.0799	0.010442	0.002022	5.163319	-126.499	-164.618	0.111343	0.421047	-0.814461	-0.815791	0.033101	5.163319	-0.819269	-8.209047E+10	-4.032250E-13	NaN
281	1.000000	0.432396	7.3678e+06	-52689.1	955.818	-29748.6	0.000000	0.000000	6.432912	0.033811	NaN	0.000000	0.001669	0.001774	28.08	0.043728	0.001931	22.6396	-99.9459	16.4714	0.012592	0.431041	-0.804442	-0.805796	0.033811	22.6396	-0.805562	-5.349932E+10	-6.319958E-13	NaN
281	1.000000	0.442379	7.3678e+06	-52689.1	955.819	-29748.6	0.000000	0.000000	6.442898	0.078692	NaN	0.000000	0.001634	0.001734	28.0798	0.093690	0.002052	45.653	133.053	-164.623	0.023285	0.441115	-0.794458	-0.795722	0.078692	45.653	-0.795751	-3.937075E+10	-1.998745E-12	NaN
281	1.000000	0.452413	7.3678e+06	-52689.1	955.818	-29748.6	0.000000	0.000000	6.452927	-0.041332	NaN	0.000000	0.001669	0.001733	28.08	0.057834	0.002025	28.5624	-28.5957	19.0514	-0.011265	0.451040	-0.784424	-0.785797	-0.041332	28.5624	-0.783339	-2.670548E+10	1.547714E-12	NaN
281	1.000000	0.462410	7.3678e+06	-52689.1	955.818	-29748.6	0.000000	0.000000	6.462922	-0.073439	NaN	0.000000	0.001655	0.001752	28.0801	0.055678	0.001953	28.5053	-97.9178	-163.813	-0.025806	0.461134	-0.774428	-0.775703	-0.073439	28.5053	-0.772495	-1.902094E+10	3.860953E-12	NaN
281	1.000000	0.472417	7.3678e+06	-52689.1	955.819	-29748.6	0.000000	0.000000	6.472933	0.022772	NaN	0.000000	0.001669	0.001734	28.0799	0.039622	0.002160	18.3475	-154.175	15.5443	-0.009992	0.471036	-0.764420	-0.765801	0.022772	18.3475	-0.765351	-1.520860E+10	-1.497313E-12	NaN
281	1.000000	0.482415	7.3678e+06	-52689.1	955.818	-29748.6	0.000000	0.000000	6.482934	0.071924	NaN	0.000000	0.001640	0.001792	28.0804	0.124370	0.001832	67.9054	174.664	-164.578	-0.002725	0.481096	-0.754422	-0.755741	0.071924	67.9054	-0.755216	-1.107175E+10	-6.496174E-12	NaN
281	1.000000	0.492421	7.3678e+06	-52689.1	955.818	-29748.6	0.000000	0.000000	6.492937	0.027325	NaN	0.000000	0.001680	0.001745	28.0798	0.101223	0.002009	50.3755	177.037	17.4171	-0.016628	0.491070	-0.744417	-0.745767	0.027325	50.3755	-0.744824	-7.993651E+9	-3.418302E-12	NaN
281	1.000000	0.502433	7.3678e+06	-52689.1	955.819	-29748.6	0.000000	0.000000	6.502949	0.010783	NaN	0.000000	0.001660	0.001726	28.0801	0.109979	0.002065	53.255	-11.7686	-162.648	-0.005804	0.501088	-0.734404	-0.735749	0.010783	53.255	-0.734556	-5.792868E+9	-1.861347E-12	NaN
281	1.000000	0.512411	7.3678e+06	-52689.1	955.819	-29748.6	0.000000	0.000000	6.512924	-0.039424	NaN	0.000000	0.001630	0.001744	28.0798	0.069173	0.002001	34.5669	-99.5605	15.8401	0.017958	0.511091	-0.724427	-0.725746	-0.039424	34.5669	-0.723571	-4.103679E+9	9.607038E-12	NaN
281	1.000000	0.522458	7.3678e+06	-52689.1	955.819	-29748.6	0.000000	0.000000	6.522972	-0.015864	NaN	0.000000	0.001682	0.001760	28.0799	0.023796	0.001917	12.4138	17.045	-164.02	-0.030437	0.521114	-0.714380	-0.715723	-0.015864	12.4138	-0.713421	-2.983540E+9	5.317217E-12	NaN
281	1.000000	0.532471	7.3678e+06	-52689.1	955.818	-29748.6	0.000000	0.000000	6.532988	0.017981	NaN	0.000000	0.001616	0.001736	28.0812	0.099073	0.002026	48.9083	-102.166	16.5512	0.059616	0.531056	-0.704366	-0.705781	0.017981	48.9083	-0.704642	-2.264165E+9	-7.941753E-12	NaN
281	1.000000	0.542423	7.36781e+06	-52689.1	955.818	-29748.6	0.000000	0.000000	6.542936	-0.058914	NaN	0.000000	0.001653	0.001708	28.0815	0.054434	0.002051	26.5346	20.3116	-164.463	-0.102695	0.541129	-0.694414	-0.695708	-0.058914	26.5346	-0.692749	-1.557677E+9	3.782149E-11	NaN
281	1.000000	0.552458	7.36781e+06	-52689.1	955.819	-29748.6	0.000000	0.000000	6.552972	-0.019531	NaN	0.000000	0.001622	0.001784	28.0813	0.034033	0.002093	16.2615	-124.059	16.6305	-0.005071	0.551089	-0.684380	-0.685748	-0.019531	16.2615	-0.683479	-1.163530E+9	1.678565E-11	NaN
281	1.000000	0.562450	7.36781e+06	-52689.1	955.819	-29748.6	0.000000	0.000000	6.562963	-0.045360	NaN	0.000000	0.001579	0.001762	28.0814	0.034147	0.001912	17.8575	-113.415	-165.678	0.003219	0.561119	-0.674387	-0.675718	-0.045360	17.8575	-0.672482	-8.229279E+8	5.512052E-11	NaN
281	1.000000	0.572454	7.36781e+06	-52689.1	955.818	-29748.6	0.000000	0.000000	6.572969	-0.007221	NaN	0.000000	0.001633	0.001734	28.0814	0.069867	0.001991	35.0837	77.1107	17.0392	0.004232	0.571093	-0.664383	-0.665744	-0.007221	35.0837	-0.664229	-6.344352E+8	1.138254E-11	NaN
281	1.000000	0.582459	7.36781e+06	-52689.1	955.819	-29748.6	0.000000	0.000000	6.582972	-0.056843	NaN	0.000000	0.001631	0.001743	28.0812	0.086076	0.002062	41.7378	58.1813	-163.859	-0.044227	0.581184	-0.654378	-0.655654	-0.056843	41.7378	-0.653357	-4.502470E+8	1.262488E-10	NaN
281	1.000000	0.592477	7.36781e+06	-52689.1	955.818	-29748.6	0.000000	0.000000	6.592993	0.017180	NaN	0.000000	0.001587	0.001717	28.0812	0.052089	0.001928	27.0133	174.216	15.4183	-0.024507	0.591149	-0.644360	-0.645689	0.017180	27.0133	-0.644837	-3.440678E+8	-4.993202E-11	NaN
281	1.000000	0.602442	7.36781e+06	-52689.1	955.819	-29748.6	0.000000	0.000000	6.602958	0.005003	NaN	0.000000	0.001598	0.001716	28.0813	0.155752	0.002019	77.1454	-41.9908	-165.448	0.008619	0.601160	-0.634395	-0.635677	0.005003	77.1454	-0.634443	-2.477609E+8	-2.019390E-11	NaN
281	1.000000	0.612477	7.36781e+06	-52689.1	955.818	-29748.6	0.000000	0.000000	6.612993	0.007325	NaN	0.000000	0.001559	0.001755	28.0814	0.044913	0.002090	21.4912	-0.056806	14.1845	0.011532	0.611135	-0.624360	-0.625702	0.007325	21.4912	-0.624616	-1.815786E+8	-4.034032E-11	NaN
281	1.000000	0.622458	7.36781e+06	-52689.1	955.819	-29748.6	0.000000	0.000000	6.622975	0.045927	NaN	0.000000	0.001573	0.001726	28.0813	0.073109	0.002055	35.5798	154.169	-165.131	-0.047313	0.621160	-0.614379	-0.615677	0.045927	35.5798	-0.615347	-1.354147E+8	-3.391616E-10	NaN
281	1.000000	0.632459	7.36781e+06	-52689.1	955.819	-29748.6	0.000000	0.000000	6.632974	0.001433	NaN	0.000000	0.001619	0.001763	28.0811	0.053661	0.001943	27.6129	8.644388	13.7813	0.016253	0.631094	-0.604379	-0.605743	0.001433	27.6129	-0.604418	-9.578257E+7	-1.495909E-11	NaN
281	1.000000	0.642484	7.36781e+06	-52689.1	955.818	-29748.6	0.000000	0.000000	6.643000	-0.001473	NaN	0.000000	0.001656	0.001735	28.0813	0.075354	0.002111	35.695	-150.749	-163.06	0.003418	0.641163	-0.594353	-0.595674	-0.001473	35.695	-0.594322	-6.954042E+7	2.118776E-11	NaN
281	1.000000	0.652492	7.36781e+06	-52689.1	955.818	-29748.6	0.000000	0.000000	6.653007	-0.008412	NaN	0.000000	0.001625	0.001703	28.0815	0.104988	0.002049	51.2298	-7.476787	18.2638	-0.009728	0.651106	-0.584345	-0.585731	-0.008412	51.2298	-0.584222	-5.046432E+7	1.666877E-10	NaN
281	1.000000	0.662508	7.36781e+06	-52689.1	955.818	-29748.6	0.000000	0.000000	6.663020	-0.080614	NaN	0.000000	0.001600	0.001693	28.08	0.031533	0.002001	15.7586	-70.4987	-165.707	-0.072736	0.661205	-0.574329	-0.575632	-0.080614	15.7586	-0.570493	-3.261660E+7	2.471558E-9	NaN
281	1.000000	0.672507	7.36781e+06	-52689.1	955.818	-29748.6	0.000000	0.000000	6.673023	-0.000839	NaN	0.000000	0.001587	0.001718	28.0799	0.031594	0.001995	15.8377	-171.461	14.426	-0.028901	0.671133	-0.564330	-0.565704	-0.000839	15.8377	-0.564290	-2.677403E+7	3.132164E-11	NaN
281	1.000000	0.682481	7.36781e+06	-52689.1	955.819	-29748.6	0.000000	0.000000	6.682996	0.008331	NaN	0.000000	0.001600	0.001741	28.0803	0.035218	0.001941	18.1483	102.961	-162.694	-0.038280	0.681187	-0.554357	-0.555651	0.008331	18.1483	-0.554701	-1.972645E+7	-4.223454E-10	NaN
281	1.000000	0.692481	7.36781e+06	-52689.1	955.819	-29748.6	0.000000	0.000000	6.692995	-0.034613	NaN	0.000000	0.001611	0.001776	28.0803	0.098894	0.001935	51.1052	158.41	13.8979	-0.058389	0.691097	-0.544357	-0.545740	-0.034613	51.1052	-0.543849	-1.395473E+7	2.480353E-9	NaN
281	1.000000	0.702499	7.36781e+06	-52689.1	955.819	-29748.6	0.000000	0.000000	6.703012	-0.054585	NaN	0.000000	0.001575	0.001755	28.0799	0.055125	0.001858	29.6653	109.902	-165.939	-0.009226	0.701245	-0.534339	-0.535592	-0.054585	29.6653	-0.532959	-9.85499e+06	5.538845E-9	NaN
281	1.000000	0.712494	7.36781e+06	-52689.1	955.818	-29748.6	0.000000	0.000000	6.713012	0.045227	NaN	0.000000	0.001594	0.001780	28.08	0.011866	0.002065	5.747283	-4.197125	17.5487	0.019221	0.711202	-0.524343	-0.525635	0.045227	5.747283	-0.530245	-9.03602e+06	-5.005232E-9	NaN
281	1.000000	0.722516	7.36781e+06	-52689.1	955.818	-29748.6	0.000000	0.000000	6.723028	-0.076292	NaN	0.000000	0.001609	0.001786	28.0799	0.178421	0.002015	88.5368	-145.985	-165.717	-0.039872	0.721205	-0.514321	-0.515633	-0.076292	88.5368	-0.513675	-5.31609e+06	1.435111E-8	NaN
281	1.000000	0.732505	7.36781e+06	-52689.1	955.818	-29748.6	0.000000	0.000000	6.733017	-0.064358	NaN	0.000000	0.001597	0.001770	28.0802	0.063933	0.002000	31.9685	-169.455	14.0984	-0.000789	0.731194	-0.504333	-0.505644	-0.064358	31.9685	-0.502823	-3.75311e+06	1.714784E-8	NaN
281	1.000000	0.742536	7.36781e+06	-52689.1	955.818	-29748.6	0.000000	0.000000	6.743053	0.037320	NaN	0.000000	0.001608	0.001740	28.08	0.033149	0.002037	16.2767	-90.0213	-165.852	0.004745	0.741247	-0.494302	-0.495590	0.037320	16.2767	-0.496021	-3.01642e+06	-1.237239E-8	NaN
281	1.000000	0.752513	7.36781e+06	-52689.1	955.818	-29748.6	0.000000	0.000000	6.753027	-0.032585	NaN	0.000000	0.001593	0.001719	28.0801	0.025505	0.002162	11.798	91.3652	16.7083	-0.012318	0.751112	-0.484325	-0.485725	-0.032585	11.798	-0.482253	-1.93671e+06	1.682468E-8	NaN
281	1.000000	0.762533	7.36781e+06	-52689.1	955.819	-29748.6	0.000000	0.000000	6.763049	0.015002	NaN	0.000000	0.001615	0.001782	28.0803	0.055927	0.001944	28.768	-156.918	-166.033	0.047785	0.761210	-0.474304	-0.475627	0.015002	28.768	-0.474696	-1.51787e+06	-9.883379E-9	NaN
281	1.000000	0.772546	7.36781e+06	-52689.1	955.819	-29748.6	0.000000	0.000000	6.773063	0.054983	NaN	0.000000	0.001638	0.001733	28.0799	0.048560	0.001839	26.3995	39.9586	17.4562	0.058471	0.771184	-0.464292	-0.465653	0.054983	26.3995	-0.465854	-1.14086e+06	-4.819426E-8	NaN
281	1.000000	0.782554	7.36781e+06	-52689.1	955.819	-29748.6	0.000000	0.000000	6.783068	-0.030251	NaN	0.000000	0.001598	0.001716	28.08	0.150506	0.001834	82.0437	117.579	-165.166	-0.029925	0.781256	-0.454284	-0.455581	-0.030251	82.0437	-0.454007	-777585	3.890436E-8	NaN
281	1.000000	0.792559	7.36781e+06	-52689.1	955.819	-29748.6	0.000000	0.000000	6.793074	-0.002417	NaN	0.000000	0.001599	0.001743	28.08	0.084052	0.002114	39.7659	99.0146	13.9736	-0.064013	0.791180	-0.444279	-0.445657	-0.002417	39.7659	-0.444233	-566343	4.267507E-9	NaN
281	1.000000	0.802547	7.36781e+06	-52689.1	955.818	-29748.6	0.000000	0.000000	6.803062	-0.002829	NaN	0.000000	0.001599	0.001722	28.0814	0.100693	0.001833	54.928	113.509	-166.107	-0.055303	0.801287	-0.434290	-0.435551	-0.002829	54.928	-0.434252	-409431	6.910550E-9	NaN
281	1.000000	0.812585	7.36781e+06	-52689.1	955.817	-29748.6	0.000000	0.000000	6.813100	-0.003654	NaN	0.000000	0.001616	0.001707	28.0813	0.103429	0.002043	50.6375	-131.413	15.2617	-0.022251	0.811170	-0.424253	-0.425668	-0.003654	50.6375	-0.424198	-295071	1.238285E-8	NaN
281	1.000000	0.822537	7.36781e+06	-52689.1	955.819	-29748.6	0.000000	0.000000	6.823049	-0.090062	NaN	0.000000	0.001631	0.001705	28.0812	0.040604	0.001902	21.3474	-80.1626	-164.38	-0.129704	0.821247	-0.414300	-0.415590	-0.090062	21.3474	-0.411136	-192553	4.677246E-7	NaN
281	1.000000	0.832567	7.36781e+06	-52689.1	955.818	-29748.6	0.000000	0.000000	6.833080	-0.056543	NaN	0.000000	0.001611	0.001723	28.0812	0.020735	0.001958	10.5907	-170.675	14.5364	-0.062300	0.831176	-0.404271	-0.405662	-0.056543	10.5907	-0.400267	-134833	4.193585E-7	NaN
281	1.000000	0.842570	7.36781e+06	-52689.1	955.819	-29748.6	0.000000	0.000000	6.843086	0.015785	NaN	0.000000	0.001587	0.001739	28.0815	0.144743	0.001989	72.776	-69.9251	-163.664	0.007628	0.841240	-0.394267	-0.395597	0.015785	72.776	-0.394430	-111300	-1.418258E-7	NaN
281	1.000000	0.852568	7.36781e+06	-52689.1	955.818	-29748.6	0.000000	0.000000	6.853086	0.042012	NaN	0.000000	0.001572	0.001728	28.081	0.127509	0.001877	67.9198	155.307	15.914	-0.016794	0.851251	-0.384269	-0.385586	0.042012	67.9198	-0.384733	-80864.3	-5.195423E-7	NaN
281	1.000000	0.862562	7.36781e+06	-52689.1	955.818	-29748.6	0.000000	0.000000	6.863078	0.011046	NaN	0.000000	0.001600	0.001754	28.0809	0.047725	0.001976	24.1531	144.337	-165.385	-0.027611	0.861263	-0.374275	-0.375574	0.011046	24.1531	-0.374618	-57887.1	-1.908219E-7	NaN
281	1.000000	0.872562	7.36781e+06	-52689.1	955.818	-29748.6	0.000000	0.000000	6.873077	-0.012769	NaN	0.000000	0.001611	0.001732	28.0813	0.051166	0.002013	25.4187	-28.4352	16.176	-0.032944	0.871194	-0.364275	-0.365643	-0.012769	25.4187	-0.363899	-40565.7	3.147649E-7	NaN
281	1.000000	0.882575	7.36781e+06	-52689.1	955.818	-29748.6	0.000000	0.000000	6.883090	-0.010107	NaN	0.000000	0.001628	0.001731	28.0817	0.080261	0.001954	41.0654	-36.7086	-163.709	-0.024209	0.881251	-0.354262	-0.355586	-0.010107	41.0654	-0.354078	-29250.5	3.455327E-7	NaN
281	1.000000	0.892570	7.36781e+06	-52689.1	955.819	-29748.6	0.000000	0.000000	6.893085	-0.014777	NaN	0.000000	0.001608	0.001736	28.0811	0.062152	0.001956	31.7767	157.213	16.075	-0.052161	0.891217	-0.344267	-0.345620	-0.014777	31.7767	-0.343918	-20826.7	7.095177E-7	NaN
281	1.000000	0.902590	7.36781e+06	-52689.1	955.818	-29748.6	0.000000	0.000000	6.903106	0.015493	NaN	0.000000	0.001611	0.001754	28.081	0.068501	0.002035	33.6601	22.6619	-164.076	0.043069	0.901273	-0.334247	-0.335564	0.015493	33.6601	-0.334592	-15227.6	-1.017437E-6	NaN
281	1.000000	0.912588	7.36781e+06	-52689.1	955.818	-29748.6	0.000000	0.000000	6.913103	-0.024088	NaN	0.000000	0.001561	0.001749	28.0812	0.022066	0.001983	11.1292	-163.996	15.4725	-0.028260	0.911234	-0.324249	-0.325604	-0.024088	11.1292	-0.322626	-10168.5	2.368847E-6	NaN
281	1.000000	0.922605	7.36781e+06	-52689.1	955.818	-29748.6	0.000000	0.000000	6.923122	0.034764	NaN	0.000000	0.001597	0.001742	28.0811	0.024096	0.001989	12.1164	-79.4584	-165.42	0.080754	0.921272	-0.314233	-0.315565	0.034764	12.1164	-0.316384	-8229.47	-4.224354E-6	NaN
281	1.000000	0.932580	7.36781e+06	-52689.1	955.819	-29748.6	0.000000	0.000000	6.933097	0.038297	NaN	0.000000	0.001599	0.001754	28.0808	0.102396	0.001905	53.7449	-12.2003	16.2651	0.049020	0.931171	-0.304257	-0.305666	0.038297	53.7449	-0.304792	-5544.55	-6.907063E-6	NaN
281	1.000000	0.942598	7.36781e+06	-52689.1	955.818	-29748.6	0.000000	0.000000	6.943114	0.007994	NaN	0.000000	0.001594	0.001730	28.0799	0.052792	0.002086	25.3135	34.1852	-163.792	-0.004176	0.941346	-0.294239	-0.295491	0.007994	25.3135	-0.294476	-3892.75	-2.053578E-6	NaN
281	1.000000	0.952587	7.36781e+06	-52689.1	955.819	-29748.6	0.000000	0.000000	6.953102	-0.028924	NaN	0.000000	0.001601	0.001778	28.0799	0.129614	0.001969	65.8255	11.1807	17.7664	-0.003672	0.951224	-0.284250	-0.285613	-0.028924	65.8255	-0.283920	-2704.15	1.069606E-5	NaN
281	1.000000	0.962600	7.36781e+06	-52689.1	955.819	-29748.6	0.000000	0.000000	6.963113	-0.053127	NaN	0.000000	0.001627	0.001795	28.0796	0.097755	0.002034	48.0576	-81.7587	-165.458	-0.016317	0.961311	-0.274237	-0.275526	-0.053127	48.0576	-0.273408	-1876.22	2.831602E-5	NaN
281	1.000000	0.972617	7.36781e+06	-52689.1	955.819	-29748.6	0.000000	0.000000	6.973132	-0.024465	NaN	0.000000	0.001579	0.001752	28.0799	0.076683	0.001990	38.5361	124.232	15.9597	-0.035531	0.971218	-0.264220	-0.265619	-0.024465	38.5361	-0.263744	-1337.23	1.829530E-5	NaN
281	1.000000	0.982619	7.36781e+06	-52689.1	955.819	-29748.6	0.000000	0.000000	6.983135	0.010724	NaN	0.000000	0.001605	0.001760	28.08	0.050640	0.002029	24.9602	4.016813	-164.306	0.130138	0.981294	-0.254218	-0.255543	0.010724	24.9602	-0.254540	-966.134	-1.109996E-5	NaN
281	1.000000	0.992644	7.36781e+06	-52689.1	955.82	-29748.6	0.000000	0.000000	6.993160	0.016704	NaN	0.000000	0.001607	0.001761	28.0799	0.034031	0.001954	17.4135	-109.297	15.2495	0.035435	0.991252	-0.244193	-0.245586	0.016704	17.4135	-0.244912	-685.63	-2.436299E-5	NaN
281	1.000000	1.002622	7.36781e+06	-52689.1	955.819	-29748.6	0.000000	0.000000	7.003135	-0.051616	NaN	0.000000	0.001602	0.001708	28.0798	0.038800	0.002037	19.0467	-166.98	-167.286	-0.003793	1.001270	-0.234216	-0.235567	-0.051616	19.0467	-0.232183	-433.46	0.000119	NaN
281	1.000000	1.012653	7.36781e+06	-52689.1	955.819	-29748.6	0.000000	0.000000	7.013168	-0.010203	NaN	0.000000	0.001620	0.001736	28.0799	0.052957	0.002065	25.6419	-111.816	14.7415	-0.014009	1.011252	-0.224184	-0.225585	-0.010203	25.6419	-0.223885	-320.347	3.184841E-5	NaN
281	1.000000	1.022622	7.36781e+06	-52689.1	955.818	-29748.6	0.000000	0.000000	7.023135	-0.067244	NaN	0.000000	0.001622	0.001750	28.0797	0.032112	0.002093	15.3441	29.8649	-165.439	0.012262	1.021326	-0.214215	-0.215511	-0.067244	15.3441	-0.210928	-198.537	0.000339	NaN
281	1.000000	1.032653	7.36781e+06	-52689.1	955.818	-29748.6	0.000000	0.000000	7.033168	-0.017107	NaN	0.000000	0.001598	0.001765	28.0799	0.120728	0.002005	60.2081	-84.7192	19.1504	-0.006968	1.031307	-0.204184	-0.205530	-0.017107	60.2081	-0.203971	-153.025	0.000112	NaN
281	1.000000	1.042662	7.36781e+06	-52689.1	955.818	-29748.6	0.000000	0.000000	7.043178	0.022168	NaN	0.000000	0.001591	0.001784	28.0799	0.008753	0.002083	4.203015	-139.828	-165.218	0.035974	1.041296	-0.194175	-0.195542	0.022168	4.203015	-0.198131	-122.728	-0.000181	NaN
281	1.000000	1.052647	7.36781e+06	-52689.1	955.818	-29748.6	0.000000	0.000000	7.053161	-0.039294	NaN	0.000000	0.001602	0.001764	28.08	0.074634	0.002011	37.1054	-2.885660	15.9953	-0.119215	1.051226	-0.184190	-0.185611	-0.039294	37.1054	-0.183396	-69.6723	0.000564	NaN
281	1.000000	1.062624	7.36781e+06	-52689.1	955.818	-29748.6	0.000000	0.000000	7.063136	-0.078401	NaN	0.000000	0.001620	0.001703	28.0798	0.063747	0.002034	31.3446	42.2492	-166.375	-0.059176	1.061362	-0.174213	-0.175475	-0.078401	31.3446	-0.172337	-45.0916	0.001739	NaN
281	1.000000	1.072653	7.36781e+06	-52689.1	955.818	-29748.6	0.000000	0.000000	7.073169	0.017926	NaN	0.000000	0.001603	0.001742	28.0809	0.055473	0.002013	27.5641	-81.6947	14.2173	0.008746	1.071282	-0.164184	-0.165555	0.017926	27.5641	-0.164672	-33.1547	-0.000541	NaN
281	1.000000	1.082649	7.36781e+06	-52689.1	955.818	-29748.6	0.000000	0.000000	7.083161	-0.072895	NaN	0.000000	0.001594	0.001715	28.0812	0.092620	0.001942	47.6866	-110.826	-161.911	-0.020938	1.081324	-0.154188	-0.155513	-0.072895	47.6866	-0.153042	-20.5709	0.003544	NaN
281	1.000000	1.092666	7.36781e+06	-52689.1	955.818	-29748.6	0.000000	0.000000	7.093182	-0.006039	NaN	0.000000	0.001590	0.001730	28.081	0.028013	0.001912	14.6533	94.2199	16.5595	0.025953	1.091335	-0.144171	-0.145502	-0.006039	14.6533	-0.143862	-13.966	0.000432	NaN
281	1.000000	1.102694	7.36781e+06	-52689.1	955.818	-29748.6	0.000000	0.000000	7.103210	0.023272	NaN	0.000000	0.001612	0.001713	28.0809	0.074935	0.001915	39.1283	15.4566	-165.927	0.035346	1.101352	-0.134143	-0.135485	0.023272	39.1283	-0.134589	-9.342073	-0.002491	NaN
281	1.000000	1.112670	7.36781e+06	-52689.1	955.819	-29748.6	0.000000	0.000000	7.113184	-0.024762	NaN	0.000000	0.001621	0.001752	28.0808	0.102148	0.002005	50.9449	176.199	17.0014	-0.062217	1.111354	-0.124167	-0.125483	-0.024762	50.9449	-0.123803	-5.757671	0.004301	NaN
281	1.000000	1.122664	7.36781e+06	-52689.1	955.819	-29748.6	0.000000	0.000000	7.123179	-0.019103	NaN	0.000000	0.001619	0.001740	28.081	0.067373	0.002107	31.9749	-92.8328	-163.282	-0.035074	1.121375	-0.114173	-0.115462	-0.019103	31.9749	-0.113725	-3.595439	0.005313	NaN
281	1.000000	1.132671	7.36781e+06	-52689.1	955.82	-29748.6	0.000000	0.000000	7.133184	-0.061748	NaN	0.000000	0.001571	0.001767	28.0811	0.068160	0.002049	33.2595	-85.5229	15.3265	-0.036777	1.131362	-0.104167	-0.105475	-0.061748	33.2595	-0.102774	-2.102912	0.029363	NaN
281	1.000000	1.142701	7.36781e+06	-52689.1	955.819	-29748.6	0.000000	0.000000	7.143215	-0.037381	NaN	0.000000	0.001616	0.001795	28.081	0.023325	0.002078	11.2261	-67.2785	-161.953	-0.044787	1.141352	-0.094136	-0.095485	-0.037381	11.2261	-0.091639	-1.180547	0.031664	NaN
281	1.000000	1.152701	7.36781e+06	-52689.1	955.818	-29748.6	0.000000	0.000000	7.153218	0.026097	NaN	0.000000	0.001594	0.001813	28.0811	0.040168	0.001835	21.8932	-25.8708	14.3431	0.014439	1.151314	-0.084136	-0.085523	0.026097	21.8932	-0.085030	-0.823005	-0.031710	NaN
281	1.000000	1.162701	7.36781e+06	-52689.1	955.817	-29748.6	0.000000	0.000000	7.163214	-0.054070	NaN	0.000000	0.001597	0.001797	28.081	0.092513	0.001958	47.2448	-94.5968	-164.523	-0.026080	1.161410	-0.074136	-0.075427	-0.054070	47.2448	-0.073278	-0.416588	0.129793	NaN
281	1.000000	1.172729	7.36781e+06	-52689.1	955.819	-29748.6	0.000000	0.000000	7.173245	0.013112	NaN	0.000000	0.001612	0.001756	28.0813	0.009002	0.002085	4.317248	-129.697	15.6181	0.047340	1.171281	-0.064108	-0.065557	0.013112	4.317248	-0.066386	-0.272163	-0.048175	NaN
281	1.000000	1.182703	7.36781e+06	-52689.1	955.817	-29748.6	0.000000	0.000000	7.183216	-0.064813	NaN	0.000000	0.001607	0.001767	28.081	0.045634	0.002017	22.625	-48.3987	-167.964	-0.123134	1.181437	-0.054134	-0.055401	-0.064813	22.625	-0.051986	-0.104726	0.618882	NaN
281	1.000000	1.192684	7.36781e+06	-52689.1	955.818	-29748.6	0.000000	0.000000	7.193201	0.040134	NaN	0.000000	0.001589	0.001738	28.0815	0.079241	0.002038	38.8901	-3.559902	12.3507	0.000369	1.191352	-0.044153	-0.045486	0.040134	38.8901	-0.044927	-0.063940	-0.627685	NaN
281	1.000000	1.202721	7.36781e+06	-52689.1	955.819	-29748.6	0.000000	0.000000	7.203235	-0.027273	NaN	0.000000	0.001587	0.001788	28.0809	0.046661	0.002062	22.6306	77.3174	-167.19	-0.062169	1.201395	-0.034116	-0.035442	-0.027273	22.6306	-0.033213	-0.028397	0.960419	NaN
281	1.000000	1.212721	7.36781e+06	-52689.1	955.818	-29748.6	0.000000	0.000000	7.213235	-0.021499	NaN	0.000000	0.001622	0.001772	28.0802	0.039751	0.002005	19.8273	-169.608	12.3323	-0.052418	1.211373	-0.024116	-0.025465	-0.021499	19.8273	-0.023303	-0.015247	1.410066	NaN
281	1.000000	1.222690	7.36781e+06	-52689.1	955.817	-29748.6	0.000000	0.000000	7.223205	-0.028124	NaN	0.000000	0.001600	0.001771	28.0796	0.094472	0.002045	46.1972	88.5253	-165.023	-0.079484	1.221424	-0.014147	-0.015413	-0.028124	46.1972	-0.013690	-0.008502	3.307731	NaN
281	1.000000	1.232722	7.36781e+06	-52689.1	955.818	-29748.6	0.000000	0.000000	7.233238	0.019329	NaN	0.000000	0.001658	0.001724	28.0801	0.040998	0.001974	20.7673	-122.626	13.9855	0.055565	1.231327	-0.004115	-0.005510	0.019329	20.7673	-0.004813	-0.003299	-5.858876	NaN
281	1.000000	1.242683	7.36781e+06	-52689.1	955.818	-29748.6	0.000000	0.000000	7.243480	6.853321	NaN	0.000000	0.001650	0.001782	28.0798	7.152326	0.001783	4011.56	10.9067	-170.632	4.934500	1.241386	0.005846	0.004549	6.853321	4011.56	0.004565	0.003740	1832.66	59934.5
281	2.000000	1.246794	7.36781e+06	-52689.1	955.818	-29748.6	0.000000	0.000000	7.247826	12.5465	NaN	0.000000	0.001616	0.001783	28.081	11.3931	0.001522	7483.52	5.750167	8.085651	12.6741	1.246471	0.009957	0.009634	12.5465	7483.52	0.008700	0.007772	1614.36	77556.5
281	2.000000	1.249195	7.36781e+06	-52689.1	955.818	-29748.6	0.000000	0.000000	7.250442	17.7877	NaN	0.000000	0.001683	0.001770	28.0798	14.9619	0.001703	8783.7	7.747051	-176.653	16.0098	1.248874	0.012357	0.012037	17.7877	8783.7	0.010838	0.010128	1756.24	79741.3
281	2.000000	1.251751	7.36781e+06	-52689.1	955.819	-29748.6	0.000000	0.000000	7.253174	22.086	NaN	0.000000	0.001682	0.001760	28.0799	17.4088	0.001647	10568.4	3.726037	5.414724	20.8444	1.251363	0.014913	0.014526	22.086	10568.4	0.013346	0.013142	1680.51	84225.7
281	2.000000	1.254213	7.36781e+06	-52689.1	955.818	-29748.6	0.000000	0.000000	7.255861	27.528	NaN	0.000000	0.001692	0.001753	28.0803	20.7787	0.001779	11677.1	4.393215	-174.947	26.8345	1.253874	0.017376	0.017037	27.528	11677.1	0.015608	0.016104	1709.36	84069.2
281	2.000000	1.256750	7.36781e+06	-52689.1	955.817	-29748.6	0.000000	0.000000	7.258557	31.3923	NaN	0.000000	0.001702	0.001755	28.0804	22.3608	0.001668	13409.1	5.070042	3.940288	32.9656	1.256371	0.019913	0.019534	31.3923	13409.1	0.018157	0.019729	1591.19	87221.6
281	2.000000	1.259181	7.36781e+06	-52689.1	955.818	-29748.6	0.000000	0.000000	7.261289	38.7269	NaN	0.000000	0.001683	0.001739	28.0801	25.0057	0.001792	13957.8	4.949154	-176.774	37.9918	1.258832	0.022344	0.021995	38.7269	13957.8	0.020263	0.022957	1686.91	84164.5
281	2.000000	1.261666	7.36781e+06	-52689.1	955.819	-29748.6	0.000000	0.000000	7.263990	43.9649	NaN	0.000000	0.001699	0.001757	28.0801	29	0.001747	16599.4	7.260909	-0.443833	43.3146	1.261259	0.024829	0.024422	43.9649	16599.4	0.022842	0.027207	1615.95	91944.7
281	2.000000	1.264182	7.36781e+06	-52689.1	955.819	-29748.6	0.000000	0.000000	7.266803	51.1888	NaN	0.000000	0.001765	0.001760	28.0802	32.1924	0.001899	16951.9	5.388180	-179.528	50.1584	1.263893	0.027345	0.027056	51.1888	16951.9	0.025080	0.031162	1642.68	87736.9
281	2.000000	1.266699	7.36781e+06	-52689.1	955.818	-29748.6	0.000000	0.000000	7.269593	57.8475	NaN	0.000000	0.001800	0.001769	28.08	33.8545	0.001676	20204.3	5.672708	-0.186747	58.4629	1.266314	0.029862	0.029476	57.8475	20204.3	0.027714	0.036139	1600.69	97102.1
281	2.000000	1.269117	7.36781e+06	-52689.1	955.818	-29748.6	0.000000	0.000000	7.272376	66.6958	NaN	0.000000	0.001800	0.001751	28.0802	36.2426	0.001779	20368.3	2.620671	-179.001	63.7957	1.268880	0.032280	0.032043	66.6958	20368.3	0.029824	0.040380	1651.72	92607.8
281	2.000000	1.271650	7.36781e+06	-52689.1	955.818	-29748.6	0.000000	0.000000	7.275293	76.0543	NaN	0.000000	0.001738	0.001721	28.0811	38.6178	0.001795	21508.4	4.675189	-0.494114	74.117	1.271382	0.034812	0.034545	76.0543	21508.4	0.032160	0.045340	1677.41	92286.8
281	2.000000	1.274106	7.36781e+06	-52689.1	955.819	-29748.6	0.000000	0.000000	7.278225	87.6102	NaN	0.000000	0.001743	0.001742	28.0814	41.6109	0.001692	24593	5.107763	177.74	85.2687	1.273801	0.037269	0.036964	87.6102	24593	0.034597	0.050812	1724.19	99678.2
281	2.000000	1.276682	7.36781e+06	-52689.1	955.819	-29748.6	0.000000	0.000000	7.281244	98.389	NaN	0.000000	0.001737	0.001729	28.0812	43.6202	0.001800	24233	7.676910	-4.151179	96.6615	1.276251	0.039845	0.039414	98.389	24233	0.036799	0.056019	1756.35	93543.6
281	2.000000	1.279130	7.36781e+06	-52689.1	955.818	-29748.6	0.000000	0.000000	7.283939	104.399	NaN	0.000000	0.001727	0.001728	28.0812	47.1089	0.001977	23830.7	11.5482	172.911	103.814	1.278764	0.042293	0.041927	104.399	23830.7	0.039007	0.061488	1697.88	87804.5
281	2.000000	1.281659	7.36781e+06	-52689.1	955.818	-29748.6	0.000000	0.000000	7.286826	113.093	NaN	0.000000	0.001762	0.001721	28.0813	48.6901	0.001764	27596.8	5.201487	-3.675527	111.273	1.281313	0.044822	0.044476	113.093	27596.8	0.041748	0.068625	1648	96248.1
281	2.000000	1.284173	7.36781e+06	-52689.1	955.819	-29748.6	0.000000	0.000000	7.289951	127.955	NaN	0.000000	0.001765	0.001713	28.0815	51.319	0.001826	28102.5	2.872833	178.958	128.807	1.283785	0.047336	0.046948	127.955	28102.5	0.043921	0.074554	1716.26	94033.4
281	2.000000	1.286609	7.36781e+06	-52689.1	955.819	-29748.6	0.000000	0.000000	7.293038	143.772	NaN	0.000000	0.001734	0.001737	28.0814	52.3013	0.001711	30571	2.757916	-0.995208	140.732	1.286231	0.049772	0.049394	143.772	30571	0.046245	0.081160	1771.46	98042
281	2.000000	1.289076	7.36781e+06	-52689.1	955.818	-29748.6	0.000000	0.000000	7.296044	156.892	NaN	0.000000	0.001756	0.001742	28.0813	55.9526	0.001736	32229.1	7.411153	173.467	153.622	1.288723	0.052239	0.051886	156.892	32229.1	0.048588	0.088097	1780.89	99206.5
281	2.000000	1.291674	7.36781e+06	-52689.1	955.819	-29748.6	0.000000	0.000000	7.299111	168.294	NaN	0.000000	0.001707	0.001717	28.0813	58.4479	0.001781	32818.1	5.856892	-4.478783	169.616	1.291218	0.054837	0.054381	168.294	32818.1	0.050991	0.095501	1762.23	97024.9
281	2.000000	1.294089	7.36781e+06	-52689.1	955.82	-29748.6	0.000000	0.000000	7.302055	181.158	NaN	0.000000	0.001723	0.001734	28.0815	61.342	0.001668	36780.2	2.112768	177.102	177.021	1.293837	0.057252	0.057000	181.158	36780.2	0.053558	0.103726	1746.51	104338
281	2.000000	1.296681	7.36781e+06	-52689.1	955.819	-29748.6	0.000000	0.000000	7.305350	198.228	NaN	0.000000	0.001724	0.001740	28.0813	63.9598	0.001768	36172.3	7.209692	-7.256472	197.774	1.296302	0.059844	0.059464	198.228	36172.3	0.055734	0.110957	1786.53	99213.8
281	2.000000	1.299151	7.36781e+06	-52689.1	955.82	-29748.6	0.000000	0.000000	7.308368	211.582	NaN	0.000000	0.001745	0.001712	28.0813	65.9338	0.001798	36677.2	6.277729	173.839	215.66	1.298771	0.062314	0.061934	211.582	36677.2	0.057987	0.118689	1782.65	97266.6
281	2.000000	1.301547	7.36781e+06	-52689.1	955.82	-29748.6	0.000000	0.000000	7.311404	227.128	NaN	0.000000	0.001742	0.001715	28.0815	68.8876	0.001785	38585.1	6.506643	-7.803533	221.713	1.301248	0.064710	0.064410	227.128	38585.1	0.060295	0.126868	1790.27	98973.1
281	2.000000	1.304137	7.36781e+06	-52689.1	955.82	-29748.6	0.000000	0.000000	7.314466	238.596	NaN	0.000000	0.001750	0.001729	28.0803	71.2148	0.001703	41815.2	4.104396	174.67	241.203	1.303890	0.067300	0.067053	238.596	41815.2	0.063020	0.136861	1743.35	103268
281	2.000000	1.306685	7.36781e+06	-52689.1	955.819	-29748.6	0.000000	0.000000	7.317673	254.624	NaN	0.000000	0.001733	0.001729	28.0802	72.8386	0.001687	43164.1	2.567761	-4.050900	255.295	1.306387	0.069848	0.069549	254.624	43164.1	0.065424	0.145971	1744.34	103220
281	2.000000	1.309002	7.36781e+06	-52689.1	955.819	-29748.6	0.000000	0.000000	7.320773	273.672	NaN	0.000000	0.001743	0.001723	28.0802	75.186	0.001744	43110.3	2.590283	175.937	267.195	1.308734	0.072165	0.071897	273.672	43110.3	0.067404	0.153687	1780.71	100470
281	2.000000	1.311461	7.36781e+06	-52689.1	955.82	-29748.6	0.000000	0.000000	7.324030	293.065	NaN	0.000000	0.001717	0.001707	28.0803	78.455	0.001815	43235	4.597902	-5.792601	284.629	1.311233	0.074624	0.074396	293.065	43235	0.069540	0.162223	1806.56	98073.7
281	2.000000	1.314113	7.36781e+06	-52689.1	955.819	-29748.6	0.000000	0.000000	7.327064	302.357	NaN	0.000000	0.001727	0.001720	28.08	81.7386	0.001618	50527.1	9.124327	168.195	303.8	1.313764	0.077276	0.076927	302.357	50527.1	0.072788	0.175612	1721.73	110159
281	2.000000	1.316580	7.36781e+06	-52689.1	955.819	-29748.6	0.000000	0.000000	7.330555	327.242	NaN	0.000000	0.001699	0.001708	28.0802	83.2913	0.001753	47507.8	5.471367	-6.827450	323.129	1.316159	0.079743	0.079322	327.242	47507.8	0.074577	0.183203	1786.23	101408
281	2.000000	1.318985	7.36781e+06	-52689.1	955.82	-29748.6	0.000000	0.000000	7.333621	343.324	NaN	0.000000	0.001683	0.001723	28.0797	86.0707	0.001845	46657.1	7.987543	170.323	336.946	1.318653	0.082148	0.081816	343.324	46657.1	0.076629	0.192096	1787.26	97259.5
281	2.000000	1.321505	7.36781e+06	-52689.1	955.819	-29748.6	0.000000	0.000000	7.336989	363.943	NaN	0.000000	0.001683	0.001727	28.0803	87.7378	0.001725	50854.6	3.588967	-6.027811	357.233	1.321236	0.084668	0.084399	363.943	50854.6	0.079300	0.203964	1784.35	102879
281	2.000000	1.324138	7.36781e+06	-52689.1	955.819	-29748.6	0.000000	0.000000	7.340257	379.377	NaN	0.000000	0.001701	0.001726	28.08	91.6749	0.001747	52481.8	3.559883	173.599	380.368	1.323821	0.087301	0.086984	379.377	52481.8	0.081879	0.215740	1758.49	103232
281	2.000000	1.326571	7.36781e+06	-52689.1	955.819	-29748.6	0.000000	0.000000	7.343687	403.625	NaN	0.000000	0.001729	0.001702	28.0805	93.4541	0.001775	52649	4.073801	-7.057318	399.537	1.326240	0.089733	0.089403	403.625	52649	0.083984	0.225577	1789.3	101278
281	2.000000	1.328947	7.36781e+06	-52689.1	955.82	-29748.6	0.000000	0.000000	7.346990	426.152	NaN	0.000000	0.001729	0.001674	28.0802	95.7047	0.001661	57634.6	7.727887	169.051	418.587	1.328628	0.092110	0.091790	426.152	57634.6	0.086564	0.237921	1791.15	107954
281	2.000000	1.331495	7.36781e+06	-52689.1	955.82	-29748.6	0.000000	0.000000	7.350403	447.195	NaN	0.000000	0.001737	0.001742	28.0804	99.3866	0.001769	56184.9	3.782598	-7.096087	439.898	1.331272	0.094658	0.094435	447.195	56184.9	0.088689	0.248311	1800.94	103014
281	2.000000	1.333997	7.36781e+06	-52689.1	955.821	-29748.6	0.000000	0.000000	7.354070	475.522	NaN	0.000000	0.001712	0.001700	28.0802	101.739	0.001772	57410.8	3.185122	173.838	470.397	1.333787	0.097160	0.096949	475.522	57410.8	0.090948	0.259590	1831.82	102949
281	2.000000	1.336566	7.36781e+06	-52689.1	955.821	-29748.6	0.000000	0.000000	7.357362	493.111	NaN	0.000000	0.001668	0.001708	28.0801	104.769	0.001807	57967	5.218010	-8.554382	488.863	1.336180	0.099728	0.099343	493.111	57967	0.093348	0.271829	1814.05	101580
281	2.000000	1.338935	7.36781e+06	-52689.1	955.819	-29748.6	0.000000	0.000000	7.360692	516.485	NaN	0.000000	0.001674	0.001704	28.0828	107.401	0.001814	59195.3	7.962587	168.364	507.907	1.338634	0.102097	0.101797	516.485	59195.3	0.095553	0.283305	1823.07	101609
281	2.000000	1.341492	7.36781e+06	-52689.1	955.819	-29748.6	0.000000	0.000000	7.364303	542.102	NaN	0.000000	0.001635	0.001708	28.0815	108.195	0.001810	59762.8	3.119344	-6.662920	535.209	1.341223	0.104655	0.104385	542.102	59762.8	0.097852	0.295500	1834.52	100444
281	2.000000	1.343081	7.36781e+06	-52689.1	955.819	-29748.6	0.000000	0.000000	7.366093	546.961	NaN	0.000000	0.001656	0.001741	28.0813	109.656	0.001772	61880.6	4.983523	170.981	545.765	1.342916	0.106244	0.106079	546.961	61880.6	0.099615	0.305021	1793.19	102368