File: remote_trans/data/nanoindenter/0828-1/data/Data_2025-08-06,11h17m57s/2025-07-22_16-23-58_1_798.txt
2025-07-22, 16:23:58, 1
Index	Phase	Displacement	Time	Pos X	Pos Y	Pos Z	Rot A	Rot B	Piezo Z	Force A	Force B	Gripper	Voltage A	Voltage B	Temperature	Amplitude force	Amplitude pos	Stiffness	Phase shift	Phase excitation	Force A raw	Displacement raw	HMax	HMax raw	Real Force	Real Stiffness	Contact Depth	Area	Hardness	Reduced Mod.
[#]	[#]	[um]	[s]	[um]	[um]	[um]	[m°]	[m°]	[um]	[uN]	[uN]	[V]	[V]	[V]	[°C]	[uN]	[um]	[N/m]	[°]	[°]	[uN]	[um]	[um]	[um]	[uN]	[N/m]	[um]	[um^2]	[MPa]	[MPa]
798	1.000000	0.002649	7.37286e+06	-40039.1	1055.82	-29791.5	0.000000	0.000000	6.002782	-0.066071	NaN	0.000000	0.001547	0.001831	28.0825	0.144547	0.000912	158.575	78.7453	-161.225	-0.014170	0.001384	-1.078867	-1.080132	-0.066071	158.575	-1.078555	-2.582892E+14	2.558011E-16	NaN
798	1.000000	0.010629	7.37286e+06	-40039.1	1055.82	-29791.5	0.000000	0.000000	6.010765	-0.006464	NaN	0.000000	0.001582	0.001804	28.0821	0.018362	0.001109	16.552	4.607322	-160.412	-0.008686	0.009319	-1.070887	-1.072197	-0.006464	16.552	-1.070594	-2.019156E+14	3.201240E-17	NaN
798	1.000000	0.018608	7.37286e+06	-40039.1	1055.82	-29791.5	0.000000	0.000000	6.018739	-0.131588	NaN	0.000000	0.001586	0.001778	28.0819	0.057311	0.001788	32.0569	-43.4504	-166.316	-0.076777	0.017296	-1.062908	-1.064220	-0.131588	32.0569	-1.059830	-1.447209E+14	9.092532E-16	NaN
798	1.000000	0.026672	7.37286e+06	-40039.1	1055.82	-29791.5	0.000000	0.000000	6.026807	-0.011004	NaN	0.000000	0.001598	0.001829	28.082	0.025782	0.001842	13.9977	7.183367	-164.635	0.015250	0.025267	-1.054844	-1.056249	-0.011004	13.9977	-1.054255	-1.217885E+14	9.035459E-17	NaN
798	1.000000	0.034616	7.37286e+06	-40039.1	1055.82	-29791.5	0.000000	0.000000	6.034747	-0.124199	NaN	0.000000	0.001559	0.001798	28.0823	0.057529	0.002017	28.5233	101.402	-164.811	-0.151497	0.033290	-1.046900	-1.048225	-0.124199	28.5233	-1.043635	-8.766766E+13	1.416699E-15	NaN
798	1.000000	0.042604	7.37286e+06	-40039.1	1055.82	-29791.5	0.000000	0.000000	6.042741	0.032042	NaN	0.000000	0.001559	0.001814	28.0818	0.105144	0.001962	53.5772	65.7042	-164.31	-0.038447	0.041255	-1.038912	-1.040261	0.032042	53.5772	-1.039361	-7.680178E+13	-4.172095E-16	NaN
798	1.000000	0.050598	7.37286e+06	-40039.1	1055.82	-29791.5	0.000000	0.000000	6.050734	-0.027753	NaN	0.000000	0.001585	0.001776	28.0822	0.113427	0.001826	62.1108	110.365	-165.266	-0.018846	0.049328	-1.030917	-1.032188	-0.027753	62.1108	-1.030582	-5.852126E+13	4.742387E-16	NaN
798	1.000000	0.058604	7.37286e+06	-40039.1	1055.82	-29791.5	0.000000	0.000000	6.058736	-0.107056	NaN	0.000000	0.001574	0.001831	28.082	0.086706	0.002051	42.2851	-76.107	-165.125	-0.096026	0.057301	-1.022912	-1.024215	-0.107056	42.2851	-1.021013	-4.350986E+13	2.460505E-15	NaN
798	1.000000	0.066638	7.37286e+06	-40039.1	1055.82	-29791.5	0.000000	0.000000	6.066771	-0.083132	NaN	0.000000	0.001568	0.001821	28.0819	0.071122	0.002087	34.0709	154.321	-161.445	-2.201804E-5	0.065318	-1.014878	-1.016198	-0.083132	34.0709	-1.013048	-3.399401E+13	2.445489E-15	NaN
798	1.000000	0.074610	7.37286e+06	-40039.1	1055.82	-29791.5	0.000000	0.000000	6.074744	-0.041747	NaN	0.000000	0.001553	0.001791	28.0819	0.029378	0.002009	14.6222	-157.853	-164.353	-0.007479	0.073309	-1.006906	-1.008207	-0.041747	14.6222	-1.004765	-2.629744E+13	1.587479E-15	NaN
798	1.000000	0.082619	7.37286e+06	-40039.1	1055.82	-29791.5	0.000000	0.000000	6.082753	-0.034028	NaN	0.000000	0.001595	0.001819	28.0818	0.084578	0.002005	42.1803	-56.7309	-167.396	-0.081697	0.081335	-0.998897	-1.000181	-0.034028	42.1803	-0.998292	-2.151675E+13	1.581451E-15	NaN
798	1.000000	0.090617	7.37286e+06	-40039.1	1055.82	-29791.5	0.000000	0.000000	6.090748	-0.117026	NaN	0.000000	0.001583	0.001818	28.0821	0.131435	0.002104	62.4789	-131.092	-166.32	-0.087771	0.089339	-0.990899	-0.992177	-0.117026	62.4789	-0.989495	-1.637969E+13	7.144568E-15	NaN
798	1.000000	0.098627	7.37286e+06	-40039.1	1055.82	-29791.5	0.000000	0.000000	6.098762	-0.030462	NaN	0.000000	0.001596	0.001825	28.0833	0.054335	0.002056	26.4302	-34.1976	-165.331	-0.028415	0.097394	-0.982889	-0.984122	-0.030462	26.4302	-0.982024	-1.299214E+13	2.344657E-15	NaN
798	1.000000	0.106599	7.37286e+06	-40039.1	1055.82	-29791.5	0.000000	0.000000	6.106732	-0.088967	NaN	0.000000	0.001578	0.001835	28.0829	0.044331	0.002014	22.0098	-32.7213	-164.604	-0.107138	0.105337	-0.974917	-0.976179	-0.088967	22.0098	-0.971885	-9.485672E+12	9.379101E-15	NaN
798	1.000000	0.114659	7.37286e+06	-40039.1	1055.82	-29791.5	0.000000	0.000000	6.114793	-0.046890	NaN	0.000000	0.001594	0.001837	28.0829	0.081623	0.001878	43.4532	-113.316	-167.509	-0.130209	0.113330	-0.966857	-0.968186	-0.046890	43.4532	-0.966048	-7.913972E+12	5.924953E-15	NaN
798	1.000000	0.122648	7.37286e+06	-40039.1	1055.82	-29791.5	0.000000	0.000000	6.122777	-0.174985	NaN	0.000000	0.001543	0.001853	28.083	0.007492	0.001848	4.053492	160.383	-168.587	-0.160989	0.121409	-0.958868	-0.960107	-0.174985	4.053492	-0.926492	-2.316553E+12	7.553682E-14	NaN
798	1.000000	0.130633	7.37286e+06	-40039.1	1055.82	-29791.5	0.000000	0.000000	6.130765	-0.111540	NaN	0.000000	0.001588	0.001824	28.0832	0.020634	0.001968	10.4845	89.8008	-166.304	-0.136624	0.129339	-0.950883	-0.952177	-0.111540	10.4845	-0.942904	-3.857587E+12	2.891447E-14	NaN
798	1.000000	0.138608	7.37286e+06	-40039.1	1055.82	-29791.5	0.000000	0.000000	6.138739	-0.125499	NaN	0.000000	0.001587	0.001860	28.0832	0.077168	0.002037	37.8884	-176.336	-164.373	-0.138099	0.137307	-0.942908	-0.944209	-0.125499	37.8884	-0.940424	-3.571519E+12	3.513896E-14	NaN
798	1.000000	0.146638	7.37286e+06	-40039.1	1055.82	-29791.5	0.000000	0.000000	6.146770	-0.084996	NaN	0.000000	0.001583	0.001852	28.0833	0.052205	0.001872	27.8948	-68.8088	-167.533	-0.117974	0.145400	-0.934878	-0.936116	-0.084996	27.8948	-0.932593	-2.800220E+12	3.035318E-14	NaN
798	1.000000	0.154676	7.37286e+06	-40039.1	1055.82	-29791.5	0.000000	0.000000	6.154808	-0.103052	NaN	0.000000	0.001583	0.001835	28.0831	0.022966	0.001989	11.5452	18.6697	-162.928	-0.065855	0.153302	-0.926840	-0.928213	-0.103052	11.5452	-0.920145	-1.901825E+12	5.418580E-14	NaN
798	1.000000	0.162647	7.37286e+06	-40039.1	1055.82	-29791.5	0.000000	0.000000	6.162778	-0.130751	NaN	0.000000	0.001627	0.001786	28.083	0.100632	0.002026	49.6638	-120.526	-167.196	-0.096473	0.161260	-0.918869	-0.920256	-0.130751	49.6638	-0.916894	-1.718989E+12	7.606259E-14	NaN
798	1.000000	0.170690	7.37286e+06	-40039.1	1055.82	-29791.5	0.000000	0.000000	6.170822	-0.110412	NaN	0.000000	0.001607	0.001818	28.083	0.074761	0.001977	37.818	-132.793	-170.008	-0.147869	0.169363	-0.910826	-0.912153	-0.110412	37.818	-0.908636	-1.329667E+12	8.303732E-14	NaN
798	1.000000	0.178678	7.37286e+06	-40039.1	1055.82	-29791.5	0.000000	0.000000	6.178812	-0.035817	NaN	0.000000	0.001587	0.001836	28.0832	0.098647	0.001962	50.2825	-33.4477	-165.934	0.024143	0.177343	-0.902838	-0.904173	-0.035817	50.2825	-0.902304	-1.091939E+12	3.280159E-14	NaN
798	1.000000	0.186660	7.37286e+06	-40039.1	1055.82	-29791.5	0.000000	0.000000	6.186797	0.019389	NaN	0.000000	0.001663	0.001837	28.0835	0.083201	0.002087	39.8591	-159.176	-166.199	0.019981	0.185324	-0.894856	-0.896192	0.019389	39.8591	-0.895221	-8.759529E+11	-2.213464E-14	NaN
798	1.000000	0.194639	7.37286e+06	-40039.1	1055.82	-29791.5	0.000000	0.000000	6.194773	-0.056251	NaN	0.000000	0.001640	0.001806	28.0829	0.025541	0.002115	12.0788	53.9601	-167.454	-0.116827	0.193368	-0.886877	-0.888148	-0.056251	12.0788	-0.883384	-6.059989E+11	9.282386E-14	NaN
798	1.000000	0.202659	7.37286e+06	-40039.1	1055.82	-29791.5	0.000000	0.000000	6.202792	-0.073730	NaN	0.000000	0.001638	0.001783	28.0832	0.032946	0.001912	17.2345	-106.395	-163.475	-0.192229	0.201371	-0.878857	-0.880145	-0.073730	17.2345	-0.875649	-4.762773E+11	1.548055E-13	NaN
798	1.000000	0.210685	7.37286e+06	-40039.1	1055.82	-29791.5	0.000000	0.000000	6.210816	-0.121609	NaN	0.000000	0.001616	0.001809	28.083	0.101608	0.002070	49.0953	-107.534	-163.722	-0.106659	0.209355	-0.870831	-0.872161	-0.121609	49.0953	-0.868973	-3.868580E+11	3.143517E-13	NaN
798	1.000000	0.218687	7.37286e+06	-40039.1	1055.82	-29791.5	0.000000	0.000000	6.218822	-0.034943	NaN	0.000000	0.001655	0.001824	28.0826	0.085527	0.002000	42.761	-92.1049	-165.222	0.023316	0.217372	-0.862829	-0.864144	-0.034943	42.761	-0.862216	-3.134098E+11	1.114933E-13	NaN
798	1.000000	0.226658	7.37286e+06	-40039.1	1055.82	-29791.5	0.000000	0.000000	6.226790	-0.096751	NaN	0.000000	0.001603	0.001818	28.0829	0.034143	0.002026	16.8488	160.848	-163.257	-0.055165	0.225332	-0.854858	-0.856184	-0.096751	16.8488	-0.850551	-2.178715E+11	4.440739E-13	NaN
798	1.000000	0.234668	7.37286e+06	-40039.1	1055.82	-29791.5	0.000000	0.000000	6.234804	-0.021431	NaN	0.000000	0.001559	0.001792	28.0818	0.071551	0.002014	35.5204	-99.7556	-165.891	-0.016414	0.233464	-0.846847	-0.848052	-0.021431	35.5204	-0.846395	-1.913890E+11	1.119769E-13	NaN
798	1.000000	0.242713	7.37286e+06	-40039.1	1055.82	-29791.5	0.000000	0.000000	6.242847	-0.054284	NaN	0.000000	0.001551	0.001807	28.082	0.125881	0.001994	63.1201	50.6493	-166.253	-0.035264	0.241387	-0.838803	-0.840129	-0.054284	63.1201	-0.838158	-1.480249E+11	3.667248E-13	NaN
798	1.000000	0.250710	7.37286e+06	-40039.1	1055.82	-29791.5	0.000000	0.000000	6.250845	-0.032541	NaN	0.000000	0.001562	0.001813	28.0815	0.085618	0.001935	44.2586	70.2196	-167.5	-0.036892	0.249357	-0.830806	-0.832159	-0.032541	44.2586	-0.830254	-1.156732E+11	2.813173E-13	NaN
798	1.000000	0.258708	7.37286e+06	-40039.1	1055.82	-29791.5	0.000000	0.000000	6.258841	-0.078507	NaN	0.000000	0.001568	0.001774	28.0817	0.078806	0.001928	40.8783	100.3	-165.865	-0.106407	0.257385	-0.822808	-0.824131	-0.078507	40.8783	-0.821368	-8.765117E+10	8.956754E-13	NaN
798	1.000000	0.266691	7.37286e+06	-40039.1	1055.82	-29791.5	0.000000	0.000000	6.266824	-0.076929	NaN	0.000000	0.001567	0.001834	28.0816	0.043805	0.002058	21.287	123.638	-168.223	-0.024749	0.265383	-0.814825	-0.816133	-0.076929	21.287	-0.812114	-6.565319E+10	1.171749E-12	NaN
798	1.000000	0.274731	7.37286e+06	-40039.1	1055.82	-29791.5	0.000000	0.000000	6.274864	-0.074896	NaN	0.000000	0.001550	0.001782	28.0816	0.078097	0.002042	38.2365	21.2088	-165.47	-0.041504	0.273431	-0.806785	-0.808085	-0.074896	38.2365	-0.805316	-5.309003E+10	1.410737E-12	NaN
798	1.000000	0.282707	7.37286e+06	-40039.1	1055.82	-29791.5	0.000000	0.000000	6.282839	-0.090488	NaN	0.000000	0.001517	0.001761	28.0818	0.095570	0.002111	45.2727	-93.0062	-165.579	-0.078556	0.281417	-0.798809	-0.800099	-0.090488	45.2727	-0.797310	-4.133754E+10	2.189004E-12	NaN
798	1.000000	0.290711	7.37286e+06	-40039.1	1055.82	-29791.5	0.000000	0.000000	6.290845	-0.051446	NaN	0.000000	0.001519	0.001798	28.0813	0.060404	0.001987	30.4057	23.8796	-167.067	-0.092528	0.289394	-0.790805	-0.792122	-0.051446	30.4057	-0.789536	-3.241775E+10	1.586972E-12	NaN
798	1.000000	0.298731	7.37286e+06	-40039.1	1055.82	-29791.5	0.000000	0.000000	6.298863	-0.106229	NaN	0.000000	0.001517	0.001788	28.0816	0.027946	0.002120	13.1793	58.6397	-169.233	-0.109100	0.297430	-0.782785	-0.784085	-0.106229	13.1793	-0.776740	-2.172317E+10	4.890109E-12	NaN
798	1.000000	0.306725	7.37286e+06	-40039.1	1055.82	-29791.5	0.000000	0.000000	6.306860	-0.024074	NaN	0.000000	0.001481	0.001791	28.0821	0.081549	0.002072	39.3576	46.4634	-165.878	-0.007342	0.305382	-0.774791	-0.776134	-0.024074	39.3576	-0.774332	-2.014664E+10	1.194947E-12	NaN
798	1.000000	0.314723	7.37286e+06	-40039.1	1055.82	-29791.5	0.000000	0.000000	6.314859	-0.012997	NaN	0.000000	0.001492	0.001843	28.0814	0.094881	0.001995	47.5656	-61.4241	-164.819	-0.030541	0.313417	-0.766793	-0.768098	-0.012997	47.5656	-0.766588	-1.580914E+10	8.221115E-13	NaN
798	1.000000	0.322721	7.37286e+06	-40039.1	1055.82	-29791.5	0.000000	0.000000	6.322856	-0.038937	NaN	0.000000	0.001481	0.001826	28.0816	0.069252	0.001966	35.2217	92.1014	-166.947	-0.090545	0.321456	-0.758795	-0.760060	-0.038937	35.2217	-0.757966	-1.206768E+10	3.226514E-12	NaN
798	1.000000	0.330723	7.37286e+06	-40039.1	1055.82	-29791.5	0.000000	0.000000	6.330855	-0.088872	NaN	0.000000	0.001488	0.001811	28.0815	0.038616	0.001899	20.3382	172.101	-164.765	-0.084784	0.329428	-0.750793	-0.752088	-0.088872	20.3382	-0.747516	-8.697674E+9	1.021787E-11	NaN
798	1.000000	0.338730	7.37286e+06	-40039.1	1055.82	-29791.5	0.000000	0.000000	6.338865	-0.034820	NaN	0.000000	0.001538	0.001792	28.0817	0.090214	0.001917	47.0486	104.287	-166.059	-0.033123	0.337383	-0.742786	-0.744133	-0.034820	47.0486	-0.742231	-7.369551E+9	4.724899E-12	NaN
798	1.000000	0.346747	7.37286e+06	-40039.1	1055.82	-29791.5	0.000000	0.000000	6.346882	-0.033841	NaN	0.000000	0.001529	0.001801	28.0818	0.035197	0.001971	17.8545	62.0693	-165.655	-0.026242	0.345446	-0.734769	-0.736070	-0.033841	17.8545	-0.733347	-5.577314E+9	6.067688E-12	NaN
798	1.000000	0.354732	7.37286e+06	-40039.1	1055.82	-29791.5	0.000000	0.000000	6.354867	-0.034299	NaN	0.000000	0.001499	0.001794	28.0817	0.082419	0.001986	41.5026	7.868239	-166.22	-0.035779	0.353412	-0.726784	-0.728104	-0.034299	41.5026	-0.726164	-4.451639E+9	7.704825E-12	NaN
798	1.000000	0.362757	7.37286e+06	-40039.1	1055.82	-29791.5	0.000000	0.000000	6.362891	-0.055219	NaN	0.000000	0.001485	0.001807	28.0816	0.047262	0.001947	24.2766	35.1943	-165.81	-0.153685	0.361448	-0.718758	-0.720067	-0.055219	24.2766	-0.717053	-3.344044E+9	1.651278E-11	NaN
798	1.000000	0.370755	7.37286e+06	-40039.1	1055.82	-29791.5	0.000000	0.000000	6.370890	-0.021902	NaN	0.000000	0.001479	0.001819	28.0826	0.061888	0.002000	30.9465	21.6707	-162.147	-0.050737	0.369454	-0.710761	-0.712062	-0.021902	30.9465	-0.710230	-2.698913E+9	8.115169E-12	NaN
798	1.000000	0.378755	7.37286e+06	-40039.1	1055.82	-29791.5	0.000000	0.000000	6.378889	-0.056960	NaN	0.000000	0.001494	0.001831	28.083	0.032356	0.002031	15.9324	48.5067	-167.066	-0.036016	0.377489	-0.702761	-0.704027	-0.056960	15.9324	-0.700080	-1.961643E+9	2.903682E-11	NaN
798	1.000000	0.386764	7.37286e+06	-40039.1	1055.82	-29791.5	0.000000	0.000000	6.386897	-0.091050	NaN	0.000000	0.001530	0.001821	28.0828	0.074352	0.001988	37.3984	-14.7888	-169.028	-0.102529	0.385469	-0.694752	-0.696047	-0.091050	37.3984	-0.692926	-1.566377E+9	5.812780E-11	NaN
798	1.000000	0.394776	7.37286e+06	-40039.1	1055.82	-29791.5	0.000000	0.000000	6.394911	-0.030261	NaN	0.000000	0.001577	0.001810	28.083	0.092659	0.002048	45.2435	-116.569	-166.012	-0.018474	0.393507	-0.686740	-0.688009	-0.030261	45.2435	-0.686239	-1.269134E+9	2.384371E-11	NaN
798	1.000000	0.402764	7.37286e+06	-40039.1	1055.82	-29791.5	0.000000	0.000000	6.402897	-0.084353	NaN	0.000000	0.001580	0.001816	28.0829	0.029981	0.002026	14.7949	-158.12	-164.954	-0.021972	0.401463	-0.678752	-0.680053	-0.084353	14.7949	-0.674476	-8.762790E+8	9.626246E-11	NaN
798	1.000000	0.410779	7.37286e+06	-40039.1	1055.82	-29791.5	0.000000	0.000000	6.410913	-0.071328	NaN	0.000000	0.001515	0.001799	28.0831	0.073474	0.002036	36.0811	-40.89	-164.57	-0.087923	0.409432	-0.670737	-0.672084	-0.071328	36.0811	-0.669254	-7.433274E+8	9.595729E-11	NaN
798	1.000000	0.418766	7.37286e+06	-40039.1	1055.82	-29791.5	0.000000	0.000000	6.418899	-0.071920	NaN	0.000000	0.001537	0.001781	28.0831	0.077221	0.002034	37.9715	42.9415	-167.832	-0.067917	0.417528	-0.662750	-0.663987	-0.071920	37.9715	-0.661330	-5.790025E+8	1.242140E-10	NaN
798	1.000000	0.426767	7.37286e+06	-40039.1	1055.82	-29791.5	0.000000	0.000000	6.426898	-0.131294	NaN	0.000000	0.001580	0.001807	28.0831	0.169636	0.001895	89.4989	18.1128	-163.939	-0.159284	0.425476	-0.654749	-0.656040	-0.131294	89.4989	-0.653649	-4.544095E+8	2.889322E-10	NaN
798	1.000000	0.434769	7.37286e+06	-40039.1	1055.82	-29791.5	0.000000	0.000000	6.434904	-0.009989	NaN	0.000000	0.001556	0.001794	28.083	0.038583	0.001873	20.6035	46.1572	-166.888	-0.024700	0.433460	-0.646747	-0.648056	-0.009989	20.6035	-0.646384	-3.612876E+8	2.764943E-11	NaN
798	1.000000	0.442794	7.37286e+06	-40039.1	1055.82	-29791.5	0.000000	0.000000	6.442930	-0.006275	NaN	0.000000	0.001546	0.001812	28.0829	0.056756	0.001985	28.5963	-140.227	-164.873	-0.073931	0.441502	-0.638722	-0.640014	-0.006275	28.5963	-0.638558	-2.821634E+8	2.223952E-11	NaN
798	1.000000	0.450785	7.37286e+06	-40039.1	1055.82	-29791.5	0.000000	0.000000	6.450920	-0.026186	NaN	0.000000	0.001558	0.001784	28.0833	0.072896	0.001943	37.5124	90.0802	-163.269	-0.074279	0.449492	-0.630731	-0.632024	-0.026186	37.5124	-0.630207	-2.167065E+8	1.208352E-10	NaN
798	1.000000	0.458772	7.37286e+06	-40039.1	1055.82	-29791.5	0.000000	0.000000	6.458908	-0.008814	NaN	0.000000	0.001550	0.001786	28.083	0.048840	0.001982	24.6459	57.4927	-166.971	-0.034747	0.457463	-0.622744	-0.624053	-0.008814	24.6459	-0.622476	-1.696901E+8	5.194384E-11	NaN
798	1.000000	0.466786	7.37286e+06	-40039.1	1055.82	-29791.5	0.000000	0.000000	6.466920	-0.067700	NaN	0.000000	0.001566	0.001800	28.083	0.052994	0.001970	26.8955	35.587	-167.715	-0.012190	0.465461	-0.614729	-0.616055	-0.067700	26.8955	-0.612842	-1.250849E+8	5.412315E-10	NaN
798	1.000000	0.474774	7.37286e+06	-40039.1	1055.82	-29791.5	0.000000	0.000000	6.474908	-0.061021	NaN	0.000000	0.001554	0.001789	28.083	0.084564	0.002031	41.6468	141.924	-169.339	-0.147281	0.473476	-0.606742	-0.608040	-0.061021	41.6468	-0.605643	-9.957511E+7	6.128149E-10	NaN
798	1.000000	0.482789	7.37286e+06	-40039.1	1055.82	-29791.5	0.000000	0.000000	6.482925	-0.006766	NaN	0.000000	0.001529	0.001792	28.0828	0.103992	0.001883	55.2241	-68.041	-165.695	-0.035289	0.481523	-0.598727	-0.599993	-0.006766	55.2241	-0.598635	-7.973681E+7	8.485655E-11	NaN
798	1.000000	0.490809	7.37286e+06	-40039.1	1055.82	-29791.5	0.000000	0.000000	6.490946	0.018973	NaN	0.000000	0.001577	0.001817	28.0832	0.043726	0.002121	20.615	107.802	-168.201	-0.012238	0.489506	-0.590707	-0.592010	0.018973	20.615	-0.591397	-6.337577E+7	-2.993669E-10	NaN
798	1.000000	0.498795	7.37286e+06	-40039.1	1055.82	-29791.5	0.000000	0.000000	6.498929	-0.037041	NaN	0.000000	0.001635	0.001796	28.0829	0.053719	0.001965	27.332	-101.468	-167.191	0.048639	0.497492	-0.582721	-0.584024	-0.037041	27.332	-0.581705	-4.658587E+7	7.951193E-10	NaN
798	1.000000	0.506796	7.37286e+06	-40039.1	1055.82	-29791.5	0.000000	0.000000	6.506930	-0.047974	NaN	0.000000	0.001604	0.001792	28.0821	0.044617	0.002074	21.5168	37.8641	-164.924	-0.044936	0.505437	-0.574720	-0.576079	-0.047974	21.5168	-0.573048	-3.537816E+7	1.356034E-9	NaN
798	1.000000	0.514789	7.37286e+06	-40039.1	1055.82	-29791.5	0.000000	0.000000	6.514922	-0.077645	NaN	0.000000	0.001650	0.001796	28.0817	0.028637	0.002089	13.7051	-159.599	-169.764	-0.134944	0.513495	-0.566727	-0.568021	-0.077645	13.7051	-0.562478	-2.527296E+7	3.072267E-9	NaN
798	1.000000	0.522817	7.37286e+06	-40039.1	1055.82	-29791.5	0.000000	0.000000	6.522949	-0.088963	NaN	0.000000	0.001654	0.001782	28.0815	0.072727	0.001884	38.6117	-2.303027	-165.252	-0.027021	0.521519	-0.558699	-0.559997	-0.088963	38.6117	-0.556971	-2.120671E+7	4.195042E-9	NaN
798	1.000000	0.530832	7.37286e+06	-40039.1	1055.82	-29791.5	0.000000	0.000000	6.530969	0.018105	NaN	0.000000	0.001538	0.001834	28.0819	0.018939	0.001996	9.489888	-63.3519	-165.441	0.032236	0.529526	-0.550684	-0.551990	0.018105	9.489888	-0.552114	-1.816512E+7	-9.966868E-10	NaN
798	1.000000	0.538831	7.37286e+06	-40039.1	1055.82	-29791.5	0.000000	0.000000	6.538968	0.001901	NaN	0.000000	0.001605	0.001789	28.0816	0.017407	0.002017	8.630801	39.8606	-165.105	-0.038648	0.537530	-0.542685	-0.543986	0.001901	8.630801	-0.542850	-1.351686E+7	-1.406487E-10	NaN
798	1.000000	0.546823	7.37286e+06	-40039.1	1055.82	-29791.5	0.000000	0.000000	6.546955	-0.082229	NaN	0.000000	0.001579	0.001794	28.0819	0.029178	0.001941	15.0292	-138.432	-165.03	-0.014679	0.545518	-0.534693	-0.535998	-0.082229	15.0292	-0.530590	-9.13624e+06	9.000297E-9	NaN
798	1.000000	0.554835	7.37286e+06	-40039.1	1055.82	-29791.5	0.000000	0.000000	6.554970	-0.029748	NaN	0.000000	0.001557	0.001816	28.0817	0.053572	0.002028	26.4202	-50.508	-165.507	-0.073885	0.553515	-0.526681	-0.528001	-0.029748	26.4202	-0.525836	-7.84754e+06	3.790692E-9	NaN
798	1.000000	0.562866	7.37286e+06	-40039.1	1055.82	-29791.5	0.000000	0.000000	6.563001	-0.035905	NaN	0.000000	0.001586	0.001810	28.0816	0.076337	0.001993	38.3039	170.816	-166.236	-0.013033	0.561501	-0.518650	-0.520015	-0.035905	38.3039	-0.517947	-6.09588e+06	5.890087E-9	NaN
798	1.000000	0.570818	7.37286e+06	-40039.1	1055.82	-29791.5	0.000000	0.000000	6.570951	-0.090264	NaN	0.000000	0.001562	0.001816	28.0819	0.042323	0.001919	22.0571	-35.024	-167.75	-0.090319	0.569505	-0.510698	-0.512011	-0.090264	22.0571	-0.507628	-4.379e+06	2.061288E-8	NaN
798	1.000000	0.578829	7.37286e+06	-40039.1	1055.82	-29791.5	0.000000	0.000000	6.578962	-0.085469	NaN	0.000000	0.001588	0.001808	28.0816	0.090567	0.001823	49.6691	80.9563	-165.11	-0.087148	0.577529	-0.502687	-0.503987	-0.085469	49.6691	-0.501396	-3.58501e+06	2.384073E-8	NaN
798	1.000000	0.586861	7.37286e+06	-40039.1	1055.82	-29791.5	0.000000	0.000000	6.586992	-0.127648	NaN	0.000000	0.001624	0.001829	28.0818	0.126317	0.001980	63.8028	-71.9704	-165.213	-0.124355	0.585573	-0.494655	-0.495943	-0.127648	63.8028	-0.493154	-2.7508e+06	4.640389E-8	NaN
798	1.000000	0.594864	7.37286e+06	-40039.1	1055.82	-29791.5	0.000000	0.000000	6.594998	-0.056805	NaN	0.000000	0.001584	0.001817	28.0819	0.050750	0.002133	23.7931	120.549	-166.547	-0.037491	0.593541	-0.486652	-0.487975	-0.056805	23.7931	-0.484861	-2.10644e+06	2.696740E-8	NaN
798	1.000000	0.602826	7.37286e+06	-40039.1	1055.82	-29791.5	0.000000	0.000000	6.602959	-0.083186	NaN	0.000000	0.001620	0.001822	28.0817	0.110916	0.002002	55.406	-154.529	-164.961	-0.062420	0.601530	-0.478690	-0.479986	-0.083186	55.406	-0.477564	-1.665e+06	4.996152E-8	NaN
798	1.000000	0.610839	7.37286e+06	-40039.1	1055.82	-29791.5	0.000000	0.000000	6.610968	-0.154772	NaN	0.000000	0.001604	0.001847	28.0818	0.028677	0.001945	14.7431	-139.726	-166.375	-0.091974	0.609587	-0.470677	-0.471929	-0.154772	14.7431	-0.462804	-1.03374e+06	1.497214E-7	NaN
798	1.000000	0.618834	7.37286e+06	-40039.1	1055.82	-29791.5	0.000000	0.000000	6.618970	-0.017338	NaN	0.000000	0.001612	0.001763	28.0815	0.078180	0.002137	36.5889	98.853	-164.585	0.026949	0.617628	-0.462681	-0.463888	-0.017338	36.5889	-0.462326	-1.01788e+06	1.703292E-8	NaN
798	1.000000	0.626839	7.37286e+06	-40039.1	1055.82	-29791.5	0.000000	0.000000	6.626972	-0.089673	NaN	0.000000	0.001610	0.001831	28.0817	0.026553	0.002056	12.9168	33.5224	-164.327	-0.016421	0.625565	-0.454677	-0.455951	-0.089673	12.9168	-0.449470	-671246	1.335915E-7	NaN
798	1.000000	0.634876	7.37286e+06	-40039.1	1055.82	-29791.5	0.000000	0.000000	6.635010	-0.056204	NaN	0.000000	0.001611	0.001814	28.0816	0.063532	0.002096	30.3086	-178.305	-163.971	-0.013675	0.633531	-0.446640	-0.447985	-0.056204	30.3086	-0.445249	-585339	9.602018E-8	NaN
798	1.000000	0.642874	7.37286e+06	-40039.1	1055.82	-29791.5	0.000000	0.000000	6.643011	0.022144	NaN	0.000000	0.001632	0.001828	28.0823	0.028746	0.002097	13.7067	-147.823	-168.157	-0.099171	0.641567	-0.438642	-0.439949	0.022144	13.7067	-0.439853	-491240	-4.507692E-8	NaN
798	1.000000	0.650881	7.37286e+06	-40039.1	1055.82	-29791.5	0.000000	0.000000	6.651015	-0.044869	NaN	0.000000	0.001637	0.001829	28.0828	0.053116	0.002020	26.2979	-169.179	-165.204	-0.090379	0.649569	-0.430635	-0.431947	-0.044869	26.2979	-0.429355	-349093	1.285304E-7	NaN
798	1.000000	0.658866	7.37286e+06	-40039.1	1055.82	-29791.5	0.000000	0.000000	6.658999	-0.083854	NaN	0.000000	0.001623	0.001826	28.0827	0.088141	0.002026	43.4962	-174.381	-164.632	-0.027449	0.657547	-0.422650	-0.423969	-0.083854	43.4962	-0.421204	-267600	3.133560E-7	NaN
798	1.000000	0.666848	7.37286e+06	-40039.1	1055.82	-29791.5	0.000000	0.000000	6.666982	-0.054110	NaN	0.000000	0.001639	0.001805	28.0828	0.048833	0.001964	24.8588	-14.735	-170.131	-0.094063	0.665576	-0.414668	-0.415940	-0.054110	24.8588	-0.413035	-204901	2.640801E-7	NaN
798	1.000000	0.674891	7.37286e+06	-40039.1	1055.82	-29791.5	0.000000	0.000000	6.675026	-0.043594	NaN	0.000000	0.001634	0.001787	28.0828	0.141251	0.001860	75.9567	132.139	-168.433	0.027060	0.673569	-0.406625	-0.407947	-0.043594	75.9567	-0.406194	-163777	2.661764E-7	NaN
798	1.000000	0.682880	7.37286e+06	-40039.1	1055.82	-29791.5	0.000000	0.000000	6.683017	0.018294	NaN	0.000000	0.001633	0.001849	28.0827	0.016701	0.002037	8.197876	-99.9182	-168.977	-0.015330	0.681620	-0.398636	-0.399896	0.018294	8.197876	-0.400310	-135023	-1.354861E-7	NaN
798	1.000000	0.690869	7.37286e+06	-40039.1	1055.82	-29791.5	0.000000	0.000000	6.691004	-0.023891	NaN	0.000000	0.001651	0.001852	28.0827	0.050682	0.001904	26.6121	-87.9204	-165.079	-0.033370	0.689573	-0.390647	-0.391943	-0.023891	26.6121	-0.389974	-96116.1	2.485612E-7	NaN
798	1.000000	0.698905	7.37286e+06	-40039.1	1055.82	-29791.5	0.000000	0.000000	6.699039	-0.061629	NaN	0.000000	0.001620	0.001846	28.083	0.070961	0.001888	37.5816	-159.086	-165.119	-0.123295	0.697555	-0.382611	-0.383961	-0.061629	37.5816	-0.381381	-72393.3	8.513054E-7	NaN
798	1.000000	0.706895	7.37286e+06	-40039.1	1055.82	-29791.5	0.000000	0.000000	6.707028	-0.070353	NaN	0.000000	0.001650	0.001849	28.083	0.033868	0.001955	17.3244	22.3067	-164.09	-0.050464	0.705565	-0.374621	-0.375951	-0.070353	17.3244	-0.371575	-52337	1.344235E-6	NaN
798	1.000000	0.714924	7.37286e+06	-40039.1	1055.82	-29791.5	0.000000	0.000000	6.715059	-0.033638	NaN	0.000000	0.001666	0.001812	28.0827	0.139989	0.002084	67.1618	85.4788	-165.219	-0.090269	0.713603	-0.366591	-0.367913	-0.033638	67.1618	-0.366216	-43811.9	7.677766E-7	NaN
798	1.000000	0.722911	7.37286e+06	-40039.1	1055.82	-29791.5	0.000000	0.000000	6.723043	-0.125906	NaN	0.000000	0.001658	0.001817	28.0826	0.061220	0.002033	30.1087	-19.9785	-168.572	-0.038683	0.721586	-0.358604	-0.359930	-0.125906	30.1087	-0.355468	-30639.2	4.109306E-6	NaN
798	1.000000	0.730900	7.37286e+06	-40039.1	1055.82	-29791.5	0.000000	0.000000	6.731032	-0.123499	NaN	0.000000	0.001637	0.001817	28.0827	0.051704	0.001947	26.5622	6.137260	-162.804	-0.163837	0.729601	-0.350616	-0.351915	-0.123499	26.5622	-0.347128	-23190	5.325549E-6	NaN
798	1.000000	0.738898	7.37286e+06	-40039.1	1055.82	-29791.5	0.000000	0.000000	6.739030	-0.092032	NaN	0.000000	0.001645	0.001831	28.0829	0.094638	0.002030	46.6191	-119.787	-163.818	-0.041188	0.737614	-0.342618	-0.343902	-0.092032	46.6191	-0.341138	-18972.8	4.850747E-6	NaN
798	1.000000	0.746896	7.37286e+06	-40039.1	1055.82	-29791.5	0.000000	0.000000	6.747032	-0.018002	NaN	0.000000	0.001648	0.001855	28.0828	0.052419	0.001958	26.7785	125.59	-167.593	-0.069138	0.745564	-0.334620	-0.335952	-0.018002	26.7785	-0.334116	-14985.3	1.201290E-6	NaN
798	1.000000	0.754898	7.37286e+06	-40039.1	1055.82	-29791.5	0.000000	0.000000	6.755031	-0.056966	NaN	0.000000	0.001639	0.001784	28.0828	0.047165	0.002024	23.3076	68.268	-166.314	-0.107869	0.753618	-0.326618	-0.327898	-0.056966	23.3076	-0.324785	-10939.2	5.207557E-6	NaN
798	1.000000	0.762911	7.37286e+06	-40039.1	1055.82	-29791.5	0.000000	0.000000	6.763045	-0.048775	NaN	0.000000	0.001702	0.001798	28.0828	0.087462	0.001926	45.409	-72.6876	-164.228	-0.039816	0.761571	-0.318605	-0.319945	-0.048775	45.409	-0.317799	-8634.27	5.649014E-6	NaN
798	1.000000	0.770926	7.37286e+06	-40039.1	1055.82	-29791.5	0.000000	0.000000	6.771059	-0.071492	NaN	0.000000	0.001657	0.001836	28.0829	0.083831	0.001981	42.3069	-175.645	-165.317	0.016651	0.769569	-0.310590	-0.311947	-0.071492	42.3069	-0.309323	-6471.95	1.104648E-5	NaN
798	1.000000	0.778911	7.37286e+06	-40039.1	1055.82	-29791.5	0.000000	0.000000	6.779046	-0.035236	NaN	0.000000	0.001652	0.001859	28.0828	0.056706	0.002054	27.6073	-81.3941	-166.15	-0.035283	0.777575	-0.302605	-0.303941	-0.035236	27.6073	-0.301647	-4979.07	7.076897E-6	NaN
798	1.000000	0.786928	7.37286e+06	-40039.1	1055.82	-29791.5	0.000000	0.000000	6.787060	-0.099273	NaN	0.000000	0.001653	0.001832	28.0818	0.054266	0.002004	27.0755	-71.5404	-166.573	-0.157510	0.785603	-0.294588	-0.295913	-0.099273	27.0755	-0.291838	-3554.87	2.792603E-5	NaN
798	1.000000	0.794945	7.37286e+06	-40039.1	1055.82	-29791.5	0.000000	0.000000	6.795077	-0.113080	NaN	0.000000	0.001606	0.001853	28.0827	0.019835	0.001997	9.929884	-96.9534	-165.636	-0.184805	0.793614	-0.286571	-0.287902	-0.113080	9.929884	-0.278030	-2204.07	5.130488E-5	NaN
798	1.000000	0.802939	7.37286e+06	-40039.1	1055.82	-29791.5	0.000000	0.000000	6.803071	-0.106132	NaN	0.000000	0.001581	0.001830	28.082	0.084558	0.002011	42.0406	-10.8549	-167.026	-0.163721	0.801664	-0.278576	-0.279852	-0.106132	42.0406	-0.276683	-2103.15	5.046362E-5	NaN
798	1.000000	0.810925	7.37286e+06	-40039.1	1055.82	-29791.5	0.000000	0.000000	6.811057	-0.098348	NaN	0.000000	0.001621	0.001859	28.082	0.090933	0.002020	45.0237	-53.5525	-167.862	-0.134292	0.809608	-0.270591	-0.271908	-0.098348	45.0237	-0.268953	-1605.53	6.125605E-5	NaN
798	1.000000	0.818898	7.37286e+06	-40039.1	1055.82	-29791.5	0.000000	0.000000	6.819032	-0.059521	NaN	0.000000	0.001623	0.001815	28.0823	0.061029	0.002064	29.5623	58.0593	-166.96	-0.025679	0.817645	-0.262617	-0.263871	-0.059521	29.5623	-0.261107	-1218.66	4.884092E-5	NaN
798	1.000000	0.826901	7.37286e+06	-40039.1	1055.82	-29791.5	0.000000	0.000000	6.827037	-0.023386	NaN	0.000000	0.001654	0.001825	28.0818	0.165385	0.001970	83.9492	98.7437	-167.23	-0.019507	0.825656	-0.254614	-0.255860	-0.023386	83.9492	-0.254406	-961.528	2.432158E-5	NaN
798	1.000000	0.834937	7.37286e+06	-40039.1	1055.82	-29791.5	0.000000	0.000000	6.835070	-0.075426	NaN	0.000000	0.001622	0.001821	28.0819	0.116282	0.001930	60.2378	-54.3099	-165.953	-0.060523	0.833641	-0.246579	-0.247875	-0.075426	60.2378	-0.245640	-703.711	0.000107	NaN
798	1.000000	0.842945	7.37286e+06	-40039.1	1055.82	-29791.5	0.000000	0.000000	6.843080	-0.022243	NaN	0.000000	0.001608	0.001796	28.0821	0.060541	0.002051	29.5165	175.555	-164.916	-0.060513	0.841627	-0.238571	-0.239889	-0.022243	29.5165	-0.238006	-535.018	4.157407E-5	NaN
798	1.000000	0.850957	7.37286e+06	-40039.1	1055.82	-29791.5	0.000000	0.000000	6.851090	-0.064755	NaN	0.000000	0.001620	0.001807	28.0819	0.023052	0.001957	11.7774	111.648	-162.557	-0.052492	0.849613	-0.230559	-0.231903	-0.064755	11.7774	-0.226435	-351.654	0.000184	NaN
798	1.000000	0.858979	7.37286e+06	-40039.1	1055.82	-29791.5	0.000000	0.000000	6.859116	0.016765	NaN	0.000000	0.001648	0.001783	28.082	0.037700	0.002115	17.8252	55.0217	-167.685	-0.059741	0.857641	-0.222536	-0.223875	0.016765	17.8252	-0.223242	-312.882	-5.358111E-5	NaN
798	1.000000	0.866943	7.37286e+06	-40039.1	1055.82	-29791.5	0.000000	0.000000	6.867078	-0.039169	NaN	0.000000	0.001626	0.001808	28.0819	0.075074	0.002055	36.5239	140.342	-168.152	-0.084189	0.865613	-0.214573	-0.215903	-0.039169	36.5239	-0.213769	-220.643	0.000178	NaN
798	1.000000	0.874961	7.37286e+06	-40039.1	1055.82	-29791.5	0.000000	0.000000	6.875093	-0.081681	NaN	0.000000	0.001546	0.001792	28.082	0.046477	0.001938	23.9864	-104.183	-166.89	-0.153377	0.873636	-0.206555	-0.207880	-0.081681	23.9864	-0.204001	-153.2	0.000533	NaN
798	1.000000	0.882949	7.37286e+06	-40039.1	1055.82	-29791.5	0.000000	0.000000	6.883080	-0.115773	NaN	0.000000	0.001506	0.001783	28.0818	0.039793	0.002004	19.8593	177.882	-166.553	-0.049153	0.881671	-0.198567	-0.199845	-0.115773	19.8593	-0.194195	-105.647	0.001096	NaN
798	1.000000	0.890987	7.37286e+06	-40039.1	1055.82	-29791.5	0.000000	0.000000	6.891123	-0.020278	NaN	0.000000	0.001559	0.001776	28.0817	0.123368	0.002085	59.1571	81.0935	-166.985	-0.034892	0.889667	-0.190529	-0.191849	-0.020278	59.1571	-0.190271	-90.8995	0.000223	NaN
798	1.000000	0.898983	7.37286e+06	-40039.1	1055.82	-29791.6	0.000000	0.000000	6.899119	0.001970	NaN	0.000000	0.001539	0.001787	28.0819	0.075692	0.002054	36.8439	133.368	-162.188	-0.101003	0.897701	-0.182533	-0.183815	0.001970	36.8439	-0.182573	-67.4749	-2.919019E-5	NaN
798	1.000000	0.906995	7.37286e+06	-40039.1	1055.82	-29791.5	0.000000	0.000000	6.907128	-0.078411	NaN	0.000000	0.001553	0.001771	28.0818	0.120114	0.001913	62.7771	86.415	-168.829	-0.091502	0.905673	-0.174521	-0.175843	-0.078411	62.7771	-0.173584	-47.3827	0.001655	NaN
798	1.000000	0.914969	7.37286e+06	-40039.1	1055.82	-29791.6	0.000000	0.000000	6.915104	-0.025618	NaN	0.000000	0.001552	0.001814	28.0821	0.121343	0.002075	58.4748	-36.3176	-163.536	0.013912	0.913668	-0.166547	-0.167848	-0.025618	58.4748	-0.166218	-35.2917	0.000726	NaN
798	1.000000	0.923013	7.37286e+06	-40039.1	1055.82	-29791.6	0.000000	0.000000	6.923146	-0.058856	NaN	0.000000	0.001541	0.001765	28.0831	0.052827	0.002010	26.2857	-85.8248	-166.898	-0.082323	0.921646	-0.158503	-0.159870	-0.058856	26.2857	-0.156824	-24.0618	0.002446	NaN
798	1.000000	0.930963	7.37286e+06	-40039.1	1055.82	-29791.6	0.000000	0.000000	6.931095	-0.101304	NaN	0.000000	0.001555	0.001802	28.0831	0.051780	0.001858	27.8615	134.7	-164.622	-0.059537	0.929688	-0.150553	-0.151828	-0.101304	27.8615	-0.147826	-16.5288	0.006129	NaN
798	1.000000	0.938967	7.37286e+06	-40039.1	1055.82	-29791.6	0.000000	0.000000	6.939104	0.022847	NaN	0.000000	0.001565	0.001767	28.0831	0.074202	0.002053	36.1379	78.0306	-168.437	-0.002381	0.937648	-0.142549	-0.143868	0.022847	36.1379	-0.143023	-13.4738	-0.001696	NaN
798	1.000000	0.946972	7.37287e+06	-40039.1	1055.82	-29791.6	0.000000	0.000000	6.947106	-0.063212	NaN	0.000000	0.001567	0.001796	28.0829	0.023463	0.002037	11.5161	175.29	-165.496	-0.014891	0.945697	-0.134544	-0.135819	-0.063212	11.5161	-0.130427	-7.767742	0.008138	NaN
798	1.000000	0.954984	7.37287e+06	-40039.1	1055.82	-29791.6	0.000000	0.000000	6.955117	-0.066120	NaN	0.000000	0.001541	0.001817	28.083	0.111764	0.002125	52.5847	24.6647	-169.561	-0.164662	0.953725	-0.126532	-0.127791	-0.066120	52.5847	-0.125589	-6.246521	0.010585	NaN
798	1.000000	0.962975	7.37287e+06	-40039.1	1055.82	-29791.6	0.000000	0.000000	6.963110	-0.028126	NaN	0.000000	0.001510	0.001797	28.0832	0.037157	0.002010	18.4873	-150.919	-165.725	-0.118187	0.961625	-0.118541	-0.119891	-0.028126	18.4873	-0.117400	-4.278748	0.006574	NaN
798	1.000000	0.970994	7.37287e+06	-40039.1	1055.82	-29791.6	0.000000	0.000000	6.971129	-0.025206	NaN	0.000000	0.001582	0.001773	28.0831	0.174367	0.001986	87.7873	171.999	-164.651	-0.041644	0.969656	-0.110522	-0.111859	-0.025206	87.7873	-0.110307	-3.050223	0.008264	NaN
798	1.000000	0.979002	7.37287e+06	-40039.1	1055.82	-29791.6	0.000000	0.000000	6.979137	-0.044276	NaN	0.000000	0.001543	0.001784	28.0831	0.072647	0.001860	39.0558	-39.6833	-163.794	0.031912	0.977711	-0.102514	-0.103805	-0.044276	39.0558	-0.101664	-1.988324	0.022268	NaN
798	1.000000	0.987011	7.37287e+06	-40039.1	1055.82	-29791.6	0.000000	0.000000	6.987146	-0.025238	NaN	0.000000	0.001518	0.001776	28.0832	0.023982	0.001966	12.1956	-12.58	-162.78	0.013093	0.985663	-0.094505	-0.095853	-0.025238	12.1956	-0.092953	-1.266179	0.019933	NaN
798	1.000000	0.995010	7.37287e+06	-40039.1	1055.82	-29791.6	0.000000	0.000000	6.995143	-0.064099	NaN	0.000000	0.001598	0.001755	28.0832	0.027190	0.002043	13.311	-159.167	-169.33	-0.058659	0.993708	-0.086506	-0.087808	-0.064099	13.311	-0.082895	-0.730096	0.087796	NaN
798	1.000000	1.003024	7.37287e+06	-40039.1	1055.82	-29791.6	0.000000	0.000000	7.003157	-0.063811	NaN	0.000000	0.001595	0.001761	28.083	0.064951	0.001966	33.0376	-168.067	-166.9	-0.107201	1.001686	-0.078492	-0.079830	-0.063811	33.0376	-0.077044	-0.521218	0.122427	NaN
798	1.000000	1.010997	7.37287e+06	-40039.1	1055.82	-29791.6	0.000000	0.000000	7.011130	-0.075765	NaN	0.000000	0.001561	0.001784	28.0833	0.058253	0.001952	29.8437	-73.465	-165.578	-0.081617	1.009717	-0.070519	-0.071799	-0.075765	29.8437	-0.068615	-0.313052	0.242019	NaN
798	1.000000	1.019033	7.37287e+06	-40039.1	1055.82	-29791.6	0.000000	0.000000	7.019168	-0.026517	NaN	0.000000	0.001535	0.001781	28.0829	0.038923	0.001912	20.356	-47.9453	-166.915	-0.052512	1.017693	-0.062483	-0.063823	-0.026517	20.356	-0.061506	-0.198829	0.133367	NaN
798	1.000000	1.026961	7.37287e+06	-40039.1	1055.82	-29791.6	0.000000	0.000000	7.027098	0.004021	NaN	0.000000	0.001565	0.001778	28.0831	0.127983	0.001922	66.5709	-155.155	-165.402	-0.005461	1.025776	-0.054554	-0.055740	0.004021	66.5709	-0.054600	-0.125314	-0.032085	NaN
798	1.000000	1.034999	7.37287e+06	-40039.1	1055.82	-29791.6	0.000000	0.000000	7.035132	-0.063805	NaN	0.000000	0.001560	0.001765	28.0831	0.149862	0.001925	77.8327	55.2627	-169.765	-0.019627	1.033747	-0.046517	-0.047769	-0.063805	77.8327	-0.045902	-0.068482	0.931702	NaN
798	1.000000	1.043051	7.37287e+06	-40039.1	1055.82	-29791.6	0.000000	0.000000	7.043185	-0.056354	NaN	0.000000	0.001542	0.001792	28.083	0.124852	0.001944	64.2323	71.8853	-168.239	-0.126251	1.041778	-0.038464	-0.039738	-0.056354	64.2323	-0.037806	-0.038819	1.451722	NaN
798	1.000000	1.051032	7.37287e+06	-40039.1	1055.82	-29791.6	0.000000	0.000000	7.051167	-0.013196	NaN	0.000000	0.001567	0.001783	28.0828	0.016286	0.002070	7.866502	-166.167	-168.635	-0.059896	1.049679	-0.030484	-0.031837	-0.013196	7.866502	-0.029226	-0.021903	0.602449	NaN
798	1.000000	1.059045	7.37287e+06	-40039.1	1055.82	-29791.6	0.000000	0.000000	7.059179	-0.032537	NaN	0.000000	0.001574	0.001770	28.0817	0.085680	0.002032	42.1719	67.8507	-166.593	-0.058328	1.057731	-0.022471	-0.023785	-0.032537	42.1719	-0.021893	-0.014033	2.318674	NaN
798	1.000000	1.067056	7.37287e+06	-40039.1	1055.82	-29791.6	0.000000	0.000000	7.067190	-0.046406	NaN	0.000000	0.001631	0.001767	28.0818	0.061195	0.001991	30.7431	-58.9833	-167.477	-0.096519	1.065725	-0.014460	-0.015791	-0.046406	30.7431	-0.013328	-0.008292	5.596441	NaN
798	1.000000	1.075011	7.37287e+06	-40039.1	1055.82	-29791.6	0.000000	0.000000	7.075147	-0.012929	NaN	0.000000	0.001624	0.001806	28.0814	0.210215	0.002042	102.937	38.0932	-163.891	0.001089	1.073716	-0.006505	-0.007800	-0.012929	102.937	-0.006411	-0.004286	3.016504	NaN
798	1.000000	1.083027	7.37287e+06	-40039.1	1055.82	-29791.6	0.000000	0.000000	7.083383	5.350434	NaN	0.000000	0.001623	0.001793	28.0816	5.457082	0.001785	3057.45	14.5192	-172.116	4.466538	1.081668	0.001511	0.000152	5.350434	3057.45	0.000199	0.000149	35870.3	228721
798	2.000000	1.087652	7.37287e+06	-40039.1	1055.82	-29791.6	0.000000	0.000000	7.088176	9.439408	NaN	0.000000	0.001563	0.001822	28.0817	9.649994	0.001596	6046.09	8.190947	-174.916	8.815431	1.087351	0.006136	0.005835	9.439408	6046.09	0.004965	0.004101	2301.51	86254.6
798	2.000000	1.089609	7.37287e+06	-40039.1	1055.82	-29791.6	0.000000	0.000000	7.090201	11.0956	NaN	0.000000	0.001565	0.001773	28.0817	11.691	0.001641	7122.38	6.700762	-175.239	10.8032	1.089295	0.008093	0.007779	11.0956	7122.38	0.006925	0.005960	1861.82	84293.3
798	2.000000	1.091598	7.37287e+06	-40039.1	1055.82	-29791.6	0.000000	0.000000	7.092405	16.3095	NaN	0.000000	0.001548	0.001781	28.0817	14.383	0.001680	8560.78	5.299790	-173.442	15.5407	1.091249	0.010082	0.009733	16.3095	8560.78	0.008653	0.007723	2111.81	89000.7
798	2.000000	1.093611	7.37287e+06	-40039.1	1055.82	-29791.6	0.000000	0.000000	7.094451	17.1415	NaN	0.000000	0.001588	0.001779	28.0817	16.5967	0.001794	9251.62	10.3238	-178.414	19.1632	1.093260	0.012095	0.011744	17.1415	9251.62	0.010705	0.009976	1718.34	84629.4
798	2.000000	1.095553	7.37287e+06	-40039.1	1055.82	-29791.6	0.000000	0.000000	7.096606	22.3119	NaN	0.000000	0.001560	0.001785	28.0817	18.9376	0.001806	10484.8	7.753570	-177.312	23.0025	1.095291	0.014037	0.013776	22.3119	10484.8	0.012441	0.012022	1855.88	87365.7
798	2.000000	1.097542	7.37287e+06	-40039.1	1055.82	-29791.6	0.000000	0.000000	7.098836	28.1752	NaN	0.000000	0.001549	0.001833	28.0821	20.5888	0.001663	12382.2	7.810579	179.858	27.777	1.097243	0.016026	0.015727	28.1752	12382.2	0.014319	0.014389	1958.15	94310.5
798	2.000000	1.099503	7.37287e+06	-40039.1	1055.82	-29791.6	0.000000	0.000000	7.100870	29.9596	NaN	0.000000	0.001538	0.001825	28.0817	23.9075	0.001764	13551.7	6.698237	-179.823	28.1828	1.099301	0.017987	0.017786	29.9596	13551.7	0.016329	0.017098	1752.18	94686.4
798	2.000000	1.101505	7.37287e+06	-40039.1	1055.82	-29791.6	0.000000	0.000000	7.103214	38.2789	NaN	0.000000	0.001554	0.001803	28.0816	25.622	0.001700	15070.8	4.226993	-178.337	34.9134	1.101184	0.019989	0.019668	38.2789	15070.8	0.018084	0.019620	1951	98300.7
798	2.000000	1.103516	7.37287e+06	-40039.1	1055.82	-29791.6	0.000000	0.000000	7.105385	42.1696	NaN	0.000000	0.001592	0.001799	28.0817	28.0921	0.001809	15528.7	5.037359	-179.88	40.5957	1.103210	0.022000	0.021694	42.1696	15528.7	0.019964	0.022485	1875.44	94614.8
798	2.000000	1.105545	7.37287e+06	-40039.1	1055.82	-29791.6	0.000000	0.000000	7.107576	46.0951	NaN	0.000000	0.001638	0.001829	28.0816	30.8798	0.001898	16273.4	6.162324	178.631	45	1.105311	0.024029	0.023795	46.0951	16273.4	0.021905	0.025624	1798.9	92880.8
798	2.000000	1.107540	7.37287e+06	-40039.1	1055.82	-29791.6	0.000000	0.000000	7.109885	53.7627	NaN	0.000000	0.001546	0.001771	28.082	31.6788	0.001697	18665.7	6.422775	178.211	53.5934	1.107174	0.026024	0.025658	53.7627	18665.7	0.023863	0.028980	1855.15	100177
798	2.000000	1.109574	7.37287e+06	-40039.1	1055.82	-29791.6	0.000000	0.000000	7.112063	57.2485	NaN	0.000000	0.001553	0.001784	28.0817	32.911	0.001581	20820.2	3.792767	-179.789	59.8047	1.109240	0.028059	0.027724	57.2485	20820.2	0.025996	0.032853	1742.56	104947
798	2.000000	1.111485	7.37287e+06	-40039.1	1055.82	-29791.6	0.000000	0.000000	7.114399	67.5912	NaN	0.000000	0.001565	0.001796	28.0814	36.6304	0.001811	20225.3	4.755460	177.925	63.769	1.111272	0.029969	0.029756	67.5912	20225.3	0.027463	0.035649	1896.03	97869
798	2.000000	1.113477	7.37287e+06	-40039.1	1055.82	-29791.6	0.000000	0.000000	7.116661	74.1604	NaN	0.000000	0.001581	0.001826	28.083	38.6059	0.001868	20664.7	6.941006	176.52	71.3292	1.113131	0.031961	0.031615	74.1604	20664.7	0.029269	0.039243	1889.77	95306.2
798	2.000000	1.115547	7.37287e+06	-40039.1	1055.82	-29791.6	0.000000	0.000000	7.118863	77.3659	NaN	0.000000	0.001591	0.001883	28.0828	40.7702	0.001727	23606.7	5.231687	175.783	78.3805	1.115252	0.034032	0.033736	77.3659	23606.7	0.031574	0.044068	1755.58	102741
798	2.000000	1.117487	7.37287e+06	-40039.1	1055.82	-29791.6	0.000000	0.000000	7.121312	89.7771	NaN	0.000000	0.001576	0.001858	28.0835	42.0544	0.001768	23785.3	5.592170	176.536	88.6474	1.117162	0.035971	0.035646	89.7771	23785.3	0.033140	0.047503	1889.91	99705.5
798	2.000000	1.119579	7.37287e+06	-40039.1	1055.82	-29791.6	0.000000	0.000000	7.123659	95.9579	NaN	0.000000	0.001601	0.001823	28.083	43.7463	0.001682	26006.1	4.258506	176.232	98.2891	1.119196	0.038063	0.037680	95.9579	26006.1	0.035296	0.052437	1829.97	103760
798	2.000000	1.121538	7.37287e+06	-40039.1	1055.82	-29791.6	0.000000	0.000000	7.126076	107.129	NaN	0.000000	0.001628	0.001818	28.0826	45.9078	0.001730	26537.7	5.673043	176.888	106.197	1.121143	0.040022	0.039627	107.129	26537.7	0.036994	0.056491	1896.41	102011
798	2.000000	1.123521	7.37287e+06	-40039.1	1055.82	-29791.6	0.000000	0.000000	7.128312	113.275	NaN	0.000000	0.001612	0.001808	28.0829	48.0517	0.001873	25649.1	5.574019	175.753	112.859	1.123232	0.042005	0.041716	113.275	25649.1	0.038692	0.060693	1866.37	95121
798	2.000000	1.125503	7.37287e+06	-40039.1	1055.82	-29791.6	0.000000	0.000000	7.130707	123.321	NaN	0.000000	0.001568	0.001804	28.083	50.472	0.001954	25834.9	6.099341	175.226	122.174	1.125207	0.043987	0.043691	123.321	25834.9	0.040407	0.065085	1894.79	92521.2
798	2.000000	1.127470	7.37287e+06	-40039.1	1055.82	-29791.6	0.000000	0.000000	7.133202	136.149	NaN	0.000000	0.001613	0.001790	28.0837	50.2591	0.001708	29434.2	2.475627	176.847	134.342	1.127164	0.045954	0.045648	136.149	29434.2	0.042485	0.070609	1928.2	101204
798	2.000000	1.129497	7.37287e+06	-40039.1	1055.82	-29791.6	0.000000	0.000000	7.135488	142.46	NaN	0.000000	0.001583	0.001826	28.0832	52.905	0.001748	30272.1	2.448726	177.335	141.865	1.129230	0.047981	0.047714	142.46	30272.1	0.044452	0.076039	1873.52	100299
798	2.000000	1.131530	7.37287e+06	-40039.1	1055.82	-29791.6	0.000000	0.000000	7.138165	158.165	NaN	0.000000	0.001577	0.001819	28.083	55.0946	0.001719	32058.5	3.599177	175.796	156.725	1.131238	0.050014	0.049722	158.165	32058.5	0.046313	0.081359	1944.03	102686
798	2.000000	1.133485	7.37287e+06	-40039.1	1055.82	-29791.6	0.000000	0.000000	7.140645	170.896	NaN	0.000000	0.001591	0.001782	28.0829	56.0418	0.001727	32447.9	0.183858	-179.659	170.048	1.133115	0.051970	0.051599	170.896	32447.9	0.048019	0.086390	1978.19	100862
798	2.000000	1.135459	7.37287e+06	-40039.1	1055.82	-29791.6	0.000000	0.000000	7.143091	182.392	NaN	0.000000	0.001570	0.001761	28.083	59.5012	0.001746	34076.9	4.797992	174.358	179.406	1.135161	0.053943	0.053645	182.392	34076.9	0.049929	0.092193	1978.36	102538
798	2.000000	1.137454	7.37287e+06	-40039.1	1055.82	-29791.6	0.000000	0.000000	7.145682	196.904	NaN	0.000000	0.001622	0.001810	28.0831	59.9487	0.001661	36083.6	6.177820	172.635	193.905	1.137146	0.055938	0.055630	196.904	36083.6	0.051846	0.098203	2005.07	105201
798	2.000000	1.139476	7.37287e+06	-40039.1	1055.82	-29791.6	0.000000	0.000000	7.148111	206.805	NaN	0.000000	0.001593	0.001785	28.0832	62.6574	0.001732	36179.9	2.510982	176.041	207.765	1.139171	0.057960	0.057655	206.805	36179.9	0.053673	0.104103	1986.55	102449
798	2.000000	1.141474	7.37287e+06	-40039.1	1055.82	-29791.6	0.000000	0.000000	7.150798	223.586	NaN	0.000000	0.001557	0.001777	28.083	65.2858	0.001727	37796	3.079610	175.543	218.853	1.141063	0.059958	0.059547	223.586	37796	0.055521	0.110239	2028.18	104004
798	2.000000	1.143497	7.37287e+06	-40039.1	1055.82	-29791.6	0.000000	0.000000	7.153186	232.449	NaN	0.000000	0.001563	0.001806	28.0832	67.8982	0.001760	38571.1	6.631207	171.206	231.987	1.143136	0.061981	0.061620	232.449	38571.1	0.057461	0.116863	1989.08	103086
798	2.000000	1.145467	7.37287e+06	-40039.1	1055.82	-29791.6	0.000000	0.000000	7.155744	246.786	NaN	0.000000	0.001542	0.001801	28.083	70.7628	0.001799	39324.4	3.089817	174.907	244.642	1.145290	0.063951	0.063775	246.786	39324.4	0.059244	0.123111	2004.59	102397
798	2.000000	1.147477	7.37287e+06	-40039.1	1055.82	-29791.6	0.000000	0.000000	7.158333	260.846	NaN	0.000000	0.001563	0.001865	28.0819	71.8653	0.001838	39098.8	4.550611	173.703	259.925	1.147142	0.065961	0.065626	260.846	39098.8	0.060958	0.129265	2017.91	99356.4
798	2.000000	1.149362	7.37287e+06	-40039.1	1055.82	-29791.6	0.000000	0.000000	7.160660	271.602	NaN	0.000000	0.001596	0.001775	28.0821	75.1871	0.001684	44651.9	4.597242	171.907	265.455	1.149223	0.067846	0.067707	271.602	44651.9	0.063284	0.137849	1970.29	109878
798	2.000000	1.151518	7.37287e+06	-40039.1	1055.82	-29791.6	0.000000	0.000000	7.163660	292.147	NaN	0.000000	0.001562	0.001800	28.0818	78.9672	0.001865	42348.4	8.037534	169.571	292.384	1.151157	0.070002	0.069641	292.147	42348.4	0.064828	0.143688	2033.2	102070
798	2.000000	1.153425	7.37287e+06	-40039.1	1055.82	-29791.6	0.000000	0.000000	7.166053	303.979	NaN	0.000000	0.001603	0.001819	28.082	79.7934	0.001790	44579.7	2.835101	174.289	301.432	1.153150	0.071909	0.071634	303.979	44579.7	0.066795	0.151296	2009.17	104712
798	2.000000	1.155406	7.37287e+06	-40039.1	1055.82	-29791.6	0.000000	0.000000	7.168827	323.284	NaN	0.000000	0.001578	0.001831	28.0816	81.5597	0.001780	45822.9	4.615412	171.724	319.985	1.155157	0.073890	0.073641	323.284	45822.9	0.068598	0.158433	2040.5	105180
798	2.000000	1.157391	7.37287e+06	-40039.1	1055.82	-29791.6	0.000000	0.000000	7.171290	334.915	NaN	0.000000	0.001564	0.001843	28.0817	82.7203	0.001778	46518.6	6.058072	170.452	330.528	1.157095	0.075875	0.075579	334.915	46518.6	0.070475	0.166026	2017.24	104306
798	2.000000	1.159424	7.37287e+06	-40039.1	1055.82	-29791.6	0.000000	0.000000	7.173942	349.977	NaN	0.000000	0.001575	0.001821	28.082	83.8448	0.001825	45950.2	1.012214	175.841	347.85	1.159209	0.077908	0.077694	349.977	45950.2	0.072195	0.173133	2021.44	100895
798	2.000000	1.161498	7.37287e+06	-40039.1	1055.82	-29791.6	0.000000	0.000000	7.176879	370.964	NaN	0.000000	0.001549	0.001837	28.0819	87.1104	0.001846	47187.4	5.058314	172.243	371.389	1.161118	0.079983	0.079602	370.964	47187.4	0.074086	0.181107	2048.31	101305
798	2.000000	1.163457	7.37287e+06	-40039.1	1055.82	-29791.6	0.000000	0.000000	7.179538	388.003	NaN	0.000000	0.001576	0.001815	28.0819	88.9043	0.001811	49097.1	9.014979	167.217	389.292	1.163083	0.081941	0.081567	388.003	49097.1	0.076014	0.189409	2048.49	103069
798	2.000000	1.165438	7.37287e+06	-40039.1	1055.82	-29791.6	0.000000	0.000000	7.182013	400.02	NaN	0.000000	0.001538	0.001810	28.0817	91.6334	0.001734	52841.8	4.939975	170.342	397.638	1.165237	0.083923	0.083721	400.02	52841.8	0.078245	0.199235	2007.78	108160
798	2.000000	1.167456	7.37287e+06	-40039.1	1055.82	-29791.6	0.000000	0.000000	7.184966	422.765	NaN	0.000000	0.001552	0.001834	28.0819	91.8784	0.001700	54057	5.160770	170.611	420.776	1.167175	0.085940	0.085659	422.765	54057	0.080075	0.207467	2037.74	108430
798	2.000000	1.169390	7.37287e+06	-40039.1	1055.82	-29791.6	0.000000	0.000000	7.187820	445.152	NaN	0.000000	0.001579	0.001825	28.0816	94.4086	0.001752	53886.3	2.509142	173.58	442.441	1.169111	0.087874	0.087595	445.152	53886.3	0.081678	0.214811	2072.29	106224
798	2.000000	1.171380	7.37287e+06	-40039.1	1055.82	-29791.6	0.000000	0.000000	7.190653	465.686	NaN	0.000000	0.001540	0.001824	28.082	95.9102	0.001687	56839.5	0.548369	175.562	457.55	1.171042	0.089864	0.089526	465.686	56839.5	0.083719	0.224329	2075.91	109643
798	2.000000	1.173459	7.37287e+06	-40039.1	1055.82	-29791.6	0.000000	0.000000	7.193244	478.14	NaN	0.000000	0.001558	0.001793	28.0819	98.9333	0.001757	56313.4	3.809772	171.92	479.138	1.173119	0.091943	0.091604	478.14	56313.4	0.085575	0.233151	2050.77	106553
798	2.000000	1.175371	7.37287e+06	-40039.1	1055.82	-29791.6	0.000000	0.000000	7.196013	498.996	NaN	0.000000	0.001548	0.001813	28.0819	102.454	0.001805	56772.9	6.233608	169.058	494.283	1.175132	0.093855	0.093617	498.996	56772.9	0.087263	0.241315	2067.82	105590
798	2.000000	1.177469	7.37287e+06	-40039.1	1055.82	-29791.6	0.000000	0.000000	7.199000	520.605	NaN	0.000000	0.001535	0.001845	28.082	103.033	0.001801	57193.3	6.958482	169.008	521.732	1.176961	0.095954	0.095445	520.605	57193.3	0.089127	0.250480	2078.43	104408
798	2.000000	1.179468	7.37287e+06	-40039.1	1055.82	-29791.6	0.000000	0.000000	7.201707	537.842	NaN	0.000000	0.001545	0.001803	28.082	107.113	0.001806	59316.2	7.451122	167.984	538.205	1.179071	0.097952	0.097556	537.842	59316.2	0.091151	0.260618	2063.72	106156
798	2.000000	1.181323	7.37287e+06	-40039.1	1055.82	-29791.6	0.000000	0.000000	7.204562	562.191	NaN	0.000000	0.001562	0.001825	28.0832	108.472	0.001792	60515.4	5.254192	170.066	553.538	1.181011	0.099807	0.099495	562.191	60515.4	0.092839	0.269211	2088.29	106560
798	2.000000	1.183401	7.37287e+06	-40039.1	1055.82	-29791.6	0.000000	0.000000	7.207302	578.301	NaN	0.000000	0.001545	0.001827	28.0832	110.494	0.001796	61524.4	7.951434	167.593	575.826	1.182990	0.101885	0.101474	578.301	61524.4	0.094835	0.279542	2068.75	106316
798	2.000000	1.184882	7.37287e+06	-40039.1	1055.82	-29791.6	0.000000	0.000000	7.209579	597.664	NaN	0.000000	0.001575	0.001825	28.0832	111.224	0.001743	63804.6	2.985464	-7.593166	590.97	1.184439	0.103366	0.102923	597.664	63804.6	0.096341	0.287456	2079.14	108727