File: remote_trans/data/nanoindenter/0828-1/data/Data_2025-08-06,11h17m57s/2025-07-22_16-23-58_1_295.txt
2025-07-22, 16:23:58, 1
Index	Phase	Displacement	Time	Pos X	Pos Y	Pos Z	Rot A	Rot B	Piezo Z	Force A	Force B	Gripper	Voltage A	Voltage B	Temperature	Amplitude force	Amplitude pos	Stiffness	Phase shift	Phase excitation	Force A raw	Displacement raw	HMax	HMax raw	Real Force	Real Stiffness	Contact Depth	Area	Hardness	Reduced Mod.
[#]	[#]	[um]	[s]	[um]	[um]	[um]	[m°]	[m°]	[um]	[uN]	[uN]	[V]	[V]	[V]	[°C]	[uN]	[um]	[N/m]	[°]	[°]	[uN]	[um]	[um]	[um]	[uN]	[N/m]	[um]	[um^2]	[MPa]	[MPa]
295	1.000000	0.002565	7.36795e+06	-53389.1	955.818	-29746.7	0.000000	0.000000	6.002799	-0.043329	NaN	0.000000	0.001675	0.001618	28.08	0.044896	0.000930	48.2736	69.0487	-164.991	0.001871	0.001317	-1.122253	-1.123501	-0.043329	48.2736	-1.121580	-9.764852E+14	4.437192E-17	NaN
295	1.000000	0.012627	7.36795e+06	-53389.1	955.819	-29746.7	0.000000	0.000000	6.012864	0.006810	NaN	0.000000	0.001610	0.001635	28.08	0.082071	0.001170	70.1341	153.811	15.093	0.034233	0.011166	-1.112190	-1.113651	0.006810	70.1341	-1.112263	-7.322422E+14	-9.300260E-18	NaN
295	1.000000	0.022552	7.36795e+06	-53389.1	955.819	-29746.7	0.000000	0.000000	6.022789	0.009627	NaN	0.000000	0.001642	0.001636	28.0797	0.030517	0.001730	17.6349	45.1125	-167.218	0.048621	0.021267	-1.102265	-1.103550	0.009627	17.6349	-1.102675	-5.444700E+14	-1.768081E-17	NaN
295	1.000000	0.032525	7.36795e+06	-53389.1	955.818	-29746.7	0.000000	0.000000	6.032761	-0.011046	NaN	0.000000	0.001667	0.001664	28.0796	0.051392	0.002013	25.5248	-132.704	11.8198	0.015449	0.031203	-1.092293	-1.093614	-0.011046	25.5248	-1.091968	-3.910574E+14	2.824740E-17	NaN
295	1.000000	0.042547	7.36795e+06	-53389.1	955.819	-29746.7	0.000000	0.000000	6.042785	0.035256	NaN	0.000000	0.001640	0.001633	28.0801	0.160829	0.002004	80.2707	-87.8443	-165.468	0.023810	0.041205	-1.082270	-1.083613	0.035256	80.2707	-1.082600	-2.927068E+14	-1.204472E-16	NaN
295	1.000000	0.052517	7.36795e+06	-53389.1	955.819	-29746.7	0.000000	0.000000	6.052752	-0.045732	NaN	0.000000	0.001650	0.001587	28.0795	0.052317	0.001990	26.2852	-115.268	15.9396	0.002941	0.051169	-1.072300	-1.073649	-0.045732	26.2852	-1.070996	-2.044396E+14	2.236968E-16	NaN
295	1.000000	0.062530	7.36795e+06	-53389.1	955.818	-29746.7	0.000000	0.000000	6.062765	-0.047467	NaN	0.000000	0.001620	0.001668	28.0799	0.127003	0.001939	65.4889	-13.3944	-165.251	-0.081042	0.061231	-1.062287	-1.063586	-0.047467	65.4889	-1.061744	-1.535508E+14	3.091292E-16	NaN
295	1.000000	0.072521	7.36795e+06	-53389.1	955.818	-29746.7	0.000000	0.000000	6.072757	-0.017731	NaN	0.000000	0.001663	0.001657	28.0796	0.057659	0.002041	28.2492	179.121	15.0705	-0.044208	0.071121	-1.052297	-1.053697	-0.017731	28.2492	-1.051826	-1.129690E+14	1.569554E-16	NaN
295	1.000000	0.082565	7.36795e+06	-53389.1	955.819	-29746.7	0.000000	0.000000	6.082801	-0.007139	NaN	0.000000	0.001661	0.001661	28.0803	0.045240	0.001895	23.8736	108.499	-161.132	-0.015444	0.081258	-1.042252	-1.043560	-0.007139	23.8736	-1.042028	-8.341407E+13	8.559079E-17	NaN
295	1.000000	0.092538	7.36795e+06	-53389.1	955.819	-29746.7	0.000000	0.000000	6.092772	-0.059311	NaN	0.000000	0.001674	0.001644	28.0798	0.100807	0.001858	54.2544	-18.2527	14.7109	-0.094898	0.091169	-1.032279	-1.033649	-0.059311	54.2544	-1.031459	-6.013251E+13	9.863304E-16	NaN
295	1.000000	0.102508	7.36795e+06	-53389.1	955.818	-29746.7	0.000000	0.000000	6.102744	-0.010566	NaN	0.000000	0.001666	0.001665	28.0813	0.040063	0.001999	20.0402	98.3193	-165.325	-0.005911	0.101226	-1.022310	-1.023592	-0.010566	20.0402	-1.021914	-4.474106E+13	2.361656E-16	NaN
295	1.000000	0.112530	7.36795e+06	-53389.1	955.818	-29746.7	0.000000	0.000000	6.112768	0.051913	NaN	0.000000	0.001706	0.001662	28.0813	0.024008	0.001894	12.6745	1.641788	13.3704	-0.014087	0.111175	-1.012288	-1.013643	0.051913	12.6745	-1.015360	-3.651848E+13	-1.421556E-15	NaN
295	1.000000	0.122567	7.36795e+06	-53389.1	955.819	-29746.7	0.000000	0.000000	6.122802	-0.026495	NaN	0.000000	0.001720	0.001650	28.0817	0.088633	0.002216	39.9956	68.7284	-167.06	0.048571	0.121208	-1.002251	-1.003610	-0.026495	39.9956	-1.001754	-2.395411E+13	1.106071E-15	NaN
295	1.000000	0.132519	7.36795e+06	-53389.1	955.817	-29746.7	0.000000	0.000000	6.132756	0.002970	NaN	0.000000	0.001671	0.001666	28.0809	0.063461	0.002077	30.5472	-79.9235	13.0456	0.116743	0.131181	-0.992298	-0.993637	0.002970	30.5472	-0.992371	-1.790783E+13	-1.658358E-16	NaN
295	1.000000	0.142572	7.36795e+06	-53389.1	955.818	-29746.7	0.000000	0.000000	6.142808	-0.013557	NaN	0.000000	0.001664	0.001641	28.0813	0.079151	0.001936	40.894	-50.9973	-164.141	-0.092255	0.141267	-0.982245	-0.983551	-0.013557	40.894	-0.981997	-1.298102E+13	1.044395E-15	NaN
295	1.000000	0.152565	7.36795e+06	-53389.1	955.819	-29746.7	0.000000	0.000000	6.152802	0.001155	NaN	0.000000	0.001693	0.001659	28.0811	0.038354	0.001926	19.9134	-119.486	15.0673	-0.021517	0.151224	-0.972253	-0.973593	0.001155	19.9134	-0.972296	-9.607402E+12	-1.201706E-16	NaN
295	1.000000	0.162575	7.36795e+06	-53389.1	955.819	-29746.7	0.000000	0.000000	6.162812	-0.003448	NaN	0.000000	0.001688	0.001642	28.0812	0.007196	0.001902	3.782880	158.216	-163.94	0.037209	0.161248	-0.962242	-0.963569	-0.003448	3.782880	-0.961559	-6.884705E+12	5.007787E-16	NaN
295	1.000000	0.172581	7.36795e+06	-53389.1	955.818	-29746.7	0.000000	0.000000	6.172817	-0.035396	NaN	0.000000	0.001651	0.001692	28.0812	0.119376	0.001976	60.4179	-98.5392	15.5611	-0.068663	0.171201	-0.952236	-0.953617	-0.035396	60.4179	-0.951797	-5.084619E+12	6.961380E-15	NaN
295	1.000000	0.182573	7.36795e+06	-53389.1	955.818	-29746.7	0.000000	0.000000	6.182810	0.014582	NaN	0.000000	0.001636	0.001674	28.0813	0.060303	0.001930	31.2398	84.0931	-163.784	0.036236	0.181238	-0.942245	-0.943579	0.014582	31.2398	-0.942595	-3.820708E+12	-3.816451E-15	NaN
295	1.000000	0.192576	7.36795e+06	-53389.1	955.818	-29746.7	0.000000	0.000000	6.192811	-0.024759	NaN	0.000000	0.001684	0.001650	28.0812	0.071126	0.002015	35.2947	155.638	15.8905	-0.090778	0.191187	-0.932242	-0.933630	-0.024759	35.2947	-0.931716	-2.724906E+12	9.086224E-15	NaN
295	1.000000	0.202567	7.36795e+06	-53389.1	955.819	-29746.7	0.000000	0.000000	6.202804	0.021797	NaN	0.000000	0.001655	0.001645	28.081	0.073991	0.001920	38.5464	51.2605	-166.352	0.031384	0.201264	-0.922251	-0.923554	0.021797	38.5464	-0.922675	-2.057403E+12	-1.059425E-14	NaN
295	1.000000	0.212580	7.36795e+06	-53389.1	955.818	-29746.7	0.000000	0.000000	6.212815	-0.034960	NaN	0.000000	0.001651	0.001660	28.081	0.047969	0.002042	23.4968	152.411	14.3622	-0.027634	0.211247	-0.912238	-0.913570	-0.034960	23.4968	-0.911122	-1.436539E+12	2.433631E-14	NaN
295	1.000000	0.222569	7.36795e+06	-53389.1	955.819	-29746.7	0.000000	0.000000	6.222805	-0.006978	NaN	0.000000	0.001662	0.001683	28.081	0.049302	0.001987	24.8162	31.7658	-163.418	0.005717	0.221302	-0.902249	-0.903516	-0.006978	24.8162	-0.902038	-1.082931E+12	6.443517E-15	NaN
295	1.000000	0.232592	7.36795e+06	-53389.1	955.818	-29746.7	0.000000	0.000000	6.232829	0.009532	NaN	0.000000	0.001644	0.001695	28.0811	0.014114	0.001995	7.074408	-112.328	15.9951	-0.021498	0.231220	-0.892226	-0.893597	0.009532	7.074408	-0.893236	-8.234939E+11	-1.157565E-14	NaN
295	1.000000	0.242605	7.36795e+06	-53389.1	955.818	-29746.7	0.000000	0.000000	6.242840	-0.043304	NaN	0.000000	0.001694	0.001637	28.0797	0.057797	0.001994	28.9871	-9.648961	-163.4	0.016447	0.241252	-0.882212	-0.883566	-0.043304	28.9871	-0.881092	-5.642539E+11	7.674641E-14	NaN
295	1.000000	0.252628	7.36795e+06	-53389.1	955.819	-29746.7	0.000000	0.000000	6.252864	0.002768	NaN	0.000000	0.001696	0.001658	28.0795	0.074425	0.001990	37.403	135.77	15.9768	-0.028893	0.251293	-0.872190	-0.873524	0.002768	37.403	-0.872245	-4.283712E+11	-6.462211E-15	NaN
295	1.000000	0.262615	7.36795e+06	-53389.1	955.819	-29746.6	0.000000	0.000000	6.262851	-0.007102	NaN	0.000000	0.001710	0.001665	28.0798	0.078842	0.002015	39.122	40.5916	-162.69	0.001575	0.261276	-0.862203	-0.863541	-0.007102	39.122	-0.862067	-3.119558E+11	2.276459E-14	NaN
295	1.000000	0.272617	7.36795e+06	-53389.1	955.818	-29746.7	0.000000	0.000000	6.272854	0.020069	NaN	0.000000	0.001677	0.001686	28.0797	0.022363	0.002109	10.6021	-173.778	13.5743	0.058041	0.271221	-0.852201	-0.853597	0.020069	10.6021	-0.853620	-2.397506E+11	-8.370627E-14	NaN
295	1.000000	0.282606	7.36795e+06	-53389.1	955.819	-29746.7	0.000000	0.000000	6.282842	0.000469	NaN	0.000000	0.001690	0.001677	28.0796	0.062828	0.002090	30.0636	-32.8388	-165.661	-0.011029	0.281265	-0.842212	-0.843553	0.000469	30.0636	-0.842224	-1.680412E+11	-2.793924E-15	NaN
295	1.000000	0.292641	7.36795e+06	-53389.1	955.818	-29746.6	0.000000	0.000000	6.292877	-0.003524	NaN	0.000000	0.001685	0.001645	28.0797	0.045869	0.002052	22.3577	-130.31	17.6285	-0.037584	0.291258	-0.832177	-0.833560	-0.003524	22.3577	-0.832058	-1.223722E+11	2.880058E-14	NaN
295	1.000000	0.302608	7.36795e+06	-53389.1	955.819	-29746.6	0.000000	0.000000	6.302845	0.026010	NaN	0.000000	0.001667	0.001704	28.0799	0.073789	0.001994	36.9995	102.21	-166.47	-0.021824	0.301327	-0.822210	-0.823491	0.026010	36.9995	-0.822737	-9.147947E+10	-2.843235E-13	NaN
295	1.000000	0.312633	7.36795e+06	-53389.1	955.82	-29746.6	0.000000	0.000000	6.312873	0.061521	NaN	0.000000	0.001686	0.001628	28.0797	0.035045	0.001968	17.8099	-163.828	15.2249	0.019400	0.311289	-0.812184	-0.813528	0.061521	17.8099	-0.814775	-7.134184E+10	-8.623348E-13	NaN
295	1.000000	0.322625	7.36795e+06	-53389.1	955.819	-29746.6	0.000000	0.000000	6.322861	-0.011155	NaN	0.000000	0.001692	0.001635	28.0797	0.012023	0.001867	6.439995	-179.643	-165.525	-0.067733	0.321333	-0.802193	-0.803484	-0.011155	6.439995	-0.800894	-4.623742E+10	2.412500E-13	NaN
295	1.000000	0.332663	7.36795e+06	-53389.1	955.817	-29746.6	0.000000	0.000000	6.332899	-0.028338	NaN	0.000000	0.001694	0.001676	28.0799	0.047362	0.002077	22.8084	149.781	15.0425	-0.010065	0.331236	-0.792154	-0.793582	-0.028338	22.8084	-0.791223	-3.417334E+10	8.292515E-13	NaN
295	1.000000	0.342649	7.36795e+06	-53389.1	955.818	-29746.6	0.000000	0.000000	6.342888	0.070698	NaN	0.000000	0.001744	0.001714	28.0798	0.045661	0.002096	21.7884	-26.736	-165.739	-0.017190	0.341334	-0.782169	-0.783483	0.070698	21.7884	-0.784602	-2.778203E+10	-2.544742E-12	NaN
295	1.000000	0.352674	7.36795e+06	-53389.1	955.817	-29746.6	0.000000	0.000000	6.352910	-0.013009	NaN	0.000000	0.001695	0.001701	28.0799	0.041971	0.002145	19.5645	-173.668	18.6166	0.032647	0.351246	-0.772144	-0.773572	-0.013009	19.5645	-0.771645	-1.852127E+10	7.023953E-13	NaN
295	1.000000	0.362660	7.36795e+06	-53389.1	955.82	-29746.6	0.000000	0.000000	6.362894	-0.074864	NaN	0.000000	0.001659	0.001675	28.0795	0.061677	0.001915	32.2117	-151.214	-162.803	-0.104328	0.361327	-0.762157	-0.763490	-0.074864	32.2117	-0.760414	-1.302973E+10	5.745621E-12	NaN
295	1.000000	0.372670	7.36795e+06	-53389.1	955.819	-29746.6	0.000000	0.000000	6.372905	-0.043849	NaN	0.000000	0.001687	0.001646	28.0812	0.108459	0.001968	55.1183	-91.6373	14.2278	-0.010308	0.371264	-0.752148	-0.753554	-0.043849	55.1183	-0.751551	-9.870371E+9	4.442505E-12	NaN
295	1.000000	0.382647	7.36795e+06	-53389.1	955.818	-29746.6	0.000000	0.000000	6.382882	-0.033779	NaN	0.000000	0.001669	0.001670	28.0806	0.029528	0.002039	14.4827	78.221	-164	-0.063051	0.381366	-0.742171	-0.743452	-0.033779	14.4827	-0.740422	-6.963020E+9	4.851204E-12	NaN
295	1.000000	0.392680	7.36795e+06	-53389.1	955.818	-29746.6	0.000000	0.000000	6.392917	0.007799	NaN	0.000000	0.001691	0.001664	28.0813	0.066471	0.002158	30.8017	-107.716	14.5775	0.001574	0.391243	-0.732138	-0.733575	0.007799	30.8017	-0.732328	-5.401679E+9	-1.443765E-12	NaN
295	1.000000	0.402676	7.36795e+06	-53389.1	955.818	-29746.6	0.000000	0.000000	6.402913	-0.006649	NaN	0.000000	0.001715	0.001671	28.0804	0.087251	0.001826	47.7837	130.779	-164.54	-0.065509	0.401319	-0.722141	-0.723499	-0.006649	47.7837	-0.722037	-3.910649E+9	1.700127E-12	NaN
295	1.000000	0.412695	7.36795e+06	-53389.1	955.818	-29746.6	0.000000	0.000000	6.412933	0.050154	NaN	0.000000	0.001737	0.001647	28.0807	0.053271	0.001982	26.8779	73.7688	17.8009	0.064856	0.411283	-0.712123	-0.713535	0.050154	26.8779	-0.713522	-2.993036E+9	-1.675680E-11	NaN
295	1.000000	0.422666	7.36795e+06	-53389.1	955.819	-29746.6	0.000000	0.000000	6.422900	-0.057950	NaN	0.000000	0.001753	0.001682	28.0806	0.037799	0.001964	19.2488	-110.155	-166.352	-0.092860	0.421391	-0.702152	-0.703426	-0.057950	19.2488	-0.699894	-1.950216E+9	2.971461E-11	NaN
295	1.000000	0.432643	7.36795e+06	-53389.1	955.818	-29746.6	0.000000	0.000000	6.432881	0.021864	NaN	0.000000	0.001783	0.001659	28.0805	0.087546	0.001921	45.5826	161.068	10.9344	0.033054	0.431294	-0.692174	-0.693524	0.021864	45.5826	-0.692534	-1.547183E+9	-1.413135E-11	NaN
295	1.000000	0.442684	7.36795e+06	-53389.1	955.819	-29746.6	0.000000	0.000000	6.442923	0.044217	NaN	0.000000	0.001763	0.001645	28.0805	0.075782	0.002140	35.4087	118.633	-167.432	0.004646	0.441359	-0.682133	-0.683458	0.044217	35.4087	-0.683070	-1.148637E+9	-3.849512E-11	NaN
295	1.000000	0.452703	7.36795e+06	-53389.1	955.817	-29746.6	0.000000	0.000000	6.452939	0.004051	NaN	0.000000	0.001749	0.001635	28.0806	0.069950	0.001938	36.0978	67.48	15.0675	0.011103	0.451326	-0.672115	-0.673491	0.004051	36.0978	-0.672199	-8.156182E+8	-4.966480E-12	NaN
295	1.000000	0.462684	7.36795e+06	-53389.1	955.817	-29746.6	0.000000	0.000000	6.462921	0.004924	NaN	0.000000	0.001744	0.001632	28.0805	0.108573	0.001932	56.2068	-60.4092	-166.677	0.027938	0.461396	-0.662134	-0.663422	0.004924	56.2068	-0.662199	-5.951025E+8	-8.274703E-12	NaN
295	1.000000	0.472692	7.36795e+06	-53389.1	955.819	-29746.6	0.000000	0.000000	6.472927	-0.040669	NaN	0.000000	0.001751	0.001664	28.0806	0.068437	0.001893	36.1514	132.073	13.2785	-0.094817	0.471352	-0.652125	-0.653465	-0.040669	36.1514	-0.651281	-4.216979E+8	9.644108E-11	NaN
295	1.000000	0.482662	7.36795e+06	-53389.1	955.819	-29746.6	0.000000	0.000000	6.482900	0.035746	NaN	0.000000	0.001788	0.001691	28.0806	0.071243	0.001956	36.4277	175.433	-166.38	-0.055491	0.481403	-0.642156	-0.643414	0.035746	36.4277	-0.642892	-3.235661E+8	-1.104737E-10	NaN
295	1.000000	0.492734	7.36795e+06	-53389.1	955.819	-29746.6	0.000000	0.000000	6.492974	0.080144	NaN	0.000000	0.001795	0.001627	28.0808	0.008021	0.002033	3.946140	-19.2287	17.7762	0.110599	0.491250	-0.632083	-0.633567	0.080144	3.946140	-0.647315	-3.720741E+8	-2.153975E-10	NaN
295	1.000000	0.502698	7.36795e+06	-53389.1	955.818	-29746.6	0.000000	0.000000	6.502938	0.067299	NaN	0.000000	0.001779	0.001678	28.0808	0.115723	0.002023	57.1958	139.726	-166.325	-0.046024	0.501369	-0.622119	-0.623449	0.067299	57.1958	-0.623002	-1.725388E+8	-3.900528E-10	NaN
295	1.000000	0.512713	7.36795e+06	-53389.1	955.818	-29746.6	0.000000	0.000000	6.512950	-0.003758	NaN	0.000000	0.001743	0.001655	28.0796	0.048560	0.001952	24.8749	138.212	12.9813	0.019177	0.511353	-0.612104	-0.613465	-0.003758	24.8749	-0.611991	-1.217606E+8	3.086126E-11	NaN
295	1.000000	0.522716	7.36795e+06	-53389.1	955.819	-29746.6	0.000000	0.000000	6.522952	-0.030440	NaN	0.000000	0.001765	0.001686	28.0795	0.081847	0.002089	39.1876	-139.037	-164.945	-0.054974	0.521382	-0.602101	-0.603436	-0.030440	39.1876	-0.601519	-8.737266E+7	3.483932E-10	NaN
295	1.000000	0.532706	7.36795e+06	-53389.1	955.818	-29746.6	0.000000	0.000000	6.532942	-0.017233	NaN	0.000000	0.001777	0.001690	28.0796	0.062179	0.002059	30.1917	164.273	16.7028	-0.107734	0.531380	-0.592111	-0.593437	-0.017233	30.1917	-0.591683	-6.395421E+7	2.694580E-10	NaN
295	1.000000	0.542739	7.36795e+06	-53389.1	955.818	-29746.6	0.000000	0.000000	6.542976	0.001676	NaN	0.000000	0.001750	0.001699	28.0794	0.061949	0.002167	28.5872	156.181	-164.679	0.107933	0.541360	-0.582078	-0.583457	0.001676	28.5872	-0.582122	-4.720734E+7	-3.549266E-11	NaN
295	1.000000	0.552749	7.36795e+06	-53389.1	955.819	-29746.6	0.000000	0.000000	6.552985	-0.009660	NaN	0.000000	0.001699	0.001688	28.0796	0.112929	0.001904	59.3224	73.5206	18.1622	0.014330	0.551321	-0.572069	-0.573496	-0.009660	59.3224	-0.571947	-3.416052E+7	2.827693E-10	NaN
295	1.000000	0.562709	7.36795e+06	-53389.1	955.817	-29746.6	0.000000	0.000000	6.562947	0.038971	NaN	0.000000	0.001688	0.001643	28.0795	0.068295	0.002025	33.7314	58.5666	-165.321	0.012717	0.561476	-0.562108	-0.563341	0.038971	33.7314	-0.562975	-2.567573E+7	-1.517807E-9	NaN
295	1.000000	0.572737	7.36795e+06	-53389.1	955.819	-29746.6	0.000000	0.000000	6.572974	0.007970	NaN	0.000000	0.001663	0.001661	28.0796	0.133064	0.001991	66.8324	-18.1075	12.9012	-0.021535	0.571373	-0.552080	-0.553444	0.007970	66.8324	-0.552169	-1.819706E+7	-4.380008E-10	NaN
295	1.000000	0.582736	7.36795e+06	-53389.1	955.818	-29746.6	0.000000	0.000000	6.582971	-0.024280	NaN	0.000000	0.001687	0.001647	28.0796	0.123669	0.001921	64.3614	170.215	-164.333	-0.023670	0.581403	-0.542082	-0.543415	-0.024280	64.3614	-0.541799	-1.307084E+7	1.857554E-9	NaN
295	1.000000	0.592741	7.36795e+06	-53389.1	955.819	-29746.6	0.000000	0.000000	6.592979	0.026566	NaN	0.000000	0.001697	0.001687	28.0795	0.018209	0.002043	8.914654	171.486	14.5544	0.041906	0.591384	-0.532077	-0.533434	0.026566	8.914654	-0.534312	-1.029054E+7	-2.581631E-9	NaN
295	1.000000	0.602723	7.36795e+06	-53389.1	955.819	-29746.6	0.000000	0.000000	6.602961	0.024965	NaN	0.000000	0.001699	0.001680	28.0794	0.093106	0.002112	44.0944	160.316	-162.381	0.050808	0.601474	-0.522094	-0.523344	0.024965	44.0944	-0.522519	-7.05705e+06	-3.537558E-9	NaN
295	1.000000	0.612729	7.36795e+06	-53389.1	955.819	-29746.6	0.000000	0.000000	6.612967	0.013456	NaN	0.000000	0.001678	0.001609	28.0795	0.094323	0.002084	45.2607	-141.082	14.0439	-0.024910	0.611397	-0.512088	-0.513420	0.013456	45.2607	-0.512311	-5.08861e+06	-2.644362E-9	NaN
295	1.000000	0.622757	7.36795e+06	-53389.1	955.818	-29746.6	0.000000	0.000000	6.622994	0.016275	NaN	0.000000	0.001697	0.001651	28.0794	0.102008	0.001973	51.7019	84.7325	-167.962	0.005141	0.621439	-0.502060	-0.503378	0.016275	51.7019	-0.502296	-3.6902e+06	-4.410383E-9	NaN
295	1.000000	0.632727	7.36795e+06	-53389.1	955.819	-29746.6	0.000000	0.000000	6.632962	-0.037350	NaN	0.000000	0.001689	0.001665	28.0795	0.028977	0.001966	14.7357	115.216	14.3477	0.066579	0.631366	-0.492091	-0.493451	-0.037350	14.7357	-0.490190	-2.50059e+06	1.493660E-8	NaN
295	1.000000	0.642767	7.36795e+06	-53389.1	955.818	-29746.6	0.000000	0.000000	6.643003	-0.017248	NaN	0.000000	0.001700	0.001668	28.0796	0.049455	0.002096	23.5969	-2.188379	-163.352	0.042618	0.641469	-0.482051	-0.483348	-0.017248	23.5969	-0.481502	-1.89041e+06	9.124009E-9	NaN
295	1.000000	0.652800	7.36795e+06	-53389.1	955.819	-29746.6	0.000000	0.000000	6.653036	-0.029188	NaN	0.000000	0.001686	0.001668	28.0806	0.080940	0.001866	43.372	54.5602	16.6652	0.066699	0.651431	-0.472017	-0.473386	-0.029188	43.372	-0.471513	-1.36968e+06	2.131009E-8	NaN
295	1.000000	0.662767	7.36795e+06	-53389.1	955.819	-29746.6	0.000000	0.000000	6.663003	-0.002757	NaN	0.000000	0.001706	0.001650	28.0808	0.120533	0.001968	61.2448	-173.746	-165.349	-0.007593	0.661438	-0.462051	-0.463379	-0.002757	61.2448	-0.462017	-1.00776e+06	2.735872E-9	NaN
295	1.000000	0.672782	7.36795e+06	-53389.1	955.818	-29746.6	0.000000	0.000000	6.673017	-0.032248	NaN	0.000000	0.001687	0.001694	28.0808	0.031102	0.001990	15.6313	-147.017	18.5284	-0.050036	0.671439	-0.452036	-0.453379	-0.032248	15.6313	-0.450488	-693776	4.648206E-8	NaN
295	1.000000	0.682804	7.36795e+06	-53389.1	955.818	-29746.6	0.000000	0.000000	6.683042	0.040449	NaN	0.000000	0.001701	0.001658	28.0809	0.102485	0.001999	51.2753	-178.973	-166.177	0.019703	0.681479	-0.442013	-0.443339	0.040449	51.2753	-0.442605	-537179	-7.529820E-8	NaN
295	1.000000	0.692819	7.36795e+06	-53389.1	955.819	-29746.6	0.000000	0.000000	6.693056	0.010360	NaN	0.000000	0.001671	0.001655	28.0806	0.072770	0.002007	36.2626	143.755	14.4246	-0.061714	0.691447	-0.431998	-0.433371	0.010360	36.2626	-0.432212	-383136	-2.704128E-8	NaN
295	1.000000	0.702846	7.36795e+06	-53389.1	955.818	-29746.6	0.000000	0.000000	6.703082	-0.001902	NaN	0.000000	0.001682	0.001648	28.0805	0.109978	0.001937	56.7707	-56.0624	-166.638	0.003201	0.701450	-0.421972	-0.423368	-0.001902	56.7707	-0.421947	-274167	6.936917E-9	NaN
295	1.000000	0.712782	7.36795e+06	-53389.1	955.819	-29746.6	0.000000	0.000000	6.713018	-0.015003	NaN	0.000000	0.001633	0.001679	28.0806	0.107878	0.001982	54.4301	-51.0113	14.5326	-0.004912	0.711447	-0.412036	-0.413371	-0.015003	54.4301	-0.411829	-196971	7.616884E-8	NaN
295	1.000000	0.722800	7.36795e+06	-53389.1	955.819	-29746.6	0.000000	0.000000	6.723033	-0.098095	NaN	0.000000	0.001671	0.001664	28.0808	0.088752	0.002178	40.749	22.7649	-166.166	-0.088726	0.721456	-0.402017	-0.403362	-0.098095	40.749	-0.400212	-134590	7.288449E-7	NaN
295	1.000000	0.732798	7.36795e+06	-53389.1	955.819	-29746.6	0.000000	0.000000	6.733036	0.026976	NaN	0.000000	0.001668	0.001688	28.0805	0.053928	0.002025	26.6353	4.416642	15.3951	-0.017293	0.731490	-0.392019	-0.393327	0.026976	26.6353	-0.392779	-105414	-2.559067E-7	NaN
295	1.000000	0.742815	7.36795e+06	-53389.1	955.819	-29746.6	0.000000	0.000000	6.743051	-0.007976	NaN	0.000000	0.001651	0.001631	28.0806	0.076478	0.001909	40.0674	-114.154	-166.496	-0.027313	0.741524	-0.382003	-0.383293	-0.007976	40.0674	-0.381854	-73533.2	1.084700E-7	NaN
295	1.000000	0.752818	7.36795e+06	-53389.1	955.819	-29746.6	0.000000	0.000000	6.753054	-0.022458	NaN	0.000000	0.001691	0.001647	28.0808	0.113828	0.001962	58.0265	-114.737	16.3727	-0.006544	0.751428	-0.372000	-0.373390	-0.022458	58.0265	-0.371709	-52569.9	4.271983E-7	NaN
295	1.000000	0.762827	7.36795e+06	-53389.1	955.819	-29746.6	0.000000	0.000000	6.763061	-0.046841	NaN	0.000000	0.001662	0.001652	28.0807	0.041149	0.002066	19.9204	49.4945	-165.396	-0.109449	0.761504	-0.361991	-0.363314	-0.046841	19.9204	-0.360227	-35902.9	1.304645E-6	NaN
295	1.000000	0.772806	7.36795e+06	-53389.1	955.819	-29746.6	0.000000	0.000000	6.773041	-0.039043	NaN	0.000000	0.001659	0.001654	28.0806	0.058781	0.002115	27.7914	123.912	16.1123	-0.021661	0.771501	-0.352012	-0.353316	-0.039043	27.7914	-0.350958	-26357.7	1.481267E-6	NaN
295	1.000000	0.782823	7.36795e+06	-53389.1	955.819	-29746.6	0.000000	0.000000	6.783061	0.052344	NaN	0.000000	0.001655	0.001650	28.0792	0.064718	0.001981	32.6657	103.457	-167.746	0.034608	0.781479	-0.341995	-0.343339	0.052344	32.6657	-0.343197	-20329	-2.574836E-6	NaN
295	1.000000	0.792816	7.36795e+06	-53389.1	955.818	-29746.6	0.000000	0.000000	6.793053	0.007962	NaN	0.000000	0.001722	0.001663	28.0791	0.079919	0.001943	41.131	134.272	15.2226	-0.001862	0.791478	-0.332002	-0.333340	0.007962	41.131	-0.332147	-14024.1	-5.677299E-7	NaN
295	1.000000	0.802815	7.36795e+06	-53389.1	955.818	-29746.6	0.000000	0.000000	6.803050	-0.033284	NaN	0.000000	0.001680	0.001676	28.0794	0.028583	0.002110	13.5458	-151.334	-164.446	-0.012442	0.801556	-0.322003	-0.323262	-0.033284	13.5458	-0.320160	-9353.88	3.558299E-6	NaN
295	1.000000	0.812834	7.36795e+06	-53389.1	955.818	-29746.6	0.000000	0.000000	6.813071	-0.000680	NaN	0.000000	0.001724	0.001657	28.0794	0.062912	0.002017	31.1978	-135.392	15.9666	-0.006661	0.811461	-0.311983	-0.313356	-0.000680	31.1978	-0.311967	-7081.89	9.608288E-8	NaN
295	1.000000	0.822845	7.36795e+06	-53389.1	955.818	-29746.6	0.000000	0.000000	6.823082	0.008281	NaN	0.000000	0.001791	0.001646	28.0793	0.009128	0.002171	4.203614	-31.5797	-163.152	0.064182	0.821556	-0.301973	-0.303262	0.008281	4.203614	-0.303450	-5295.95	-1.563659E-6	NaN
295	1.000000	0.832842	7.36795e+06	-53389.1	955.819	-29746.6	0.000000	0.000000	6.833079	0.014833	NaN	0.000000	0.001686	0.001667	28.0795	0.072416	0.002112	34.2869	121.41	14.0251	0.008677	0.831449	-0.291976	-0.293368	0.014833	34.2869	-0.292300	-3611.89	-4.106740E-6	NaN
295	1.000000	0.842841	7.36795e+06	-53389.1	955.818	-29746.6	0.000000	0.000000	6.843075	-0.060160	NaN	0.000000	0.001718	0.001633	28.0793	0.045132	0.001848	24.4241	63.62	-164.326	-0.085596	0.841562	-0.281976	-0.283256	-0.060160	24.4241	-0.280129	-2370.91	2.537424E-5	NaN
295	1.000000	0.852853	7.36795e+06	-53389.1	955.818	-29746.6	0.000000	0.000000	6.853090	0.000621	NaN	0.000000	0.001701	0.001629	28.0793	0.079936	0.001971	40.5651	-37.2512	14.3471	-0.099487	0.851481	-0.271964	-0.273336	0.000621	40.5651	-0.271976	-1784.66	-3.479084E-7	NaN
295	1.000000	0.862839	7.36795e+06	-53389.1	955.818	-29746.6	0.000000	0.000000	6.863074	-0.042736	NaN	0.000000	0.001677	0.001704	28.0793	0.058496	0.001990	29.3904	-142.007	-167.218	0.023572	0.861596	-0.261978	-0.263221	-0.042736	29.3904	-0.260888	-1209.26	3.534065E-5	NaN
295	1.000000	0.872872	7.36795e+06	-53389.1	955.818	-29746.6	0.000000	0.000000	6.873109	0.010041	NaN	0.000000	0.001751	0.001668	28.0793	0.077051	0.001912	40.3021	110.329	18.7579	0.059596	0.871497	-0.251945	-0.253321	0.010041	40.3021	-0.252132	-886.976	-1.132094E-5	NaN
295	1.000000	0.882837	7.36795e+06	-53389.1	955.818	-29746.6	0.000000	0.000000	6.883075	0.034643	NaN	0.000000	0.001798	0.001660	28.0794	0.083640	0.002128	39.308	114.8	-165.368	0.019834	0.881503	-0.241980	-0.243315	0.034643	39.308	-0.242641	-632.052	-5.480999E-5	NaN
295	1.000000	0.892843	7.36795e+06	-53389.1	955.819	-29746.6	0.000000	0.000000	6.893081	0.051663	NaN	0.000000	0.001693	0.001651	28.0794	0.047183	0.001978	23.8537	-49.7332	17.3473	-0.004462	0.891533	-0.231975	-0.233284	0.051663	23.8537	-0.233599	-456.285	-0.000113	NaN
295	1.000000	0.902879	7.36795e+06	-53389.1	955.818	-29746.6	0.000000	0.000000	6.903115	0.004838	NaN	0.000000	0.001668	0.001690	28.0794	0.022375	0.001972	11.3477	-76.7842	-167.729	-0.008457	0.901591	-0.221939	-0.223227	0.004838	11.3477	-0.222259	-301.802	-1.603177E-5	NaN
295	1.000000	0.912894	7.36795e+06	-53389.1	955.818	-29746.6	0.000000	0.000000	6.913128	-0.062577	NaN	0.000000	0.001681	0.001672	28.0795	0.106121	0.002013	52.7204	34.3704	13.7025	0.025614	0.911492	-0.211924	-0.213325	-0.062577	52.7204	-0.211033	-199.317	0.000314	NaN
295	1.000000	0.922883	7.36795e+06	-53389.1	955.818	-29746.6	0.000000	0.000000	6.923119	-0.009173	NaN	0.000000	0.001687	0.001658	28.0806	0.069727	0.001856	37.5751	-101.402	-164.681	-0.104253	0.921579	-0.201934	-0.203239	-0.009173	37.5751	-0.201751	-140.748	6.516965E-5	NaN
295	1.000000	0.932911	7.36795e+06	-53389.1	955.819	-29746.6	0.000000	0.000000	6.933147	-0.012232	NaN	0.000000	0.001718	0.001649	28.0808	0.048168	0.002041	23.601	167.608	18.3752	0.001884	0.931547	-0.191907	-0.193270	-0.012232	23.601	-0.191518	-95.358	0.000128	NaN
295	1.000000	0.942886	7.36795e+06	-53389.1	955.819	-29746.6	0.000000	0.000000	6.943122	-0.009193	NaN	0.000000	0.001719	0.001671	28.0808	0.062643	0.002091	29.9513	-56.0814	-162.407	-0.054819	0.941593	-0.181932	-0.183224	-0.009193	29.9513	-0.181701	-65.2178	0.000141	NaN
295	1.000000	0.952920	7.36795e+06	-53389.1	955.818	-29746.6	0.000000	0.000000	6.953158	0.041376	NaN	0.000000	0.001709	0.001659	28.0807	0.050063	0.002080	24.0706	166.555	15.3454	-0.009689	0.951531	-0.171897	-0.173287	0.041376	24.0706	-0.173187	-46.6402	-0.000887	NaN
295	1.000000	0.962899	7.36795e+06	-53389.1	955.819	-29746.6	0.000000	0.000000	6.963136	0.018193	NaN	0.000000	0.001731	0.001644	28.0807	0.040198	0.001947	20.6461	171.406	-164.1	0.039854	0.961621	-0.161919	-0.163197	0.018193	20.6461	-0.162580	-30.4567	-0.000597	NaN
295	1.000000	0.972903	7.36795e+06	-53389.1	955.818	-29746.6	0.000000	0.000000	6.973139	-0.013466	NaN	0.000000	0.001723	0.001652	28.0808	0.093371	0.002036	45.8514	85.8038	13.5512	0.012796	0.971546	-0.151915	-0.153271	-0.013466	45.8514	-0.151694	-19.4463	0.000692	NaN
295	1.000000	0.982901	7.36795e+06	-53389.1	955.818	-29746.6	0.000000	0.000000	6.983137	-0.010577	NaN	0.000000	0.001714	0.001640	28.0808	0.088371	0.002045	43.2048	-90.4694	-164.311	0.004288	0.981601	-0.141917	-0.143216	-0.010577	43.2048	-0.141733	-12.7479	0.000830	NaN
295	1.000000	0.992918	7.36795e+06	-53389.1	955.816	-29746.6	0.000000	0.000000	6.993152	-0.058782	NaN	0.000000	0.001676	0.001646	28.0806	0.107865	0.001936	55.7282	126.004	16.0522	-0.029448	0.991527	-0.131899	-0.133291	-0.058782	55.7282	-0.131108	-8.007447	0.007341	NaN
295	1.000000	1.002926	7.36795e+06	-53389.1	955.818	-29746.6	0.000000	0.000000	7.003165	0.047608	NaN	0.000000	0.001680	0.001651	28.0808	0.025569	0.002052	12.4601	98.7549	-165.758	-0.001458	1.001599	-0.121891	-0.123218	0.047608	12.4601	-0.124757	-6.014202	-0.007916	NaN
295	1.000000	1.012901	7.36795e+06	-53389.1	955.818	-29746.6	0.000000	0.000000	7.013134	-0.104606	NaN	0.000000	0.001685	0.001623	28.0805	0.048856	0.002041	23.9383	-14.2863	15.6767	-0.170536	1.011582	-0.111916	-0.113235	-0.104606	23.9383	-0.108639	-2.812430	0.037194	NaN
295	1.000000	1.022952	7.36795e+06	-53389.1	955.818	-29746.6	0.000000	0.000000	7.023188	-0.018005	NaN	0.000000	0.001715	0.001641	28.0808	0.107455	0.001998	53.7692	47.5784	-163.81	0.021811	1.021605	-0.101865	-0.103213	-0.018005	53.7692	-0.101614	-1.983361	0.009078	NaN
295	1.000000	1.032936	7.36795e+06	-53389.1	955.818	-29746.6	0.000000	0.000000	7.033173	-0.006475	NaN	0.000000	0.001728	0.001683	28.0803	0.147084	0.002039	72.1486	-105.614	13.0362	-0.019715	1.031577	-0.091881	-0.093240	-0.006475	72.1486	-0.091814	-1.191637	0.005434	NaN
295	1.000000	1.042938	7.36795e+06	-53389.1	955.817	-29746.6	0.000000	0.000000	7.043172	-0.059402	NaN	0.000000	0.001690	0.001646	28.0808	0.060122	0.001940	30.9925	67.3457	-165.029	0.013799	1.041631	-0.081880	-0.083187	-0.059402	30.9925	-0.080442	-0.634930	0.093557	NaN
295	1.000000	1.052930	7.36795e+06	-53389.1	955.818	-29746.6	0.000000	0.000000	7.053166	-0.019250	NaN	0.000000	0.001714	0.001627	28.0805	0.027067	0.001998	13.5499	-108.553	16.1926	-0.052808	1.051514	-0.071888	-0.073304	-0.019250	13.5499	-0.070822	-0.358800	0.053651	NaN
295	1.000000	1.062937	7.36795e+06	-53389.1	955.818	-29746.6	0.000000	0.000000	7.063175	0.015315	NaN	0.000000	0.001642	0.001651	28.0801	0.094951	0.001907	49.7995	175.083	-167.274	-0.055996	1.061607	-0.061880	-0.063211	0.015315	49.7995	-0.062111	-0.206839	-0.074044	NaN
295	1.000000	1.072940	7.36795e+06	-53389.1	955.818	-29746.6	0.000000	0.000000	7.073176	-0.021442	NaN	0.000000	0.001669	0.001600	28.079	0.121465	0.001961	61.9338	-147.158	12.5535	-0.047739	1.071549	-0.051877	-0.053269	-0.021442	61.9338	-0.051618	-0.102096	0.210020	NaN
295	1.000000	1.082960	7.36795e+06	-53389.1	955.818	-29746.6	0.000000	0.000000	7.083197	-0.001901	NaN	0.000000	0.001681	0.001611	28.0794	0.028858	0.002071	13.9342	-51.6506	-165.984	0.095534	1.081635	-0.041857	-0.043183	-0.001901	13.9342	-0.041755	-0.051143	0.037169	NaN
295	1.000000	1.092961	7.36795e+06	-53389.1	955.818	-29746.6	0.000000	0.000000	7.093198	-0.004322	NaN	0.000000	0.001700	0.001607	28.0793	0.010668	0.001963	5.435191	-30.0229	13.3027	0.006572	1.091587	-0.031856	-0.033231	-0.004322	5.435191	-0.031260	-0.024967	0.173105	NaN
295	1.000000	1.102974	7.36795e+06	-53389.1	955.819	-29746.6	0.000000	0.000000	7.103209	-0.031014	NaN	0.000000	0.001675	0.001637	28.0794	0.073820	0.002031	36.3425	-86	-164.179	0.027873	1.101628	-0.021844	-0.023189	-0.031014	36.3425	-0.021204	-0.013478	2.301172	NaN
295	1.000000	1.112941	7.36795e+06	-53389.1	955.818	-29746.6	0.000000	0.000000	7.113172	-0.127765	NaN	0.000000	0.001669	0.001624	28.0791	0.079522	0.001885	42.1775	9.231290	18.0942	-0.086030	1.111616	-0.011877	-0.013202	-0.127765	42.1775	-0.009605	-0.006161	20.7382	NaN
295	1.000000	1.122953	7.36795e+06	-53389.1	955.817	-29746.6	0.000000	0.000000	7.123191	0.036378	NaN	0.000000	0.001629	0.001606	28.0795	0.091874	0.001853	49.5736	-52.6961	-166.536	-0.024077	1.121648	-0.001865	-0.003170	0.036378	49.5736	-0.002415	-0.001725	-21.0895	NaN
295	1.000000	1.132937	7.36795e+06	-53389.1	955.818	-29746.6	0.000000	0.000000	7.133353	4.348796	NaN	0.000000	0.001662	0.001649	28.0793	5.168190	0.001800	2871.41	11.9759	9.646462	3.311129	1.131505	0.008120	0.006687	4.348796	2871.41	0.006984	0.006018	722.668	33818.5
295	2.000000	1.139453	7.36795e+06	-53389.1	955.818	-29746.6	0.000000	0.000000	7.140128	10.6535	NaN	0.000000	0.001652	0.001652	28.0796	10.2312	0.001520	6731.72	8.731594	-175.887	10.0435	1.139180	0.014635	0.014362	10.6535	6731.72	0.013448	0.013272	802.721	53386.9
295	2.000000	1.141922	7.36795e+06	-53389.1	955.818	-29746.6	0.000000	0.000000	7.142780	15.1114	NaN	0.000000	0.001662	0.001622	28.0792	13.6137	0.001718	7925.95	5.533444	5.917343	14.7663	1.141609	0.017104	0.016792	15.1114	7925.95	0.015675	0.016195	933.064	56902.1
295	2.000000	1.144445	7.36795e+06	-53389.1	955.818	-29746.6	0.000000	0.000000	7.145344	16.0981	NaN	0.000000	0.001610	0.001643	28.0793	16.452	0.001818	9051.36	7.687260	-174.925	17.2125	1.144112	0.019627	0.019294	16.0981	9051.36	0.018293	0.019931	807.676	58575.9
295	2.000000	1.146943	7.36795e+06	-53389.1	955.818	-29746.6	0.000000	0.000000	7.148094	22.2189	NaN	0.000000	0.001664	0.001646	28.0796	18.7841	0.001688	11128.8	5.425144	5.115130	21.6227	1.146574	0.022126	0.021756	22.2189	11128.8	0.020628	0.023539	943.919	66271.6
295	2.000000	1.149339	7.36795e+06	-53389.1	955.817	-29746.6	0.000000	0.000000	7.150719	27.7965	NaN	0.000000	0.001723	0.001664	28.0794	21.7851	0.001733	12568.1	7.989764	179.376	25.651	1.149062	0.024521	0.024244	27.7965	12568.1	0.022863	0.027242	1020.37	69570.7
295	2.000000	1.151891	7.36795e+06	-53389.1	955.817	-29746.6	0.000000	0.000000	7.153401	30.9723	NaN	0.000000	0.001746	0.001642	28.0805	24.6372	0.001756	14031.4	9.550510	-1.595889	31.1938	1.151466	0.027073	0.026649	30.9723	14031.4	0.025418	0.031780	974.583	71911.3
295	2.000000	1.154417	7.36795e+06	-53389.1	955.818	-29746.6	0.000000	0.000000	7.156147	36.3232	NaN	0.000000	0.001743	0.001659	28.0805	26.8603	0.001788	15021.4	5.820519	-178.331	36.7792	1.154035	0.029599	0.029218	36.3232	15021.4	0.027786	0.036279	1001.22	72053.4
295	2.000000	1.156829	7.36795e+06	-53389.1	955.818	-29746.6	0.000000	0.000000	7.158994	46.8993	NaN	0.000000	0.001699	0.001614	28.0804	29.2568	0.001670	17518.8	7.102367	-1.468635	44.6481	1.156410	0.032011	0.031592	46.8993	17518.8	0.030004	0.040751	1150.87	79287.9
295	2.000000	1.159312	7.36795e+06	-53389.1	955.819	-29746.6	0.000000	0.000000	7.161576	49.2965	NaN	0.000000	0.001738	0.001631	28.0805	30.3713	0.001659	18303.9	3.161506	-176.913	47.5757	1.159030	0.034494	0.034213	49.2965	18303.9	0.032474	0.046028	1071.01	77948.1
295	2.000000	1.161897	7.36795e+06	-53389.1	955.818	-29746.6	0.000000	0.000000	7.164579	59.4457	NaN	0.000000	0.001703	0.001666	28.0805	33.7825	0.001745	19363.2	6.151565	-1.363193	59.5721	1.161518	0.037080	0.036701	59.4457	19363.2	0.034777	0.051229	1160.39	78161.3
295	2.000000	1.164335	7.36795e+06	-53389.1	955.818	-29746.6	0.000000	0.000000	7.167221	64.4275	NaN	0.000000	0.001695	0.001652	28.0805	36.7596	0.001768	20793.9	8.130778	176.654	65.2391	1.164063	0.039517	0.039246	64.4275	20793.9	0.037193	0.056976	1130.77	79590.5
295	2.000000	1.166864	7.36795e+06	-53389.1	955.819	-29746.6	0.000000	0.000000	7.170191	75.1255	NaN	0.000000	0.001764	0.001649	28.0806	38.391	0.001740	22066.9	3.094561	1.163296	73.9482	1.166537	0.042047	0.041719	75.1255	22066.9	0.039494	0.062726	1197.67	80498.8
295	2.000000	1.169356	7.36795e+06	-53389.1	955.819	-29746.6	0.000000	0.000000	7.173071	84.567	NaN	0.000000	0.001773	0.001641	28.0806	40.2302	0.001723	23350.6	2.201192	-178.749	85.4924	1.168978	0.044538	0.044161	84.567	23350.6	0.041822	0.068823	1228.77	81321.6
295	2.000000	1.171825	7.36795e+06	-53389.1	955.818	-29746.6	0.000000	0.000000	7.175907	93.4838	NaN	0.000000	0.001705	0.001641	28.0807	44.1337	0.001739	25385.3	4.880784	-2.130913	91.9106	1.171429	0.047008	0.046611	93.4838	25385.3	0.044246	0.075461	1238.84	84429.7
295	2.000000	1.174366	7.36795e+06	-53389.1	955.818	-29746.6	0.000000	0.000000	7.178659	98.6242	NaN	0.000000	0.001664	0.001671	28.0806	47.0682	0.001735	27132.6	1.003072	-179.325	98.5031	1.174152	0.049548	0.049334	98.6242	27132.6	0.046822	0.082844	1190.48	86126
295	2.000000	1.176879	7.36795e+06	-53389.1	955.818	-29746.6	0.000000	0.000000	7.181751	112.697	NaN	0.000000	0.001656	0.001653	28.0809	48.9044	0.001824	26817.1	2.774743	0.378844	112.424	1.176491	0.052062	0.051673	112.697	26817.1	0.048910	0.089074	1265.2	82093.4
295	2.000000	1.179291	7.36795e+06	-53389.1	955.818	-29746.6	0.000000	0.000000	7.184748	126.92	NaN	0.000000	0.001659	0.001636	28.0807	50.6778	0.001734	29224.8	5.773469	175.863	124.228	1.179002	0.054474	0.054185	126.92	29224.8	0.051217	0.096211	1319.18	86082.1
295	2.000000	1.181766	7.36795e+06	-53389.1	955.819	-29746.6	0.000000	0.000000	7.187549	134.854	NaN	0.000000	0.001658	0.001672	28.0806	54.9029	0.001814	30261.4	7.808616	-6.205880	132.304	1.181450	0.056949	0.056632	134.854	30261.4	0.053606	0.103885	1298.1	85779.9
295	2.000000	1.184297	7.36795e+06	-53389.1	955.818	-29746.6	0.000000	0.000000	7.190602	147.531	NaN	0.000000	0.001624	0.001652	28.0807	56.9275	0.001655	34394.7	4.045504	175.997	145.775	1.184037	0.059479	0.059220	147.531	34394.7	0.056262	0.112748	1308.5	93586
295	2.000000	1.186812	7.36795e+06	-53389.1	955.818	-29746.6	0.000000	0.000000	7.193680	161.233	NaN	0.000000	0.001607	0.001623	28.0797	59.9716	0.001819	32973.8	6.455829	-4.799136	158.276	1.186305	0.061995	0.061487	161.233	32973.8	0.058327	0.119879	1344.97	87010.4
295	2.000000	1.189237	7.36795e+06	-53389.1	955.818	-29746.6	0.000000	0.000000	7.196361	167.451	NaN	0.000000	0.001621	0.001640	28.0794	61.174	0.001822	33575.1	4.835875	174.971	162.353	1.189009	0.064420	0.064191	167.451	33575.1	0.060679	0.128256	1305.6	85654.8
295	2.000000	1.191804	7.36795e+06	-53389.1	955.818	-29746.6	0.000000	0.000000	7.199484	180.966	NaN	0.000000	0.001630	0.001608	28.0794	62.9854	0.001728	36457.8	3.651590	-4.819892	178.909	1.191530	0.066987	0.066712	180.966	36457.8	0.063264	0.137772	1313.51	89739.2
295	2.000000	1.194295	7.36795e+06	-53389.1	955.819	-29746.6	0.000000	0.000000	7.202740	199.585	NaN	0.000000	0.001599	0.001649	28.0793	66.028	0.001739	37975.6	1.938886	177.441	197.749	1.194027	0.069477	0.069209	199.585	37975.6	0.065536	0.146403	1363.26	90678.2
295	2.000000	1.197016	7.36795e+06	-53389.1	955.818	-29746.6	0.000000	0.000000	7.205755	206.699	NaN	0.000000	0.001649	0.001650	28.0794	69.5131	0.001741	39923	9.062275	-8.150946	215.972	1.196331	0.072199	0.071513	206.699	39923	0.068316	0.157305	1314	91965.7
295	2.000000	1.199327	7.36795e+06	-53389.1	955.817	-29746.6	0.000000	0.000000	7.208787	224.242	NaN	0.000000	0.001674	0.001643	28.0794	71.9635	0.001755	41003.6	1.923496	176.854	226.823	1.199013	0.074510	0.074195	224.242	41003.6	0.070408	0.165753	1352.87	92016.4
295	2.000000	1.201801	7.36795e+06	-53389.1	955.819	-29746.6	0.000000	0.000000	7.211996	242.128	NaN	0.000000	0.001659	0.001637	28.0794	74.1969	0.001788	41497.7	4.422073	-5.459630	240.418	1.201443	0.076983	0.076626	242.128	41497.7	0.072607	0.174856	1384.73	90668.6
295	2.000000	1.204265	7.36795e+06	-53389.1	955.818	-29746.6	0.000000	0.000000	7.215167	259.299	NaN	0.000000	0.001668	0.001652	28.0796	77.0098	0.001880	40970.1	2.223106	177.103	257.565	1.203908	0.079448	0.079091	259.299	40970.1	0.074701	0.183735	1411.27	87326.1
295	2.000000	1.206713	7.36795e+06	-53389.1	955.819	-29746.6	0.000000	0.000000	7.218080	270.614	NaN	0.000000	0.001679	0.001654	28.0794	78.5905	0.001783	44086.7	3.345190	-5.177510	263.489	1.206492	0.081896	0.081674	270.614	44086.7	0.077292	0.195009	1387.7	91212.3
295	2.000000	1.209267	7.36795e+06	-53389.1	955.818	-29746.6	0.000000	0.000000	7.221398	289.19	NaN	0.000000	0.001702	0.001672	28.0793	80.2835	0.001757	45687.9	5.069511	172.829	286.885	1.209010	0.084449	0.084193	289.19	45687.9	0.079702	0.205778	1405.35	92018.3
295	2.000000	1.211800	7.36795e+06	-53389.1	955.818	-29746.6	0.000000	0.000000	7.224673	307.228	NaN	0.000000	0.001723	0.001651	28.0793	82.8379	0.001752	47289.7	2.997734	-4.914580	305.495	1.211483	0.086983	0.086665	307.228	47289.7	0.082110	0.216809	1417.05	92790.1
295	2.000000	1.214237	7.36795e+06	-53389.1	955.818	-29746.6	0.000000	0.000000	7.227429	314.969	NaN	0.000000	0.001713	0.001707	28.0795	87.0309	0.001823	47742.1	6.201158	170.909	311.604	1.214012	0.089420	0.089195	314.969	47742.1	0.084472	0.227888	1382.12	91372.3
295	2.000000	1.216739	7.36795e+06	-53389.1	955.818	-29746.6	0.000000	0.000000	7.230967	340.172	NaN	0.000000	0.001720	0.001697	28.0793	87.7513	0.001752	50091.9	5.499013	-7.956826	335.744	1.216371	0.091922	0.091554	340.172	50091.9	0.086828	0.239200	1422.12	93575
295	2.000000	1.219308	7.36795e+06	-53389.1	955.819	-29746.6	0.000000	0.000000	7.234262	357.799	NaN	0.000000	0.001703	0.001718	28.0796	89.967	0.001791	50226	6.284692	171.545	359.208	1.218828	0.094491	0.094011	357.799	50226	0.089148	0.250586	1427.85	91669.1
295	2.000000	1.221748	7.36795e+06	-53389.1	955.819	-29746.6	0.000000	0.000000	7.237139	368.458	NaN	0.000000	0.001727	0.001706	28.0807	92.8809	0.001737	53459.3	5.211429	-8.608482	364.063	1.221443	0.096930	0.096625	368.458	53459.3	0.091761	0.263707	1397.23	95112.1
295	2.000000	1.224153	7.36795e+06	-53389.1	955.818	-29746.6	0.000000	0.000000	7.240118	382.399	NaN	0.000000	0.001705	0.001694	28.0808	96.2639	0.001881	51185.8	6.522910	170.441	375.547	1.223902	0.099335	0.099084	382.399	51185.8	0.093732	0.273810	1396.59	89371.3
295	2.000000	1.226694	7.36795e+06	-53389.1	955.818	-29746.6	0.000000	0.000000	7.244182	419.442	NaN	0.000000	0.001672	0.001756	28.0805	95.9318	0.001835	52284.4	3.396212	-5.319665	412.997	1.226316	0.101876	0.101498	419.442	52284.4	0.095859	0.284914	1472.17	89492.8
295	2.000000	1.229233	7.36795e+06	-53389.1	955.818	-29746.6	0.000000	0.000000	7.247079	428.147	NaN	0.000000	0.001677	0.001713	28.0807	99.7424	0.001818	54878.1	6.993485	169.859	426.287	1.228944	0.104415	0.104126	428.147	54878.1	0.098564	0.299329	1430.36	91642.8
295	2.000000	1.231705	7.36795e+06	-53389.1	955.818	-29746.6	0.000000	0.000000	7.250197	443.842	NaN	0.000000	0.001649	0.001704	28.0809	102.02	0.001923	53059.4	3.963343	-6.922333	437.698	1.231452	0.106888	0.106634	443.842	53059.4	0.100614	0.310477	1429.55	87000.3
295	2.000000	1.234128	7.36795e+06	-53389.1	955.818	-29746.6	0.000000	0.000000	7.253419	463.257	NaN	0.000000	0.001695	0.001750	28.0807	103.778	0.001848	56146.1	3.514754	172.985	456.579	1.233958	0.109310	0.109140	463.257	56146.1	0.103122	0.324378	1428.14	90067.4
295	2.000000	1.236667	7.36795e+06	-53389.1	955.819	-29746.6	0.000000	0.000000	7.256875	485.545	NaN	0.000000	0.001667	0.001725	28.081	105.289	0.001744	60358	5.111514	-8.505202	475.248	1.236239	0.111850	0.111422	485.545	60358	0.105816	0.339625	1429.65	94625.5