File: remote_trans/data/nanoindenter/0828-1/data/Data_2025-08-06,11h17m57s/2025-07-22_16-23-58_1_26.txt
2025-07-22, 16:23:58, 1
Index	Phase	Displacement	Time	Pos X	Pos Y	Pos Z	Rot A	Rot B	Piezo Z	Force A	Force B	Gripper	Voltage A	Voltage B	Temperature	Amplitude force	Amplitude pos	Stiffness	Phase shift	Phase excitation	Force A raw	Displacement raw	HMax	HMax raw	Real Force	Real Stiffness	Contact Depth	Area	Hardness	Reduced Mod.
[#]	[#]	[um]	[s]	[um]	[um]	[um]	[m°]	[m°]	[um]	[uN]	[uN]	[V]	[V]	[V]	[°C]	[uN]	[um]	[N/m]	[°]	[°]	[uN]	[um]	[um]	[um]	[uN]	[N/m]	[um]	[um^2]	[MPa]	[MPa]
26	1.000000	0.002772	7.36529e+06	-39939.1	955.819	-29792.6	0.000000	0.000000	6.002809	0.020325	NaN	0.000000	0.001555	0.001600	28.105	0.097568	0.000961	101.558	22.731	-161.592	0.092978	0.001531	-1.057200	-1.058441	0.020325	101.558	-1.057350	-1.340329E+14	-1.516407E-16	NaN
26	1.000000	0.010724	7.36529e+06	-39939.1	955.819	-29792.6	0.000000	0.000000	6.010762	0.066180	NaN	0.000000	0.001528	0.001596	28.1053	0.099371	0.000918	108.188	93.5885	-167.983	0.022773	0.009430	-1.049249	-1.050543	0.066180	108.188	-1.049708	-1.057992E+14	-6.255204E-16	NaN
26	1.000000	0.018714	7.36529e+06	-39939.1	955.819	-29792.6	0.000000	0.000000	6.018751	0.025318	NaN	0.000000	0.001544	0.001603	28.1063	0.043920	0.001746	25.1587	-19.0976	-171.563	0.045403	0.017473	-1.041258	-1.042500	0.025318	25.1587	-1.042013	-8.337404E+13	-3.036626E-16	NaN
26	1.000000	0.026736	7.36529e+06	-39939.1	955.818	-29792.6	0.000000	0.000000	6.026773	0.012583	NaN	0.000000	0.001564	0.001567	28.1057	0.042426	0.001715	24.7362	40.3073	-167.578	0.022697	0.025421	-1.033236	-1.034552	0.012583	24.7362	-1.033618	-6.428922E+13	-1.957322E-16	NaN
26	1.000000	0.034711	7.36529e+06	-39939.1	955.817	-29792.6	0.000000	0.000000	6.034749	0.046396	NaN	0.000000	0.001558	0.001604	28.1057	0.121046	0.001918	63.1025	-64.0042	-163.878	0.040636	0.033399	-1.025261	-1.026573	0.046396	63.1025	-1.025812	-5.048337E+13	-9.190299E-16	NaN
26	1.000000	0.042728	7.36529e+06	-39939.1	955.818	-29792.6	0.000000	0.000000	6.042768	0.112966	NaN	0.000000	0.001532	0.001607	28.1055	0.068786	0.001974	34.8437	-179.062	-166.081	0.147812	0.041422	-1.017244	-1.018551	0.112966	34.8437	-1.019676	-4.174389E+13	-2.706159E-15	NaN
26	1.000000	0.050688	7.36529e+06	-39939.1	955.817	-29792.6	0.000000	0.000000	6.050729	0.129181	NaN	0.000000	0.001535	0.001625	28.1051	0.184971	0.001953	94.6953	68.0908	-165.982	0.156377	0.049437	-1.009285	-1.010536	0.129181	94.6953	-1.010308	-3.122646E+13	-4.136898E-15	NaN
26	1.000000	0.058707	7.36529e+06	-39939.1	955.818	-29792.6	0.000000	0.000000	6.058746	0.084085	NaN	0.000000	0.001513	0.001587	28.1042	0.123010	0.002112	58.2334	-14.63	-166.846	0.097468	0.057424	-1.001266	-1.002549	0.084085	58.2334	-1.002349	-2.439987E+13	-3.446144E-15	NaN
26	1.000000	0.066721	7.36529e+06	-39939.1	955.818	-29792.6	0.000000	0.000000	6.066759	0.041623	NaN	0.000000	0.001506	0.001556	28.1029	0.112068	0.002009	55.7922	135.59	-168.263	0.046425	0.065444	-0.993251	-0.994528	0.041623	55.7922	-0.993811	-1.872546E+13	-2.222787E-15	NaN
26	1.000000	0.074732	7.36529e+06	-39939.1	955.818	-29792.6	0.000000	0.000000	6.074771	0.084082	NaN	0.000000	0.001539	0.001627	28.1024	0.026424	0.001928	13.707	-59.2441	-165.992	0.089671	0.073405	-0.985240	-0.986568	0.084082	13.707	-0.989841	-1.655661E+13	-5.078450E-15	NaN
26	1.000000	0.082743	7.36529e+06	-39939.1	955.818	-29792.6	0.000000	0.000000	6.082782	0.053289	NaN	0.000000	0.001543	0.001599	28.1024	0.073320	0.002082	35.2088	138.063	-168.245	0.111181	0.081393	-0.977229	-0.978579	0.053289	35.2088	-0.978364	-1.159760E+13	-4.594792E-15	NaN
26	1.000000	0.090733	7.36529e+06	-39939.1	955.818	-29792.6	0.000000	0.000000	6.090771	0.033302	NaN	0.000000	0.001562	0.001607	28.1025	0.048935	0.001981	24.7001	14.8286	-167.924	-0.019241	0.089375	-0.969239	-0.970597	0.033302	24.7001	-0.970250	-9.016426E+12	-3.693502E-15	NaN
26	1.000000	0.098739	7.36529e+06	-39939.1	955.819	-29792.6	0.000000	0.000000	6.098779	0.101566	NaN	0.000000	0.001512	0.001601	28.1035	0.126492	0.001998	63.2976	117.355	-165.064	0.079703	0.097404	-0.961233	-0.962568	0.101566	63.2976	-0.962437	-7.074848E+12	-1.435590E-14	NaN
26	1.000000	0.106746	7.36529e+06	-39939.1	955.818	-29792.6	0.000000	0.000000	6.106785	0.078244	NaN	0.000000	0.001556	0.001562	28.1036	0.110435	0.002093	52.767	60.8039	-165.488	0.081721	0.105470	-0.953227	-0.954503	0.078244	52.767	-0.954339	-5.502245E+12	-1.422039E-14	NaN
26	1.000000	0.114731	7.36529e+06	-39939.1	955.819	-29792.6	0.000000	0.000000	6.114770	0.072162	NaN	0.000000	0.001511	0.001598	28.1031	0.062610	0.002036	30.7456	128.292	-167.111	0.027155	0.113442	-0.945241	-0.946530	0.072162	30.7456	-0.947001	-4.381090E+12	-1.647117E-14	NaN
26	1.000000	0.122730	7.36529e+06	-39939.1	955.817	-29792.6	0.000000	0.000000	6.122768	0.032965	NaN	0.000000	0.001519	0.001592	28.1032	0.101325	0.002014	50.3051	-95.6992	-166.906	0.030483	0.121422	-0.937242	-0.938550	0.032965	50.3051	-0.937733	-3.285145E+12	-1.003462E-14	NaN
26	1.000000	0.130754	7.36529e+06	-39939.1	955.818	-29792.6	0.000000	0.000000	6.130792	0.075364	NaN	0.000000	0.001527	0.001588	28.1037	0.059770	0.002130	28.067	45.5344	-166.064	-0.005910	0.129441	-0.929219	-0.930532	0.075364	28.067	-0.931233	-2.684311E+12	-2.807565E-14	NaN
26	1.000000	0.138755	7.36529e+06	-39939.1	955.818	-29792.6	0.000000	0.000000	6.138791	0.004750	NaN	0.000000	0.001503	0.001574	28.1019	0.052590	0.002125	24.7454	42.4005	-164.883	-0.008975	0.137468	-0.921217	-0.922504	0.004750	24.7454	-0.921361	-1.975092E+12	-2.404815E-15	NaN
26	1.000000	0.146739	7.36529e+06	-39939.1	955.819	-29792.6	0.000000	0.000000	6.146777	0.053361	NaN	0.000000	0.001497	0.001593	28.1033	0.077319	0.001968	39.285	79.9042	-166.47	0.047860	0.145481	-0.913234	-0.914491	0.053361	39.285	-0.914252	-1.583420E+12	-3.369976E-14	NaN
26	1.000000	0.154761	7.36529e+06	-39939.1	955.818	-29792.6	0.000000	0.000000	6.154798	0.042413	NaN	0.000000	0.001509	0.001572	28.1022	0.023904	0.001954	12.2311	-119.175	-166.249	0.079933	0.153442	-0.905212	-0.906531	0.042413	12.2311	-0.907812	-1.296019E+12	-3.272537E-14	NaN
26	1.000000	0.162775	7.36529e+06	-39939.1	955.819	-29792.6	0.000000	0.000000	6.162814	0.077758	NaN	0.000000	0.001495	0.001565	28.1024	0.036289	0.002093	17.3421	127.817	-164.109	0.023742	0.161408	-0.897197	-0.898564	0.077758	17.3421	-0.900560	-1.034265E+12	-7.518149E-14	NaN
26	1.000000	0.170767	7.36529e+06	-39939.1	955.818	-29792.6	0.000000	0.000000	6.170803	0.008430	NaN	0.000000	0.001496	0.001556	28.1029	0.061745	0.002103	29.3576	-128.776	-166.623	0.057185	0.169460	-0.889205	-0.890512	0.008430	29.3576	-0.889421	-7.312764E+11	-1.152778E-14	NaN
26	1.000000	0.178789	7.36529e+06	-39939.1	955.818	-29792.6	0.000000	0.000000	6.178827	0.049844	NaN	0.000000	0.001487	0.001659	28.1025	0.140703	0.002024	69.508	-174.449	-168.558	-0.039071	0.177453	-0.881183	-0.882519	0.049844	69.508	-0.881721	-5.754083E+11	-8.662399E-14	NaN
26	1.000000	0.186771	7.36529e+06	-39939.1	955.819	-29792.6	0.000000	0.000000	6.186808	0.011892	NaN	0.000000	0.001532	0.001665	28.1023	0.059557	0.002122	28.0623	-100.519	-168.246	-0.037503	0.185505	-0.873201	-0.874467	0.011892	28.0623	-0.873519	-4.457043E+11	-2.668029E-14	NaN
26	1.000000	0.194756	7.36529e+06	-39939.1	955.818	-29792.6	0.000000	0.000000	6.194793	0.022110	NaN	0.000000	0.001543	0.001655	28.103	0.093543	0.001986	47.104	149.391	-168.525	0.072645	0.193479	-0.865216	-0.866493	0.022110	47.104	-0.865568	-3.479185E+11	-6.355054E-14	NaN
26	1.000000	0.202765	7.36529e+06	-39939.1	955.818	-29792.6	0.000000	0.000000	6.202805	0.115201	NaN	0.000000	0.001556	0.001630	28.1041	0.019876	0.001962	10.1283	4.077953	-168.623	0.096145	0.201448	-0.857208	-0.858524	0.115201	10.1283	-0.865738	-3.497688E+11	-3.293620E-13	NaN
26	1.000000	0.210774	7.36529e+06	-39939.1	955.818	-29792.6	0.000000	0.000000	6.210812	0.032045	NaN	0.000000	0.001543	0.001579	28.1041	0.067810	0.001997	33.9479	16.0444	-167.474	0.106422	0.209407	-0.849198	-0.850565	0.032045	33.9479	-0.849906	-2.135312E+11	-1.500695E-13	NaN
26	1.000000	0.218809	7.36529e+06	-39939.1	955.817	-29792.6	0.000000	0.000000	6.218848	0.076090	NaN	0.000000	0.001556	0.001629	28.1029	0.047874	0.002058	23.2569	-168.803	-168.065	0.078579	0.217481	-0.841163	-0.842491	0.076090	23.2569	-0.843617	-1.755054E+11	-4.335488E-13	NaN
26	1.000000	0.226806	7.36529e+06	-39939.1	955.819	-29792.6	0.000000	0.000000	6.226846	0.096370	NaN	0.000000	0.001561	0.001614	28.1036	0.064404	0.002085	30.8832	-74.0103	-167.183	0.121906	0.225503	-0.833166	-0.834469	0.096370	30.8832	-0.835507	-1.362734E+11	-7.071848E-13	NaN
26	1.000000	0.234797	7.36529e+06	-39939.1	955.818	-29792.6	0.000000	0.000000	6.234832	-0.020892	NaN	0.000000	0.001585	0.001632	28.1033	0.100066	0.001925	51.9868	-74.7045	-165.168	-0.031894	0.233494	-0.825176	-0.826478	-0.020892	51.9868	-0.824874	-9.779182E+10	2.136368E-13	NaN
26	1.000000	0.242786	7.36529e+06	-39939.1	955.818	-29792.6	0.000000	0.000000	6.242822	0.016566	NaN	0.000000	0.001551	0.001597	28.102	0.009670	0.001905	5.077288	27.2733	-167.079	-0.018061	0.241514	-0.817187	-0.818458	0.016566	5.077288	-0.819634	-8.303223E+10	-1.995168E-13	NaN
26	1.000000	0.250778	7.36529e+06	-39939.1	955.817	-29792.6	0.000000	0.000000	6.250814	-0.001249	NaN	0.000000	0.001585	0.001573	28.103	0.142474	0.002055	69.3182	135.889	-165.455	-0.029429	0.249450	-0.809194	-0.810523	-0.001249	69.3182	-0.809181	-5.990409E+10	2.085210E-14	NaN
26	1.000000	0.258807	7.36529e+06	-39939.1	955.819	-29792.6	0.000000	0.000000	6.258843	0.004105	NaN	0.000000	0.001549	0.001595	28.1037	0.096082	0.002079	46.2091	-133.616	-166.418	-0.012858	0.257448	-0.801166	-0.802525	0.004105	46.2091	-0.801232	-4.672939E+10	-8.783991E-14	NaN
26	1.000000	0.266780	7.36529e+06	-39939.1	955.818	-29792.6	0.000000	0.000000	6.266818	0.055736	NaN	0.000000	0.001554	0.001578	28.1042	0.067495	0.002058	32.7915	-149.818	-171.462	0.042460	0.265476	-0.793193	-0.794496	0.055736	32.7915	-0.794468	-3.782266E+10	-1.473625E-12	NaN
26	1.000000	0.274834	7.36529e+06	-39939.1	955.818	-29792.6	0.000000	0.000000	6.274869	-0.008685	NaN	0.000000	0.001544	0.001642	28.1043	0.025626	0.002008	12.7599	94.2102	-165.549	0.068063	0.273476	-0.785138	-0.786496	-0.008685	12.7599	-0.784628	-2.780425E+10	3.123557E-13	NaN
26	1.000000	0.282819	7.36529e+06	-39939.1	955.818	-29792.6	0.000000	0.000000	6.282857	0.061952	NaN	0.000000	0.001512	0.001647	28.103	0.047927	0.002075	23.0972	-105.782	-168.824	0.148455	0.281501	-0.777153	-0.778471	0.061952	23.0972	-0.779165	-2.343600E+10	-2.643450E-12	NaN
26	1.000000	0.290813	7.36529e+06	-39939.1	955.818	-29792.6	0.000000	0.000000	6.290850	0.023628	NaN	0.000000	0.001529	0.001629	28.1039	0.068195	0.001896	35.971	111.027	-167.336	0.083074	0.289533	-0.769159	-0.770439	0.023628	35.971	-0.769652	-1.740090E+10	-1.357851E-12	NaN
26	1.000000	0.298813	7.36529e+06	-39939.1	955.817	-29792.6	0.000000	0.000000	6.298849	-0.004536	NaN	0.000000	0.001527	0.001615	28.1029	0.030382	0.001893	16.0502	-8.723101	-164.633	0.091508	0.297514	-0.761159	-0.762459	-0.004536	16.0502	-0.760947	-1.324926E+10	3.423726E-13	NaN
26	1.000000	0.306821	7.36529e+06	-39939.1	955.818	-29792.6	0.000000	0.000000	6.306860	0.068563	NaN	0.000000	0.001546	0.001594	28.1026	0.013122	0.002017	6.506119	148.691	-167.18	0.122640	0.305522	-0.753151	-0.754451	0.068563	6.506119	-0.761055	-1.329400E+10	-5.157461E-12	NaN
26	1.000000	0.314832	7.36529e+06	-39939.1	955.817	-29792.6	0.000000	0.000000	6.314868	-0.017041	NaN	0.000000	0.001536	0.001543	28.1036	0.126897	0.001994	63.6287	-108.035	-166.989	0.008867	0.313561	-0.745140	-0.746412	-0.017041	63.6287	-0.744939	-8.022645E+9	2.124097E-12	NaN
26	1.000000	0.322869	7.36529e+06	-39939.1	955.818	-29792.6	0.000000	0.000000	6.322903	-0.058991	NaN	0.000000	0.001540	0.001555	28.1024	0.084647	0.001916	44.1735	102.608	-164.82	-0.111857	0.321512	-0.737103	-0.738460	-0.058991	44.1735	-0.736101	-6.080643E+9	9.701424E-12	NaN
26	1.000000	0.330866	7.36529e+06	-39939.1	955.818	-29792.6	0.000000	0.000000	6.330904	0.055155	NaN	0.000000	0.001576	0.001548	28.1025	0.075465	0.001955	38.6041	114.778	-166.838	0.110686	0.329499	-0.729107	-0.730474	0.055155	38.6041	-0.730178	-5.049351E+9	-1.092310E-11	NaN
26	1.000000	0.338839	7.36529e+06	-39939.1	955.819	-29792.6	0.000000	0.000000	6.338878	0.082988	NaN	0.000000	0.001564	0.001567	28.1017	0.090368	0.002051	44.06	-88.7567	-168.29	0.064562	0.337535	-0.721133	-0.722438	0.082988	44.06	-0.722546	-3.973671E+9	-2.088447E-11	NaN
26	1.000000	0.346815	7.36529e+06	-39939.1	955.818	-29792.6	0.000000	0.000000	6.346851	0.017691	NaN	0.000000	0.001551	0.001549	28.1022	0.043431	0.001945	22.3243	67.7787	-167.663	-0.058784	0.345532	-0.713158	-0.714440	0.017691	22.3243	-0.713752	-3.014715E+9	-5.868100E-12	NaN
26	1.000000	0.354845	7.36529e+06	-39939.1	955.819	-29792.6	0.000000	0.000000	6.354880	-0.003839	NaN	0.000000	0.001573	0.001593	28.1024	0.057630	0.002155	26.7446	37.8131	-164.027	-0.014319	0.353573	-0.705128	-0.706399	-0.003839	26.7446	-0.705020	-2.291263E+9	1.675651E-12	NaN
26	1.000000	0.362867	7.36529e+06	-39939.1	955.818	-29792.6	0.000000	0.000000	6.362904	0.006439	NaN	0.000000	0.001569	0.001598	28.1018	0.026622	0.001817	14.6498	31.4538	-166.074	0.035604	0.361427	-0.697105	-0.698545	0.006439	14.6498	-0.697435	-1.805065E+9	-3.567242E-12	NaN
26	1.000000	0.370846	7.36529e+06	-39939.1	955.818	-29792.6	0.000000	0.000000	6.370884	0.035456	NaN	0.000000	0.001545	0.001551	28.103	0.111422	0.001923	57.9491	21.4295	-167.504	0.053793	0.369597	-0.689126	-0.690376	0.035456	57.9491	-0.689585	-1.410080E+9	-2.514442E-11	NaN
26	1.000000	0.378860	7.36529e+06	-39939.1	955.819	-29792.6	0.000000	0.000000	6.378897	0.008865	NaN	0.000000	0.001526	0.001561	28.1012	0.096468	0.002037	47.3553	79.5294	-166.86	0.001078	0.377574	-0.681112	-0.682398	0.008865	47.3553	-0.681252	-1.084754E+9	-8.172217E-12	NaN
26	1.000000	0.386860	7.3653e+06	-39939.1	955.819	-29792.6	0.000000	0.000000	6.386898	0.047260	NaN	0.000000	0.001535	0.001594	28.101	0.030696	0.002123	14.456	-123.111	-167.277	-0.061795	0.385522	-0.673112	-0.674450	0.047260	14.456	-0.675564	-9.068371E+8	-5.211558E-11	NaN
26	1.000000	0.394867	7.3653e+06	-39939.1	955.818	-29792.6	0.000000	0.000000	6.394905	0.051684	NaN	0.000000	0.001536	0.001609	28.1012	0.079459	0.002078	38.2324	-139.803	-165.644	0.023539	0.393557	-0.665106	-0.666415	0.051684	38.2324	-0.666120	-6.733966E+8	-7.675167E-11	NaN
26	1.000000	0.402859	7.3653e+06	-39939.1	955.818	-29792.6	0.000000	0.000000	6.402897	0.035097	NaN	0.000000	0.001533	0.001605	28.1009	0.069608	0.001979	35.17	125.001	-166.532	0.058275	0.401564	-0.657113	-0.658409	0.035097	35.17	-0.657861	-5.190049E+8	-6.762319E-11	NaN
26	1.000000	0.410875	7.3653e+06	-39939.1	955.819	-29792.6	0.000000	0.000000	6.410911	0.010013	NaN	0.000000	0.001614	0.001531	28.1018	0.056251	0.002060	27.3078	110.965	-165.924	0.059991	0.409601	-0.649097	-0.650371	0.010013	27.3078	-0.649372	-3.970353E+8	-2.521940E-11	NaN
26	1.000000	0.418859	7.3653e+06	-39939.1	955.818	-29792.6	0.000000	0.000000	6.418896	0.022193	NaN	0.000000	0.001587	0.001575	28.1017	0.071381	0.001952	36.5706	-31.3219	-164.531	0.041625	0.417514	-0.641113	-0.642458	0.022193	36.5706	-0.641568	-3.103145E+8	-7.151839E-11	NaN
26	1.000000	0.426858	7.3653e+06	-39939.1	955.818	-29792.6	0.000000	0.000000	6.426896	0.038077	NaN	0.000000	0.001562	0.001606	28.1015	0.090214	0.001973	45.7305	51.7752	-165.347	-0.017041	0.425567	-0.633114	-0.634406	0.038077	45.7305	-0.633738	-2.423006E+8	-1.571474E-10	NaN
26	1.000000	0.434834	7.3653e+06	-39939.1	955.818	-29792.6	0.000000	0.000000	6.434870	0.016904	NaN	0.000000	0.001567	0.001587	28.1028	0.068048	0.002065	32.9596	-33.7503	-167.524	0.032615	0.433588	-0.625139	-0.626384	0.016904	32.9596	-0.625523	-1.868682E+8	-9.045978E-11	NaN
26	1.000000	0.442888	7.3653e+06	-39939.1	955.818	-29792.6	0.000000	0.000000	6.442926	0.063959	NaN	0.000000	0.001574	0.001571	28.1019	0.059866	0.002046	29.2566	166.06	-170.703	0.027609	0.441586	-0.617084	-0.618386	0.063959	29.2566	-0.618724	-1.506934E+8	-4.244292E-10	NaN
26	1.000000	0.450899	7.3653e+06	-39939.1	955.818	-29792.6	0.000000	0.000000	6.450936	0.028317	NaN	0.000000	0.001588	0.001578	28.1011	0.100022	0.002009	49.7923	-23.8013	-169.699	0.018613	0.449531	-0.609073	-0.610441	0.028317	49.7923	-0.609500	-1.125212E+8	-2.516553E-10	NaN
26	1.000000	0.458886	7.3653e+06	-39939.1	955.818	-29792.6	0.000000	0.000000	6.458926	0.109089	NaN	0.000000	0.001565	0.001585	28.1001	0.080812	0.002049	39.4337	139.343	-166.683	0.098505	0.457593	-0.601087	-0.602379	0.109089	39.4337	-0.603161	-9.204376E+7	-1.185188E-9	NaN
26	1.000000	0.466872	7.3653e+06	-39939.1	955.819	-29792.6	0.000000	0.000000	6.466911	0.063790	NaN	0.000000	0.001580	0.001631	28.1011	0.018269	0.002053	8.900866	179.622	-166.445	0.016412	0.465583	-0.593100	-0.594389	0.063790	8.900866	-0.598475	-7.933296E+7	-8.040754E-10	NaN
26	1.000000	0.474897	7.3653e+06	-39939.1	955.818	-29792.6	0.000000	0.000000	6.474933	0.022176	NaN	0.000000	0.001569	0.001632	28.1012	0.034796	0.001994	17.4509	-5.019581	-168.768	-0.018085	0.473611	-0.585076	-0.586362	0.022176	17.4509	-0.586029	-5.344465E+7	-4.149290E-10	NaN
26	1.000000	0.482918	7.3653e+06	-39939.1	955.819	-29792.6	0.000000	0.000000	6.482955	0.031440	NaN	0.000000	0.001588	0.001629	28.1013	0.019138	0.001972	9.706547	-178.057	-165.779	0.037305	0.481655	-0.577054	-0.578317	0.031440	9.706547	-0.579484	-4.341076E+7	-7.242414E-10	NaN
26	1.000000	0.490920	7.3653e+06	-39939.1	955.818	-29792.6	0.000000	0.000000	6.490960	0.079779	NaN	0.000000	0.001581	0.001619	28.1016	0.069345	0.001997	34.7281	142.811	-166.366	0.063644	0.489630	-0.569052	-0.570342	0.079779	34.7281	-0.570775	-3.291075E+7	-2.424107E-9	NaN
26	1.000000	0.498887	7.3653e+06	-39939.1	955.818	-29792.6	0.000000	0.000000	6.498924	0.016391	NaN	0.000000	0.001504	0.001622	28.1024	0.034359	0.001984	17.3177	27.0282	-168.332	0.107037	0.497637	-0.561085	-0.562336	0.016391	17.3177	-0.561795	-2.472874E+7	-6.628352E-10	NaN
26	1.000000	0.506885	7.3653e+06	-39939.1	955.818	-29792.6	0.000000	0.000000	6.506922	0.020918	NaN	0.000000	0.001553	0.001624	28.1028	0.094703	0.002065	45.8716	159.428	-167.706	0.038238	0.505571	-0.553087	-0.554401	0.020918	45.8716	-0.553429	-1.894285E+7	-1.104277E-9	NaN
26	1.000000	0.514884	7.3653e+06	-39939.1	955.818	-29792.6	0.000000	0.000000	6.514918	-0.046313	NaN	0.000000	0.001545	0.001613	28.1019	0.054696	0.001985	27.5553	87.4511	-169.01	0.024439	0.513608	-0.545089	-0.546364	-0.046313	27.5553	-0.543828	-1.394558E+7	3.320954E-9	NaN
26	1.000000	0.522923	7.3653e+06	-39939.1	955.818	-29792.6	0.000000	0.000000	6.522961	0.062523	NaN	0.000000	0.001543	0.001596	28.1027	0.045932	0.001931	23.7902	-134.058	-166.34	0.136077	0.521586	-0.537050	-0.538386	0.062523	23.7902	-0.539021	-1.196119E+7	-5.227115E-9	NaN
26	1.000000	0.530920	7.3653e+06	-39939.1	955.819	-29792.6	0.000000	0.000000	6.530955	-0.021373	NaN	0.000000	0.001581	0.001582	28.1024	0.072144	0.002028	35.5773	116.5	-164.978	0.048186	0.529600	-0.529052	-0.530373	-0.021373	35.5773	-0.528602	-8.57341e+06	2.492937E-9	NaN
26	1.000000	0.538920	7.3653e+06	-39939.1	955.818	-29792.6	0.000000	0.000000	6.538958	0.031773	NaN	0.000000	0.001556	0.001581	28.1007	0.010126	0.001914	5.289374	-55.584	-166.708	0.063185	0.537620	-0.521052	-0.522353	0.031773	5.289374	-0.525557	-7.77773e+06	-4.085118E-9	NaN
26	1.000000	0.546923	7.3653e+06	-39939.1	955.819	-29792.6	0.000000	0.000000	6.546963	0.097454	NaN	0.000000	0.001591	0.001567	28.1013	0.040134	0.002063	19.4521	120.961	-164.468	0.069260	0.545621	-0.513049	-0.514352	0.097454	19.4521	-0.516807	-5.87724e+06	-1.658159E-8	NaN
26	1.000000	0.554925	7.3653e+06	-39939.1	955.818	-29792.6	0.000000	0.000000	6.554961	0.010100	NaN	0.000000	0.001571	0.001638	28.1007	0.029980	0.002046	14.6544	46.5759	-165.788	0.017943	0.553620	-0.505048	-0.506352	0.010100	14.6544	-0.505565	-4.09839e+06	-2.464259E-9	NaN
26	1.000000	0.562928	7.3653e+06	-39939.1	955.818	-29792.6	0.000000	0.000000	6.562963	-0.015182	NaN	0.000000	0.001560	0.001643	28.1012	0.066951	0.001969	34.003	-26.9793	-166.365	-0.022359	0.561619	-0.497044	-0.498353	-0.015182	34.003	-0.496709	-3.08389e+06	4.923009E-9	NaN
26	1.000000	0.570959	7.3653e+06	-39939.1	955.819	-29792.6	0.000000	0.000000	6.570996	0.020468	NaN	0.000000	0.001571	0.001635	28.1004	0.038930	0.002030	19.1756	-105.605	-165.433	0.041728	0.569627	-0.489013	-0.490345	0.020468	19.1756	-0.489813	-2.47051e+06	-8.285097E-9	NaN
26	1.000000	0.578928	7.3653e+06	-39939.1	955.818	-29792.6	0.000000	0.000000	6.578966	0.065454	NaN	0.000000	0.001563	0.001602	28.1025	0.165581	0.001972	83.9759	-135.664	-165.73	0.051259	0.577655	-0.481045	-0.482317	0.065454	83.9759	-0.481629	-1.89815e+06	-3.448274E-8	NaN
26	1.000000	0.586946	7.3653e+06	-39939.1	955.818	-29792.6	0.000000	0.000000	6.586984	0.053081	NaN	0.000000	0.001542	0.001624	28.1019	0.076169	0.001977	38.5251	-179.942	-165.835	0.096090	0.585631	-0.473026	-0.474342	0.053081	38.5251	-0.474059	-1.48702e+06	-3.569637E-8	NaN
26	1.000000	0.594924	7.3653e+06	-39939.1	955.818	-29792.6	0.000000	0.000000	6.594961	0.023279	NaN	0.000000	0.001558	0.001659	28.1016	0.056181	0.002027	27.71	-78.5312	-170.105	0.057401	0.593665	-0.465048	-0.466307	0.023279	27.71	-0.465678	-1.13441e+06	-2.052089E-8	NaN
26	1.000000	0.602954	7.3653e+06	-39939.1	955.817	-29792.6	0.000000	0.000000	6.602992	0.059636	NaN	0.000000	0.001541	0.001652	28.1016	0.035167	0.001938	18.1447	143.633	-166.975	0.100760	0.601679	-0.457019	-0.458294	0.059636	18.1447	-0.459484	-928459	-6.423137E-8	NaN
26	1.000000	0.610961	7.3653e+06	-39939.1	955.818	-29792.6	0.000000	0.000000	6.610999	0.070983	NaN	0.000000	0.001552	0.001645	28.1006	0.009228	0.001963	4.699806	-75.4838	-167.042	0.051018	0.609678	-0.449012	-0.450295	0.070983	4.699806	-0.460339	-954519	-7.436562E-8	NaN
26	1.000000	0.618952	7.3653e+06	-39939.1	955.818	-29792.6	0.000000	0.000000	6.618989	0.030845	NaN	0.000000	0.001527	0.001621	28.1001	0.083235	0.002094	39.7466	-100.099	-168.284	0.038144	0.617659	-0.441020	-0.442313	0.030845	39.7466	-0.441602	-519962	-5.932154E-8	NaN
26	1.000000	0.626959	7.3653e+06	-39939.1	955.819	-29792.6	0.000000	0.000000	6.626994	-0.003521	NaN	0.000000	0.001532	0.001601	28.0993	0.054269	0.001984	27.3589	-58.0006	-168.017	0.033868	0.625611	-0.433014	-0.434361	-0.003521	27.3589	-0.432917	-392026	8.981340E-9	NaN
26	1.000000	0.634964	7.3653e+06	-39939.1	955.818	-29792.6	0.000000	0.000000	6.635002	0.052951	NaN	0.000000	0.001574	0.001617	28.0992	0.092910	0.002029	45.7924	-74.3314	-165.264	-0.016030	0.633654	-0.425008	-0.426318	0.052951	45.7924	-0.425875	-311657	-1.699012E-7	NaN
26	1.000000	0.642986	7.3653e+06	-39939.1	955.818	-29792.6	0.000000	0.000000	6.643025	0.076000	NaN	0.000000	0.001512	0.001632	28.1	0.034332	0.002116	16.2238	-12.3203	-166.69	0.079077	0.641636	-0.416986	-0.418336	0.076000	16.2238	-0.420499	-261514	-2.906158E-7	NaN
26	1.000000	0.650979	7.3653e+06	-39939.1	955.817	-29792.6	0.000000	0.000000	6.651015	0.018231	NaN	0.000000	0.001567	0.001627	28.0993	0.014604	0.001979	7.379748	-123.314	-165.845	-0.008672	0.649686	-0.408994	-0.410286	0.018231	7.379748	-0.410846	-190738	-9.558264E-8	NaN
26	1.000000	0.658978	7.3653e+06	-39939.1	955.819	-29792.7	0.000000	0.000000	6.659014	0.003595	NaN	0.000000	0.001569	0.001596	28.1005	0.129772	0.001990	65.2181	171.893	-166.158	-0.005598	0.657693	-0.400994	-0.402280	0.003595	65.2181	-0.401036	-138280	-2.599900E-8	NaN
26	1.000000	0.666961	7.3653e+06	-39939.1	955.818	-29792.6	0.000000	0.000000	6.666998	0.013176	NaN	0.000000	0.001570	0.001566	28.1006	0.069917	0.001991	35.1236	107.486	-164.925	0.041484	0.665641	-0.393011	-0.394331	0.013176	35.1236	-0.393292	-107211	-1.228969E-7	NaN
26	1.000000	0.674973	7.3653e+06	-39939.1	955.818	-29792.7	0.000000	0.000000	6.675011	0.055742	NaN	0.000000	0.001544	0.001577	28.1011	0.072756	0.001905	38.1825	62.3014	-166.909	0.078625	0.673690	-0.384999	-0.386282	0.055742	38.1825	-0.386094	-84578.4	-6.590522E-7	NaN
26	1.000000	0.682969	7.3653e+06	-39939.1	955.82	-29792.7	0.000000	0.000000	6.683007	0.041889	NaN	0.000000	0.001518	0.001630	28.1007	0.020253	0.002053	9.866498	-154.677	-166.481	-0.028114	0.681640	-0.377003	-0.378332	0.041889	9.866498	-0.380187	-69594.6	-6.018987E-7	NaN
26	1.000000	0.690983	7.3653e+06	-39939.1	955.818	-29792.7	0.000000	0.000000	6.691021	0.050255	NaN	0.000000	0.001528	0.001621	28.1002	0.025622	0.002132	12.0155	-45.1911	-163.779	0.114883	0.689661	-0.368989	-0.370312	0.050255	12.0155	-0.372126	-53301.3	-9.428471E-7	NaN
26	1.000000	0.698971	7.3653e+06	-39939.1	955.818	-29792.7	0.000000	0.000000	6.699008	0.045730	NaN	0.000000	0.001552	0.001618	28.0984	0.015169	0.002005	7.564958	-32.8148	-164.749	-0.012012	0.697661	-0.361002	-0.362311	0.045730	7.564958	-0.365535	-42833.1	-1.067635E-6	NaN
26	1.000000	0.706992	7.3653e+06	-39939.1	955.819	-29792.7	0.000000	0.000000	6.707028	0.009787	NaN	0.000000	0.001559	0.001603	28.0995	0.036144	0.002130	16.9727	-151.222	-168.263	0.059784	0.705734	-0.352981	-0.354238	0.009787	16.9727	-0.353413	-28609.2	-3.420982E-7	NaN
26	1.000000	0.714992	7.3653e+06	-39939.1	955.819	-29792.7	0.000000	0.000000	6.715030	0.043415	NaN	0.000000	0.001528	0.001642	28.0992	0.051531	0.001984	25.9697	-110.736	-164.852	0.051082	0.713741	-0.344980	-0.346231	0.043415	25.9697	-0.346234	-22505.9	-1.929052E-6	NaN
26	1.000000	0.723014	7.3653e+06	-39939.1	955.816	-29792.7	0.000000	0.000000	6.723052	0.061332	NaN	0.000000	0.001552	0.001629	28.0993	0.090138	0.001934	46.6002	-67.6182	-168.292	0.006750	0.721736	-0.336959	-0.338236	0.061332	46.6002	-0.337946	-17045	-3.598230E-6	NaN
26	1.000000	0.731013	7.3653e+06	-39939.1	955.818	-29792.7	0.000000	0.000000	6.731052	0.072389	NaN	0.000000	0.001594	0.001619	28.0995	0.029306	0.002043	14.3447	62.3412	-165.508	-0.010211	0.729721	-0.328960	-0.330251	0.072389	14.3447	-0.332744	-14309.2	-5.058915E-6	NaN
26	1.000000	0.739010	7.3653e+06	-39939.1	955.818	-29792.7	0.000000	0.000000	6.739048	0.046551	NaN	0.000000	0.001560	0.001581	28.1006	0.061446	0.002033	30.2267	-107.613	-164.25	0.106334	0.737660	-0.320962	-0.322312	0.046551	30.2267	-0.322117	-9994.95	-4.657467E-6	NaN
26	1.000000	0.747029	7.3653e+06	-39939.1	955.819	-29792.7	0.000000	0.000000	6.747065	-0.009598	NaN	0.000000	0.001572	0.001601	28.1004	0.132545	0.002037	65.0842	-62.587	-166.868	0.053342	0.745717	-0.312943	-0.314255	-0.009598	65.0842	-0.312832	-7293.55	1.315974E-6	NaN
26	1.000000	0.755001	7.3653e+06	-39939.1	955.816	-29792.7	0.000000	0.000000	6.755039	0.040664	NaN	0.000000	0.001548	0.001609	28.1013	0.108936	0.001874	58.1216	-159.306	-167.871	-0.018564	0.753718	-0.304971	-0.306254	0.040664	58.1216	-0.305496	-5679.49	-7.159828E-6	NaN
26	1.000000	0.763032	7.3653e+06	-39939.1	955.818	-29792.7	0.000000	0.000000	6.763069	0.019086	NaN	0.000000	0.001563	0.001626	28.1014	0.088584	0.002090	42.3824	-70.4096	-166.254	0.073994	0.761690	-0.296940	-0.298282	0.019086	42.3824	-0.297278	-4286.31	-4.452719E-6	NaN
26	1.000000	0.771029	7.3653e+06	-39939.1	955.818	-29792.7	0.000000	0.000000	6.771066	0.026641	NaN	0.000000	0.001560	0.001614	28.1006	0.070234	0.002139	32.8409	-60.4266	-167.522	-0.050136	0.769743	-0.288943	-0.290229	0.026641	32.8409	-0.289552	-3285.38	-8.108801E-6	NaN
26	1.000000	0.778993	7.3653e+06	-39939.1	955.817	-29792.7	0.000000	0.000000	6.779032	0.079449	NaN	0.000000	0.001554	0.001623	28.0999	0.059949	0.001966	30.4918	45.1895	-167.605	0.090935	0.777755	-0.280979	-0.282217	0.079449	30.4918	-0.282934	-2613.25	-3.040248E-5	NaN
26	1.000000	0.787050	7.3653e+06	-39939.1	955.819	-29792.7	0.000000	0.000000	6.787085	-0.040527	NaN	0.000000	0.001566	0.001602	28.0998	0.064345	0.001988	32.3645	20.1325	-165.395	0.063460	0.785746	-0.272922	-0.274226	-0.040527	32.3645	-0.271983	-1785.09	2.270291E-5	NaN
26	1.000000	0.795032	7.3653e+06	-39939.1	955.819	-29792.7	0.000000	0.000000	6.795070	0.063744	NaN	0.000000	0.001552	0.001577	28.0997	0.062232	0.001948	31.9507	-124.425	-168.96	0.047427	0.793672	-0.264941	-0.266300	0.063744	31.9507	-0.266437	-1469.96	-4.336457E-5	NaN
26	1.000000	0.803080	7.3653e+06	-39939.1	955.818	-29792.7	0.000000	0.000000	6.803117	0.032942	NaN	0.000000	0.001549	0.001597	28.0996	0.091409	0.002076	44.0379	-53.2894	-166.38	0.029910	0.801705	-0.256892	-0.258267	0.032942	44.0379	-0.257453	-1071.12	-3.075441E-5	NaN
26	1.000000	0.811039	7.3653e+06	-39939.1	955.818	-29792.7	0.000000	0.000000	6.811078	0.072618	NaN	0.000000	0.001550	0.001668	28.0998	0.081169	0.001959	41.4315	83.9617	-165.009	0.103884	0.809668	-0.248933	-0.250305	0.072618	41.4315	-0.250248	-829.459	-8.754898E-5	NaN
26	1.000000	0.819050	7.3653e+06	-39939.1	955.819	-29792.7	0.000000	0.000000	6.819086	0.001585	NaN	0.000000	0.001568	0.001616	28.1013	0.076908	0.002003	38.3971	14.8718	-164.661	-0.065738	0.817769	-0.240922	-0.242203	0.001585	38.3971	-0.240953	-594.877	-2.663736E-6	NaN
26	1.000000	0.827045	7.3653e+06	-39939.1	955.818	-29792.7	0.000000	0.000000	6.827084	0.062266	NaN	0.000000	0.001566	0.001616	28.101	0.042757	0.002015	21.2234	-151.813	-170.459	0.086174	0.825790	-0.232927	-0.234182	0.062266	21.2234	-0.235127	-482.223	-0.000129	NaN
26	1.000000	0.835005	7.3653e+06	-39939.1	955.818	-29792.7	0.000000	0.000000	6.835041	-0.004623	NaN	0.000000	0.001530	0.001599	28.0992	0.079366	0.001939	40.9311	-111.328	-168.908	-0.023646	0.833779	-0.224967	-0.226193	-0.004623	40.9311	-0.224882	-332.251	1.391374E-5	NaN
26	1.000000	0.843019	7.3653e+06	-39939.1	955.818	-29792.7	0.000000	0.000000	6.843057	0.060520	NaN	0.000000	0.001584	0.001593	28.1013	0.116058	0.002124	54.6455	-48.8543	-166.3	0.060213	0.841702	-0.216953	-0.218270	0.060520	54.6455	-0.217784	-255.982	-0.000236	NaN
26	1.000000	0.851057	7.3653e+06	-39939.1	955.819	-29792.7	0.000000	0.000000	6.851093	0.013474	NaN	0.000000	0.001560	0.001602	28.1009	0.097769	0.002034	48.0778	-38.701	-168.774	-0.012335	0.849736	-0.208915	-0.210237	0.013474	48.0778	-0.209126	-185.631	-7.258344E-5	NaN
26	1.000000	0.859059	7.3653e+06	-39939.1	955.817	-29792.7	0.000000	0.000000	6.859095	-0.007796	NaN	0.000000	0.001543	0.001592	28.0993	0.045840	0.001845	24.8405	-67.931	-164.96	0.018625	0.857689	-0.200913	-0.202284	-0.007796	24.8405	-0.200678	-135.156	5.767825E-5	NaN
26	1.000000	0.867038	7.3653e+06	-39939.1	955.817	-29792.7	0.000000	0.000000	6.867073	-0.005400	NaN	0.000000	0.001573	0.001598	28.1006	0.026597	0.001951	13.6353	89.6303	-165.159	0.062872	0.865705	-0.192935	-0.194267	-0.005400	13.6353	-0.192638	-99.5387	5.424899E-5	NaN
26	1.000000	0.875069	7.3653e+06	-39939.1	955.818	-29792.7	0.000000	0.000000	6.875108	0.072188	NaN	0.000000	0.001576	0.001580	28.0993	0.036942	0.002024	18.2544	-159.669	-167.763	0.119620	0.873781	-0.184903	-0.186192	0.072188	18.2544	-0.187869	-82.8639	-0.000871	NaN
26	1.000000	0.883047	7.3653e+06	-39939.1	955.817	-29792.7	0.000000	0.000000	6.883084	0.043450	NaN	0.000000	0.001561	0.001582	28.0982	0.063885	0.001988	32.1348	-174.443	-167.561	0.040859	0.881757	-0.176926	-0.178216	0.043450	32.1348	-0.177940	-56.2785	-0.000772	NaN
26	1.000000	0.891056	7.3653e+06	-39939.1	955.818	-29792.7	0.000000	0.000000	6.891095	0.073925	NaN	0.000000	0.001557	0.001579	28.0985	0.033650	0.002105	15.9828	-8.369308	-165.942	-0.041055	0.889754	-0.168916	-0.170218	0.073925	15.9828	-0.172385	-45.1782	-0.001636	NaN
26	1.000000	0.899041	7.3653e+06	-39939.1	955.818	-29792.7	0.000000	0.000000	6.899079	0.034715	NaN	0.000000	0.001562	0.001581	28.0991	0.028483	0.002000	14.24	-37.0626	-165.711	0.108338	0.897791	-0.160931	-0.162182	0.034715	14.24	-0.162759	-30.6802	-0.001132	NaN
26	1.000000	0.907072	7.3653e+06	-39939.1	955.817	-29792.7	0.000000	0.000000	6.907109	0.021797	NaN	0.000000	0.001619	0.001567	28.0989	0.079545	0.002014	39.5009	50.6196	-170.184	0.036491	0.905766	-0.152900	-0.154206	0.021797	39.5009	-0.153314	-20.8055	-0.001048	NaN
26	1.000000	0.915061	7.3653e+06	-39939.1	955.819	-29792.7	0.000000	0.000000	6.915096	-0.025231	NaN	0.000000	0.001630	0.001576	28.0987	0.109894	0.001959	56.108	19.998	-166.943	-0.002189	0.913777	-0.144911	-0.146195	-0.025231	56.108	-0.144574	-14.3973	0.001753	NaN
26	1.000000	0.923082	7.3653e+06	-39939.1	955.818	-29792.7	0.000000	0.000000	6.923118	0.013091	NaN	0.000000	0.001690	0.001558	28.0985	0.084166	0.002044	41.1828	-121.433	-167.386	0.000600	0.921744	-0.136891	-0.138228	0.013091	41.1828	-0.137129	-10.4422	-0.001254	NaN
26	1.000000	0.931096	7.3653e+06	-39939.1	955.818	-29792.7	0.000000	0.000000	6.931134	0.053372	NaN	0.000000	0.001643	0.001558	28.0984	0.063823	0.002200	29.0097	14.1646	-166.221	0.109785	0.929759	-0.128877	-0.130213	0.053372	29.0097	-0.130256	-7.708876	-0.006923	NaN
26	1.000000	0.939098	7.3653e+06	-39939.1	955.818	-29792.7	0.000000	0.000000	6.939133	-0.017451	NaN	0.000000	0.001624	0.001569	28.098	0.116509	0.001956	59.5551	57.3085	-162.574	0.077470	0.937739	-0.120875	-0.122233	-0.017451	59.5551	-0.120655	-4.980630	0.003504	NaN
26	1.000000	0.947103	7.3653e+06	-39939.1	955.819	-29792.7	0.000000	0.000000	6.947140	0.029255	NaN	0.000000	0.001595	0.001616	28.098	0.072277	0.001924	37.575	-80.9703	-165.851	0.055130	0.945800	-0.112870	-0.114172	0.029255	37.575	-0.113453	-3.549078	-0.008243	NaN
26	1.000000	0.955071	7.3653e+06	-39939.1	955.818	-29792.7	0.000000	0.000000	6.955108	0.048542	NaN	0.000000	0.001629	0.001603	28.0977	0.047743	0.002030	23.5219	-43.2197	-166.006	0.048630	0.953798	-0.104902	-0.106174	0.048542	23.5219	-0.106449	-2.525646	-0.019220	NaN
26	1.000000	0.963128	7.3653e+06	-39939.1	955.818	-29792.7	0.000000	0.000000	6.963166	0.038459	NaN	0.000000	0.001596	0.001577	28.0986	0.122597	0.001953	62.781	92.7371	-167.357	0.078057	0.961801	-0.096844	-0.098171	0.038459	62.781	-0.097304	-1.590617	-0.024179	NaN
26	1.000000	0.971087	7.3653e+06	-39939.1	955.818	-29792.7	0.000000	0.000000	6.971126	0.079258	NaN	0.000000	0.001647	0.001581	28.098	0.096540	0.002067	46.715	-65.5968	-166.36	0.086121	0.969840	-0.088885	-0.090132	0.079258	46.715	-0.090158	-1.090235	-0.072698	NaN
26	1.000000	0.979079	7.3653e+06	-39939.1	955.818	-29792.7	0.000000	0.000000	6.979118	0.065277	NaN	0.000000	0.001625	0.001602	28.0988	0.051633	0.002105	24.5245	117.313	-163.516	0.102991	0.977734	-0.080893	-0.082238	0.065277	24.5245	-0.082889	-0.729870	-0.089437	NaN
26	1.000000	0.987089	7.3653e+06	-39939.1	955.818	-29792.7	0.000000	0.000000	6.987127	0.052889	NaN	0.000000	0.001608	0.001613	28.099	0.025387	0.001893	13.4107	38.1106	-164.802	0.077259	0.985814	-0.072884	-0.074159	0.052889	13.4107	-0.075841	-0.485539	-0.108928	NaN
26	1.000000	0.995114	7.3653e+06	-39939.1	955.818	-29792.7	0.000000	0.000000	6.995151	0.034343	NaN	0.000000	0.001536	0.001568	28.0982	0.044883	0.001917	23.4177	106.99	-164.968	-0.035648	0.993835	-0.064858	-0.066137	0.034343	23.4177	-0.065958	-0.264894	-0.129649	NaN
26	1.000000	1.003098	7.3653e+06	-39939.1	955.817	-29792.7	0.000000	0.000000	7.003134	-0.014192	NaN	0.000000	0.001525	0.001604	28.0986	0.056107	0.001950	28.7702	-120.675	-166.435	-0.013577	1.001797	-0.056874	-0.058175	-0.014192	28.7702	-0.056504	-0.142596	0.099524	NaN
26	1.000000	1.011106	7.3653e+06	-39939.1	955.818	-29792.7	0.000000	0.000000	7.011142	-0.000127	NaN	0.000000	0.001523	0.001596	28.0987	0.052335	0.001979	26.45	159.131	-166.392	-0.029383	1.009833	-0.048866	-0.050139	-0.000127	26.45	-0.048862	-0.084287	0.001512	NaN
26	1.000000	1.019155	7.3653e+06	-39939.1	955.819	-29792.7	0.000000	0.000000	7.019188	-0.078400	NaN	0.000000	0.001547	0.001566	28.0986	0.087863	0.002123	41.381	154.341	-167.476	-0.021200	1.017794	-0.040817	-0.042179	-0.078400	41.381	-0.039396	-0.043355	1.808317	NaN
26	1.000000	1.027109	7.3653e+06	-39939.1	955.818	-29792.7	0.000000	0.000000	7.027145	-0.009427	NaN	0.000000	0.001541	0.001601	28.0983	0.060977	0.002048	29.7711	-110.664	-167.75	0.036896	1.025792	-0.032863	-0.034180	-0.009427	29.7711	-0.032625	-0.027311	0.345175	NaN
26	1.000000	1.035115	7.3653e+06	-39939.1	955.818	-29792.7	0.000000	0.000000	7.035154	0.064967	NaN	0.000000	0.001590	0.001603	28.0989	0.071918	0.002067	34.7889	36.4206	-166.991	0.045518	1.033847	-0.024857	-0.026126	0.064967	34.7889	-0.026258	-0.018207	-3.568334	NaN
26	1.000000	1.043130	7.3653e+06	-39939.1	955.818	-29792.7	0.000000	0.000000	7.043169	0.068283	NaN	0.000000	0.001567	0.001604	28.0996	0.020960	0.002007	10.4429	93.1961	-164.023	0.076012	1.041797	-0.016842	-0.018175	0.068283	10.4429	-0.021746	-0.013912	-4.908033	NaN
26	1.000000	1.051149	7.3653e+06	-39939.1	955.817	-29792.7	0.000000	0.000000	7.051187	0.065273	NaN	0.000000	0.001574	0.001563	28.0984	0.095921	0.002121	45.232	-102.434	-164.118	0.034101	1.049828	-0.008824	-0.010144	0.065273	45.232	-0.009906	-0.006334	-10.3059	NaN
26	1.000000	1.059105	7.3653e+06	-39939.1	955.818	-29792.7	0.000000	0.000000	7.059142	0.008995	NaN	0.000000	0.001586	0.001591	28.0992	0.163566	0.001866	87.6407	33.1427	-165.362	-0.073864	1.057801	-0.000867	-0.002171	0.008995	87.6407	-0.000944	-0.000693	-12.9838	NaN
26	1.000000	1.067052	7.3653e+06	-39939.1	955.818	-29792.7	0.000000	0.000000	7.067394	7.433454	NaN	0.000000	0.001540	0.001570	28.0994	7.077989	0.001728	4095	11.2778	-173.933	5.730147	1.065773	0.007080	0.005801	7.433454	4095	0.005718	0.004799	1549.08	54009.2
26	2.000000	1.069765	7.3653e+06	-39939.1	955.817	-29792.7	0.000000	0.000000	7.070250	10.9238	NaN	0.000000	0.001557	0.001544	28.0999	9.643686	0.001755	5494.75	6.741989	-173.308	10.3427	1.069508	0.009793	0.009536	10.9238	5494.75	0.008302	0.007355	1485.26	58537.9
26	2.000000	1.071761	7.3653e+06	-39939.1	955.819	-29792.7	0.000000	0.000000	7.072355	13.5692	NaN	0.000000	0.001539	0.001540	28.1002	12.4139	0.001741	7128.37	8.413265	-177.801	13.3942	1.071409	0.011789	0.011437	13.5692	7128.37	0.010361	0.009586	1415.54	66519.5
26	2.000000	1.073737	7.3653e+06	-39939.1	955.818	-29792.7	0.000000	0.000000	7.074538	18.6339	NaN	0.000000	0.001546	0.001547	28.0989	14.0994	0.001503	9379.03	4.644879	-175.527	18.2282	1.073444	0.013764	0.013471	18.6339	9379.03	0.012274	0.011820	1576.42	78816.2
26	2.000000	1.075683	7.3653e+06	-39939.1	955.818	-29792.7	0.000000	0.000000	7.076602	21.4983	NaN	0.000000	0.001568	0.001578	28.0988	16.5167	0.001824	9055.68	7.461198	-177.966	21.1223	1.075384	0.015711	0.015411	21.4983	9055.68	0.013930	0.013885	1548.27	70212.8
26	2.000000	1.077750	7.3653e+06	-39939.1	955.818	-29792.7	0.000000	0.000000	7.078742	23.2566	NaN	0.000000	0.001553	0.001558	28.0981	17.8928	0.001776	10072.7	8.535722	-176.813	23.1767	1.077413	0.017778	0.017441	23.2566	10072.7	0.016046	0.016706	1392.12	71201
26	2.000000	1.079671	7.3653e+06	-39939.1	955.817	-29792.7	0.000000	0.000000	7.080796	26.491	NaN	0.000000	0.001537	0.001578	28.0977	20.0973	0.001704	11794	6.746247	-179.025	25.5874	1.079377	0.019699	0.019404	26.491	11794	0.018014	0.019517	1357.31	77130.2
26	2.000000	1.081719	7.3653e+06	-39939.1	955.818	-29792.7	0.000000	0.000000	7.083132	33.5158	NaN	0.000000	0.001556	0.001574	28.0986	22.6386	0.001691	13389.8	-0.511224	-172.744	34.8266	1.081395	0.021747	0.021423	33.5158	13389.8	0.019870	0.022338	1500.42	81852.1
26	2.000000	1.083670	7.3653e+06	-39939.1	955.818	-29792.7	0.000000	0.000000	7.085448	42.3956	NaN	0.000000	0.001546	0.001574	28.0999	24.9789	0.001685	14824	7.744507	176.463	41.6911	1.083317	0.023698	0.023344	42.3956	14824	0.021553	0.025041	1693.02	85587.2
26	2.000000	1.085710	7.3653e+06	-39939.1	955.819	-29792.7	0.000000	0.000000	7.087740	48.5301	NaN	0.000000	0.001558	0.001589	28.0996	26.4009	0.001792	14734.4	3.234667	-177.397	48.5758	1.085394	0.025738	0.025421	48.5301	14734.4	0.023268	0.027939	1737	80537.8
26	2.000000	1.087665	7.3653e+06	-39939.1	955.819	-29792.7	0.000000	0.000000	7.090065	57.5245	NaN	0.000000	0.001528	0.001587	28.0997	28.4246	0.001697	16750.1	3.800169	-179.431	55.7741	1.087357	0.027693	0.027385	57.5245	16750.1	0.025117	0.031229	1842	86598
26	2.000000	1.089630	7.3653e+06	-39939.1	955.817	-29792.7	0.000000	0.000000	7.092245	62.7465	NaN	0.000000	0.001555	0.001574	28.0988	30.107	0.001664	18090.8	2.545819	-178.899	60.7788	1.089333	0.029658	0.029361	62.7465	18090.8	0.027057	0.034864	1799.77	88520.7
26	2.000000	1.091643	7.3653e+06	-39939.1	955.818	-29792.7	0.000000	0.000000	7.094488	68.3462	NaN	0.000000	0.001569	0.001536	28.0987	33.0909	0.001751	18901	4.703436	177.101	66.5764	1.091418	0.031671	0.031446	68.3462	18901	0.028959	0.038613	1770.01	87879.5
26	2.000000	1.093730	7.3653e+06	-39939.1	955.817	-29792.7	0.000000	0.000000	7.096895	76.1552	NaN	0.000000	0.001544	0.001552	28.0975	34.7095	0.001750	19835.4	5.563274	179.931	78.6471	1.093323	0.033758	0.033351	76.1552	19835.4	0.030878	0.042584	1788.37	87819.9
26	2.000000	1.095705	7.3653e+06	-39939.1	955.818	-29792.7	0.000000	0.000000	7.099189	83.9229	NaN	0.000000	0.001553	0.001561	28.0966	38.651	0.001732	22315.6	6.537804	175.054	85.9201	1.095401	0.035732	0.035429	83.9229	22315.6	0.032912	0.046996	1785.76	94048.9
26	2.000000	1.097663	7.3653e+06	-39939.1	955.818	-29792.7	0.000000	0.000000	7.101417	90.4786	NaN	0.000000	0.001550	0.001545	28.0974	40.1647	0.001875	21417.4	0.015680	-177.69	88.4154	1.097436	0.037690	0.037464	90.4786	21417.4	0.034522	0.050639	1786.75	86955.7
26	2.000000	1.099639	7.3653e+06	-39939.1	955.818	-29792.7	0.000000	0.000000	7.103957	104.216	NaN	0.000000	0.001561	0.001546	28.0974	42.0367	0.001784	23559.9	4.660538	176.762	104.126	1.099320	0.039666	0.039348	104.216	23559.9	0.036349	0.054933	1897.13	91839.2
26	2.000000	1.101659	7.3653e+06	-39939.1	955.818	-29792.7	0.000000	0.000000	7.106102	107.242	NaN	0.000000	0.001544	0.001566	28.0967	44.6569	0.001879	23760.3	7.533034	173.456	107.986	1.101417	0.041687	0.041445	107.242	23760.3	0.038302	0.059713	1795.95	88836.2
26	2.000000	1.103653	7.3653e+06	-39939.1	955.818	-29792.7	0.000000	0.000000	7.108413	114.965	NaN	0.000000	0.001546	0.001573	28.0972	45.4825	0.001763	25800	6.824537	173.17	112.341	1.103444	0.043681	0.043471	114.965	25800	0.040339	0.064906	1771.25	92523.2
26	2.000000	1.105606	7.3653e+06	-39939.1	955.818	-29792.7	0.000000	0.000000	7.110903	128.019	NaN	0.000000	0.001524	0.001559	28.0974	47.4364	0.001767	26847.9	7.620443	172.938	124.738	1.105359	0.045634	0.045387	128.019	26847.9	0.042058	0.069454	1843.22	93075.4
26	2.000000	1.107696	7.3653e+06	-39939.1	955.818	-29792.7	0.000000	0.000000	7.113524	140.937	NaN	0.000000	0.001532	0.001587	28.0982	49.9018	0.001831	27249.5	6.656558	173.861	142.772	1.107260	0.047724	0.047288	140.937	27249.5	0.043845	0.074343	1895.78	91308.8
26	2.000000	1.109596	7.3653e+06	-39939.1	955.819	-29792.7	0.000000	0.000000	7.115674	147.027	NaN	0.000000	0.001556	0.001578	28.0969	51.1497	0.001852	27624.8	4.633707	175.308	144.31	1.109352	0.049624	0.049380	147.027	27624.8	0.045632	0.079393	1851.9	89574
26	2.000000	1.111568	7.3653e+06	-39939.1	955.82	-29792.7	0.000000	0.000000	7.118141	159.074	NaN	0.000000	0.001535	0.001540	28.0974	52.7722	0.001862	28338.6	4.199240	175.829	153.851	1.111274	0.051596	0.051302	159.074	28338.6	0.047386	0.084504	1882.45	89066.3
26	2.000000	1.113650	7.3653e+06	-39939.1	955.819	-29792.7	0.000000	0.000000	7.120451	164.635	NaN	0.000000	0.001537	0.001572	28.0974	53.9231	0.001847	29197.4	5.790050	173.389	163.124	1.113307	0.053677	0.053335	164.635	29197.4	0.049448	0.090716	1814.84	88567.7
26	2.000000	1.115617	7.3653e+06	-39939.1	955.818	-29792.7	0.000000	0.000000	7.123031	179.542	NaN	0.000000	0.001526	0.001522	28.0955	55.7111	0.001884	29562.9	6.899640	173.601	177.661	1.115245	0.055645	0.055273	179.542	29562.9	0.051090	0.095812	1873.91	87259
26	2.000000	1.117667	7.3653e+06	-39939.1	955.819	-29792.7	0.000000	0.000000	7.125396	187.202	NaN	0.000000	0.001552	0.001571	28.096	57.6257	0.001760	32737.5	5.659981	172.792	187.182	1.117371	0.057695	0.057399	187.202	32737.5	0.053406	0.103232	1813.42	93092.1
26	2.000000	1.119599	7.3653e+06	-39939.1	955.818	-29792.7	0.000000	0.000000	7.127919	201.59	NaN	0.000000	0.001549	0.001564	28.0959	57.9065	0.001855	31208.3	1.115501	178.625	199.536	1.119315	0.059626	0.059343	201.59	31208.3	0.054782	0.107764	1870.65	86857.2
26	2.000000	1.121628	7.3653e+06	-39939.1	955.818	-29792.7	0.000000	0.000000	7.130396	212.48	NaN	0.000000	0.001499	0.001589	28.0969	61.7796	0.001856	33293.9	8.380108	170.193	211.33	1.121233	0.061656	0.061261	212.48	33293.9	0.056870	0.114823	1850.5	89768.4
26	2.000000	1.123616	7.3653e+06	-39939.1	955.819	-29792.7	0.000000	0.000000	7.132966	226.647	NaN	0.000000	0.001548	0.001590	28.0958	61.1634	0.001680	36400	4.339393	173.417	226.028	1.123283	0.063644	0.063311	226.647	36400	0.058974	0.122154	1855.42	95152.8
26	2.000000	1.125623	7.3653e+06	-39939.1	955.819	-29792.7	0.000000	0.000000	7.135448	238.224	NaN	0.000000	0.001568	0.001575	28.0976	65.3356	0.001819	35919.5	7.789788	171.074	238.06	1.125204	0.065651	0.065231	238.224	35919.5	0.060676	0.128245	1857.57	91639.6
26	2.000000	1.127654	7.3653e+06	-39939.1	955.819	-29792.7	0.000000	0.000000	7.138061	252.371	NaN	0.000000	0.001547	0.001588	28.0984	67.4829	0.001817	37133.3	5.899602	172.644	252.757	1.127302	0.067682	0.067329	252.371	37133.3	0.062584	0.135239	1866.11	92254.1
26	2.000000	1.129581	7.3653e+06	-39939.1	955.818	-29792.7	0.000000	0.000000	7.140416	262.782	NaN	0.000000	0.001534	0.001584	28.0985	68.2752	0.001737	39296.6	1.836278	175.618	262.076	1.129280	0.069609	0.069308	262.782	39296.6	0.064594	0.142794	1840.29	95010.9
26	2.000000	1.131627	7.3653e+06	-39939.1	955.818	-29792.7	0.000000	0.000000	7.143031	276.638	NaN	0.000000	0.001521	0.001596	28.099	71.3045	0.001788	39868.7	6.116440	171.72	276.758	1.131299	0.071654	0.071326	276.638	39868.7	0.066450	0.149949	1844.89	94066.3
26	2.000000	1.133569	7.3653e+06	-39939.1	955.818	-29792.7	0.000000	0.000000	7.145490	289.207	NaN	0.000000	0.001526	0.001585	28.0975	71.293	0.001818	39205.6	0.862928	176.134	285.881	1.133274	0.073597	0.073301	289.207	39205.6	0.068064	0.156302	1850.31	90602.4
26	2.000000	1.135545	7.3653e+06	-39939.1	955.819	-29792.7	0.000000	0.000000	7.148128	305.323	NaN	0.000000	0.001531	0.001573	28.0966	74.2024	0.001826	40642.5	4.460854	172.898	299.56	1.135229	0.075573	0.075257	305.323	40642.5	0.069939	0.163838	1863.56	91737.2
26	2.000000	1.137610	7.3653e+06	-39939.1	955.82	-29792.7	0.000000	0.000000	7.150669	316.886	NaN	0.000000	0.001536	0.001568	28.0971	76.0197	0.001732	43886.9	6.325826	170.328	314.61	1.137208	0.077638	0.077235	316.886	43886.9	0.072223	0.173247	1829.09	96333
26	2.000000	1.139504	7.3653e+06	-39939.1	955.819	-29792.7	0.000000	0.000000	7.153148	331.152	NaN	0.000000	0.001494	0.001583	28.0973	76.5646	0.001675	45710.8	2.168425	173.728	325.325	1.139274	0.079531	0.079301	331.152	45710.8	0.074098	0.181157	1827.99	98121.6
26	2.000000	1.141636	7.3653e+06	-39939.1	955.82	-29792.7	0.000000	0.000000	7.155746	342.484	NaN	0.000000	0.001502	0.001556	28.0966	80.7282	0.001677	48144.8	3.891128	171.548	343.033	1.141289	0.081664	0.081317	342.484	48144.8	0.076329	0.190782	1795.16	100706
26	2.000000	1.143513	7.3653e+06	-39939.1	955.818	-29792.7	0.000000	0.000000	7.158514	364.162	NaN	0.000000	0.001533	0.001572	28.0963	82.0918	0.001753	46834.2	6.874696	168.964	360.575	1.143335	0.083541	0.083363	364.162	46834.2	0.077709	0.196853	1849.92	96441.6
26	2.000000	1.145523	7.3653e+06	-39939.1	955.82	-29792.7	0.000000	0.000000	7.161180	380.112	NaN	0.000000	0.001571	0.001543	28.0977	84.6539	0.001904	44452.6	2.995641	173.516	375.75	1.145208	0.085551	0.085236	380.112	44452.6	0.079138	0.203234	1870.32	90089.2
26	2.000000	1.147636	7.3653e+06	-39939.1	955.819	-29792.7	0.000000	0.000000	7.163837	393.376	NaN	0.000000	0.001587	0.001573	28.0982	85.7044	0.001743	49165.4	3.140090	172.475	392.249	1.147300	0.087663	0.087328	393.376	49165.4	0.081663	0.214739	1831.88	96934.3
26	2.000000	1.149553	7.3653e+06	-39939.1	955.819	-29792.7	0.000000	0.000000	7.166509	411.731	NaN	0.000000	0.001609	0.001574	28.0974	86.5984	0.001707	50736.9	3.636158	171.792	410.107	1.149262	0.089581	0.089290	411.731	50736.9	0.083494	0.223271	1844.09	98102.6
26	2.000000	1.151554	7.3653e+06	-39939.1	955.818	-29792.7	0.000000	0.000000	7.168936	422.113	NaN	0.000000	0.001533	0.001581	28.0982	90.4162	0.001778	50853.7	5.521923	169.625	420.281	1.151371	0.091581	0.091399	422.113	50853.7	0.085356	0.232103	1818.65	96439.6
26	2.000000	1.153595	7.3653e+06	-39939.1	955.818	-29792.7	0.000000	0.000000	7.171807	442.305	NaN	0.000000	0.001541	0.001553	28.0967	90.6668	0.001740	52105.4	4.628290	170.273	440.716	1.153270	0.093622	0.093297	442.305	52105.4	0.087256	0.241281	1833.15	96915.8
26	2.000000	1.155440	7.3653e+06	-39939.1	955.819	-29792.7	0.000000	0.000000	7.174465	462.106	NaN	0.000000	0.001565	0.001591	28.0963	93.0426	0.001686	55176.7	6.893606	167.872	453.663	1.155203	0.095467	0.095231	462.106	55176.7	0.089186	0.250775	1842.71	100667
26	2.000000	1.157658	7.3653e+06	-39939.1	955.82	-29792.7	0.000000	0.000000	7.177478	481.431	NaN	0.000000	0.001510	0.001571	28.096	96.0951	0.001709	56231.3	6.258631	168.884	482.434	1.157199	0.097685	0.097227	481.431	56231.3	0.091264	0.261187	1843.24	100525
26	2.000000	1.159614	7.3653e+06	-39939.1	955.819	-29792.7	0.000000	0.000000	7.179621	485.999	NaN	0.000000	0.001502	0.001591	28.0953	97.4588	0.001686	57818.5	4.743954	169.104	484.707	1.159501	0.099641	0.099528	485.999	57818.5	0.093337	0.271772	1788.26	101330
26	2.000000	1.161591	7.3653e+06	-39939.1	955.819	-29792.7	0.000000	0.000000	7.182656	511.739	NaN	0.000000	0.001557	0.001588	28.0966	99.7448	0.001734	57528.4	2.140007	172.67	512.343	1.161311	0.101619	0.101339	511.739	57528.4	0.094947	0.280127	1826.81	99306.6
26	2.000000	1.163510	7.3653e+06	-39939.1	955.819	-29792.7	0.000000	0.000000	7.185079	523.984	NaN	0.000000	0.001547	0.001590	28.0945	101.727	0.001869	54436.7	5.635768	168.857	519.229	1.163323	0.103538	0.103351	523.984	54436.7	0.096319	0.287339	1823.58	92782.9
26	2.000000	1.165573	7.3653e+06	-39939.1	955.819	-29792.7	0.000000	0.000000	7.188174	549.095	NaN	0.000000	0.001491	0.001620	28.0967	103.954	0.001818	57187.5	6.332194	168.151	548.229	1.165180	0.105601	0.105208	549.095	57187.5	0.098400	0.298446	1839.85	95640.5
26	2.000000	1.166606	7.3653e+06	-39939.1	955.819	-29792.7	0.000000	0.000000	7.189446	554.92	NaN	0.000000	0.001512	0.001648	28.0977	103.9	0.001881	55225.2	6.883671	169.286	554.345	1.166145	0.106634	0.106173	554.92	55225.2	0.099098	0.302214	1836.19	91781.1