File: remote_trans/data/nanoindenter/0828-1/data/Data_2025-08-06,11h17m57s/2025-07-22_16-23-58_1_0.txt
2025-07-22, 16:23:58, 1
Index	Phase	Displacement	Time	Pos X	Pos Y	Pos Z	Rot A	Rot B	Piezo Z	Force A	Force B	Gripper	Voltage A	Voltage B	Temperature	Amplitude force	Amplitude pos	Stiffness	Phase shift	Phase excitation	Force A raw	Displacement raw	HMax	HMax raw	Real Force	Real Stiffness	Contact Depth	Area	Hardness	Reduced Mod.
[#]	[#]	[um]	[s]	[um]	[um]	[um]	[m°]	[m°]	[um]	[uN]	[uN]	[V]	[V]	[V]	[°C]	[uN]	[um]	[N/m]	[°]	[°]	[uN]	[um]	[um]	[um]	[uN]	[N/m]	[um]	[um^2]	[MPa]	[MPa]
0.000000	1.000000	0.003022	7.36504e+06	-38639.1	955.818	-29794.8	0.000000	0.000000	6.002600	-0.018344	NaN	0.000000	0.001646	0.001496	28.0988	0.069285	0.000968	71.5527	15.6479	-154.575	-0.042265	0.001747	-0.998659	-0.999934	-0.018344	71.5527	-0.998467	-2.163329E+13	8.479744E-16	NaN
0.000000	1.000000	0.011036	7.36504e+06	-38639.1	955.818	-29794.8	0.000000	0.000000	6.010615	0.002471	NaN	0.000000	0.001620	0.001487	28.0991	0.043114	0.000985	43.7627	169.269	-156.195	0.005468	0.009649	-0.990645	-0.992032	0.002471	43.7627	-0.990687	-1.699674E+13	-1.453803E-16	NaN
0.000000	1.000000	0.019023	7.36504e+06	-38639.1	955.818	-29794.8	0.000000	0.000000	6.018602	-0.005361	NaN	0.000000	0.001619	0.001513	28.0976	0.104794	0.001626	64.4672	-81.9738	-164.87	-0.102232	0.017714	-0.982658	-0.983967	-0.005361	64.4672	-0.982596	-1.322444E+13	4.054042E-16	NaN
0.000000	1.000000	0.027070	7.36504e+06	-38639.1	955.818	-29794.8	0.000000	0.000000	6.026647	-0.033125	NaN	0.000000	0.001624	0.001548	28.0969	0.006478	0.001879	3.448279	16.722	-162.365	0.031484	0.025739	-0.974611	-0.975942	-0.033125	3.448279	-0.967407	-8.254927E+12	4.012698E-15	NaN
0.000000	1.000000	0.035058	7.36504e+06	-38639.1	955.818	-29794.8	0.000000	0.000000	6.034639	0.061055	NaN	0.000000	0.001641	0.001569	28.0963	0.089300	0.001848	48.3337	145.953	-166.772	0.032629	0.033780	-0.966623	-0.967901	0.061055	48.3337	-0.967570	-8.296912E+12	-7.358809E-15	NaN
0.000000	1.000000	0.043080	7.36504e+06	-38639.1	955.818	-29794.8	0.000000	0.000000	6.042659	0.024112	NaN	0.000000	0.001639	0.001540	28.0975	0.086711	0.001981	43.7664	146.213	-166.456	-0.012949	0.041750	-0.958601	-0.959931	0.024112	43.7664	-0.959015	-6.361849E+12	-3.790134E-15	NaN
0.000000	1.000000	0.051069	7.36504e+06	-38639.1	955.818	-29794.8	0.000000	0.000000	6.050649	0.024653	NaN	0.000000	0.001647	0.001548	28.0963	0.056593	0.001856	30.4877	-9.696124	-164.974	0.146718	0.049734	-0.950612	-0.951948	0.024653	30.4877	-0.951218	-4.994114E+12	-4.936443E-15	NaN
0.000000	1.000000	0.059092	7.36504e+06	-38639.1	955.819	-29794.8	0.000000	0.000000	6.058669	-0.024570	NaN	0.000000	0.001652	0.001518	28.0959	0.087425	0.001931	45.274	-178.874	-163.676	-0.048634	0.057761	-0.942589	-0.943920	-0.024570	45.274	-0.942182	-3.772062E+12	6.513661E-15	NaN
0.000000	1.000000	0.067114	7.36504e+06	-38639.1	955.818	-29794.8	0.000000	0.000000	6.066693	0.012775	NaN	0.000000	0.001612	0.001562	28.0969	0.064868	0.002060	31.4865	-86.376	-165.622	-0.036581	0.065794	-0.934567	-0.935887	0.012775	31.4865	-0.934871	-3.005638E+12	-4.250206E-15	NaN
0.000000	1.000000	0.075099	7.36504e+06	-38639.1	955.818	-29794.8	0.000000	0.000000	6.074678	-0.010406	NaN	0.000000	0.001647	0.001552	28.096	0.058492	0.001972	29.6586	-4.895468	-160.35	-0.011804	0.073770	-0.926582	-0.927911	-0.010406	29.6586	-0.926318	-2.304123E+12	4.516204E-15	NaN
0.000000	1.000000	0.083129	7.36504e+06	-38639.1	955.819	-29794.8	0.000000	0.000000	6.082710	0.058790	NaN	0.000000	0.001651	0.001496	28.0977	0.121588	0.001895	64.1747	-81.5533	-160.165	0.115398	0.081814	-0.918552	-0.919867	0.058790	64.1747	-0.919239	-1.848971E+12	-3.179594E-14	NaN
0.000000	1.000000	0.091147	7.36504e+06	-38639.1	955.818	-29794.8	0.000000	0.000000	6.090724	-0.048847	NaN	0.000000	0.001635	0.001549	28.0974	0.080644	0.002106	38.3002	-118.258	-166.258	-0.062931	0.089796	-0.910534	-0.911885	-0.048847	38.3002	-0.909577	-1.369152E+12	3.567700E-14	NaN
0.000000	1.000000	0.099180	7.36504e+06	-38639.1	955.819	-29794.8	0.000000	0.000000	6.098755	-0.086422	NaN	0.000000	0.001598	0.001570	28.0983	0.084162	0.002036	41.3439	-166.629	-159.051	-0.042605	0.097801	-0.902501	-0.903880	-0.086422	41.3439	-0.900934	-1.046357E+12	8.259299E-14	NaN
0.000000	1.000000	0.107140	7.36504e+06	-38639.1	955.817	-29794.8	0.000000	0.000000	6.106719	0.024318	NaN	0.000000	0.001630	0.001538	28.0966	0.018660	0.001923	9.705751	-94.9005	-163.555	-0.038202	0.105873	-0.894542	-0.895808	0.024318	9.705751	-0.896421	-9.092796E+11	-2.674437E-14	NaN
0.000000	1.000000	0.115160	7.36504e+06	-38639.1	955.818	-29794.8	0.000000	0.000000	6.114741	0.062380	NaN	0.000000	0.001604	0.001535	28.0973	0.064841	0.002113	30.6827	-110.041	-168.11	0.034804	0.113889	-0.886521	-0.887792	0.062380	30.6827	-0.888046	-7.006464E+11	-8.903271E-14	NaN
0.000000	1.000000	0.123176	7.36504e+06	-38639.1	955.818	-29794.8	0.000000	0.000000	6.122754	-0.034380	NaN	0.000000	0.001606	0.001559	28.0984	0.129739	0.001884	68.8789	133.93	-164.35	0.047737	0.121875	-0.878505	-0.879806	-0.034380	68.8789	-0.878130	-5.145425E+11	6.681624E-14	NaN
0.000000	1.000000	0.131159	7.36504e+06	-38639.1	955.819	-29794.8	0.000000	0.000000	6.130738	0.016680	NaN	0.000000	0.001615	0.001566	28.0961	0.057531	0.001963	29.3123	15.3603	-168.356	0.024021	0.129911	-0.870522	-0.871770	0.016680	29.3123	-0.870949	-4.114181E+11	-4.054307E-14	NaN
0.000000	1.000000	0.139179	7.36504e+06	-38639.1	955.818	-29794.8	0.000000	0.000000	6.138756	-0.045142	NaN	0.000000	0.001624	0.001552	28.0975	0.067083	0.002029	33.0541	103.134	-165.2	0.054550	0.137911	-0.862502	-0.863770	-0.045142	33.0541	-0.861478	-3.062803E+11	1.473894E-13	NaN
0.000000	1.000000	0.147205	7.36504e+06	-38639.1	955.819	-29794.8	0.000000	0.000000	6.146783	-0.002684	NaN	0.000000	0.001580	0.001553	28.0967	0.063591	0.001978	32.1507	134.205	-165.841	-0.053062	0.145852	-0.854476	-0.855829	-0.002684	32.1507	-0.854414	-2.457528E+11	1.092181E-14	NaN
0.000000	1.000000	0.155214	7.36504e+06	-38639.1	955.819	-29794.8	0.000000	0.000000	6.154790	-0.062764	NaN	0.000000	0.001574	0.001557	28.0968	0.140149	0.002065	67.8711	52.1658	-165.581	-0.074249	0.153871	-0.846467	-0.847810	-0.062764	67.8711	-0.845774	-1.877156E+11	3.343579E-13	NaN
0.000000	1.000000	0.163210	7.36504e+06	-38639.1	955.818	-29794.8	0.000000	0.000000	6.162792	0.093079	NaN	0.000000	0.001554	0.001541	28.0986	0.039193	0.002057	19.0575	-141.585	-162.89	0.023055	0.161901	-0.838471	-0.839780	0.093079	19.0575	-0.842135	-1.675751E+11	-5.554435E-13	NaN
0.000000	1.000000	0.171233	7.36504e+06	-38639.1	955.818	-29794.8	0.000000	0.000000	6.170814	0.045390	NaN	0.000000	0.001573	0.001536	28.0988	0.017720	0.001939	9.137087	-155.188	-163.318	0.058559	0.169896	-0.830448	-0.831785	0.045390	9.137087	-0.834174	-1.307222E+11	-3.472250E-13	NaN
0.000000	1.000000	0.179217	7.36504e+06	-38639.1	955.818	-29794.8	0.000000	0.000000	6.178798	0.065154	NaN	0.000000	0.001581	0.001555	28.0995	0.212087	0.002015	105.264	126.032	-162.623	0.030303	0.177910	-0.822465	-0.823771	0.065154	105.264	-0.822929	-9.202882E+10	-7.079734E-13	NaN
0.000000	1.000000	0.187207	7.36504e+06	-38639.1	955.818	-29794.8	0.000000	0.000000	6.186786	0.018204	NaN	0.000000	0.001589	0.001568	28.0991	0.081532	0.001960	41.5957	12.8846	-168.502	0.055996	0.185942	-0.814474	-0.815739	0.018204	41.5957	-0.814802	-7.140340E+10	-2.549527E-13	NaN
0.000000	1.000000	0.195215	7.36504e+06	-38639.1	955.818	-29794.8	0.000000	0.000000	6.194795	0.033686	NaN	0.000000	0.001565	0.001558	28.0996	0.046040	0.002145	21.4688	174.64	-168.201	0.018082	0.193924	-0.806466	-0.807757	0.033686	21.4688	-0.807643	-5.709350E+10	-5.900160E-13	NaN
0.000000	1.000000	0.203221	7.36504e+06	-38639.1	955.818	-29794.8	0.000000	0.000000	6.202801	0.037345	NaN	0.000000	0.001597	0.001513	28.1003	0.064948	0.001989	32.6547	141.97	-164.068	0.027532	0.201909	-0.798460	-0.799772	0.037345	32.6547	-0.799318	-4.401535E+10	-8.484561E-13	NaN
0.000000	1.000000	0.211219	7.36504e+06	-38639.1	955.818	-29794.8	0.000000	0.000000	6.210795	-0.050520	NaN	0.000000	0.001561	0.001542	28.098	0.046690	0.001945	24.0041	94.3867	-162.592	0.010017	0.209922	-0.790462	-0.791759	-0.050520	24.0041	-0.788884	-3.176301E+10	1.590517E-12	NaN
0.000000	1.000000	0.219238	7.36504e+06	-38639.1	955.818	-29794.8	0.000000	0.000000	6.218817	0.001771	NaN	0.000000	0.001578	0.001523	28.0988	0.098498	0.001909	51.5913	74.2688	-166.118	-0.030299	0.217967	-0.782443	-0.783714	0.001771	51.5913	-0.782469	-2.598813E+10	-6.814157E-14	NaN
0.000000	1.000000	0.227243	7.36504e+06	-38639.1	955.817	-29794.8	0.000000	0.000000	6.226823	0.038486	NaN	0.000000	0.001587	0.001539	28.0992	0.083301	0.002040	40.8357	162.941	-163.604	-0.002972	0.225935	-0.774438	-0.775746	0.038486	40.8357	-0.775145	-2.066570E+10	-1.862310E-12	NaN
0.000000	1.000000	0.235268	7.36504e+06	-38639.1	955.817	-29794.8	0.000000	0.000000	6.234848	0.026364	NaN	0.000000	0.001553	0.001525	28.0981	0.081549	0.001830	44.5695	171.26	-164.684	0.007964	0.233917	-0.766413	-0.767764	0.026364	44.5695	-0.766856	-1.594260E+10	-1.653671E-12	NaN
0.000000	1.000000	0.243236	7.36504e+06	-38639.1	955.819	-29794.8	0.000000	0.000000	6.242814	-0.019481	NaN	0.000000	0.001589	0.001526	28.0991	0.077206	0.002097	36.8181	-19.4417	-167.79	0.062706	0.241950	-0.758445	-0.759731	-0.019481	36.8181	-0.758048	-1.209894E+10	1.610177E-12	NaN
0.000000	1.000000	0.251258	7.36504e+06	-38639.1	955.818	-29794.8	0.000000	0.000000	6.250839	0.045255	NaN	0.000000	0.001579	0.001500	28.0995	0.096267	0.002035	47.3063	-115.936	-164.972	0.013198	0.249927	-0.750423	-0.751754	0.045255	47.3063	-0.751140	-9.744060E+9	-4.644342E-12	NaN
0.000000	1.000000	0.259302	7.36504e+06	-38639.1	955.818	-29794.8	0.000000	0.000000	6.258880	-0.011949	NaN	0.000000	0.001655	0.001526	28.0998	0.084393	0.002012	41.9495	78.6953	-162.643	-0.025515	0.257954	-0.742379	-0.743727	-0.011949	41.9495	-0.742165	-7.354359E+9	1.624784E-12	NaN
0.000000	1.000000	0.267271	7.36504e+06	-38639.1	955.818	-29794.8	0.000000	0.000000	6.266847	-0.076487	NaN	0.000000	0.001605	0.001512	28.1002	0.060943	0.002050	29.7334	-72.1317	-163.735	-0.059078	0.265965	-0.734410	-0.735716	-0.076487	29.7334	-0.732481	-5.427671E+9	1.409200E-11	NaN
0.000000	1.000000	0.275278	7.36504e+06	-38639.1	955.819	-29794.8	0.000000	0.000000	6.274857	0.007575	NaN	0.000000	0.001603	0.001563	28.0996	0.126360	0.001950	64.7938	-144.208	-165.207	0.044698	0.273930	-0.726403	-0.727751	0.007575	64.7938	-0.726491	-4.497554E+9	-1.684299E-12	NaN
0.000000	1.000000	0.283273	7.36504e+06	-38639.1	955.82	-29794.8	0.000000	0.000000	6.282854	0.039912	NaN	0.000000	0.001595	0.001564	28.0996	0.069865	0.002070	33.7573	115.105	-169.155	0.019736	0.281972	-0.718408	-0.719709	0.039912	33.7573	-0.719294	-3.587972E+9	-1.112382E-11	NaN
0.000000	1.000000	0.291286	7.36504e+06	-38639.1	955.817	-29794.8	0.000000	0.000000	6.290868	0.071176	NaN	0.000000	0.001600	0.001542	28.0983	0.076127	0.002013	37.8202	-138.228	-165.332	0.055263	0.289970	-0.710395	-0.711711	0.071176	37.8202	-0.711806	-2.835941E+9	-2.509798E-11	NaN
0.000000	1.000000	0.299259	7.36504e+06	-38639.1	955.818	-29794.8	0.000000	0.000000	6.298841	0.093686	NaN	0.000000	0.001584	0.001558	28.0987	0.021958	0.002013	10.9092	99.8513	-164.186	0.015299	0.297955	-0.702422	-0.703726	0.093686	10.9092	-0.708863	-2.585432E+9	-3.623598E-11	NaN
0.000000	1.000000	0.307331	7.36504e+06	-38639.1	955.819	-29794.8	0.000000	0.000000	6.306911	0.014125	NaN	0.000000	0.001609	0.001576	28.1008	0.033442	0.001794	18.6422	-76.1361	-164.066	-3.171434E-5	0.305951	-0.694350	-0.695731	0.014125	18.6422	-0.694918	-1.667696E+9	-8.469825E-12	NaN
0.000000	1.000000	0.315295	7.36504e+06	-38639.1	955.819	-29794.8	0.000000	0.000000	6.314873	-0.015455	NaN	0.000000	0.001599	0.001586	28.0992	0.114136	0.002052	55.6218	22.6047	-164.201	0.035170	0.314014	-0.686386	-0.687667	-0.015455	55.6218	-0.686178	-1.266713E+9	1.220102E-11	NaN
0.000000	1.000000	0.323311	7.36504e+06	-38639.1	955.819	-29794.8	0.000000	0.000000	6.322888	-0.033857	NaN	0.000000	0.001532	0.001598	28.1002	0.042726	0.001978	21.6054	13.6917	-164.362	0.010359	0.321937	-0.678370	-0.679744	-0.033857	21.6054	-0.677195	-9.546350E+8	3.546641E-11	NaN
0.000000	1.000000	0.331309	7.36504e+06	-38639.1	955.82	-29794.8	0.000000	0.000000	6.330889	0.030021	NaN	0.000000	0.001535	0.001512	28.1007	0.067506	0.002059	32.7812	-114.193	-163.839	0.032817	0.329954	-0.670372	-0.671727	0.030021	32.7812	-0.671059	-7.868301E+8	-3.815377E-11	NaN
0.000000	1.000000	0.339255	7.36504e+06	-38639.1	955.816	-29794.8	0.000000	0.000000	6.338833	-0.015649	NaN	0.000000	0.001625	0.001552	28.099	0.077869	0.001916	40.6416	46.2924	-164.871	-0.130152	0.337995	-0.662426	-0.663686	-0.015649	40.6416	-0.662137	-5.939350E+8	2.634751E-11	NaN
0.000000	1.000000	0.347315	7.36504e+06	-38639.1	955.818	-29794.8	0.000000	0.000000	6.346892	-0.057127	NaN	0.000000	0.001603	0.001584	28.1004	0.102658	0.002110	48.6466	-65.7479	-165.702	0.051026	0.345985	-0.654366	-0.655696	-0.057127	48.6466	-0.653485	-4.520682E+8	1.263673E-10	NaN
0.000000	1.000000	0.355339	7.36504e+06	-38639.1	955.819	-29794.8	0.000000	0.000000	6.354916	-0.023354	NaN	0.000000	0.001520	0.001581	28.0999	0.028419	0.002084	13.6369	10.9264	-164.276	-0.039508	0.354015	-0.646342	-0.647666	-0.023354	13.6369	-0.645058	-3.464744E+8	6.740442E-11	NaN
0.000000	1.000000	0.363324	7.36504e+06	-38639.1	955.818	-29794.8	0.000000	0.000000	6.362902	-0.019692	NaN	0.000000	0.001510	0.001568	28.0993	0.075149	0.001855	40.5082	-146.093	-165.982	0.015934	0.361985	-0.638357	-0.639696	-0.019692	40.5082	-0.637992	-2.771644E+8	7.104809E-11	NaN
0.000000	1.000000	0.371331	7.36504e+06	-38639.1	955.818	-29794.8	0.000000	0.000000	6.370910	0.017727	NaN	0.000000	0.001514	0.001541	28.0991	0.081306	0.001957	41.5401	52.111	-165.799	0.056120	0.370018	-0.630350	-0.631663	0.017727	41.5401	-0.630671	-2.199033E+8	-8.061316E-11	NaN
0.000000	1.000000	0.379319	7.36504e+06	-38639.1	955.818	-29794.8	0.000000	0.000000	6.378899	0.037671	NaN	0.000000	0.001510	0.001566	28.0992	0.053947	0.001951	27.6541	-117.777	-167.216	0.022238	0.378051	-0.622362	-0.623630	0.037671	27.6541	-0.623384	-1.746374E+8	-2.157111E-10	NaN
0.000000	1.000000	0.387297	7.36504e+06	-38639.1	955.818	-29794.8	0.000000	0.000000	6.386877	0.030050	NaN	0.000000	0.001520	0.001574	28.0994	0.017606	0.001981	8.886780	-148.189	-167.499	0.113490	0.386045	-0.614384	-0.615636	0.030050	8.886780	-0.616920	-1.423303E+8	-2.111275E-10	NaN
0.000000	1.000000	0.395326	7.36504e+06	-38639.1	955.819	-29794.8	0.000000	0.000000	6.394904	-0.017964	NaN	0.000000	0.001596	0.001566	28.0988	0.063486	0.001984	31.9934	78.4	-165.488	0.023195	0.394019	-0.606355	-0.607662	-0.017964	31.9934	-0.605934	-1.004994E+8	1.787475E-10	NaN
0.000000	1.000000	0.403329	7.36504e+06	-38639.1	955.818	-29794.8	0.000000	0.000000	6.402907	-0.024099	NaN	0.000000	0.001595	0.001554	28.0988	0.036426	0.001986	18.3439	-23.1299	-165.554	0.014638	0.402039	-0.598352	-0.599642	-0.024099	18.3439	-0.597366	-7.659194E+7	3.146453E-10	NaN
0.000000	1.000000	0.411342	7.36504e+06	-38639.1	955.818	-29794.8	0.000000	0.000000	6.410922	0.024382	NaN	0.000000	0.001583	0.001577	28.0996	0.071563	0.002085	34.3194	-142.149	-165.254	0.023238	0.409997	-0.590339	-0.591684	0.024382	34.3194	-0.590872	-6.232776E+7	-3.911921E-10	NaN
0.000000	1.000000	0.419324	7.36504e+06	-38639.1	955.819	-29794.8	0.000000	0.000000	6.418904	0.020798	NaN	0.000000	0.001593	0.001566	28.0999	0.063763	0.002064	30.8986	110.924	-165.962	0.020903	0.418054	-0.582357	-0.583627	0.020798	30.8986	-0.582862	-4.832971E+7	-4.303341E-10	NaN
0.000000	1.000000	0.427345	7.36504e+06	-38639.1	955.819	-29794.8	0.000000	0.000000	6.426926	0.046405	NaN	0.000000	0.001570	0.001540	28.1003	0.060010	0.002068	29.0247	-132.545	-165.602	0.011750	0.425984	-0.574336	-0.575697	0.046405	29.0247	-0.575535	-3.828974E+7	-1.211945E-9	NaN
0.000000	1.000000	0.435338	7.36504e+06	-38639.1	955.819	-29794.8	0.000000	0.000000	6.434916	-0.013223	NaN	0.000000	0.001581	0.001543	28.1019	0.107664	0.001972	54.6048	168.768	-164.226	-0.023824	0.434047	-0.566343	-0.567635	-0.013223	54.6048	-0.566162	-2.841744E+7	4.653050E-10	NaN
0.000000	1.000000	0.443343	7.36504e+06	-38639.1	955.818	-29794.8	0.000000	0.000000	6.442923	0.048532	NaN	0.000000	0.001536	0.001599	28.1013	0.040158	0.001952	20.5705	-2.213393	-161.908	-0.031259	0.441993	-0.558338	-0.559688	0.048532	20.5705	-0.560108	-2.343522E+7	-2.070908E-9	NaN
0.000000	1.000000	0.451368	7.36504e+06	-38639.1	955.819	-29794.8	0.000000	0.000000	6.450946	-0.014173	NaN	0.000000	0.001659	0.001591	28.1003	0.179228	0.002080	86.1524	-148.912	-166.115	-0.040721	0.450077	-0.550313	-0.551604	-0.014173	86.1524	-0.550190	-1.708384E+7	8.295944E-10	NaN
0.000000	1.000000	0.459347	7.36504e+06	-38639.1	955.819	-29794.8	0.000000	0.000000	6.458926	0.010973	NaN	0.000000	0.001583	0.001618	28.1	0.072434	0.002042	35.4746	-32.4937	-161.209	-0.037843	0.458037	-0.542334	-0.543645	0.010973	35.4746	-0.542566	-1.339478E+7	-8.191875E-10	NaN
0.000000	1.000000	0.467355	7.36504e+06	-38639.1	955.819	-29794.8	0.000000	0.000000	6.466938	0.090792	NaN	0.000000	0.001630	0.001613	28.1012	0.072611	0.001924	37.7424	65.2	-163.679	0.056882	0.466077	-0.534326	-0.535604	0.090792	37.7424	-0.536130	-1.090610E+7	-8.324900E-9	NaN
0.000000	1.000000	0.475327	7.36504e+06	-38639.1	955.819	-29794.8	0.000000	0.000000	6.474908	0.058247	NaN	0.000000	0.001602	0.001655	28.1006	0.058230	0.001897	30.6934	-78.0435	-165.426	0.030444	0.474088	-0.526354	-0.527593	0.058247	30.6934	-0.527777	-8.35019e+06	-6.975565E-9	NaN
0.000000	1.000000	0.483366	7.36504e+06	-38639.1	955.819	-29794.8	0.000000	0.000000	6.482945	0.010419	NaN	0.000000	0.001608	0.001608	28.1002	0.036151	0.002045	17.6734	-38.6942	-165.102	-0.017737	0.482014	-0.518315	-0.519667	0.010419	17.6734	-0.518757	-6.25613e+06	-1.665442E-9	NaN
0.000000	1.000000	0.491393	7.36504e+06	-38639.1	955.82	-29794.8	0.000000	0.000000	6.490972	0.022061	NaN	0.000000	0.001565	0.001600	28.1	0.141320	0.001926	73.3779	-90.7705	-165.812	0.019870	0.490025	-0.510288	-0.511656	0.022061	73.3779	-0.510514	-4.80366e+06	-4.592443E-9	NaN
0.000000	1.000000	0.499362	7.36504e+06	-38639.1	955.82	-29794.8	0.000000	0.000000	6.498942	0.053418	NaN	0.000000	0.001608	0.001605	28.1004	0.085603	0.002142	39.9692	-46.5129	-166.818	0.082218	0.498082	-0.502319	-0.503599	0.053418	39.9692	-0.503322	-3.81371e+06	-1.400689E-8	NaN
0.000000	1.000000	0.507354	7.36504e+06	-38639.1	955.82	-29794.8	0.000000	0.000000	6.506932	-0.007984	NaN	0.000000	0.001599	0.001628	28.1023	0.078357	0.001899	41.2658	91.5986	-162.629	0.024833	0.506087	-0.494327	-0.495594	-0.007984	41.2658	-0.494182	-2.84324e+06	2.808147E-9	NaN
0.000000	1.000000	0.515363	7.36504e+06	-38639.1	955.82	-29794.8	0.000000	0.000000	6.514942	0.004640	NaN	0.000000	0.001587	0.001612	28.1016	0.051780	0.001850	27.9864	-151.401	-165.009	0.130528	0.514083	-0.486318	-0.487598	0.004640	27.9864	-0.486442	-2.21645e+06	-2.093494E-9	NaN
0.000000	1.000000	0.523384	7.36504e+06	-38639.1	955.819	-29794.8	0.000000	0.000000	6.522963	0.017503	NaN	0.000000	0.001598	0.001611	28.1019	0.070941	0.002063	34.3801	-65.8106	-162.598	0.113486	0.522106	-0.478297	-0.479575	0.017503	34.3801	-0.478679	-1.72596e+06	-1.014101E-8	NaN
0.000000	1.000000	0.531389	7.36504e+06	-38639.1	955.82	-29794.8	0.000000	0.000000	6.530970	0.063230	NaN	0.000000	0.001621	0.001595	28.1016	0.012559	0.002012	6.242380	65.9301	-166.96	0.053237	0.530063	-0.470292	-0.471618	0.063230	6.242380	-0.477889	-1.68257e+06	-3.757937E-8	NaN
0.000000	1.000000	0.539382	7.36504e+06	-38639.1	955.82	-29794.8	0.000000	0.000000	6.538961	-0.008401	NaN	0.000000	0.001639	0.001627	28.1003	0.072995	0.001937	37.6881	-118.167	-164.394	0.032934	0.538039	-0.462299	-0.463642	-0.008401	37.6881	-0.462131	-1.0115e+06	8.305973E-9	NaN
0.000000	1.000000	0.547407	7.36504e+06	-38639.1	955.819	-29794.8	0.000000	0.000000	6.546988	0.059722	NaN	0.000000	0.001639	0.001590	28.101	0.019050	0.001966	9.691945	-145.604	-166.757	0.041522	0.546122	-0.454274	-0.455560	0.059722	9.691945	-0.458896	-910954	-6.555939E-8	NaN
0.000000	1.000000	0.555414	7.36504e+06	-38639.1	955.82	-29794.8	0.000000	0.000000	6.554996	0.088850	NaN	0.000000	0.001621	0.001607	28.1018	0.092101	0.001994	46.1964	137.836	-166.289	0.093882	0.554124	-0.446267	-0.447557	0.088850	46.1964	-0.447710	-633986	-1.401449E-7	NaN
0.000000	1.000000	0.563393	7.36504e+06	-38639.1	955.818	-29794.8	0.000000	0.000000	6.562972	-0.008145	NaN	0.000000	0.001598	0.001585	28.1015	0.075898	0.001999	37.9689	78.0324	-165.179	-0.032278	0.562142	-0.438288	-0.439539	-0.008145	37.9689	-0.438127	-464431	1.753768E-8	NaN
0.000000	1.000000	0.571437	7.36504e+06	-38639.1	955.82	-29794.8	0.000000	0.000000	6.571020	0.109124	NaN	0.000000	0.001637	0.001638	28.1018	0.121224	0.001972	61.481	8.919946	-165.886	0.113910	0.570094	-0.430244	-0.431587	0.109124	61.481	-0.431576	-375272	-2.907862E-7	NaN
0.000000	1.000000	0.579409	7.36504e+06	-38639.1	955.819	-29794.8	0.000000	0.000000	6.578989	0.042887	NaN	0.000000	0.001622	0.001610	28.1011	0.058321	0.002114	27.5936	54.2313	-166.142	0.038156	0.578067	-0.422272	-0.423614	0.042887	27.5936	-0.423438	-287839	-1.489947E-7	NaN
0.000000	1.000000	0.587417	7.36504e+06	-38639.1	955.82	-29794.8	0.000000	0.000000	6.586997	0.048802	NaN	0.000000	0.001622	0.001605	28.1009	0.129382	0.001914	67.6134	-39.8971	-163.633	0.090566	0.586084	-0.414264	-0.415597	0.048802	67.6134	-0.414806	-217118	-2.247745E-7	NaN
0.000000	1.000000	0.595416	7.36504e+06	-38639.1	955.819	-29794.8	0.000000	0.000000	6.594995	0.022620	NaN	0.000000	0.001625	0.001617	28.102	0.141297	0.002001	70.618	157.01	-158.662	0.061588	0.594080	-0.406265	-0.407601	0.022620	70.618	-0.406506	-165457	-1.367105E-7	NaN
0.000000	1.000000	0.603432	7.36504e+06	-38639.1	955.82	-29794.8	0.000000	0.000000	6.603011	-0.004548	NaN	0.000000	0.001643	0.001568	28.1004	0.075568	0.001917	39.4302	-135.512	-163.916	0.108149	0.602056	-0.398249	-0.399625	-0.004548	39.4302	-0.398162	-125829	3.614524E-8	NaN
0.000000	1.000000	0.611437	7.36504e+06	-38639.1	955.819	-29794.8	0.000000	0.000000	6.611015	-0.007699	NaN	0.000000	0.001602	0.001606	28.1002	0.126110	0.002109	59.7886	-151.672	-163.492	0.012139	0.610104	-0.390244	-0.391577	-0.007699	59.7886	-0.390147	-96666.1	7.964883E-8	NaN
0.000000	1.000000	0.619432	7.36504e+06	-38639.1	955.819	-29794.8	0.000000	0.000000	6.619010	-0.018945	NaN	0.000000	0.001608	0.001621	28.0996	0.083199	0.002035	40.8919	-167.598	-163.823	0.001610	0.618084	-0.382249	-0.383597	-0.018945	40.8919	-0.381902	-73649.9	2.572346E-7	NaN
0.000000	1.000000	0.627440	7.36504e+06	-38639.1	955.819	-29794.8	0.000000	0.000000	6.627024	0.123403	NaN	0.000000	0.001611	0.001649	28.1001	0.080634	0.001988	40.5616	148.765	-164.72	0.147740	0.626151	-0.374241	-0.375530	0.123403	40.5616	-0.376523	-61653.6	-2.001553E-6	NaN
0.000000	1.000000	0.635434	7.36504e+06	-38639.1	955.819	-29794.8	0.000000	0.000000	6.635013	0.015626	NaN	0.000000	0.001590	0.001639	28.1002	0.028502	0.001998	14.2625	148.502	-165.403	0.093069	0.634179	-0.366247	-0.367503	0.015626	14.2625	-0.367069	-45070.8	-3.467013E-7	NaN
0.000000	1.000000	0.643418	7.36504e+06	-38639.1	955.82	-29794.8	0.000000	0.000000	6.643000	0.089401	NaN	0.000000	0.001590	0.001600	28.1012	0.082230	0.001913	42.9958	-136.794	-168.064	0.088509	0.642118	-0.358263	-0.359563	0.089401	42.9958	-0.359823	-35422.7	-2.523845E-6	NaN
0.000000	1.000000	0.651452	7.36504e+06	-38639.1	955.821	-29794.8	0.000000	0.000000	6.651031	0.005269	NaN	0.000000	0.001636	0.001602	28.1013	0.011047	0.001999	5.526940	-110.557	-167.124	-0.054085	0.650084	-0.350229	-0.351597	0.005269	5.526940	-0.350944	-26345.5	-2.000131E-7	NaN
0.000000	1.000000	0.659451	7.36504e+06	-38639.1	955.821	-29794.8	0.000000	0.000000	6.659030	-0.009541	NaN	0.000000	0.001612	0.001583	28.1013	0.023456	0.001950	12.0314	55.532	-164.45	-0.035172	0.658155	-0.342230	-0.343526	-0.009541	12.0314	-0.341635	-19292	4.945721E-7	NaN
0.000000	1.000000	0.667456	7.36504e+06	-38639.1	955.819	-29794.8	0.000000	0.000000	6.667034	-0.013680	NaN	0.000000	0.001640	0.001610	28.1015	0.107777	0.002093	51.5003	-144.489	-162.449	-0.010656	0.666123	-0.334225	-0.335558	-0.013680	51.5003	-0.334026	-14940.2	9.156559E-7	NaN
0.000000	1.000000	0.675443	7.36504e+06	-38639.1	955.819	-29794.8	0.000000	0.000000	6.675024	0.065293	NaN	0.000000	0.001636	0.001632	28.1013	0.025686	0.002025	12.6824	-148.55	-162.91	-0.046090	0.674203	-0.326238	-0.327478	0.065293	12.6824	-0.330099	-13089	-4.988395E-6	NaN
0.000000	1.000000	0.683453	7.36504e+06	-38639.1	955.82	-29794.8	0.000000	0.000000	6.683032	0.006496	NaN	0.000000	0.001631	0.001625	28.1015	0.066264	0.002124	31.1988	-115.73	-165.153	0.020690	0.682150	-0.318228	-0.319531	0.006496	31.1988	-0.318384	-8807.43	-7.375187E-7	NaN
0.000000	1.000000	0.691445	7.36504e+06	-38639.1	955.82	-29794.8	0.000000	0.000000	6.691024	0.006472	NaN	0.000000	0.001633	0.001611	28.1003	0.056096	0.002148	26.1179	150.02	-161.113	0.001499	0.690134	-0.310236	-0.311547	0.006472	26.1179	-0.310422	-6718.95	-9.632862E-7	NaN
0.000000	1.000000	0.699464	7.36504e+06	-38639.1	955.82	-29794.8	0.000000	0.000000	6.699048	0.110696	NaN	0.000000	0.001631	0.001638	28.0992	0.074817	0.002025	36.9548	113.174	-165.458	0.009954	0.698101	-0.302217	-0.303580	0.110696	36.9548	-0.304463	-5482.63	-2.019032E-5	NaN
0.000000	1.000000	0.707462	7.36504e+06	-38639.1	955.819	-29794.8	0.000000	0.000000	6.707044	0.073648	NaN	0.000000	0.001635	0.001639	28.1026	0.094164	0.001973	47.721	129.503	-166.497	-0.005220	0.706106	-0.294219	-0.295575	0.073648	47.721	-0.295377	-4015.24	-1.834201E-5	NaN
0.000000	1.000000	0.715466	7.36504e+06	-38639.1	955.818	-29794.8	0.000000	0.000000	6.715046	0.035310	NaN	0.000000	0.001634	0.001608	28.1022	0.125033	0.001952	64.0389	-151.102	-165.62	0.078875	0.714210	-0.286215	-0.287471	0.035310	64.0389	-0.286628	-2969.83	-1.188950E-5	NaN
0.000000	1.000000	0.723479	7.36504e+06	-38639.1	955.819	-29794.8	0.000000	0.000000	6.723058	0.009378	NaN	0.000000	0.001652	0.001627	28.1024	0.027466	0.001960	14.015	148.969	-167.832	0.012299	0.722168	-0.278202	-0.279513	0.009378	14.015	-0.278704	-2256.33	-4.156275E-6	NaN
0.000000	1.000000	0.731457	7.36504e+06	-38639.1	955.819	-29794.8	0.000000	0.000000	6.731037	0.029432	NaN	0.000000	0.001644	0.001586	28.1033	0.025058	0.002012	12.4551	-3.933483	-167.141	-0.050650	0.730157	-0.270224	-0.271524	0.029432	12.4551	-0.271997	-1785.95	-1.647949E-5	NaN
0.000000	1.000000	0.739478	7.36504e+06	-38639.1	955.819	-29794.8	0.000000	0.000000	6.739061	0.107396	NaN	0.000000	0.001618	0.001608	28.1025	0.019724	0.001873	10.5282	-84.9365	-164.145	0.061377	0.738162	-0.262203	-0.263519	0.107396	10.5282	-0.269854	-1656.99	-6.481389E-5	NaN
0.000000	1.000000	0.747509	7.36504e+06	-38639.1	955.819	-29794.8	0.000000	0.000000	6.747090	0.052928	NaN	0.000000	0.001610	0.001639	28.1025	0.142062	0.001969	72.1596	171.298	-162.449	-0.019282	0.746145	-0.254172	-0.255536	0.052928	72.1596	-0.254722	-972.381	-5.443163E-5	NaN
0.000000	1.000000	0.755467	7.36504e+06	-38639.1	955.818	-29794.8	0.000000	0.000000	6.755045	-0.016911	NaN	0.000000	0.001605	0.001638	28.1034	0.059356	0.001914	31.0051	-27.889	-166.296	0.029046	0.754177	-0.246214	-0.247504	-0.016911	31.0051	-0.245805	-707.875	2.388916E-5	NaN
0.000000	1.000000	0.763498	7.36504e+06	-38639.1	955.818	-29794.8	0.000000	0.000000	6.763077	0.006398	NaN	0.000000	0.001596	0.001623	28.1031	0.032385	0.001974	16.4095	71.7189	-165.463	0.077083	0.762181	-0.238183	-0.239500	0.006398	16.4095	-0.238476	-544.157	-1.175685E-5	NaN
0.000000	1.000000	0.771487	7.36504e+06	-38639.1	955.819	-29794.8	0.000000	0.000000	6.771067	0.052568	NaN	0.000000	0.001623	0.001593	28.1025	0.073448	0.001984	37.0112	166.914	-164.328	0.024939	0.770153	-0.230194	-0.231528	0.052568	37.0112	-0.231260	-419.174	-0.000125	NaN
0.000000	1.000000	0.779496	7.36504e+06	-38639.1	955.819	-29794.8	0.000000	0.000000	6.779076	0.051590	NaN	0.000000	0.001642	0.001599	28.101	0.017231	0.002060	8.366303	95.3272	-164.088	0.045037	0.778140	-0.222185	-0.223541	0.051590	8.366303	-0.226810	-356.496	-0.000145	NaN
0.000000	1.000000	0.787484	7.36504e+06	-38639.1	955.819	-29794.8	0.000000	0.000000	6.787062	-0.013044	NaN	0.000000	0.001645	0.001583	28.1021	0.139503	0.002017	69.1469	-85.8368	-166.205	0.095197	0.786195	-0.214197	-0.215486	-0.013044	69.1469	-0.214055	-223.002	5.849097E-5	NaN
0.000000	1.000000	0.795518	7.36504e+06	-38639.1	955.819	-29794.8	0.000000	0.000000	6.795097	0.008654	NaN	0.000000	0.001634	0.001612	28.1021	0.051515	0.001943	26.5124	17.5637	-159.419	0.114340	0.794167	-0.206163	-0.207514	0.008654	26.5124	-0.206408	-167.686	-5.161018E-5	NaN
0.000000	1.000000	0.803523	7.36504e+06	-38639.1	955.819	-29794.8	0.000000	0.000000	6.803100	-0.045859	NaN	0.000000	0.001656	0.001647	28.1014	0.082132	0.001901	43.2067	-100.898	-164.932	0.048647	0.802126	-0.198158	-0.199555	-0.045859	43.2067	-0.197362	-119.195	0.000385	NaN
0.000000	1.000000	0.811503	7.36504e+06	-38639.1	955.82	-29794.8	0.000000	0.000000	6.811085	0.074175	NaN	0.000000	0.001648	0.001631	28.103	0.050658	0.001978	25.6094	122.506	-167.757	0.019100	0.810196	-0.190178	-0.191485	0.074175	25.6094	-0.192350	-98.4479	-0.000753	NaN
0.000000	1.000000	0.819488	7.36504e+06	-38639.1	955.819	-29794.8	0.000000	0.000000	6.819068	0.042074	NaN	0.000000	0.001673	0.001656	28.1034	0.131080	0.001900	68.9975	10.9918	-164.616	0.143738	0.818176	-0.182193	-0.183505	0.042074	68.9975	-0.182651	-67.6781	-0.000622	NaN
0.000000	1.000000	0.827517	7.36504e+06	-38639.1	955.82	-29794.8	0.000000	0.000000	6.827097	0.027856	NaN	0.000000	0.001670	0.001614	28.1031	0.025697	0.002138	12.018	-68.7507	-162.199	0.019515	0.826199	-0.174164	-0.175482	0.027856	12.018	-0.175903	-51.9369	-0.000536	NaN
0.000000	1.000000	0.835509	7.36504e+06	-38639.1	955.82	-29794.8	0.000000	0.000000	6.835091	0.076795	NaN	0.000000	0.001676	0.001635	28.1024	0.014288	0.002138	6.683665	-74.1327	-163.56	0.095691	0.834217	-0.166172	-0.167464	0.076795	6.683665	-0.174789	-49.7002	-0.001545	NaN
0.000000	1.000000	0.843528	7.36504e+06	-38639.1	955.819	-29794.8	0.000000	0.000000	6.843111	0.117876	NaN	0.000000	0.001669	0.001644	28.1015	0.098174	0.002059	47.6737	178.192	-165.144	0.131569	0.842237	-0.158154	-0.159444	0.117876	47.6737	-0.160008	-27.4238	-0.004298	NaN
0.000000	1.000000	0.851521	7.36504e+06	-38639.1	955.82	-29794.8	0.000000	0.000000	6.851105	0.127149	NaN	0.000000	0.001670	0.001633	28.1016	0.007453	0.002060	3.617928	-65.2053	-165.365	0.177257	0.850235	-0.150160	-0.151446	0.127149	3.617928	-0.176518	-53.2134	-0.002389	NaN
0.000000	1.000000	0.859546	7.36505e+06	-38639.1	955.819	-29794.8	0.000000	0.000000	6.859129	0.095805	NaN	0.000000	0.001654	0.001652	28.1007	0.040945	0.001962	20.8737	65.6846	-165.231	0.058765	0.858244	-0.142135	-0.143437	0.095805	20.8737	-0.145577	-15.0259	-0.006376	NaN
0.000000	1.000000	0.867531	7.36505e+06	-38639.1	955.819	-29794.8	0.000000	0.000000	6.867111	0.028104	NaN	0.000000	0.001646	0.001610	28.1014	0.047095	0.001918	24.5583	-165.927	-162.759	0.110168	0.866270	-0.134150	-0.135411	0.028104	24.5583	-0.135008	-9.515897	-0.002953	NaN
0.000000	1.000000	0.875542	7.36505e+06	-38639.1	955.819	-29794.8	0.000000	0.000000	6.875122	0.036597	NaN	0.000000	0.001630	0.001622	28.1013	0.035463	0.001999	17.7436	-128.291	-164.709	0.080407	0.874184	-0.126139	-0.127497	0.036597	17.7436	-0.127686	-6.868608	-0.005328	NaN
0.000000	1.000000	0.883563	7.36505e+06	-38639.1	955.819	-29794.8	0.000000	0.000000	6.883144	0.046633	NaN	0.000000	0.001649	0.001656	28.1018	0.061317	0.002118	28.9563	-13.1305	-163.105	-0.031329	0.882238	-0.118118	-0.119443	0.046633	28.9563	-0.119326	-4.682243	-0.009960	NaN
0.000000	1.000000	0.891518	7.36505e+06	-38639.1	955.819	-29794.8	0.000000	0.000000	6.891098	0.040874	NaN	0.000000	0.001619	0.001647	28.1021	0.065973	0.001989	33.1656	-153.654	-166.276	0.028073	0.890257	-0.110163	-0.111424	0.040874	33.1656	-0.111088	-3.167723	-0.012903	NaN
0.000000	1.000000	0.899548	7.36505e+06	-38639.1	955.819	-29794.8	0.000000	0.000000	6.899132	0.122507	NaN	0.000000	0.001623	0.001635	28.1025	0.016134	0.002010	8.026486	140.721	-162.772	0.030494	0.898220	-0.102133	-0.103461	0.122507	8.026486	-0.113580	-3.570584	-0.034310	NaN
0.000000	1.000000	0.907555	7.36505e+06	-38639.1	955.819	-29794.8	0.000000	0.000000	6.907137	0.103207	NaN	0.000000	0.001631	0.001632	28.1023	0.042738	0.001881	22.7183	145.666	-163.561	0.048398	0.906258	-0.094126	-0.095423	0.103207	22.7183	-0.097534	-1.609670	-0.064117	NaN
0.000000	1.000000	0.915542	7.36505e+06	-38639.1	955.818	-29794.8	0.000000	0.000000	6.915123	0.052236	NaN	0.000000	0.001679	0.001644	28.1016	0.065328	0.002014	32.4355	152.835	-163.056	0.159634	0.914247	-0.086139	-0.087434	0.052236	32.4355	-0.087347	-0.935542	-0.055835	NaN
0.000000	1.000000	0.923563	7.36505e+06	-38639.1	955.818	-29794.8	0.000000	0.000000	6.923147	0.128060	NaN	0.000000	0.001645	0.001651	28.1028	0.059367	0.002029	29.2566	-175.584	-166.374	-0.043688	0.922278	-0.078118	-0.079403	0.128060	29.2566	-0.081401	-0.670732	-0.190926	NaN
0.000000	1.000000	0.931542	7.36505e+06	-38639.1	955.82	-29794.8	0.000000	0.000000	6.931123	0.076986	NaN	0.000000	0.001688	0.001618	28.101	0.018243	0.001987	9.183026	81.1101	-161.01	0.039737	0.930226	-0.070140	-0.071455	0.076986	9.183026	-0.076427	-0.502645	-0.153162	NaN
0.000000	1.000000	0.939578	7.36505e+06	-38639.1	955.819	-29794.8	0.000000	0.000000	6.939156	-0.011902	NaN	0.000000	0.001673	0.001611	28.1016	0.112926	0.002048	55.1273	147.922	-167.023	0.043991	0.938274	-0.062103	-0.063407	-0.011902	55.1273	-0.061941	-0.204560	0.058186	NaN
0.000000	1.000000	0.947577	7.36505e+06	-38639.1	955.819	-29794.8	0.000000	0.000000	6.947157	0.052104	NaN	0.000000	0.001670	0.001615	28.101	0.039763	0.001969	20.1956	54.513	-166.435	-0.016439	0.946219	-0.054104	-0.055462	0.052104	20.1956	-0.056039	-0.138190	-0.377048	NaN
0.000000	1.000000	0.955560	7.36505e+06	-38639.1	955.818	-29794.8	0.000000	0.000000	6.955141	0.063844	NaN	0.000000	0.001649	0.001611	28.1018	0.059244	0.002109	28.0955	-89.2925	-161.7	0.070421	0.954222	-0.046121	-0.047459	0.063844	28.0955	-0.047825	-0.078387	-0.814479	NaN
0.000000	1.000000	0.963559	7.36505e+06	-38639.1	955.819	-29794.8	0.000000	0.000000	6.963143	0.115417	NaN	0.000000	0.001649	0.001643	28.1023	0.046364	0.001989	23.3093	-13.0941	-167.581	0.103249	0.962289	-0.038122	-0.039392	0.115417	23.3093	-0.041835	-0.051434	-2.243984	NaN
0.000000	1.000000	0.971560	7.36505e+06	-38639.1	955.819	-29794.8	0.000000	0.000000	6.971143	0.096367	NaN	0.000000	0.001666	0.001630	28.103	0.053740	0.001889	28.4558	28.8446	-163.142	0.004449	0.970230	-0.030121	-0.031451	0.096367	28.4558	-0.032661	-0.027374	-3.520324	NaN
0.000000	1.000000	0.979585	7.36505e+06	-38639.1	955.819	-29794.8	0.000000	0.000000	6.979185	0.501450	NaN	0.000000	0.001635	0.001622	28.104	0.199823	0.001996	100.123	14.7456	-165.683	0.422888	0.978277	-0.022096	-0.023405	0.501450	100.123	-0.025852	-0.017762	-28.2319	NaN
0.000000	1.000000	0.987577	7.36505e+06	-38639.1	955.818	-29794.8	0.000000	0.000000	6.987182	0.626103	NaN	0.000000	0.001648	0.001593	28.1035	0.289960	0.002001	144.938	34.1821	-167.385	0.650172	0.986248	-0.014104	-0.015433	0.626103	144.938	-0.017344	-0.010732	-58.3422	NaN
0.000000	1.000000	0.995591	7.36505e+06	-38639.1	955.817	-29794.8	0.000000	0.000000	6.995204	0.844521	NaN	0.000000	0.001646	0.001644	28.1046	0.344340	0.001996	172.501	20.3785	-169.257	0.857238	0.994236	-0.006090	-0.007445	0.844521	172.501	-0.009762	-0.006251	-135.097	NaN
0.000000	1.000000	1.003581	7.36505e+06	-38639.1	955.817	-29794.8	0.000000	0.000000	7.003208	1.175571	NaN	0.000000	0.001652	0.001617	28.1036	0.747052	0.001988	375.791	22.5092	-164.867	1.094803	1.002297	0.001900	0.000615	1.175571	375.791	-0.000446	-0.000331	-3554.36	NaN
0.000000	1.000000	1.011603	7.36505e+06	-38639.1	955.817	-29794.8	0.000000	0.000000	7.011263	1.973665	NaN	0.000000	0.001650	0.001632	28.1033	1.040555	0.002145	484.996	10.9998	-162.117	1.863966	1.010286	0.009922	0.008605	1.973665	484.996	0.006870	0.005906	334.203	5766.07
0.000000	1.000000	1.019584	7.36505e+06	-38639.1	955.818	-29794.8	0.000000	0.000000	7.019299	3.328639	NaN	0.000000	0.001675	0.001669	28.1028	1.413932	0.001987	711.697	15.5978	-165.761	3.030259	1.018283	0.017903	0.016602	3.328639	711.697	0.014395	0.014487	229.77	5402.34
0.000000	1.000000	1.027604	7.36505e+06	-38639.1	955.817	-29794.8	0.000000	0.000000	7.027382	4.850960	NaN	0.000000	0.001690	0.001629	28.103	1.865371	0.001984	940.079	18.8382	-166.867	4.678200	1.026294	0.025923	0.024613	4.850960	940.079	0.022053	0.025872	187.502	5339.82
0.000000	1.000000	1.035633	7.36505e+06	-38639.1	955.817	-29794.8	0.000000	0.000000	7.035494	6.854115	NaN	0.000000	0.001652	0.001626	28.1034	2.281159	0.002044	1115.92	14.1101	-165.808	6.614780	1.034293	0.033952	0.032612	6.854115	1115.92	0.029346	0.039399	173.968	5136.5
0.000000	1.000000	1.043496	7.36505e+06	-38639.1	955.818	-29794.8	0.000000	0.000000	7.043447	9.056659	NaN	0.000000	0.001677	0.001627	28.1037	2.597637	0.001865	1392.84	12.5542	-167.164	8.830076	1.042261	0.041815	0.040579	9.056659	1392.84	0.036938	0.056355	160.706	5360.51
0.000000	2.000000	1.046194	7.36505e+06	-38639.1	955.818	-29794.8	0.000000	0.000000	7.046143	9.020960	NaN	0.000000	0.001660	0.001609	28.1052	2.761348	0.001911	1445.31	13.5596	-169.286	8.858477	1.045859	0.044513	0.044178	9.020960	1445.31	0.039832	0.063594	141.853	5236.32
0.000000	2.000000	1.048154	7.36505e+06	-38639.1	955.817	-29794.8	0.000000	0.000000	7.048123	9.508507	NaN	0.000000	0.001633	0.001596	28.1046	3.132324	0.001948	1608.06	12.5344	-167.812	9.489699	1.047786	0.046473	0.046105	9.508507	1608.06	0.042038	0.069401	137.008	5576.88
0.000000	2.000000	1.050152	7.36505e+06	-38639.1	955.819	-29794.8	0.000000	0.000000	7.050151	10.2403	NaN	0.000000	0.001678	0.001595	28.1049	3.388985	0.001982	1709.94	10.9883	-168.457	10.1133	1.049880	0.048471	0.048199	10.2403	1709.94	0.043979	0.074717	137.055	5715.39
0.000000	2.000000	1.052147	7.36505e+06	-38639.1	955.818	-29794.8	0.000000	0.000000	7.052170	10.8142	NaN	0.000000	0.001697	0.001592	28.1036	3.528456	0.001936	1822.68	10.0033	-169.175	10.7984	1.051819	0.050466	0.050138	10.8142	1822.68	0.046016	0.080497	134.343	5869.39
0.000000	2.000000	1.054111	7.36505e+06	-38639.1	955.818	-29794.8	0.000000	0.000000	7.054170	11.6893	NaN	0.000000	0.001652	0.001630	28.1048	3.815294	0.002136	1785.84	12.1677	-169.161	11.641	1.053798	0.052430	0.052117	11.6893	1785.84	0.047521	0.084906	137.674	5599.47
0.000000	2.000000	1.056113	7.36505e+06	-38639.1	955.818	-29794.8	0.000000	0.000000	7.056198	12.3188	NaN	0.000000	0.001670	0.001643	28.1038	3.830533	0.002014	1902.22	10.7191	-167.675	12.4678	1.055825	0.054432	0.054144	12.3188	1902.22	0.049575	0.091104	135.217	5757.91
0.000000	2.000000	1.058101	7.36505e+06	-38639.1	955.819	-29794.8	0.000000	0.000000	7.058228	13.3477	NaN	0.000000	0.001696	0.001654	28.1036	3.838798	0.001859	2065.51	6.891232	-165.67	13.0634	1.057767	0.056420	0.056086	13.3477	2065.51	0.051573	0.097337	137.129	6048.69
0.000000	2.000000	1.060102	7.36505e+06	-38639.1	955.819	-29794.8	0.000000	0.000000	7.060263	14.1911	NaN	0.000000	0.001637	0.001651	28.1029	4.140285	0.001980	2091.01	9.819022	-167.617	14.1717	1.059790	0.058421	0.058109	14.1911	2091.01	0.053331	0.102985	137.798	5953.08
0.000000	2.000000	1.062118	7.36505e+06	-38639.1	955.817	-29794.8	0.000000	0.000000	7.062313	15.0171	NaN	0.000000	0.001644	0.001653	28.1025	4.253960	0.002009	2117.5	10.4475	-167.79	14.8509	1.061773	0.060437	0.060092	15.0171	2117.5	0.055118	0.108885	137.917	5862.91
0.000000	2.000000	1.064111	7.36505e+06	-38639.1	955.818	-29794.8	0.000000	0.000000	7.064344	15.9298	NaN	0.000000	0.001630	0.001627	28.1035	4.382834	0.002027	2162.62	10.2343	-168.436	15.8415	1.063771	0.062430	0.062090	15.9298	2162.62	0.056905	0.114945	138.586	5827.85
0.000000	2.000000	1.066108	7.36505e+06	-38639.1	955.818	-29794.8	0.000000	0.000000	7.066370	16.6272	NaN	0.000000	0.001640	0.001656	28.1034	4.440751	0.001953	2274.28	10.5498	-169.148	16.7064	1.065820	0.064427	0.064139	16.6272	2274.28	0.058943	0.122047	136.236	5947.77
0.000000	2.000000	1.068081	7.36505e+06	-38639.1	955.819	-29794.8	0.000000	0.000000	7.068396	17.9095	NaN	0.000000	0.001647	0.001597	28.1038	4.587769	0.002023	2267.99	9.454755	-168.34	17.8304	1.067766	0.066400	0.066085	17.9095	2267.99	0.060478	0.127527	140.437	5802.47
0.000000	2.000000	1.070063	7.36505e+06	-38639.1	955.817	-29794.8	0.000000	0.000000	7.070413	18.7813	NaN	0.000000	0.001638	0.001637	28.1049	4.710280	0.001798	2619.45	9.218837	-169.648	18.7384	1.069775	0.068382	0.068094	18.7813	2619.45	0.063005	0.136802	137.288	6470.49
0.000000	2.000000	1.072068	7.36505e+06	-38639.1	955.818	-29794.8	0.000000	0.000000	7.072478	20.2377	NaN	0.000000	0.001643	0.001623	28.103	4.945759	0.001922	2573.14	9.551370	-167.8	20.0081	1.071751	0.070387	0.070070	20.2377	2573.14	0.064488	0.142393	142.126	6230.06
0.000000	2.000000	1.074077	7.36505e+06	-38639.1	955.819	-29794.8	0.000000	0.000000	7.074522	21.0794	NaN	0.000000	0.001683	0.001596	28.1038	5.106513	0.002035	2508.82	7.304869	-165.011	20.8199	1.073731	0.072396	0.072050	21.0794	2508.82	0.066095	0.148565	141.887	5946.81
0.000000	2.000000	1.076079	7.36505e+06	-38639.1	955.819	-29794.8	0.000000	0.000000	7.076565	22.0851	NaN	0.000000	0.001664	0.001628	28.1036	5.514802	0.001958	2815.89	10.2954	-169.827	22.1803	1.075701	0.074398	0.074020	22.0851	2815.89	0.068516	0.158103	139.688	6470.2
0.000000	2.000000	1.078063	7.36505e+06	-38639.1	955.819	-29794.8	0.000000	0.000000	7.078600	23.3311	NaN	0.000000	0.001679	0.001596	28.1035	5.625220	0.002033	2767.39	10.0791	-167.857	23.0821	1.077732	0.076382	0.076051	23.3311	2767.39	0.070059	0.164328	141.979	6237.17
0.000000	2.000000	1.080047	7.36505e+06	-38639.1	955.818	-29794.8	0.000000	0.000000	7.080639	24.6538	NaN	0.000000	0.001660	0.001595	28.1027	5.722983	0.001973	2900.03	9.333808	-168.965	24.6316	1.079799	0.078366	0.078118	24.6538	2900.03	0.071990	0.172277	143.105	6383.53
0.000000	2.000000	1.082063	7.36505e+06	-38639.1	955.82	-29794.8	0.000000	0.000000	7.082706	25.8982	NaN	0.000000	0.001682	0.001635	28.1033	5.984381	0.001924	3110.07	7.520922	-168.856	25.7624	1.081712	0.080382	0.080031	25.8982	3110.07	0.074136	0.181321	142.831	6672.98
0.000000	2.000000	1.084055	7.36505e+06	-38639.1	955.819	-29794.8	0.000000	0.000000	7.084755	27.2872	NaN	0.000000	0.001670	0.001658	28.1033	6.354180	0.001992	3190.56	9.847797	-170.752	27.0052	1.083786	0.082374	0.082105	27.2872	3190.56	0.075960	0.189172	144.245	6702.1
0.000000	2.000000	1.086066	7.36505e+06	-38639.1	955.819	-29794.8	0.000000	0.000000	7.086804	28.2201	NaN	0.000000	0.001672	0.001660	28.1042	6.692582	0.001989	3364.23	9.522955	-170.058	28.3623	1.085796	0.084385	0.084115	28.2201	3364.23	0.078093	0.198561	142.123	6897.82
0.000000	2.000000	1.088052	7.36505e+06	-38639.1	955.819	-29794.8	0.000000	0.000000	7.088845	29.5348	NaN	0.000000	0.001684	0.001662	28.1046	6.476149	0.001861	3479.11	8.959885	-170.145	29.0262	1.087778	0.086371	0.086097	29.5348	3479.11	0.080004	0.207149	142.578	6983.93
0.000000	2.000000	1.090069	7.36505e+06	-38639.1	955.819	-29794.8	0.000000	0.000000	7.090927	31.1325	NaN	0.000000	0.001662	0.001642	28.1046	6.785415	0.002002	3389.59	6.906746	-167.553	31.1304	1.089740	0.088388	0.088059	31.1325	3389.59	0.081499	0.213985	145.489	6694.66
0.000000	2.000000	1.092045	7.36505e+06	-38639.1	955.818	-29794.8	0.000000	0.000000	7.092939	32.0263	NaN	0.000000	0.001663	0.001653	28.1049	7.133926	0.002038	3499.81	7.606555	-169.218	31.8851	1.091757	0.090364	0.090076	32.0263	3499.81	0.083500	0.223300	143.423	6766.64
0.000000	2.000000	1.094015	7.36505e+06	-38639.1	955.818	-29794.8	0.000000	0.000000	7.094987	33.9298	NaN	0.000000	0.001647	0.001645	28.1039	7.132597	0.002004	3558.46	8.593581	-168.473	33.68	1.093687	0.092333	0.092006	33.9298	3558.46	0.085182	0.231272	146.71	6760.43
0.000000	2.000000	1.096046	7.36505e+06	-38639.1	955.819	-29794.8	0.000000	0.000000	7.097076	35.3052	NaN	0.000000	0.001668	0.001657	28.1037	7.176286	0.002013	3564.57	11.8286	-173.161	35.0921	1.095710	0.094365	0.094029	35.3052	3564.57	0.086937	0.239727	147.272	6651.54
0.000000	2.000000	1.098007	7.36505e+06	-38639.1	955.819	-29794.8	0.000000	0.000000	7.099084	36.4591	NaN	0.000000	0.001669	0.001656	28.1051	7.164851	0.001880	3810.17	10.4881	-173.78	35.9139	1.097754	0.096326	0.096073	36.4591	3810.17	0.089149	0.250591	145.493	6954.02
0.000000	2.000000	1.100042	7.36505e+06	-38639.1	955.818	-29794.8	0.000000	0.000000	7.101173	37.76	NaN	0.000000	0.001665	0.001647	28.1043	7.439811	0.001943	3828.5	8.639431	-171.277	37.4325	1.099714	0.098361	0.098033	37.76	3828.5	0.090964	0.259671	145.415	6864.19
0.000000	2.000000	1.102030	7.36505e+06	-38639.1	955.818	-29794.8	0.000000	0.000000	7.103218	39.1678	NaN	0.000000	0.001682	0.001592	28.1047	7.701717	0.001958	3933.23	9.326993	-171.599	38.8871	1.101707	0.100349	0.100026	39.1678	3933.23	0.092880	0.269420	145.378	6923.21
0.000000	2.000000	1.104020	7.36505e+06	-38639.1	955.819	-29794.8	0.000000	0.000000	7.105275	40.7937	NaN	0.000000	0.001679	0.001608	28.1053	7.740141	0.002108	3671.12	8.516645	-168.371	40.4528	1.103760	0.102339	0.102079	40.7937	3671.12	0.094004	0.275221	148.222	6393.38
0.000000	2.000000	1.106054	7.36505e+06	-38639.1	955.818	-29794.8	0.000000	0.000000	7.107347	41.7209	NaN	0.000000	0.001683	0.001640	28.1064	7.902133	0.002021	3910.24	9.474201	-171.269	41.547	1.105793	0.104373	0.104112	41.7209	3910.24	0.096371	0.287616	145.058	6661.48
0.000000	2.000000	1.108004	7.36505e+06	-38639.1	955.819	-29794.8	0.000000	0.000000	7.109365	43.3802	NaN	0.000000	0.001671	0.001634	28.1057	7.979122	0.001993	4004.01	9.821633	-171.14	43.1928	1.107682	0.106323	0.106001	43.3802	4004.01	0.098197	0.297354	145.887	6708.59
0.000000	2.000000	1.110015	7.36505e+06	-38639.1	955.818	-29794.8	0.000000	0.000000	7.111427	44.6303	NaN	0.000000	0.001702	0.001626	28.1062	7.768949	0.001856	4186.62	5.496433	-167.982	44.5734	1.109700	0.108334	0.108019	44.6303	4186.62	0.100339	0.308970	144.449	6881.44
0.000000	2.000000	1.112049	7.36505e+06	-38639.1	955.819	-29794.8	0.000000	0.000000	7.113519	46.0282	NaN	0.000000	0.001661	0.001666	28.1056	8.202601	0.001955	4194.65	6.675219	-168.901	46.2161	1.111720	0.110368	0.110039	46.0282	4194.65	0.102138	0.318891	144.338	6786.53
0.000000	2.000000	1.114041	7.36505e+06	-38639.1	955.819	-29794.8	0.000000	0.000000	7.115589	47.9384	NaN	0.000000	0.001673	0.001633	28.1057	8.814554	0.002067	4264.1	10.7615	-172.029	47.8386	1.113729	0.112360	0.112048	47.9384	4264.1	0.103928	0.328904	145.752	6793.07
0.000000	2.000000	1.115994	7.36505e+06	-38639.1	955.82	-29794.8	0.000000	0.000000	7.117604	49.4347	NaN	0.000000	0.001696	0.001661	28.1057	8.736025	0.002030	4303.43	9.544668	-171.42	48.8083	1.115695	0.114312	0.114013	49.4347	4303.43	0.105697	0.338943	145.849	6753.43
0.000000	2.000000	1.118029	7.36505e+06	-38639.1	955.819	-29794.8	0.000000	0.000000	7.119702	50.9723	NaN	0.000000	0.001715	0.001644	28.1053	9.083858	0.002108	4308.73	11.9805	-174.336	50.9447	1.117705	0.116348	0.116024	50.9723	4308.73	0.107475	0.349178	145.978	6661.91
0.000000	2.000000	1.120024	7.36505e+06	-38639.1	955.818	-29794.8	0.000000	0.000000	7.121764	52.6143	NaN	0.000000	0.001699	0.001642	28.1054	9.181762	0.002004	4581.38	11.3324	-174.135	52.6429	1.119747	0.118343	0.118066	52.6143	4581.38	0.109729	0.362359	145.199	6953.45
0.000000	2.000000	1.122031	7.36505e+06	-38639.1	955.819	-29794.8	0.000000	0.000000	7.123864	54.8541	NaN	0.000000	0.001699	0.001650	28.1051	8.870347	0.001913	4637.98	7.186136	-169.878	54.5837	1.121664	0.120350	0.119983	54.8541	4637.98	0.111480	0.372751	147.16	6940.53
0.000000	2.000000	1.124046	7.36505e+06	-38639.1	955.819	-29794.8	0.000000	0.000000	7.125940	56.357	NaN	0.000000	0.001683	0.001633	28.1069	9.106663	0.001870	4868.62	9.651727	-172.948	56.5176	1.123709	0.122365	0.122028	56.357	4868.62	0.113683	0.386034	145.99	7159.23
0.000000	2.000000	1.125989	7.36505e+06	-38639.1	955.818	-29794.8	0.000000	0.000000	7.127969	58.437	NaN	0.000000	0.001695	0.001636	28.1062	9.262662	0.002000	4631.28	9.094740	-172.032	57.8923	1.125684	0.124308	0.124003	58.437	4631.28	0.114845	0.393123	148.648	6748.55
0.000000	2.000000	1.128007	7.36505e+06	-38639.1	955.819	-29794.8	0.000000	0.000000	7.130042	59.7865	NaN	0.000000	0.001698	0.001658	28.1056	9.417392	0.001906	4941.34	8.297717	-171.196	59.6009	1.127701	0.126326	0.126020	59.7865	4941.34	0.117251	0.408006	146.533	7067.8
0.000000	2.000000	1.130019	7.36505e+06	-38639.1	955.82	-29794.8	0.000000	0.000000	7.132138	61.8082	NaN	0.000000	0.001710	0.001632	28.1044	9.729075	0.001974	4927.48	9.888458	-172.613	61.8129	1.129701	0.128338	0.128020	61.8082	4927.48	0.118930	0.418549	147.673	6958.65
0.000000	2.000000	1.131974	7.36505e+06	-38639.1	955.819	-29794.8	0.000000	0.000000	7.134165	63.5924	NaN	0.000000	0.001706	0.001689	28.1049	9.767504	0.002019	4837.07	9.085019	-172.096	63.0354	1.131731	0.130292	0.130050	63.5924	4837.07	0.120432	0.428085	148.551	6754.46
0.000000	2.000000	1.134001	7.36505e+06	-38639.1	955.819	-29794.8	0.000000	0.000000	7.136265	65.3477	NaN	0.000000	0.001668	0.001678	28.105	10.0392	0.002009	4997.85	9.119675	-171.785	64.8815	1.133670	0.132320	0.131989	65.3477	4997.85	0.122514	0.441471	148.023	6872.35
0.000000	2.000000	1.136004	7.36505e+06	-38639.1	955.819	-29794.8	0.000000	0.000000	7.138338	67.0499	NaN	0.000000	0.001714	0.001655	28.1044	10.1983	0.002009	5075.61	8.519242	-171.713	66.626	1.135673	0.134323	0.133992	67.0499	5075.61	0.124416	0.453873	147.728	6883.26
0.000000	2.000000	1.137962	7.36505e+06	-38639.1	955.82	-29794.8	0.000000	0.000000	7.140377	69.0299	NaN	0.000000	0.001687	0.001649	28.1056	10.6275	0.002022	5255.43	9.558173	-173.836	68.5749	1.137684	0.136281	0.136003	69.0299	5255.43	0.126430	0.467187	147.756	7024.83
0.000000	2.000000	1.140021	7.36505e+06	-38639.1	955.82	-29794.8	0.000000	0.000000	7.142515	70.9563	NaN	0.000000	0.001692	0.001623	28.1039	10.6563	0.002057	5180.06	9.769605	-173.194	71.4857	1.139661	0.138340	0.137980	70.9563	5180.06	0.128067	0.478145	148.399	6844.28
0.000000	2.000000	1.141979	7.36505e+06	-38639.1	955.82	-29794.8	0.000000	0.000000	7.144562	73.1074	NaN	0.000000	0.001754	0.001647	28.1045	10.6865	0.001987	5377.03	9.658186	-172.62	72.6609	1.141694	0.140298	0.140013	73.1074	5377.03	0.130101	0.491936	148.612	7004.24
0.000000	2.000000	1.142980	7.36505e+06	-38639.1	955.82	-29794.8	0.000000	0.000000	7.145605	74.1208	NaN	0.000000	0.001736	0.001622	28.0937	10.4616	0.001902	5499.61	5.427044	-169.516	73.2245	1.142649	0.141299	0.140968	74.1208	5499.61	0.131191	0.499400	148.42	7110.19