File: remote_trans/data/nanoindenter/0828-1/data/Data_2025-08-06,11h17m57s/2025-07-22_16-23-58_1_406.txt
2025-07-22, 16:23:58, 1
Index	Phase	Displacement	Time	Pos X	Pos Y	Pos Z	Rot A	Rot B	Piezo Z	Force A	Force B	Gripper	Voltage A	Voltage B	Temperature	Amplitude force	Amplitude pos	Stiffness	Phase shift	Phase excitation	Force A raw	Displacement raw	HMax	HMax raw	Real Force	Real Stiffness	Contact Depth	Area	Hardness	Reduced Mod.
[#]	[#]	[um]	[s]	[um]	[um]	[um]	[m°]	[m°]	[um]	[uN]	[uN]	[V]	[V]	[V]	[°C]	[uN]	[um]	[N/m]	[°]	[°]	[uN]	[um]	[um]	[um]	[uN]	[N/m]	[um]	[um^2]	[MPa]	[MPa]
406	1.000000	0.002801	7.36903e+06	-56789.1	1005.82	-29738.3	0.000000	0.000000	6.002793	0.028619	NaN	0.000000	0.001632	0.001675	28.0787	0.030401	0.000899	33.8289	41.8862	-169.868	0.020589	0.001558	-1.061108	-1.062351	0.028619	33.8289	-1.061742	-1.535451E+14	-1.863881E-16	NaN
406	1.000000	0.010764	7.36903e+06	-56789.1	1005.82	-29738.3	0.000000	0.000000	6.010755	-0.002427	NaN	0.000000	0.001650	0.001642	28.0798	0.057413	0.000989	58.0356	-32.3511	-156.868	-0.049160	0.009450	-1.053145	-1.054458	-0.002427	58.0356	-1.053113	-1.175617E+14	2.064598E-17	NaN
406	1.000000	0.018774	7.36903e+06	-56789.1	1005.82	-29738.3	0.000000	0.000000	6.018763	-0.045823	NaN	0.000000	0.001633	0.001631	28.08	0.110433	0.001665	66.3415	177.561	-168.261	-0.001507	0.017423	-1.045135	-1.046486	-0.045823	66.3415	-1.044617	-9.037362E+13	5.070380E-16	NaN
406	1.000000	0.026778	7.36903e+06	-56789.1	1005.82	-29738.3	0.000000	0.000000	6.026768	-0.031182	NaN	0.000000	0.001625	0.001652	28.0797	0.128116	0.001891	67.7363	-101.684	-164.762	0.001388	0.025447	-1.037131	-1.038461	-0.031182	67.7363	-1.036785	-7.091529E+13	4.397133E-16	NaN
406	1.000000	0.034766	7.36903e+06	-56789.1	1005.82	-29738.3	0.000000	0.000000	6.034758	0.032278	NaN	0.000000	0.001644	0.001652	28.0796	0.089731	0.001835	48.9072	83.3332	-166.333	0.039426	0.033466	-1.029143	-1.030442	0.032278	48.9072	-1.029638	-5.683415E+13	-5.679272E-16	NaN
406	1.000000	0.042774	7.36903e+06	-56789.1	1005.82	-29738.3	0.000000	0.000000	6.042767	0.034889	NaN	0.000000	0.001620	0.001689	28.08	0.018121	0.001979	9.154899	114.716	-168.476	0.033244	0.041453	-1.021134	-1.022455	0.034889	9.154899	-1.023993	-4.771652E+13	-7.311672E-16	NaN
406	1.000000	0.050780	7.36903e+06	-56789.1	1005.82	-29738.3	0.000000	0.000000	6.050771	-0.020296	NaN	0.000000	0.001608	0.001664	28.0797	0.101769	0.002107	48.3094	137.384	-164.907	-0.040743	0.049408	-1.013128	-1.014500	-0.020296	48.3094	-1.012813	-3.374761E+13	6.013916E-16	NaN
406	1.000000	0.058725	7.36903e+06	-56789.1	1005.82	-29738.3	0.000000	0.000000	6.058715	-0.023820	NaN	0.000000	0.001602	0.001672	28.0798	0.089752	0.001971	45.5457	11.3341	-161.071	-0.069133	0.057486	-1.005184	-1.006422	-0.023820	45.5457	-1.004791	-2.631912E+13	9.050497E-16	NaN
406	1.000000	0.066783	7.36903e+06	-56789.1	1005.82	-29738.3	0.000000	0.000000	6.066771	-0.070677	NaN	0.000000	0.001596	0.001653	28.0799	0.016315	0.002109	7.734039	150.65	-164.137	-0.007926	0.065447	-0.997126	-0.998462	-0.070677	7.734039	-0.990272	-1.677945E+13	4.212117E-15	NaN
406	1.000000	0.074743	7.36903e+06	-56789.1	1005.82	-29738.3	0.000000	0.000000	6.074733	-0.042539	NaN	0.000000	0.001625	0.001654	28.0799	0.085758	0.002112	40.601	-153.793	-164.43	-0.034814	0.073405	-0.989165	-0.990503	-0.042539	40.601	-0.988379	-1.582288E+13	2.688439E-15	NaN
406	1.000000	0.082748	7.36903e+06	-56789.1	1005.82	-29738.3	0.000000	0.000000	6.082738	-0.041122	NaN	0.000000	0.001575	0.001646	28.0803	0.118212	0.002065	57.2326	-99.0356	-167.629	-0.023178	0.081453	-0.981160	-0.982455	-0.041122	57.2326	-0.980621	-1.243884E+13	3.305913E-15	NaN
406	1.000000	0.090761	7.36903e+06	-56789.1	1005.82	-29738.3	0.000000	0.000000	6.090754	0.038561	NaN	0.000000	0.001630	0.001607	28.0798	0.098331	0.002098	46.8698	3.051127	-164.504	-0.011241	0.089408	-0.973147	-0.974500	0.038561	46.8698	-0.973764	-1.005525E+13	-3.834914E-15	NaN
406	1.000000	0.098781	7.36903e+06	-56789.1	1005.82	-29738.3	0.000000	0.000000	6.098772	-0.014174	NaN	0.000000	0.001612	0.001660	28.08	0.031358	0.002040	15.3731	33.0478	-165.949	-0.063679	0.097460	-0.965128	-0.966448	-0.014174	15.3731	-0.964436	-7.527826E+12	1.882907E-15	NaN
406	1.000000	0.106777	7.36903e+06	-56789.1	1005.82	-29738.3	0.000000	0.000000	6.106769	-0.002138	NaN	0.000000	0.001608	0.001652	28.0798	0.083327	0.001888	44.1253	50.1829	-163.027	-0.098882	0.105487	-0.957131	-0.958421	-0.002138	44.1253	-0.957095	-5.993746E+12	3.567470E-16	NaN
406	1.000000	0.114786	7.36903e+06	-56789.1	1005.82	-29738.3	0.000000	0.000000	6.114777	0.014907	NaN	0.000000	0.001622	0.001615	28.0797	0.084869	0.001987	42.7027	59.6603	-163.19	0.017201	0.113469	-0.949123	-0.950440	0.014907	42.7027	-0.949385	-4.717693E+12	-3.159777E-15	NaN
406	1.000000	0.122789	7.36903e+06	-56789.1	1005.82	-29738.3	0.000000	0.000000	6.122780	0.002069	NaN	0.000000	0.001587	0.001632	28.0799	0.016268	0.002038	7.983650	105.8	-166.975	-0.022581	0.121462	-0.941120	-0.942447	0.002069	7.983650	-0.941314	-3.671686E+12	-5.636290E-16	NaN
406	1.000000	0.130777	7.36903e+06	-56789.1	1005.82	-29738.3	0.000000	0.000000	6.130766	-0.042466	NaN	0.000000	0.001626	0.001626	28.0797	0.068577	0.001984	34.5577	116.423	-162.146	-0.068810	0.129462	-0.933132	-0.934447	-0.042466	34.5577	-0.932210	-2.767087E+12	1.534676E-14	NaN
406	1.000000	0.138791	7.36903e+06	-56789.1	1005.82	-29738.3	0.000000	0.000000	6.138780	-0.066031	NaN	0.000000	0.001621	0.001629	28.0801	0.117368	0.001937	60.5898	-48.1675	-161.252	-0.013030	0.137455	-0.925117	-0.926453	-0.066031	60.5898	-0.924300	-2.163991E+12	3.051334E-14	NaN
406	1.000000	0.146824	7.36903e+06	-56789.1	1005.82	-29738.3	0.000000	0.000000	6.146815	-0.003263	NaN	0.000000	0.001628	0.001666	28.0785	0.064878	0.002105	30.8271	171.897	-165.623	-0.044533	0.145492	-0.917085	-0.918417	-0.003263	30.8271	-0.917005	-1.724931E+12	1.891894E-15	NaN
406	1.000000	0.154813	7.36903e+06	-56789.1	1005.82	-29738.3	0.000000	0.000000	6.154804	-0.011394	NaN	0.000000	0.001615	0.001663	28.0786	0.077947	0.002125	36.6828	90.1496	-164.973	0.047362	0.153527	-0.909095	-0.910381	-0.011394	36.6828	-0.908862	-1.339047E+12	8.509351E-15	NaN
406	1.000000	0.162821	7.36903e+06	-56789.1	1005.82	-29738.3	0.000000	0.000000	6.162813	0.008921	NaN	0.000000	0.001615	0.001673	28.0786	0.049711	0.002095	23.7227	-82.3154	-163.316	0.051926	0.161517	-0.901087	-0.902391	0.008921	23.7227	-0.901369	-1.060633E+12	-8.411022E-15	NaN
406	1.000000	0.170798	7.36903e+06	-56789.1	1005.82	-29738.3	0.000000	0.000000	6.170789	0.000445	NaN	0.000000	0.001580	0.001669	28.0783	0.178242	0.002050	86.9573	-102.996	-161.202	-0.057860	0.169501	-0.893111	-0.894407	0.000445	86.9573	-0.893114	-8.203780E+11	-5.425788E-16	NaN
406	1.000000	0.178784	7.36903e+06	-56789.1	1005.82	-29738.3	0.000000	0.000000	6.178775	0.014683	NaN	0.000000	0.001574	0.001622	28.079	0.068886	0.001960	35.1437	-38.6654	-166.731	-0.006467	0.177521	-0.885125	-0.886387	0.014683	35.1437	-0.885438	-6.460192E+11	-2.272829E-14	NaN
406	1.000000	0.186796	7.36903e+06	-56789.1	1005.82	-29738.3	0.000000	0.000000	6.186787	-0.019907	NaN	0.000000	0.001610	0.001623	28.0787	0.010956	0.001940	5.647707	152.863	-163.24	0.039201	0.185531	-0.877112	-0.878378	-0.019907	5.647707	-0.874469	-4.590897E+11	4.336129E-14	NaN
406	1.000000	0.194835	7.36903e+06	-56789.1	1005.82	-29738.3	0.000000	0.000000	6.194825	-0.031211	NaN	0.000000	0.001611	0.001589	28.0786	0.024764	0.002059	12.027	-143.018	-164.924	-0.022224	0.193494	-0.869073	-0.870414	-0.031211	12.027	-0.867127	-3.652312E+11	8.545616E-14	NaN
406	1.000000	0.202821	7.36903e+06	-56789.1	1005.82	-29738.3	0.000000	0.000000	6.202812	-0.001707	NaN	0.000000	0.001626	0.001605	28.0786	0.051661	0.001925	26.8437	67.3679	-164.972	-0.007351	0.201513	-0.861088	-0.862395	-0.001707	26.8437	-0.861040	-3.021352E+11	5.650855E-15	NaN
406	1.000000	0.210815	7.36903e+06	-56789.1	1005.82	-29738.3	0.000000	0.000000	6.210808	0.042857	NaN	0.000000	0.001649	0.001610	28.0785	0.035942	0.001972	18.2301	146.278	-165.281	0.040559	0.209540	-0.853094	-0.854369	0.042857	18.2301	-0.854857	-2.491717E+11	-1.719975E-13	NaN
406	1.000000	0.218847	7.36903e+06	-56789.1	1005.82	-29738.3	0.000000	0.000000	6.218838	0.010435	NaN	0.000000	0.001677	0.001687	28.0791	0.073847	0.002052	35.9874	-130.822	-164.048	-0.028217	0.217496	-0.845062	-0.846412	0.010435	35.9874	-0.845279	-1.848439E+11	-5.645516E-14	NaN
406	1.000000	0.226823	7.36903e+06	-56789.1	1005.82	-29738.3	0.000000	0.000000	6.226812	-0.057757	NaN	0.000000	0.001680	0.001681	28.0785	0.052786	0.001976	26.7159	-86.718	-166.881	-0.009293	0.225502	-0.837085	-0.838406	-0.057757	26.7159	-0.835464	-1.360910E+11	4.244000E-13	NaN
406	1.000000	0.234837	7.36903e+06	-56789.1	1005.82	-29738.3	0.000000	0.000000	6.234827	-0.038914	NaN	0.000000	0.001709	0.001616	28.0787	0.123139	0.002010	61.2716	110.408	-166.381	-0.002191	0.233526	-0.829071	-0.830382	-0.038914	61.2716	-0.828595	-1.098352E+11	3.542958E-13	NaN
406	1.000000	0.242842	7.36903e+06	-56789.1	1005.82	-29738.3	0.000000	0.000000	6.242832	-0.021673	NaN	0.000000	0.001684	0.001632	28.0785	0.040487	0.001964	20.6136	-97.3811	-171.625	-0.024747	0.241551	-0.821067	-0.822357	-0.021673	20.6136	-0.820278	-8.471896E+10	2.558277E-13	NaN
406	1.000000	0.250826	7.36903e+06	-56789.1	1005.82	-29738.3	0.000000	0.000000	6.250814	-0.088243	NaN	0.000000	0.001655	0.001653	28.0785	0.006536	0.001987	3.289783	0.836840	-165.873	-0.020071	0.249505	-0.813082	-0.814403	-0.088243	3.289783	-0.792965	-3.608647E+10	2.445326E-12	NaN
406	1.000000	0.258860	7.36903e+06	-56789.1	1005.82	-29738.3	0.000000	0.000000	6.258853	0.039851	NaN	0.000000	0.001669	0.001624	28.0788	0.093160	0.002024	46.0249	56.6304	-165.284	0.018075	0.257492	-0.805049	-0.806417	0.039851	46.0249	-0.805698	-5.372748E+10	-7.417192E-13	NaN
406	1.000000	0.266830	7.36903e+06	-56789.1	1005.82	-29738.3	0.000000	0.000000	6.266819	-0.043666	NaN	0.000000	0.001658	0.001630	28.0786	0.002883	0.002134	1.351112	-79.8341	-165.256	-0.005962	0.265512	-0.797079	-0.798396	-0.043666	1.351112	-0.772840	-1.922703E+10	2.271073E-12	NaN
406	1.000000	0.274840	7.36903e+06	-56789.1	1005.82	-29738.3	0.000000	0.000000	6.274826	-0.111985	NaN	0.000000	0.001690	0.001646	28.0791	0.080534	0.002005	40.1661	-15.0997	-160.639	-0.085401	0.273557	-0.789069	-0.790351	-0.111985	40.1661	-0.786978	-2.992514E+10	3.742184E-12	NaN
406	1.000000	0.282866	7.36903e+06	-56789.1	1005.82	-29738.3	0.000000	0.000000	6.282858	0.028093	NaN	0.000000	0.001652	0.001646	28.08	0.017591	0.001920	9.159792	120.406	-169.261	-0.011475	0.281576	-0.781043	-0.782332	0.028093	9.159792	-0.783343	-2.670890E+10	-1.051834E-12	NaN
406	1.000000	0.290845	7.36903e+06	-56789.1	1005.82	-29738.3	0.000000	0.000000	6.290838	0.021425	NaN	0.000000	0.001666	0.001629	28.0801	0.102398	0.002045	50.0647	-17.8255	-166.603	-0.023604	0.289517	-0.773063	-0.774391	0.021425	50.0647	-0.773384	-1.955748E+10	-1.095494E-12	NaN
406	1.000000	0.298868	7.36903e+06	-56789.1	1005.82	-29738.3	0.000000	0.000000	6.298862	0.084572	NaN	0.000000	0.001656	0.001629	28.0803	0.057888	0.002028	28.5428	0.958409	-167.442	-0.001569	0.297616	-0.765041	-0.766293	0.084572	28.5428	-0.767263	-1.614701E+10	-5.237643E-12	NaN
406	1.000000	0.306855	7.36903e+06	-56789.1	1005.82	-29738.3	0.000000	0.000000	6.306844	-0.034141	NaN	0.000000	0.001703	0.001629	28.0802	0.030914	0.001966	15.7224	-53.5362	-163.916	-0.089292	0.305603	-0.757054	-0.758306	-0.034141	15.7224	-0.755425	-1.114445E+10	3.063461E-12	NaN
406	1.000000	0.314867	7.36903e+06	-56789.1	1005.82	-29738.3	0.000000	0.000000	6.314857	-0.025126	NaN	0.000000	0.001658	0.001663	28.0807	0.049782	0.002061	24.149	90.6779	-162.132	-0.015954	0.313566	-0.749042	-0.750343	-0.025126	24.149	-0.748261	-8.903305E+9	2.822121E-12	NaN
406	1.000000	0.322882	7.36903e+06	-56789.1	1005.82	-29738.3	0.000000	0.000000	6.322871	-0.047702	NaN	0.000000	0.001664	0.001637	28.0801	0.064790	0.002041	31.7469	35.2695	-161.903	-0.076245	0.321556	-0.741026	-0.742352	-0.047702	31.7469	-0.739899	-6.849946E+9	6.963832E-12	NaN
406	1.000000	0.330877	7.36903e+06	-56789.1	1005.82	-29738.3	0.000000	0.000000	6.330867	-0.036460	NaN	0.000000	0.001670	0.001624	28.0802	0.041684	0.001892	22.0273	-82.6075	-161.512	-0.046730	0.329564	-0.733031	-0.734344	-0.036460	22.0273	-0.731790	-5.311282E+9	6.864576E-12	NaN
406	1.000000	0.338868	7.36903e+06	-56789.1	1005.82	-29738.3	0.000000	0.000000	6.338860	0.005993	NaN	0.000000	0.001651	0.001641	28.0801	0.040633	0.001935	21.0014	-19.2115	-165.12	0.032200	0.337561	-0.725040	-0.726348	0.005993	21.0014	-0.725254	-4.326332E+9	-1.385129E-12	NaN
406	1.000000	0.346883	7.36903e+06	-56789.1	1005.82	-29738.3	0.000000	0.000000	6.346873	-0.040953	NaN	0.000000	0.001665	0.001637	28.0801	0.014964	0.002001	7.477655	-68.6805	-166.292	-0.004579	0.345588	-0.717025	-0.718320	-0.040953	7.477655	-0.712918	-2.936741E+9	1.394511E-11	NaN
406	1.000000	0.354881	7.36903e+06	-56789.1	1005.82	-29738.3	0.000000	0.000000	6.354872	-0.010920	NaN	0.000000	0.001643	0.001658	28.0804	0.108736	0.001926	56.4655	9.401831	-166.772	-0.074315	0.353569	-0.709027	-0.710340	-0.010920	56.4655	-0.708882	-2.586973E+9	4.220998E-12	NaN
406	1.000000	0.362894	7.36903e+06	-56789.1	1005.82	-29738.3	0.000000	0.000000	6.362883	-0.069618	NaN	0.000000	0.001629	0.001668	28.0801	0.031083	0.002023	15.3678	-83.5002	-166.133	-0.028875	0.361565	-0.701014	-0.702343	-0.069618	15.3678	-0.697617	-1.815430E+9	3.834816E-11	NaN
406	1.000000	0.370892	7.36903e+06	-56789.1	1005.82	-29738.3	0.000000	0.000000	6.370881	-0.058581	NaN	0.000000	0.001614	0.001627	28.0802	0.100538	0.002109	47.6646	-13.1283	-164.846	-0.075122	0.369596	-0.693017	-0.694312	-0.058581	47.6646	-0.692095	-1.525971E+9	3.838900E-11	NaN
406	1.000000	0.378866	7.36903e+06	-56789.1	1005.82	-29738.3	0.000000	0.000000	6.378856	-0.028842	NaN	0.000000	0.001610	0.001645	28.0799	0.100087	0.001967	50.8922	-145.223	-164.459	-0.060974	0.377617	-0.685042	-0.686291	-0.028842	50.8922	-0.684617	-1.205990E+9	2.391581E-11	NaN
406	1.000000	0.386898	7.36903e+06	-56789.1	1005.82	-29738.3	0.000000	0.000000	6.386887	-0.035916	NaN	0.000000	0.001590	0.001649	28.0799	0.061120	0.002047	29.8584	-149.982	-159.581	-0.045096	0.385591	-0.677011	-0.678318	-0.035916	29.8584	-0.676109	-9.225279E+8	3.893242E-11	NaN
406	1.000000	0.394891	7.36903e+06	-56789.1	1005.82	-29738.3	0.000000	0.000000	6.394881	-0.035805	NaN	0.000000	0.001583	0.001641	28.0798	0.080029	0.002091	38.2693	33.6806	-163.737	0.037816	0.393655	-0.669018	-0.670253	-0.035805	38.2693	-0.668316	-7.216733E+8	4.961384E-11	NaN
406	1.000000	0.402879	7.36903e+06	-56789.1	1005.82	-29738.3	0.000000	0.000000	6.402868	-0.050060	NaN	0.000000	0.001584	0.001614	28.08	0.020165	0.002034	9.916090	112.631	-165.092	-0.033682	0.401605	-0.661030	-0.662303	-0.050060	9.916090	-0.657244	-5.089886E+8	9.835133E-11	NaN
406	1.000000	0.410915	7.36903e+06	-56789.1	1005.82	-29738.3	0.000000	0.000000	6.410906	-0.014298	NaN	0.000000	0.001591	0.001630	28.0803	0.055624	0.001984	28.0405	-80.3111	-162.586	-0.021016	0.409630	-0.652993	-0.654279	-0.014298	28.0405	-0.652611	-4.397676E+8	3.251304E-11	NaN
406	1.000000	0.418919	7.36903e+06	-56789.1	1005.82	-29738.3	0.000000	0.000000	6.418909	-0.047538	NaN	0.000000	0.001612	0.001629	28.079	0.032910	0.001988	16.5526	-43.4679	-163.534	0.055084	0.417573	-0.644989	-0.646336	-0.047538	16.5526	-0.642835	-3.229865E+8	1.471825E-10	NaN
406	1.000000	0.426914	7.36903e+06	-56789.1	1005.82	-29738.3	0.000000	0.000000	6.426905	0.007862	NaN	0.000000	0.001614	0.001614	28.0787	0.068205	0.002011	33.9134	157.105	-164.541	0.016959	0.425567	-0.636995	-0.638342	0.007862	33.9134	-0.637169	-2.700460E+8	-2.911494E-11	NaN
406	1.000000	0.434920	7.36903e+06	-56789.1	1005.82	-29738.3	0.000000	0.000000	6.434910	-0.018575	NaN	0.000000	0.001605	0.001612	28.0788	0.096929	0.001997	48.5489	120.133	-167.791	-0.068801	0.433657	-0.628989	-0.630251	-0.018575	48.5489	-0.628702	-2.066315E+8	8.989662E-11	NaN
406	1.000000	0.442927	7.36903e+06	-56789.1	1005.82	-29738.3	0.000000	0.000000	6.442915	-0.071726	NaN	0.000000	0.001614	0.001599	28.0789	0.019243	0.001818	10.5818	155.105	-166.882	0.006284	0.441653	-0.620981	-0.622255	-0.071726	10.5818	-0.615898	-1.377956E+8	5.205245E-10	NaN
406	1.000000	0.450914	7.36903e+06	-56789.1	1005.82	-29738.3	0.000000	0.000000	6.450904	-0.027052	NaN	0.000000	0.001587	0.001644	28.079	0.105949	0.002015	52.5765	132.826	-168.539	0.016499	0.449618	-0.612995	-0.614290	-0.027052	52.5765	-0.612609	-1.241669E+8	2.178709E-10	NaN
406	1.000000	0.458934	7.36903e+06	-56789.1	1005.82	-29738.3	0.000000	0.000000	6.458920	-0.110854	NaN	0.000000	0.001592	0.001613	28.0787	0.107966	0.002019	53.4734	71.4188	-166.21	-0.088055	0.457620	-0.604975	-0.606289	-0.110854	53.4734	-0.603420	-9.280115E+7	1.194532E-9	NaN
406	1.000000	0.466921	7.36903e+06	-56789.1	1005.82	-29738.3	0.000000	0.000000	6.466910	-0.053246	NaN	0.000000	0.001584	0.001645	28.0789	0.069570	0.002104	33.0715	-115.051	-158.865	-0.042798	0.465617	-0.596987	-0.598291	-0.053246	33.0715	-0.595780	-7.283296E+7	7.310698E-10	NaN
406	1.000000	0.474938	7.36903e+06	-56789.1	1005.82	-29738.3	0.000000	0.000000	6.474931	0.028856	NaN	0.000000	0.001594	0.001634	28.0788	0.027471	0.002007	13.6844	159.96	-164.552	0.044124	0.473617	-0.588970	-0.590291	0.028856	13.6844	-0.590552	-6.169861E+7	-4.676911E-10	NaN
406	1.000000	0.482950	7.36903e+06	-56789.1	1005.82	-29738.3	0.000000	0.000000	6.482940	-0.013679	NaN	0.000000	0.001623	0.001658	28.0789	0.060947	0.001911	31.8972	-19.4648	-166.994	-0.045058	0.481658	-0.580959	-0.582251	-0.013679	31.8972	-0.580637	-4.503203E+7	3.037613E-10	NaN
406	1.000000	0.490927	7.36903e+06	-56789.1	1005.82	-29738.3	0.000000	0.000000	6.490920	0.036238	NaN	0.000000	0.001571	0.001667	28.0788	0.169679	0.001975	85.929	44.0835	-163.092	-0.090964	0.489645	-0.572981	-0.574264	0.036238	85.929	-0.573298	-3.566057E+7	-1.016183E-9	NaN
406	1.000000	0.498979	7.36903e+06	-56789.1	1005.82	-29738.3	0.000000	0.000000	6.498967	-0.067504	NaN	0.000000	0.001586	0.001638	28.0788	0.036816	0.002081	17.6944	77.9667	-165.032	-0.005637	0.497680	-0.564930	-0.566228	-0.067504	17.6944	-0.562068	-2.494515E+7	2.706100E-9	NaN
406	1.000000	0.506927	7.36903e+06	-56789.1	1005.82	-29738.3	0.000000	0.000000	6.506920	0.042005	NaN	0.000000	0.001578	0.001647	28.0791	0.063113	0.001981	31.8555	-131.854	-164.722	0.006442	0.505604	-0.556982	-0.558304	0.042005	31.8555	-0.557971	-2.189289E+7	-1.918678E-9	NaN
406	1.000000	0.514953	7.36903e+06	-56789.1	1005.82	-29738.3	0.000000	0.000000	6.514942	-0.057507	NaN	0.000000	0.001571	0.001659	28.0789	0.052314	0.001845	28.3563	-127.071	-165.276	-0.100899	0.513624	-0.548956	-0.550284	-0.057507	28.3563	-0.547435	-1.564656E+7	3.675388E-9	NaN
406	1.000000	0.522976	7.36903e+06	-56789.1	1005.82	-29738.3	0.000000	0.000000	6.522963	-0.113392	NaN	0.000000	0.001582	0.001616	28.0787	0.021552	0.002057	10.4759	2.883865	-167.207	-0.071149	0.521651	-0.540932	-0.542258	-0.113392	10.4759	-0.532814	-9.80964e+06	1.155928E-8	NaN
406	1.000000	0.530942	7.36903e+06	-56789.1	1005.82	-29738.3	0.000000	0.000000	6.530933	-0.030434	NaN	0.000000	0.001594	0.001661	28.0788	0.013155	0.002051	6.413918	11.1411	-163.627	0.036174	0.529695	-0.532966	-0.534214	-0.030434	6.413918	-0.529407	-8.79719e+06	3.459459E-9	NaN
406	1.000000	0.538965	7.36903e+06	-56789.1	1005.82	-29738.3	0.000000	0.000000	6.538952	-0.086179	NaN	0.000000	0.001625	0.001646	28.0788	0.139769	0.001969	70.9962	120.839	-165.499	-0.027855	0.537635	-0.524944	-0.526274	-0.086179	70.9962	-0.524033	-7.40758e+06	1.163388E-8	NaN
406	1.000000	0.546979	7.36903e+06	-56789.1	1005.82	-29738.3	0.000000	0.000000	6.546971	0.012340	NaN	0.000000	0.001620	0.001632	28.0792	0.085229	0.001922	44.3327	177.234	-164.858	-0.048604	0.545715	-0.516930	-0.518194	0.012340	44.3327	-0.517138	-5.94005e+06	-2.077468E-9	NaN
406	1.000000	0.555007	7.36903e+06	-56789.1	1005.82	-29738.3	0.000000	0.000000	6.554995	-0.085370	NaN	0.000000	0.001656	0.001590	28.0801	0.018275	0.002007	9.104238	-151.951	-163.907	-0.030912	0.553676	-0.508902	-0.510233	-0.085370	9.104238	-0.501869	-3.63987e+06	2.345424E-8	NaN
406	1.000000	0.562974	7.36903e+06	-56789.1	1005.82	-29738.3	0.000000	0.000000	6.562968	0.073027	NaN	0.000000	0.001602	0.001651	28.0806	0.043075	0.001945	22.1455	-74.4919	-162.353	0.018049	0.561650	-0.500935	-0.502258	0.073027	22.1455	-0.503408	-3.82426e+06	-1.909573E-8	NaN
406	1.000000	0.570989	7.36903e+06	-56789.1	1005.82	-29738.3	0.000000	0.000000	6.570978	-0.038909	NaN	0.000000	0.001583	0.001653	28.0802	0.074842	0.002028	36.9046	-64.6915	-165.698	-0.025069	0.569655	-0.492920	-0.494253	-0.038909	36.9046	-0.492129	-2.66158e+06	1.461873E-8	NaN
406	1.000000	0.578976	7.36903e+06	-56789.1	1005.82	-29738.3	0.000000	0.000000	6.578969	0.033708	NaN	0.000000	0.001588	0.001630	28.0798	0.081789	0.002000	40.8871	-168.464	-165.346	0.021778	0.577661	-0.484933	-0.486247	0.033708	40.8871	-0.485551	-2.15376e+06	-1.565098E-8	NaN
406	1.000000	0.587001	7.36903e+06	-56789.1	1005.82	-29738.3	0.000000	0.000000	6.586989	-0.088053	NaN	0.000000	0.001613	0.001666	28.08	0.138212	0.002023	68.3217	-8.816561	-166.004	-0.093023	0.585664	-0.476907	-0.478244	-0.088053	68.3217	-0.475941	-1.58008e+06	5.572731E-8	NaN
406	1.000000	0.594965	7.36903e+06	-56789.1	1005.82	-29738.3	0.000000	0.000000	6.594953	-0.080890	NaN	0.000000	0.001605	0.001624	28.0798	0.031046	0.001991	15.5929	48.5007	-167.355	-0.084464	0.593628	-0.468943	-0.470280	-0.080890	15.5929	-0.465052	-1.11169e+06	7.276313E-8	NaN
406	1.000000	0.602984	7.36903e+06	-56789.1	1005.82	-29738.3	0.000000	0.000000	6.602973	-0.058021	NaN	0.000000	0.001619	0.001621	28.08	0.038522	0.001881	20.4835	-142.42	-166.411	-0.009686	0.601705	-0.460924	-0.462203	-0.058021	20.4835	-0.458800	-908134	6.389037E-8	NaN
406	1.000000	0.611007	7.36903e+06	-56789.1	1005.82	-29738.3	0.000000	0.000000	6.610995	-0.098365	NaN	0.000000	0.001605	0.001623	28.0799	0.125911	0.001837	68.5517	-43.2656	-165.572	0.046878	0.609651	-0.452901	-0.454258	-0.098365	68.5517	-0.451825	-724500	1.357699E-7	NaN
406	1.000000	0.618997	7.36903e+06	-56789.1	1005.82	-29738.3	0.000000	0.000000	6.618987	-0.031674	NaN	0.000000	0.001592	0.001639	28.0801	0.131920	0.001883	70.063	0.939387	-166.585	0.000679	0.617676	-0.444911	-0.446232	-0.031674	70.063	-0.444572	-572614	5.531456E-8	NaN
406	1.000000	0.626989	7.36903e+06	-56789.1	1005.82	-29738.3	0.000000	0.000000	6.626979	-0.022704	NaN	0.000000	0.001623	0.001650	28.0798	0.140749	0.001930	72.9368	-130.032	-165.025	-0.047664	0.625673	-0.436920	-0.438235	-0.022704	72.9368	-0.436686	-443177	5.123008E-8	NaN
406	1.000000	0.634957	7.36903e+06	-56789.1	1005.82	-29738.3	0.000000	0.000000	6.634948	-0.023934	NaN	0.000000	0.001606	0.001592	28.0797	0.084622	0.002059	41.0982	-138.945	-162.912	0.020341	0.633689	-0.428951	-0.430220	-0.023934	41.0982	-0.428514	-339658	7.046563E-8	NaN
406	1.000000	0.643005	7.36903e+06	-56789.1	1005.82	-29738.3	0.000000	0.000000	6.642995	-0.033958	NaN	0.000000	0.001608	0.001601	28.0798	0.054797	0.001914	28.6334	8.585281	-162.932	0.071746	0.641691	-0.420903	-0.422218	-0.033958	28.6334	-0.420014	-257401	1.319277E-7	NaN
406	1.000000	0.650999	7.36903e+06	-56789.1	1005.82	-29738.3	0.000000	0.000000	6.650990	0.007670	NaN	0.000000	0.001635	0.001589	28.0799	0.080792	0.001946	41.5188	-68.6823	-163.696	0.008654	0.649665	-0.412910	-0.414243	0.007670	41.5188	-0.413048	-204990	-3.741417E-8	NaN
406	1.000000	0.659005	7.36903e+06	-56789.1	1005.82	-29738.3	0.000000	0.000000	6.658998	0.041038	NaN	0.000000	0.001632	0.001587	28.0801	0.153226	0.002089	73.3642	80.8144	-163.027	0.030472	0.657690	-0.404903	-0.406218	0.041038	73.3642	-0.405323	-159163	-2.578338E-7	NaN
406	1.000000	0.667006	7.36903e+06	-56789.1	1005.82	-29738.3	0.000000	0.000000	6.666997	-0.002860	NaN	0.000000	0.001632	0.001585	28.0797	0.056541	0.002055	27.5111	66.0734	-165.423	-0.034175	0.665709	-0.396902	-0.398200	-0.002860	27.5111	-0.396824	-120416	2.374841E-8	NaN
406	1.000000	0.675003	7.36903e+06	-56789.1	1005.82	-29738.3	0.000000	0.000000	6.674994	-0.009290	NaN	0.000000	0.001625	0.001573	28.0799	0.030348	0.002046	14.8309	-16.0499	-164.528	-0.053765	0.673752	-0.388905	-0.390157	-0.009290	14.8309	-0.388435	-91365.2	1.016849E-7	NaN
406	1.000000	0.683027	7.36903e+06	-56789.1	1005.82	-29738.3	0.000000	0.000000	6.683018	-0.006964	NaN	0.000000	0.001671	0.001654	28.0799	0.096611	0.001981	48.7573	-118.914	-163.009	0.052656	0.681744	-0.380882	-0.382164	-0.006964	48.7573	-0.380774	-70958.1	9.814843E-8	NaN
406	1.000000	0.691021	7.36903e+06	-56789.1	1005.82	-29738.3	0.000000	0.000000	6.691012	-0.003237	NaN	0.000000	0.001639	0.001643	28.0789	0.060882	0.002045	29.771	146.464	-168.763	-0.001358	0.689719	-0.372887	-0.374189	-0.003237	29.771	-0.372806	-54514.8	5.937144E-8	NaN
406	1.000000	0.699037	7.36903e+06	-56789.1	1005.82	-29738.3	0.000000	0.000000	6.699029	-0.002540	NaN	0.000000	0.001654	0.001598	28.0789	0.060837	0.001969	30.8915	-49.2573	-162.121	0.034039	0.697705	-0.364871	-0.366203	-0.002540	30.8915	-0.364809	-41812.3	6.075469E-8	NaN
406	1.000000	0.707051	7.36903e+06	-56789.1	1005.82	-29738.3	0.000000	0.000000	6.707041	-0.036968	NaN	0.000000	0.001673	0.001601	28.0786	0.106265	0.002023	52.5197	27.8877	-162.865	0.011763	0.705796	-0.356858	-0.358113	-0.036968	52.5197	-0.356330	-31531.9	1.172400E-6	NaN
406	1.000000	0.715025	7.36903e+06	-56789.1	1005.82	-29738.3	0.000000	0.000000	6.715016	-0.006380	NaN	0.000000	0.001685	0.001624	28.0789	0.023236	0.001997	11.636	-57.469	-161.027	-0.111321	0.713733	-0.348883	-0.350176	-0.006380	11.636	-0.348472	-24256	2.630369E-7	NaN
406	1.000000	0.723053	7.36903e+06	-56789.1	1005.82	-29738.3	0.000000	0.000000	6.723044	0.003345	NaN	0.000000	0.001648	0.001628	28.0788	0.031603	0.001996	15.8339	-142.493	-160.001	0.017751	0.721755	-0.340856	-0.342154	0.003345	15.8339	-0.341014	-18894.4	-1.770568E-7	NaN
406	1.000000	0.731055	7.36903e+06	-56789.1	1005.82	-29738.3	0.000000	0.000000	6.731043	-0.059142	NaN	0.000000	0.001682	0.001617	28.0787	0.107409	0.001901	56.5029	10.3191	-167.829	-0.044993	0.729725	-0.332854	-0.334184	-0.059142	56.5029	-0.332069	-13987.3	4.228288E-6	NaN
406	1.000000	0.739052	7.36903e+06	-56789.1	1005.82	-29738.3	0.000000	0.000000	6.739044	0.005533	NaN	0.000000	0.001661	0.001629	28.0787	0.024678	0.002033	12.1385	146.745	-161.436	0.032364	0.737735	-0.324856	-0.326173	0.005533	12.1385	-0.325198	-11092.9	-4.988142E-7	NaN
406	1.000000	0.747030	7.36903e+06	-56789.1	1005.82	-29738.3	0.000000	0.000000	6.747019	-0.038898	NaN	0.000000	0.001696	0.001659	28.0787	0.049823	0.002035	24.4879	-144.626	-165.765	-0.042946	0.745752	-0.316879	-0.318156	-0.038898	24.4879	-0.315688	-8036.97	4.839859E-6	NaN
406	1.000000	0.755066	7.36903e+06	-56789.1	1005.82	-29738.3	0.000000	0.000000	6.755059	0.040459	NaN	0.000000	0.001684	0.001637	28.0789	0.033020	0.002144	15.3993	158.014	-166.87	-0.047810	0.753815	-0.308842	-0.310093	0.040459	15.3993	-0.310813	-6808.94	-5.942010E-6	NaN
406	1.000000	0.763084	7.36903e+06	-56789.1	1005.82	-29738.3	0.000000	0.000000	6.763075	-0.017630	NaN	0.000000	0.001705	0.001632	28.0788	0.021506	0.001875	11.4706	-119.356	-164.338	0.009785	0.761769	-0.300824	-0.302139	-0.017630	11.4706	-0.299672	-4653.14	3.788735E-6	NaN
406	1.000000	0.771070	7.36903e+06	-56789.1	1005.82	-29738.3	0.000000	0.000000	6.771062	0.022468	NaN	0.000000	0.001702	0.001648	28.0788	0.059352	0.001933	30.7062	-165.87	-162.426	0.013378	0.769691	-0.292839	-0.294217	0.022468	30.7062	-0.293388	-3749.7	-5.991968E-6	NaN
406	1.000000	0.779072	7.36903e+06	-56789.1	1005.82	-29738.3	0.000000	0.000000	6.779063	-0.006344	NaN	0.000000	0.001682	0.001585	28.0786	0.055540	0.002065	26.8989	-149.792	-165.106	0.018837	0.777741	-0.284837	-0.286168	-0.006344	26.8989	-0.284660	-2774.31	2.286824E-6	NaN
406	1.000000	0.787054	7.36903e+06	-56789.1	1005.82	-29738.3	0.000000	0.000000	6.787044	-0.022614	NaN	0.000000	0.001729	0.001593	28.0787	0.020429	0.002007	10.1779	-122.026	-163.654	-0.040344	0.785789	-0.276855	-0.278120	-0.022614	10.1779	-0.275188	-1996.43	1.132706E-5	NaN
406	1.000000	0.795056	7.36903e+06	-56789.1	1005.82	-29738.3	0.000000	0.000000	6.795046	-0.024490	NaN	0.000000	0.001718	0.001631	28.079	0.099966	0.002025	49.3577	-68.187	-167.87	-0.042340	0.793773	-0.268853	-0.270135	-0.024490	49.3577	-0.268481	-1579.2	1.550752E-5	NaN
406	1.000000	0.803091	7.36903e+06	-56789.1	1005.82	-29738.3	0.000000	0.000000	6.803084	0.038590	NaN	0.000000	0.001698	0.001634	28.0787	0.082863	0.002020	41.0258	173.421	-165.447	-0.022979	0.801746	-0.260817	-0.262163	0.038590	41.0258	-0.261523	-1236.64	-3.120526E-5	NaN
406	1.000000	0.811050	7.36904e+06	-56789.1	1005.82	-29738.3	0.000000	0.000000	6.811041	-0.006231	NaN	0.000000	0.001723	0.001615	28.0788	0.039897	0.001952	20.4341	-90.181	-167.546	-0.062228	0.809738	-0.252858	-0.254171	-0.006231	20.4341	-0.252630	-902.79	6.901985E-6	NaN
406	1.000000	0.819065	7.36904e+06	-56789.1	1005.82	-29738.3	0.000000	0.000000	6.819054	-0.048649	NaN	0.000000	0.001700	0.001561	28.0785	0.159280	0.001939	82.1368	-101.491	-163.897	-0.121666	0.817761	-0.244844	-0.246148	-0.048649	82.1368	-0.244400	-673.158	7.226997E-5	NaN
406	1.000000	0.827120	7.36904e+06	-56789.1	1005.82	-29738.3	0.000000	0.000000	6.827113	0.055193	NaN	0.000000	0.001673	0.001601	28.0796	0.057062	0.001989	28.6841	-117.602	-165.89	0.076493	0.825798	-0.236789	-0.238111	0.055193	28.6841	-0.238232	-539.399	-0.000102	NaN
406	1.000000	0.835066	7.36904e+06	-56789.1	1005.82	-29738.3	0.000000	0.000000	6.835055	-0.044637	NaN	0.000000	0.001699	0.001629	28.08	0.034686	0.001971	17.5991	90.8738	-166.524	-0.073635	0.833781	-0.228843	-0.230128	-0.044637	17.5991	-0.226941	-358.198	0.000125	NaN
406	1.000000	0.843088	7.36904e+06	-56789.1	1005.82	-29738.3	0.000000	0.000000	6.843082	0.051199	NaN	0.000000	0.001713	0.001598	28.0798	0.086676	0.001986	43.6413	93.2916	-164.954	0.033768	0.841771	-0.220820	-0.222137	0.051199	43.6413	-0.221700	-295.678	-0.000173	NaN
406	1.000000	0.851057	7.36904e+06	-56789.1	1005.82	-29738.3	0.000000	0.000000	6.851048	0.002020	NaN	0.000000	0.001703	0.001615	28.0802	0.034252	0.002131	16.0751	75.2746	-166.333	-0.013877	0.849831	-0.212851	-0.214078	0.002020	16.0751	-0.212946	-214.005	-9.439614E-6	NaN
406	1.000000	0.859076	7.36904e+06	-56789.1	1005.82	-29738.3	0.000000	0.000000	6.859069	0.045758	NaN	0.000000	0.001695	0.001599	28.0798	0.092577	0.001957	47.3133	-28.9089	-163.536	0.020512	0.857792	-0.204832	-0.206116	0.045758	47.3133	-0.205558	-162.424	-0.000282	NaN
406	1.000000	0.867092	7.36904e+06	-56789.1	1005.82	-29738.3	0.000000	0.000000	6.867084	0.030416	NaN	0.000000	0.001641	0.001623	28.0799	0.132109	0.001893	69.7726	48.2337	-164.546	0.031993	0.865772	-0.196817	-0.198137	0.030416	69.7726	-0.197144	-118.21	-0.000257	NaN
406	1.000000	0.875091	7.36904e+06	-56789.1	1005.82	-29738.3	0.000000	0.000000	6.875082	0.002447	NaN	0.000000	0.001651	0.001644	28.0801	0.022289	0.002021	11.0288	-65.8919	-163.973	-0.042125	0.873759	-0.188818	-0.190149	0.002447	11.0288	-0.188984	-86.5051	-2.829231E-5	NaN
406	1.000000	0.883116	7.36904e+06	-56789.1	1005.82	-29738.3	0.000000	0.000000	6.883110	0.066772	NaN	0.000000	0.001651	0.001627	28.0798	0.104922	0.001989	52.7455	-115.732	-162.627	-0.020514	0.881825	-0.180792	-0.182084	0.066772	52.7455	-0.181742	-65.3206	-0.001022	NaN
406	1.000000	0.891102	7.36904e+06	-56789.1	1005.82	-29738.3	0.000000	0.000000	6.891093	-0.008111	NaN	0.000000	0.001626	0.001600	28.08	0.058923	0.002041	28.8764	-49.2215	-163.813	-0.007500	0.889789	-0.172806	-0.174119	-0.008111	28.8764	-0.172596	-45.5578	0.000178	NaN
406	1.000000	0.899102	7.36904e+06	-56789.1	1005.82	-29738.3	0.000000	0.000000	6.899091	-0.069268	NaN	0.000000	0.001674	0.001643	28.0798	0.102767	0.001969	52.1955	32.9865	-164.393	-0.108311	0.897822	-0.164806	-0.166086	-0.069268	52.1955	-0.163811	-32.0183	0.002163	NaN
406	1.000000	0.907162	7.36904e+06	-56789.1	1005.82	-29738.3	0.000000	0.000000	6.907152	-0.037579	NaN	0.000000	0.001692	0.001646	28.0799	0.074649	0.001993	37.4469	-107.517	-165.908	0.011802	0.905780	-0.156747	-0.158129	-0.037579	37.4469	-0.155994	-23.251	0.001616	NaN
406	1.000000	0.915101	7.36904e+06	-56789.1	1005.82	-29738.3	0.000000	0.000000	6.915088	-0.101486	NaN	0.000000	0.001680	0.001619	28.0798	0.032853	0.001958	16.7775	20.4071	-164.703	-0.178589	0.913809	-0.148807	-0.150099	-0.101486	16.7775	-0.144270	-14.212	0.007141	NaN
406	1.000000	0.923128	7.36904e+06	-56789.1	1005.82	-29738.3	0.000000	0.000000	6.923117	-0.056898	NaN	0.000000	0.001687	0.001649	28.0798	0.130435	0.002033	64.1671	116.244	-162.916	-0.014486	0.921764	-0.140780	-0.142144	-0.056898	64.1671	-0.140115	-11.8885	0.004786	NaN
406	1.000000	0.931120	7.36904e+06	-56789.1	1005.82	-29738.3	0.000000	0.000000	6.931109	-0.054947	NaN	0.000000	0.001658	0.001678	28.0797	0.056035	0.002065	27.1331	163.715	-167.899	-0.097359	0.929794	-0.132788	-0.134115	-0.054947	27.1331	-0.131269	-8.065172	0.006813	NaN
406	1.000000	0.939152	7.36904e+06	-56789.1	1005.82	-29738.3	0.000000	0.000000	6.939141	-0.059039	NaN	0.000000	0.001714	0.001641	28.0797	0.079963	0.002057	38.8816	-54.5771	-164.141	-0.025882	0.937818	-0.124756	-0.126091	-0.059039	38.8816	-0.123617	-5.708980	0.010341	NaN
406	1.000000	0.947126	7.36904e+06	-56789.1	1005.82	-29738.3	0.000000	0.000000	6.947118	0.006041	NaN	0.000000	0.001654	0.001643	28.08	0.032192	0.002044	15.7505	-81.1135	-165.679	0.023902	0.945802	-0.116782	-0.118106	0.006041	15.7505	-0.117070	-4.212889	-0.001434	NaN
406	1.000000	0.955118	7.36904e+06	-56789.1	1005.82	-29738.3	0.000000	0.000000	6.955110	0.023242	NaN	0.000000	0.001637	0.001650	28.0796	0.063930	0.002018	31.6738	-19.5641	-166.829	-0.066943	0.953838	-0.108790	-0.110071	0.023242	31.6738	-0.109341	-2.910400	-0.007986	NaN
406	1.000000	0.963123	7.36904e+06	-56789.1	1005.82	-29738.3	0.000000	0.000000	6.963112	-0.034453	NaN	0.000000	0.001694	0.001662	28.0792	0.148351	0.001956	75.8531	63.7819	-165.302	-0.005780	0.961842	-0.100786	-0.102066	-0.034453	75.8531	-0.100445	-1.869099	0.018433	NaN
406	1.000000	0.971130	7.36904e+06	-56789.1	1005.82	-29738.3	0.000000	0.000000	6.971122	0.011195	NaN	0.000000	0.001716	0.001631	28.0786	0.070192	0.002073	33.8574	117.058	-163.735	0.067715	0.969852	-0.092778	-0.094057	0.011195	33.8574	-0.093026	-1.271116	-0.008807	NaN
406	1.000000	0.979154	7.36904e+06	-56789.1	1005.82	-29738.3	0.000000	0.000000	6.979142	-0.060841	NaN	0.000000	0.001684	0.001653	28.0787	0.069477	0.002072	33.534	-29.3336	-161.999	-0.102503	0.977876	-0.084755	-0.086032	-0.060841	33.534	-0.083394	-0.750954	0.081018	NaN
406	1.000000	0.987147	7.36904e+06	-56789.1	1005.82	-29738.3	0.000000	0.000000	6.987137	-0.029801	NaN	0.000000	0.001644	0.001626	28.0788	0.067694	0.002032	33.312	122.107	-162.489	-0.105772	0.985838	-0.076761	-0.078070	-0.029801	33.312	-0.076090	-0.492749	0.060480	NaN
406	1.000000	0.995171	7.36904e+06	-56789.1	1005.82	-29738.3	0.000000	0.000000	6.995162	0.001389	NaN	0.000000	0.001646	0.001657	28.0786	0.050129	0.001910	26.2521	65.6259	-165.974	0.024557	0.993840	-0.068738	-0.070069	0.001389	26.2521	-0.068777	-0.316226	-0.004392	NaN
406	1.000000	1.003155	7.36904e+06	-56789.1	1005.82	-29738.3	0.000000	0.000000	7.003146	-0.001885	NaN	0.000000	0.001600	0.001627	28.0787	0.022005	0.002024	10.8717	114.769	-163.707	0.025690	1.001841	-0.060754	-0.062067	-0.001885	10.8717	-0.060624	-0.187655	0.010045	NaN
406	1.000000	1.011180	7.36904e+06	-56789.1	1005.82	-29738.3	0.000000	0.000000	7.011172	0.018813	NaN	0.000000	0.001649	0.001601	28.0787	0.036668	0.001999	18.3442	-71.3777	-165.452	0.072859	1.009883	-0.052729	-0.054025	0.018813	18.3442	-0.053498	-0.116218	-0.161873	NaN
406	1.000000	1.019164	7.36904e+06	-56789.1	1005.82	-29738.3	0.000000	0.000000	7.019155	-0.011045	NaN	0.000000	0.001656	0.001630	28.0786	0.109603	0.002061	53.1843	-35.9771	-166.481	-0.028937	1.017802	-0.044744	-0.046106	-0.011045	53.1843	-0.044589	-0.062433	0.176907	NaN
406	1.000000	1.027150	7.36904e+06	-56789.1	1005.82	-29738.3	0.000000	0.000000	7.027140	-0.013545	NaN	0.000000	0.001636	0.001655	28.0787	0.127452	0.001833	69.5473	-160.834	-164.279	0.021452	1.025871	-0.036759	-0.038038	-0.013545	69.5473	-0.036613	-0.035751	0.378873	NaN
406	1.000000	1.035176	7.36904e+06	-56789.1	1005.82	-29738.3	0.000000	0.000000	7.035165	-0.063896	NaN	0.000000	0.001628	0.001629	28.0784	0.036878	0.001921	19.1954	-5.277891	-167.028	-0.015665	1.033864	-0.028732	-0.030045	-0.063896	19.1954	-0.026236	-0.018182	3.514236	NaN
406	1.000000	1.043168	7.36904e+06	-56789.1	1005.82	-29738.3	0.000000	0.000000	7.043157	-0.044109	NaN	0.000000	0.001622	0.001647	28.0788	0.075814	0.001961	38.6694	109.74	-165.645	-0.156595	1.041893	-0.020741	-0.022016	-0.044109	38.6694	-0.019885	-0.012477	3.535260	NaN
406	1.000000	1.051195	7.36904e+06	-56789.1	1005.82	-29738.3	0.000000	0.000000	7.051187	0.009009	NaN	0.000000	0.001634	0.001661	28.0786	0.077531	0.002030	38.194	126.266	-165.468	0.028374	1.049827	-0.012713	-0.014082	0.009009	38.194	-0.012890	-0.008039	-1.120733	NaN
406	1.000000	1.059176	7.36904e+06	-56789.1	1005.82	-29738.3	0.000000	0.000000	7.059169	0.044712	NaN	0.000000	0.001615	0.001665	28.0786	0.019295	0.001944	9.927720	-145.035	-162.71	-0.019828	1.057859	-0.004733	-0.006050	0.044712	9.927720	-0.008110	-0.005296	-8.442160	NaN
406	1.000000	1.067156	7.36904e+06	-56789.1	1005.82	-29738.3	0.000000	0.000000	7.067245	2.378022	NaN	0.000000	0.001634	0.001676	28.0786	3.116537	0.001972	1580.01	7.094926	-166.488	0.912199	1.065905	0.003248	0.001996	2.378022	1580.01	0.002119	0.001651	1440.09	35523.9
406	2.000000	1.073682	7.36904e+06	-56789.1	1005.82	-29738.3	0.000000	0.000000	7.074075	9.776029	NaN	0.000000	0.001620	0.001681	28.0786	9.018063	0.001696	5316.88	5.774445	-169.301	10.38	1.073247	0.009773	0.009339	9.776029	5316.88	0.008394	0.007451	1312.05	56276.2
406	2.000000	1.075614	7.36904e+06	-56789.1	1005.82	-29738.3	0.000000	0.000000	7.076134	12.8468	NaN	0.000000	0.001632	0.001663	28.0792	11.927	0.001784	6685.86	5.741122	-173.809	11.5012	1.075370	0.011705	0.011461	12.8468	6685.86	0.010264	0.009477	1355.64	62748.7
406	2.000000	1.077638	7.36904e+06	-56789.1	1005.82	-29738.3	0.000000	0.000000	7.078280	15.8203	NaN	0.000000	0.001648	0.001670	28.0786	13.0497	0.001698	7687.04	6.396362	-172.597	15.5466	1.077334	0.013729	0.013425	15.8203	7687.04	0.012186	0.011713	1350.62	64892.1
406	2.000000	1.079694	7.36904e+06	-56789.1	1005.82	-29738.3	0.000000	0.000000	7.080399	17.3368	NaN	0.000000	0.001604	0.001644	28.0793	16.0535	0.001892	8483.55	7.976809	-176.845	18.0086	1.079355	0.015785	0.015447	17.3368	8483.55	0.014253	0.014302	1212.2	64811.8
406	2.000000	1.081623	7.36904e+06	-56789.1	1005.82	-29738.3	0.000000	0.000000	7.082471	20.8218	NaN	0.000000	0.001624	0.001662	28.08	17.8134	0.001766	10084.4	6.904884	-176.311	20.7755	1.081318	0.017715	0.017409	20.8218	10084.4	0.016166	0.016872	1234.09	70931.1
406	2.000000	1.083565	7.36904e+06	-56789.1	1005.82	-29738.3	0.000000	0.000000	7.084648	26.5339	NaN	0.000000	0.001642	0.001677	28.08	19.197	0.001800	10665.6	5.119461	-174.458	25.5594	1.083262	0.019657	0.019354	26.5339	10665.6	0.017791	0.019189	1382.74	70344.1
406	2.000000	1.085600	7.36904e+06	-56789.1	1005.82	-29738.3	0.000000	0.000000	7.086755	28.2821	NaN	0.000000	0.001618	0.001658	28.0804	21.463	0.001777	12079.9	4.642742	-176.03	27.7859	1.085309	0.021692	0.021401	28.2821	12079.9	0.019936	0.022442	1260.25	73673.4
406	2.000000	1.087555	7.36904e+06	-56789.1	1005.82	-29738.3	0.000000	0.000000	7.088859	31.9078	NaN	0.000000	0.001624	0.001657	28.0797	22.8267	0.001845	12372	8.094267	-177.808	30.4366	1.087318	0.023646	0.023409	31.9078	12372	0.021712	0.025304	1260.97	71058.9
406	2.000000	1.089601	7.36904e+06	-56789.1	1005.82	-29738.3	0.000000	0.000000	7.091104	36.7385	NaN	0.000000	0.001640	0.001672	28.0802	25.1859	0.001829	13766.5	6.596605	-178.371	37.2254	1.089326	0.025693	0.025417	36.7385	13766.5	0.023691	0.028677	1281.1	74272.4
406	2.000000	1.091558	7.36904e+06	-56789.1	1005.82	-29738.3	0.000000	0.000000	7.093353	43.846	NaN	0.000000	0.001626	0.001657	28.0814	27.5247	0.001855	14838.6	5.437864	-177.429	43.2473	1.091346	0.027649	0.027438	43.846	14838.6	0.025433	0.031809	1378.44	76014.2
406	2.000000	1.093616	7.36904e+06	-56789.1	1005.82	-29738.3	0.000000	0.000000	7.095653	49.723	NaN	0.000000	0.001614	0.001648	28.0798	28.5178	0.001768	16134.3	6.672836	-178.813	51.6399	1.093220	0.029708	0.029311	49.723	16134.3	0.027396	0.035520	1399.86	78214.1
406	2.000000	1.095540	7.36904e+06	-56789.1	1005.82	-29738.3	0.000000	0.000000	7.097713	53.0411	NaN	0.000000	0.001637	0.001624	28.08	31.4365	0.001642	19150.3	5.724935	177.781	50.8509	1.095258	0.031631	0.031349	53.0411	19150.3	0.029554	0.039824	1331.87	87674.4
406	2.000000	1.097541	7.36904e+06	-56789.1	1005.82	-29738.3	0.000000	0.000000	7.099867	56.747	NaN	0.000000	0.001617	0.001661	28.0801	31.9038	0.001660	19218.1	3.600916	-178.653	55.8094	1.097288	0.033632	0.033380	56.747	19218.1	0.031418	0.043734	1297.56	83960.8
406	2.000000	1.099572	7.36904e+06	-56789.1	1005.82	-29738.3	0.000000	0.000000	7.102296	66.4143	NaN	0.000000	0.001618	0.001615	28.0804	34.5694	0.001762	19616.9	3.329822	-177.516	65.9077	1.099187	0.035664	0.035279	66.4143	19616.9	0.033124	0.047469	1399.11	82261.9
406	2.000000	1.101622	7.36904e+06	-56789.1	1005.82	-29738.3	0.000000	0.000000	7.104590	72.3507	NaN	0.000000	0.001603	0.001618	28.0805	37.3798	0.001756	21291.7	5.758644	177.753	71.629	1.101302	0.037713	0.037393	72.3507	21291.7	0.035165	0.052130	1387.89	85199.9
406	2.000000	1.103560	7.36904e+06	-56789.1	1005.82	-29738.3	0.000000	0.000000	7.106740	77.5196	NaN	0.000000	0.001665	0.001709	28.0803	39.1157	0.001870	20918.5	4.052499	-178.992	78.3786	1.103245	0.039651	0.039336	77.5196	20918.5	0.036872	0.056194	1379.49	80622.7
406	2.000000	1.105565	7.36904e+06	-56789.1	1005.82	-29738.3	0.000000	0.000000	7.108909	81.4985	NaN	0.000000	0.001597	0.001604	28.0801	41.2677	0.001816	22725.3	1.740558	-178.475	82.1618	1.105363	0.041656	0.041455	81.4985	22725.3	0.038966	0.061384	1327.67	83801.9
406	2.000000	1.107542	7.36904e+06	-56789.1	1005.82	-29738.3	0.000000	0.000000	7.111456	95.3527	NaN	0.000000	0.001573	0.001609	28.0803	43.0116	0.001834	23452.8	7.794874	175.383	94.1423	1.107242	0.043633	0.043333	95.3527	23452.8	0.040584	0.065546	1454.75	83694.2
406	2.000000	1.109531	7.36904e+06	-56789.1	1005.82	-29738.3	0.000000	0.000000	7.113843	105.004	NaN	0.000000	0.001571	0.001595	28.0802	44.6429	0.001838	24292.3	3.339276	-179.883	103.635	1.109209	0.045623	0.045300	105.004	24292.3	0.042381	0.070326	1493.1	83691.9
406	2.000000	1.111608	7.36904e+06	-56789.1	1005.82	-29738.3	0.000000	0.000000	7.116296	114.17	NaN	0.000000	0.001557	0.001630	28.0809	47.0184	0.001842	25531.5	7.740102	175.853	114.473	1.111114	0.047699	0.047205	114.17	25531.5	0.044345	0.075740	1507.39	84759
406	2.000000	1.113558	7.36904e+06	-56789.1	1005.82	-29738.3	0.000000	0.000000	7.118602	122.825	NaN	0.000000	0.001574	0.001610	28.0799	47.8423	0.001841	25991.8	5.970371	176.835	121.915	1.113175	0.049649	0.049267	122.825	25991.8	0.046105	0.080756	1520.95	83564.9
406	2.000000	1.115503	7.36904e+06	-56789.1	1005.82	-29738.3	0.000000	0.000000	7.120862	130.477	NaN	0.000000	0.001629	0.001610	28.0787	50.4303	0.001788	28204.8	4.100221	178.069	129.615	1.115256	0.051595	0.051347	130.477	28204.8	0.048125	0.086706	1504.83	87513
406	2.000000	1.117498	7.36904e+06	-56789.1	1005.82	-29738.3	0.000000	0.000000	7.123261	140.279	NaN	0.000000	0.001573	0.001610	28.0788	50.6815	0.001658	30564.4	1.372551	179.406	138.847	1.117241	0.053590	0.053332	140.279	30564.4	0.050147	0.092869	1510.5	91633.3
406	2.000000	1.119609	7.36904e+06	-56789.1	1005.82	-29738.3	0.000000	0.000000	7.125659	147.258	NaN	0.000000	0.001590	0.001614	28.0791	54.0404	0.001907	28332.7	1.846381	-179.203	150.832	1.119255	0.055700	0.055347	147.258	28332.7	0.051802	0.098065	1501.64	82661.7
406	2.000000	1.121520	7.36904e+06	-56789.1	1005.82	-29738.3	0.000000	0.000000	7.128104	160.232	NaN	0.000000	0.001575	0.001642	28.0788	56.4028	0.001841	30635.1	8.877452	172.183	159.445	1.121222	0.057612	0.057313	160.232	30635.1	0.053689	0.104156	1538.39	86726
406	2.000000	1.123512	7.36904e+06	-56789.1	1005.82	-29738.3	0.000000	0.000000	7.130558	171.467	NaN	0.000000	0.001597	0.001604	28.0787	57.123	0.001796	31797.7	4.227185	176.716	169.399	1.123194	0.059604	0.059286	171.467	31797.7	0.055559	0.110368	1553.59	87447.3
406	2.000000	1.125539	7.36904e+06	-56789.1	1005.82	-29738.3	0.000000	0.000000	7.133015	181.924	NaN	0.000000	0.001635	0.001593	28.0786	59.6087	0.001706	34930.6	6.779528	173.269	183.291	1.125217	0.061630	0.061309	181.924	34930.6	0.057724	0.117775	1544.68	92993.7
406	2.000000	1.127509	7.36904e+06	-56789.1	1005.82	-29738.3	0.000000	0.000000	7.135462	193.525	NaN	0.000000	0.001656	0.001599	28.0788	60.2357	0.001663	36226.6	5.813187	173.971	192.648	1.127108	0.063600	0.063199	193.525	36226.6	0.059594	0.124356	1556.22	93857.1
406	2.000000	1.129521	7.36904e+06	-56789.1	1005.82	-29738.3	0.000000	0.000000	7.137747	200.166	NaN	0.000000	0.001619	0.001610	28.0789	62.2254	0.001696	36697.2	0.525945	178.762	198.973	1.129290	0.065612	0.065382	200.166	36697.2	0.061521	0.131319	1524.27	92521.2
406	2.000000	1.131549	7.36904e+06	-56789.1	1005.82	-29738.3	0.000000	0.000000	7.140560	219.239	NaN	0.000000	0.001696	0.001634	28.0787	65.3529	0.001809	36128.2	7.013408	174.442	218.835	1.131051	0.067640	0.067142	219.239	36128.2	0.063089	0.137117	1598.92	89140.2
406	2.000000	1.133458	7.36904e+06	-56789.1	1005.82	-29738.3	0.000000	0.000000	7.142803	227.349	NaN	0.000000	0.001663	0.001605	28.0786	67.2357	0.001770	37980.8	6.451967	173.282	225.436	1.133146	0.069549	0.069238	227.349	37980.8	0.065060	0.144576	1572.53	91261.9
406	2.000000	1.135519	7.36904e+06	-56789.1	1005.82	-29738.3	0.000000	0.000000	7.145237	236.407	NaN	0.000000	0.001682	0.001650	28.0788	69.538	0.001795	38741	3.774518	176.147	235.402	1.135142	0.071611	0.071233	236.407	38741	0.067034	0.152233	1552.93	90717.4
406	2.000000	1.137393	7.36904e+06	-56789.1	1005.82	-29738.3	0.000000	0.000000	7.147812	253.462	NaN	0.000000	0.001641	0.001622	28.0786	70.3259	0.001856	37889.3	4.261516	174.934	247.388	1.137157	0.073484	0.073249	253.462	37889.3	0.068467	0.157907	1605.13	87114.2
406	2.000000	1.139525	7.36904e+06	-56789.1	1005.82	-29738.3	0.000000	0.000000	7.150386	264.187	NaN	0.000000	0.001617	0.001624	28.0786	72.8661	0.001697	42936.2	4.653149	173.574	263.222	1.139120	0.075617	0.075212	264.187	42936.2	0.071002	0.168188	1570.78	95653.1
406	2.000000	1.141534	7.36904e+06	-56789.1	1005.82	-29738.3	0.000000	0.000000	7.152905	276.592	NaN	0.000000	0.001637	0.001620	28.0784	75.1096	0.001859	40408.1	5.035167	174.825	276.16	1.141129	0.077625	0.077221	276.592	40408.1	0.072491	0.174370	1586.24	88410.9
406	2.000000	1.143481	7.36904e+06	-56789.1	1005.82	-29738.3	0.000000	0.000000	7.155675	296.617	NaN	0.000000	0.001650	0.001599	28.0788	76.8022	0.001866	41160.5	4.739435	174.261	294.856	1.143147	0.079572	0.079238	296.617	41160.5	0.074167	0.181452	1634.68	88282.1
406	2.000000	1.145509	7.36904e+06	-56789.1	1005.82	-29738.3	0.000000	0.000000	7.157769	298.21	NaN	0.000000	0.001658	0.001564	28.0788	78.5067	0.001748	44899.6	2.963564	175.149	300.44	1.145289	0.081600	0.081381	298.21	44899.6	0.076619	0.192051	1552.77	93606.8
406	2.000000	1.147513	7.36904e+06	-56789.1	1005.82	-29738.3	0.000000	0.000000	7.160478	315.335	NaN	0.000000	0.001635	0.001623	28.0787	78.7476	0.001886	41751	1.273515	178.04	314.579	1.147158	0.083605	0.083249	315.335	41751	0.077940	0.197878	1593.58	85751.4
406	2.000000	1.149443	7.36904e+06	-56789.1	1005.82	-29738.3	0.000000	0.000000	7.163068	331.363	NaN	0.000000	0.001627	0.001582	28.0798	81.7365	0.001719	47555.7	4.855784	172.551	327.821	1.149185	0.085535	0.085276	331.363	47555.7	0.080309	0.208533	1589.02	95145.5
406	2.000000	1.151615	7.36904e+06	-56789.1	1005.82	-29738.3	0.000000	0.000000	7.166053	351.148	NaN	0.000000	0.001650	0.001598	28.0796	84.4648	0.001694	49873.6	7.585636	170.304	354.172	1.151113	0.087706	0.087205	351.148	49873.6	0.082426	0.218275	1608.74	97530.6
406	2.000000	1.153390	7.36904e+06	-56789.1	1005.82	-29738.3	0.000000	0.000000	7.168523	368.037	NaN	0.000000	0.001654	0.001588	28.0798	85.4994	0.001757	48657.2	5.011972	172.774	361.794	1.153044	0.089482	0.089135	368.037	48657.2	0.083809	0.224751	1637.53	93771.1
406	2.000000	1.155447	7.36904e+06	-56789.1	1005.82	-29738.3	0.000000	0.000000	7.171037	379.139	NaN	0.000000	0.001645	0.001614	28.0799	87.792	0.001763	49787.6	-0.025125	177.523	376.905	1.155220	0.091538	0.091311	379.139	49787.6	0.085827	0.234363	1617.74	93961.6
406	2.000000	1.157450	7.36904e+06	-56789.1	1005.82	-29738.3	0.000000	0.000000	7.173618	393.181	NaN	0.000000	0.001630	0.001589	28.08	89.7104	0.001859	48253.5	5.204332	172.502	390.463	1.157185	0.093542	0.093277	393.181	48253.5	0.087431	0.242133	1623.82	89593.2
406	2.000000	1.159505	7.36904e+06	-56789.1	1005.82	-29738.3	0.000000	0.000000	7.176596	415.631	NaN	0.000000	0.001605	0.001620	28.0797	91.4056	0.001691	54052.3	3.521138	173.462	416.478	1.159104	0.095597	0.095195	415.631	54052.3	0.089830	0.253978	1636.48	97991.7
406	2.000000	1.161392	7.36904e+06	-56789.1	1005.82	-29738.3	0.000000	0.000000	7.179212	433.342	NaN	0.000000	0.001652	0.001623	28.0798	93.9982	0.001873	50188.1	4.526706	173.003	426.247	1.161123	0.097484	0.097215	433.342	50188.1	0.091008	0.259894	1667.38	89944.8
406	2.000000	1.163363	7.36904e+06	-56789.1	1005.82	-29738.3	0.000000	0.000000	7.181937	451.664	NaN	0.000000	0.001620	0.001629	28.0798	95.1738	0.001844	51621.3	5.072752	171.892	445.151	1.163135	0.099455	0.099227	451.664	51621.3	0.092893	0.269485	1676.03	90852.1
406	2.000000	1.165416	7.36904e+06	-56789.1	1005.82	-29738.3	0.000000	0.000000	7.184648	467.657	NaN	0.000000	0.001624	0.001570	28.0799	97.8109	0.001874	52196.8	1.167145	176.015	462.453	1.165030	0.101508	0.101122	467.657	52196.8	0.094788	0.279298	1674.4	90236.6
406	2.000000	1.167473	7.36904e+06	-56789.1	1005.82	-29738.3	0.000000	0.000000	7.187492	486.79	NaN	0.000000	0.001586	0.001584	28.08	98.4991	0.001836	53660.6	0.882820	176.227	485.929	1.167188	0.103564	0.103280	486.79	53660.6	0.096760	0.289680	1680.44	91089.8
406	2.000000	1.169428	7.36904e+06	-56789.1	1005.82	-29738.3	0.000000	0.000000	7.190443	510.985	NaN	0.000000	0.001641	0.001614	28.0799	102.618	0.001900	54002.9	4.849676	172.284	507.141	1.168974	0.105520	0.105066	510.985	54002.9	0.098423	0.298571	1711.44	90295.5
406	2.000000	1.171488	7.36904e+06	-56789.1	1005.82	-29738.3	0.000000	0.000000	7.193446	533.915	NaN	0.000000	0.001648	0.001611	28.0798	104.596	0.001822	57413	6.725207	170.124	533.06	1.171100	0.107580	0.107191	533.915	57413	0.100605	0.310428	1719.93	94146.2