File: remote_trans/data/nanoindenter/0828-1/data/Data_2025-08-06,11h17m57s/2025-07-22_16-23-58_1_401.txt
2025-07-22, 16:23:58, 1
Index	Phase	Displacement	Time	Pos X	Pos Y	Pos Z	Rot A	Rot B	Piezo Z	Force A	Force B	Gripper	Voltage A	Voltage B	Temperature	Amplitude force	Amplitude pos	Stiffness	Phase shift	Phase excitation	Force A raw	Displacement raw	HMax	HMax raw	Real Force	Real Stiffness	Contact Depth	Area	Hardness	Reduced Mod.
[#]	[#]	[um]	[s]	[um]	[um]	[um]	[m°]	[m°]	[um]	[uN]	[uN]	[V]	[V]	[V]	[°C]	[uN]	[um]	[N/m]	[°]	[°]	[uN]	[um]	[um]	[um]	[uN]	[N/m]	[um]	[um^2]	[MPa]	[MPa]
401	1.000000	0.003066	7.36898e+06	-57039.1	1005.82	-29737.6	0.000000	0.000000	6.002823	0.016378	NaN	0.000000	0.001699	0.001704	28.0822	0.031931	0.000960	33.2636	-36.7391	-168.865	0.067410	0.001780	-1.161039	-1.162325	0.016378	33.2636	-1.161408	-3.339944E+15	-4.903673E-18	NaN
401	1.000000	0.013123	7.36898e+06	-57039.1	1005.82	-29737.6	0.000000	0.000000	6.012880	0.013337	NaN	0.000000	0.001669	0.001718	28.0821	0.029726	0.001339	22.1967	106.425	8.999806	-0.036707	0.011641	-1.150982	-1.152463	0.013337	22.1967	-1.151432	-2.454820E+15	-5.432844E-18	NaN
401	1.000000	0.022976	7.36898e+06	-57039.1	1005.82	-29737.6	0.000000	0.000000	6.022730	-0.079857	NaN	0.000000	0.001641	0.001701	28.0823	0.088137	0.001802	48.9086	-175.833	-165.603	-0.038460	0.021667	-1.141128	-1.142438	-0.079857	48.9086	-1.139903	-1.719662E+15	4.643777E-17	NaN
401	1.000000	0.032985	7.36898e+06	-57039.1	1005.82	-29737.6	0.000000	0.000000	6.032741	-0.022761	NaN	0.000000	0.001672	0.001709	28.0823	0.089532	0.001932	46.3352	-26.0178	16.2235	-0.091453	0.031654	-1.131119	-1.132450	-0.022761	46.3352	-1.130751	-1.296261E+15	1.755860E-17	NaN
401	1.000000	0.043002	7.36898e+06	-57039.1	1005.82	-29737.6	0.000000	0.000000	6.042757	-0.052065	NaN	0.000000	0.001676	0.001739	28.0823	0.085629	0.002020	42.381	129.819	-165.361	-0.079698	0.041753	-1.121102	-1.122351	-0.052065	42.381	-1.120181	-9.351899E+14	5.567349E-17	NaN
401	1.000000	0.053012	7.36898e+06	-57039.1	1005.82	-29737.6	0.000000	0.000000	6.052770	0.021195	NaN	0.000000	0.001695	0.001688	28.0821	0.126081	0.002058	61.2554	-27.4061	15.9447	-0.016466	0.051660	-1.111092	-1.112444	0.021195	61.2554	-1.111351	-7.119087E+14	-2.977235E-17	NaN
401	1.000000	0.063018	7.36898e+06	-57039.1	1005.82	-29737.6	0.000000	0.000000	6.062776	0.032876	NaN	0.000000	0.001613	0.001688	28.082	0.085292	0.001832	46.5624	95.0091	-161.472	0.140574	0.061661	-1.101086	-1.102443	0.032876	46.5624	-1.101616	-5.269346E+14	-6.239116E-17	NaN
401	1.000000	0.072989	7.36898e+06	-57039.1	1005.82	-29737.6	0.000000	0.000000	6.072744	-0.061501	NaN	0.000000	0.001689	0.001694	28.0822	0.128988	0.001929	66.8803	34.2106	17.9414	0.048522	0.071627	-1.091115	-1.092477	-0.061501	66.8803	-1.090425	-3.728393E+14	1.649525E-16	NaN
401	1.000000	0.082989	7.36898e+06	-57039.1	1005.82	-29737.6	0.000000	0.000000	6.082748	0.034849	NaN	0.000000	0.001656	0.001690	28.0808	0.044810	0.001991	22.5114	-63.1722	-166.309	0.056328	0.081662	-1.081115	-1.082442	0.034849	22.5114	-1.082276	-2.897919E+14	-1.202547E-16	NaN
401	1.000000	0.092977	7.36898e+06	-57039.1	1005.82	-29737.6	0.000000	0.000000	6.092733	-0.023317	NaN	0.000000	0.001677	0.001699	28.0808	0.042780	0.002023	21.143	85.7917	14.7304	0.010380	0.091654	-1.071127	-1.072450	-0.023317	21.143	-1.070300	-2.000878E+14	1.165341E-16	NaN
401	1.000000	0.103032	7.36898e+06	-57039.1	1005.82	-29737.6	0.000000	0.000000	6.102790	0.024125	NaN	0.000000	0.001668	0.001686	28.0807	0.065414	0.001951	33.5364	133.708	-163.689	0.023895	0.101725	-1.061072	-1.062379	0.024125	33.5364	-1.061612	-1.529252E+14	-1.577593E-16	NaN
401	1.000000	0.113031	7.36898e+06	-57039.1	1005.82	-29737.6	0.000000	0.000000	6.112788	-0.022302	NaN	0.000000	0.001705	0.001690	28.0808	0.069336	0.002061	33.6419	-4.508420	12.5348	-0.036663	0.111612	-1.051073	-1.052492	-0.022302	33.6419	-1.050576	-1.086803E+14	2.052085E-16	NaN
401	1.000000	0.123035	7.36898e+06	-57039.1	1005.82	-29737.6	0.000000	0.000000	6.122792	0.000442	NaN	0.000000	0.001700	0.001718	28.081	0.026646	0.002003	13.306	-70.4704	-163.69	-0.008127	0.121718	-1.041069	-1.042386	0.000442	13.306	-1.041094	-8.103652E+13	-5.448703E-18	NaN
401	1.000000	0.133019	7.36898e+06	-57039.1	1005.82	-29737.6	0.000000	0.000000	6.132781	0.112231	NaN	0.000000	0.001678	0.001696	28.0807	0.131183	0.002072	63.3128	-31.6922	20.3734	0.125186	0.131654	-1.031085	-1.032450	0.112231	63.3128	-1.032414	-6.193724E+13	-1.812015E-15	NaN
401	1.000000	0.143034	7.36898e+06	-57039.1	1005.82	-29737.6	0.000000	0.000000	6.142790	-0.018317	NaN	0.000000	0.001665	0.001705	28.0805	0.036474	0.002161	16.8816	123.678	-162.845	0.072601	0.141787	-1.021070	-1.022317	-0.018317	16.8816	-1.020256	-4.250141E+13	4.309820E-16	NaN
401	1.000000	0.153005	7.36898e+06	-57039.1	1005.82	-29737.6	0.000000	0.000000	6.152763	0.022135	NaN	0.000000	0.001643	0.001709	28.0806	0.065935	0.001982	33.2589	-50.4053	17.3305	0.042877	0.151696	-1.011099	-1.012408	0.022135	33.2589	-1.011598	-3.250060E+13	-6.810662E-16	NaN
401	1.000000	0.163046	7.36898e+06	-57039.1	1005.82	-29737.6	0.000000	0.000000	6.162799	-0.102706	NaN	0.000000	0.001649	0.001686	28.081	0.049602	0.002087	23.7635	45.0511	-165.919	-0.068268	0.161779	-1.001058	-1.002325	-0.102706	23.7635	-0.997816	-2.120153E+13	4.844275E-15	NaN
401	1.000000	0.173050	7.36898e+06	-57039.1	1005.82	-29737.6	0.000000	0.000000	6.172806	-0.027563	NaN	0.000000	0.001652	0.001677	28.081	0.012933	0.001986	6.513116	-119.965	17.8818	0.032322	0.171715	-0.991054	-0.992389	-0.027563	6.513116	-0.987880	-1.557956E+13	1.769203E-15	NaN
401	1.000000	0.183058	7.36898e+06	-57039.1	1005.82	-29737.6	0.000000	0.000000	6.182813	-0.045078	NaN	0.000000	0.001683	0.001783	28.0809	0.052071	0.002048	25.4276	78.0301	-164.673	-0.102891	0.181748	-0.981046	-0.982356	-0.045078	25.4276	-0.979717	-1.209471E+13	3.727087E-15	NaN
401	1.000000	0.193041	7.36898e+06	-57039.1	1005.82	-29737.6	0.000000	0.000000	6.192797	-0.029653	NaN	0.000000	0.001649	0.001734	28.0811	0.067259	0.001960	34.3181	11.6614	14.4748	0.039936	0.191667	-0.971063	-0.972437	-0.029653	34.3181	-0.970415	-9.062605E+12	3.272016E-15	NaN
401	1.000000	0.203052	7.36898e+06	-57039.1	1005.82	-29737.6	0.000000	0.000000	6.202812	0.077589	NaN	0.000000	0.001682	0.001754	28.0811	0.074387	0.002027	36.6913	175.757	-161.782	-0.006244	0.201745	-0.961052	-0.962359	0.077589	36.6913	-0.962638	-7.119293E+12	-1.089839E-14	NaN
401	1.000000	0.213064	7.36898e+06	-57039.1	1005.82	-29737.6	0.000000	0.000000	6.212820	-0.025135	NaN	0.000000	0.001682	0.001743	28.081	0.082909	0.002034	40.7693	113.482	15.0205	0.038636	0.211724	-0.951040	-0.952380	-0.025135	40.7693	-0.950578	-4.895717E+12	5.134161E-15	NaN
401	1.000000	0.223042	7.36898e+06	-57039.1	1005.82	-29737.6	0.000000	0.000000	6.222801	0.043674	NaN	0.000000	0.001632	0.001776	28.0822	0.084876	0.001870	45.3826	-140.364	-162.407	0.144448	0.221744	-0.941062	-0.942360	0.043674	45.3826	-0.941784	-3.725644E+12	-1.172250E-14	NaN
401	1.000000	0.233060	7.36898e+06	-57039.1	1005.82	-29737.6	0.000000	0.000000	6.232816	-0.036215	NaN	0.000000	0.001653	0.001781	28.0823	0.046034	0.002001	23.0007	-169.244	15.2446	-0.046770	0.231727	-0.931044	-0.932377	-0.036215	23.0007	-0.929863	-2.572437E+12	1.407819E-14	NaN
401	1.000000	0.243088	7.36898e+06	-57039.1	1005.82	-29737.6	0.000000	0.000000	6.242845	-0.003246	NaN	0.000000	0.001654	0.001732	28.0823	0.088206	0.001998	44.1375	-110.897	-168.003	0.011575	0.241772	-0.921016	-0.922332	-0.003246	44.1375	-0.920961	-1.950636E+12	1.664172E-15	NaN
401	1.000000	0.253065	7.36898e+06	-57039.1	1005.82	-29737.6	0.000000	0.000000	6.252822	0.019685	NaN	0.000000	0.001670	0.001752	28.0821	0.053740	0.001945	27.6234	4.462500	17.3737	-0.010506	0.251731	-0.911040	-0.912373	0.019685	27.6234	-0.911574	-1.456875E+12	-1.351188E-14	NaN
401	1.000000	0.263116	7.36898e+06	-57039.1	1005.82	-29737.6	0.000000	0.000000	6.262873	-0.010067	NaN	0.000000	0.001732	0.001744	28.0821	0.140420	0.001902	73.831	-63.3027	-166.218	-0.060248	0.261766	-0.900988	-0.902339	-0.010067	73.831	-0.900886	-1.044797E+12	9.635325E-15	NaN
401	1.000000	0.273090	7.36898e+06	-57039.1	1005.82	-29737.6	0.000000	0.000000	6.272849	0.041909	NaN	0.000000	0.001700	0.001779	28.0823	0.032443	0.001992	16.2844	-61.372	16.0606	-0.002835	0.271740	-0.891014	-0.892364	0.041909	16.2844	-0.892944	-8.160476E+11	-5.135589E-14	NaN
401	1.000000	0.283093	7.36898e+06	-57039.1	1005.82	-29737.6	0.000000	0.000000	6.282850	-0.005800	NaN	0.000000	0.001716	0.001765	28.0821	0.157413	0.001992	79.0364	135.5	-165.622	-0.041676	0.281755	-0.881011	-0.882350	-0.005800	79.0364	-0.880956	-5.618693E+11	1.032316E-14	NaN
401	1.000000	0.293084	7.36898e+06	-57039.1	1005.82	-29737.6	0.000000	0.000000	6.292839	-0.053513	NaN	0.000000	0.001695	0.001756	28.0824	0.084418	0.001879	44.9318	-145.129	15.4367	-0.026835	0.291743	-0.871020	-0.872361	-0.053513	44.9318	-0.870127	-4.010135E+11	1.334453E-13	NaN
401	1.000000	0.303081	7.36898e+06	-57039.1	1005.82	-29737.6	0.000000	0.000000	6.302836	-0.066179	NaN	0.000000	0.001736	0.001738	28.0822	0.031574	0.002138	14.7669	118.326	-162.267	-0.149655	0.301776	-0.861023	-0.862328	-0.066179	14.7669	-0.857662	-2.719381E+11	2.433622E-13	NaN
401	1.000000	0.313128	7.36898e+06	-57039.1	1005.82	-29737.6	0.000000	0.000000	6.312884	-0.026612	NaN	0.000000	0.001757	0.001725	28.0822	0.075950	0.001921	39.5406	10.3386	13.7963	-0.140089	0.311717	-0.850976	-0.852387	-0.026612	39.5406	-0.850471	-2.173294E+11	1.224485E-13	NaN
401	1.000000	0.323122	7.36898e+06	-57039.1	1005.82	-29737.6	0.000000	0.000000	6.322879	0.000712	NaN	0.000000	0.001724	0.001738	28.0822	0.065800	0.001880	35.0089	153.297	-167.53	0.009300	0.321796	-0.840982	-0.842308	0.000712	35.0089	-0.840997	-1.617341E+11	-4.403448E-15	NaN
401	1.000000	0.333103	7.36898e+06	-57039.1	1005.82	-29737.6	0.000000	0.000000	6.332863	0.066934	NaN	0.000000	0.001718	0.001732	28.0822	0.024788	0.001986	12.4828	-50.2836	15.4083	0.003655	0.331760	-0.831001	-0.832344	0.066934	12.4828	-0.835022	-1.342304E+11	-4.986523E-13	NaN
401	1.000000	0.343100	7.36898e+06	-57039.1	1005.82	-29737.6	0.000000	0.000000	6.342858	0.012384	NaN	0.000000	0.001698	0.001702	28.0825	0.056999	0.001990	28.6466	11.7684	-165.047	0.002560	0.341809	-0.821004	-0.822295	0.012384	28.6466	-0.821328	-8.754235E+10	-1.414618E-13	NaN
401	1.000000	0.353113	7.36898e+06	-57039.1	1005.82	-29737.6	0.000000	0.000000	6.352870	-0.012089	NaN	0.000000	0.001716	0.001726	28.0822	0.082582	0.002033	40.628	-55.4488	19.6655	0.031230	0.351735	-0.810991	-0.812369	-0.012089	40.628	-0.810768	-6.294890E+10	1.920428E-13	NaN
401	1.000000	0.363128	7.36898e+06	-57039.1	1005.82	-29737.6	0.000000	0.000000	6.362884	-0.014005	NaN	0.000000	0.001710	0.001722	28.0812	0.091519	0.002060	44.4272	31.7281	-163.415	-0.042813	0.361830	-0.800977	-0.802274	-0.014005	44.4272	-0.800740	-4.601611E+10	3.043585E-13	NaN
401	1.000000	0.373120	7.36898e+06	-57039.1	1005.82	-29737.6	0.000000	0.000000	6.372873	-0.115751	NaN	0.000000	0.001666	0.001727	28.0809	0.109876	0.002049	53.6266	102.679	17.992	-0.092328	0.371813	-0.790984	-0.792291	-0.115751	53.6266	-0.789365	-3.224463E+10	3.589780E-12	NaN
401	1.000000	0.383146	7.36898e+06	-57039.1	1005.82	-29737.6	0.000000	0.000000	6.382902	-0.034191	NaN	0.000000	0.001666	0.001723	28.0812	0.065027	0.001964	33.109	-98.974	-164.524	-0.013263	0.381800	-0.780958	-0.782304	-0.034191	33.109	-0.780183	-2.419485E+10	1.413153E-12	NaN
401	1.000000	0.393127	7.36898e+06	-57039.1	1005.82	-29737.6	0.000000	0.000000	6.392883	-0.021371	NaN	0.000000	0.001639	0.001774	28.0807	0.070103	0.001951	35.9362	-44.2158	16.3315	-0.035628	0.391711	-0.770977	-0.772393	-0.021371	35.9362	-0.770531	-1.788654E+10	1.194812E-12	NaN
401	1.000000	0.403112	7.36898e+06	-57039.1	1005.82	-29737.6	0.000000	0.000000	6.402869	0.018685	NaN	0.000000	0.001632	0.001755	28.081	0.090633	0.001938	46.7751	23.0795	-166.965	0.018095	0.401801	-0.760993	-0.762304	0.018685	46.7751	-0.761292	-1.339309E+10	-1.395092E-12	NaN
401	1.000000	0.413152	7.36898e+06	-57039.1	1005.82	-29737.6	0.000000	0.000000	6.412909	-0.005938	NaN	0.000000	0.001656	0.001778	28.0809	0.053557	0.002008	26.6717	-17.6846	13.3227	0.021548	0.411813	-0.750952	-0.752291	-0.005938	26.6717	-0.750785	-9.636185E+9	6.161877E-13	NaN
401	1.000000	0.423185	7.36898e+06	-57039.1	1005.82	-29737.6	0.000000	0.000000	6.422943	0.015041	NaN	0.000000	0.001649	0.001708	28.0812	0.056197	0.001930	29.1207	59.4496	-166.575	0.052424	0.421832	-0.740919	-0.742272	0.015041	29.1207	-0.741306	-7.158938E+9	-2.101038E-12	NaN
401	1.000000	0.433126	7.36898e+06	-57039.1	1005.82	-29737.6	0.000000	0.000000	6.432881	-0.045615	NaN	0.000000	0.001645	0.001764	28.0807	0.050931	0.001934	26.3345	22.8171	12.663	-0.088483	0.431817	-0.730979	-0.732288	-0.045615	26.3345	-0.729679	-4.970955E+9	9.176322E-12	NaN
401	1.000000	0.443151	7.36898e+06	-57039.1	1005.82	-29737.6	0.000000	0.000000	6.442907	-0.018152	NaN	0.000000	0.001647	0.001737	28.0812	0.083186	0.002003	41.5214	-176.454	-163.321	-0.032063	0.441816	-0.720953	-0.722288	-0.018152	41.5214	-0.720625	-3.741097E+9	4.852025E-12	NaN
401	1.000000	0.453161	7.36898e+06	-57039.1	1005.82	-29737.6	0.000000	0.000000	6.452918	-0.007786	NaN	0.000000	0.001632	0.001736	28.081	0.133811	0.002056	65.0862	-45.3342	15.299	-0.084021	0.451846	-0.710943	-0.712259	-0.007786	65.0862	-0.710854	-2.752308E+9	2.828905E-12	NaN
401	1.000000	0.463184	7.36898e+06	-57039.1	1005.82	-29737.6	0.000000	0.000000	6.462937	-0.082663	NaN	0.000000	0.001613	0.001740	28.0814	0.078809	0.001919	41.0754	165.699	-164.156	-0.100557	0.461832	-0.700920	-0.702272	-0.082663	41.0754	-0.699411	-1.920832E+9	4.303480E-11	NaN
401	1.000000	0.473172	7.36898e+06	-57039.1	1005.82	-29737.6	0.000000	0.000000	6.472928	-0.029372	NaN	0.000000	0.001624	0.001769	28.0808	0.064637	0.002014	32.1009	17.1517	18.2419	-0.003735	0.471841	-0.690932	-0.692263	-0.029372	32.1009	-0.690246	-1.439733E+9	2.040075E-11	NaN
401	1.000000	0.483191	7.36898e+06	-57039.1	1005.82	-29737.6	0.000000	0.000000	6.482943	-0.107612	NaN	0.000000	0.001637	0.001740	28.0812	0.105919	0.002089	50.702	13.7649	-166.899	-0.066993	0.481935	-0.680913	-0.682169	-0.107612	50.702	-0.679322	-1.020769E+9	1.054222E-10	NaN
401	1.000000	0.493170	7.36898e+06	-57039.1	1005.82	-29737.6	0.000000	0.000000	6.492926	-0.010540	NaN	0.000000	0.001683	0.001749	28.0822	0.138526	0.002103	65.8549	115.517	15.4257	-0.042445	0.491841	-0.670935	-0.672263	-0.010540	65.8549	-0.670814	-7.807965E+8	1.349858E-11	NaN
401	1.000000	0.503200	7.36898e+06	-57039.1	1005.82	-29737.6	0.000000	0.000000	6.502957	-0.001430	NaN	0.000000	0.001700	0.001730	28.0825	0.023779	0.002059	11.5499	158.123	-166.56	-0.039211	0.501877	-0.660904	-0.662227	-0.001430	11.5499	-0.660811	-5.696177E+8	2.510723E-12	NaN
401	1.000000	0.513174	7.36898e+06	-57039.1	1005.82	-29737.6	0.000000	0.000000	6.512932	0.029393	NaN	0.000000	0.001672	0.001707	28.0823	0.063544	0.001939	32.7758	-12.1946	16.2407	-0.016310	0.511802	-0.650930	-0.652302	0.029393	32.7758	-0.651603	-4.259985E+8	-6.899786E-11	NaN
401	1.000000	0.523177	7.36898e+06	-57039.1	1005.82	-29737.6	0.000000	0.000000	6.522933	-0.019404	NaN	0.000000	0.001661	0.001737	28.0823	0.018596	0.002029	9.164685	-73.7904	-164.489	0.001349	0.521845	-0.640927	-0.642260	-0.019404	9.164685	-0.639339	-2.892188E+8	6.709265E-11	NaN
401	1.000000	0.533200	7.36898e+06	-57039.1	1005.82	-29737.6	0.000000	0.000000	6.532956	-0.028983	NaN	0.000000	0.001665	0.001779	28.0824	0.147478	0.002117	69.6497	-51.3838	16.5416	-0.019742	0.531821	-0.630904	-0.632283	-0.028983	69.6497	-0.630592	-2.193563E+8	1.321293E-10	NaN
401	1.000000	0.543202	7.36898e+06	-57039.1	1005.82	-29737.6	0.000000	0.000000	6.542960	0.017775	NaN	0.000000	0.001692	0.001752	28.0824	0.035454	0.002090	16.9608	64.2019	-165.203	0.001594	0.541847	-0.620902	-0.622257	0.017775	16.9608	-0.621688	-1.655157E+8	-1.073894E-10	NaN
401	1.000000	0.553198	7.36898e+06	-57039.1	1005.82	-29737.6	0.000000	0.000000	6.552956	0.011953	NaN	0.000000	0.001694	0.001747	28.0822	0.058676	0.002129	27.5611	-137.202	19.6588	0.033444	0.551857	-0.610906	-0.612247	0.011953	27.5611	-0.611231	-1.188639E+8	-1.005566E-10	NaN
401	1.000000	0.563207	7.36898e+06	-57039.1	1005.82	-29737.6	0.000000	0.000000	6.562965	0.024696	NaN	0.000000	0.001656	0.001754	28.0822	0.051596	0.002094	24.6364	-44.6905	-164.543	-0.003295	0.561828	-0.600898	-0.602276	0.024696	24.6364	-0.601649	-8.773527E+7	-2.814858E-10	NaN
401	1.000000	0.573200	7.36898e+06	-57039.1	1005.82	-29737.6	0.000000	0.000000	6.572957	-0.001662	NaN	0.000000	0.001652	0.001744	28.0823	0.048278	0.001938	24.9065	118.925	16.296	-0.015690	0.571898	-0.590904	-0.592206	-0.001662	24.9065	-0.590854	-6.229323E+7	2.667401E-11	NaN
401	1.000000	0.583207	7.36899e+06	-57039.1	1005.82	-29737.6	0.000000	0.000000	6.582966	0.041539	NaN	0.000000	0.001661	0.001788	28.0825	0.124741	0.001782	69.9845	68.0671	-166.152	0.027363	0.581902	-0.580897	-0.582202	0.041539	69.9845	-0.581342	-4.605231E+7	-9.019965E-10	NaN
401	1.000000	0.593215	7.36899e+06	-57039.1	1005.82	-29737.6	0.000000	0.000000	6.592972	-0.004495	NaN	0.000000	0.001618	0.001776	28.0823	0.012878	0.002037	6.320800	-110.728	17.7051	-0.057789	0.591887	-0.570889	-0.572217	-0.004495	6.320800	-0.570356	-3.247511E+7	1.384205E-10	NaN
401	1.000000	0.603241	7.36899e+06	-57039.1	1005.82	-29737.6	0.000000	0.000000	6.602997	-0.012688	NaN	0.000000	0.001632	0.001764	28.0823	0.015036	0.001911	7.866943	102.073	-167.393	-0.023839	0.601910	-0.560863	-0.562194	-0.012688	7.866943	-0.559654	-2.309858E+7	5.493111E-10	NaN
401	1.000000	0.613251	7.36899e+06	-57039.1	1005.82	-29737.6	0.000000	0.000000	6.613008	-0.015018	NaN	0.000000	0.001644	0.001742	28.0825	0.102051	0.001942	52.5433	-171.12	13.7023	-0.063608	0.611877	-0.550853	-0.552227	-0.015018	52.5433	-0.550638	-1.733002E+7	8.665626E-10	NaN
401	1.000000	0.623214	7.36899e+06	-57039.1	1005.82	-29737.6	0.000000	0.000000	6.622973	0.033555	NaN	0.000000	0.001593	0.001740	28.0824	0.001567	0.001956	0.801332	-47.4029	-164.464	-0.010505	0.621920	-0.540890	-0.542184	0.033555	0.801332	-0.572295	-3.454099E+7	-9.714408E-10	NaN
401	1.000000	0.633244	7.36899e+06	-57039.1	1005.82	-29737.6	0.000000	0.000000	6.632999	-0.066672	NaN	0.000000	0.001608	0.001758	28.0813	0.138146	0.002076	66.5585	175.655	14.6133	-0.100918	0.631864	-0.530860	-0.532241	-0.066672	66.5585	-0.530108	-8.99664e+06	7.410752E-9	NaN
401	1.000000	0.643256	7.36899e+06	-57039.1	1005.82	-29737.6	0.000000	0.000000	6.643009	-0.086203	NaN	0.000000	0.001628	0.001760	28.0812	0.080228	0.002086	38.4663	-138.088	-164.843	-0.093908	0.641940	-0.520848	-0.522165	-0.086203	38.4663	-0.519167	-6.33897e+06	1.359889E-8	NaN
401	1.000000	0.653252	7.36899e+06	-57039.1	1005.82	-29737.6	0.000000	0.000000	6.653008	-0.018987	NaN	0.000000	0.001645	0.001735	28.0814	0.090297	0.002115	42.6855	172.3	14.3733	0.003212	0.651881	-0.510852	-0.512223	-0.018987	42.6855	-0.510518	-4.80437e+06	3.952001E-9	NaN
401	1.000000	0.663264	7.36899e+06	-57039.1	1005.82	-29737.6	0.000000	0.000000	6.663023	0.049818	NaN	0.000000	0.001656	0.001755	28.0811	0.106778	0.001843	57.9297	93.1799	-165.506	-0.036564	0.661935	-0.500840	-0.502169	0.049818	57.9297	-0.501485	-3.59527e+06	-1.385666E-8	NaN
401	1.000000	0.673273	7.36899e+06	-57039.1	1005.82	-29737.6	0.000000	0.000000	6.673030	-0.000166	NaN	0.000000	0.001642	0.001766	28.0813	0.094048	0.001858	50.6141	-170.725	16.6833	-0.063868	0.671879	-0.490831	-0.492225	-0.000166	50.6141	-0.490828	-2.55251e+06	6.520878E-11	NaN
401	1.000000	0.683275	7.36899e+06	-57039.1	1005.82	-29737.6	0.000000	0.000000	6.683029	-0.081087	NaN	0.000000	0.001635	0.001762	28.0812	0.034350	0.002129	16.1377	-28.1649	-165.144	-0.082424	0.681916	-0.480829	-0.482188	-0.081087	16.1377	-0.477061	-1.63821e+06	4.949726E-8	NaN
401	1.000000	0.693262	7.36899e+06	-57039.1	1005.82	-29737.6	0.000000	0.000000	6.693020	0.023259	NaN	0.000000	0.001643	0.001746	28.0815	0.070141	0.002045	34.2953	93.1783	15.0222	0.024363	0.691887	-0.470843	-0.472217	0.023259	34.2953	-0.471351	-1.36256e+06	-1.707011E-8	NaN
401	1.000000	0.703265	7.36899e+06	-57039.1	1005.82	-29737.6	0.000000	0.000000	6.703023	4.712689E-5	NaN	0.000000	0.001642	0.001740	28.0811	0.050128	0.002019	24.8276	-162.474	-166.745	-0.037438	0.701977	-0.460839	-0.462127	4.712689E-5	24.8276	-0.460840	-970115	-4.857864E-11	NaN
401	1.000000	0.713264	7.36899e+06	-57039.1	1005.82	-29737.6	0.000000	0.000000	6.713022	0.026097	NaN	0.000000	0.001615	0.001746	28.0814	0.082884	0.002117	39.1566	25.5295	14.7284	-0.078416	0.711933	-0.450841	-0.452171	0.026097	39.1566	-0.451340	-713207	-3.659128E-8	NaN
401	1.000000	0.723245	7.36899e+06	-57039.1	1005.82	-29737.6	0.000000	0.000000	6.723000	-0.035346	NaN	0.000000	0.001643	0.001805	28.0811	0.013931	0.001906	7.308294	-89.5332	-165.534	-0.017300	0.722012	-0.440860	-0.442092	-0.035346	7.308294	-0.437232	-451116	7.835210E-8	NaN
401	1.000000	0.733277	7.36899e+06	-57039.1	1005.82	-29737.6	0.000000	0.000000	6.733032	-0.050386	NaN	0.000000	0.001641	0.001764	28.0814	0.039206	0.001933	20.2779	-167.221	15.2646	-0.029203	0.731882	-0.430827	-0.432222	-0.050386	20.2779	-0.428963	-344661	1.461915E-7	NaN
401	1.000000	0.743298	7.36899e+06	-57039.1	1005.82	-29737.6	0.000000	0.000000	6.743056	0.033468	NaN	0.000000	0.001632	0.001783	28.0811	0.036288	0.002143	16.9371	102.909	-164.468	0.088040	0.741988	-0.420807	-0.422116	0.033468	16.9371	-0.422289	-277245	-1.207154E-7	NaN
401	1.000000	0.753281	7.36899e+06	-57039.1	1005.82	-29737.6	0.000000	0.000000	6.753038	0.016349	NaN	0.000000	0.001641	0.001751	28.0813	0.023502	0.001962	11.9769	-136.194	18.1658	-0.020264	0.751907	-0.410824	-0.412197	0.016349	11.9769	-0.411847	-197090	-8.295138E-8	NaN
401	1.000000	0.763309	7.36899e+06	-57039.1	1005.82	-29737.6	0.000000	0.000000	6.763067	0.024306	NaN	0.000000	0.001628	0.001741	28.0815	0.108472	0.002045	53.0436	-147.756	-167	0.002890	0.761980	-0.400795	-0.402124	0.024306	53.0436	-0.401139	-138750	-1.751783E-7	NaN
401	1.000000	0.773299	7.36899e+06	-57039.1	1005.82	-29737.6	0.000000	0.000000	6.773059	0.069543	NaN	0.000000	0.001620	0.001762	28.0824	0.077789	0.002078	37.4393	57.9302	17.9523	-0.011655	0.771999	-0.390805	-0.392105	0.069543	37.4393	-0.392198	-103418	-6.724444E-7	NaN
401	1.000000	0.783302	7.36899e+06	-57039.1	1005.82	-29737.6	0.000000	0.000000	6.783059	-0.005664	NaN	0.000000	0.001660	0.001747	28.0825	0.072736	0.002065	35.2305	151.404	-161.639	-0.008015	0.781984	-0.380802	-0.382120	-0.005664	35.2305	-0.380682	-70740.8	8.006679E-8	NaN
401	1.000000	0.793303	7.36899e+06	-57039.1	1005.82	-29737.6	0.000000	0.000000	6.793059	-0.038003	NaN	0.000000	0.001684	0.001725	28.0825	0.066569	0.001904	34.9557	-8.616525	13.2043	0.010691	0.791971	-0.370801	-0.372134	-0.038003	34.9557	-0.369986	-49650.3	7.654211E-7	NaN
401	1.000000	0.803311	7.36899e+06	-57039.1	1005.82	-29737.6	0.000000	0.000000	6.803065	-0.071552	NaN	0.000000	0.001664	0.001774	28.0823	0.043937	0.001920	22.8872	164.064	-166.622	0.040552	0.802043	-0.360794	-0.362061	-0.071552	22.8872	-0.358449	-33838.8	2.114491E-6	NaN
401	1.000000	0.813311	7.36899e+06	-57039.1	1005.82	-29737.6	0.000000	0.000000	6.813065	-0.069862	NaN	0.000000	0.001617	0.001712	28.0819	0.065977	0.002009	32.8471	-40.3476	17.9295	-0.019237	0.811968	-0.350793	-0.352136	-0.069862	32.8471	-0.349198	-24851.9	2.811121E-6	NaN
401	1.000000	0.823322	7.36899e+06	-57039.1	1005.82	-29737.6	0.000000	0.000000	6.823076	-0.064034	NaN	0.000000	0.001625	0.001746	28.0822	0.092631	0.002070	44.7436	-158.407	-165.695	-0.074219	0.822044	-0.340782	-0.342060	-0.064034	44.7436	-0.339709	-18084.6	3.540784E-6	NaN
401	1.000000	0.833303	7.36899e+06	-57039.1	1005.82	-29737.6	0.000000	0.000000	6.833061	0.023188	NaN	0.000000	0.001623	0.001735	28.0822	0.041191	0.002011	20.4787	-93.0019	15.6699	-0.050754	0.831982	-0.330801	-0.332122	0.023188	20.4787	-0.331651	-13791.6	-1.681292E-6	NaN
401	1.000000	0.843333	7.36899e+06	-57039.1	1005.82	-29737.6	0.000000	0.000000	6.843089	-0.037881	NaN	0.000000	0.001613	0.001700	28.0822	0.084009	0.002027	41.4374	73.5224	-163.83	-0.104708	0.842059	-0.320771	-0.322046	-0.037881	41.4374	-0.320085	-9330.21	4.060035E-6	NaN
401	1.000000	0.853330	7.36899e+06	-57039.1	1005.82	-29737.6	0.000000	0.000000	6.853085	-0.039160	NaN	0.000000	0.001615	0.001735	28.0821	0.082109	0.002096	39.1685	-88.8408	16.1816	-0.000341	0.851965	-0.310774	-0.312139	-0.039160	39.1685	-0.310025	-6628.56	5.907830E-6	NaN
401	1.000000	0.863330	7.36899e+06	-57039.1	1005.82	-29737.6	0.000000	0.000000	6.863087	0.005675	NaN	0.000000	0.001647	0.001703	28.0823	0.040557	0.002031	19.9735	-118.188	-166.476	0.025760	0.862015	-0.300774	-0.302089	0.005675	19.9735	-0.300987	-4867.76	-1.165733E-6	NaN
401	1.000000	0.873350	7.36899e+06	-57039.1	1005.82	-29737.6	0.000000	0.000000	6.873106	-0.028518	NaN	0.000000	0.001630	0.001695	28.082	0.040052	0.002019	19.8344	-40.9336	14.8448	0.026275	0.871988	-0.290754	-0.292116	-0.028518	19.8344	-0.289676	-3299.44	8.643349E-6	NaN
401	1.000000	0.883341	7.36899e+06	-57039.1	1005.82	-29737.6	0.000000	0.000000	6.883098	-0.011163	NaN	0.000000	0.001623	0.001735	28.0824	0.068683	0.002164	31.7367	144.561	-164.536	-0.020256	0.882048	-0.280763	-0.282056	-0.011163	31.7367	-0.280499	-2401.59	4.648055E-6	NaN
401	1.000000	0.893329	7.36899e+06	-57039.1	1005.82	-29737.6	0.000000	0.000000	6.893085	-0.019947	NaN	0.000000	0.001625	0.001729	28.0818	0.033102	0.001945	17.0212	19.6049	9.841643	-0.009808	0.891946	-0.270775	-0.272158	-0.019947	17.0212	-0.269896	-1659.47	1.202032E-5	NaN
401	1.000000	0.903358	7.36899e+06	-57039.1	1005.82	-29737.6	0.000000	0.000000	6.903114	-0.026453	NaN	0.000000	0.001624	0.001718	28.0813	0.056820	0.001966	28.9068	82.6562	-165.886	-0.064452	0.902048	-0.260746	-0.262056	-0.026453	28.9068	-0.260060	-1174.46	2.252361E-5	NaN
401	1.000000	0.913330	7.36899e+06	-57039.1	1005.82	-29737.6	0.000000	0.000000	6.913085	-0.057891	NaN	0.000000	0.001613	0.001792	28.0814	0.127610	0.002123	60.0993	-146.287	14.2306	-0.049707	0.911983	-0.250774	-0.252121	-0.057891	60.0993	-0.250052	-823.692	7.028265E-5	NaN
401	1.000000	0.923356	7.36899e+06	-57039.1	1005.82	-29737.6	0.000000	0.000000	6.923112	-0.011898	NaN	0.000000	0.001630	0.001735	28.0811	0.039495	0.001892	20.8735	-139.232	-165.101	0.009347	0.922103	-0.240749	-0.242001	-0.011898	20.8735	-0.240321	-581.522	2.046073E-5	NaN
401	1.000000	0.933371	7.36899e+06	-57039.1	1005.82	-29737.6	0.000000	0.000000	6.933123	-0.123631	NaN	0.000000	0.001641	0.001719	28.081	0.054802	0.001956	28.0132	66.183	17.3933	-0.059135	0.932015	-0.230733	-0.232090	-0.123631	28.0132	-0.227423	-364.561	0.000339	NaN
401	1.000000	0.943362	7.36899e+06	-57039.1	1005.82	-29737.6	0.000000	0.000000	6.943116	-0.090302	NaN	0.000000	0.001667	0.001758	28.0811	0.038903	0.001924	20.2233	161.639	-165.707	-0.114148	0.942025	-0.220742	-0.222079	-0.090302	20.2233	-0.217393	-252.314	0.000358	NaN
401	1.000000	0.953363	7.36899e+06	-57039.1	1005.82	-29737.6	0.000000	0.000000	6.953120	-0.000932	NaN	0.000000	0.001679	0.001772	28.081	0.084255	0.002033	41.4393	-55.6656	18.0783	0.019882	0.951985	-0.210741	-0.212120	-0.000932	41.4393	-0.210724	-197.033	4.729223E-6	NaN
401	1.000000	0.963357	7.36899e+06	-57039.1	1005.82	-29737.6	0.000000	0.000000	6.963112	-0.052926	NaN	0.000000	0.001674	0.001756	28.0809	0.073888	0.002000	36.9448	159.323	-164.262	-0.075682	0.962028	-0.200747	-0.202076	-0.052926	36.9448	-0.199672	-130.111	0.000407	NaN
401	1.000000	0.973374	7.36899e+06	-57039.1	1005.82	-29737.6	0.000000	0.000000	6.973129	-0.051375	NaN	0.000000	0.001712	0.001719	28.0807	0.051296	0.001894	27.079	177.375	16.2515	-0.028186	0.972029	-0.190730	-0.192075	-0.051375	27.079	-0.189307	-87.5873	0.000587	NaN
401	1.000000	0.983365	7.36899e+06	-57039.1	1005.82	-29737.6	0.000000	0.000000	6.983122	-0.009101	NaN	0.000000	0.001704	0.001721	28.082	0.063428	0.001973	32.1524	176.302	-164.067	0.051345	0.982095	-0.180739	-0.182009	-0.009101	32.1524	-0.180526	-62.2902	0.000146	NaN
401	1.000000	0.993374	7.36899e+06	-57039.1	1005.82	-29737.6	0.000000	0.000000	6.993127	-0.113296	NaN	0.000000	0.001670	0.001749	28.0809	0.042384	0.001993	21.2622	-91.9995	14.6236	-0.158867	0.992055	-0.170730	-0.172049	-0.113296	21.2622	-0.166734	-36.0318	0.003144	NaN
401	1.000000	1.003368	7.36899e+06	-57039.1	1005.82	-29737.6	0.000000	0.000000	7.003124	-0.012854	NaN	0.000000	0.001667	0.001795	28.0812	0.064507	0.001938	33.2891	-167.687	-166.401	-0.041703	1.002040	-0.160736	-0.162064	-0.012854	33.2891	-0.160447	-27.9203	0.000460	NaN
401	1.000000	1.013393	7.36899e+06	-57039.1	1005.82	-29737.6	0.000000	0.000000	7.013148	-0.041227	NaN	0.000000	0.001676	0.001731	28.0811	0.141208	0.002038	69.2891	-23.0085	13.0688	-0.053766	1.012020	-0.150711	-0.152084	-0.041227	69.2891	-0.150265	-18.3163	0.002251	NaN
401	1.000000	1.023383	7.36899e+06	-57039.1	1005.82	-29737.6	0.000000	0.000000	7.023140	0.001109	NaN	0.000000	0.001678	0.001748	28.0815	0.163869	0.002071	79.1239	16.681	-160.531	0.097496	1.022099	-0.140721	-0.142005	0.001109	79.1239	-0.140731	-12.2093	-9.085277E-5	NaN
401	1.000000	1.033386	7.36899e+06	-57039.1	1005.82	-29737.6	0.000000	0.000000	7.033142	-0.024407	NaN	0.000000	0.001705	0.001775	28.081	0.038595	0.002060	18.7336	-151.598	15.3018	-0.005666	1.032047	-0.130718	-0.132057	-0.024407	18.7336	-0.129741	-7.533129	0.003240	NaN
401	1.000000	1.043437	7.36899e+06	-57039.1	1005.82	-29737.6	0.000000	0.000000	7.043192	-0.053002	NaN	0.000000	0.001726	0.001757	28.0827	0.053731	0.001832	29.3331	-3.105002	-162.373	-0.082779	1.042067	-0.120667	-0.122037	-0.053002	29.3331	-0.119312	-4.679178	0.011327	NaN
401	1.000000	1.053429	7.36899e+06	-57039.1	1005.82	-29737.6	0.000000	0.000000	7.053184	-0.050023	NaN	0.000000	0.001681	0.001738	28.0821	0.102756	0.001977	51.9629	-161.055	13.4151	0.003530	1.052000	-0.110675	-0.112104	-0.050023	51.9629	-0.109953	-2.998414	0.016683	NaN
401	1.000000	1.063386	7.36899e+06	-57039.1	1005.82	-29737.6	0.000000	0.000000	7.063142	-0.024932	NaN	0.000000	0.001666	0.001774	28.0826	0.048981	0.001966	24.9178	-138.316	-163.981	0.036865	1.062095	-0.100718	-0.102009	-0.024932	24.9178	-0.099967	-1.824098	0.013668	NaN
401	1.000000	1.073409	7.36899e+06	-57039.1	1005.82	-29737.6	0.000000	0.000000	7.073163	-0.059535	NaN	0.000000	0.001682	0.001729	28.0822	0.071854	0.001977	36.3462	-134.717	17.0874	-0.041671	1.072095	-0.090695	-0.092009	-0.059535	36.3462	-0.089467	-1.050244	0.056687	NaN
401	1.000000	1.083405	7.36899e+06	-57039.1	1005.82	-29737.6	0.000000	0.000000	7.083160	-0.048520	NaN	0.000000	0.001720	0.001743	28.0822	0.045043	0.002091	21.5459	37.9585	-163.597	-0.021881	1.082051	-0.080699	-0.082053	-0.048520	21.5459	-0.079010	-0.584593	0.082997	NaN
401	1.000000	1.093415	7.36899e+06	-57039.1	1005.82	-29737.6	0.000000	0.000000	7.093173	0.009944	NaN	0.000000	0.001678	0.001742	28.0823	0.025308	0.002015	12.5578	-116.024	13.5916	0.033436	1.092088	-0.070689	-0.072016	0.009944	12.5578	-0.071283	-0.369065	-0.026945	NaN
401	1.000000	1.103412	7.36899e+06	-57039.1	1005.82	-29737.6	0.000000	0.000000	7.103168	-0.026341	NaN	0.000000	0.001728	0.001741	28.0822	0.137553	0.001940	70.9082	-179.743	-165.782	-0.025547	1.102102	-0.060692	-0.062002	-0.026341	70.9082	-0.060413	-0.185073	0.142325	NaN
401	1.000000	1.113408	7.36899e+06	-57039.1	1005.82	-29737.6	0.000000	0.000000	7.113166	0.020611	NaN	0.000000	0.001703	0.001745	28.0821	0.084335	0.002111	39.9525	-125.915	14.848	-0.011764	1.112055	-0.050696	-0.052049	0.020611	39.9525	-0.051083	-0.098386	-0.209488	NaN
401	1.000000	1.123449	7.36899e+06	-57039.1	1005.82	-29737.6	0.000000	0.000000	7.123206	-0.005173	NaN	0.000000	0.001703	0.001750	28.0822	0.117148	0.002055	56.9927	42.5551	-166.063	-0.020995	1.122141	-0.040655	-0.041963	-0.005173	56.9927	-0.040587	-0.047118	0.109788	NaN
401	1.000000	1.133448	7.36899e+06	-57039.1	1005.82	-29737.6	0.000000	0.000000	7.133201	-0.090703	NaN	0.000000	0.001699	0.001745	28.0822	0.104501	0.002115	49.417	-76.7833	14.7992	-0.025192	1.132054	-0.030656	-0.032050	-0.090703	49.417	-0.029280	-0.021978	4.126972	NaN
401	1.000000	1.143424	7.36899e+06	-57039.1	1005.82	-29737.6	0.000000	0.000000	7.143180	-0.029092	NaN	0.000000	0.001700	0.001724	28.0821	0.088669	0.002026	43.7685	-36.5741	-165.992	0.023944	1.142122	-0.020680	-0.021983	-0.029092	43.7685	-0.020182	-0.012695	2.291568	NaN
401	1.000000	1.153467	7.36899e+06	-57039.1	1005.82	-29737.6	0.000000	0.000000	7.153223	-0.022533	NaN	0.000000	0.001702	0.001743	28.0821	0.074969	0.002005	37.3872	-76.3765	13.343	-0.061351	1.152053	-0.010637	-0.012051	-0.022533	37.3872	-0.010185	-0.006493	3.470229	NaN
401	1.000000	1.163470	7.36899e+06	-57039.1	1005.82	-29737.6	0.000000	0.000000	7.163227	-0.001844	NaN	0.000000	0.001649	0.001720	28.0822	0.165174	0.001896	87.0999	18.8145	-160.983	-0.086863	1.162119	-0.000634	-0.001985	-0.001844	87.0999	-0.000618	-0.000456	4.039591	NaN
401	2.000000	1.172539	7.36899e+06	-57039.1	1005.82	-29737.6	0.000000	0.000000	7.172658	8.796864	NaN	0.000000	0.001668	0.001756	28.0821	8.069733	0.001807	4464.66	9.995664	9.345715	8.657206	1.171963	0.008435	0.007859	8.796864	4464.66	0.006957	0.005991	1468.28	52699
401	2.000000	1.175081	7.36899e+06	-57039.1	1005.82	-29737.6	0.000000	0.000000	7.175339	12.1645	NaN	0.000000	0.001718	0.001744	28.0814	10.3231	0.001517	6805.11	4.770803	-171.866	11.1638	1.174706	0.010977	0.010602	12.1645	6805.11	0.009637	0.008780	1385.41	66351.5
401	2.000000	1.177578	7.36899e+06	-57039.1	1005.82	-29737.6	0.000000	0.000000	7.177885	13.3576	NaN	0.000000	0.001710	0.001760	28.0812	12.6796	0.001713	7399.97	12.0266	2.268381	14.6055	1.177189	0.013474	0.013085	13.3576	7399.97	0.012120	0.011634	1148.15	62681.1
401	2.000000	1.180032	7.36899e+06	-57039.1	1005.82	-29737.6	0.000000	0.000000	7.180553	18.5679	NaN	0.000000	0.001702	0.001746	28.0808	15.9648	0.001746	9142.9	2.205774	-171.571	17.2713	1.179709	0.015928	0.015605	18.5679	9142.9	0.014405	0.014500	1280.57	69370.9
401	2.000000	1.182512	7.36899e+06	-57039.1	1005.82	-29737.6	0.000000	0.000000	7.183375	26.886	NaN	0.000000	0.001713	0.001758	28.0816	18.4116	0.001722	10692	1.192880	7.792302	24.5203	1.182152	0.018408	0.018048	26.886	10692	0.016522	0.017369	1547.97	74122.5
401	2.000000	1.185012	7.36899e+06	-57039.1	1005.82	-29737.6	0.000000	0.000000	7.186040	30.8901	NaN	0.000000	0.001667	0.001760	28.0809	20.6367	0.001837	11234.6	5.972188	-175.357	29.8092	1.184711	0.020908	0.020607	30.8901	11234.6	0.018846	0.020761	1487.9	71237.2
401	2.000000	1.187446	7.36899e+06	-57039.1	1005.82	-29737.6	0.000000	0.000000	7.188848	39.9833	NaN	0.000000	0.001694	0.001745	28.0813	23.9313	0.001717	13941.7	6.919403	1.038025	36.4616	1.187149	0.023342	0.023045	39.9833	13941.7	0.021191	0.024448	1635.42	81463.5
401	2.000000	1.190014	7.36899e+06	-57039.1	1005.82	-29737.6	0.000000	0.000000	7.191906	51.8901	NaN	0.000000	0.001709	0.001760	28.081	27.2229	0.001755	15514.1	3.520197	-177.416	51.2198	1.189687	0.025910	0.025583	51.8901	15514.1	0.023401	0.028171	1841.98	84449.7
401	2.000000	1.192510	7.36899e+06	-57039.1	1005.82	-29737.6	0.000000	0.000000	7.195076	68.2703	NaN	0.000000	0.001680	0.001750	28.0816	29.2659	0.001698	17234.2	3.589037	1.754136	66.9144	1.192095	0.028406	0.027991	68.2703	17234.2	0.025435	0.031812	2146.04	88281.2
401	2.000000	1.195012	7.36899e+06	-57039.1	1005.82	-29737.6	0.000000	0.000000	7.198000	78.5146	NaN	0.000000	0.001688	0.001748	28.081	31.3571	0.001740	18022	3.019495	-176.496	77.8866	1.194681	0.030908	0.030577	78.5146	18022	0.027641	0.035995	2181.24	86786.6
401	2.000000	1.197489	7.36899e+06	-57039.1	1005.82	-29737.6	0.000000	0.000000	7.201063	92.7721	NaN	0.000000	0.001679	0.001684	28.0815	34.776	0.001871	18582.3	6.139746	-0.673230	91.4041	1.197205	0.033385	0.033101	92.7721	18582.3	0.029640	0.040002	2319.2	84885.6
401	2.000000	1.199977	7.36899e+06	-57039.1	1005.82	-29737.6	0.000000	0.000000	7.203947	102.412	NaN	0.000000	0.001681	0.001738	28.081	36.5301	0.001775	20582.1	1.826605	-178.388	100.499	1.199691	0.035873	0.035586	102.412	20582.1	0.032141	0.045298	2260.87	88353.7
401	2.000000	1.202461	7.36899e+06	-57039.1	1005.82	-29737.6	0.000000	0.000000	7.206552	105.346	NaN	0.000000	0.001682	0.001735	28.0819	38.6046	0.001798	21476.7	3.508810	0.799581	102.825	1.202108	0.038356	0.038004	105.346	21476.7	0.034678	0.050998	2065.7	86888.8
401	2.000000	1.204913	7.36899e+06	-57039.1	1005.82	-29737.6	0.000000	0.000000	7.209471	116.681	NaN	0.000000	0.001722	0.001747	28.0809	41.2497	0.001799	22931.3	3.676601	179.42	113.949	1.204643	0.040809	0.040539	116.681	22931.3	0.036993	0.056488	2065.6	88150.6
401	2.000000	1.207455	7.36899e+06	-57039.1	1005.82	-29737.6	0.000000	0.000000	7.212642	131.971	NaN	0.000000	0.001712	0.001744	28.0824	43.8367	0.001795	24428.1	6.316225	-3.820336	129.127	1.207069	0.043351	0.042965	131.971	24428.1	0.039299	0.062230	2120.69	89466.8
401	2.000000	1.209982	7.36899e+06	-57039.1	1005.82	-29737.6	0.000000	0.000000	7.215333	135.952	NaN	0.000000	0.001707	0.001754	28.0821	47.0273	0.001902	24725.8	8.275517	174.198	136.103	1.209759	0.045878	0.045655	135.952	24725.8	0.041754	0.068641	1980.62	86224.8
401	2.000000	1.212503	7.36899e+06	-57039.1	1005.82	-29737.6	0.000000	0.000000	7.218409	149.43	NaN	0.000000	0.001794	0.001742	28.0829	47.5644	0.001912	24872.2	2.773935	0.224954	149.818	1.212206	0.048399	0.048102	149.43	24872.2	0.043893	0.074477	2006.39	83267.9
401	2.000000	1.214970	7.36899e+06	-57039.1	1005.82	-29737.6	0.000000	0.000000	7.221116	155.263	NaN	0.000000	0.001738	0.001708	28.0821	50.0312	0.001808	27664.8	7.979532	174.474	155.922	1.214634	0.050866	0.050530	155.263	27664.8	0.046657	0.082361	1885.16	88072.4
401	2.000000	1.217343	7.36899e+06	-57039.1	1005.82	-29737.6	0.000000	0.000000	7.224194	172.403	NaN	0.000000	0.001778	0.001723	28.0823	51.417	0.001777	28930.3	3.251375	-2.159278	165.01	1.217047	0.053239	0.052943	172.403	28930.3	0.048770	0.088649	1944.78	88774.8
401	2.000000	1.220027	7.36899e+06	-57039.1	1005.82	-29737.6	0.000000	0.000000	7.226795	170.396	NaN	0.000000	0.001781	0.001718	28.0824	54.1848	0.001812	29902.1	3.694612	176.688	172.596	1.219842	0.055923	0.055738	170.396	29902.1	0.051649	0.097580	1746.23	87457.1
401	2.000000	1.222496	7.36899e+06	-57039.1	1005.82	-29737.6	0.000000	0.000000	7.230221	193.665	NaN	0.000000	0.001789	0.001751	28.0828	56.0945	0.001831	30642.9	7.274625	-5.611028	194.329	1.222057	0.058392	0.057953	193.665	30642.9	0.053652	0.104034	1861.55	86798.9
401	2.000000	1.224863	7.36899e+06	-57039.1	1005.82	-29737.6	0.000000	0.000000	7.232962	202.754	NaN	0.000000	0.001805	0.001729	28.0827	56.9631	0.001686	33784.1	2.980916	177.601	199.733	1.224596	0.060759	0.060492	202.754	33784.1	0.056258	0.112733	1798.52	91930.3
401	2.000000	1.227339	7.36899e+06	-57039.1	1005.82	-29737.6	0.000000	0.000000	7.235824	212.136	NaN	0.000000	0.001822	0.001734	28.0825	59.7123	0.001776	33625.2	2.225588	-2.327324	204.154	1.227025	0.063235	0.062921	212.136	33625.2	0.058504	0.120497	1760.5	88501.2
401	2.000000	1.229983	7.36899e+06	-57039.1	1005.82	-29737.6	0.000000	0.000000	7.238874	222.008	NaN	0.000000	0.001761	0.001734	28.0825	62.6731	0.001754	35723.2	3.177720	176.184	222.6	1.229824	0.065879	0.065719	222.008	35723.2	0.061218	0.130211	1704.99	90448.3
401	2.000000	1.232467	7.36899e+06	-57039.1	1005.82	-29737.6	0.000000	0.000000	7.242457	248.728	NaN	0.000000	0.001774	0.001706	28.0827	64.3264	0.001785	36037.9	4.443453	-4.199770	247.645	1.231945	0.068362	0.067841	248.728	36037.9	0.063186	0.137481	1809.19	88799.7
401	2.000000	1.234837	7.36899e+06	-57039.1	1005.82	-29737.6	0.000000	0.000000	7.245204	257.881	NaN	0.000000	0.001693	0.001711	28.0823	66.3218	0.001646	40299.5	4.299176	174.406	252.281	1.234546	0.070733	0.070441	257.881	40299.5	0.065933	0.147940	1743.15	95726
401	2.000000	1.237380	7.36899e+06	-57039.1	1005.82	-29737.6	0.000000	0.000000	7.248304	271.424	NaN	0.000000	0.001706	0.001710	28.0826	70.2499	0.001731	40582.4	5.549845	-6.969639	265.5	1.237142	0.073276	0.073038	271.424	40582.4	0.068259	0.157080	1727.94	93551.4
401	2.000000	1.239934	7.36899e+06	-57039.1	1005.82	-29737.6	0.000000	0.000000	7.251559	288.441	NaN	0.000000	0.001668	0.001723	28.0826	72.959	0.001916	38074.5	4.649353	174.439	289.437	1.239675	0.075830	0.075571	288.441	38074.5	0.070149	0.164693	1751.39	85717.6
401	2.000000	1.242423	7.36899e+06	-57039.1	1005.82	-29737.6	0.000000	0.000000	7.254474	298.808	NaN	0.000000	0.001675	0.001705	28.0812	75.4219	0.001761	42819.7	9.267332	-10.8247	295.146	1.241985	0.078319	0.077881	298.808	42819.7	0.073086	0.176866	1689.46	93024
401	2.000000	1.244904	7.36899e+06	-57039.1	1005.82	-29737.6	0.000000	0.000000	7.257701	316.961	NaN	0.000000	0.001715	0.001712	28.0811	75.7896	0.001674	45267.6	4.665240	173.391	312.959	1.244505	0.080799	0.080401	316.961	45267.6	0.075548	0.187386	1691.49	95541.6
401	2.000000	1.247422	7.36899e+06	-57039.1	1005.82	-29737.6	0.000000	0.000000	7.260565	325.338	NaN	0.000000	0.001711	0.001680	28.0811	79.3165	0.001804	43963.3	5.745449	-7.904668	321.794	1.247107	0.083318	0.083003	325.338	43963.3	0.077768	0.197114	1650.51	90470.1
401	2.000000	1.249918	7.36899e+06	-57039.1	1005.82	-29737.6	0.000000	0.000000	7.263575	337.85	NaN	0.000000	0.001696	0.001686	28.0813	82.2103	0.001757	46785	4.652896	172.685	337.941	1.249711	0.085814	0.085607	337.85	46785	0.080398	0.208937	1616.99	93513.1
401	2.000000	1.252451	7.36899e+06	-57039.1	1005.82	-29737.6	0.000000	0.000000	7.267217	364.784	NaN	0.000000	0.001694	0.001672	28.081	84.1461	0.001767	47608.9	8.357227	-11.1361	363.611	1.252015	0.088347	0.087911	364.784	47608.9	0.082601	0.219089	1665	92929.1
401	2.000000	1.254937	7.36899e+06	-57039.1	1005.82	-29737.6	0.000000	0.000000	7.270412	382.028	NaN	0.000000	0.001691	0.001653	28.0811	85.2816	0.001844	46239	4.402694	173.643	381.636	1.254609	0.090833	0.090505	382.028	46239	0.084636	0.228671	1670.65	88343.9
401	2.000000	1.257315	7.36899e+06	-57039.1	1005.82	-29737.6	0.000000	0.000000	7.273478	398.757	NaN	0.000000	0.001681	0.001687	28.0811	88.74	0.001794	49452	6.931586	-9.208877	391.011	1.257030	0.093211	0.092925	398.757	49452	0.087163	0.240829	1655.77	92066.8
401	2.000000	1.259845	7.36899e+06	-57039.1	1005.82	-29737.6	0.000000	0.000000	7.276700	415.565	NaN	0.000000	0.001677	0.001670	28.0812	91.6503	0.001888	48538	4.475889	172.683	411.329	1.259599	0.095741	0.095495	415.565	48538	0.089320	0.251438	1652.75	88438.2
401	2.000000	1.262453	7.36899e+06	-57039.1	1005.82	-29737.6	0.000000	0.000000	7.280138	435.756	NaN	0.000000	0.001703	0.001700	28.0808	93.2126	0.001739	53613.6	7.055846	-10.1022	435.677	1.262017	0.098349	0.097913	435.756	53613.6	0.092253	0.266212	1636.88	94936.8
401	2.000000	1.265027	7.36899e+06	-57039.1	1005.82	-29737.6	0.000000	0.000000	7.283168	446.821	NaN	0.000000	0.001676	0.001658	28.0809	95.3598	0.001922	49611.5	5.292418	171.933	452.271	1.264796	0.100923	0.100692	446.821	49611.5	0.094168	0.276068	1618.52	86267.5
401	2.000000	1.267335	7.36899e+06	-57039.1	1005.82	-29737.6	0.000000	0.000000	7.286331	467.59	NaN	0.000000	0.001699	0.001699	28.0809	96.9224	0.001690	57351.4	6.634163	-10.6106	459.669	1.267091	0.103231	0.102986	467.59	57351.4	0.097116	0.291573	1603.68	97038.4
401	2.000000	1.269939	7.36899e+06	-57039.1	1005.82	-29737.6	0.000000	0.000000	7.289748	487.381	NaN	0.000000	0.001696	0.001694	28.0811	98.9865	0.001686	58718.3	1.120021	174.603	488.336	1.269752	0.105835	0.105648	487.381	58718.3	0.099610	0.304992	1598.01	97141
401	2.000000	1.270760	7.36899e+06	-57039.1	1005.82	-29737.6	0.000000	0.000000	7.291482	509.576	NaN	0.000000	0.001745	0.001666	28.0813	99.6403	0.001703	58497.5	4.828130	171.274	502.154	1.270423	0.106655	0.106319	509.576	58497.5	0.100122	0.307786	1655.62	96335.4