File: remote_trans/data/nanoindenter/0828-1/data/Data_2025-08-06,11h17m57s/2025-07-22_16-23-58_1_1196.txt
2025-07-22, 16:23:58, 1
Index	Phase	Displacement	Time	Pos X	Pos Y	Pos Z	Rot A	Rot B	Piezo Z	Force A	Force B	Gripper	Voltage A	Voltage B	Temperature	Amplitude force	Amplitude pos	Stiffness	Phase shift	Phase excitation	Force A raw	Displacement raw	HMax	HMax raw	Real Force	Real Stiffness	Contact Depth	Area	Hardness	Reduced Mod.
[#]	[#]	[um]	[s]	[um]	[um]	[um]	[m°]	[m°]	[um]	[uN]	[uN]	[V]	[V]	[V]	[°C]	[uN]	[um]	[N/m]	[°]	[°]	[uN]	[um]	[um]	[um]	[uN]	[N/m]	[um]	[um^2]	[MPa]	[MPa]
1196	1.000000	0.002395	7.37674e+06	-55789.1	1105.82	-29740.5	0.000000	0.000000	6.002788	0.003384	NaN	0.000000	0.001533	0.001547	28.0824	0.028599	0.000984	29.0501	-176.779	-167.426	0.094556	0.001153	-1.165409	-1.166651	0.003384	29.0501	-1.165497	-3.789115E+15	-8.930144E-19	NaN
1196	1.000000	0.012468	7.37674e+06	-55789.1	1105.82	-29740.5	0.000000	0.000000	6.012861	-0.016705	NaN	0.000000	0.001526	0.001564	28.0822	0.093297	0.001151	81.0836	9.076324	18.8444	0.070379	0.011003	-1.155336	-1.156801	-0.016705	81.0836	-1.155181	-2.755974E+15	6.061440E-18	NaN
1196	1.000000	0.022348	7.37674e+06	-55789.1	1105.82	-29740.5	0.000000	0.000000	6.022745	0.107594	NaN	0.000000	0.001561	0.001552	28.0824	0.039976	0.001641	24.3598	37.6461	-165.313	0.084797	0.021071	-1.145456	-1.146733	0.107594	24.3598	-1.148768	-2.261044E+15	-4.758616E-17	NaN
1196	1.000000	0.032348	7.37674e+06	-55789.1	1105.82	-29740.5	0.000000	0.000000	6.032737	-0.076070	NaN	0.000000	0.001557	0.001573	28.0824	0.069963	0.001834	38.155	129.063	15.2889	-0.074214	0.030946	-1.135456	-1.136858	-0.076070	38.155	-1.133961	-1.431363E+15	5.314520E-17	NaN
1196	1.000000	0.042371	7.37674e+06	-55789.1	1105.82	-29740.5	0.000000	0.000000	6.042763	-0.027162	NaN	0.000000	0.001531	0.001590	28.0825	0.120330	0.002021	59.535	25.4618	-165.676	0.010019	0.041092	-1.125433	-1.126712	-0.027162	59.535	-1.125090	-1.088341E+15	2.495728E-17	NaN
1196	1.000000	0.052316	7.37674e+06	-55789.1	1105.82	-29740.5	0.000000	0.000000	6.052712	0.069242	NaN	0.000000	0.001552	0.001594	28.0823	0.059353	0.001952	30.4105	85.206	11.57	0.066004	0.050994	-1.115488	-1.116810	0.069242	30.4105	-1.117195	-8.527853E+14	-8.119513E-17	NaN
1196	1.000000	0.062363	7.37674e+06	-55789.1	1105.82	-29740.5	0.000000	0.000000	6.062758	0.055217	NaN	0.000000	0.001566	0.001576	28.0827	0.025816	0.001973	13.0822	-80.441	-163.842	0.083341	0.061106	-1.105441	-1.106698	0.055217	13.0822	-1.108606	-6.540065E+14	-8.442908E-17	NaN
1196	1.000000	0.072350	7.37674e+06	-55789.1	1105.82	-29740.5	0.000000	0.000000	6.072744	0.021283	NaN	0.000000	0.001547	0.001635	28.0823	0.052913	0.002010	26.3316	45.4803	14.5118	-0.016609	0.070954	-1.095454	-1.096850	0.021283	26.3316	-1.096060	-4.437847E+14	-4.795823E-17	NaN
1196	1.000000	0.082354	7.37674e+06	-55789.1	1105.82	-29740.5	0.000000	0.000000	6.082748	0.033732	NaN	0.000000	0.001556	0.001581	28.0823	0.134573	0.001973	68.1992	57.2024	-165.093	0.020988	0.081047	-1.085450	-1.086757	0.033732	68.1992	-1.085821	-3.233687E+14	-1.043151E-16	NaN
1196	1.000000	0.092350	7.37674e+06	-55789.1	1105.82	-29740.5	0.000000	0.000000	6.092742	0.003440	NaN	0.000000	0.001503	0.001554	28.0823	0.088876	0.001965	45.2242	-66.8713	16.0304	0.017577	0.091038	-1.075454	-1.076766	0.003440	45.2242	-1.075511	-2.350875E+14	-1.463082E-17	NaN
1196	1.000000	0.102380	7.37674e+06	-55789.1	1105.82	-29740.5	0.000000	0.000000	6.102774	0.026348	NaN	0.000000	0.001567	0.001576	28.0812	0.037949	0.002002	18.9559	-96.7528	-165.344	0.072146	0.101092	-1.065424	-1.066712	0.026348	18.9559	-1.066466	-1.777099E+14	-1.482635E-16	NaN
1196	1.000000	0.112379	7.37674e+06	-55789.1	1105.82	-29740.5	0.000000	0.000000	6.112773	0.026246	NaN	0.000000	0.001584	0.001587	28.0809	0.067449	0.001930	34.956	100.159	18.1561	0.036760	0.110993	-1.055425	-1.056811	0.026246	34.956	-1.055988	-1.284988E+14	-2.042518E-16	NaN
1196	1.000000	0.122382	7.37674e+06	-55789.1	1105.82	-29740.5	0.000000	0.000000	6.122776	0.036587	NaN	0.000000	0.001549	0.001576	28.081	0.063296	0.001999	31.6711	-86.5176	-165.41	0.001949	0.121063	-1.045422	-1.046741	0.036587	31.6711	-1.046288	-9.517353E+13	-3.844291E-16	NaN
1196	1.000000	0.132390	7.37674e+06	-55789.1	1105.82	-29740.5	0.000000	0.000000	6.132783	0.011566	NaN	0.000000	0.001560	0.001584	28.0812	0.048568	0.001907	25.4668	116.781	17.4383	-0.010070	0.131057	-1.035414	-1.036747	0.011566	25.4668	-1.035754	-6.868713E+13	-1.683894E-16	NaN
1196	1.000000	0.142390	7.37674e+06	-55789.1	1105.82	-29740.5	0.000000	0.000000	6.142784	0.011893	NaN	0.000000	0.001619	0.001596	28.081	0.055549	0.001942	28.6	65.3316	-162.631	-0.032032	0.141094	-1.025414	-1.026710	0.011893	28.6	-1.025726	-5.034809E+13	-2.362089E-16	NaN
1196	1.000000	0.152417	7.37674e+06	-55789.1	1105.82	-29740.5	0.000000	0.000000	6.152812	0.058772	NaN	0.000000	0.001576	0.001577	28.0811	0.040372	0.002091	19.3088	-67.1356	16.8377	0.054205	0.151039	-1.015387	-1.016765	0.058772	19.3088	-1.017670	-3.922848E+13	-1.498208E-15	NaN
1196	1.000000	0.162412	7.37674e+06	-55789.1	1105.82	-29740.5	0.000000	0.000000	6.162803	-0.046847	NaN	0.000000	0.001571	0.001588	28.081	0.027423	0.002066	13.2727	176.766	-165.785	0.000967	0.161077	-1.005392	-1.006727	-0.046847	13.2727	-1.002744	-2.470104E+13	1.896570E-15	NaN
1196	1.000000	0.172404	7.37674e+06	-55789.1	1105.82	-29740.5	0.000000	0.000000	6.172799	0.041161	NaN	0.000000	0.001557	0.001563	28.0813	0.041621	0.002090	19.9157	148.412	13.3451	0.085644	0.170986	-0.995400	-0.996818	0.041161	19.9157	-0.996950	-2.063957E+13	-1.994255E-15	NaN
1196	1.000000	0.182420	7.37674e+06	-55789.1	1105.82	-29740.5	0.000000	0.000000	6.182810	-0.060577	NaN	0.000000	0.001568	0.001599	28.0812	0.052794	0.002069	25.5168	113.924	-163.408	-0.050174	0.181101	-0.985384	-0.986703	-0.060577	25.5168	-0.983604	-1.364450E+13	4.439676E-15	NaN
1196	1.000000	0.192398	7.37674e+06	-55789.1	1105.82	-29740.5	0.000000	0.000000	6.192789	-0.028865	NaN	0.000000	0.001557	0.001569	28.0811	0.049724	0.002044	24.3235	165.195	18.3871	0.055999	0.190978	-0.975406	-0.976826	-0.028865	24.3235	-0.974516	-1.029257E+13	2.804462E-15	NaN
1196	1.000000	0.202417	7.37674e+06	-55789.1	1105.82	-29740.5	0.000000	0.000000	6.202813	0.087135	NaN	0.000000	0.001553	0.001579	28.0813	0.070518	0.001978	35.6562	-71.3764	-159.595	0.018106	0.201112	-0.965387	-0.966692	0.087135	35.6562	-0.967220	-8.207240E+12	-1.061683E-14	NaN
1196	1.000000	0.212429	7.37674e+06	-55789.1	1105.82	-29740.5	0.000000	0.000000	6.212821	-0.023260	NaN	0.000000	0.001557	0.001590	28.081	0.057396	0.001999	28.714	162.834	19.0869	0.035001	0.211113	-0.955375	-0.956691	-0.023260	28.714	-0.954767	-5.575919E+12	4.171422E-15	NaN
1196	1.000000	0.222438	7.37674e+06	-55789.1	1105.82	-29740.5	0.000000	0.000000	6.222834	0.067974	NaN	0.000000	0.001549	0.001603	28.0843	0.047001	0.001950	24.1011	-37.6207	-163.606	0.115048	0.221077	-0.945366	-0.946727	0.067974	24.1011	-0.947481	-4.446839E+12	-1.528600E-14	NaN
1196	1.000000	0.232440	7.37674e+06	-55789.1	1105.82	-29740.5	0.000000	0.000000	6.232833	0.001670	NaN	0.000000	0.001563	0.001621	28.0823	0.084099	0.001959	42.9396	51.0907	11.7119	0.035662	0.231095	-0.935364	-0.936709	0.001670	42.9396	-0.935393	-3.054729E+12	-5.466474E-16	NaN
1196	1.000000	0.242460	7.37674e+06	-55789.1	1105.82	-29740.5	0.000000	0.000000	6.242857	0.089201	NaN	0.000000	0.001570	0.001609	28.0833	0.058419	0.001997	29.2478	53.1806	-164.175	0.058171	0.241130	-0.925344	-0.926674	0.089201	29.2478	-0.927631	-2.400075E+12	-3.716580E-14	NaN
1196	1.000000	0.252439	7.37674e+06	-55789.1	1105.82	-29740.5	0.000000	0.000000	6.252830	-0.055541	NaN	0.000000	0.001579	0.001608	28.0827	0.061054	0.001892	32.2626	178	17.1403	-0.003043	0.251146	-0.915365	-0.916658	-0.055541	32.2626	-0.914074	-1.574646E+12	3.527179E-14	NaN
1196	1.000000	0.262416	7.37674e+06	-55789.1	1105.82	-29740.5	0.000000	0.000000	6.262808	-0.032759	NaN	0.000000	0.001552	0.001591	28.0824	0.096974	0.001928	50.2923	-171.86	-165.085	-0.015680	0.261156	-0.905388	-0.906648	-0.032759	50.2923	-0.904899	-1.183752E+12	2.767351E-14	NaN
1196	1.000000	0.272461	7.37674e+06	-55789.1	1105.82	-29740.5	0.000000	0.000000	6.272857	0.079121	NaN	0.000000	0.001528	0.001551	28.0824	0.115620	0.002082	55.5197	-136.433	16.0726	0.039634	0.271070	-0.895343	-0.896734	0.079121	55.5197	-0.896412	-9.090209E+11	-8.704007E-14	NaN
1196	1.000000	0.282444	7.37674e+06	-55789.1	1105.82	-29740.5	0.000000	0.000000	6.282838	0.024337	NaN	0.000000	0.001527	0.001597	28.0827	0.069955	0.002035	34.3734	7.531557	-166.591	0.028899	0.281121	-0.885360	-0.886683	0.024337	34.3734	-0.885891	-6.551921E+11	-3.714485E-14	NaN
1196	1.000000	0.292451	7.37674e+06	-55789.1	1105.82	-29740.5	0.000000	0.000000	6.292846	0.051828	NaN	0.000000	0.001548	0.001619	28.0823	0.010212	0.001923	5.309261	127.3	16.8935	0.058560	0.291074	-0.875353	-0.876730	0.051828	5.309261	-0.882674	-5.927485E+11	-8.743690E-14	NaN
1196	1.000000	0.302458	7.37674e+06	-55789.1	1105.82	-29740.5	0.000000	0.000000	6.302850	-0.007119	NaN	0.000000	0.001575	0.001619	28.0825	0.061584	0.001994	30.879	149.632	-164.335	-0.021524	0.301148	-0.865346	-0.866656	-0.007119	30.879	-0.865173	-3.436627E+11	2.071484E-14	NaN
1196	1.000000	0.312468	7.37674e+06	-55789.1	1105.82	-29740.5	0.000000	0.000000	6.312863	0.048242	NaN	0.000000	0.001527	0.001646	28.0825	0.101637	0.002182	46.5877	132.338	12.4148	-0.039201	0.311156	-0.855336	-0.856648	0.048242	46.5877	-0.856113	-2.591194E+11	-1.861762E-13	NaN
1196	1.000000	0.322459	7.37674e+06	-55789.1	1105.82	-29740.5	0.000000	0.000000	6.322853	0.028239	NaN	0.000000	0.001562	0.001617	28.0828	0.057323	0.001935	29.6171	-159.526	-165.554	0.007000	0.321176	-0.845345	-0.846628	0.028239	29.6171	-0.846060	-1.893980E+11	-1.490983E-13	NaN
1196	1.000000	0.332471	7.37674e+06	-55789.1	1105.82	-29740.5	0.000000	0.000000	6.332864	0.020506	NaN	0.000000	0.001543	0.001597	28.0823	0.053643	0.002078	25.8198	34.6272	15.8557	0.006281	0.331169	-0.835333	-0.836635	0.020506	25.8198	-0.835929	-1.380809E+11	-1.485107E-13	NaN
1196	1.000000	0.342483	7.37674e+06	-55789.1	1105.82	-29740.5	0.000000	0.000000	6.342876	0.002278	NaN	0.000000	0.001541	0.001624	28.0827	0.056494	0.002076	27.2152	39.2443	-163.672	0.017350	0.341107	-0.825321	-0.826697	0.002278	27.2152	-0.825384	-9.935907E+10	-2.292824E-14	NaN
1196	1.000000	0.352466	7.37674e+06	-55789.1	1105.82	-29740.5	0.000000	0.000000	6.352861	0.040060	NaN	0.000000	0.001523	0.001655	28.0826	0.048465	0.002016	24.0461	-86.5515	19.9779	0.046757	0.351090	-0.815338	-0.816714	0.040060	24.0461	-0.816587	-7.549618E+10	-5.306168E-13	NaN
1196	1.000000	0.362487	7.37674e+06	-55789.1	1105.82	-29740.5	0.000000	0.000000	6.362879	-0.018595	NaN	0.000000	0.001540	0.001605	28.0829	0.054032	0.001928	28.0257	-14.9712	-163.902	0.007289	0.361156	-0.805317	-0.806648	-0.018595	28.0257	-0.804819	-5.227251E+10	3.557357E-13	NaN
1196	1.000000	0.372486	7.37674e+06	-55789.1	1105.82	-29740.5	0.000000	0.000000	6.372881	0.062871	NaN	0.000000	0.001540	0.001575	28.0821	0.051682	0.002086	24.7803	108.112	16.3108	-0.014504	0.371153	-0.795318	-0.796651	0.062871	24.7803	-0.797221	-4.122292E+10	-1.525138E-12	NaN
1196	1.000000	0.382505	7.37674e+06	-55789.1	1105.82	-29740.5	0.000000	0.000000	6.382898	0.005598	NaN	0.000000	0.001516	0.001596	28.0814	0.050117	0.002197	22.8126	-141.465	-164.092	-0.052355	0.381177	-0.785299	-0.786627	0.005598	22.8126	-0.785483	-2.855764E+10	-1.960165E-13	NaN
1196	1.000000	0.392524	7.37674e+06	-55789.1	1105.82	-29740.5	0.000000	0.000000	6.392918	0.042798	NaN	0.000000	0.001545	0.001604	28.081	0.069707	0.002112	33.002	-140.559	13.1436	-0.006126	0.391059	-0.775280	-0.776745	0.042798	33.002	-0.776253	-2.139480E+10	-2.000383E-12	NaN
1196	1.000000	0.402450	7.37674e+06	-55789.1	1105.82	-29740.5	0.000000	0.000000	6.402843	0.008957	NaN	0.000000	0.001561	0.001595	28.0812	0.039087	0.002223	17.5857	-139.825	-164.866	0.029181	0.401267	-0.765354	-0.766537	0.008957	17.5857	-0.765736	-1.539299E+10	-5.818903E-13	NaN
1196	1.000000	0.412494	7.37674e+06	-55789.1	1105.82	-29740.5	0.000000	0.000000	6.412886	-0.022400	NaN	0.000000	0.001588	0.001581	28.081	0.052445	0.001905	27.5238	92.4506	16.4268	0.008531	0.411150	-0.755310	-0.756654	-0.022400	27.5238	-0.754699	-1.089378E+10	2.056208E-12	NaN
1196	1.000000	0.422525	7.37674e+06	-55789.1	1105.82	-29740.5	0.000000	0.000000	6.422917	-0.026793	NaN	0.000000	0.001582	0.001619	28.0812	0.081533	0.001937	42.0994	35.2095	-163.541	-0.045029	0.421207	-0.745279	-0.746597	-0.026793	42.0994	-0.744802	-7.988185E+9	3.354087E-12	NaN
1196	1.000000	0.432501	7.37674e+06	-55789.1	1105.82	-29740.5	0.000000	0.000000	6.432895	0.016291	NaN	0.000000	0.001560	0.001583	28.0812	0.018532	0.001954	9.484459	92.0761	13.7759	0.035289	0.431134	-0.735303	-0.736670	0.016291	9.484459	-0.736591	-6.174718E+9	-2.638398E-12	NaN
1196	1.000000	0.442521	7.37674e+06	-55789.1	1105.82	-29740.5	0.000000	0.000000	6.442913	-0.016909	NaN	0.000000	0.001556	0.001620	28.0813	0.098906	0.001965	50.3345	-172.949	-163.714	0.010677	0.441188	-0.725283	-0.726616	-0.016909	50.3345	-0.725031	-4.296056E+9	3.935831E-12	NaN
1196	1.000000	0.452516	7.37674e+06	-55789.1	1105.82	-29740.5	0.000000	0.000000	6.452910	0.023241	NaN	0.000000	0.001539	0.001633	28.0812	0.081104	0.002099	38.6466	56.8362	19.1611	0.012491	0.451181	-0.715288	-0.716623	0.023241	38.6466	-0.715739	-3.208847E+9	-7.242702E-12	NaN
1196	1.000000	0.462504	7.37674e+06	-55789.1	1105.82	-29740.5	0.000000	0.000000	6.462895	-0.029676	NaN	0.000000	0.001566	0.001575	28.0813	0.031403	0.002020	15.5425	-42.1682	-163.55	-0.045045	0.461201	-0.705301	-0.706603	-0.029676	15.5425	-0.703868	-2.209805E+9	1.342924E-11	NaN
1196	1.000000	0.472554	7.37674e+06	-55789.1	1105.82	-29740.5	0.000000	0.000000	6.472951	0.095777	NaN	0.000000	0.001552	0.001625	28.0813	0.079243	0.001983	39.9608	-30.5241	13.4178	0.097516	0.471126	-0.695250	-0.696678	0.095777	39.9608	-0.697047	-1.783214E+9	-5.371027E-11	NaN
1196	1.000000	0.482524	7.37674e+06	-55789.1	1105.82	-29740.5	0.000000	0.000000	6.482916	-0.003965	NaN	0.000000	0.001541	0.001599	28.0813	0.035066	0.002026	17.3052	-124.485	-169.109	0.021151	0.481266	-0.685280	-0.686538	-0.003965	17.3052	-0.685108	-1.224778E+9	3.237727E-12	NaN
1196	1.000000	0.492536	7.37674e+06	-55789.1	1105.82	-29740.5	0.000000	0.000000	6.492928	-0.033784	NaN	0.000000	0.001526	0.001598	28.0812	0.103945	0.002017	51.5286	-66.6102	18.0542	-0.039292	0.491221	-0.675268	-0.676583	-0.033784	51.5286	-0.674776	-8.845977E+8	3.819179E-11	NaN
1196	1.000000	0.502564	7.37674e+06	-55789.1	1105.82	-29740.5	0.000000	0.000000	6.502957	0.013618	NaN	0.000000	0.001581	0.001582	28.0811	0.045166	0.002153	20.9775	-169.345	-162.716	0.007183	0.501216	-0.665240	-0.666588	0.013618	20.9775	-0.665727	-6.651232E+8	-2.047474E-11	NaN
1196	1.000000	0.512536	7.37674e+06	-55789.1	1105.82	-29740.5	0.000000	0.000000	6.512932	0.070919	NaN	0.000000	0.001528	0.001614	28.0827	0.048066	0.002005	23.9752	-79.1833	14.4072	0.070179	0.511146	-0.655268	-0.656658	0.070919	23.9752	-0.657487	-5.129060E+8	-1.382685E-10	NaN
1196	1.000000	0.522565	7.37674e+06	-55789.1	1105.82	-29740.5	0.000000	0.000000	6.522959	0.029070	NaN	0.000000	0.001558	0.001601	28.0824	0.047567	0.002034	23.3808	70.1826	-165.054	0.047653	0.521234	-0.645239	-0.646570	0.029070	23.3808	-0.646172	-3.588758E+8	-8.100208E-11	NaN
1196	1.000000	0.532555	7.37674e+06	-55789.1	1105.82	-29740.5	0.000000	0.000000	6.532949	0.035112	NaN	0.000000	0.001594	0.001620	28.0823	0.019609	0.002045	9.589747	96.7274	11.4872	0.026491	0.531152	-0.635249	-0.636652	0.035112	9.589747	-0.637995	-2.771938E+8	-1.266687E-10	NaN
1196	1.000000	0.542567	7.37674e+06	-55789.1	1105.82	-29740.5	0.000000	0.000000	6.542960	-0.000348	NaN	0.000000	0.001530	0.001594	28.0824	0.023248	0.001992	11.6721	-155.403	-162.671	0.057699	0.541260	-0.625237	-0.626544	-0.000348	11.6721	-0.625215	-1.850527E+8	1.879554E-12	NaN
1196	1.000000	0.552558	7.37674e+06	-55789.1	1105.82	-29740.5	0.000000	0.000000	6.552955	0.100159	NaN	0.000000	0.001543	0.001583	28.0827	0.011615	0.001980	5.866346	-8.235395	18.1817	0.070357	0.551211	-0.615246	-0.616593	0.100159	5.866346	-0.628051	-2.024237E+8	-4.947974E-10	NaN
1196	1.000000	0.562578	7.37674e+06	-55789.1	1105.82	-29740.5	0.000000	0.000000	6.562974	0.088002	NaN	0.000000	0.001580	0.001549	28.0822	0.139190	0.001973	70.5386	119.853	-165.389	0.104230	0.561215	-0.605226	-0.606589	0.088002	70.5386	-0.606162	-1.012262E+8	-8.693607E-10	NaN
1196	1.000000	0.572581	7.37674e+06	-55789.1	1105.82	-29740.5	0.000000	0.000000	6.572976	0.042325	NaN	0.000000	0.001578	0.001590	28.0825	0.081230	0.002025	40.1119	35.659	15.9548	0.133976	0.571211	-0.595223	-0.596593	0.042325	40.1119	-0.596014	-7.337622E+7	-5.768192E-10	NaN
1196	1.000000	0.582572	7.37674e+06	-55789.1	1105.82	-29740.5	0.000000	0.000000	6.582963	-0.030555	NaN	0.000000	0.001583	0.001578	28.0824	0.095224	0.001904	50.0018	-165.354	-161.811	0.038268	0.581248	-0.585232	-0.586556	-0.030555	50.0018	-0.584774	-5.135651E+7	5.949502E-10	NaN
1196	1.000000	0.592572	7.37674e+06	-55789.1	1105.82	-29740.5	0.000000	0.000000	6.592967	0.047220	NaN	0.000000	0.001538	0.001584	28.0827	0.081089	0.001930	42.0244	-86.7843	16.5934	0.022743	0.591212	-0.575232	-0.576592	0.047220	42.0244	-0.576075	-3.895265E+7	-1.212238E-9	NaN
1196	1.000000	0.602590	7.37674e+06	-55789.1	1105.82	-29740.5	0.000000	0.000000	6.602983	-0.003611	NaN	0.000000	0.001537	0.001596	28.0822	0.008807	0.002018	4.363387	-72.3747	-162.123	0.018331	0.601247	-0.565214	-0.566557	-0.003611	4.363387	-0.564593	-2.703336E+7	1.335811E-10	NaN
1196	1.000000	0.612610	7.37674e+06	-55789.1	1105.82	-29740.5	0.000000	0.000000	6.613005	0.059543	NaN	0.000000	0.001571	0.001601	28.0824	0.074287	0.002069	35.9065	108.991	16.0561	0.029292	0.611236	-0.555194	-0.556568	0.059543	35.9065	-0.556438	-2.084908E+7	-2.855916E-9	NaN
1196	1.000000	0.622620	7.37674e+06	-55789.1	1105.82	-29740.5	0.000000	0.000000	6.623012	-0.013432	NaN	0.000000	0.001637	0.001594	28.0824	0.048931	0.001960	24.9693	16.3821	-162.053	0.059465	0.621278	-0.545184	-0.546526	-0.013432	24.9693	-0.544781	-1.437608E+7	9.343031E-10	NaN
1196	1.000000	0.632575	7.37674e+06	-55789.1	1105.82	-29740.5	0.000000	0.000000	6.632969	0.035876	NaN	0.000000	0.001575	0.001594	28.0822	0.090532	0.001977	45.7858	153.912	13.3389	0.056793	0.631219	-0.535229	-0.536585	0.035876	45.7858	-0.535817	-1.079762E+7	-3.322556E-9	NaN
1196	1.000000	0.642610	7.37674e+06	-55789.1	1105.82	-29740.5	0.000000	0.000000	6.643001	-0.039448	NaN	0.000000	0.001590	0.001612	28.0821	0.131196	0.002057	63.779	175.611	-165.337	-0.051031	0.641330	-0.525194	-0.526474	-0.039448	63.779	-0.524730	-7.57454e+06	5.207955E-9	NaN
1196	1.000000	0.652633	7.37674e+06	-55789.1	1105.82	-29740.5	0.000000	0.000000	6.653026	0.019850	NaN	0.000000	0.001614	0.001606	28.081	0.038512	0.001999	19.2639	-36.4632	11.8539	-0.058275	0.651262	-0.515171	-0.516542	0.019850	19.2639	-0.515944	-5.71702e+06	-3.472160E-9	NaN
1196	1.000000	0.662597	7.37674e+06	-55789.1	1105.82	-29740.5	0.000000	0.000000	6.662991	0.029659	NaN	0.000000	0.001603	0.001611	28.0811	0.048341	0.002009	24.0649	-16.5332	-166.425	0.038833	0.661348	-0.505207	-0.506456	0.029659	24.0649	-0.506131	-4.17357e+06	-7.106465E-9	NaN
1196	1.000000	0.672625	7.37674e+06	-55789.1	1105.82	-29740.5	0.000000	0.000000	6.673019	0.039344	NaN	0.000000	0.001561	0.001679	28.0808	0.059403	0.001954	30.4046	-79.1062	15.0416	0.027947	0.671271	-0.495179	-0.496533	0.039344	30.4046	-0.496150	-3.02893e+06	-1.298937E-8	NaN
1196	1.000000	0.682608	7.37674e+06	-55789.1	1105.82	-29740.5	0.000000	0.000000	6.683003	0.062737	NaN	0.000000	0.001577	0.001628	28.081	0.038388	0.001932	19.8654	-40.6761	-165.659	0.012121	0.681342	-0.485196	-0.486462	0.062737	19.8654	-0.487565	-2.29801e+06	-2.730074E-8	NaN
1196	1.000000	0.692610	7.37674e+06	-55789.1	1105.82	-29740.5	0.000000	0.000000	6.693003	0.017374	NaN	0.000000	0.001583	0.001616	28.0809	0.075518	0.002056	36.724	76.9804	12.8835	-0.045674	0.691292	-0.475194	-0.476513	0.017374	36.724	-0.475549	-1.56025e+06	-1.113531E-8	NaN
1196	1.000000	0.702650	7.37674e+06	-55789.1	1105.82	-29740.5	0.000000	0.000000	6.703042	-0.009900	NaN	0.000000	0.001569	0.001626	28.081	0.092164	0.001894	48.667	-161.377	-163.587	-0.001119	0.701261	-0.465154	-0.466543	-0.009900	48.667	-0.465001	-1.10986e+06	8.920500E-9	NaN
1196	1.000000	0.712633	7.37674e+06	-55789.1	1105.82	-29740.5	0.000000	0.000000	6.713029	0.077173	NaN	0.000000	0.001556	0.001648	28.0809	0.090140	0.001946	46.3155	152.39	17.1787	0.070414	0.711266	-0.455171	-0.456538	0.077173	46.3155	-0.456421	-840815	-9.178388E-8	NaN
1196	1.000000	0.722625	7.37674e+06	-55789.1	1105.82	-29740.5	0.000000	0.000000	6.723023	0.127790	NaN	0.000000	0.001533	0.001619	28.0808	0.081372	0.001977	41.1643	-151.419	-165.358	0.038855	0.721325	-0.445179	-0.446479	0.127790	41.1643	-0.447507	-629837	-2.028942E-7	NaN
1196	1.000000	0.732626	7.37674e+06	-55789.1	1105.82	-29740.5	0.000000	0.000000	6.733019	0.017803	NaN	0.000000	0.001561	0.001623	28.0809	0.077203	0.002036	37.9277	122.94	10.3981	0.023878	0.731225	-0.435178	-0.436579	0.017803	37.9277	-0.435531	-426825	-4.171023E-8	NaN
1196	1.000000	0.742652	7.37674e+06	-55789.1	1105.82	-29740.5	0.000000	0.000000	6.743045	0.004397	NaN	0.000000	0.001553	0.001648	28.0807	0.034986	0.002044	17.1205	143.05	-167.1	0.030273	0.741332	-0.425152	-0.426472	0.004397	17.1205	-0.425345	-306313	-1.435319E-8	NaN
1196	1.000000	0.752621	7.37674e+06	-55789.1	1105.82	-29740.5	0.000000	0.000000	6.753015	0.042404	NaN	0.000000	0.001562	0.001588	28.0811	0.040882	0.001982	20.6277	-113.314	11.737	0.043128	0.751227	-0.415183	-0.416577	0.042404	20.6277	-0.416725	-231179	-1.834255E-7	NaN
1196	1.000000	0.762653	7.37675e+06	-55789.1	1105.82	-29740.5	0.000000	0.000000	6.763049	0.076226	NaN	0.000000	0.001582	0.001646	28.081	0.060542	0.001873	32.332	-12.953	-164.992	0.087004	0.761331	-0.405151	-0.406473	0.076226	32.332	-0.406919	-167716	-4.544925E-7	NaN
1196	1.000000	0.772649	7.37675e+06	-55789.1	1105.82	-29740.5	0.000000	0.000000	6.773043	0.016325	NaN	0.000000	0.001537	0.001632	28.0812	0.060204	0.002036	29.5663	-46.2371	15.9939	0.021197	0.771350	-0.395155	-0.396454	0.016325	29.5663	-0.395569	-115547	-1.412853E-7	NaN
1196	1.000000	0.782689	7.37675e+06	-55789.1	1105.82	-29740.5	0.000000	0.000000	6.783082	0.010524	NaN	0.000000	0.001505	0.001637	28.0813	0.056490	0.001874	30.1491	-27.0257	-165.683	-0.069669	0.781289	-0.385115	-0.386515	0.010524	30.1491	-0.385377	-82600.7	-1.274054E-7	NaN
1196	1.000000	0.792652	7.37675e+06	-55789.1	1105.82	-29740.5	0.000000	0.000000	6.793046	0.029057	NaN	0.000000	0.001539	0.001639	28.0821	0.054362	0.002028	26.8035	-157.763	15.074	0.050773	0.791298	-0.375152	-0.376506	0.029057	26.8035	-0.375965	-60526.1	-4.800799E-7	NaN
1196	1.000000	0.802619	7.37675e+06	-55789.1	1105.82	-29740.5	0.000000	0.000000	6.803011	-0.024222	NaN	0.000000	0.001521	0.001636	28.0828	0.060163	0.002090	28.7813	65.0968	-167.037	0.090471	0.801380	-0.365185	-0.366424	-0.024222	28.7813	-0.364554	-41458.7	5.842431E-7	NaN
1196	1.000000	0.812659	7.37675e+06	-55789.1	1105.82	-29740.5	0.000000	0.000000	6.813051	-0.034514	NaN	0.000000	0.001579	0.001629	28.0824	0.101846	0.002062	49.3804	34.2019	16.3992	0.012364	0.811310	-0.355145	-0.356494	-0.034514	49.3804	-0.354620	-29785	1.158758E-6	NaN
1196	1.000000	0.822682	7.37675e+06	-55789.1	1105.82	-29740.5	0.000000	0.000000	6.823076	0.012687	NaN	0.000000	0.001561	0.001613	28.0824	0.128462	0.001991	64.5326	155.007	-169.278	0.035946	0.821386	-0.345122	-0.346418	0.012687	64.5326	-0.345269	-21790.7	-5.822119E-7	NaN
1196	1.000000	0.832657	7.37675e+06	-55789.1	1105.82	-29740.5	0.000000	0.000000	6.833048	-0.022360	NaN	0.000000	0.001552	0.001637	28.0823	0.032117	0.002014	15.9456	-134.902	11.1323	-0.038842	0.831267	-0.335147	-0.336537	-0.022360	15.9456	-0.334096	-14975.2	1.493111E-6	NaN
1196	1.000000	0.842669	7.37675e+06	-55789.1	1105.82	-29740.5	0.000000	0.000000	6.843063	0.019258	NaN	0.000000	0.001531	0.001632	28.083	0.010162	0.002044	4.972402	-93.336	-167.792	-0.013981	0.841371	-0.325135	-0.326433	0.019258	4.972402	-0.328039	-12210.3	-1.577196E-6	NaN
1196	1.000000	0.852657	7.37675e+06	-55789.1	1105.82	-29740.5	0.000000	0.000000	6.853052	0.057687	NaN	0.000000	0.001531	0.001619	28.0823	0.063120	0.002030	31.09	74.9622	14.3809	0.029192	0.851308	-0.315147	-0.316496	0.057687	31.09	-0.316539	-8272.68	-6.973204E-6	NaN
1196	1.000000	0.862713	7.37675e+06	-55789.1	1105.82	-29740.5	0.000000	0.000000	6.863103	-0.054471	NaN	0.000000	0.001558	0.001627	28.083	0.050745	0.002125	23.8851	86.9155	-169.988	-0.096234	0.861348	-0.305091	-0.306456	-0.054471	23.8851	-0.303381	-5283.39	1.030989E-5	NaN
1196	1.000000	0.872700	7.37675e+06	-55789.1	1105.82	-29740.5	0.000000	0.000000	6.873094	0.025467	NaN	0.000000	0.001543	0.001627	28.0824	0.106020	0.001908	55.5537	-145.85	11.2712	0.037845	0.871285	-0.295104	-0.296519	0.025467	55.5537	-0.295448	-4025.11	-6.326986E-6	NaN
1196	1.000000	0.882718	7.37675e+06	-55789.1	1105.82	-29740.5	0.000000	0.000000	6.883113	0.045497	NaN	0.000000	0.001508	0.001620	28.083	0.031607	0.001917	16.4847	124.163	-167.441	-0.002605	0.881442	-0.285086	-0.286362	0.045497	16.4847	-0.287156	-3024.46	-1.504301E-5	NaN
1196	1.000000	0.892709	7.37675e+06	-55789.1	1105.82	-29740.5	0.000000	0.000000	6.893103	0.035010	NaN	0.000000	0.001519	0.001634	28.0823	0.002606	0.002013	1.294203	-125.048	12.4779	-0.016887	0.891326	-0.275095	-0.276478	0.035010	1.294203	-0.295384	-4016.2	-8.717099E-6	NaN
1196	1.000000	0.902728	7.37675e+06	-55789.1	1105.82	-29740.5	0.000000	0.000000	6.903122	0.012327	NaN	0.000000	0.001523	0.001600	28.0827	0.082979	0.002086	39.7821	-125.425	-165.186	-0.016502	0.901408	-0.265076	-0.266396	0.012327	39.7821	-0.265308	-1412.82	-8.725324E-6	NaN
1196	1.000000	0.912707	7.37675e+06	-55789.1	1105.82	-29740.5	0.000000	0.000000	6.913102	0.049785	NaN	0.000000	0.001509	0.001628	28.0823	0.070366	0.001974	35.6439	-115.575	17.0923	0.027246	0.911380	-0.255097	-0.256424	0.049785	35.6439	-0.256145	-1022.65	-4.868197E-5	NaN
1196	1.000000	0.922709	7.37675e+06	-55789.1	1105.82	-29740.5	0.000000	0.000000	6.923104	0.046251	NaN	0.000000	0.001569	0.001607	28.0814	0.114141	0.001966	58.0517	-124.818	-164.915	0.081495	0.921423	-0.245095	-0.246381	0.046251	58.0517	-0.245692	-705.031	-6.560153E-5	NaN
1196	1.000000	0.932750	7.37675e+06	-55789.1	1105.82	-29740.5	0.000000	0.000000	6.933143	0.020467	NaN	0.000000	0.001509	0.001594	28.0813	0.047661	0.001971	24.1857	-101.964	13.6539	-0.015122	0.931374	-0.235054	-0.236430	0.020467	24.1857	-0.235689	-492.113	-4.158954E-5	NaN
1196	1.000000	0.942715	7.37675e+06	-55789.1	1105.82	-29740.5	0.000000	0.000000	6.943109	0.027919	NaN	0.000000	0.001461	0.001598	28.0811	0.060104	0.002067	29.0839	132.299	-167.498	-0.080759	0.941412	-0.225089	-0.226392	0.027919	29.0839	-0.225809	-343.7	-8.122964E-5	NaN
1196	1.000000	0.952708	7.37675e+06	-55789.1	1105.82	-29740.5	0.000000	0.000000	6.953104	0.067621	NaN	0.000000	0.001487	0.001597	28.0813	0.037712	0.002037	18.5106	143.215	12.7808	0.086918	0.951358	-0.215096	-0.216446	0.067621	18.5106	-0.217835	-256.47	-0.000264	NaN
1196	1.000000	0.962729	7.37675e+06	-55789.1	1105.82	-29740.5	0.000000	0.000000	6.963125	0.071353	NaN	0.000000	0.001476	0.001591	28.0811	0.032768	0.001954	16.7674	-33.289	-167.904	-0.043382	0.961433	-0.205075	-0.206371	0.071353	16.7674	-0.208266	-179.765	-0.000397	NaN
1196	1.000000	0.972733	7.37675e+06	-55789.1	1105.82	-29740.5	0.000000	0.000000	6.973126	0.011381	NaN	0.000000	0.001488	0.001631	28.0811	0.064602	0.001919	33.669	-178.139	12.3033	-0.003044	0.971368	-0.195071	-0.196436	0.011381	33.669	-0.195325	-110.301	-0.000103	NaN
1196	1.000000	0.982719	7.37675e+06	-55789.1	1105.82	-29740.5	0.000000	0.000000	6.983114	0.044589	NaN	0.000000	0.001529	0.001614	28.0811	0.037609	0.002080	18.0827	11.9372	-167.609	0.004673	0.981423	-0.185085	-0.186381	0.044589	18.0827	-0.186934	-79.9243	-0.000558	NaN
1196	1.000000	0.992734	7.37675e+06	-55789.1	1105.82	-29740.5	0.000000	0.000000	6.993126	-0.015050	NaN	0.000000	0.001542	0.001607	28.0813	0.050264	0.002019	24.8925	-159.483	14.0042	0.031041	0.991399	-0.175070	-0.176405	-0.015050	24.8925	-0.174616	-49.3614	0.000305	NaN
1196	1.000000	1.002751	7.37675e+06	-55789.1	1105.82	-29740.5	0.000000	0.000000	7.003145	0.023515	NaN	0.000000	0.001504	0.001606	28.0812	0.130605	0.001894	68.9518	-40.1285	-165.647	-0.006048	1.001444	-0.165053	-0.166360	0.023515	68.9518	-0.165309	-34.019	-0.000691	NaN
1196	1.000000	1.012758	7.37675e+06	-55789.1	1105.82	-29740.5	0.000000	0.000000	7.013151	-0.006272	NaN	0.000000	0.001536	0.001590	28.0815	0.069804	0.001898	36.779	20.8962	12.8511	0.002222	1.011415	-0.155046	-0.156389	-0.006272	36.779	-0.154918	-22.2381	0.000282	NaN
1196	1.000000	1.022772	7.37675e+06	-55789.1	1105.82	-29740.5	0.000000	0.000000	7.023167	0.053024	NaN	0.000000	0.001511	0.001618	28.0811	0.046932	0.001956	23.9877	-44.6843	-160.41	-0.011289	1.021442	-0.145032	-0.146362	0.053024	23.9877	-0.146690	-15.7528	-0.003366	NaN
1196	1.000000	1.032724	7.37675e+06	-55789.1	1105.82	-29740.5	0.000000	0.000000	7.033120	0.067850	NaN	0.000000	0.001508	0.001637	28.081	0.104291	0.001968	52.9868	87.2361	10.7042	0.021229	1.031400	-0.135080	-0.136404	0.067850	52.9868	-0.136040	-9.956631	-0.006815	NaN
1196	1.000000	1.042761	7.37675e+06	-55789.1	1105.82	-29740.5	0.000000	0.000000	7.043155	0.039528	NaN	0.000000	0.001519	0.001596	28.0809	0.031542	0.002144	14.7096	153.806	-165.948	0.007148	1.041493	-0.125043	-0.126311	0.039528	14.7096	-0.127059	-6.676812	-0.005920	NaN
1196	1.000000	1.052774	7.37675e+06	-55789.1	1105.82	-29740.5	0.000000	0.000000	7.053170	0.065549	NaN	0.000000	0.001559	0.001610	28.081	0.055225	0.001949	28.3419	-60.1644	13.1163	0.054241	1.051392	-0.115030	-0.116412	0.065549	28.3419	-0.116764	-4.152789	-0.015784	NaN
1196	1.000000	1.062774	7.37675e+06	-55789.1	1105.82	-29740.5	0.000000	0.000000	7.063168	0.039112	NaN	0.000000	0.001591	0.001616	28.0822	0.065334	0.002127	30.7153	53.4759	-168.356	0.004710	1.061514	-0.105030	-0.106290	0.039112	30.7153	-0.105985	-2.468358	-0.015845	NaN
1196	1.000000	1.072751	7.37675e+06	-55789.1	1105.82	-29740.5	0.000000	0.000000	7.073143	-0.024146	NaN	0.000000	0.001506	0.001564	28.0821	0.042118	0.001870	22.5278	-0.979731	15.1999	-0.012807	1.071433	-0.095053	-0.096371	-0.024146	22.5278	-0.094249	-1.355996	0.017807	NaN
1196	1.000000	1.082796	7.37675e+06	-55789.1	1105.82	-29740.5	0.000000	0.000000	7.083188	-0.018160	NaN	0.000000	0.001516	0.001613	28.0821	0.017330	0.002089	8.297007	-5.195525	-167.886	0.037916	1.081488	-0.085008	-0.086316	-0.018160	8.297007	-0.083367	-0.749792	0.024220	NaN
1196	1.000000	1.092765	7.37675e+06	-55789.1	1105.82	-29740.5	0.000000	0.000000	7.093159	0.026899	NaN	0.000000	0.001500	0.001625	28.0824	0.099566	0.002079	47.8907	152.195	15.5117	0.128239	1.091422	-0.075039	-0.076382	0.026899	47.8907	-0.075460	-0.474691	-0.056666	NaN
1196	1.000000	1.102787	7.37675e+06	-55789.1	1105.82	-29740.5	0.000000	0.000000	7.103180	-0.010799	NaN	0.000000	0.001512	0.001598	28.0822	0.054043	0.002016	26.8016	176.833	-164.67	-0.012131	1.101421	-0.065017	-0.066383	-0.010799	26.8016	-0.064715	-0.244710	0.044130	NaN
1196	1.000000	1.112751	7.37675e+06	-55789.1	1105.82	-29740.5	0.000000	0.000000	7.113144	0.004450	NaN	0.000000	0.001502	0.001652	28.0826	0.063586	0.002002	31.761	130.84	14.4658	-0.006760	1.111476	-0.055053	-0.056328	0.004450	31.761	-0.055158	-0.130168	-0.034188	NaN
1196	1.000000	1.122779	7.37675e+06	-55789.1	1105.82	-29740.5	0.000000	0.000000	7.123173	0.026072	NaN	0.000000	0.001524	0.001609	28.0821	0.101586	0.001926	52.7567	8.507741	-169.395	0.130331	1.121554	-0.045025	-0.046250	0.026072	52.7567	-0.045396	-0.066083	-0.394531	NaN
1196	1.000000	1.132784	7.37675e+06	-55789.1	1105.82	-29740.5	0.000000	0.000000	7.133174	-0.047483	NaN	0.000000	0.001513	0.001592	28.0826	0.060056	0.002010	29.8719	-143.441	11.4251	0.020970	1.131452	-0.035020	-0.036352	-0.047483	29.8719	-0.033828	-0.029591	1.604659	NaN
1196	1.000000	1.142808	7.37675e+06	-55789.1	1105.82	-29740.5	0.000000	0.000000	7.143201	-0.015791	NaN	0.000000	0.001501	0.001597	28.0822	0.142182	0.001902	74.7495	161.803	-167.911	0.015609	1.141411	-0.024996	-0.026393	-0.015791	74.7495	-0.024837	-0.016706	0.945245	NaN
1196	1.000000	1.152810	7.37675e+06	-55789.1	1105.82	-29740.5	0.000000	0.000000	7.153201	-0.032817	NaN	0.000000	0.001579	0.001609	28.0827	0.018736	0.001919	9.763180	-129.469	12.8151	0.059065	1.151503	-0.014994	-0.016301	-0.032817	9.763180	-0.012473	-0.007799	4.207617	NaN
1196	1.000000	1.162810	7.37675e+06	-55789.1	1105.82	-29740.5	0.000000	0.000000	7.163203	-0.000382	NaN	0.000000	0.001580	0.001615	28.0819	0.028905	0.002001	14.4469	101.087	-164.192	0.051476	1.161498	-0.004994	-0.006306	-0.000382	14.4469	-0.004974	-0.003400	0.112473	NaN
1196	1.000000	1.172787	7.37675e+06	-55789.1	1105.82	-29740.5	0.000000	0.000000	7.173440	6.308237	NaN	0.000000	0.001592	0.001587	28.0826	6.681237	0.001914	3491.26	12.7748	8.231478	5.035453	1.171440	0.004983	0.003636	6.308237	3491.26	0.003628	0.002916	2163.65	59073.8
1196	2.000000	1.176491	7.37675e+06	-55789.1	1105.82	-29740.5	0.000000	0.000000	7.177291	9.908157	NaN	0.000000	0.001639	0.001635	28.0821	9.854845	0.001584	6221.07	8.416920	-174.68	10.3213	1.176205	0.008687	0.008401	9.908157	6221.07	0.007492	0.006525	1518.42	70361.9
1196	2.000000	1.178907	7.37675e+06	-55789.1	1105.82	-29740.5	0.000000	0.000000	7.179944	15.6654	NaN	0.000000	0.001556	0.001618	28.082	12.624	0.001541	8191.23	2.515300	6.559646	13.8184	1.178576	0.011103	0.010772	15.6654	8191.23	0.009668	0.008815	1777.06	79708
1196	2.000000	1.181464	7.37675e+06	-55789.1	1105.82	-29740.5	0.000000	0.000000	7.182641	19.072	NaN	0.000000	0.001554	0.001610	28.081	15.9271	0.001857	8575.11	4.436156	-174.136	18.1712	1.181125	0.013660	0.013321	19.072	8575.11	0.011992	0.011480	1661.34	73121.3
1196	2.000000	1.183960	7.37675e+06	-55789.1	1105.82	-29740.5	0.000000	0.000000	7.185342	24.0563	NaN	0.000000	0.001566	0.001615	28.0812	17.701	0.001716	10315.5	3.169924	5.635329	23.377	1.183620	0.016156	0.015816	24.0563	10315.5	0.014407	0.014502	1658.81	78261.1
1196	2.000000	1.186440	7.37675e+06	-55789.1	1105.82	-29740.5	0.000000	0.000000	7.188011	28.639	NaN	0.000000	0.001564	0.001642	28.081	20.2703	0.001741	11642	5.514479	-178.126	27.7631	1.186110	0.018636	0.018306	28.639	11642	0.016791	0.017748	1613.64	79841.1
1196	2.000000	1.188920	7.37675e+06	-55789.1	1105.82	-29740.5	0.000000	0.000000	7.190690	33.4653	NaN	0.000000	0.001538	0.001624	28.081	23.5712	0.001750	13470.8	8.855690	-2.917143	31.7195	1.188558	0.021116	0.020754	33.4653	13470.8	0.019253	0.021382	1565.11	84167.1
1196	2.000000	1.191409	7.37675e+06	-55789.1	1105.82	-29740.5	0.000000	0.000000	7.193450	40.0435	NaN	0.000000	0.001527	0.001632	28.0809	26.2769	0.001963	13383.1	6.585930	-178.86	39.8645	1.191046	0.023605	0.023242	40.0435	13383.1	0.021361	0.024727	1619.43	77757.9
1196	2.000000	1.193965	7.37675e+06	-55789.1	1105.82	-29740.5	0.000000	0.000000	7.196346	48.3395	NaN	0.000000	0.001550	0.001615	28.0815	28.1644	0.001837	15331.3	4.716144	1.166614	48.7503	1.193564	0.026161	0.025760	48.3395	15331.3	0.023796	0.028862	1674.85	82449.8
1196	2.000000	1.196408	7.37675e+06	-55789.1	1105.82	-29740.5	0.000000	0.000000	7.198959	52.4678	NaN	0.000000	0.001557	0.001624	28.0812	31.1574	0.001878	16590.3	7.359602	177.307	53.3731	1.196141	0.028604	0.028337	52.4678	16590.3	0.026232	0.033295	1575.85	83069
1196	2.000000	1.198889	7.37675e+06	-55789.1	1105.82	-29740.5	0.000000	0.000000	7.201760	60.2331	NaN	0.000000	0.001588	0.001646	28.0813	33.4603	0.001822	18363.7	3.187350	-0.509819	58.8856	1.198605	0.031085	0.030801	60.2331	18363.7	0.028625	0.037942	1587.49	86133.3
1196	2.000000	1.201386	7.37675e+06	-55789.1	1105.82	-29740.5	0.000000	0.000000	7.204632	69.3604	NaN	0.000000	0.001547	0.001607	28.0809	36.0884	0.001866	19335.8	6.828701	176.294	68.8877	1.201047	0.033582	0.033243	69.3604	19335.8	0.030892	0.042613	1627.69	85578.9
1196	2.000000	1.203937	7.37675e+06	-55789.1	1105.82	-29740.5	0.000000	0.000000	7.207583	79.0727	NaN	0.000000	0.001538	0.001616	28.0809	37.8211	0.001817	20815.6	4.443495	-1.782783	77.5862	1.203585	0.036133	0.035781	79.0727	20815.6	0.033284	0.047826	1653.33	86962
1196	2.000000	1.206335	7.37675e+06	-55789.1	1105.82	-29740.5	0.000000	0.000000	7.210235	85.2744	NaN	0.000000	0.001550	0.001631	28.0811	39.8308	0.001832	21746.8	2.915416	178.907	81.5346	1.206034	0.038530	0.038230	85.2744	21746.8	0.035590	0.053128	1605.08	86200.1
1196	2.000000	1.208906	7.37675e+06	-55789.1	1105.82	-29740.5	0.000000	0.000000	7.213184	94.4347	NaN	0.000000	0.001558	0.001594	28.0812	42.2839	0.001738	24335.1	5.435206	-4.019149	92.6503	1.208435	0.041102	0.040631	94.4347	24335.1	0.038192	0.059438	1588.79	91195.7
1196	2.000000	1.211382	7.37675e+06	-55789.1	1105.82	-29740.5	0.000000	0.000000	7.216074	104.509	NaN	0.000000	0.001535	0.001574	28.0809	44.9574	0.001933	23258.2	3.538438	179.235	103.898	1.210976	0.043578	0.043172	104.509	23258.2	0.040208	0.064566	1618.64	83627.1
1196	2.000000	1.213896	7.37675e+06	-55789.1	1105.82	-29740.5	0.000000	0.000000	7.219026	115.141	NaN	0.000000	0.001565	0.001575	28.0825	46.5039	0.001766	26330.2	4.174458	-3.518469	113.469	1.213557	0.046092	0.045753	115.141	26330.2	0.042813	0.071499	1610.38	89965.7
1196	2.000000	1.216404	7.37675e+06	-55789.1	1105.82	-29740.5	0.000000	0.000000	7.222092	128.703	NaN	0.000000	0.001562	0.001609	28.0825	48.4419	0.001764	27465.1	4.748748	175.537	129.847	1.216035	0.048600	0.048231	128.703	27465.1	0.045086	0.077831	1653.62	89945.3
1196	2.000000	1.218815	7.37675e+06	-55789.1	1105.82	-29740.5	0.000000	0.000000	7.224971	140.095	NaN	0.000000	0.001531	0.001604	28.0827	51.8374	0.001816	28541.7	8.403740	-8.463331	136.081	1.218381	0.051011	0.050577	140.095	28541.7	0.047329	0.084337	1661.13	89793.2
1196	2.000000	1.221303	7.37675e+06	-55789.1	1105.82	-29740.5	0.000000	0.000000	7.227777	147.824	NaN	0.000000	0.001541	0.001577	28.0823	53.7898	0.001822	29529.8	3.993923	175.411	143.561	1.221063	0.053499	0.053259	147.824	29529.8	0.049745	0.091625	1613.35	89130.3
1196	2.000000	1.223850	7.37675e+06	-55789.1	1105.82	-29740.5	0.000000	0.000000	7.230800	159.411	NaN	0.000000	0.001507	0.001618	28.0824	56.1223	0.001920	29224.1	7.410047	-6.917342	156.32	1.223471	0.056046	0.055667	159.411	29224.1	0.051955	0.098550	1617.56	85052.2
1196	2.000000	1.226368	7.37675e+06	-55789.1	1105.82	-29740.5	0.000000	0.000000	7.233546	164.932	NaN	0.000000	0.001590	0.001579	28.0823	57.5962	0.001771	32518	2.763680	175.489	163.622	1.226183	0.058564	0.058379	164.932	32518	0.054760	0.107693	1531.5	90532.2
1196	2.000000	1.228884	7.37675e+06	-55789.1	1105.82	-29740.5	0.000000	0.000000	7.236991	187.523	NaN	0.000000	0.001612	0.001613	28.0823	61.1779	0.001844	33175.4	5.417601	-6.702215	185.806	1.228424	0.061080	0.060620	187.523	33175.4	0.056840	0.114723	1634.57	89487.8
1196	2.000000	1.231403	7.37675e+06	-55789.1	1105.82	-29740.5	0.000000	0.000000	7.239824	195.166	NaN	0.000000	0.001584	0.001622	28.0823	63.3496	0.001784	35508.1	2.192680	175.309	195.478	1.231181	0.063599	0.063377	195.166	35508.1	0.059477	0.123938	1574.7	92150.7
1196	2.000000	1.233871	7.37675e+06	-55789.1	1105.82	-29740.5	0.000000	0.000000	7.243025	212.959	NaN	0.000000	0.001570	0.001610	28.0827	64.6414	0.001722	37544.6	4.705273	-6.670942	211.255	1.233405	0.066067	0.065601	212.959	37544.6	0.061813	0.132390	1608.58	94274.3
1196	2.000000	1.236369	7.37675e+06	-55789.1	1105.82	-29740.5	0.000000	0.000000	7.246177	228.873	NaN	0.000000	0.001584	0.001608	28.0824	66.253	0.001731	38284.3	3.542611	174.076	229.776	1.236011	0.068565	0.068207	228.873	38284.3	0.064081	0.140849	1624.95	93200.4
1196	2.000000	1.238911	7.37675e+06	-55789.1	1105.82	-29740.5	0.000000	0.000000	7.249231	241.317	NaN	0.000000	0.001631	0.001610	28.0825	70.0776	0.001819	38527.9	7.799856	-10.0533	242.378	1.238477	0.071107	0.070673	241.317	38527.9	0.066410	0.149790	1611.03	90950.8
1196	2.000000	1.241326	7.37675e+06	-55789.1	1105.82	-29740.5	0.000000	0.000000	7.252380	259.15	NaN	0.000000	0.001608	0.001575	28.0824	71.559	0.001666	42957.4	2.437634	174.258	256.779	1.241014	0.073522	0.073210	259.15	42957.4	0.068998	0.160035	1619.33	98107.7
1196	2.000000	1.243901	7.37675e+06	-55789.1	1105.82	-29740.5	0.000000	0.000000	7.255494	272.244	NaN	0.000000	0.001588	0.001614	28.0825	73.0144	0.001838	39715.5	-0.225971	-1.702953	270.454	1.243518	0.076097	0.075714	272.244	39715.5	0.070956	0.167999	1620.51	88528
1196	2.000000	1.246325	7.37675e+06	-55789.1	1105.82	-29740.5	0.000000	0.000000	7.258772	293.019	NaN	0.000000	0.001577	0.001627	28.0824	76.2274	0.001718	44363.8	8.248824	168.304	292.728	1.245955	0.078521	0.078151	293.019	44363.8	0.073568	0.178902	1637.87	95828.3
1196	2.000000	1.248790	7.37675e+06	-55789.1	1105.82	-29740.5	0.000000	0.000000	7.261822	307.242	NaN	0.000000	0.001535	0.001655	28.081	78.5109	0.001855	42320	3.431081	-6.226520	301.407	1.248396	0.080986	0.080592	307.242	42320	0.075541	0.187354	1639.9	89327.8
1196	2.000000	1.251427	7.37675e+06	-55789.1	1105.82	-29740.5	0.000000	0.000000	7.264859	316.971	NaN	0.000000	0.001523	0.001648	28.0814	81.4823	0.001781	45761.1	5.310015	171.068	323.441	1.251123	0.083623	0.083319	316.971	45761.1	0.078428	0.200050	1584.46	93476.2
1196	2.000000	1.253837	7.37675e+06	-55789.1	1105.82	-29740.5	0.000000	0.000000	7.268399	344.428	NaN	0.000000	0.001566	0.001676	28.0815	83.5849	0.001781	46930	5.827951	-9.369470	341.358	1.253341	0.086033	0.085537	344.428	46930	0.080528	0.209532	1643.8	93669.7
1196	2.000000	1.256343	7.37675e+06	-55789.1	1105.82	-29740.5	0.000000	0.000000	7.271645	362.394	NaN	0.000000	0.001540	0.001665	28.0815	86.2351	0.001818	47433.6	2.888908	172.936	361.899	1.255962	0.088539	0.088158	362.394	47433.6	0.082809	0.220063	1646.78	92381.7
1196	2.000000	1.258756	7.37675e+06	-55789.1	1105.82	-29740.5	0.000000	0.000000	7.274993	385.135	NaN	0.000000	0.001533	0.001639	28.0811	89.3072	0.001873	47674.2	7.792614	-11.2446	379.041	1.258267	0.090952	0.090463	385.135	47674.2	0.084893	0.229893	1675.28	90843.5
1196	2.000000	1.261323	7.37675e+06	-55789.1	1105.82	-29740.5	0.000000	0.000000	7.278309	403.36	NaN	0.000000	0.001545	0.001628	28.0813	91.6123	0.001817	50417.2	7.569784	168.003	402.879	1.261077	0.093519	0.093273	403.36	50417.2	0.087519	0.242563	1662.91	93527.6
1196	2.000000	1.263872	7.37675e+06	-55789.1	1105.82	-29740.5	0.000000	0.000000	7.281828	426.93	NaN	0.000000	0.001570	0.001667	28.0812	93.0413	0.001751	53146.1	7.810137	-11.8683	426.652	1.263360	0.096068	0.095556	426.93	53146.1	0.090043	0.255045	1673.94	96147.1
1196	2.000000	1.266283	7.37675e+06	-55789.1	1105.82	-29740.5	0.000000	0.000000	7.285119	448.309	NaN	0.000000	0.001568	0.001618	28.081	94.4141	0.001815	52010.4	5.042614	170.773	446.029	1.265981	0.098479	0.098177	448.309	52010.4	0.092014	0.264994	1691.77	92309.3
1196	2.000000	1.268868	7.37675e+06	-55789.1	1105.82	-29740.5	0.000000	0.000000	7.288291	462.565	NaN	0.000000	0.001576	0.001591	28.0813	95.6584	0.001709	55984.7	0.940693	-5.958284	462.018	1.268584	0.101064	0.100780	462.565	55984.7	0.094868	0.279712	1653.72	96713.5
1196	2.000000	1.271312	7.37675e+06	-55789.1	1105.82	-29740.5	0.000000	0.000000	7.291791	488.25	NaN	0.000000	0.001579	0.001573	28.0811	99.7799	0.001764	56569.2	4.689238	170.222	488.333	1.270955	0.103508	0.103151	488.25	56569.2	0.097035	0.291141	1677.02	95785.9
1196	2.000000	1.272744	7.37675e+06	-55789.1	1105.82	-29740.5	0.000000	0.000000	7.294026	507.787	NaN	0.000000	0.001560	0.001614	28.0812	99.83	0.001739	57407.8	3.751825	-9.158329	501.74	1.272439	0.104940	0.104635	507.787	57407.8	0.098306	0.297939	1704.33	96090.5