File: remote_trans/data/nanoindenter/0828-1/data/Data_2025-08-06,11h17m57s/2025-07-22_16-23-58_1_269.txt
2025-07-22, 16:23:58, 1
Index	Phase	Displacement	Time	Pos X	Pos Y	Pos Z	Rot A	Rot B	Piezo Z	Force A	Force B	Gripper	Voltage A	Voltage B	Temperature	Amplitude force	Amplitude pos	Stiffness	Phase shift	Phase excitation	Force A raw	Displacement raw	HMax	HMax raw	Real Force	Real Stiffness	Contact Depth	Area	Hardness	Reduced Mod.
[#]	[#]	[um]	[s]	[um]	[um]	[um]	[m°]	[m°]	[um]	[uN]	[uN]	[V]	[V]	[V]	[°C]	[uN]	[um]	[N/m]	[°]	[°]	[uN]	[um]	[um]	[um]	[uN]	[N/m]	[um]	[um^2]	[MPa]	[MPa]
269	1.000000	0.002569	7.36768e+06	-52089.1	955.818	-29749.9	0.000000	0.000000	6.002823	-0.107996	NaN	0.000000	0.001627	0.001660	28.079	0.071036	0.000831	85.4438	-65.4019	-167.19	-0.095300	0.001278	-1.765205	-1.766496	-0.107996	85.4438	-1.764258	-3.628704E+23	2.976147E-25	NaN
269	1.000000	0.014559	7.36768e+06	-52089.1	955.82	-29749.9	0.000000	0.000000	6.014818	-0.019191	NaN	0.000000	0.001622	0.001645	28.0791	0.060036	0.001591	37.7402	-131.407	-165.096	-0.042098	0.013343	-1.753215	-1.754432	-0.019191	37.7402	-1.752834	-2.559113E+23	7.499199E-26	NaN
269	1.000000	0.026548	7.36768e+06	-52089.1	955.818	-29749.9	0.000000	0.000000	6.026806	-0.012348	NaN	0.000000	0.001635	0.001600	28.0794	0.061855	0.001776	34.8339	106.327	-167.61	0.074324	0.025253	-1.741227	-1.742522	-0.012348	34.8339	-1.740961	-1.780112E+23	6.936907E-26	NaN
269	1.000000	0.038513	7.36768e+06	-52089.1	955.818	-29749.9	0.000000	0.000000	6.038773	0.034881	NaN	0.000000	0.001636	0.001721	28.0794	0.151125	0.001884	80.2244	173.868	-165.907	0.046533	0.037185	-1.729261	-1.730589	0.034881	80.2244	-1.729588	-1.257255E+23	-2.774387E-25	NaN
269	1.000000	0.050499	7.36768e+06	-52089.1	955.818	-29749.9	0.000000	0.000000	6.050758	0.011251	NaN	0.000000	0.001619	0.001671	28.079	0.042073	0.002035	20.6774	132.381	-167.302	0.039323	0.049211	-1.717276	-1.718563	0.011251	20.6774	-1.717684	-8.736332E+22	-1.287846E-25	NaN
269	1.000000	0.062486	7.36768e+06	-52089.1	955.818	-29749.9	0.000000	0.000000	6.062747	0.031124	NaN	0.000000	0.001615	0.001674	28.0777	0.123688	0.002066	59.8697	-107.888	-164.097	-0.085544	0.061192	-1.705288	-1.706582	0.031124	59.8697	-1.705678	-6.051499E+22	-5.143199E-25	NaN
269	1.000000	0.074497	7.36768e+06	-52089.1	955.818	-29749.9	0.000000	0.000000	6.074759	0.064817	NaN	0.000000	0.001627	0.001688	28.0774	0.038764	0.001925	20.1371	-112.412	-164.82	0.042054	0.073176	-1.693277	-1.694598	0.064817	20.1371	-1.695691	-4.458575E+22	-1.453768E-24	NaN
269	1.000000	0.086520	7.36768e+06	-52089.1	955.818	-29749.9	0.000000	0.000000	6.086781	0.052816	NaN	0.000000	0.001618	0.001666	28.0778	0.013488	0.002042	6.604085	-173.261	-166.051	0.032992	0.085197	-1.681254	-1.682578	0.052816	6.604085	-1.687252	-3.444156E+22	-1.533497E-24	NaN
269	1.000000	0.098544	7.36768e+06	-52089.1	955.819	-29749.9	0.000000	0.000000	6.098802	-0.024728	NaN	0.000000	0.001577	0.001672	28.0778	0.099893	0.001924	51.911	-16.5034	-165.859	-0.064565	0.097239	-1.669230	-1.670536	-0.024728	51.911	-1.668873	-1.962734E+22	1.259872E-24	NaN
269	1.000000	0.110496	7.36768e+06	-52089.1	955.818	-29749.9	0.000000	0.000000	6.110754	-0.004546	NaN	0.000000	0.001587	0.001678	28.078	0.108438	0.001955	55.4672	92.7129	-163.789	-0.050702	0.109217	-1.657279	-1.658557	-0.004546	55.4672	-1.657217	-1.373914E+22	3.308909E-25	NaN
269	1.000000	0.122517	7.36768e+06	-52089.1	955.817	-29749.9	0.000000	0.000000	6.122775	-0.002974	NaN	0.000000	0.001599	0.001672	28.0783	0.114257	0.001983	57.6237	-25.361	-166.863	-0.012027	0.121202	-1.645258	-1.646573	-0.002974	57.6237	-1.645219	-9.516578E+21	3.125042E-25	NaN
269	1.000000	0.134531	7.36768e+06	-52089.1	955.818	-29749.9	0.000000	0.000000	6.134788	-0.027987	NaN	0.000000	0.001577	0.001628	28.0776	0.028523	0.001968	14.4907	145.037	-163.194	-0.082467	0.133139	-1.633244	-1.634635	-0.027987	14.4907	-1.631795	-6.309961E+21	4.435431E-24	NaN
269	1.000000	0.146515	7.36768e+06	-52089.1	955.818	-29749.8	0.000000	0.000000	6.146773	-0.033552	NaN	0.000000	0.001592	0.001628	28.0777	0.016992	0.002114	8.038270	-16.5427	-165.021	-0.047403	0.145201	-1.621259	-1.622573	-0.033552	8.038270	-1.618129	-4.152528E+21	8.079888E-24	NaN
269	1.000000	0.158530	7.36768e+06	-52089.1	955.818	-29749.8	0.000000	0.000000	6.158788	-0.008926	NaN	0.000000	0.001571	0.001632	28.0777	0.039320	0.002087	18.8433	-179.276	-165.766	-0.021371	0.157267	-1.609245	-1.610507	-0.008926	18.8433	-1.608889	-3.129305E+21	2.852419E-24	NaN
269	1.000000	0.170537	7.36768e+06	-52089.1	955.819	-29749.8	0.000000	0.000000	6.170794	-0.044154	NaN	0.000000	0.001593	0.001712	28.0777	0.063461	0.001920	33.0441	169.562	-166.363	-0.060447	0.169306	-1.597238	-1.598469	-0.044154	33.0441	-1.596235	-2.123994E+21	2.078837E-23	NaN
269	1.000000	0.182533	7.36768e+06	-52089.1	955.818	-29749.8	0.000000	0.000000	6.182791	-0.026428	NaN	0.000000	0.001573	0.001687	28.0779	0.039774	0.001834	21.6926	32.8182	-165.071	0.077575	0.181211	-1.585242	-1.586563	-0.026428	21.6926	-1.584328	-1.474892E+21	1.791833E-23	NaN
269	1.000000	0.194569	7.36768e+06	-52089.1	955.817	-29749.8	0.000000	0.000000	6.194830	0.031314	NaN	0.000000	0.001631	0.001694	28.079	0.056750	0.002190	25.9144	-159.595	-167.798	-0.050140	0.193258	-1.573205	-1.574516	0.031314	25.9144	-1.574111	-1.078552E+21	-2.903304E-23	NaN
269	1.000000	0.206523	7.36768e+06	-52089.1	955.818	-29749.8	0.000000	0.000000	6.206779	-0.071430	NaN	0.000000	0.001587	0.001646	28.0789	0.055926	0.001953	28.6351	-24.7369	-164.588	-0.086988	0.205230	-1.561251	-1.562544	-0.071430	28.6351	-1.559381	-6.868042E+20	1.040038E-22	NaN
269	1.000000	0.218553	7.36768e+06	-52089.1	955.819	-29749.8	0.000000	0.000000	6.218812	-0.016667	NaN	0.000000	0.001622	0.001734	28.0792	0.076766	0.002015	38.0953	106.683	-163.4	-0.092983	0.217288	-1.549221	-1.550487	-0.016667	38.0953	-1.548893	-4.980366E+20	3.346449E-23	NaN
269	1.000000	0.230555	7.36768e+06	-52089.1	955.819	-29749.8	0.000000	0.000000	6.230816	0.051570	NaN	0.000000	0.001602	0.001668	28.0793	0.092924	0.001918	48.4576	-30.8272	-163.936	0.010420	0.229250	-1.537220	-1.538524	0.051570	48.4576	-1.538018	-3.568740E+20	-1.445047E-22	NaN
269	1.000000	0.242571	7.36769e+06	-52089.1	955.818	-29749.8	0.000000	0.000000	6.242827	-0.066441	NaN	0.000000	0.001672	0.001696	28.0791	0.094972	0.002049	46.3507	115.519	-167.213	-0.057852	0.241318	-1.525203	-1.526456	-0.066441	46.3507	-1.524128	-2.331347E+20	2.849913E-22	NaN
269	1.000000	0.254553	7.36769e+06	-52089.1	955.817	-29749.8	0.000000	0.000000	6.254809	-0.062582	NaN	0.000000	0.001615	0.001653	28.079	0.110776	0.001900	58.2992	-20.2738	-165.703	-0.056376	0.253255	-1.513222	-1.514519	-0.062582	58.2992	-1.512417	-1.628056E+20	3.843976E-22	NaN
269	1.000000	0.266584	7.36769e+06	-52089.1	955.819	-29749.8	0.000000	0.000000	6.266841	-0.027847	NaN	0.000000	0.001643	0.001625	28.0792	0.092004	0.001893	48.6092	77.6457	-162.165	-0.100924	0.265307	-1.501191	-1.502468	-0.027847	48.6092	-1.500761	-1.138812E+20	2.445260E-22	NaN
269	1.000000	0.278591	7.36769e+06	-52089.1	955.819	-29749.8	0.000000	0.000000	6.278851	0.024198	NaN	0.000000	0.001653	0.001600	28.0793	0.122103	0.001936	63.0742	162.331	-167.896	0.075092	0.277253	-1.489183	-1.490521	0.024198	63.0742	-1.489471	-8.055176E+19	-3.004031E-22	NaN
269	1.000000	0.290587	7.36769e+06	-52089.1	955.818	-29749.8	0.000000	0.000000	6.290844	-0.047001	NaN	0.000000	0.001598	0.001611	28.0792	0.015733	0.001963	8.014104	-88.4496	-163.955	-0.009751	0.289259	-1.477188	-1.478516	-0.047001	8.014104	-1.472789	-4.828752E+19	9.733490E-22	NaN
269	1.000000	0.302597	7.36769e+06	-52089.1	955.819	-29749.8	0.000000	0.000000	6.302855	-0.022053	NaN	0.000000	0.001609	0.001641	28.0791	0.089094	0.002045	43.5741	126.148	-163.589	-0.043339	0.301304	-1.465178	-1.466470	-0.022053	43.5741	-1.464798	-3.778845E+19	5.836000E-22	NaN
269	1.000000	0.314631	7.36769e+06	-52089.1	955.819	-29749.8	0.000000	0.000000	6.314890	-0.009629	NaN	0.000000	0.001566	0.001646	28.0793	0.114861	0.001981	57.9879	156.037	-165.948	0.021061	0.313227	-1.453143	-1.454548	-0.009629	57.9879	-1.453019	-2.632569E+19	3.657540E-22	NaN
269	1.000000	0.326619	7.36769e+06	-52089.1	955.818	-29749.8	0.000000	0.000000	6.326880	0.044398	NaN	0.000000	0.001539	0.001653	28.0788	0.037062	0.001964	18.8678	-92.1198	-166.947	0.014073	0.325285	-1.441155	-1.442490	0.044398	18.8678	-1.442920	-1.930997E+19	-2.299250E-21	NaN
269	1.000000	0.338622	7.36769e+06	-52089.1	955.818	-29749.8	0.000000	0.000000	6.338883	0.061502	NaN	0.000000	0.001558	0.001656	28.0778	0.050566	0.002043	24.7547	-10.0613	-163.619	0.085621	0.337277	-1.429152	-1.430498	0.061502	24.7547	-1.431016	-1.339928E+19	-4.589927E-21	NaN
269	1.000000	0.350631	7.36769e+06	-52089.1	955.817	-29749.8	0.000000	0.000000	6.350888	-0.040137	NaN	0.000000	0.001633	0.001653	28.0779	0.075989	0.002013	37.7533	-20.0099	-162.404	0.006602	0.349311	-1.417144	-1.418463	-0.040137	37.7533	-1.416347	-8.540510E+18	4.699654E-21	NaN
269	1.000000	0.362615	7.36769e+06	-52089.1	955.818	-29749.8	0.000000	0.000000	6.362873	-0.014231	NaN	0.000000	0.001675	0.001677	28.0778	0.085175	0.001948	43.7327	98.906	-165.703	0.015090	0.361381	-1.405159	-1.406393	-0.014231	43.7327	-1.404915	-6.012143E+18	2.367034E-21	NaN
269	1.000000	0.374660	7.36769e+06	-52089.1	955.818	-29749.8	0.000000	0.000000	6.374918	-0.010736	NaN	0.000000	0.001654	0.001693	28.078	0.072915	0.001833	39.7828	113.148	-163.346	-0.009797	0.373318	-1.393114	-1.394456	-0.010736	39.7828	-1.392912	-4.158289E+18	2.581782E-21	NaN
269	1.000000	0.386623	7.36769e+06	-52089.1	955.819	-29749.8	0.000000	0.000000	6.386883	0.033309	NaN	0.000000	0.001654	0.001681	28.0779	0.063949	0.002067	30.9446	-31.2943	-164.291	0.015592	0.385276	-1.381152	-1.382499	0.033309	30.9446	-1.381959	-2.970165E+18	-1.121449E-20	NaN
269	1.000000	0.398639	7.36769e+06	-52089.1	955.819	-29749.8	0.000000	0.000000	6.398896	-0.037237	NaN	0.000000	0.001665	0.001671	28.078	0.133012	0.001831	72.6519	5.061326	-165.676	-0.072201	0.397363	-1.369135	-1.370411	-0.037237	72.6519	-1.368751	-1.979355E+18	1.881249E-20	NaN
269	1.000000	0.410667	7.36769e+06	-52089.1	955.818	-29749.8	0.000000	0.000000	6.410927	0.034513	NaN	0.000000	0.001665	0.001673	28.0779	0.075099	0.002084	36.0365	-152.379	-166.568	0.032672	0.409289	-1.357108	-1.358486	0.034513	36.0365	-1.357826	-1.414828E+18	-2.439381E-20	NaN
269	1.000000	0.422645	7.36769e+06	-52089.1	955.818	-29749.8	0.000000	0.000000	6.422905	0.008717	NaN	0.000000	0.001676	0.001636	28.0778	0.034818	0.002010	17.3233	-19.4262	-164.367	-0.021081	0.421343	-1.345129	-1.346431	0.008717	17.3233	-1.345507	-9.688070E+17	-8.997971E-21	NaN
269	1.000000	0.434657	7.36769e+06	-52089.1	955.817	-29749.8	0.000000	0.000000	6.434917	0.017929	NaN	0.000000	0.001599	0.001709	28.0779	0.123520	0.002139	57.7395	122.688	-166.168	0.049244	0.433308	-1.333118	-1.334467	0.017929	57.7395	-1.333350	-6.666772E+17	-2.689276E-20	NaN
269	1.000000	0.446654	7.36769e+06	-52089.1	955.819	-29749.8	0.000000	0.000000	6.446910	-0.077158	NaN	0.000000	0.001651	0.001658	28.078	0.042487	0.002023	21.0031	120.233	-163.811	-0.031833	0.445404	-1.321120	-1.322370	-0.077158	21.0031	-1.318365	-4.204971E+17	1.834914E-19	NaN
269	1.000000	0.458674	7.36769e+06	-52089.1	955.818	-29749.8	0.000000	0.000000	6.458930	-0.053799	NaN	0.000000	0.001676	0.001654	28.0779	0.082708	0.001919	43.1077	104.853	-166.722	-0.088282	0.457273	-1.309101	-1.310501	-0.053799	43.1077	-1.308165	-3.072523E+17	1.750972E-19	NaN
269	1.000000	0.470670	7.36769e+06	-52089.1	955.817	-29749.8	0.000000	0.000000	6.470931	0.061210	NaN	0.000000	0.001641	0.001635	28.0791	0.012046	0.001914	6.293580	105.022	-166.634	0.048617	0.469362	-1.297105	-1.298413	0.061210	6.293580	-1.304399	-2.736382E+17	-2.236906E-19	NaN
269	1.000000	0.482682	7.36769e+06	-52089.1	955.818	-29749.8	0.000000	0.000000	6.482941	-0.009001	NaN	0.000000	0.001661	0.001643	28.079	0.073507	0.001970	37.3129	-114.082	-163.589	-0.021301	0.481344	-1.285092	-1.286430	-0.009001	37.3129	-1.284911	-1.502239E+17	5.991855E-20	NaN
269	1.000000	0.494648	7.36769e+06	-52089.1	955.818	-29749.8	0.000000	0.000000	6.494906	-0.012885	NaN	0.000000	0.001609	0.001681	28.0792	0.056645	0.002054	27.5741	-2.063408	-162.198	-0.083947	0.493417	-1.273127	-1.274357	-0.012885	27.5741	-1.272776	-1.033973E+17	1.246195E-19	NaN
269	1.000000	0.506668	7.36769e+06	-52089.1	955.817	-29749.8	0.000000	0.000000	6.506927	0.007395	NaN	0.000000	0.001644	0.001679	28.0792	0.032055	0.001895	16.9109	54.7061	-165.42	-0.019322	0.505400	-1.261107	-1.262374	0.007395	16.9109	-1.261435	-7.292141E+16	-1.014138E-19	NaN
269	1.000000	0.518681	7.36769e+06	-52089.1	955.819	-29749.8	0.000000	0.000000	6.518938	-0.047475	NaN	0.000000	0.001677	0.001691	28.0794	0.131560	0.001959	67.1588	-31.8103	-166.378	0.040038	0.517387	-1.249093	-1.250388	-0.047475	67.1588	-1.248563	-4.905701E+16	9.677574E-19	NaN
269	1.000000	0.530676	7.36769e+06	-52089.1	955.819	-29749.8	0.000000	0.000000	6.530934	-0.026911	NaN	0.000000	0.001643	0.001691	28.0791	0.052421	0.002069	25.3326	85.4676	-165.475	-0.009922	0.529373	-1.237098	-1.238401	-0.026911	25.3326	-1.236302	-3.362477E+16	8.003387E-19	NaN
269	1.000000	0.542711	7.36769e+06	-52089.1	955.817	-29749.8	0.000000	0.000000	6.542970	-0.007270	NaN	0.000000	0.001668	0.001648	28.0792	0.071953	0.002042	35.2329	-63.2433	-167.323	0.048942	0.541372	-1.225063	-1.226402	-0.007270	35.2329	-1.224908	-2.366994E+16	3.071315E-19	NaN
269	1.000000	0.554744	7.36769e+06	-52089.1	955.818	-29749.8	0.000000	0.000000	6.555003	-0.008189	NaN	0.000000	0.001636	0.001696	28.079	0.054387	0.001943	27.9948	146.103	-164.266	0.013515	0.553359	-1.213030	-1.214415	-0.008189	27.9948	-1.212811	-1.630303E+16	5.023274E-19	NaN
269	1.000000	0.566700	7.36769e+06	-52089.1	955.818	-29749.8	0.000000	0.000000	6.566958	-0.027593	NaN	0.000000	0.001672	0.001715	28.079	0.054998	0.001881	29.2397	-177.647	-165.358	0.024151	0.565416	-1.201074	-1.202359	-0.027593	29.2397	-1.200366	-1.110849E+16	2.483946E-18	NaN
269	1.000000	0.578717	7.36769e+06	-52089.1	955.818	-29749.8	0.000000	0.000000	6.578978	0.044926	NaN	0.000000	0.001655	0.001747	28.0792	0.017453	0.002017	8.654805	34.1598	-165.065	-0.021303	0.577393	-1.189057	-1.190382	0.044926	8.654805	-1.192950	-8.837678E+15	-5.083515E-18	NaN
269	1.000000	0.590718	7.36769e+06	-52089.1	955.817	-29749.8	0.000000	0.000000	6.590977	0.005144	NaN	0.000000	0.001677	0.001706	28.0791	0.028092	0.001973	14.2397	-41.0739	-163.035	0.048479	0.589410	-1.177057	-1.178364	0.005144	14.2397	-1.177327	-5.458404E+15	-9.423103E-19	NaN
269	1.000000	0.602686	7.36769e+06	-52089.1	955.819	-29749.8	0.000000	0.000000	6.602946	0.035161	NaN	0.000000	0.001667	0.001701	28.0784	0.065019	0.002052	31.6918	-103.092	-164.987	0.028805	0.601374	-1.165089	-1.166401	0.035161	31.6918	-1.165921	-3.839035E+15	-9.158769E-18	NaN
269	1.000000	0.614737	7.36769e+06	-52089.1	955.818	-29749.8	0.000000	0.000000	6.614996	0.023929	NaN	0.000000	0.001656	0.001697	28.0781	0.060933	0.001988	30.6522	-74.5009	-162.614	0.047346	0.613388	-1.153038	-1.154386	0.023929	30.6522	-1.153623	-2.626607E+15	-9.110388E-18	NaN
269	1.000000	0.626723	7.36769e+06	-52089.1	955.819	-29749.8	0.000000	0.000000	6.626979	-0.060549	NaN	0.000000	0.001667	0.001688	28.0779	0.086971	0.001833	47.4471	-148.744	-165.097	-0.093446	0.625409	-1.141052	-1.142366	-0.060549	47.4471	-1.140095	-1.729838E+15	3.500290E-17	NaN
269	1.000000	0.638734	7.36769e+06	-52089.1	955.818	-29749.8	0.000000	0.000000	6.638992	-0.032626	NaN	0.000000	0.001662	0.001763	28.0781	0.070013	0.002134	32.8028	110.745	-161.537	-0.010332	0.637399	-1.129040	-1.130375	-0.032626	32.8028	-1.128294	-1.201543E+15	2.715318E-17	NaN
269	1.000000	0.650747	7.36769e+06	-52089.1	955.818	-29749.8	0.000000	0.000000	6.651004	-0.049891	NaN	0.000000	0.001687	0.001658	28.0781	0.108566	0.001981	54.8057	9.036887	-164.993	-0.078233	0.649421	-1.117027	-1.118354	-0.049891	54.8057	-1.116344	-8.306597E+14	6.006139E-17	NaN
269	1.000000	0.662765	7.36769e+06	-52089.1	955.818	-29749.8	0.000000	0.000000	6.663024	0.008279	NaN	0.000000	0.001700	0.001648	28.0782	0.056444	0.001987	28.4101	166.677	-164.188	0.034023	0.661492	-1.105009	-1.106282	0.008279	28.4101	-1.105228	-5.891730E+14	-1.405175E-17	NaN
269	1.000000	0.674751	7.36769e+06	-52089.1	955.819	-29749.8	0.000000	0.000000	6.675009	-0.032368	NaN	0.000000	0.001658	0.001675	28.078	0.030924	0.002088	14.8135	88.7468	-164.564	-0.060193	0.673419	-1.093023	-1.094355	-0.032368	14.8135	-1.091385	-3.840648E+14	8.427644E-17	NaN
269	1.000000	0.686757	7.36769e+06	-52089.1	955.817	-29749.8	0.000000	0.000000	6.687013	-0.068496	NaN	0.000000	0.001690	0.001654	28.078	0.045376	0.002020	22.4669	-49.5381	-162.561	-0.035307	0.685440	-1.081018	-1.082335	-0.068496	22.4669	-1.078731	-2.597027E+14	2.637465E-16	NaN
269	1.000000	0.698762	7.36769e+06	-52089.1	955.818	-29749.8	0.000000	0.000000	6.699020	-0.026343	NaN	0.000000	0.001696	0.001618	28.0783	0.018154	0.001989	9.128138	6.517023	-162.516	-0.039207	0.697450	-1.069012	-1.070325	-0.026343	9.128138	-1.066848	-1.798190E+14	1.464995E-16	NaN
269	1.000000	0.710751	7.36769e+06	-52089.1	955.818	-29749.8	0.000000	0.000000	6.711012	0.041751	NaN	0.000000	0.001660	0.001639	28.0782	0.073073	0.001920	38.0523	-95.0005	-164.256	0.043874	0.709440	-1.057024	-1.058335	0.041751	38.0523	-1.057846	-1.361067E+14	-3.067543E-16	NaN
269	1.000000	0.722784	7.36769e+06	-52089.1	955.819	-29749.8	0.000000	0.000000	6.723043	0.016326	NaN	0.000000	0.001626	0.001635	28.0786	0.044981	0.002141	21.0102	-143.567	-160.969	0.005542	0.721408	-1.044991	-1.046366	0.016326	21.0102	-1.045573	-9.309055E+13	-1.753787E-16	NaN
269	1.000000	0.734803	7.36769e+06	-52089.1	955.818	-29749.8	0.000000	0.000000	6.735063	0.019371	NaN	0.000000	0.001563	0.001657	28.0783	0.075424	0.001973	38.2311	-20.6499	-162.143	-0.009685	0.733490	-1.032971	-1.034284	0.019371	38.2311	-1.033351	-6.376092E+13	-3.038089E-16	NaN
269	1.000000	0.746789	7.36769e+06	-52089.1	955.818	-29749.8	0.000000	0.000000	6.747046	-0.042672	NaN	0.000000	0.001581	0.001665	28.0794	0.048310	0.001860	25.9705	-141.286	-167.457	-0.031315	0.745454	-1.020985	-1.022321	-0.042672	25.9705	-1.019753	-4.184349E+13	1.019795E-15	NaN
269	1.000000	0.758779	7.36769e+06	-52089.1	955.818	-29749.8	0.000000	0.000000	6.759039	0.043059	NaN	0.000000	0.001586	0.001630	28.0793	0.045680	0.001967	23.2283	-138.091	-164.66	0.060014	0.757484	-1.008996	-1.010291	0.043059	23.2283	-1.010386	-3.130236E+13	-1.375591E-15	NaN
269	1.000000	0.770794	7.36769e+06	-52089.1	955.817	-29749.8	0.000000	0.000000	6.771050	-0.050807	NaN	0.000000	0.001597	0.001648	28.0792	0.129624	0.002125	60.9982	-116.531	-161.086	0.038646	0.769473	-0.996981	-0.998302	-0.050807	60.9982	-0.996356	-2.026314E+13	2.507374E-15	NaN
269	1.000000	0.782803	7.36769e+06	-52089.1	955.818	-29749.8	0.000000	0.000000	6.783060	-0.033314	NaN	0.000000	0.001661	0.001625	28.0793	0.113056	0.001895	59.653	174.565	-165.534	0.016852	0.781521	-0.984972	-0.986254	-0.033314	59.653	-0.984553	-1.405210E+13	2.370726E-15	NaN
269	1.000000	0.794800	7.36769e+06	-52089.1	955.819	-29749.8	0.000000	0.000000	6.795058	-0.021674	NaN	0.000000	0.001592	0.001651	28.0793	0.045592	0.002017	22.601	97.1822	-166.093	-0.061683	0.793466	-0.972974	-0.974309	-0.021674	22.601	-0.972255	-9.595162E+12	2.258810E-15	NaN
269	1.000000	0.806820	7.36769e+06	-52089.1	955.818	-29749.8	0.000000	0.000000	6.807080	0.030882	NaN	0.000000	0.001643	0.001653	28.0791	0.054980	0.001998	27.5242	28.2069	-162.438	-0.003399	0.805521	-0.960954	-0.962253	0.030882	27.5242	-0.961796	-6.935544E+12	-4.452681E-15	NaN
269	1.000000	0.818810	7.36769e+06	-52089.1	955.819	-29749.8	0.000000	0.000000	6.819069	0.014336	NaN	0.000000	0.001596	0.001662	28.0792	0.014508	0.001924	7.541691	-75.2683	-164.793	-0.057277	0.817519	-0.948965	-0.950256	0.014336	7.541691	-0.950391	-4.867385E+12	-2.945419E-15	NaN
269	1.000000	0.830816	7.36769e+06	-52089.1	955.819	-29749.8	0.000000	0.000000	6.831075	-0.005880	NaN	0.000000	0.001638	0.001648	28.0795	0.076773	0.001942	39.5252	95.8442	-163.569	-0.071697	0.829513	-0.936958	-0.938261	-0.005880	39.5252	-0.936847	-3.195891E+12	1.839936E-15	NaN
269	1.000000	0.842834	7.36769e+06	-52089.1	955.819	-29749.8	0.000000	0.000000	6.843092	-0.025723	NaN	0.000000	0.001656	0.001627	28.0792	0.133963	0.001982	67.5798	85.7722	-165.076	0.045049	0.841550	-0.924940	-0.926225	-0.025723	67.5798	-0.924655	-2.188013E+12	1.175624E-14	NaN
269	1.000000	0.854831	7.36769e+06	-52089.1	955.818	-29749.8	0.000000	0.000000	6.855093	0.073686	NaN	0.000000	0.001624	0.001633	28.0793	0.018055	0.002006	8.999892	-136.853	-166.23	0.056823	0.853524	-0.912943	-0.914251	0.073686	8.999892	-0.919084	-1.840091E+12	-4.004483E-14	NaN
269	1.000000	0.866834	7.36769e+06	-52089.1	955.819	-29749.8	0.000000	0.000000	6.867092	-0.025002	NaN	0.000000	0.001589	0.001671	28.0794	0.076383	0.001820	41.978	-69.2657	-165.159	-0.054693	0.865520	-0.900940	-0.902254	-0.025002	41.978	-0.900494	-1.032132E+12	2.422338E-14	NaN
269	1.000000	0.878870	7.36769e+06	-52089.1	955.819	-29749.8	0.000000	0.000000	6.879126	-0.059362	NaN	0.000000	0.001599	0.001598	28.0778	0.073720	0.001985	37.1388	107.876	-164.395	-0.063248	0.877567	-0.888904	-0.890208	-0.059362	37.1388	-0.887706	-6.932657E+11	8.562706E-14	NaN
269	1.000000	0.890871	7.36769e+06	-52089.1	955.819	-29749.8	0.000000	0.000000	6.891128	-0.033043	NaN	0.000000	0.001617	0.001593	28.078	0.119601	0.001984	60.2792	-151.835	-167.021	0.000586	0.889488	-0.876904	-0.878286	-0.033043	60.2792	-0.876493	-4.889585E+11	6.757930E-14	NaN
269	1.000000	0.902855	7.36769e+06	-52089.1	955.819	-29749.8	0.000000	0.000000	6.903113	-0.010078	NaN	0.000000	0.001606	0.001555	28.0779	0.038795	0.002045	18.9717	22.8603	-161.843	-0.027864	0.901521	-0.864920	-0.866254	-0.010078	18.9717	-0.864521	-3.367537E+11	2.992555E-14	NaN
269	1.000000	0.914848	7.36769e+06	-52089.1	955.819	-29749.8	0.000000	0.000000	6.915104	-0.076122	NaN	0.000000	0.001599	0.001603	28.0778	0.097289	0.001948	49.9448	96.6574	-162.054	-0.065905	0.913573	-0.852926	-0.854201	-0.076122	49.9448	-0.851783	-2.264019E+11	3.362246E-13	NaN
269	1.000000	0.926871	7.36769e+06	-52089.1	955.819	-29749.8	0.000000	0.000000	6.927129	-0.003941	NaN	0.000000	0.001624	0.001650	28.0781	0.049823	0.001969	25.3048	50.58	-166.711	0.013483	0.925554	-0.840904	-0.842220	-0.003941	25.3048	-0.840787	-1.606769E+11	2.452625E-14	NaN
269	1.000000	0.938879	7.36769e+06	-52089.1	955.817	-29749.8	0.000000	0.000000	6.939138	0.006390	NaN	0.000000	0.001607	0.001653	28.0779	0.082655	0.002054	40.2336	159.532	-164.024	-0.030737	0.937542	-0.828896	-0.830233	0.006390	40.2336	-0.829015	-1.112832E+11	-5.741966E-14	NaN
269	1.000000	0.950875	7.36769e+06	-52089.1	955.818	-29749.8	0.000000	0.000000	6.951138	0.084489	NaN	0.000000	0.001636	0.001661	28.078	0.082047	0.001969	41.6731	-44.9947	-166.218	-0.026053	0.949559	-0.816899	-0.818215	0.084489	41.6731	-0.818420	-7.994286E+10	-1.056864E-12	NaN
269	1.000000	0.962867	7.36769e+06	-52089.1	955.819	-29749.8	0.000000	0.000000	6.963129	0.053644	NaN	0.000000	0.001583	0.001654	28.078	0.041710	0.002012	20.7312	-25.2334	-164.743	0.026009	0.961576	-0.804907	-0.806198	0.053644	20.7312	-0.806848	-5.569293E+10	-9.632055E-13	NaN
269	1.000000	0.974874	7.36769e+06	-52089.1	955.819	-29749.8	0.000000	0.000000	6.975132	-0.023898	NaN	0.000000	0.001602	0.001657	28.0779	0.073214	0.002010	36.4197	-113.616	-165.163	0.095789	0.973578	-0.792900	-0.794197	-0.023898	36.4197	-0.792408	-3.546402E+10	6.738613E-13	NaN
269	1.000000	0.986872	7.36769e+06	-52089.1	955.819	-29749.8	0.000000	0.000000	6.987128	-0.075450	NaN	0.000000	0.001592	0.001714	28.0781	0.070827	0.001922	36.8467	154.835	-164.175	-0.120304	0.985611	-0.780902	-0.782163	-0.075450	36.8467	-0.779367	-2.358448E+10	3.199144E-12	NaN
269	1.000000	0.998896	7.36769e+06	-52089.1	955.818	-29749.8	0.000000	0.000000	6.999150	-0.136475	NaN	0.000000	0.001614	0.001625	28.078	0.093678	0.002052	45.6618	166.205	-164.518	-0.062787	0.997562	-0.768878	-0.770212	-0.136475	45.6618	-0.766636	-1.583321E+10	8.619556E-12	NaN
269	1.000000	1.010886	7.36769e+06	-52089.1	955.82	-29749.8	0.000000	0.000000	7.011145	-0.012951	NaN	0.000000	0.001611	0.001657	28.0791	0.042287	0.001959	21.5899	60.2748	-165.158	0.063806	1.009619	-0.756888	-0.758156	-0.012951	21.5899	-0.756438	-1.150379E+10	1.125785E-12	NaN
269	1.000000	1.022881	7.36769e+06	-52089.1	955.819	-29749.8	0.000000	0.000000	7.023140	-0.001533	NaN	0.000000	0.001599	0.001688	28.0795	0.067056	0.001817	36.9025	78.1398	-166.092	0.041754	1.021551	-0.744894	-0.746224	-0.001533	36.9025	-0.744862	-8.003397E+9	1.915236E-13	NaN
269	1.000000	1.034901	7.36769e+06	-52089.1	955.82	-29749.8	0.000000	0.000000	7.035159	-0.018096	NaN	0.000000	0.001587	0.001716	28.0794	0.091298	0.002065	44.2029	150.225	-164.882	-0.009759	1.033564	-0.732873	-0.734211	-0.018096	44.2029	-0.732566	-5.442276E+9	3.325096E-12	NaN
269	1.000000	1.046894	7.36769e+06	-52089.1	955.82	-29749.8	0.000000	0.000000	7.047153	0.006928	NaN	0.000000	0.001592	0.001663	28.0797	0.030840	0.001950	15.8114	130.14	-165.057	-0.005333	1.045560	-0.720881	-0.722214	0.006928	15.8114	-0.721210	-3.810379E+9	-1.818229E-12	NaN
269	1.000000	1.058912	7.36769e+06	-52089.1	955.819	-29749.8	0.000000	0.000000	7.059169	-0.047023	NaN	0.000000	0.001591	0.001678	28.079	0.043207	0.001983	21.7847	37.0097	-164.317	-0.093512	1.057592	-0.708862	-0.710182	-0.047023	21.7847	-0.707243	-2.457100E+9	1.913780E-11	NaN
269	1.000000	1.070917	7.36769e+06	-52089.1	955.819	-29749.8	0.000000	0.000000	7.071175	-0.024632	NaN	0.000000	0.001627	0.001701	28.0793	0.061269	0.001995	30.7056	-12.2149	-164.514	-0.021680	1.069624	-0.696857	-0.698151	-0.024632	30.7056	-0.696255	-1.739344E+9	1.416180E-11	NaN
269	1.000000	1.082891	7.36769e+06	-52089.1	955.819	-29749.8	0.000000	0.000000	7.083151	0.005256	NaN	0.000000	0.001578	0.001667	28.0792	0.024657	0.002108	11.6975	-113.163	-165.944	0.069307	1.081650	-0.684883	-0.686124	0.005256	11.6975	-0.685220	-1.229086E+9	-4.276653E-12	NaN
269	1.000000	1.094916	7.36769e+06	-52089.1	955.82	-29749.8	0.000000	0.000000	7.095177	0.046932	NaN	0.000000	0.001591	0.001677	28.0793	0.071311	0.001907	37.4044	-26.8958	-165.157	0.057586	1.093581	-0.672859	-0.674194	0.046932	37.4044	-0.673800	-8.578044E+8	-5.471231E-11	NaN
269	1.000000	1.106938	7.36769e+06	-52089.1	955.82	-29749.8	0.000000	0.000000	7.107196	-0.008750	NaN	0.000000	0.001589	0.001619	28.0792	0.016697	0.001957	8.530244	-82.1862	-163.644	0.003539	1.105546	-0.660837	-0.662229	-0.008750	8.530244	-0.660067	-5.564029E+8	1.572585E-11	NaN
269	1.000000	1.118951	7.36769e+06	-52089.1	955.819	-29749.8	0.000000	0.000000	7.119208	-0.044343	NaN	0.000000	0.001599	0.001694	28.0795	0.063815	0.002068	30.8638	75.6805	-162.274	-0.072473	1.117623	-0.648823	-0.650151	-0.044343	30.8638	-0.647746	-3.771629E+8	1.175696E-10	NaN
269	1.000000	1.130924	7.36769e+06	-52089.1	955.819	-29749.8	0.000000	0.000000	7.131181	-0.025370	NaN	0.000000	0.001583	0.001665	28.0796	0.084736	0.002047	41.3943	129.336	-169.265	0.066626	1.129650	-0.636851	-0.638124	-0.025370	41.3943	-0.636391	-2.634922E+8	9.628375E-11	NaN
269	1.000000	1.142948	7.36769e+06	-52089.1	955.82	-29749.8	0.000000	0.000000	7.143206	-0.010753	NaN	0.000000	0.001607	0.001667	28.0794	0.089429	0.001959	45.6586	116.602	-160.956	0.003722	1.141612	-0.624827	-0.626162	-0.010753	45.6586	-0.624650	-1.817763E+8	5.915448E-11	NaN
269	1.000000	1.154938	7.36769e+06	-52089.1	955.82	-29749.8	0.000000	0.000000	7.155193	-0.087306	NaN	0.000000	0.001622	0.001672	28.078	0.066820	0.001941	34.4312	152.823	-164.709	-0.032889	1.153677	-0.612837	-0.614097	-0.087306	34.4312	-0.610935	-1.177551E+8	7.414218E-10	NaN
269	1.000000	1.166936	7.36769e+06	-52089.1	955.819	-29749.8	0.000000	0.000000	7.167194	-0.025397	NaN	0.000000	0.001600	0.001664	28.0778	0.088957	0.001947	45.6992	8.160273	-165.397	-0.031062	1.165622	-0.600838	-0.602153	-0.025397	45.6992	-0.600422	-8.438509E+7	3.009709E-10	NaN
269	1.000000	1.178970	7.36769e+06	-52089.1	955.819	-29749.8	0.000000	0.000000	7.179228	-0.000127	NaN	0.000000	0.001619	0.001711	28.0779	0.078609	0.001991	39.4824	173.53	-168.378	-0.064947	1.177675	-0.588805	-0.590100	-0.000127	39.4824	-0.588802	-5.836538E+7	2.169070E-12	NaN
269	1.000000	1.190956	7.36769e+06	-52089.1	955.819	-29749.8	0.000000	0.000000	7.191211	-0.089990	NaN	0.000000	0.001600	0.001706	28.0782	0.073719	0.001964	37.5261	-55.13	-164.544	-0.055208	1.189588	-0.576819	-0.578186	-0.089990	37.5261	-0.575020	-3.766841E+7	2.389000E-9	NaN
269	1.000000	1.202962	7.36769e+06	-52089.1	955.82	-29749.8	0.000000	0.000000	7.203222	0.037690	NaN	0.000000	0.001634	0.001718	28.0782	0.116313	0.001890	61.5425	-52.4177	-165.777	0.053599	1.201664	-0.564813	-0.566110	0.037690	61.5425	-0.565272	-2.762385E+7	-1.364391E-9	NaN
269	1.000000	1.214941	7.36769e+06	-52089.1	955.82	-29749.8	0.000000	0.000000	7.215199	-0.020864	NaN	0.000000	0.001597	0.001725	28.0783	0.073802	0.001834	40.2501	-89.1696	-162.644	0.027837	1.213678	-0.552834	-0.554096	-0.020864	40.2501	-0.552445	-1.835763E+7	1.136513E-9	NaN
269	1.000000	1.226977	7.36769e+06	-52089.1	955.82	-29749.8	0.000000	0.000000	7.227239	0.068997	NaN	0.000000	0.001615	0.001714	28.0783	0.024788	0.002091	11.8524	-117.328	-163.118	0.050727	1.225707	-0.540797	-0.542067	0.068997	11.8524	-0.545163	-1.455261E+7	-4.741195E-9	NaN
269	1.000000	1.238998	7.36769e+06	-52089.1	955.819	-29749.8	0.000000	0.000000	7.239258	0.015201	NaN	0.000000	0.001612	0.001749	28.0786	0.018789	0.002015	9.323973	105.203	-165.299	0.051029	1.237696	-0.528776	-0.530079	0.015201	9.323973	-0.529999	-8.96524e+06	-1.695495E-9	NaN
269	1.000000	1.250957	7.36769e+06	-52089.1	955.82	-29749.8	0.000000	0.000000	7.251214	-0.037762	NaN	0.000000	0.001622	0.001710	28.0782	0.078976	0.002018	39.145	-69.0437	-167.494	0.000745	1.249666	-0.516818	-0.518109	-0.037762	39.145	-0.516094	-5.74465e+06	6.573399E-9	NaN
269	1.000000	1.262996	7.36769e+06	-52089.1	955.82	-29749.8	0.000000	0.000000	7.263254	-0.030915	NaN	0.000000	0.001586	0.001691	28.078	0.153017	0.001960	78.0755	105.573	-164.325	-0.037192	1.261698	-0.504778	-0.506076	-0.030915	78.0755	-0.504481	-3.95835e+06	7.809999E-9	NaN
269	1.000000	1.275009	7.36769e+06	-52089.1	955.819	-29749.8	0.000000	0.000000	7.275268	0.007682	NaN	0.000000	0.001585	0.001709	28.0781	0.068133	0.002095	32.5269	-101.629	-160.508	0.005083	1.273674	-0.492766	-0.494100	0.007682	32.5269	-0.492943	-2.73216e+06	-2.811518E-9	NaN
269	1.000000	1.286994	7.36769e+06	-52089.1	955.818	-29749.8	0.000000	0.000000	7.287254	0.023577	NaN	0.000000	0.001596	0.001676	28.0793	0.034243	0.002030	16.8655	-178.872	-162.413	0.078612	1.285672	-0.480781	-0.482102	0.023577	16.8655	-0.481829	-1.91042e+06	-1.234122E-8	NaN
269	1.000000	1.299007	7.36769e+06	-52089.1	955.819	-29749.8	0.000000	0.000000	7.299262	-0.084901	NaN	0.000000	0.001622	0.001686	28.0794	0.088992	0.002004	44.4153	83.3138	-166.4	-0.014948	1.297715	-0.468768	-0.470060	-0.084901	44.4153	-0.467334	-1.19677e+06	7.094186E-8	NaN
269	1.000000	1.310997	7.36769e+06	-52089.1	955.819	-29749.8	0.000000	0.000000	7.311256	-0.013590	NaN	0.000000	0.001605	0.001679	28.0791	0.063062	0.001894	33.2881	98.5147	-162.879	-0.066826	1.309709	-0.456777	-0.458065	-0.013590	33.2881	-0.456471	-842180	1.613657E-8	NaN
269	1.000000	1.323016	7.36769e+06	-52089.1	955.819	-29749.8	0.000000	0.000000	7.323274	-0.021855	NaN	0.000000	0.001578	0.001715	28.0791	0.123449	0.002033	60.7314	-114.003	-166.07	-0.011033	1.321721	-0.444759	-0.446053	-0.021855	60.7314	-0.444489	-571064	3.827101E-8	NaN
269	1.000000	1.335034	7.36769e+06	-52089.1	955.819	-29749.8	0.000000	0.000000	7.335292	-0.029835	NaN	0.000000	0.001627	0.001711	28.0795	0.075130	0.002024	37.1281	115.677	-165.57	0.001726	1.333807	-0.432740	-0.433967	-0.029835	37.1281	-0.432138	-382202	7.806065E-8	NaN
269	1.000000	1.347012	7.36769e+06	-52089.1	955.82	-29749.8	0.000000	0.000000	7.347270	-0.020762	NaN	0.000000	0.001624	0.001679	28.0793	0.083562	0.002066	40.4467	127.333	-162.817	-0.004822	1.345737	-0.420762	-0.422037	-0.020762	40.4467	-0.420377	-260474	7.970967E-8	NaN
269	1.000000	1.359042	7.36769e+06	-52089.1	955.819	-29749.8	0.000000	0.000000	7.359298	-0.055239	NaN	0.000000	0.001656	0.001656	28.0794	0.142753	0.001954	73.075	-153.375	-164.878	-0.033043	1.357731	-0.408733	-0.410043	-0.055239	73.075	-0.408166	-174708	3.161786E-7	NaN
269	1.000000	1.371071	7.36769e+06	-52089.1	955.819	-29749.8	0.000000	0.000000	7.371330	-0.009306	NaN	0.000000	0.001652	0.001683	28.0792	0.044020	0.002052	21.4488	102.449	-167.033	-0.022677	1.369724	-0.396703	-0.398050	-0.009306	21.4488	-0.396378	-118662	7.842253E-8	NaN
269	1.000000	1.383040	7.36769e+06	-52089.1	955.819	-29749.8	0.000000	0.000000	7.383299	0.019497	NaN	0.000000	0.001628	0.001680	28.0792	0.046205	0.002053	22.5089	-83.6787	-165.185	0.034567	1.381697	-0.384735	-0.386077	0.019497	22.5089	-0.385384	-82621.6	-2.359854E-7	NaN
269	1.000000	1.395073	7.36769e+06	-52089.1	955.82	-29749.8	0.000000	0.000000	7.395332	-0.007980	NaN	0.000000	0.001623	0.001701	28.0793	0.048312	0.002050	23.5709	-78.5328	-165.92	-0.046176	1.393775	-0.372701	-0.373999	-0.007980	23.5709	-0.372447	-53870.8	1.481389E-7	NaN
269	1.000000	1.407064	7.36769e+06	-52089.1	955.818	-29749.8	0.000000	0.000000	7.407324	0.012616	NaN	0.000000	0.001699	0.001702	28.0793	0.035480	0.002012	17.6332	-95.9023	-165.859	0.070507	1.405756	-0.360710	-0.362018	0.012616	17.6332	-0.361247	-37141.7	-3.396613E-7	NaN
269	1.000000	1.419054	7.36769e+06	-52089.1	955.82	-29749.8	0.000000	0.000000	7.419311	-0.066083	NaN	0.000000	0.001668	0.001735	28.0792	0.037667	0.001945	19.3696	113.19	-165.99	-0.133173	1.417780	-0.348720	-0.349995	-0.066083	19.3696	-0.346161	-22451.3	2.943413E-6	NaN
269	1.000000	1.431065	7.36769e+06	-52089.1	955.82	-29749.8	0.000000	0.000000	7.431323	-0.017897	NaN	0.000000	0.001676	0.001710	28.0779	0.041039	0.001973	20.8013	-174.231	-161.495	0.033590	1.429713	-0.336710	-0.338061	-0.017897	20.8013	-0.336064	-16000.5	1.118498E-6	NaN
269	1.000000	1.443072	7.36769e+06	-52089.1	955.819	-29749.8	0.000000	0.000000	7.443331	0.017267	NaN	0.000000	0.001734	0.001712	28.0785	0.055154	0.002055	26.844	108.589	-164.761	0.085619	1.441767	-0.324703	-0.326008	0.017267	26.844	-0.325185	-11088	-1.557299E-6	NaN
269	1.000000	1.455088	7.36769e+06	-52089.1	955.82	-29749.8	0.000000	0.000000	7.455347	-0.004045	NaN	0.000000	0.001693	0.001683	28.0785	0.088506	0.002056	43.0523	-126.959	-163.57	-0.024010	1.453768	-0.312686	-0.314006	-0.004045	43.0523	-0.312616	-7239.98	5.586995E-7	NaN
269	1.000000	1.467092	7.36769e+06	-52089.1	955.819	-29749.8	0.000000	0.000000	7.467352	0.019901	NaN	0.000000	0.001751	0.001693	28.0782	0.069044	0.001974	34.9763	-137.467	-170.181	0.003646	1.465762	-0.300682	-0.302012	0.019901	34.9763	-0.301109	-4888.04	-4.071375E-6	NaN
269	1.000000	1.479085	7.36769e+06	-52089.1	955.819	-29749.8	0.000000	0.000000	7.479342	-0.043366	NaN	0.000000	0.001784	0.001661	28.078	0.092953	0.002147	43.2933	-78.135	-164.321	0.029542	1.477799	-0.288689	-0.289976	-0.043366	43.2933	-0.287938	-3107.36	1.395605E-5	NaN
269	1.000000	1.491079	7.36769e+06	-52089.1	955.819	-29749.8	0.000000	0.000000	7.491340	0.048516	NaN	0.000000	0.001796	0.001668	28.078	0.071605	0.001977	36.2169	22.3625	-162.474	0.006700	1.489767	-0.276695	-0.278007	0.048516	36.2169	-0.277700	-2178.93	-2.226605E-5	NaN
269	1.000000	1.503096	7.36769e+06	-52089.1	955.819	-29749.8	0.000000	0.000000	7.503355	-0.010015	NaN	0.000000	0.001788	0.001702	28.0782	0.098966	0.002019	49.0158	70.6683	-166.438	-0.027835	1.501770	-0.264678	-0.266004	-0.010015	49.0158	-0.264525	-1374.47	7.286420E-6	NaN
269	1.000000	1.515107	7.36769e+06	-52089.1	955.819	-29749.8	0.000000	0.000000	7.515365	-0.030399	NaN	0.000000	0.001777	0.001703	28.0781	0.039484	0.001917	20.5948	-64.3756	-165.298	-0.057975	1.513796	-0.252667	-0.253978	-0.030399	20.5948	-0.251560	-869.117	3.497684E-5	NaN
269	1.000000	1.527102	7.36769e+06	-52089.1	955.819	-29749.8	0.000000	0.000000	7.527362	0.004834	NaN	0.000000	0.001700	0.001736	28.0782	0.069349	0.001957	35.4349	125.791	-163.812	0.018991	1.525793	-0.240672	-0.241981	0.004834	35.4349	-0.240774	-591.074	-8.178763E-6	NaN
269	1.000000	1.539088	7.36769e+06	-52089.1	955.819	-29749.8	0.000000	0.000000	7.539345	-0.052480	NaN	0.000000	0.001747	0.001689	28.0782	0.181663	0.002001	90.7926	-153.501	-166.789	0.041656	1.537773	-0.228686	-0.230002	-0.052480	90.7926	-0.228253	-375.749	0.000140	NaN
269	1.000000	1.551118	7.36769e+06	-52089.1	955.819	-29749.8	0.000000	0.000000	7.551377	0.017546	NaN	0.000000	0.001725	0.001688	28.0786	0.103224	0.002139	48.2532	-144.064	-164.665	-0.014014	1.549810	-0.216657	-0.217964	0.017546	48.2532	-0.216930	-248.034	-7.074127E-5	NaN
269	1.000000	1.563119	7.36769e+06	-52089.1	955.819	-29749.8	0.000000	0.000000	7.563380	0.057763	NaN	0.000000	0.001711	0.001675	28.0794	0.078156	0.002058	37.9715	22.1154	-168.329	0.066962	1.561803	-0.204655	-0.205972	0.057763	37.9715	-0.205796	-163.885	-0.000352	NaN
269	1.000000	1.575119	7.36769e+06	-52089.1	955.818	-29749.8	0.000000	0.000000	7.575377	-0.023745	NaN	0.000000	0.001737	0.001733	28.0793	0.089457	0.002051	43.6186	-97.1284	-162.954	-0.019144	1.573858	-0.192655	-0.193917	-0.023745	43.6186	-0.192247	-98.0594	0.000242	NaN
269	1.000000	1.587120	7.36769e+06	-52089.1	955.819	-29749.8	0.000000	0.000000	7.587378	-0.017999	NaN	0.000000	0.001704	0.001737	28.0793	0.053197	0.001982	26.839	-56.0069	-161.735	-0.052782	1.585814	-0.180655	-0.181961	-0.017999	26.839	-0.180152	-61.3834	0.000293	NaN
269	1.000000	1.599156	7.36769e+06	-52089.1	955.82	-29749.8	0.000000	0.000000	7.599412	-0.069008	NaN	0.000000	0.001697	0.001689	28.0794	0.098921	0.002029	48.7486	110.042	-169.377	-0.069571	1.597876	-0.168619	-0.169898	-0.069008	48.7486	-0.167557	-37.2461	0.001853	NaN
269	1.000000	1.611168	7.36769e+06	-52089.1	955.818	-29749.8	0.000000	0.000000	7.611427	0.009674	NaN	0.000000	0.001698	0.001723	28.0794	0.013061	0.001915	6.818456	-125.555	-160.514	-0.067679	1.609807	-0.156607	-0.157967	0.009674	6.818456	-0.157671	-24.9161	-0.000388	NaN
269	1.000000	1.623143	7.36769e+06	-52089.1	955.819	-29749.8	0.000000	0.000000	7.623404	0.052009	NaN	0.000000	0.001703	0.001664	28.0793	0.068662	0.001976	34.7432	57.7927	-164.685	0.097437	1.621833	-0.144631	-0.145941	0.052009	34.7432	-0.145754	-15.1393	-0.003435	NaN
269	1.000000	1.635154	7.36769e+06	-52089.1	955.819	-29749.8	0.000000	0.000000	7.635412	-0.001766	NaN	0.000000	0.001743	0.001657	28.0792	0.015674	0.002015	7.779759	-47.689	-164.405	-0.004842	1.633831	-0.132621	-0.133944	-0.001766	7.779759	-0.132451	-8.499811	0.000208	NaN
269	1.000000	1.647184	7.36769e+06	-52089.1	955.821	-29749.8	0.000000	0.000000	7.647443	0.018657	NaN	0.000000	0.001667	0.001717	28.0795	0.038311	0.002028	18.8907	-31.7778	-163.572	-0.094610	1.645836	-0.120591	-0.121938	0.018657	18.8907	-0.121332	-5.139086	-0.003630	NaN
269	1.000000	1.659174	7.36769e+06	-52089.1	955.818	-29749.8	0.000000	0.000000	7.659434	0.022591	NaN	0.000000	0.001679	0.001688	28.0792	0.171829	0.001992	86.2766	-144.282	-163.439	0.054507	1.657879	-0.108600	-0.109895	0.022591	86.2766	-0.108797	-2.834170	-0.007971	NaN
269	1.000000	1.671187	7.36769e+06	-52089.1	955.818	-29749.8	0.000000	0.000000	7.671447	0.013000	NaN	0.000000	0.001717	0.001705	28.0794	0.053184	0.002010	26.4661	-166.064	-165.026	-0.032213	1.669955	-0.096587	-0.097820	0.013000	26.4661	-0.096956	-1.562191	-0.008322	NaN
269	1.000000	1.683169	7.36769e+06	-52089.1	955.819	-29749.8	0.000000	0.000000	7.683428	-0.002416	NaN	0.000000	0.001708	0.001668	28.0792	0.079705	0.001998	39.9001	137.922	-163.709	-0.037919	1.681905	-0.084605	-0.085869	-0.002416	39.9001	-0.084560	-0.801694	0.003014	NaN
269	1.000000	1.695169	7.36769e+06	-52089.1	955.82	-29749.8	0.000000	0.000000	7.695431	0.065258	NaN	0.000000	0.001730	0.001688	28.078	0.108790	0.001982	54.8869	78.0053	-163.619	-0.060658	1.693831	-0.072605	-0.073943	0.065258	54.8869	-0.073497	-0.422123	-0.154595	NaN
269	1.000000	1.707191	7.36769e+06	-52089.1	955.819	-29749.8	0.000000	0.000000	7.707448	-0.041756	NaN	0.000000	0.001711	0.001686	28.0786	0.115205	0.001980	58.1838	9.058458	-166.492	-0.054657	1.705904	-0.060584	-0.061870	-0.041756	58.1838	-0.060046	-0.180636	0.231162	NaN
269	1.000000	1.719185	7.36769e+06	-52089.1	955.819	-29749.8	0.000000	0.000000	7.719441	-0.080890	NaN	0.000000	0.001721	0.001672	28.0783	0.028485	0.001925	14.7953	-95.1051	-163.121	-0.056175	1.717920	-0.048589	-0.049854	-0.080890	14.7953	-0.044489	-0.061996	1.304770	NaN
269	1.000000	1.731201	7.36769e+06	-52089.1	955.819	-29749.8	0.000000	0.000000	7.731459	-0.034034	NaN	0.000000	0.001712	0.001716	28.0783	0.083885	0.001922	43.6442	-127.661	-165.099	-0.018798	1.729907	-0.036573	-0.037868	-0.034034	43.6442	-0.035988	-0.034254	0.993577	NaN
269	1.000000	1.743219	7.36769e+06	-52089.1	955.818	-29749.8	0.000000	0.000000	7.743477	-0.018105	NaN	0.000000	0.001714	0.001725	28.0781	0.038342	0.001958	19.5774	-108.593	-164.211	0.000455	1.741912	-0.024556	-0.025863	-0.018105	19.5774	-0.023862	-0.015761	1.148720	NaN
269	1.000000	1.755203	7.36769e+06	-52089.1	955.819	-29749.8	0.000000	0.000000	7.755462	0.019231	NaN	0.000000	0.001713	0.001743	28.0783	0.014904	0.002122	7.022112	-59.9447	-168.608	0.087234	1.753847	-0.012572	-0.013928	0.019231	7.022112	-0.014626	-0.009052	-2.124465	NaN
269	1.000000	1.767224	7.36769e+06	-52089.1	955.82	-29749.8	0.000000	0.000000	7.767497	0.335775	NaN	0.000000	0.001739	0.001718	28.0786	0.550394	0.001844	298.49	6.555069	-162.779	0.013815	1.765925	-0.000551	-0.001849	0.335775	298.49	-0.001394	-0.001015	-330.914	NaN
269	2.000000	1.776769	7.36769e+06	-52089.1	955.819	-29749.8	0.000000	0.000000	7.777410	9.284445	NaN	0.000000	0.001698	0.001681	28.0781	9.373539	0.001699	5516.45	5.989048	-171.967	9.471012	1.776460	0.008994	0.008686	9.284445	5516.45	0.007732	0.006768	1371.77	61262.5
269	2.000000	1.779747	7.36769e+06	-52089.1	955.818	-29749.8	0.000000	0.000000	7.780504	12.1215	NaN	0.000000	0.001745	0.001711	28.0782	12.5849	0.001707	7372.41	6.628899	-174.176	12.2761	1.779383	0.011973	0.011608	12.1215	7372.41	0.010739	0.010015	1210.36	67307.2
269	2.000000	1.782710	7.36769e+06	-52089.1	955.819	-29749.8	0.000000	0.000000	7.783591	15.1435	NaN	0.000000	0.001717	0.001687	28.0782	15.3522	0.001899	8082.43	9.670559	-175.965	15.349	1.782433	0.014935	0.014659	15.1435	8082.43	0.013530	0.013375	1132.24	63851.6
269	2.000000	1.785689	7.36769e+06	-52089.1	955.818	-29749.8	0.000000	0.000000	7.786736	19.1644	NaN	0.000000	0.001689	0.001714	28.0782	17.9729	0.001730	10386.8	10.0339	-179.335	20.3722	1.785460	0.017914	0.017686	19.1644	10386.8	0.016530	0.017380	1102.64	71982.2
269	2.000000	1.788645	7.36769e+06	-52089.1	955.819	-29749.8	0.000000	0.000000	7.789896	24.1123	NaN	0.000000	0.001733	0.001674	28.0786	20.5197	0.001932	10620.5	6.145701	-176.107	21.6619	1.788334	0.020871	0.020559	24.1123	10620.5	0.019168	0.021252	1134.6	66561
269	2.000000	1.791701	7.36769e+06	-52089.1	955.819	-29749.8	0.000000	0.000000	7.793221	30.675	NaN	0.000000	0.001717	0.001670	28.0794	22.6716	0.001771	12798.4	6.997616	-177.048	31.1029	1.791258	0.023926	0.023483	30.675	12798.4	0.022129	0.025998	1179.89	72519.9
269	2.000000	1.794633	7.36769e+06	-52089.1	955.819	-29749.8	0.000000	0.000000	7.796387	36.3422	NaN	0.000000	0.001674	0.001690	28.0797	25.5036	0.001709	14919.6	7.478153	177.77	36.2773	1.794356	0.026859	0.026581	36.3422	14919.6	0.025032	0.031073	1169.56	77327.8
269	2.000000	1.797650	7.36769e+06	-52089.1	955.819	-29749.8	0.000000	0.000000	7.799587	40.7994	NaN	0.000000	0.001707	0.001692	28.0797	28.1138	0.001754	16025.6	5.112124	179.877	39.1235	1.797285	0.029875	0.029511	40.7994	16025.6	0.027966	0.036633	1113.72	76497.8
269	2.000000	1.800632	7.36769e+06	-52089.1	955.818	-29749.8	0.000000	0.000000	7.802887	48.5428	NaN	0.000000	0.001716	0.001667	28.0796	30.3308	0.001691	17932.9	3.573114	-177.698	47.6001	1.800235	0.032857	0.032461	48.5428	17932.9	0.030827	0.042476	1142.84	79497.5
269	2.000000	1.803657	7.36769e+06	-52089.1	955.819	-29749.8	0.000000	0.000000	7.806279	57.4614	NaN	0.000000	0.001711	0.001688	28.0806	33.6958	0.001792	18799.4	4.329564	-178.467	57.9145	1.803267	0.035882	0.035492	57.4614	18799.4	0.033590	0.048513	1184.44	77980.5
269	2.000000	1.806621	7.36769e+06	-52089.1	955.819	-29749.8	0.000000	0.000000	7.809357	60.2437	NaN	0.000000	0.001689	0.001672	28.0792	36.6975	0.001743	21056	4.456955	178.461	58.483	1.806357	0.038846	0.038582	60.2437	21056	0.036700	0.055779	1080.03	81454
269	2.000000	1.809651	7.36769e+06	-52089.1	955.818	-29749.8	0.000000	0.000000	7.812631	66.1436	NaN	0.000000	0.001658	0.001692	28.0796	39.6758	0.001836	21613.6	8.062827	175.511	66.031	1.809309	0.041877	0.041534	66.1436	21613.6	0.039582	0.062952	1050.7	78703.7
269	2.000000	1.812571	7.36769e+06	-52089.1	955.819	-29749.8	0.000000	0.000000	7.815901	74.6726	NaN	0.000000	0.001670	0.001678	28.0793	41.8766	0.001808	23160.6	3.041375	179.289	71.294	1.812323	0.044796	0.044548	74.6726	23160.6	0.042378	0.070319	1061.91	79796.9
269	2.000000	1.815647	7.36769e+06	-52089.1	955.819	-29749.8	0.000000	0.000000	7.819422	85.494	NaN	0.000000	0.001688	0.001676	28.0792	45.3306	0.001817	24949.4	4.774113	177.505	85.4589	1.815308	0.047873	0.047534	85.494	24949.4	0.045303	0.078449	1089.8	81384
269	2.000000	1.818628	7.36769e+06	-52089.1	955.819	-29749.8	0.000000	0.000000	7.822993	99.8268	NaN	0.000000	0.001755	0.001671	28.0802	47.7914	0.001905	25082.4	7.991518	175.021	97.5749	1.818157	0.050854	0.050382	99.8268	25082.4	0.047869	0.085939	1161.6	78171.2
269	2.000000	1.821606	7.36769e+06	-52089.1	955.82	-29749.8	0.000000	0.000000	7.826341	108.833	NaN	0.000000	0.001748	0.001719	28.0794	49.8227	0.001754	28410.3	2.991086	178.06	108.968	1.821271	0.053831	0.053496	108.833	28410.3	0.050958	0.095398	1140.84	84038.7
269	2.000000	1.824646	7.36769e+06	-52089.1	955.819	-29749.8	0.000000	0.000000	7.829759	118.027	NaN	0.000000	0.001761	0.001688	28.0785	52.2578	0.001678	31148.3	5.061470	175.452	121.047	1.824265	0.056872	0.056490	118.027	31148.3	0.054030	0.105274	1121.14	87709.4
269	2.000000	1.827607	7.36769e+06	-52089.1	955.82	-29749.8	0.000000	0.000000	7.833119	127.708	NaN	0.000000	0.001762	0.001656	28.0783	55.875	0.001921	29089.5	4.975315	175.245	127.95	1.827404	0.059833	0.059629	127.708	29089.5	0.056540	0.113696	1123.25	78820.2
269	2.000000	1.830603	7.36769e+06	-52089.1	955.82	-29749.8	0.000000	0.000000	7.836889	146.549	NaN	0.000000	0.001789	0.001654	28.0782	59.3886	0.001844	32200.9	7.193529	173.836	146.949	1.830186	0.062828	0.062412	146.549	32200.9	0.059415	0.123720	1184.52	83641.6
269	2.000000	1.833516	7.36769e+06	-52089.1	955.82	-29749.8	0.000000	0.000000	7.840048	152.531	NaN	0.000000	0.001772	0.001668	28.0789	61.4188	0.001748	35142.2	1.698542	176.975	148.142	1.833410	0.065741	0.065635	152.531	35142.2	0.062486	0.134873	1130.92	87425.8
269	2.000000	1.836580	7.36769e+06	-52089.1	955.82	-29749.8	0.000000	0.000000	7.844157	177.926	NaN	0.000000	0.001788	0.001668	28.0781	65.5148	0.001846	35487.6	4.646376	174.249	176.759	1.836206	0.068806	0.068432	177.926	35487.6	0.065045	0.144519	1231.16	85287.7
269	2.000000	1.839558	7.36769e+06	-52089.1	955.82	-29749.8	0.000000	0.000000	7.847850	195.337	NaN	0.000000	0.001760	0.001692	28.0782	68.8579	0.001906	36125.7	6.806053	171.966	194.177	1.839255	0.071783	0.071481	195.337	36125.7	0.067728	0.154968	1260.5	83843.3
269	2.000000	1.842597	7.36769e+06	-52089.1	955.82	-29749.8	0.000000	0.000000	7.851515	210.543	NaN	0.000000	0.001765	0.001675	28.0781	69.5448	0.001729	40226	2.528188	174.99	208.876	1.842302	0.074823	0.074528	210.543	40226	0.070897	0.167756	1255.06	89730.7
269	2.000000	1.845558	7.36769e+06	-52089.1	955.82	-29749.8	0.000000	0.000000	7.855148	226.886	NaN	0.000000	0.001726	0.001686	28.078	73.2404	0.001835	39910.5	4.366840	173.408	225.49	1.845332	0.077784	0.077558	226.886	39910.5	0.073520	0.178702	1269.64	86257.3
269	2.000000	1.848642	7.36769e+06	-52089.1	955.819	-29749.8	0.000000	0.000000	7.859029	246.255	NaN	0.000000	0.001755	0.001649	28.0782	76.8607	0.001815	42348.2	6.041896	171.945	248.504	1.848291	0.080868	0.080517	246.255	42348.2	0.076507	0.191558	1285.54	88401.1
269	2.000000	1.851630	7.36769e+06	-52089.1	955.819	-29749.8	0.000000	0.000000	7.862918	268.182	NaN	0.000000	0.001737	0.001649	28.078	78.5856	0.001805	43548.2	4.759729	172.732	272.056	1.851269	0.083855	0.083495	268.182	43548.2	0.079236	0.203677	1316.7	88160.2
269	2.000000	1.854501	7.36769e+06	-52089.1	955.82	-29749.8	0.000000	0.000000	7.866487	285.153	NaN	0.000000	0.001718	0.001696	28.0782	81.5987	0.001793	45506.8	5.245842	171.493	280.076	1.854144	0.086726	0.086370	285.153	45506.8	0.082026	0.216421	1317.58	89371.7
269	2.000000	1.857594	7.36769e+06	-52089.1	955.82	-29749.8	0.000000	0.000000	7.870459	306.506	NaN	0.000000	0.001699	0.001654	28.079	84.2505	0.001809	46561.7	5.154020	171.819	306.323	1.857271	0.089820	0.089497	306.506	46561.7	0.084883	0.229843	1333.55	88733.3
269	2.000000	1.860554	7.36769e+06	-52089.1	955.82	-29749.8	0.000000	0.000000	7.873895	318.094	NaN	0.000000	0.001705	0.001679	28.0793	87.568	0.001807	48448.7	2.823990	173.563	316.091	1.860368	0.092780	0.092594	318.094	48448.7	0.087856	0.244213	1302.53	89571.7
269	2.000000	1.863549	7.36769e+06	-52089.1	955.819	-29749.8	0.000000	0.000000	7.878086	347.171	NaN	0.000000	0.001747	0.001667	28.0792	89.6663	0.001856	48323.1	1.156549	175.062	344.543	1.863206	0.095775	0.095431	347.171	48323.1	0.090387	0.256767	1352.09	87128.2
269	2.000000	1.866492	7.36769e+06	-52089.1	955.819	-29749.8	0.000000	0.000000	7.882230	376.388	NaN	0.000000	0.001709	0.001704	28.0791	92.7217	0.001841	50358.7	3.887045	171.922	371.7	1.866169	0.098717	0.098394	376.388	50358.7	0.093112	0.270612	1390.88	88445.2
269	2.000000	1.869577	7.36769e+06	-52089.1	955.819	-29749.8	0.000000	0.000000	7.885944	391.681	NaN	0.000000	0.001714	0.001677	28.0791	94.4893	0.001724	54818.5	2.165180	173.128	390.939	1.869339	0.101802	0.101565	391.681	54818.5	0.096444	0.288000	1360.01	93326.4
269	2.000000	1.872538	7.36769e+06	-52089.1	955.82	-29749.8	0.000000	0.000000	7.890128	421.399	NaN	0.000000	0.001739	0.001720	28.0795	98.4853	0.001844	53405	5.207296	170.723	420.495	1.872111	0.104764	0.104337	421.399	53405	0.098846	0.300851	1400.69	88956.8
269	2.000000	1.874462	7.36769e+06	-52089.1	955.82	-29749.8	0.000000	0.000000	7.892506	432.452	NaN	0.000000	0.001746	0.001659	28.0792	97.5608	0.001679	58107.2	1.199939	173.885	426.191	1.874248	0.106687	0.106473	432.452	58107.2	0.101106	0.313180	1380.84	94865.1