File: remote_trans/data/nanoindenter/0828-1/data/Data_2025-08-06,11h17m57s/2025-07-22_16-23-58_1_41.txt
2025-07-22, 16:23:58, 1
Index	Phase	Displacement	Time	Pos X	Pos Y	Pos Z	Rot A	Rot B	Piezo Z	Force A	Force B	Gripper	Voltage A	Voltage B	Temperature	Amplitude force	Amplitude pos	Stiffness	Phase shift	Phase excitation	Force A raw	Displacement raw	HMax	HMax raw	Real Force	Real Stiffness	Contact Depth	Area	Hardness	Reduced Mod.
[#]	[#]	[um]	[s]	[um]	[um]	[um]	[m°]	[m°]	[um]	[uN]	[uN]	[V]	[V]	[V]	[°C]	[uN]	[um]	[N/m]	[°]	[°]	[uN]	[um]	[um]	[um]	[uN]	[N/m]	[um]	[um^2]	[MPa]	[MPa]
41	1.000000	0.002492	7.36544e+06	-40689.1	955.819	-29789.1	0.000000	0.000000	6.002806	-0.029685	NaN	0.000000	0.001608	0.001731	28.0882	0.039350	0.001012	38.8725	107.015	-162.537	0.054940	0.001246	-1.721036	-1.722282	-0.029685	38.8725	-1.720463	-9.511372E+22	3.120965E-25	NaN
41	1.000000	0.014498	7.36544e+06	-40689.1	955.818	-29789.1	0.000000	0.000000	6.014813	-0.004295	NaN	0.000000	0.001658	0.001720	28.112	0.081195	0.001782	45.5757	69.7957	-164.393	-0.015906	0.013278	-1.709030	-1.710249	-0.004295	45.5757	-1.708959	-6.690279E+22	6.419406E-26	NaN
41	1.000000	0.026471	7.36544e+06	-40689.1	955.817	-29789.1	0.000000	0.000000	6.026791	0.135325	NaN	0.000000	0.001667	0.001751	28.0846	0.107926	0.001789	60.3396	-70.9572	-162.621	0.104198	0.025141	-1.697057	-1.698387	0.135325	60.3396	-1.698739	-4.894258E+22	-2.764973E-24	NaN
41	1.000000	0.038486	7.36544e+06	-40689.1	955.819	-29789.1	0.000000	0.000000	6.038799	-0.032651	NaN	0.000000	0.001670	0.001733	28.1114	0.070121	0.001998	35.0978	-110.199	-163.252	-0.014811	0.037127	-1.685042	-1.686401	-0.032651	35.0978	-1.684344	-3.150979E+22	1.036224E-24	NaN
41	1.000000	0.050434	7.36544e+06	-40689.1	955.818	-29789.1	0.000000	0.000000	6.050749	0.000149	NaN	0.000000	0.001666	0.001689	28.0856	0.087561	0.001967	44.5038	-162.117	-164.996	-0.051171	0.049085	-1.673094	-1.674443	0.000149	44.5038	-1.673096	-2.233498E+22	-6.667762E-27	NaN
41	1.000000	0.062448	7.36544e+06	-40689.1	955.819	-29789.1	0.000000	0.000000	6.062764	0.023996	NaN	0.000000	0.001646	0.001694	28.1121	0.065820	0.002055	32.0348	-146.627	-164.291	0.104703	0.061102	-1.661080	-1.662426	0.023996	32.0348	-1.661641	-1.573108E+22	-1.525389E-24	NaN
41	1.000000	0.074446	7.36544e+06	-40689.1	955.817	-29789.1	0.000000	0.000000	6.074761	-0.006074	NaN	0.000000	0.001637	0.001648	28.0855	0.050267	0.002096	23.9773	123.612	-164.523	-0.002468	0.073179	-1.649082	-1.650348	-0.006074	23.9773	-1.648892	-1.064877E+22	5.703671E-25	NaN
41	1.000000	0.086453	7.36544e+06	-40689.1	955.818	-29789.1	0.000000	0.000000	6.086767	-0.020536	NaN	0.000000	0.001677	0.001664	28.1121	0.030251	0.001846	16.3902	-122.056	-164.466	0.019373	0.085176	-1.637074	-1.638352	-0.020536	16.3902	-1.636135	-7.206368E+21	2.849641E-24	NaN
41	1.000000	0.098454	7.36544e+06	-40689.1	955.818	-29789.1	0.000000	0.000000	6.098767	-0.043566	NaN	0.000000	0.001676	0.001759	28.0856	0.095500	0.002078	45.9569	154.88	-165.858	0.025372	0.097096	-1.625074	-1.626432	-0.043566	45.9569	-1.624363	-5.025834E+21	8.668375E-24	NaN
41	1.000000	0.110478	7.36544e+06	-40689.1	955.818	-29789.1	0.000000	0.000000	6.110792	-0.008930	NaN	0.000000	0.001668	0.001609	28.1106	0.027857	0.001993	13.9795	-91.1794	-164.524	-0.032343	0.109138	-1.613050	-1.614390	-0.008930	13.9795	-1.612571	-3.502716E+21	2.549493E-24	NaN
41	1.000000	0.122464	7.36544e+06	-40689.1	955.818	-29789.1	0.000000	0.000000	6.122778	-0.010240	NaN	0.000000	0.001624	0.001623	28.0847	0.036683	0.002040	17.9786	123.679	-162.211	-0.058109	0.121125	-1.601064	-1.602402	-0.010240	17.9786	-1.600636	-2.430471E+21	4.212993E-24	NaN
41	1.000000	0.134479	7.36544e+06	-40689.1	955.819	-29789.1	0.000000	0.000000	6.134793	-0.002927	NaN	0.000000	0.001612	0.001570	28.1104	0.098763	0.001960	50.3844	20.9284	-163.655	-0.017633	0.133169	-1.589049	-1.590358	-0.002927	50.3844	-1.589005	-1.702096E+21	1.719694E-24	NaN
41	1.000000	0.146441	7.36544e+06	-40689.1	955.818	-29789.1	0.000000	0.000000	6.146753	-0.070684	NaN	0.000000	0.001625	0.001597	28.0849	0.041273	0.002028	20.3525	-69.0248	-162.681	-0.126905	0.145204	-1.577086	-1.578324	-0.070684	20.3525	-1.574482	-1.090862E+21	6.479611E-23	NaN
41	1.000000	0.158508	7.36544e+06	-40689.1	955.819	-29789.1	0.000000	0.000000	6.158820	-0.050678	NaN	0.000000	0.001619	0.001566	28.1118	0.069549	0.001939	35.8776	59.3414	-165.597	0.023897	0.157161	-1.565020	-1.566367	-0.050678	35.8776	-1.563961	-7.902803E+20	6.412684E-23	NaN
41	1.000000	0.170493	7.36544e+06	-40689.1	955.818	-29789.1	0.000000	0.000000	6.170808	0.008742	NaN	0.000000	0.001628	0.001586	28.0855	0.151016	0.001980	76.262	-127.752	-169.385	0.034186	0.169182	-1.553035	-1.554346	0.008742	76.262	-1.553121	-5.669269E+20	-1.542035E-23	NaN
41	1.000000	0.182471	7.36544e+06	-40689.1	955.817	-29789.1	0.000000	0.000000	6.182784	-0.043185	NaN	0.000000	0.001639	0.001602	28.1113	0.071910	0.001946	36.9459	170.985	-166.821	0.040593	0.181229	-1.541056	-1.542299	-0.043185	36.9459	-1.540180	-3.813203E+20	1.132517E-22	NaN
41	1.000000	0.194505	7.36544e+06	-40689.1	955.818	-29789.1	0.000000	0.000000	6.194822	0.067729	NaN	0.000000	0.001643	0.001580	28.0826	0.044287	0.002144	20.655	-17.6008	-163.937	0.031946	0.193103	-1.529023	-1.530424	0.067729	20.655	-1.531482	-2.920844E+20	-2.318811E-22	NaN
41	1.000000	0.206502	7.36544e+06	-40689.1	955.818	-29789.1	0.000000	0.000000	6.206819	0.052563	NaN	0.000000	0.001661	0.001567	28.1109	0.057857	0.001913	30.2377	113.933	-163.703	0.045644	0.205174	-1.517026	-1.518354	0.052563	30.2377	-1.518329	-1.951638E+20	-2.693290E-22	NaN
41	1.000000	0.218495	7.36544e+06	-40689.1	955.818	-29789.1	0.000000	0.000000	6.218812	0.050614	NaN	0.000000	0.001627	0.001604	28.0845	0.057974	0.001978	29.3111	-23.5873	-166.893	0.055986	0.217186	-1.505033	-1.506342	0.050614	29.3111	-1.506328	-1.350796E+20	-3.746960E-22	NaN
41	1.000000	0.230539	7.36544e+06	-40689.1	955.819	-29789.1	0.000000	0.000000	6.230853	-0.006134	NaN	0.000000	0.001662	0.001579	28.1132	0.050612	0.001981	25.5427	-59.2967	-163.715	-0.008091	0.229196	-1.492989	-1.494332	-0.006134	25.5427	-1.492809	-8.923503E+19	6.873616E-23	NaN
41	1.000000	0.242516	7.36544e+06	-40689.1	955.818	-29789.1	0.000000	0.000000	6.242832	0.024831	NaN	0.000000	0.001634	0.001592	28.086	0.023281	0.001917	12.1441	-14.116	-164.258	0.033209	0.241173	-1.481011	-1.482354	0.024831	12.1441	-1.482545	-6.513440E+19	-3.812218E-22	NaN
41	1.000000	0.254548	7.36544e+06	-40689.1	955.819	-29789.1	0.000000	0.000000	6.254864	0.034414	NaN	0.000000	0.001648	0.001582	28.1133	0.044700	0.002021	22.1136	147.427	-167.851	-0.015298	0.253180	-1.468980	-1.470348	0.034414	22.1136	-1.470147	-4.452811E+19	-7.728571E-22	NaN
41	1.000000	0.266501	7.36544e+06	-40689.1	955.82	-29789.1	0.000000	0.000000	6.266817	0.021867	NaN	0.000000	0.001672	0.001559	28.0856	0.052261	0.001984	26.3443	23.7983	-167.185	0.084034	0.265231	-1.457027	-1.458296	0.021867	26.3443	-1.457649	-3.034535E+19	-7.206118E-22	NaN
41	1.000000	0.278528	7.36544e+06	-40689.1	955.818	-29789.1	0.000000	0.000000	6.278842	-0.007856	NaN	0.000000	0.001642	0.001585	28.112	0.093776	0.001920	48.8385	-33.7064	-165.906	-0.109261	0.277294	-1.445000	-1.446234	-0.007856	48.8385	-1.444879	-2.050673E+19	3.830843E-22	NaN
41	1.000000	0.290534	7.36544e+06	-40689.1	955.818	-29789.1	0.000000	0.000000	6.290850	0.012440	NaN	0.000000	0.001649	0.001579	28.0845	0.071557	0.002033	35.1926	-43.7232	-163.435	-0.002505	0.289262	-1.432993	-1.434266	0.012440	35.1926	-1.433259	-1.435431E+19	-8.666625E-22	NaN
41	1.000000	0.302527	7.36544e+06	-40689.1	955.818	-29789.1	0.000000	0.000000	6.302837	-0.122953	NaN	0.000000	0.001732	0.001621	28.1127	0.083634	0.002046	40.8784	-70.672	-168.461	-0.086978	0.301247	-1.421001	-1.422280	-0.122953	40.8784	-1.418745	-9.193200E+18	1.337434E-20	NaN
41	1.000000	0.314546	7.36544e+06	-40689.1	955.819	-29789.1	0.000000	0.000000	6.314860	-0.010797	NaN	0.000000	0.001699	0.001617	28.0853	0.052165	0.002060	25.3193	-111.313	-163.4	-0.006031	0.313276	-1.408982	-1.410252	-0.010797	25.3193	-1.408662	-6.745359E+18	1.600643E-21	NaN
41	1.000000	0.326569	7.36544e+06	-40689.1	955.818	-29789.1	0.000000	0.000000	6.326881	-0.048239	NaN	0.000000	0.001701	0.001620	28.1136	0.038686	0.001975	19.5844	168.323	-167.843	0.002789	0.325243	-1.396959	-1.398285	-0.048239	19.5844	-1.395112	-4.448980E+18	1.084270E-20	NaN
41	1.000000	0.338564	7.36544e+06	-40689.1	955.818	-29789.1	0.000000	0.000000	6.338876	-0.074524	NaN	0.000000	0.001721	0.001549	28.0855	0.084495	0.002011	42.011	-163.893	-162.3	-0.002077	0.337225	-1.384964	-1.386303	-0.074524	42.011	-1.383633	-3.126930E+18	2.383281E-20	NaN
41	1.000000	0.350585	7.36544e+06	-40689.1	955.818	-29789.1	0.000000	0.000000	6.350899	-0.010680	NaN	0.000000	0.001698	0.001605	28.1123	0.118027	0.002054	57.4707	93.2222	-165.685	0.082010	0.349230	-1.372943	-1.374298	-0.010680	57.4707	-1.372804	-2.241866E+18	4.763675E-21	NaN
41	1.000000	0.362560	7.36544e+06	-40689.1	955.819	-29789.1	0.000000	0.000000	6.362872	-0.051843	NaN	0.000000	0.001668	0.001607	28.0835	0.027752	0.002049	13.5467	82.017	-169.065	-0.101457	0.361273	-1.360968	-1.362255	-0.051843	13.5467	-1.358098	-1.426692E+18	3.633797E-20	NaN
41	1.000000	0.374563	7.36544e+06	-40689.1	955.819	-29789.1	0.000000	0.000000	6.374877	-0.012083	NaN	0.000000	0.001641	0.001611	28.1115	0.086733	0.002049	42.3276	-51.1232	-163.98	0.088644	0.373231	-1.348965	-1.350296	-0.012083	42.3276	-1.348751	-1.070425E+18	1.128792E-20	NaN
41	1.000000	0.386595	7.36544e+06	-40689.1	955.819	-29789.1	0.000000	0.000000	6.386910	0.008348	NaN	0.000000	0.001649	0.001623	28.0839	0.057412	0.001916	29.9674	78.1699	-163.197	-0.024887	0.385283	-1.336932	-1.338245	0.008348	29.9674	-1.337141	-7.490989E+17	-1.114353E-20	NaN
41	1.000000	0.398585	7.36544e+06	-40689.1	955.818	-29789.1	0.000000	0.000000	6.398898	-0.040021	NaN	0.000000	0.001593	0.001628	28.1131	0.045384	0.001887	24.0513	94.7102	-167.355	-0.025811	0.397243	-1.324943	-1.326285	-0.040021	24.0513	-1.323695	-4.954014E+17	8.078410E-20	NaN
41	1.000000	0.410593	7.36544e+06	-40689.1	955.818	-29789.1	0.000000	0.000000	6.410910	0.061596	NaN	0.000000	0.001657	0.001619	28.0846	0.017531	0.002028	8.642714	-72.9593	-164.164	-0.011949	0.409258	-1.312935	-1.314270	0.061596	8.642714	-1.318280	-4.194008E+17	-1.468672E-19	NaN
41	1.000000	0.422619	7.36544e+06	-40689.1	955.819	-29789.1	0.000000	0.000000	6.422935	0.029796	NaN	0.000000	0.001645	0.001645	28.1125	0.110152	0.001954	56.3839	-42.5135	-165.734	-0.016791	0.421241	-1.300909	-1.302287	0.029796	56.3839	-1.301305	-2.487940E+17	-1.197628E-19	NaN
41	1.000000	0.434595	7.36544e+06	-40689.1	955.818	-29789.1	0.000000	0.000000	6.434910	-0.002662	NaN	0.000000	0.001635	0.001642	28.0831	0.077976	0.002021	38.5758	69.7426	-164.392	0.033806	0.433315	-1.288933	-1.290213	-0.002662	38.5758	-1.288881	-1.697442E+17	1.568487E-20	NaN
41	1.000000	0.446564	7.36544e+06	-40689.1	955.818	-29789.1	0.000000	0.000000	6.446878	-0.013551	NaN	0.000000	0.001614	0.001657	28.1113	0.030451	0.002066	14.7419	86.0727	-165.24	0.004551	0.445320	-1.276964	-1.278207	-0.013551	14.7419	-1.276274	-1.151534E+17	1.176811E-19	NaN
41	1.000000	0.458603	7.36544e+06	-40689.1	955.819	-29789.1	0.000000	0.000000	6.458916	-0.040564	NaN	0.000000	0.001647	0.001611	28.0827	0.087222	0.002060	42.3372	8.081195	-162.897	-0.022865	0.457298	-1.264925	-1.266230	-0.040564	42.3372	-1.264206	-7.941751E+16	5.107682E-19	NaN
41	1.000000	0.470608	7.36544e+06	-40689.1	955.818	-29789.1	0.000000	0.000000	6.470922	-0.010212	NaN	0.000000	0.001649	0.001652	28.1135	0.038730	0.001984	19.525	82.6295	-165.974	0.031342	0.469295	-1.252920	-1.254233	-0.010212	19.525	-1.252528	-5.542842E+16	1.842306E-19	NaN
41	1.000000	0.482626	7.36544e+06	-40689.1	955.818	-29789.1	0.000000	0.000000	6.482939	-0.036920	NaN	0.000000	0.001652	0.001646	28.0838	0.127882	0.001910	66.9552	157.217	-162.529	-0.040681	0.481292	-1.240902	-1.242236	-0.036920	66.9552	-1.240488	-3.825413E+16	9.651260E-19	NaN
41	1.000000	0.494649	7.36544e+06	-40689.1	955.819	-29789.1	0.000000	0.000000	6.494963	-0.017451	NaN	0.000000	0.001624	0.001621	28.1145	0.110065	0.002058	53.4929	-69.8956	-162.064	-0.002975	0.493318	-1.228879	-1.230210	-0.017451	53.4929	-1.228634	-2.654999E+16	6.572831E-19	NaN
41	1.000000	0.506618	7.36544e+06	-40689.1	955.817	-29789.1	0.000000	0.000000	6.506931	-0.033249	NaN	0.000000	0.001638	0.001626	28.0843	0.051824	0.001999	25.9209	-168.418	-164.569	0.020377	0.505269	-1.216910	-1.218258	-0.033249	25.9209	-1.215948	-1.795825E+16	1.851443E-18	NaN
41	1.000000	0.518632	7.36544e+06	-40689.1	955.818	-29789.1	0.000000	0.000000	6.518948	0.020693	NaN	0.000000	0.001662	0.001675	28.1137	0.129853	0.001961	66.218	80.0055	-160.517	0.016460	0.517335	-1.204896	-1.206193	0.020693	66.218	-1.205130	-1.286583E+16	-1.608357E-18	NaN
41	1.000000	0.530635	7.36544e+06	-40689.1	955.818	-29789.1	0.000000	0.000000	6.530948	-0.040109	NaN	0.000000	0.001676	0.001663	28.0837	0.091247	0.002020	45.1771	28.174	-167.145	0.048091	0.529343	-1.192893	-1.194184	-0.040109	45.1771	-1.192227	-8.642764E+15	4.640755E-18	NaN
41	1.000000	0.542663	7.36544e+06	-40689.1	955.818	-29789.1	0.000000	0.000000	6.542979	0.020940	NaN	0.000000	0.001642	0.001660	28.1141	0.054599	0.002064	26.4592	-8.672587	-163.648	-0.025767	0.541341	-1.180865	-1.182187	0.020940	26.4592	-1.181458	-6.200234E+15	-3.377258E-18	NaN
41	1.000000	0.554647	7.36544e+06	-40689.1	955.818	-29789.1	0.000000	0.000000	6.554961	-0.013817	NaN	0.000000	0.001663	0.001650	28.0846	0.149380	0.002159	69.2053	-32.2311	-160.927	-0.086405	0.553420	-1.168881	-1.170108	-0.013817	69.2053	-1.168732	-4.186861E+15	3.300034E-18	NaN
41	1.000000	0.566656	7.36544e+06	-40689.1	955.819	-29789.1	0.000000	0.000000	6.566971	0.012609	NaN	0.000000	0.001665	0.001643	28.1147	0.086873	0.001930	45.0189	115.94	-165.887	0.002100	0.565354	-1.156872	-1.158173	0.012609	45.0189	-1.157082	-2.922529E+15	-4.314400E-18	NaN
41	1.000000	0.578659	7.36544e+06	-40689.1	955.818	-29789.1	0.000000	0.000000	6.578970	-0.094228	NaN	0.000000	0.001735	0.001648	28.0853	0.124090	0.001995	62.2	5.283514	-166.316	-0.134045	0.577374	-1.144869	-1.146154	-0.094228	62.2	-1.143733	-1.935484E+15	4.868435E-17	NaN
41	1.000000	0.590670	7.36544e+06	-40689.1	955.819	-29789.1	0.000000	0.000000	6.590981	-0.106493	NaN	0.000000	0.001658	0.001678	28.1135	0.096643	0.002041	47.3515	18.6367	-164.766	-0.060715	0.589304	-1.132857	-1.134224	-0.106493	47.3515	-1.131171	-1.313181E+15	8.109518E-17	NaN
41	1.000000	0.602647	7.36544e+06	-40689.1	955.818	-29789.1	0.000000	0.000000	6.602962	0.003861	NaN	0.000000	0.001697	0.001683	28.0835	0.033491	0.001949	17.1829	110.096	-164.833	0.049417	0.601442	-1.120881	-1.122086	0.003861	17.1829	-1.121049	-9.606154E+14	-4.019305E-18	NaN
41	1.000000	0.614663	7.36544e+06	-40689.1	955.819	-29789.1	0.000000	0.000000	6.614979	0.021373	NaN	0.000000	0.001684	0.001684	28.1141	0.075653	0.001913	39.5528	111.191	-165.015	0.003827	0.613318	-1.108865	-1.110210	0.021373	39.5528	-1.109270	-6.675562E+14	-3.201660E-17	NaN
41	1.000000	0.626688	7.36544e+06	-40689.1	955.818	-29789.1	0.000000	0.000000	6.627002	-0.012304	NaN	0.000000	0.001712	0.001707	28.0844	0.066723	0.002130	31.3312	-73.235	-162.27	0.044289	0.625397	-1.096840	-1.098131	-0.012304	31.3312	-1.096546	-4.505014E+14	2.731192E-17	NaN
41	1.000000	0.638698	7.36544e+06	-40689.1	955.817	-29789.1	0.000000	0.000000	6.639010	-0.062795	NaN	0.000000	0.001680	0.001674	28.1141	0.053214	0.001961	27.1304	-156.117	-165.04	0.040045	0.637364	-1.084830	-1.086163	-0.062795	27.1304	-1.083094	-2.972195E+14	2.112749E-16	NaN
41	1.000000	0.650676	7.36544e+06	-40689.1	955.818	-29789.1	0.000000	0.000000	6.650994	0.096234	NaN	0.000000	0.001655	0.001686	28.0828	0.112930	0.001994	56.626	98.5386	-165.947	0.020417	0.649368	-1.072852	-1.074159	0.096234	56.626	-1.074127	-2.252319E+14	-4.272669E-16	NaN
41	1.000000	0.662702	7.36544e+06	-40689.1	955.818	-29789.1	0.000000	0.000000	6.663013	-0.075693	NaN	0.000000	0.001668	0.001685	28.1135	0.066368	0.002033	32.6484	-49.3824	-160.919	-0.071576	0.661434	-1.060826	-1.062094	-0.075693	32.6484	-1.059087	-1.414337E+14	5.351829E-16	NaN
41	1.000000	0.674691	7.36544e+06	-40689.1	955.818	-29789.1	0.000000	0.000000	6.675005	-0.010468	NaN	0.000000	0.001701	0.001675	28.0823	0.156450	0.002131	73.4176	173.822	-165.519	-0.038447	0.673385	-1.048837	-1.050143	-0.010468	73.4176	-1.048730	-1.026453E+14	1.019814E-16	NaN
41	1.000000	0.686728	7.36544e+06	-40689.1	955.818	-29789.1	0.000000	0.000000	6.687043	-0.007083	NaN	0.000000	0.001695	0.001646	28.1134	0.072212	0.001927	37.4688	-2.985283	-164.7	0.005267	0.685381	-1.036800	-1.038147	-0.007083	37.4688	-1.036658	-7.063558E+13	1.002783E-16	NaN
41	1.000000	0.698710	7.36544e+06	-40689.1	955.818	-29789.1	0.000000	0.000000	6.699024	-0.007344	NaN	0.000000	0.001703	0.001614	28.0824	0.086532	0.001972	43.8777	-7.241796	-163.958	0.029025	0.697420	-1.024818	-1.026108	-0.007344	43.8777	-1.024692	-4.876229E+13	1.506156E-16	NaN
41	1.000000	0.710685	7.36544e+06	-40689.1	955.818	-29789.1	0.000000	0.000000	6.710999	-0.039320	NaN	0.000000	0.001680	0.001605	28.1147	0.117157	0.002067	56.6918	48.633	-166.775	-0.028037	0.709437	-1.012842	-1.014091	-0.039320	56.6918	-1.012322	-3.323804E+13	1.182981E-15	NaN
41	1.000000	0.722713	7.36544e+06	-40689.1	955.818	-29789.1	0.000000	0.000000	6.723030	0.055919	NaN	0.000000	0.001697	0.001563	28.0825	0.064834	0.001853	34.9851	-169.651	-163.265	0.023878	0.721440	-1.000815	-1.002088	0.055919	34.9851	-1.002014	-2.414799E+13	-2.315677E-15	NaN
41	1.000000	0.734732	7.36544e+06	-40689.1	955.818	-29789.1	0.000000	0.000000	6.735049	0.046638	NaN	0.000000	0.001696	0.001626	28.1149	0.132894	0.001928	68.9452	-122.032	-162.196	0.061518	0.733412	-0.988795	-0.990116	0.046638	68.9452	-0.989303	-1.628253E+13	-2.864310E-15	NaN
41	1.000000	0.746720	7.36544e+06	-40689.1	955.817	-29789.1	0.000000	0.000000	6.747034	-0.017025	NaN	0.000000	0.001685	0.001599	28.0815	0.054603	0.002051	26.6269	50.5874	-163.04	-0.018142	0.745411	-0.976808	-0.978117	-0.017025	26.6269	-0.976328	-1.088780E+13	1.563710E-15	NaN
41	1.000000	0.758732	7.36544e+06	-40689.1	955.818	-29789.1	0.000000	0.000000	6.759043	-0.072963	NaN	0.000000	0.001694	0.001662	28.1138	0.033836	0.001956	17.3016	4.489096	-166.43	-0.081766	0.757454	-0.964796	-0.966074	-0.072963	17.3016	-0.961633	-6.900616E+12	1.057343E-14	NaN
41	1.000000	0.770782	7.36544e+06	-40689.1	955.818	-29789.1	0.000000	0.000000	6.771097	0.007524	NaN	0.000000	0.001706	0.001663	28.0829	0.031551	0.001984	15.9033	132.023	-163.847	-0.006460	0.769429	-0.952746	-0.954099	0.007524	15.9033	-0.953101	-5.294776E+12	-1.420972E-15	NaN
41	1.000000	0.782761	7.36544e+06	-40689.1	955.817	-29789.1	0.000000	0.000000	6.783076	0.005378	NaN	0.000000	0.001663	0.001673	28.1157	0.133107	0.002052	64.8633	-126.885	-163.307	0.070254	0.781433	-0.940767	-0.942095	0.005378	64.8633	-0.940829	-3.616812E+12	-1.486817E-15	NaN
41	1.000000	0.794771	7.36544e+06	-40689.1	955.819	-29789.1	0.000000	0.000000	6.795084	-0.045443	NaN	0.000000	0.001678	0.001662	28.0846	0.039459	0.002041	19.3296	95.7536	-163.68	-0.036957	0.793444	-0.928756	-0.930084	-0.045443	19.3296	-0.926993	-2.352948E+12	1.931335E-14	NaN
41	1.000000	0.806763	7.36544e+06	-40689.1	955.818	-29789.1	0.000000	0.000000	6.807077	-0.016150	NaN	0.000000	0.001679	0.001656	28.1162	0.030467	0.002049	14.8688	-112.111	-166.001	-0.013801	0.805441	-0.916765	-0.918087	-0.016150	14.8688	-0.915950	-1.669264E+12	9.675069E-15	NaN
41	1.000000	0.818749	7.36544e+06	-40689.1	955.818	-29789.1	0.000000	0.000000	6.819060	-0.076980	NaN	0.000000	0.001695	0.001688	28.0845	0.079919	0.001918	41.6629	-82.6911	-160.815	-0.020495	0.817466	-0.904779	-0.906061	-0.076980	41.6629	-0.903393	-1.129576E+12	6.814907E-14	NaN
41	1.000000	0.830766	7.36544e+06	-40689.1	955.818	-29789.1	0.000000	0.000000	6.831082	0.038763	NaN	0.000000	0.001621	0.001682	28.1156	0.107711	0.001946	55.3391	80.8281	-164.949	0.058225	0.829468	-0.892762	-0.894060	0.038763	55.3391	-0.893287	-8.247942E+11	-4.699769E-14	NaN
41	1.000000	0.842754	7.36544e+06	-40689.1	955.817	-29789.1	0.000000	0.000000	6.843065	-0.097116	NaN	0.000000	0.001623	0.001678	28.0826	0.025653	0.002042	12.5622	-30.6478	-167.099	-0.035765	0.841511	-0.880774	-0.882017	-0.097116	12.5622	-0.874976	-4.663941E+11	2.082263E-13	NaN
41	1.000000	0.854776	7.36544e+06	-40689.1	955.819	-29789.1	0.000000	0.000000	6.855089	-0.032678	NaN	0.000000	0.001638	0.001673	28.1159	0.112128	0.002004	55.9386	-47.2816	-164.596	-0.023397	0.853438	-0.868752	-0.870089	-0.032678	55.9386	-0.868314	-3.789926E+11	8.622443E-14	NaN
41	1.000000	0.866771	7.36544e+06	-40689.1	955.818	-29789.1	0.000000	0.000000	6.867085	-0.034256	NaN	0.000000	0.001656	0.001670	28.0834	0.094077	0.002033	46.2724	28.0622	-165.34	0.040740	0.865489	-0.856756	-0.858039	-0.034256	46.2724	-0.856201	-2.598357E+11	1.318374E-13	NaN
41	1.000000	0.878778	7.36544e+06	-40689.1	955.818	-29789.1	0.000000	0.000000	6.879095	0.070408	NaN	0.000000	0.001682	0.001657	28.1166	0.091361	0.002025	45.1158	-113.802	-165.518	0.080280	0.877518	-0.844750	-0.846010	0.070408	45.1158	-0.845921	-1.885786E+11	-3.733614E-13	NaN
41	1.000000	0.890790	7.36544e+06	-40689.1	955.818	-29789.1	0.000000	0.000000	6.891106	0.033680	NaN	0.000000	0.001668	0.001675	28.0827	0.042059	0.001980	21.2465	-170.39	-167.841	0.028348	0.889512	-0.832738	-0.834016	0.033680	21.2465	-0.833927	-1.297185E+11	-2.596418E-13	NaN
41	1.000000	0.902774	7.36544e+06	-40689.1	955.818	-29789.1	0.000000	0.000000	6.903087	-0.043117	NaN	0.000000	0.001625	0.001685	28.1158	0.060108	0.001916	31.3741	-33.7762	-160.682	-0.043210	0.901468	-0.820754	-0.822060	-0.043117	31.3741	-0.819723	-8.326356E+10	5.178343E-13	NaN
41	1.000000	0.914820	7.36545e+06	-40689.1	955.818	-29789.1	0.000000	0.000000	6.915135	0.008651	NaN	0.000000	0.001618	0.001669	28.0818	0.011393	0.001884	6.046607	-114.389	-166.295	-0.029695	0.913540	-0.808707	-0.809988	0.008651	6.046607	-0.809780	-6.103671E+10	-1.417280E-13	NaN
41	1.000000	0.926811	7.36545e+06	-40689.1	955.817	-29789.1	0.000000	0.000000	6.927129	0.058651	NaN	0.000000	0.001632	0.001735	28.1153	0.041750	0.001896	22.0205	12.0192	-163.536	-0.018571	0.925471	-0.796716	-0.798057	0.058651	22.0205	-0.798714	-4.319218E+10	-1.357914E-12	NaN
41	1.000000	0.938830	7.36545e+06	-40689.1	955.818	-29789.1	0.000000	0.000000	6.939148	0.068425	NaN	0.000000	0.001616	0.001718	28.0813	0.029995	0.002016	14.8787	179.999	-164.883	-0.039781	0.937490	-0.784698	-0.786037	0.068425	14.8787	-0.788147	-3.103924E+10	-2.204473E-12	NaN
41	1.000000	0.950812	7.36545e+06	-40689.1	955.818	-29789.1	0.000000	0.000000	6.951125	-0.029854	NaN	0.000000	0.001623	0.001698	28.1165	0.084337	0.002033	41.488	3.195315	-164.251	-0.107067	0.949501	-0.772716	-0.774027	-0.029854	41.488	-0.772176	-1.883174E+10	1.585316E-12	NaN
41	1.000000	0.962814	7.36545e+06	-40689.1	955.818	-29789.1	0.000000	0.000000	6.963129	0.002671	NaN	0.000000	0.001707	0.001718	28.083	0.046036	0.001985	23.1973	87.5469	-165.263	0.024374	0.961525	-0.760713	-0.762003	0.002671	23.1973	-0.760800	-1.318811E+10	-2.025029E-13	NaN
41	1.000000	0.974834	7.36545e+06	-40689.1	955.82	-29789.1	0.000000	0.000000	6.975147	-0.039371	NaN	0.000000	0.001697	0.001742	28.1163	0.061543	0.001954	31.5009	-47.2742	-166.509	0.006404	0.973471	-0.748694	-0.750057	-0.039371	31.5009	-0.747756	-8.763503E+9	4.492620E-12	NaN
41	1.000000	0.986857	7.36545e+06	-40689.1	955.819	-29789.1	0.000000	0.000000	6.987170	-0.039133	NaN	0.000000	0.001669	0.001710	28.0815	0.081542	0.002008	40.602	-43.1147	-166.117	0.010264	0.985451	-0.736670	-0.738077	-0.039133	40.602	-0.735948	-6.051355E+9	6.466826E-12	NaN
41	1.000000	0.998825	7.36545e+06	-40689.1	955.819	-29789.1	0.000000	0.000000	6.999139	-0.020507	NaN	0.000000	0.001688	0.001747	28.1152	0.085800	0.002012	42.6546	-77.9314	-165.069	-0.042977	0.997556	-0.724703	-0.725972	-0.020507	42.6546	-0.724343	-4.204246E+9	4.877652E-12	NaN
41	1.000000	1.010854	7.36545e+06	-40689.1	955.819	-29789.1	0.000000	0.000000	7.011167	-0.030888	NaN	0.000000	0.001678	0.001729	28.0819	0.144838	0.001894	76.4606	-175.129	-162.484	-0.010873	1.009522	-0.712674	-0.714006	-0.030888	76.4606	-0.712371	-2.886707E+9	1.070014E-11	NaN
41	1.000000	1.022855	7.36545e+06	-40689.1	955.821	-29789.1	0.000000	0.000000	7.023170	0.007441	NaN	0.000000	0.001708	0.001751	28.1158	0.067761	0.002088	32.4559	-140.544	-165.004	-0.007306	1.021538	-0.700673	-0.701990	0.007441	32.4559	-0.700845	-2.009400E+9	-3.703322E-12	NaN
41	1.000000	1.034854	7.36545e+06	-40689.1	955.82	-29789.1	0.000000	0.000000	7.035169	-0.004987	NaN	0.000000	0.001668	0.001751	28.0832	0.119141	0.001934	61.6097	-22.2955	-162.915	-0.008166	1.033568	-0.688674	-0.689960	-0.004987	61.6097	-0.688613	-1.367603E+9	3.646486E-12	NaN
41	1.000000	1.046858	7.36545e+06	-40689.1	955.819	-29789.1	0.000000	0.000000	7.047174	0.030785	NaN	0.000000	0.001654	0.001732	28.1178	0.060450	0.001890	31.985	96.3991	-161.897	-0.050779	1.045575	-0.676670	-0.677953	0.030785	31.985	-0.677392	-9.605779E+8	-3.204886E-11	NaN
41	1.000000	1.058873	7.36545e+06	-40689.1	955.819	-29789.1	0.000000	0.000000	7.059188	-0.000998	NaN	0.000000	0.001661	0.001717	28.0827	0.029186	0.002097	13.9206	20.3857	-160.884	0.101472	1.057553	-0.664655	-0.665974	-0.000998	13.9206	-0.664601	-6.419191E+8	1.553976E-12	NaN
41	1.000000	1.070860	7.36545e+06	-40689.1	955.818	-29789.1	0.000000	0.000000	7.071173	-0.040556	NaN	0.000000	0.001622	0.001794	28.1169	0.118259	0.001896	62.375	130.523	-166.321	-0.049359	1.069545	-0.652668	-0.653983	-0.040556	62.375	-0.652180	-4.338313E+8	9.348360E-11	NaN
41	1.000000	1.082879	7.36545e+06	-40689.1	955.818	-29789.1	0.000000	0.000000	7.083195	0.031132	NaN	0.000000	0.001603	0.001756	28.0823	0.100462	0.002043	49.1809	77.8481	-165.321	0.032166	1.081538	-0.640649	-0.641989	0.031132	49.1809	-0.641124	-3.059918E+8	-1.017398E-10	NaN
41	1.000000	1.094880	7.36545e+06	-40689.1	955.819	-29789.1	0.000000	0.000000	7.095194	-0.007941	NaN	0.000000	0.001595	0.001754	28.1171	0.106489	0.001982	53.736	81.5895	-164.344	0.004279	1.093522	-0.628648	-0.630006	-0.007941	53.736	-0.628537	-2.055583E+8	3.863270E-11	NaN
41	1.000000	1.106870	7.36545e+06	-40689.1	955.82	-29789.1	0.000000	0.000000	7.107186	0.015969	NaN	0.000000	0.001574	0.001709	28.0844	0.067900	0.001929	35.2009	105.902	-163.148	0.062354	1.105627	-0.616657	-0.617901	0.015969	35.2009	-0.616998	-1.426786E+8	-1.119234E-10	NaN
41	1.000000	1.118903	7.36545e+06	-40689.1	955.819	-29789.1	0.000000	0.000000	7.119216	-0.053163	NaN	0.000000	0.001593	0.001746	28.1187	0.010205	0.001923	5.306530	167.452	-168.945	0.018425	1.117569	-0.604624	-0.605958	-0.053163	5.306530	-0.597111	-7.597316E+7	6.997562E-10	NaN
41	1.000000	1.130872	7.36545e+06	-40689.1	955.82	-29789.1	0.000000	0.000000	7.131188	0.025008	NaN	0.000000	0.001606	0.001758	28.0846	0.096954	0.001988	48.7683	53.4735	-166.309	-0.015556	1.129557	-0.592656	-0.593971	0.025008	48.7683	-0.593040	-6.676866E+7	-3.745442E-10	NaN
41	1.000000	1.142890	7.36545e+06	-40689.1	955.82	-29789.1	0.000000	0.000000	7.143201	-0.070761	NaN	0.000000	0.001627	0.001724	28.1176	0.108717	0.001983	54.828	107.176	-163.743	-0.143320	1.141571	-0.580638	-0.581957	-0.070761	54.828	-0.579670	-4.366909E+7	1.620399E-9	NaN
41	1.000000	1.154872	7.36545e+06	-40689.1	955.819	-29789	0.000000	0.000000	7.155187	0.011277	NaN	0.000000	0.001560	0.001741	28.0823	0.008864	0.002075	4.272680	-12.6326	-165.852	-0.045302	1.153587	-0.568655	-0.569940	0.011277	4.272680	-0.570635	-3.276469E+7	-3.441935E-10	NaN
41	1.000000	1.166885	7.36545e+06	-40689.1	955.82	-29789	0.000000	0.000000	7.167196	-0.075270	NaN	0.000000	0.001574	0.001718	28.1173	0.105537	0.001895	55.7043	-27.6032	-159.927	-0.101329	1.165608	-0.556643	-0.557920	-0.075270	55.7043	-0.555630	-2.031919E+7	3.704393E-9	NaN
41	1.000000	1.178918	7.36545e+06	-40689.1	955.819	-29789	0.000000	0.000000	7.179230	-0.050836	NaN	0.000000	0.001596	0.001724	28.0816	0.042894	0.002013	21.3084	7.457682	-161.786	-0.045350	1.177601	-0.544610	-0.545927	-0.050836	21.3084	-0.542821	-1.350424E+7	3.764445E-9	NaN
41	1.000000	1.190914	7.36545e+06	-40689.1	955.82	-29789	0.000000	0.000000	7.191229	-0.001143	NaN	0.000000	0.001626	0.001706	28.1172	0.038857	0.002028	19.1628	74.9438	-162.946	0.034535	1.189623	-0.532614	-0.533905	-0.001143	19.1628	-0.532569	-9.73305e+06	1.174616E-10	NaN
41	1.000000	1.202915	7.36545e+06	-40689.1	955.82	-29789	0.000000	0.000000	7.203230	0.020545	NaN	0.000000	0.001595	0.001738	28.0835	0.144877	0.002005	72.2544	42.0464	-164.179	-0.007276	1.201595	-0.520613	-0.521933	0.020545	72.2544	-0.520826	-6.68479e+06	-3.073343E-9	NaN
41	1.000000	1.214940	7.36545e+06	-40689.1	955.82	-29789	0.000000	0.000000	7.215253	-0.049314	NaN	0.000000	0.001594	0.001722	28.1177	0.026047	0.002085	12.4909	138.017	-166.148	-0.019790	1.213614	-0.508588	-0.509914	-0.049314	12.4909	-0.505627	-4.10659e+06	1.200858E-8	NaN
41	1.000000	1.226910	7.36545e+06	-40689.1	955.82	-29789	0.000000	0.000000	7.227226	0.016236	NaN	0.000000	0.001547	0.001688	28.0808	0.062094	0.002087	29.7578	84.8056	-163.964	-0.058777	1.225582	-0.496617	-0.497946	0.016236	29.7578	-0.497027	-3.11548e+06	-5.211318E-9	NaN
41	1.000000	1.238931	7.36545e+06	-40689.1	955.821	-29789	0.000000	0.000000	7.239243	-0.045133	NaN	0.000000	0.001535	0.001698	28.1164	0.059043	0.002038	28.9736	119.896	-166.703	-0.099799	1.237646	-0.484597	-0.485882	-0.045133	28.9736	-0.483429	-2.01147e+06	2.243792E-8	NaN
41	1.000000	1.250942	7.36545e+06	-40689.1	955.821	-29789	0.000000	0.000000	7.251255	-0.038089	NaN	0.000000	0.001552	0.001720	28.0812	0.014758	0.001939	7.612636	122.179	-167.156	0.001826	1.249627	-0.472586	-0.473901	-0.038089	7.612636	-0.468834	-1.25616e+06	3.032136E-8	NaN
41	1.000000	1.262968	7.36545e+06	-40689.1	955.82	-29789	0.000000	0.000000	7.263281	-0.022531	NaN	0.000000	0.001540	0.001691	28.1173	0.050011	0.001990	25.1354	-156.66	-160.639	-0.002666	1.261659	-0.460560	-0.461869	-0.022531	25.1354	-0.459888	-940678	2.395159E-8	NaN
41	1.000000	1.274955	7.36545e+06	-40689.1	955.82	-29789	0.000000	0.000000	7.275266	-0.087542	NaN	0.000000	0.001575	0.001726	28.0826	0.060480	0.001876	32.239	162.194	-166.629	-0.124138	1.273680	-0.448572	-0.449848	-0.087542	32.239	-0.446536	-610297	1.434414E-7	NaN
41	1.000000	1.286947	7.36545e+06	-40689.1	955.82	-29789	0.000000	0.000000	7.287261	-0.036904	NaN	0.000000	0.001621	0.001714	28.1177	0.069927	0.002027	34.4993	-87.653	-163.155	-0.016882	1.285681	-0.436580	-0.437846	-0.036904	34.4993	-0.435778	-430277	8.576859E-8	NaN
41	1.000000	1.298965	7.36545e+06	-40689.1	955.82	-29789	0.000000	0.000000	7.299279	-0.038214	NaN	0.000000	0.001589	0.001652	28.081	0.136287	0.001947	69.9969	-126.221	-161.262	-0.005586	1.297643	-0.424562	-0.425884	-0.038214	69.9969	-0.424153	-294634	1.296984E-7	NaN
41	1.000000	1.310961	7.36545e+06	-40689.1	955.82	-29789	0.000000	0.000000	7.311275	-0.004419	NaN	0.000000	0.001648	0.001699	28.1172	0.029876	0.002083	14.3414	146.169	-165.228	-0.039535	1.309648	-0.412567	-0.413880	-0.004419	14.3414	-0.412336	-200266	2.206764E-8	NaN
41	1.000000	1.322987	7.36545e+06	-40689.1	955.821	-29789	0.000000	0.000000	7.323301	-0.024982	NaN	0.000000	0.001616	0.001722	28.0822	0.057099	0.001951	29.2676	-74.5294	-165.376	-0.032161	1.321671	-0.400541	-0.401856	-0.024982	29.2676	-0.399901	-133222	1.875204E-7	NaN
41	1.000000	1.334992	7.36545e+06	-40689.1	955.821	-29789	0.000000	0.000000	7.335306	-0.014426	NaN	0.000000	0.001635	0.001676	28.118	0.055189	0.002133	25.8744	26.1049	-166.188	0.056087	1.333668	-0.388536	-0.389860	-0.014426	25.8744	-0.388117	-90412.8	1.595531E-7	NaN
41	1.000000	1.346950	7.36545e+06	-40689.1	955.82	-29789	0.000000	0.000000	7.347262	-0.069919	NaN	0.000000	0.001587	0.001718	28.0836	0.139801	0.002067	67.6351	121.22	-166.315	-0.080580	1.345639	-0.376578	-0.377888	-0.069919	67.6351	-0.375803	-60201.4	1.161422E-6	NaN
41	1.000000	1.358985	7.36545e+06	-40689.1	955.82	-29789	0.000000	0.000000	7.359299	-0.030493	NaN	0.000000	0.001598	0.001710	28.1192	0.109509	0.002086	52.5023	140.171	-163.3	-0.050913	1.357663	-0.364543	-0.365864	-0.030493	52.5023	-0.364107	-40847.8	7.464899E-7	NaN
41	1.000000	1.370995	7.36545e+06	-40689.1	955.82	-29789	0.000000	0.000000	7.371308	-0.053326	NaN	0.000000	0.001599	0.001709	28.0838	0.112678	0.001959	57.5147	-78.0092	-166.581	0.013123	1.369699	-0.352532	-0.353829	-0.053326	57.5147	-0.351837	-27142.9	1.964623E-6	NaN
41	1.000000	1.383029	7.36545e+06	-40689.1	955.821	-29789	0.000000	0.000000	7.383345	0.042335	NaN	0.000000	0.001647	0.001677	28.1199	0.107663	0.002003	53.7455	150.731	-165.384	-0.068108	1.381685	-0.340499	-0.341843	0.042335	53.7455	-0.341090	-18942.3	-2.234933E-6	NaN
41	1.000000	1.395015	7.36545e+06	-40689.1	955.82	-29789	0.000000	0.000000	7.395330	-0.005462	NaN	0.000000	0.001622	0.001668	28.0825	0.069624	0.002088	33.3427	-111.885	-163.021	-0.038346	1.393674	-0.328513	-0.329853	-0.005462	33.3427	-0.328390	-12355.5	4.420738E-7	NaN
41	1.000000	1.406996	7.36545e+06	-40689.1	955.821	-29789	0.000000	0.000000	7.407311	0.000138	NaN	0.000000	0.001640	0.001701	28.1186	0.130149	0.001906	68.288	-153.093	-164.348	-0.005763	1.405718	-0.316532	-0.317810	0.000138	68.288	-0.316533	-8271.21	-1.663165E-8	NaN
41	1.000000	1.419009	7.36545e+06	-40689.1	955.821	-29789	0.000000	0.000000	7.419325	0.015569	NaN	0.000000	0.001631	0.001667	28.0816	0.070292	0.002045	34.3745	-133.922	-165.196	-0.010753	1.417697	-0.304518	-0.305831	0.015569	34.3745	-0.304858	-5557.12	-2.801700E-6	NaN
41	1.000000	1.430995	7.36545e+06	-40689.1	955.82	-29789	0.000000	0.000000	7.431308	-0.024196	NaN	0.000000	0.001688	0.001711	28.1198	0.056896	0.001883	30.2183	42.2631	-165.204	0.028040	1.429704	-0.292533	-0.293824	-0.024196	30.2183	-0.291933	-3566.47	6.784245E-6	NaN
41	1.000000	1.443037	7.36545e+06	-40689.1	955.82	-29789	0.000000	0.000000	7.443352	0.003998	NaN	0.000000	0.001697	0.001687	28.0835	0.060650	0.001953	31.0593	-73.2262	-164.922	0.042001	1.441735	-0.280491	-0.281793	0.003998	31.0593	-0.280587	-2408.95	-1.659681E-6	NaN
41	1.000000	1.455021	7.36545e+06	-40689.1	955.821	-29789	0.000000	0.000000	7.455336	0.026839	NaN	0.000000	0.001659	0.001700	28.1188	0.013554	0.002024	6.696569	152.54	-164.027	0.003043	1.453683	-0.268507	-0.269845	0.026839	6.696569	-0.271513	-1756.02	-1.528397E-5	NaN
41	1.000000	1.467039	7.36545e+06	-40689.1	955.821	-29789	0.000000	0.000000	7.467353	-0.002354	NaN	0.000000	0.001655	0.001730	28.0813	0.111563	0.001980	56.3494	-161.242	-163.761	0.009328	1.465774	-0.256489	-0.257754	-0.002354	56.3494	-0.256458	-1034.05	2.276482E-6	NaN
41	1.000000	1.479050	7.36545e+06	-40689.1	955.821	-29789	0.000000	0.000000	7.479362	-0.045992	NaN	0.000000	0.001668	0.001742	28.1182	0.071512	0.001919	37.2712	177.568	-165.26	-0.033202	1.477699	-0.244478	-0.245829	-0.045992	37.2712	-0.243553	-653.044	7.042729E-5	NaN
41	1.000000	1.491079	7.36545e+06	-40689.1	955.82	-29789	0.000000	0.000000	7.491391	-0.074753	NaN	0.000000	0.001700	0.001708	28.0809	0.114343	0.001990	57.4596	73.6983	-165.403	0.011277	1.489770	-0.232449	-0.233758	-0.074753	57.4596	-0.231473	-422.432	0.000177	NaN
41	1.000000	1.503080	7.36545e+06	-40689.1	955.82	-29789	0.000000	0.000000	7.503397	0.058731	NaN	0.000000	0.001675	0.001719	28.1188	0.081070	0.001944	41.7081	153.6	-164.912	0.062538	1.501694	-0.220448	-0.221833	0.058731	41.7081	-0.221504	-293.551	-0.000200	NaN
41	1.000000	1.515037	7.36545e+06	-40689.1	955.822	-29789	0.000000	0.000000	7.515351	-0.022662	NaN	0.000000	0.001638	0.001732	28.082	0.030107	0.001965	15.319	-71.2164	-162.247	-0.036504	1.513693	-0.208491	-0.209835	-0.022662	15.319	-0.207381	-173.913	0.000130	NaN
41	1.000000	1.527057	7.36545e+06	-40689.1	955.822	-29789	0.000000	0.000000	7.527372	0.020402	NaN	0.000000	0.001599	0.001739	28.1194	0.063086	0.001979	31.8813	139.043	-167.798	0.038708	1.525749	-0.196471	-0.197779	0.020402	31.8813	-0.196951	-117.347	-0.000174	NaN
41	1.000000	1.539060	7.36545e+06	-40689.1	955.821	-29789	0.000000	0.000000	7.539371	-0.091540	NaN	0.000000	0.001588	0.001711	28.0826	0.077685	0.002099	37.0094	-46.9826	-164.519	-0.045790	1.537778	-0.184468	-0.185749	-0.091540	37.0094	-0.182613	-67.5779	0.001355	NaN
41	1.000000	1.551084	7.36545e+06	-40689.1	955.821	-29789	0.000000	0.000000	7.551399	0.027390	NaN	0.000000	0.001600	0.001729	28.1187	0.060873	0.001909	31.883	-129.63	-164.803	0.025092	1.549752	-0.172444	-0.173775	0.027390	31.883	-0.173088	-46.4589	-0.000590	NaN
41	1.000000	1.563098	7.36545e+06	-40689.1	955.82	-29789	0.000000	0.000000	7.563416	0.098520	NaN	0.000000	0.001585	0.001763	28.0816	0.053380	0.001903	28.0535	38.023	-165.991	0.026087	1.561729	-0.160430	-0.161798	0.098520	28.0535	-0.163064	-31.0621	-0.003172	NaN
41	1.000000	1.575090	7.36545e+06	-40689.1	955.821	-29789	0.000000	0.000000	7.575404	-0.017050	NaN	0.000000	0.001606	0.001763	28.1188	0.009715	0.001986	4.892461	-69.1671	-167.701	0.025906	1.573767	-0.148438	-0.149761	-0.017050	4.892461	-0.145824	-15.1844	0.001123	NaN
41	1.000000	1.587090	7.36545e+06	-40689.1	955.822	-29789	0.000000	0.000000	7.587405	0.015393	NaN	0.000000	0.001637	0.001789	28.0834	0.067508	0.001923	35.0983	-113.58	-163.224	0.048181	1.585779	-0.136438	-0.137749	0.015393	35.0983	-0.136767	-10.2783	-0.001498	NaN
41	1.000000	1.599092	7.36545e+06	-40689.1	955.821	-29789	0.000000	0.000000	7.599406	-0.036942	NaN	0.000000	0.001549	0.001732	28.1211	0.084125	0.002084	40.3718	-93.3449	-165.674	0.003083	1.597838	-0.124435	-0.125690	-0.036942	40.3718	-0.123749	-5.743550	0.006432	NaN
41	1.000000	1.611106	7.36545e+06	-40689.1	955.821	-29789	0.000000	0.000000	7.611420	-0.018080	NaN	0.000000	0.001543	0.001739	28.0826	0.072615	0.002082	34.8831	-138.886	-164.649	-0.021265	1.609814	-0.112422	-0.113714	-0.018080	34.8831	-0.112033	-3.315401	0.005453	NaN
41	1.000000	1.623094	7.36545e+06	-40689.1	955.821	-29789	0.000000	0.000000	7.623406	-0.051410	NaN	0.000000	0.001588	0.001746	28.1203	0.093749	0.002069	45.3216	76.4511	-165.103	-0.091607	1.621784	-0.100434	-0.101743	-0.051410	45.3216	-0.099583	-1.788647	0.028742	NaN
41	1.000000	1.635142	7.36545e+06	-40689.1	955.821	-29789	0.000000	0.000000	7.635455	-0.055421	NaN	0.000000	0.001574	0.001748	28.0834	0.029680	0.002131	13.9279	78.2796	-163.985	-0.013705	1.633781	-0.088385	-0.089747	-0.055421	13.9279	-0.085401	-0.840185	0.065963	NaN
41	1.000000	1.647131	7.36545e+06	-40689.1	955.821	-29789	0.000000	0.000000	7.647446	0.008349	NaN	0.000000	0.001570	0.001736	28.1201	0.028674	0.001966	14.5824	125.897	-165.744	-0.065660	1.645826	-0.076397	-0.077702	0.008349	14.5824	-0.076827	-0.514614	-0.016224	NaN
41	1.000000	1.659111	7.36545e+06	-40689.1	955.821	-29789	0.000000	0.000000	7.659425	-0.026644	NaN	0.000000	0.001593	0.001743	28.082	0.086317	0.001994	43.2944	-167.988	-162.499	0.010827	1.657811	-0.064417	-0.065716	-0.026644	43.2944	-0.063955	-0.233071	0.114317	NaN
41	1.000000	1.671124	7.36545e+06	-40689.1	955.823	-29789	0.000000	0.000000	7.671440	0.046329	NaN	0.000000	0.001613	0.001723	28.1214	0.123122	0.002027	60.7261	-111.332	-166.172	0.072547	1.669831	-0.052404	-0.053697	0.046329	60.7261	-0.052976	-0.112127	-0.413180	NaN
41	1.000000	1.683139	7.36545e+06	-40689.1	955.822	-29789	0.000000	0.000000	7.683453	-0.019181	NaN	0.000000	0.001570	0.001721	28.0828	0.080924	0.001987	40.7356	-171.266	-163.889	-0.059928	1.681796	-0.040389	-0.041731	-0.019181	40.7356	-0.040036	-0.045335	0.423086	NaN
41	1.000000	1.695149	7.36545e+06	-40689.1	955.822	-29789	0.000000	0.000000	7.695464	0.016025	NaN	0.000000	0.001600	0.001759	28.121	0.081298	0.001874	43.3922	-82.6468	-164.371	0.037840	1.693843	-0.028379	-0.029684	0.016025	43.3922	-0.028656	-0.021127	-0.758493	NaN
41	1.000000	1.707132	7.36545e+06	-40689.1	955.822	-29789	0.000000	0.000000	7.707449	0.058660	NaN	0.000000	0.001575	0.001734	28.0827	0.069615	0.002020	34.4639	104.295	-162.434	-0.024962	1.705822	-0.016396	-0.017706	0.058660	34.4639	-0.017673	-0.010946	-5.358917	NaN
41	1.000000	1.719141	7.36545e+06	-40689.1	955.822	-29789	0.000000	0.000000	7.719459	0.074292	NaN	0.000000	0.001594	0.001759	28.12	0.055470	0.001977	28.0598	144.449	-164.669	0.007788	1.717845	-0.004386	-0.005683	0.074292	28.0598	-0.006372	-0.004263	-17.4281	NaN
41	1.000000	1.731147	7.36545e+06	-40689.1	955.822	-29789	0.000000	0.000000	7.731627	4.028657	NaN	0.000000	0.001614	0.001730	28.0802	5.013887	0.001856	2701.98	13.0399	-169.22	3.130879	1.729790	0.007619	0.006262	4.028657	2701.98	0.006501	0.005545	726.542	33151.6
41	2.000000	1.737771	7.36545e+06	-40689.1	955.823	-29789	0.000000	0.000000	7.738469	9.321935	NaN	0.000000	0.001592	0.001758	28.1196	9.797628	0.001548	6327.42	4.866141	-168.642	9.105079	1.737507	0.014243	0.013979	9.321935	6327.42	0.013138	0.012882	723.633	50933.8
41	2.000000	1.740770	7.36545e+06	-40689.1	955.821	-29789	0.000000	0.000000	7.741560	11.5549	NaN	0.000000	0.001584	0.001758	28.081	12.9232	0.001741	7423.63	10.6304	-176.314	11.5884	1.740408	0.017242	0.016880	11.5549	7423.63	0.016075	0.016746	690.014	52412.6
41	2.000000	1.743777	7.36545e+06	-40689.1	955.822	-29789	0.000000	0.000000	7.744797	17.1666	NaN	0.000000	0.001596	0.001759	28.1208	15.3422	0.001865	8225.51	10.0535	-173.789	18.7751	1.743345	0.020249	0.019817	17.1666	8225.51	0.018684	0.020516	836.724	52466.9
41	2.000000	1.746715	7.36545e+06	-40689.1	955.822	-29789	0.000000	0.000000	7.747864	20.3114	NaN	0.000000	0.001623	0.001748	28.0807	19.4569	0.001764	11030.1	9.241298	-179.766	20.4612	1.746487	0.023187	0.022959	20.3114	11030.1	0.021806	0.025459	797.796	63157.8
41	2.000000	1.749722	7.36545e+06	-40689.1	955.823	-29789	0.000000	0.000000	7.751034	24.282	NaN	0.000000	0.001600	0.001730	28.1188	21.9633	0.001679	13082.2	4.086016	-176.288	24.2274	1.749381	0.026194	0.025853	24.282	13082.2	0.024802	0.030656	792.084	68264.6
41	2.000000	1.752679	7.36545e+06	-40689.1	955.823	-29789	0.000000	0.000000	7.754427	34.8919	NaN	0.000000	0.001575	0.001765	28.0813	25.5225	0.001894	13478.9	9.927489	179.911	34.224	1.752298	0.029151	0.028770	34.8919	13478.9	0.027209	0.035158	992.428	65677.3
41	2.000000	1.755685	7.36545e+06	-40689.1	955.822	-29789	0.000000	0.000000	7.757727	42.046	NaN	0.000000	0.001589	0.001752	28.1195	27.7393	0.001806	15355.5	3.498883	-176.995	41.0313	1.755430	0.032157	0.031902	42.046	15355.5	0.030103	0.040958	1026.55	69321.2
41	2.000000	1.758807	7.36545e+06	-40689.1	955.822	-29789	0.000000	0.000000	7.761021	46.2187	NaN	0.000000	0.001587	0.001760	28.0815	30.6627	0.001834	16717.3	7.626322	179.432	50.9215	1.758460	0.035279	0.034932	46.2187	16717.3	0.033206	0.047651	969.952	69969
41	2.000000	1.761683	7.36545e+06	-40689.1	955.822	-29789	0.000000	0.000000	7.764231	54.3364	NaN	0.000000	0.001572	0.001784	28.1208	32.5575	0.001730	18818.4	6.013695	179.091	52.7331	1.761378	0.038155	0.037850	54.3364	18818.4	0.035990	0.054076	1004.82	73935.8
41	2.000000	1.764748	7.36545e+06	-40689.1	955.823	-29789	0.000000	0.000000	7.767615	62.088	NaN	0.000000	0.001605	0.001779	28.0819	35.0805	0.001770	19816.4	6.826976	179.112	66.3584	1.764487	0.041221	0.040959	62.088	19816.4	0.038871	0.061143	1015.46	73219.3
41	2.000000	1.767612	7.36545e+06	-40689.1	955.822	-29789	0.000000	0.000000	7.770926	72.9837	NaN	0.000000	0.001680	0.001756	28.1211	36.8511	0.001828	20156	1.332945	-177.364	68.8382	1.767305	0.044084	0.043777	72.9837	20156	0.041368	0.067612	1079.45	70821.5
41	2.000000	1.770675	7.36545e+06	-40689.1	955.822	-29789	0.000000	0.000000	7.774185	77.7699	NaN	0.000000	0.001612	0.001769	28.0812	39.8216	0.001765	22559	0.657551	-177.548	77.3106	1.770367	0.047147	0.046839	77.7699	22559	0.044561	0.076346	1018.65	74593
41	2.000000	1.773642	7.36545e+06	-40689.1	955.822	-29789	0.000000	0.000000	7.777721	91.6113	NaN	0.000000	0.001622	0.001732	28.1215	43.8031	0.001848	23708.3	8.231365	175.424	89.7673	1.773292	0.050114	0.049764	91.6113	23708.3	0.047216	0.084002	1090.59	74736.1
41	2.000000	1.776702	7.36545e+06	-40689.1	955.823	-29789	0.000000	0.000000	7.781058	98.3422	NaN	0.000000	0.001650	0.001755	28.0804	45.1344	0.001729	26102.5	4.258582	178.134	101.178	1.776388	0.053174	0.052860	98.3422	26102.5	0.050348	0.093493	1051.87	77994.8
41	2.000000	1.779608	7.36545e+06	-40689.1	955.823	-29789	0.000000	0.000000	7.784524	111.979	NaN	0.000000	0.001657	0.001744	28.1224	48.685	0.001907	25528	3.824028	178.603	109.164	1.779273	0.056080	0.055745	111.979	25528	0.052790	0.101232	1106.16	73304.6
41	2.000000	1.782672	7.36545e+06	-40689.1	955.822	-29789	0.000000	0.000000	7.788064	123.553	NaN	0.000000	0.001620	0.001707	28.0831	51.3979	0.001881	27331.4	4.651100	177.36	122.594	1.782354	0.059144	0.058826	123.553	27331.4	0.055754	0.111025	1112.84	74942.1
41	2.000000	1.785617	7.36545e+06	-40689.1	955.823	-29789	0.000000	0.000000	7.791473	134.848	NaN	0.000000	0.001632	0.001715	28.1224	53.8925	0.001744	30905.6	2.980515	177.552	132.795	1.785349	0.062089	0.061821	134.848	30905.6	0.058817	0.121599	1108.95	80973.9
41	2.000000	1.788630	7.36545e+06	-40689.1	955.822	-29789	0.000000	0.000000	7.795200	152.217	NaN	0.000000	0.001643	0.001733	28.0819	55.3246	0.001777	31126.2	-2.578531	-176.246	149.039	1.788346	0.065102	0.064818	152.217	31126.2	0.061434	0.131001	1161.95	78571
41	2.000000	1.791570	7.36545e+06	-40689.1	955.824	-29789	0.000000	0.000000	7.798590	163.166	NaN	0.000000	0.001601	0.001736	28.1209	58.1453	0.001818	31977.6	2.160548	178.566	159.25	1.791359	0.068042	0.067831	163.166	31977.6	0.064215	0.141357	1154.29	77707.1
41	2.000000	1.794561	7.36545e+06	-40689.1	955.824	-29789	0.000000	0.000000	7.802366	182.277	NaN	0.000000	0.001649	0.001748	28.0804	60.4762	0.001892	31959.2	3.016283	177.956	179.511	1.794327	0.071033	0.070799	182.277	31959.2	0.066755	0.151139	1206.02	75107.1
41	2.000000	1.797630	7.36545e+06	-40689.1	955.823	-29789	0.000000	0.000000	7.805857	192.52	NaN	0.000000	0.001598	0.001775	28.1218	63.9623	0.001839	34774.2	6.058179	174.825	192.02	1.797308	0.074103	0.073780	192.52	34774.2	0.069950	0.163886	1174.72	78480.1
41	2.000000	1.800585	7.36545e+06	-40689.1	955.824	-29789	0.000000	0.000000	7.809596	211.609	NaN	0.000000	0.001607	0.001771	28.0818	67.0764	0.001868	35901.1	3.777025	176.152	209.244	1.800230	0.077058	0.076702	211.609	35901.1	0.072637	0.174980	1209.33	78412.7
41	2.000000	1.803575	7.36545e+06	-40689.1	955.824	-29789	0.000000	0.000000	7.813167	225.745	NaN	0.000000	0.001568	0.001774	28.1209	70.0329	0.001838	38106.1	6.789553	173.094	223.539	1.803245	0.080047	0.079718	225.745	38106.1	0.075604	0.187630	1203.14	80374.2
41	2.000000	1.806611	7.36545e+06	-40689.1	955.823	-29789	0.000000	0.000000	7.816456	231.906	NaN	0.000000	0.001569	0.001730	28.0802	71.6012	0.001897	37746.7	6.009055	174.041	230.555	1.806212	0.083083	0.082684	231.906	37746.7	0.078475	0.200263	1158.01	77064.2
41	2.000000	1.809557	7.36545e+06	-40689.1	955.822	-29789	0.000000	0.000000	7.820417	256.613	NaN	0.000000	0.001616	0.001739	28.1202	73.6382	0.001749	42096.2	7.222814	171.186	254.008	1.809278	0.086029	0.085751	256.613	42096.2	0.081457	0.213790	1200.3	83180.7
41	2.000000	1.812588	7.36545e+06	-40689.1	955.823	-29789	0.000000	0.000000	7.824042	271.043	NaN	0.000000	0.001576	0.001730	28.0798	76.8771	0.001795	42816.9	4.548810	174.024	271.133	1.812373	0.089060	0.088845	271.043	42816.9	0.084313	0.227134	1193.32	82081.8
41	2.000000	1.815606	7.36545e+06	-40689.1	955.823	-29789	0.000000	0.000000	7.827941	292.493	NaN	0.000000	0.001583	0.001778	28.1202	79.7165	0.001834	43474.1	5.801619	173.04	293.067	1.815265	0.092079	0.091737	292.493	43474.1	0.087033	0.240193	1217.74	81044.5
41	2.000000	1.818614	7.36545e+06	-40689.1	955.823	-29789	0.000000	0.000000	7.831756	312.127	NaN	0.000000	0.001559	0.001735	28.0824	81.6888	0.001756	46527.6	4.633474	173.533	311.688	1.818275	0.095087	0.094748	312.127	46527.6	0.090055	0.255106	1223.52	84163.4
41	2.000000	1.821575	7.36545e+06	-40689.1	955.823	-29789	0.000000	0.000000	7.835787	338.18	NaN	0.000000	0.001601	0.001776	28.1218	83.0288	0.001695	48994.6	2.641632	175.351	338.171	1.821351	0.098047	0.097824	338.18	48994.6	0.092870	0.269371	1255.44	86247.5
41	2.000000	1.824586	7.36545e+06	-40689.1	955.823	-29789	0.000000	0.000000	7.839782	362.097	NaN	0.000000	0.001570	0.001765	28.0815	87.0116	0.001796	48451.9	7.132508	171.013	358.966	1.824236	0.101058	0.100708	362.097	48451.9	0.095453	0.282780	1280.49	83245.3
41	2.000000	1.827525	7.36545e+06	-40689.1	955.823	-29789	0.000000	0.000000	7.843694	385.776	NaN	0.000000	0.001579	0.001757	28.1212	91.1506	0.001794	50810.5	9.003168	168.674	381.079	1.827108	0.103998	0.103580	385.776	50810.5	0.098303	0.297926	1294.87	85049.7
41	2.000000	1.830596	7.36545e+06	-40689.1	955.822	-29789	0.000000	0.000000	7.847280	398.324	NaN	0.000000	0.001603	0.001744	28.08	91.9442	0.001689	54430.6	2.539561	173.982	397.133	1.830422	0.107068	0.106894	398.324	54430.6	0.101579	0.315794	1261.34	88494.2
41	2.000000	1.833576	7.36545e+06	-40689.1	955.824	-29789	0.000000	0.000000	7.851766	434.971	NaN	0.000000	0.001633	0.001737	28.1203	97.0556	0.001798	53993.4	6.845793	170.058	433.626	1.833239	0.110048	0.109711	434.971	53993.4	0.104006	0.329343	1320.72	85958.7
41	2.000000	1.834507	7.36545e+06	-40689.1	955.823	-29789	0.000000	0.000000	7.853018	442.773	NaN	0.000000	0.001593	0.001696	28.0794	96.7093	0.001765	54792	3.870853	173.509	439.127	1.834223	0.110979	0.110695	442.773	54792	0.104918	0.334507	1323.66	86554.1