File: remote_trans/data/nanoindenter/0828-1/data/Data_2025-08-06,11h17m57s/2025-07-22_16-23-58_1_1070.txt
2025-07-22, 16:23:58, 1
Index	Phase	Displacement	Time	Pos X	Pos Y	Pos Z	Rot A	Rot B	Piezo Z	Force A	Force B	Gripper	Voltage A	Voltage B	Temperature	Amplitude force	Amplitude pos	Stiffness	Phase shift	Phase excitation	Force A raw	Displacement raw	HMax	HMax raw	Real Force	Real Stiffness	Contact Depth	Area	Hardness	Reduced Mod.
[#]	[#]	[um]	[s]	[um]	[um]	[um]	[m°]	[m°]	[um]	[uN]	[uN]	[V]	[V]	[V]	[°C]	[uN]	[um]	[N/m]	[°]	[°]	[uN]	[um]	[um]	[um]	[uN]	[N/m]	[um]	[um^2]	[MPa]	[MPa]
1070	1.000000	0.002824	7.37551e+06	-53639.1	1055.82	-29745.7	0.000000	0.000000	6.002825	-0.034676	NaN	0.000000	0.001583	0.001664	28.0828	0.058970	0.000901	65.44	159.895	-166.161	0.032355	0.001518	-1.067072	-1.068378	-0.034676	65.44	-1.066675	-1.788592E+14	1.938747E-16	NaN
1070	1.000000	0.010798	7.37551e+06	-53639.1	1055.82	-29745.7	0.000000	0.000000	6.010803	0.051594	NaN	0.000000	0.001566	0.001664	28.0828	0.035007	0.000924	37.8835	-146.471	-159.641	0.111115	0.009458	-1.059097	-1.060438	0.051594	37.8835	-1.060119	-1.460211E+14	-3.533351E-16	NaN
1070	1.000000	0.018757	7.37551e+06	-53639.1	1055.82	-29745.7	0.000000	0.000000	6.018761	0.037955	NaN	0.000000	0.001560	0.001702	28.0829	0.047225	0.001696	27.8371	-75.3735	-163.699	0.071242	0.017433	-1.051139	-1.052462	0.037955	27.8371	-1.052162	-1.141489E+14	-3.325079E-16	NaN
1070	1.000000	0.026774	7.37551e+06	-53639.1	1055.82	-29745.7	0.000000	0.000000	6.026777	0.005436	NaN	0.000000	0.001521	0.001705	28.0817	0.024156	0.001839	13.138	-137.994	-165.455	0.028917	0.025443	-1.043122	-1.044453	0.005436	13.138	-1.043432	-8.711906E+13	-6.239706E-17	NaN
1070	1.000000	0.034741	7.37551e+06	-53639.1	1055.82	-29745.7	0.000000	0.000000	6.034742	-0.043469	NaN	0.000000	0.001569	0.001735	28.0821	0.021336	0.001903	11.21	-116.339	-168.257	-0.010090	0.033417	-1.035154	-1.036478	-0.043469	11.21	-1.032246	-6.161540E+13	7.054903E-16	NaN
1070	1.000000	0.042753	7.37551e+06	-53639.1	1055.82	-29745.7	0.000000	0.000000	6.042753	-0.074397	NaN	0.000000	0.001586	0.001701	28.0819	0.107471	0.001846	58.2291	-16.2947	-165.748	-0.057434	0.041387	-1.027142	-1.028509	-0.074397	58.2291	-1.026184	-5.106804E+13	1.456812E-15	NaN
1070	1.000000	0.050740	7.37551e+06	-53639.1	1055.82	-29745.7	0.000000	0.000000	6.050743	0.018308	NaN	0.000000	0.001549	0.001705	28.0822	0.053220	0.002079	25.5937	150.113	-164.645	0.042737	0.049497	-1.019156	-1.020399	0.018308	25.5937	-1.019692	-4.176512E+13	-4.383445E-16	NaN
1070	1.000000	0.058759	7.37551e+06	-53639.1	1055.82	-29745.7	0.000000	0.000000	6.058763	0.019411	NaN	0.000000	0.001565	0.001711	28.082	0.050554	0.001990	25.4086	43.3002	-165.889	0.028076	0.057460	-1.011136	-1.012436	0.019411	25.4086	-1.011709	-3.261254E+13	-5.951958E-16	NaN
1070	1.000000	0.066729	7.37551e+06	-53639.1	1055.82	-29745.7	0.000000	0.000000	6.066730	-0.028269	NaN	0.000000	0.001541	0.001705	28.0818	0.026239	0.002033	12.9052	131.436	-165.358	-0.015366	0.065417	-1.003167	-1.004479	-0.028269	12.9052	-1.001524	-2.378423E+13	1.188563E-15	NaN
1070	1.000000	0.074740	7.37551e+06	-53639.1	1055.82	-29745.7	0.000000	0.000000	6.074742	-0.012558	NaN	0.000000	0.001533	0.001743	28.0819	0.156656	0.002021	77.5244	124.43	-164.712	-0.055015	0.073464	-0.995156	-0.996432	-0.012558	77.5244	-0.995034	-1.944937E+13	6.456654E-16	NaN
1070	1.000000	0.082764	7.37551e+06	-53639.1	1055.82	-29745.7	0.000000	0.000000	6.082765	-0.035357	NaN	0.000000	0.001569	0.001723	28.0817	0.055379	0.001972	28.0836	60.4688	-163.024	-0.049008	0.081388	-0.987132	-0.988507	-0.035357	28.0836	-0.986188	-1.478306E+13	2.391700E-15	NaN
1070	1.000000	0.090743	7.37551e+06	-53639.1	1055.82	-29745.7	0.000000	0.000000	6.090747	0.035079	NaN	0.000000	0.001544	0.001696	28.082	0.146505	0.001856	78.9373	-157.573	-161.448	-0.044024	0.089427	-0.979152	-0.980468	0.035079	78.9373	-0.979486	-1.200824E+13	-2.921266E-15	NaN
1070	1.000000	0.098784	7.37551e+06	-53639.1	1055.82	-29745.7	0.000000	0.000000	6.098785	-0.038810	NaN	0.000000	0.001552	0.001713	28.0819	0.084980	0.001936	43.8958	-135.693	-165.609	-0.071965	0.097460	-0.971111	-0.972436	-0.038810	43.8958	-0.970448	-9.072038E+12	4.278009E-15	NaN
1070	1.000000	0.106760	7.37551e+06	-53639.1	1055.82	-29745.7	0.000000	0.000000	6.106762	-0.015736	NaN	0.000000	0.001599	0.001737	28.0817	0.033998	0.001905	17.8514	-125.081	-169.825	-0.072595	0.105460	-0.963136	-0.964436	-0.015736	17.8514	-0.962475	-7.083226E+12	2.221573E-15	NaN
1070	1.000000	0.114769	7.37551e+06	-53639.1	1055.82	-29745.7	0.000000	0.000000	6.114772	0.009559	NaN	0.000000	0.001565	0.001728	28.0819	0.019603	0.001955	10.0277	50.2569	-162.589	-0.059024	0.113448	-0.955127	-0.956448	0.009559	10.0277	-0.955842	-5.765040E+12	-1.658182E-15	NaN
1070	1.000000	0.122785	7.37551e+06	-53639.1	1055.82	-29745.7	0.000000	0.000000	6.122786	-0.015640	NaN	0.000000	0.001542	0.001680	28.0819	0.077106	0.001944	39.6717	-92.7117	-165.271	0.018011	0.121487	-0.947111	-0.948408	-0.015640	39.6717	-0.946815	-4.355859E+12	3.590537E-15	NaN
1070	1.000000	0.130784	7.37551e+06	-53639.1	1055.82	-29745.7	0.000000	0.000000	6.130786	0.001229	NaN	0.000000	0.001570	0.001707	28.0821	0.064221	0.002027	31.6841	-178.271	-165.842	-0.044656	0.129488	-0.939112	-0.940408	0.001229	31.6841	-0.939141	-3.432001E+12	-3.580389E-16	NaN
1070	1.000000	0.138783	7.37551e+06	-53639.1	1055.82	-29745.7	0.000000	0.000000	6.138785	-0.016942	NaN	0.000000	0.001569	0.001704	28.082	0.108878	0.002097	51.9327	-70.8415	-165.725	-0.044771	0.137440	-0.931113	-0.932456	-0.016942	51.9327	-0.930868	-2.654078E+12	6.383376E-15	NaN
1070	1.000000	0.146773	7.37551e+06	-53639.1	1055.82	-29745.7	0.000000	0.000000	6.146774	-0.034865	NaN	0.000000	0.001567	0.001714	28.0818	0.049185	0.001976	24.8862	174.601	-167.042	-0.052725	0.145499	-0.923123	-0.924397	-0.034865	24.8862	-0.922072	-2.019216E+12	1.726662E-14	NaN
1070	1.000000	0.154764	7.37551e+06	-53639.1	1055.82	-29745.7	0.000000	0.000000	6.154764	-0.040430	NaN	0.000000	0.001586	0.001684	28.0819	0.072362	0.002020	35.8207	-114.804	-168.342	0.038878	0.153465	-0.915132	-0.916431	-0.040430	35.8207	-0.914286	-1.585048E+12	2.550711E-14	NaN
1070	1.000000	0.162793	7.37551e+06	-53639.1	1055.82	-29745.7	0.000000	0.000000	6.162793	-0.055608	NaN	0.000000	0.001549	0.001670	28.0831	0.104982	0.002044	51.3625	-147.778	-165.15	-0.037652	0.161510	-0.907103	-0.908386	-0.055608	51.3625	-0.906291	-1.236117E+12	4.498588E-14	NaN
1070	1.000000	0.170817	7.37551e+06	-53639.1	1055.82	-29745.7	0.000000	0.000000	6.170820	0.029121	NaN	0.000000	0.001553	0.001683	28.0833	0.084470	0.002055	41.1133	-163.986	-165.168	0.052720	0.169520	-0.899079	-0.900376	0.029121	41.1133	-0.899610	-1.004148E+12	-2.900032E-14	NaN
1070	1.000000	0.178763	7.37551e+06	-53639.1	1055.82	-29745.7	0.000000	0.000000	6.178765	-0.016863	NaN	0.000000	0.001518	0.001701	28.083	0.008814	0.001892	4.658822	142.416	-165.725	-0.070906	0.177507	-0.891132	-0.892389	-0.016863	4.658822	-0.888418	-7.088045E+11	2.379023E-14	NaN
1070	1.000000	0.186818	7.37551e+06	-53639.1	1055.82	-29745.7	0.000000	0.000000	6.186819	-0.028389	NaN	0.000000	0.001496	0.001745	28.0836	0.038698	0.002079	18.6156	-178.442	-163.783	0.008312	0.185528	-0.883078	-0.884367	-0.028389	18.6156	-0.881934	-5.792452E+11	4.900954E-14	NaN
1070	1.000000	0.194815	7.37551e+06	-53639.1	1055.82	-29745.7	0.000000	0.000000	6.194817	-0.010416	NaN	0.000000	0.001552	0.001768	28.0833	0.027395	0.002017	13.5813	-161.946	-165.38	-0.011878	0.193497	-0.875081	-0.876399	-0.010416	13.5813	-0.874506	-4.596166E+11	2.266247E-14	NaN
1070	1.000000	0.202779	7.37551e+06	-53639.1	1055.82	-29745.7	0.000000	0.000000	6.202780	-0.022610	NaN	0.000000	0.001611	0.001705	28.0832	0.030966	0.002041	15.1747	83.4766	-165.42	-0.023344	0.201463	-0.867117	-0.868432	-0.022610	15.1747	-0.866000	-3.526271E+11	6.412001E-14	NaN
1070	1.000000	0.210778	7.37551e+06	-53639.1	1055.82	-29745.7	0.000000	0.000000	6.210780	-0.012391	NaN	0.000000	0.001536	0.001723	28.0832	0.068493	0.001970	34.7612	4.832259	-161.939	-0.061822	0.209478	-0.859118	-0.860418	-0.012391	34.7612	-0.858850	-2.822002E+11	4.390736E-14	NaN
1070	1.000000	0.218797	7.37551e+06	-53639.1	1055.82	-29745.7	0.000000	0.000000	6.218800	0.002311	NaN	0.000000	0.001512	0.001729	28.083	0.015676	0.002022	7.753473	115.017	-162.617	-0.037518	0.217456	-0.851098	-0.852439	0.002311	7.753473	-0.851322	-2.231696E+11	-1.035513E-14	NaN
1070	1.000000	0.226811	7.37551e+06	-53639.1	1055.82	-29745.7	0.000000	0.000000	6.226812	-0.029616	NaN	0.000000	0.001524	0.001713	28.0834	0.086832	0.001943	44.6961	-169.668	-165.947	-0.020123	0.225489	-0.843084	-0.844407	-0.029616	44.6961	-0.842587	-1.699587E+11	1.742528E-13	NaN
1070	1.000000	0.234823	7.37551e+06	-53639.1	1055.82	-29745.7	0.000000	0.000000	6.234828	0.073621	NaN	0.000000	0.001533	0.001727	28.083	0.113731	0.001940	58.6281	-14.6296	-164.865	-0.024106	0.233518	-0.835073	-0.836378	0.073621	58.6281	-0.836014	-1.384499E+11	-5.317543E-13	NaN
1070	1.000000	0.242809	7.37551e+06	-53639.1	1055.82	-29745.7	0.000000	0.000000	6.242809	-0.079000	NaN	0.000000	0.001541	0.001717	28.0834	0.038030	0.002052	18.5311	-34.4154	-164.455	0.010461	0.241497	-0.827086	-0.828399	-0.079000	18.5311	-0.823889	-9.482935E+10	8.330731E-13	NaN
1070	1.000000	0.250832	7.37551e+06	-53639.1	1055.82	-29745.7	0.000000	0.000000	6.250835	0.009392	NaN	0.000000	0.001521	0.001723	28.0831	0.046758	0.002141	21.8422	-75.1979	-164.764	0.015402	0.249539	-0.819064	-0.820357	0.009392	21.8422	-0.819386	-8.239277E+10	-1.139924E-13	NaN
1070	1.000000	0.258824	7.37551e+06	-53639.1	1055.82	-29745.7	0.000000	0.000000	6.258829	0.041083	NaN	0.000000	0.001547	0.001704	28.0831	0.027967	0.002041	13.7051	123.042	-162.232	-0.008133	0.257546	-0.811071	-0.812350	0.041083	13.7051	-0.813319	-6.817166E+10	-6.026426E-13	NaN
1070	1.000000	0.266860	7.37551e+06	-53639.1	1055.82	-29745.7	0.000000	0.000000	6.266859	-0.076805	NaN	0.000000	0.001598	0.001712	28.0832	0.070198	0.001834	38.2678	-42.2308	-165.279	0.002755	0.265500	-0.803036	-0.804396	-0.076805	38.2678	-0.801531	-4.716717E+10	1.628357E-12	NaN
1070	1.000000	0.274847	7.37551e+06	-53639.1	1055.82	-29745.7	0.000000	0.000000	6.274848	-0.020215	NaN	0.000000	0.001586	0.001719	28.0833	0.049691	0.001882	26.3966	-140.456	-164.05	0.016806	0.273548	-0.795049	-0.796348	-0.020215	26.3966	-0.794475	-3.783110E+10	5.343481E-13	NaN
1070	1.000000	0.282857	7.37551e+06	-53639.1	1055.82	-29745.7	0.000000	0.000000	6.282860	0.012405	NaN	0.000000	0.001537	0.001723	28.0837	0.016121	0.002043	7.889138	-64.5353	-165.831	0.038112	0.281469	-0.787038	-0.788427	0.012405	7.889138	-0.788218	-3.110821E+10	-3.987733E-13	NaN
1070	1.000000	0.290832	7.37551e+06	-53639.1	1055.82	-29745.7	0.000000	0.000000	6.290832	-0.071637	NaN	0.000000	0.001535	0.001715	28.0833	0.050967	0.002066	24.6647	-54.2236	-164.553	-0.072258	0.289535	-0.779064	-0.780360	-0.071637	24.6647	-0.776885	-2.182235E+10	3.282718E-12	NaN
1070	1.000000	0.298843	7.37551e+06	-53639.1	1055.82	-29745.7	0.000000	0.000000	6.298846	0.014627	NaN	0.000000	0.001566	0.001711	28.0821	0.150570	0.002067	72.8479	-118.898	-164.706	-0.013342	0.297520	-0.771053	-0.772376	0.014627	72.8479	-0.771203	-1.826700E+10	-8.007134E-13	NaN
1070	1.000000	0.306865	7.37551e+06	-53639.1	1055.82	-29745.7	0.000000	0.000000	6.306869	0.025985	NaN	0.000000	0.001542	0.001746	28.082	0.159746	0.002075	77.0019	49.8557	-164.717	0.033228	0.305506	-0.763031	-0.764390	0.025985	77.0019	-0.763284	-1.425507E+10	-1.822847E-12	NaN
1070	1.000000	0.314833	7.37551e+06	-53639.1	1055.82	-29745.7	0.000000	0.000000	6.314834	-0.035564	NaN	0.000000	0.001568	0.001712	28.0819	0.090788	0.002119	42.8352	-99.7406	-163.613	0.042057	0.313545	-0.755063	-0.756351	-0.035564	42.8352	-0.754440	-1.080559E+10	3.291241E-12	NaN
1070	1.000000	0.322842	7.37551e+06	-53639.1	1055.82	-29745.7	0.000000	0.000000	6.322848	0.094153	NaN	0.000000	0.001527	0.001687	28.0821	0.089138	0.001942	45.9081	-110.165	-166.569	0.038203	0.321496	-0.747054	-0.748399	0.094153	45.9081	-0.748592	-8.996051E+9	-1.046600E-11	NaN
1070	1.000000	0.330857	7.37551e+06	-53639.1	1055.82	-29745.7	0.000000	0.000000	6.330859	-0.006601	NaN	0.000000	0.001553	0.001693	28.082	0.070427	0.002087	33.7518	102.465	-166.305	-0.017470	0.329528	-0.739038	-0.740368	-0.006601	33.7518	-0.738892	-6.636837E+9	9.946438E-13	NaN
1070	1.000000	0.338862	7.37551e+06	-53639.1	1055.82	-29745.7	0.000000	0.000000	6.338863	-0.047561	NaN	0.000000	0.001568	0.001700	28.0821	0.038038	0.001927	19.7379	-167.551	-164.516	-0.065038	0.337573	-0.731033	-0.732323	-0.047561	19.7379	-0.729226	-4.900726E+9	9.704875E-12	NaN
1070	1.000000	0.346844	7.37551e+06	-53639.1	1055.82	-29745.7	0.000000	0.000000	6.346844	-0.063816	NaN	0.000000	0.001533	0.001710	28.0822	0.114001	0.002072	55.0074	142.382	-165.641	-0.024151	0.345558	-0.723051	-0.724338	-0.063816	55.0074	-0.722181	-3.928444E+9	1.624456E-11	NaN
1070	1.000000	0.354851	7.37551e+06	-53639.1	1055.82	-29745.7	0.000000	0.000000	6.354853	-0.022418	NaN	0.000000	0.001531	0.001702	28.0819	0.069965	0.001981	35.326	-169.627	-162.83	-0.011077	0.353524	-0.715045	-0.716371	-0.022418	35.326	-0.714569	-3.093046E+9	7.248031E-12	NaN
1070	1.000000	0.362894	7.37551e+06	-53639.1	1055.82	-29745.7	0.000000	0.000000	6.362897	0.007794	NaN	0.000000	0.001535	0.001734	28.0818	0.083515	0.002002	41.7166	-162.923	-164.215	-0.062672	0.361547	-0.707001	-0.708348	0.007794	41.7166	-0.707141	-2.449238E+9	-3.182280E-12	NaN
1070	1.000000	0.370837	7.37551e+06	-53639.1	1055.82	-29745.7	0.000000	0.000000	6.370838	-0.038040	NaN	0.000000	0.001544	0.001755	28.0818	0.122833	0.002008	61.1722	-94.9181	-165.222	-0.024968	0.369548	-0.699058	-0.700348	-0.038040	61.1722	-0.698592	-1.871975E+9	2.032103E-11	NaN
1070	1.000000	0.378898	7.37551e+06	-53639.1	1055.82	-29745.7	0.000000	0.000000	6.378902	0.034778	NaN	0.000000	0.001564	0.001726	28.0818	0.095957	0.002038	47.0924	117.514	-163.401	0.053209	0.377563	-0.690997	-0.692333	0.034778	47.0924	-0.691551	-1.500078E+9	-2.318410E-11	NaN
1070	1.000000	0.386860	7.37551e+06	-53639.1	1055.82	-29745.7	0.000000	0.000000	6.386863	0.011086	NaN	0.000000	0.001577	0.001731	28.0817	0.025649	0.002021	12.6913	-59.6966	-163.971	0.001952	0.385572	-0.683035	-0.684323	0.011086	12.6913	-0.683691	-1.171312E+9	-9.464824E-12	NaN
1070	1.000000	0.394878	7.37551e+06	-53639.1	1055.82	-29745.7	0.000000	0.000000	6.394880	-0.009988	NaN	0.000000	0.001588	0.001733	28.0825	0.098376	0.001992	49.3903	-117.395	-164.692	-0.087980	0.393570	-0.675017	-0.676326	-0.009988	49.3903	-0.674866	-8.870975E+8	1.125920E-11	NaN
1070	1.000000	0.402905	7.37551e+06	-53639.1	1055.82	-29745.7	0.000000	0.000000	6.402906	-0.037872	NaN	0.000000	0.001554	0.001754	28.0814	0.057663	0.001910	30.185	-131.236	-162.214	-0.056264	0.401555	-0.666990	-0.668340	-0.037872	30.185	-0.666049	-6.719072E+8	5.636453E-11	NaN
1070	1.000000	0.410919	7.37551e+06	-53639.1	1055.82	-29745.7	0.000000	0.000000	6.410922	0.010598	NaN	0.000000	0.001522	0.001707	28.0816	0.039380	0.002126	18.5203	-51.2208	-164.642	-0.039228	0.409614	-0.658976	-0.660281	0.010598	18.5203	-0.659405	-5.449084E+8	-1.944848E-11	NaN
1070	1.000000	0.418919	7.37551e+06	-53639.1	1055.82	-29745.7	0.000000	0.000000	6.418918	-0.067037	NaN	0.000000	0.001520	0.001719	28.0817	0.021902	0.002072	10.5722	84.1833	-162.817	-0.041392	0.417552	-0.650977	-0.652343	-0.067037	10.5722	-0.646221	-3.594398E+8	1.865042E-10	NaN
1070	1.000000	0.426900	7.37551e+06	-53639.1	1055.82	-29745.7	0.000000	0.000000	6.426902	-0.005060	NaN	0.000000	0.001536	0.001686	28.0817	0.022339	0.001996	11.1929	130.303	-162.732	-0.064631	0.425598	-0.642996	-0.644298	-0.005060	11.1929	-0.642656	-3.211692E+8	1.575432E-11	NaN
1070	1.000000	0.434935	7.37551e+06	-53639.1	1055.82	-29745.7	0.000000	0.000000	6.434933	-0.098888	NaN	0.000000	0.001551	0.001759	28.0826	0.077840	0.002084	37.3495	91.535	-162.885	-0.074547	0.433621	-0.634961	-0.636275	-0.098888	37.3495	-0.632975	-2.365226E+8	4.180899E-10	NaN
1070	1.000000	0.442900	7.37552e+06	-53639.1	1055.82	-29745.7	0.000000	0.000000	6.442902	-0.019844	NaN	0.000000	0.001549	0.001749	28.0828	0.081886	0.002014	40.649	57.889	-164.253	0.018862	0.441591	-0.626995	-0.628305	-0.019844	40.649	-0.626629	-1.935199E+8	1.025439E-10	NaN
1070	1.000000	0.450913	7.37552e+06	-53639.1	1055.82	-29745.7	0.000000	0.000000	6.450918	0.054226	NaN	0.000000	0.001560	0.001722	28.0829	0.107669	0.001963	54.8615	-121.924	-164.125	0.029886	0.449609	-0.618983	-0.620287	0.054226	54.8615	-0.619724	-1.555386E+8	-3.486344E-10	NaN
1070	1.000000	0.458918	7.37552e+06	-53639.1	1055.82	-29745.7	0.000000	0.000000	6.458921	0.015023	NaN	0.000000	0.001572	0.001715	28.0829	0.126512	0.001919	65.939	72.8661	-164.665	0.035961	0.457576	-0.610978	-0.612320	0.015023	65.939	-0.611148	-1.185536E+8	-1.267157E-10	NaN
1070	1.000000	0.466912	7.37552e+06	-53639.1	1055.82	-29745.7	0.000000	0.000000	6.466915	0.010585	NaN	0.000000	0.001564	0.001689	28.083	0.073866	0.001942	38.0441	48.8728	-161.068	0.057379	0.465645	-0.602984	-0.604251	0.010585	38.0441	-0.603192	-9.213422E+7	-1.148817E-10	NaN
1070	1.000000	0.474905	7.37552e+06	-53639.1	1055.82	-29745.7	0.000000	0.000000	6.474907	0.011373	NaN	0.000000	0.001576	0.001710	28.0832	0.022437	0.001828	12.2719	-16.6286	-167.972	0.009470	0.473593	-0.594991	-0.596303	0.011373	12.2719	-0.595686	-7.261654E+7	-1.566126E-10	NaN
1070	1.000000	0.482949	7.37552e+06	-53639.1	1055.82	-29745.7	0.000000	0.000000	6.482950	-0.023280	NaN	0.000000	0.001603	0.001733	28.0828	0.021695	0.001889	11.4829	-56.5065	-162.11	0.008065	0.481639	-0.586947	-0.588257	-0.023280	11.4829	-0.585427	-5.243223E+7	4.439969E-10	NaN
1070	1.000000	0.490914	7.37552e+06	-53639.1	1055.82	-29745.7	0.000000	0.000000	6.490916	-0.025813	NaN	0.000000	0.001578	0.001724	28.083	0.054787	0.001943	28.1941	-25.8801	-162.981	0.031909	0.489675	-0.578981	-0.580220	-0.025813	28.1941	-0.578295	-4.180084E+7	6.175124E-10	NaN
1070	1.000000	0.498950	7.37552e+06	-53639.1	1055.82	-29745.7	0.000000	0.000000	6.498950	-0.053432	NaN	0.000000	0.001573	0.001717	28.0826	0.048508	0.002054	23.6131	-50.1482	-168.346	-0.057557	0.497637	-0.570946	-0.572259	-0.053432	23.6131	-0.569249	-3.135106E+7	1.704313E-9	NaN
1070	1.000000	0.506940	7.37552e+06	-53639.1	1055.82	-29745.7	0.000000	0.000000	6.506940	-0.062188	NaN	0.000000	0.001547	0.001727	28.0827	0.082052	0.001914	42.8687	-75.2609	-165.131	0.001025	0.505637	-0.562956	-0.564259	-0.062188	42.8687	-0.561868	-2.478620E+7	2.508983E-9	NaN
1070	1.000000	0.514968	7.37552e+06	-53639.1	1055.82	-29745.7	0.000000	0.000000	6.514968	-0.045528	NaN	0.000000	0.001554	0.001732	28.083	0.053274	0.001945	27.3863	137.121	-164.001	-0.109226	0.513665	-0.554928	-0.556231	-0.045528	27.3863	-0.553681	-1.909553E+7	2.384231E-9	NaN
1070	1.000000	0.522991	7.37552e+06	-53639.1	1055.82	-29745.7	0.000000	0.000000	6.522993	-0.004664	NaN	0.000000	0.001564	0.001716	28.0829	0.040919	0.002046	19.9976	73.5525	-167.358	-0.018635	0.521658	-0.546905	-0.548238	-0.004664	19.9976	-0.546730	-1.529861E+7	3.048356E-10	NaN
1070	1.000000	0.530950	7.37552e+06	-53639.1	1055.82	-29745.7	0.000000	0.000000	6.530949	-0.073244	NaN	0.000000	0.001578	0.001711	28.0831	0.066005	0.001965	33.5957	113.443	-164.872	-0.071101	0.529631	-0.538946	-0.540265	-0.073244	33.5957	-0.537311	-1.132535E+7	6.467265E-9	NaN
1070	1.000000	0.538949	7.37552e+06	-53639.1	1055.82	-29745.7	0.000000	0.000000	6.538949	-0.047676	NaN	0.000000	0.001534	0.001681	28.0829	0.062091	0.002063	30.0943	-134.325	-166.045	-0.121408	0.537652	-0.530947	-0.532244	-0.047676	30.0943	-0.529759	-8.89662e+06	5.358923E-9	NaN
1070	1.000000	0.546947	7.37552e+06	-53639.1	1055.82	-29745.7	0.000000	0.000000	6.546948	-0.036136	NaN	0.000000	0.001566	0.001657	28.0831	0.085107	0.001980	42.9805	107.492	-165.506	-0.061175	0.545659	-0.522949	-0.524236	-0.036136	42.9805	-0.522318	-7.01181e+06	5.153535E-9	NaN
1070	1.000000	0.554953	7.37552e+06	-53639.1	1055.82	-29745.7	0.000000	0.000000	6.554955	-0.010306	NaN	0.000000	0.001579	0.001659	28.0832	0.118626	0.001866	63.5663	158.865	-167.242	-0.041438	0.553653	-0.514942	-0.516243	-0.010306	63.5663	-0.514821	-5.51492e+06	1.868742E-9	NaN
1070	1.000000	0.562952	7.37552e+06	-53639.1	1055.82	-29745.7	0.000000	0.000000	6.562953	-0.031347	NaN	0.000000	0.001581	0.001683	28.0831	0.041418	0.002076	19.9526	150.69	-164.356	0.035974	0.561681	-0.506944	-0.508215	-0.031347	19.9526	-0.505766	-4.12494e+06	7.599325E-9	NaN
1070	1.000000	0.570960	7.37552e+06	-53639.1	1055.82	-29745.7	0.000000	0.000000	6.570963	0.024103	NaN	0.000000	0.001593	0.001700	28.0827	0.021271	0.002133	9.971573	-45.9267	-164.584	0.090802	0.569595	-0.498936	-0.500300	0.024103	9.971573	-0.500748	-3.51123e+06	-6.864532E-9	NaN
1070	1.000000	0.578953	7.37552e+06	-53639.1	1055.82	-29745.7	0.000000	0.000000	6.578956	-0.007026	NaN	0.000000	0.001534	0.001659	28.0817	0.167706	0.002025	82.8208	-104.987	-166.083	0.006738	0.577655	-0.490942	-0.492241	-0.007026	82.8208	-0.490879	-2.55664e+06	2.748241E-9	NaN
1070	1.000000	0.586938	7.37552e+06	-53639.1	1055.82	-29745.7	0.000000	0.000000	6.586939	-0.036447	NaN	0.000000	0.001561	0.001666	28.082	0.145484	0.002080	69.9462	4.709603	-166.467	0.001816	0.585618	-0.482958	-0.484277	-0.036447	69.9462	-0.482567	-1.95637e+06	1.863001E-8	NaN
1070	1.000000	0.594978	7.37552e+06	-53639.1	1055.82	-29745.7	0.000000	0.000000	6.594980	0.002773	NaN	0.000000	0.001551	0.001695	28.0819	0.126768	0.001931	65.6584	-152.528	-162.596	-0.008137	0.593645	-0.474918	-0.476251	0.002773	65.6584	-0.474950	-1.53037e+06	-1.811930E-9	NaN
1070	1.000000	0.602991	7.37552e+06	-53639.1	1055.82	-29745.7	0.000000	0.000000	6.602995	0.021709	NaN	0.000000	0.001543	0.001664	28.0818	0.123217	0.002032	60.6416	-75.7061	-168.014	-0.060845	0.601714	-0.466904	-0.468182	0.021709	60.6416	-0.467173	-1.19054e+06	-1.823424E-8	NaN
1070	1.000000	0.611008	7.37552e+06	-53639.1	1055.82	-29745.7	0.000000	0.000000	6.611009	-0.038426	NaN	0.000000	0.001606	0.001632	28.082	0.062606	0.002060	30.3958	-124.045	-168.171	-0.078224	0.609640	-0.458888	-0.460256	-0.038426	30.3958	-0.457940	-883195	4.350786E-8	NaN
1070	1.000000	0.618970	7.37552e+06	-53639.1	1055.82	-29745.7	0.000000	0.000000	6.618971	-0.045414	NaN	0.000000	0.001591	0.001688	28.0818	0.133802	0.002042	65.5309	16.8807	-161.716	0.009032	0.617680	-0.450926	-0.452215	-0.045414	65.5309	-0.450406	-691922	6.563462E-8	NaN
1070	1.000000	0.626964	7.37552e+06	-53639.1	1055.82	-29745.7	0.000000	0.000000	6.626968	0.041856	NaN	0.000000	0.001570	0.001698	28.0819	0.049799	0.001916	25.9967	-123.501	-162.753	0.015185	0.625695	-0.442932	-0.444201	0.041856	25.9967	-0.444139	-564623	-7.413054E-8	NaN
1070	1.000000	0.634958	7.37552e+06	-53639.1	1055.82	-29745.7	0.000000	0.000000	6.634961	0.026981	NaN	0.000000	0.001583	0.001680	28.082	0.109644	0.001898	57.776	62.254	-163.967	-0.046715	0.633690	-0.434938	-0.436206	0.026981	57.776	-0.435288	-423471	-6.371276E-8	NaN
1070	1.000000	0.643001	7.37552e+06	-53639.1	1055.82	-29745.7	0.000000	0.000000	6.643004	-0.002801	NaN	0.000000	0.001613	0.001696	28.0819	0.047204	0.002022	23.3451	-164.956	-165.194	-0.014006	0.641651	-0.426894	-0.428245	-0.002801	23.3451	-0.426804	-321244	8.717930E-9	NaN
1070	1.000000	0.650998	7.37552e+06	-53639.1	1055.82	-29745.7	0.000000	0.000000	6.651001	0.009680	NaN	0.000000	0.001593	0.001712	28.0819	0.033110	0.002043	16.2082	25.3852	-163.964	-0.007434	0.649698	-0.418897	-0.420197	0.009680	16.2082	-0.419345	-251842	-3.843855E-8	NaN
1070	1.000000	0.659000	7.37552e+06	-53639.1	1055.82	-29745.7	0.000000	0.000000	6.658999	-0.080863	NaN	0.000000	0.001574	0.001732	28.0818	0.068079	0.001967	34.6139	149.638	-165.3	-0.054428	0.657732	-0.410896	-0.412164	-0.080863	34.6139	-0.409144	-180394	4.482563E-7	NaN
1070	1.000000	0.667022	7.37552e+06	-53639.1	1055.82	-29745.7	0.000000	0.000000	6.667023	-0.040258	NaN	0.000000	0.001581	0.001700	28.082	0.056534	0.002009	28.1413	-120.72	-164.158	-0.065195	0.665673	-0.402873	-0.404223	-0.040258	28.1413	-0.401800	-141796	2.839124E-7	NaN
1070	1.000000	0.675015	7.37552e+06	-53639.1	1055.82	-29745.7	0.000000	0.000000	6.675016	-0.030640	NaN	0.000000	0.001579	0.001741	28.0821	0.111662	0.002001	55.8005	-121.182	-163.549	-0.023176	0.673640	-0.394880	-0.396255	-0.030640	55.8005	-0.394469	-111441	2.749438E-7	NaN
1070	1.000000	0.683015	7.37552e+06	-53639.1	1055.82	-29745.7	0.000000	0.000000	6.683021	0.071845	NaN	0.000000	0.001599	0.001706	28.0822	0.012579	0.002082	6.041212	-102.789	-165.261	0.023965	0.681618	-0.386880	-0.388278	0.071845	6.041212	-0.395799	-116426	-6.170813E-7	NaN
1070	1.000000	0.690999	7.37552e+06	-53639.1	1055.82	-29745.7	0.000000	0.000000	6.691001	-0.014339	NaN	0.000000	0.001585	0.001702	28.0819	0.018124	0.001961	9.243290	39.8379	-167.41	0.033555	0.689623	-0.378897	-0.380272	-0.014339	9.243290	-0.377733	-64171.9	2.234495E-7	NaN
1070	1.000000	0.699061	7.37552e+06	-53639.1	1055.82	-29745.7	0.000000	0.000000	6.699061	-0.075014	NaN	0.000000	0.001561	0.001691	28.0819	0.064290	0.001983	32.419	-150.444	-164.125	-0.019297	0.697732	-0.370834	-0.372164	-0.075014	32.419	-0.369099	-48211.2	1.555948E-6	NaN
1070	1.000000	0.707054	7.37552e+06	-53639.1	1055.82	-29745.7	0.000000	0.000000	6.707057	0.012595	NaN	0.000000	0.001578	0.001691	28.0823	0.067702	0.001970	34.3618	115.284	-162.812	0.017656	0.705660	-0.362842	-0.364236	0.012595	34.3618	-0.363117	-39525.2	-3.186576E-7	NaN
1070	1.000000	0.715014	7.37552e+06	-53639.1	1055.82	-29745.7	0.000000	0.000000	6.715017	0.026391	NaN	0.000000	0.001530	0.001692	28.0833	0.104473	0.002045	51.083	39.7332	-164.959	0.015430	0.713732	-0.354882	-0.356163	0.026391	51.083	-0.355269	-30436.5	-8.670867E-7	NaN
1070	1.000000	0.723006	7.37552e+06	-53639.1	1055.82	-29745.7	0.000000	0.000000	6.723010	0.027126	NaN	0.000000	0.001543	0.001714	28.0832	0.086592	0.002002	43.2432	45.244	-162.735	0.034906	0.721745	-0.346889	-0.348150	0.027126	43.2432	-0.347360	-23370.1	-1.160701E-6	NaN
1070	1.000000	0.731050	7.37552e+06	-53639.1	1055.82	-29745.7	0.000000	0.000000	6.731053	0.009865	NaN	0.000000	0.001541	0.001688	28.083	0.059430	0.001962	30.2923	-176.985	-165.72	0.007412	0.729701	-0.338846	-0.340195	0.009865	30.2923	-0.339090	-17712.7	-5.569499E-7	NaN
1070	1.000000	0.739042	7.37552e+06	-53639.1	1055.82	-29745.7	0.000000	0.000000	6.739045	0.006694	NaN	0.000000	0.001562	0.001697	28.0834	0.079961	0.001984	40.2992	122.286	-162.624	-0.011664	0.737725	-0.330854	-0.332171	0.006694	40.2992	-0.330978	-13482.7	-4.964975E-7	NaN
1070	1.000000	0.747031	7.37552e+06	-53639.1	1055.82	-29745.7	0.000000	0.000000	6.747033	0.000847	NaN	0.000000	0.001542	0.001709	28.0832	0.060157	0.001928	31.1998	-175.351	-162.758	0.021233	0.745765	-0.322865	-0.324131	0.000847	31.1998	-0.322885	-10258.3	-8.255006E-8	NaN
1070	1.000000	0.755046	7.37552e+06	-53639.1	1055.82	-29745.7	0.000000	0.000000	6.755048	-0.003717	NaN	0.000000	0.001533	0.001677	28.0834	0.040567	0.001900	21.3493	-144.104	-167.157	-0.055199	0.753724	-0.314850	-0.316172	-0.003717	21.3493	-0.314719	-7776.84	4.779654E-7	NaN
1070	1.000000	0.763039	7.37552e+06	-53639.1	1055.82	-29745.7	0.000000	0.000000	6.763044	0.055889	NaN	0.000000	0.001506	0.001660	28.0833	0.073845	0.002072	35.6337	-45.5185	-166.213	-0.003949	0.761719	-0.306856	-0.308176	0.055889	35.6337	-0.308032	-6193.31	-9.024078E-6	NaN
1070	1.000000	0.771033	7.37552e+06	-53639.1	1055.82	-29745.7	0.000000	0.000000	6.771033	-0.043278	NaN	0.000000	0.001579	0.001663	28.0832	0.030891	0.002091	14.7736	-94.9394	-166.007	0.005343	0.769750	-0.298863	-0.300146	-0.043278	14.7736	-0.296666	-4197.14	1.031131E-5	NaN
1070	1.000000	0.779049	7.37552e+06	-53639.1	1055.82	-29745.7	0.000000	0.000000	6.779050	-0.034802	NaN	0.000000	0.001543	0.001701	28.0832	0.058243	0.001952	29.8349	41.9654	-167.023	0.009804	0.777784	-0.290847	-0.292112	-0.034802	29.8349	-0.289972	-3333.35	1.044043E-5	NaN
1070	1.000000	0.787053	7.37552e+06	-53639.1	1055.82	-29745.7	0.000000	0.000000	6.787058	0.062589	NaN	0.000000	0.001592	0.001691	28.083	0.058698	0.002053	28.5888	-146.214	-166.045	0.041119	0.785701	-0.282842	-0.284194	0.062589	28.5888	-0.284484	-2757.49	-2.269785E-5	NaN
1070	1.000000	0.795068	7.37552e+06	-53639.1	1055.82	-29745.7	0.000000	0.000000	6.795069	-0.045718	NaN	0.000000	0.001572	0.001710	28.083	0.069230	0.002005	34.5239	-143.38	-167.025	0.029951	0.793717	-0.274827	-0.276178	-0.045718	34.5239	-0.273834	-1904.31	2.400755E-5	NaN
1070	1.000000	0.803054	7.37552e+06	-53639.1	1055.82	-29745.7	0.000000	0.000000	6.803056	-0.009364	NaN	0.000000	0.001536	0.001670	28.0832	0.023916	0.001975	12.1107	-57.2032	-167.597	0.003518	0.801681	-0.266842	-0.268214	-0.009364	12.1107	-0.266262	-1460.97	6.409208E-6	NaN
1070	1.000000	0.811052	7.37552e+06	-53639.1	1055.82	-29745.7	0.000000	0.000000	6.811054	-0.000780	NaN	0.000000	0.001554	0.001699	28.0831	0.045373	0.001998	22.7045	81.5801	-161.853	-0.005638	0.809755	-0.258844	-0.260140	-0.000780	22.7045	-0.258818	-1124.06	6.938621E-7	NaN
1070	1.000000	0.819096	7.37552e+06	-53639.1	1055.82	-29745.7	0.000000	0.000000	6.819099	0.013353	NaN	0.000000	0.001548	0.001730	28.083	0.070304	0.002073	33.9082	58.1432	-165.493	-0.013443	0.817706	-0.250800	-0.252190	0.013353	33.9082	-0.251095	-854.863	-1.562048E-5	NaN
1070	1.000000	0.827034	7.37552e+06	-53639.1	1055.82	-29745.7	0.000000	0.000000	6.827034	-0.060978	NaN	0.000000	0.001554	0.001704	28.083	0.104385	0.001920	54.3716	-116.601	-165.4	-0.074842	0.825777	-0.242861	-0.244118	-0.060978	54.3716	-0.242020	-618.124	9.864976E-5	NaN
1070	1.000000	0.835078	7.37552e+06	-53639.1	1055.82	-29745.7	0.000000	0.000000	6.835081	0.010747	NaN	0.000000	0.001584	0.001698	28.0832	0.049383	0.001968	25.0868	-33.3246	-163.137	0.007678	0.833802	-0.234818	-0.236094	0.010747	25.0868	-0.235139	-482.43	-2.227637E-5	NaN
1070	1.000000	0.843102	7.37552e+06	-53639.1	1055.82	-29745.7	0.000000	0.000000	6.843103	-0.036549	NaN	0.000000	0.001557	0.001705	28.0832	0.037927	0.002026	18.7232	23.5993	-163.266	-0.072948	0.841768	-0.226793	-0.228128	-0.036549	18.7232	-0.225329	-337.724	0.000108	NaN
1070	1.000000	0.851079	7.37552e+06	-53639.1	1055.82	-29745.7	0.000000	0.000000	6.851076	-0.125955	NaN	0.000000	0.001582	0.001699	28.082	0.103434	0.002013	51.3868	-53.9824	-166.389	-0.115690	0.849745	-0.218817	-0.220150	-0.125955	51.3868	-0.216978	-248.482	0.000507	NaN
1070	1.000000	0.859086	7.37552e+06	-53639.1	1055.82	-29745.7	0.000000	0.000000	6.859093	0.090687	NaN	0.000000	0.001666	0.001694	28.0817	0.083387	0.001970	42.3367	80.8996	-159.649	0.052026	0.857760	-0.210809	-0.212136	0.090687	42.3367	-0.212416	-209.834	-0.000432	NaN
1070	1.000000	0.867105	7.37552e+06	-53639.1	1055.82	-29745.7	0.000000	0.000000	6.867106	-0.046277	NaN	0.000000	0.001648	0.001738	28.0819	0.041727	0.002088	19.9845	48.7085	-160.864	-0.101358	0.865786	-0.202790	-0.204109	-0.046277	19.9845	-0.201054	-137.089	0.000338	NaN
1070	1.000000	0.875067	7.37552e+06	-53639.1	1055.82	-29745.7	0.000000	0.000000	6.875068	-0.025958	NaN	0.000000	0.001651	0.001696	28.0817	0.101593	0.001999	50.8112	-147.469	-165.321	-0.020486	0.873786	-0.194829	-0.196110	-0.025958	50.8112	-0.194446	-106.664	0.000243	NaN
1070	1.000000	0.883080	7.37552e+06	-53639.1	1055.82	-29745.7	0.000000	0.000000	6.883080	-0.037239	NaN	0.000000	0.001660	0.001681	28.0822	0.099016	0.001940	51.0493	-76.0589	-165.976	0.105868	0.881764	-0.186816	-0.188132	-0.037239	51.0493	-0.186269	-77.8924	0.000478	NaN
1070	1.000000	0.891118	7.37552e+06	-53639.1	1055.82	-29745.7	0.000000	0.000000	6.891122	0.026445	NaN	0.000000	0.001661	0.001710	28.0821	0.059742	0.002082	28.6926	-141.147	-164.895	0.057614	0.889818	-0.178777	-0.180078	0.026445	28.6926	-0.179469	-59.7615	-0.000443	NaN
1070	1.000000	0.899078	7.37552e+06	-53639.1	1055.82	-29745.7	0.000000	0.000000	6.899078	-0.052607	NaN	0.000000	0.001687	0.001692	28.0819	0.108959	0.001905	57.1836	27.5	-169.998	-0.007423	0.897813	-0.170818	-0.172082	-0.052607	57.1836	-0.170128	-41.2893	0.001274	NaN
1070	1.000000	0.907124	7.37552e+06	-53639.1	1055.82	-29745.7	0.000000	0.000000	6.907125	-0.023838	NaN	0.000000	0.001667	0.001721	28.0821	0.035931	0.002004	17.9316	159.679	-165.094	-0.006005	0.905787	-0.162772	-0.164109	-0.023838	17.9316	-0.161775	-29.4753	0.000809	NaN
1070	1.000000	0.915111	7.37552e+06	-53639.1	1055.82	-29745.7	0.000000	0.000000	6.915113	-0.008215	NaN	0.000000	0.001642	0.001665	28.0818	0.024460	0.002028	12.0593	49.7344	-162.325	-0.054004	0.913744	-0.154785	-0.156152	-0.008215	12.0593	-0.154274	-21.6521	0.000379	NaN
1070	1.000000	0.923111	7.37552e+06	-53639.1	1055.82	-29745.7	0.000000	0.000000	6.923113	-0.009659	NaN	0.000000	0.001638	0.001713	28.082	0.078334	0.001999	39.1872	-111.849	-164.108	-0.055067	0.921799	-0.146785	-0.148097	-0.009659	39.1872	-0.146600	-15.6928	0.000615	NaN
1070	1.000000	0.931105	7.37552e+06	-53639.1	1055.82	-29745.7	0.000000	0.000000	6.931109	0.034412	NaN	0.000000	0.001649	0.001691	28.0819	0.080249	0.002124	37.7859	16.1038	-164.572	0.059106	0.929818	-0.138791	-0.140078	0.034412	37.7859	-0.139474	-11.5631	-0.002976	NaN
1070	1.000000	0.939103	7.37552e+06	-53639.1	1055.82	-29745.7	0.000000	0.000000	6.939102	-0.078455	NaN	0.000000	0.001630	0.001688	28.0822	0.111020	0.001943	57.1393	-128.338	-162.219	0.003816	0.937801	-0.130793	-0.132094	-0.078455	57.1393	-0.129763	-7.540544	0.010404	NaN
1070	1.000000	0.947114	7.37552e+06	-53639.1	1055.82	-29745.7	0.000000	0.000000	6.947115	-0.026877	NaN	0.000000	0.001618	0.001715	28.082	0.104696	0.002069	50.596	76.0766	-166.055	-0.078650	0.945837	-0.122782	-0.124058	-0.026877	50.596	-0.122383	-5.394504	0.004982	NaN
1070	1.000000	0.955125	7.37552e+06	-53639.1	1055.82	-29745.7	0.000000	0.000000	6.955130	0.057990	NaN	0.000000	0.001618	0.001703	28.0819	0.151043	0.001935	78.0731	25.9386	-163.438	-0.030056	0.953818	-0.114770	-0.116078	0.057990	78.0731	-0.115328	-3.880192	-0.014945	NaN
1070	1.000000	0.963133	7.37552e+06	-53639.1	1055.82	-29745.7	0.000000	0.000000	6.963133	-0.049422	NaN	0.000000	0.001642	0.001696	28.0821	0.040638	0.002118	19.1898	121.878	-162.739	-0.002189	0.961890	-0.106763	-0.108005	-0.049422	19.1898	-0.104831	-2.330890	0.021203	NaN
1070	1.000000	0.971118	7.37552e+06	-53639.1	1055.82	-29745.7	0.000000	0.000000	6.971119	-0.027050	NaN	0.000000	0.001659	0.001708	28.0822	0.060237	0.002042	29.4988	99.7465	-163.933	0.027968	0.969808	-0.098778	-0.100088	-0.027050	29.4988	-0.098090	-1.656597	0.016329	NaN
1070	1.000000	0.979144	7.37552e+06	-53639.1	1055.82	-29745.7	0.000000	0.000000	6.979148	0.061123	NaN	0.000000	0.001659	0.001712	28.0823	0.125683	0.001996	62.9777	-178.017	-165.461	0.098398	0.977824	-0.090752	-0.092071	0.061123	62.9777	-0.091480	-1.170546	-0.052218	NaN
1070	1.000000	0.987143	7.37552e+06	-53639.1	1055.82	-29745.7	0.000000	0.000000	6.987146	0.020818	NaN	0.000000	0.001634	0.001730	28.0837	0.057051	0.001879	30.3643	137.424	-163.678	-0.017916	0.985790	-0.082753	-0.084106	0.020818	30.3643	-0.083267	-0.745584	-0.027922	NaN
1070	1.000000	0.995139	7.37552e+06	-53639.1	1055.82	-29745.7	0.000000	0.000000	6.995141	-0.010308	NaN	0.000000	0.001627	0.001657	28.0834	0.115659	0.001969	58.7298	-76.1613	-163.523	0.024370	0.993848	-0.074757	-0.076048	-0.010308	58.7298	-0.074625	-0.451653	0.022823	NaN
1070	1.000000	1.003141	7.37552e+06	-53639.1	1055.82	-29745.7	0.000000	0.000000	7.003144	0.001773	NaN	0.000000	0.001629	0.001714	28.0833	0.060669	0.001927	31.4874	70.3019	-166.343	-0.034176	1.001874	-0.066754	-0.068021	0.001773	31.4874	-0.066797	-0.279321	-0.006346	NaN
1070	1.000000	1.011149	7.37552e+06	-53639.1	1055.82	-29745.7	0.000000	0.000000	7.011151	0.000836	NaN	0.000000	0.001667	0.001667	28.0835	0.063614	0.002096	30.3496	126.219	-164.099	-0.027470	1.009836	-0.058747	-0.060060	0.000836	30.3496	-0.058767	-0.165959	-0.005034	NaN
1070	1.000000	1.019156	7.37552e+06	-53639.1	1055.82	-29745.7	0.000000	0.000000	7.019156	-0.061336	NaN	0.000000	0.001677	0.001710	28.0834	0.084055	0.002016	41.6978	-26.1042	-163.237	-0.042034	1.017801	-0.050739	-0.052095	-0.061336	41.6978	-0.049636	-0.088965	0.689443	NaN
1070	1.000000	1.027180	7.37552e+06	-53639.1	1055.82	-29745.7	0.000000	0.000000	7.027182	-0.025828	NaN	0.000000	0.001662	0.001709	28.0837	0.027996	0.002022	13.8449	10.5429	-165.001	0.055776	1.025838	-0.042715	-0.044057	-0.025828	13.8449	-0.041316	-0.049591	0.520826	NaN
1070	1.000000	1.035098	7.37552e+06	-53639.1	1055.82	-29745.7	0.000000	0.000000	7.035098	-0.063548	NaN	0.000000	0.001653	0.001671	28.0835	0.128499	0.002084	61.6732	-158.771	-165.099	-0.118315	1.033861	-0.034797	-0.036034	-0.063548	61.6732	-0.034025	-0.029983	2.119445	NaN
1070	1.000000	1.043163	7.37552e+06	-53639.1	1055.82	-29745.7	0.000000	0.000000	7.043167	0.025880	NaN	0.000000	0.001627	0.001681	28.0832	0.036350	0.002012	18.0661	-178.45	-166.388	0.057730	1.041868	-0.026732	-0.028028	0.025880	18.0661	-0.027807	-0.020032	-1.291914	NaN
1070	1.000000	1.051147	7.37552e+06	-53639.1	1055.82	-29745.7	0.000000	0.000000	7.051148	-0.013224	NaN	0.000000	0.001630	0.001681	28.0835	0.041374	0.001998	20.7111	-73.1662	-164.408	-0.050780	1.049824	-0.018749	-0.020071	-0.013224	20.7111	-0.018270	-0.011344	1.165786	NaN
1070	1.000000	1.059142	7.37552e+06	-53639.1	1055.82	-29745.7	0.000000	0.000000	7.059146	0.038716	NaN	0.000000	0.001614	0.001647	28.0835	0.113849	0.001999	56.9488	112.005	-167.165	0.023118	1.057865	-0.010754	-0.012030	0.038716	56.9488	-0.011264	-0.007108	-5.446470	NaN
1070	1.000000	1.067132	7.37552e+06	-53639.1	1055.82	-29745.7	0.000000	0.000000	7.067148	0.337006	NaN	0.000000	0.001643	0.001652	28.0837	0.644771	0.001916	336.565	16.0399	-163.824	-0.003509	1.065820	-0.002764	-0.004076	0.337006	336.565	-0.003515	-0.002462	-136.865	NaN
1070	1.000000	1.075018	7.37552e+06	-53639.1	1055.82	-29745.7	0.000000	0.000000	7.075386	8.905337	NaN	0.000000	0.001645	0.001650	28.0834	8.473068	0.001726	4909.83	9.724927	-170.726	7.194069	1.073795	0.005122	0.003899	8.905337	4909.83	0.003762	0.003031	2938.03	81478.4
1070	2.000000	1.077659	7.37552e+06	-53639.1	1055.82	-29745.7	0.000000	0.000000	7.078139	11.6018	NaN	0.000000	0.001672	0.001655	28.0836	11.8429	0.001631	7261.18	8.989001	-176.394	11.7808	1.077336	0.007764	0.007440	11.6018	7261.18	0.006565	0.005608	2068.9	88590.8
1070	2.000000	1.079637	7.37552e+06	-53639.1	1055.82	-29745.7	0.000000	0.000000	7.080261	15.1047	NaN	0.000000	0.001662	0.001645	28.0833	13.8461	0.001784	7761.2	7.807555	-175.521	14.3824	1.079371	0.009742	0.009475	15.1047	7761.2	0.008282	0.007334	2059.58	82800.9
1070	2.000000	1.081650	7.37552e+06	-53639.1	1055.82	-29745.7	0.000000	0.000000	7.082376	17.6097	NaN	0.000000	0.001695	0.001662	28.0833	16.2652	0.001678	9693.3	10.4009	-179.033	18.0261	1.081308	0.011754	0.011413	17.6097	9693.3	0.010391	0.009620	1830.58	90294.8
1070	2.000000	1.083652	7.37552e+06	-53639.1	1055.82	-29745.7	0.000000	0.000000	7.084608	23.1986	NaN	0.000000	0.001681	0.001677	28.0833	18.7767	0.001887	9950.82	7.415127	-174.115	23.7135	1.083323	0.013756	0.013427	23.1986	9950.82	0.012008	0.011499	2017.39	84780.5
1070	2.000000	1.085559	7.37552e+06	-53639.1	1055.82	-29745.7	0.000000	0.000000	7.086636	26.1167	NaN	0.000000	0.001686	0.001693	28.0839	21.3868	0.001856	11520.6	8.989430	-179.382	24.4322	1.085278	0.015664	0.015383	26.1167	11520.6	0.013963	0.013928	1875.16	89188.1
1070	2.000000	1.087593	7.37552e+06	-53639.1	1055.82	-29745.7	0.000000	0.000000	7.088768	28.5183	NaN	0.000000	0.001656	0.001708	28.0822	22.6772	0.001749	12968	2.449764	-174.599	27.6767	1.087317	0.017697	0.017422	28.5183	12968	0.016048	0.016708	1706.83	91659.7
1070	2.000000	1.089547	7.37552e+06	-53639.1	1055.82	-29745.7	0.000000	0.000000	7.091030	35.9952	NaN	0.000000	0.001648	0.001685	28.082	23.6201	0.001580	14953	0.112136	-172.863	33.9299	1.089255	0.019651	0.019359	35.9952	14953	0.017846	0.019270	1867.97	98415.6
1070	2.000000	1.091595	7.37552e+06	-53639.1	1055.82	-29745.7	0.000000	0.000000	7.093218	39.4073	NaN	0.000000	0.001670	0.001707	28.0823	26.2007	0.001711	15312.3	4.256534	-177.032	40.1157	1.091250	0.021699	0.021355	39.4073	15312.3	0.019769	0.022180	1776.67	93935.6
1070	2.000000	1.093630	7.37552e+06	-53639.1	1055.82	-29745.7	0.000000	0.000000	7.095428	43.6618	NaN	0.000000	0.001601	0.001732	28.082	28.845	0.001726	16714.5	7.586968	179.885	45.272	1.093286	0.023734	0.023390	43.6618	16714.5	0.021775	0.025408	1718.39	95802.7
1070	2.000000	1.095562	7.37552e+06	-53639.1	1055.82	-29745.7	0.000000	0.000000	7.097676	51.3591	NaN	0.000000	0.001586	0.001669	28.0828	30.6907	0.001795	17102.5	10.3536	176.044	49.7762	1.095173	0.025666	0.025277	51.3591	17102.5	0.023414	0.028193	1821.7	93060
1070	2.000000	1.097522	7.37552e+06	-53639.1	1055.82	-29745.7	0.000000	0.000000	7.099750	54.1198	NaN	0.000000	0.001592	0.001701	28.082	32.8179	0.001715	19136.5	4.126395	-179.276	51.8464	1.097210	0.027626	0.027314	54.1198	19136.5	0.025505	0.031941	1694.35	97827.3
1070	2.000000	1.099547	7.37552e+06	-53639.1	1055.82	-29745.7	0.000000	0.000000	7.102060	61.0287	NaN	0.000000	0.001607	0.001698	28.0825	33.6194	0.001799	18690	2.653388	-177.377	59.9125	1.099170	0.029652	0.029274	61.0287	18690	0.027203	0.035145	1736.49	91086
1070	2.000000	1.101508	7.37552e+06	-53639.1	1055.82	-29745.7	0.000000	0.000000	7.104229	66.0997	NaN	0.000000	0.001615	0.001726	28.0822	37.2855	0.001784	20896.9	8.892892	175.787	64.8775	1.101214	0.031613	0.031319	66.0997	20896.9	0.029240	0.039184	1686.92	96449.9
1070	2.000000	1.103577	7.37552e+06	-53639.1	1055.82	-29745.7	0.000000	0.000000	7.106518	71.4596	NaN	0.000000	0.001596	0.001722	28.0821	39.2999	0.001840	21354	7.708357	177.191	71.5601	1.103181	0.033681	0.033285	71.4596	21354	0.031171	0.043206	1653.92	93860
1070	2.000000	1.105538	7.37552e+06	-53639.1	1055.82	-29745.7	0.000000	0.000000	7.108769	78.5077	NaN	0.000000	0.001585	0.001691	28.0828	40.4688	0.001789	22621.5	5.304972	179.693	77.6256	1.105182	0.035642	0.035286	78.5077	22621.5	0.033039	0.047279	1660.54	95052.3
1070	2.000000	1.107504	7.37552e+06	-53639.1	1055.82	-29745.7	0.000000	0.000000	7.111054	86.2467	NaN	0.000000	0.001570	0.001712	28.0819	42.5857	0.001827	23312	5.208043	178.514	84.6125	1.107121	0.037608	0.037225	86.2467	23312	0.034834	0.051359	1679.29	93982
1070	2.000000	1.109520	7.37552e+06	-53639.1	1055.82	-29745.7	0.000000	0.000000	7.113312	92.1518	NaN	0.000000	0.001583	0.001730	28.0824	44.0555	0.001866	23605	4.456913	179.472	90.9321	1.109196	0.039624	0.039301	92.1518	23605	0.036696	0.055769	1652.39	91323.1
1070	2.000000	1.111542	7.37552e+06	-53639.1	1055.82	-29745.7	0.000000	0.000000	7.115741	102.036	NaN	0.000000	0.001684	0.001687	28.0822	45.9149	0.001789	25663.4	5.108229	177.939	100.205	1.111147	0.041646	0.041251	102.036	25663.4	0.038664	0.060621	1683.16	95230.1
1070	2.000000	1.113554	7.37552e+06	-53639.1	1055.82	-29745.7	0.000000	0.000000	7.117829	103.869	NaN	0.000000	0.001634	0.001710	28.082	48.3653	0.001701	28431.8	5.473882	176.029	104.205	1.113298	0.043659	0.043402	103.869	28431.8	0.040919	0.066424	1563.73	100790
1070	2.000000	1.115480	7.37552e+06	-53639.1	1055.82	-29745.7	0.000000	0.000000	7.120265	116.259	NaN	0.000000	0.001645	0.001708	28.0824	49.5434	0.001713	28919.8	5.696338	176.292	112.563	1.115149	0.045585	0.045254	116.259	28919.8	0.042570	0.070838	1641.2	99274.2
1070	2.000000	1.117533	7.37552e+06	-53639.1	1055.82	-29745.7	0.000000	0.000000	7.122598	123.094	NaN	0.000000	0.001633	0.001689	28.0819	51.8217	0.001655	31304.1	2.403415	178.194	122.774	1.117127	0.047637	0.047231	123.094	31304.1	0.044688	0.076704	1604.8	103268
1070	2.000000	1.119454	7.37552e+06	-53639.1	1055.82	-29745.7	0.000000	0.000000	7.124838	130.833	NaN	0.000000	0.001658	0.001708	28.0821	52.331	0.001695	30875	2.450545	178.747	126.014	1.119099	0.049559	0.049203	130.833	30875	0.046381	0.081555	1604.23	98776.6
1070	2.000000	1.121525	7.37552e+06	-53639.1	1055.82	-29745.7	0.000000	0.000000	7.127232	138.705	NaN	0.000000	0.001667	0.001675	28.0831	56.4636	0.001823	30973.5	6.534487	174.518	139.52	1.121168	0.051629	0.051272	138.705	30973.5	0.048271	0.087143	1591.7	95862.3
1070	2.000000	1.123473	7.37552e+06	-53639.1	1055.82	-29745.7	0.000000	0.000000	7.129643	149.937	NaN	0.000000	0.001642	0.001706	28.083	57.2986	0.001811	31632.7	2.036280	179.497	146.524	1.123176	0.053577	0.053281	149.937	31632.7	0.050022	0.092482	1621.25	95034.3
1070	2.000000	1.125467	7.37552e+06	-53639.1	1055.82	-29745.7	0.000000	0.000000	7.131886	156.016	NaN	0.000000	0.001639	0.001705	28.0837	58.9863	0.001710	34497.8	4.267528	176.099	154.772	1.125207	0.055571	0.055311	156.016	34497.8	0.052179	0.099268	1571.67	100037
1070	2.000000	1.127429	7.37552e+06	-53639.1	1055.82	-29745.7	0.000000	0.000000	7.134277	166.444	NaN	0.000000	0.001669	0.001713	28.0833	60.7326	0.001646	36886.2	5.137867	174.211	161.198	1.127197	0.057533	0.057302	166.444	36886.2	0.054149	0.105667	1575.17	103673
1070	2.000000	1.129570	7.37552e+06	-53639.1	1055.82	-29745.7	0.000000	0.000000	7.136865	177.283	NaN	0.000000	0.001590	0.001734	28.0835	61.6814	0.001766	34918.2	6.670869	175.066	179.885	1.129084	0.059675	0.059188	177.283	34918.2	0.055867	0.111406	1591.32	95580.7
1070	2.000000	1.131489	7.37552e+06	-53639.1	1055.82	-29745.7	0.000000	0.000000	7.139246	188.527	NaN	0.000000	0.001589	0.001696	28.0833	64.3057	0.001860	34575.4	3.326029	177.476	185.484	1.131038	0.061594	0.061142	188.527	34575.4	0.057504	0.117011	1611.2	92348.1
1070	2.000000	1.133504	7.37552e+06	-53639.1	1055.82	-29745.7	0.000000	0.000000	7.141471	193.628	NaN	0.000000	0.001604	0.001689	28.0831	67.1714	0.001789	37550.2	7.096086	172.852	191.141	1.133118	0.063609	0.063223	193.628	37550.2	0.059742	0.124883	1550.47	97081
1070	2.000000	1.135516	7.37552e+06	-53639.1	1055.82	-29745.7	0.000000	0.000000	7.143939	204.718	NaN	0.000000	0.001651	0.001661	28.0836	67.8096	0.001807	37526.6	2.936258	176.735	205.474	1.135258	0.065620	0.065362	204.718	37526.6	0.061529	0.131348	1558.6	94602.3
1070	2.000000	1.137486	7.37552e+06	-53639.1	1055.82	-29745.7	0.000000	0.000000	7.146380	216.186	NaN	0.000000	0.001651	0.001665	28.0833	70.6407	0.001815	38926.1	3.273959	175.781	213.491	1.137192	0.067590	0.067296	216.186	38926.1	0.063425	0.138375	1562.32	95605.9
1070	2.000000	1.139509	7.37552e+06	-53639.1	1055.82	-29745.7	0.000000	0.000000	7.148854	227.137	NaN	0.000000	0.001678	0.001682	28.0838	71.8951	0.001853	38793.4	3.340531	176.221	227.495	1.139263	0.069613	0.069367	227.137	38793.4	0.065222	0.145197	1564.33	93014.9
1070	2.000000	1.141442	7.37552e+06	-53639.1	1055.82	-29745.7	0.000000	0.000000	7.151293	239.439	NaN	0.000000	0.001644	0.001714	28.0834	74.9232	0.001771	42314.8	7.487080	171.338	235.607	1.141172	0.071547	0.071276	239.439	42314.8	0.067303	0.153289	1562.02	98744
1070	2.000000	1.143469	7.37552e+06	-53639.1	1055.82	-29745.7	0.000000	0.000000	7.153845	252.21	NaN	0.000000	0.001618	0.001728	28.0833	76.1538	0.001828	41664.7	4.611170	174.508	250.434	1.143181	0.073573	0.073285	252.21	41664.7	0.069033	0.160178	1574.56	95113.2
1070	2.000000	1.145345	7.37552e+06	-53639.1	1055.82	-29745.7	0.000000	0.000000	7.156048	260.169	NaN	0.000000	0.001618	0.001681	28.0833	77.752	0.001757	44261.8	6.204774	172.218	254.145	1.145100	0.075449	0.075204	260.169	44261.8	0.071041	0.168347	1545.44	98559.8
1070	2.000000	1.147489	7.37552e+06	-53639.1	1055.82	-29745.7	0.000000	0.000000	7.158509	267.872	NaN	0.000000	0.001592	0.001683	28.0832	79.8055	0.001750	45611.4	2.949703	175.026	266.501	1.147239	0.077593	0.077343	267.872	45611.4	0.073189	0.177300	1510.84	98967.4
1070	2.000000	1.149448	7.37552e+06	-53639.1	1055.82	-29745.7	0.000000	0.000000	7.160854	277.256	NaN	0.000000	0.001533	0.001713	28.0839	81.5388	0.001740	46859	5.946233	172.053	274.5	1.149122	0.079552	0.079227	277.256	46859	0.075115	0.185515	1494.53	99397.9
1070	2.000000	1.151488	7.37552e+06	-53639.1	1055.82	-29745.7	0.000000	0.000000	7.163636	295.295	NaN	0.000000	0.001591	0.001680	28.0833	82.2768	0.001675	49121.5	0.989112	177.275	296.787	1.151091	0.081592	0.081195	295.295	49121.5	0.077083	0.194090	1521.43	101869
1070	2.000000	1.153685	7.37552e+06	-53639.1	1055.82	-29745.7	0.000000	0.000000	7.166202	304.264	NaN	0.000000	0.001625	0.001730	28.0832	85.9248	0.001807	47541.1	3.816540	174.855	313.493	1.153189	0.083789	0.083293	304.264	47541.1	0.078989	0.202565	1502.06	96507.4
1070	2.000000	1.155436	7.37552e+06	-53639.1	1055.82	-29745.7	0.000000	0.000000	7.168599	319.949	NaN	0.000000	0.001666	0.001755	28.082	87.7679	0.001835	47819.9	7.146209	170.826	317.58	1.155100	0.085541	0.085204	319.949	47819.9	0.080523	0.209507	1527.15	95451.5
1070	2.000000	1.157490	7.37552e+06	-53639.1	1055.82	-29745.7	0.000000	0.000000	7.171191	333.037	NaN	0.000000	0.001671	0.001706	28.082	90.521	0.001851	48899.4	7.666950	170.066	332.374	1.157169	0.087594	0.087273	333.037	48899.4	0.082486	0.218557	1523.8	95564.2
1070	2.000000	1.159495	7.37552e+06	-53639.1	1055.82	-29745.7	0.000000	0.000000	7.173735	346.155	NaN	0.000000	0.001650	0.001730	28.0823	90.3344	0.001763	51242.5	4.993157	172.776	348.889	1.159087	0.089599	0.089192	346.155	51242.5	0.084533	0.228177	1517.05	98009.3
1070	2.000000	1.161390	7.37552e+06	-53639.1	1055.82	-29745.7	0.000000	0.000000	7.176181	359.54	NaN	0.000000	0.001653	0.001718	28.0822	92.8306	0.001817	51077.8	5.550608	171.474	354.356	1.161239	0.091494	0.091344	359.54	51077.8	0.086215	0.236232	1521.98	96014.5
1070	2.000000	1.163422	7.37552e+06	-53639.1	1055.82	-29745.7	0.000000	0.000000	7.178855	375.16	NaN	0.000000	0.001628	0.001705	28.082	94.925	0.001766	53752.8	5.189822	171.993	370.685	1.163187	0.093526	0.093291	375.16	53752.8	0.088292	0.246355	1522.85	98945.1
1070	2.000000	1.165466	7.37552e+06	-53639.1	1055.82	-29745.7	0.000000	0.000000	7.181233	383.266	NaN	0.000000	0.001564	0.001677	28.082	95.7172	0.001779	53815.2	3.571186	172.983	381.46	1.165252	0.095570	0.095356	383.266	53815.2	0.090229	0.255975	1497.28	97180.5
1070	2.000000	1.167570	7.37552e+06	-53639.1	1055.82	-29745.7	0.000000	0.000000	7.184404	409.203	NaN	0.000000	0.001584	0.001740	28.0822	98.9002	0.001856	53276.9	3.514894	173.97	412.236	1.167152	0.097675	0.097256	409.203	53276.9	0.091914	0.264486	1547.16	94648
1070	2.000000	1.169442	7.37552e+06	-53639.1	1055.82	-29745.7	0.000000	0.000000	7.186813	422.272	NaN	0.000000	0.001553	0.001715	28.0821	98.9977	0.001763	56140.6	3.169344	173.81	421.903	1.169210	0.099546	0.099315	422.272	56140.6	0.093905	0.274705	1537.18	97862.6
1070	2.000000	1.171307	7.37552e+06	-53639.1	1055.82	-29745.7	0.000000	0.000000	7.189112	432.818	NaN	0.000000	0.001561	0.001702	28.082	102.853	0.001873	54916.9	6.204779	170.77	422.908	1.171078	0.101412	0.101183	432.818	54916.9	0.095501	0.283028	1529.24	94311.4
1070	2.000000	1.173396	7.37552e+06	-53639.1	1055.82	-29745.7	0.000000	0.000000	7.192052	453.513	NaN	0.000000	0.001593	0.001682	28.0821	104.092	0.001839	56616.1	3.956271	173.391	449.01	1.173040	0.103500	0.103144	453.513	56616.1	0.097493	0.293580	1544.77	95466.2
1070	2.000000	1.174438	7.37552e+06	-53639.1	1055.82	-29745.7	0.000000	0.000000	7.193433	461.742	NaN	0.000000	0.001594	0.001683	28.0822	105.129	0.001831	57410.2	5.691343	171.545	459.07	1.174084	0.104542	0.104188	461.742	57410.2	0.098510	0.299041	1544.08	95917.4