File: remote_trans/data/nanoindenter/0828-1/data/Data_2025-08-06,11h17m57s/2025-07-22_16-23-58_1_346.txt
2025-07-22, 16:23:58, 1
Index	Phase	Displacement	Time	Pos X	Pos Y	Pos Z	Rot A	Rot B	Piezo Z	Force A	Force B	Gripper	Voltage A	Voltage B	Temperature	Amplitude force	Amplitude pos	Stiffness	Phase shift	Phase excitation	Force A raw	Displacement raw	HMax	HMax raw	Real Force	Real Stiffness	Contact Depth	Area	Hardness	Reduced Mod.
[#]	[#]	[um]	[s]	[um]	[um]	[um]	[m°]	[m°]	[um]	[uN]	[uN]	[V]	[V]	[V]	[°C]	[uN]	[um]	[N/m]	[°]	[°]	[uN]	[um]	[um]	[um]	[uN]	[N/m]	[um]	[um^2]	[MPa]	[MPa]
346	1.000000	0.002347	7.36844e+06	-55939.1	955.819	-29740.6	0.000000	0.000000	6.002806	-0.019608	NaN	0.000000	0.001594	0.001724	28.0812	0.089759	0.001005	89.309	-150.801	-171.816	-0.068234	0.001114	-1.048441	-1.049674	-0.019608	89.309	-1.048276	-1.012144E+14	1.937271E-16	NaN
346	1.000000	0.010328	7.36844e+06	-55939.1	955.819	-29740.6	0.000000	0.000000	6.010789	0.024368	NaN	0.000000	0.001629	0.001723	28.0809	0.011879	0.000943	12.6007	-62.9014	-164.747	0.027611	0.008974	-1.040460	-1.041814	0.024368	12.6007	-1.041910	-8.311020E+13	-2.932003E-16	NaN
346	1.000000	0.018333	7.36844e+06	-55939.1	955.819	-29740.6	0.000000	0.000000	6.018797	0.103452	NaN	0.000000	0.001602	0.001703	28.0811	0.024250	0.001821	13.3184	71.0899	-162.802	0.007342	0.016977	-1.032455	-1.033811	0.103452	13.3184	-1.038281	-7.427627E+13	-1.392800E-15	NaN
346	1.000000	0.026340	7.36844e+06	-55939.1	955.818	-29740.6	0.000000	0.000000	6.026797	-0.072146	NaN	0.000000	0.001598	0.001668	28.0813	0.085250	0.001912	44.5895	38.7471	-164.635	0.019965	0.025033	-1.024448	-1.025755	-0.072146	44.5895	-1.023234	-4.660897E+13	1.547898E-15	NaN
346	1.000000	0.034303	7.36844e+06	-55939.1	955.818	-29740.6	0.000000	0.000000	6.034763	0.005956	NaN	0.000000	0.001571	0.001680	28.0816	0.100973	0.001810	55.7886	-60.5392	-166.013	0.000983	0.032976	-1.016485	-1.017813	0.005956	55.7886	-1.016565	-3.790857E+13	-1.571049E-16	NaN
346	1.000000	0.042315	7.36844e+06	-55939.1	955.818	-29740.6	0.000000	0.000000	6.042776	0.031366	NaN	0.000000	0.001617	0.001660	28.0824	0.062480	0.001966	31.7883	67.1656	-167.765	-0.015628	0.040996	-1.008474	-1.009792	0.031366	31.7883	-1.009214	-3.018559E+13	-1.039118E-15	NaN
346	1.000000	0.050294	7.36844e+06	-55939.1	955.819	-29740.6	0.000000	0.000000	6.050750	-0.071820	NaN	0.000000	0.001588	0.001687	28.0814	0.056236	0.001907	29.4926	45.6572	-166.94	-0.004187	0.048964	-1.000495	-1.001825	-0.071820	29.4926	-0.998668	-2.176896E+13	3.299171E-15	NaN
346	1.000000	0.058307	7.36844e+06	-55939.1	955.818	-29740.6	0.000000	0.000000	6.058766	-0.012211	NaN	0.000000	0.001581	0.001663	28.0817	0.084569	0.002104	40.187	-90.2996	-163.211	0.034595	0.056957	-0.992482	-0.993831	-0.012211	40.187	-0.992254	-1.784289E+13	6.843808E-16	NaN
346	1.000000	0.066286	7.36844e+06	-55939.1	955.818	-29740.6	0.000000	0.000000	6.066747	0.029111	NaN	0.000000	0.001585	0.001730	28.0817	0.052445	0.001873	27.9938	101.42	-170.254	0.061829	0.064988	-0.984502	-0.985801	0.029111	27.9938	-0.985282	-1.437368E+13	-2.025299E-15	NaN
346	1.000000	0.074314	7.36844e+06	-55939.1	955.819	-29740.6	0.000000	0.000000	6.074777	0.079205	NaN	0.000000	0.001619	0.001706	28.0814	0.026261	0.001961	13.3913	-77.9255	-167.814	0.054404	0.072996	-0.976475	-0.977792	0.079205	13.3913	-0.980911	-1.255104E+13	-6.310651E-15	NaN
346	1.000000	0.082296	7.36845e+06	-55939.1	955.818	-29740.6	0.000000	0.000000	6.082756	-0.007051	NaN	0.000000	0.001580	0.001690	28.0818	0.083246	0.002020	41.2114	-16.1956	-167.968	-0.034169	0.081012	-0.968492	-0.969777	-0.007051	41.2114	-0.968364	-8.503771E+12	8.291280E-16	NaN
346	1.000000	0.090312	7.36845e+06	-55939.1	955.818	-29740.6	0.000000	0.000000	6.090771	-0.021340	NaN	0.000000	0.001633	0.001679	28.0814	0.080165	0.001912	41.9278	171.049	-164.062	-0.021853	0.088968	-0.960476	-0.961820	-0.021340	41.9278	-0.960095	-6.578783E+12	3.243824E-15	NaN
346	1.000000	0.098316	7.36845e+06	-55939.1	955.819	-29740.6	0.000000	0.000000	6.098774	-0.044026	NaN	0.000000	0.001595	0.001687	28.0815	0.092314	0.001920	48.0877	-87.3228	-167.331	0.050372	0.096980	-0.952472	-0.953809	-0.044026	48.0877	-0.951786	-5.082882E+12	8.661581E-15	NaN
346	1.000000	0.106312	7.36845e+06	-55939.1	955.818	-29740.6	0.000000	0.000000	6.106772	0.020993	NaN	0.000000	0.001610	0.001638	28.0816	0.051249	0.002060	24.8809	138.811	-167.182	-0.042710	0.104988	-0.944477	-0.945800	0.020993	24.8809	-0.945109	-4.131089E+12	-5.081762E-15	NaN
346	1.000000	0.114331	7.36845e+06	-55939.1	955.819	-29740.6	0.000000	0.000000	6.114793	0.049605	NaN	0.000000	0.001613	0.001718	28.0819	0.094247	0.001892	49.8103	121.332	-167.575	0.046262	0.112992	-0.936457	-0.937797	0.049605	49.8103	-0.937204	-3.231552E+12	-1.535021E-14	NaN
346	1.000000	0.122338	7.36845e+06	-55939.1	955.819	-29740.6	0.000000	0.000000	6.122798	0.006530	NaN	0.000000	0.001620	0.001697	28.0837	0.088998	0.001950	45.6415	71.4507	-164.668	-0.011710	0.121006	-0.928450	-0.929782	0.006530	45.6415	-0.928557	-2.470149E+12	-2.643731E-15	NaN
346	1.000000	0.130325	7.36845e+06	-55939.1	955.818	-29740.6	0.000000	0.000000	6.130786	0.029185	NaN	0.000000	0.001603	0.001658	28.0823	0.121744	0.002118	57.4701	-159.248	-161.877	0.000101	0.128995	-0.920464	-0.921793	0.029185	57.4701	-0.920845	-1.943605E+12	-1.501584E-14	NaN
346	1.000000	0.138322	7.36845e+06	-55939.1	955.819	-29740.6	0.000000	0.000000	6.138783	0.030228	NaN	0.000000	0.001593	0.001675	28.0829	0.023005	0.002010	11.4446	-35.2409	-168.423	-0.029836	0.136988	-0.912467	-0.913800	0.030228	11.4446	-0.914447	-1.593051E+12	-1.897490E-14	NaN
346	1.000000	0.146323	7.36845e+06	-55939.1	955.818	-29740.6	0.000000	0.000000	6.146781	-0.040867	NaN	0.000000	0.001633	0.001694	28.0828	0.081375	0.001908	42.6561	94.5579	-166.435	0.055291	0.144925	-0.904465	-0.905863	-0.040867	42.6561	-0.903746	-1.142052E+12	3.578425E-14	NaN
346	1.000000	0.154336	7.36845e+06	-55939.1	955.818	-29740.6	0.000000	0.000000	6.154797	0.036026	NaN	0.000000	0.001604	0.001678	28.0826	0.100259	0.002061	48.6386	-145.203	-165.111	0.027118	0.152971	-0.896452	-0.897817	0.036026	48.6386	-0.897008	-9.260510E+11	-3.890271E-14	NaN
346	1.000000	0.162324	7.36845e+06	-55939.1	955.818	-29740.6	0.000000	0.000000	6.162781	-0.062350	NaN	0.000000	0.001581	0.001704	28.0828	0.037075	0.002039	18.1814	153.073	-166.148	-0.009765	0.161043	-0.888465	-0.889746	-0.062350	18.1814	-0.885893	-6.552225E+11	9.515800E-14	NaN
346	1.000000	0.170344	7.36845e+06	-55939.1	955.818	-29740.6	0.000000	0.000000	6.170802	-0.035649	NaN	0.000000	0.001560	0.001674	28.0823	0.046807	0.001984	23.5914	-104.04	-166.555	0.044838	0.169025	-0.880444	-0.881764	-0.035649	23.5914	-0.879311	-5.338124E+11	6.678249E-14	NaN
346	1.000000	0.178327	7.36845e+06	-55939.1	955.819	-29740.6	0.000000	0.000000	6.178789	0.066380	NaN	0.000000	0.001659	0.001676	28.0824	0.038971	0.002100	18.5554	12.7366	-166.821	-0.042694	0.177094	-0.872461	-0.873694	0.066380	18.5554	-0.875144	-4.688515E+11	-1.415801E-13	NaN
346	1.000000	0.186336	7.36845e+06	-55939.1	955.818	-29740.6	0.000000	0.000000	6.186796	0.002377	NaN	0.000000	0.001671	0.001660	28.0822	0.134797	0.002014	66.9339	-41.0658	-166.187	0.021377	0.185026	-0.864453	-0.865762	0.002377	66.9339	-0.864479	-3.363112E+11	-7.066621E-15	NaN
346	1.000000	0.194346	7.36845e+06	-55939.1	955.818	-29740.6	0.000000	0.000000	6.194806	0.021925	NaN	0.000000	0.001596	0.001652	28.0821	0.118872	0.002068	57.4703	99.9287	-163.576	0.023752	0.193053	-0.856443	-0.857736	0.021925	57.4703	-0.856729	-2.641449E+11	-8.300347E-14	NaN
346	1.000000	0.202351	7.36845e+06	-55939.1	955.818	-29740.6	0.000000	0.000000	6.202807	-0.072259	NaN	0.000000	0.001583	0.001653	28.0822	0.036425	0.002067	17.6215	-32.7589	-166.798	-0.090251	0.201076	-0.848438	-0.849712	-0.072259	17.6215	-0.845362	-1.853233E+11	3.899097E-13	NaN
346	1.000000	0.210338	7.36845e+06	-55939.1	955.818	-29740.6	0.000000	0.000000	6.210800	0.053447	NaN	0.000000	0.001632	0.001673	28.0821	0.038771	0.002011	19.2795	-13.0872	-165.056	0.007716	0.209081	-0.840450	-0.841708	0.053447	19.2795	-0.842530	-1.696528E+11	-3.150386E-13	NaN
346	1.000000	0.218371	7.36845e+06	-55939.1	955.818	-29740.6	0.000000	0.000000	6.218832	0.030541	NaN	0.000000	0.001564	0.001688	28.0823	0.095790	0.001914	50.0344	-64.6855	-166.753	0.047360	0.217056	-0.832417	-0.833733	0.030541	50.0344	-0.832875	-1.255313E+11	-2.432933E-13	NaN
346	1.000000	0.226365	7.36845e+06	-55939.1	955.819	-29740.6	0.000000	0.000000	6.226827	0.046384	NaN	0.000000	0.001573	0.001651	28.082	0.005541	0.001963	2.822430	151.836	-161.643	0.077858	0.225048	-0.824423	-0.825740	0.046384	2.822430	-0.836749	-1.416579E+11	-3.274360E-13	NaN
346	1.000000	0.234389	7.36845e+06	-55939.1	955.818	-29740.6	0.000000	0.000000	6.234847	-0.029355	NaN	0.000000	0.001583	0.001653	28.0823	0.089738	0.002031	44.1926	-70.3557	-166.751	0.008469	0.233080	-0.816400	-0.817708	-0.029355	44.1926	-0.815901	-7.389706E+10	3.972364E-13	NaN
346	1.000000	0.242348	7.36845e+06	-55939.1	955.819	-29740.6	0.000000	0.000000	6.242807	-0.014544	NaN	0.000000	0.001577	0.001657	28.0824	0.026317	0.001895	13.8897	-5.046915	-165.924	-0.002371	0.241101	-0.808440	-0.809687	-0.014544	13.8897	-0.807655	-5.711499E+10	2.546468E-13	NaN
346	1.000000	0.250371	7.36845e+06	-55939.1	955.819	-29740.6	0.000000	0.000000	6.250833	0.057155	NaN	0.000000	0.001573	0.001710	28.0823	0.053648	0.001986	27.0166	-70.8357	-163.686	0.064704	0.249091	-0.800417	-0.801698	0.057155	27.0166	-0.802004	-4.787002E+10	-1.193965E-12	NaN
346	1.000000	0.258364	7.36845e+06	-55939.1	955.819	-29740.6	0.000000	0.000000	6.258825	0.036706	NaN	0.000000	0.001580	0.001695	28.0831	0.023155	0.002116	10.9435	157.693	-162.859	0.023118	0.256999	-0.792424	-0.793789	0.036706	10.9435	-0.794940	-3.838506E+10	-9.562602E-13	NaN
346	1.000000	0.266372	7.36845e+06	-55939.1	955.818	-29740.6	0.000000	0.000000	6.266833	0.030950	NaN	0.000000	0.001595	0.001694	28.0826	0.045347	0.001978	22.9294	137.325	-163.927	-0.015955	0.265045	-0.784417	-0.785743	0.030950	22.9294	-0.785429	-2.850983E+10	-1.085580E-12	NaN
346	1.000000	0.274402	7.36845e+06	-55939.1	955.817	-29740.6	0.000000	0.000000	6.274866	0.120753	NaN	0.000000	0.001585	0.001722	28.0812	0.049214	0.002141	22.9873	165.874	-167.473	0.123142	0.273074	-0.776387	-0.777715	0.120753	22.9873	-0.780326	-2.430335E+10	-4.968563E-12	NaN
346	1.000000	0.282353	7.36845e+06	-55939.1	955.818	-29740.6	0.000000	0.000000	6.282814	0.024832	NaN	0.000000	0.001571	0.001702	28.0813	0.039015	0.001971	19.7908	121.764	-167.008	-0.049233	0.281059	-0.768435	-0.769729	0.024832	19.7908	-0.769376	-1.725135E+10	-1.439400E-12	NaN
346	1.000000	0.290382	7.36845e+06	-55939.1	955.818	-29740.6	0.000000	0.000000	6.290842	0.004402	NaN	0.000000	0.001580	0.001675	28.0814	0.095349	0.001836	51.9319	157.224	-164.511	0.045556	0.289018	-0.760406	-0.761770	0.004402	51.9319	-0.760470	-1.305250E+10	-3.372463E-13	NaN
346	1.000000	0.298384	7.36845e+06	-55939.1	955.817	-29740.6	0.000000	0.000000	6.298846	0.062476	NaN	0.000000	0.001566	0.001684	28.0811	0.032029	0.001966	16.2914	161.721	-167.555	0.082372	0.297069	-0.752405	-0.753719	0.062476	16.2914	-0.755281	-1.109412E+10	-5.631418E-12	NaN
346	1.000000	0.306389	7.36845e+06	-55939.1	955.819	-29740.6	0.000000	0.000000	6.306848	-0.018707	NaN	0.000000	0.001578	0.001685	28.0809	0.059210	0.001931	30.6589	38.7737	-168.429	-0.052191	0.305121	-0.744399	-0.745667	-0.018707	30.6589	-0.743942	-7.775674E+9	2.405775E-12	NaN
346	1.000000	0.314411	7.36845e+06	-55939.1	955.819	-29740.6	0.000000	0.000000	6.314874	0.083810	NaN	0.000000	0.001548	0.001680	28.0813	0.062249	0.001957	31.8153	21.7127	-165.463	0.025962	0.313126	-0.736377	-0.737663	0.083810	31.8153	-0.738353	-6.525637E+9	-1.284315E-11	NaN
346	1.000000	0.322418	7.36845e+06	-55939.1	955.818	-29740.6	0.000000	0.000000	6.322878	0.003212	NaN	0.000000	0.001564	0.001668	28.0812	0.059218	0.001953	30.3187	-117.345	-165.418	0.048903	0.321115	-0.728371	-0.729673	0.003212	30.3187	-0.728450	-4.782796E+9	-6.715439E-13	NaN
346	1.000000	0.330394	7.36845e+06	-55939.1	955.819	-29740.6	0.000000	0.000000	6.330854	-0.006473	NaN	0.000000	0.001581	0.001697	28.0815	0.102752	0.001935	53.108	-67.1183	-165.029	0.006356	0.329137	-0.720394	-0.721651	-0.006473	53.108	-0.720302	-3.703382E+9	1.747995E-12	NaN
346	1.000000	0.338407	7.36845e+06	-55939.1	955.819	-29740.6	0.000000	0.000000	6.338866	-0.014982	NaN	0.000000	0.001576	0.001691	28.0812	0.083816	0.001964	42.6708	115.628	-166.619	0.053738	0.337103	-0.712381	-0.713686	-0.014982	42.6708	-0.712118	-2.863861E+9	5.231523E-12	NaN
346	1.000000	0.346413	7.36845e+06	-55939.1	955.819	-29740.6	0.000000	0.000000	6.346873	0.008625	NaN	0.000000	0.001610	0.001681	28.0814	0.087852	0.002193	40.0651	158.153	-166.181	0.039190	0.345121	-0.704375	-0.705667	0.008625	40.0651	-0.704537	-2.256704E+9	-3.821861E-12	NaN
346	1.000000	0.354410	7.36845e+06	-55939.1	955.819	-29740.6	0.000000	0.000000	6.354868	-0.049158	NaN	0.000000	0.001613	0.001689	28.0813	0.024083	0.002118	11.3723	-138.029	-166.601	-0.094269	0.353101	-0.696378	-0.697687	-0.049158	11.3723	-0.693136	-1.576801E+9	3.117564E-11	NaN
346	1.000000	0.362433	7.36845e+06	-55939.1	955.818	-29740.6	0.000000	0.000000	6.362893	0.009965	NaN	0.000000	0.001606	0.001658	28.081	0.103513	0.002125	48.7213	-172.533	-166.667	-0.023715	0.361122	-0.688355	-0.689666	0.009965	48.7213	-0.688509	-1.363121E+9	-7.310713E-12	NaN
346	1.000000	0.370414	7.36845e+06	-55939.1	955.818	-29740.6	0.000000	0.000000	6.370875	0.027267	NaN	0.000000	0.001612	0.001660	28.0814	0.020947	0.001986	10.5469	-107.68	-170.845	0.023056	0.369129	-0.680375	-0.681660	0.027267	10.5469	-0.682314	-1.121614E+9	-2.431072E-11	NaN
346	1.000000	0.378417	7.36845e+06	-55939.1	955.819	-29740.6	0.000000	0.000000	6.378877	0.005588	NaN	0.000000	0.001584	0.001670	28.081	0.008641	0.002149	4.020468	-108	-166.463	-0.056394	0.377121	-0.672371	-0.673667	0.005588	4.020468	-0.673413	-8.474230E+8	-6.593819E-12	NaN
346	1.000000	0.386431	7.36845e+06	-55939.1	955.819	-29740.6	0.000000	0.000000	6.386890	-0.009106	NaN	0.000000	0.001588	0.001679	28.081	0.063542	0.001946	32.652	-160.448	-167.979	0.025356	0.385113	-0.664357	-0.665676	-0.009106	32.652	-0.664148	-6.328165E+8	1.438998E-11	NaN
346	1.000000	0.394429	7.36845e+06	-55939.1	955.819	-29740.6	0.000000	0.000000	6.394890	0.048575	NaN	0.000000	0.001557	0.001633	28.081	0.097574	0.001985	49.1593	-4.074765	-169.118	0.025551	0.393166	-0.656360	-0.657622	0.048575	49.1593	-0.657101	-5.066984E+8	-9.586477E-11	NaN
346	1.000000	0.402408	7.36845e+06	-55939.1	955.818	-29740.6	0.000000	0.000000	6.402868	0.002887	NaN	0.000000	0.001575	0.001629	28.081	0.027776	0.001970	14.1028	-129.604	-164.302	0.005091	0.401120	-0.648380	-0.649668	0.002887	14.1028	-0.648534	-3.866672E+8	-7.465496E-12	NaN
346	1.000000	0.410427	7.36845e+06	-55939.1	955.819	-29740.6	0.000000	0.000000	6.410885	-0.036801	NaN	0.000000	0.001572	0.001616	28.0826	0.064880	0.002095	30.9707	115.5	-165.777	0.057835	0.409108	-0.640362	-0.641680	-0.036801	30.9707	-0.639470	-2.904186E+8	1.267182E-10	NaN
346	1.000000	0.418442	7.36845e+06	-55939.1	955.818	-29740.6	0.000000	0.000000	6.418903	0.026569	NaN	0.000000	0.001538	0.001636	28.0824	0.018064	0.002106	8.576936	97.6739	-166.967	0.018756	0.417129	-0.632347	-0.633659	0.026569	8.576936	-0.634670	-2.495399E+8	-1.064737E-10	NaN
346	1.000000	0.426424	7.36845e+06	-55939.1	955.819	-29740.6	0.000000	0.000000	6.426886	0.048790	NaN	0.000000	0.001529	0.001666	28.0825	0.119662	0.001958	61.1075	-156.131	-167.581	0.073737	0.425138	-0.624364	-0.625651	0.048790	61.1075	-0.624963	-1.835853E+8	-2.657646E-10	NaN
346	1.000000	0.434460	7.36845e+06	-55939.1	955.818	-29740.6	0.000000	0.000000	6.434921	0.044338	NaN	0.000000	0.001540	0.001677	28.0825	0.139326	0.002016	69.1113	-22.504	-164.79	-0.052963	0.433125	-0.616328	-0.617663	0.044338	69.1113	-0.616809	-1.418313E+8	-3.126098E-10	NaN
346	1.000000	0.442427	7.36845e+06	-55939.1	955.818	-29740.6	0.000000	0.000000	6.442889	0.045235	NaN	0.000000	0.001526	0.001681	28.0825	0.124703	0.002042	61.063	-156.841	-166.708	-0.022989	0.441150	-0.608361	-0.609638	0.045235	61.063	-0.608917	-1.104606E+8	-4.095154E-10	NaN
346	1.000000	0.450467	7.36845e+06	-55939.1	955.819	-29740.6	0.000000	0.000000	6.450930	0.066080	NaN	0.000000	0.001568	0.001632	28.0827	0.130474	0.001875	69.6024	134.669	-166.946	-0.011019	0.449155	-0.600321	-0.601633	0.066080	69.6024	-0.601033	-8.603728E+7	-7.680363E-10	NaN
346	1.000000	0.458438	7.36845e+06	-55939.1	955.819	-29740.6	0.000000	0.000000	6.458897	-0.003423	NaN	0.000000	0.001557	0.001686	28.0827	0.042840	0.002018	21.2287	78.4861	-168.287	-0.041282	0.457173	-0.592350	-0.593616	-0.003423	21.2287	-0.592229	-6.507281E+7	5.260180E-11	NaN
346	1.000000	0.466477	7.36845e+06	-55939.1	955.819	-29740.6	0.000000	0.000000	6.466935	-0.034632	NaN	0.000000	0.001579	0.001699	28.083	0.014121	0.001986	7.108881	153.856	-167.991	-0.094056	0.465192	-0.584311	-0.585596	-0.034632	7.108881	-0.580657	-4.506091E+7	7.685581E-10	NaN
346	1.000000	0.474446	7.36845e+06	-55939.1	955.818	-29740.6	0.000000	0.000000	6.474908	0.058645	NaN	0.000000	0.001587	0.001643	28.0825	0.042918	0.002052	20.92	79.4761	-163.854	0.010216	0.473158	-0.576343	-0.577630	0.058645	20.92	-0.578445	-4.200135E+7	-1.396256E-9	NaN
346	1.000000	0.482469	7.36845e+06	-55939.1	955.819	-29740.6	0.000000	0.000000	6.482929	0.018837	NaN	0.000000	0.001561	0.001664	28.0826	0.086033	0.002049	41.9853	-102.938	-163.613	0.020798	0.481205	-0.568320	-0.569584	0.018837	41.9853	-0.568656	-3.076544E+7	-6.122724E-10	NaN
346	1.000000	0.490465	7.36845e+06	-55939.1	955.819	-29740.6	0.000000	0.000000	6.490924	0.004968	NaN	0.000000	0.001567	0.001674	28.0828	0.097518	0.001920	50.8009	80.6573	-165.622	0.024116	0.489141	-0.560324	-0.561648	0.004968	50.8009	-0.560397	-2.365217E+7	-2.100343E-10	NaN
346	1.000000	0.498471	7.36845e+06	-55939.1	955.818	-29740.6	0.000000	0.000000	6.498931	0.019226	NaN	0.000000	0.001577	0.001693	28.0826	0.066711	0.001969	33.8852	-160.958	-164.368	0.057434	0.497166	-0.552318	-0.553623	0.019226	33.8852	-0.552743	-1.853289E+7	-1.037373E-9	NaN
346	1.000000	0.506520	7.36845e+06	-55939.1	955.819	-29740.6	0.000000	0.000000	6.506981	0.045540	NaN	0.000000	0.001569	0.001699	28.083	0.168170	0.001976	85.0912	92.2135	-165.96	0.048221	0.505234	-0.544269	-0.545554	0.045540	85.0912	-0.544670	-1.432538E+7	-3.179005E-9	NaN
346	1.000000	0.514468	7.36845e+06	-55939.1	955.818	-29740.6	0.000000	0.000000	6.514927	-0.014359	NaN	0.000000	0.001564	0.001664	28.0823	0.029409	0.001897	15.504	76.3911	-169.873	-0.020863	0.513124	-0.536320	-0.537664	-0.014359	15.504	-0.535626	-1.073175E+7	1.337990E-9	NaN
346	1.000000	0.522503	7.36845e+06	-55939.1	955.818	-29740.6	0.000000	0.000000	6.522963	0.002685	NaN	0.000000	0.001605	0.001673	28.0825	0.033547	0.002025	16.5655	-170.75	-164.033	-0.015930	0.521182	-0.528285	-0.529606	0.002685	16.5655	-0.528406	-8.52001e+06	-3.150824E-10	NaN
346	1.000000	0.530486	7.36845e+06	-55939.1	955.819	-29740.6	0.000000	0.000000	6.530947	0.040066	NaN	0.000000	0.001558	0.001679	28.0824	0.041928	0.002025	20.7059	174.006	-163.654	0.003743	0.529163	-0.520303	-0.521626	0.040066	20.7059	-0.521754	-6.8863e+06	-5.818242E-9	NaN
346	1.000000	0.538499	7.36845e+06	-55939.1	955.819	-29740.6	0.000000	0.000000	6.538960	0.045952	NaN	0.000000	0.001565	0.001674	28.0822	0.108967	0.002082	52.3483	-113.537	-164.577	0.027403	0.537260	-0.512290	-0.513528	0.045952	52.3483	-0.512948	-5.19358e+06	-8.847911E-9	NaN
346	1.000000	0.546514	7.36845e+06	-55939.1	955.818	-29740.6	0.000000	0.000000	6.546972	-0.051456	NaN	0.000000	0.001599	0.001675	28.0813	0.046779	0.002033	23.0155	130.98	-166.426	0.025198	0.545134	-0.504274	-0.505654	-0.051456	23.0155	-0.502597	-3.72599e+06	1.380992E-8	NaN
346	1.000000	0.554510	7.36845e+06	-55939.1	955.819	-29740.6	0.000000	0.000000	6.554970	-0.001039	NaN	0.000000	0.001587	0.001688	28.0811	0.055454	0.001952	28.4049	-44.2021	-167.303	-0.017484	0.553185	-0.496278	-0.497603	-0.001039	28.4049	-0.496250	-3.03873e+06	3.417558E-10	NaN
346	1.000000	0.562517	7.36845e+06	-55939.1	955.818	-29740.6	0.000000	0.000000	6.562977	-0.011339	NaN	0.000000	0.001558	0.001626	28.0813	0.019172	0.002018	9.499744	-120.056	-165.67	-0.048329	0.561168	-0.488271	-0.489620	-0.011339	9.499744	-0.487376	-2.28409e+06	4.964495E-9	NaN
346	1.000000	0.570490	7.36845e+06	-55939.1	955.819	-29740.6	0.000000	0.000000	6.570950	-0.008965	NaN	0.000000	0.001610	0.001679	28.0812	0.024967	0.001997	12.4997	-49.6549	-168.264	-0.008566	0.569130	-0.480298	-0.481659	-0.008965	12.4997	-0.479760	-1.78717e+06	5.016530E-9	NaN
346	1.000000	0.578531	7.36845e+06	-55939.1	955.818	-29740.6	0.000000	0.000000	6.578992	0.025282	NaN	0.000000	0.001582	0.001657	28.0813	0.094139	0.001994	47.2123	15.3947	-163.818	0.045776	0.577251	-0.472257	-0.473538	0.025282	47.2123	-0.472659	-1.42131e+06	-1.778761E-8	NaN
346	1.000000	0.586506	7.36845e+06	-55939.1	955.819	-29740.6	0.000000	0.000000	6.586966	-0.008867	NaN	0.000000	0.001606	0.001680	28.0812	0.028485	0.002055	13.8593	107.249	-168.365	0.047077	0.585232	-0.464282	-0.465557	-0.008867	13.8593	-0.463802	-1.06765e+06	8.304948E-9	NaN
346	1.000000	0.594536	7.36845e+06	-55939.1	955.818	-29740.6	0.000000	0.000000	6.594995	-0.018776	NaN	0.000000	0.001598	0.001655	28.081	0.045280	0.001908	23.7267	-62.4149	-168.314	-0.025714	0.593237	-0.456253	-0.457551	-0.018776	23.7267	-0.455659	-820328	2.288798E-8	NaN
346	1.000000	0.602532	7.36845e+06	-55939.1	955.818	-29740.6	0.000000	0.000000	6.602993	0.020179	NaN	0.000000	0.001563	0.001677	28.0813	0.067979	0.002009	33.8296	-22.3062	-164.481	0.012938	0.601203	-0.448256	-0.449585	0.020179	33.8296	-0.448703	-654756	-3.081927E-8	NaN
346	1.000000	0.610516	7.36845e+06	-55939.1	955.818	-29740.6	0.000000	0.000000	6.610977	0.043749	NaN	0.000000	0.001582	0.001677	28.0809	0.067413	0.001958	34.4247	-85.5314	-164.451	0.016483	0.609232	-0.440273	-0.441556	0.043749	34.4247	-0.441226	-513644	-8.517425E-8	NaN
346	1.000000	0.618514	7.36845e+06	-55939.1	955.818	-29740.6	0.000000	0.000000	6.618974	0.018600	NaN	0.000000	0.001607	0.001644	28.0813	0.141558	0.001975	71.6769	-175.546	-169.157	0.034331	0.617199	-0.432275	-0.433589	0.018600	71.6769	-0.432469	-386352	-4.814309E-8	NaN
346	1.000000	0.626529	7.36845e+06	-55939.1	955.819	-29740.6	0.000000	0.000000	6.626988	-0.006293	NaN	0.000000	0.001592	0.001638	28.0812	0.065919	0.001902	34.6664	-50.7849	-167.434	0.002796	0.625194	-0.424259	-0.425594	-0.006293	34.6664	-0.424123	-294348	2.137876E-8	NaN
346	1.000000	0.634555	7.36845e+06	-55939.1	955.819	-29740.6	0.000000	0.000000	6.635014	-0.015849	NaN	0.000000	0.001582	0.001706	28.0814	0.093158	0.001977	47.1128	137.885	-168.29	-0.006722	0.633247	-0.416234	-0.417542	-0.015849	47.1128	-0.415981	-225627	7.024366E-8	NaN
346	1.000000	0.642570	7.36845e+06	-55939.1	955.819	-29740.6	0.000000	0.000000	6.643030	0.017575	NaN	0.000000	0.001596	0.001693	28.0814	0.011351	0.002052	5.530809	-54.3923	-168.989	0.112641	0.641237	-0.408219	-0.409551	0.017575	5.530809	-0.410602	-189218	-9.288504E-8	NaN
346	1.000000	0.650555	7.36845e+06	-55939.1	955.818	-29740.6	0.000000	0.000000	6.651015	0.017261	NaN	0.000000	0.001631	0.001658	28.0809	0.109700	0.002019	54.3396	18.184	-166.087	0.034319	0.649235	-0.400233	-0.401553	0.017261	54.3396	-0.400472	-135744	-1.271598E-7	NaN
346	1.000000	0.658545	7.36845e+06	-55939.1	955.818	-29740.6	0.000000	0.000000	6.659002	-0.063629	NaN	0.000000	0.001578	0.001688	28.0816	0.025221	0.002079	12.1302	-67.756	-165.947	-0.025870	0.657216	-0.392244	-0.393572	-0.063629	12.1302	-0.388309	-90986.6	6.993285E-7	NaN
346	1.000000	0.666556	7.36845e+06	-55939.1	955.818	-29740.6	0.000000	0.000000	6.667014	-0.047826	NaN	0.000000	0.001648	0.001715	28.0809	0.038608	0.001949	19.8051	137.554	-165.206	-0.059606	0.665248	-0.384232	-0.385540	-0.047826	19.8051	-0.382421	-74924.6	6.383153E-7	NaN
346	1.000000	0.674549	7.36845e+06	-55939.1	955.817	-29740.6	0.000000	0.000000	6.675009	-0.002940	NaN	0.000000	0.001680	0.001761	28.0811	0.096238	0.001957	49.1665	47.8101	-168.582	0.039640	0.673271	-0.376239	-0.377517	-0.002940	49.1665	-0.376194	-60986.4	4.821090E-8	NaN
346	1.000000	0.682555	7.36845e+06	-55939.1	955.818	-29740.6	0.000000	0.000000	6.683014	-0.013022	NaN	0.000000	0.001623	0.001735	28.0823	0.097955	0.002031	48.2415	-9.051842	-165.806	0.051128	0.681253	-0.368234	-0.369535	-0.013022	48.2415	-0.368031	-46533.5	2.798419E-7	NaN
346	1.000000	0.690552	7.36845e+06	-55939.1	955.818	-29740.6	0.000000	0.000000	6.691011	-0.013575	NaN	0.000000	0.001627	0.001699	28.0822	0.069304	0.001977	35.0523	62.7271	-167.537	-0.002312	0.689210	-0.360236	-0.361579	-0.013575	35.0523	-0.359946	-35568.2	3.816621E-7	NaN
346	1.000000	0.698544	7.36845e+06	-55939.1	955.818	-29740.6	0.000000	0.000000	6.699003	-0.012394	NaN	0.000000	0.001640	0.001717	28.0822	0.125168	0.001943	64.4266	111.937	-167.041	-0.016076	0.697293	-0.352245	-0.353495	-0.012394	64.4266	-0.352100	-27382.5	4.526231E-7	NaN
346	1.000000	0.706585	7.36845e+06	-55939.1	955.819	-29740.6	0.000000	0.000000	6.707047	0.051857	NaN	0.000000	0.001625	0.001696	28.0823	0.106915	0.001976	54.1012	-36.7737	-163.907	-0.002767	0.705252	-0.344203	-0.345536	0.051857	54.1012	-0.344922	-21538.8	-2.407615E-6	NaN
346	1.000000	0.714563	7.36845e+06	-55939.1	955.819	-29740.6	0.000000	0.000000	6.715026	0.072444	NaN	0.000000	0.001616	0.001668	28.0823	0.027198	0.001926	14.1208	-164.142	-167.274	0.038370	0.713258	-0.336225	-0.337530	0.072444	14.1208	-0.340073	-18306.8	-3.957196E-6	NaN
346	1.000000	0.722586	7.36845e+06	-55939.1	955.818	-29740.6	0.000000	0.000000	6.723043	-0.060973	NaN	0.000000	0.001642	0.001675	28.0822	0.036407	0.002018	18.0452	-14.5919	-170.63	-0.068228	0.721265	-0.328202	-0.329523	-0.060973	18.0452	-0.325668	-11270.5	5.409910E-6	NaN
346	1.000000	0.730549	7.36845e+06	-55939.1	955.818	-29740.6	0.000000	0.000000	6.731006	-0.071614	NaN	0.000000	0.001612	0.001675	28.0825	0.061421	0.002108	29.137	145.059	-163.586	-0.036525	0.729305	-0.320239	-0.321483	-0.071614	29.137	-0.318396	-8810.8	8.127982E-6	NaN
346	1.000000	0.738564	7.36845e+06	-55939.1	955.818	-29740.6	0.000000	0.000000	6.739024	0.004619	NaN	0.000000	0.001605	0.001658	28.0828	0.106378	0.001930	55.1052	59.6685	-166.656	-0.044122	0.737352	-0.312225	-0.313437	0.004619	55.1052	-0.312287	-7159.54	-6.451195E-7	NaN
346	1.000000	0.746552	7.36845e+06	-55939.1	955.819	-29740.6	0.000000	0.000000	6.747012	-0.001875	NaN	0.000000	0.001627	0.001649	28.0826	0.134544	0.001944	69.1945	-13.0484	-164.45	0.017385	0.745293	-0.304236	-0.305496	-0.001875	69.1945	-0.304216	-5436.38	3.448069E-7	NaN
346	1.000000	0.754596	7.36845e+06	-55939.1	955.818	-29740.6	0.000000	0.000000	6.755058	0.041316	NaN	0.000000	0.001645	0.001639	28.0826	0.066965	0.001929	34.7154	28.8517	-167.715	-0.013657	0.753274	-0.296192	-0.297514	0.041316	34.7154	-0.297085	-4257.94	-9.703261E-6	NaN
346	1.000000	0.762587	7.36845e+06	-55939.1	955.819	-29740.6	0.000000	0.000000	6.763048	0.023183	NaN	0.000000	0.001633	0.001675	28.0826	0.056016	0.002145	26.1145	-30.3869	-164.652	-0.010257	0.761283	-0.288201	-0.289505	0.023183	26.1145	-0.288867	-3208.65	-7.225051E-6	NaN
346	1.000000	0.770593	7.36845e+06	-55939.1	955.818	-29740.6	0.000000	0.000000	6.771051	-0.034104	NaN	0.000000	0.001613	0.001690	28.0825	0.022906	0.002144	10.6815	166.812	-167.473	-0.023580	0.769290	-0.280196	-0.281498	-0.034104	10.6815	-0.277801	-2186.61	1.559696E-5	NaN
346	1.000000	0.778620	7.36845e+06	-55939.1	955.818	-29740.6	0.000000	0.000000	6.779078	-0.038957	NaN	0.000000	0.001639	0.001702	28.0828	0.051489	0.001974	26.0836	-142.922	-167.079	-0.003108	0.777319	-0.272168	-0.273469	-0.038957	26.0836	-0.271048	-1727.71	2.254814E-5	NaN
346	1.000000	0.786586	7.36845e+06	-55939.1	955.818	-29740.6	0.000000	0.000000	6.787047	0.027395	NaN	0.000000	0.001640	0.001701	28.0827	0.050842	0.002196	23.1493	75.9768	-165.15	0.037215	0.785284	-0.264202	-0.265504	0.027395	23.1493	-0.265090	-1402.04	-1.953976E-5	NaN
346	1.000000	0.794619	7.36845e+06	-55939.1	955.819	-29740.6	0.000000	0.000000	6.795079	-0.012720	NaN	0.000000	0.001602	0.001710	28.0826	0.097096	0.002024	47.9713	147.225	-164.286	-0.125819	0.793304	-0.256169	-0.257484	-0.012720	47.9713	-0.255970	-1016.35	1.251500E-5	NaN
346	1.000000	0.802576	7.36845e+06	-55939.1	955.818	-29740.6	0.000000	0.000000	6.803036	0.000161	NaN	0.000000	0.001634	0.001700	28.0827	0.071619	0.001914	37.4144	113.32	-167.828	-0.136506	0.801295	-0.248212	-0.249493	0.000161	37.4144	-0.248215	-771.505	-2.090406E-7	NaN
346	1.000000	0.810575	7.36845e+06	-55939.1	955.819	-29740.6	0.000000	0.000000	6.811036	0.030559	NaN	0.000000	0.001631	0.001707	28.0825	0.115845	0.001975	58.6512	68.2379	-168.154	0.049189	0.809302	-0.240213	-0.241486	0.030559	58.6512	-0.240604	-587.462	-5.201865E-5	NaN
346	1.000000	0.818606	7.36845e+06	-55939.1	955.817	-29740.6	0.000000	0.000000	6.819069	0.066513	NaN	0.000000	0.001629	0.001702	28.0811	0.068188	0.002036	33.4938	20.0335	-166.187	0.010023	0.817356	-0.232182	-0.233432	0.066513	33.4938	-0.233671	-457.48	-0.000145	NaN
346	1.000000	0.826615	7.36845e+06	-55939.1	955.819	-29740.6	0.000000	0.000000	6.827075	0.018979	NaN	0.000000	0.001617	0.001685	28.0812	0.044139	0.001960	22.515	-137.017	-166.14	0.115143	0.825318	-0.224174	-0.225470	0.018979	22.515	-0.224806	-331.323	-5.728324E-5	NaN
346	1.000000	0.834621	7.36845e+06	-55939.1	955.819	-29740.6	0.000000	0.000000	6.835081	0.016589	NaN	0.000000	0.001583	0.001721	28.0812	0.059965	0.001990	30.1379	-20.2878	-164.073	0.138586	0.833265	-0.216168	-0.217523	0.016589	30.1379	-0.216580	-244.854	-6.775112E-5	NaN
346	1.000000	0.842650	7.36845e+06	-55939.1	955.819	-29740.6	0.000000	0.000000	6.843109	-0.005389	NaN	0.000000	0.001633	0.001728	28.0811	0.054568	0.001993	27.3773	-128.545	-167	-0.053242	0.841319	-0.208139	-0.209469	-0.005389	27.3773	-0.207991	-177.926	3.028969E-5	NaN
346	1.000000	0.850609	7.36845e+06	-55939.1	955.818	-29740.6	0.000000	0.000000	6.851067	-0.048377	NaN	0.000000	0.001652	0.001731	28.0811	0.021707	0.001818	11.9404	123.571	-164.857	-0.020905	0.849371	-0.200179	-0.201417	-0.048377	11.9404	-0.197141	-118.196	0.000409	NaN
346	1.000000	0.858653	7.36845e+06	-55939.1	955.818	-29740.6	0.000000	0.000000	6.859110	-0.073792	NaN	0.000000	0.001605	0.001742	28.0811	0.123012	0.002147	57.2818	169.333	-164.046	0.084271	0.857312	-0.192135	-0.193476	-0.073792	57.2818	-0.191169	-94.0879	0.000784	NaN
346	1.000000	0.866629	7.36845e+06	-55939.1	955.818	-29740.6	0.000000	0.000000	6.867087	-0.033716	NaN	0.000000	0.001624	0.001717	28.0811	0.054155	0.002023	26.7704	40.5884	-167.503	-0.134572	0.865364	-0.184160	-0.185424	-0.033716	26.7704	-0.183215	-69.183	0.000487	NaN
346	1.000000	0.874642	7.36845e+06	-55939.1	955.819	-29740.6	0.000000	0.000000	6.875102	0.022233	NaN	0.000000	0.001600	0.001725	28.0811	0.043871	0.002059	21.3117	147.357	-170.706	-0.017689	0.873334	-0.176147	-0.177454	0.022233	21.3117	-0.176929	-54.0834	-0.000411	NaN
346	1.000000	0.882635	7.36845e+06	-55939.1	955.818	-29740.6	0.000000	0.000000	6.883096	0.019889	NaN	0.000000	0.001593	0.001751	28.0811	0.109790	0.001914	57.3664	-178.726	-166.438	-0.000308	0.881350	-0.168153	-0.169439	0.019889	57.3664	-0.168413	-38.5487	-0.000516	NaN
346	1.000000	0.890649	7.36845e+06	-55939.1	955.819	-29740.6	0.000000	0.000000	6.891111	0.054323	NaN	0.000000	0.001634	0.001715	28.0813	0.066448	0.002192	30.311	137.055	-166.584	-0.029692	0.889315	-0.160139	-0.161474	0.054323	30.311	-0.161483	-29.127	-0.001865	NaN
346	1.000000	0.898648	7.36845e+06	-55939.1	955.819	-29740.6	0.000000	0.000000	6.899105	-0.043916	NaN	0.000000	0.001600	0.001755	28.081	0.066437	0.002019	32.8986	-167.799	-166.017	-0.010162	0.897342	-0.152141	-0.153446	-0.043916	32.8986	-0.151140	-19.0001	0.002311	NaN
346	1.000000	0.906635	7.36845e+06	-55939.1	955.818	-29740.6	0.000000	0.000000	6.907093	-0.035326	NaN	0.000000	0.001602	0.001752	28.0811	0.090216	0.002079	43.4037	124.147	-168.739	0.000436	0.905376	-0.144153	-0.145412	-0.035326	43.4037	-0.143543	-13.777	0.002564	NaN
346	1.000000	0.914654	7.36845e+06	-55939.1	955.818	-29740.6	0.000000	0.000000	6.915116	0.063044	NaN	0.000000	0.001601	0.001724	28.081	0.063735	0.001992	31.9917	60.6076	-167.703	0.003059	0.913321	-0.136134	-0.137467	0.063044	31.9917	-0.137612	-10.6646	-0.005911	NaN
346	1.000000	0.922633	7.36845e+06	-55939.1	955.819	-29740.6	0.000000	0.000000	6.923094	0.030968	NaN	0.000000	0.001627	0.001764	28.0809	0.151619	0.002135	71.0268	-172.724	-168.623	0.023782	0.921374	-0.128155	-0.129414	0.030968	71.0268	-0.128482	-7.119431	-0.004350	NaN
346	1.000000	0.930677	7.36845e+06	-55939.1	955.818	-29740.6	0.000000	0.000000	6.931139	0.052665	NaN	0.000000	0.001616	0.001757	28.0813	0.134385	0.002090	64.2935	165.232	-168.162	-0.010755	0.929313	-0.120111	-0.121475	0.052665	64.2935	-0.120726	-4.996939	-0.010539	NaN
346	1.000000	0.938637	7.36845e+06	-55939.1	955.818	-29740.6	0.000000	0.000000	6.939096	-0.008264	NaN	0.000000	0.001622	0.001770	28.081	0.084258	0.001978	42.6079	-19.246	-171.513	0.022022	0.937373	-0.112152	-0.113416	-0.008264	42.6079	-0.112006	-3.311150	0.002496	NaN
346	1.000000	0.946680	7.36845e+06	-55939.1	955.818	-29740.6	0.000000	0.000000	6.947143	0.086069	NaN	0.000000	0.001627	0.001762	28.0814	0.095020	0.002077	45.7549	-152.106	-167.568	0.017590	0.945358	-0.104109	-0.105430	0.086069	45.7549	-0.105520	-2.412034	-0.035683	NaN
346	1.000000	0.954656	7.36845e+06	-55939.1	955.819	-29740.6	0.000000	0.000000	6.955115	-0.010603	NaN	0.000000	0.001595	0.001758	28.0823	0.142462	0.001976	72.0891	96.7104	-165.609	-0.041966	0.953379	-0.096132	-0.097410	-0.010603	72.0891	-0.096022	-1.488106	0.007125	NaN
346	1.000000	0.962684	7.36845e+06	-55939.1	955.817	-29740.6	0.000000	0.000000	6.963142	-0.029780	NaN	0.000000	0.001621	0.001747	28.0823	0.067346	0.001941	34.691	108.747	-166.991	0.047981	0.961354	-0.088105	-0.089434	-0.029780	34.691	-0.087461	-0.941404	0.031634	NaN
346	1.000000	0.970708	7.36845e+06	-55939.1	955.818	-29740.6	0.000000	0.000000	6.971166	-0.055731	NaN	0.000000	0.001588	0.001751	28.0828	0.065576	0.001907	34.3894	-95.5926	-167.606	-0.047346	0.969353	-0.080080	-0.081435	-0.055731	34.3894	-0.078865	-0.579676	0.096141	NaN
346	1.000000	0.978673	7.36845e+06	-55939.1	955.818	-29740.6	0.000000	0.000000	6.979132	0.003363	NaN	0.000000	0.001607	0.001715	28.0824	0.073020	0.002055	35.5316	96.3068	-167.058	0.046355	0.977396	-0.072116	-0.073393	0.003363	35.5316	-0.072187	-0.389965	-0.008624	NaN
346	1.000000	0.986676	7.36845e+06	-55939.1	955.817	-29740.6	0.000000	0.000000	6.987134	-0.035938	NaN	0.000000	0.001664	0.001713	28.0827	0.141980	0.002051	69.2236	-51.3765	-166.347	0.009323	0.985389	-0.064113	-0.065400	-0.035938	69.2236	-0.063723	-0.229616	0.156512	NaN
346	1.000000	0.994681	7.36845e+06	-55939.1	955.817	-29740.6	0.000000	0.000000	6.995143	0.056661	NaN	0.000000	0.001646	0.001720	28.0822	0.072793	0.001890	38.5083	175.204	-166.809	0.027942	0.993377	-0.056107	-0.057411	0.056661	38.5083	-0.057211	-0.149550	-0.378876	NaN
346	1.000000	1.002697	7.36845e+06	-55939.1	955.817	-29740.6	0.000000	0.000000	7.003156	-0.015327	NaN	0.000000	0.001643	0.001689	28.0822	0.097077	0.002095	46.3422	-33.6528	-167.087	0.029069	1.001362	-0.048092	-0.049427	-0.015327	46.3422	-0.047844	-0.078487	0.195284	NaN
346	1.000000	1.010713	7.36845e+06	-55939.1	955.816	-29740.6	0.000000	0.000000	7.011174	0.035406	NaN	0.000000	0.001629	0.001741	28.0822	0.086766	0.002080	41.7125	176.377	-167.834	0.054865	1.009355	-0.040075	-0.041434	0.035406	41.7125	-0.040712	-0.047533	-0.744872	NaN
346	1.000000	1.018709	7.36845e+06	-55939.1	955.818	-29740.6	0.000000	0.000000	7.019171	0.051926	NaN	0.000000	0.001618	0.001767	28.0821	0.069732	0.001982	35.1896	-20.588	-167.917	-0.018495	1.017380	-0.032080	-0.033408	0.051926	35.1896	-0.033186	-0.028348	-1.831781	NaN
346	1.000000	1.026686	7.36845e+06	-55939.1	955.817	-29740.6	0.000000	0.000000	7.027146	-0.008395	NaN	0.000000	0.001612	0.001713	28.0824	0.081330	0.002033	40.0142	66.924	-166.996	-0.020077	1.025399	-0.024102	-0.025390	-0.008395	40.0142	-0.023944	-0.015838	0.530057	NaN
346	1.000000	1.034681	7.36845e+06	-55939.1	955.817	-29740.6	0.000000	0.000000	7.035141	0.007480	NaN	0.000000	0.001606	0.001759	28.0821	0.090235	0.002070	43.6022	-76.3124	-168.872	-0.010051	1.033389	-0.016107	-0.017399	0.007480	43.6022	-0.016236	-0.010029	-0.745869	NaN
346	1.000000	1.042710	7.36845e+06	-55939.1	955.816	-29740.6	0.000000	0.000000	7.043168	-0.048496	NaN	0.000000	0.001589	0.001723	28.0824	0.095271	0.001865	51.0954	87.5727	-164.386	-0.053376	1.041352	-0.008078	-0.009437	-0.048496	51.0954	-0.007367	-0.004859	9.981705	NaN
346	1.000000	1.050680	7.36845e+06	-55939.1	955.816	-29740.6	0.000000	0.000000	7.051149	0.225296	NaN	0.000000	0.001630	0.001759	28.0823	0.270522	0.001941	139.353	32.5491	-168.104	0.012709	1.049430	-0.000108	-0.001358	0.225296	139.353	-0.001321	-0.000962	-234.074	NaN
346	1.000000	1.058700	7.36845e+06	-55939.1	955.816	-29740.6	0.000000	0.000000	7.059400	5.847352	NaN	0.000000	0.001605	0.001713	28.0824	6.780504	0.001770	3831.35	13.3272	-170.942	4.850762	1.057399	0.007912	0.006610	5.847352	3831.35	0.006767	0.005805	1007.34	45944.6
346	2.000000	1.063287	7.36845e+06	-55939.1	955.817	-29740.6	0.000000	0.000000	7.064197	10.9332	NaN	0.000000	0.001595	0.001757	28.0822	10.9284	0.001701	6425.83	6.697386	-173.654	10.1846	1.062970	0.012499	0.012181	10.9332	6425.83	0.011223	0.010572	1034.13	57097.3
346	2.000000	1.065216	7.36845e+06	-55939.1	955.816	-29740.6	0.000000	0.000000	7.066250	13.9592	NaN	0.000000	0.001595	0.001735	28.0822	12.7536	0.001668	7647.75	5.871553	-174.308	13.7262	1.064931	0.014428	0.014143	13.9592	7647.75	0.013059	0.012783	1092.02	61800.4
346	2.000000	1.067226	7.36845e+06	-55939.1	955.815	-29740.6	0.000000	0.000000	7.068333	15.7252	NaN	0.000000	0.001623	0.001697	28.0833	15.0823	0.001831	8239.04	9.495713	-177.18	15.6128	1.066883	0.016438	0.016095	15.7252	8239.04	0.015006	0.015294	1028.19	60868.1
346	2.000000	1.069163	7.36845e+06	-55939.1	955.817	-29740.6	0.000000	0.000000	7.070578	23.202	NaN	0.000000	0.001611	0.001681	28.081	16.7321	0.001588	10536.3	4.318259	-177.374	21.5078	1.068827	0.018375	0.018039	23.202	10536.3	0.016723	0.017653	1314.36	72452.7
346	2.000000	1.071170	7.36845e+06	-55939.1	955.817	-29740.6	0.000000	0.000000	7.072640	24.5517	NaN	0.000000	0.001601	0.001714	28.081	18.6255	0.001620	11498.9	3.310899	-175.932	22.8959	1.070812	0.020382	0.020024	24.5517	11498.9	0.018780	0.020662	1188.27	73088.1
346	2.000000	1.073240	7.36845e+06	-55939.1	955.817	-29740.6	0.000000	0.000000	7.074950	30.4012	NaN	0.000000	0.001604	0.001715	28.0811	21.5791	0.001670	12918.9	6.973860	-179.413	31.0765	1.072837	0.022451	0.022049	30.4012	12918.9	0.020686	0.023632	1286.43	76779.5
346	2.000000	1.075166	7.36845e+06	-55939.1	955.818	-29740.6	0.000000	0.000000	7.076932	31.7664	NaN	0.000000	0.001599	0.001745	28.0809	23.8685	0.001821	13110.2	4.942417	-179.279	30.6356	1.074827	0.024377	0.024039	31.7664	13110.2	0.022560	0.026726	1188.59	73268.2
346	2.000000	1.077156	7.36845e+06	-55939.1	955.818	-29740.6	0.000000	0.000000	7.079209	38.7139	NaN	0.000000	0.001619	0.001773	28.0812	26.594	0.001801	14767.3	8.259681	177.777	37.918	1.076792	0.026368	0.026004	38.7139	14767.3	0.024402	0.029936	1293.21	77978.9
346	2.000000	1.079202	7.36845e+06	-55939.1	955.817	-29740.6	0.000000	0.000000	7.081362	41.3415	NaN	0.000000	0.001558	0.001766	28.0809	27.4	0.001781	15388.7	7.258128	179.135	43.0345	1.078843	0.028413	0.028054	41.3415	15388.7	0.026398	0.033609	1230.08	76691.7
346	2.000000	1.081183	7.36845e+06	-55939.1	955.817	-29740.6	0.000000	0.000000	7.083588	47.2812	NaN	0.000000	0.001577	0.001703	28.0809	29.8334	0.001690	17651.1	6.981546	176.959	47.0366	1.080807	0.030395	0.030019	47.2812	17651.1	0.028386	0.037464	1262.03	83317.3
346	2.000000	1.083134	7.36845e+06	-55939.1	955.817	-29740.6	0.000000	0.000000	7.085901	56.0904	NaN	0.000000	0.001604	0.001736	28.0808	32.9826	0.001833	17992.1	9.355097	174.055	55.2928	1.082850	0.032346	0.032061	56.0904	17992.1	0.030008	0.040760	1376.12	81421.6
346	2.000000	1.085145	7.36845e+06	-55939.1	955.817	-29740.6	0.000000	0.000000	7.088190	62.8473	NaN	0.000000	0.001636	0.001734	28.0808	33.89	0.001706	19865.8	4.639949	176.943	61.2755	1.084817	0.034357	0.034028	62.8473	19865.8	0.031984	0.044956	1397.96	85602.1
346	2.000000	1.087149	7.36845e+06	-55939.1	955.816	-29740.6	0.000000	0.000000	7.090339	66.3812	NaN	0.000000	0.001621	0.001717	28.0821	38.2176	0.001854	20611.4	4.720656	177.328	65.5366	1.086888	0.036360	0.036100	66.3812	20611.4	0.033945	0.049318	1345.99	84796.7
346	2.000000	1.089115	7.36845e+06	-55939.1	955.817	-29740.6	0.000000	0.000000	7.092656	74.9047	NaN	0.000000	0.001620	0.001732	28.081	39.0385	0.001910	20439.3	3.264928	179.397	72.8695	1.088798	0.038326	0.038010	74.9047	20439.3	0.035578	0.053100	1410.64	81038.6
346	2.000000	1.091131	7.36845e+06	-55939.1	955.815	-29740.6	0.000000	0.000000	7.094994	82.7094	NaN	0.000000	0.001651	0.001717	28.0811	41.0723	0.001951	21049	5.754737	177.571	82.1671	1.090802	0.040343	0.040014	82.7094	21049	0.037396	0.057472	1439.12	80218.8
346	2.000000	1.093106	7.36845e+06	-55939.1	955.816	-29740.6	0.000000	0.000000	7.097294	90.6153	NaN	0.000000	0.001619	0.001739	28.0806	41.991	0.001685	24925.5	6.629950	174.56	87.6277	1.092762	0.042318	0.041973	90.6153	24925.5	0.039592	0.062977	1438.86	90745.4
346	2.000000	1.095140	7.36845e+06	-55939.1	955.815	-29740.6	0.000000	0.000000	7.099728	100.343	NaN	0.000000	0.001626	0.001758	28.0811	43.757	0.001752	24969.6	7.741406	173.455	101.587	1.094846	0.044352	0.044058	100.343	24969.6	0.041338	0.067531	1485.87	87787.5
346	2.000000	1.097084	7.36845e+06	-55939.1	955.815	-29740.6	0.000000	0.000000	7.101825	104.073	NaN	0.000000	0.001634	0.001731	28.081	46.8457	0.001781	26298.9	8.137146	171.451	99.3342	1.096850	0.046296	0.046062	104.073	26298.9	0.043328	0.072911	1427.4	88984.6
346	2.000000	1.099102	7.36845e+06	-55939.1	955.816	-29740.6	0.000000	0.000000	7.104338	116.118	NaN	0.000000	0.001619	0.001736	28.0809	46.226	0.001651	27993.5	0.684341	179.474	115.279	1.098832	0.048313	0.048043	116.118	27993.5	0.045202	0.078163	1485.59	91480.9
346	2.000000	1.101072	7.36845e+06	-55939.1	955.816	-29740.6	0.000000	0.000000	7.106584	122.823	NaN	0.000000	0.001638	0.001747	28.0812	49.9033	0.001836	27174.3	3.424149	176.687	119.441	1.100783	0.050283	0.049995	122.823	27174.3	0.046894	0.083054	1478.84	86149.3
346	2.000000	1.103126	7.36845e+06	-55939.1	955.815	-29740.6	0.000000	0.000000	7.109049	132.805	NaN	0.000000	0.001614	0.001711	28.0821	53.0374	0.001805	29387	9.565478	170.237	132.906	1.102770	0.052338	0.051982	132.805	29387	0.048948	0.089190	1489.02	89902.5
346	2.000000	1.105041	7.36845e+06	-55939.1	955.816	-29740.6	0.000000	0.000000	7.111439	144.357	NaN	0.000000	0.001645	0.001747	28.0821	53.1888	0.001785	29799.4	3.487655	175.733	140.466	1.104724	0.054253	0.053936	144.357	29799.4	0.050619	0.094337	1530.22	88642
346	2.000000	1.107127	7.36845e+06	-55939.1	955.817	-29740.6	0.000000	0.000000	7.113702	148.655	NaN	0.000000	0.001690	0.001720	28.0823	56.277	0.001770	31794.6	6.246663	173.139	147.253	1.106721	0.056338	0.055933	148.655	31794.6	0.052832	0.101367	1466.5	91238.8
346	2.000000	1.109105	7.36845e+06	-55939.1	955.816	-29740.6	0.000000	0.000000	7.116397	166.074	NaN	0.000000	0.001653	0.001746	28.0822	56.8413	0.001690	33626.8	5.629788	173.363	164.668	1.108707	0.058317	0.057919	166.074	33626.8	0.054613	0.107202	1549.16	93833.1
346	2.000000	1.111088	7.36845e+06	-55939.1	955.816	-29740.6	0.000000	0.000000	7.118787	175.983	NaN	0.000000	0.001648	0.001741	28.0828	59.7583	0.001826	32723.7	3.141136	176.362	173.747	1.110701	0.060299	0.059913	175.983	32723.7	0.056266	0.112760	1560.69	89034.6
346	2.000000	1.113153	7.36845e+06	-55939.1	955.818	-29740.6	0.000000	0.000000	7.121014	179.928	NaN	0.000000	0.001671	0.001747	28.0824	61.2766	0.001797	34102.2	3.323530	175.22	179.412	1.112830	0.062364	0.062041	179.928	34102.2	0.058407	0.120158	1497.42	89883.1
346	2.000000	1.115047	7.36845e+06	-55939.1	955.817	-29740.6	0.000000	0.000000	7.123396	191.767	NaN	0.000000	0.001675	0.001767	28.0823	63.869	0.001739	36729.3	6.690119	170.175	188.323	1.114780	0.064258	0.063991	191.767	36729.3	0.060343	0.127040	1509.5	94149.1
346	2.000000	1.117149	7.36845e+06	-55939.1	955.817	-29740.6	0.000000	0.000000	7.126087	206.091	NaN	0.000000	0.001650	0.001738	28.0823	66.2378	0.001716	38606.1	8.852977	168.538	207.327	1.116708	0.066361	0.065920	206.091	38606.1	0.062357	0.134397	1533.45	96213.3
346	2.000000	1.119099	7.36845e+06	-55939.1	955.817	-29740.6	0.000000	0.000000	7.128547	218.472	NaN	0.000000	0.001620	0.001756	28.0823	66.5555	0.001821	36555.4	4.219688	174.317	217.604	1.118699	0.068311	0.067910	218.472	36555.4	0.063829	0.139895	1561.69	89294.4
346	2.000000	1.121053	7.36845e+06	-55939.1	955.818	-29740.6	0.000000	0.000000	7.130925	228.79	NaN	0.000000	0.001635	0.001758	28.0831	69.6717	0.001713	40682.7	5.434980	172.022	225.55	1.120727	0.070265	0.069939	228.79	40682.7	0.066047	0.148381	1541.91	96492.6
346	2.000000	1.123088	7.36845e+06	-55939.1	955.816	-29740.6	0.000000	0.000000	7.133466	241.098	NaN	0.000000	0.001654	0.001752	28.0826	73.2909	0.001963	37329.5	9.266379	169.507	238.018	1.122713	0.072300	0.071925	241.098	37329.5	0.067456	0.153893	1566.66	86939.2
346	2.000000	1.125032	7.36845e+06	-55939.1	955.817	-29740.6	0.000000	0.000000	7.135692	247.934	NaN	0.000000	0.001635	0.001737	28.0824	73.1018	0.001749	41805.4	0.879157	175.572	244.243	1.124830	0.074244	0.074041	247.934	41805.4	0.069796	0.163258	1518.66	94529.6
346	2.000000	1.127140	7.36845e+06	-55939.1	955.817	-29740.6	0.000000	0.000000	7.138422	263.072	NaN	0.000000	0.001630	0.001728	28.0824	76.0333	0.001804	42158.3	3.944405	173.184	266.431	1.126766	0.076352	0.075977	263.072	42158.3	0.071672	0.170954	1538.84	93157.2
346	2.000000	1.129093	7.36845e+06	-55939.1	955.816	-29740.6	0.000000	0.000000	7.140783	272.965	NaN	0.000000	0.001623	0.001708	28.0825	76.6506	0.001775	43172.6	3.609826	173.384	272.333	1.128658	0.078305	0.077870	272.965	43172.6	0.073563	0.178884	1525.93	93260.1
346	2.000000	1.131085	7.36845e+06	-55939.1	955.816	-29740.6	0.000000	0.000000	7.143433	288.978	NaN	0.000000	0.001606	0.001726	28.0834	80.6162	0.001802	44737.9	5.213805	171.655	290.354	1.130715	0.080297	0.079927	288.978	44737.9	0.075452	0.186971	1545.57	94528.3
346	2.000000	1.133044	7.36845e+06	-55939.1	955.816	-29740.6	0.000000	0.000000	7.146132	306.973	NaN	0.000000	0.001625	0.001729	28.0825	81.6913	0.001816	44991.6	5.818351	171.336	303.499	1.132649	0.082256	0.081860	306.973	44991.6	0.077139	0.194333	1579.62	93246.1
346	2.000000	1.135111	7.36845e+06	-55939.1	955.817	-29740.6	0.000000	0.000000	7.148650	317.944	NaN	0.000000	0.001639	0.001738	28.0825	83.2971	0.001741	47849.2	5.546328	170.934	319.08	1.134723	0.084322	0.083934	317.944	47849.2	0.079339	0.204138	1557.5	96757.8
346	2.000000	1.137003	7.36845e+06	-55939.1	955.816	-29740.6	0.000000	0.000000	7.150765	323.345	NaN	0.000000	0.001603	0.001712	28.0814	86.624	0.001861	46542.2	5.970854	169.821	319.149	1.136907	0.086214	0.086119	323.345	46542.2	0.081004	0.211709	1527.31	92416.9
346	2.000000	1.139041	7.36845e+06	-55939.1	955.815	-29740.6	0.000000	0.000000	7.153537	341.197	NaN	0.000000	0.001640	0.001694	28.0811	87.7795	0.001935	45352.6	4.631252	171.507	337.759	1.138625	0.088253	0.087836	341.197	45352.6	0.082610	0.219134	1557.03	88515.8
346	2.000000	1.141091	7.36845e+06	-55939.1	955.815	-29740.6	0.000000	0.000000	7.155948	349.954	NaN	0.000000	0.001606	0.001701	28.0813	88.7664	0.001775	50010.3	6.438046	168.959	348.896	1.140840	0.090303	0.090052	349.954	50010.3	0.085055	0.230662	1517.17	95135.9
346	2.000000	1.143040	7.36845e+06	-55939.1	955.816	-29740.6	0.000000	0.000000	7.158788	371.608	NaN	0.000000	0.001587	0.001682	28.081	91.2865	0.001910	47782.8	3.856431	172.169	366.983	1.142729	0.092252	0.091940	371.608	47782.8	0.086419	0.237218	1566.52	89633.5
346	2.000000	1.145035	7.36845e+06	-55939.1	955.817	-29740.6	0.000000	0.000000	7.161420	387.12	NaN	0.000000	0.001604	0.001713	28.081	92.8487	0.001893	49035.6	5.672056	170.267	384.985	1.144720	0.094247	0.093932	387.12	49035.6	0.088326	0.246521	1570.33	90231.5
346	2.000000	1.146953	7.36845e+06	-55939.1	955.815	-29740.6	0.000000	0.000000	7.164126	406.254	NaN	0.000000	0.001648	0.001743	28.0811	94.141	0.001813	51913.9	4.780228	170.415	398.854	1.146732	0.096165	0.095944	406.254	51913.9	0.090296	0.256310	1585.01	93685.9
346	2.000000	1.148968	7.36845e+06	-55939.1	955.816	-29740.6	0.000000	0.000000	7.166633	418.221	NaN	0.000000	0.001580	0.001747	28.081	95.3141	0.001778	53604.9	6.286464	168.807	413.595	1.148667	0.098179	0.097879	418.221	53604.9	0.092328	0.266594	1568.75	94853.2
346	2.000000	1.151086	7.36845e+06	-55939.1	955.816	-29740.6	0.000000	0.000000	7.169339	432.521	NaN	0.000000	0.001675	0.001692	28.0812	97.7265	0.001856	52649.1	5.765180	170.414	433.556	1.150768	0.100298	0.099980	432.521	52649.1	0.094136	0.275904	1567.65	91576.7
346	2.000000	1.153173	7.36845e+06	-55939.1	955.817	-29740.6	0.000000	0.000000	7.171906	444.182	NaN	0.000000	0.001671	0.001727	28.0809	100.19	0.001835	54589.4	7.630449	168.377	450.426	1.152746	0.102385	0.101958	444.182	54589.4	0.096282	0.287148	1546.88	93074
346	2.000000	1.155002	7.36845e+06	-55939.1	955.816	-29740.6	0.000000	0.000000	7.174554	464.073	NaN	0.000000	0.001673	0.001711	28.0814	101.904	0.001864	54655.9	9.305014	165.764	461.099	1.154703	0.104214	0.103914	464.073	54655.9	0.097846	0.295469	1570.63	91865.8
346	2.000000	1.156977	7.36845e+06	-55939.1	955.817	-29740.6	0.000000	0.000000	7.177173	479.734	NaN	0.000000	0.001678	0.001719	28.0812	102.784	0.001826	56302.2	2.545880	172.348	473.493	1.156778	0.106189	0.105990	479.734	56302.2	0.099798	0.306020	1567.66	92987.3
346	2.000000	1.159012	7.36845e+06	-55939.1	955.817	-29740.6	0.000000	0.000000	7.180040	499.955	NaN	0.000000	0.001682	0.001718	28.081	104.172	0.001779	58562.4	5.909496	168.649	496.378	1.158681	0.108224	0.107893	499.955	58562.4	0.101821	0.317132	1576.49	95010.6
346	2.000000	1.160528	7.36845e+06	-55939.1	955.816	-29740.6	0.000000	0.000000	7.182056	512.123	NaN	0.000000	0.001624	0.001729	28.0809	105.581	0.001700	62115.2	5.097794	-10.985	508.902	1.160223	0.109740	0.109435	512.123	62115.2	0.103556	0.326813	1567.02	99270.8