File: remote_trans/data/nanoindenter/0828-1/data/Data_2025-08-06,11h17m57s/2025-07-22_16-23-58_1_544.txt
2025-07-22, 16:23:58, 1
Index	Phase	Displacement	Time	Pos X	Pos Y	Pos Z	Rot A	Rot B	Piezo Z	Force A	Force B	Gripper	Voltage A	Voltage B	Temperature	Amplitude force	Amplitude pos	Stiffness	Phase shift	Phase excitation	Force A raw	Displacement raw	HMax	HMax raw	Real Force	Real Stiffness	Contact Depth	Area	Hardness	Reduced Mod.
[#]	[#]	[um]	[s]	[um]	[um]	[um]	[m°]	[m°]	[um]	[uN]	[uN]	[V]	[V]	[V]	[°C]	[uN]	[um]	[N/m]	[°]	[°]	[uN]	[um]	[um]	[um]	[uN]	[N/m]	[um]	[um^2]	[MPa]	[MPa]
544	1.000000	0.002429	7.37037e+06	-49889.1	1005.82	-29757.5	0.000000	0.000000	6.002779	0.034027	NaN	0.000000	0.001687	0.001688	28.0813	0.068851	0.001012	68.0128	-17.1551	-172.864	-0.025264	0.001213	-1.133625	-1.134841	0.034027	68.0128	-1.134000	-1.433091E+15	-2.374367E-17	NaN
544	1.000000	0.012528	7.37037e+06	-49889.1	1005.82	-29757.5	0.000000	0.000000	6.012877	0.027004	NaN	0.000000	0.001733	0.001669	28.0812	0.072035	0.001222	58.9627	-44.4908	13.9809	0.094270	0.011052	-1.123526	-1.125002	0.027004	58.9627	-1.123870	-1.048060E+15	-2.576549E-17	NaN
544	1.000000	0.022418	7.37037e+06	-49889.1	1005.82	-29757.5	0.000000	0.000000	6.022765	-0.011613	NaN	0.000000	0.001720	0.001667	28.0813	0.056946	0.001809	31.4802	-42.2573	-161.799	-0.076780	0.021075	-1.113637	-1.114979	-0.011613	31.4802	-1.113360	-7.574890E+14	1.533113E-17	NaN
544	1.000000	0.032414	7.37037e+06	-49889.1	1005.82	-29757.5	0.000000	0.000000	6.032761	-0.030461	NaN	0.000000	0.001705	0.001638	28.0816	0.031181	0.001941	16.0663	3.979674	14.3655	0.034257	0.031011	-1.103640	-1.105043	-0.030461	16.0663	-1.102218	-5.368377E+14	5.674170E-17	NaN
544	1.000000	0.042376	7.37037e+06	-49889.1	1005.82	-29757.5	0.000000	0.000000	6.042727	0.062992	NaN	0.000000	0.001696	0.001634	28.0806	0.047070	0.001940	24.2618	-151.476	-164.708	0.114357	0.041102	-1.093678	-1.094952	0.062992	24.2618	-1.095625	-4.378635E+14	-1.438633E-16	NaN
544	1.000000	0.052397	7.37037e+06	-49889.1	1005.82	-29757.5	0.000000	0.000000	6.052744	-0.041699	NaN	0.000000	0.001705	0.001631	28.0805	0.020733	0.001942	10.6746	-160.274	16.4947	-0.109398	0.051058	-1.083657	-1.084996	-0.041699	10.6746	-1.080727	-2.762385E+14	1.509533E-16	NaN
544	1.000000	0.062402	7.37037e+06	-49889.1	1005.82	-29757.5	0.000000	0.000000	6.062748	-0.058892	NaN	0.000000	0.001731	0.001659	28.0801	0.048802	0.001943	25.1188	-141.253	-166.822	-0.072204	0.061114	-1.073652	-1.074940	-0.058892	25.1188	-1.071894	-2.101987E+14	2.801715E-16	NaN
544	1.000000	0.072409	7.37037e+06	-49889.1	1005.82	-29757.5	0.000000	0.000000	6.072758	0.019242	NaN	0.000000	0.001681	0.001687	28.0803	0.075467	0.002005	37.6461	159.55	11.2663	0.055767	0.071039	-1.063645	-1.065015	0.019242	37.6461	-1.064029	-1.648004E+14	-1.167589E-16	NaN
544	1.000000	0.082423	7.37037e+06	-49889.1	1005.82	-29757.5	0.000000	0.000000	6.082770	-0.010148	NaN	0.000000	0.001721	0.001692	28.0803	0.032269	0.002022	15.9619	-59.687	-163.144	0.088161	0.081099	-1.053631	-1.054955	-0.010148	15.9619	-1.053155	-1.177116E+14	8.621077E-17	NaN
544	1.000000	0.092414	7.37037e+06	-49889.1	1005.82	-29757.5	0.000000	0.000000	6.092758	-0.081344	NaN	0.000000	0.001703	0.001698	28.0804	0.063876	0.002044	31.249	68.2619	13.1052	0.005134	0.091095	-1.043640	-1.044959	-0.081344	31.249	-1.041688	-8.254050E+13	9.855051E-16	NaN
544	1.000000	0.102399	7.37037e+06	-49889.1	1005.82	-29757.5	0.000000	0.000000	6.102752	0.114812	NaN	0.000000	0.001729	0.001658	28.0803	0.129886	0.001931	67.267	25.6795	-163.252	0.163606	0.101109	-1.033655	-1.034945	0.114812	67.267	-1.034935	-6.696587E+13	-1.714482E-15	NaN
544	1.000000	0.112443	7.37037e+06	-49889.1	1005.82	-29757.5	0.000000	0.000000	6.112793	0.040920	NaN	0.000000	0.001685	0.001672	28.0803	0.126243	0.002008	62.877	9.759048	16.5185	0.037571	0.111040	-1.023611	-1.025014	0.040920	62.877	-1.024099	-4.787467E+13	-8.547259E-16	NaN
544	1.000000	0.122425	7.37037e+06	-49889.1	1005.82	-29757.5	0.000000	0.000000	6.122775	0.042510	NaN	0.000000	0.001647	0.001671	28.0803	0.018351	0.001966	9.333314	75.2762	-164.321	0.008222	0.121085	-1.013629	-1.014969	0.042510	9.333314	-1.017045	-3.847654E+13	-1.104840E-15	NaN
544	1.000000	0.132419	7.37037e+06	-49889.1	1005.82	-29757.5	0.000000	0.000000	6.132765	-0.054052	NaN	0.000000	0.001692	0.001650	28.08	0.075104	0.001920	39.1207	130.451	14.3671	-0.019079	0.131055	-1.003635	-1.004999	-0.054052	39.1207	-1.002599	-2.458970E+13	2.198146E-15	NaN
544	1.000000	0.142425	7.37037e+06	-49889.1	1005.82	-29757.5	0.000000	0.000000	6.142775	0.047392	NaN	0.000000	0.001714	0.001662	28.0799	0.026753	0.002138	12.5104	-68.5364	-166.831	-0.017567	0.141171	-0.993629	-0.994883	0.047392	12.5104	-0.996470	-2.033496E+13	-2.330587E-15	NaN
544	1.000000	0.152430	7.37037e+06	-49889.1	1005.82	-29757.5	0.000000	0.000000	6.152779	0.005830	NaN	0.000000	0.001704	0.001633	28.0804	0.119857	0.001950	61.4507	83.4871	14.2775	0.069886	0.151071	-0.983624	-0.984983	0.005830	61.4507	-0.983695	-1.368312E+13	-4.260946E-16	NaN
544	1.000000	0.162422	7.37037e+06	-49889.1	1005.82	-29757.5	0.000000	0.000000	6.162768	-0.042264	NaN	0.000000	0.001714	0.001683	28.08	0.029608	0.002014	14.6981	157.716	-167.618	-0.081931	0.161123	-0.973632	-0.974931	-0.042264	14.6981	-0.971476	-9.365956E+12	4.512512E-15	NaN
544	1.000000	0.172457	7.37037e+06	-49889.1	1005.82	-29757.5	0.000000	0.000000	6.172809	0.091219	NaN	0.000000	0.001706	0.001668	28.0813	0.096610	0.002031	47.5612	-19.838	19.289	0.008096	0.171068	-0.963597	-0.964986	0.091219	47.5612	-0.965035	-7.669120E+12	-1.189436E-14	NaN
544	1.000000	0.182454	7.37037e+06	-49889.1	1005.82	-29757.5	0.000000	0.000000	6.182803	0.013968	NaN	0.000000	0.001744	0.001699	28.0813	0.102344	0.002109	48.5262	-134.154	-168.804	0.033154	0.181116	-0.953600	-0.954938	0.013968	48.5262	-0.953816	-5.413622E+12	-2.580137E-15	NaN
544	1.000000	0.192471	7.37037e+06	-49889.1	1005.82	-29757.5	0.000000	0.000000	6.192820	0.020571	NaN	0.000000	0.001673	0.001665	28.0815	0.043888	0.002120	20.6998	-146.531	15.5222	0.074926	0.191072	-0.943583	-0.944982	0.020571	20.6998	-0.944328	-4.032079E+12	-5.101808E-15	NaN
544	1.000000	0.202479	7.37037e+06	-49889.1	1005.82	-29757.5	0.000000	0.000000	6.202829	0.031956	NaN	0.000000	0.001696	0.001658	28.0812	0.039825	0.002026	19.6539	21.5403	-165.179	0.073614	0.201128	-0.933575	-0.934926	0.031956	19.6539	-0.934794	-2.998452E+12	-1.065756E-14	NaN
544	1.000000	0.212477	7.37037e+06	-49889.1	1005.82	-29757.5	0.000000	0.000000	6.212826	0.033312	NaN	0.000000	0.001695	0.001617	28.0813	0.034374	0.001917	17.9279	137.579	17.9184	-0.045644	0.211116	-0.923577	-0.924938	0.033312	17.9279	-0.924971	-2.209617E+12	-1.507575E-14	NaN
544	1.000000	0.222475	7.37037e+06	-49889.1	1005.82	-29757.5	0.000000	0.000000	6.222825	0.048651	NaN	0.000000	0.001709	0.001622	28.0815	0.105191	0.001927	54.588	9.024129	-167.885	0.050405	0.221137	-0.913579	-0.914917	0.048651	54.588	-0.914247	-1.583166E+12	-3.072996E-14	NaN
544	1.000000	0.232482	7.37037e+06	-49889.1	1005.82	-29757.5	0.000000	0.000000	6.232831	0.027174	NaN	0.000000	0.001672	0.001675	28.0813	0.068298	0.002048	33.3468	176.435	13.7526	0.061898	0.231130	-0.903572	-0.904924	0.027174	33.3468	-0.904183	-1.157679E+12	-2.347255E-14	NaN
544	1.000000	0.242486	7.37037e+06	-49889.1	1005.82	-29757.5	0.000000	0.000000	6.242837	0.077064	NaN	0.000000	0.001689	0.001645	28.0814	0.014033	0.002000	7.015039	155.486	-165.873	-0.002515	0.241189	-0.893568	-0.894865	0.077064	7.015039	-0.901808	-1.075200E+12	-7.167415E-14	NaN
544	1.000000	0.252461	7.37037e+06	-49889.1	1005.82	-29757.5	0.000000	0.000000	6.252815	0.119744	NaN	0.000000	0.001679	0.001637	28.0813	0.117300	0.001980	59.2325	-75.8635	13.9173	0.073256	0.251118	-0.883593	-0.884936	0.119744	59.2325	-0.885109	-6.394256E+11	-1.872681E-13	NaN
544	1.000000	0.262523	7.37037e+06	-49889.1	1005.82	-29757.5	0.000000	0.000000	6.262873	0.036044	NaN	0.000000	0.001683	0.001675	28.0816	0.041217	0.001831	22.5158	118.707	-165.531	-0.011227	0.261144	-0.873531	-0.874910	0.036044	22.5158	-0.874732	-4.628659E+11	-7.787088E-14	NaN
544	1.000000	0.272496	7.37037e+06	-49889.1	1005.82	-29757.5	0.000000	0.000000	6.272843	-0.026317	NaN	0.000000	0.001682	0.001653	28.0813	0.096372	0.002066	46.6536	-177.523	17.1203	0.026128	0.271129	-0.863559	-0.864925	-0.026317	46.6536	-0.863135	-3.225205E+11	8.159917E-14	NaN
544	1.000000	0.282506	7.37037e+06	-49889.1	1005.82	-29757.5	0.000000	0.000000	6.282853	-0.023906	NaN	0.000000	0.001667	0.001676	28.0816	0.112446	0.002016	55.7765	106.62	-164.392	0.036701	0.281160	-0.853548	-0.854894	-0.023906	55.7765	-0.853227	-2.368263E+11	1.009420E-13	NaN
544	1.000000	0.292497	7.37037e+06	-49889.1	1005.82	-29757.5	0.000000	0.000000	6.292844	-0.019706	NaN	0.000000	0.001689	0.001684	28.0816	0.059017	0.002114	27.9174	-72.8553	15.4789	0.041886	0.291171	-0.843557	-0.844883	-0.019706	27.9174	-0.843028	-1.723106E+11	1.143630E-13	NaN
544	1.000000	0.302507	7.37037e+06	-49889.1	1005.82	-29757.5	0.000000	0.000000	6.302855	-0.001897	NaN	0.000000	0.001597	0.001666	28.0818	0.051151	0.002091	24.4641	-43.0787	-164.806	0.089846	0.301206	-0.833547	-0.834848	-0.001897	24.4641	-0.833489	-1.279584E+11	1.482433E-14	NaN
544	1.000000	0.312522	7.37037e+06	-49889.1	1005.82	-29757.5	0.000000	0.000000	6.312872	0.037162	NaN	0.000000	0.001611	0.001687	28.0801	0.064565	0.001967	32.8194	132.227	10.2773	0.016919	0.311167	-0.823532	-0.824887	0.037162	32.8194	-0.824381	-9.629689E+10	-3.859068E-13	NaN
544	1.000000	0.322503	7.37037e+06	-49889.1	1005.82	-29757.5	0.000000	0.000000	6.322855	0.082755	NaN	0.000000	0.001599	0.001701	28.0804	0.146717	0.001960	74.86	-163.744	-164.627	0.046090	0.321213	-0.813551	-0.814841	0.082755	74.86	-0.814380	-7.046789E+10	-1.174366E-12	NaN
544	1.000000	0.332488	7.37037e+06	-49889.1	1005.82	-29757.5	0.000000	0.000000	6.332838	0.032126	NaN	0.000000	0.001624	0.001699	28.0804	0.037579	0.001971	19.0653	-53.0178	13.582	0.013488	0.331134	-0.803566	-0.804920	0.032126	19.0653	-0.804830	-5.228938E+10	-6.143950E-13	NaN
544	1.000000	0.342531	7.37037e+06	-49889.1	1005.82	-29757.5	0.000000	0.000000	6.342881	0.029821	NaN	0.000000	0.001594	0.001692	28.0803	0.058388	0.002098	27.8368	172.345	-167.212	0.039169	0.341204	-0.793523	-0.794850	0.029821	27.8368	-0.794326	-3.765589E+10	-7.919252E-13	NaN
544	1.000000	0.352515	7.37037e+06	-49889.1	1005.82	-29757.5	0.000000	0.000000	6.352867	0.075767	NaN	0.000000	0.001626	0.001659	28.0803	0.126772	0.002133	59.4379	-53.6805	15.9657	0.037795	0.351121	-0.783539	-0.784933	0.075767	59.4379	-0.784495	-2.768885E+10	-2.736378E-12	NaN
544	1.000000	0.362537	7.37037e+06	-49889.1	1005.82	-29757.5	0.000000	0.000000	6.362888	0.056888	NaN	0.000000	0.001624	0.001729	28.0803	0.068481	0.002016	33.9693	-150.707	-166.233	0.039226	0.361239	-0.773517	-0.774815	0.056888	33.9693	-0.774773	-2.042624E+10	-2.785033E-12	NaN
544	1.000000	0.372522	7.37037e+06	-49889.1	1005.82	-29757.5	0.000000	0.000000	6.372872	0.031289	NaN	0.000000	0.001582	0.001713	28.0804	0.047031	0.001949	24.1307	85.602	16.9488	0.077756	0.371159	-0.763532	-0.764895	0.031289	24.1307	-0.764504	-1.481056E+10	-2.112592E-12	NaN
544	1.000000	0.382522	7.37037e+06	-49889.1	1005.82	-29757.5	0.000000	0.000000	6.382874	0.103882	NaN	0.000000	0.001540	0.001703	28.0804	0.039413	0.001968	20.0264	52.3522	-163.036	0.078295	0.381229	-0.753532	-0.754825	0.103882	20.0264	-0.757423	-1.186412E+10	-8.756007E-12	NaN
544	1.000000	0.392542	7.37037e+06	-49889.1	1005.82	-29757.5	0.000000	0.000000	6.392891	0.012586	NaN	0.000000	0.001617	0.001676	28.0803	0.092413	0.002082	44.3902	-154.383	15.7023	-0.073065	0.391191	-0.743512	-0.744863	0.012586	44.3902	-0.743725	-7.722915E+9	-1.629689E-12	NaN
544	1.000000	0.402543	7.37037e+06	-49889.1	1005.82	-29757.5	0.000000	0.000000	6.402892	0.040847	NaN	0.000000	0.001572	0.001682	28.0806	0.044641	0.002066	21.6113	-64.9335	-163.479	0.106357	0.401268	-0.733511	-0.734786	0.040847	21.6113	-0.734929	-5.861052E+9	-6.969283E-12	NaN
544	1.000000	0.412549	7.37037e+06	-49889.1	1005.82	-29757.5	0.000000	0.000000	6.412900	0.069011	NaN	0.000000	0.001638	0.001664	28.0802	0.054843	0.001946	28.1822	49.5807	12.3315	0.090611	0.411122	-0.723505	-0.724932	0.069011	28.1822	-0.725342	-4.338183E+9	-1.590776E-11	NaN
544	1.000000	0.422569	7.37037e+06	-49889.1	1005.82	-29757.5	0.000000	0.000000	6.422920	0.068900	NaN	0.000000	0.001604	0.001677	28.0804	0.029504	0.001855	15.9055	100.839	-159.816	0.091495	0.421221	-0.713485	-0.714833	0.068900	15.9055	-0.716734	-3.310789E+9	-2.081068E-11	NaN
544	1.000000	0.432560	7.37037e+06	-49889.1	1005.82	-29757.5	0.000000	0.000000	6.432909	0.025041	NaN	0.000000	0.001553	0.001654	28.0801	0.097387	0.002100	46.3826	35.1999	14.7297	0.079735	0.431192	-0.703494	-0.704862	0.025041	46.3826	-0.703899	-2.211922E+9	-1.132103E-11	NaN
544	1.000000	0.442546	7.37037e+06	-49889.1	1005.82	-29757.5	0.000000	0.000000	6.442894	-0.008758	NaN	0.000000	0.001547	0.001702	28.0806	0.057578	0.001987	28.9799	-0.096196	-161.724	-0.056195	0.441254	-0.693508	-0.694800	-0.008758	28.9799	-0.693282	-1.584017E+9	5.528777E-12	NaN
544	1.000000	0.452575	7.37037e+06	-49889.1	1005.82	-29757.5	0.000000	0.000000	6.452927	0.099011	NaN	0.000000	0.001603	0.001677	28.0815	0.086276	0.001933	44.6266	-169.742	15.973	0.063486	0.451262	-0.683479	-0.684792	0.099011	44.6266	-0.685143	-1.226113E+9	-8.075167E-11	NaN
544	1.000000	0.462584	7.37037e+06	-49889.1	1005.82	-29757.5	0.000000	0.000000	6.462935	0.066458	NaN	0.000000	0.001599	0.001681	28.0815	0.071760	0.001911	37.5471	-41.4838	-167.341	0.091213	0.461244	-0.673470	-0.674810	0.066458	37.5471	-0.674798	-8.852117E+8	-7.507610E-11	NaN
544	1.000000	0.472585	7.37037e+06	-49889.1	1005.82	-29757.5	0.000000	0.000000	6.472936	0.071032	NaN	0.000000	0.001623	0.001681	28.0815	0.015265	0.002029	7.521647	-121.246	12.901	0.036332	0.471225	-0.663469	-0.664829	0.071032	7.521647	-0.670552	-7.743545E+8	-9.173058E-11	NaN
544	1.000000	0.482600	7.37037e+06	-49889.1	1005.82	-29757.5	0.000000	0.000000	6.482949	0.029718	NaN	0.000000	0.001589	0.001680	28.0815	0.093015	0.001933	48.1101	86.4946	-165.685	0.067740	0.481224	-0.653454	-0.654830	0.029718	48.1101	-0.653918	-4.582823E+8	-6.484672E-11	NaN
544	1.000000	0.492590	7.37037e+06	-49889.1	1005.82	-29757.5	0.000000	0.000000	6.492941	0.074543	NaN	0.000000	0.001589	0.001654	28.0816	0.058009	0.001888	30.7198	-103.273	15.6006	0.057738	0.491189	-0.643464	-0.644865	0.074543	30.7198	-0.645284	-3.489552E+8	-2.136187E-10	NaN
544	1.000000	0.502623	7.37037e+06	-49889.1	1005.82	-29757.5	0.000000	0.000000	6.502974	0.065995	NaN	0.000000	0.001589	0.001699	28.0815	0.060853	0.001870	32.5429	-140.605	-164.212	0.102107	0.501298	-0.633431	-0.634756	0.065995	32.5429	-0.634952	-2.517730E+8	-2.621205E-10	NaN
544	1.000000	0.512578	7.37037e+06	-49889.1	1005.82	-29757.5	0.000000	0.000000	6.512930	0.093809	NaN	0.000000	0.001582	0.001676	28.0815	0.058611	0.001973	29.702	-81.9581	14.9312	-0.012159	0.511266	-0.623476	-0.624788	0.093809	29.702	-0.625844	-1.887756E+8	-4.969324E-10	NaN
544	1.000000	0.522611	7.37037e+06	-49889.1	1005.82	-29757.5	0.000000	0.000000	6.522958	-0.028892	NaN	0.000000	0.001602	0.001696	28.0814	0.075019	0.002014	37.253	11.984	-168.036	-0.017096	0.521314	-0.613443	-0.614740	-0.028892	37.253	-0.612861	-1.251632E+8	2.308313E-10	NaN
544	1.000000	0.532604	7.37037e+06	-49889.1	1005.82	-29757.5	0.000000	0.000000	6.532952	0.006192	NaN	0.000000	0.001550	0.001650	28.0814	0.061875	0.002040	30.332	78.6305	16.6953	0.069636	0.531248	-0.603450	-0.604807	0.006192	30.332	-0.603603	-9.334257E+7	-6.633266E-11	NaN
544	1.000000	0.542605	7.37037e+06	-49889.1	1005.82	-29757.5	0.000000	0.000000	6.542954	0.020434	NaN	0.000000	0.001643	0.001673	28.0816	0.082233	0.001986	41.413	53.5826	-165.981	0.035724	0.541293	-0.593450	-0.594761	0.020434	41.413	-0.593820	-6.844082E+7	-2.985580E-10	NaN
544	1.000000	0.552622	7.37037e+06	-49889.1	1005.82	-29757.5	0.000000	0.000000	6.552970	0.012847	NaN	0.000000	0.001605	0.001637	28.0817	0.037599	0.002039	18.4401	-133.25	18.2474	-0.044929	0.551296	-0.583432	-0.584758	0.012847	18.4401	-0.583955	-5.003774E+7	-2.567485E-10	NaN
544	1.000000	0.562613	7.37037e+06	-49889.1	1005.82	-29757.5	0.000000	0.000000	6.562963	0.044606	NaN	0.000000	0.001649	0.001680	28.0814	0.061530	0.002008	30.6495	137.243	-162.462	0.033673	0.561307	-0.573441	-0.574747	0.044606	30.6495	-0.574533	-3.708897E+7	-1.202671E-9	NaN
544	1.000000	0.572631	7.37037e+06	-49889.1	1005.82	-29757.5	0.000000	0.000000	6.572982	0.050895	NaN	0.000000	0.001692	0.001677	28.0812	0.090700	0.002104	43.1012	88.377	13.9894	0.028219	0.571214	-0.563423	-0.564840	0.050895	43.1012	-0.564308	-2.678945E+7	-1.899806E-9	NaN
544	1.000000	0.582646	7.37037e+06	-49889.1	1005.82	-29757.5	0.000000	0.000000	6.582995	0.006215	NaN	0.000000	0.001705	0.001624	28.0802	0.067566	0.001963	34.4135	-30.3274	-165.846	-0.071902	0.581304	-0.553408	-0.554750	0.006215	34.4135	-0.553543	-1.901172E+7	-3.268830E-10	NaN
544	1.000000	0.592614	7.37037e+06	-49889.1	1005.82	-29757.5	0.000000	0.000000	6.592962	0.001341	NaN	0.000000	0.001681	0.001637	28.0802	0.042282	0.002048	20.6459	-98.0747	17.9918	-0.036679	0.591274	-0.543441	-0.544780	0.001341	20.6459	-0.543489	-1.379556E+7	-9.722595E-11	NaN
544	1.000000	0.602625	7.37037e+06	-49889.1	1005.82	-29757.5	0.000000	0.000000	6.602974	0.014199	NaN	0.000000	0.001678	0.001659	28.0801	0.072626	0.001893	38.3601	-2.193232	-164.531	0.122188	0.601334	-0.533429	-0.534720	0.014199	38.3601	-0.533707	-1.009350E+7	-1.406738E-9	NaN
544	1.000000	0.612645	7.37037e+06	-49889.1	1005.82	-29757.5	0.000000	0.000000	6.612997	0.091640	NaN	0.000000	0.001650	0.001690	28.08	0.080392	0.002009	40.0124	84.9164	11.7144	0.133745	0.611248	-0.523409	-0.524806	0.091640	40.0124	-0.525127	-7.67139e+06	-1.194568E-8	NaN
544	1.000000	0.622634	7.37037e+06	-49889.1	1005.82	-29757.5	0.000000	0.000000	6.622984	0.049982	NaN	0.000000	0.001672	0.001668	28.0803	0.036154	0.002104	17.1796	-9.317755	-164.769	0.099796	0.621317	-0.513420	-0.514737	0.049982	17.1796	-0.515602	-5.65479e+06	-8.838795E-9	NaN
544	1.000000	0.632636	7.37037e+06	-49889.1	1005.82	-29757.5	0.000000	0.000000	6.632985	0.017906	NaN	0.000000	0.001666	0.001668	28.08	0.060047	0.001938	30.9797	-98.0923	17.9924	-0.045368	0.631230	-0.503418	-0.504824	0.017906	30.9797	-0.503852	-3.87918e+06	-4.615930E-9	NaN
544	1.000000	0.642662	7.37037e+06	-49889.1	1005.82	-29757.5	0.000000	0.000000	6.643014	0.082743	NaN	0.000000	0.001625	0.001648	28.0799	0.024316	0.001957	12.4281	-160.304	-165.826	0.086827	0.641272	-0.493392	-0.494782	0.082743	12.4281	-0.498385	-3.25453e+06	-2.542389E-8	NaN
544	1.000000	0.652676	7.37037e+06	-49889.1	1005.82	-29757.5	0.000000	0.000000	6.653025	0.031073	NaN	0.000000	0.001661	0.001696	28.0798	0.037477	0.002028	18.4769	-165.369	16.2457	0.084103	0.651312	-0.483378	-0.484742	0.031073	18.4769	-0.484640	-2.09146e+06	-1.485730E-8	NaN
544	1.000000	0.662654	7.37037e+06	-49889.1	1005.82	-29757.5	0.000000	0.000000	6.663002	-0.007556	NaN	0.000000	0.001650	0.001675	28.0801	0.126845	0.002021	62.754	122.09	-164.366	0.041140	0.661323	-0.473400	-0.474731	-0.007556	62.754	-0.473309	-1.45147e+06	5.205640E-9	NaN
544	1.000000	0.672682	7.37037e+06	-49889.1	1005.82	-29757.5	0.000000	0.000000	6.673035	0.101133	NaN	0.000000	0.001611	0.001678	28.08	0.127435	0.002055	62.0174	-101.891	11.9683	0.013122	0.671299	-0.463372	-0.464755	0.101133	62.0174	-0.464595	-1.09537e+06	-9.232787E-8	NaN
544	1.000000	0.682654	7.37037e+06	-49889.1	1005.82	-29757.5	0.000000	0.000000	6.683006	0.078483	NaN	0.000000	0.001645	0.001652	28.0801	0.123181	0.002072	59.4516	-34.9534	-162.996	0.074960	0.681292	-0.453400	-0.454762	0.078483	59.4516	-0.454390	-787286	-9.968819E-8	NaN
544	1.000000	0.692690	7.37037e+06	-49889.1	1005.82	-29757.5	0.000000	0.000000	6.693039	0.018618	NaN	0.000000	0.001659	0.001692	28.0801	0.035755	0.002111	16.9336	145.126	14.4032	0.023195	0.691303	-0.443364	-0.444751	0.018618	16.9336	-0.444189	-565532	-3.292055E-8	NaN
544	1.000000	0.702683	7.37037e+06	-49889.1	1005.82	-29757.5	0.000000	0.000000	6.703034	0.078831	NaN	0.000000	0.001642	0.001675	28.0802	0.075034	0.002166	34.6426	-95.9946	-163.358	0.060185	0.701384	-0.433371	-0.434670	0.078831	34.6426	-0.435078	-420585	-1.874316E-7	NaN
544	1.000000	0.712674	7.37037e+06	-49889.1	1005.82	-29757.5	0.000000	0.000000	6.713026	0.103157	NaN	0.000000	0.001662	0.001665	28.08	0.026507	0.001954	13.5664	-134.55	15.8204	0.072742	0.711301	-0.423380	-0.424753	0.103157	13.5664	-0.429083	-346010	-2.981339E-7	NaN
544	1.000000	0.722667	7.37037e+06	-49889.1	1005.82	-29757.5	0.000000	0.000000	6.723015	0.002814	NaN	0.000000	0.001662	0.001681	28.0814	0.119451	0.002068	57.7534	-148.511	-164.674	0.055209	0.721386	-0.413387	-0.414668	0.002814	57.7534	-0.413424	-207521	-1.356139E-8	NaN
544	1.000000	0.732681	7.37037e+06	-49889.1	1005.82	-29757.5	0.000000	0.000000	6.733027	-0.033409	NaN	0.000000	0.001598	0.001713	28.0814	0.029472	0.001932	15.2558	105.192	12.5349	0.048039	0.731266	-0.403374	-0.404788	-0.033409	15.2558	-0.401731	-141474	2.361521E-7	NaN
544	1.000000	0.742706	7.37037e+06	-49889.1	1005.82	-29757.5	0.000000	0.000000	6.743053	-0.010348	NaN	0.000000	0.001602	0.001681	28.0813	0.122847	0.002030	60.5084	144.973	-161.528	0.051958	0.741368	-0.393348	-0.394686	-0.010348	60.5084	-0.393220	-106956	9.674769E-8	NaN
544	1.000000	0.752692	7.37037e+06	-49889.1	1005.82	-29757.5	0.000000	0.000000	6.753041	0.027365	NaN	0.000000	0.001641	0.001699	28.0813	0.057387	0.001902	30.1647	-118.117	15.2863	0.001121	0.751367	-0.383362	-0.384687	0.027365	30.1647	-0.384043	-79043.8	-3.462039E-7	NaN
544	1.000000	0.762685	7.37037e+06	-49889.1	1005.82	-29757.5	0.000000	0.000000	6.763034	0.004694	NaN	0.000000	0.001601	0.001707	28.0813	0.148197	0.002063	71.8366	-137.341	-165.053	0.038991	0.761459	-0.373369	-0.374595	0.004694	71.8366	-0.373418	-55631.3	-8.437902E-8	NaN
544	1.000000	0.772702	7.37037e+06	-49889.1	1005.82	-29757.5	0.000000	0.000000	6.773052	0.037090	NaN	0.000000	0.001620	0.001697	28.0814	0.132459	0.002036	65.0516	-88.4032	14.4114	0.015179	0.771379	-0.363352	-0.364675	0.037090	65.0516	-0.363779	-40405.4	-9.179410E-7	NaN
544	1.000000	0.782713	7.37037e+06	-49889.1	1005.82	-29757.5	0.000000	0.000000	6.783064	0.063195	NaN	0.000000	0.001676	0.001686	28.0811	0.011231	0.001995	5.628880	143.549	-164.483	-0.065151	0.781383	-0.353341	-0.354671	0.063195	5.628880	-0.361761	-37783	-1.672569E-6	NaN
544	1.000000	0.792742	7.37037e+06	-49889.1	1005.82	-29757.5	0.000000	0.000000	6.793091	0.029764	NaN	0.000000	0.001622	0.001673	28.0812	0.048758	0.001818	26.8248	60.4276	17.0404	0.074187	0.791316	-0.343313	-0.344739	0.029764	26.8248	-0.344145	-20985.3	-1.418321E-6	NaN
544	1.000000	0.802696	7.37037e+06	-49889.1	1005.82	-29757.5	0.000000	0.000000	6.803044	-0.007288	NaN	0.000000	0.001622	0.001685	28.0815	0.038780	0.002050	18.9213	-24.8281	-164.169	-0.061178	0.801420	-0.333358	-0.334634	-0.007288	18.9213	-0.333069	-14466.6	5.037462E-7	NaN
544	1.000000	0.812716	7.37037e+06	-49889.1	1005.82	-29757.5	0.000000	0.000000	6.813063	-0.020054	NaN	0.000000	0.001574	0.001672	28.0813	0.067934	0.001992	34.0987	-130.739	14.5203	0.107074	0.811342	-0.323338	-0.324713	-0.020054	34.0987	-0.322897	-10262.3	1.954125E-6	NaN
544	1.000000	0.822714	7.37037e+06	-49889.1	1005.82	-29757.5	0.000000	0.000000	6.823065	0.073318	NaN	0.000000	0.001624	0.001694	28.0812	0.075123	0.001985	37.8537	-153.802	-168.481	0.065820	0.821370	-0.313340	-0.314684	0.073318	37.8537	-0.314793	-7796.31	-9.404141E-6	NaN
544	1.000000	0.832735	7.37037e+06	-49889.1	1005.82	-29757.5	0.000000	0.000000	6.833084	0.008566	NaN	0.000000	0.001623	0.001691	28.0813	0.040255	0.002145	18.7638	-119.674	16.0815	-0.032661	0.831347	-0.303319	-0.304707	0.008566	18.7638	-0.303661	-5334.27	-1.605881E-6	NaN
544	1.000000	0.842753	7.37037e+06	-49889.1	1005.82	-29757.5	0.000000	0.000000	6.843103	0.050880	NaN	0.000000	0.001664	0.001693	28.0812	0.060211	0.002066	29.1451	-25.5265	-164.047	0.065519	0.841384	-0.293301	-0.294670	0.050880	29.1451	-0.294611	-3910.87	-1.300992E-5	NaN
544	1.000000	0.852736	7.37037e+06	-49889.1	1005.82	-29757.5	0.000000	0.000000	6.853087	0.072269	NaN	0.000000	0.001627	0.001689	28.0813	0.038937	0.001877	20.7426	24.0896	14.7942	0.077781	0.851456	-0.283318	-0.284598	0.072269	20.7426	-0.285931	-2899.06	-2.492859E-5	NaN
544	1.000000	0.862738	7.37037e+06	-49889.1	1005.82	-29757.5	0.000000	0.000000	6.863088	0.047254	NaN	0.000000	0.001605	0.001690	28.0801	0.116822	0.001911	61.1162	73.4871	-167.178	0.060479	0.861412	-0.273316	-0.274642	0.047254	61.1162	-0.273896	-1908.41	-2.476067E-5	NaN
544	1.000000	0.872765	7.37037e+06	-49889.1	1005.82	-29757.5	0.000000	0.000000	6.873112	-0.024919	NaN	0.000000	0.001618	0.001674	28.0803	0.041020	0.001949	21.0411	-107.48	13.9063	0.047362	0.871409	-0.263289	-0.264645	-0.024919	21.0411	-0.262401	-1275.49	1.953656E-5	NaN
544	1.000000	0.882736	7.37037e+06	-49889.1	1005.82	-29757.5	0.000000	0.000000	6.883087	0.058149	NaN	0.000000	0.001619	0.001669	28.0801	0.104799	0.002059	50.9025	-114.075	-168.66	0.018042	0.881443	-0.253318	-0.254611	0.058149	50.9025	-0.254175	-953.69	-6.097247E-5	NaN
544	1.000000	0.892746	7.37037e+06	-49889.1	1005.82	-29757.5	0.000000	0.000000	6.893098	0.084261	NaN	0.000000	0.001613	0.001659	28.0799	0.036774	0.002039	18.0349	2.165899	13.4809	0.113196	0.891383	-0.243308	-0.244671	0.084261	18.0349	-0.246812	-733.813	-0.000115	NaN
544	1.000000	0.902746	7.37037e+06	-49889.1	1005.82	-29757.5	0.000000	0.000000	6.903093	-0.024582	NaN	0.000000	0.001623	0.001647	28.0802	0.073478	0.002057	35.7289	-26.1419	-163.557	0.031015	0.901445	-0.233308	-0.234610	-0.024582	35.7289	-0.232792	-443.141	5.547287E-5	NaN
544	1.000000	0.912752	7.37037e+06	-49889.1	1005.82	-29757.5	0.000000	0.000000	6.913102	0.051217	NaN	0.000000	0.001610	0.001672	28.0801	0.064808	0.002003	32.3605	42.7308	12.6829	0.087342	0.911411	-0.223302	-0.224644	0.051217	32.3605	-0.224489	-327.502	-0.000156	NaN
544	1.000000	0.922790	7.37037e+06	-49889.1	1005.82	-29757.5	0.000000	0.000000	6.923139	0.034297	NaN	0.000000	0.001630	0.001694	28.08	0.025514	0.001973	12.9288	-105.364	-165.175	0.049541	0.921448	-0.213265	-0.214606	0.034297	12.9288	-0.215254	-233.131	-0.000147	NaN
544	1.000000	0.932714	7.37037e+06	-49889.1	1005.82	-29757.5	0.000000	0.000000	6.933067	0.112926	NaN	0.000000	0.001614	0.001675	28.0801	0.053962	0.001788	30.1852	10.2934	18.5696	0.079556	0.931428	-0.203340	-0.204626	0.112926	30.1852	-0.206146	-166.05	-0.000680	NaN
544	1.000000	0.942792	7.37037e+06	-49889.1	1005.82	-29757.5	0.000000	0.000000	6.943143	0.053319	NaN	0.000000	0.001641	0.001680	28.0805	0.001719	0.002042	0.842058	77.4591	-165.911	0.039046	0.941408	-0.193262	-0.194646	0.053319	0.842058	-0.240752	-590.595	-9.028019E-5	NaN
544	1.000000	0.952764	7.37037e+06	-49889.1	1005.82	-29757.5	0.000000	0.000000	6.953115	0.081350	NaN	0.000000	0.001635	0.001702	28.0802	0.091320	0.002040	44.7659	111.942	11.5951	0.054323	0.951403	-0.183290	-0.184651	0.081350	44.7659	-0.184653	-73.1625	-0.001112	NaN
544	1.000000	0.962791	7.37037e+06	-49889.1	1005.82	-29757.5	0.000000	0.000000	6.963139	0.018418	NaN	0.000000	0.001607	0.001651	28.0805	0.099531	0.002070	48.0789	161.339	-163.373	0.000197	0.961462	-0.173264	-0.174592	0.018418	48.0789	-0.173551	-47.3198	-0.000389	NaN
544	1.000000	0.972769	7.37037e+06	-49889.1	1005.82	-29757.5	0.000000	0.000000	6.973116	-0.037194	NaN	0.000000	0.001616	0.001675	28.0802	0.095794	0.002073	46.2092	-95.6333	15.7146	-0.042010	0.971438	-0.163285	-0.164617	-0.037194	46.2092	-0.162681	-30.5828	0.001216	NaN
544	1.000000	0.982788	7.37037e+06	-49889.1	1005.82	-29757.5	0.000000	0.000000	6.983139	0.063253	NaN	0.000000	0.001653	0.001702	28.0802	0.097158	0.002116	45.9185	172.736	-166.559	0.112596	0.981504	-0.153266	-0.154550	0.063253	45.9185	-0.154299	-21.6751	-0.002918	NaN
544	1.000000	0.992783	7.37037e+06	-49889.1	1005.82	-29757.5	0.000000	0.000000	6.993131	-0.007833	NaN	0.000000	0.001663	0.001672	28.0813	0.087846	0.002054	42.7591	-12.9227	14.7247	0.004291	0.991464	-0.143271	-0.144590	-0.007833	42.7591	-0.143134	-13.5377	0.000579	NaN
544	1.000000	1.002795	7.37037e+06	-49889.1	1005.82	-29757.5	0.000000	0.000000	7.003146	0.080400	NaN	0.000000	0.001661	0.001652	28.0815	0.091011	0.002007	45.3389	51.4577	-164.122	0.116379	1.001476	-0.133259	-0.134578	0.080400	45.3389	-0.134589	-9.342112	-0.008606	NaN
544	1.000000	1.012776	7.37037e+06	-49889.1	1005.82	-29757.5	0.000000	0.000000	7.013128	0.091951	NaN	0.000000	0.001633	0.001654	28.0815	0.070730	0.002103	33.6325	56.7579	13.0482	0.014498	1.011423	-0.123278	-0.124632	0.091951	33.6325	-0.125329	-6.173007	-0.014896	NaN
544	1.000000	1.022794	7.37037e+06	-49889.1	1005.82	-29757.5	0.000000	0.000000	7.023145	0.066660	NaN	0.000000	0.001663	0.001651	28.0814	0.099656	0.002053	48.5433	131.88	-163.386	0.066374	1.021519	-0.113260	-0.114535	0.066660	48.5433	-0.114290	-3.693583	-0.018047	NaN
544	1.000000	1.032804	7.37037e+06	-49889.1	1005.82	-29757.5	0.000000	0.000000	7.033155	0.050809	NaN	0.000000	0.001648	0.001683	28.0815	0.090124	0.001954	46.1216	-137.634	13.685	0.102212	1.031439	-0.103250	-0.104616	0.050809	46.1216	-0.104076	-2.244737	-0.022635	NaN
544	1.000000	1.042799	7.37037e+06	-49889.1	1005.82	-29757.5	0.000000	0.000000	7.043147	-0.000280	NaN	0.000000	0.001624	0.001671	28.0815	0.018881	0.001933	9.768160	121.541	-168.795	-0.024799	1.041491	-0.093255	-0.094563	-0.000280	9.768160	-0.093234	-1.285190	0.000218	NaN
544	1.000000	1.052821	7.37037e+06	-49889.1	1005.82	-29757.5	0.000000	0.000000	7.053170	0.033355	NaN	0.000000	0.001654	0.001640	28.0819	0.065633	0.001977	33.1997	-15.0457	14.8701	-0.071301	1.051480	-0.083233	-0.084574	0.033355	33.1997	-0.083987	-0.776380	-0.042962	NaN
544	1.000000	1.062853	7.37037e+06	-49889.1	1005.82	-29757.5	0.000000	0.000000	7.063203	0.032671	NaN	0.000000	0.001589	0.001683	28.0814	0.053254	0.002014	26.4412	140.439	-166.461	0.069677	1.061480	-0.073201	-0.074574	0.032671	26.4412	-0.074127	-0.438408	-0.074522	NaN
544	1.000000	1.072825	7.37037e+06	-49889.1	1005.82	-29757.5	0.000000	0.000000	7.073174	0.041035	NaN	0.000000	0.001620	0.001674	28.0814	0.156195	0.002108	74.0874	-127.809	16.7006	0.080211	1.071469	-0.063230	-0.064585	0.041035	74.0874	-0.063645	-0.228461	-0.179614	NaN
544	1.000000	1.082851	7.37037e+06	-49889.1	1005.82	-29757.5	0.000000	0.000000	7.083200	0.009404	NaN	0.000000	0.001648	0.001682	28.0816	0.135737	0.002100	64.6509	100.859	-161.037	-0.078295	1.081510	-0.053203	-0.054544	0.009404	64.6509	-0.053312	-0.114744	-0.081955	NaN
544	1.000000	1.092825	7.37037e+06	-49889.1	1005.82	-29757.5	0.000000	0.000000	7.093173	0.002874	NaN	0.000000	0.001638	0.001685	28.0815	0.030937	0.001968	15.7232	-104.474	14.915	0.036325	1.091465	-0.043229	-0.044589	0.002874	15.7232	-0.043366	-0.057284	-0.050166	NaN
544	1.000000	1.102850	7.37038e+06	-49889.1	1005.82	-29757.5	0.000000	0.000000	7.103198	0.004739	NaN	0.000000	0.001623	0.001682	28.0815	0.049747	0.002092	23.7788	32.3464	-163.145	0.074927	1.101479	-0.033204	-0.034575	0.004739	23.7788	-0.033354	-0.028666	-0.165325	NaN
544	1.000000	1.112843	7.37038e+06	-49889.1	1005.82	-29757.5	0.000000	0.000000	7.113197	0.139956	NaN	0.000000	0.001630	0.001642	28.0815	0.034275	0.001961	17.4806	83.2165	16.0709	0.072180	1.111443	-0.023211	-0.024611	0.139956	17.4806	-0.029216	-0.021889	-6.393864	NaN
544	1.000000	1.122832	7.37038e+06	-49889.1	1005.82	-29757.5	0.000000	0.000000	7.123180	-0.014915	NaN	0.000000	0.001605	0.001638	28.0818	0.071849	0.001956	36.7276	62.1231	-165.675	-0.029903	1.121506	-0.013222	-0.014548	-0.014915	36.7276	-0.012917	-0.008055	1.851777	NaN
544	1.000000	1.132804	7.37038e+06	-49889.1	1005.82	-29757.5	0.000000	0.000000	7.133218	1.603355	NaN	0.000000	0.001598	0.001673	28.0799	2.203994	0.001865	1181.95	10.7375	10.722	0.573238	1.131438	-0.003250	-0.004616	1.603355	1181.95	-0.004267	-0.002951	-543.29	NaN
544	2.000000	1.141336	7.37038e+06	-49889.1	1005.82	-29757.5	0.000000	0.000000	7.142051	8.920197	NaN	0.000000	0.001603	0.001686	28.0799	9.479141	0.001565	6058.72	8.756880	-172.645	8.821424	1.140976	0.005282	0.004921	8.920197	6058.72	0.004178	0.003396	2626.96	94993.4
544	2.000000	1.143828	7.37038e+06	-49889.1	1005.82	-29757.5	0.000000	0.000000	7.144699	12.7171	NaN	0.000000	0.001594	0.001653	28.0807	12.3095	0.001580	7791.06	8.885419	2.592700	11.9794	1.143477	0.007774	0.007423	12.7171	7791.06	0.006550	0.005593	2273.85	95182.1
544	2.000000	1.146292	7.37038e+06	-49889.1	1005.82	-29757.5	0.000000	0.000000	7.147253	14.9085	NaN	0.000000	0.001558	0.001676	28.0802	15.1536	0.001812	8364.94	8.359319	-175.108	14.673	1.146024	0.010238	0.009970	14.9085	8364.94	0.008901	0.007985	1866.96	85523.8
544	2.000000	1.148778	7.37038e+06	-49889.1	1005.82	-29757.5	0.000000	0.000000	7.150007	21.4099	NaN	0.000000	0.001604	0.001673	28.0801	17.8034	0.001739	10239.9	5.128600	6.635994	19.8697	1.148352	0.012724	0.012297	21.4099	10239.9	0.011156	0.010495	2040.1	91324.3
544	2.000000	1.151264	7.37038e+06	-49889.1	1005.82	-29757.5	0.000000	0.000000	7.152729	27.1707	NaN	0.000000	0.001608	0.001698	28.0803	20.0196	0.001688	11856.8	2.830693	-174.302	25.4956	1.150986	0.015210	0.014932	27.1707	11856.8	0.013491	0.013326	2038.96	93841.2
544	2.000000	1.153775	7.37038e+06	-49889.1	1005.82	-29757.5	0.000000	0.000000	7.155329	29.3199	NaN	0.000000	0.001605	0.001695	28.0804	23.1312	0.001793	12899.6	6.490069	2.260121	29.2257	1.153413	0.017721	0.017359	29.3199	12899.6	0.016016	0.016665	1759.42	91296.3
544	2.000000	1.156265	7.37038e+06	-49889.1	1005.82	-29757.5	0.000000	0.000000	7.158009	33.9341	NaN	0.000000	0.001581	0.001680	28.0801	25.6428	0.001702	15068.9	7.075229	-179.769	34.1592	1.155948	0.020211	0.019894	33.9341	15068.9	0.018522	0.020273	1673.85	96692.6
544	2.000000	1.158766	7.37038e+06	-49889.1	1005.82	-29757.5	0.000000	0.000000	7.160754	39.8841	NaN	0.000000	0.001605	0.001686	28.0801	27.68	0.001733	15970.7	3.874922	2.674488	38.3669	1.158441	0.022712	0.022387	39.8841	15970.7	0.020839	0.023877	1670.38	94429
544	2.000000	1.161245	7.37038e+06	-49889.1	1005.82	-29757.5	0.000000	0.000000	7.163415	44.3007	NaN	0.000000	0.001609	0.001697	28.0802	29.9179	0.001832	16333.7	4.670318	-177.647	44.992	1.160958	0.025191	0.024904	44.3007	16333.7	0.023157	0.027747	1596.57	89587.1
544	2.000000	1.163696	7.37038e+06	-49889.1	1005.82	-29757.5	0.000000	0.000000	7.166208	52.628	NaN	0.000000	0.001578	0.001672	28.0804	32.8021	0.001810	18121.5	7.011239	-1.824373	50.0383	1.163385	0.027642	0.027331	52.628	18121.5	0.025464	0.031865	1651.61	92749.5
544	2.000000	1.166236	7.37038e+06	-49889.1	1005.82	-29757.5	0.000000	0.000000	7.169043	59.8015	NaN	0.000000	0.001556	0.001693	28.0801	34.9748	0.001835	19063.7	4.784779	179.395	58.7304	1.165931	0.030182	0.029877	59.8015	19063.7	0.027829	0.036365	1644.5	91335.7
544	2.000000	1.168728	7.37038e+06	-49889.1	1005.82	-29757.5	0.000000	0.000000	7.171783	65.8429	NaN	0.000000	0.001577	0.001656	28.0801	36.3178	0.001716	21170.3	2.425481	1.540351	64.5235	1.168427	0.032674	0.032373	65.8429	21170.3	0.030341	0.041453	1588.36	94999.2
544	2.000000	1.171231	7.37038e+06	-49889.1	1005.82	-29757.5	0.000000	0.000000	7.174688	75.5927	NaN	0.000000	0.001553	0.001679	28.0804	38.5607	0.001765	21842.8	4.169941	179.707	73.6488	1.170882	0.035177	0.034828	75.5927	21842.8	0.032582	0.046265	1633.92	92780.4
544	2.000000	1.173672	7.37038e+06	-49889.1	1005.82	-29757.5	0.000000	0.000000	7.177517	85.0405	NaN	0.000000	0.001547	0.001638	28.0814	41.4511	0.001779	23302.7	2.552742	-0.255596	81.4823	1.173417	0.037618	0.037363	85.0405	23302.7	0.034881	0.051469	1652.26	93843.9
544	2.000000	1.176208	7.37038e+06	-49889.1	1005.82	-29757.5	0.000000	0.000000	7.180323	91.6061	NaN	0.000000	0.001543	0.001672	28.0813	44.6517	0.001812	24636.1	4.170064	178.462	90.9039	1.175902	0.040154	0.039848	91.6061	24636.1	0.037365	0.057397	1596.01	93950.8
544	2.000000	1.178726	7.37038e+06	-49889.1	1005.82	-29757.5	0.000000	0.000000	7.183250	101.566	NaN	0.000000	0.001547	0.001661	28.0814	46.1771	0.001760	26230.8	5.717527	-2.927727	100.201	1.178454	0.042672	0.042400	101.566	26230.8	0.039768	0.063430	1601.24	95156.4
544	2.000000	1.181168	7.37038e+06	-49889.1	1005.82	-29757.5	0.000000	0.000000	7.186117	111.902	NaN	0.000000	0.001625	0.001694	28.0815	48.2243	0.001787	26981.5	6.502046	175.607	108.866	1.180876	0.045113	0.044822	111.902	26981.5	0.042003	0.069307	1614.58	93637.5
544	2.000000	1.183677	7.37038e+06	-49889.1	1005.82	-29757.5	0.000000	0.000000	7.189076	122.834	NaN	0.000000	0.001611	0.001717	28.0813	51.7237	0.001833	28222.3	6.637203	-4.147144	120.378	1.183282	0.047623	0.047228	122.834	28222.3	0.044358	0.075776	1621.01	93669.6
544	2.000000	1.186178	7.37038e+06	-49889.1	1005.82	-29757.5	0.000000	0.000000	7.191890	130.43	NaN	0.000000	0.001598	0.001698	28.0812	53.4495	0.001741	30703.1	2.283162	178.894	130.899	1.185914	0.050124	0.049860	130.43	30703.1	0.046938	0.083184	1567.97	97260.4
544	2.000000	1.188706	7.37038e+06	-49889.1	1005.82	-29757.5	0.000000	0.000000	7.194878	141.632	NaN	0.000000	0.001615	0.001692	28.0813	55.7693	0.001853	30102.2	4.067507	-2.341909	140.137	1.188451	0.052651	0.052397	141.632	30102.2	0.049123	0.089721	1578.58	91817.4
544	2.000000	1.191176	7.37038e+06	-49889.1	1005.82	-29757.5	0.000000	0.000000	7.197732	150.968	NaN	0.000000	0.001597	0.001713	28.0814	57.3484	0.001752	32739.9	5.679931	174.366	148.733	1.190958	0.055122	0.054904	150.968	32739.9	0.051664	0.097625	1546.4	95734.7
544	2.000000	1.193651	7.37038e+06	-49889.1	1005.82	-29757.5	0.000000	0.000000	7.200774	164.765	NaN	0.000000	0.001592	0.001723	28.0813	61.1444	0.001844	33150.4	6.563037	-6.250762	163.147	1.193344	0.057597	0.057290	164.765	33150.4	0.053869	0.104747	1572.99	93581.7
544	2.000000	1.196181	7.37038e+06	-49889.1	1005.82	-29757.5	0.000000	0.000000	7.203708	174.605	NaN	0.000000	0.001605	0.001715	28.0813	62.8153	0.001770	35494.6	2.526475	177.496	173.655	1.195813	0.060126	0.059759	174.605	35494.6	0.056437	0.113343	1540.5	96324.9
544	2.000000	1.198692	7.37038e+06	-49889.1	1005.82	-29757.5	0.000000	0.000000	7.206757	187.661	NaN	0.000000	0.001587	0.001728	28.0813	64.7463	0.001852	34968.9	8.246024	-7.214757	184.459	1.198237	0.062638	0.062183	187.661	34968.9	0.058613	0.120882	1552.43	91891.3
544	2.000000	1.201282	7.37038e+06	-49889.1	1005.82	-29757.5	0.000000	0.000000	7.209532	192.173	NaN	0.000000	0.001608	0.001687	28.0815	67.6101	0.001793	37714.6	6.397870	173.215	198.331	1.200915	0.065227	0.064861	192.173	37714.6	0.061406	0.130898	1468.12	95239.4
544	2.000000	1.203664	7.37038e+06	-49889.1	1005.82	-29757.5	0.000000	0.000000	7.212651	210.069	NaN	0.000000	0.001669	0.001682	28.0813	69.8127	0.001843	37872.5	3.921177	-4.578714	206.809	1.203262	0.067610	0.067208	210.069	37872.5	0.063450	0.138470	1517.07	92986.2
544	2.000000	1.206176	7.37038e+06	-49889.1	1005.82	-29757.5	0.000000	0.000000	7.215678	222.611	NaN	0.000000	0.001674	0.001691	28.0801	72.2433	0.001792	40323.1	3.833015	175.068	221.217	1.205848	0.070122	0.069794	222.611	40323.1	0.065981	0.148126	1502.85	95721.8
544	2.000000	1.208656	7.37038e+06	-49889.1	1005.82	-29757.5	0.000000	0.000000	7.218863	239.751	NaN	0.000000	0.001671	0.001664	28.08	73.4358	0.001781	41236.4	3.493468	-4.011385	235.879	1.208229	0.072602	0.072175	239.751	41236.4	0.068242	0.157009	1526.99	95080.5
544	2.000000	1.211139	7.37038e+06	-49889.1	1005.82	-29757.5	0.000000	0.000000	7.221583	245.521	NaN	0.000000	0.001656	0.001656	28.0803	74.8004	0.001802	41500.7	2.003931	176.887	241.524	1.210856	0.075085	0.074802	245.521	41500.7	0.070648	0.166735	1472.52	92857.1
544	2.000000	1.213629	7.37038e+06	-49889.1	1005.82	-29757.5	0.000000	0.000000	7.224478	255.364	NaN	0.000000	0.001678	0.001706	28.0801	78.3297	0.001835	42686.4	5.094642	-6.690013	250.602	1.213268	0.077575	0.077214	255.364	42686.4	0.073089	0.176878	1443.73	92731.1
544	2.000000	1.216116	7.37038e+06	-49889.1	1005.82	-29757.5	0.000000	0.000000	7.227533	269.192	NaN	0.000000	0.001683	0.001695	28.0801	81.069	0.001786	45380.7	7.252912	170.395	265.894	1.215881	0.080062	0.079827	269.192	45380.7	0.075613	0.187667	1434.41	95708.4
544	2.000000	1.218588	7.37038e+06	-49889.1	1005.82	-29757.5	0.000000	0.000000	7.230761	287.575	NaN	0.000000	0.001708	0.001717	28.0803	81.9562	0.001827	44859	3.728643	-5.235993	281.943	1.218317	0.082534	0.082263	287.575	44859	0.077726	0.196928	1460.31	92357
544	2.000000	1.221182	7.37038e+06	-49889.1	1005.82	-29757.5	0.000000	0.000000	7.234038	304.194	NaN	0.000000	0.001712	0.001715	28.0802	83.9545	0.001824	46023.4	5.378192	172.555	306.118	1.220809	0.085128	0.084755	304.194	46023.4	0.080170	0.207902	1463.16	92219.3
544	2.000000	1.223640	7.37038e+06	-49889.1	1005.82	-29757.5	0.000000	0.000000	7.237108	319.073	NaN	0.000000	0.001696	0.001695	28.0801	86.7882	0.001930	44962.7	2.535616	-4.559478	315.689	1.223313	0.087586	0.087259	319.073	44962.7	0.082264	0.217521	1466.86	88079.5
544	2.000000	1.226102	7.37038e+06	-49889.1	1005.82	-29757.5	0.000000	0.000000	7.240226	335.019	NaN	0.000000	0.001612	0.001685	28.0801	88.7974	0.001868	47537.6	3.860741	174.035	332.618	1.225843	0.090048	0.089789	335.019	47537.6	0.084762	0.229269	1461.25	90706.3
544	2.000000	1.228726	7.37038e+06	-49889.1	1005.82	-29757.5	0.000000	0.000000	7.243032	339.44	NaN	0.000000	0.001635	0.001643	28.0803	89.5295	0.001734	51642.4	2.755532	-5.326368	341.483	1.228427	0.092672	0.092373	339.44	51642.4	0.087742	0.243658	1393.1	95585
544	2.000000	1.231206	7.37038e+06	-49889.1	1005.82	-29757.5	0.000000	0.000000	7.246397	360.979	NaN	0.000000	0.001611	0.001691	28.0801	91.9537	0.001859	49456.2	7.354488	170.495	362.923	1.230834	0.095152	0.094780	360.979	49456.2	0.089678	0.253219	1425.56	89793.6
544	2.000000	1.233590	7.37038e+06	-49889.1	1005.82	-29757.5	0.000000	0.000000	7.249582	380.463	NaN	0.000000	0.001602	0.001724	28.0801	94.7357	0.001885	50244.8	2.855062	-5.136908	375.97	1.233330	0.097536	0.097276	380.463	50244.8	0.091856	0.264191	1440.1	89311
544	2.000000	1.236252	7.37038e+06	-49889.1	1005.82	-29757.5	0.000000	0.000000	7.253001	398.867	NaN	0.000000	0.001595	0.001690	28.0801	97.0568	0.001759	55169.4	9.901461	168.03	402.373	1.235727	0.100198	0.099673	398.867	55169.4	0.094775	0.279230	1428.46	95387.4
544	2.000000	1.238590	7.37038e+06	-49889.1	1005.82	-29757.5	0.000000	0.000000	7.256360	423.669	NaN	0.000000	0.001644	0.001677	28.0802	97.4718	0.001697	57428.4	3.340729	-6.326900	419.056	1.238263	0.102536	0.102209	423.669	57428.4	0.097003	0.290971	1456.06	97269.2
544	2.000000	1.239262	7.37038e+06	-49889.1	1005.82	-29757.5	0.000000	0.000000	7.256940	421.467	NaN	0.000000	0.001644	0.001667	28.0805	99.4577	0.001782	55813.9	5.753170	172.02	426.707	1.238779	0.103207	0.102725	421.467	55813.9	0.097544	0.293854	1434.27	94069.8