File: remote_trans/data/nanoindenter/0828-1/data/Data_2025-08-06,11h17m57s/2025-07-22_16-23-58_1_163.txt
2025-07-22, 16:23:58, 1
Index	Phase	Displacement	Time	Pos X	Pos Y	Pos Z	Rot A	Rot B	Piezo Z	Force A	Force B	Gripper	Voltage A	Voltage B	Temperature	Amplitude force	Amplitude pos	Stiffness	Phase shift	Phase excitation	Force A raw	Displacement raw	HMax	HMax raw	Real Force	Real Stiffness	Contact Depth	Area	Hardness	Reduced Mod.
[#]	[#]	[um]	[s]	[um]	[um]	[um]	[m°]	[m°]	[um]	[uN]	[uN]	[V]	[V]	[V]	[°C]	[uN]	[um]	[N/m]	[°]	[°]	[uN]	[um]	[um]	[um]	[uN]	[N/m]	[um]	[um^2]	[MPa]	[MPa]
163	1.000000	0.002695	7.36663e+06	-46789.1	955.819	-29768.5	0.000000	0.000000	6.002784	-0.051920	NaN	0.000000	0.001632	0.001717	28.0854	0.049853	0.000939	53.0983	133.543	-172.22	-0.032484	0.001500	-1.128716	-1.129911	-0.051920	53.0983	-1.127982	-1.190035E+15	4.362861E-17	NaN
163	1.000000	0.012763	7.36663e+06	-46789.1	955.819	-29768.5	0.000000	0.000000	6.012854	-0.011321	NaN	0.000000	0.001610	0.001736	28.0876	0.036515	0.001287	28.3677	59.4531	21.2105	-0.064153	0.011347	-1.118648	-1.120063	-0.011321	28.3677	-1.118348	-8.837187E+14	1.281091E-17	NaN
163	1.000000	0.022652	7.36663e+06	-46789.1	955.818	-29768.5	0.000000	0.000000	6.022740	-0.069946	NaN	0.000000	0.001606	0.001751	28.1266	0.067310	0.001709	39.394	-36.6187	-163.137	0.006858	0.021380	-1.108759	-1.110030	-0.069946	39.394	-1.107427	-6.306070E+14	1.109180E-16	NaN
163	1.000000	0.032686	7.36663e+06	-46789.1	955.818	-29768.5	0.000000	0.000000	6.032776	-0.047482	NaN	0.000000	0.001635	0.001740	28.1177	0.071112	0.002002	35.5241	117.771	13.2967	-0.058787	0.031281	-1.098724	-1.100129	-0.047482	35.5241	-1.097722	-4.671801E+14	1.016360E-16	NaN
163	1.000000	0.042672	7.36663e+06	-46789.1	955.819	-29768.5	0.000000	0.000000	6.042763	-0.018728	NaN	0.000000	0.001594	0.001722	28.0838	0.035640	0.001976	18.0326	93.9895	-167.469	-0.031955	0.041334	-1.088738	-1.090076	-0.018728	18.0326	-1.087959	-3.454708E+14	5.420895E-17	NaN
163	1.000000	0.052664	7.36663e+06	-46789.1	955.819	-29768.5	0.000000	0.000000	6.052755	-0.006541	NaN	0.000000	0.001606	0.001747	28.086	0.093761	0.002005	46.7599	-154.938	13.5407	-0.023401	0.051297	-1.078747	-1.080114	-0.006541	46.7599	-1.078642	-2.589873E+14	2.525606E-17	NaN
163	1.000000	0.062656	7.36663e+06	-46789.1	955.82	-29768.5	0.000000	0.000000	6.062747	0.004425	NaN	0.000000	0.001612	0.001761	28.1255	0.177660	0.002082	85.3418	93.2636	-169.172	-0.037814	0.061303	-1.068755	-1.070107	0.004425	85.3418	-1.068794	-1.909784E+14	-2.316775E-17	NaN
163	1.000000	0.072672	7.36663e+06	-46789.1	955.818	-29768.5	0.000000	0.000000	6.072761	-0.061589	NaN	0.000000	0.001608	0.001728	28.1165	0.095190	0.002059	46.221	54.2186	15.8809	-0.028797	0.071262	-1.058739	-1.060149	-0.061589	46.221	-1.057739	-1.356563E+14	4.540047E-16	NaN
163	1.000000	0.082693	7.36663e+06	-46789.1	955.818	-29768.5	0.000000	0.000000	6.082786	0.040363	NaN	0.000000	0.001581	0.001716	28.0818	0.065688	0.001818	36.1339	-29.8907	-165.788	0.097341	0.081433	-1.048718	-1.049977	0.040363	36.1339	-1.049555	-1.053024E+14	-3.833044E-16	NaN
163	1.000000	0.092693	7.36663e+06	-46789.1	955.819	-29768.5	0.000000	0.000000	6.092784	-0.016768	NaN	0.000000	0.001602	0.001752	28.0865	0.143564	0.001967	72.9748	-30.0866	15.2191	-0.002507	0.091327	-1.038718	-1.040083	-0.016768	72.9748	-1.038545	-7.488726E+13	2.239071E-16	NaN
163	1.000000	0.102680	7.36663e+06	-46789.1	955.818	-29768.5	0.000000	0.000000	6.102772	0.002267	NaN	0.000000	0.001613	0.001737	28.1247	0.031481	0.001998	15.7566	156.658	-165.424	-0.139057	0.101390	-1.028730	-1.030020	0.002267	15.7566	-1.028838	-5.544417E+13	-4.089371E-17	NaN
163	1.000000	0.112700	7.36663e+06	-46789.1	955.818	-29768.5	0.000000	0.000000	6.112792	0.016911	NaN	0.000000	0.001610	0.001731	28.1163	0.058093	0.001982	29.3114	76.5608	16.6106	0.013244	0.111295	-1.018710	-1.020116	0.016911	29.3114	-1.019143	-4.106043E+13	-4.118655E-16	NaN
163	1.000000	0.122704	7.36663e+06	-46789.1	955.819	-29768.5	0.000000	0.000000	6.122796	0.019016	NaN	0.000000	0.001639	0.001727	28.0821	0.016658	0.002025	8.225506	50.278	-166.564	0.041598	0.121368	-1.008707	-1.010042	0.019016	8.225506	-1.010440	-3.135517E+13	-6.064640E-16	NaN
163	1.000000	0.132680	7.36663e+06	-46789.1	955.817	-29768.5	0.000000	0.000000	6.132771	-0.019288	NaN	0.000000	0.001616	0.001747	28.0846	0.079849	0.002000	39.9236	167.524	14.5649	-0.028276	0.131331	-0.998730	-1.000079	-0.019288	39.9236	-0.998368	-2.156733E+13	8.943100E-16	NaN
163	1.000000	0.142678	7.36663e+06	-46789.1	955.817	-29768.5	0.000000	0.000000	6.142769	-0.023851	NaN	0.000000	0.001613	0.001761	28.1234	0.066578	0.002042	32.6088	-91.4124	-167.348	0.089966	0.141405	-0.988732	-0.990005	-0.023851	32.6088	-0.988184	-1.572717E+13	1.516553E-15	NaN
163	1.000000	0.152694	7.36663e+06	-46789.1	955.818	-29768.5	0.000000	0.000000	6.152785	0.004005	NaN	0.000000	0.001625	0.001731	28.1158	0.063842	0.002033	31.4048	122.387	12.3131	-0.031278	0.151342	-0.978717	-0.980068	0.004005	31.4048	-0.978813	-1.176016E+13	-3.405960E-16	NaN
163	1.000000	0.162713	7.36663e+06	-46789.1	955.819	-29768.5	0.000000	0.000000	6.162803	-0.030123	NaN	0.000000	0.001611	0.001696	28.0817	0.086611	0.002037	42.5259	66.0876	-166.65	0.053767	0.161369	-0.968698	-0.970042	-0.030123	42.5259	-0.968167	-8.451875E+12	3.564104E-15	NaN
163	1.000000	0.172699	7.36663e+06	-46789.1	955.818	-29768.5	0.000000	0.000000	6.172788	-0.054985	NaN	0.000000	0.001647	0.001734	28.0848	0.076100	0.001966	38.7065	-107.351	14.3413	-0.070662	0.171319	-0.958712	-0.960091	-0.054985	38.7065	-0.957646	-6.097263E+12	9.017901E-15	NaN
163	1.000000	0.182710	7.36663e+06	-46789.1	955.819	-29768.5	0.000000	0.000000	6.182805	0.064542	NaN	0.000000	0.001634	0.001729	28.1241	0.056300	0.001912	29.4511	69.8305	-166.785	0.015084	0.181390	-0.948700	-0.950020	0.064542	29.4511	-0.950344	-4.860309E+12	-1.327943E-14	NaN
163	1.000000	0.192724	7.36663e+06	-46789.1	955.818	-29768.5	0.000000	0.000000	6.192816	0.004488	NaN	0.000000	0.001641	0.001749	28.1169	0.003071	0.002019	1.521201	174.465	12.7438	0.038381	0.191359	-0.938686	-0.940051	0.004488	1.521201	-0.940899	-3.624691E+12	-1.238301E-15	NaN
163	1.000000	0.202740	7.36663e+06	-46789.1	955.818	-29768.5	0.000000	0.000000	6.202828	-0.072717	NaN	0.000000	0.001634	0.001725	28.0815	0.060706	0.002002	30.3285	158.513	-163.723	-0.049257	0.201411	-0.928671	-0.930000	-0.072717	30.3285	-0.926873	-2.344154E+12	3.102045E-14	NaN
163	1.000000	0.212698	7.36663e+06	-46789.1	955.819	-29768.5	0.000000	0.000000	6.212790	0.011950	NaN	0.000000	0.001633	0.001751	28.0846	0.089524	0.001962	45.6222	127.305	13.7709	-0.040392	0.211301	-0.918713	-0.920110	0.011950	45.6222	-0.918909	-1.830118E+12	-6.529397E-15	NaN
163	1.000000	0.222710	7.36663e+06	-46789.1	955.819	-29768.5	0.000000	0.000000	6.222800	-0.040823	NaN	0.000000	0.001597	0.001755	28.1234	0.051184	0.001891	27.0686	-153.224	-168.996	-0.034555	0.221462	-0.908701	-0.909948	-0.040823	27.0686	-0.907570	-1.286284E+12	3.173710E-14	NaN
163	1.000000	0.232772	7.36663e+06	-46789.1	955.818	-29768.5	0.000000	0.000000	6.232862	-0.035771	NaN	0.000000	0.001616	0.001751	28.1168	0.021562	0.002065	10.4431	-71.3791	9.950180	-0.058988	0.231381	-0.898639	-0.900030	-0.035771	10.4431	-0.896070	-8.994051E+11	3.977151E-14	NaN
163	1.000000	0.242753	7.36663e+06	-46789.1	955.818	-29768.5	0.000000	0.000000	6.242845	0.006108	NaN	0.000000	0.001583	0.001742	28.0825	0.080496	0.002079	38.7176	102.7	-165.619	0.057216	0.241490	-0.888658	-0.889921	0.006108	38.7176	-0.888776	-7.167492E+11	-8.522274E-15	NaN
163	1.000000	0.252751	7.36663e+06	-46789.1	955.818	-29768.5	0.000000	0.000000	6.252840	-0.059408	NaN	0.000000	0.001596	0.001741	28.0877	0.131610	0.002132	61.7428	-115.438	13.9694	-0.074920	0.251422	-0.878659	-0.879989	-0.059408	61.7428	-0.877938	-5.114670E+11	1.161516E-13	NaN
163	1.000000	0.262748	7.36663e+06	-46789.1	955.819	-29768.5	0.000000	0.000000	6.262836	-0.076201	NaN	0.000000	0.001613	0.001750	28.1257	0.150977	0.001944	77.679	-78.9919	-164.171	-0.118143	0.261488	-0.868663	-0.869923	-0.076201	77.679	-0.867927	-3.744531E+11	2.035005E-13	NaN
163	1.000000	0.272767	7.36663e+06	-46789.1	955.818	-29768.5	0.000000	0.000000	6.272854	-0.119295	NaN	0.000000	0.001620	0.001779	28.119	0.004951	0.002113	2.343741	-60.2187	13.9794	-0.087788	0.271401	-0.858644	-0.860010	-0.119295	2.343741	-0.820469	-8.522586E+10	1.399753E-12	NaN
163	1.000000	0.282741	7.36663e+06	-46789.1	955.818	-29768.5	0.000000	0.000000	6.282830	-0.081209	NaN	0.000000	0.001594	0.001753	28.0854	0.039000	0.001761	22.1476	-139.395	-165.151	-0.020729	0.281410	-0.848669	-0.850000	-0.081209	22.1476	-0.845919	-1.885691E+11	4.306602E-13	NaN
163	1.000000	0.292755	7.36663e+06	-46789.1	955.819	-29768.5	0.000000	0.000000	6.292848	0.012823	NaN	0.000000	0.001601	0.001764	28.0859	0.031095	0.001937	16.0538	-98.5012	11.8163	0.032775	0.291376	-0.838655	-0.840034	0.012823	16.0538	-0.839254	-1.531755E+11	-8.371123E-14	NaN
163	1.000000	0.302764	7.36663e+06	-46789.1	955.818	-29768.5	0.000000	0.000000	6.302856	0.010246	NaN	0.000000	0.001600	0.001723	28.1248	0.101207	0.001910	53.001	75.1393	-164.829	0.021722	0.301470	-0.828647	-0.829940	0.010246	53.001	-0.828792	-1.105113E+11	-9.271230E-14	NaN
163	1.000000	0.312772	7.36663e+06	-46789.1	955.818	-29768.5	0.000000	0.000000	6.312861	-0.059157	NaN	0.000000	0.001597	0.001753	28.1185	0.037494	0.002023	18.5382	-148.218	16.4573	0.039779	0.311409	-0.818639	-0.820002	-0.059157	18.5382	-0.816245	-7.469488E+10	7.919859E-13	NaN
163	1.000000	0.322752	7.36663e+06	-46789.1	955.818	-29768.5	0.000000	0.000000	6.322839	-0.105338	NaN	0.000000	0.001620	0.001783	28.0838	0.116144	0.001920	60.4846	125.907	-167.453	-0.044211	0.321404	-0.808658	-0.810007	-0.105338	60.4846	-0.807352	-5.657778E+10	1.861832E-12	NaN
163	1.000000	0.332762	7.36663e+06	-46789.1	955.819	-29768.5	0.000000	0.000000	6.332849	-0.113622	NaN	0.000000	0.001591	0.001823	28.0875	0.129463	0.002095	61.8007	-178.816	15.5336	-0.052579	0.331439	-0.798648	-0.799972	-0.113622	61.8007	-0.797269	-4.128527E+10	2.752131E-12	NaN
163	1.000000	0.342768	7.36663e+06	-46789.1	955.818	-29768.5	0.000000	0.000000	6.342858	-0.047560	NaN	0.000000	0.001609	0.001786	28.1254	0.067782	0.002117	32.0187	-78.9123	-163.388	-0.079051	0.341507	-0.788643	-0.789903	-0.047560	32.0187	-0.787529	-3.044506E+10	1.562159E-12	NaN
163	1.000000	0.352764	7.36663e+06	-46789.1	955.819	-29768.5	0.000000	0.000000	6.352851	-0.093207	NaN	0.000000	0.001603	0.001772	28.1195	0.057697	0.001965	29.3622	-92.0962	14.9429	-0.150070	0.351413	-0.778647	-0.779998	-0.093207	29.3622	-0.776266	-2.140370E+10	4.354737E-12	NaN
163	1.000000	0.362804	7.36663e+06	-46789.1	955.818	-29768.5	0.000000	0.000000	6.362891	-0.104224	NaN	0.000000	0.001616	0.001776	28.0845	0.135063	0.001913	70.6041	42.164	-165.342	-0.075718	0.361468	-0.768606	-0.769942	-0.104224	70.6041	-0.767499	-1.626680E+10	6.407178E-12	NaN
163	1.000000	0.372804	7.36663e+06	-46789.1	955.818	-29768.5	0.000000	0.000000	6.372896	-0.004253	NaN	0.000000	0.001590	0.001756	28.0851	0.089587	0.001861	48.1389	89.6339	11.296	-0.009031	0.371470	-0.758606	-0.759941	-0.004253	48.1389	-0.758540	-1.228691E+10	3.461411E-13	NaN
163	1.000000	0.382808	7.36663e+06	-46789.1	955.818	-29768.5	0.000000	0.000000	6.382896	-0.080317	NaN	0.000000	0.001622	0.001762	28.123	0.061746	0.001964	31.4334	95.3447	-168.221	-0.019162	0.381484	-0.748602	-0.749926	-0.080317	31.4334	-0.746686	-8.474337E+9	9.477661E-12	NaN
163	1.000000	0.392789	7.36663e+06	-46789.1	955.818	-29768.5	0.000000	0.000000	6.392880	-0.009421	NaN	0.000000	0.001624	0.001760	28.1177	0.045928	0.002036	22.5603	98.4115	13.1995	-0.023523	0.391401	-0.738621	-0.740010	-0.009421	22.5603	-0.738308	-6.516459E+9	1.445743E-12	NaN
163	1.000000	0.402807	7.36663e+06	-46789.1	955.818	-29768.5	0.000000	0.000000	6.402900	0.016038	NaN	0.000000	0.001579	0.001742	28.0833	0.064957	0.001945	33.4022	-77.2158	-165.377	0.007659	0.401489	-0.728603	-0.729922	0.016038	33.4022	-0.728963	-4.860477E+9	-3.299751E-12	NaN
163	1.000000	0.412804	7.36663e+06	-46789.1	955.819	-29768.5	0.000000	0.000000	6.412896	-0.001032	NaN	0.000000	0.001588	0.001778	28.0862	0.098072	0.001974	49.689	-125.598	11.3368	-0.045967	0.411433	-0.718606	-0.719978	-0.001032	49.689	-0.718591	-3.509550E+9	2.940899E-13	NaN
163	1.000000	0.422820	7.36663e+06	-46789.1	955.818	-29768.5	0.000000	0.000000	6.422908	-0.065739	NaN	0.000000	0.001609	0.001731	28.1237	0.059255	0.002052	28.8787	-99.489	-165.527	-0.076864	0.421506	-0.708591	-0.709904	-0.065739	28.8787	-0.706884	-2.429497E+9	2.705872E-11	NaN
163	1.000000	0.432810	7.36663e+06	-46789.1	955.819	-29768.5	0.000000	0.000000	6.432901	-0.023801	NaN	0.000000	0.001637	0.001743	28.1183	0.072593	0.001958	37.0837	123.842	12.4498	-0.046349	0.431446	-0.698600	-0.699964	-0.023801	37.0837	-0.698119	-1.844336E+9	1.290488E-11	NaN
163	1.000000	0.442835	7.36663e+06	-46789.1	955.818	-29768.5	0.000000	0.000000	6.442924	-0.055471	NaN	0.000000	0.001623	0.001764	28.0838	0.123021	0.002023	60.8199	-108.087	-165.295	-0.008752	0.441508	-0.688576	-0.689903	-0.055471	60.8199	-0.687892	-1.336922E+9	4.149146E-11	NaN
163	1.000000	0.452853	7.36663e+06	-46789.1	955.819	-29768.5	0.000000	0.000000	6.452946	0.021483	NaN	0.000000	0.001575	0.001762	28.0855	0.148200	0.001950	75.9808	83.8118	13.6739	0.025001	0.451437	-0.678557	-0.679973	0.021483	75.9808	-0.678769	-1.003169E+9	-2.141526E-11	NaN
163	1.000000	0.462828	7.36663e+06	-46789.1	955.818	-29768.5	0.000000	0.000000	6.462919	-0.028827	NaN	0.000000	0.001606	0.001734	28.123	0.034338	0.002015	17.0373	127.218	-160.759	-0.126724	0.461548	-0.668582	-0.669862	-0.028827	17.0373	-0.667313	-6.992208E+8	4.122684E-11	NaN
163	1.000000	0.472826	7.36663e+06	-46789.1	955.819	-29768.5	0.000000	0.000000	6.472913	-0.102298	NaN	0.000000	0.001597	0.001717	28.1179	0.031512	0.001843	17.1001	158.951	11.4638	-0.145085	0.471467	-0.658585	-0.659944	-0.102298	17.1001	-0.654098	-4.609015E+8	2.219518E-10	NaN
163	1.000000	0.482833	7.36663e+06	-46789.1	955.818	-29768.5	0.000000	0.000000	6.482922	-0.051975	NaN	0.000000	0.001593	0.001774	28.0825	0.067918	0.001984	34.241	-165.276	-167.786	-0.117183	0.481504	-0.648578	-0.649907	-0.051975	34.241	-0.647439	-3.735320E+8	1.391451E-10	NaN
163	1.000000	0.492852	7.36663e+06	-46789.1	955.819	-29768.5	0.000000	0.000000	6.492942	-0.028390	NaN	0.000000	0.001577	0.001765	28.0856	0.102108	0.002060	49.5724	148.338	14.6766	-0.015618	0.491449	-0.638559	-0.639962	-0.028390	49.5724	-0.638129	-2.783698E+8	1.019860E-10	NaN
163	1.000000	0.502848	7.36663e+06	-46789.1	955.817	-29768.5	0.000000	0.000000	6.502941	0.010652	NaN	0.000000	0.001570	0.001781	28.1235	0.113326	0.002075	54.6075	-36.4506	-167.341	0.024049	0.501549	-0.628562	-0.629862	0.010652	54.6075	-0.628708	-2.066735E+8	-5.154053E-11	NaN
163	1.000000	0.512873	7.36663e+06	-46789.1	955.818	-29768.5	0.000000	0.000000	6.512964	-0.018242	NaN	0.000000	0.001601	0.001793	28.1198	0.122701	0.001980	61.9613	15.6324	18.3938	0.009588	0.511547	-0.618537	-0.619863	-0.018242	61.9613	-0.618317	-1.487619E+8	1.226272E-10	NaN
163	1.000000	0.522854	7.36663e+06	-46789.1	955.819	-29768.5	0.000000	0.000000	6.522945	-0.012177	NaN	0.000000	0.001599	0.001768	28.0857	0.076212	0.001958	38.9265	-73.7858	-165.111	0.041423	0.521560	-0.608557	-0.609850	-0.012177	38.9265	-0.608322	-1.083989E+8	1.123381E-10	NaN
163	1.000000	0.532837	7.36663e+06	-46789.1	955.818	-29768.5	0.000000	0.000000	6.532930	0.035873	NaN	0.000000	0.001590	0.001785	28.085	0.078211	0.002054	38.0804	86.6773	13.9086	0.047655	0.531520	-0.598574	-0.599891	0.035873	38.0804	-0.599280	-8.138515E+7	-4.407787E-10	NaN
163	1.000000	0.542838	7.36664e+06	-46789.1	955.819	-29768.5	0.000000	0.000000	6.542927	-0.054052	NaN	0.000000	0.001548	0.001786	28.1235	0.066208	0.002067	32.0359	168.153	-165.593	-0.058340	0.541530	-0.588573	-0.589880	-0.054052	32.0359	-0.587307	-5.565927E+7	9.711253E-10	NaN
163	1.000000	0.552849	7.36664e+06	-46789.1	955.818	-29768.5	0.000000	0.000000	6.552940	-0.018498	NaN	0.000000	0.001609	0.001825	28.1195	0.047838	0.001981	24.1504	-158.745	14.7152	-0.049723	0.551531	-0.578562	-0.579879	-0.018498	24.1504	-0.577987	-4.139454E+7	4.468815E-10	NaN
163	1.000000	0.562854	7.36664e+06	-46789.1	955.818	-29768.5	0.000000	0.000000	6.562945	-0.014089	NaN	0.000000	0.001578	0.001787	28.0842	0.074901	0.001925	38.9024	83.3802	-166.931	-0.016534	0.561548	-0.568557	-0.569862	-0.014089	38.9024	-0.568285	-3.040440E+7	4.633717E-10	NaN
163	1.000000	0.572872	7.36664e+06	-46789.1	955.819	-29768.5	0.000000	0.000000	6.572960	-0.077226	NaN	0.000000	0.001594	0.001780	28.0866	0.028799	0.002007	14.3471	155.499	15.5534	-0.126753	0.571543	-0.558539	-0.559868	-0.077226	14.3471	-0.554502	-1.960159E+7	3.939799E-9	NaN
163	1.000000	0.582842	7.36664e+06	-46789.1	955.819	-29768.5	0.000000	0.000000	6.582931	-0.078496	NaN	0.000000	0.001590	0.001781	28.1241	0.044866	0.001978	22.6806	141.299	-167.572	-0.077672	0.581638	-0.548568	-0.549772	-0.078496	22.6806	-0.545972	-1.493330E+7	5.256469E-9	NaN
163	1.000000	0.592897	7.36664e+06	-46789.1	955.819	-29768.5	0.000000	0.000000	6.592989	-0.005770	NaN	0.000000	0.001569	0.001772	28.1206	0.065558	0.002106	31.1344	3.252846	14.4866	0.011070	0.591524	-0.538513	-0.539886	-0.005770	31.1344	-0.538374	-1.171681E+7	4.924865E-10	NaN
163	1.000000	0.602880	7.36664e+06	-46789.1	955.819	-29768.5	0.000000	0.000000	6.602969	-0.050818	NaN	0.000000	0.001590	0.001737	28.0844	0.088500	0.002028	43.6373	-141.54	-168.666	-0.004492	0.601581	-0.528531	-0.529830	-0.050818	43.6373	-0.527657	-8.31827e+06	6.109197E-9	NaN
163	1.000000	0.612899	7.36664e+06	-46789.1	955.818	-29768.5	0.000000	0.000000	6.612990	-0.011884	NaN	0.000000	0.001605	0.001773	28.0861	0.074560	0.002034	36.6603	-51.8023	14.8897	-0.046131	0.611551	-0.518512	-0.519859	-0.011884	36.6603	-0.518269	-6.15907e+06	1.929525E-9	NaN
163	1.000000	0.622916	7.36664e+06	-46789.1	955.818	-29768.5	0.000000	0.000000	6.623005	-0.074039	NaN	0.000000	0.001597	0.001759	28.1232	0.098629	0.001990	49.5724	163.98	-167.322	-0.077476	0.621571	-0.508495	-0.509839	-0.074039	49.5724	-0.507374	-4.34347e+06	1.704616E-8	NaN
163	1.000000	0.632901	7.36664e+06	-46789.1	955.819	-29768.5	0.000000	0.000000	6.632992	-0.003686	NaN	0.000000	0.001593	0.001723	28.1198	0.160287	0.001895	84.5767	119.145	11.2669	0.025303	0.631525	-0.498510	-0.499886	-0.003686	84.5767	-0.498477	-3.26414e+06	1.129367E-9	NaN
163	1.000000	0.642930	7.36664e+06	-46789.1	955.818	-29768.5	0.000000	0.000000	6.643018	-0.094110	NaN	0.000000	0.001575	0.001732	28.0841	0.029610	0.002053	14.4241	110.123	-167.484	-0.178944	0.641620	-0.488480	-0.489791	-0.094110	14.4241	-0.483587	-2.02174e+06	4.654890E-8	NaN
163	1.000000	0.652903	7.36664e+06	-46789.1	955.818	-29768.5	0.000000	0.000000	6.652992	-0.055815	NaN	0.000000	0.001555	0.001753	28.0836	0.071274	0.002073	34.3862	-104.439	10.5896	-0.063629	0.651564	-0.478508	-0.479847	-0.055815	34.3862	-0.477291	-1.65039e+06	3.381890E-8	NaN
163	1.000000	0.662909	7.36664e+06	-46789.1	955.819	-29768.5	0.000000	0.000000	6.662997	-0.102690	NaN	0.000000	0.001549	0.001776	28.1227	0.052931	0.002087	25.3591	-108.991	-167.475	-0.092470	0.661578	-0.468501	-0.469833	-0.102690	25.3591	-0.465464	-1.12659e+06	9.115124E-8	NaN
163	1.000000	0.672913	7.36664e+06	-46789.1	955.817	-29768.5	0.000000	0.000000	6.673004	-0.012677	NaN	0.000000	0.001596	0.001759	28.12	0.068365	0.001980	34.5225	-124.069	10.9999	-0.028191	0.671591	-0.458498	-0.459819	-0.012677	34.5225	-0.458223	-891324	1.422243E-8	NaN
163	1.000000	0.682947	7.36664e+06	-46789.1	955.818	-29768.5	0.000000	0.000000	6.683035	-0.102408	NaN	0.000000	0.001603	0.001740	28.0847	0.098136	0.001958	50.1261	128.53	-163.988	-0.058373	0.681644	-0.448463	-0.449767	-0.102408	50.1261	-0.446931	-618173	1.656620E-7	NaN
163	1.000000	0.692931	7.36664e+06	-46789.1	955.818	-29768.5	0.000000	0.000000	6.693022	-0.018197	NaN	0.000000	0.001594	0.001764	28.0847	0.103092	0.001920	53.6882	-128.09	16.299	0.020298	0.691577	-0.438479	-0.439834	-0.018197	53.6882	-0.438225	-465914	3.905661E-8	NaN
163	1.000000	0.702906	7.36664e+06	-46789.1	955.819	-29768.5	0.000000	0.000000	6.702996	-0.051637	NaN	0.000000	0.001601	0.001706	28.1222	0.062139	0.001908	32.5677	36.3165	-167.073	-0.019525	0.701646	-0.428504	-0.429764	-0.051637	32.5677	-0.427315	-326636	1.580882E-7	NaN
163	1.000000	0.712959	7.36664e+06	-46789.1	955.818	-29768.5	0.000000	0.000000	6.713050	-0.017801	NaN	0.000000	0.001590	0.001741	28.1192	0.051088	0.002043	25.0082	111.922	15.0083	7.009616E-5	0.711548	-0.418452	-0.419863	-0.017801	25.0082	-0.417918	-240367	7.405575E-8	NaN
163	1.000000	0.722952	7.36664e+06	-46789.1	955.818	-29768.5	0.000000	0.000000	6.723043	-0.018914	NaN	0.000000	0.001580	0.001749	28.083	0.040331	0.001886	21.3859	141.363	-164.156	0.001881	0.721636	-0.408458	-0.409774	-0.018914	21.3859	-0.407795	-172598	1.095828E-7	NaN
163	1.000000	0.732933	7.36664e+06	-46789.1	955.819	-29768.5	0.000000	0.000000	6.733023	-0.032059	NaN	0.000000	0.001568	0.001736	28.0858	0.042110	0.001995	21.1117	-69.0039	11.5755	-0.033117	0.731559	-0.398478	-0.399851	-0.032059	21.1117	-0.397339	-122470	2.617726E-7	NaN
163	1.000000	0.742949	7.36664e+06	-46789.1	955.819	-29768.5	0.000000	0.000000	6.743039	-0.050520	NaN	0.000000	0.001580	0.001751	28.1225	0.091827	0.002059	44.6009	5.429633	-166.944	-0.060765	0.741674	-0.388461	-0.389737	-0.050520	44.6009	-0.387612	-88918	5.681651E-7	NaN
163	1.000000	0.752925	7.36664e+06	-46789.1	955.818	-29768.5	0.000000	0.000000	6.753017	0.019632	NaN	0.000000	0.001577	0.001728	28.1202	0.048701	0.002135	22.8081	23.6654	16.5763	-0.010330	0.751594	-0.378486	-0.379817	0.019632	22.8081	-0.379131	-67208	-2.921057E-7	NaN
163	1.000000	0.762961	7.36664e+06	-46789.1	955.819	-29768.5	0.000000	0.000000	6.763053	-0.002669	NaN	0.000000	0.001534	0.001760	28.0833	0.049529	0.002003	24.7289	120.184	-169.818	-0.000159	0.761630	-0.368449	-0.369780	-0.002669	24.7289	-0.368368	-47056.9	5.670860E-8	NaN
163	1.000000	0.772977	7.36664e+06	-46789.1	955.819	-29768.5	0.000000	0.000000	6.773069	0.006113	NaN	0.000000	0.001619	0.001747	28.0849	0.094653	0.002133	44.3767	138.728	15.4817	0.027756	0.771643	-0.358434	-0.359767	0.006113	44.3767	-0.358537	-33938.3	-1.801086E-7	NaN
163	1.000000	0.782960	7.36664e+06	-46789.1	955.819	-29768.5	0.000000	0.000000	6.783051	-0.007354	NaN	0.000000	0.001624	0.001733	28.1226	0.049537	0.002015	24.5817	16.7515	-167.347	-0.022060	0.781689	-0.348450	-0.349721	-0.007354	24.5817	-0.348226	-24057.2	3.057036E-7	NaN
163	1.000000	0.792975	7.36664e+06	-46789.1	955.818	-29768.5	0.000000	0.000000	6.793067	0.012070	NaN	0.000000	0.001654	0.001780	28.1202	0.071433	0.002183	32.7183	66.6964	9.238173	-0.111583	0.791614	-0.338436	-0.339797	0.012070	32.7183	-0.338712	-17489.5	-6.901320E-7	NaN
163	1.000000	0.802969	7.36664e+06	-46789.1	955.818	-29768.5	0.000000	0.000000	6.803060	-0.017478	NaN	0.000000	0.001620	0.001778	28.0839	0.027453	0.001897	14.4694	72.2976	-168.215	0.028083	0.801662	-0.328442	-0.329748	-0.017478	14.4694	-0.327536	-12004.5	1.455979E-6	NaN
163	1.000000	0.812997	7.36664e+06	-46789.1	955.819	-29768.5	0.000000	0.000000	6.813087	-0.042935	NaN	0.000000	0.001646	0.001754	28.0861	0.043242	0.002049	21.1083	78.8458	14.7456	0.021057	0.811638	-0.318414	-0.319772	-0.042935	21.1083	-0.316888	-8371.44	5.128783E-6	NaN
163	1.000000	0.822975	7.36664e+06	-46789.1	955.818	-29768.5	0.000000	0.000000	6.823067	-0.003044	NaN	0.000000	0.001653	0.001726	28.1236	0.015868	0.002017	7.868530	12.9731	-165.754	-0.028763	0.821729	-0.308435	-0.309681	-0.003044	7.868530	-0.308145	-6217.19	4.896022E-7	NaN
163	1.000000	0.832978	7.36664e+06	-46789.1	955.818	-29768.5	0.000000	0.000000	6.833069	-0.010676	NaN	0.000000	0.001684	0.001780	28.1215	0.027930	0.002079	13.4316	33.7995	15.9223	-0.019619	0.831625	-0.298433	-0.299786	-0.010676	13.4316	-0.297837	-4369.28	2.443407E-6	NaN
163	1.000000	0.842976	7.36664e+06	-46789.1	955.818	-29768.5	0.000000	0.000000	6.843067	-0.007786	NaN	0.000000	0.001633	0.001722	28.0842	0.082894	0.001946	42.5878	31.2104	-168.821	0.048221	0.841649	-0.288434	-0.289761	-0.007786	42.5878	-0.288297	-3146.15	2.474750E-6	NaN
163	1.000000	0.853007	7.36664e+06	-46789.1	955.819	-29768.5	0.000000	0.000000	6.853098	-0.018755	NaN	0.000000	0.001640	0.001740	28.086	0.057791	0.001967	29.3832	179.685	16.5339	-0.061257	0.851648	-0.278404	-0.279763	-0.018755	29.3832	-0.277925	-2196.04	8.540398E-6	NaN
163	1.000000	0.863010	7.36664e+06	-46789.1	955.818	-29768.5	0.000000	0.000000	6.863101	-0.006588	NaN	0.000000	0.001639	0.001765	28.1218	0.039845	0.001979	20.1354	154.714	-168.136	0.071462	0.861652	-0.268401	-0.269759	-0.006588	20.1354	-0.268155	-1561.29	4.219593E-6	NaN
163	1.000000	0.873016	7.36664e+06	-46789.1	955.819	-29768.5	0.000000	0.000000	6.873106	-0.035624	NaN	0.000000	0.001659	0.001804	28.1209	0.081398	0.001991	40.8893	141.259	10.4943	-0.059695	0.871629	-0.258395	-0.259782	-0.035624	40.8893	-0.257742	-1082.1	3.292098E-5	NaN
163	1.000000	0.883011	7.36664e+06	-46789.1	955.817	-29768.5	0.000000	0.000000	6.883100	-0.065740	NaN	0.000000	0.001660	0.001757	28.0829	0.060124	0.001977	30.413	-126.796	-163.021	-1.171095E-5	0.881689	-0.248399	-0.249722	-0.065740	30.413	-0.246778	-732.931	8.969422E-5	NaN
163	1.000000	0.893029	7.36664e+06	-46789.1	955.819	-29768.5	0.000000	0.000000	6.893119	-0.053157	NaN	0.000000	0.001657	0.001784	28.0875	0.106433	0.002052	51.8706	-84.5166	14.7275	-0.034341	0.891630	-0.238381	-0.239780	-0.053157	51.8706	-0.237613	-527.492	0.000101	NaN
163	1.000000	0.903053	7.36664e+06	-46789.1	955.819	-29768.5	0.000000	0.000000	6.903144	-0.018201	NaN	0.000000	0.001650	0.001764	28.123	0.024631	0.002118	11.6308	-96.5506	-167.606	0.036589	0.901680	-0.228357	-0.229731	-0.018201	11.6308	-0.227184	-361.386	5.036534E-5	NaN
163	1.000000	0.913037	7.36664e+06	-46789.1	955.818	-29768.5	0.000000	0.000000	6.913130	0.035856	NaN	0.000000	0.001661	0.001783	28.122	0.176806	0.001960	90.2292	-47.4217	15.3783	-0.050240	0.911640	-0.218374	-0.219771	0.035856	90.2292	-0.218672	-264.506	-0.000136	NaN
163	1.000000	0.923019	7.36664e+06	-46789.1	955.819	-29768.5	0.000000	0.000000	6.923114	0.097093	NaN	0.000000	0.001668	0.001772	28.0852	0.019813	0.002029	9.764663	-43.7857	-165.577	0.079032	0.921706	-0.208392	-0.209704	0.097093	9.764663	-0.215849	-238.325	-0.000407	NaN
163	1.000000	0.933060	7.36664e+06	-46789.1	955.818	-29768.5	0.000000	0.000000	6.933150	-0.020938	NaN	0.000000	0.001680	0.001805	28.0838	0.042429	0.001859	22.8238	173.729	12.3296	0.010289	0.931664	-0.198351	-0.199747	-0.020938	22.8238	-0.197663	-120.565	0.000174	NaN
163	1.000000	0.943013	7.36664e+06	-46789.1	955.819	-29768.5	0.000000	0.000000	6.943105	0.004483	NaN	0.000000	0.001598	0.001797	28.1201	0.056773	0.001991	28.5191	97.0416	-169.262	-0.023591	0.941772	-0.188397	-0.189639	0.004483	28.5191	-0.188515	-84.9556	-5.276937E-5	NaN
163	1.000000	0.953039	7.36664e+06	-46789.1	955.819	-29768.5	0.000000	0.000000	6.953130	-0.019314	NaN	0.000000	0.001599	0.001778	28.1198	0.095766	0.002068	46.3151	95.558	11.3139	-0.037553	0.951644	-0.178372	-0.179767	-0.019314	46.3151	-0.178059	-56.543	0.000342	NaN
163	1.000000	0.963057	7.36664e+06	-46789.1	955.819	-29768.5	0.000000	0.000000	6.963147	-0.016404	NaN	0.000000	0.001608	0.001767	28.0821	0.067988	0.001977	34.3933	-171.924	-163.84	-0.015364	0.961702	-0.168354	-0.169709	-0.016404	34.3933	-0.167996	-37.909	0.000433	NaN
163	1.000000	0.973018	7.36664e+06	-46789.1	955.818	-29768.5	0.000000	0.000000	6.973111	0.024966	NaN	0.000000	0.001590	0.001736	28.0846	0.085493	0.002005	42.641	155.163	12.8533	-0.028760	0.971704	-0.158392	-0.159706	0.024966	42.641	-0.158831	-26.1332	-0.000955	NaN
163	1.000000	0.983062	7.36664e+06	-46789.1	955.817	-29768.5	0.000000	0.000000	6.983154	-0.011407	NaN	0.000000	0.001621	0.001788	28.1208	0.053101	0.002050	25.9005	167.151	-168.588	0.010352	0.981778	-0.148348	-0.149632	-0.011407	25.9005	-0.148018	-16.663	0.000685	NaN
163	1.000000	0.993039	7.36664e+06	-46789.1	955.818	-29768.5	0.000000	0.000000	6.993129	-0.041880	NaN	0.000000	0.001605	0.001781	28.121	0.085670	0.002002	42.7936	13.8555	17.9254	-0.019872	0.991685	-0.138371	-0.139726	-0.041880	42.7936	-0.137637	-10.6762	0.003923	NaN
163	1.000000	1.003072	7.36664e+06	-46789.1	955.818	-29768.5	0.000000	0.000000	7.003163	-0.017167	NaN	0.000000	0.001590	0.001778	28.0841	0.077522	0.001990	38.9492	-35.2772	-164.809	0.005749	1.001785	-0.128339	-0.129626	-0.017167	38.9492	-0.128008	-6.969118	0.002463	NaN
163	1.000000	1.013058	7.36664e+06	-46789.1	955.819	-29768.5	0.000000	0.000000	7.013147	-0.065768	NaN	0.000000	0.001583	0.001772	28.0842	0.034283	0.001926	17.8025	-122.185	16.3777	-0.086300	1.011714	-0.118353	-0.119697	-0.065768	17.8025	-0.115582	-3.927232	0.016747	NaN
163	1.000000	1.023053	7.36664e+06	-46789.1	955.82	-29768.5	0.000000	0.000000	7.023143	-0.035388	NaN	0.000000	0.001591	0.001775	28.1201	0.065919	0.001960	33.6257	9.548695	-167.412	-0.012238	1.021729	-0.108358	-0.109681	-0.035388	33.6257	-0.107569	-2.668752	0.013260	NaN
163	1.000000	1.033067	7.36664e+06	-46789.1	955.819	-29768.5	0.000000	0.000000	7.033157	-0.034600	NaN	0.000000	0.001603	0.001775	28.1207	0.099532	0.002043	48.7194	75.0603	12.0913	0.024473	1.031671	-0.098343	-0.099740	-0.034600	48.7194	-0.097811	-1.632893	0.021190	NaN
163	1.000000	1.043053	7.36664e+06	-46789.1	955.819	-29768.5	0.000000	0.000000	7.043146	0.019755	NaN	0.000000	0.001581	0.001752	28.0839	0.061620	0.002050	30.053	115.928	-166.829	-0.011157	1.041759	-0.088357	-0.089651	0.019755	30.053	-0.088850	-1.015643	-0.019450	NaN
163	1.000000	1.053095	7.36664e+06	-46789.1	955.818	-29768.5	0.000000	0.000000	7.053183	-0.076499	NaN	0.000000	0.001619	0.001784	28.0841	0.174111	0.001953	89.1338	-116.154	14.9313	-0.091783	1.051690	-0.078316	-0.079720	-0.076499	89.1338	-0.077672	-0.540771	0.141464	NaN
163	1.000000	1.063070	7.36664e+06	-46789.1	955.819	-29768.5	0.000000	0.000000	7.063161	-0.023506	NaN	0.000000	0.001600	0.001800	28.1221	0.125929	0.001866	67.4727	158.171	-167.579	0.009044	1.061828	-0.068340	-0.069583	-0.023506	67.4727	-0.068079	-0.302747	0.077642	NaN
163	1.000000	1.073078	7.36664e+06	-46789.1	955.82	-29768.5	0.000000	0.000000	7.073171	0.032439	NaN	0.000000	0.001693	0.001798	28.1227	0.038165	0.002086	18.2913	116.396	14.4773	0.074408	1.071669	-0.058332	-0.059742	0.032439	18.2913	-0.059662	-0.176118	-0.184191	NaN
163	1.000000	1.083094	7.36664e+06	-46789.1	955.819	-29768.5	0.000000	0.000000	7.083185	-1.355619E-5	NaN	0.000000	0.001664	0.001774	28.0858	0.016748	0.001989	8.418757	33.0053	-167.146	-0.028432	1.081799	-0.048317	-0.049611	-1.355619E-5	8.418757	-0.048316	-0.081126	0.000167	NaN
163	1.000000	1.093048	7.36664e+06	-46789.1	955.819	-29768.5	0.000000	0.000000	7.093138	-0.046129	NaN	0.000000	0.001627	0.001836	28.0849	0.016598	0.001946	8.530805	-135.299	13.7316	-0.076264	1.091728	-0.038363	-0.039683	-0.046129	8.530805	-0.034307	-0.030559	1.509513	NaN
163	1.000000	1.103099	7.36664e+06	-46789.1	955.82	-29768.5	0.000000	0.000000	7.103188	-0.055831	NaN	0.000000	0.001657	0.001732	28.1206	0.039446	0.002022	19.5069	91.9943	-164.739	-0.029681	1.101841	-0.028312	-0.029569	-0.055831	19.5069	-0.026165	-0.018104	3.083950	NaN
163	1.000000	1.113091	7.36664e+06	-46789.1	955.819	-29768.5	0.000000	0.000000	7.113183	0.005980	NaN	0.000000	0.001681	0.001776	28.1222	0.052224	0.001914	27.2798	-168.879	14.2575	-0.028336	1.111772	-0.018320	-0.019639	0.005980	27.2798	-0.018484	-0.011489	-0.520529	NaN
163	1.000000	1.123123	7.36664e+06	-46789.1	955.819	-29768.5	0.000000	0.000000	7.123211	-0.083196	NaN	0.000000	0.001647	0.001759	28.0858	0.058759	0.002060	28.5293	-112.984	-165.608	0.022257	1.121833	-0.008288	-0.009578	-0.083196	28.5293	-0.006101	-0.004098	20.3026	NaN
163	1.000000	1.133100	7.36664e+06	-46789.1	955.819	-29768.5	0.000000	0.000000	7.133224	0.784558	NaN	0.000000	0.001613	0.001795	28.0858	1.419566	0.001821	779.436	1.765828	12.0997	0.161124	1.131749	0.001689	0.000338	0.784558	779.436	0.000935	0.000711	1103.09	26702.2
163	2.000000	1.140680	7.36664e+06	-46789.1	955.82	-29768.5	0.000000	0.000000	7.141186	10.0746	NaN	0.000000	0.001643	0.001771	28.122	8.579061	0.001551	5530.24	6.720315	-173.806	9.205359	1.140411	0.009270	0.009001	10.0746	5530.24	0.007903	0.006943	1451.01	60637.2
163	2.000000	1.143160	7.36664e+06	-46789.1	955.819	-29768.5	0.000000	0.000000	7.143795	13.2118	NaN	0.000000	0.001632	0.001769	28.1236	11.4228	0.001800	6347.64	4.437452	8.444623	12.0614	1.142782	0.011749	0.011371	13.2118	6347.64	0.010188	0.009391	1406.8	59844
163	2.000000	1.145660	7.36664e+06	-46789.1	955.818	-29768.5	0.000000	0.000000	7.146393	15.6102	NaN	0.000000	0.001640	0.001794	28.086	13.9318	0.001749	7965.01	5.436945	-175.772	15.1562	1.145397	0.014250	0.013986	15.6102	7965.01	0.012780	0.012437	1255.1	65252.1
163	2.000000	1.148139	7.36664e+06	-46789.1	955.819	-29768.5	0.000000	0.000000	7.149051	19.9412	NaN	0.000000	0.001646	0.001803	28.0836	15.5897	0.001737	8977.55	5.476060	5.906607	18.321	1.147768	0.016729	0.016357	19.9412	8977.55	0.015063	0.015369	1297.49	66161.8
163	2.000000	1.150651	7.36664e+06	-46789.1	955.817	-29768.5	0.000000	0.000000	7.151652	22.1317	NaN	0.000000	0.001607	0.001767	28.121	17.8799	0.001847	9678.75	0.002489	-169.523	22.8383	1.150352	0.019240	0.018942	22.1317	9678.75	0.017525	0.018802	1177.1	64489.7
163	2.000000	1.153122	7.36664e+06	-46789.1	955.819	-29768.5	0.000000	0.000000	7.154300	26.4452	NaN	0.000000	0.001668	0.001734	28.1217	20.8658	0.001797	11609.7	2.896295	4.976223	25.4907	1.152774	0.021711	0.021364	26.4452	11609.7	0.020003	0.022546	1172.92	70640.6
163	2.000000	1.155555	7.36664e+06	-46789.1	955.819	-29768.5	0.000000	0.000000	7.156944	31.5541	NaN	0.000000	0.001638	0.001750	28.0832	23.6086	0.001893	12473	6.237943	-178.043	30.0751	1.155318	0.024145	0.023908	31.5541	12473	0.022247	0.026197	1204.47	70406.9
163	2.000000	1.158137	7.36664e+06	-46789.1	955.819	-29768.5	0.000000	0.000000	7.159851	39.4459	NaN	0.000000	0.001615	0.001779	28.0837	24.9886	0.001804	13849.8	1.471564	5.766560	37.7559	1.157748	0.026727	0.026338	39.4459	13849.8	0.024591	0.030275	1302.92	72723.2
163	2.000000	1.160597	7.36664e+06	-46789.1	955.818	-29768.5	0.000000	0.000000	7.162445	42.7082	NaN	0.000000	0.001615	0.001785	28.1204	28.8443	0.001852	15571	8.811912	176.756	41.7386	1.160329	0.029187	0.028919	42.7082	15571	0.027130	0.035004	1220.08	76037.5
163	2.000000	1.163112	7.36664e+06	-46789.1	955.818	-29768.5	0.000000	0.000000	7.165339	51.9254	NaN	0.000000	0.001591	0.001769	28.1229	30.2616	0.001673	18085	4.613728	-1.365940	50.5495	1.162790	0.031702	0.031379	51.9254	18085	0.029548	0.039813	1304.23	82809.5
163	2.000000	1.165593	7.36664e+06	-46789.1	955.818	-29768.5	0.000000	0.000000	7.168139	59.7136	NaN	0.000000	0.001530	0.001789	28.084	34.031	0.001864	18252.5	6.989509	177.915	58.5675	1.165185	0.034182	0.033775	59.7136	18252.5	0.031728	0.044403	1344.82	79139
163	2.000000	1.168128	7.36664e+06	-46789.1	955.819	-29768.5	0.000000	0.000000	7.170881	64.7285	NaN	0.000000	0.001574	0.001789	28.0834	36.274	0.001883	19268.9	10.9805	-4.875429	66.3445	1.167687	0.036718	0.036277	64.7285	19268.9	0.034198	0.049896	1297.27	78813.1
163	2.000000	1.170576	7.36664e+06	-46789.1	955.819	-29768.5	0.000000	0.000000	7.173689	73.4853	NaN	0.000000	0.001600	0.001798	28.1188	37.3248	0.001626	22951.2	3.390779	178.235	71.7253	1.170215	0.039166	0.038805	73.4853	22951.2	0.036764	0.055933	1313.8	88663.2
163	2.000000	1.173026	7.36664e+06	-46789.1	955.818	-29768.5	0.000000	0.000000	7.176637	85.6057	NaN	0.000000	0.001557	0.001808	28.1214	40.3308	0.001735	23241.5	5.505054	-3.469593	81.9219	1.172637	0.041616	0.041227	85.6057	23241.5	0.038853	0.061098	1401.13	85906.2
163	2.000000	1.175595	7.36664e+06	-46789.1	955.818	-29768.5	0.000000	0.000000	7.179411	90.5886	NaN	0.000000	0.001581	0.001795	28.0834	44.0744	0.001911	23066.6	7.369561	175.047	91.0485	1.175286	0.044184	0.043875	90.5886	23066.6	0.041239	0.067269	1346.66	81254.9
163	2.000000	1.178050	7.36664e+06	-46789.1	955.818	-29768.5	0.000000	0.000000	7.182436	104.453	NaN	0.000000	0.001560	0.001782	28.0865	44.2568	0.001740	25431.8	2.942030	-1.347455	100.889	1.177713	0.046639	0.046303	104.453	25431.8	0.043559	0.073549	1420.19	85676.6
163	2.000000	1.180619	7.36664e+06	-46789.1	955.818	-29768.5	0.000000	0.000000	7.185172	108.52	NaN	0.000000	0.001543	0.001761	28.12	47.9836	0.001878	25553.9	6.867670	175.03	109.693	1.180272	0.049209	0.048862	108.52	25553.9	0.046024	0.080520	1347.73	82276.8
163	2.000000	1.182994	7.36664e+06	-46789.1	955.818	-29768.5	0.000000	0.000000	7.187996	119.443	NaN	0.000000	0.001572	0.001747	28.1232	49.8317	0.001627	30625.4	3.725022	-3.663927	115.461	1.182749	0.051583	0.051338	119.443	30625.4	0.048658	0.088311	1352.52	94155.6
163	2.000000	1.185539	7.36664e+06	-46789.1	955.818	-29768.5	0.000000	0.000000	7.191113	133.363	NaN	0.000000	0.001575	0.001752	28.0848	54.2096	0.001822	29745	4.614621	175.132	131.241	1.185151	0.054128	0.053740	133.363	29745	0.050766	0.094794	1406.87	88266.7
163	2.000000	1.188131	7.36664e+06	-46789.1	955.818	-29768.5	0.000000	0.000000	7.194134	143.796	NaN	0.000000	0.001553	0.001759	28.084	56.3821	0.001833	30762	6.804940	-6.438658	146.76	1.187679	0.056720	0.056269	143.796	30762	0.053214	0.102606	1401.44	87740.7
163	2.000000	1.190584	7.36664e+06	-46789.1	955.819	-29768.5	0.000000	0.000000	7.196957	152.783	NaN	0.000000	0.001565	0.001786	28.1196	58.7134	0.001806	32502.8	5.762045	173.472	154.269	1.190331	0.059173	0.058920	152.783	32502.8	0.055648	0.110667	1380.57	89265.9
163	2.000000	1.193037	7.36664e+06	-46789.1	955.82	-29768.5	0.000000	0.000000	7.199994	166.988	NaN	0.000000	0.001622	0.001707	28.1234	59.88	0.001716	34888	1.670974	-2.551426	164.387	1.192712	0.061626	0.061302	166.988	34888	0.058037	0.118862	1404.89	92454.5
163	2.000000	1.195589	7.36664e+06	-46789.1	955.819	-29768.5	0.000000	0.000000	7.203119	180.953	NaN	0.000000	0.001575	0.001763	28.0843	64.7115	0.001905	33963.8	9.169974	171.269	181.667	1.195125	0.064178	0.063714	180.953	33963.8	0.060182	0.126462	1430.88	87258.8
163	2.000000	1.198076	7.36664e+06	-46789.1	955.819	-29768.5	0.000000	0.000000	7.206277	197.25	NaN	0.000000	0.001572	0.001728	28.0851	65.7967	0.001846	35644.9	5.826787	-6.676939	195.08	1.197729	0.066665	0.066318	197.25	35644.9	0.062515	0.134981	1461.32	88640.8
163	2.000000	1.200497	7.36664e+06	-46789.1	955.818	-29768.5	0.000000	0.000000	7.209279	211.388	NaN	0.000000	0.001575	0.001740	28.1208	68.4622	0.001719	39816.7	8.734228	169.294	209.308	1.200206	0.069087	0.068795	211.388	39816.7	0.065105	0.144748	1460.39	95616.4
163	2.000000	1.202969	7.36664e+06	-46789.1	955.819	-29768.5	0.000000	0.000000	7.212491	229.384	NaN	0.000000	0.001551	0.001725	28.1245	70.9958	0.001724	41188.3	6.141815	-9.140076	223.347	1.202628	0.071559	0.071218	229.384	41188.3	0.067382	0.153600	1493.38	96017.6
163	2.000000	1.205458	7.36664e+06	-46789.1	955.818	-29768.5	0.000000	0.000000	7.215028	230.54	NaN	0.000000	0.001582	0.001749	28.0855	73.4079	0.001865	39353.3	2.919348	174.354	225.77	1.205435	0.074048	0.074024	230.54	39353.3	0.069654	0.162684	1417.1	89141.9
163	2.000000	1.207997	7.36664e+06	-46789.1	955.819	-29768.5	0.000000	0.000000	7.218826	261.179	NaN	0.000000	0.001602	0.001751	28.0837	75.0516	0.001752	42838.3	8.115309	-10.1487	255.133	1.207623	0.076586	0.076213	261.179	42838.3	0.072014	0.172376	1515.18	94268.7
163	2.000000	1.210565	7.36664e+06	-46789.1	955.819	-29768.5	0.000000	0.000000	7.221700	268.608	NaN	0.000000	0.001560	0.001720	28.1191	77.3766	0.001763	43887.4	6.756950	170.623	270.837	1.210142	0.079155	0.078732	268.608	43887.4	0.074565	0.183150	1466.6	93693.5
163	2.000000	1.213062	7.36664e+06	-46789.1	955.818	-29768.5	0.000000	0.000000	7.225123	291.155	NaN	0.000000	0.001599	0.001785	28.1236	81.0177	0.001856	43660.4	5.220571	-7.842943	290.276	1.212645	0.081651	0.081235	291.155	43660.4	0.076650	0.192184	1514.98	90991.7
163	2.000000	1.215515	7.36664e+06	-46789.1	955.819	-29768.5	0.000000	0.000000	7.228193	306.169	NaN	0.000000	0.001598	0.001768	28.0855	83.0048	0.001664	49894.4	3.812008	172.423	304.264	1.215245	0.084104	0.083835	306.169	49894.4	0.079502	0.204875	1494.42	100712
163	2.000000	1.217990	7.36664e+06	-46789.1	955.819	-29768.5	0.000000	0.000000	7.231532	327.182	NaN	0.000000	0.001603	0.001755	28.085	85.7883	0.001831	46850.9	6.675664	-8.995597	323.371	1.217622	0.086579	0.086211	327.182	46850.9	0.081342	0.213260	1534.19	92690.8
163	2.000000	1.220450	7.36664e+06	-46789.1	955.819	-29768.5	0.000000	0.000000	7.234808	347.006	NaN	0.000000	0.001623	0.001730	28.1193	86.7168	0.001753	49470.3	2.706199	173.896	343.355	1.220140	0.089040	0.088729	347.006	49470.3	0.083779	0.224612	1544.92	95367.8
163	2.000000	1.222969	7.36664e+06	-46789.1	955.818	-29768.5	0.000000	0.000000	7.238115	366.195	NaN	0.000000	0.001616	0.001760	28.1234	90.7637	0.001914	47430.6	5.376526	-7.716647	362.2	1.222589	0.091558	0.091179	366.195	47430.6	0.085768	0.234077	1564.42	89568
163	2.000000	1.225505	7.36664e+06	-46789.1	955.818	-29768.5	0.000000	0.000000	7.241053	375.97	NaN	0.000000	0.001580	0.001749	28.0865	92.6126	0.001647	56236.6	5.847540	169.404	372.974	1.225350	0.094095	0.093939	375.97	56236.6	0.089081	0.250252	1502.37	102708
163	2.000000	1.227930	7.36664e+06	-46789.1	955.819	-29768.5	0.000000	0.000000	7.244642	404.286	NaN	0.000000	0.001570	0.001749	28.0824	93.9097	0.001615	58165.3	1.868635	-6.247333	395.451	1.227618	0.096520	0.096207	404.286	58165.3	0.091307	0.261403	1546.6	103940
163	2.000000	1.230534	7.36664e+06	-46789.1	955.818	-29768.5	0.000000	0.000000	7.248059	424.044	NaN	0.000000	0.001582	0.001771	28.1176	97.6578	0.001801	54227.9	4.205440	172.265	423.72	1.230051	0.099124	0.098640	424.044	54227.9	0.093259	0.271370	1562.61	95107.7
163	2.000000	1.233000	7.36664e+06	-46789.1	955.818	-29768.5	0.000000	0.000000	7.251239	441.434	NaN	0.000000	0.001574	0.001736	28.1225	100.878	0.001697	59458.1	7.782487	-12.4025	436.387	1.232589	0.101589	0.101179	441.434	59458.1	0.096021	0.285766	1544.74	101620
163	2.000000	1.235571	7.36664e+06	-46789.1	955.818	-29768.5	0.000000	0.000000	7.254391	455.567	NaN	0.000000	0.001611	0.001746	28.0842	103.948	0.001667	62340	3.478650	171.23	456.006	1.235334	0.104160	0.103923	455.567	62340	0.098680	0.299953	1518.79	103995
163	2.000000	1.238128	7.36664e+06	-46789.1	955.818	-29768.5	0.000000	0.000000	7.258023	481.705	NaN	0.000000	0.001603	0.001802	28.0839	106.237	0.001797	59129.4	8.219825	-12.6003	485.958	1.237779	0.106717	0.106369	481.705	59129.4	0.100607	0.310442	1551.68	96958.6
163	2.000000	1.238456	7.36664e+06	-46789.1	955.818	-29768.5	0.000000	0.000000	7.258556	486.697	NaN	0.000000	0.001563	0.001775	28.1188	107.42	0.001797	59771.4	4.077209	170.833	481.256	1.238246	0.107046	0.106835	486.697	59771.4	0.100939	0.312261	1558.62	97725.4