File: remote_trans/data/nanoindenter/0828-1/data/Data_2025-08-06,11h17m57s/2025-07-22_16-23-58_1_776.txt
2025-07-22, 16:23:58, 1
Index	Phase	Displacement	Time	Pos X	Pos Y	Pos Z	Rot A	Rot B	Piezo Z	Force A	Force B	Gripper	Voltage A	Voltage B	Temperature	Amplitude force	Amplitude pos	Stiffness	Phase shift	Phase excitation	Force A raw	Displacement raw	HMax	HMax raw	Real Force	Real Stiffness	Contact Depth	Area	Hardness	Reduced Mod.
[#]	[#]	[um]	[s]	[um]	[um]	[um]	[m°]	[m°]	[um]	[uN]	[uN]	[V]	[V]	[V]	[°C]	[uN]	[um]	[N/m]	[°]	[°]	[uN]	[um]	[um]	[um]	[uN]	[N/m]	[um]	[um^2]	[MPa]	[MPa]
776	1.000000	0.002648	7.37264e+06	-38939.1	1055.82	-29795.6	0.000000	0.000000	6.002805	-0.036847	NaN	0.000000	0.001589	0.001715	28.0821	0.081357	0.000848	95.9028	53.9199	-162.421	-0.057608	0.001324	-1.174530	-1.175853	-0.036847	95.9028	-1.174242	-4.962738E+15	7.424734E-18	NaN
776	1.000000	0.012725	7.37264e+06	-38939.1	1055.82	-29795.6	0.000000	0.000000	6.012883	-0.015623	NaN	0.000000	0.001567	0.001736	28.082	0.025770	0.001191	21.6464	-109.17	19.5346	-0.001718	0.011289	-1.164453	-1.165889	-0.015623	21.6464	-1.163911	-3.608207E+15	4.329722E-18	NaN
776	1.000000	0.022603	7.37264e+06	-38939.1	1055.82	-29795.6	0.000000	0.000000	6.022759	-0.049742	NaN	0.000000	0.001603	0.001722	28.0821	0.063942	0.001780	35.913	-12.6762	-167.551	-0.062420	0.021248	-1.154575	-1.155929	-0.049742	35.913	-1.153536	-2.619532E+15	1.898897E-17	NaN
776	1.000000	0.032590	7.37264e+06	-38939.1	1055.82	-29795.6	0.000000	0.000000	6.032748	0.006233	NaN	0.000000	0.001591	0.001687	28.0823	0.097903	0.001855	52.7815	66.5586	19.4868	-0.027134	0.031231	-1.144588	-1.145947	0.006233	52.7815	-1.144677	-1.992726E+15	-3.127632E-18	NaN
776	1.000000	0.042604	7.37264e+06	-38939.1	1055.82	-29795.6	0.000000	0.000000	6.042759	-0.109222	NaN	0.000000	0.001576	0.001718	28.0822	0.078890	0.001939	40.687	-92.6791	-166.625	0.001057	0.041279	-1.134573	-1.135899	-0.109222	40.687	-1.132560	-1.370747E+15	7.968089E-17	NaN
776	1.000000	0.052596	7.37264e+06	-38939.1	1055.82	-29795.6	0.000000	0.000000	6.052753	-0.021833	NaN	0.000000	0.001579	0.001721	28.0823	0.123537	0.001956	63.1611	164.231	13.0168	-0.049256	0.051237	-1.124582	-1.125941	-0.021833	63.1611	-1.124323	-1.062838E+15	2.054187E-17	NaN
776	1.000000	0.062591	7.37264e+06	-38939.1	1055.82	-29795.6	0.000000	0.000000	6.062748	-0.028126	NaN	0.000000	0.001618	0.001684	28.0822	0.164263	0.001999	82.1903	-102.461	-163.778	-0.021849	0.061262	-1.114587	-1.115916	-0.028126	82.1903	-1.114330	-7.805422E+14	3.603351E-17	NaN
776	1.000000	0.072603	7.37264e+06	-38939.1	1055.82	-29795.6	0.000000	0.000000	6.072761	-0.013174	NaN	0.000000	0.001576	0.001680	28.0825	0.036040	0.002015	17.8818	59.3761	13.5484	-0.005076	0.071188	-1.104575	-1.105990	-0.013174	17.8818	-1.104022	-5.676216E+14	2.320971E-17	NaN
776	1.000000	0.082618	7.37265e+06	-38939.1	1055.82	-29795.6	0.000000	0.000000	6.082775	-0.036744	NaN	0.000000	0.001605	0.001673	28.0824	0.036820	0.001884	19.5385	88.1349	-164.394	-0.021242	0.081258	-1.094560	-1.095920	-0.036744	19.5385	-1.093149	-4.055990E+14	9.059245E-17	NaN
776	1.000000	0.092601	7.37265e+06	-38939.1	1055.82	-29795.6	0.000000	0.000000	6.092757	-0.049896	NaN	0.000000	0.001618	0.001690	28.0833	0.062805	0.002080	30.1928	-140.055	15.139	-0.106794	0.091250	-1.084577	-1.085928	-0.049896	30.1928	-1.083338	-2.994651E+14	1.666184E-16	NaN
776	1.000000	0.102639	7.37265e+06	-38939.1	1055.82	-29795.6	0.000000	0.000000	6.102796	-0.030589	NaN	0.000000	0.001594	0.001705	28.0837	0.090788	0.002074	43.7779	-70.1976	-165.07	0.023751	0.101277	-1.074539	-1.075901	-0.030589	43.7779	-1.074015	-2.244540E+14	1.362814E-16	NaN
776	1.000000	0.112585	7.37265e+06	-38939.1	1055.82	-29795.6	0.000000	0.000000	6.112743	-0.032146	NaN	0.000000	0.001610	0.001674	28.0834	0.104598	0.002052	50.9759	-47.515	16.0587	-0.083836	0.111215	-1.064592	-1.065963	-0.032146	50.9759	-1.064119	-1.652635E+14	1.945138E-16	NaN
776	1.000000	0.122621	7.37265e+06	-38939.1	1055.82	-29795.6	0.000000	0.000000	6.122775	-0.103052	NaN	0.000000	0.001626	0.001676	28.0833	0.030734	0.002003	15.342	93.8949	-163.712	-0.024004	0.121317	-1.054557	-1.055860	-0.103052	15.342	-1.049519	-1.051833E+14	9.797419E-16	NaN
776	1.000000	0.132612	7.37265e+06	-38939.1	1055.82	-29795.6	0.000000	0.000000	6.132768	-0.073018	NaN	0.000000	0.001605	0.001712	28.0834	0.070879	0.001875	37.7978	28.1589	14.8754	-0.037200	0.131224	-1.044566	-1.045954	-0.073018	37.7978	-1.043117	-8.627291E+13	8.463627E-16	NaN
776	1.000000	0.142633	7.37265e+06	-38939.1	1055.82	-29795.6	0.000000	0.000000	6.142790	-0.039589	NaN	0.000000	0.001607	0.001711	28.0838	0.043996	0.002094	21.0144	26.5127	-166.004	-0.056537	0.141234	-1.034545	-1.035944	-0.039589	21.0144	-1.033132	-6.332947E+13	6.251324E-16	NaN
776	1.000000	0.152623	7.37265e+06	-38939.1	1055.82	-29795.6	0.000000	0.000000	6.152780	-0.050175	NaN	0.000000	0.001639	0.001720	28.0834	0.019341	0.001967	9.832723	-8.902673	15.637	-0.034959	0.151265	-1.024554	-1.025913	-0.050175	9.832723	-1.020727	-4.312588E+13	1.163456E-15	NaN
776	1.000000	0.162621	7.37265e+06	-38939.1	1055.82	-29795.6	0.000000	0.000000	6.162777	-0.060673	NaN	0.000000	0.001606	0.001693	28.0835	0.049581	0.001946	25.4812	-135.956	-161.29	-0.076479	0.161324	-1.014556	-1.015854	-0.060673	25.4812	-1.012771	-3.370311E+13	1.800211E-15	NaN
776	1.000000	0.172626	7.37265e+06	-38939.1	1055.82	-29795.6	0.000000	0.000000	6.172782	-0.042972	NaN	0.000000	0.001611	0.001712	28.0833	0.118643	0.002072	57.2547	128.94	16.1325	-0.046725	0.171251	-1.004552	-1.005926	-0.042972	57.2547	-1.003989	-2.567281E+13	1.673814E-15	NaN
776	1.000000	0.182639	7.37265e+06	-38939.1	1055.82	-29795.6	0.000000	0.000000	6.182793	-0.091600	NaN	0.000000	0.001612	0.001713	28.0836	0.050342	0.002045	24.6117	-59.078	-164.231	-0.044702	0.181267	-0.994539	-0.995911	-0.091600	24.6117	-0.991748	-1.756508E+13	5.214884E-15	NaN
776	1.000000	0.192662	7.37265e+06	-38939.1	1055.82	-29795.6	0.000000	0.000000	6.192820	-0.030967	NaN	0.000000	0.001576	0.001682	28.0832	0.120359	0.002070	58.1563	15.6432	13.5616	-0.138604	0.191286	-0.984515	-0.985892	-0.030967	58.1563	-0.984116	-1.386307E+13	2.233750E-15	NaN
776	1.000000	0.202650	7.37265e+06	-38939.1	1055.82	-29795.6	0.000000	0.000000	6.202808	-0.023360	NaN	0.000000	0.001615	0.001700	28.0832	0.063849	0.001998	31.9502	-7.915962	-164.159	0.018791	0.201372	-0.974528	-0.975806	-0.023360	31.9502	-0.973979	-1.012252E+13	2.307678E-15	NaN
776	1.000000	0.212657	7.37265e+06	-38939.1	1055.82	-29795.6	0.000000	0.000000	6.212813	-0.058788	NaN	0.000000	0.001619	0.001699	28.0834	0.068824	0.002093	32.8821	-136.212	15.4758	-0.120801	0.211273	-0.964521	-0.965905	-0.058788	32.8821	-0.963180	-7.239952E+12	8.119888E-15	NaN
776	1.000000	0.222652	7.37265e+06	-38939.1	1055.82	-29795.6	0.000000	0.000000	6.222811	0.005428	NaN	0.000000	0.001627	0.001706	28.0826	0.096835	0.002170	44.6267	-82.9737	-162.343	-0.026159	0.221340	-0.954526	-0.955838	0.005428	44.6267	-0.954617	-5.549982E+12	-9.780894E-16	NaN
776	1.000000	0.232695	7.37265e+06	-38939.1	1055.82	-29795.6	0.000000	0.000000	6.232852	-0.037163	NaN	0.000000	0.001645	0.001662	28.0819	0.046832	0.001983	23.6189	172.722	16.6735	-0.070227	0.231260	-0.944483	-0.945918	-0.037163	23.6189	-0.943303	-3.905675E+12	9.515169E-15	NaN
776	1.000000	0.242670	7.37265e+06	-38939.1	1055.82	-29795.6	0.000000	0.000000	6.242824	-0.104391	NaN	0.000000	0.001627	0.001714	28.0818	0.101332	0.002039	49.6966	126.104	-163.023	-0.123053	0.241380	-0.934508	-0.935798	-0.104391	49.6966	-0.932932	-2.829906E+12	3.688862E-14	NaN
776	1.000000	0.252656	7.37265e+06	-38939.1	1055.82	-29795.6	0.000000	0.000000	6.252814	-0.029258	NaN	0.000000	0.001625	0.001726	28.082	0.030083	0.002043	14.7218	58.8264	16.503	-0.041790	0.251310	-0.924521	-0.925868	-0.029258	14.7218	-0.923031	-2.080303E+12	1.406409E-14	NaN
776	1.000000	0.262684	7.37265e+06	-38939.1	1055.82	-29795.6	0.000000	0.000000	6.262840	-0.039614	NaN	0.000000	0.001603	0.001700	28.082	0.103286	0.002028	50.9321	93.785	-163.038	4.210975E-5	0.261371	-0.914494	-0.915807	-0.039614	50.9321	-0.913911	-1.566688E+12	2.528497E-14	NaN
776	1.000000	0.272665	7.37265e+06	-38939.1	1055.82	-29795.6	0.000000	0.000000	6.272821	-0.056148	NaN	0.000000	0.001617	0.001686	28.0819	0.134386	0.001925	69.8249	161.597	14.538	-0.091554	0.271329	-0.904513	-0.905848	-0.056148	69.8249	-0.903910	-1.147864E+12	4.891523E-14	NaN
776	1.000000	0.282655	7.37265e+06	-38939.1	1055.82	-29795.6	0.000000	0.000000	6.282809	-0.105864	NaN	0.000000	0.001593	0.001705	28.0821	0.034360	0.002110	16.2877	121.752	-164.183	-0.030076	0.281427	-0.894523	-0.895751	-0.105864	16.2877	-0.889648	-7.364796E+11	1.437437E-13	NaN
776	1.000000	0.292673	7.37265e+06	-38939.1	1055.82	-29795.6	0.000000	0.000000	6.292830	-0.049886	NaN	0.000000	0.001608	0.001708	28.0816	0.100340	0.002020	49.671	153.377	12.1991	-0.007018	0.291296	-0.884505	-0.885882	-0.049886	49.671	-0.883751	-6.129674E+11	8.138465E-14	NaN
776	1.000000	0.302688	7.37265e+06	-38939.1	1055.82	-29795.6	0.000000	0.000000	6.302845	-0.056711	NaN	0.000000	0.001610	0.001731	28.082	0.038780	0.002208	17.5665	64.9857	-165.732	-0.049111	0.301382	-0.874489	-0.875796	-0.056711	17.5665	-0.872068	-4.260137E+11	1.331199E-13	NaN
776	1.000000	0.312723	7.37265e+06	-38939.1	1055.82	-29795.6	0.000000	0.000000	6.312878	-0.080651	NaN	0.000000	0.001599	0.001690	28.082	0.059479	0.001867	31.8618	-109.292	13.9551	-0.094072	0.311317	-0.864455	-0.865860	-0.080651	31.8618	-0.862556	-3.167503E+11	2.546209E-13	NaN
776	1.000000	0.322715	7.37265e+06	-38939.1	1055.82	-29795.6	0.000000	0.000000	6.322869	-0.117885	NaN	0.000000	0.001600	0.001697	28.0822	0.178822	0.002013	88.8429	136.565	-165.228	-0.033999	0.321413	-0.854463	-0.855765	-0.117885	88.8429	-0.853467	-2.386097E+11	4.940485E-13	NaN
776	1.000000	0.332706	7.37265e+06	-38939.1	1055.82	-29795.6	0.000000	0.000000	6.332864	-0.007116	NaN	0.000000	0.001610	0.001695	28.0819	0.127978	0.002032	62.9938	122.924	14.3631	-0.056392	0.331337	-0.844472	-0.845840	-0.007116	62.9938	-0.844387	-1.797735E+11	3.958317E-14	NaN
776	1.000000	0.342716	7.37265e+06	-38939.1	1055.82	-29795.6	0.000000	0.000000	6.342873	-0.047080	NaN	0.000000	0.001598	0.001704	28.082	0.080915	0.001893	42.7386	135.455	-161.55	-0.090481	0.341400	-0.834462	-0.835778	-0.047080	42.7386	-0.833636	-1.285458E+11	3.662510E-13	NaN
776	1.000000	0.352718	7.37265e+06	-38939.1	1055.82	-29795.6	0.000000	0.000000	6.352875	-0.044409	NaN	0.000000	0.001596	0.001702	28.082	0.075016	0.002064	36.3433	-15.2836	15.767	-0.015501	0.351359	-0.824460	-0.825819	-0.044409	36.3433	-0.823543	-9.381155E+10	4.733805E-13	NaN
776	1.000000	0.362719	7.37265e+06	-38939.1	1055.82	-29795.6	0.000000	0.000000	6.362877	-0.031375	NaN	0.000000	0.001593	0.001700	28.0834	0.107754	0.001888	57.0675	-49.2441	-166.4	-0.002854	0.361478	-0.814458	-0.815699	-0.031375	57.0675	-0.814046	-6.973648E+10	4.499037E-13	NaN
776	1.000000	0.372729	7.37265e+06	-38939.1	1055.82	-29795.6	0.000000	0.000000	6.372886	-0.039768	NaN	0.000000	0.001678	0.001698	28.0833	0.085290	0.002027	42.0848	-148.843	19.7182	-0.085522	0.371383	-0.804449	-0.805794	-0.039768	42.0848	-0.803740	-5.053953E+10	7.868737E-13	NaN
776	1.000000	0.382724	7.37265e+06	-38939.1	1055.82	-29795.6	0.000000	0.000000	6.382883	0.017078	NaN	0.000000	0.001692	0.001725	28.0832	0.067631	0.002047	33.0419	152.192	-163.282	-0.033852	0.381372	-0.794454	-0.795806	0.017078	33.0419	-0.794842	-3.826751E+10	-4.462761E-13	NaN
776	1.000000	0.392738	7.37265e+06	-38939.1	1055.82	-29795.6	0.000000	0.000000	6.392897	0.006924	NaN	0.000000	0.001659	0.001710	28.0833	0.112779	0.002071	54.4629	-76.6949	15.3524	-0.032229	0.391383	-0.784439	-0.785795	0.006924	54.4629	-0.784535	-2.772333E+10	-2.497615E-13	NaN
776	1.000000	0.402715	7.37265e+06	-38939.1	1055.82	-29795.6	0.000000	0.000000	6.402874	0.010209	NaN	0.000000	0.001658	0.001730	28.0831	0.072457	0.002124	34.121	-130.016	-165.739	-0.003969	0.401465	-0.774463	-0.775713	0.010209	34.121	-0.774687	-2.037184E+10	-5.011548E-13	NaN
776	1.000000	0.412755	7.37265e+06	-38939.1	1055.82	-29795.6	0.000000	0.000000	6.412912	-0.026102	NaN	0.000000	0.001647	0.001710	28.0832	0.051869	0.001935	26.8095	-22.2004	18.2586	-0.060927	0.411360	-0.764423	-0.765818	-0.026102	26.8095	-0.763693	-1.443885E+10	1.807761E-12	NaN
776	1.000000	0.422755	7.37265e+06	-38939.1	1055.82	-29795.6	0.000000	0.000000	6.422914	0.016137	NaN	0.000000	0.001601	0.001741	28.083	0.106677	0.001945	54.8358	68.3534	-166.682	-0.051954	0.421491	-0.754422	-0.755687	0.016137	54.8358	-0.754643	-1.087466E+10	-1.483900E-12	NaN
776	1.000000	0.432755	7.37265e+06	-38939.1	1055.82	-29795.6	0.000000	0.000000	6.432911	-0.055493	NaN	0.000000	0.001597	0.001694	28.0835	0.043228	0.001895	22.8093	-150.206	17.3492	-0.109848	0.431416	-0.744423	-0.745762	-0.055493	22.8093	-0.742598	-7.454880E+9	7.443848E-12	NaN
776	1.000000	0.442765	7.37265e+06	-38939.1	1055.82	-29795.6	0.000000	0.000000	6.442922	-0.047515	NaN	0.000000	0.001580	0.001732	28.0832	0.076087	0.001965	38.7144	-32.1141	-160.281	-0.026398	0.441483	-0.734412	-0.735695	-0.047515	38.7144	-0.733492	-5.602660E+9	8.480870E-12	NaN
776	1.000000	0.452757	7.37265e+06	-38939.1	1055.82	-29795.6	0.000000	0.000000	6.452912	-0.098995	NaN	0.000000	0.001593	0.001720	28.0832	0.002043	0.001860	1.098637	82.3884	14.6353	-0.142222	0.451422	-0.724420	-0.725756	-0.098995	1.098637	-0.656840	-5.025538E+8	1.969831E-10	NaN
776	1.000000	0.462783	7.37265e+06	-38939.1	1055.82	-29795.6	0.000000	0.000000	6.462940	-0.052173	NaN	0.000000	0.001633	0.001721	28.0833	0.043108	0.001962	21.967	-5.495715	-167.167	-0.083759	0.461446	-0.714395	-0.715732	-0.052173	21.967	-0.712613	-2.908763E+9	1.793650E-11	NaN
776	1.000000	0.472770	7.37265e+06	-38939.1	1055.82	-29795.6	0.000000	0.000000	6.472928	-0.008625	NaN	0.000000	0.001622	0.001716	28.0834	0.096026	0.001998	48.0652	140.881	15.9973	-0.075847	0.471420	-0.704408	-0.705758	-0.008625	48.0652	-0.704273	-2.238091E+9	3.853642E-12	NaN
776	1.000000	0.482774	7.37265e+06	-38939.1	1055.82	-29795.6	0.000000	0.000000	6.482929	-0.074292	NaN	0.000000	0.001588	0.001687	28.0834	0.131071	0.001969	66.568	169.484	-165.956	-0.094350	0.481485	-0.694404	-0.695693	-0.074292	66.568	-0.693567	-1.598292E+9	4.648233E-11	NaN
776	1.000000	0.492767	7.37265e+06	-38939.1	1055.82	-29795.6	0.000000	0.000000	6.492924	-0.029929	NaN	0.000000	0.001571	0.001707	28.0833	0.097989	0.002096	46.7529	-58.8033	15.3294	0.059721	0.491391	-0.684411	-0.685787	-0.029929	46.7529	-0.683931	-1.180209E+9	2.535939E-11	NaN
776	1.000000	0.502779	7.37265e+06	-38939.1	1055.82	-29795.6	0.000000	0.000000	6.502935	-0.069495	NaN	0.000000	0.001579	0.001744	28.0822	0.065660	0.001943	33.7923	82.4288	-163.463	-0.050435	0.501464	-0.674399	-0.675714	-0.069495	33.7923	-0.672856	-8.326804E+8	8.345948E-11	NaN
776	1.000000	0.512762	7.37265e+06	-38939.1	1055.82	-29795.6	0.000000	0.000000	6.512919	-0.027269	NaN	0.000000	0.001586	0.001713	28.0821	0.084176	0.002099	40.0942	142.149	15.9041	-0.065595	0.511428	-0.664416	-0.665749	-0.027269	40.0942	-0.663906	-6.280062E+8	4.342172E-11	NaN
776	1.000000	0.522813	7.37265e+06	-38939.1	1055.82	-29795.6	0.000000	0.000000	6.522970	-0.039043	NaN	0.000000	0.001591	0.001753	28.0818	0.044071	0.001991	22.1301	62.6441	-165.022	-0.015300	0.521517	-0.654365	-0.655661	-0.039043	22.1301	-0.653041	-4.457857E+8	8.758211E-11	NaN
776	1.000000	0.532808	7.37265e+06	-38939.1	1055.82	-29795.6	0.000000	0.000000	6.532967	0.021376	NaN	0.000000	0.001583	0.001725	28.0818	0.075237	0.001970	38.1832	-37.6947	13.6359	-0.039922	0.531464	-0.644370	-0.645714	0.021376	38.1832	-0.644790	-3.435553E+8	-6.222018E-11	NaN
776	1.000000	0.542795	7.37265e+06	-38939.1	1055.82	-29795.6	0.000000	0.000000	6.542952	-0.045081	NaN	0.000000	0.001605	0.001718	28.082	0.008639	0.001843	4.687533	175.979	-165.031	-0.034163	0.541473	-0.634383	-0.635705	-0.045081	4.687533	-0.627170	-1.968579E+8	2.290004E-10	NaN
776	1.000000	0.552788	7.37265e+06	-38939.1	1055.82	-29795.6	0.000000	0.000000	6.552945	-0.044682	NaN	0.000000	0.001614	0.001693	28.0818	0.151719	0.001908	79.5234	114.544	17.3774	0.038995	0.551433	-0.624389	-0.625745	-0.044682	79.5234	-0.623968	-1.778946E+8	2.511728E-10	NaN
776	1.000000	0.562809	7.37265e+06	-38939.1	1055.82	-29795.6	0.000000	0.000000	6.562965	-0.063581	NaN	0.000000	0.001549	0.001697	28.0816	0.094022	0.002027	46.3825	85.7747	-165.619	-0.091686	0.561530	-0.614369	-0.615648	-0.063581	46.3825	-0.613341	-1.270787E+8	5.003248E-10	NaN
776	1.000000	0.572813	7.37265e+06	-38939.1	1055.82	-29795.6	0.000000	0.000000	6.572971	-0.004889	NaN	0.000000	0.001593	0.001720	28.0819	0.021369	0.001989	10.7412	-127.008	13.8687	0.046955	0.571400	-0.604365	-0.605778	-0.004889	10.7412	-0.604023	-9.459328E+7	5.168097E-11	NaN
776	1.000000	0.582818	7.37265e+06	-38939.1	1055.82	-29795.6	0.000000	0.000000	6.582978	0.032984	NaN	0.000000	0.001577	0.001717	28.082	0.015426	0.002136	7.221001	-3.852239	-164.05	-0.051880	0.581500	-0.594360	-0.595678	0.032984	7.221001	-0.597786	-7.761802E+7	-4.249555E-10	NaN
776	1.000000	0.592775	7.37265e+06	-38939.1	1055.82	-29795.6	0.000000	0.000000	6.592934	-0.001126	NaN	0.000000	0.001579	0.001748	28.082	0.068163	0.002125	32.0753	-144.186	15.5261	-0.020310	0.591478	-0.584403	-0.585700	-0.001126	32.0753	-0.584376	-5.071213E+7	2.220614E-11	NaN
776	1.000000	0.602836	7.37265e+06	-38939.1	1055.82	-29795.6	0.000000	0.000000	6.602991	-0.091138	NaN	0.000000	0.001593	0.001707	28.0818	0.026327	0.002015	13.0646	63.0949	-163.232	-0.073541	0.601544	-0.574342	-0.575634	-0.091138	13.0646	-0.569110	-3.121256E+7	2.919916E-9	NaN
776	1.000000	0.612835	7.37265e+06	-38939.1	1055.82	-29795.6	0.000000	0.000000	6.612996	0.062062	NaN	0.000000	0.001556	0.001746	28.082	0.018347	0.002025	9.060116	16.0096	14.6539	0.024884	0.611421	-0.564342	-0.565757	0.062062	9.060116	-0.569480	-3.158251E+7	-1.965086E-9	NaN
776	1.000000	0.622809	7.37265e+06	-38939.1	1055.82	-29795.6	0.000000	0.000000	6.622962	-0.120833	NaN	0.000000	0.001583	0.001709	28.0819	0.011379	0.002014	5.650685	-98.1329	-165.051	-0.109226	0.621518	-0.554369	-0.555660	-0.120833	5.650685	-0.538331	-1.170073E+7	1.032697E-8	NaN
776	1.000000	0.632875	7.37265e+06	-38939.1	1055.82	-29795.6	0.000000	0.000000	6.633034	-0.000695	NaN	0.000000	0.001615	0.001756	28.0828	0.099179	0.001888	52.5406	-176.725	17.1771	-0.019134	0.631520	-0.544302	-0.545658	-0.000695	52.5406	-0.544292	-1.415374E+7	4.910049E-11	NaN
776	1.000000	0.642823	7.37265e+06	-38939.1	1055.82	-29795.6	0.000000	0.000000	6.642981	-0.023986	NaN	0.000000	0.001596	0.001709	28.0835	0.070128	0.002006	34.9628	29.4576	-162.739	-0.045381	0.641536	-0.534354	-0.535641	-0.023986	34.9628	-0.533840	-1.013646E+7	2.366287E-9	NaN
776	1.000000	0.652850	7.37265e+06	-38939.1	1055.82	-29795.6	0.000000	0.000000	6.653006	-0.059221	NaN	0.000000	0.001597	0.001746	28.0842	0.049232	0.002142	22.986	-155.407	15.5195	-0.042471	0.651490	-0.524328	-0.525688	-0.059221	22.986	-0.522396	-7.02926e+06	8.424984E-9	NaN
776	1.000000	0.662849	7.37265e+06	-38939.1	1055.82	-29795.6	0.000000	0.000000	6.663003	-0.102443	NaN	0.000000	0.001570	0.001738	28.0835	0.015271	0.002013	7.586184	-50.4589	-169.111	-0.071667	0.661512	-0.514329	-0.515666	-0.102443	7.586184	-0.504201	-3.92286e+06	2.611439E-8	NaN
776	1.000000	0.672895	7.37265e+06	-38939.1	1055.82	-29795.6	0.000000	0.000000	6.673051	-0.044367	NaN	0.000000	0.001573	0.001718	28.0835	0.073003	0.002051	35.5939	130.523	16.2532	-0.076242	0.671504	-0.504283	-0.505674	-0.044367	35.5939	-0.503348	-3.81696e+06	1.162358E-8	NaN
776	1.000000	0.682869	7.37265e+06	-38939.1	1055.82	-29795.6	0.000000	0.000000	6.683024	-0.080212	NaN	0.000000	0.001542	0.001737	28.0832	0.057848	0.001912	30.263	-10.2588	-163.223	-0.018112	0.681580	-0.494309	-0.495598	-0.080212	30.263	-0.492321	-2.67804e+06	2.995177E-8	NaN
776	1.000000	0.692882	7.37265e+06	-38939.1	1055.82	-29795.6	0.000000	0.000000	6.693037	-0.078049	NaN	0.000000	0.001566	0.001730	28.0838	0.018395	0.001901	9.677755	124.827	17.1285	-0.155009	0.691519	-0.484296	-0.485658	-0.078049	9.677755	-0.478247	-1.70211e+06	4.585410E-8	NaN
776	1.000000	0.702846	7.37265e+06	-38939.1	1055.82	-29795.6	0.000000	0.000000	6.703001	-0.095113	NaN	0.000000	0.001557	0.001724	28.0836	0.020112	0.002159	9.315215	-167.261	-161.534	-0.114278	0.701596	-0.474332	-0.475581	-0.095113	9.315215	-0.466674	-1.1715e+06	8.118885E-8	NaN
776	1.000000	0.712874	7.37265e+06	-38939.1	1055.82	-29795.6	0.000000	0.000000	6.713031	-0.018389	NaN	0.000000	0.001570	0.001714	28.0837	0.141319	0.001955	72.2761	-23.3563	16.2566	0.014954	0.711462	-0.464304	-0.465715	-0.018389	72.2761	-0.464113	-1.07845e+06	1.705148E-8	NaN
776	1.000000	0.722867	7.37265e+06	-38939.1	1055.82	-29795.6	0.000000	0.000000	6.723024	-0.057494	NaN	0.000000	0.001579	0.001740	28.0839	0.078719	0.002135	36.8735	101.018	-164.364	-0.093386	0.721550	-0.454310	-0.455628	-0.057494	36.8735	-0.453141	-756064	7.604315E-8	NaN
776	1.000000	0.732892	7.37265e+06	-38939.1	1055.82	-29795.6	0.000000	0.000000	6.733047	-0.104333	NaN	0.000000	0.001588	0.001727	28.0839	0.095527	0.001959	48.7663	3.900018	15.0905	-0.022653	0.731523	-0.444285	-0.445655	-0.104333	48.7663	-0.442681	-538502	1.937470E-7	NaN
776	1.000000	0.742882	7.37265e+06	-38939.1	1055.82	-29795.6	0.000000	0.000000	6.743038	-0.062028	NaN	0.000000	0.001582	0.001702	28.0837	0.090297	0.001982	45.5487	162.54	-161.493	-0.040811	0.741542	-0.434295	-0.435635	-0.062028	45.5487	-0.433274	-396606	1.563977E-7	NaN
776	1.000000	0.752884	7.37265e+06	-38939.1	1055.82	-29795.6	0.000000	0.000000	6.753037	-0.145015	NaN	0.000000	0.001557	0.001708	28.0836	0.114398	0.002044	55.9696	118.101	20.4918	-0.129183	0.751529	-0.424293	-0.425649	-0.145015	55.9696	-0.422350	-277803	5.220076E-7	NaN
776	1.000000	0.762877	7.37265e+06	-38939.1	1055.82	-29795.6	0.000000	0.000000	6.763034	-0.037701	NaN	0.000000	0.001609	0.001718	28.0839	0.074422	0.001894	39.2937	-9.474384	-169.542	-0.006243	0.761614	-0.414300	-0.415564	-0.037701	39.2937	-0.413581	-208591	1.807430E-7	NaN
776	1.000000	0.772910	7.37265e+06	-38939.1	1055.82	-29795.6	0.000000	0.000000	6.773068	-0.005390	NaN	0.000000	0.001534	0.001718	28.0822	0.121923	0.001871	65.1749	-67.0464	9.929354	0.006551	0.771528	-0.404268	-0.405650	-0.005390	65.1749	-0.404206	-153440	3.513098E-8	NaN
776	1.000000	0.782879	7.37265e+06	-38939.1	1055.82	-29795.6	0.000000	0.000000	6.783033	-0.116499	NaN	0.000000	0.001562	0.001723	28.0824	0.110147	0.001949	56.5108	-136.09	-167.576	-0.126329	0.781615	-0.394299	-0.395562	-0.116499	56.5108	-0.392753	-105323	1.106105E-6	NaN
776	1.000000	0.792893	7.37265e+06	-38939.1	1055.82	-29795.6	0.000000	0.000000	6.793051	-0.025380	NaN	0.000000	0.001565	0.001736	28.0824	0.030152	0.002061	14.6281	109.587	14.1246	-0.084083	0.791537	-0.384284	-0.385641	-0.025380	14.6281	-0.382983	-76327.2	3.325200E-7	NaN
776	1.000000	0.802897	7.37265e+06	-38939.1	1055.82	-29795.6	0.000000	0.000000	6.803052	-0.086092	NaN	0.000000	0.001554	0.001697	28.0827	0.058379	0.002188	26.685	50.0793	-164.439	-0.093210	0.801560	-0.374281	-0.375618	-0.086092	26.685	-0.371861	-52835.2	1.629442E-6	NaN
776	1.000000	0.812940	7.37265e+06	-38939.1	1055.82	-29795.6	0.000000	0.000000	6.813097	-0.039548	NaN	0.000000	0.001574	0.001683	28.0822	0.026623	0.002104	12.6522	-11.2851	17.3968	-0.045451	0.811539	-0.364238	-0.365639	-0.039548	12.6522	-0.361894	-37949.8	1.042111E-6	NaN
776	1.000000	0.822904	7.37265e+06	-38939.1	1055.82	-29795.6	0.000000	0.000000	6.823060	-0.056364	NaN	0.000000	0.001551	0.001736	28.0824	0.095875	0.002162	44.3481	-169.668	-165.395	-0.052717	0.821590	-0.354274	-0.355588	-0.056364	44.3481	-0.353321	-28520.8	1.976246E-6	NaN
776	1.000000	0.832920	7.37265e+06	-38939.1	1055.82	-29795.6	0.000000	0.000000	6.833073	-0.122547	NaN	0.000000	0.001580	0.001727	28.0823	0.025234	0.001937	13.0296	-90.9018	19.3954	-0.070677	0.831556	-0.344258	-0.345622	-0.122547	13.0296	-0.337204	-16625.3	7.371120E-6	NaN
776	1.000000	0.842922	7.37265e+06	-38939.1	1055.82	-29795.6	0.000000	0.000000	6.843077	-0.099401	NaN	0.000000	0.001537	0.001712	28.0826	0.018994	0.001948	9.752551	22.8336	-166.077	-0.133426	0.841623	-0.334256	-0.335555	-0.099401	9.752551	-0.326611	-11635.4	8.542975E-6	NaN
776	1.000000	0.852924	7.37265e+06	-38939.1	1055.82	-29795.6	0.000000	0.000000	6.853084	0.039066	NaN	0.000000	0.001543	0.001748	28.0823	0.124559	0.002075	60.0181	-75.3355	17.3249	0.117955	0.851585	-0.324254	-0.325593	0.039066	60.0181	-0.324742	-10923.1	-3.576440E-6	NaN
776	1.000000	0.862912	7.37265e+06	-38939.1	1055.82	-29795.6	0.000000	0.000000	6.863070	-0.011746	NaN	0.000000	0.001529	0.001727	28.0823	0.035956	0.002063	17.4292	-8.949016	-167.265	-0.041068	0.861587	-0.314266	-0.315591	-0.011746	17.4292	-0.313761	-7527.51	1.560475E-6	NaN
776	1.000000	0.872936	7.37265e+06	-38939.1	1055.82	-29795.6	0.000000	0.000000	6.873090	-0.101948	NaN	0.000000	0.001521	0.001744	28.0823	0.061139	0.001951	31.3343	144.24	14.5891	-0.181808	0.871610	-0.304242	-0.305568	-0.101948	31.3343	-0.301802	-5005.48	2.036726E-5	NaN
776	1.000000	0.882948	7.37265e+06	-38939.1	1055.82	-29795.6	0.000000	0.000000	6.883105	-0.054691	NaN	0.000000	0.001545	0.001730	28.0822	0.048252	0.002067	23.3461	156.645	-166.731	0.010604	0.881593	-0.294230	-0.295584	-0.054691	23.3461	-0.292473	-3633.42	1.505228E-5	NaN
776	1.000000	0.892944	7.37265e+06	-38939.1	1055.82	-29795.6	0.000000	0.000000	6.893099	-0.103546	NaN	0.000000	0.001592	0.001744	28.0822	0.089054	0.002090	42.6077	70.9494	14.4247	-0.013521	0.891640	-0.284233	-0.285538	-0.103546	42.6077	-0.282411	-2566.29	4.034857E-5	NaN
776	1.000000	0.902961	7.37265e+06	-38939.1	1055.82	-29795.6	0.000000	0.000000	6.903116	-0.080724	NaN	0.000000	0.001620	0.001729	28.0823	0.026468	0.002002	13.2232	-130.798	-166.092	-0.022099	0.901645	-0.274217	-0.275533	-0.080724	13.2232	-0.269638	-1644.54	4.908617E-5	NaN
776	1.000000	0.912982	7.37265e+06	-38939.1	1055.82	-29795.6	0.000000	0.000000	6.913137	-0.084275	NaN	0.000000	0.001611	0.001717	28.0835	0.069750	0.002066	33.7568	96.4915	18.3856	-0.073523	0.911606	-0.264196	-0.265572	-0.084275	33.7568	-0.262323	-1272	6.625339E-5	NaN
776	1.000000	0.922933	7.37265e+06	-38939.1	1055.82	-29795.6	0.000000	0.000000	6.923092	0.005894	NaN	0.000000	0.001628	0.001718	28.0833	0.094638	0.002118	44.6859	143.86	-164.633	-0.009664	0.921652	-0.254245	-0.255526	0.005894	44.6859	-0.254344	-959.428	-6.143718E-6	NaN
776	1.000000	0.932940	7.37265e+06	-38939.1	1055.82	-29795.6	0.000000	0.000000	6.933095	-0.087791	NaN	0.000000	0.001595	0.001702	28.0834	0.180861	0.001858	97.3165	86.0367	17.3859	-0.035079	0.931608	-0.244238	-0.245569	-0.087791	97.3165	-0.243561	-653.24	0.000134	NaN
776	1.000000	0.942915	7.37265e+06	-38939.1	1055.82	-29795.6	0.000000	0.000000	6.943069	-0.123252	NaN	0.000000	0.001534	0.001694	28.0834	0.052992	0.001981	26.754	144.496	-164.819	-0.089206	0.941679	-0.234262	-0.235498	-0.123252	26.754	-0.230807	-412.342	0.000299	NaN
776	1.000000	0.952987	7.37265e+06	-38939.1	1055.82	-29795.6	0.000000	0.000000	6.953145	-0.019560	NaN	0.000000	0.001555	0.001721	28.0834	0.054835	0.001986	27.6104	-23.2235	17.26	-0.057257	0.951590	-0.224191	-0.225587	-0.019560	27.6104	-0.223659	-317.706	6.156736E-5	NaN
776	1.000000	0.962966	7.37265e+06	-38939.1	1055.82	-29795.6	0.000000	0.000000	6.963121	-0.080965	NaN	0.000000	0.001577	0.001696	28.0833	0.107615	0.001971	54.5964	-109.552	-164.358	-0.119253	0.961707	-0.214212	-0.215471	-0.080965	54.5964	-0.213100	-215.235	0.000376	NaN
776	1.000000	0.972976	7.37265e+06	-38939.1	1055.82	-29795.6	0.000000	0.000000	6.973131	-0.101616	NaN	0.000000	0.001566	0.001708	28.0834	0.074828	0.002043	36.6185	-144.424	14.3482	-0.095364	0.971637	-0.204201	-0.205540	-0.101616	36.6185	-0.202120	-142.72	0.000712	NaN
776	1.000000	0.982968	7.37265e+06	-38939.1	1055.82	-29795.6	0.000000	0.000000	6.983125	-0.046106	NaN	0.000000	0.001557	0.001688	28.0836	0.051390	0.001917	26.8085	-4.855877	-165.968	-0.093230	0.981686	-0.194210	-0.195492	-0.046106	26.8085	-0.192920	-100.62	0.000458	NaN
776	1.000000	0.992993	7.37265e+06	-38939.1	1055.82	-29795.6	0.000000	0.000000	6.993148	-0.072975	NaN	0.000000	0.001572	0.001750	28.0835	0.005622	0.002023	2.779239	-168.721	13.2954	0.006131	0.991663	-0.184185	-0.185515	-0.072975	2.779239	-0.164492	-32.914	0.002217	NaN
776	1.000000	1.002998	7.37265e+06	-38939.1	1055.82	-29795.6	0.000000	0.000000	7.003153	-0.070067	NaN	0.000000	0.001605	0.001746	28.0835	0.116717	0.002099	55.5962	-96.0855	-167.693	-0.049815	1.001659	-0.174180	-0.175518	-0.070067	55.5962	-0.173235	-46.7299	0.001499	NaN
776	1.000000	1.013015	7.37265e+06	-38939.1	1055.82	-29795.6	0.000000	0.000000	7.013170	-0.070950	NaN	0.000000	0.001617	0.001774	28.0838	0.106163	0.002008	52.8719	101.51	14.9782	-0.034926	1.011619	-0.164163	-0.165559	-0.070950	52.8719	-0.163157	-31.1792	0.002276	NaN
776	1.000000	1.022977	7.37265e+06	-38939.1	1055.82	-29795.6	0.000000	0.000000	7.023136	0.013744	NaN	0.000000	0.001580	0.001679	28.0838	0.021785	0.002036	10.6987	131.336	-165.523	0.040191	1.021712	-0.154201	-0.155466	0.013744	10.6987	-0.155164	-22.4664	-0.000612	NaN
776	1.000000	1.032991	7.37265e+06	-38939.1	1055.82	-29795.6	0.000000	0.000000	7.033147	-0.065323	NaN	0.000000	0.001610	0.001704	28.0837	0.021204	0.002100	10.0967	-112.691	15.8385	-0.046609	1.031595	-0.144186	-0.145583	-0.065323	10.0967	-0.139334	-11.4934	0.005684	NaN
776	1.000000	1.042999	7.37265e+06	-38939.1	1055.82	-29795.6	0.000000	0.000000	7.043155	-0.048622	NaN	0.000000	0.001625	0.001677	28.0823	0.047689	0.002007	23.7659	-63.5853	-164.946	-0.073275	1.041654	-0.134179	-0.135523	-0.048622	23.7659	-0.132645	-8.573178	0.005671	NaN
776	1.000000	1.053031	7.37265e+06	-38939.1	1055.82	-29795.6	0.000000	0.000000	7.053190	-0.009289	NaN	0.000000	0.001608	0.001677	28.0827	0.108966	0.001940	56.1704	49.7339	16.5242	-0.060266	1.051629	-0.124146	-0.125548	-0.009289	56.1704	-0.124022	-5.815811	0.001597	NaN
776	1.000000	1.063024	7.37265e+06	-38939.1	1055.82	-29795.6	0.000000	0.000000	7.063181	-0.036449	NaN	0.000000	0.001638	0.001710	28.0821	0.046046	0.001991	23.1269	-147.549	-163.799	-0.018355	1.061719	-0.114154	-0.115459	-0.036449	23.1269	-0.112972	-3.468224	0.010509	NaN
776	1.000000	1.073027	7.37265e+06	-38939.1	1055.82	-29795.6	0.000000	0.000000	7.073182	-0.078865	NaN	0.000000	0.001670	0.001704	28.0824	0.043328	0.002035	21.2951	96.8778	10.5918	-0.023569	1.071714	-0.104151	-0.105464	-0.078865	21.2951	-0.101373	-1.959334	0.040251	NaN
776	1.000000	1.083036	7.37265e+06	-38939.1	1055.82	-29795.6	0.000000	0.000000	7.083192	-0.060681	NaN	0.000000	0.001642	0.001689	28.0822	0.032697	0.002172	15.0557	139.302	-166.746	-0.005057	1.081732	-0.094142	-0.095446	-0.060681	15.0557	-0.091119	-1.148110	0.052853	NaN
776	1.000000	1.093038	7.37265e+06	-38939.1	1055.82	-29795.6	0.000000	0.000000	7.093196	-0.016141	NaN	0.000000	0.001638	0.001725	28.0824	0.048592	0.002071	23.4679	-95.5465	16.2547	-0.044053	1.091664	-0.084140	-0.085514	-0.016141	23.4679	-0.083624	-0.760725	0.021218	NaN
776	1.000000	1.102991	7.37265e+06	-38939.1	1055.82	-29795.6	0.000000	0.000000	7.103146	-0.079083	NaN	0.000000	0.001649	0.001685	28.0823	0.061566	0.002017	30.5189	-71.15	-162.717	-0.080447	1.101704	-0.074187	-0.075473	-0.079083	30.5189	-0.072243	-0.391303	0.202103	NaN
776	1.000000	1.113032	7.37265e+06	-38939.1	1055.82	-29795.6	0.000000	0.000000	7.113189	-0.059139	NaN	0.000000	0.001650	0.001714	28.0824	0.087178	0.002027	43.0115	147.349	17.2869	-0.097177	1.111647	-0.064145	-0.065531	-0.059139	43.0115	-0.063114	-0.220760	0.267887	NaN
776	1.000000	1.123029	7.37265e+06	-38939.1	1055.82	-29795.6	0.000000	0.000000	7.123185	-0.076176	NaN	0.000000	0.001583	0.001709	28.0825	0.045270	0.001873	24.1688	-98.0786	-165.32	-0.050766	1.121721	-0.054148	-0.055457	-0.076176	24.1688	-0.051784	-0.103279	0.737575	NaN
776	1.000000	1.133054	7.37265e+06	-38939.1	1055.82	-29795.6	0.000000	0.000000	7.133212	-0.013639	NaN	0.000000	0.001624	0.001700	28.0824	0.046425	0.001879	24.7061	-129.156	12.4944	0.000930	1.131619	-0.044123	-0.045559	-0.013639	24.7061	-0.043709	-0.058684	0.232412	NaN
776	1.000000	1.143034	7.37265e+06	-38939.1	1055.82	-29795.6	0.000000	0.000000	7.143191	-0.033678	NaN	0.000000	0.001617	0.001716	28.0823	0.156683	0.002007	78.0865	-81.2308	-163.583	0.033728	1.141700	-0.034144	-0.035477	-0.033678	78.0865	-0.033820	-0.029575	1.138725	NaN
776	1.000000	1.153045	7.37265e+06	-38939.1	1055.82	-29795.6	0.000000	0.000000	7.153201	-0.062796	NaN	0.000000	0.001622	0.001720	28.0826	0.069552	0.002121	32.7897	106.719	16.3133	-0.069162	1.151704	-0.024132	-0.025474	-0.062796	32.7897	-0.022696	-0.014711	4.268791	NaN
776	1.000000	1.163023	7.37265e+06	-38939.1	1055.82	-29795.6	0.000000	0.000000	7.163176	-0.114928	NaN	0.000000	0.001626	0.001666	28.0824	0.019314	0.001934	9.988402	114.947	-164.794	-0.074529	1.161776	-0.014155	-0.015402	-0.114928	9.988402	-0.005525	-0.003744	30.6939	NaN
776	1.000000	1.173054	7.37265e+06	-38939.1	1055.82	-29795.6	0.000000	0.000000	7.173209	-0.074048	NaN	0.000000	0.001602	0.001728	28.0824	0.105424	0.002134	49.4105	-77.8386	13.04	-0.044599	1.171610	-0.004124	-0.005567	-0.074048	49.4105	-0.003000	-0.002121	34.9177	NaN
776	1.000000	1.182904	7.37265e+06	-38939.1	1055.82	-29795.6	0.000000	0.000000	7.183417	8.607053	NaN	0.000000	0.001614	0.001672	28.0836	8.529205	0.001649	5173.66	13.1773	-174.584	6.610833	1.181768	0.005727	0.004591	8.607053	5173.66	0.004479	0.003663	2349.85	78102.3
776	2.000000	1.186108	7.37265e+06	-38939.1	1055.82	-29795.6	0.000000	0.000000	7.186794	12.853	NaN	0.000000	0.001625	0.001717	28.084	11.801	0.001799	6559.19	5.380084	9.580922	13.5619	1.185801	0.008930	0.008623	12.853	6559.19	0.007460	0.006493	1979.53	74370.8
776	2.000000	1.188558	7.37265e+06	-38939.1	1055.82	-29795.6	0.000000	0.000000	7.189410	16.8779	NaN	0.000000	0.001625	0.001737	28.0837	15.1341	0.001674	9041.29	6.035991	-175.177	16.2325	1.188258	0.011380	0.011080	16.8779	9041.29	0.009980	0.009159	1842.77	86313.8
776	2.000000	1.191116	7.37265e+06	-38939.1	1055.82	-29795.6	0.000000	0.000000	7.192169	21.759	NaN	0.000000	0.001616	0.001740	28.0837	17.2031	0.001687	10197.5	2.098326	8.987404	21.1578	1.190712	0.013938	0.013534	21.759	10197.5	0.012338	0.011897	1828.89	85416
776	2.000000	1.193520	7.37265e+06	-38939.1	1055.82	-29795.6	0.000000	0.000000	7.194806	27.437	NaN	0.000000	0.001649	0.001743	28.0837	19.8619	0.001698	11696.8	6.375738	-177.952	25.8295	1.193172	0.016342	0.015994	27.437	11696.8	0.014583	0.014734	1862.21	88041.5
776	2.000000	1.195987	7.37265e+06	-38939.1	1055.82	-29795.6	0.000000	0.000000	7.197468	32.1728	NaN	0.000000	0.001619	0.001735	28.0843	21.994	0.001661	13241.6	1.728349	5.365502	30.0401	1.195712	0.018809	0.018534	32.1728	13241.6	0.016987	0.018027	1784.67	90104.9
776	2.000000	1.198527	7.37265e+06	-38939.1	1055.82	-29795.6	0.000000	0.000000	7.200274	38.659	NaN	0.000000	0.001651	0.001693	28.0834	25.1517	0.001904	13212	7.293966	-178.681	38.3349	1.198165	0.021350	0.020987	38.659	13212	0.019155	0.021232	1820.8	82841.1
776	2.000000	1.201033	7.37265e+06	-38939.1	1055.82	-29795.6	0.000000	0.000000	7.202950	42.7836	NaN	0.000000	0.001593	0.001685	28.0835	26.7947	0.001801	14879.7	5.599418	2.463937	41.6783	1.200634	0.023856	0.023456	42.7836	14879.7	0.021699	0.025283	1692.19	85497.6
776	2.000000	1.203491	7.37265e+06	-38939.1	1055.82	-29795.6	0.000000	0.000000	7.205675	49.2882	NaN	0.000000	0.001611	0.001727	28.0834	29.3567	0.001899	15461	8.489589	179.662	49.7033	1.203219	0.026314	0.026041	49.2882	15461	0.023923	0.029085	1694.63	82827.7
776	2.000000	1.205992	7.37265e+06	-38939.1	1055.82	-29795.6	0.000000	0.000000	7.208414	55.0775	NaN	0.000000	0.001606	0.001712	28.0835	30.8929	0.001752	17629.7	2.027113	3.140420	53.2716	1.205704	0.028814	0.028526	55.0775	17629.7	0.026471	0.033747	1632.08	87680.5
776	2.000000	1.208526	7.37265e+06	-38939.1	1055.82	-29795.6	0.000000	0.000000	7.211108	58.9807	NaN	0.000000	0.001595	0.001713	28.0834	34.0859	0.001999	17053.8	3.995110	-177.974	58.8523	1.208236	0.031348	0.031058	58.9807	17053.8	0.028754	0.038201	1543.97	79718.2
776	2.000000	1.211047	7.37265e+06	-38939.1	1055.82	-29795.6	0.000000	0.000000	7.213886	65.2373	NaN	0.000000	0.001598	0.001692	28.0833	35.5036	0.001836	19338.5	7.633509	-1.851052	65.6022	1.210761	0.033869	0.033583	65.2373	19338.5	0.031339	0.043564	1497.49	84650.4
776	2.000000	1.213481	7.37265e+06	-38939.1	1055.82	-29795.6	0.000000	0.000000	7.216731	75.224	NaN	0.000000	0.001570	0.001715	28.0835	37.3363	0.001894	19711.2	2.931989	-177.704	74.5993	1.213195	0.036304	0.036017	75.224	19711.2	0.033441	0.048179	1561.34	82046.1
776	2.000000	1.215944	7.37265e+06	-38939.1	1055.82	-29795.6	0.000000	0.000000	7.219559	84.1178	NaN	0.000000	0.001558	0.001717	28.0834	38.2447	0.001700	22495.2	2.498361	1.900442	82.0712	1.215659	0.038766	0.038481	84.1178	22495.2	0.035962	0.054009	1557.47	88436.1
776	2.000000	1.218447	7.37265e+06	-38939.1	1055.82	-29795.6	0.000000	0.000000	7.222340	90.8795	NaN	0.000000	0.001547	0.001735	28.0822	41.9332	0.001843	22751.7	4.574221	179.072	88.1958	1.218132	0.041269	0.040954	90.8795	22751.7	0.038273	0.059642	1523.76	85116.4
776	2.000000	1.220956	7.37265e+06	-38939.1	1055.82	-29795.6	0.000000	0.000000	7.225313	102.172	NaN	0.000000	0.001589	0.001732	28.0827	43.7462	0.001830	23900.4	3.909788	-0.357447	97.9688	1.220625	0.043779	0.043447	102.172	23900.4	0.040572	0.065516	1559.49	85310.7
776	2.000000	1.223439	7.37265e+06	-38939.1	1055.82	-29795.6	0.000000	0.000000	7.228285	114.061	NaN	0.000000	0.001593	0.001677	28.0823	46.0536	0.001878	24519.7	6.107002	178.031	113.667	1.223135	0.046261	0.045958	114.061	24519.7	0.042773	0.071390	1597.71	83843.5
776	2.000000	1.225973	7.37265e+06	-38939.1	1055.82	-29795.6	0.000000	0.000000	7.231033	119.264	NaN	0.000000	0.001583	0.001733	28.0822	48.5022	0.001712	28331.7	4.202694	-2.483528	117.901	1.225646	0.048795	0.048468	119.264	28331.7	0.045638	0.079410	1501.88	91856.3
776	2.000000	1.228451	7.37265e+06	-38939.1	1055.82	-29795.6	0.000000	0.000000	7.233838	127.227	NaN	0.000000	0.001583	0.001729	28.0822	52.0576	0.001889	27558.3	3.739455	178.096	124.751	1.228123	0.051274	0.050946	127.227	27558.3	0.047811	0.085768	1483.4	85973.3
776	2.000000	1.230887	7.37265e+06	-38939.1	1055.82	-29795.6	0.000000	0.000000	7.236867	141.666	NaN	0.000000	0.001570	0.001714	28.0822	52.8816	0.001774	29812.2	2.833198	-1.003533	136.097	1.230544	0.053709	0.053366	141.666	29812.2	0.050145	0.092862	1525.55	89381.5
776	2.000000	1.233451	7.37265e+06	-38939.1	1055.82	-29795.6	0.000000	0.000000	7.239754	149.543	NaN	0.000000	0.001601	0.001722	28.0821	55.1285	0.001875	29395.4	6.176451	176.392	150.102	1.233137	0.056273	0.055959	149.543	29395.4	0.052458	0.100161	1493.03	84860.1
776	2.000000	1.235994	7.37265e+06	-38939.1	1055.82	-29795.6	0.000000	0.000000	7.242737	160.239	NaN	0.000000	0.001615	0.001706	28.0821	58.4806	0.001854	31537.9	7.052556	-5.444109	161.333	1.235615	0.058816	0.058437	160.239	31537.9	0.055006	0.108511	1476.7	87471.9
776	2.000000	1.238455	7.37265e+06	-38939.1	1055.82	-29795.6	0.000000	0.000000	7.245717	172.874	NaN	0.000000	0.001569	0.001724	28.0821	60.6255	0.001863	32535.3	6.348919	174.964	173.039	1.238099	0.061277	0.060921	172.874	32535.3	0.057292	0.116278	1486.73	87172.5
776	2.000000	1.241002	7.37265e+06	-38939.1	1055.82	-29795.6	0.000000	0.000000	7.248942	189.36	NaN	0.000000	0.001545	0.001769	28.082	61.8556	0.001781	34728.9	9.178842	-7.875467	188.465	1.240554	0.063824	0.063376	189.36	34728.9	0.059735	0.124860	1516.58	89795.3
776	2.000000	1.243363	7.37265e+06	-38939.1	1055.82	-29795.6	0.000000	0.000000	7.251945	204.997	NaN	0.000000	0.001599	0.001695	28.0819	63.2577	0.001820	34749.2	2.213579	178.683	199.93	1.243066	0.066185	0.065888	204.997	34749.2	0.061761	0.132198	1550.68	87318.2
776	2.000000	1.245919	7.37265e+06	-38939.1	1055.82	-29795.6	0.000000	0.000000	7.254471	204.253	NaN	0.000000	0.001606	0.001740	28.0819	66.2947	0.001763	37607.4	3.845776	-4.970192	199.754	1.245679	0.068741	0.068501	204.253	37607.4	0.064668	0.143077	1427.57	90836.6
776	2.000000	1.248451	7.37265e+06	-38939.1	1055.82	-29795.6	0.000000	0.000000	7.257683	220.808	NaN	0.000000	0.001607	0.001722	28.0821	69.419	0.001845	37620.4	4.205048	174.981	219.962	1.248155	0.071274	0.070978	220.808	37620.4	0.066872	0.151595	1456.56	88278.2
776	2.000000	1.250894	7.37265e+06	-38939.1	1055.82	-29795.6	0.000000	0.000000	7.261200	246.933	NaN	0.000000	0.001605	0.001699	28.0834	71.4789	0.001877	38072.2	7.441060	-7.288478	243.186	1.250459	0.073717	0.073282	246.933	38072.2	0.068852	0.159450	1548.66	87110.3
776	2.000000	1.253359	7.37265e+06	-38939.1	1055.82	-29795.6	0.000000	0.000000	7.264084	257.127	NaN	0.000000	0.001570	0.001719	28.0834	73.3454	0.001799	40762.4	5.709190	173.613	253.318	1.253083	0.076182	0.075905	257.127	40762.4	0.071451	0.170039	1512.17	90314.7
776	2.000000	1.255865	7.37265e+06	-38939.1	1055.82	-29795.6	0.000000	0.000000	7.266955	266.029	NaN	0.000000	0.001573	0.001738	28.0834	76.4376	0.001829	41800.7	5.833305	-6.647958	260.051	1.255481	0.078687	0.078304	266.029	41800.7	0.073914	0.180374	1474.87	89922.8
776	2.000000	1.258372	7.37265e+06	-38939.1	1055.82	-29795.6	0.000000	0.000000	7.270159	282.987	NaN	0.000000	0.001558	0.001715	28.0833	79.0693	0.001800	43919.6	7.031098	171.764	277.853	1.258007	0.081194	0.080830	282.987	43919.6	0.076362	0.190924	1482.2	91833.4
776	2.000000	1.260907	7.37265e+06	-38939.1	1055.82	-29795.6	0.000000	0.000000	7.273383	299.758	NaN	0.000000	0.001614	0.001713	28.0835	80.5813	0.001849	43582.8	5.887465	-6.114258	293.407	1.260374	0.083729	0.083196	299.758	43582.8	0.078570	0.200688	1493.65	88884.7
776	2.000000	1.263327	7.37265e+06	-38939.1	1055.82	-29795.6	0.000000	0.000000	7.276123	307.522	NaN	0.000000	0.001636	0.001704	28.0834	82.9965	0.001782	46566.6	6.226545	171.76	301.965	1.263176	0.086150	0.085999	307.522	46566.6	0.081197	0.212594	1446.52	92272.6
776	2.000000	1.265908	7.37265e+06	-38939.1	1055.82	-29795.6	0.000000	0.000000	7.279491	326.674	NaN	0.000000	0.001613	0.001734	28.0834	84.5265	0.001759	48053.7	6.299563	-7.868255	323.609	1.265472	0.088730	0.088294	326.674	48053.7	0.083632	0.223918	1458.9	92780.2
776	2.000000	1.268404	7.37265e+06	-38939.1	1055.82	-29795.6	0.000000	0.000000	7.282705	344.166	NaN	0.000000	0.001594	0.001718	28.0834	88.1165	0.001956	45049.9	5.989643	172.331	343.206	1.268123	0.091226	0.090945	344.166	45049.9	0.085497	0.232777	1478.52	85309.4
776	2.000000	1.270974	7.37265e+06	-38939.1	1055.82	-29795.6	0.000000	0.000000	7.286051	363.053	NaN	0.000000	0.001599	0.001700	28.0833	88.545	0.001815	48772	4.253642	-5.701391	363.662	1.270565	0.093796	0.093387	363.053	48772	0.088214	0.245970	1476.01	89847
776	2.000000	1.273399	7.37265e+06	-38939.1	1055.82	-29795.6	0.000000	0.000000	7.289151	379.481	NaN	0.000000	0.001588	0.001759	28.0837	90.607	0.001810	50045.4	3.619039	174.606	379.376	1.272998	0.096221	0.095820	379.481	50045.4	0.090534	0.257506	1473.68	90104
776	2.000000	1.275850	7.37265e+06	-38939.1	1055.82	-29795.6	0.000000	0.000000	7.292297	396.376	NaN	0.000000	0.001593	0.001738	28.0832	93.8726	0.001767	53137	5.642700	-8.139901	389.759	1.275448	0.098672	0.098270	396.376	53137	0.093078	0.270436	1465.69	93355.2
776	2.000000	1.278449	7.37265e+06	-38939.1	1055.82	-29795.6	0.000000	0.000000	7.295583	413.105	NaN	0.000000	0.001583	0.001725	28.0836	97.6727	0.001864	52409.7	7.330102	170.171	415.236	1.278063	0.101271	0.100885	413.105	52409.7	0.095360	0.282287	1463.42	90123.7
776	2.000000	1.280940	7.37265e+06	-38939.1	1055.82	-29795.6	0.000000	0.000000	7.299152	439.35	NaN	0.000000	0.001579	0.001737	28.0833	98.2256	0.001770	55493.6	6.235481	-8.687166	437.864	1.280469	0.103762	0.103292	439.35	55493.6	0.097824	0.295354	1487.53	93291.9
776	2.000000	1.282283	7.37265e+06	-38939.1	1055.82	-29795.6	0.000000	0.000000	7.300914	449.551	NaN	0.000000	0.001560	0.001737	28.0832	99.5145	0.001775	56064.5	4.471241	172.943	440.994	1.281940	0.105105	0.104763	449.551	56064.5	0.099091	0.302178	1487.71	93181.6