File: remote_trans/data/nanoindenter/0828-1/data/Data_2025-08-06,11h17m57s/2025-07-22_16-23-58_1_655.txt
2025-07-22, 16:23:58, 1
Index	Phase	Displacement	Time	Pos X	Pos Y	Pos Z	Rot A	Rot B	Piezo Z	Force A	Force B	Gripper	Voltage A	Voltage B	Temperature	Amplitude force	Amplitude pos	Stiffness	Phase shift	Phase excitation	Force A raw	Displacement raw	HMax	HMax raw	Real Force	Real Stiffness	Contact Depth	Area	Hardness	Reduced Mod.
[#]	[#]	[um]	[s]	[um]	[um]	[um]	[m°]	[m°]	[um]	[uN]	[uN]	[V]	[V]	[V]	[°C]	[uN]	[um]	[N/m]	[°]	[°]	[uN]	[um]	[um]	[um]	[uN]	[N/m]	[um]	[um^2]	[MPa]	[MPa]
655	1.000000	0.002417	7.37146e+06	-44339.1	1005.82	-29776	0.000000	0.000000	6.002799	-0.005412	NaN	0.000000	0.001628	0.001678	28.0841	0.080667	0.000794	101.533	-37.8966	-169.645	-0.047630	0.001209	-0.998613	-0.999821	-0.005412	101.533	-0.998573	-2.170470E+13	2.493359E-16	NaN
655	1.000000	0.010374	7.37146e+06	-44339.1	1005.82	-29776	0.000000	0.000000	6.010755	0.000477	NaN	0.000000	0.001623	0.001689	28.0837	0.022609	0.001016	22.2631	170.911	-163.102	-0.010988	0.009054	-0.990656	-0.991976	0.000477	22.2631	-0.990672	-1.698893E+13	-2.809373E-17	NaN
655	1.000000	0.018359	7.37146e+06	-44339.1	1005.82	-29776	0.000000	0.000000	6.018738	-0.045782	NaN	0.000000	0.001640	0.001674	28.0838	0.028211	0.001862	15.1502	168.696	-166.5	-0.108838	0.017057	-0.982671	-0.983973	-0.045782	15.1502	-0.980405	-1.235559E+13	3.705404E-15	NaN
655	1.000000	0.026386	7.37146e+06	-44339.1	1005.82	-29776	0.000000	0.000000	6.026765	-0.069260	NaN	0.000000	0.001669	0.001688	28.0839	0.011477	0.001846	6.218428	-67.9809	-163.094	-0.022886	0.025056	-0.974644	-0.975974	-0.069260	6.218428	-0.966290	-7.973738E+12	8.685991E-15	NaN
655	1.000000	0.034363	7.37146e+06	-44339.1	1005.82	-29776	0.000000	0.000000	6.034743	-0.039634	NaN	0.000000	0.001666	0.001669	28.0836	0.074776	0.001902	39.3247	-52.7205	-164.551	-0.040020	0.033056	-0.966667	-0.967974	-0.039634	39.3247	-0.965911	-7.880496E+12	5.029354E-15	NaN
655	1.000000	0.042357	7.37146e+06	-44339.1	1005.82	-29776	0.000000	0.000000	6.042734	-0.097384	NaN	0.000000	0.001646	0.001676	28.0838	0.099940	0.002003	49.8885	102.757	-166.848	-0.137843	0.041114	-0.958673	-0.959916	-0.097384	49.8885	-0.957209	-6.015064E+12	1.619003E-14	NaN
655	1.000000	0.050339	7.37146e+06	-44339.1	1005.82	-29776	0.000000	0.000000	6.050715	-0.120068	NaN	0.000000	0.001617	0.001657	28.0844	0.109159	0.001900	57.4372	20.9356	-163.741	-0.053845	0.049024	-0.950691	-0.952006	-0.120068	57.4372	-0.949123	-4.679562E+12	2.565796E-14	NaN
655	1.000000	0.058360	7.37146e+06	-44339.1	1005.82	-29776	0.000000	0.000000	6.058739	-0.057948	NaN	0.000000	0.001586	0.001663	28.0838	0.035443	0.001932	18.3485	-29.5442	-169.125	-0.137385	0.057104	-0.942670	-0.943926	-0.057948	18.3485	-0.940302	-3.558025E+12	1.628646E-14	NaN
655	1.000000	0.066391	7.37146e+06	-44339.1	1005.82	-29776	0.000000	0.000000	6.066770	-0.053135	NaN	0.000000	0.001572	0.001687	28.0838	0.050354	0.001909	26.38	-66.6054	-166.382	-0.092518	0.065036	-0.934639	-0.935994	-0.053135	26.38	-0.933128	-2.847189E+12	1.866234E-14	NaN
655	1.000000	0.074355	7.37146e+06	-44339.1	1005.82	-29776	0.000000	0.000000	6.074735	-0.039764	NaN	0.000000	0.001616	0.001677	28.0836	0.142976	0.002080	68.7503	0.582259	-163.085	-0.062066	0.073056	-0.926675	-0.927973	-0.039764	68.7503	-0.926241	-2.298583E+12	1.729921E-14	NaN
655	1.000000	0.082392	7.37146e+06	-44339.1	1005.82	-29776	0.000000	0.000000	6.082771	-0.054443	NaN	0.000000	0.001596	0.001664	28.084	0.108795	0.001948	55.8454	-163.298	-167.983	0.009203	0.081050	-0.918638	-0.919980	-0.054443	55.8454	-0.917907	-1.773952E+12	3.069039E-14	NaN
655	1.000000	0.090391	7.37146e+06	-44339.1	1005.82	-29776	0.000000	0.000000	6.090770	-0.047709	NaN	0.000000	0.001602	0.001665	28.0838	0.059564	0.002000	29.78	68.4636	-166.228	-0.005806	0.089014	-0.910639	-0.912016	-0.047709	29.78	-0.909438	-1.363227E+12	3.499688E-14	NaN
655	1.000000	0.098372	7.37146e+06	-44339.1	1005.82	-29776	0.000000	0.000000	6.098754	0.006850	NaN	0.000000	0.001574	0.001649	28.0828	0.072717	0.001820	39.9605	-91.7441	-165.813	0.001054	0.097090	-0.902658	-0.903940	0.006850	39.9605	-0.902786	-1.108437E+12	-6.179825E-15	NaN
655	1.000000	0.106410	7.37146e+06	-44339.1	1005.82	-29776	0.000000	0.000000	6.106790	-0.051033	NaN	0.000000	0.001583	0.001693	28.0825	0.020443	0.002077	9.842772	-61.8297	-165.755	-0.024567	0.105057	-0.894620	-0.895973	-0.051033	9.842772	-0.890731	-7.617268E+11	6.699701E-14	NaN
655	1.000000	0.114381	7.37146e+06	-44339.1	1005.82	-29776	0.000000	0.000000	6.114765	0.044941	NaN	0.000000	0.001545	0.001704	28.0827	0.022660	0.002062	10.9872	77.4178	-164.962	-0.024329	0.113086	-0.886649	-0.887944	0.044941	10.9872	-0.889716	-7.380401E+11	-6.089262E-14	NaN
655	1.000000	0.122409	7.37146e+06	-44339.1	1005.82	-29776	0.000000	0.000000	6.122789	-0.046613	NaN	0.000000	0.001592	0.001652	28.0829	0.013157	0.002018	6.519158	-111.523	-165.222	-0.125188	0.121086	-0.878621	-0.879944	-0.046613	6.519158	-0.873258	-4.421012E+11	1.054348E-13	NaN
655	1.000000	0.130382	7.37146e+06	-44339.1	1005.82	-29776	0.000000	0.000000	6.130762	-0.043593	NaN	0.000000	0.001603	0.001684	28.0828	0.121590	0.002087	58.2698	-34.3258	-165.66	-0.048980	0.129087	-0.870648	-0.871943	-0.043593	58.2698	-0.870087	-4.005186E+11	1.088402E-13	NaN
655	1.000000	0.138385	7.37146e+06	-44339.1	1005.82	-29776	0.000000	0.000000	6.138763	-0.090137	NaN	0.000000	0.001632	0.001711	28.0827	0.054309	0.001977	27.475	5.989096	-165.429	-0.042710	0.137060	-0.862645	-0.863970	-0.090137	27.475	-0.860184	-2.941788E+11	3.064026E-13	NaN
655	1.000000	0.146394	7.37146e+06	-44339.1	1005.82	-29776	0.000000	0.000000	6.146775	-0.036344	NaN	0.000000	0.001620	0.001689	28.083	0.063737	0.001941	32.8323	89.0242	-163.861	-0.107852	0.145048	-0.854635	-0.855982	-0.036344	32.8323	-0.853805	-2.411359E+11	1.507201E-13	NaN
655	1.000000	0.154392	7.37146e+06	-44339.1	1005.82	-29776	0.000000	0.000000	6.154771	-0.076024	NaN	0.000000	0.001561	0.001685	28.0828	0.079850	0.002006	39.7995	31.393	-165.376	-0.063324	0.153117	-0.846638	-0.847913	-0.076024	39.7995	-0.845205	-1.844172E+11	4.122408E-13	NaN
655	1.000000	0.162388	7.37146e+06	-44339.1	1005.82	-29776	0.000000	0.000000	6.162767	-0.056255	NaN	0.000000	0.001603	0.001680	28.0825	0.139011	0.002088	66.5665	-166.217	-163.798	-0.060948	0.161148	-0.838642	-0.839882	-0.056255	66.5665	-0.838008	-1.473359E+11	3.818172E-13	NaN
655	1.000000	0.170427	7.37146e+06	-44339.1	1005.82	-29776	0.000000	0.000000	6.170808	-0.029041	NaN	0.000000	0.001594	0.001669	28.0826	0.027492	0.001965	13.9942	29.3054	-164.353	-0.018600	0.169116	-0.830603	-0.831914	-0.029041	13.9942	-0.829046	-1.113923E+11	2.607088E-13	NaN
655	1.000000	0.178425	7.37146e+06	-44339.1	1005.82	-29776	0.000000	0.000000	6.178809	0.073129	NaN	0.000000	0.001607	0.001673	28.0825	0.031935	0.002096	15.2357	47.6353	-162.632	-0.022783	0.177076	-0.822605	-0.823954	0.073129	15.2357	-0.826205	-1.019404E+11	-7.173720E-13	NaN
655	1.000000	0.186416	7.37146e+06	-44339.1	1005.82	-29776	0.000000	0.000000	6.186797	-0.034055	NaN	0.000000	0.001594	0.001674	28.0826	0.032473	0.002154	15.079	93.2078	-167.752	-0.009504	0.185122	-0.814614	-0.815908	-0.034055	15.079	-0.812920	-6.732579E+10	5.058179E-13	NaN
655	1.000000	0.194444	7.37146e+06	-44339.1	1005.82	-29776	0.000000	0.000000	6.194824	-0.038464	NaN	0.000000	0.001617	0.001700	28.0827	0.085306	0.001981	43.0533	-53.1437	-163.095	-0.024137	0.193081	-0.806586	-0.807949	-0.038464	43.0533	-0.805916	-5.409515E+10	7.110404E-13	NaN
655	1.000000	0.202413	7.37146e+06	-44339.1	1005.82	-29776	0.000000	0.000000	6.202790	-0.117499	NaN	0.000000	0.001578	0.001677	28.0825	0.073492	0.001942	37.849	-125.564	-159.902	-0.118389	0.201114	-0.798617	-0.799916	-0.117499	37.849	-0.796288	-4.003826E+10	2.934658E-12	NaN
655	1.000000	0.210428	7.37146e+06	-44339.1	1005.82	-29776	0.000000	0.000000	6.210806	-0.079948	NaN	0.000000	0.001576	0.001695	28.0826	0.064819	0.002075	31.231	-111.738	-164.467	-0.087572	0.209148	-0.790602	-0.791882	-0.079948	31.231	-0.788682	-3.156352E+10	2.532919E-12	NaN
655	1.000000	0.218439	7.37146e+06	-44339.1	1005.82	-29776	0.000000	0.000000	6.218818	-0.063040	NaN	0.000000	0.001611	0.001663	28.0826	0.066995	0.001974	33.9422	-108.523	-163.847	-0.027519	0.217149	-0.782591	-0.783881	-0.063040	33.9422	-0.781198	-2.497549E+10	2.524074E-12	NaN
655	1.000000	0.226433	7.37146e+06	-44339.1	1005.82	-29776	0.000000	0.000000	6.226812	-0.068911	NaN	0.000000	0.001572	0.001676	28.0826	0.021494	0.001835	11.7114	117.273	-164.249	0.040847	0.225140	-0.774597	-0.775890	-0.068911	11.7114	-0.770184	-1.769315E+10	3.894809E-12	NaN
655	1.000000	0.234445	7.37146e+06	-44339.1	1005.82	-29776	0.000000	0.000000	6.234824	-0.076055	NaN	0.000000	0.001621	0.001718	28.084	0.079987	0.001947	41.0796	22.349	-160.05	-0.126467	0.233113	-0.766584	-0.767917	-0.076055	41.0796	-0.765196	-1.513484E+10	5.025184E-12	NaN
655	1.000000	0.242438	7.37146e+06	-44339.1	1005.82	-29776	0.000000	0.000000	6.242817	-0.048016	NaN	0.000000	0.001605	0.001717	28.084	0.054111	0.001963	27.5667	15.0973	-164.802	-0.051974	0.241182	-0.758592	-0.759848	-0.048016	27.5667	-0.757286	-1.181344E+10	4.064482E-12	NaN
655	1.000000	0.250457	7.37146e+06	-44339.1	1005.82	-29776	0.000000	0.000000	6.250834	-0.092604	NaN	0.000000	0.001615	0.001705	28.0843	0.198784	0.001972	100.792	-3.776989	-162.267	-0.007387	0.249080	-0.750573	-0.751950	-0.092604	100.792	-0.749884	-9.367920E+9	9.885273E-12	NaN
655	1.000000	0.258454	7.37146e+06	-44339.1	1005.82	-29776	0.000000	0.000000	6.258834	-0.039403	NaN	0.000000	0.001633	0.001675	28.0837	0.161901	0.001882	86.0415	-107.141	-162.231	-0.025994	0.257163	-0.742576	-0.743867	-0.039403	86.0415	-0.742233	-7.369960E+9	5.346443E-12	NaN
655	1.000000	0.266454	7.37146e+06	-44339.1	1005.82	-29776	0.000000	0.000000	6.266836	0.009344	NaN	0.000000	0.001615	0.001656	28.0841	0.054119	0.002044	26.4768	-161.161	-166.119	-0.074108	0.265167	-0.734576	-0.735863	0.009344	26.4768	-0.734840	-5.844792E+9	-1.598612E-12	NaN
655	1.000000	0.274458	7.37146e+06	-44339.1	1005.82	-29776	0.000000	0.000000	6.274836	-0.086461	NaN	0.000000	0.001612	0.001679	28.0843	0.076903	0.002078	37.0098	-93.4059	-160.875	-0.047945	0.273143	-0.726572	-0.727887	-0.086461	37.0098	-0.724819	-4.267663E+9	2.025963E-11	NaN
655	1.000000	0.282458	7.37146e+06	-44339.1	1005.82	-29776	0.000000	0.000000	6.282837	-0.053282	NaN	0.000000	0.001662	0.001649	28.0844	0.086399	0.002142	40.3275	-63.3764	-165.87	-0.035989	0.281172	-0.718572	-0.719858	-0.053282	40.3275	-0.717581	-3.400026E+9	1.567112E-11	NaN
655	1.000000	0.290437	7.37146e+06	-44339.1	1005.82	-29776	0.000000	0.000000	6.290817	-0.021325	NaN	0.000000	0.001656	0.001671	28.0842	0.071525	0.001940	36.8729	114.366	-167.903	-0.070435	0.289204	-0.710593	-0.711826	-0.021325	36.8729	-0.710159	-2.692922E+9	7.918942E-12	NaN
655	1.000000	0.298493	7.37146e+06	-44339.1	1005.82	-29776	0.000000	0.000000	6.298871	-0.071959	NaN	0.000000	0.001661	0.001655	28.0843	0.057600	0.001967	29.279	171.847	-163.731	0.006721	0.297141	-0.702537	-0.703889	-0.071959	29.279	-0.700694	-1.999897E+9	3.598120E-11	NaN
655	1.000000	0.306491	7.37146e+06	-44339.1	1005.82	-29776	0.000000	0.000000	6.306870	-0.063245	NaN	0.000000	0.001668	0.001650	28.0845	0.026453	0.001994	13.2657	40.7445	-164.648	-0.103459	0.305180	-0.694539	-0.695850	-0.063245	13.2657	-0.690963	-1.472600E+9	4.294755E-11	NaN
655	1.000000	0.314464	7.37146e+06	-44339.1	1005.82	-29776	0.000000	0.000000	6.314845	-0.030329	NaN	0.000000	0.001667	0.001705	28.0843	0.036149	0.001929	18.741	165.689	-164.21	-0.026679	0.313187	-0.686566	-0.687843	-0.030329	18.741	-0.685352	-1.234195E+9	2.457367E-11	NaN
655	1.000000	0.322478	7.37146e+06	-44339.1	1005.82	-29776	0.000000	0.000000	6.322857	-0.062903	NaN	0.000000	0.001700	0.001692	28.0846	0.062615	0.002099	29.8357	172.765	-164.88	-0.094435	0.321152	-0.678552	-0.679878	-0.062903	29.8357	-0.676971	-9.479230E+8	6.635912E-11	NaN
655	1.000000	0.330493	7.37146e+06	-44339.1	1005.82	-29776	0.000000	0.000000	6.330871	-0.079105	NaN	0.000000	0.001677	0.001660	28.0843	0.048676	0.002061	23.622	135.546	-165.893	-0.070894	0.329185	-0.670537	-0.671845	-0.079105	23.622	-0.668025	-7.150936E+8	1.106219E-10	NaN
655	1.000000	0.338453	7.37146e+06	-44339.1	1005.82	-29776	0.000000	0.000000	6.338831	-0.085140	NaN	0.000000	0.001699	0.001690	28.0842	0.056011	0.001983	28.2452	85.4056	-167.717	-0.086085	0.337223	-0.662577	-0.663807	-0.085140	28.2452	-0.660316	-5.607871E+8	1.518227E-10	NaN
655	1.000000	0.346481	7.37146e+06	-44339.1	1005.82	-29776	0.000000	0.000000	6.346858	-0.107060	NaN	0.000000	0.001676	0.001693	28.0844	0.051626	0.001995	25.8732	141.927	-163.932	-0.099501	0.345202	-0.654549	-0.655828	-0.107060	25.8732	-0.651445	-4.238849E+8	2.525697E-10	NaN
655	1.000000	0.354485	7.37146e+06	-44339.1	1005.82	-29776	0.000000	0.000000	6.354867	0.017891	NaN	0.000000	0.001681	0.001692	28.0842	0.029760	0.002069	14.3872	140.114	-166.325	-0.029323	0.353178	-0.646545	-0.647852	0.017891	14.3872	-0.647478	-3.739893E+8	-4.783699E-11	NaN
655	1.000000	0.362497	7.37146e+06	-44339.1	1005.82	-29776	0.000000	0.000000	6.362877	-0.044378	NaN	0.000000	0.001666	0.001692	28.0845	0.068835	0.001880	36.6167	-108.646	-166.09	-0.092248	0.361159	-0.638533	-0.639871	-0.044378	36.6167	-0.637624	-2.739606E+8	1.619865E-10	NaN
655	1.000000	0.370499	7.37146e+06	-44339.1	1005.82	-29776	0.000000	0.000000	6.370879	-0.039508	NaN	0.000000	0.001633	0.001666	28.0829	0.064219	0.001898	33.8311	102.705	-166.183	-0.028712	0.369213	-0.630531	-0.631817	-0.039508	33.8311	-0.629655	-2.129521E+8	1.855260E-10	NaN
655	1.000000	0.378505	7.37146e+06	-44339.1	1005.82	-29776	0.000000	0.000000	6.378882	-0.108713	NaN	0.000000	0.001637	0.001671	28.0832	0.102404	0.001846	55.4722	-25.7391	-166.414	-0.161835	0.377227	-0.622525	-0.623803	-0.108713	55.4722	-0.621055	-1.622336E+8	6.700992E-10	NaN
655	1.000000	0.386519	7.37146e+06	-44339.1	1005.82	-29776	0.000000	0.000000	6.386896	-0.107836	NaN	0.000000	0.001651	0.001672	28.0826	0.068652	0.001858	36.9569	-60.9524	-165.109	-0.120246	0.385234	-0.614511	-0.615796	-0.107836	36.9569	-0.612322	-1.230451E+8	8.763950E-10	NaN
655	1.000000	0.394484	7.37146e+06	-44339.1	1005.82	-29776	0.000000	0.000000	6.394864	-0.040948	NaN	0.000000	0.001627	0.001685	28.0825	0.079281	0.002072	38.2714	-146.565	-161.187	-0.024962	0.393222	-0.606546	-0.607808	-0.040948	38.2714	-0.605744	-9.989498E+7	4.099100E-10	NaN
655	1.000000	0.402513	7.37146e+06	-44339.1	1005.82	-29776	0.000000	0.000000	6.402891	-0.089473	NaN	0.000000	0.001668	0.001687	28.0828	0.088546	0.001929	45.8921	-11.5168	-164.497	-0.165122	0.401257	-0.598517	-0.599773	-0.089473	45.8921	-0.597055	-7.583966E+7	1.179767E-9	NaN
655	1.000000	0.410535	7.37146e+06	-44339.1	1005.82	-29776	0.000000	0.000000	6.410915	-0.030453	NaN	0.000000	0.001661	0.001714	28.0826	0.062463	0.002019	30.932	-26.9748	-164.602	-0.018657	0.409234	-0.590495	-0.591796	-0.030453	30.932	-0.589757	-6.016029E+7	5.061990E-10	NaN
655	1.000000	0.418516	7.37146e+06	-44339.1	1005.82	-29776	0.000000	0.000000	6.418898	0.025889	NaN	0.000000	0.001657	0.001691	28.0828	0.033686	0.002010	16.7561	-102.023	-162.656	0.026507	0.417266	-0.582514	-0.583764	0.025889	16.7561	-0.583673	-4.959156E+7	-5.220366E-10	NaN
655	1.000000	0.426501	7.37146e+06	-44339.1	1005.82	-29776	0.000000	0.000000	6.426881	-0.040920	NaN	0.000000	0.001611	0.001668	28.0826	0.027863	0.001898	14.6792	-95.5628	-164.132	-0.069502	0.425225	-0.574529	-0.575805	-0.040920	14.6792	-0.572438	-3.469857E+7	1.179286E-9	NaN
655	1.000000	0.434520	7.37146e+06	-44339.1	1005.82	-29776	0.000000	0.000000	6.434896	-0.146142	NaN	0.000000	0.001668	0.001665	28.0828	0.061844	0.002077	29.7703	101.978	-165.916	-0.143743	0.433220	-0.566510	-0.567809	-0.146142	29.7703	-0.562828	-2.555605E+7	5.718500E-9	NaN
655	1.000000	0.442550	7.37146e+06	-44339.1	1005.82	-29776	0.000000	0.000000	6.442928	-0.068429	NaN	0.000000	0.001678	0.001633	28.0827	0.024971	0.001988	12.563	-179.634	-166.697	-0.063961	0.441259	-0.558480	-0.559771	-0.068429	12.563	-0.554395	-1.953513E+7	3.502864E-9	NaN
655	1.000000	0.450518	7.37146e+06	-44339.1	1005.82	-29776	0.000000	0.000000	6.450897	-0.074612	NaN	0.000000	0.001637	0.001646	28.083	0.065150	0.002064	31.5582	13.4213	-164.629	-0.071261	0.449244	-0.550512	-0.551785	-0.074612	31.5582	-0.548738	-1.631098E+7	4.574318E-9	NaN
655	1.000000	0.458527	7.37146e+06	-44339.1	1005.82	-29776	0.000000	0.000000	6.458905	-0.083275	NaN	0.000000	0.001593	0.001685	28.0829	0.098978	0.002016	49.097	84.0438	-164.996	-0.046968	0.457211	-0.542503	-0.543819	-0.083275	49.097	-0.541231	-1.283592E+7	6.487636E-9	NaN
655	1.000000	0.466531	7.37146e+06	-44339.1	1005.82	-29776	0.000000	0.000000	6.466911	-0.045505	NaN	0.000000	0.001601	0.001687	28.083	0.039055	0.002016	19.3716	67.3559	-167.093	-0.087349	0.465187	-0.534499	-0.535843	-0.045505	19.3716	-0.532737	-9.78548e+06	4.650298E-9	NaN
655	1.000000	0.474537	7.37146e+06	-44339.1	1005.82	-29776	0.000000	0.000000	6.474915	-0.070404	NaN	0.000000	0.001707	0.001664	28.0828	0.050231	0.001969	25.5146	132.37	-164.805	-0.021189	0.473243	-0.526493	-0.527787	-0.070404	25.5146	-0.524424	-7.50074e+06	9.386240E-9	NaN
655	1.000000	0.482571	7.37146e+06	-44339.1	1005.82	-29776	0.000000	0.000000	6.482950	-0.056866	NaN	0.000000	0.001644	0.001647	28.0831	0.080589	0.002008	40.1388	-143.339	-164.09	-0.066133	0.481277	-0.518459	-0.519753	-0.056866	40.1388	-0.517397	-5.98944e+06	9.494399E-9	NaN
655	1.000000	0.490550	7.37146e+06	-44339.1	1005.82	-29776	0.000000	0.000000	6.490930	-0.044939	NaN	0.000000	0.001645	0.001682	28.0831	0.048654	0.001911	25.4638	-70.3545	-163.517	-0.038004	0.489268	-0.510480	-0.511762	-0.044939	25.4638	-0.509156	-4.59899e+06	9.771471E-9	NaN
655	1.000000	0.498565	7.37146e+06	-44339.1	1005.82	-29776	0.000000	0.000000	6.498946	-0.023546	NaN	0.000000	0.001657	0.001705	28.0828	0.123201	0.001947	63.2777	-81.7988	-163.921	0.020920	0.497220	-0.502465	-0.503810	-0.023546	63.2777	-0.502186	-3.67708e+06	6.403493E-9	NaN
655	1.000000	0.506563	7.37146e+06	-44339.1	1005.82	-29776	0.000000	0.000000	6.506942	-0.052957	NaN	0.000000	0.001646	0.001705	28.084	0.062498	0.002057	30.3877	-62.4081	-164.942	-0.088295	0.505218	-0.494467	-0.495811	-0.052957	30.3877	-0.493160	-2.75131e+06	1.924805E-8	NaN
655	1.000000	0.514589	7.37146e+06	-44339.1	1005.82	-29776	0.000000	0.000000	6.514968	-0.046640	NaN	0.000000	0.001673	0.001686	28.0842	0.044170	0.002106	20.973	134.927	-164.611	-0.004475	0.513271	-0.486441	-0.487759	-0.046640	20.973	-0.484774	-2.1005e+06	2.220404E-8	NaN
655	1.000000	0.522573	7.37146e+06	-44339.1	1005.82	-29776	0.000000	0.000000	6.522950	-0.091392	NaN	0.000000	0.001610	0.001707	28.0842	0.044947	0.002002	22.4481	-0.505359	-165.175	-0.054659	0.521212	-0.478457	-0.479818	-0.091392	22.4481	-0.475404	-1.55296e+06	5.885033E-8	NaN
655	1.000000	0.530582	7.37146e+06	-44339.1	1005.82	-29776	0.000000	0.000000	6.530959	-0.102415	NaN	0.000000	0.001579	0.001698	28.0844	0.054883	0.002079	26.4003	122.375	-165.549	-0.035772	0.529278	-0.470448	-0.471752	-0.102415	26.4003	-0.467539	-1.20471e+06	8.501211E-8	NaN
655	1.000000	0.538593	7.37146e+06	-44339.1	1005.82	-29776	0.000000	0.000000	6.538972	-0.049779	NaN	0.000000	0.001580	0.001694	28.0839	0.113746	0.001974	57.6183	-143.466	-165.849	-0.023522	0.537249	-0.462437	-0.463781	-0.049779	57.6183	-0.461789	-1.00037e+06	4.976072E-8	NaN
655	1.000000	0.546583	7.37146e+06	-44339.1	1005.82	-29776	0.000000	0.000000	6.546963	-0.053879	NaN	0.000000	0.001666	0.001675	28.084	0.102691	0.001952	52.6014	157.396	-165.237	-0.072372	0.545229	-0.454446	-0.455801	-0.053879	52.6014	-0.453678	-769344	7.003296E-8	NaN
655	1.000000	0.554615	7.37146e+06	-44339.1	1005.82	-29776	0.000000	0.000000	6.554996	-0.024950	NaN	0.000000	0.001666	0.001664	28.084	0.048949	0.001993	24.5604	-103.774	-167.191	-0.078151	0.553305	-0.446414	-0.447725	-0.024950	24.5604	-0.445653	-593051	4.207104E-8	NaN
655	1.000000	0.562599	7.37146e+06	-44339.1	1005.82	-29776	0.000000	0.000000	6.562978	-0.058943	NaN	0.000000	0.001663	0.001676	28.0841	0.103512	0.002097	49.3548	-99.4145	-167.901	-0.057441	0.561240	-0.438431	-0.439790	-0.058943	49.3548	-0.437536	-455588	1.293770E-7	NaN
655	1.000000	0.570590	7.37146e+06	-44339.1	1005.82	-29776	0.000000	0.000000	6.570969	-0.057712	NaN	0.000000	0.001606	0.001683	28.0843	0.052605	0.002014	26.1186	-104.277	-160.727	-0.083321	0.569309	-0.430440	-0.431721	-0.057712	26.1186	-0.428782	-342637	1.684351E-7	NaN
655	1.000000	0.578557	7.37146e+06	-44339.1	1005.82	-29776	0.000000	0.000000	6.578936	-0.066933	NaN	0.000000	0.001652	0.001696	28.0841	0.150525	0.002015	74.7004	-75.6561	-165.609	-0.160348	0.577281	-0.422473	-0.423749	-0.066933	74.7004	-0.421801	-272863	2.452997E-7	NaN
655	1.000000	0.586593	7.37146e+06	-44339.1	1005.82	-29776	0.000000	0.000000	6.586972	-0.056132	NaN	0.000000	0.001643	0.001688	28.084	0.041934	0.001960	21.3903	-43.2526	-167.79	-0.092577	0.585304	-0.414437	-0.415726	-0.056132	21.3903	-0.412469	-201140	2.790702E-7	NaN
655	1.000000	0.594608	7.37146e+06	-44339.1	1005.82	-29776	0.000000	0.000000	6.594987	-0.059283	NaN	0.000000	0.001662	0.001660	28.084	0.043330	0.002030	21.3487	-38.8931	-163.976	-0.082843	0.593323	-0.406422	-0.407706	-0.059283	21.3487	-0.404339	-154112	3.846755E-7	NaN
655	1.000000	0.602599	7.37146e+06	-44339.1	1005.82	-29776	0.000000	0.000000	6.602977	-0.081950	NaN	0.000000	0.001609	0.001636	28.0841	0.023825	0.002026	11.758	76.8075	-163.224	-0.017399	0.601300	-0.398431	-0.399730	-0.081950	11.758	-0.393204	-106899	7.666092E-7	NaN
655	1.000000	0.610586	7.37146e+06	-44339.1	1005.82	-29776	0.000000	0.000000	6.610966	-0.021875	NaN	0.000000	0.001571	0.001649	28.0842	0.037734	0.001902	19.8375	-52.0063	-162.495	-0.082941	0.609301	-0.390444	-0.391729	-0.021875	19.8375	-0.389617	-94992.7	2.302780E-7	NaN
655	1.000000	0.618629	7.37146e+06	-44339.1	1005.82	-29776	0.000000	0.000000	6.619007	-0.083478	NaN	0.000000	0.001598	0.001659	28.0841	0.048045	0.002156	22.2844	97.1129	-165.779	-0.140217	0.617291	-0.382401	-0.383739	-0.083478	22.2844	-0.379591	-68237.6	1.223351E-6	NaN
655	1.000000	0.626613	7.37146e+06	-44339.1	1005.82	-29776	0.000000	0.000000	6.626993	-0.042417	NaN	0.000000	0.001584	0.001677	28.0843	0.040637	0.001976	20.5666	-121.911	-162.578	-0.010475	0.625346	-0.374417	-0.375684	-0.042417	20.5666	-0.372870	-54631.2	7.764275E-7	NaN
655	1.000000	0.634609	7.37146e+06	-44339.1	1005.82	-29776	0.000000	0.000000	6.634987	-0.085768	NaN	0.000000	0.001556	0.001681	28.084	0.045981	0.001957	23.4898	46.2201	-162.295	0.004916	0.633302	-0.366421	-0.367728	-0.085768	23.4898	-0.363682	-40274.9	2.129564E-6	NaN
655	1.000000	0.642593	7.37146e+06	-44339.1	1005.82	-29776	0.000000	0.000000	6.642972	-0.078098	NaN	0.000000	0.001563	0.001659	28.0828	0.047236	0.002045	23.1004	175.202	-164.03	-0.164902	0.641304	-0.358437	-0.359726	-0.078098	23.1004	-0.355901	-31084.5	2.512432E-6	NaN
655	1.000000	0.650634	7.37146e+06	-44339.1	1005.82	-29776	0.000000	0.000000	6.651012	-0.087560	NaN	0.000000	0.001572	0.001622	28.0831	0.052867	0.002012	26.2733	42.0824	-163.12	-0.085196	0.649299	-0.350396	-0.351731	-0.087560	26.2733	-0.347896	-23793.5	3.680009E-6	NaN
655	1.000000	0.658611	7.37146e+06	-44339.1	1005.82	-29776	0.000000	0.000000	6.658988	-0.092258	NaN	0.000000	0.001585	0.001679	28.0827	0.084509	0.002033	41.5768	-43.9559	-165.264	0.001107	0.657305	-0.342419	-0.343725	-0.092258	41.5768	-0.340755	-18730.9	4.925459E-6	NaN
655	1.000000	0.666619	7.37146e+06	-44339.1	1005.82	-29776	0.000000	0.000000	6.666998	-0.075798	NaN	0.000000	0.001589	0.001677	28.083	0.074301	0.001949	38.1172	167.078	-164.074	-0.102627	0.665329	-0.334411	-0.335700	-0.075798	38.1172	-0.332919	-14393.7	5.266042E-6	NaN
655	1.000000	0.674611	7.37146e+06	-44339.1	1005.82	-29776	0.000000	0.000000	6.674990	-0.067627	NaN	0.000000	0.001591	0.001688	28.0828	0.047250	0.001958	24.1282	-176.532	-164.799	0.008417	0.673288	-0.326418	-0.327742	-0.067627	24.1282	-0.324316	-10767.1	6.280910E-6	NaN
655	1.000000	0.682648	7.37146e+06	-44339.1	1005.82	-29776	0.000000	0.000000	6.683026	-0.093332	NaN	0.000000	0.001595	0.001671	28.0832	0.062305	0.001983	31.4263	-109.303	-164.375	-0.118678	0.681317	-0.318382	-0.319713	-0.093332	31.4263	-0.316155	-8165.51	1.142999E-5	NaN
655	1.000000	0.690643	7.37146e+06	-44339.1	1005.82	-29776	0.000000	0.000000	6.691022	-0.056571	NaN	0.000000	0.001580	0.001664	28.0826	0.071868	0.002087	34.4435	86.8391	-169.449	-0.020346	0.689378	-0.310387	-0.311652	-0.056571	34.4435	-0.309155	-6435.02	8.791185E-6	NaN
655	1.000000	0.698636	7.37146e+06	-44339.1	1005.82	-29776	0.000000	0.000000	6.699013	-0.113886	NaN	0.000000	0.001551	0.001664	28.0825	0.058045	0.001980	29.3183	-153.813	-165.452	-0.022109	0.697292	-0.302394	-0.303738	-0.113886	29.3183	-0.299481	-4622.79	2.463572E-5	NaN
655	1.000000	0.706637	7.37146e+06	-44339.1	1005.82	-29776	0.000000	0.000000	6.707016	-0.065153	NaN	0.000000	0.001566	0.001728	28.0828	0.076378	0.001888	40.4632	173.197	-163.352	-0.021087	0.705335	-0.294393	-0.295695	-0.065153	40.4632	-0.293185	-3723.66	1.749709E-5	NaN
655	1.000000	0.714681	7.37146e+06	-44339.1	1005.82	-29776	0.000000	0.000000	6.715061	-0.039668	NaN	0.000000	0.001596	0.001705	28.0825	0.065806	0.001958	33.6044	141.088	-160.451	-0.101884	0.713337	-0.286349	-0.287693	-0.039668	33.6044	-0.285463	-2852.53	1.390643E-5	NaN
655	1.000000	0.722685	7.37146e+06	-44339.1	1005.82	-29776	0.000000	0.000000	6.723065	-0.020616	NaN	0.000000	0.001578	0.001690	28.0827	0.078175	0.002029	38.5238	-105.621	-163.823	-0.062022	0.721344	-0.278345	-0.279686	-0.020616	38.5238	-0.277944	-2197.49	9.381448E-6	NaN
655	1.000000	0.730645	7.37146e+06	-44339.1	1005.82	-29776	0.000000	0.000000	6.731025	-0.040109	NaN	0.000000	0.001540	0.001693	28.0827	0.134509	0.001930	69.686	170.379	-160.823	-0.091058	0.729360	-0.270385	-0.271670	-0.040109	69.686	-0.269953	-1662.77	2.412193E-5	NaN
655	1.000000	0.738656	7.37146e+06	-44339.1	1005.82	-29776	0.000000	0.000000	6.739037	-0.017749	NaN	0.000000	0.001566	0.001689	28.0827	0.071373	0.001865	38.2672	-142.489	-168.78	0.037742	0.737331	-0.262374	-0.263699	-0.017749	38.2672	-0.262026	-1258.77	1.410049E-5	NaN
655	1.000000	0.746664	7.37146e+06	-44339.1	1005.82	-29776	0.000000	0.000000	6.747040	-0.124501	NaN	0.000000	0.001565	0.001662	28.0826	0.072241	0.001906	37.8939	116.878	-165.189	-0.160640	0.745402	-0.254366	-0.255628	-0.124501	37.8939	-0.251902	-879.739	0.000142	NaN
655	1.000000	0.754671	7.37146e+06	-44339.1	1005.82	-29776	0.000000	0.000000	6.755049	-0.073462	NaN	0.000000	0.001577	0.001682	28.0824	0.077556	0.001981	39.1511	122.482	-160.579	-0.144103	0.753348	-0.246359	-0.247682	-0.073462	39.1511	-0.244952	-686.599	0.000107	NaN
655	1.000000	0.762654	7.37146e+06	-44339.1	1005.82	-29776	0.000000	0.000000	6.763033	-0.062461	NaN	0.000000	0.001627	0.001701	28.0829	0.031319	0.001988	15.7531	151.033	-165.974	-0.064199	0.761353	-0.238376	-0.239677	-0.062461	15.7531	-0.235402	-487.039	0.000128	NaN
655	1.000000	0.770669	7.37146e+06	-44339.1	1005.82	-29776	0.000000	0.000000	6.771049	-0.043261	NaN	0.000000	0.001676	0.001673	28.0826	0.070067	0.001950	35.9289	166.999	-167.367	-0.058434	0.769445	-0.230361	-0.231585	-0.043261	35.9289	-0.229458	-392.599	0.000110	NaN
655	1.000000	0.778674	7.37146e+06	-44339.1	1005.82	-29776	0.000000	0.000000	6.779052	-0.089958	NaN	0.000000	0.001630	0.001694	28.084	0.067584	0.002060	32.809	-163.761	-165.788	-0.132702	0.777365	-0.222356	-0.223665	-0.089958	32.809	-0.220299	-280.838	0.000320	NaN
655	1.000000	0.786676	7.37146e+06	-44339.1	1005.82	-29776	0.000000	0.000000	6.787055	-0.075385	NaN	0.000000	0.001626	0.001663	28.0837	0.060971	0.002010	30.3404	-33.3953	-164.801	-0.156706	0.785356	-0.214354	-0.215674	-0.075385	30.3404	-0.212490	-210.414	0.000358	NaN
655	1.000000	0.794665	7.37146e+06	-44339.1	1005.82	-29776	0.000000	0.000000	6.795043	-0.080315	NaN	0.000000	0.001627	0.001693	28.0838	0.144344	0.001814	79.5573	133.867	-164.626	-0.129450	0.793350	-0.206365	-0.207680	-0.080315	79.5573	-0.205608	-162.73	0.000494	NaN
655	1.000000	0.802717	7.37146e+06	-44339.1	1005.82	-29776	0.000000	0.000000	6.803096	-0.062899	NaN	0.000000	0.001630	0.001677	28.0839	0.107574	0.002070	51.9652	62.2617	-162.098	-0.026815	0.801377	-0.198313	-0.199653	-0.062899	51.9652	-0.197405	-119.391	0.000527	NaN
655	1.000000	0.810673	7.37146e+06	-44339.1	1005.82	-29776	0.000000	0.000000	6.811053	-0.044825	NaN	0.000000	0.001593	0.001704	28.0839	0.043540	0.002056	21.1815	-15.6964	-161.599	-0.044213	0.809351	-0.190357	-0.191679	-0.044825	21.1815	-0.188770	-85.7928	0.000522	NaN
655	1.000000	0.818677	7.37146e+06	-44339.1	1005.82	-29776	0.000000	0.000000	6.819059	-0.005186	NaN	0.000000	0.001562	0.001679	28.0841	0.032489	0.002002	16.2258	-29.982	-165.817	-0.006517	0.817312	-0.182352	-0.183718	-0.005186	16.2258	-0.182113	-66.2734	7.824694E-5	NaN
655	1.000000	0.826701	7.37146e+06	-44339.1	1005.82	-29776	0.000000	0.000000	6.827080	-0.053319	NaN	0.000000	0.001577	0.001667	28.0838	0.065444	0.002019	32.4078	108.991	-162.756	-0.003852	0.825423	-0.174329	-0.175606	-0.053319	32.4078	-0.173095	-46.4718	0.001147	NaN
655	1.000000	0.834706	7.37146e+06	-44339.1	1005.82	-29776	0.000000	0.000000	6.835083	-0.119943	NaN	0.000000	0.001557	0.001668	28.0839	0.058414	0.001982	29.4732	-143.867	-163.896	-0.103753	0.833420	-0.166324	-0.167610	-0.119943	29.4732	-0.163271	-31.3249	0.003829	NaN
655	1.000000	0.842709	7.37146e+06	-44339.1	1005.82	-29776	0.000000	0.000000	6.843090	-0.024088	NaN	0.000000	0.001576	0.001681	28.084	0.017455	0.002022	8.634137	140.943	-166.259	-0.047393	0.841392	-0.158321	-0.159638	-0.024088	8.634137	-0.156228	-23.4773	0.001026	NaN
655	1.000000	0.850698	7.37146e+06	-44339.1	1005.82	-29776	0.000000	0.000000	6.851075	-0.104670	NaN	0.000000	0.001555	0.001726	28.0844	0.081175	0.001903	42.6454	-71.8544	-166.755	-0.141623	0.849418	-0.150332	-0.151612	-0.104670	42.6454	-0.148491	-16.9994	0.006157	NaN
655	1.000000	0.858719	7.37146e+06	-44339.1	1005.82	-29776	0.000000	0.000000	6.859099	-0.050890	NaN	0.000000	0.001578	0.001676	28.0843	0.074065	0.002070	35.7875	-114.495	-161.442	-0.094509	0.857414	-0.142311	-0.143616	-0.050890	35.7875	-0.141244	-12.4822	0.004077	NaN
655	1.000000	0.866717	7.37146e+06	-44339.1	1005.82	-29776	0.000000	0.000000	6.867096	-0.057672	NaN	0.000000	0.001573	0.001718	28.0841	0.071501	0.001986	36.0077	-129.003	-167.275	-0.028616	0.865437	-0.134313	-0.135593	-0.057672	36.0077	-0.133112	-8.752469	0.006589	NaN
655	1.000000	0.874743	7.37146e+06	-44339.1	1005.82	-29776	0.000000	0.000000	6.875119	-0.139580	NaN	0.000000	0.001570	0.001692	28.0841	0.075849	0.001925	39.3954	132.368	-163.652	-0.119885	0.873361	-0.126287	-0.127669	-0.139580	39.3954	-0.123629	-5.712149	0.024436	NaN
655	1.000000	0.882719	7.37146e+06	-44339.1	1005.82	-29776	0.000000	0.000000	6.883098	-0.058844	NaN	0.000000	0.001553	0.001698	28.0841	0.221259	0.001960	112.902	-169.1	-165.576	-0.043873	0.881411	-0.118311	-0.119619	-0.058844	112.902	-0.117920	-4.384536	0.013421	NaN
655	1.000000	0.890721	7.37146e+06	-44339.1	1005.82	-29776	0.000000	0.000000	6.891099	-0.098512	NaN	0.000000	0.001581	0.001704	28.084	0.076950	0.001918	40.1203	-120.791	-163.378	-0.015988	0.889389	-0.110309	-0.111641	-0.098512	40.1203	-0.108467	-2.788911	0.035323	NaN
655	1.000000	0.898749	7.37146e+06	-44339.1	1005.82	-29776	0.000000	0.000000	6.899127	-0.098064	NaN	0.000000	0.001565	0.001709	28.0842	0.038619	0.001883	20.5095	166.275	-163.23	-0.022090	0.897422	-0.102281	-0.103608	-0.098064	20.5095	-0.098695	-1.708995	0.057381	NaN
655	1.000000	0.906712	7.37146e+06	-44339.1	1005.82	-29776	0.000000	0.000000	6.907094	-0.010169	NaN	0.000000	0.001589	0.001697	28.0839	0.101136	0.002003	50.497	75.0201	-162.92	-0.073279	0.905387	-0.094317	-0.095643	-0.010169	50.497	-0.094166	-1.350134	0.007532	NaN
655	1.000000	0.914724	7.37146e+06	-44339.1	1005.82	-29776	0.000000	0.000000	6.915103	-0.053287	NaN	0.000000	0.001590	0.001665	28.0829	0.078574	0.002054	38.2594	-96.3562	-164.266	-0.090846	0.913370	-0.086306	-0.087659	-0.053287	38.2594	-0.085261	-0.833681	0.063917	NaN
655	1.000000	0.922730	7.37146e+06	-44339.1	1005.82	-29776.1	0.000000	0.000000	6.923111	-0.028285	NaN	0.000000	0.001606	0.001708	28.0828	0.076057	0.001883	40.3965	-67.5886	-165.752	-0.046240	0.921417	-0.078300	-0.079613	-0.028285	40.3965	-0.077775	-0.544031	0.051991	NaN
655	1.000000	0.930733	7.37146e+06	-44339.1	1005.82	-29776	0.000000	0.000000	6.931114	0.002582	NaN	0.000000	0.001590	0.001703	28.0828	0.065754	0.001914	34.3457	-95.8445	-164.088	-0.035220	0.929415	-0.070297	-0.071614	0.002582	34.3457	-0.070354	-0.348619	-0.007407	NaN
655	1.000000	0.938716	7.37146e+06	-44339.1	1005.82	-29776	0.000000	0.000000	6.939096	-0.023659	NaN	0.000000	0.001572	0.001669	28.0827	0.044206	0.002007	22.0266	161.066	-164.091	-0.031123	0.937422	-0.062314	-0.063608	-0.023659	22.0266	-0.061509	-0.198869	0.118967	NaN
655	1.000000	0.946741	7.37146e+06	-44339.1	1005.82	-29776.1	0.000000	0.000000	6.947118	-0.115301	NaN	0.000000	0.001545	0.001671	28.0827	0.071663	0.001904	37.6412	139.246	-165.784	-0.032373	0.945401	-0.054289	-0.055628	-0.115301	37.6412	-0.051991	-0.104767	1.100545	NaN
655	1.000000	0.954745	7.37146e+06	-44339.1	1005.82	-29776	0.000000	0.000000	6.955123	-0.102248	NaN	0.000000	0.001559	0.001694	28.083	0.047164	0.001921	24.5539	169.347	-163.146	-0.222119	0.953411	-0.046285	-0.047619	-0.102248	24.5539	-0.043161	-0.056463	1.810891	NaN
655	1.000000	0.962710	7.37146e+06	-44339.1	1005.82	-29776.1	0.000000	0.000000	6.963088	-0.083224	NaN	0.000000	0.001591	0.001658	28.0825	0.011101	0.002074	5.351583	47.9053	-163.644	-0.032928	0.961404	-0.038320	-0.039626	-0.083224	5.351583	-0.026657	-0.018657	4.460883	NaN
655	1.000000	0.970718	7.37146e+06	-44339.1	1005.82	-29776.1	0.000000	0.000000	6.971096	-0.094259	NaN	0.000000	0.001577	0.001670	28.0827	0.052085	0.002034	25.6074	-89.8555	-162.157	-0.029157	0.969434	-0.030312	-0.031596	-0.094259	25.6074	-0.027551	-0.019716	4.780855	NaN
655	1.000000	0.978717	7.37146e+06	-44339.1	1005.82	-29776.1	0.000000	0.000000	6.979096	-0.058721	NaN	0.000000	0.001605	0.001680	28.0828	0.049710	0.001960	25.3668	178.405	-166.999	-0.068832	0.977436	-0.022313	-0.023593	-0.058721	25.3668	-0.020577	-0.012992	4.519740	NaN
655	1.000000	0.986761	7.37146e+06	-44339.1	1005.82	-29776.1	0.000000	0.000000	6.987138	-0.108349	NaN	0.000000	0.001602	0.001657	28.0827	0.088890	0.002053	43.303	-71.9643	-165.079	-0.121491	0.985436	-0.014269	-0.015594	-0.108349	43.303	-0.012393	-0.007753	13.9747	NaN
655	1.000000	0.994761	7.37146e+06	-44339.1	1005.82	-29776.1	0.000000	0.000000	6.995141	-0.033082	NaN	0.000000	0.001593	0.001680	28.0829	0.038972	0.001975	19.729	-24.382	-161.072	-0.048131	0.993455	-0.006269	-0.007575	-0.033082	19.729	-0.005012	-0.003424	9.662093	NaN
655	1.000000	1.002769	7.37146e+06	-44339.1	1005.82	-29776.1	0.000000	0.000000	7.003149	-0.032076	NaN	0.000000	0.001570	0.001681	28.0827	0.087501	0.001973	44.3477	-70.5439	-165.265	-0.029298	1.001422	0.001739	0.000392	-0.032076	44.3477	0.002282	0.001784	-17.9814	959.322
655	1.000000	1.010747	7.37146e+06	-44339.1	1005.82	-29776.1	0.000000	0.000000	7.011128	-0.027080	NaN	0.000000	0.001638	0.001660	28.0829	0.039924	0.001922	20.7741	170.16	-167.085	-0.038886	1.009403	0.009717	0.008373	-0.027080	20.7741	0.010695	0.009964	-2.717819	190.142
655	1.000000	1.018757	7.37146e+06	-44339.1	1005.82	-29776.1	0.000000	0.000000	7.019137	-0.044879	NaN	0.000000	0.001560	0.001702	28.0829	0.109303	0.001980	55.2077	-54.9372	-163.424	-0.028723	1.017442	0.017728	0.016412	-0.044879	55.2077	0.018337	0.019997	-2.244337	356.694
655	1.000000	1.026770	7.37146e+06	-44339.1	1005.82	-29776.1	0.000000	0.000000	7.027151	0.000270	NaN	0.000000	0.001563	0.001668	28.0832	0.114660	0.001955	58.6447	-44.8794	-162.864	-0.038593	1.025446	0.025740	0.024416	0.000270	58.6447	0.025736	0.032369	0.008326	297.811
655	1.000000	1.034762	7.37146e+06	-44339.1	1005.82	-29776.1	0.000000	0.000000	7.035143	-0.005100	NaN	0.000000	0.001564	0.001714	28.0827	0.084317	0.002075	40.6406	26.4594	-165.346	0.009424	1.033433	0.033732	0.032403	-0.005100	40.6406	0.033826	0.049048	-0.103987	167.658
655	1.000000	1.042777	7.37146e+06	-44339.1	1005.82	-29776.1	0.000000	0.000000	7.043155	-0.093650	NaN	0.000000	0.001630	0.001702	28.0826	0.014632	0.002106	6.947168	-108.737	-162.106	-0.051261	1.041426	0.041747	0.040396	-0.093650	6.947168	0.051858	0.098241	-0.953262	20.2504
655	1.000000	1.050772	7.37146e+06	-44339.1	1005.82	-29776.1	0.000000	0.000000	7.051263	2.669081	NaN	0.000000	0.001657	0.001721	28.0843	2.354413	0.001876	1255.24	9.301061	-166.621	1.735093	1.049487	0.049742	0.048458	2.669081	1255.24	0.048147	0.086772	30.7597	3893.22
655	1.000000	1.058646	7.37146e+06	-44339.1	1005.82	-29776.1	0.000000	0.000000	7.059432	9.835831	NaN	0.000000	0.001630	0.001690	28.0839	4.248586	0.001885	2253.35	8.889500	-164.206	8.611462	1.057429	0.057616	0.056399	9.835831	2253.35	0.054343	0.106307	92.5228	6314.23
655	2.000000	1.061278	7.37146e+06	-44339.1	1005.82	-29776.1	0.000000	0.000000	7.062159	12.1666	NaN	0.000000	0.001627	0.001653	28.0844	5.349400	0.001981	2700.45	8.344108	-166.974	11.839	1.060921	0.060248	0.059891	12.1666	2700.45	0.056869	0.114820	105.963	7281.18
655	2.000000	1.063226	7.37146e+06	-44339.1	1005.82	-29776.1	0.000000	0.000000	7.064220	14.9171	NaN	0.000000	0.001697	0.001682	28.0841	6.111752	0.001993	3066.77	11.2611	-168.956	14.1283	1.062903	0.062196	0.061873	14.9171	3066.77	0.058548	0.120652	123.638	8066.54
655	2.000000	1.065253	7.37146e+06	-44339.1	1005.82	-29776.1	0.000000	0.000000	7.066358	17.6114	NaN	0.000000	0.001660	0.001702	28.084	6.834583	0.001906	3586.18	10.5812	-170.314	17.2852	1.064868	0.064223	0.063838	17.6114	3586.18	0.060540	0.127750	137.858	9166.94
655	2.000000	1.067197	7.37146e+06	-44339.1	1005.82	-29776.1	0.000000	0.000000	7.068425	20.5963	NaN	0.000000	0.001679	0.001694	28.0843	7.238552	0.001798	4024.87	7.047809	-168.89	20.2843	1.066917	0.066167	0.065887	20.5963	4024.87	0.062329	0.134293	153.368	10034.6
655	2.000000	1.069250	7.37146e+06	-44339.1	1005.82	-29776.1	0.000000	0.000000	7.070606	23.7081	NaN	0.000000	0.001653	0.001706	28.0842	8.214419	0.001855	4427.09	11.7206	-172.806	23.7374	1.068957	0.068220	0.067927	23.7081	4427.09	0.064203	0.141311	167.773	10759.8
655	2.000000	1.071222	7.37146e+06	-44339.1	1005.82	-29776.1	0.000000	0.000000	7.072744	27.7528	NaN	0.000000	0.001686	0.001651	28.0841	8.990190	0.001908	4712.98	9.129862	-169.886	27.2945	1.070866	0.070192	0.069836	27.7528	4712.98	0.065775	0.147329	188.373	11218.2
655	2.000000	1.073210	7.37146e+06	-44339.1	1005.82	-29776.1	0.000000	0.000000	7.074859	30.8337	NaN	0.000000	0.001684	0.001633	28.084	9.670771	0.001993	4851.58	11.2106	-172.386	30.3617	1.072851	0.072180	0.071821	30.8337	4851.58	0.067414	0.153726	200.576	11305.3
655	2.000000	1.075186	7.37146e+06	-44339.1	1005.82	-29776.1	0.000000	0.000000	7.076963	33.9305	NaN	0.000000	0.001609	0.001683	28.0841	10.4996	0.001981	5300.65	12.8465	-174.324	33.1461	1.074869	0.074156	0.073839	33.9305	5300.65	0.069356	0.161476	210.127	12051.7
655	2.000000	1.077200	7.37146e+06	-44339.1	1005.82	-29776.1	0.000000	0.000000	7.079134	37.7602	NaN	0.000000	0.001604	0.001687	28.0842	10.6504	0.001960	5433.17	10.7441	-171.636	37.7906	1.076847	0.076171	0.075817	37.7602	5433.17	0.070958	0.168007	224.753	12110.5
655	2.000000	1.079200	7.37146e+06	-44339.1	1005.82	-29776.1	0.000000	0.000000	7.081320	42.2901	NaN	0.000000	0.001596	0.001685	28.0841	11.9154	0.001932	6167.51	10.9406	-175.146	42.2426	1.078833	0.078170	0.077803	42.2901	6167.51	0.073027	0.176621	239.44	13407.9
655	2.000000	1.081222	7.37146e+06	-44339.1	1005.82	-29776.1	0.000000	0.000000	7.083512	46.4234	NaN	0.000000	0.001616	0.001697	28.0841	12.5988	0.001966	6409.49	10.5511	-172.753	46.4106	1.080835	0.080192	0.079805	46.4234	6409.49	0.074760	0.183989	252.316	13652.1
655	2.000000	1.083171	7.37146e+06	-44339.1	1005.82	-29776.1	0.000000	0.000000	7.085629	50.5344	NaN	0.000000	0.001607	0.001702	28.0844	13.2746	0.001954	6794.56	12.7067	-175.627	49.2058	1.082835	0.082141	0.081805	50.5344	6794.56	0.076563	0.191804	263.47	14174.4
655	2.000000	1.085161	7.37146e+06	-44339.1	1005.82	-29776.1	0.000000	0.000000	7.087761	53.9647	NaN	0.000000	0.001613	0.001711	28.084	14.0562	0.002022	6950.54	11.071	-174.295	53.1129	1.084856	0.084131	0.083827	53.9647	6950.54	0.078308	0.199516	270.478	14216.8
655	2.000000	1.087163	7.37146e+06	-44339.1	1005.82	-29776.1	0.000000	0.000000	7.089916	57.6955	NaN	0.000000	0.001609	0.001721	28.084	14.4925	0.001966	7372.47	7.205732	-171.085	56.692	1.086854	0.086133	0.085824	57.6955	7372.47	0.080264	0.208327	276.947	14757.5
655	2.000000	1.089153	7.37146e+06	-44339.1	1005.82	-29776.1	0.000000	0.000000	7.092116	62.8005	NaN	0.000000	0.001602	0.001724	28.0839	15.4393	0.001982	7790.09	7.858768	-171.241	63.0178	1.088855	0.088123	0.087825	62.8005	7790.09	0.082077	0.216656	289.863	15290.8
655	2.000000	1.091178	7.37146e+06	-44339.1	1005.82	-29776.1	0.000000	0.000000	7.094387	68.7864	NaN	0.000000	0.001606	0.001694	28.0829	16.5204	0.001934	8544.15	11.351	-176.261	69.0248	1.090816	0.090148	0.089786	68.7864	8544.15	0.084110	0.226173	304.132	16414.3
655	2.000000	1.093133	7.37146e+06	-44339.1	1005.82	-29776.1	0.000000	0.000000	7.096582	74.625	NaN	0.000000	0.001600	0.001712	28.0828	17.561	0.001937	9066.52	12.7148	-179.102	73.3294	1.092813	0.092104	0.091783	74.625	9066.52	0.085930	0.234860	317.742	17092.6
655	2.000000	1.095151	7.37146e+06	-44339.1	1005.82	-29776.1	0.000000	0.000000	7.098776	78.9029	NaN	0.000000	0.001586	0.001723	28.0828	18.6506	0.001875	9949.09	8.663734	-175.067	77.4788	1.094811	0.094121	0.093781	78.9029	9949.09	0.088173	0.245770	321.044	18335.5
655	2.000000	1.097157	7.37146e+06	-44339.1	1005.82	-29776.1	0.000000	0.000000	7.100962	83.2732	NaN	0.000000	0.001616	0.001704	28.083	19.7084	0.001925	10237.7	8.122122	-174.803	82.6864	1.096876	0.096127	0.095846	83.2732	10237.7	0.090027	0.254964	326.608	18524
655	2.000000	1.099138	7.37146e+06	-44339.1	1005.82	-29776.1	0.000000	0.000000	7.103202	89.5794	NaN	0.000000	0.001629	0.001722	28.0828	21.4643	0.001961	10945.9	11.4343	-179.345	89.5866	1.098825	0.098108	0.097795	89.5794	10945.9	0.091970	0.264770	338.329	19435.3
655	2.000000	1.101165	7.37146e+06	-44339.1	1005.82	-29776.1	0.000000	0.000000	7.105553	97.4809	NaN	0.000000	0.001572	0.001706	28.0825	22.7728	0.001853	12289	10.8893	-179.562	97.2299	1.100763	0.100135	0.099733	97.4809	12289	0.094185	0.276160	352.987	21365.3
655	2.000000	1.103172	7.37146e+06	-44339.1	1005.82	-29776.1	0.000000	0.000000	7.107852	104.565	NaN	0.000000	0.001621	0.001711	28.0827	23.2071	0.001728	13428.7	6.300434	-175.882	104.325	1.102840	0.102142	0.101810	104.565	13428.7	0.096302	0.287253	364.018	22891.5
655	2.000000	1.105114	7.37146e+06	-44339.1	1005.82	-29776.1	0.000000	0.000000	7.110083	111.586	NaN	0.000000	0.001553	0.001701	28.0849	25.1196	0.001862	13492	8.912679	-178.12	109.301	1.104836	0.104085	0.103806	111.586	13492	0.097882	0.295662	377.41	22670.1
655	2.000000	1.107104	7.37146e+06	-44339.1	1005.82	-29776.1	0.000000	0.000000	7.112364	118.704	NaN	0.000000	0.001589	0.001685	28.087	26.2059	0.001857	14112.5	12.8352	176.588	116.957	1.106818	0.106074	0.105788	118.704	14112.5	0.099765	0.305839	388.125	23314.8
655	2.000000	1.109146	7.37146e+06	-44339.1	1005.82	-29776.1	0.000000	0.000000	7.114620	123.897	NaN	0.000000	0.001597	0.001717	28.0832	27.5213	0.001823	15097.7	5.270083	-176.515	123	1.108808	0.108116	0.107778	123.897	15097.7	0.101961	0.317908	389.725	24464.3
655	2.000000	1.111156	7.37146e+06	-44339.1	1005.82	-29776.1	0.000000	0.000000	7.117026	133.528	NaN	0.000000	0.001574	0.001750	28.0833	28.7034	0.001830	15683.1	7.746453	-178.738	134.28	1.110875	0.110126	0.109845	133.528	15683.1	0.103741	0.327848	407.287	25024.8
655	2.000000	1.113183	7.37146e+06	-44339.1	1005.82	-29776.1	0.000000	0.000000	7.119459	143.398	NaN	0.000000	0.001596	0.001707	28.0829	29.9873	0.001803	16631.5	9.656749	178.583	144.133	1.112756	0.112153	0.111726	143.398	16631.5	0.105687	0.338886	423.146	26102.2
655	2.000000	1.115101	7.37146e+06	-44339.1	1005.82	-29776.1	0.000000	0.000000	7.121750	152.489	NaN	0.000000	0.001589	0.001788	28.0827	30.5508	0.001719	17774.8	7.049723	-179.557	150.752	1.114836	0.114071	0.113806	152.489	17774.8	0.107637	0.350115	435.541	27445.6
655	2.000000	1.117126	7.37146e+06	-44339.1	1005.82	-29776.1	0.000000	0.000000	7.124150	161.609	NaN	0.000000	0.001585	0.001747	28.0828	31.9086	0.001842	17318.2	8.305766	179.312	161.146	1.116828	0.116096	0.115798	161.609	17318.2	0.109097	0.358639	450.617	26420.9
655	2.000000	1.119117	7.37146e+06	-44339.1	1005.82	-29776.1	0.000000	0.000000	7.126475	169.727	NaN	0.000000	0.001593	0.001721	28.0825	33.4885	0.001941	17256.4	7.806628	-179.847	168.517	1.118825	0.118087	0.117795	169.727	17256.4	0.110710	0.368167	461.005	25983.7
655	2.000000	1.121124	7.37146e+06	-44339.1	1005.82	-29776.1	0.000000	0.000000	7.128904	179.987	NaN	0.000000	0.001569	0.001740	28.0827	34.7275	0.001883	18438.2	9.480613	177.872	179.451	1.120799	0.120094	0.119769	179.987	18438.2	0.112773	0.380519	473.005	27308.8
655	2.000000	1.123124	7.37146e+06	-44339.1	1005.82	-29776.1	0.000000	0.000000	7.131287	189.292	NaN	0.000000	0.001578	0.001703	28.0827	35.7578	0.001955	18289.1	10.2007	177.043	188.582	1.122805	0.122095	0.121775	189.292	18289.1	0.114332	0.389987	485.38	26757.2
655	2.000000	1.125108	7.37146e+06	-44339.1	1005.82	-29776.1	0.000000	0.000000	7.133698	199.691	NaN	0.000000	0.001585	0.001702	28.084	36.9274	0.001975	18699.2	8.256505	179.366	197.88	1.124796	0.124078	0.123766	199.691	18699.2	0.116069	0.400660	498.405	26990.4
655	2.000000	1.127100	7.37146e+06	-44339.1	1005.82	-29776.1	0.000000	0.000000	7.136062	208.736	NaN	0.000000	0.001594	0.001693	28.084	37.4839	0.001817	20625.2	8.133709	178.154	206.894	1.126719	0.126070	0.125689	208.736	20625.2	0.118480	0.415707	502.122	29226.6
655	2.000000	1.129097	7.37146e+06	-44339.1	1005.82	-29776.1	0.000000	0.000000	7.138477	218.903	NaN	0.000000	0.001611	0.001738	28.084	38.52	0.001681	22912.7	4.943620	179.978	218.177	1.128778	0.128067	0.127748	218.903	22912.7	0.120902	0.431086	507.795	31883.6
655	2.000000	1.131113	7.37146e+06	-44339.1	1005.82	-29776.1	0.000000	0.000000	7.140971	230.559	NaN	0.000000	0.001639	0.001723	28.0843	41.4223	0.001815	22821.4	9.267376	176.015	228.996	1.130767	0.130083	0.129737	230.559	22821.4	0.122506	0.441418	522.315	31382.7
655	2.000000	1.133104	7.37146e+06	-44339.1	1005.82	-29776.1	0.000000	0.000000	7.143377	240.632	NaN	0.000000	0.001616	0.001721	28.084	42.5139	0.001771	24003	8.050223	176.565	239.933	1.132713	0.132075	0.131683	240.632	24003	0.124556	0.454794	529.102	32518.5
655	2.000000	1.135066	7.37146e+06	-44339.1	1005.82	-29776.1	0.000000	0.000000	7.145729	250.134	NaN	0.000000	0.001591	0.001730	28.0841	44.4997	0.001965	22650.2	6.495750	179.252	248.117	1.134856	0.134036	0.133826	250.134	22650.2	0.125754	0.462698	540.6	30422.6
655	2.000000	1.137084	7.37146e+06	-44339.1	1005.82	-29776.1	0.000000	0.000000	7.148100	258.718	NaN	0.000000	0.001597	0.001694	28.084	45.1029	0.001896	23786.6	7.369221	177.061	257.862	1.136797	0.136054	0.135767	258.718	23786.6	0.127897	0.477004	542.38	31466.3
655	2.000000	1.139088	7.37146e+06	-44339.1	1005.82	-29776.1	0.000000	0.000000	7.150552	269.605	NaN	0.000000	0.001607	0.001722	28.084	47.0047	0.001848	25433.2	6.877546	177.165	268.279	1.138803	0.138058	0.137773	269.605	25433.2	0.130108	0.491982	547.998	33128.4
655	2.000000	1.141081	7.37146e+06	-44339.1	1005.82	-29776.1	0.000000	0.000000	7.153143	284.17	NaN	0.000000	0.001582	0.001742	28.0844	47.4663	0.001866	25433.4	6.269933	177.898	281.574	1.140690	0.140051	0.139660	284.17	25433.4	0.131671	0.502705	565.282	32773.3
655	2.000000	1.143069	7.37146e+06	-44339.1	1005.82	-29776.1	0.000000	0.000000	7.155541	294.136	NaN	0.000000	0.001554	0.001722	28.0839	48.8267	0.001833	26635.4	8.527787	175.234	292.552	1.142789	0.142039	0.141759	294.136	26635.4	0.133757	0.517190	568.72	33838.2
655	2.000000	1.145061	7.37146e+06	-44339.1	1005.82	-29776.1	0.000000	0.000000	7.158050	306.727	NaN	0.000000	0.001571	0.001729	28.084	50.191	0.001955	25670	7.430593	176.668	305.091	1.144824	0.144031	0.143794	306.727	25670	0.135069	0.526405	582.682	32325.1
655	2.000000	1.147085	7.37146e+06	-44339.1	1005.82	-29776.1	0.000000	0.000000	7.160445	315.748	NaN	0.000000	0.001576	0.001693	28.0838	50.3907	0.001709	29487.1	6.303215	175.852	313.56	1.146754	0.146055	0.145724	315.748	29487.1	0.138024	0.547443	576.769	36411.3
655	2.000000	1.149047	7.37146e+06	-44339.1	1005.82	-29776.1	0.000000	0.000000	7.162818	325.742	NaN	0.000000	0.001589	0.001723	28.084	53.083	0.001777	29874.5	7.327079	174.647	324.421	1.148724	0.148017	0.147694	325.742	29874.5	0.139839	0.560564	581.097	36455.4
655	2.000000	1.151055	7.37146e+06	-44339.1	1005.82	-29776.1	0.000000	0.000000	7.165455	341.036	NaN	0.000000	0.001597	0.001709	28.0838	54.9075	0.001767	31081.8	7.728561	174.219	338.272	1.150751	0.150025	0.149721	341.036	31081.8	0.141796	0.574879	593.23	37453.4
655	2.000000	1.153082	7.37146e+06	-44339.1	1005.82	-29776.1	0.000000	0.000000	7.167936	352.077	NaN	0.000000	0.001540	0.001736	28.0837	55.9641	0.001863	30040.8	4.824295	177.612	351.839	1.152712	0.152052	0.151682	352.077	30040.8	0.143262	0.585722	601.099	35862.3
655	2.000000	1.155039	7.37146e+06	-44339.1	1005.82	-29776.1	0.000000	0.000000	7.170301	362.017	NaN	0.000000	0.001609	0.001673	28.084	58.051	0.001821	31885.3	9.773412	171.796	359.843	1.154798	0.154009	0.153768	362.017	31885.3	0.145494	0.602418	600.939	37533.2
655	2.000000	1.157044	7.37146e+06	-44339.1	1005.82	-29776.1	0.000000	0.000000	7.172795	373.902	NaN	0.000000	0.001607	0.001705	28.0844	59.1716	0.001930	30660.8	10.569	171.887	371.336	1.156691	0.156014	0.155661	373.902	30660.8	0.146868	0.612813	610.141	35784.3
655	2.000000	1.158085	7.37146e+06	-44339.1	1005.82	-29776.1	0.000000	0.000000	7.174069	379.586	NaN	0.000000	0.001601	0.001725	28.0839	59.9568	0.001857	32282.7	6.431703	175.148	378.778	1.157796	0.157055	0.156766	379.586	32282.7	0.148237	0.623251	609.042	37360.4