File: remote_trans/data/nanoindenter/0828-1/data/Data_2025-08-06,11h17m57s/2025-07-22_16-23-58_1_8.txt
2025-07-22, 16:23:58, 1
Index	Phase	Displacement	Time	Pos X	Pos Y	Pos Z	Rot A	Rot B	Piezo Z	Force A	Force B	Gripper	Voltage A	Voltage B	Temperature	Amplitude force	Amplitude pos	Stiffness	Phase shift	Phase excitation	Force A raw	Displacement raw	HMax	HMax raw	Real Force	Real Stiffness	Contact Depth	Area	Hardness	Reduced Mod.
[#]	[#]	[um]	[s]	[um]	[um]	[um]	[m°]	[m°]	[um]	[uN]	[uN]	[V]	[V]	[V]	[°C]	[uN]	[um]	[N/m]	[°]	[°]	[uN]	[um]	[um]	[um]	[uN]	[N/m]	[um]	[um^2]	[MPa]	[MPa]
8.000000	1.000000	0.002798	7.36512e+06	-39039.1	955.818	-29796	0.000000	0.000000	6.002831	-0.053004	NaN	0.000000	0.001509	0.001713	28.0812	0.076307	0.000928	82.2043	165.641	-167.138	-0.038568	0.001562	-1.140698	-1.141934	-0.053004	82.2043	-1.140215	-1.736260E+15	3.052756E-17	NaN
8.000000	1.000000	0.012816	7.36512e+06	-39039.1	955.819	-29796	0.000000	0.000000	6.012851	-0.018959	NaN	0.000000	0.001554	0.001729	28.1061	0.155966	0.001307	119.373	-143.062	18.6818	0.041445	0.011401	-1.130680	-1.132095	-0.018959	119.373	-1.130561	-1.288679E+15	1.471225E-17	NaN
8.000000	1.000000	0.022701	7.36512e+06	-39039.1	955.818	-29796	0.000000	0.000000	6.022738	0.010372	NaN	0.000000	0.001542	0.001764	28.1318	0.008267	0.001778	4.648750	72.4328	-164.883	0.044326	0.021451	-1.120794	-1.122045	0.010372	4.648750	-1.122468	-1.003644E+15	-1.033447E-17	NaN
8.000000	1.000000	0.032741	7.36512e+06	-39039.1	955.818	-29796	0.000000	0.000000	6.032775	-0.066548	NaN	0.000000	0.001575	0.001750	28.0908	0.078740	0.001889	41.6768	27.9454	16.2457	0.025206	0.031408	-1.110754	-1.112088	-0.066548	41.6768	-1.109557	-6.735019E+14	9.880827E-17	NaN
8.000000	1.000000	0.042703	7.36512e+06	-39039.1	955.818	-29796	0.000000	0.000000	6.042739	0.002461	NaN	0.000000	0.001587	0.001752	28.0803	0.060300	0.002107	28.6162	35.759	-164.291	-0.000312	0.041478	-1.100793	-1.102018	0.002461	28.6162	-1.100858	-5.147317E+14	-4.781333E-18	NaN
8.000000	1.000000	0.052711	7.36512e+06	-39039.1	955.818	-29796	0.000000	0.000000	6.052748	0.021895	NaN	0.000000	0.001610	0.001726	28.1036	0.054485	0.002020	26.9777	-22.0824	14.9163	0.029371	0.051391	-1.090785	-1.092105	0.021895	26.9777	-1.091393	-3.841690E+14	-5.699255E-17	NaN
8.000000	1.000000	0.062711	7.36512e+06	-39039.1	955.819	-29796	0.000000	0.000000	6.062747	-0.000209	NaN	0.000000	0.001577	0.001726	28.1303	0.057121	0.001980	28.8483	18.698	-166.68	0.133776	0.061399	-1.080785	-1.082097	-0.000209	28.8483	-1.080780	-2.766884E+14	7.542716E-19	NaN
8.000000	1.000000	0.072744	7.36512e+06	-39039.1	955.818	-29796	0.000000	0.000000	6.072778	-0.040491	NaN	0.000000	0.001567	0.001738	28.0915	0.100465	0.001955	51.3774	58.6639	15.9789	0.017038	0.071319	-1.070752	-1.072177	-0.040491	51.3774	-1.070160	-1.992256E+14	2.032441E-16	NaN
8.000000	1.000000	0.082738	7.36512e+06	-39039.1	955.819	-29796	0.000000	0.000000	6.082774	0.002948	NaN	0.000000	0.001593	0.001735	28.0806	0.062733	0.001971	31.8291	-168.704	-165.266	0.002634	0.081477	-1.060757	-1.062018	0.002948	31.8291	-1.060827	-1.492569E+14	-1.975252E-17	NaN
8.000000	1.000000	0.092766	7.36512e+06	-39039.1	955.819	-29796	0.000000	0.000000	6.092802	0.010238	NaN	0.000000	0.001601	0.001716	28.1052	0.070188	0.002051	34.2172	-15.0858	12.2632	0.026010	0.091390	-1.050730	-1.052106	0.010238	34.2172	-1.050954	-1.099613E+14	-9.310260E-17	NaN
8.000000	1.000000	0.102722	7.36512e+06	-39039.1	955.818	-29796	0.000000	0.000000	6.102758	-0.004077	NaN	0.000000	0.001598	0.001726	28.1315	0.007170	0.002015	3.558251	95.792	-165.316	-0.058628	0.101446	-1.040774	-1.042049	-0.004077	3.558251	-1.039914	-7.812957E+13	5.218234E-17	NaN
8.000000	1.000000	0.112737	7.36512e+06	-39039.1	955.818	-29796	0.000000	0.000000	6.112774	0.023523	NaN	0.000000	0.001611	0.001702	28.0923	0.099276	0.001958	50.7035	42.7471	11.9346	-0.027966	0.111316	-1.030759	-1.032180	0.023523	50.7035	-1.031107	-5.947950E+13	-3.954791E-16	NaN
8.000000	1.000000	0.122740	7.36512e+06	-39039.1	955.818	-29796	0.000000	0.000000	6.122775	-0.028835	NaN	0.000000	0.001644	0.001711	28.0794	0.089466	0.002021	44.2681	-47.2673	-163.569	0.001574	0.121485	-1.020756	-1.022010	-0.028835	44.2681	-1.020267	-4.251580E+13	6.782098E-16	NaN
8.000000	1.000000	0.132772	7.36512e+06	-39039.1	955.818	-29796	0.000000	0.000000	6.132807	-0.019286	NaN	0.000000	0.001629	0.001742	28.1019	0.023392	0.002015	11.6098	-170.638	14.8957	-0.049945	0.131420	-1.010724	-1.012076	-0.019286	11.6098	-1.009478	-3.043349E+13	6.337138E-16	NaN
8.000000	1.000000	0.142751	7.36512e+06	-39039.1	955.817	-29796	0.000000	0.000000	6.142789	0.053000	NaN	0.000000	0.001680	0.001788	28.1293	0.056639	0.001933	29.3035	81.1176	-164.273	0.062984	0.141448	-1.000744	-1.002048	0.053000	29.3035	-1.002101	-2.421328E+13	-2.188870E-15	NaN
8.000000	1.000000	0.152758	7.36512e+06	-39039.1	955.818	-29796	0.000000	0.000000	6.152794	0.015068	NaN	0.000000	0.001645	0.001774	28.0902	0.053298	0.002133	24.9926	43.9708	12.2633	0.042181	0.151413	-0.990738	-0.992083	0.015068	24.9926	-0.991190	-1.726389E+13	-8.727998E-16	NaN
8.000000	1.000000	0.162766	7.36512e+06	-39039.1	955.818	-29796	0.000000	0.000000	6.162801	-0.000915	NaN	0.000000	0.001643	0.001726	28.0797	0.039277	0.001950	20.1395	-14.3849	-165.729	0.027331	0.161443	-0.980730	-0.982053	-0.000915	20.1395	-0.980696	-1.246775E+13	7.341406E-17	NaN
8.000000	1.000000	0.172794	7.36512e+06	-39039.1	955.818	-29796	0.000000	0.000000	6.172830	0.016987	NaN	0.000000	0.001652	0.001799	28.1029	0.060004	0.001873	32.0403	-142.522	13.6405	-0.039325	0.171455	-0.970702	-0.972041	0.016987	32.0403	-0.971100	-9.257312E+12	-1.834996E-15	NaN
8.000000	1.000000	0.182768	7.36512e+06	-39039.1	955.819	-29796	0.000000	0.000000	6.182802	-0.051444	NaN	0.000000	0.001679	0.001759	28.1302	0.017347	0.001894	9.159029	6.079182	-165.656	-0.003719	0.181472	-0.960728	-0.962024	-0.051444	9.159029	-0.956515	-5.886914E+12	8.738669E-15	NaN
8.000000	1.000000	0.192799	7.36512e+06	-39039.1	955.818	-29796	0.000000	0.000000	6.192833	-0.044600	NaN	0.000000	0.001637	0.001772	28.0915	0.099497	0.002125	46.828	87.7878	16.7405	0.035905	0.191469	-0.950697	-0.952027	-0.044600	46.828	-0.949983	-4.806119E+12	9.279737E-15	NaN
8.000000	1.000000	0.202796	7.36512e+06	-39039.1	955.819	-29796	0.000000	0.000000	6.202834	0.038158	NaN	0.000000	0.001660	0.001752	28.0787	0.036120	0.001968	18.3517	172.646	-162.996	0.130714	0.201479	-0.940700	-0.942016	0.038158	18.3517	-0.942259	-3.781058E+12	-1.009189E-14	NaN
8.000000	1.000000	0.212784	7.36512e+06	-39039.1	955.818	-29796	0.000000	0.000000	6.212819	-0.024549	NaN	0.000000	0.001655	0.001752	28.1016	0.105389	0.002174	48.4777	129.922	19.4978	-0.005943	0.211422	-0.930712	-0.932074	-0.024549	48.4777	-0.930332	-2.610248E+12	9.404674E-15	NaN
8.000000	1.000000	0.222804	7.36512e+06	-39039.1	955.818	-29796	0.000000	0.000000	6.222839	-0.014074	NaN	0.000000	0.001689	0.001765	28.129	0.080151	0.002007	39.9412	-113.324	-162.387	0.068704	0.221493	-0.920692	-0.922003	-0.014074	39.9412	-0.920428	-1.918573E+12	7.335613E-15	NaN
8.000000	1.000000	0.232812	7.36512e+06	-39039.1	955.819	-29796	0.000000	0.000000	6.232846	-0.040924	NaN	0.000000	0.001604	0.001761	28.09	0.050749	0.002099	24.1787	-81.7841	13.9553	-0.085599	0.231433	-0.910684	-0.912062	-0.040924	24.1787	-0.909414	-1.362234E+12	3.004217E-14	NaN
8.000000	1.000000	0.242815	7.36512e+06	-39039.1	955.818	-29796	0.000000	0.000000	6.242851	-0.011859	NaN	0.000000	0.001650	0.001744	28.0788	0.042470	0.001980	21.4475	126.872	-168.6	0.064874	0.241500	-0.900681	-0.901996	-0.011859	21.4475	-0.900266	-1.024847E+12	1.157159E-14	NaN
8.000000	1.000000	0.252806	7.36512e+06	-39039.1	955.818	-29796	0.000000	0.000000	6.252844	0.046957	NaN	0.000000	0.001644	0.001749	28.1029	0.087421	0.002100	41.6369	96.7727	15.9312	0.039339	0.251460	-0.890690	-0.892036	0.046957	41.6369	-0.891536	-7.810407E+11	-6.012134E-14	NaN
8.000000	1.000000	0.262823	7.36512e+06	-39039.1	955.818	-29796	0.000000	0.000000	6.262860	0.020803	NaN	0.000000	0.001652	0.001728	28.131	0.132857	0.001899	69.9437	166.98	-164.303	-0.008080	0.261522	-0.880673	-0.881974	0.020803	69.9437	-0.880896	-5.608218E+11	-3.709387E-14	NaN
8.000000	1.000000	0.272825	7.36512e+06	-39039.1	955.818	-29796	0.000000	0.000000	6.272862	0.027750	NaN	0.000000	0.001659	0.001750	28.091	0.065368	0.001939	33.708	172.489	15.6475	0.006634	0.271418	-0.870670	-0.872077	0.027750	33.708	-0.871288	-4.157840E+11	-6.674237E-14	NaN
8.000000	1.000000	0.282792	7.36512e+06	-39039.1	955.818	-29796	0.000000	0.000000	6.282831	0.080599	NaN	0.000000	0.001569	0.001715	28.0797	0.060814	0.002082	29.2108	-167.808	-166.525	0.078570	0.281502	-0.860704	-0.861994	0.080599	29.2108	-0.862773	-3.188982E+11	-2.527417E-13	NaN
8.000000	1.000000	0.292822	7.36512e+06	-39039.1	955.817	-29796	0.000000	0.000000	6.292860	0.038253	NaN	0.000000	0.001564	0.001665	28.1026	0.103156	0.002085	49.4707	-111.803	15.8254	0.026657	0.291453	-0.850673	-0.852043	0.038253	49.4707	-0.851253	-2.226946E+11	-1.717720E-13	NaN
8.000000	1.000000	0.302823	7.36512e+06	-39039.1	955.818	-29796	0.000000	0.000000	6.302860	0.025693	NaN	0.000000	0.001575	0.001750	28.1302	0.028842	0.001954	14.7573	-96.816	-168.095	0.013196	0.301512	-0.840672	-0.841984	0.025693	14.7573	-0.841978	-1.667599E+11	-1.540712E-13	NaN
8.000000	1.000000	0.312843	7.36512e+06	-39039.1	955.818	-29796	0.000000	0.000000	6.312881	0.034976	NaN	0.000000	0.001590	0.001746	28.0917	0.043582	0.001938	22.4834	133.258	13.6404	0.057317	0.311436	-0.830652	-0.832060	0.034976	22.4834	-0.831819	-1.214617E+11	-2.879567E-13	NaN
8.000000	1.000000	0.322847	7.36512e+06	-39039.1	955.818	-29796	0.000000	0.000000	6.322883	-0.008652	NaN	0.000000	0.001579	0.001772	28.0805	0.083772	0.002095	39.9955	-141.057	-164.588	-0.052668	0.321485	-0.820649	-0.822010	-0.008652	39.9955	-0.820486	-8.527186E+10	1.014622E-13	NaN
8.000000	1.000000	0.332834	7.36512e+06	-39039.1	955.818	-29796	0.000000	0.000000	6.332871	0.020572	NaN	0.000000	0.001570	0.001709	28.1028	0.089374	0.001979	45.1504	-93.2061	15.0324	0.013883	0.331497	-0.810661	-0.811999	0.020572	45.1504	-0.811003	-6.341320E+10	-3.244185E-13	NaN
8.000000	1.000000	0.342846	7.36512e+06	-39039.1	955.818	-29796	0.000000	0.000000	6.342883	0.035971	NaN	0.000000	0.001564	0.001686	28.1313	0.050822	0.002046	24.8432	53.0448	-163.941	0.029782	0.341503	-0.800650	-0.801993	0.035971	24.8432	-0.801736	-4.747088E+10	-7.577414E-13	NaN
8.000000	1.000000	0.352848	7.36512e+06	-39039.1	955.819	-29796	0.000000	0.000000	6.352885	0.036378	NaN	0.000000	0.001540	0.001706	28.093	0.122808	0.001961	62.6273	173.863	18.6383	0.021074	0.351473	-0.790648	-0.792023	0.036378	62.6273	-0.791084	-3.402521E+10	-1.069153E-12	NaN
8.000000	1.000000	0.362830	7.36512e+06	-39039.1	955.818	-29796	0.000000	0.000000	6.362865	-0.025493	NaN	0.000000	0.001539	0.001673	28.0787	0.051566	0.001977	26.0804	102.63	-165.536	-0.034967	0.361470	-0.780665	-0.782025	-0.025493	26.0804	-0.779932	-2.400546E+10	1.061974E-12	NaN
8.000000	1.000000	0.372847	7.36512e+06	-39039.1	955.818	-29796	0.000000	0.000000	6.372883	0.020726	NaN	0.000000	0.001528	0.001668	28.102	0.040049	0.002013	19.891	73.1244	15.918	-0.012583	0.371524	-0.770649	-0.771972	0.020726	19.891	-0.771431	-1.839739E+10	-1.126580E-12	NaN
8.000000	1.000000	0.382883	7.36512e+06	-39039.1	955.819	-29796	0.000000	0.000000	6.382918	-0.034698	NaN	0.000000	0.001553	0.001709	28.1304	0.058275	0.001953	29.8364	104.308	-166.459	-0.079460	0.381534	-0.760613	-0.761961	-0.034698	29.8364	-0.759740	-1.275765E+10	2.719807E-12	NaN
8.000000	1.000000	0.392860	7.36512e+06	-39039.1	955.818	-29796	0.000000	0.000000	6.392897	0.024304	NaN	0.000000	0.001581	0.001745	28.0933	0.042960	0.001951	22.0165	170.156	9.786372	-0.037027	0.391488	-0.750636	-0.752008	0.024304	22.0165	-0.751464	-9.843381E+9	-2.469033E-12	NaN
8.000000	1.000000	0.402854	7.36512e+06	-39039.1	955.818	-29796	0.000000	0.000000	6.402889	-0.014179	NaN	0.000000	0.001575	0.001730	28.0792	0.037146	0.002030	18.2943	-44.4656	-166.19	0.002190	0.401570	-0.740642	-0.741926	-0.014179	18.2943	-0.740060	-6.884622E+9	2.059526E-12	NaN
8.000000	1.000000	0.412877	7.36512e+06	-39039.1	955.818	-29796	0.000000	0.000000	6.412914	0.015616	NaN	0.000000	0.001564	0.001709	28.1022	0.056737	0.002005	28.2993	130.268	14.3191	0.015945	0.411516	-0.730618	-0.731980	0.015616	28.2993	-0.731032	-5.186525E+9	-3.010960E-12	NaN
8.000000	1.000000	0.422884	7.36512e+06	-39039.1	955.818	-29796	0.000000	0.000000	6.422919	-0.027756	NaN	0.000000	0.001528	0.001658	28.1306	0.094656	0.002017	46.939	3.829126	-168.049	-0.014295	0.421587	-0.720612	-0.721909	-0.027756	46.939	-0.720168	-3.687795E+9	7.526472E-12	NaN
8.000000	1.000000	0.432886	7.36512e+06	-39039.1	955.817	-29796	0.000000	0.000000	6.432924	0.066933	NaN	0.000000	0.001575	0.001676	28.0925	0.094883	0.001920	49.4189	144.803	15.0542	0.062623	0.431576	-0.710610	-0.711920	0.066933	49.4189	-0.711626	-2.819921E+9	-2.373579E-11	NaN
8.000000	1.000000	0.442864	7.36512e+06	-39039.1	955.818	-29796	0.000000	0.000000	6.442900	-0.003772	NaN	0.000000	0.001577	0.001695	28.0781	0.051896	0.002139	24.2566	143.16	-164.841	-0.073104	0.441572	-0.700631	-0.701923	-0.003772	24.2566	-0.700515	-1.988658E+9	1.896709E-12	NaN
8.000000	1.000000	0.452864	7.36512e+06	-39039.1	955.818	-29796	0.000000	0.000000	6.452899	-0.028659	NaN	0.000000	0.001564	0.001709	28.1001	0.049592	0.001928	25.7159	170.841	15.6758	-0.035612	0.451560	-0.690632	-0.691936	-0.028659	25.7159	-0.689796	-1.419484E+9	2.018939E-11	NaN
8.000000	1.000000	0.462873	7.36512e+06	-39039.1	955.819	-29796	0.000000	0.000000	6.462911	0.068038	NaN	0.000000	0.001579	0.001693	28.1294	0.052671	0.001943	27.1043	-148.337	-162.307	0.065004	0.461562	-0.680623	-0.681933	0.068038	27.1043	-0.682506	-1.128420E+9	-6.029492E-11	NaN
8.000000	1.000000	0.472902	7.36512e+06	-39039.1	955.818	-29796	0.000000	0.000000	6.472940	0.056750	NaN	0.000000	0.001551	0.001706	28.092	0.089391	0.001996	44.7764	-35.464	16.4827	-0.001269	0.471569	-0.670594	-0.671926	0.056750	44.7764	-0.671545	-7.989686E+8	-7.102880E-11	NaN
8.000000	1.000000	0.482902	7.36512e+06	-39039.1	955.819	-29796	0.000000	0.000000	6.482936	-0.042323	NaN	0.000000	0.001593	0.001718	28.0792	0.070100	0.002059	34.0499	175.6	-167.226	-0.079555	0.481637	-0.660594	-0.661858	-0.042323	34.0499	-0.659661	-5.493246E+8	7.704552E-11	NaN
8.000000	1.000000	0.492921	7.36512e+06	-39039.1	955.819	-29796	0.000000	0.000000	6.492954	-0.056181	NaN	0.000000	0.001557	0.001725	28.1012	0.095859	0.002085	45.9829	161.045	14.0578	-0.143757	0.491620	-0.650575	-0.651875	-0.056181	45.9829	-0.649659	-4.006426E+8	1.402270E-10	NaN
8.000000	1.000000	0.502898	7.36512e+06	-39039.1	955.818	-29796	0.000000	0.000000	6.502933	-0.009808	NaN	0.000000	0.001576	0.001698	28.1308	0.123708	0.001936	63.9021	4.264174	-165.391	0.031370	0.501585	-0.640598	-0.641910	-0.009808	63.9021	-0.640483	-2.998556E+8	3.270819E-11	NaN
8.000000	1.000000	0.512900	7.36512e+06	-39039.1	955.818	-29796	0.000000	0.000000	6.512935	-0.035303	NaN	0.000000	0.001599	0.001755	28.0926	0.046453	0.002013	23.0735	165.455	13.5872	-0.028142	0.511597	-0.630595	-0.631898	-0.035303	23.0735	-0.629448	-2.115638E+8	1.668667E-10	NaN
8.000000	1.000000	0.522917	7.36512e+06	-39039.1	955.818	-29796	0.000000	0.000000	6.522954	0.029236	NaN	0.000000	0.001574	0.001703	28.0781	0.053978	0.002037	26.4945	71.6304	-165.81	-0.031190	0.521610	-0.620579	-0.621886	0.029236	26.4945	-0.621407	-1.640468E+8	-1.782193E-10	NaN
8.000000	1.000000	0.532904	7.36512e+06	-39039.1	955.818	-29796	0.000000	0.000000	6.532940	0.015978	NaN	0.000000	0.001575	0.001677	28.1008	0.050196	0.001891	26.538	-40.221	16.7254	-0.004842	0.531584	-0.610592	-0.611912	0.015978	26.538	-0.611044	-1.181604E+8	-1.352222E-10	NaN
8.000000	1.000000	0.542943	7.36512e+06	-39039.1	955.818	-29796	0.000000	0.000000	6.542980	0.024698	NaN	0.000000	0.001564	0.001713	28.1309	0.031389	0.001875	16.7379	132.165	-165.582	0.043976	0.541626	-0.600552	-0.601870	0.024698	16.7379	-0.601659	-8.776216E+7	-2.814229E-10	NaN
8.000000	1.000000	0.552949	7.36512e+06	-39039.1	955.818	-29796	0.000000	0.000000	6.552985	0.001767	NaN	0.000000	0.001576	0.001695	28.0939	0.051779	0.001895	27.3192	-172.949	14.9973	-0.099246	0.551608	-0.590547	-0.591888	0.001767	27.3192	-0.590595	-6.178339E+7	-2.859890E-11	NaN
8.000000	1.000000	0.562936	7.36512e+06	-39039.1	955.818	-29796	0.000000	0.000000	6.562973	0.005592	NaN	0.000000	0.001545	0.001726	28.0805	0.101752	0.002015	50.4873	146.591	-164.239	0.054973	0.561591	-0.580559	-0.581905	0.005592	50.4873	-0.580642	-4.503931E+7	-1.241647E-10	NaN
8.000000	1.000000	0.572934	7.36512e+06	-39039.1	955.818	-29796	0.000000	0.000000	6.572970	0.002462	NaN	0.000000	0.001591	0.001685	28.1023	0.070762	0.002058	34.3866	79.6756	12.2939	0.018254	0.571571	-0.570562	-0.571925	0.002462	34.3866	-0.570615	-3.274416E+7	-7.518867E-11	NaN
8.000000	1.000000	0.582930	7.36512e+06	-39039.1	955.818	-29796	0.000000	0.000000	6.582969	0.075941	NaN	0.000000	0.001598	0.001694	28.1318	0.159600	0.002001	79.756	57.783	-167.98	0.031079	0.581671	-0.560566	-0.561824	0.075941	79.756	-0.561280	-2.432673E+7	-3.121723E-9	NaN
8.000000	1.000000	0.592972	7.36512e+06	-39039.1	955.818	-29796	0.000000	0.000000	6.593010	0.051219	NaN	0.000000	0.001592	0.001714	28.0949	0.119144	0.001988	59.9255	96.2869	12.2605	0.056996	0.591589	-0.550524	-0.551906	0.051219	59.9255	-0.551165	-1.762355E+7	-2.906301E-9	NaN
8.000000	1.000000	0.602948	7.36512e+06	-39039.1	955.818	-29796	0.000000	0.000000	6.602986	0.059564	NaN	0.000000	0.001586	0.001717	28.0796	0.074980	0.002036	36.8346	77.5765	-166.654	0.118928	0.601690	-0.540548	-0.541806	0.059564	36.8346	-0.541761	-1.305493E+7	-4.562565E-9	NaN
8.000000	1.000000	0.612937	7.36512e+06	-39039.1	955.818	-29796	0.000000	0.000000	6.612974	0.026086	NaN	0.000000	0.001594	0.001719	28.1017	0.036562	0.002017	18.1303	-36.3445	18.2844	0.051554	0.611618	-0.530559	-0.531878	0.026086	18.1303	-0.531638	-9.44762e+06	-2.761148E-9	NaN
8.000000	1.000000	0.622944	7.36512e+06	-39039.1	955.818	-29796	0.000000	0.000000	6.622982	0.058334	NaN	0.000000	0.001566	0.001669	28.1308	0.077382	0.002117	36.5449	33.9628	-165.671	0.042756	0.621640	-0.520552	-0.521856	0.058334	36.5449	-0.521749	-6.88526e+06	-8.472338E-9	NaN
8.000000	1.000000	0.632962	7.36512e+06	-39039.1	955.819	-29796	0.000000	0.000000	6.632999	0.037599	NaN	0.000000	0.001562	0.001741	28.0937	0.093888	0.002165	43.3586	-89.0881	15.9802	-0.019538	0.631614	-0.510534	-0.511882	0.037599	43.3586	-0.511184	-4.90804e+06	-7.660736E-9	NaN
8.000000	1.000000	0.642973	7.36512e+06	-39039.1	955.818	-29796	0.000000	0.000000	6.643008	-0.026597	NaN	0.000000	0.001592	0.001675	28.0807	0.051533	0.001967	26.2032	177.48	-162.205	0.037774	0.641687	-0.500522	-0.501809	-0.026597	26.2032	-0.499761	-3.40162e+06	7.818945E-9	NaN
8.000000	1.000000	0.652998	7.36512e+06	-39039.1	955.819	-29796	0.000000	0.000000	6.653033	-0.021076	NaN	0.000000	0.001578	0.001734	28.1005	0.069357	0.001903	36.4445	-53.5089	18.6216	-0.026462	0.651586	-0.490498	-0.491910	-0.021076	36.4445	-0.490064	-2.49052e+06	8.462440E-9	NaN
8.000000	1.000000	0.662989	7.36512e+06	-39039.1	955.818	-29796	0.000000	0.000000	6.663027	0.047910	NaN	0.000000	0.001559	0.001720	28.1318	0.058638	0.001920	30.5396	5.991074	-164.742	0.065786	0.661694	-0.480507	-0.481802	0.047910	30.5396	-0.481683	-1.90145e+06	-2.519670E-8	NaN
8.000000	1.000000	0.672973	7.36512e+06	-39039.1	955.819	-29796	0.000000	0.000000	6.673010	0.009974	NaN	0.000000	0.001597	0.001702	28.0929	0.084501	0.001981	42.6458	-162.412	17.3401	0.001249	0.671603	-0.470522	-0.471893	0.009974	42.6458	-0.470698	-1.33412e+06	-7.476229E-9	NaN
8.000000	1.000000	0.682989	7.36512e+06	-39039.1	955.818	-29796	0.000000	0.000000	6.683022	-0.081550	NaN	0.000000	0.001578	0.001697	28.0783	0.127354	0.002013	63.2712	-80.9002	-167.181	0.016458	0.681709	-0.460506	-0.461787	-0.081550	63.2712	-0.459540	-930140	8.767541E-8	NaN
8.000000	1.000000	0.693009	7.36512e+06	-39039.1	955.818	-29796	0.000000	0.000000	6.693046	0.026873	NaN	0.000000	0.001567	0.001684	28.0997	0.024479	0.002092	11.7035	-122.155	18.6487	0.090180	0.691648	-0.450486	-0.451848	0.026873	11.7035	-0.452209	-733564	-3.663385E-8	NaN
8.000000	1.000000	0.702995	7.36512e+06	-39039.1	955.818	-29796	0.000000	0.000000	6.703033	0.057681	NaN	0.000000	0.001576	0.001694	28.1298	0.113636	0.002041	55.6721	-99.154	-163.451	-0.032085	0.701708	-0.440501	-0.441788	0.057681	55.6721	-0.441278	-514511	-1.121091E-7	NaN
8.000000	1.000000	0.713013	7.36512e+06	-39039.1	955.818	-29796	0.000000	0.000000	6.713050	0.024923	NaN	0.000000	0.001592	0.001699	28.0927	0.084729	0.002043	41.4654	-109.147	17.5385	-0.069339	0.711670	-0.430483	-0.431826	0.024923	41.4654	-0.430933	-367506	-6.781582E-8	NaN
8.000000	1.000000	0.723030	7.36512e+06	-39039.1	955.818	-29796	0.000000	0.000000	6.723066	-0.011669	NaN	0.000000	0.001543	0.001690	28.0789	0.019147	0.001924	9.950040	-28.8191	-167.495	0.034464	0.721720	-0.420465	-0.421776	-0.011669	9.950040	-0.419586	-253829	4.597373E-8	NaN
8.000000	1.000000	0.732976	7.36512e+06	-39039.1	955.818	-29796	0.000000	0.000000	6.733010	-0.055229	NaN	0.000000	0.001579	0.001667	28.1001	0.129214	0.001947	66.3622	170.488	15.307	-0.019459	0.731657	-0.410520	-0.411839	-0.055229	66.3622	-0.409896	-184891	2.987129E-7	NaN
8.000000	1.000000	0.743007	7.36512e+06	-39039.1	955.817	-29796	0.000000	0.000000	6.743040	-0.055957	NaN	0.000000	0.001604	0.001663	28.1306	0.069094	0.002067	33.4208	45.849	-168.21	-0.118271	0.741719	-0.400489	-0.401777	-0.055957	33.4208	-0.399233	-130335	4.293360E-7	NaN
8.000000	1.000000	0.753029	7.36512e+06	-39039.1	955.819	-29796	0.000000	0.000000	6.753066	0.038525	NaN	0.000000	0.001583	0.001678	28.0934	0.080856	0.002030	39.834	84.424	17.6964	-0.046973	0.751674	-0.390467	-0.391822	0.038525	39.834	-0.391192	-100050	-3.850533E-7	NaN
8.000000	1.000000	0.763046	7.36512e+06	-39039.1	955.818	-29796	0.000000	0.000000	6.763081	-0.008794	NaN	0.000000	0.001562	0.001693	28.0777	0.025650	0.002074	12.3689	159.858	-161.979	-0.000923	0.761711	-0.380450	-0.381785	-0.008794	12.3689	-0.379917	-68975.7	1.274967E-7	NaN
8.000000	1.000000	0.773039	7.36512e+06	-39039.1	955.818	-29796	0.000000	0.000000	6.773074	-0.034161	NaN	0.000000	0.001580	0.001735	28.0987	0.052552	0.001981	26.5303	-93.8322	13.6573	-0.064188	0.771631	-0.370456	-0.371865	-0.034161	26.5303	-0.369491	-48841.8	6.994231E-7	NaN
8.000000	1.000000	0.783028	7.36512e+06	-39039.1	955.818	-29796	0.000000	0.000000	6.783065	0.022645	NaN	0.000000	0.001584	0.001734	28.1294	0.127986	0.001922	66.5813	-177.726	-166.321	-0.058274	0.781681	-0.360467	-0.361815	0.022645	66.5813	-0.360722	-36499.5	-6.204260E-7	NaN
8.000000	1.000000	0.793032	7.36512e+06	-39039.1	955.818	-29796	0.000000	0.000000	6.793068	-0.004467	NaN	0.000000	0.001522	0.001684	28.0935	0.030552	0.001971	15.5039	116.643	15.9357	0.030207	0.791671	-0.350463	-0.351825	-0.004467	15.5039	-0.350247	-25738.9	1.735357E-7	NaN
8.000000	1.000000	0.803051	7.36512e+06	-39039.1	955.818	-29796	0.000000	0.000000	6.803088	0.024065	NaN	0.000000	0.001560	0.001764	28.0795	0.032296	0.001967	16.4196	106.241	-161.688	-0.026403	0.801667	-0.340445	-0.341829	0.024065	16.4196	-0.341544	-19233.4	-1.251215E-6	NaN
8.000000	1.000000	0.813039	7.36512e+06	-39039.1	955.819	-29796	0.000000	0.000000	6.813076	0.039000	NaN	0.000000	0.001575	0.001746	28.1003	0.044181	0.002067	21.3775	-26.4059	13.9342	0.066170	0.811702	-0.330457	-0.331794	0.039000	21.3775	-0.331825	-13873	-2.811245E-6	NaN
8.000000	1.000000	0.823028	7.36512e+06	-39039.1	955.818	-29796	0.000000	0.000000	6.823065	0.012762	NaN	0.000000	0.001557	0.001745	28.1319	0.015700	0.001920	8.177599	21.9973	-166.569	0.035291	0.821757	-0.320467	-0.321739	0.012762	8.177599	-0.321638	-9834.13	-1.297710E-6	NaN
8.000000	1.000000	0.833031	7.36512e+06	-39039.1	955.818	-29796	0.000000	0.000000	6.833067	-0.016117	NaN	0.000000	0.001554	0.001748	28.0953	0.049329	0.001880	26.2336	139.066	16.8402	-0.073573	0.831724	-0.310464	-0.311771	-0.016117	26.2336	-0.310004	-6623.84	2.433141E-6	NaN
8.000000	1.000000	0.843062	7.36512e+06	-39039.1	955.819	-29796	0.000000	0.000000	6.843097	-0.023173	NaN	0.000000	0.001580	0.001757	28.0806	0.060832	0.002004	30.3555	24.8178	-164.715	0.063046	0.841746	-0.300433	-0.301750	-0.023173	30.3555	-0.299861	-4683.44	4.947803E-6	NaN
8.000000	1.000000	0.853047	7.36513e+06	-39039.1	955.818	-29796	0.000000	0.000000	6.853081	-0.029282	NaN	0.000000	0.001582	0.001710	28.1001	0.024550	0.001897	12.9385	65.9724	17.9243	-0.024962	0.851720	-0.290449	-0.291776	-0.029282	12.9385	-0.288752	-3195.91	9.162339E-6	NaN
8.000000	1.000000	0.863074	7.36513e+06	-39039.1	955.818	-29796	0.000000	0.000000	6.863109	-0.030668	NaN	0.000000	0.001589	0.001733	28.1312	0.079842	0.002021	39.5128	164.65	-165.991	-0.000417	0.861791	-0.280422	-0.281704	-0.030668	39.5128	-0.279840	-2347.21	1.306595E-5	NaN
8.000000	1.000000	0.873087	7.36513e+06	-39039.1	955.818	-29796	0.000000	0.000000	6.873123	-0.008482	NaN	0.000000	0.001584	0.001745	28.0954	0.033681	0.002069	16.2759	4.899621	14.1582	0.023948	0.871686	-0.270409	-0.271810	-0.008482	16.2759	-0.270018	-1666.54	5.089396E-6	NaN
8.000000	1.000000	0.883091	7.36513e+06	-39039.1	955.818	-29796	0.000000	0.000000	6.883125	-0.033848	NaN	0.000000	0.001566	0.001719	28.081	0.022272	0.001984	11.2245	109.383	-166.508	-0.065205	0.881718	-0.260405	-0.261778	-0.033848	11.2245	-0.258143	-1097.58	3.083892E-5	NaN
8.000000	1.000000	0.893098	7.36513e+06	-39039.1	955.818	-29796	0.000000	0.000000	6.893133	-0.016888	NaN	0.000000	0.001639	0.001711	28.1005	0.037912	0.001995	19.0009	26.0489	12.9901	-0.046552	0.891734	-0.250398	-0.251762	-0.016888	19.0009	-0.249731	-814.342	2.073876E-5	NaN
8.000000	1.000000	0.903088	7.36513e+06	-39039.1	955.819	-29796	0.000000	0.000000	6.903125	0.026042	NaN	0.000000	0.001636	0.001735	28.1322	0.091767	0.002146	42.7676	8.001556	-168.182	0.055232	0.901813	-0.240408	-0.241683	0.026042	42.7676	-0.240865	-592.994	-4.391663E-5	NaN
8.000000	1.000000	0.913101	7.36513e+06	-39039.1	955.818	-29796	0.000000	0.000000	6.913138	0.011315	NaN	0.000000	0.001620	0.001755	28.0944	0.050274	0.001998	25.164	-24.1203	16.6139	-0.026717	0.911677	-0.230394	-0.231819	0.011315	25.164	-0.230732	-411.212	-2.751540E-5	NaN
8.000000	1.000000	0.923068	7.36513e+06	-39039.1	955.819	-29796	0.000000	0.000000	6.923104	0.002574	NaN	0.000000	0.001636	0.001747	28.0795	0.118957	0.001954	60.8675	-173.317	-165.755	0.027940	0.921806	-0.220428	-0.221690	0.002574	60.8675	-0.220459	-282.497	-9.112110E-6	NaN
8.000000	1.000000	0.933101	7.36513e+06	-39039.1	955.818	-29796	0.000000	0.000000	6.933138	0.014202	NaN	0.000000	0.001607	0.001726	28.0991	0.062689	0.001932	32.4507	176.113	17.5812	0.047469	0.931699	-0.210395	-0.211797	0.014202	32.4507	-0.210723	-197.024	-7.208286E-5	NaN
8.000000	1.000000	0.943084	7.36513e+06	-39039.1	955.818	-29796	0.000000	0.000000	6.943120	-0.000559	NaN	0.000000	0.001591	0.001717	28.1299	0.028918	0.001951	14.8235	-92.087	-167.245	-0.050831	0.941756	-0.200411	-0.201740	-0.000559	14.8235	-0.200383	-133.657	4.184975E-6	NaN
8.000000	1.000000	0.953076	7.36513e+06	-39039.1	955.817	-29796	0.000000	0.000000	6.953112	0.005391	NaN	0.000000	0.001538	0.001745	28.0934	0.165107	0.001922	85.8998	170.31	13.2084	0.001075	0.951774	-0.190420	-0.191722	0.005391	85.8998	-0.190467	-91.586	-5.886663E-5	NaN
8.000000	1.000000	0.963088	7.36513e+06	-39039.1	955.817	-29796	0.000000	0.000000	6.963125	0.011817	NaN	0.000000	0.001581	0.001711	28.0796	0.083240	0.001977	42.097	144.332	-164.683	-0.143300	0.961794	-0.180407	-0.181702	0.011817	42.097	-0.180618	-62.5136	-0.000189	NaN
8.000000	1.000000	0.973115	7.36513e+06	-39039.1	955.817	-29796	0.000000	0.000000	6.973150	-0.009146	NaN	0.000000	0.001562	0.001723	28.0993	0.095663	0.001936	49.4195	107.696	13.3069	-0.002879	0.971691	-0.170381	-0.171805	-0.009146	49.4195	-0.170242	-41.4778	0.000221	NaN
8.000000	1.000000	0.983120	7.36513e+06	-39039.1	955.818	-29796	0.000000	0.000000	6.983156	-0.008818	NaN	0.000000	0.001564	0.001749	28.1312	0.088363	0.001962	45.0305	121.513	-159.154	-0.021466	0.981790	-0.160376	-0.161706	-0.008818	45.0305	-0.160229	-27.6727	0.000319	NaN
8.000000	1.000000	0.993116	7.36513e+06	-39039.1	955.818	-29796	0.000000	0.000000	6.993153	0.036904	NaN	0.000000	0.001604	0.001738	28.0951	0.097577	0.001996	48.898	-105.278	14.3961	0.062806	0.991794	-0.150380	-0.151702	0.036904	48.898	-0.150946	-18.8469	-0.001958	NaN
8.000000	1.000000	1.003122	7.36513e+06	-39039.1	955.819	-29796	0.000000	0.000000	7.003159	0.023029	NaN	0.000000	0.001551	0.001711	28.0784	0.093622	0.001996	46.8946	92.3075	-164.601	-0.035533	1.001796	-0.140374	-0.141700	0.023029	46.8946	-0.140742	-12.215	-0.001885	NaN
8.000000	1.000000	1.013121	7.36513e+06	-39039.1	955.819	-29796	0.000000	0.000000	7.013159	0.045206	NaN	0.000000	0.001548	0.001729	28.0968	0.165916	0.002019	82.1759	8.487499	14.662	-0.006327	1.011793	-0.130375	-0.131703	0.045206	82.1759	-0.130787	-7.893769	-0.005727	NaN
8.000000	1.000000	1.023134	7.36513e+06	-39039.1	955.818	-29796	0.000000	0.000000	7.023169	-0.027070	NaN	0.000000	0.001535	0.001710	28.1299	0.091263	0.001826	49.9817	-30.4343	-164.356	-0.025541	1.021778	-0.120362	-0.121718	-0.027070	49.9817	-0.119956	-4.821565	0.005614	NaN
8.000000	1.000000	1.033130	7.36513e+06	-39039.1	955.818	-29796	0.000000	0.000000	7.033163	-0.078801	NaN	0.000000	0.001542	0.001745	28.0943	0.101379	0.002017	50.2531	21.9335	15.2443	-0.047231	1.031764	-0.110365	-0.111732	-0.078801	50.2531	-0.109189	-2.888991	0.027276	NaN
8.000000	1.000000	1.043135	7.36513e+06	-39039.1	955.819	-29796	0.000000	0.000000	7.043171	0.007524	NaN	0.000000	0.001590	0.001764	28.0805	0.131591	0.001848	71.2208	-82.3408	-164.718	0.008995	1.041783	-0.100361	-0.101713	0.007524	71.2208	-0.100440	-1.868602	-0.004027	NaN
8.000000	1.000000	1.053131	7.36513e+06	-39039.1	955.818	-29796	0.000000	0.000000	7.053168	0.025047	NaN	0.000000	0.001639	0.001753	28.0989	0.098193	0.002053	47.839	64.9537	17.1105	0.048344	1.051766	-0.090365	-0.091730	0.025047	47.839	-0.090758	-1.126043	-0.022243	NaN
8.000000	1.000000	1.063147	7.36513e+06	-39039.1	955.819	-29796	0.000000	0.000000	7.063184	0.019101	NaN	0.000000	0.001660	0.001743	28.1307	0.087453	0.002088	41.8899	95.6875	-168.971	0.010698	1.061829	-0.080349	-0.081667	0.019101	41.8899	-0.080691	-0.644051	-0.029657	NaN
8.000000	1.000000	1.073120	7.36513e+06	-39039.1	955.819	-29796	0.000000	0.000000	7.073156	0.004348	NaN	0.000000	0.001554	0.001726	28.0953	0.114387	0.002101	54.4551	176.333	18.5608	-0.051606	1.071746	-0.070376	-0.071750	0.004348	54.4551	-0.070436	-0.350382	-0.012410	NaN
8.000000	1.000000	1.083107	7.36513e+06	-39039.1	955.819	-29796	0.000000	0.000000	7.083143	-0.021080	NaN	0.000000	0.001571	0.001733	28.0787	0.026984	0.002120	12.7298	-64.8933	-167.403	-0.012751	1.081846	-0.060388	-0.061650	-0.021080	12.7298	-0.059146	-0.170193	0.123860	NaN
8.000000	1.000000	1.093158	7.36513e+06	-39039.1	955.82	-29796	0.000000	0.000000	7.093192	-0.044868	NaN	0.000000	0.001562	0.001740	28.0979	0.080361	0.001962	40.9668	-147.632	19.2828	-0.092939	1.091830	-0.050338	-0.051665	-0.044868	40.9668	-0.049517	-0.088229	0.508538	NaN
8.000000	1.000000	1.103137	7.36513e+06	-39039.1	955.819	-29796	0.000000	0.000000	7.103174	0.025538	NaN	0.000000	0.001572	0.001737	28.1311	0.037909	0.001937	19.567	-3.517516	-162.573	0.049717	1.101845	-0.040359	-0.041651	0.025538	19.567	-0.041338	-0.049666	-0.514188	NaN
8.000000	1.000000	1.113158	7.36513e+06	-39039.1	955.819	-29796	0.000000	0.000000	7.113194	0.008786	NaN	0.000000	0.001585	0.001718	28.0953	0.071377	0.001994	35.7899	-61.7081	16.6866	-0.021553	1.111786	-0.030338	-0.031709	0.008786	35.7899	-0.030522	-0.023799	-0.369153	NaN
8.000000	1.000000	1.123163	7.36513e+06	-39039.1	955.819	-29796	0.000000	0.000000	7.123199	0.002314	NaN	0.000000	0.001551	0.001755	28.0797	0.023475	0.001926	12.188	14.4519	-163.673	0.003554	1.121831	-0.020332	-0.021665	0.002314	12.188	-0.020475	-0.012915	-0.179139	NaN
8.000000	1.000000	1.133179	7.36513e+06	-39039.1	955.819	-29796	0.000000	0.000000	7.133217	0.049420	NaN	0.000000	0.001535	0.001705	28.0992	0.063419	0.001928	32.8957	-37.107	18.3435	0.005216	1.131802	-0.010316	-0.011694	0.049420	32.8957	-0.011443	-0.007211	-6.853748	NaN
8.000000	1.000000	1.143158	7.36513e+06	-39039.1	955.819	-29796	0.000000	0.000000	7.143202	0.192323	NaN	0.000000	0.001576	0.001763	28.1323	0.289109	0.001850	156.298	9.412109	-165.143	0.064450	1.141861	-0.000338	-0.001635	0.192323	156.298	-0.001260	-0.000920	-209.136	NaN
8.000000	2.000000	1.152289	7.36513e+06	-39039.1	955.82	-29796	0.000000	0.000000	7.152683	8.710139	NaN	0.000000	0.001564	0.001735	28.0967	8.144927	0.001690	4818.16	9.083227	6.712160	7.649217	1.151696	0.008793	0.008200	8.710139	4818.16	0.007437	0.006470	1346.27	54727.8
8.000000	2.000000	1.154844	7.36513e+06	-39039.1	955.819	-29796	0.000000	0.000000	7.155347	11.3523	NaN	0.000000	0.001537	0.001719	28.0796	11.0685	0.001828	6056.15	9.221103	-174.617	11.5708	1.154582	0.011349	0.011086	11.3523	6056.15	0.009943	0.009118	1245.05	57945.8
8.000000	2.000000	1.157352	7.36513e+06	-39039.1	955.819	-29796	0.000000	0.000000	7.158171	19.0708	NaN	0.000000	0.001547	0.001729	28.0991	13.4705	0.001625	8287.9	3.002666	7.538564	17.9883	1.156981	0.013856	0.013485	19.0708	8287.9	0.012130	0.011646	1637.47	70165
8.000000	2.000000	1.159775	7.36513e+06	-39039.1	955.819	-29796	0.000000	0.000000	7.160824	24.6742	NaN	0.000000	0.001583	0.001719	28.1309	16.0374	0.001680	9548.33	1.725248	-172.655	23.3611	1.159429	0.016279	0.015933	24.6742	9548.33	0.014341	0.014416	1711.56	72656.7
8.000000	2.000000	1.162300	7.36513e+06	-39039.1	955.819	-29796	0.000000	0.000000	7.163518	28.7706	NaN	0.000000	0.001556	0.001717	28.0959	18.7359	0.001786	10488	3.876442	5.909363	27.9035	1.161961	0.018804	0.018465	28.7706	10488	0.016747	0.017686	1626.76	72053
8.000000	2.000000	1.164784	7.36513e+06	-39039.1	955.819	-29796	0.000000	0.000000	7.166214	33.9154	NaN	0.000000	0.001530	0.001737	28.0808	20.8815	0.001818	11484.5	3.346262	-174.023	34.5384	1.164530	0.021289	0.021034	33.9154	11484.5	0.019074	0.021108	1606.78	72221.1
8.000000	2.000000	1.167276	7.36513e+06	-39039.1	955.819	-29796	0.000000	0.000000	7.169045	42.1699	NaN	0.000000	0.001561	0.001780	28.099	22.9732	0.001803	12738.7	6.326782	2.557931	40.6698	1.166943	0.023780	0.023447	42.1699	12738.7	0.021297	0.024622	1712.68	74171.4
8.000000	2.000000	1.169790	7.36513e+06	-39039.1	955.819	-29796	0.000000	0.000000	7.171837	48.9361	NaN	0.000000	0.001559	0.001695	28.1312	25.7071	0.001759	14617.7	8.135761	-179.481	49.927	1.169410	0.026294	0.025915	48.9361	14617.7	0.023783	0.028840	1696.84	78642.3
8.000000	2.000000	1.172247	7.36513e+06	-39039.1	955.82	-29796	0.000000	0.000000	7.174572	55.6881	NaN	0.000000	0.001568	0.001735	28.0957	28.8218	0.001783	16168	7.670760	-2.041684	53.5744	1.171895	0.028752	0.028399	55.6881	16168	0.026168	0.033176	1678.58	81099.6
8.000000	2.000000	1.174731	7.36513e+06	-39039.1	955.82	-29796	0.000000	0.000000	7.177309	61.8528	NaN	0.000000	0.001533	0.001764	28.0789	31.6715	0.001829	17317.4	5.179443	179.592	59.73	1.174497	0.031235	0.031001	61.8528	17317.4	0.028557	0.037805	1636.1	81372.9
8.000000	2.000000	1.177263	7.36513e+06	-39039.1	955.821	-29796	0.000000	0.000000	7.180360	74.4835	NaN	0.000000	0.001540	0.001755	28.0953	33.5102	0.001786	18758	7.849474	-2.335271	72.4421	1.176922	0.033767	0.033426	74.4835	18758	0.030789	0.042396	1756.86	83233.8
8.000000	2.000000	1.179716	7.36513e+06	-39039.1	955.82	-29796	0.000000	0.000000	7.183166	83.0727	NaN	0.000000	0.001522	0.001750	28.13	35.8844	0.001825	19660.5	4.425251	179.697	80.8751	1.179461	0.036220	0.035965	83.0727	19660.5	0.033051	0.047306	1756.07	82586.8
8.000000	2.000000	1.182231	7.36513e+06	-39039.1	955.82	-29796	0.000000	0.000000	7.186163	94.8031	NaN	0.000000	0.001551	0.001787	28.096	38.8999	0.001874	20755.3	5.324208	-1.504220	91.9655	1.181863	0.038736	0.038367	94.8031	20755.3	0.035310	0.052470	1806.8	82784.2
8.000000	2.000000	1.184684	7.36513e+06	-39039.1	955.82	-29796	0.000000	0.000000	7.189118	107.011	NaN	0.000000	0.001522	0.001772	28.0792	40.0055	0.001677	23858.2	2.049761	-179.757	104.101	1.184372	0.041188	0.040876	107.011	23858.2	0.037824	0.058527	1828.41	90101.5
8.000000	2.000000	1.187245	7.36513e+06	-39039.1	955.82	-29796	0.000000	0.000000	7.192107	117.437	NaN	0.000000	0.001541	0.001707	28.0976	42.1873	0.001793	23530.1	4.997118	-2.443547	115.632	1.186929	0.043749	0.043434	117.437	23530.1	0.040006	0.064044	1833.7	84949.2
8.000000	2.000000	1.189744	7.36513e+06	-39039.1	955.819	-29796	0.000000	0.000000	7.195046	128.144	NaN	0.000000	0.001572	0.001722	28.1307	43.9138	0.001750	25100.6	3.597183	178.666	129.288	1.189472	0.046249	0.045977	128.144	25100.6	0.042420	0.070431	1819.43	86412.2
8.000000	2.000000	1.192188	7.36513e+06	-39039.1	955.82	-29796	0.000000	0.000000	7.198084	142.607	NaN	0.000000	0.001546	0.001694	28.0963	46.3766	0.001859	24944.4	2.091153	0.625779	139.241	1.191748	0.048692	0.048252	142.607	24944.4	0.044404	0.075905	1878.75	82719.9
8.000000	2.000000	1.194751	7.36513e+06	-39039.1	955.82	-29796	0.000000	0.000000	7.201026	151.832	NaN	0.000000	0.001583	0.001686	28.0776	49.75	0.001813	27438.6	5.071545	175.817	150.036	1.194402	0.051255	0.050906	151.832	27438.6	0.047105	0.083676	1814.53	86663.3
8.000000	2.000000	1.197211	7.36513e+06	-39039.1	955.819	-29796	0.000000	0.000000	7.204099	166.736	NaN	0.000000	0.001532	0.001713	28.0957	51.4763	0.001793	28703	5.503569	-4.489570	162.14	1.196867	0.053715	0.053371	166.736	28703	0.049359	0.090441	1843.59	87200.1
8.000000	2.000000	1.199612	7.36513e+06	-39039.1	955.819	-29796	0.000000	0.000000	7.207192	183.57	NaN	0.000000	0.001530	0.001688	28.1299	53.1402	0.001742	30502.1	4.388548	176.136	178.279	1.199315	0.056116	0.055819	183.57	30502.1	0.051603	0.097432	1884.09	89279.9
8.000000	2.000000	1.202240	7.36513e+06	-39039.1	955.819	-29796	0.000000	0.000000	7.210117	190.826	NaN	0.000000	0.001515	0.001680	28.0972	56.5469	0.001805	31335.6	6.557361	-6.119902	189.06	1.201891	0.058744	0.058395	190.826	31335.6	0.054177	0.105759	1804.35	88034.7
8.000000	2.000000	1.204731	7.36513e+06	-39039.1	955.82	-29796	0.000000	0.000000	7.213136	203.659	NaN	0.000000	0.001546	0.001648	28.0802	59.9027	0.001864	32135	7.283243	173.029	205.058	1.204427	0.061236	0.060931	203.659	32135	0.056482	0.113497	1794.4	87148.3
8.000000	2.000000	1.207171	7.36513e+06	-39039.1	955.819	-29796	0.000000	0.000000	7.216196	218.752	NaN	0.000000	0.001536	0.001688	28.0973	61.0569	0.001911	31957.6	4.315089	-4.200551	213.137	1.206862	0.063675	0.063366	218.752	31957.6	0.058541	0.120630	1813.42	84065.9
8.000000	2.000000	1.209643	7.36513e+06	-39039.1	955.819	-29796	0.000000	0.000000	7.219196	231.596	NaN	0.000000	0.001549	0.001689	28.1323	62.9593	0.001849	34044.1	2.955834	176.335	227.595	1.209363	0.066147	0.065867	231.596	34044.1	0.061045	0.129583	1787.24	86405.4
8.000000	2.000000	1.212177	7.36513e+06	-39039.1	955.82	-29796	0.000000	0.000000	7.222484	249.954	NaN	0.000000	0.001563	0.001709	28.0987	64.7574	0.001784	36293.6	5.166495	-5.936903	247.06	1.211836	0.068681	0.068340	249.954	36293.6	0.063516	0.138718	1801.89	89030.3
8.000000	2.000000	1.214680	7.36513e+06	-39039.1	955.819	-29796	0.000000	0.000000	7.225504	262.521	NaN	0.000000	0.001523	0.001685	28.0788	67.4043	0.001737	38813.7	3.366560	174.934	261.982	1.214320	0.071185	0.070824	262.521	38813.7	0.066112	0.148632	1766.24	91981.8
8.000000	2.000000	1.217193	7.36513e+06	-39039.1	955.82	-29796	0.000000	0.000000	7.228786	281.249	NaN	0.000000	0.001535	0.001684	28.0969	68.0828	0.001715	39690.2	0.408202	-1.727087	278.2	1.216873	0.073697	0.073378	281.249	39690.2	0.068383	0.157572	1784.89	91351.9
8.000000	2.000000	1.219718	7.36513e+06	-39039.1	955.819	-29796	0.000000	0.000000	7.232039	298.98	NaN	0.000000	0.001557	0.001681	28.1312	71.3958	0.001918	37216	4.380190	174.559	301.155	1.219396	0.076222	0.075900	298.98	37216	0.070197	0.164889	1813.22	83735
8.000000	2.000000	1.222213	7.36513e+06	-39039.1	955.819	-29796	0.000000	0.000000	7.235155	314.077	NaN	0.000000	0.001502	0.001711	28.0963	72.2323	0.001790	40359.2	1.464774	-3.570188	311.215	1.221862	0.078718	0.078366	314.077	40359.2	0.072881	0.176005	1784.48	87892.8
8.000000	2.000000	1.224756	7.36513e+06	-39039.1	955.819	-29796	0.000000	0.000000	7.238030	322.156	NaN	0.000000	0.001557	0.001660	28.0807	75.9593	0.001808	42005.4	4.437635	173.367	325.702	1.224488	0.081260	0.080992	322.156	42005.4	0.075508	0.187213	1720.8	88697.2
8.000000	2.000000	1.227160	7.36513e+06	-39039.1	955.819	-29796	0.000000	0.000000	7.241524	348.667	NaN	0.000000	0.001578	0.001689	28.0967	77.0628	0.001731	44527.7	6.071085	-8.379141	344.527	1.226874	0.083664	0.083378	348.667	44527.7	0.077792	0.197219	1767.92	91607
8.000000	2.000000	1.229652	7.36513e+06	-39039.1	955.82	-29796	0.000000	0.000000	7.244800	367.756	NaN	0.000000	0.001579	0.001715	28.1322	79.4269	0.001887	42095.1	3.794710	174.263	364.729	1.229284	0.086157	0.085788	367.756	42095.1	0.079604	0.205336	1790.99	84873.5
8.000000	2.000000	1.232149	7.36513e+06	-39039.1	955.82	-29796	0.000000	0.000000	7.248114	387.638	NaN	0.000000	0.001565	0.001674	28.0984	82.5168	0.001909	43226	4.428386	-6.358589	384.062	1.231786	0.088653	0.088291	387.638	43226	0.081927	0.215961	1794.95	84982.8
8.000000	2.000000	1.234619	7.36513e+06	-39039.1	955.82	-29796	0.000000	0.000000	7.251447	408.64	NaN	0.000000	0.001583	0.001666	28.0787	84.4041	0.001834	46021.1	3.513822	173.752	404.05	1.234361	0.091123	0.090865	408.64	46021.1	0.084464	0.227850	1793.46	88085.9
8.000000	2.000000	1.237145	7.36513e+06	-39039.1	955.819	-29796	0.000000	0.000000	7.254607	424.068	NaN	0.000000	0.001591	0.001685	28.0949	86.4154	0.001891	45709.6	3.954108	-6.098274	419.771	1.236744	0.093649	0.093248	424.068	45709.6	0.086691	0.238533	1777.81	85508
8.000000	2.000000	1.239554	7.36513e+06	-39039.1	955.819	-29796	0.000000	0.000000	7.257976	447.417	NaN	0.000000	0.001569	0.001661	28.1296	88.2747	0.001771	49848	4.282550	172.355	442.322	1.239370	0.096058	0.095874	447.417	49848	0.089327	0.251473	1779.19	90818.8
8.000000	2.000000	1.242096	7.36513e+06	-39039.1	955.819	-29796	0.000000	0.000000	7.261344	467.535	NaN	0.000000	0.001516	0.001643	28.0965	90.4602	0.001806	50077.2	3.562891	-7.005753	460.511	1.241779	0.098600	0.098283	467.535	50077.2	0.091598	0.262878	1778.53	89235.3
8.000000	2.000000	1.244638	7.36513e+06	-39039.1	955.819	-29796	0.000000	0.000000	7.264652	486.161	NaN	0.000000	0.001548	0.001658	28.0782	93.0972	0.001815	51288.7	4.351563	172.518	483.769	1.244290	0.101142	0.100794	486.161	51288.7	0.094033	0.275369	1765.49	89297.2
8.000000	2.000000	1.247191	7.36513e+06	-39039.1	955.818	-29796	0.000000	0.000000	7.267815	501.002	NaN	0.000000	0.001550	0.001665	28.0954	94.6661	0.001819	52036.5	5.046651	-8.410444	498.549	1.246915	0.103696	0.103419	501.002	52036.5	0.096475	0.288164	1738.6	88564.8
8.000000	2.000000	1.249544	7.36513e+06	-39039.1	955.82	-29796	0.000000	0.000000	7.271110	523.954	NaN	0.000000	0.001546	0.001695	28.1315	96.1189	0.001718	55932	3.733193	172.05	517.891	1.249308	0.106048	0.105812	523.954	55932	0.099022	0.301806	1736.06	93018.6
8.000000	2.000000	1.250693	7.36513e+06	-39039.1	955.82	-29796	0.000000	0.000000	7.272569	531.488	NaN	0.000000	0.001529	0.001656	28.0793	99.1536	0.001857	53389.9	7.186885	169.323	530.69	1.250376	0.107197	0.106880	531.488	53389.9	0.099731	0.305653	1738.86	88230.4