File: remote_trans/data/nanoindenter/0828-1/data/Data_2025-08-06,11h17m57s/2025-07-22_16-23-58_1_250.txt
2025-07-22, 16:23:58, 1
Index	Phase	Displacement	Time	Pos X	Pos Y	Pos Z	Rot A	Rot B	Piezo Z	Force A	Force B	Gripper	Voltage A	Voltage B	Temperature	Amplitude force	Amplitude pos	Stiffness	Phase shift	Phase excitation	Force A raw	Displacement raw	HMax	HMax raw	Real Force	Real Stiffness	Contact Depth	Area	Hardness	Reduced Mod.
[#]	[#]	[um]	[s]	[um]	[um]	[um]	[m°]	[m°]	[um]	[uN]	[uN]	[V]	[V]	[V]	[°C]	[uN]	[um]	[N/m]	[°]	[°]	[uN]	[um]	[um]	[um]	[uN]	[N/m]	[um]	[um^2]	[MPa]	[MPa]
250	1.000000	0.002199	7.36749e+06	-51139.1	955.819	-29753.6	0.000000	0.000000	6.002758	-0.015152	NaN	0.000000	0.001698	0.001651	28.0798	0.120379	0.000820	146.825	148.316	-162.553	-0.039076	0.000988	-1.114676	-1.115887	-0.015152	146.825	-1.114599	-7.870427E+14	1.925171E-17	NaN
250	1.000000	0.012312	7.36749e+06	-51139.1	955.818	-29753.6	0.000000	0.000000	6.012874	0.048478	NaN	0.000000	0.001685	0.001704	28.08	0.096827	0.001207	80.2296	106.952	19.6449	0.059611	0.010897	-1.104563	-1.105978	0.048478	80.2296	-1.105016	-5.853250E+14	-8.282169E-17	NaN
250	1.000000	0.022216	7.36749e+06	-51139.1	955.819	-29753.6	0.000000	0.000000	6.022776	0.001626	NaN	0.000000	0.001668	0.001655	28.0797	0.038071	0.001793	21.2354	170.967	-163.589	0.032436	0.020928	-1.094659	-1.095947	0.001626	21.2354	-1.094716	-4.257329E+14	-3.819677E-18	NaN
250	1.000000	0.032172	7.36749e+06	-51139.1	955.818	-29753.6	0.000000	0.000000	6.032732	0.002719	NaN	0.000000	0.001699	0.001724	28.0797	0.025018	0.002002	12.498	-152.938	13.8319	-0.045575	0.030810	-1.084703	-1.086065	0.002719	12.498	-1.084866	-3.139574E+14	-8.660128E-18	NaN
250	1.000000	0.042242	7.36749e+06	-51139.1	955.819	-29753.6	0.000000	0.000000	6.042804	0.048554	NaN	0.000000	0.001666	0.001676	28.0797	0.055009	0.001928	28.5287	122.429	-162.503	-0.060905	0.040909	-1.074632	-1.075965	0.048554	28.5287	-1.075909	-2.379955E+14	-2.040141E-16	NaN
250	1.000000	0.052203	7.36749e+06	-51139.1	955.818	-29753.6	0.000000	0.000000	6.052765	0.044302	NaN	0.000000	0.001649	0.001701	28.0801	0.094725	0.001969	48.1013	-167.973	15.1838	-0.064723	0.050806	-1.064672	-1.066069	0.044302	48.1013	-1.065363	-1.717449E+14	-2.579498E-16	NaN
250	1.000000	0.062178	7.36749e+06	-51139.1	955.819	-29753.6	0.000000	0.000000	6.062738	0.006706	NaN	0.000000	0.001694	0.001643	28.0802	0.036873	0.002025	18.2107	-177.735	-166.077	-0.022404	0.060872	-1.054697	-1.056003	0.006706	18.2107	-1.054973	-1.245278E+14	-5.385236E-17	NaN
250	1.000000	0.072226	7.36749e+06	-51139.1	955.818	-29753.6	0.000000	0.000000	6.072787	0.019720	NaN	0.000000	0.001673	0.001671	28.0803	0.044073	0.001998	22.0623	-99.8499	15.5198	-0.013983	0.070808	-1.044649	-1.046066	0.019720	22.0623	-1.045319	-9.236059E+13	-2.135084E-16	NaN
250	1.000000	0.082187	7.36749e+06	-51139.1	955.818	-29753.6	0.000000	0.000000	6.082749	0.059537	NaN	0.000000	0.001714	0.001658	28.0803	0.077753	0.002047	37.9793	-43.8706	-167.01	0.075549	0.080896	-1.034688	-1.035979	0.059537	37.9793	-1.035864	-6.891969E+13	-8.638567E-16	NaN
250	1.000000	0.092253	7.36749e+06	-51139.1	955.819	-29753.6	0.000000	0.000000	6.092816	0.066941	NaN	0.000000	0.001690	0.001646	28.0804	0.104146	0.001938	53.7308	-66.5035	9.318725	0.042403	0.090820	-1.024622	-1.026054	0.066941	53.7308	-1.025556	-5.008461E+13	-1.336567E-15	NaN
250	1.000000	0.102211	7.36749e+06	-51139.1	955.818	-29753.6	0.000000	0.000000	6.102775	0.097834	NaN	0.000000	0.001672	0.001668	28.0791	0.088066	0.001909	46.1207	94.2022	-164.607	0.015012	0.100871	-1.014664	-1.016003	0.097834	46.1207	-1.016255	-3.754523E+13	-2.605753E-15	NaN
250	1.000000	0.112195	7.36749e+06	-51139.1	955.818	-29753.6	0.000000	0.000000	6.112753	-0.043918	NaN	0.000000	0.001671	0.001667	28.0788	0.069046	0.002051	33.6578	36.8155	17.4723	-0.042047	0.110843	-1.004680	-1.006032	-0.043918	33.6578	-1.003701	-2.544473E+13	1.725997E-15	NaN
250	1.000000	0.122224	7.36749e+06	-51139.1	955.818	-29753.6	0.000000	0.000000	6.122786	0.049488	NaN	0.000000	0.001656	0.001706	28.0788	0.015367	0.001990	7.723212	-38.6435	-164.706	0.124896	0.120868	-0.994651	-0.996007	0.049488	7.723212	-0.999457	-2.230778E+13	-2.218436E-15	NaN
250	1.000000	0.132184	7.36749e+06	-51139.1	955.818	-29753.6	0.000000	0.000000	6.132742	-0.050092	NaN	0.000000	0.001702	0.001683	28.079	0.026353	0.002071	12.7235	-39.7452	16.3223	0.019061	0.130832	-0.984691	-0.986043	-0.050092	12.7235	-0.981738	-1.287746E+13	3.889926E-15	NaN
250	1.000000	0.142242	7.36749e+06	-51139.1	955.818	-29753.6	0.000000	0.000000	6.142803	0.018660	NaN	0.000000	0.001673	0.001689	28.0786	0.145551	0.001952	74.5542	134.229	-161.976	0.022276	0.140915	-0.974633	-0.975960	0.018660	74.5542	-0.974821	-1.039023E+13	-1.795920E-15	NaN
250	1.000000	0.152251	7.36749e+06	-51139.1	955.817	-29753.6	0.000000	0.000000	6.152810	-0.009872	NaN	0.000000	0.001676	0.001670	28.0787	0.032704	0.001951	16.7604	-178.903	17.2308	-0.074717	0.150902	-0.964624	-0.965973	-0.009872	16.7604	-0.964182	-7.468825E+12	1.321741E-15	NaN
250	1.000000	0.162257	7.36749e+06	-51139.1	955.819	-29753.6	0.000000	0.000000	6.162818	0.025098	NaN	0.000000	0.001634	0.001652	28.0786	0.024591	0.002035	12.081	45.3053	-164.68	0.024116	0.160937	-0.954618	-0.955938	0.025098	12.081	-0.956176	-5.825272E+12	-4.308480E-15	NaN
250	1.000000	0.172233	7.36749e+06	-51139.1	955.818	-29753.6	0.000000	0.000000	6.172791	-0.037599	NaN	0.000000	0.001579	0.001691	28.0786	0.136045	0.002101	64.7532	-179.955	14.3551	-0.009825	0.170867	-0.944642	-0.946007	-0.037599	64.7532	-0.944206	-4.016825E+12	9.360256E-15	NaN
250	1.000000	0.182221	7.36749e+06	-51139.1	955.818	-29753.6	0.000000	0.000000	6.182777	-0.098481	NaN	0.000000	0.001655	0.001650	28.0786	0.027982	0.001877	14.9058	139.936	-164.974	-0.007630	0.180937	-0.934654	-0.935938	-0.098481	14.9058	-0.929699	-2.559352E+12	3.847874E-14	NaN
250	1.000000	0.192249	7.36749e+06	-51139.1	955.819	-29753.6	0.000000	0.000000	6.192807	-0.045515	NaN	0.000000	0.001657	0.001624	28.0786	0.059279	0.001882	31.493	121.579	15.7025	-0.081772	0.190874	-0.924626	-0.926001	-0.045515	31.493	-0.923542	-2.113618E+12	2.153397E-14	NaN
250	1.000000	0.202270	7.36749e+06	-51139.1	955.819	-29753.6	0.000000	0.000000	6.202831	0.037671	NaN	0.000000	0.001649	0.001621	28.0784	0.006346	0.002220	2.858078	-18.779	-164.017	0.045333	0.201010	-0.914605	-0.915865	0.037671	2.858078	-0.924490	-2.176854E+12	-1.730503E-14	NaN
250	1.000000	0.212268	7.36749e+06	-51139.1	955.818	-29753.6	0.000000	0.000000	6.212828	-0.004904	NaN	0.000000	0.001705	0.001638	28.0786	0.047877	0.002108	22.7163	-138.299	16.4472	-0.053612	0.210934	-0.904607	-0.905941	-0.004904	22.7163	-0.904445	-1.167146E+12	4.201975E-15	NaN
250	1.000000	0.222235	7.36749e+06	-51139.1	955.818	-29753.6	0.000000	0.000000	6.222797	0.056626	NaN	0.000000	0.001697	0.001656	28.0782	0.109968	0.002079	52.9051	25.7155	-163.724	-0.024496	0.220924	-0.894640	-0.895951	0.056626	52.9051	-0.895443	-8.820214E+11	-6.420038E-14	NaN
250	1.000000	0.232276	7.36749e+06	-51139.1	955.819	-29753.6	0.000000	0.000000	6.232838	0.042119	NaN	0.000000	0.001676	0.001676	28.0785	0.067447	0.001959	34.4366	-70.4964	14.3386	-0.048039	0.230933	-0.884598	-0.885942	0.042119	34.4366	-0.885516	-6.475768E+11	-6.504097E-14	NaN
250	1.000000	0.242249	7.3675e+06	-51139.1	955.818	-29753.6	0.000000	0.000000	6.242809	0.012764	NaN	0.000000	0.001679	0.001662	28.0794	0.043689	0.001998	21.8699	77.4622	-163.437	0.011041	0.241009	-0.874626	-0.875866	0.012764	21.8699	-0.875064	-4.676799E+11	-2.729117E-14	NaN
250	1.000000	0.252287	7.3675e+06	-51139.1	955.818	-29753.6	0.000000	0.000000	6.252845	-0.040353	NaN	0.000000	0.001682	0.001647	28.0796	0.059764	0.002034	29.3815	140.008	15.695	-0.029084	0.250894	-0.864588	-0.865981	-0.040353	29.3815	-0.863558	-3.267944E+11	1.234825E-13	NaN
250	1.000000	0.262283	7.3675e+06	-51139.1	955.818	-29753.6	0.000000	0.000000	6.262844	0.033238	NaN	0.000000	0.001705	0.001642	28.0795	0.069967	0.001999	35.0019	-145.972	-163.859	-0.021833	0.260937	-0.854592	-0.855937	0.033238	35.0019	-0.855304	-2.526715E+11	-1.315447E-13	NaN
250	1.000000	0.272287	7.3675e+06	-51139.1	955.818	-29753.6	0.000000	0.000000	6.272846	-0.025159	NaN	0.000000	0.001642	0.001671	28.0799	0.038119	0.001942	19.6288	-9.685734	16.4199	-0.031007	0.270911	-0.844588	-0.845964	-0.025159	19.6288	-0.843627	-1.755587E+11	1.433057E-13	NaN
250	1.000000	0.282304	7.3675e+06	-51139.1	955.817	-29753.6	0.000000	0.000000	6.282864	-0.001210	NaN	0.000000	0.001640	0.001681	28.0797	0.060731	0.002104	28.8586	-178.208	-164.325	-0.104775	0.281027	-0.834571	-0.835847	-0.001210	28.8586	-0.834539	-1.322228E+11	9.147903E-15	NaN
250	1.000000	0.292314	7.3675e+06	-51139.1	955.818	-29753.6	0.000000	0.000000	6.292873	-0.028343	NaN	0.000000	0.001606	0.001674	28.0798	0.171597	0.002096	81.8666	-160.481	13.614	-0.018451	0.290915	-0.824561	-0.825960	-0.028343	81.8666	-0.824301	-9.605723E+10	2.950652E-13	NaN
250	1.000000	0.302307	7.3675e+06	-51139.1	955.818	-29753.6	0.000000	0.000000	6.302864	-0.061861	NaN	0.000000	0.001608	0.001676	28.0797	0.057614	0.002035	28.3099	99.0757	-166.552	0.016549	0.300941	-0.814568	-0.815934	-0.061861	28.3099	-0.812929	-6.734569E+10	9.185624E-13	NaN
250	1.000000	0.312298	7.3675e+06	-51139.1	955.818	-29753.6	0.000000	0.000000	6.312857	-0.017615	NaN	0.000000	0.001639	0.001665	28.0798	0.084374	0.001904	44.3204	-84.6268	15.1657	0.066484	0.310968	-0.804577	-0.805907	-0.017615	44.3204	-0.804279	-5.139763E+10	3.427207E-13	NaN
250	1.000000	0.322329	7.3675e+06	-51139.1	955.818	-29753.6	0.000000	0.000000	6.322890	0.041654	NaN	0.000000	0.001626	0.001629	28.0798	0.028598	0.002079	13.7583	-174.019	-163.864	0.050105	0.320999	-0.794546	-0.795876	0.041654	13.7583	-0.796817	-4.070518E+10	-1.023317E-12	NaN
250	1.000000	0.332282	7.3675e+06	-51139.1	955.819	-29753.6	0.000000	0.000000	6.332842	-0.019177	NaN	0.000000	0.001625	0.001683	28.0798	0.048688	0.001890	25.7579	169.206	17.1591	-0.003554	0.330943	-0.784592	-0.785932	-0.019177	25.7579	-0.784034	-2.729254E+10	7.026286E-13	NaN
250	1.000000	0.342280	7.3675e+06	-51139.1	955.818	-29753.6	0.000000	0.000000	6.342842	0.042440	NaN	0.000000	0.001617	0.001680	28.08	0.061980	0.001976	31.3689	23.0609	-159.342	-0.017331	0.340939	-0.774595	-0.775936	0.042440	31.3689	-0.775609	-2.096826E+10	-2.024015E-12	NaN
250	1.000000	0.352300	7.3675e+06	-51139.1	955.818	-29753.6	0.000000	0.000000	6.352860	-0.001345	NaN	0.000000	0.001586	0.001689	28.0799	0.082073	0.002093	39.2103	171.152	15.8345	-0.039078	0.350989	-0.764575	-0.765886	-0.001345	39.2103	-0.764549	-1.483123E+10	9.068034E-14	NaN
250	1.000000	0.362310	7.3675e+06	-51139.1	955.818	-29753.6	0.000000	0.000000	6.362871	0.021100	NaN	0.000000	0.001623	0.001751	28.0799	0.068001	0.001863	36.5038	61.0455	-160.512	-0.045216	0.360953	-0.754564	-0.755921	0.021100	36.5038	-0.754998	-1.099621E+10	-1.918808E-12	NaN
250	1.000000	0.372321	7.3675e+06	-51139.1	955.818	-29753.6	0.000000	0.000000	6.372881	-0.010370	NaN	0.000000	0.001626	0.001696	28.0798	0.057121	0.001970	29.0006	-115.344	18.9042	0.012840	0.370984	-0.744554	-0.745891	-0.010370	29.0006	-0.744285	-7.859924E+9	1.319394E-12	NaN
250	1.000000	0.382323	7.3675e+06	-51139.1	955.819	-29753.6	0.000000	0.000000	6.382885	0.043899	NaN	0.000000	0.001610	0.001691	28.0788	0.028620	0.001985	14.4155	-15.8673	-169.988	0.008517	0.381062	-0.734552	-0.735813	0.043899	14.4155	-0.736836	-6.222370E+9	-7.055082E-12	NaN
250	1.000000	0.392346	7.3675e+06	-51139.1	955.818	-29753.6	0.000000	0.000000	6.392906	-0.001041	NaN	0.000000	0.001632	0.001645	28.0785	0.018234	0.002031	8.978165	61.4465	13.5889	-0.028030	0.391014	-0.724529	-0.725860	-0.001041	8.978165	-0.724442	-4.217358E+9	2.468848E-13	NaN
250	1.000000	0.402315	7.3675e+06	-51139.1	955.818	-29753.6	0.000000	0.000000	6.402876	0.017732	NaN	0.000000	0.001623	0.001684	28.0786	0.061083	0.001987	30.7389	-137.536	-164.432	0.028983	0.401030	-0.714560	-0.715845	0.017732	30.7389	-0.714992	-3.134491E+9	-5.657142E-12	NaN
250	1.000000	0.412338	7.3675e+06	-51139.1	955.817	-29753.6	0.000000	0.000000	6.412897	-0.023902	NaN	0.000000	0.001618	0.001664	28.0785	0.085606	0.001965	43.5711	9.755786	13.3172	-0.023006	0.410980	-0.704536	-0.705895	-0.023902	43.5711	-0.704125	-2.227695E+9	1.072942E-11	NaN
250	1.000000	0.422315	7.3675e+06	-51139.1	955.818	-29753.6	0.000000	0.000000	6.422874	-0.035661	NaN	0.000000	0.001596	0.001637	28.0786	0.098512	0.001982	49.6987	137.997	-168.215	0.035818	0.421075	-0.694559	-0.695799	-0.035661	49.6987	-0.694021	-1.621308E+9	2.199512E-11	NaN
250	1.000000	0.432318	7.3675e+06	-51139.1	955.817	-29753.6	0.000000	0.000000	6.432878	-0.010555	NaN	0.000000	0.001597	0.001638	28.0784	0.124173	0.002060	60.2843	167.897	15.0642	-0.037905	0.431017	-0.684557	-0.685857	-0.010555	60.2843	-0.684425	-1.198718E+9	8.805121E-12	NaN
250	1.000000	0.442357	7.3675e+06	-51139.1	955.819	-29753.6	0.000000	0.000000	6.442918	0.010511	NaN	0.000000	0.001565	0.001681	28.0787	0.091758	0.001816	50.5399	69.8145	-166.005	-0.021517	0.441026	-0.674517	-0.675848	0.010511	50.5399	-0.674673	-8.817462E+8	-1.192053E-11	NaN
250	1.000000	0.452377	7.3675e+06	-51139.1	955.819	-29753.6	0.000000	0.000000	6.452938	0.040197	NaN	0.000000	0.001577	0.001676	28.0785	0.028268	0.002036	13.8857	110.626	14.6982	0.065075	0.451058	-0.664498	-0.665817	0.040197	13.8857	-0.666669	-6.851698E+8	-5.866759E-11	NaN
250	1.000000	0.462365	7.3675e+06	-51139.1	955.818	-29753.6	0.000000	0.000000	6.462926	0.042657	NaN	0.000000	0.001568	0.001718	28.0785	0.057198	0.001968	29.0649	-132.517	-162.945	0.111096	0.461048	-0.654510	-0.655827	0.042657	29.0649	-0.655611	-4.834357E+8	-8.823654E-11	NaN
250	1.000000	0.472343	7.3675e+06	-51139.1	955.818	-29753.6	0.000000	0.000000	6.472903	-0.004635	NaN	0.000000	0.001592	0.001704	28.0784	0.159211	0.002001	79.5643	-124.854	13.7015	-0.041022	0.471011	-0.644532	-0.645864	-0.004635	79.5643	-0.644488	-3.402995E+8	1.361892E-11	NaN
250	1.000000	0.482369	7.3675e+06	-51139.1	955.819	-29753.6	0.000000	0.000000	6.482930	0.039186	NaN	0.000000	0.001573	0.001700	28.0785	0.096754	0.001909	50.6752	-52.5778	-168.938	0.089427	0.481102	-0.634506	-0.635773	0.039186	50.6752	-0.635086	-2.528459E+8	-1.549797E-10	NaN
250	1.000000	0.492377	7.3675e+06	-51139.1	955.817	-29753.6	0.000000	0.000000	6.492937	-0.010673	NaN	0.000000	0.001567	0.001679	28.0786	0.058064	0.002055	28.2544	-177.085	17.7555	0.040850	0.490999	-0.624498	-0.625876	-0.010673	28.2544	-0.624214	-1.792872E+8	5.952768E-11	NaN
250	1.000000	0.502402	7.3675e+06	-51139.1	955.818	-29753.6	0.000000	0.000000	6.502963	0.026349	NaN	0.000000	0.001564	0.001694	28.0785	0.050770	0.002097	24.214	2.856989	-164.694	-0.022726	0.501037	-0.614473	-0.615838	0.026349	24.214	-0.615289	-1.351659E+8	-1.949398E-10	NaN
250	1.000000	0.512406	7.3675e+06	-51139.1	955.819	-29753.6	0.000000	0.000000	6.512966	-0.020488	NaN	0.000000	0.001587	0.001703	28.0797	0.050707	0.002114	23.989	-75.7506	16.2402	-0.014869	0.511053	-0.604468	-0.605821	-0.020488	23.989	-0.603828	-9.400874E+7	2.179361E-10	NaN
250	1.000000	0.522390	7.3675e+06	-51139.1	955.818	-29753.6	0.000000	0.000000	6.522951	0.009969	NaN	0.000000	0.001552	0.001685	28.0797	0.092517	0.001989	46.5078	-24.6494	-165.831	0.003814	0.521085	-0.594484	-0.595790	0.009969	46.5078	-0.594645	-7.025752E+7	-1.418959E-10	NaN
250	1.000000	0.532391	7.3675e+06	-51139.1	955.818	-29753.6	0.000000	0.000000	6.532948	-0.065099	NaN	0.000000	0.001601	0.001645	28.0797	0.142555	0.001793	79.4968	74.2095	16.4523	-0.072934	0.531035	-0.584484	-0.585839	-0.065099	79.4968	-0.583870	-4.990261E+7	1.304528E-9	NaN
250	1.000000	0.542389	7.3675e+06	-51139.1	955.817	-29753.6	0.000000	0.000000	6.542949	0.005519	NaN	0.000000	0.001577	0.001666	28.0797	0.116064	0.002097	55.3495	99.194	-167.203	0.061989	0.541080	-0.574486	-0.575794	0.005519	55.3495	-0.574561	-3.712228E+7	-1.486669E-10	NaN
250	1.000000	0.552410	7.3675e+06	-51139.1	955.818	-29753.6	0.000000	0.000000	6.552972	0.053467	NaN	0.000000	0.001556	0.001668	28.0799	0.072839	0.001954	37.2692	-87.2846	15.882	0.112198	0.550951	-0.564465	-0.565924	0.053467	37.2692	-0.565541	-2.786135E+7	-1.919021E-9	NaN
250	1.000000	0.562423	7.3675e+06	-51139.1	955.817	-29753.6	0.000000	0.000000	6.562983	-0.017512	NaN	0.000000	0.001546	0.001701	28.0798	0.043478	0.001930	22.5323	49.2444	-168.411	-0.007943	0.561106	-0.554452	-0.555769	-0.017512	22.5323	-0.553869	-1.920999E+7	9.116039E-10	NaN
250	1.000000	0.572440	7.3675e+06	-51139.1	955.819	-29753.6	0.000000	0.000000	6.572999	-0.023450	NaN	0.000000	0.001560	0.001703	28.08	0.086925	0.001966	44.218	101.565	18.5258	-0.023946	0.571017	-0.544435	-0.545858	-0.023450	44.218	-0.544037	-1.403899E+7	1.670324E-9	NaN
250	1.000000	0.582424	7.3675e+06	-51139.1	955.818	-29753.6	0.000000	0.000000	6.582984	0.012706	NaN	0.000000	0.001565	0.001709	28.08	0.043795	0.002054	21.3212	-64.1945	-161.742	-0.045406	0.581094	-0.534451	-0.535781	0.012706	21.3212	-0.534898	-1.048518E+7	-1.211834E-9	NaN
250	1.000000	0.592433	7.3675e+06	-51139.1	955.819	-29753.6	0.000000	0.000000	6.592990	-0.067258	NaN	0.000000	0.001612	0.001715	28.0802	0.026468	0.002068	12.7992	145.892	17.5484	-0.134417	0.591059	-0.524442	-0.525815	-0.067258	12.7992	-0.520501	-6.61545e+06	1.016682E-8	NaN
250	1.000000	0.602433	7.3675e+06	-51139.1	955.819	-29753.6	0.000000	0.000000	6.602994	0.013463	NaN	0.000000	0.001545	0.001716	28.08	0.065538	0.001953	33.5496	-115.348	-164.045	0.081682	0.601210	-0.514442	-0.515665	0.013463	33.5496	-0.514743	-5.50109e+06	-2.447277E-9	NaN
250	1.000000	0.612425	7.3675e+06	-51139.1	955.818	-29753.6	0.000000	0.000000	6.612986	0.017528	NaN	0.000000	0.001565	0.001689	28.0799	0.064642	0.001956	33.0554	-153.608	12.8898	-0.015882	0.611048	-0.504450	-0.505827	0.017528	33.0554	-0.504848	-4.00518e+06	-4.376378E-9	NaN
250	1.000000	0.622450	7.3675e+06	-51139.1	955.818	-29753.6	0.000000	0.000000	6.623006	-0.107243	NaN	0.000000	0.001575	0.001734	28.0797	0.020407	0.001941	10.5126	68.2774	-164.895	-0.094650	0.621128	-0.494425	-0.495747	-0.107243	10.5126	-0.486774	-2.24026e+06	4.787096E-8	NaN
250	1.000000	0.632433	7.3675e+06	-51139.1	955.818	-29753.6	0.000000	0.000000	6.632995	0.056257	NaN	0.000000	0.001639	0.001751	28.0799	0.105297	0.001954	53.875	-66.2942	15.6798	0.129286	0.631061	-0.484442	-0.485814	0.056257	53.875	-0.485225	-2.13127e+06	-2.639585E-8	NaN
250	1.000000	0.642455	7.3675e+06	-51139.1	955.817	-29753.6	0.000000	0.000000	6.643016	0.037062	NaN	0.000000	0.001659	0.001667	28.0798	0.020632	0.002002	10.3051	77.6166	-166.921	-0.058270	0.641141	-0.474420	-0.475734	0.037062	10.3051	-0.477117	-1.6412e+06	-2.258250E-8	NaN
250	1.000000	0.652441	7.3675e+06	-51139.1	955.818	-29753.6	0.000000	0.000000	6.653001	-0.009223	NaN	0.000000	0.001632	0.001690	28.0786	0.028381	0.002056	13.8045	-63.0447	12.2416	-0.067078	0.651044	-0.464434	-0.465830	-0.009223	13.8045	-0.463933	-1.07216e+06	8.602590E-9	NaN
250	1.000000	0.662441	7.3675e+06	-51139.1	955.818	-29753.6	0.000000	0.000000	6.662999	-0.027612	NaN	0.000000	0.001669	0.001686	28.0786	0.034232	0.002126	16.0988	-121.772	-166.326	-0.008667	0.661214	-0.454434	-0.455660	-0.027612	16.0988	-0.453148	-756236	3.651278E-8	NaN
250	1.000000	0.672465	7.3675e+06	-51139.1	955.818	-29753.6	0.000000	0.000000	6.673024	-0.007587	NaN	0.000000	0.001640	0.001653	28.0789	0.075049	0.002104	35.6708	115.66	15.7703	0.036420	0.671053	-0.444410	-0.445822	-0.007587	35.6708	-0.444251	-566664	1.338966E-8	NaN
250	1.000000	0.682479	7.3675e+06	-51139.1	955.818	-29753.6	0.000000	0.000000	6.683040	0.028168	NaN	0.000000	0.001657	0.001625	28.0787	0.082980	0.001906	43.536	161.514	-165.781	-0.002599	0.681120	-0.434396	-0.435755	0.028168	43.536	-0.434881	-417898	-6.740354E-8	NaN
250	1.000000	0.692475	7.3675e+06	-51139.1	955.819	-29753.6	0.000000	0.000000	6.693032	-0.054307	NaN	0.000000	0.001658	0.001659	28.0788	0.041478	0.001980	20.9494	132.838	11.2359	-0.003913	0.691125	-0.424400	-0.425749	-0.054307	20.9494	-0.422456	-278764	1.948136E-7	NaN
250	1.000000	0.702455	7.3675e+06	-51139.1	955.818	-29753.6	0.000000	0.000000	6.703016	0.025780	NaN	0.000000	0.001625	0.001681	28.0787	0.058218	0.001977	29.4463	80.8266	-163.734	-0.068554	0.701146	-0.414420	-0.415728	0.025780	29.4463	-0.415076	-219049	-1.176908E-7	NaN
250	1.000000	0.712447	7.3675e+06	-51139.1	955.818	-29753.6	0.000000	0.000000	6.713008	0.044913	NaN	0.000000	0.001663	0.001683	28.0788	0.018089	0.001978	9.143100	25.9165	14.6695	0.043541	0.711074	-0.404428	-0.405801	0.044913	9.143100	-0.408112	-174402	-2.575248E-7	NaN
250	1.000000	0.722471	7.3675e+06	-51139.1	955.818	-29753.6	0.000000	0.000000	6.723031	0.005815	NaN	0.000000	0.001598	0.001718	28.0787	0.059203	0.001937	30.5687	-109.108	-165.129	-0.052053	0.721142	-0.394404	-0.395732	0.005815	30.5687	-0.394547	-111727	-5.204373E-8	NaN
250	1.000000	0.732481	7.3675e+06	-51139.1	955.818	-29753.6	0.000000	0.000000	6.733040	-0.013411	NaN	0.000000	0.001639	0.001708	28.0785	0.039776	0.001998	19.9044	123.102	17.0487	-0.036818	0.731098	-0.384394	-0.385777	-0.013411	19.9044	-0.383889	-78642.7	1.705283E-7	NaN
250	1.000000	0.742481	7.3675e+06	-51139.1	955.818	-29753.6	0.000000	0.000000	6.743038	-0.074809	NaN	0.000000	0.001646	0.001670	28.0786	0.085098	0.001975	43.0899	67.015	-164.497	-0.033137	0.741206	-0.374393	-0.375669	-0.074809	43.0899	-0.373091	-55032.9	1.359345E-6	NaN
250	1.000000	0.752478	7.3675e+06	-51139.1	955.818	-29753.6	0.000000	0.000000	6.753037	-0.016930	NaN	0.000000	0.001676	0.001700	28.0788	0.035992	0.001911	18.8372	-60.5319	15.056	-0.045663	0.751147	-0.364397	-0.365728	-0.016930	18.8372	-0.363723	-40329.4	4.197993E-7	NaN
250	1.000000	0.762518	7.3675e+06	-51139.1	955.818	-29753.6	0.000000	0.000000	6.763078	0.008352	NaN	0.000000	0.001666	0.001676	28.0785	0.106968	0.001963	54.5018	28.839	-166.019	-0.052720	0.761220	-0.354357	-0.355654	0.008352	54.5018	-0.354472	-29637.8	-2.818068E-7	NaN
250	1.000000	0.772516	7.3675e+06	-51139.1	955.818	-29753.6	0.000000	0.000000	6.773076	-0.002254	NaN	0.000000	0.001670	0.001646	28.0785	0.055472	0.002087	26.5758	-158.426	12.6129	0.027762	0.771129	-0.344359	-0.345746	-0.002254	26.5758	-0.344295	-21091.3	1.068545E-7	NaN
250	1.000000	0.782492	7.3675e+06	-51139.1	955.818	-29753.6	0.000000	0.000000	6.783050	-0.045740	NaN	0.000000	0.001660	0.001664	28.0786	0.109029	0.002099	51.9425	99.8861	-162.786	-0.055920	0.781207	-0.334383	-0.335668	-0.045740	51.9425	-0.333723	-14788.3	3.093023E-6	NaN
250	1.000000	0.792503	7.3675e+06	-51139.1	955.818	-29753.6	0.000000	0.000000	6.793063	0.014620	NaN	0.000000	0.001671	0.001665	28.0799	0.038190	0.002116	18.0447	17.9861	15.8531	0.018564	0.791131	-0.324372	-0.325743	0.014620	18.0447	-0.324980	-11011.4	-1.327737E-6	NaN
250	1.000000	0.802519	7.3675e+06	-51139.1	955.818	-29753.6	0.000000	0.000000	6.803078	-0.023123	NaN	0.000000	0.001567	0.001696	28.0797	0.129932	0.001956	66.4205	58.1738	-168.356	-0.002858	0.801169	-0.314356	-0.315706	-0.023123	66.4205	-0.314095	-7613.5	3.037155E-6	NaN
250	1.000000	0.812524	7.3675e+06	-51139.1	955.817	-29753.6	0.000000	0.000000	6.813086	0.034663	NaN	0.000000	0.001579	0.001650	28.0798	0.035510	0.001892	18.7696	35.4133	14.4752	-0.064791	0.811142	-0.304351	-0.305733	0.034663	18.7696	-0.305736	-5726.29	-6.053266E-6	NaN
250	1.000000	0.822483	7.3675e+06	-51139.1	955.818	-29753.6	0.000000	0.000000	6.823041	-0.052037	NaN	0.000000	0.001596	0.001651	28.0799	0.012344	0.001969	6.269737	91.1174	-165.784	-0.079956	0.821207	-0.294392	-0.295667	-0.052037	6.269737	-0.288167	-3132.01	1.661470E-5	NaN
250	1.000000	0.832558	7.3675e+06	-51139.1	955.818	-29753.6	0.000000	0.000000	6.833118	-0.004752	NaN	0.000000	0.001553	0.001673	28.0799	0.028256	0.001997	14.1485	160.214	16.6381	-0.016562	0.831166	-0.284317	-0.285708	-0.004752	14.1485	-0.284065	-2717.73	1.748467E-6	NaN
250	1.000000	0.842555	7.3675e+06	-51139.1	955.818	-29753.6	0.000000	0.000000	6.843115	-0.014569	NaN	0.000000	0.001558	0.001664	28.0797	0.082991	0.002135	38.8715	103.351	-165.519	0.057466	0.841209	-0.274320	-0.275666	-0.014569	38.8715	-0.274039	-1917.95	7.596242E-6	NaN
250	1.000000	0.852521	7.3675e+06	-51139.1	955.818	-29753.6	0.000000	0.000000	6.853081	0.000480	NaN	0.000000	0.001545	0.001663	28.0798	0.020703	0.001991	10.3987	178.508	15.3926	-0.047455	0.851198	-0.264354	-0.265676	0.000480	10.3987	-0.264389	-1367.91	-3.510973E-7	NaN
250	1.000000	0.862504	7.3675e+06	-51139.1	955.818	-29753.6	0.000000	0.000000	6.863061	-0.081521	NaN	0.000000	0.001543	0.001699	28.08	0.074088	0.001890	39.1913	130.096	-164.318	-0.111989	0.861233	-0.254371	-0.255642	-0.081521	39.1913	-0.252811	-908.618	8.972014E-5	NaN
250	1.000000	0.872531	7.3675e+06	-51139.1	955.818	-29753.6	0.000000	0.000000	6.873091	0.003111	NaN	0.000000	0.001533	0.001658	28.0797	0.041938	0.002061	20.346	-57.1021	15.1789	-0.072812	0.871175	-0.244344	-0.245700	0.003111	20.346	-0.244459	-674.586	-4.611454E-6	NaN
250	1.000000	0.882545	7.3675e+06	-51139.1	955.818	-29753.6	0.000000	0.000000	6.883104	-0.009562	NaN	0.000000	0.001579	0.001680	28.0799	0.154939	0.002076	74.6233	132.85	-167.186	0.003162	0.881254	-0.234330	-0.235621	-0.009562	74.6233	-0.234234	-466.893	2.047987E-5	NaN
250	1.000000	0.892561	7.3675e+06	-51139.1	955.819	-29753.6	0.000000	0.000000	6.893118	-0.064980	NaN	0.000000	0.001559	0.001657	28.0801	0.058924	0.001869	31.5263	84.6724	14.7227	-0.122359	0.891184	-0.224314	-0.225691	-0.064980	31.5263	-0.222768	-307.496	0.000211	NaN
250	1.000000	0.902554	7.3675e+06	-51139.1	955.818	-29753.6	0.000000	0.000000	6.903112	-0.043945	NaN	0.000000	0.001599	0.001667	28.0801	0.099129	0.001986	49.9257	110.612	-162.149	-0.052089	0.901259	-0.214321	-0.215616	-0.043945	49.9257	-0.213660	-219.76	0.000200	NaN
250	1.000000	0.912552	7.3675e+06	-51139.1	955.817	-29753.6	0.000000	0.000000	6.913113	0.017693	NaN	0.000000	0.001573	0.001634	28.08	0.048672	0.002048	23.7649	102.632	19.5106	-0.071599	0.911179	-0.204323	-0.205696	0.017693	23.7649	-0.204881	-158.349	-0.000112	NaN
250	1.000000	0.922572	7.3675e+06	-51139.1	955.819	-29753.6	0.000000	0.000000	6.923134	0.042675	NaN	0.000000	0.001591	0.001654	28.0788	0.085973	0.002011	42.7612	84.7265	-167.431	0.057366	0.921240	-0.194303	-0.195635	0.042675	42.7612	-0.195051	-109.157	-0.000391	NaN
250	1.000000	0.932556	7.3675e+06	-51139.1	955.817	-29753.6	0.000000	0.000000	6.933115	-0.028478	NaN	0.000000	0.001593	0.001674	28.0788	0.118386	0.001963	60.3057	-3.491873	13.593	-0.004780	0.931223	-0.184318	-0.185652	-0.028478	60.3057	-0.183964	-71.2295	0.000400	NaN
250	1.000000	0.942564	7.3675e+06	-51139.1	955.818	-29753.6	0.000000	0.000000	6.943123	-0.029029	NaN	0.000000	0.001576	0.001690	28.0786	0.054064	0.001951	27.7106	137.109	-162.151	-0.025863	0.941258	-0.174311	-0.175617	-0.029029	27.7106	-0.173525	-47.2717	0.000614	NaN
250	1.000000	0.952540	7.3675e+06	-51139.1	955.818	-29753.6	0.000000	0.000000	6.953101	0.010251	NaN	0.000000	0.001579	0.001676	28.0788	0.079613	0.002068	38.4889	-142.34	14.6209	0.010665	0.951220	-0.164335	-0.165654	0.010251	38.4889	-0.164534	-32.9704	-0.000311	NaN
250	1.000000	0.962547	7.3675e+06	-51139.1	955.818	-29753.6	0.000000	0.000000	6.963107	-0.009166	NaN	0.000000	0.001636	0.001688	28.0787	0.023125	0.001975	11.71	158.879	-161.379	-0.037662	0.961208	-0.154327	-0.155667	-0.009166	11.71	-0.153740	-21.1775	0.000433	NaN
250	1.000000	0.972560	7.3675e+06	-51139.1	955.818	-29753.6	0.000000	0.000000	6.973120	-0.010924	NaN	0.000000	0.001595	0.001715	28.079	0.034174	0.001912	17.873	-25.4703	12.8471	-0.006348	0.971223	-0.144315	-0.145652	-0.010924	17.873	-0.143856	-13.9629	0.000782	NaN
250	1.000000	0.982600	7.3675e+06	-51139.1	955.819	-29753.6	0.000000	0.000000	6.983159	-0.030139	NaN	0.000000	0.001581	0.001718	28.0787	0.064401	0.002141	30.0763	101.581	-165.233	-0.010921	0.981295	-0.134275	-0.135580	-0.030139	30.0763	-0.133523	-8.912986	0.003382	NaN
250	1.000000	0.992584	7.3675e+06	-51139.1	955.818	-29753.6	0.000000	0.000000	6.993145	0.019329	NaN	0.000000	0.001555	0.001717	28.0789	0.060913	0.001948	31.2619	-31.7543	16.4917	0.027538	0.991239	-0.124291	-0.125636	0.019329	31.2619	-0.124755	-6.013660	-0.003214	NaN
250	1.000000	1.002604	7.3675e+06	-51139.1	955.819	-29753.6	0.000000	0.000000	7.003165	0.026152	NaN	0.000000	0.001553	0.001692	28.0786	0.100202	0.001910	52.4679	137.465	-164.542	0.050917	1.001299	-0.114270	-0.115575	0.026152	52.4679	-0.114644	-3.756352	-0.006962	NaN
250	1.000000	1.012594	7.3675e+06	-51139.1	955.818	-29753.6	0.000000	0.000000	7.013154	-0.022222	NaN	0.000000	0.001571	0.001676	28.079	0.063626	0.002025	31.4244	-22.1693	11.5695	0.016177	1.011228	-0.104280	-0.105647	-0.022222	31.4244	-0.103750	-2.208448	0.010062	NaN
250	1.000000	1.022606	7.3675e+06	-51139.1	955.819	-29753.6	0.000000	0.000000	7.023164	-0.061819	NaN	0.000000	0.001534	0.001659	28.0788	0.047504	0.002007	23.6697	72.2487	-164.316	-0.003957	1.021297	-0.094269	-0.095577	-0.061819	23.6697	-0.092310	-1.223611	0.050522	NaN
250	1.000000	1.032612	7.3675e+06	-51139.1	955.82	-29753.6	0.000000	0.000000	7.033175	0.063273	NaN	0.000000	0.001501	0.001681	28.0788	0.076913	0.002073	37.1044	-108.856	15.2116	-0.005468	1.031217	-0.084263	-0.085658	0.063273	37.1044	-0.085542	-0.846772	-0.074723	NaN
250	1.000000	1.042599	7.3675e+06	-51139.1	955.819	-29753.6	0.000000	0.000000	7.043157	-0.044891	NaN	0.000000	0.001596	0.001685	28.0789	0.050352	0.002073	24.2857	120.961	-164.664	-0.004448	1.041267	-0.074276	-0.075608	-0.044891	24.2857	-0.072890	-0.406941	0.110313	NaN
250	1.000000	1.052599	7.3675e+06	-51139.1	955.818	-29753.6	0.000000	0.000000	7.053158	-0.014461	NaN	0.000000	0.001604	0.001678	28.0789	0.043577	0.001959	22.2462	31.5774	12.3266	0.057185	1.051257	-0.064276	-0.065618	-0.014461	22.2462	-0.063789	-0.230586	0.062714	NaN
250	1.000000	1.062604	7.3675e+06	-51139.1	955.818	-29753.6	0.000000	0.000000	7.063166	0.049871	NaN	0.000000	0.001570	0.001695	28.0802	0.036596	0.001968	18.5947	39.8391	-168.405	-0.006236	1.061323	-0.054270	-0.055552	0.049871	18.5947	-0.056282	-0.140474	-0.355019	NaN
250	1.000000	1.072634	7.3675e+06	-51139.1	955.819	-29753.6	0.000000	0.000000	7.073195	0.022871	NaN	0.000000	0.001599	0.001682	28.0802	0.063758	0.002008	31.7555	36.1829	11.8813	-0.043079	1.071253	-0.044241	-0.045622	0.022871	31.7555	-0.044781	-0.063286	-0.361385	NaN
250	1.000000	1.082603	7.3675e+06	-51139.1	955.819	-29753.6	0.000000	0.000000	7.083163	-0.003541	NaN	0.000000	0.001601	0.001656	28.0803	0.045351	0.001987	22.8288	-96.8992	-166.596	0.032683	1.081281	-0.034271	-0.035594	-0.003541	22.8288	-0.034155	-0.030248	0.117055	NaN
250	1.000000	1.092618	7.3675e+06	-51139.1	955.819	-29753.6	0.000000	0.000000	7.093177	-0.023917	NaN	0.000000	0.001571	0.001643	28.0801	0.084106	0.001969	42.7088	15.4539	16.828	0.058161	1.091298	-0.024257	-0.025577	-0.023917	42.7088	-0.023837	-0.015738	1.519726	NaN
250	1.000000	1.102626	7.3675e+06	-51139.1	955.819	-29753.6	0.000000	0.000000	7.103188	0.042568	NaN	0.000000	0.001600	0.001696	28.0799	0.127699	0.002117	60.3098	-129.597	-166.396	-0.016350	1.101310	-0.014249	-0.015565	0.042568	60.3098	-0.014778	-0.009143	-4.655827	NaN
250	1.000000	1.112652	7.3675e+06	-51139.1	955.819	-29753.6	0.000000	0.000000	7.113212	-0.005354	NaN	0.000000	0.001570	0.001687	28.0801	0.011469	0.001839	6.236452	-11.8957	15.9433	-0.011698	1.111271	-0.004223	-0.005604	-0.005354	6.236452	-0.003579	-0.002504	2.138054	NaN
250	1.000000	1.122606	7.3675e+06	-51139.1	955.819	-29753.6	0.000000	0.000000	7.123396	5.582189	NaN	0.000000	0.001557	0.001631	28.0801	6.462029	0.001898	3405.16	11.9728	-171.325	3.888526	1.121313	0.005731	0.004438	5.582189	3405.16	0.004502	0.003683	1515.62	51263
250	2.000000	1.126734	7.3675e+06	-51139.1	955.818	-29753.6	0.000000	0.000000	7.127733	10.6681	NaN	0.000000	0.001586	0.001649	28.0804	10.9274	0.001569	6965.87	10.3814	3.606548	10.2204	1.126358	0.009859	0.009483	10.6681	6965.87	0.008710	0.007783	1370.66	72138.8
250	2.000000	1.129223	7.3675e+06	-51139.1	955.819	-29753.6	0.000000	0.000000	7.130386	14.6502	NaN	0.000000	0.001573	0.001660	28.08	13.8322	0.001728	8003.93	6.660834	-174.072	14.3276	1.128925	0.012348	0.012050	14.6502	8003.93	0.010976	0.010286	1424.29	72103
250	2.000000	1.131672	7.3675e+06	-51139.1	955.82	-29753.6	0.000000	0.000000	7.133038	19.6018	NaN	0.000000	0.001585	0.001660	28.0801	17.1574	0.001763	9732.92	5.145895	6.078383	19.0284	1.131328	0.014797	0.014453	19.6018	9732.92	0.013286	0.013068	1500.04	77789.1
250	2.000000	1.134192	7.3675e+06	-51139.1	955.82	-29753.6	0.000000	0.000000	7.135706	23.1882	NaN	0.000000	0.001594	0.001697	28.0801	20.4061	0.001879	10861.9	8.266454	-178.07	23.2614	1.133841	0.017317	0.016966	23.1882	10861.9	0.015716	0.016252	1426.75	77842.9
250	2.000000	1.136659	7.3675e+06	-51139.1	955.82	-29753.6	0.000000	0.000000	7.138514	31.4796	NaN	0.000000	0.001583	0.001718	28.0802	22.8281	0.001872	12195.3	9.812339	0.611641	30.459	1.136224	0.019784	0.019349	31.4796	12195.3	0.017848	0.019273	1633.34	80258.2
250	2.000000	1.139117	7.3675e+06	-51139.1	955.82	-29753.6	0.000000	0.000000	7.141255	38.359	NaN	0.000000	0.001531	0.001651	28.0802	24.4871	0.001700	14406	6.484436	-178.85	37.0616	1.138785	0.022242	0.021910	38.359	14406	0.020245	0.022929	1672.94	86920.5
250	2.000000	1.141664	7.3675e+06	-51139.1	955.82	-29753.6	0.000000	0.000000	7.144011	43.4543	NaN	0.000000	0.001579	0.001712	28.08	27.7722	0.001803	15399.1	5.752425	1.262722	43.0872	1.141328	0.024789	0.024454	43.4543	15399.1	0.022673	0.026917	1614.36	85753.5
250	2.000000	1.144132	7.3675e+06	-51139.1	955.82	-29753.6	0.000000	0.000000	7.146719	49.2728	NaN	0.000000	0.001599	0.001720	28.079	29.993	0.001817	16510.4	4.364282	-178.053	48.1841	1.143852	0.027257	0.026977	49.2728	16510.4	0.025019	0.031051	1586.86	85604.6
250	2.000000	1.146642	7.3675e+06	-51139.1	955.819	-29753.6	0.000000	0.000000	7.149526	56.5218	NaN	0.000000	0.001614	0.001703	28.0789	32.0223	0.001719	18623.8	4.770845	0.163572	53.8284	1.146263	0.029767	0.029388	56.5218	18623.8	0.027491	0.035703	1583.12	90051.3
250	2.000000	1.149107	7.3675e+06	-51139.1	955.819	-29753.6	0.000000	0.000000	7.152391	66.2418	NaN	0.000000	0.001598	0.001698	28.0789	33.9816	0.001768	19218.3	3.079314	-178.059	64.9155	1.148807	0.032232	0.031932	66.2418	19218.3	0.029647	0.040015	1655.44	87776.6
250	2.000000	1.151599	7.3675e+06	-51139.1	955.819	-29753.6	0.000000	0.000000	7.155351	77.6241	NaN	0.000000	0.001583	0.001696	28.079	37.5863	0.001848	20334	6.415489	-1.441429	75.7974	1.151210	0.034724	0.034335	77.6241	20334	0.031861	0.044689	1736.98	87880.9
250	2.000000	1.154097	7.3675e+06	-51139.1	955.819	-29753.6	0.000000	0.000000	7.158145	84.8082	NaN	0.000000	0.001583	0.001682	28.0789	39.8623	0.001728	23064	2.884592	179.959	84.6621	1.153832	0.037222	0.036957	84.8082	23064	0.034464	0.050506	1679.17	93764
250	2.000000	1.156632	7.3675e+06	-51139.1	955.819	-29753.6	0.000000	0.000000	7.161048	93.763	NaN	0.000000	0.001584	0.001664	28.0792	42.0528	0.001833	22945.2	3.842538	-0.258686	91.684	1.156283	0.039757	0.039408	93.763	22945.2	0.036692	0.055759	1681.56	88778
250	2.000000	1.159071	7.3675e+06	-51139.1	955.819	-29753.6	0.000000	0.000000	7.163743	100.009	NaN	0.000000	0.001582	0.001661	28.079	43.954	0.001766	24885.4	1.693629	-179.447	97.2683	1.158739	0.042196	0.041864	100.009	24885.4	0.039182	0.061931	1614.84	91361.5
250	2.000000	1.161586	7.3675e+06	-51139.1	955.819	-29753.6	0.000000	0.000000	7.166596	108.229	NaN	0.000000	0.001655	0.001681	28.0793	48.3771	0.001918	25224.7	5.853844	-3.164263	107.902	1.161252	0.044711	0.044377	108.229	25224.7	0.041493	0.067943	1592.93	88415.1
250	2.000000	1.164156	7.3675e+06	-51139.1	955.818	-29753.6	0.000000	0.000000	7.169662	120.277	NaN	0.000000	0.001653	0.001680	28.079	49.9766	0.001762	28371.4	6.081327	175.485	121.91	1.163798	0.047281	0.046923	120.277	28371.4	0.044101	0.075056	1602.5	94615
250	2.000000	1.166562	7.3675e+06	-51139.1	955.819	-29753.6	0.000000	0.000000	7.172737	136.533	NaN	0.000000	0.001656	0.001668	28.0792	51.5539	0.001817	28365.6	3.258903	-0.865335	133.263	1.166257	0.049687	0.049382	136.533	28365.6	0.046077	0.080675	1692.39	91242.3
250	2.000000	1.169051	7.3675e+06	-51139.1	955.818	-29753.6	0.000000	0.000000	7.175766	149.67	NaN	0.000000	0.001640	0.001682	28.0792	53.9474	0.001841	29303.4	1.366066	179.761	146.818	1.168703	0.052176	0.051828	149.67	29303.4	0.048346	0.087368	1713.09	90576.2
250	2.000000	1.171566	7.3675e+06	-51139.1	955.819	-29753.6	0.000000	0.000000	7.178813	162.606	NaN	0.000000	0.001630	0.001669	28.0791	56.7738	0.001813	31311.3	5.442922	-4.349272	160.068	1.171203	0.054691	0.054328	162.606	31311.3	0.050796	0.094889	1713.64	92868
250	2.000000	1.174054	7.3675e+06	-51139.1	955.819	-29753.6	0.000000	0.000000	7.181375	164.409	NaN	0.000000	0.001645	0.001661	28.0791	59.2896	0.001824	32499.2	2.354479	177.396	162.314	1.173872	0.057179	0.056998	164.409	32499.2	0.053385	0.103162	1593.71	92445.7
250	2.000000	1.176597	7.3675e+06	-51139.1	955.818	-29753.6	0.000000	0.000000	7.184690	183.182	NaN	0.000000	0.001662	0.001696	28.0803	60.2537	0.001654	36439.3	0.875634	-1.197255	181.593	1.176276	0.059722	0.059401	183.182	36439.3	0.055952	0.111695	1640.03	99615.5
250	2.000000	1.179055	7.3675e+06	-51139.1	955.819	-29753.6	0.000000	0.000000	7.187787	198.727	NaN	0.000000	0.001678	0.001688	28.0806	63.0829	0.001703	37047.1	5.742303	174.249	197.702	1.178694	0.062180	0.061819	198.727	37047.1	0.058157	0.119281	1666.04	98003.4
250	2.000000	1.181503	7.3675e+06	-51139.1	955.818	-29753.6	0.000000	0.000000	7.190632	208.356	NaN	0.000000	0.001649	0.001678	28.08	67.3037	0.001794	37506.5	3.470001	-4.049603	201.967	1.181156	0.064628	0.064282	208.356	37506.5	0.060462	0.127470	1634.55	95979
250	2.000000	1.183996	7.3675e+06	-51139.1	955.82	-29753.6	0.000000	0.000000	7.193827	225.44	NaN	0.000000	0.001569	0.001696	28.0802	69.816	0.001879	37152.7	2.862929	176.666	221.132	1.183727	0.067121	0.066852	225.44	37152.7	0.062571	0.135187	1667.61	92320.1
250	2.000000	1.186580	7.3675e+06	-51139.1	955.818	-29753.6	0.000000	0.000000	7.197018	240.199	NaN	0.000000	0.001616	0.001666	28.08	71.7878	0.001822	39405.9	5.526306	-5.568458	238.567	1.186174	0.069705	0.069300	240.199	39405.9	0.065133	0.144857	1658.18	94594.4
250	2.000000	1.189030	7.3675e+06	-51139.1	955.819	-29753.6	0.000000	0.000000	7.199730	246.563	NaN	0.000000	0.001579	0.001690	28.0802	73.8198	0.001872	39423.8	4.540483	174.673	243.811	1.188768	0.072155	0.071893	246.563	39423.8	0.067465	0.153927	1601.82	91806.6
250	2.000000	1.191496	7.3675e+06	-51139.1	955.821	-29753.6	0.000000	0.000000	7.203153	269.847	NaN	0.000000	0.001599	0.001717	28.0799	75.5116	0.001798	42002.3	4.892738	-5.818725	267.068	1.191162	0.074621	0.074287	269.847	42002.3	0.069803	0.163287	1652.6	94966.7
250	2.000000	1.194031	7.3675e+06	-51139.1	955.819	-29753.6	0.000000	0.000000	7.206196	282.197	NaN	0.000000	0.001589	0.001709	28.08	77.7908	0.001754	44346.6	0.484110	177.241	278.699	1.193829	0.077156	0.076954	282.197	44346.6	0.072384	0.173920	1622.57	97153.8
250	2.000000	1.196401	7.3675e+06	-51139.1	955.82	-29753.6	0.000000	0.000000	7.209411	302.728	NaN	0.000000	0.001550	0.001744	28.08	80.081	0.001735	46160	4.487318	-6.116282	292.615	1.196072	0.079527	0.079197	302.728	46160	0.074608	0.183336	1651.22	98495.2
250	2.000000	1.198940	7.3675e+06	-51139.1	955.819	-29753.6	0.000000	0.000000	7.212733	321.787	NaN	0.000000	0.001584	0.001686	28.0799	83.3139	0.001798	46328.9	5.279411	173.07	317.322	1.198624	0.082065	0.081749	321.787	46328.9	0.076856	0.193089	1666.52	96326.6
250	2.000000	1.201579	7.3675e+06	-51139.1	955.82	-29753.6	0.000000	0.000000	7.215835	333.056	NaN	0.000000	0.001578	0.001689	28.08	87.0784	0.001771	49177.2	4.459726	-6.624692	334.454	1.201229	0.084704	0.084354	333.056	49177.2	0.079624	0.205427	1621.29	99130.7
250	2.000000	1.204155	7.3675e+06	-51139.1	955.819	-29753.6	0.000000	0.000000	7.218874	344.299	NaN	0.000000	0.001566	0.001669	28.0798	91.4054	0.001909	47883	6.641723	171.089	349.233	1.203831	0.087280	0.086957	344.299	47883	0.081887	0.215777	1595.62	94178.6
250	2.000000	1.206604	7.3675e+06	-51139.1	955.819	-29753.6	0.000000	0.000000	7.222309	368.291	NaN	0.000000	0.001575	0.001725	28.0801	93.1907	0.001836	50770.4	8.426532	-10.9608	367.114	1.206082	0.089729	0.089207	368.291	50770.4	0.084288	0.227018	1622.3	97353.9
250	2.000000	1.209004	7.3675e+06	-51139.1	955.819	-29753.6	0.000000	0.000000	7.225662	391.443	NaN	0.000000	0.001575	0.001669	28.08	93.9218	0.001819	51632.9	1.554534	175.467	387.326	1.208598	0.092129	0.091723	391.443	51632.9	0.086443	0.237334	1649.33	96832.2
250	2.000000	1.211503	7.3675e+06	-51139.1	955.82	-29753.6	0.000000	0.000000	7.228490	399.46	NaN	0.000000	0.001578	0.001679	28.079	96.9122	0.001881	51514.4	2.529811	-5.473396	395.16	1.211322	0.094628	0.094447	399.46	51514.4	0.088813	0.248924	1604.75	94334.1
250	2.000000	1.213984	7.3675e+06	-51139.1	955.819	-29753.6	0.000000	0.000000	7.232203	429.406	NaN	0.000000	0.001550	0.001685	28.0789	98.664	0.001800	54816.7	2.917762	174.082	426.121	1.213734	0.097109	0.096859	429.406	54816.7	0.091234	0.261035	1645.01	98024.9
250	2.000000	1.216518	7.3675e+06	-51139.1	955.821	-29753.6	0.000000	0.000000	7.235490	447.715	NaN	0.000000	0.001531	0.001737	28.0789	100.808	0.001780	56648	1.453943	-4.801759	442.45	1.216220	0.099643	0.099345	447.715	56648	0.093715	0.273724	1635.64	98924
250	2.000000	1.218965	7.3675e+06	-51139.1	955.821	-29753.6	0.000000	0.000000	7.239269	480.116	NaN	0.000000	0.001525	0.001699	28.0788	104.374	0.001788	58367.1	7.051373	169.21	476.77	1.218658	0.102090	0.101783	480.116	58367.1	0.095920	0.285237	1683.22	99847.8
250	2.000000	1.221384	7.3675e+06	-51139.1	955.819	-29753.6	0.000000	0.000000	7.242497	499.788	NaN	0.000000	0.001551	0.001671	28.0789	106.778	0.001747	61124.2	2.101755	-6.177626	489.824	1.221039	0.104509	0.104164	499.788	61124.2	0.098377	0.298321	1675.34	102246
250	2.000000	1.222997	7.3675e+06	-51139.1	955.82	-29753.6	0.000000	0.000000	7.244099	499.523	NaN	0.000000	0.001567	0.001658	28.0787	107.791	0.001835	58736.8	3.441757	172.998	496.147	1.222756	0.106122	0.105882	499.523	58736.8	0.099744	0.305723	1633.91	97055.4