File: remote_trans/data/nanoindenter/0828-1/data/Data_2025-08-06,11h17m57s/2025-07-22_16-23-58_1_335.txt
2025-07-22, 16:23:58, 1
Index	Phase	Displacement	Time	Pos X	Pos Y	Pos Z	Rot A	Rot B	Piezo Z	Force A	Force B	Gripper	Voltage A	Voltage B	Temperature	Amplitude force	Amplitude pos	Stiffness	Phase shift	Phase excitation	Force A raw	Displacement raw	HMax	HMax raw	Real Force	Real Stiffness	Contact Depth	Area	Hardness	Reduced Mod.
[#]	[#]	[um]	[s]	[um]	[um]	[um]	[m°]	[m°]	[um]	[uN]	[uN]	[V]	[V]	[V]	[°C]	[uN]	[um]	[N/m]	[°]	[°]	[uN]	[um]	[um]	[um]	[uN]	[N/m]	[um]	[um^2]	[MPa]	[MPa]
335	1.000000	0.002676	7.36834e+06	-55389.1	955.819	-29741.9	0.000000	0.000000	6.002800	-0.016603	NaN	0.000000	0.001654	0.001638	28.0816	0.029874	0.000919	32.5187	-5.458354	-168.125	0.003141	0.001424	-1.132495	-1.133747	-0.016603	32.5187	-1.132113	-1.351938E+15	1.228071E-17	NaN
335	1.000000	0.012731	7.36834e+06	-55389.1	955.819	-29741.9	0.000000	0.000000	6.012856	-0.014979	NaN	0.000000	0.001691	0.001667	28.0817	0.071536	0.001227	58.3206	-60.7528	15.5204	-0.039641	0.011291	-1.122440	-1.123880	-0.014979	58.3206	-1.122248	-9.968476E+14	1.502607E-17	NaN
335	1.000000	0.022624	7.36834e+06	-55389.1	955.819	-29741.9	0.000000	0.000000	6.022747	-0.043155	NaN	0.000000	0.001657	0.001635	28.0816	0.106825	0.001740	61.3952	-121.187	-168.222	-0.030142	0.021300	-1.112547	-1.113871	-0.043155	61.3952	-1.112020	-7.267736E+14	5.937914E-17	NaN
335	1.000000	0.032618	7.36834e+06	-55389.1	955.819	-29741.9	0.000000	0.000000	6.032741	-0.036042	NaN	0.000000	0.001693	0.001677	28.0814	0.049652	0.001936	25.6456	127.475	14.5535	0.016517	0.031262	-1.102554	-1.103909	-0.036042	25.6456	-1.101500	-5.250457E+14	6.864529E-17	NaN
335	1.000000	0.042628	7.36834e+06	-55389.1	955.819	-29741.9	0.000000	0.000000	6.042753	-0.013720	NaN	0.000000	0.001658	0.001632	28.0821	0.023203	0.001990	11.6602	-24.7589	-164.48	-0.057034	0.041329	-1.092543	-1.093843	-0.013720	11.6602	-1.091661	-3.873554E+14	3.541887E-17	NaN
335	1.000000	0.052618	7.36834e+06	-55389.1	955.819	-29741.9	0.000000	0.000000	6.052742	-0.019940	NaN	0.000000	0.001692	0.001648	28.0814	0.044052	0.001957	22.5053	-127.049	15.4706	-0.051395	0.051281	-1.082553	-1.083891	-0.019940	22.5053	-1.081889	-2.863448E+14	6.963587E-17	NaN
335	1.000000	0.062625	7.36834e+06	-55389.1	955.818	-29741.9	0.000000	0.000000	6.062749	-0.021722	NaN	0.000000	0.001679	0.001613	28.0817	0.068995	0.001984	34.7747	122.775	-166.67	-0.028081	0.061359	-1.072546	-1.073812	-0.021722	34.7747	-1.072078	-2.113992E+14	1.027520E-16	NaN
335	1.000000	0.072599	7.36834e+06	-55389.1	955.819	-29741.9	0.000000	0.000000	6.072725	0.022073	NaN	0.000000	0.001638	0.001607	28.081	0.107136	0.001838	58.289	-49.8391	15.5584	-0.096506	0.071283	-1.062572	-1.063888	0.022073	58.289	-1.062856	-1.589285E+14	-1.388862E-16	NaN
335	1.000000	0.082653	7.36834e+06	-55389.1	955.819	-29741.9	0.000000	0.000000	6.082780	0.046148	NaN	0.000000	0.001615	0.001669	28.0821	0.114799	0.002049	56.0241	-160.813	-167.529	-0.005067	0.081343	-1.052519	-1.053829	0.046148	56.0241	-1.053137	-1.176455E+14	-3.922625E-16	NaN
335	1.000000	0.092664	7.36834e+06	-55389.1	955.818	-29741.9	0.000000	0.000000	6.092791	0.044117	NaN	0.000000	0.001619	0.001654	28.0817	0.099980	0.002013	49.6664	-32.2073	10.4297	0.065778	0.091245	-1.042508	-1.043926	0.044117	49.6664	-1.043174	-8.642555E+13	-5.104619E-16	NaN
335	1.000000	0.102651	7.36834e+06	-55389.1	955.818	-29741.9	0.000000	0.000000	6.102776	0.002151	NaN	0.000000	0.001575	0.001636	28.0819	0.048554	0.002089	23.2474	-109.469	-167.583	-0.094117	0.101379	-1.032520	-1.033792	0.002151	23.2474	-1.032590	-6.227506E+13	-3.454726E-17	NaN
335	1.000000	0.112616	7.36834e+06	-55389.1	955.818	-29741.9	0.000000	0.000000	6.112741	-0.003959	NaN	0.000000	0.001564	0.001637	28.0818	0.094179	0.002163	43.5361	164.386	9.984138	-0.062797	0.111335	-1.022556	-1.023837	-0.003959	43.5361	-1.022487	-4.554281E+13	8.692153E-17	NaN
335	1.000000	0.122677	7.36834e+06	-55389.1	955.818	-29741.9	0.000000	0.000000	6.122802	-0.004453	NaN	0.000000	0.001544	0.001636	28.0814	0.102853	0.001943	52.9382	-28.954	-169.643	0.005386	0.121329	-1.012494	-1.013842	-0.004453	52.9382	-1.012431	-3.335063E+13	1.335326E-16	NaN
335	1.000000	0.132670	7.36834e+06	-55389.1	955.819	-29741.9	0.000000	0.000000	6.132797	0.056748	NaN	0.000000	0.001559	0.001651	28.0804	0.028426	0.001961	14.492	82.3404	12.9393	0.079381	0.131311	-1.002502	-1.003861	0.056748	14.492	-1.005439	-2.685265E+13	-2.113322E-15	NaN
335	1.000000	0.142637	7.36834e+06	-55389.1	955.818	-29741.9	0.000000	0.000000	6.142761	-0.044438	NaN	0.000000	0.001596	0.001665	28.0806	0.050112	0.001860	26.9428	54.6375	-165.474	-0.065540	0.141341	-0.992534	-0.993831	-0.044438	26.9428	-0.991297	-1.732135E+13	2.565533E-15	NaN
335	1.000000	0.152644	7.36834e+06	-55389.1	955.818	-29741.9	0.000000	0.000000	6.152772	0.066764	NaN	0.000000	0.001578	0.001635	28.0807	0.024467	0.001972	12.4081	68.023	12.1545	0.075729	0.151274	-0.982527	-0.983897	0.066764	12.4081	-0.986563	-1.495599E+13	-4.464056E-15	NaN
335	1.000000	0.162680	7.36834e+06	-55389.1	955.819	-29741.9	0.000000	0.000000	6.162805	-0.004590	NaN	0.000000	0.001619	0.001663	28.0807	0.040400	0.001891	21.3696	-89.8787	-166.72	-0.008391	0.161399	-0.972492	-0.973772	-0.004590	21.3696	-0.972331	-9.617721E+12	4.772404E-16	NaN
335	1.000000	0.172669	7.36834e+06	-55389.1	955.818	-29741.9	0.000000	0.000000	6.172794	-0.016745	NaN	0.000000	0.001608	0.001606	28.0804	0.081147	0.001895	42.8233	116.94	14.8183	0.043326	0.171353	-0.962502	-0.963819	-0.016745	42.8233	-0.962209	-7.025009E+12	2.383573E-15	NaN
335	1.000000	0.182646	7.36834e+06	-55389.1	955.818	-29741.9	0.000000	0.000000	6.182770	-0.027568	NaN	0.000000	0.001587	0.001635	28.0804	0.107550	0.001975	54.4656	-168.09	-168.555	-0.032136	0.181347	-0.952525	-0.953824	-0.027568	54.4656	-0.952145	-5.139968E+12	5.363406E-15	NaN
335	1.000000	0.192674	7.36834e+06	-55389.1	955.818	-29741.9	0.000000	0.000000	6.192802	0.052722	NaN	0.000000	0.001598	0.001622	28.0803	0.083895	0.001969	42.6065	-148.322	12.9855	0.049848	0.191319	-0.942497	-0.943852	0.052722	42.6065	-0.943425	-3.920527E+12	-1.344758E-14	NaN
335	1.000000	0.202697	7.36834e+06	-55389.1	955.819	-29741.9	0.000000	0.000000	6.202824	0.033175	NaN	0.000000	0.001567	0.001617	28.0803	0.035512	0.002166	16.3968	-69.3832	-167.988	-0.049133	0.201391	-0.932474	-0.933780	0.033175	16.3968	-0.933992	-2.924589E+12	-1.134360E-14	NaN
335	1.000000	0.212674	7.36834e+06	-55389.1	955.818	-29741.9	0.000000	0.000000	6.212797	-0.038948	NaN	0.000000	0.001566	0.001605	28.0803	0.042361	0.001982	21.3781	-110.281	14.7618	-0.048813	0.211370	-0.922498	-0.923802	-0.038948	21.3781	-0.921132	-1.961025E+12	1.986079E-14	NaN
335	1.000000	0.222670	7.36834e+06	-55389.1	955.819	-29741.9	0.000000	0.000000	6.222795	-0.020889	NaN	0.000000	0.001677	0.001605	28.0802	0.059577	0.001981	30.0696	-120.377	-165.174	0.038263	0.221377	-0.912501	-0.913794	-0.020889	30.0696	-0.911980	-1.475389E+12	1.415829E-14	NaN
335	1.000000	0.232703	7.36834e+06	-55389.1	955.818	-29741.9	0.000000	0.000000	6.232829	0.022523	NaN	0.000000	0.001645	0.001641	28.0806	0.103994	0.002183	47.6377	11.7957	8.763809	0.010086	0.231347	-0.902469	-0.903824	0.022523	47.6377	-0.902823	-1.109718E+12	-2.029621E-14	NaN
335	1.000000	0.242705	7.36834e+06	-55389.1	955.818	-29741.9	0.000000	0.000000	6.242831	0.026850	NaN	0.000000	0.001637	0.001620	28.0804	0.071001	0.001959	36.2452	177.8	-166.315	0.025589	0.241364	-0.892466	-0.893807	0.026850	36.2452	-0.893022	-8.180203E+11	-3.282361E-14	NaN
335	1.000000	0.252720	7.36834e+06	-55389.1	955.818	-29741.9	0.000000	0.000000	6.252846	0.025702	NaN	0.000000	0.001652	0.001616	28.0816	0.077096	0.001878	41.0569	155.234	14.0354	-0.049710	0.251391	-0.882451	-0.883781	0.025702	41.0569	-0.882921	-5.973160E+11	-4.302942E-14	NaN
335	1.000000	0.262713	7.36834e+06	-55389.1	955.82	-29741.9	0.000000	0.000000	6.262836	-0.043657	NaN	0.000000	0.001668	0.001641	28.0817	0.066248	0.002030	32.6351	-29.8414	-168.388	0.005320	0.261434	-0.872459	-0.873738	-0.043657	32.6351	-0.871455	-4.179604E+11	1.044516E-13	NaN
335	1.000000	0.272716	7.36834e+06	-55389.1	955.818	-29741.9	0.000000	0.000000	6.272840	-0.039595	NaN	0.000000	0.001635	0.001656	28.0818	0.108489	0.002076	52.2603	157.355	15.9976	-0.020426	0.271373	-0.862455	-0.863799	-0.039595	52.2603	-0.861887	-3.102116E+11	1.276395E-13	NaN
335	1.000000	0.282718	7.36834e+06	-55389.1	955.818	-29741.9	0.000000	0.000000	6.282841	-0.062844	NaN	0.000000	0.001651	0.001610	28.0819	0.165463	0.001958	84.493	-135.523	-166.902	0.007391	0.281439	-0.852453	-0.853733	-0.062844	84.493	-0.851895	-2.271973E+11	2.766040E-13	NaN
335	1.000000	0.292699	7.36834e+06	-55389.1	955.819	-29741.9	0.000000	0.000000	6.292826	0.034966	NaN	0.000000	0.001576	0.001609	28.0817	0.064816	0.001967	32.9487	119.405	13.2412	0.053708	0.291359	-0.842472	-0.843813	0.034966	32.9487	-0.843268	-1.736058E+11	-2.014074E-13	NaN
335	1.000000	0.302741	7.36834e+06	-55389.1	955.817	-29741.9	0.000000	0.000000	6.302869	0.064915	NaN	0.000000	0.001625	0.001658	28.0815	0.022821	0.001930	11.8225	-109.566	-168.016	0.019030	0.301393	-0.832431	-0.833778	0.064915	11.8225	-0.836549	-1.407769E+11	-4.611177E-13	NaN
335	1.000000	0.312742	7.36834e+06	-55389.1	955.818	-29741.9	0.000000	0.000000	6.312869	0.032712	NaN	0.000000	0.001598	0.001648	28.0819	0.074644	0.002042	36.5537	112.838	12.8027	0.069485	0.311383	-0.822429	-0.823789	0.032712	36.5537	-0.823100	-9.252303E+10	-3.535579E-13	NaN
335	1.000000	0.322745	7.36834e+06	-55389.1	955.818	-29741.9	0.000000	0.000000	6.322868	-0.040514	NaN	0.000000	0.001617	0.001624	28.0814	0.064270	0.001886	34.0771	-61.7748	-165.704	0.030600	0.321483	-0.812427	-0.813689	-0.040514	34.0771	-0.811535	-6.447602E+10	6.283654E-13	NaN
335	1.000000	0.332745	7.36834e+06	-55389.1	955.817	-29741.9	0.000000	0.000000	6.332872	0.046670	NaN	0.000000	0.001619	0.001622	28.0815	0.114859	0.002023	56.7804	65.6874	12.9485	0.041787	0.331365	-0.802427	-0.803807	0.046670	56.7804	-0.803043	-4.945042E+10	-9.437640E-13	NaN
335	1.000000	0.342723	7.36834e+06	-55389.1	955.818	-29741.9	0.000000	0.000000	6.342848	0.018453	NaN	0.000000	0.001596	0.001647	28.0816	0.065489	0.001959	33.4307	71.6595	-164.877	-0.031111	0.341478	-0.792449	-0.793694	0.018453	33.4307	-0.792863	-3.597179E+10	-5.129951E-13	NaN
335	1.000000	0.352774	7.36834e+06	-55389.1	955.818	-29741.9	0.000000	0.000000	6.352901	0.054149	NaN	0.000000	0.001581	0.001628	28.0817	0.073462	0.002090	35.1457	86.8554	11.1549	0.088719	0.351331	-0.782398	-0.783840	0.054149	35.1457	-0.783553	-2.688510E+10	-2.014093E-12	NaN
335	1.000000	0.362739	7.36834e+06	-55389.1	955.817	-29741.9	0.000000	0.000000	6.362864	-0.009144	NaN	0.000000	0.001601	0.001618	28.0816	0.130062	0.001984	65.5488	-88.1912	-165.353	0.000126	0.361422	-0.772432	-0.773749	-0.009144	65.5488	-0.772328	-1.892128E+10	4.832706E-13	NaN
335	1.000000	0.372768	7.36834e+06	-55389.1	955.819	-29741.9	0.000000	0.000000	6.372890	-0.091174	NaN	0.000000	0.001626	0.001655	28.0817	0.071990	0.001857	38.7708	-47.2662	14.5864	-0.003825	0.371447	-0.762403	-0.763724	-0.091174	38.7708	-0.760640	-1.312209E+10	6.948124E-12	NaN
335	1.000000	0.382789	7.36834e+06	-55389.1	955.817	-29741.9	0.000000	0.000000	6.382918	0.089394	NaN	0.000000	0.001589	0.001625	28.0818	0.037942	0.002051	18.5001	-7.209226	-166.321	-0.011843	0.381508	-0.752383	-0.753663	0.089394	18.5001	-0.756007	-1.134929E+10	-7.876636E-12	NaN
335	1.000000	0.392808	7.36834e+06	-55389.1	955.819	-29741.9	0.000000	0.000000	6.392928	-0.111346	NaN	0.000000	0.001603	0.001646	28.0805	0.118190	0.002135	55.3609	150.254	12.2451	-0.006359	0.391395	-0.742364	-0.743777	-0.111346	55.3609	-0.740855	-7.058340E+9	1.577509E-11	NaN
335	1.000000	0.402780	7.36834e+06	-55389.1	955.818	-29741.9	0.000000	0.000000	6.402905	-0.012446	NaN	0.000000	0.001606	0.001630	28.0822	0.121191	0.001954	62.0131	-153.95	-166.098	0.032280	0.401485	-0.732391	-0.733687	-0.012446	62.0131	-0.732241	-5.386939E+9	2.310391E-12	NaN
335	1.000000	0.412776	7.36834e+06	-55389.1	955.817	-29741.9	0.000000	0.000000	6.412905	0.087770	NaN	0.000000	0.001596	0.001607	28.0841	0.094135	0.001899	49.5612	-40.9351	13.215	0.020007	0.411436	-0.722395	-0.723735	0.087770	49.5612	-0.723723	-4.123299E+9	-2.128626E-11	NaN
335	1.000000	0.422767	7.36834e+06	-55389.1	955.819	-29741.9	0.000000	0.000000	6.422891	-0.024584	NaN	0.000000	0.001572	0.001631	28.0811	0.071951	0.001956	36.7766	25.0656	-164.792	-0.039711	0.421472	-0.712404	-0.713700	-0.024584	36.7766	-0.711903	-2.844554E+9	8.642409E-12	NaN
335	1.000000	0.432818	7.36834e+06	-55389.1	955.818	-29741.9	0.000000	0.000000	6.432941	-0.043204	NaN	0.000000	0.001579	0.001711	28.0809	0.063242	0.002016	31.3637	-15.5924	15.5902	-0.018155	0.431418	-0.702353	-0.703754	-0.043204	31.3637	-0.701320	-2.039675E+9	2.118159E-11	NaN
335	1.000000	0.442780	7.36834e+06	-55389.1	955.818	-29741.9	0.000000	0.000000	6.442904	-0.036135	NaN	0.000000	0.001591	0.001718	28.0803	0.042307	0.002102	20.1311	54.3649	-165.342	-0.099095	0.441522	-0.692392	-0.693649	-0.036135	20.1311	-0.691045	-1.476397E+9	2.447533E-11	NaN
335	1.000000	0.452821	7.36834e+06	-55389.1	955.818	-29741.9	0.000000	0.000000	6.452945	-0.011515	NaN	0.000000	0.001609	0.001661	28.0805	0.030068	0.002061	14.5912	-133.063	13.7043	-0.003740	0.451434	-0.682351	-0.683738	-0.011515	14.5912	-0.681759	-1.102197E+9	1.044722E-11	NaN
335	1.000000	0.462808	7.36834e+06	-55389.1	955.819	-29741.9	0.000000	0.000000	6.462933	-0.017762	NaN	0.000000	0.001545	0.001664	28.0802	0.023084	0.002001	11.5343	-122.451	-167.408	-0.006656	0.461504	-0.672363	-0.673667	-0.017762	11.5343	-0.671208	-7.905435E+8	2.246753E-11	NaN
335	1.000000	0.472817	7.36834e+06	-55389.1	955.819	-29741.9	0.000000	0.000000	6.472942	0.000360	NaN	0.000000	0.001586	0.001727	28.0805	0.074897	0.002076	36.0835	-96.3143	14.7801	0.014497	0.471441	-0.662354	-0.663730	0.000360	36.0835	-0.662362	-5.981561E+8	-6.015802E-13	NaN
335	1.000000	0.482818	7.36834e+06	-55389.1	955.818	-29741.9	0.000000	0.000000	6.482944	0.020519	NaN	0.000000	0.001581	0.001708	28.0801	0.073056	0.001899	38.4807	178.175	-165.583	0.076627	0.481482	-0.652353	-0.653690	0.020519	38.4807	-0.652753	-4.417449E+8	-4.645049E-11	NaN
335	1.000000	0.492803	7.36834e+06	-55389.1	955.817	-29741.9	0.000000	0.000000	6.492929	0.010176	NaN	0.000000	0.001562	0.001718	28.0801	0.087106	0.001904	45.7459	-17.088	17.3305	0.011819	0.491471	-0.642368	-0.643700	0.010176	45.7459	-0.642535	-3.199379E+8	-3.180494E-11	NaN
335	1.000000	0.502813	7.36834e+06	-55389.1	955.819	-29741.9	0.000000	0.000000	6.502939	0.021907	NaN	0.000000	0.001596	0.001708	28.0803	0.019416	0.001918	10.123	-82.5353	-163.948	-0.027510	0.501521	-0.632359	-0.633650	0.021907	10.123	-0.633982	-2.441702E+8	-8.971873E-11	NaN
335	1.000000	0.512841	7.36834e+06	-55389.1	955.819	-29741.9	0.000000	0.000000	6.512966	0.012127	NaN	0.000000	0.001634	0.001701	28.0804	0.145662	0.001941	75.0378	-111.353	13.6691	-0.036179	0.511432	-0.622331	-0.623740	0.012127	75.0378	-0.622452	-1.695641E+8	-7.151671E-11	NaN
335	1.000000	0.522797	7.36834e+06	-55389.1	955.818	-29741.9	0.000000	0.000000	6.522924	0.040982	NaN	0.000000	0.001627	0.001678	28.0805	0.092342	0.002108	43.7997	-161.582	-162.998	-0.006598	0.521550	-0.612374	-0.613621	0.040982	43.7997	-0.613076	-1.260160E+8	-3.252147E-10	NaN
335	1.000000	0.532826	7.36834e+06	-55389.1	955.819	-29741.9	0.000000	0.000000	6.532950	-0.021397	NaN	0.000000	0.001601	0.001697	28.0819	0.063579	0.001934	32.8823	134.008	14.3963	-0.083368	0.531460	-0.602346	-0.603711	-0.021397	32.8823	-0.601858	-8.831701E+7	2.422702E-10	NaN
335	1.000000	0.542812	7.36834e+06	-55389.1	955.818	-29741.9	0.000000	0.000000	6.542937	-0.004354	NaN	0.000000	0.001622	0.001733	28.0816	0.073650	0.001978	37.2376	155.027	-168.684	-0.016996	0.541537	-0.592359	-0.593634	-0.004354	37.2376	-0.592271	-6.515942E+7	6.682613E-11	NaN
335	1.000000	0.552815	7.36834e+06	-55389.1	955.818	-29741.9	0.000000	0.000000	6.552940	0.003402	NaN	0.000000	0.001637	0.001685	28.0815	0.012655	0.002009	6.298569	139.02	13.679	-0.024729	0.551477	-0.582357	-0.583695	0.003402	6.298569	-0.582762	-4.817705E+7	-7.061509E-11	NaN
335	1.000000	0.562822	7.36834e+06	-55389.1	955.818	-29741.9	0.000000	0.000000	6.562948	0.020626	NaN	0.000000	0.001602	0.001703	28.0811	0.122561	0.001932	63.4247	-20.683	-167.865	0.017358	0.561541	-0.572349	-0.573630	0.020626	63.4247	-0.572593	-3.487023E+7	-5.915131E-10	NaN
335	1.000000	0.572834	7.36834e+06	-55389.1	955.819	-29741.9	0.000000	0.000000	6.572957	-0.046025	NaN	0.000000	0.001619	0.001643	28.0813	0.072098	0.002071	34.8155	-151.296	14.5732	0.021977	0.571509	-0.562338	-0.563662	-0.046025	34.8155	-0.561346	-2.437794E+7	1.887994E-9	NaN
335	1.000000	0.582837	7.36834e+06	-55389.1	955.818	-29741.9	0.000000	0.000000	6.582960	-0.040709	NaN	0.000000	0.001564	0.001698	28.0816	0.080889	0.002047	39.5197	-176.781	-164.907	-0.016058	0.581563	-0.552335	-0.553609	-0.040709	39.5197	-0.551562	-1.784817E+7	2.280840E-9	NaN
335	1.000000	0.592855	7.36834e+06	-55389.1	955.818	-29741.9	0.000000	0.000000	6.592980	-0.007756	NaN	0.000000	0.001615	0.001688	28.0814	0.025501	0.002131	11.9654	-155.858	13.7171	0.099144	0.591464	-0.542316	-0.543707	-0.007756	11.9654	-0.541830	-1.308389E+7	5.928251E-10	NaN
335	1.000000	0.602851	7.36834e+06	-55389.1	955.818	-29741.9	0.000000	0.000000	6.602977	0.024465	NaN	0.000000	0.001629	0.001710	28.0816	0.155349	0.001919	80.9344	-7.644626	-166.155	0.045582	0.601598	-0.532321	-0.533574	0.024465	80.9344	-0.532548	-9.72631e+06	-2.515324E-9	NaN
335	1.000000	0.612872	7.36834e+06	-55389.1	955.818	-29741.9	0.000000	0.000000	6.612997	-0.003645	NaN	0.000000	0.001622	0.001685	28.0815	0.081468	0.001967	41.4089	20.9345	15.9328	-0.022949	0.611511	-0.522299	-0.523660	-0.003645	41.4089	-0.522233	-6.9928e+06	5.212283E-10	NaN
335	1.000000	0.622840	7.36834e+06	-55389.1	955.818	-29741.9	0.000000	0.000000	6.622966	0.007255	NaN	0.000000	0.001595	0.001688	28.0813	0.033141	0.002013	16.4619	-78.9424	-163.62	-0.034744	0.621554	-0.512331	-0.513618	0.007255	16.4619	-0.512662	-5.14613e+06	-1.409812E-9	NaN
335	1.000000	0.632884	7.36834e+06	-55389.1	955.818	-29741.9	0.000000	0.000000	6.633006	-0.086142	NaN	0.000000	0.001611	0.001696	28.0813	0.074289	0.002026	36.6734	69.8167	16.8869	-0.053831	0.631503	-0.502287	-0.503668	-0.086142	36.6734	-0.500526	-3.48619e+06	2.470952E-8	NaN
335	1.000000	0.642908	7.36834e+06	-55389.1	955.819	-29741.9	0.000000	0.000000	6.643032	-0.019760	NaN	0.000000	0.001575	0.001654	28.0814	0.063863	0.002006	31.8399	149.762	-164.506	-0.008739	0.641563	-0.492264	-0.493608	-0.019760	31.8399	-0.491798	-2.6334e+06	7.503514E-9	NaN
335	1.000000	0.652870	7.36834e+06	-55389.1	955.818	-29741.9	0.000000	0.000000	6.652996	0.021919	NaN	0.000000	0.001579	0.001617	28.0814	0.086054	0.002051	41.9536	92.0258	16.2195	0.009240	0.651485	-0.482301	-0.483687	0.021919	41.9536	-0.482693	-1.96434e+06	-1.115841E-8	NaN
335	1.000000	0.662868	7.36834e+06	-55389.1	955.818	-29741.9	0.000000	0.000000	6.662992	-0.027314	NaN	0.000000	0.001577	0.001642	28.0803	0.050295	0.001933	26.0217	-32.1635	-166.967	0.076629	0.661519	-0.472304	-0.473652	-0.027314	26.0217	-0.471516	-1.36985e+06	1.993964E-8	NaN
335	1.000000	0.672883	7.36834e+06	-55389.1	955.817	-29741.9	0.000000	0.000000	6.673009	0.028409	NaN	0.000000	0.001586	0.001658	28.0802	0.062544	0.001907	32.802	88.6951	9.763728	-0.010113	0.671534	-0.462289	-0.463638	0.028409	32.802	-0.462938	-1.03824e+06	-2.736262E-8	NaN
335	1.000000	0.682903	7.36834e+06	-55389.1	955.818	-29741.9	0.000000	0.000000	6.683025	-0.077459	NaN	0.000000	0.001585	0.001657	28.0803	0.146044	0.002117	68.9917	40.6945	-162.973	-0.022861	0.681566	-0.452269	-0.453605	-0.077459	68.9917	-0.451427	-715205	1.083027E-7	NaN
335	1.000000	0.692895	7.36834e+06	-55389.1	955.819	-29741.9	0.000000	0.000000	6.693021	0.009089	NaN	0.000000	0.001596	0.001646	28.0804	0.087396	0.002095	41.715	12.7798	14.1082	0.080867	0.691475	-0.442276	-0.443696	0.009089	41.715	-0.442439	-534298	-1.701064E-8	NaN
335	1.000000	0.702892	7.36834e+06	-55389.1	955.818	-29741.9	0.000000	0.000000	6.703015	-0.059599	NaN	0.000000	0.001583	0.001651	28.0801	0.066216	0.001954	33.8885	92.1272	-163.52	-0.068934	0.701614	-0.432279	-0.433558	-0.059599	33.8885	-0.430960	-367829	1.620284E-7	NaN
335	1.000000	0.712936	7.36834e+06	-55389.1	955.818	-29741.9	0.000000	0.000000	6.713062	0.000971	NaN	0.000000	0.001564	0.001661	28.0804	0.135015	0.002077	65.0072	113.697	14.4195	0.039991	0.711545	-0.422235	-0.423626	0.000971	65.0072	-0.422246	-276861	-3.506335E-9	NaN
335	1.000000	0.722906	7.36834e+06	-55389.1	955.819	-29741.9	0.000000	0.000000	6.723032	0.029331	NaN	0.000000	0.001565	0.001662	28.0804	0.177848	0.001960	90.7428	127.867	-167.954	0.053779	0.721566	-0.412266	-0.413606	0.029331	90.7428	-0.412508	-201398	-1.456366E-7	NaN
335	1.000000	0.732915	7.36834e+06	-55389.1	955.818	-29741.9	0.000000	0.000000	6.733039	-0.029703	NaN	0.000000	0.001609	0.001661	28.0807	0.042779	0.002054	20.8279	12.4337	11.5458	-0.021498	0.731585	-0.402256	-0.403587	-0.029703	20.8279	-0.401187	-138968	2.137365E-7	NaN
335	1.000000	0.742888	7.36834e+06	-55389.1	955.82	-29741.9	0.000000	0.000000	6.743013	0.003623	NaN	0.000000	0.001627	0.001679	28.0805	0.089656	0.002099	42.7237	56.1048	-170.28	-0.006900	0.741615	-0.392283	-0.393557	0.003623	42.7237	-0.392347	-103927	-3.486006E-8	NaN
335	1.000000	0.752921	7.36834e+06	-55389.1	955.818	-29741.9	0.000000	0.000000	6.753044	-0.040088	NaN	0.000000	0.001588	0.001654	28.0805	0.119306	0.002039	58.4982	64.7798	11.8655	0.044556	0.751547	-0.382251	-0.383624	-0.040088	58.4982	-0.381737	-73249.6	5.472834E-7	NaN
335	1.000000	0.762937	7.36834e+06	-55389.1	955.819	-29741.9	0.000000	0.000000	6.763064	0.040951	NaN	0.000000	0.001630	0.001644	28.0805	0.034621	0.002125	16.295	-135.317	-167.508	-0.068148	0.761637	-0.372234	-0.373535	0.040951	16.295	-0.374119	-56938.8	-7.192128E-7	NaN
335	1.000000	0.772943	7.36834e+06	-55389.1	955.818	-29741.9	0.000000	0.000000	6.773067	-0.023560	NaN	0.000000	0.001688	0.001629	28.0803	0.073361	0.002015	36.403	27.6758	12.7368	0.039405	0.771551	-0.362229	-0.363620	-0.023560	36.403	-0.361743	-37760.6	6.239368E-7	NaN
335	1.000000	0.782952	7.36834e+06	-55389.1	955.819	-29741.9	0.000000	0.000000	6.783075	-0.055705	NaN	0.000000	0.001582	0.001646	28.0804	0.075167	0.001958	38.3993	47.8964	-163.527	0.009824	0.781632	-0.352220	-0.353539	-0.055705	38.3993	-0.351132	-26510.8	2.101204E-6	NaN
335	1.000000	0.792946	7.36834e+06	-55389.1	955.818	-29741.9	0.000000	0.000000	6.793072	0.015371	NaN	0.000000	0.001577	0.001641	28.0803	0.024789	0.002019	12.2781	69.9755	13.729	0.080953	0.791586	-0.342226	-0.343586	0.015371	12.2781	-0.343165	-20307.2	-7.569240E-7	NaN
335	1.000000	0.802970	7.36834e+06	-55389.1	955.819	-29741.9	0.000000	0.000000	6.803095	-0.011854	NaN	0.000000	0.001570	0.001637	28.0818	0.078102	0.001924	40.583	170.571	-164.214	-0.010547	0.801664	-0.332201	-0.333508	-0.011854	40.583	-0.331982	-13946.6	8.499627E-7	NaN
335	1.000000	0.812956	7.36834e+06	-55389.1	955.818	-29741.9	0.000000	0.000000	6.813084	0.065093	NaN	0.000000	0.001563	0.001652	28.0817	0.023110	0.001882	12.279	-54.324	13.2473	-0.017664	0.811526	-0.322215	-0.323646	0.065093	12.279	-0.326191	-11471.4	-5.674373E-6	NaN
335	1.000000	0.822948	7.36834e+06	-55389.1	955.818	-29741.9	0.000000	0.000000	6.823072	-0.025512	NaN	0.000000	0.001544	0.001653	28.0817	0.074150	0.001919	38.64	161.901	-169.317	-0.011755	0.821645	-0.312224	-0.313527	-0.025512	38.64	-0.311728	-7024.61	3.631793E-6	NaN
335	1.000000	0.832946	7.36834e+06	-55389.1	955.818	-29741.9	0.000000	0.000000	6.833072	0.025361	NaN	0.000000	0.001613	0.001636	28.0817	0.086937	0.002066	42.0898	175.411	13.3975	0.014151	0.831587	-0.302225	-0.303584	0.025361	42.0898	-0.302677	-5157.68	-4.917122E-6	NaN
335	1.000000	0.842983	7.36834e+06	-55389.1	955.819	-29741.9	0.000000	0.000000	6.843110	0.052665	NaN	0.000000	0.001613	0.001633	28.0817	0.111478	0.001960	56.8752	-106.501	-165.418	-0.010940	0.841633	-0.292189	-0.293539	0.052665	56.8752	-0.292883	-3685.17	-1.429100E-5	NaN
335	1.000000	0.852939	7.36834e+06	-55389.1	955.819	-29741.9	0.000000	0.000000	6.853065	0.013208	NaN	0.000000	0.001608	0.001654	28.0817	0.087843	0.002081	42.2183	-120.157	13.0043	-0.050993	0.851609	-0.282232	-0.283563	0.013208	42.2183	-0.282467	-2571.3	-5.136674E-6	NaN
335	1.000000	0.862939	7.36834e+06	-55389.1	955.819	-29741.9	0.000000	0.000000	6.863062	-0.042631	NaN	0.000000	0.001631	0.001641	28.0817	0.104647	0.002069	50.5687	-12.6908	-170.062	-0.015803	0.861678	-0.272233	-0.273494	-0.042631	50.5687	-0.271601	-1761.4	2.420306E-5	NaN
335	1.000000	0.872969	7.36834e+06	-55389.1	955.819	-29741.9	0.000000	0.000000	6.873093	-0.023008	NaN	0.000000	0.001644	0.001637	28.0817	0.026226	0.001965	13.3479	89.7143	17.362	0.015157	0.871618	-0.262202	-0.263554	-0.023008	13.3479	-0.260910	-1210.18	1.901238E-5	NaN
335	1.000000	0.882974	7.36834e+06	-55389.1	955.818	-29741.9	0.000000	0.000000	6.883097	-0.042586	NaN	0.000000	0.001665	0.001641	28.0815	0.117898	0.002023	58.2907	43.841	-164.958	0.029396	0.881726	-0.252198	-0.253445	-0.042586	58.2907	-0.251650	-871.895	4.884335E-5	NaN
335	1.000000	0.893006	7.36834e+06	-55389.1	955.818	-29741.9	0.000000	0.000000	6.893131	0.012351	NaN	0.000000	0.001636	0.001635	28.0816	0.098855	0.001939	50.9841	152.417	12.2489	0.027913	0.891612	-0.242166	-0.243559	0.012351	50.9841	-0.242347	-625.424	-1.974872E-5	NaN
335	1.000000	0.902948	7.36834e+06	-55389.1	955.819	-29741.9	0.000000	0.000000	6.903072	-0.029294	NaN	0.000000	0.001598	0.001617	28.0815	0.026653	0.001954	13.6412	-67.7604	-164.75	0.007150	0.901689	-0.232224	-0.233482	-0.029294	13.6412	-0.230613	-409.444	7.154527E-5	NaN
335	1.000000	0.912972	7.36834e+06	-55389.1	955.818	-29741.9	0.000000	0.000000	6.913097	-0.020970	NaN	0.000000	0.001593	0.001623	28.0816	0.084052	0.001918	43.8277	-19.2366	12.7859	0.000400	0.911610	-0.222199	-0.223561	-0.020970	43.8277	-0.221840	-297.203	7.055883E-5	NaN
335	1.000000	0.923000	7.36834e+06	-55389.1	955.818	-29741.9	0.000000	0.000000	6.923126	0.022805	NaN	0.000000	0.001590	0.001625	28.0814	0.082338	0.002016	40.835	160.08	-163.85	-0.010500	0.921703	-0.212171	-0.213468	0.022805	40.835	-0.212590	-211.199	-0.000108	NaN
335	1.000000	0.932976	7.36834e+06	-55389.1	955.818	-29741.9	0.000000	0.000000	6.933101	0.007397	NaN	0.000000	0.001650	0.001599	28.0819	0.084979	0.001958	43.3912	143.885	12.8747	0.007768	0.931655	-0.202196	-0.203516	0.007397	43.3912	-0.202324	-143.82	-5.143215E-5	NaN
335	1.000000	0.943000	7.36834e+06	-55389.1	955.819	-29741.9	0.000000	0.000000	6.943126	0.001373	NaN	0.000000	0.001601	0.001607	28.0803	0.029894	0.001983	15.0774	25.7186	-168.583	0.004957	0.941758	-0.192171	-0.193414	0.001373	15.0774	-0.192239	-98.0317	-1.400947E-5	NaN
335	1.000000	0.953023	7.36835e+06	-55389.1	955.819	-29741.9	0.000000	0.000000	6.953147	-0.030776	NaN	0.000000	0.001531	0.001608	28.0804	0.077820	0.002092	37.2026	12.4906	16.489	-0.042633	0.951636	-0.182148	-0.183535	-0.030776	37.2026	-0.181528	-64.7769	0.000475	NaN
335	1.000000	0.963005	7.36835e+06	-55389.1	955.819	-29741.9	0.000000	0.000000	6.963127	-0.072969	NaN	0.000000	0.001570	0.001611	28.0803	0.001937	0.001996	0.970655	-101.424	-163.436	-0.061994	0.961626	-0.172167	-0.173546	-0.072969	0.970655	-0.115785	-3.965171	0.018403	NaN
335	1.000000	0.973027	7.36835e+06	-55389.1	955.82	-29741.9	0.000000	0.000000	6.973152	-0.021910	NaN	0.000000	0.001554	0.001593	28.0802	0.110826	0.001902	58.2827	147.737	22.0415	0.014144	0.971655	-0.162144	-0.163517	-0.021910	58.2827	-0.161862	-29.5803	0.000741	NaN
335	1.000000	0.983034	7.36835e+06	-55389.1	955.82	-29741.9	0.000000	0.000000	6.983161	0.033628	NaN	0.000000	0.001589	0.001620	28.0804	0.115226	0.002088	55.1921	-50.2633	-166.776	-0.047067	0.981708	-0.152137	-0.153463	0.033628	55.1921	-0.152594	-20.1905	-0.001666	NaN
335	1.000000	0.992998	7.36835e+06	-55389.1	955.819	-29741.9	0.000000	0.000000	6.993124	0.022723	NaN	0.000000	0.001566	0.001617	28.0803	0.155532	0.001968	79.0329	139.706	14.8435	0.014589	0.991668	-0.142174	-0.143504	0.022723	79.0329	-0.142389	-13.1123	-0.001733	NaN
335	1.000000	1.003023	7.36835e+06	-55389.1	955.818	-29741.9	0.000000	0.000000	7.003150	0.048766	NaN	0.000000	0.001591	0.001592	28.0804	0.062523	0.002025	30.8696	170.076	-165.158	-0.026645	1.001733	-0.132148	-0.133438	0.048766	30.8696	-0.133333	-8.838466	-0.005517	NaN
335	1.000000	1.013026	7.36835e+06	-55389.1	955.82	-29741.9	0.000000	0.000000	7.013151	-0.005425	NaN	0.000000	0.001590	0.001616	28.0804	0.139438	0.002053	67.9228	154.046	13.2268	0.034664	1.011645	-0.122145	-0.123527	-0.005425	67.9228	-0.122086	-5.321050	0.001020	NaN
335	1.000000	1.023040	7.36835e+06	-55389.1	955.818	-29741.9	0.000000	0.000000	7.023163	-0.044010	NaN	0.000000	0.001572	0.001645	28.0807	0.095685	0.002040	46.9111	-135.16	-167.651	-0.034209	1.021763	-0.112132	-0.113409	-0.044010	46.9111	-0.111428	-3.220219	0.013667	NaN
335	1.000000	1.033012	7.36835e+06	-55389.1	955.819	-29741.9	0.000000	0.000000	7.033138	0.019370	NaN	0.000000	0.001572	0.001631	28.0802	0.072832	0.001871	38.9271	-129.726	16.9917	-0.025122	1.031687	-0.102159	-0.103484	0.019370	38.9271	-0.102532	-2.077454	-0.009324	NaN
335	1.000000	1.043039	7.36835e+06	-55389.1	955.819	-29741.9	0.000000	0.000000	7.043163	-0.043426	NaN	0.000000	0.001579	0.001658	28.0802	0.058054	0.002052	28.293	-123.053	-163.478	-0.061310	1.041739	-0.092132	-0.093432	-0.043426	28.293	-0.090981	-1.139642	0.038105	NaN
335	1.000000	1.053019	7.36835e+06	-55389.1	955.817	-29741.9	0.000000	0.000000	7.053145	0.022150	NaN	0.000000	0.001594	0.001589	28.0803	0.019561	0.002049	9.547894	135.153	12.7726	-0.044433	1.051660	-0.082152	-0.083512	0.022150	9.547894	-0.083892	-0.772269	-0.028682	NaN
335	1.000000	1.063031	7.36835e+06	-55389.1	955.817	-29741.9	0.000000	0.000000	7.063156	6.609195E-5	NaN	0.000000	0.001587	0.001650	28.0802	0.031583	0.002036	15.5126	81.6545	-166.759	-0.010596	1.061767	-0.072140	-0.073404	6.609195E-5	15.5126	-0.072144	-0.388942	-0.000170	NaN
335	1.000000	1.073059	7.36835e+06	-55389.1	955.818	-29741.9	0.000000	0.000000	7.073183	-0.036443	NaN	0.000000	0.001571	0.001646	28.0813	0.120608	0.002012	59.9341	-51.1554	13.6685	-0.067824	1.071673	-0.062112	-0.063499	-0.036443	59.9341	-0.061656	-0.200797	0.181492	NaN
335	1.000000	1.083078	7.36835e+06	-55389.1	955.818	-29741.9	0.000000	0.000000	7.083200	-0.069730	NaN	0.000000	0.001588	0.001619	28.0812	0.015663	0.001990	7.869298	150.515	-161.696	-0.003998	1.081776	-0.052094	-0.053396	-0.069730	7.869298	-0.045448	-0.066328	1.051292	NaN
335	1.000000	1.093073	7.36835e+06	-55389.1	955.818	-29741.9	0.000000	0.000000	7.093200	0.043616	NaN	0.000000	0.001618	0.001568	28.0815	0.061036	0.001838	33.206	54.9305	14.9044	0.009532	1.091692	-0.042099	-0.043479	0.043616	33.206	-0.043084	-0.056155	-0.776698	NaN
335	1.000000	1.103054	7.36835e+06	-55389.1	955.818	-29741.9	0.000000	0.000000	7.103176	-0.080797	NaN	0.000000	0.001600	0.001607	28.0814	0.007668	0.002018	3.800543	-25.9291	-163.521	-0.083623	1.101770	-0.032118	-0.033401	-0.080797	3.800543	-0.016173	-0.009990	8.087688	NaN
335	1.000000	1.113036	7.36835e+06	-55389.1	955.817	-29741.9	0.000000	0.000000	7.113161	-0.002060	NaN	0.000000	0.001594	0.001621	28.0814	0.059816	0.001930	30.9884	98.0441	12.0907	-0.034742	1.111696	-0.022136	-0.023476	-0.002060	30.9884	-0.022086	-0.014192	0.145172	NaN
335	1.000000	1.123073	7.36835e+06	-55389.1	955.819	-29741.9	0.000000	0.000000	7.123198	-0.016477	NaN	0.000000	0.001591	0.001581	28.0813	0.127551	0.002049	62.2492	-102.784	-163.637	-0.000832	1.121716	-0.012098	-0.013455	-0.016477	62.2492	-0.011899	-0.007471	2.205470	NaN
335	1.000000	1.133083	7.36835e+06	-55389.1	955.818	-29741.9	0.000000	0.000000	7.133207	-0.027068	NaN	0.000000	0.001595	0.001606	28.0817	0.025358	0.001949	13.0142	61.9495	12.6782	-0.015820	1.131677	-0.002088	-0.003495	-0.027068	13.0142	-0.000528	-0.000391	69.2365	NaN
335	1.000000	1.142936	7.36835e+06	-55389.1	955.818	-29741.9	0.000000	0.000000	7.143350	7.024067	NaN	0.000000	0.001631	0.001581	28.0815	7.449092	0.001830	4071.39	11.3399	-172.125	5.369588	1.141769	0.007765	0.006598	7.024067	4071.39	0.006471	0.005516	1273.37	50083.9
335	2.000000	1.146239	7.36835e+06	-55389.1	955.817	-29741.9	0.000000	0.000000	7.146738	9.100834	NaN	0.000000	0.001592	0.001540	28.0815	9.872847	0.001693	5832.78	7.463101	8.065738	9.370192	1.145876	0.011067	0.010704	9.100834	5832.78	0.009897	0.009068	1003.67	55963.4
335	2.000000	1.148675	7.36835e+06	-55389.1	955.819	-29741.9	0.000000	0.000000	7.149315	12.5151	NaN	0.000000	0.001608	0.001604	28.0815	13.0946	0.001766	7416.25	6.721867	-174.384	12.2565	1.148399	0.013503	0.013228	12.5151	7416.25	0.012238	0.011776	1062.75	62439
335	2.000000	1.151231	7.36835e+06	-55389.1	955.817	-29741.9	0.000000	0.000000	7.152056	17.0164	NaN	0.000000	0.001620	0.001591	28.0818	15.2279	0.001746	8723.74	6.590477	6.909669	16.7853	1.150803	0.016060	0.015632	17.0164	8723.74	0.014597	0.014752	1153.53	65623
335	2.000000	1.153667	7.36835e+06	-55389.1	955.818	-29741.9	0.000000	0.000000	7.154686	21.7391	NaN	0.000000	0.001578	0.001575	28.0816	18.1352	0.001778	10199.2	8.728086	-179.468	21.6474	1.153316	0.018495	0.018145	21.7391	10199.2	0.016897	0.017899	1214.57	69651.4
335	2.000000	1.156154	7.36835e+06	-55389.1	955.817	-29741.9	0.000000	0.000000	7.157354	26.1265	NaN	0.000000	0.001592	0.001599	28.0816	20.5631	0.001833	11217.3	4.788599	4.404820	25.2162	1.155725	0.020982	0.020554	26.1265	11217.3	0.019235	0.021355	1223.44	70131.4
335	2.000000	1.158630	7.36835e+06	-55389.1	955.817	-29741.9	0.000000	0.000000	7.160111	32.9612	NaN	0.000000	0.001604	0.001602	28.0818	23.5426	0.001822	12923.3	5.487162	-177.306	32.4161	1.158271	0.023458	0.023100	32.9612	12923.3	0.021545	0.025029	1316.92	74631.6
335	2.000000	1.161109	7.36835e+06	-55389.1	955.818	-29741.9	0.000000	0.000000	7.162834	38.911	NaN	0.000000	0.001607	0.001596	28.0807	25.5316	0.001722	14829.6	7.114014	-0.677620	36.7102	1.160739	0.025937	0.025567	38.911	14829.6	0.023969	0.029167	1334.07	79333.4
335	2.000000	1.163611	7.36835e+06	-55389.1	955.818	-29741.9	0.000000	0.000000	7.165563	44.3885	NaN	0.000000	0.001580	0.001580	28.0803	27.6254	0.001817	15202.5	8.468038	177.875	43.5864	1.163236	0.028440	0.028065	44.3885	15202.5	0.026250	0.033329	1331.82	76080.9
335	2.000000	1.166103	7.36835e+06	-55389.1	955.818	-29741.9	0.000000	0.000000	7.168405	52.9214	NaN	0.000000	0.001562	0.001581	28.0804	29.8357	0.001682	17734.4	2.331149	2.451202	50.8821	1.165789	0.030931	0.030618	52.9214	17734.4	0.028693	0.038079	1389.79	83032.6
335	2.000000	1.168585	7.36835e+06	-55389.1	955.818	-29741.9	0.000000	0.000000	7.171101	58.119	NaN	0.000000	0.001583	0.001587	28.0806	33.5075	0.001869	17931.7	5.152302	178.946	55.7823	1.168381	0.033413	0.033210	58.119	17931.7	0.030983	0.042805	1357.77	79186.2
335	2.000000	1.171107	7.36835e+06	-55389.1	955.817	-29741.9	0.000000	0.000000	7.173980	66.8041	NaN	0.000000	0.001572	0.001569	28.0805	34.7215	0.001754	19792.8	3.476888	1.051178	65.0831	1.170741	0.035936	0.035569	66.8041	19792.8	0.033404	0.048095	1388.99	82457.3
335	2.000000	1.173656	7.36835e+06	-55389.1	955.818	-29741.9	0.000000	0.000000	7.176822	73.9217	NaN	0.000000	0.001585	0.001587	28.0804	37.6372	0.001795	20968.9	5.004290	178.365	76.3008	1.173331	0.038485	0.038160	73.9217	20968.9	0.035841	0.053721	1376.02	82656.3
335	2.000000	1.176098	7.36835e+06	-55389.1	955.818	-29741.9	0.000000	0.000000	7.179718	84.9582	NaN	0.000000	0.001619	0.001606	28.0807	39.3345	0.001738	22631.5	2.738713	0.012212	83.7845	1.175715	0.040926	0.040543	84.9582	22631.5	0.038111	0.059238	1434.19	84954.7
335	2.000000	1.178593	7.36835e+06	-55389.1	955.818	-29741.9	0.000000	0.000000	7.182393	89.3118	NaN	0.000000	0.001539	0.001598	28.0807	42.2477	0.001699	24863.5	1.266445	179.953	88.2836	1.178348	0.043422	0.043177	89.3118	24863.5	0.040728	0.065923	1354.79	88474.4
335	2.000000	1.181078	7.36835e+06	-55389.1	955.817	-29741.9	0.000000	0.000000	7.185479	103.947	NaN	0.000000	0.001568	0.001593	28.0801	44.1997	0.001741	25382.1	5.885122	-4.113965	101.318	1.180694	0.045907	0.045522	103.947	25382.1	0.042835	0.071560	1452.58	86689
335	2.000000	1.183521	7.36835e+06	-55389.1	955.817	-29741.9	0.000000	0.000000	7.188444	116.629	NaN	0.000000	0.001558	0.001603	28.0803	45.9967	0.001727	26641.3	4.369198	176.577	113.079	1.183244	0.048350	0.048072	116.629	26641.3	0.045066	0.077775	1499.57	87278.5
335	2.000000	1.186085	7.36835e+06	-55389.1	955.817	-29741.9	0.000000	0.000000	7.191402	126.199	NaN	0.000000	0.001583	0.001565	28.0804	49.8651	0.001797	27745.5	11.0691	-9.670788	126.428	1.185646	0.050914	0.050475	126.199	27745.5	0.047502	0.084850	1487.31	87024.2
335	2.000000	1.188637	7.36835e+06	-55389.1	955.819	-29741.9	0.000000	0.000000	7.194454	138.361	NaN	0.000000	0.001583	0.001569	28.0805	51.6283	0.001777	29058	5.907801	175.278	141.11	1.188199	0.053466	0.053028	138.361	29058	0.049894	0.092087	1502.5	87486.4
335	2.000000	1.191116	7.36835e+06	-55389.1	955.819	-29741.9	0.000000	0.000000	7.197539	153.086	NaN	0.000000	0.001574	0.001586	28.0802	54.9445	0.001894	29015.7	9.679723	-8.157758	153.465	1.190669	0.055944	0.055498	153.086	29015.7	0.051987	0.098655	1551.73	84400.7
335	2.000000	1.193549	7.36835e+06	-55389.1	955.818	-29741.9	0.000000	0.000000	7.200439	164.441	NaN	0.000000	0.001597	0.001568	28.0804	56.0525	0.001799	31166.1	3.301367	177.2	162.926	1.193176	0.058378	0.058005	164.441	31166.1	0.054421	0.106565	1543.1	87226.2
335	2.000000	1.196068	7.36835e+06	-55389.1	955.819	-29741.9	0.000000	0.000000	7.203322	173.305	NaN	0.000000	0.001618	0.001577	28.0818	59.829	0.001897	31545.3	5.390061	-5.021138	172.681	1.195693	0.060896	0.060521	173.305	31545.3	0.056776	0.114501	1513.57	85173.2
335	2.000000	1.198525	7.36835e+06	-55389.1	955.817	-29741.9	0.000000	0.000000	7.206488	190.537	NaN	0.000000	0.001555	0.001592	28.0816	61.6262	0.001795	34341.3	3.851496	175.818	187.691	1.198186	0.063354	0.063015	190.537	34341.3	0.059192	0.122928	1549.99	89487.9
335	2.000000	1.200995	7.36835e+06	-55389.1	955.818	-29741.9	0.000000	0.000000	7.209492	203.501	NaN	0.000000	0.001544	0.001615	28.0817	63.5318	0.001782	35646.8	6.492674	-6.834858	196.484	1.200621	0.065824	0.065450	203.501	35646.8	0.061542	0.131395	1548.77	89847
335	2.000000	1.203539	7.36835e+06	-55389.1	955.818	-29741.9	0.000000	0.000000	7.212777	221.522	NaN	0.000000	0.001538	0.001547	28.0818	65.9503	0.001784	36961.8	7.197608	172.539	220.304	1.203156	0.068368	0.067985	221.522	36961.8	0.063873	0.140061	1581.62	90233.6
335	2.000000	1.205944	7.36835e+06	-55389.1	955.819	-29741.9	0.000000	0.000000	7.215585	231.32	NaN	0.000000	0.001591	0.001558	28.0819	67.7616	0.001710	39620.7	1.345635	-3.114988	223.785	1.205584	0.070773	0.070412	231.32	39620.7	0.066394	0.149730	1544.92	93549.5
335	2.000000	1.208539	7.36835e+06	-55389.1	955.819	-29741.9	0.000000	0.000000	7.218812	246.679	NaN	0.000000	0.001604	0.001617	28.0818	71.2063	0.001739	40955.7	3.181958	174.852	244.33	1.208222	0.073367	0.073051	246.679	40955.7	0.068850	0.159442	1547.14	93710.1
335	2.000000	1.211019	7.36835e+06	-55389.1	955.818	-29741.9	0.000000	0.000000	7.221980	263.398	NaN	0.000000	0.001605	0.001597	28.0816	73.4905	0.001801	40798.1	6.040300	-7.732175	259.09	1.210769	0.075848	0.075597	263.398	40798.1	0.071006	0.168202	1565.96	90886.1
335	2.000000	1.213562	7.36835e+06	-55389.1	955.819	-29741.9	0.000000	0.000000	7.225033	275.794	NaN	0.000000	0.001588	0.001576	28.0817	75.1931	0.001795	41898.7	2.322272	175.61	276.692	1.213287	0.078391	0.078115	275.794	41898.7	0.073454	0.178420	1545.75	90625.7
335	2.000000	1.216040	7.36835e+06	-55389.1	955.818	-29741.9	0.000000	0.000000	7.228477	299.278	NaN	0.000000	0.001569	0.001600	28.0819	78.3585	0.001778	44082.1	5.031227	-7.294453	297.599	1.215722	0.080869	0.080550	299.278	44082.1	0.075777	0.188378	1588.71	92794.1
335	2.000000	1.218570	7.36835e+06	-55389.1	955.82	-29741.9	0.000000	0.000000	7.231602	313.754	NaN	0.000000	0.001588	0.001611	28.0817	82.2458	0.001906	43157.3	7.616524	170.351	315.146	1.218238	0.083398	0.083066	313.754	43157.3	0.077946	0.197904	1585.38	88634
335	2.000000	1.221054	7.36835e+06	-55389.1	955.819	-29741.9	0.000000	0.000000	7.234719	329.133	NaN	0.000000	0.001603	0.001573	28.0816	82.4081	0.001767	46635.9	1.757579	-4.079750	324.91	1.220604	0.085883	0.085432	329.133	46635.9	0.080590	0.209813	1568.7	93020.1
335	2.000000	1.223531	7.36835e+06	-55389.1	955.819	-29741.9	0.000000	0.000000	7.237811	344.077	NaN	0.000000	0.001592	0.001590	28.0817	85.1613	0.001857	45852.4	4.284460	174.297	344.288	1.223074	0.088360	0.087902	344.077	45852.4	0.082732	0.219701	1566.12	89375.8
335	2.000000	1.226074	7.36835e+06	-55389.1	955.819	-29741.9	0.000000	0.000000	7.241154	363.542	NaN	0.000000	0.001557	0.001600	28.0819	86.4336	0.001721	50228.7	4.535761	-7.359435	363.611	1.225700	0.090902	0.090528	363.542	50228.7	0.085474	0.232668	1562.5	95138.6
335	2.000000	1.228597	7.36835e+06	-55389.1	955.82	-29741.9	0.000000	0.000000	7.243926	369.591	NaN	0.000000	0.001616	0.001587	28.0805	89.4898	0.001715	52180.2	1.379775	174.633	370.987	1.228411	0.093426	0.093240	369.591	52180.2	0.088114	0.245478	1505.6	96221.7
335	2.000000	1.231033	7.36835e+06	-55389.1	955.82	-29741.9	0.000000	0.000000	7.247737	403.007	NaN	0.000000	0.001610	0.001610	28.0803	91.5796	0.001848	49544.1	3.319963	-6.014162	399.953	1.230586	0.095862	0.095414	403.007	49544.1	0.089761	0.253637	1588.91	89879.2
335	2.000000	1.233443	7.36835e+06	-55389.1	955.819	-29741.9	0.000000	0.000000	7.250815	419.251	NaN	0.000000	0.001547	0.001567	28.0805	93.9813	0.001738	54065.3	5.343895	171.617	415.587	1.233051	0.098272	0.097880	419.251	54065.3	0.092456	0.267248	1568.77	95550.9
335	2.000000	1.236047	7.36835e+06	-55389.1	955.819	-29741.9	0.000000	0.000000	7.254273	440.001	NaN	0.000000	0.001518	0.001591	28.0805	97.1288	0.001746	55617.9	4.981749	-8.750215	437.669	1.235654	0.100875	0.100482	440.001	55617.9	0.094942	0.280101	1570.87	96013.1
335	2.000000	1.238545	7.36835e+06	-55389.1	955.819	-29741.9	0.000000	0.000000	7.256901	443.158	NaN	0.000000	0.001563	0.001572	28.0801	100.234	0.001873	53501.8	-0.561309	176.705	442.591	1.238465	0.103374	0.103293	443.158	53501.8	0.097161	0.291813	1518.64	90487.6
335	2.000000	1.240963	7.36835e+06	-55389.1	955.819	-29741.9	0.000000	0.000000	7.260994	483.882	NaN	0.000000	0.001541	0.001576	28.0804	102.864	0.001990	51683.7	3.035563	-5.983900	477.812	1.240672	0.105792	0.105501	483.882	51683.7	0.098770	0.300441	1610.57	86148.3
335	2.000000	1.242419	7.36835e+06	-55389.1	955.819	-29741.9	0.000000	0.000000	7.262974	496.61	NaN	0.000000	0.001524	0.001561	28.0804	103.737	0.001895	54736.7	2.947981	173.481	490.556	1.242122	0.107248	0.106951	496.61	54736.7	0.100443	0.309542	1604.33	89885.9