File: remote_trans/data/nanoindenter/0828-1/data/Data_2025-08-06,11h17m57s/2025-07-22_16-23-58_1_207.txt
2025-07-22, 16:23:58, 1
Index	Phase	Displacement	Time	Pos X	Pos Y	Pos Z	Rot A	Rot B	Piezo Z	Force A	Force B	Gripper	Voltage A	Voltage B	Temperature	Amplitude force	Amplitude pos	Stiffness	Phase shift	Phase excitation	Force A raw	Displacement raw	HMax	HMax raw	Real Force	Real Stiffness	Contact Depth	Area	Hardness	Reduced Mod.
[#]	[#]	[um]	[s]	[um]	[um]	[um]	[m°]	[m°]	[um]	[uN]	[uN]	[V]	[V]	[V]	[°C]	[uN]	[um]	[N/m]	[°]	[°]	[uN]	[um]	[um]	[um]	[uN]	[N/m]	[um]	[um^2]	[MPa]	[MPa]
207	1.000000	0.002393	7.36707e+06	-48989.1	955.819	-29760.8	0.000000	0.000000	6.002795	-0.056859	NaN	0.000000	0.001750	0.001646	28.0794	0.092972	0.001095	84.8793	-94.4127	-161.688	-0.052070	0.001142	-1.167293	-1.168544	-0.056859	84.8793	-1.166791	-3.943469E+15	1.441843E-17	NaN
207	1.000000	0.012437	7.36707e+06	-48989.1	955.818	-29760.8	0.000000	0.000000	6.012839	-0.055275	NaN	0.000000	0.001714	0.001676	28.0795	0.068615	0.001210	56.6926	178.261	16.2898	-0.093198	0.011056	-1.157249	-1.158630	-0.055275	56.6926	-1.156518	-2.872068E+15	1.924589E-17	NaN
207	1.000000	0.022358	7.36707e+06	-48989.1	955.819	-29760.8	0.000000	0.000000	6.022761	-0.027574	NaN	0.000000	0.001702	0.001646	28.0791	0.027891	0.001635	17.0577	-72.2592	-164.571	0.043782	0.021002	-1.147328	-1.148684	-0.027574	17.0577	-1.146116	-2.083243E+15	1.323590E-17	NaN
207	1.000000	0.032356	7.36707e+06	-48989.1	955.819	-29760.8	0.000000	0.000000	6.032761	0.013740	NaN	0.000000	0.001687	0.001657	28.079	0.073748	0.001870	39.4463	103.285	13.343	-0.100052	0.030965	-1.137330	-1.138722	0.013740	39.4463	-1.137591	-1.601158E+15	-8.581383E-18	NaN
207	1.000000	0.042368	7.36707e+06	-48989.1	955.819	-29760.8	0.000000	0.000000	6.042773	0.009133	NaN	0.000000	0.001683	0.001669	28.0792	0.044516	0.002013	22.1196	-1.761085	-165.481	0.025868	0.041035	-1.127318	-1.128651	0.009133	22.1196	-1.127627	-1.177058E+15	-7.759300E-18	NaN
207	1.000000	0.052346	7.36707e+06	-48989.1	955.818	-29760.8	0.000000	0.000000	6.052750	-0.005897	NaN	0.000000	0.001676	0.001641	28.0792	0.126302	0.002016	62.6391	-130.738	14.8294	0.002385	0.051030	-1.117340	-1.118656	-0.005897	62.6391	-1.117270	-8.547482E+14	6.898866E-18	NaN
207	1.000000	0.062354	7.36707e+06	-48989.1	955.819	-29760.8	0.000000	0.000000	6.062758	-0.002242	NaN	0.000000	0.001714	0.001654	28.079	0.016643	0.001951	8.531952	-133.779	-165.592	-0.023888	0.061057	-1.107332	-1.108630	-0.002242	8.531952	-1.107135	-6.249431E+14	3.587598E-18	NaN
207	1.000000	0.072370	7.36707e+06	-48989.1	955.819	-29760.8	0.000000	0.000000	6.072776	0.037703	NaN	0.000000	0.001682	0.001671	28.079	0.092499	0.002020	45.801	114.956	13.9327	-0.013624	0.070987	-1.097316	-1.098699	0.037703	45.801	-1.097933	-4.702411E+14	-8.017878E-17	NaN
207	1.000000	0.082339	7.36707e+06	-48989.1	955.819	-29760.8	0.000000	0.000000	6.082743	0.006114	NaN	0.000000	0.001687	0.001649	28.0791	0.056392	0.001835	30.7292	-70.6509	-162.636	0.050450	0.081039	-1.087347	-1.088648	0.006114	30.7292	-1.087496	-3.405592E+14	-1.795153E-17	NaN
207	1.000000	0.092365	7.36707e+06	-48989.1	955.819	-29760.8	0.000000	0.000000	6.092769	-0.001214	NaN	0.000000	0.001708	0.001665	28.079	0.046597	0.002164	21.5329	23.039	12.5715	-0.044442	0.091020	-1.077321	-1.078666	-0.001214	21.5329	-1.077278	-2.482929E+14	4.890823E-18	NaN
207	1.000000	0.102353	7.36707e+06	-48989.1	955.82	-29760.8	0.000000	0.000000	6.102759	0.053389	NaN	0.000000	0.001786	0.001663	28.0792	0.198305	0.001939	102.278	-106.776	-170.442	0.060188	0.101040	-1.067333	-1.068646	0.053389	102.278	-1.067724	-1.847632E+14	-2.889595E-16	NaN
207	1.000000	0.112368	7.36707e+06	-48989.1	955.818	-29760.8	0.000000	0.000000	6.112772	0.000161	NaN	0.000000	0.001785	0.001629	28.079	0.159836	0.002103	76.0037	-42.8238	13.877	0.016508	0.111004	-1.057318	-1.058682	0.000161	76.0037	-1.057320	-1.339074E+14	-1.205254E-18	NaN
207	1.000000	0.122346	7.36707e+06	-48989.1	955.818	-29760.8	0.000000	0.000000	6.122752	0.051343	NaN	0.000000	0.001775	0.001671	28.0793	0.076227	0.002029	37.5686	-177.533	-164.96	-0.019169	0.121050	-1.047340	-1.048636	0.051343	37.5686	-1.048365	-1.014931E+14	-5.058746E-16	NaN
207	1.000000	0.132387	7.36707e+06	-48989.1	955.818	-29760.8	0.000000	0.000000	6.132791	0.003031	NaN	0.000000	0.001673	0.001693	28.078	0.068977	0.002127	32.4284	-162.481	11.5061	-0.018961	0.130969	-1.037299	-1.038717	0.003031	32.4284	-1.037369	-7.220805E+13	-4.197230E-17	NaN
207	1.000000	0.142405	7.36707e+06	-48989.1	955.818	-29760.8	0.000000	0.000000	6.142810	0.011493	NaN	0.000000	0.001658	0.001657	28.0793	0.084151	0.001904	44.1862	-17.3841	-167.97	0.041410	0.141086	-1.027281	-1.028600	0.011493	44.1862	-1.027476	-5.315277E+13	-2.162211E-16	NaN
207	1.000000	0.152398	7.36707e+06	-48989.1	955.818	-29760.8	0.000000	0.000000	6.152802	0.023401	NaN	0.000000	0.001694	0.001679	28.0779	0.049174	0.001977	24.8753	-52.8976	12.6514	0.029966	0.151020	-1.017289	-1.018666	0.023401	24.8753	-1.017994	-3.962442E+13	-5.905798E-16	NaN
207	1.000000	0.162378	7.36707e+06	-48989.1	955.819	-29760.8	0.000000	0.000000	6.162780	-0.032819	NaN	0.000000	0.001696	0.001659	28.0781	0.128807	0.002022	63.6945	0.259980	-166.41	-0.034730	0.161086	-1.007308	-1.008600	-0.032819	63.6945	-1.006922	-2.811588E+13	1.167288E-15	NaN
207	1.000000	0.172367	7.36707e+06	-48989.1	955.818	-29760.8	0.000000	0.000000	6.172773	0.057375	NaN	0.000000	0.001719	0.001672	28.078	0.115461	0.001932	59.7498	-43.9693	10.9736	-0.009802	0.171050	-0.997319	-0.998636	0.057375	59.7498	-0.998039	-2.134875E+13	-2.687514E-15	NaN
207	1.000000	0.182392	7.36707e+06	-48989.1	955.82	-29760.8	0.000000	0.000000	6.182796	0.007188	NaN	0.000000	0.001709	0.001661	28.0782	0.031393	0.001983	15.8329	-8.761976	-165.187	-0.002532	0.181115	-0.987294	-0.988571	0.007188	15.8329	-0.987635	-1.546155E+13	-4.649069E-16	NaN
207	1.000000	0.192395	7.36707e+06	-48989.1	955.818	-29760.8	0.000000	0.000000	6.192797	-0.045805	NaN	0.000000	0.001698	0.001632	28.0775	0.120871	0.002000	60.4461	-144.013	13.9322	-0.020750	0.191039	-0.977291	-0.978647	-0.045805	60.4461	-0.976723	-1.102188E+13	4.155800E-15	NaN
207	1.000000	0.202428	7.36707e+06	-48989.1	955.82	-29760.8	0.000000	0.000000	6.202832	-0.002234	NaN	0.000000	0.001722	0.001654	28.078	0.021642	0.002174	9.953361	173.774	-166.497	-0.119219	0.201099	-0.967258	-0.968587	-0.002234	9.953361	-0.967090	-8.174055E+12	2.733256E-16	NaN
207	1.000000	0.212400	7.36707e+06	-48989.1	955.818	-29760.8	0.000000	0.000000	6.212803	-0.012739	NaN	0.000000	0.001707	0.001643	28.078	0.082521	0.001916	43.0783	49.8248	11.4836	-0.014798	0.211023	-0.957286	-0.958664	-0.012739	43.0783	-0.957064	-5.988085E+12	2.127436E-15	NaN
207	1.000000	0.222412	7.36707e+06	-48989.1	955.818	-29760.8	0.000000	0.000000	6.222815	-0.037127	NaN	0.000000	0.001770	0.001632	28.0783	0.112124	0.001991	56.3143	-84.7982	-166.063	0.004116	0.221101	-0.947274	-0.948585	-0.037127	56.3143	-0.946779	-4.351015E+12	8.532924E-15	NaN
207	1.000000	0.232419	7.36707e+06	-48989.1	955.818	-29760.8	0.000000	0.000000	6.232821	-0.034296	NaN	0.000000	0.001747	0.001662	28.0776	0.005594	0.002157	2.593645	-26.4002	14.3164	-0.030709	0.231046	-0.937267	-0.938640	-0.034296	2.593645	-0.927350	-2.379171E+12	1.441523E-14	NaN
207	1.000000	0.242431	7.36707e+06	-48989.1	955.819	-29760.8	0.000000	0.000000	6.242837	0.039158	NaN	0.000000	0.001722	0.001676	28.0781	0.063070	0.002120	29.7452	150.944	-166.279	0.026399	0.241082	-0.927255	-0.928604	0.039158	29.7452	-0.928242	-2.446070E+12	-1.600848E-14	NaN
207	1.000000	0.252424	7.36707e+06	-48989.1	955.819	-29760.8	0.000000	0.000000	6.252829	0.011606	NaN	0.000000	0.001782	0.001662	28.0778	0.007099	0.001831	3.877849	-31.6902	12.3363	0.052879	0.251099	-0.917262	-0.918587	0.011606	3.877849	-0.919507	-1.864422E+12	-6.225091E-15	NaN
207	1.000000	0.262436	7.36707e+06	-48989.1	955.818	-29760.8	0.000000	0.000000	6.262842	0.041453	NaN	0.000000	0.001749	0.001715	28.0789	0.097350	0.002073	46.9719	130.685	-164.904	0.096397	0.261091	-0.907250	-0.908595	0.041453	46.9719	-0.907912	-1.300030E+12	-3.188655E-14	NaN
207	1.000000	0.272453	7.36707e+06	-48989.1	955.82	-29760.8	0.000000	0.000000	6.272857	0.001322	NaN	0.000000	0.001736	0.001712	28.0789	0.059186	0.001813	32.6463	12.9647	9.069367	-0.037333	0.271108	-0.897234	-0.898578	0.001322	32.6463	-0.897264	-9.334551E+11	-1.416416E-15	NaN
207	1.000000	0.282465	7.36707e+06	-48989.1	955.819	-29760.8	0.000000	0.000000	6.282870	0.028662	NaN	0.000000	0.001736	0.001678	28.079	0.024682	0.002079	11.8702	166.337	-169.767	-0.004118	0.281155	-0.887222	-0.888531	0.028662	11.8702	-0.889033	-7.224980E+11	-3.967119E-14	NaN
207	1.000000	0.292420	7.36707e+06	-48989.1	955.819	-29760.8	0.000000	0.000000	6.292824	-0.018461	NaN	0.000000	0.001737	0.001686	28.079	0.083751	0.001951	42.921	-59.7575	10.6665	-0.065343	0.291067	-0.877266	-0.878619	-0.018461	42.921	-0.876943	-4.958675E+11	3.722932E-14	NaN
207	1.000000	0.302468	7.36707e+06	-48989.1	955.819	-29760.8	0.000000	0.000000	6.302874	0.057613	NaN	0.000000	0.001712	0.001670	28.079	0.021469	0.001949	11.0154	-40.5714	-165.324	0.016035	0.301088	-0.867218	-0.868598	0.057613	11.0154	-0.871141	-4.138840E+11	-1.392020E-13	NaN
207	1.000000	0.312422	7.36707e+06	-48989.1	955.818	-29760.8	0.000000	0.000000	6.312827	0.038313	NaN	0.000000	0.001729	0.001678	28.079	0.126375	0.002038	62.0224	-65.7102	14.3126	-0.086792	0.311076	-0.857264	-0.858610	0.038313	62.0224	-0.857727	-2.724960E+11	-1.406007E-13	NaN
207	1.000000	0.322448	7.36707e+06	-48989.1	955.818	-29760.8	0.000000	0.000000	6.322852	0.020612	NaN	0.000000	0.001704	0.001696	28.0794	0.078788	0.002029	38.8222	-125.999	-167.489	0.010925	0.321183	-0.847238	-0.848503	0.020612	38.8222	-0.847637	-1.989451E+11	-1.036072E-13	NaN
207	1.000000	0.332465	7.36707e+06	-48989.1	955.82	-29760.8	0.000000	0.000000	6.332870	0.039575	NaN	0.000000	0.001710	0.001672	28.0792	0.146573	0.002058	71.2062	-56.6888	14.5622	-0.049076	0.331122	-0.837222	-0.838565	0.039575	71.2062	-0.837638	-1.456457E+11	-2.717243E-13	NaN
207	1.000000	0.342480	7.36707e+06	-48989.1	955.819	-29760.8	0.000000	0.000000	6.342885	0.023521	NaN	0.000000	0.001741	0.001667	28.079	0.034263	0.002046	16.7502	2.472687	-169.801	0.124328	0.341222	-0.827206	-0.828464	0.023521	16.7502	-0.828259	-1.086898E+11	-2.164084E-13	NaN
207	1.000000	0.352479	7.36707e+06	-48989.1	955.818	-29760.8	0.000000	0.000000	6.352884	0.015103	NaN	0.000000	0.001754	0.001649	28.0784	0.093737	0.001928	48.6175	61.6689	15.5474	0.000810	0.351124	-0.817207	-0.818562	0.015103	48.6175	-0.817440	-7.753429E+10	-1.947853E-13	NaN
207	1.000000	0.362494	7.36707e+06	-48989.1	955.819	-29760.8	0.000000	0.000000	6.362896	-0.040719	NaN	0.000000	0.001744	0.001677	28.0792	0.107237	0.001978	54.2155	70.1167	-169.644	-0.069908	0.361215	-0.807192	-0.808472	-0.040719	54.2155	-0.806629	-5.531384E+10	7.361430E-13	NaN
207	1.000000	0.372492	7.36707e+06	-48989.1	955.819	-29760.8	0.000000	0.000000	6.372894	-0.054244	NaN	0.000000	0.001780	0.001663	28.0786	0.060781	0.002024	30.0284	167.354	12.0019	0.006243	0.371114	-0.797194	-0.798572	-0.054244	30.0284	-0.795839	-3.947976E+10	1.373978E-12	NaN
207	1.000000	0.382492	7.36707e+06	-48989.1	955.819	-29760.8	0.000000	0.000000	6.382896	-0.005088	NaN	0.000000	0.001794	0.001684	28.0789	0.048392	0.002197	22.023	154.875	-166.695	0.002832	0.381215	-0.787194	-0.788472	-0.005088	22.023	-0.787021	-2.996540E+10	1.698067E-13	NaN
207	1.000000	0.392488	7.36707e+06	-48989.1	955.819	-29760.8	0.000000	0.000000	6.392888	-0.078237	NaN	0.000000	0.001751	0.001662	28.0786	0.012771	0.001994	6.402928	64.105	11.5521	-0.068690	0.391132	-0.777199	-0.778554	-0.078237	6.402928	-0.768034	-1.654163E+10	4.729716E-12	NaN
207	1.000000	0.402504	7.36707e+06	-48989.1	955.819	-29760.8	0.000000	0.000000	6.402910	0.049642	NaN	0.000000	0.001774	0.001706	28.0778	0.054111	0.002010	26.9177	-37.0439	-162.281	0.053535	0.401141	-0.767182	-0.768545	0.049642	26.9177	-0.768565	-1.681878E+10	-2.951599E-12	NaN
207	1.000000	0.412525	7.36707e+06	-48989.1	955.818	-29760.8	0.000000	0.000000	6.412928	-0.005637	NaN	0.000000	0.001747	0.001673	28.0776	0.041076	0.001916	21.4441	65.1219	11.4957	-0.024471	0.411187	-0.757161	-0.758500	-0.005637	21.4441	-0.756964	-1.169496E+10	4.819728E-13	NaN
207	1.000000	0.422506	7.36707e+06	-48989.1	955.818	-29760.8	0.000000	0.000000	6.422913	0.081697	NaN	0.000000	0.001751	0.001680	28.0775	0.045696	0.002002	22.8235	-59.8067	-165.867	0.064919	0.421243	-0.747180	-0.748443	0.081697	22.8235	-0.749865	-9.362267E+9	-8.726193E-12	NaN
207	1.000000	0.432492	7.36707e+06	-48989.1	955.82	-29760.8	0.000000	0.000000	6.432894	-0.041198	NaN	0.000000	0.001705	0.001663	28.0775	0.041627	0.001918	21.6978	114.657	15.3023	0.034872	0.431178	-0.737194	-0.738509	-0.041198	21.6978	-0.735770	-6.017707E+9	6.846089E-12	NaN
207	1.000000	0.442531	7.36707e+06	-48989.1	955.82	-29760.8	0.000000	0.000000	6.442939	0.080704	NaN	0.000000	0.001653	0.001630	28.0774	0.010478	0.001898	5.522056	-136.631	-165.538	0.041824	0.441234	-0.727155	-0.728453	0.080704	5.522056	-0.738116	-6.477275E+9	-1.245956E-11	NaN
207	1.000000	0.452524	7.36707e+06	-48989.1	955.818	-29760.8	0.000000	0.000000	6.452927	-0.027511	NaN	0.000000	0.001646	0.001663	28.0778	0.055205	0.002067	26.7069	-158.824	14.6834	-0.010607	0.451142	-0.717162	-0.718544	-0.027511	26.7069	-0.716390	-3.275143E+9	8.399939E-12	NaN
207	1.000000	0.462507	7.36707e+06	-48989.1	955.818	-29760.8	0.000000	0.000000	6.462912	0.023381	NaN	0.000000	0.001658	0.001627	28.0774	0.102251	0.001934	52.8703	-83.481	-166.793	0.055783	0.461204	-0.707179	-0.708482	0.023381	52.8703	-0.707510	-2.477822E+9	-9.436008E-12	NaN
207	1.000000	0.472499	7.36707e+06	-48989.1	955.82	-29760.8	0.000000	0.000000	6.472904	0.013492	NaN	0.000000	0.001658	0.001648	28.0778	0.041088	0.002054	20.0044	68.3233	11.4055	0.079166	0.471154	-0.697187	-0.698532	0.013492	20.0044	-0.697693	-1.819787E+9	-7.413870E-12	NaN
207	1.000000	0.482566	7.36707e+06	-48989.1	955.819	-29760.8	0.000000	0.000000	6.482969	-0.031760	NaN	0.000000	0.001647	0.001641	28.0775	0.035277	0.001899	18.5779	48.7035	-165.404	0.018532	0.481197	-0.687120	-0.688489	-0.031760	18.5779	-0.685838	-1.253220E+9	2.534307E-11	NaN
207	1.000000	0.492528	7.36707e+06	-48989.1	955.819	-29760.8	0.000000	0.000000	6.492932	-0.007126	NaN	0.000000	0.001663	0.001686	28.0778	0.046308	0.002058	22.4975	51.6758	14.593	-0.034090	0.491193	-0.677158	-0.678493	-0.007126	22.4975	-0.676921	-9.464222E+8	7.529379E-12	NaN
207	1.000000	0.502529	7.36707e+06	-48989.1	955.819	-29760.8	0.000000	0.000000	6.502931	-0.025054	NaN	0.000000	0.001650	0.001650	28.0776	0.097947	0.002018	48.5407	-8.972962	-163.252	-0.069878	0.501271	-0.667158	-0.668415	-0.025054	48.5407	-0.666770	-6.873568E+8	3.645013E-11	NaN
207	1.000000	0.512524	7.36707e+06	-48989.1	955.818	-29760.8	0.000000	0.000000	6.512927	-0.030750	NaN	0.000000	0.001714	0.001640	28.0779	0.059133	0.002024	29.2154	-89.3048	11.3523	-0.014932	0.511176	-0.657162	-0.658510	-0.030750	29.2154	-0.656373	-4.951931E+8	6.209787E-11	NaN
207	1.000000	0.522564	7.36707e+06	-48989.1	955.82	-29760.8	0.000000	0.000000	6.522967	-0.015685	NaN	0.000000	0.001684	0.001668	28.0775	0.028830	0.001910	15.0953	-179.058	-166.079	0.070875	0.521267	-0.647122	-0.648419	-0.015685	15.0953	-0.646343	-3.608256E+8	4.346857E-11	NaN
207	1.000000	0.532563	7.36707e+06	-48989.1	955.819	-29760.8	0.000000	0.000000	6.532971	0.097396	NaN	0.000000	0.001719	0.001652	28.0777	0.088342	0.002026	43.5976	-109.16	12.2303	0.073644	0.531155	-0.637123	-0.638531	0.097396	43.5976	-0.638799	-2.843176E+8	-3.425607E-10	NaN
207	1.000000	0.542576	7.36707e+06	-48989.1	955.819	-29760.8	0.000000	0.000000	6.542983	0.074236	NaN	0.000000	0.001735	0.001675	28.0789	0.060356	0.001932	31.237	-106.49	-163.531	-0.003600	0.541209	-0.627110	-0.628477	0.074236	31.237	-0.628892	-2.078793E+8	-3.571120E-10	NaN
207	1.000000	0.552568	7.36707e+06	-48989.1	955.819	-29760.8	0.000000	0.000000	6.552974	0.035286	NaN	0.000000	0.001735	0.001685	28.0792	0.069590	0.001908	36.4729	-18.7882	14.5294	0.020816	0.551176	-0.617118	-0.618510	0.035286	36.4729	-0.617843	-1.465502E+8	-2.407783E-10	NaN
207	1.000000	0.562569	7.36707e+06	-48989.1	955.819	-29760.8	0.000000	0.000000	6.562972	-0.041589	NaN	0.000000	0.001701	0.001665	28.0789	0.088306	0.002099	42.0668	112.381	-167.734	-0.032022	0.561237	-0.607117	-0.608449	-0.041589	42.0668	-0.606375	-1.019139E+8	4.080837E-10	NaN
207	1.000000	0.572541	7.36707e+06	-48989.1	955.819	-29760.8	0.000000	0.000000	6.572948	0.075651	NaN	0.000000	0.001786	0.001628	28.0789	0.062812	0.002125	29.5609	42.9298	11.4542	0.040858	0.571222	-0.597145	-0.598464	0.075651	29.5609	-0.599065	-8.083104E+7	-9.359101E-10	NaN
207	1.000000	0.582579	7.36707e+06	-48989.1	955.818	-29760.8	0.000000	0.000000	6.582983	-0.000756	NaN	0.000000	0.001709	0.001650	28.079	0.071229	0.001943	36.6604	70.2705	-165.868	3.357638E-5	0.581261	-0.587107	-0.588426	-0.000756	36.6604	-0.587091	-5.527899E+7	1.367867E-11	NaN
207	1.000000	0.592583	7.36707e+06	-48989.1	955.82	-29760.8	0.000000	0.000000	6.592985	-0.050566	NaN	0.000000	0.001760	0.001658	28.079	0.075714	0.002045	37.0183	-155.612	16.0375	0.008272	0.591198	-0.577103	-0.578488	-0.050566	37.0183	-0.576078	-3.895709E+7	1.297982E-9	NaN
207	1.000000	0.602574	7.36707e+06	-48989.1	955.818	-29760.8	0.000000	0.000000	6.602980	0.031406	NaN	0.000000	0.001741	0.001701	28.0789	0.089349	0.002115	42.2363	46.7954	-164.165	0.003070	0.601210	-0.567112	-0.568476	0.031406	42.2363	-0.567669	-2.981433E+7	-1.053391E-9	NaN
207	1.000000	0.612582	7.36707e+06	-48989.1	955.818	-29760.8	0.000000	0.000000	6.612985	-0.017729	NaN	0.000000	0.001727	0.001716	28.0793	0.031519	0.002106	14.967	75.6797	12.7707	0.029686	0.611219	-0.557105	-0.558467	-0.017729	14.967	-0.556216	-2.070241E+7	8.563893E-10	NaN
207	1.000000	0.622584	7.36707e+06	-48989.1	955.82	-29760.8	0.000000	0.000000	6.622987	-0.045268	NaN	0.000000	0.001751	0.001708	28.0792	0.084661	0.001904	44.4609	47.94	-165.778	-0.101276	0.621275	-0.547102	-0.548411	-0.045268	44.4609	-0.546338	-1.510855E+7	2.996192E-9	NaN
207	1.000000	0.632591	7.36707e+06	-48989.1	955.818	-29760.8	0.000000	0.000000	6.632994	-0.026949	NaN	0.000000	0.001770	0.001671	28.079	0.054041	0.002031	26.6141	146.771	12.9779	-0.039370	0.631218	-0.537095	-0.538468	-0.026949	26.6141	-0.536336	-1.097804E+7	2.454806E-9	NaN
207	1.000000	0.642594	7.36707e+06	-48989.1	955.818	-29760.8	0.000000	0.000000	6.642998	0.025927	NaN	0.000000	0.001700	0.001659	28.0793	0.035509	0.001857	19.1231	-55.1945	-168.587	0.013291	0.641275	-0.527093	-0.528411	0.025927	19.1231	-0.528109	-8.43949e+06	-3.072113E-9	NaN
207	1.000000	0.652602	7.36707e+06	-48989.1	955.819	-29760.8	0.000000	0.000000	6.653007	0.031013	NaN	0.000000	0.001704	0.001684	28.0793	0.064068	0.002130	30.0813	103.81	13.4099	0.007313	0.651232	-0.517085	-0.518454	0.031013	30.0813	-0.517858	-6.07854e+06	-5.102006E-9	NaN
207	1.000000	0.662609	7.36707e+06	-48989.1	955.819	-29760.8	0.000000	0.000000	6.663011	-0.045957	NaN	0.000000	0.001685	0.001676	28.0794	0.099777	0.002047	48.7503	102.543	-167.874	-0.030907	0.661226	-0.507077	-0.508460	-0.045957	48.7503	-0.506370	-4.20575e+06	1.092717E-8	NaN
207	1.000000	0.672616	7.36707e+06	-48989.1	955.819	-29760.8	0.000000	0.000000	6.673022	0.052237	NaN	0.000000	0.001684	0.001649	28.0781	0.046638	0.001983	23.5242	-48.466	16.657	0.037599	0.671189	-0.497070	-0.498497	0.052237	23.5242	-0.498736	-3.29137e+06	-1.587095E-8	NaN
207	1.000000	0.682614	7.36707e+06	-48989.1	955.819	-29760.8	0.000000	0.000000	6.683019	0.009968	NaN	0.000000	0.001720	0.001650	28.0779	0.147068	0.002029	72.4663	-156.73	-167.377	-0.005162	0.681280	-0.487072	-0.488406	0.009968	72.4663	-0.487175	-2.26936e+06	-4.392618E-9	NaN
207	1.000000	0.692642	7.36707e+06	-48989.1	955.818	-29760.8	0.000000	0.000000	6.693045	-0.022092	NaN	0.000000	0.001721	0.001651	28.0778	0.036660	0.002004	18.2904	-104.326	10.4896	-0.062890	0.691240	-0.477044	-0.478446	-0.022092	18.2904	-0.476138	-1.59016e+06	1.389309E-8	NaN
207	1.000000	0.702614	7.36707e+06	-48989.1	955.818	-29760.8	0.000000	0.000000	6.703017	-0.002569	NaN	0.000000	0.001720	0.001678	28.0781	0.047611	0.001973	24.1357	3.855009	-166.487	-0.091661	0.701323	-0.467073	-0.468363	-0.002569	24.1357	-0.466993	-1.18363e+06	2.170118E-9	NaN
207	1.000000	0.712637	7.36707e+06	-48989.1	955.818	-29760.8	0.000000	0.000000	6.713041	-0.000480	NaN	0.000000	0.001718	0.001678	28.0778	0.042115	0.002015	20.8961	61.4648	18.1052	0.022319	0.711259	-0.457049	-0.458427	-0.000480	20.8961	-0.457032	-857625	5.592978E-10	NaN
207	1.000000	0.722624	7.36707e+06	-48989.1	955.819	-29760.8	0.000000	0.000000	6.723028	-0.004754	NaN	0.000000	0.001691	0.001667	28.0774	0.114390	0.002049	55.836	-22.6617	-167.398	-0.043399	0.721305	-0.447062	-0.448381	-0.004754	55.836	-0.446998	-619524	7.673876E-9	NaN
207	1.000000	0.732645	7.36707e+06	-48989.1	955.818	-29760.8	0.000000	0.000000	6.733049	0.003033	NaN	0.000000	0.001746	0.001698	28.078	0.026031	0.001944	13.3887	-71.9176	14.1939	-0.003900	0.731315	-0.437041	-0.438371	0.003033	13.3887	-0.437211	-450799	-6.729055E-9	NaN
207	1.000000	0.742660	7.36707e+06	-48989.1	955.818	-29760.8	0.000000	0.000000	6.743062	-0.041850	NaN	0.000000	0.001684	0.001721	28.0779	0.039516	0.002055	19.2305	-161.587	-168.205	-0.033651	0.741312	-0.427026	-0.428374	-0.041850	19.2305	-0.425394	-306808	1.364031E-7	NaN
207	1.000000	0.752656	7.36707e+06	-48989.1	955.817	-29760.8	0.000000	0.000000	6.753057	-0.060963	NaN	0.000000	0.001720	0.001707	28.0778	0.018566	0.001995	9.308252	-12.4458	11.4734	-0.096145	0.751262	-0.417031	-0.418424	-0.060963	9.308252	-0.412119	-198847	3.065844E-7	NaN
207	1.000000	0.762637	7.36707e+06	-48989.1	955.819	-29760.8	0.000000	0.000000	6.763043	0.052953	NaN	0.000000	0.001723	0.001697	28.0777	0.118005	0.002057	57.3708	113.41	-167.985	0.035866	0.761316	-0.407049	-0.408370	0.052953	57.3708	-0.407741	-172294	-3.073390E-7	NaN
207	1.000000	0.772653	7.36707e+06	-48989.1	955.818	-29760.8	0.000000	0.000000	6.773057	0.013273	NaN	0.000000	0.001719	0.001674	28.078	0.085966	0.002029	42.3644	-7.783250	16.9913	0.015317	0.771299	-0.397033	-0.398387	0.013273	42.3644	-0.397268	-122186	-1.086300E-7	NaN
207	1.000000	0.782665	7.36707e+06	-48989.1	955.819	-29760.8	0.000000	0.000000	6.783067	-0.025019	NaN	0.000000	0.001719	0.001693	28.0778	0.068199	0.002017	33.8175	-169.896	-167.617	-0.006207	0.781361	-0.387022	-0.388325	-0.025019	33.8175	-0.386467	-85624.2	2.921916E-7	NaN
207	1.000000	0.792644	7.36707e+06	-48989.1	955.819	-29760.8	0.000000	0.000000	6.793049	0.022979	NaN	0.000000	0.001699	0.001682	28.0778	0.092793	0.001980	46.8553	-71.7546	12.3005	0.043726	0.791323	-0.377042	-0.378363	0.022979	46.8553	-0.377410	-63489.9	-3.619302E-7	NaN
207	1.000000	0.802664	7.36707e+06	-48989.1	955.819	-29760.8	0.000000	0.000000	6.803067	-0.009455	NaN	0.000000	0.001725	0.001667	28.078	0.054350	0.002089	26.0114	-9.044400	-168.372	0.100136	0.801384	-0.367023	-0.368302	-0.009455	26.0114	-0.366750	-44595.7	2.120224E-7	NaN
207	1.000000	0.812705	7.36707e+06	-48989.1	955.82	-29760.8	0.000000	0.000000	6.813109	0.003476	NaN	0.000000	0.001703	0.001685	28.0796	0.050829	0.001947	26.1084	26.9917	14.5316	-0.057491	0.811333	-0.356981	-0.358353	0.003476	26.1084	-0.357081	-32331.1	-1.075000E-7	NaN
207	1.000000	0.822687	7.36707e+06	-48989.1	955.818	-29760.8	0.000000	0.000000	6.823088	-0.066429	NaN	0.000000	0.001737	0.001717	28.079	0.088514	0.001995	44.3589	171.807	-164.403	-0.026940	0.821368	-0.346999	-0.348318	-0.066429	44.3589	-0.345876	-22238	2.987204E-6	NaN
207	1.000000	0.832682	7.36707e+06	-48989.1	955.819	-29760.8	0.000000	0.000000	6.833085	-0.010545	NaN	0.000000	0.001738	0.001679	28.0789	0.052632	0.001905	27.6222	93.6133	13.488	-0.004447	0.831330	-0.337005	-0.338356	-0.010545	27.6222	-0.336718	-16356.1	6.447019E-7	NaN
207	1.000000	0.842673	7.36707e+06	-48989.1	955.819	-29760.8	0.000000	0.000000	6.843076	-0.019636	NaN	0.000000	0.001763	0.001671	28.079	0.058767	0.001879	31.2842	98.6177	-165.832	0.140269	0.841366	-0.327013	-0.328320	-0.019636	31.2842	-0.326542	-11608.4	1.691558E-6	NaN
207	1.000000	0.852686	7.36707e+06	-48989.1	955.818	-29760.8	0.000000	0.000000	6.853091	0.012154	NaN	0.000000	0.001736	0.001707	28.079	0.048877	0.001908	25.6189	95.3256	17.2725	-0.040913	0.851333	-0.317000	-0.318353	0.012154	25.6189	-0.317356	-8505.33	-1.428955E-6	NaN
207	1.000000	0.862686	7.36707e+06	-48989.1	955.819	-29760.8	0.000000	0.000000	6.863089	-0.002423	NaN	0.000000	0.001716	0.001698	28.079	0.115981	0.002004	57.8725	-23.4262	-167.836	0.058627	0.861302	-0.307001	-0.308384	-0.002423	57.8725	-0.306969	-5972.6	4.056995E-7	NaN
207	1.000000	0.872671	7.36707e+06	-48989.1	955.818	-29760.8	0.000000	0.000000	6.873073	-0.029633	NaN	0.000000	0.001723	0.001669	28.0789	0.049720	0.002012	24.716	-163.12	13.0814	-0.064075	0.871366	-0.297016	-0.298321	-0.029633	24.716	-0.296116	-4118.63	7.194839E-6	NaN
207	1.000000	0.882717	7.36707e+06	-48989.1	955.818	-29760.8	0.000000	0.000000	6.883121	0.001298	NaN	0.000000	0.001722	0.001712	28.0793	0.057487	0.002041	28.161	-165.193	-166.543	0.077532	0.881382	-0.286969	-0.288304	0.001298	28.161	-0.287004	-3008.64	-4.312652E-7	NaN
207	1.000000	0.892669	7.36707e+06	-48989.1	955.819	-29760.8	0.000000	0.000000	6.893073	0.008304	NaN	0.000000	0.001684	0.001711	28.079	0.075842	0.002026	37.4307	-130.424	12.6507	-0.031616	0.891350	-0.277017	-0.278336	0.008304	37.4307	-0.277183	-2140.1	-3.880103E-6	NaN
207	1.000000	0.902723	7.36707e+06	-48989.1	955.818	-29760.8	0.000000	0.000000	6.903125	-0.045494	NaN	0.000000	0.001699	0.001702	28.0791	0.031505	0.001937	16.261	-15.409	-164.184	-0.019899	0.901383	-0.266963	-0.268303	-0.045494	16.261	-0.264865	-1391	3.270614E-5	NaN
207	1.000000	0.912694	7.36707e+06	-48989.1	955.819	-29760.8	0.000000	0.000000	6.913099	0.015027	NaN	0.000000	0.001716	0.001715	28.0793	0.074077	0.002094	35.3796	-135.182	16.3869	-0.005230	0.911378	-0.256992	-0.258308	0.015027	35.3796	-0.257311	-1065.73	-1.410004E-5	NaN
207	1.000000	0.922722	7.36708e+06	-48989.1	955.819	-29760.8	0.000000	0.000000	6.923126	0.005149	NaN	0.000000	0.001710	0.001695	28.0792	0.111500	0.001982	56.2431	-121.091	-167.385	-0.021682	0.921389	-0.246964	-0.248297	0.005149	56.2431	-0.247033	-739.629	-6.962230E-6	NaN
207	1.000000	0.932706	7.36708e+06	-48989.1	955.818	-29760.8	0.000000	0.000000	6.933113	0.062615	NaN	0.000000	0.001733	0.001692	28.0793	0.057487	0.001938	29.6622	-87.3552	11.7215	0.020755	0.931358	-0.236980	-0.238328	0.062615	29.6622	-0.238563	-545.875	-0.000115	NaN
207	1.000000	0.942717	7.36708e+06	-48989.1	955.819	-29760.8	0.000000	0.000000	6.943122	0.042971	NaN	0.000000	0.001712	0.001681	28.0794	0.032196	0.001938	16.6101	-140.642	-168.394	0.042419	0.941451	-0.226969	-0.228236	0.042971	16.6101	-0.228910	-384.848	-0.000112	NaN
207	1.000000	0.952734	7.36708e+06	-48989.1	955.819	-29760.8	0.000000	0.000000	6.953136	-0.058501	NaN	0.000000	0.001677	0.001721	28.0784	0.043618	0.001977	22.0654	-127.655	13.4151	-0.044961	0.951345	-0.216952	-0.218341	-0.058501	22.0654	-0.214963	-230.634	0.000254	NaN
207	1.000000	0.962734	7.36708e+06	-48989.1	955.819	-29760.8	0.000000	0.000000	6.963139	0.024995	NaN	0.000000	0.001712	0.001703	28.0778	0.059294	0.001974	30.0333	148.778	-169.986	-0.030677	0.961346	-0.206952	-0.208340	0.024995	30.0333	-0.207576	-175.187	-0.000143	NaN
207	1.000000	0.972767	7.36708e+06	-48989.1	955.818	-29760.8	0.000000	0.000000	6.973172	0.033942	NaN	0.000000	0.001706	0.001718	28.078	0.015402	0.001962	7.848782	-168.178	11.3897	-0.042048	0.971344	-0.196919	-0.198342	0.033942	7.848782	-0.200163	-132.547	-0.000256	NaN
207	1.000000	0.982744	7.36708e+06	-48989.1	955.819	-29760.8	0.000000	0.000000	6.983148	0.005212	NaN	0.000000	0.001660	0.001715	28.0779	0.205804	0.002060	99.9033	-104.61	-163.257	-0.001578	0.981394	-0.186942	-0.188292	0.005212	99.9033	-0.186981	-80.0687	-6.508855E-5	NaN
207	1.000000	0.992766	7.36708e+06	-48989.1	955.818	-29760.8	0.000000	0.000000	6.993169	-0.023053	NaN	0.000000	0.001711	0.001694	28.0782	0.090541	0.002109	42.9367	-133.969	11.1607	-0.006070	0.991416	-0.176920	-0.178270	-0.023053	42.9367	-0.176518	-53.2131	0.000433	NaN
207	1.000000	1.002760	7.36708e+06	-48989.1	955.819	-29760.8	0.000000	0.000000	7.003164	-0.005389	NaN	0.000000	0.001684	0.001721	28.0778	0.056519	0.001928	29.321	109.418	-164.192	0.027500	1.001453	-0.166926	-0.168233	-0.005389	29.321	-0.166788	-36.1111	0.000149	NaN
207	1.000000	1.012761	7.36708e+06	-48989.1	955.818	-29760.8	0.000000	0.000000	7.013167	0.046096	NaN	0.000000	0.001729	0.001691	28.0782	0.126871	0.001979	64.1151	173.019	16.2393	0.014734	1.011392	-0.156925	-0.158294	0.046096	64.1151	-0.157464	-24.7048	-0.001866	NaN
207	1.000000	1.022731	7.36708e+06	-48989.1	955.819	-29760.8	0.000000	0.000000	7.023135	-0.013616	NaN	0.000000	0.001698	0.001700	28.0778	0.010986	0.001961	5.602987	-88.3089	-164.923	0.002716	1.021391	-0.146955	-0.148295	-0.013616	5.602987	-0.145132	-14.7438	0.000924	NaN
207	1.000000	1.032756	7.36708e+06	-48989.1	955.819	-29760.8	0.000000	0.000000	7.033160	0.022656	NaN	0.000000	0.001696	0.001684	28.078	0.086223	0.001921	44.8752	-69.4236	13.1297	-0.006891	1.031416	-0.136931	-0.138270	0.022656	44.8752	-0.137309	-10.5246	-0.002153	NaN
207	1.000000	1.042751	7.36708e+06	-48989.1	955.818	-29760.8	0.000000	0.000000	7.043155	0.005079	NaN	0.000000	0.001713	0.001686	28.0779	0.089321	0.001993	44.825	42.5537	-166.641	-0.014575	1.041459	-0.126935	-0.128227	0.005079	44.825	-0.127020	-6.665148	-0.000762	NaN
207	1.000000	1.052743	7.36708e+06	-48989.1	955.818	-29760.8	0.000000	0.000000	7.053150	0.074615	NaN	0.000000	0.001686	0.001736	28.0778	0.043211	0.002123	20.3571	-155.751	13.2347	0.021081	1.051362	-0.116943	-0.118324	0.074615	20.3571	-0.119692	-4.762737	-0.015666	NaN
207	1.000000	1.062762	7.36708e+06	-48989.1	955.818	-29760.8	0.000000	0.000000	7.063165	-0.007970	NaN	0.000000	0.001738	0.001670	28.078	0.027639	0.002005	13.7872	25.8904	-161.347	-0.014432	1.061439	-0.106924	-0.108247	-0.007970	13.7872	-0.106491	-2.530819	0.003149	NaN
207	1.000000	1.072738	7.36708e+06	-48989.1	955.819	-29760.8	0.000000	0.000000	7.073141	-0.041384	NaN	0.000000	0.001727	0.001704	28.078	0.097095	0.001970	49.2777	20.5637	16.6546	-0.075760	1.071400	-0.096948	-0.098286	-0.041384	49.2777	-0.096318	-1.511228	0.027385	NaN
207	1.000000	1.082778	7.36708e+06	-48989.1	955.819	-29760.8	0.000000	0.000000	7.083183	0.027286	NaN	0.000000	0.001722	0.001690	28.0792	0.012591	0.002019	6.235548	2.386749	-163.348	-0.093103	1.081503	-0.086908	-0.088183	0.027286	6.235548	-0.090190	-1.092135	-0.024984	NaN
207	1.000000	1.092764	7.36708e+06	-48989.1	955.819	-29760.8	0.000000	0.000000	7.093167	-0.026807	NaN	0.000000	0.001757	0.001700	28.0793	0.012248	0.001913	6.400681	-179.25	14.8348	-0.094928	1.091437	-0.076922	-0.078249	-0.026807	6.400681	-0.073781	-0.429387	0.062430	NaN
207	1.000000	1.102796	7.36708e+06	-48989.1	955.82	-29760.8	0.000000	0.000000	7.103199	-0.003285	NaN	0.000000	0.001718	0.001680	28.0794	0.037641	0.002022	18.6138	123.807	-163.377	-0.006565	1.101506	-0.066890	-0.068180	-0.003285	18.6138	-0.066758	-0.278644	0.011790	NaN
207	1.000000	1.112791	7.36708e+06	-48989.1	955.819	-29760.8	0.000000	0.000000	7.113195	-0.003746	NaN	0.000000	0.001716	0.001719	28.0794	0.007882	0.001953	4.035156	3.951472	14.1795	0.044889	1.111464	-0.056895	-0.058222	-0.003746	4.035156	-0.056199	-0.139685	0.026815	NaN
207	1.000000	1.122798	7.36708e+06	-48989.1	955.819	-29760.8	0.000000	0.000000	7.123201	-0.006619	NaN	0.000000	0.001708	0.001701	28.0792	0.034147	0.002113	16.1578	44.0695	-166.303	0.018507	1.121466	-0.046888	-0.048220	-0.006619	16.1578	-0.046581	-0.071830	0.092150	NaN
207	1.000000	1.132801	7.36708e+06	-48989.1	955.819	-29760.8	0.000000	0.000000	7.133206	0.022923	NaN	0.000000	0.001733	0.001697	28.0792	0.081269	0.001950	41.6805	-61.0837	14.4252	0.032458	1.131453	-0.036885	-0.038233	0.022923	41.6805	-0.037298	-0.037478	-0.611636	NaN
207	1.000000	1.142820	7.36708e+06	-48989.1	955.819	-29760.8	0.000000	0.000000	7.143223	-0.022065	NaN	0.000000	0.001724	0.001669	28.0794	0.017124	0.001993	8.590062	-149.462	-166.363	-0.026382	1.141519	-0.026866	-0.028167	-0.022065	8.590062	-0.024939	-0.016809	1.312719	NaN
207	1.000000	1.152805	7.36708e+06	-48989.1	955.82	-29760.8	0.000000	0.000000	7.153211	0.053119	NaN	0.000000	0.001744	0.001685	28.0793	0.115627	0.001927	60.0049	-99.4519	13.306	0.008931	1.151473	-0.016881	-0.018213	0.053119	60.0049	-0.017545	-0.010862	-4.890204	NaN
207	1.000000	1.162811	7.36708e+06	-48989.1	955.819	-29760.8	0.000000	0.000000	7.163214	-0.032774	NaN	0.000000	0.001728	0.001695	28.0793	0.034271	0.001973	17.3742	-37.5181	-161.643	-0.073066	1.161495	-0.006875	-0.008191	-0.032774	17.3742	-0.005460	-0.003704	8.848805	NaN
207	1.000000	1.172803	7.36708e+06	-48989.1	955.82	-29760.8	0.000000	0.000000	7.173303	2.319982	NaN	0.000000	0.001735	0.001702	28.0792	3.038470	0.001861	1632.33	9.000568	11.0644	1.151653	1.171481	0.003117	0.001795	2.319982	1632.33	0.002051	0.001596	1453.24	37325.6
207	2.000000	1.179424	7.36708e+06	-48989.1	955.82	-29760.8	0.000000	0.000000	7.180231	9.808905	NaN	0.000000	0.001716	0.001684	28.0796	9.398707	0.001658	5667.18	6.026711	-173.397	8.924401	1.179199	0.009738	0.009513	9.808905	5667.18	0.008440	0.007498	1308.13	59793.6
207	2.000000	1.181898	7.36708e+06	-48989.1	955.82	-29760.8	0.000000	0.000000	7.182925	15.1475	NaN	0.000000	0.001725	0.001703	28.0791	12.4338	0.001740	7147.36	3.171669	6.920338	13.8604	1.181552	0.012212	0.011866	15.1475	7147.36	0.010622	0.009881	1532.97	65692.3
207	2.000000	1.184394	7.36708e+06	-48989.1	955.819	-29760.8	0.000000	0.000000	7.185446	15.7618	NaN	0.000000	0.001704	0.001706	28.0793	14.8907	0.001706	8727.12	2.657272	-173.871	15.0891	1.184104	0.014708	0.014418	15.7618	8727.12	0.013353	0.013151	1198.49	69527.7
207	2.000000	1.186931	7.36708e+06	-48989.1	955.819	-29760.8	0.000000	0.000000	7.188130	19.3213	NaN	0.000000	0.001749	0.001682	28.0794	17.3889	0.001794	9694.28	9.655883	2.557359	20.218	1.186461	0.017245	0.016775	19.3213	9694.28	0.015750	0.016299	1185.42	69375.6
207	2.000000	1.189315	7.36708e+06	-48989.1	955.82	-29760.8	0.000000	0.000000	7.190698	23.8232	NaN	0.000000	0.001711	0.001665	28.0783	19.2559	0.001695	11361.7	2.790529	-174.876	21.4532	1.189076	0.019629	0.019390	23.8232	11361.7	0.018056	0.019579	1216.75	74185.2
207	2.000000	1.191819	7.36708e+06	-48989.1	955.819	-29760.8	0.000000	0.000000	7.193350	27.4113	NaN	0.000000	0.001730	0.001705	28.0779	22.4006	0.001813	12356.5	5.663059	0.280430	24.4374	1.191423	0.022132	0.021737	27.4113	12356.5	0.020469	0.023284	1177.26	73984.5
207	2.000000	1.194375	7.36708e+06	-48989.1	955.818	-29760.8	0.000000	0.000000	7.196236	35.4438	NaN	0.000000	0.001750	0.001723	28.0782	24.7365	0.001774	13943.5	5.994256	-179.932	35.5474	1.193988	0.024688	0.024302	35.4438	13943.5	0.022782	0.027104	1307.71	77380.2
207	2.000000	1.196854	7.36708e+06	-48989.1	955.819	-29760.8	0.000000	0.000000	7.198808	37.6951	NaN	0.000000	0.001740	0.001696	28.0779	26.4612	0.001780	14868.6	4.839781	1.045905	35.1974	1.196521	0.027168	0.026834	37.6951	14868.6	0.025266	0.031502	1196.61	76538.1
207	2.000000	1.199330	7.36708e+06	-48989.1	955.819	-29760.8	0.000000	0.000000	7.201472	42.2874	NaN	0.000000	0.001723	0.001675	28.0789	28.798	0.001754	16421.7	4.819552	179.098	41.1034	1.199014	0.029643	0.029328	42.2874	16421.7	0.027712	0.036135	1170.26	78927
207	2.000000	1.201858	7.36708e+06	-48989.1	955.819	-29760.8	0.000000	0.000000	7.204188	46.8243	NaN	0.000000	0.001706	0.001678	28.0778	31.6622	0.001837	17232.8	5.265775	-1.282618	45.1271	1.201492	0.032172	0.031806	46.8243	17232.8	0.030134	0.041023	1141.42	77735.1
207	2.000000	1.204397	7.36708e+06	-48989.1	955.819	-29760.8	0.000000	0.000000	7.207011	53.7529	NaN	0.000000	0.001724	0.001737	28.0787	33.8838	0.001855	18263.7	5.364563	179.155	55.8277	1.204064	0.034711	0.034378	53.7529	18263.7	0.032503	0.046093	1166.2	77722.7
207	2.000000	1.206930	7.36708e+06	-48989.1	955.82	-29760.8	0.000000	0.000000	7.209897	62.3533	NaN	0.000000	0.001718	0.001736	28.078	35.1193	0.001775	19787.9	6.371485	-2.038202	64.0797	1.206425	0.037243	0.036739	62.3533	19787.9	0.034880	0.051467	1211.51	79690.7
207	2.000000	1.209328	7.36708e+06	-48989.1	955.82	-29760.8	0.000000	0.000000	7.212602	69.8072	NaN	0.000000	0.001740	0.001708	28.0782	37.3777	0.001695	22054.6	7.260318	174.679	68.6933	1.208974	0.039642	0.039288	69.8072	22054.6	0.037268	0.057159	1221.27	84280.9
207	2.000000	1.211837	7.36708e+06	-48989.1	955.819	-29760.8	0.000000	0.000000	7.215546	80.3885	NaN	0.000000	0.001737	0.001704	28.0781	39.4682	0.001662	23746.7	3.923182	-2.965904	81.0353	1.211496	0.042150	0.041810	80.3885	23746.7	0.039611	0.063028	1275.44	86418.9
207	2.000000	1.214304	7.36708e+06	-48989.1	955.819	-29760.8	0.000000	0.000000	7.218222	85.4495	NaN	0.000000	0.001738	0.001742	28.0784	43.0396	0.001793	24001.8	2.599633	178.518	84.8494	1.214082	0.044618	0.044396	85.4495	24001.8	0.041948	0.069160	1235.53	83385.1
207	2.000000	1.216884	7.36708e+06	-48989.1	955.82	-29760.8	0.000000	0.000000	7.221397	99.9507	NaN	0.000000	0.001739	0.001705	28.078	45.5332	0.001815	25089	5.412322	-4.005090	100.243	1.216412	0.047198	0.046726	99.9507	25089	0.044210	0.075360	1326.31	83499.8
207	2.000000	1.219388	7.36708e+06	-48989.1	955.819	-29760.8	0.000000	0.000000	7.223904	100.006	NaN	0.000000	0.001700	0.001690	28.0786	48.0694	0.001823	26361.8	7.819309	171.908	103.471	1.219136	0.049702	0.049450	100.006	26361.8	0.046857	0.082946	1205.68	83627.9
207	2.000000	1.221805	7.36708e+06	-48989.1	955.819	-29760.8	0.000000	0.000000	7.226882	113.654	NaN	0.000000	0.001746	0.001662	28.0781	49.9836	0.001811	27594	4.610661	-4.988865	111.833	1.221526	0.052119	0.051840	113.654	27594	0.049030	0.089438	1270.75	84299.6
207	2.000000	1.224295	7.36708e+06	-48989.1	955.819	-29760.8	0.000000	0.000000	7.229878	125.957	NaN	0.000000	0.001744	0.001695	28.0797	52.2715	0.001775	29450.1	5.153485	173.869	123.661	1.223946	0.054609	0.054260	125.957	29450.1	0.051402	0.096795	1301.29	86483.8
207	2.000000	1.226872	7.36708e+06	-48989.1	955.818	-29760.8	0.000000	0.000000	7.232642	130.521	NaN	0.000000	0.001704	0.001754	28.0796	53.2012	0.001675	31766	1.497466	-2.483088	130.216	1.226597	0.057186	0.056911	130.521	31766	0.054104	0.105519	1236.94	89344.7
207	2.000000	1.229238	7.36708e+06	-48989.1	955.818	-29760.8	0.000000	0.000000	7.235944	153.257	NaN	0.000000	0.001727	0.001717	28.0799	55.5771	0.001908	29122.3	2.593553	177.558	148.358	1.228883	0.059552	0.059197	153.257	29122.3	0.055605	0.110523	1386.66	80033.7
207	2.000000	1.231739	7.36708e+06	-48989.1	955.819	-29760.8	0.000000	0.000000	7.238627	157.699	NaN	0.000000	0.001732	0.001723	28.0791	58.4649	0.001804	32415.9	3.139397	-4.483129	152.531	1.231444	0.062053	0.061758	157.699	32415.9	0.058405	0.120149	1312.53	85441.9
207	2.000000	1.234334	7.36708e+06	-48989.1	955.817	-29760.8	0.000000	0.000000	7.241654	168.19	NaN	0.000000	0.001710	0.001701	28.0795	61.2559	0.001741	35190.8	0.741437	177.304	168.797	1.234039	0.064648	0.064352	168.19	35190.8	0.061064	0.129651	1297.25	89292.4
207	2.000000	1.236784	7.36708e+06	-48989.1	955.819	-29760.8	0.000000	0.000000	7.244849	186.309	NaN	0.000000	0.001777	0.001719	28.0798	63.3152	0.001828	34636.2	2.636365	-4.079914	182.709	1.236421	0.067098	0.066735	186.309	34636.2	0.063064	0.137023	1359.69	85488.1
207	2.000000	1.239333	7.36708e+06	-48989.1	955.82	-29760.8	0.000000	0.000000	7.247878	197.997	NaN	0.000000	0.001732	0.001731	28.0796	65.796	0.001850	35569.1	6.606152	172.406	198.969	1.238979	0.069647	0.069292	197.997	35569.1	0.065472	0.146158	1354.68	85003.2
207	2.000000	1.241769	7.36708e+06	-48989.1	955.82	-29760.8	0.000000	0.000000	7.250771	209.115	NaN	0.000000	0.001714	0.001728	28.0792	69.2	0.001850	37415.4	5.053484	-7.449909	206.595	1.241455	0.072083	0.071768	209.115	37415.4	0.067891	0.155616	1343.79	86655.6
207	2.000000	1.244375	7.36708e+06	-48989.1	955.82	-29760.8	0.000000	0.000000	7.253738	217.906	NaN	0.000000	0.001727	0.001720	28.0796	71.9044	0.001765	40740.8	7.271977	169.835	222.579	1.244011	0.074688	0.074325	217.906	40740.8	0.070677	0.166853	1305.98	91124.7
207	2.000000	1.246807	7.36708e+06	-48989.1	955.819	-29760.8	0.000000	0.000000	7.257237	243.837	NaN	0.000000	0.001703	0.001719	28.0792	74.2983	0.001900	39110	2.841330	-4.817610	241.752	1.246418	0.077121	0.076731	243.837	39110	0.072445	0.174177	1399.94	85618.1
207	2.000000	1.249299	7.36708e+06	-48989.1	955.82	-29760.8	0.000000	0.000000	7.259788	245.298	NaN	0.000000	0.001715	0.001719	28.0793	76.3119	0.001757	43428.1	5.535947	171.33	248.647	1.249002	0.079612	0.079316	245.298	43428.1	0.075376	0.186643	1314.26	91841.5
207	2.000000	1.251842	7.36708e+06	-48989.1	955.818	-29760.8	0.000000	0.000000	7.263390	271.041	NaN	0.000000	0.001691	0.001692	28.0792	79.0537	0.001721	45927.6	4.334671	-7.388279	272.58	1.251373	0.082156	0.081687	271.041	45927.6	0.077730	0.196944	1376.23	94552.9
207	2.000000	1.254323	7.36708e+06	-48989.1	955.819	-29760.8	0.000000	0.000000	7.266312	281.756	NaN	0.000000	0.001739	0.001707	28.0795	82.7816	0.001811	45699.6	4.459604	172.204	281.497	1.254061	0.084637	0.084374	281.756	45699.6	0.080013	0.207187	1359.91	91728.4
207	2.000000	1.256736	7.36708e+06	-48989.1	955.819	-29760.8	0.000000	0.000000	7.269637	303.954	NaN	0.000000	0.001734	0.001706	28.0781	83.9477	0.001753	47874.5	5.414117	-9.283205	297.729	1.256416	0.087050	0.086730	303.954	47874.5	0.082288	0.217634	1396.63	93759.3
207	2.000000	1.259251	7.36708e+06	-48989.1	955.819	-29760.8	0.000000	0.000000	7.273172	328.751	NaN	0.000000	0.001721	0.001717	28.078	86.563	0.001780	48621.9	8.312965	167.382	326.604	1.258907	0.089564	0.089221	328.751	48621.9	0.084493	0.227991	1441.95	93035
207	2.000000	1.261675	7.36708e+06	-48989.1	955.821	-29760.8	0.000000	0.000000	7.276326	346.488	NaN	0.000000	0.001714	0.001737	28.0781	88.7555	0.001740	50998.7	8.767610	-12.9763	339.994	1.261292	0.091989	0.091605	346.488	50998.7	0.086894	0.239518	1446.61	95205.8
207	2.000000	1.264342	7.36708e+06	-48989.1	955.82	-29760.8	0.000000	0.000000	7.279560	360.273	NaN	0.000000	0.001678	0.001758	28.0783	92.4196	0.001766	52329.7	5.986628	169.439	363.654	1.263919	0.094656	0.094233	360.273	52329.7	0.089493	0.252299	1427.96	95183.9
207	2.000000	1.266682	7.36708e+06	-48989.1	955.82	-29760.8	0.000000	0.000000	7.282993	386.87	NaN	0.000000	0.001717	0.001692	28.0777	93.5828	0.001713	54636.4	7.529630	-11.8462	378.642	1.266345	0.096996	0.096658	386.87	54636.4	0.091686	0.263324	1469.18	97277.1
207	2.000000	1.269260	7.36708e+06	-48989.1	955.819	-29760.8	0.000000	0.000000	7.286421	407.548	NaN	0.000000	0.001746	0.001694	28.0777	97.1825	0.001797	54076.9	6.896068	168.303	407.009	1.268952	0.099574	0.099266	407.548	54076.9	0.093922	0.274791	1483.12	94250.4
207	2.000000	1.271728	7.36708e+06	-48989.1	955.819	-29760.8	0.000000	0.000000	7.289431	420.731	NaN	0.000000	0.001737	0.001685	28.0777	100.147	0.001871	53535	5.191079	-10.0153	416.471	1.271518	0.102042	0.101832	420.731	53535	0.096148	0.286436	1468.85	91389.7
207	2.000000	1.274241	7.36708e+06	-48989.1	955.821	-29760.8	0.000000	0.000000	7.292511	434.531	NaN	0.000000	0.001693	0.001721	28.078	102.14	0.001750	58372.3	2.948431	171.295	431.844	1.274166	0.104554	0.104479	434.531	58372.3	0.098971	0.301530	1441.09	97121.4
207	2.000000	1.276667	7.36708e+06	-48989.1	955.819	-29760.8	0.000000	0.000000	7.296351	468.915	NaN	0.000000	0.001685	0.001729	28.0776	102.788	0.001622	63351.9	3.453605	-9.583513	461.528	1.276438	0.106980	0.106752	468.915	63351.9	0.101429	0.314964	1488.79	103134