File: remote_trans/data/nanoindenter/0828-1/data/Data_2025-08-06,11h17m57s/2025-07-22_16-23-58_1_23.txt
2025-07-22, 16:23:58, 1
Index	Phase	Displacement	Time	Pos X	Pos Y	Pos Z	Rot A	Rot B	Piezo Z	Force A	Force B	Gripper	Voltage A	Voltage B	Temperature	Amplitude force	Amplitude pos	Stiffness	Phase shift	Phase excitation	Force A raw	Displacement raw	HMax	HMax raw	Real Force	Real Stiffness	Contact Depth	Area	Hardness	Reduced Mod.
[#]	[#]	[um]	[s]	[um]	[um]	[um]	[m°]	[m°]	[um]	[uN]	[uN]	[V]	[V]	[V]	[°C]	[uN]	[um]	[N/m]	[°]	[°]	[uN]	[um]	[um]	[um]	[uN]	[N/m]	[um]	[um^2]	[MPa]	[MPa]
23	1.000000	0.002697	7.36526e+06	-39789.1	955.818	-29793.2	0.000000	0.000000	6.002826	0.073370	NaN	0.000000	0.001540	0.001695	28.0828	0.038879	0.000981	39.6321	80.6534	-162.971	0.014946	0.001404	-1.098859	-1.100152	0.073370	39.6321	-1.100247	-5.051075E+14	-1.452570E-16	NaN
23	1.000000	0.012760	7.36526e+06	-39789.1	955.819	-29793.2	0.000000	0.000000	6.012884	-0.032669	NaN	0.000000	0.001539	0.001635	28.0913	0.085325	0.001291	66.0757	-25.2193	22.982	-0.020138	0.011353	-1.088796	-1.090202	-0.032669	66.0757	-1.088425	-3.504786E+14	9.321116E-17	NaN
23	1.000000	0.022653	7.36526e+06	-39789.1	955.819	-29793.2	0.000000	0.000000	6.022777	-0.023578	NaN	0.000000	0.001544	0.001683	28.1311	0.055506	0.001746	31.7887	166.581	-164.164	0.027197	0.021339	-1.078903	-1.080217	-0.023578	31.7887	-1.078346	-2.566308E+14	9.187564E-17	NaN
23	1.000000	0.032633	7.36526e+06	-39789.1	955.818	-29793.2	0.000000	0.000000	6.032756	-0.042400	NaN	0.000000	0.001523	0.001667	28.1066	0.051588	0.001940	26.5967	-9.218181	15.5078	-0.084772	0.031245	-1.068923	-1.070311	-0.042400	26.5967	-1.067727	-1.847797E+14	2.294635E-16	NaN
23	1.000000	0.042652	7.36526e+06	-39789.1	955.818	-29793.2	0.000000	0.000000	6.042778	0.011467	NaN	0.000000	0.001555	0.001646	28.0799	0.198783	0.002021	98.3668	-141.312	-164.16	0.082297	0.041312	-1.058904	-1.060244	0.011467	98.3668	-1.058991	-1.410152E+14	-8.131565E-17	NaN
23	1.000000	0.052665	7.36526e+06	-39789.1	955.818	-29793.2	0.000000	0.000000	6.052785	-0.105622	NaN	0.000000	0.001550	0.001679	28.0899	0.069461	0.001979	35.0928	45.6266	14.5016	-0.018954	0.051257	-1.048891	-1.050299	-0.105622	35.0928	-1.046634	-9.619767E+13	1.097973E-15	NaN
23	1.000000	0.062608	7.36526e+06	-39789.1	955.819	-29793.2	0.000000	0.000000	6.062735	0.037185	NaN	0.000000	0.001543	0.001677	28.1296	0.067736	0.001954	34.6734	52.6574	-165.214	0.067642	0.061296	-1.038947	-1.040260	0.037185	34.6734	-1.039752	-7.773740E+13	-4.783354E-16	NaN
23	1.000000	0.072636	7.36526e+06	-39789.1	955.818	-29793.2	0.000000	0.000000	6.072761	-0.001707	NaN	0.000000	0.001565	0.001686	28.1072	0.026995	0.002050	13.1683	154.041	12.7076	0.022888	0.071297	-1.028920	-1.030259	-0.001707	13.1683	-1.028823	-5.541807E+13	3.080308E-17	NaN
23	1.000000	0.082650	7.36526e+06	-39789.1	955.818	-29793.2	0.000000	0.000000	6.082775	-0.008377	NaN	0.000000	0.001489	0.001656	28.0813	0.069470	0.001933	35.9445	-70.8314	-164.152	-0.009139	0.081321	-1.018906	-1.020235	-0.008377	35.9445	-1.018731	-4.053950E+13	2.066445E-16	NaN
23	1.000000	0.092659	7.36526e+06	-39789.1	955.819	-29793.2	0.000000	0.000000	6.092784	-0.002128	NaN	0.000000	0.001570	0.001660	28.0933	0.089699	0.002017	44.4714	-109.941	14.261	0.033244	0.091269	-1.008897	-1.010287	-0.002128	44.4714	-1.008861	-2.985769E+13	7.128408E-17	NaN
23	1.000000	0.102662	7.36526e+06	-39789.1	955.819	-29793.2	0.000000	0.000000	6.102786	-0.035338	NaN	0.000000	0.001631	0.001669	28.1322	0.065374	0.001995	32.7769	6.495011	-169.531	-0.067410	0.101334	-0.998894	-1.000222	-0.035338	32.7769	-0.998085	-2.137895E+13	1.652918E-15	NaN
23	1.000000	0.112663	7.36526e+06	-39789.1	955.818	-29793.2	0.000000	0.000000	6.112787	-0.035042	NaN	0.000000	0.001609	0.001668	28.1086	0.041413	0.001921	21.5576	6.677475	13.4519	0.050190	0.111304	-0.988893	-0.990252	-0.035042	21.5576	-0.987673	-1.548019E+13	2.263681E-15	NaN
23	1.000000	0.122658	7.36526e+06	-39789.1	955.818	-29793.2	0.000000	0.000000	6.122783	0.013817	NaN	0.000000	0.001563	0.001653	28.0818	0.105224	0.002034	51.734	59.4468	-163.287	0.005013	0.121356	-0.978898	-0.980200	0.013817	51.734	-0.979099	-1.186497E+13	-1.164480E-15	NaN
23	1.000000	0.132662	7.36526e+06	-39789.1	955.818	-29793.2	0.000000	0.000000	6.132787	0.004237	NaN	0.000000	0.001567	0.001709	28.0907	0.074213	0.002059	36.0398	176.46	13.0996	-0.009209	0.131306	-0.968894	-0.970250	0.004237	36.0398	-0.968982	-8.668569E+12	-4.888180E-16	NaN
23	1.000000	0.142681	7.36526e+06	-39789.1	955.818	-29793.2	0.000000	0.000000	6.142806	-0.003529	NaN	0.000000	0.001554	0.001681	28.1305	0.006397	0.001954	3.274487	-132.611	-164.587	-0.043160	0.141293	-0.958875	-0.960263	-0.003529	3.274487	-0.958067	-6.177428E+12	5.712810E-16	NaN
23	1.000000	0.152662	7.36526e+06	-39789.1	955.819	-29793.2	0.000000	0.000000	6.152789	0.029824	NaN	0.000000	0.001589	0.001690	28.11	0.031343	0.001973	15.8846	-147.391	15.3765	0.126127	0.151318	-0.948894	-0.950238	0.029824	15.8846	-0.950302	-4.853955E+12	-6.144247E-15	NaN
23	1.000000	0.162680	7.36526e+06	-39789.1	955.818	-29793.2	0.000000	0.000000	6.162806	0.009019	NaN	0.000000	0.001543	0.001681	28.0823	0.079929	0.002003	39.8949	132.854	-166.335	0.089647	0.161336	-0.938876	-0.940220	0.009019	39.8949	-0.939045	-3.421814E+12	-2.635802E-15	NaN
23	1.000000	0.172684	7.36526e+06	-39789.1	955.818	-29793.2	0.000000	0.000000	6.172810	0.020683	NaN	0.000000	0.001581	0.001734	28.0927	0.027239	0.002025	13.4537	146.101	13.3246	0.006601	0.171390	-0.928872	-0.930166	0.020683	13.4537	-0.930025	-2.585463E+12	-7.999624E-15	NaN
23	1.000000	0.182705	7.36526e+06	-39789.1	955.818	-29793.2	0.000000	0.000000	6.182832	0.034385	NaN	0.000000	0.001568	0.001664	28.1313	0.070725	0.001997	35.4228	-35.0408	-167.182	-0.009455	0.181398	-0.918851	-0.920158	0.034385	35.4228	-0.919579	-1.868617E+12	-1.840108E-14	NaN
23	1.000000	0.192685	7.36526e+06	-39789.1	955.818	-29793.2	0.000000	0.000000	6.192813	0.069255	NaN	0.000000	0.001571	0.001710	28.1088	0.042046	0.001951	21.5548	175.946	11.7536	-0.004862	0.191341	-0.908871	-0.910214	0.069255	21.5548	-0.911280	-1.443628E+12	-4.797271E-14	NaN
23	1.000000	0.202704	7.36526e+06	-39789.1	955.818	-29793.2	0.000000	0.000000	6.202829	-0.001615	NaN	0.000000	0.001563	0.001653	28.0812	0.035720	0.002027	17.6258	-21.1271	-167.746	0.042558	0.201431	-0.898852	-0.900125	-0.001615	17.6258	-0.898783	-9.786351E+11	1.650070E-15	NaN
23	1.000000	0.212663	7.36526e+06	-39789.1	955.818	-29793.2	0.000000	0.000000	6.212787	-0.033361	NaN	0.000000	0.001562	0.001664	28.0913	0.113323	0.001986	57.0736	107.747	11.4869	-0.083340	0.211317	-0.888893	-0.890239	-0.033361	57.0736	-0.888454	-7.096080E+11	4.701263E-14	NaN
23	1.000000	0.222724	7.36526e+06	-39789.1	955.818	-29793.2	0.000000	0.000000	6.222852	0.076778	NaN	0.000000	0.001550	0.001670	28.1291	0.109128	0.002033	53.6717	-10.0577	-162.561	-0.024354	0.221420	-0.878832	-0.880136	0.076778	53.6717	-0.879905	-5.437857E+11	-1.411915E-13	NaN
23	1.000000	0.232702	7.36526e+06	-39789.1	955.818	-29793.2	0.000000	0.000000	6.232830	0.059501	NaN	0.000000	0.001592	0.001674	28.1092	0.074512	0.001838	40.5457	-3.390316	16.9884	0.000515	0.231380	-0.868854	-0.870175	0.059501	40.5457	-0.869954	-3.988658E+11	-1.491762E-13	NaN
23	1.000000	0.242702	7.36526e+06	-39789.1	955.818	-29793.2	0.000000	0.000000	6.242829	0.038598	NaN	0.000000	0.001538	0.001661	28.0822	0.044469	0.002106	21.1196	174.87	-162.473	-0.006547	0.241411	-0.858854	-0.860145	0.038598	21.1196	-0.860224	-2.945489E+11	-1.310424E-13	NaN
23	1.000000	0.252727	7.36526e+06	-39789.1	955.819	-29793.2	0.000000	0.000000	6.252855	0.056286	NaN	0.000000	0.001546	0.001717	28.091	0.054170	0.002107	25.7042	-139.874	13.0299	-0.046656	0.251324	-0.848829	-0.850232	0.056286	25.7042	-0.850471	-2.173291E+11	-2.589882E-13	NaN
23	1.000000	0.262721	7.36526e+06	-39789.1	955.818	-29793.2	0.000000	0.000000	6.262848	0.061996	NaN	0.000000	0.001554	0.001699	28.1306	0.051800	0.001960	26.4327	43.2349	-164.62	0.080378	0.261428	-0.838835	-0.840128	0.061996	26.4327	-0.840594	-1.597145E+11	-3.881697E-13	NaN
23	1.000000	0.272711	7.36526e+06	-39789.1	955.818	-29793.2	0.000000	0.000000	6.272838	0.030586	NaN	0.000000	0.001598	0.001657	28.1075	0.113733	0.001968	57.7816	-28.3033	12.4234	0.033899	0.271334	-0.828845	-0.830222	0.030586	57.7816	-0.829242	-1.120738E+11	-2.729098E-13	NaN
23	1.000000	0.282719	7.36527e+06	-39789.1	955.818	-29793.2	0.000000	0.000000	6.282846	0.043704	NaN	0.000000	0.001595	0.001690	28.0808	0.116249	0.001928	60.2962	43.8695	-167.089	-0.006557	0.281430	-0.818837	-0.820126	0.043704	60.2962	-0.819380	-8.237713E+10	-5.305325E-13	NaN
23	1.000000	0.292734	7.36527e+06	-39789.1	955.818	-29793.2	0.000000	0.000000	6.292860	0.014247	NaN	0.000000	0.001559	0.001656	28.0888	0.204937	0.001722	119.002	-116.797	9.578809	-0.012785	0.291337	-0.808822	-0.810219	0.014247	119.002	-0.808912	-5.940238E+10	-2.398358E-13	NaN
23	1.000000	0.302746	7.36527e+06	-39789.1	955.819	-29793.2	0.000000	0.000000	6.302868	-0.080106	NaN	0.000000	0.001574	0.001690	28.1296	0.062194	0.001855	33.5308	-172.872	-165.401	-0.032396	0.301414	-0.798810	-0.800142	-0.080106	33.5308	-0.797018	-4.096204E+10	1.955610E-12	NaN
23	1.000000	0.312752	7.36527e+06	-39789.1	955.818	-29793.2	0.000000	0.000000	6.312872	-0.115800	NaN	0.000000	0.001616	0.001655	28.1091	0.076022	0.001950	38.9816	-0.754445	12.8794	-0.065204	0.311394	-0.788804	-0.790162	-0.115800	38.9816	-0.786576	-2.955129E+10	3.918607E-12	NaN
23	1.000000	0.322733	7.36527e+06	-39789.1	955.819	-29793.2	0.000000	0.000000	6.322858	-0.022261	NaN	0.000000	0.001594	0.001653	28.0828	0.096848	0.002078	46.6145	91.0605	-167.926	-0.008460	0.321428	-0.778823	-0.780128	-0.022261	46.6145	-0.778464	-2.292788E+10	9.709291E-13	NaN
23	1.000000	0.332761	7.36527e+06	-39789.1	955.818	-29793.2	0.000000	0.000000	6.332885	-0.039872	NaN	0.000000	0.001618	0.001684	28.0903	0.157376	0.001982	79.4099	83.1264	8.924646	-0.049599	0.331375	-0.768795	-0.770181	-0.039872	79.4099	-0.768418	-1.674170E+10	2.381574E-12	NaN
23	1.000000	0.342727	7.36527e+06	-39789.1	955.818	-29793.2	0.000000	0.000000	6.342853	0.033940	NaN	0.000000	0.001582	0.001688	28.131	0.016794	0.001977	8.494105	46.9569	-164.874	0.014042	0.341454	-0.758829	-0.760102	0.033940	8.494105	-0.761826	-1.361898E+10	-2.492106E-12	NaN
23	1.000000	0.352748	7.36527e+06	-39789.1	955.818	-29793.2	0.000000	0.000000	6.352875	0.047131	NaN	0.000000	0.001598	0.001678	28.1088	0.078657	0.002025	38.845	90.9993	12.8063	0.034221	0.351431	-0.748808	-0.750125	0.047131	38.845	-0.749718	-9.319280E+9	-5.057321E-12	NaN
23	1.000000	0.362768	7.36527e+06	-39789.1	955.819	-29793.2	0.000000	0.000000	6.362894	0.010722	NaN	0.000000	0.001566	0.001653	28.0828	0.038244	0.002041	18.7387	-70.3526	-166.122	-0.011147	0.361453	-0.738788	-0.740103	0.010722	18.7387	-0.739217	-6.704815E+9	-1.599185E-12	NaN
23	1.000000	0.372766	7.36527e+06	-39789.1	955.818	-29793.2	0.000000	0.000000	6.372890	-0.031638	NaN	0.000000	0.001493	0.001643	28.0902	0.105187	0.001964	53.5672	66.5192	11.9273	-0.033683	0.371383	-0.728790	-0.730173	-0.031638	53.5672	-0.728347	-4.767353E+9	6.636290E-12	NaN
23	1.000000	0.382776	7.36527e+06	-39789.1	955.819	-29793.2	0.000000	0.000000	6.382901	0.003727	NaN	0.000000	0.001530	0.001716	28.1307	0.054392	0.002006	27.1171	-136.291	-167.096	0.014387	0.381444	-0.718780	-0.720112	0.003727	27.1171	-0.718883	-3.541916E+9	-1.052186E-12	NaN
23	1.000000	0.392786	7.36527e+06	-39789.1	955.818	-29793.2	0.000000	0.000000	6.392912	0.002842	NaN	0.000000	0.001526	0.001681	28.1115	0.039126	0.002041	19.1744	-132.789	13.0718	0.029037	0.391422	-0.708770	-0.710134	0.002842	19.1744	-0.708881	-2.586865E+9	-1.098697E-12	NaN
23	1.000000	0.402816	7.36527e+06	-39789.1	955.817	-29793.2	0.000000	0.000000	6.402940	-0.013501	NaN	0.000000	0.001536	0.001674	28.0832	0.126054	0.001959	64.3427	127.757	-166.037	0.031499	0.401448	-0.698740	-0.700108	-0.013501	64.3427	-0.698583	-1.871451E+9	7.214060E-12	NaN
23	1.000000	0.412768	7.36527e+06	-39789.1	955.819	-29793.2	0.000000	0.000000	6.412896	0.069179	NaN	0.000000	0.001509	0.001704	28.0908	0.020232	0.002028	9.978644	143.712	10.9068	0.059983	0.411438	-0.688788	-0.690118	0.069179	9.978644	-0.693987	-1.619570E+9	-4.271415E-11	NaN
23	1.000000	0.422816	7.36527e+06	-39789.1	955.819	-29793.2	0.000000	0.000000	6.422942	0.010930	NaN	0.000000	0.001530	0.001712	28.1312	0.033314	0.002060	16.171	108.898	-162.906	0.062813	0.421458	-0.678739	-0.680098	0.010930	16.171	-0.679246	-1.018354E+9	-1.073301E-11	NaN
23	1.000000	0.432798	7.36527e+06	-39789.1	955.819	-29793.2	0.000000	0.000000	6.432921	-0.044091	NaN	0.000000	0.001512	0.001709	28.1097	0.146339	0.001973	74.1657	56.5475	15.3799	-0.111300	0.431404	-0.668758	-0.670152	-0.044091	74.1657	-0.668312	-7.215898E+8	6.110204E-11	NaN
23	1.000000	0.442792	7.36527e+06	-39789.1	955.819	-29793.2	0.000000	0.000000	6.442919	0.044153	NaN	0.000000	0.001523	0.001697	28.0824	0.197486	0.001939	101.835	-3.637958	-169.527	0.072705	0.441516	-0.658763	-0.660040	0.044153	101.835	-0.659089	-5.394918E+8	-8.184113E-11	NaN
23	1.000000	0.452814	7.36527e+06	-39789.1	955.818	-29793.2	0.000000	0.000000	6.452937	-0.046055	NaN	0.000000	0.001502	0.001701	28.0897	0.053331	0.002133	24.9982	138.838	16.5625	0.010968	0.451487	-0.648742	-0.650069	-0.046055	24.9982	-0.647360	-3.725991E+8	1.236054E-10	NaN
23	1.000000	0.462822	7.36527e+06	-39789.1	955.818	-29793.2	0.000000	0.000000	6.462949	0.041391	NaN	0.000000	0.001514	0.001657	28.1299	0.088344	0.002090	42.2688	66.9011	-168.124	0.047311	0.461498	-0.638734	-0.640058	0.041391	42.2688	-0.639468	-2.903964E+8	-1.425330E-10	NaN
23	1.000000	0.472822	7.36527e+06	-39789.1	955.818	-29793.2	0.000000	0.000000	6.472948	0.020233	NaN	0.000000	0.001548	0.001663	28.112	0.113436	0.002040	55.6057	-167.073	13.8252	0.004892	0.471436	-0.628734	-0.630120	0.020233	55.6057	-0.629007	-2.086314E+8	-9.697815E-11	NaN
23	1.000000	0.482765	7.36527e+06	-39789.1	955.818	-29793.2	0.000000	0.000000	6.482889	-0.026808	NaN	0.000000	0.001548	0.001628	28.0825	0.022169	0.001970	11.254	-161.272	-165.461	0.015646	0.481507	-0.618791	-0.620049	-0.026808	11.254	-0.617005	-1.427099E+8	1.878529E-10	NaN
23	1.000000	0.492854	7.36527e+06	-39789.1	955.817	-29793.2	0.000000	0.000000	6.492977	-0.038528	NaN	0.000000	0.001552	0.001655	28.0897	0.026232	0.002036	12.8828	-67.6797	14.8132	0.007413	0.491472	-0.608702	-0.610084	-0.038528	12.8828	-0.606459	-1.021851E+8	3.770413E-10	NaN
23	1.000000	0.502788	7.36527e+06	-39789.1	955.817	-29793.2	0.000000	0.000000	6.502913	-0.024466	NaN	0.000000	0.001537	0.001642	28.1298	0.033255	0.001952	17.0339	-47.4845	-166.934	-0.011676	0.501525	-0.598767	-0.600031	-0.024466	17.0339	-0.597690	-7.738308E+7	3.161683E-10	NaN
23	1.000000	0.512844	7.36527e+06	-39789.1	955.818	-29793.2	0.000000	0.000000	6.512968	-0.026684	NaN	0.000000	0.001539	0.001683	28.1095	0.047766	0.002030	23.5277	-83.6178	14.6196	-0.061724	0.511457	-0.588712	-0.590099	-0.026684	23.5277	-0.587861	-5.664731E+7	4.710522E-10	NaN
23	1.000000	0.522818	7.36527e+06	-39789.1	955.818	-29793.2	0.000000	0.000000	6.522944	0.016921	NaN	0.000000	0.001515	0.001661	28.081	0.061345	0.001887	32.5022	129.474	-163.627	0.010221	0.521475	-0.578738	-0.580081	0.016921	32.5022	-0.579129	-4.292391E+7	-3.942025E-10	NaN
23	1.000000	0.532838	7.36527e+06	-39789.1	955.818	-29793.2	0.000000	0.000000	6.532962	-0.027351	NaN	0.000000	0.001552	0.001668	28.0874	0.033022	0.002009	16.4362	-142.747	14.4256	-0.073416	0.531507	-0.568718	-0.570049	-0.027351	16.4362	-0.567470	-2.962549E+7	9.232360E-10	NaN
23	1.000000	0.542862	7.36527e+06	-39789.1	955.819	-29793.2	0.000000	0.000000	6.542988	0.028428	NaN	0.000000	0.001513	0.001681	28.1286	0.038785	0.002062	18.8075	-41.0255	-168.741	-0.019849	0.541543	-0.558694	-0.560013	0.028428	18.8075	-0.559828	-2.322722E+7	-1.223906E-9	NaN
23	1.000000	0.552861	7.36527e+06	-39789.1	955.818	-29793.2	0.000000	0.000000	6.552986	-0.004376	NaN	0.000000	0.001474	0.001706	28.1104	0.052048	0.002043	25.4805	32.1718	13.637	-0.100390	0.551511	-0.548695	-0.550045	-0.004376	25.4805	-0.548566	-1.622148E+7	2.697847E-10	NaN
23	1.000000	0.562827	7.36527e+06	-39789.1	955.818	-29793.2	0.000000	0.000000	6.562952	-0.009157	NaN	0.000000	0.001494	0.001687	28.0825	0.058011	0.001985	29.2272	-20.6972	-168.725	-0.059008	0.561539	-0.538729	-0.540017	-0.009157	29.2272	-0.538494	-1.176163E+7	7.785616E-10	NaN
23	1.000000	0.572858	7.36527e+06	-39789.1	955.818	-29793.2	0.000000	0.000000	6.572983	0.005169	NaN	0.000000	0.001523	0.001679	28.0885	0.139188	0.002015	69.0632	116.694	14.0561	0.079596	0.571481	-0.528698	-0.530075	0.005169	69.0632	-0.528754	-8.61532e+06	-5.999676E-10	NaN
23	1.000000	0.582858	7.36527e+06	-39789.1	955.817	-29793.2	0.000000	0.000000	6.582984	0.017457	NaN	0.000000	0.001522	0.001653	28.1291	0.073059	0.001977	36.9622	109.454	-167.272	-0.017287	0.581565	-0.518698	-0.519991	0.017457	36.9622	-0.519052	-6.31559e+06	-2.764038E-9	NaN
23	1.000000	0.592864	7.36527e+06	-39789.1	955.818	-29793.2	0.000000	0.000000	6.592988	-0.026998	NaN	0.000000	0.001538	0.001675	28.1097	0.037699	0.001911	19.7321	153.168	14.0308	0.028177	0.591463	-0.508692	-0.510093	-0.026998	19.7321	-0.507666	-4.38424e+06	6.157996E-9	NaN
23	1.000000	0.602855	7.36527e+06	-39789.1	955.819	-29793.2	0.000000	0.000000	6.602979	-0.038449	NaN	0.000000	0.001540	0.001713	28.0806	0.074782	0.002101	35.6007	30.9349	-168.277	-0.001702	0.601594	-0.498701	-0.499962	-0.038449	35.6007	-0.497891	-3.20323e+06	1.200327E-8	NaN
23	1.000000	0.612866	7.36527e+06	-39789.1	955.818	-29793.2	0.000000	0.000000	6.612993	0.054157	NaN	0.000000	0.001521	0.001719	28.0879	0.064981	0.001990	32.6572	-129.722	12.2264	-0.005137	0.611465	-0.488690	-0.490091	0.054157	32.6572	-0.489934	-2.48008e+06	-2.183665E-8	NaN
23	1.000000	0.622878	7.36527e+06	-39789.1	955.818	-29793.2	0.000000	0.000000	6.623002	-0.016954	NaN	0.000000	0.001539	0.001680	28.1279	0.103212	0.001911	53.9997	-161.033	-167.041	-0.025388	0.621513	-0.478678	-0.480043	-0.016954	53.9997	-0.478443	-1.71288e+06	9.897965E-9	NaN
23	1.000000	0.632901	7.36527e+06	-39789.1	955.819	-29793.2	0.000000	0.000000	6.633027	0.020941	NaN	0.000000	0.001557	0.001666	28.112	0.057531	0.001953	29.4545	110.091	14.8432	0.059515	0.631459	-0.468655	-0.470096	0.020941	29.4545	-0.469188	-1.27064e+06	-1.648060E-8	NaN
23	1.000000	0.642904	7.36527e+06	-39789.1	955.818	-29793.2	0.000000	0.000000	6.643026	-0.066345	NaN	0.000000	0.001509	0.001701	28.084	0.055802	0.002144	26.0231	-82.3089	-168.742	-0.051782	0.641514	-0.458652	-0.460042	-0.066345	26.0231	-0.456740	-849559	7.809326E-8	NaN
23	1.000000	0.652883	7.36527e+06	-39789.1	955.818	-29793.2	0.000000	0.000000	6.653007	-0.029132	NaN	0.000000	0.001562	0.001681	28.0904	0.065533	0.002252	29.0937	54.4504	15.1953	0.006278	0.651509	-0.448673	-0.450047	-0.029132	29.0937	-0.447922	-638363	4.563544E-8	NaN
23	1.000000	0.662921	7.36527e+06	-39789.1	955.817	-29793.2	0.000000	0.000000	6.663045	-0.034529	NaN	0.000000	0.001540	0.001724	28.1302	0.075498	0.002063	36.5906	-91.1755	-166.888	-0.025820	0.661614	-0.438635	-0.439942	-0.034529	36.5906	-0.437927	-461424	7.483226E-8	NaN
23	1.000000	0.672886	7.36527e+06	-39789.1	955.818	-29793.2	0.000000	0.000000	6.673009	-0.041520	NaN	0.000000	0.001511	0.001663	28.1114	0.017368	0.001954	8.887718	82.2032	12.7549	-0.044674	0.671595	-0.428670	-0.429961	-0.041520	8.887718	-0.425166	-304536	1.363380E-7	NaN
23	1.000000	0.682907	7.36527e+06	-39789.1	955.818	-29793.2	0.000000	0.000000	6.683033	0.014194	NaN	0.000000	0.001562	0.001681	28.0829	0.094192	0.002017	46.7077	-79.39	-165.949	-0.055497	0.681605	-0.418649	-0.419951	0.014194	46.7077	-0.418877	-248015	-5.723221E-8	NaN
23	1.000000	0.692912	7.36527e+06	-39789.1	955.818	-29793.2	0.000000	0.000000	6.693038	0.025248	NaN	0.000000	0.001611	0.001687	28.0897	0.053999	0.001989	27.1482	-24.1458	13.9598	-0.049774	0.691526	-0.408644	-0.410030	0.025248	27.1482	-0.409341	-181564	-1.390599E-7	NaN
23	1.000000	0.702924	7.36527e+06	-39789.1	955.819	-29793.2	0.000000	0.000000	6.703049	0.001759	NaN	0.000000	0.001607	0.001676	28.1293	0.072072	0.001951	36.9385	-138.439	-167.027	-0.052109	0.701606	-0.398632	-0.399950	0.001759	36.9385	-0.398668	-127935	-1.374843E-8	NaN
23	1.000000	0.712887	7.36527e+06	-39789.1	955.818	-29793.2	0.000000	0.000000	6.713010	-0.029025	NaN	0.000000	0.001555	0.001657	28.1126	0.075872	0.001932	39.2714	70.6423	13.5694	-0.011280	0.711564	-0.388669	-0.389992	-0.029025	39.2714	-0.388115	-90405.6	3.210540E-7	NaN
23	1.000000	0.722901	7.36527e+06	-39789.1	955.818	-29793.2	0.000000	0.000000	6.723028	0.042199	NaN	0.000000	0.001537	0.001676	28.0836	0.098668	0.002063	47.8288	91.7731	-167.713	0.031438	0.721622	-0.378655	-0.379934	0.042199	47.8288	-0.379317	-67621.4	-6.240479E-7	NaN
23	1.000000	0.732903	7.36527e+06	-39789.1	955.818	-29793.2	0.000000	0.000000	6.733029	0.025045	NaN	0.000000	0.001563	0.001644	28.0901	0.056374	0.001908	29.5531	-73.8575	10.7604	0.003792	0.731590	-0.368653	-0.369966	0.025045	29.5531	-0.369288	-48515	-5.162328E-7	NaN
23	1.000000	0.742930	7.36527e+06	-39789.1	955.818	-29793.2	0.000000	0.000000	6.743054	-0.026100	NaN	0.000000	0.001570	0.001678	28.1301	0.083949	0.001969	42.637	-121.881	-169.472	0.022389	0.741581	-0.358626	-0.359975	-0.026100	42.637	-0.358166	-33522.1	7.785969E-7	NaN
23	1.000000	0.752908	7.36527e+06	-39789.1	955.818	-29793.2	0.000000	0.000000	6.753034	0.016157	NaN	0.000000	0.001551	0.001702	28.1116	0.098660	0.001972	50.0283	-5.190095	15.1959	-0.016519	0.751575	-0.348648	-0.349981	0.016157	50.0283	-0.348890	-24597.7	-6.568574E-7	NaN
23	1.000000	0.762905	7.36527e+06	-39789.1	955.819	-29793.2	0.000000	0.000000	6.763034	0.090392	NaN	0.000000	0.001518	0.001683	28.0815	0.026845	0.001802	14.8982	96.2481	-167.381	0.097269	0.761671	-0.338651	-0.339884	0.090392	14.8982	-0.343201	-20332.3	-4.445736E-6	NaN
23	1.000000	0.772919	7.36527e+06	-39789.1	955.818	-29793.2	0.000000	0.000000	6.773045	0.022518	NaN	0.000000	0.001579	0.001648	28.0872	0.044537	0.001980	22.4924	-116.916	12.8938	-0.099521	0.771539	-0.328637	-0.330017	0.022518	22.4924	-0.329388	-12778.5	-1.762151E-6	NaN
23	1.000000	0.782934	7.36527e+06	-39789.1	955.818	-29793.2	0.000000	0.000000	6.783057	-0.039202	NaN	0.000000	0.001544	0.001632	28.1276	0.053863	0.002127	25.3264	-173.798	-166.924	-0.005072	0.781658	-0.318622	-0.319898	-0.039202	25.3264	-0.317461	-8535.86	4.592673E-6	NaN
23	1.000000	0.792965	7.36527e+06	-39789.1	955.818	-29793.2	0.000000	0.000000	6.793090	0.005835	NaN	0.000000	0.001561	0.001711	28.1116	0.082324	0.001861	44.2337	156.329	15.5014	-0.023577	0.791616	-0.308591	-0.309940	0.005835	44.2337	-0.308690	-6333.75	-9.212236E-7	NaN
23	1.000000	0.802951	7.36527e+06	-39789.1	955.818	-29793.2	0.000000	0.000000	6.803076	-0.003478	NaN	0.000000	0.001568	0.001716	28.0822	0.042255	0.002060	20.5161	-66.2413	-166.95	-0.003055	0.801695	-0.298605	-0.299861	-0.003478	20.5161	-0.298477	-4466.43	7.787564E-7	NaN
23	1.000000	0.812958	7.36527e+06	-39789.1	955.818	-29793.2	0.000000	0.000000	6.813081	-0.056596	NaN	0.000000	0.001543	0.001706	28.0888	0.018730	0.001926	9.726569	-161.093	12.9849	-0.005700	0.811615	-0.288598	-0.289940	-0.056596	9.726569	-0.284234	-2733.65	2.070344E-5	NaN
23	1.000000	0.822945	7.36527e+06	-39789.1	955.819	-29793.2	0.000000	0.000000	6.823069	-0.038874	NaN	0.000000	0.001562	0.001663	28.1286	0.036072	0.002131	16.9283	177.949	-168.331	-0.029138	0.821674	-0.278611	-0.279882	-0.038874	16.9283	-0.276888	-2118.23	1.835212E-5	NaN
23	1.000000	0.832980	7.36527e+06	-39789.1	955.819	-29793.2	0.000000	0.000000	6.833105	0.014437	NaN	0.000000	0.001517	0.001662	28.1109	0.022330	0.002000	11.1668	179.897	12.0578	0.089915	0.831607	-0.268576	-0.269949	0.014437	11.1668	-0.269546	-1639.24	-8.807281E-6	NaN
23	1.000000	0.842975	7.36527e+06	-39789.1	955.819	-29793.2	0.000000	0.000000	6.843102	0.030281	NaN	0.000000	0.001531	0.001684	28.0812	0.059968	0.001929	31.0846	-179.413	-167.449	0.036540	0.841657	-0.258581	-0.259899	0.030281	31.0846	-0.259311	-1143.82	-2.647334E-5	NaN
23	1.000000	0.852953	7.36527e+06	-39789.1	955.818	-29793.2	0.000000	0.000000	6.853079	0.035422	NaN	0.000000	0.001576	0.001663	28.0876	0.135135	0.002031	66.5274	-23.2649	14.9195	0.077695	0.851572	-0.248603	-0.249984	0.035422	66.5274	-0.249002	-793.473	-4.464150E-5	NaN
23	1.000000	0.862973	7.36527e+06	-39789.1	955.818	-29793.2	0.000000	0.000000	6.863101	0.072975	NaN	0.000000	0.001536	0.001686	28.1276	0.099856	0.001956	51.0396	-50.4054	-165.509	0.083033	0.861624	-0.238583	-0.239932	0.072975	51.0396	-0.239656	-567.773	-0.000129	NaN
23	1.000000	0.872980	7.36527e+06	-39789.1	955.818	-29793.2	0.000000	0.000000	6.873106	0.022333	NaN	0.000000	0.001532	0.001678	28.1124	0.017755	0.002038	8.710023	-33.6828	11.1637	0.072856	0.871646	-0.228576	-0.229910	0.022333	8.710023	-0.230499	-407.748	-5.477202E-5	NaN
23	1.000000	0.882940	7.36527e+06	-39789.1	955.819	-29793.2	0.000000	0.000000	6.883065	-0.012993	NaN	0.000000	0.001485	0.001719	28.0807	0.111210	0.002043	54.4304	28.18	-163.113	0.006891	0.881683	-0.218616	-0.219873	-0.012993	54.4304	-0.218437	-262.221	4.955066E-5	NaN
23	1.000000	0.892966	7.36527e+06	-39789.1	955.818	-29793.2	0.000000	0.000000	6.893092	0.011137	NaN	0.000000	0.001504	0.001692	28.0889	0.036982	0.001986	18.6237	128.148	10.3349	0.006416	0.891625	-0.208589	-0.209931	0.011137	18.6237	-0.209038	-185.025	-6.019274E-5	NaN
23	1.000000	0.902991	7.36527e+06	-39789.1	955.818	-29793.2	0.000000	0.000000	6.903117	0.019680	NaN	0.000000	0.001456	0.001688	28.1288	0.061301	0.001961	31.2631	87.0294	-166.207	0.012177	0.901700	-0.198565	-0.199856	0.019680	31.2631	-0.199037	-127.018	-0.000155	NaN
23	1.000000	0.912997	7.36527e+06	-39789.1	955.818	-29793.2	0.000000	0.000000	6.913122	-0.006492	NaN	0.000000	0.001501	0.001694	28.1131	0.061706	0.002087	29.5621	166.142	12.6779	0.035210	0.911602	-0.188559	-0.189954	-0.006492	29.5621	-0.188394	-84.5602	7.677032E-5	NaN
23	1.000000	0.922988	7.36527e+06	-39789.1	955.818	-29793.2	0.000000	0.000000	6.923113	-0.003186	NaN	0.000000	0.001559	0.001720	28.0829	0.088829	0.001913	46.4454	-54.8059	-164.704	-0.000326	0.921682	-0.178568	-0.179874	-0.003186	46.4454	-0.178516	-57.5686	5.533819E-5	NaN
23	1.000000	0.932994	7.36527e+06	-39789.1	955.818	-29793.2	0.000000	0.000000	6.933122	0.057212	NaN	0.000000	0.001538	0.001718	28.0886	0.107394	0.001905	56.3854	-161.314	16.3161	-0.025690	0.931630	-0.168562	-0.169926	0.057212	56.3854	-0.169323	-39.9803	-0.001431	NaN
23	1.000000	0.943009	7.36527e+06	-39789.1	955.818	-29793.2	0.000000	0.000000	6.943133	-0.027302	NaN	0.000000	0.001496	0.001696	28.1289	0.039798	0.002014	19.7636	-63.3626	-165.458	-0.016885	0.941711	-0.158546	-0.159845	-0.027302	19.7636	-0.157510	-24.752	0.001103	NaN
23	1.000000	0.952980	7.36527e+06	-39789.1	955.817	-29793.2	0.000000	0.000000	6.953100	-0.103576	NaN	0.000000	0.001532	0.001687	28.1142	0.097205	0.001914	50.7738	120.12	14.9112	0.019891	0.951646	-0.148576	-0.149910	-0.103576	50.7738	-0.147046	-15.9924	0.006477	NaN
23	1.000000	0.962993	7.36527e+06	-39789.1	955.817	-29793.2	0.000000	0.000000	6.963118	0.004617	NaN	0.000000	0.001499	0.001705	28.083	0.063111	0.002021	31.223	-60.1052	-165.401	-0.079650	0.961716	-0.138563	-0.139840	0.004617	31.223	-0.138674	-11.1689	-0.000413	NaN
23	1.000000	0.972995	7.36527e+06	-39789.1	955.816	-29793.2	0.000000	0.000000	6.973117	-0.070659	NaN	0.000000	0.001521	0.001728	28.0884	0.031049	0.001973	15.7367	-11.9271	9.569089	-0.047406	0.971624	-0.128561	-0.129932	-0.070659	15.7367	-0.125194	-6.135194	0.011517	NaN
23	1.000000	0.983037	7.36527e+06	-39789.1	955.817	-29793.2	0.000000	0.000000	6.983160	-0.046895	NaN	0.000000	0.001541	0.001704	28.1295	0.047572	0.002053	23.175	166.686	-164.791	0.029850	0.981721	-0.118519	-0.119835	-0.046895	23.175	-0.117001	-4.199392	0.011167	NaN
23	1.000000	0.993061	7.36527e+06	-39789.1	955.816	-29793.2	0.000000	0.000000	6.993185	-0.010205	NaN	0.000000	0.001508	0.001659	28.1131	0.035631	0.001960	18.1772	55.7215	11.7624	0.042694	0.991696	-0.108495	-0.109860	-0.010205	18.1772	-0.108074	-2.735805	0.003730	NaN
23	1.000000	1.003032	7.36527e+06	-39789.1	955.817	-29793.2	0.000000	0.000000	7.003157	0.004459	NaN	0.000000	0.001544	0.001694	28.0817	0.039898	0.002063	19.34	-145.063	-166.726	0.047567	1.001707	-0.098524	-0.099849	0.004459	19.34	-0.098697	-1.709210	-0.002609	NaN
23	1.000000	1.013038	7.36527e+06	-39789.1	955.816	-29793.2	0.000000	0.000000	7.013163	-0.005169	NaN	0.000000	0.001517	0.001734	28.0884	0.094891	0.002021	46.941	78.2049	10.7158	0.048386	1.011631	-0.088518	-0.089925	-0.005169	46.941	-0.088435	-0.992944	0.005205	NaN
23	1.000000	1.023045	7.36527e+06	-39789.1	955.817	-29793.2	0.000000	0.000000	7.023170	-0.001623	NaN	0.000000	0.001462	0.001692	28.1282	0.056101	0.002031	27.6256	-100.97	-164.337	0.008435	1.021752	-0.078511	-0.079804	-0.001623	27.6256	-0.078467	-0.566438	0.002865	NaN
23	1.000000	1.033069	7.36527e+06	-39789.1	955.817	-29793.2	0.000000	0.000000	7.033195	0.010368	NaN	0.000000	0.001511	0.001717	28.1147	0.051484	0.001960	26.2729	111.607	12.9737	0.045558	1.031674	-0.068487	-0.069882	0.010368	26.2729	-0.068782	-0.316327	-0.032778	NaN
23	1.000000	1.043056	7.36527e+06	-39789.1	955.817	-29793.2	0.000000	0.000000	7.043180	-0.042095	NaN	0.000000	0.001482	0.001699	28.0822	0.015993	0.002066	7.739428	-67.6216	-165.481	-0.006998	1.041714	-0.058500	-0.059842	-0.042095	7.739428	-0.054420	-0.123788	0.340061	NaN
23	1.000000	1.053040	7.36527e+06	-39789.1	955.817	-29793.2	0.000000	0.000000	7.053169	0.095753	NaN	0.000000	0.001509	0.001708	28.0887	0.076558	0.002132	35.9149	166.048	15.1791	0.053918	1.051734	-0.048516	-0.049822	0.095753	35.9149	-0.050515	-0.094580	-1.012401	NaN
23	1.000000	1.063037	7.36527e+06	-39789.1	955.817	-29793.2	0.000000	0.000000	7.063164	0.024908	NaN	0.000000	0.001545	0.001662	28.128	0.055058	0.001955	28.1657	177.497	-166.373	0.057327	1.061758	-0.038518	-0.039798	0.024908	28.1657	-0.039182	-0.042711	-0.583178	NaN
23	1.000000	1.073048	7.36527e+06	-39789.1	955.816	-29793.2	0.000000	0.000000	7.073173	0.015446	NaN	0.000000	0.001558	0.001674	28.1128	0.100391	0.002064	48.6293	17.9614	15.2525	0.019331	1.071673	-0.028508	-0.029883	0.015446	48.6293	-0.028747	-0.021248	-0.726918	NaN
23	1.000000	1.083062	7.36527e+06	-39789.1	955.816	-29793.2	0.000000	0.000000	7.083187	0.004829	NaN	0.000000	0.001553	0.001703	28.0816	0.038631	0.001948	19.8348	162.658	-166.036	-0.061833	1.081753	-0.018494	-0.019803	0.004829	19.8348	-0.018677	-0.011621	-0.415518	NaN
23	1.000000	1.093055	7.36527e+06	-39789.1	955.816	-29793.2	0.000000	0.000000	7.093183	0.074989	NaN	0.000000	0.001582	0.001694	28.0877	0.109707	0.001915	57.2879	157.835	15.2003	0.086461	1.091721	-0.008501	-0.009835	0.074989	57.2879	-0.009483	-0.006091	-12.3114	NaN
23	1.000000	1.103052	7.36527e+06	-39789.1	955.817	-29793.2	0.000000	0.000000	7.103206	0.692015	NaN	0.000000	0.001512	0.001692	28.1268	1.034602	0.001906	542.936	16.3037	-164.493	0.196297	1.101772	0.001497	0.000216	0.692015	542.936	0.000541	0.000408	1695.1	24550.6
23	2.000000	1.112165	7.36527e+06	-39789.1	955.816	-29793.2	0.000000	0.000000	7.112637	8.445105	NaN	0.000000	0.001565	0.001657	28.1137	8.818727	0.001717	5136.75	10.6147	5.446826	7.865709	1.111538	0.010609	0.009982	8.445105	5136.75	0.009376	0.008496	994.035	50916.6
23	2.000000	1.114670	7.36527e+06	-39789.1	955.816	-29793.2	0.000000	0.000000	7.115266	11.4397	NaN	0.000000	0.001549	0.001691	28.082	11.6143	0.001776	6538.71	6.324384	-174.217	10.5576	1.114434	0.013115	0.012878	11.4397	6538.71	0.011802	0.011254	1016.49	56312.9
23	2.000000	1.117181	7.36527e+06	-39789.1	955.817	-29793.2	0.000000	0.000000	7.117915	14.8286	NaN	0.000000	0.001560	0.001673	28.0873	13.7528	0.001773	7755.69	7.605986	4.275029	14.2071	1.116854	0.015625	0.015298	14.8286	7755.69	0.014191	0.014221	1042.7	59418.6
23	2.000000	1.119631	7.36527e+06	-39789.1	955.817	-29793.2	0.000000	0.000000	7.120631	21.3009	NaN	0.000000	0.001582	0.001690	28.1275	15.7632	0.001658	9505.54	6.258066	-176.283	21.3195	1.119256	0.018075	0.017700	21.3009	9505.54	0.016394	0.017189	1239.2	66240.1
23	2.000000	1.122119	7.36527e+06	-39789.1	955.816	-29793.2	0.000000	0.000000	7.123240	24.2456	NaN	0.000000	0.001534	0.001673	28.1129	18.5924	0.001775	10474.6	5.082752	3.831646	22.5646	1.121742	0.020563	0.020186	24.2456	10474.6	0.018827	0.020732	1169.48	66464.8
23	2.000000	1.124633	7.36527e+06	-39789.1	955.817	-29793.2	0.000000	0.000000	7.125956	29.1491	NaN	0.000000	0.001584	0.001654	28.0809	20.8327	0.001774	11746.3	5.439682	-177.638	28.758	1.124284	0.023077	0.022728	29.1491	11746.3	0.021216	0.024489	1190.28	68578.4
23	2.000000	1.127126	7.36527e+06	-39789.1	955.817	-29793.2	0.000000	0.000000	7.128732	36.0358	NaN	0.000000	0.001525	0.001683	28.087	23.4219	0.001883	12440.1	7.866375	0.371748	34.8157	1.126771	0.025570	0.025215	36.0358	12440.1	0.023398	0.028165	1279.46	67724.1
23	2.000000	1.129619	7.36527e+06	-39789.1	955.817	-29793.2	0.000000	0.000000	7.131530	43.4709	NaN	0.000000	0.001515	0.001707	28.1279	25.5205	0.001752	14568.5	3.928312	-178.046	42.4863	1.129276	0.028063	0.027720	43.4709	14568.5	0.025825	0.032534	1336.19	73794.1
23	2.000000	1.132099	7.36527e+06	-39789.1	955.817	-29793.2	0.000000	0.000000	7.134236	48.9512	NaN	0.000000	0.001528	0.001712	28.1161	29.2612	0.001809	16178	6.287805	-0.866465	47.3041	1.131729	0.030543	0.030173	48.9512	16178	0.028274	0.037242	1314.39	76591.2
23	2.000000	1.134564	7.36527e+06	-39789.1	955.817	-29793.2	0.000000	0.000000	7.137035	57.105	NaN	0.000000	0.001583	0.001752	28.0836	31.5933	0.001834	17228.1	3.943827	-179.49	55.186	1.134361	0.033008	0.032805	57.105	17228.1	0.030522	0.041832	1365.1	76958.4
23	2.000000	1.137128	7.36527e+06	-39789.1	955.817	-29793.2	0.000000	0.000000	7.140074	68.6472	NaN	0.000000	0.001591	0.001706	28.0893	33.2256	0.001745	19043.9	7.055576	-1.768227	67.1436	1.136691	0.035572	0.035135	68.6472	19043.9	0.032868	0.046899	1463.74	80343.1
23	2.000000	1.139587	7.36527e+06	-39789.1	955.817	-29793.2	0.000000	0.000000	7.142835	76.001	NaN	0.000000	0.001512	0.001729	28.1286	36.4298	0.001831	19896.6	6.843222	178.541	74.8257	1.139176	0.038031	0.037620	76.001	19896.6	0.035166	0.052134	1457.8	79614.4
23	2.000000	1.142041	7.36527e+06	-39789.1	955.817	-29793.2	0.000000	0.000000	7.145664	85.1113	NaN	0.000000	0.001550	0.001736	28.1146	38.3363	0.001932	19844.7	5.941950	-1.712588	81.9381	1.141703	0.040485	0.040147	85.1113	19844.7	0.037269	0.057160	1488.99	75835.3
23	2.000000	1.144553	7.36527e+06	-39789.1	955.816	-29793.2	0.000000	0.000000	7.148534	93.8281	NaN	0.000000	0.001577	0.001736	28.0822	42.1525	0.001894	22255.2	8.176267	173.881	92.4015	1.144304	0.042997	0.042748	93.8281	22255.2	0.039835	0.063602	1475.24	80625.1
23	2.000000	1.147079	7.36527e+06	-39789.1	955.817	-29793.2	0.000000	0.000000	7.151584	106.577	NaN	0.000000	0.001550	0.001749	28.0873	43.4228	0.001837	23636.4	5.429458	-2.115182	103.659	1.146712	0.045523	0.045156	106.577	23636.4	0.042142	0.069680	1529.52	81808.9
23	2.000000	1.149551	7.36527e+06	-39789.1	955.817	-29793.2	0.000000	0.000000	7.154422	115.49	NaN	0.000000	0.001584	0.001769	28.1275	46.3324	0.001765	26254.5	6.002428	175.357	113.25	1.149287	0.047995	0.047731	115.49	26254.5	0.044696	0.076727	1505.21	86597.3
23	2.000000	1.152092	7.36527e+06	-39789.1	955.816	-29793.2	0.000000	0.000000	7.157213	121.551	NaN	0.000000	0.001552	0.001764	28.1159	47.8381	0.001757	27227.4	4.290889	-2.895985	120.978	1.151762	0.050536	0.050206	121.551	27227.4	0.047188	0.083921	1448.4	85870.7
23	2.000000	1.154485	7.36527e+06	-39789.1	955.817	-29793.2	0.000000	0.000000	7.160286	138.115	NaN	0.000000	0.001558	0.001769	28.084	49.5073	0.001886	26253.2	4.422770	177.527	131.981	1.154157	0.052929	0.052601	138.115	26253.2	0.048983	0.089296	1546.71	80267.3
23	2.000000	1.157040	7.36527e+06	-39789.1	955.816	-29793.2	0.000000	0.000000	7.163440	152.705	NaN	0.000000	0.001552	0.001722	28.0876	52.6793	0.001796	29324.1	5.530677	-3.695715	148.98	1.156641	0.055484	0.055085	152.705	29324.1	0.051578	0.097354	1568.55	85865.7
23	2.000000	1.159585	7.36527e+06	-39789.1	955.816	-29793.2	0.000000	0.000000	7.166105	155.614	NaN	0.000000	0.001550	0.001764	28.1288	54.6175	0.001723	31689.9	4.409197	175.318	156.308	1.159269	0.058029	0.057713	155.614	31689.9	0.054347	0.106320	1463.63	88794.7
23	2.000000	1.161992	7.36527e+06	-39789.1	955.817	-29793.2	0.000000	0.000000	7.169476	179.076	NaN	0.000000	0.001562	0.001767	28.1142	58.2953	0.001613	36141.2	4.345994	-5.891901	174.725	1.161716	0.060436	0.060160	179.076	36141.2	0.056720	0.114309	1566.6	97664.3
23	2.000000	1.164546	7.36527e+06	-39789.1	955.816	-29793.2	0.000000	0.000000	7.172626	193.595	NaN	0.000000	0.001549	0.001720	28.0818	61.0585	0.001761	34674.7	1.672454	177.161	193.094	1.164230	0.062990	0.062674	193.595	34674.7	0.058802	0.121549	1592.74	90867.9
23	2.000000	1.167046	7.36527e+06	-39789.1	955.816	-29793.2	0.000000	0.000000	7.175628	205.793	NaN	0.000000	0.001533	0.001722	28.0863	63.8401	0.001847	34563.8	6.236880	-7.410434	202.439	1.166665	0.065490	0.065109	205.793	34563.8	0.061025	0.129509	1589.02	87749.5
23	2.000000	1.169539	7.36527e+06	-39789.1	955.815	-29793.2	0.000000	0.000000	7.178791	222.089	NaN	0.000000	0.001568	0.001749	28.126	63.0672	0.001916	32914.6	1.182948	177.07	221.317	1.169224	0.067983	0.067668	222.089	32914.6	0.062923	0.136497	1627.07	81395.4
23	2.000000	1.172040	7.36527e+06	-39789.1	955.817	-29793.2	0.000000	0.000000	7.181952	238.169	NaN	0.000000	0.001530	0.001740	28.1153	66.3206	0.001758	37732.4	2.190756	-4.414827	235.338	1.171641	0.070484	0.070085	238.169	37732.4	0.065750	0.147230	1617.67	89844
23	2.000000	1.174557	7.36527e+06	-39789.1	955.816	-29793.2	0.000000	0.000000	7.185089	253.242	NaN	0.000000	0.001544	0.001703	28.0812	71.9006	0.001819	39533.1	7.898010	170.275	252.836	1.174349	0.073001	0.072793	253.242	39533.1	0.068197	0.156830	1614.76	91205.3
23	2.000000	1.176943	7.36527e+06	-39789.1	955.817	-29793.2	0.000000	0.000000	7.188268	272.549	NaN	0.000000	0.001524	0.001749	28.087	71.6592	0.001766	40588.6	2.306583	-4.683035	265.007	1.176662	0.075387	0.075106	272.549	40588.6	0.070351	0.165517	1646.65	91149.7
23	2.000000	1.179444	7.36527e+06	-39789.1	955.816	-29793.2	0.000000	0.000000	7.191298	285.439	NaN	0.000000	0.001537	0.001707	28.127	73.2909	0.001790	40942.1	0.529917	176.211	281.926	1.179264	0.077888	0.077708	285.439	40942.1	0.072659	0.175071	1630.41	89399.7
23	2.000000	1.181948	7.36527e+06	-39789.1	955.817	-29793.2	0.000000	0.000000	7.195069	316.246	NaN	0.000000	0.001554	0.001798	28.1144	76.978	0.001858	41440.8	5.889498	-7.885359	310.15	1.181465	0.080392	0.079909	316.246	41440.8	0.074669	0.183597	1722.5	88362.5
23	2.000000	1.184499	7.36527e+06	-39789.1	955.817	-29793.2	0.000000	0.000000	7.198056	326.86	NaN	0.000000	0.001559	0.001768	28.0808	78.1472	0.001822	42899.5	3.755244	173.447	324.345	1.184297	0.082943	0.082741	326.86	42899.5	0.077229	0.194730	1678.53	88819.8
23	2.000000	1.186986	7.36527e+06	-39789.1	955.817	-29793.2	0.000000	0.000000	7.201442	348.732	NaN	0.000000	0.001604	0.001766	28.0854	79.1313	0.001688	46890.7	7.207366	-10.4074	342.545	1.186624	0.085430	0.085068	348.732	46890.7	0.079852	0.206458	1689.12	94285.4
23	2.000000	1.189521	7.36527e+06	-39789.1	955.817	-29793.2	0.000000	0.000000	7.204578	363.365	NaN	0.000000	0.001607	0.001739	28.1259	81.6585	0.001765	46261.9	4.950653	171.83	361.333	1.189162	0.087965	0.087606	363.365	46261.9	0.082074	0.216643	1677.25	90808
23	2.000000	1.192092	7.36527e+06	-39789.1	955.817	-29793.2	0.000000	0.000000	7.207788	378.901	NaN	0.000000	0.001531	0.001711	28.1153	84.5563	0.001710	49442	3.516362	-7.461039	379.344	1.191691	0.090536	0.090135	378.901	49442	0.084788	0.229393	1651.76	94314.7
23	2.000000	1.194471	7.36527e+06	-39789.1	955.817	-29793.2	0.000000	0.000000	7.211236	404.918	NaN	0.000000	0.001557	0.001698	28.0836	88.7388	0.001825	48613.4	3.619598	172.502	401.941	1.194215	0.092915	0.092659	404.918	48613.4	0.086668	0.238422	1698.33	90961.1
23	2.000000	1.196982	7.36527e+06	-39789.1	955.818	-29793.2	0.000000	0.000000	7.214265	417.539	NaN	0.000000	0.001594	0.001707	28.0879	90.7052	0.001849	49066.9	3.569399	-7.455730	412.15	1.196678	0.095426	0.095122	417.539	49066.9	0.089043	0.250067	1669.71	89646.6
23	2.000000	1.199452	7.36527e+06	-39789.1	955.817	-29793.2	0.000000	0.000000	7.217772	442.749	NaN	0.000000	0.001586	0.001705	28.1277	92.9501	0.001796	51761.5	5.019190	170.313	439.077	1.199129	0.097896	0.097573	442.749	51761.5	0.091481	0.262286	1688.04	92340.5
23	2.000000	1.201956	7.36527e+06	-39789.1	955.818	-29793.2	0.000000	0.000000	7.220812	455.815	NaN	0.000000	0.001556	0.001737	28.1167	95.301	0.001826	52197.4	1.268980	-6.067538	449.633	1.201662	0.100400	0.100106	455.815	52197.4	0.093850	0.274421	1661	91036
23	2.000000	1.204467	7.36527e+06	-39789.1	955.818	-29793.2	0.000000	0.000000	7.224354	480.887	NaN	0.000000	0.001556	0.001765	28.0832	98.4861	0.001741	56554.3	5.256060	170.325	477.167	1.204195	0.102911	0.102639	480.887	56554.3	0.096534	0.288477	1666.98	96201.8
23	2.000000	1.206984	7.36527e+06	-39789.1	955.817	-29793.2	0.000000	0.000000	7.227991	508.148	NaN	0.000000	0.001544	0.001731	28.0855	99.8903	0.001848	54064.1	5.969923	-9.585449	502.685	1.206589	0.105428	0.105033	508.148	54064.1	0.098378	0.298331	1703.31	90434.3
23	2.000000	1.209435	7.36527e+06	-39789.1	955.817	-29793.2	0.000000	0.000000	7.231569	535.566	NaN	0.000000	0.001528	0.001761	28.1271	103.064	0.001832	56253.4	5.666909	169.984	532.887	1.209059	0.107879	0.107503	535.566	56253.4	0.100739	0.311164	1721.17	92135.5
23	2.000000	1.210569	7.36527e+06	-39789.1	955.817	-29793.2	0.000000	0.000000	7.232704	535.582	NaN	0.000000	0.001569	0.001742	28.0838	104.17	0.001826	57050.7	1.004937	174.338	535.593	1.210316	0.109013	0.108760	535.582	57050.7	0.101973	0.317972	1684.37	92435.8