File: remote_trans/data/nanoindenter/0828-1/data/Data_2025-08-06,11h17m57s/2025-07-22_16-23-58_1_535.txt
2025-07-22, 16:23:58, 1
Index	Phase	Displacement	Time	Pos X	Pos Y	Pos Z	Rot A	Rot B	Piezo Z	Force A	Force B	Gripper	Voltage A	Voltage B	Temperature	Amplitude force	Amplitude pos	Stiffness	Phase shift	Phase excitation	Force A raw	Displacement raw	HMax	HMax raw	Real Force	Real Stiffness	Contact Depth	Area	Hardness	Reduced Mod.
[#]	[#]	[um]	[s]	[um]	[um]	[um]	[m°]	[m°]	[um]	[uN]	[uN]	[V]	[V]	[V]	[°C]	[uN]	[um]	[N/m]	[°]	[°]	[uN]	[um]	[um]	[um]	[uN]	[N/m]	[um]	[um^2]	[MPa]	[MPa]
535	1.000000	0.002588	7.37028e+06	-50339.1	1005.82	-29756	0.000000	0.000000	6.002788	-0.082787	NaN	0.000000	0.001648	0.001667	28.082	0.039161	0.001064	36.7929	-5.049319	-170.647	-0.070340	0.001372	-1.155504	-1.156721	-0.082787	36.7929	-1.153817	-2.642337E+15	3.133111E-17	NaN
535	1.000000	0.012653	7.37028e+06	-50339.1	1005.82	-29756	0.000000	0.000000	6.012856	-0.016842	NaN	0.000000	0.001693	0.001704	28.0821	0.050973	0.001293	39.429	33.5809	10.1175	-0.031861	0.011195	-1.145439	-1.146897	-0.016842	39.429	-1.145119	-2.020104E+15	8.337361E-18	NaN
535	1.000000	0.022554	7.37028e+06	-50339.1	1005.82	-29756	0.000000	0.000000	6.022760	0.087595	NaN	0.000000	0.001696	0.001712	28.0818	0.124015	0.001675	74.0329	35.9372	-162.653	0.135937	0.021252	-1.135539	-1.136840	0.087595	74.0329	-1.136426	-1.544584E+15	-5.671084E-17	NaN
535	1.000000	0.032562	7.37028e+06	-50339.1	1005.82	-29756	0.000000	0.000000	6.032761	-0.080667	NaN	0.000000	0.001693	0.001703	28.082	0.085711	0.001858	46.142	-31.5281	17.3722	-0.070572	0.031196	-1.125531	-1.126896	-0.080667	46.142	-1.124220	-1.059456E+15	7.613986E-17	NaN
535	1.000000	0.042527	7.37028e+06	-50339.1	1005.82	-29756	0.000000	0.000000	6.042732	0.047205	NaN	0.000000	0.001699	0.001702	28.0819	0.055715	0.001852	30.0911	-48.3262	-162.605	0.064902	0.041249	-1.115566	-1.116844	0.047205	30.0911	-1.116742	-8.409368E+14	-5.613418E-17	NaN
535	1.000000	0.052588	7.37028e+06	-50339.1	1005.82	-29756	0.000000	0.000000	6.052790	-0.015898	NaN	0.000000	0.001687	0.001748	28.0822	0.024175	0.001840	13.1418	-27.7729	19.7645	0.044851	0.051168	-1.105505	-1.106924	-0.015898	13.1418	-1.104598	-5.778040E+14	2.751437E-17	NaN
535	1.000000	0.062556	7.37028e+06	-50339.1	1005.82	-29756	0.000000	0.000000	6.062759	-0.010071	NaN	0.000000	0.001665	0.001801	28.0819	0.057183	0.002140	26.7188	86.3363	-165.876	0.084083	0.061223	-1.095536	-1.096870	-0.010071	26.7188	-1.095254	-4.328635E+14	2.326512E-17	NaN
535	1.000000	0.072581	7.37028e+06	-50339.1	1005.82	-29756	0.000000	0.000000	6.072784	-0.008723	NaN	0.000000	0.001696	0.001763	28.0807	0.053226	0.001906	27.9316	-170.174	16.7816	-0.060843	0.071236	-1.085511	-1.086857	-0.008723	27.9316	-1.085277	-3.179726E+14	2.743398E-17	NaN
535	1.000000	0.082534	7.37028e+06	-50339.1	1005.82	-29756	0.000000	0.000000	6.082734	-0.084914	NaN	0.000000	0.001708	0.001759	28.0805	0.068761	0.002000	34.378	-178.294	-162.965	-0.074767	0.081237	-1.075558	-1.076855	-0.084914	34.378	-1.073706	-2.223188E+14	3.819475E-16	NaN
535	1.000000	0.092577	7.37028e+06	-50339.1	1005.82	-29756	0.000000	0.000000	6.092779	-0.025945	NaN	0.000000	0.001658	0.001746	28.0803	0.013725	0.002088	6.574814	-112.111	16.0019	0.041348	0.091198	-1.065515	-1.066895	-0.025945	6.574814	-1.062556	-1.574583E+14	1.647740E-16	NaN
535	1.000000	0.102565	7.37028e+06	-50339.1	1005.82	-29756	0.000000	0.000000	6.102766	-0.039609	NaN	0.000000	0.001703	0.001771	28.0804	0.040552	0.002077	19.5233	-99.9324	-166.269	-0.063353	0.101264	-1.055528	-1.056829	-0.039609	19.5233	-1.054006	-1.208541E+14	3.277381E-16	NaN
535	1.000000	0.112549	7.37028e+06	-50339.1	1005.82	-29756	0.000000	0.000000	6.112750	-0.063265	NaN	0.000000	0.001692	0.001752	28.0806	0.051836	0.002060	25.1667	-125.951	15.3236	-0.059614	0.111146	-1.045543	-1.046946	-0.063265	25.1667	-1.043658	-8.772968E+13	7.211322E-16	NaN
535	1.000000	0.122571	7.37028e+06	-50339.1	1005.82	-29756	0.000000	0.000000	6.122771	-0.078364	NaN	0.000000	0.001704	0.001748	28.0803	0.134773	0.002014	66.9161	-83.1211	-161.462	-0.027502	0.121301	-1.035522	-1.036791	-0.078364	66.9161	-1.034643	-6.636423E+13	1.180817E-15	NaN
535	1.000000	0.132568	7.37028e+06	-50339.1	1005.82	-29756	0.000000	0.000000	6.132769	-0.058303	NaN	0.000000	0.001682	0.001772	28.0803	0.018928	0.002016	9.390927	139.296	16.7879	-0.025727	0.131244	-1.025525	-1.026848	-0.058303	9.390927	-1.020868	-4.331455E+13	1.346044E-15	NaN
535	1.000000	0.142571	7.37028e+06	-50339.1	1005.82	-29756	0.000000	0.000000	6.142771	-0.078107	NaN	0.000000	0.001661	0.001739	28.0804	0.027509	0.001888	14.5738	144.157	-164.988	-0.057381	0.141316	-1.015522	-1.016777	-0.078107	14.5738	-1.011502	-3.240401E+13	2.410397E-15	NaN
535	1.000000	0.152566	7.37028e+06	-50339.1	1005.82	-29756	0.000000	0.000000	6.152768	-0.025511	NaN	0.000000	0.001596	0.001764	28.0804	0.194468	0.001988	97.8066	-3.034991	14.3315	-0.077677	0.151267	-1.005526	-1.006826	-0.025511	97.8066	-1.005331	-2.676280E+13	9.532271E-16	NaN
535	1.000000	0.162582	7.37028e+06	-50339.1	1005.82	-29756	0.000000	0.000000	6.162785	0.000192	NaN	0.000000	0.001620	0.001765	28.0805	0.044758	0.002007	22.303	98.4564	-165.503	-0.014453	0.161337	-0.995510	-0.996755	0.000192	22.303	-0.995517	-1.974264E+13	-9.737695E-18	NaN
535	1.000000	0.172606	7.37028e+06	-50339.1	1005.82	-29756	0.000000	0.000000	6.172811	0.024829	NaN	0.000000	0.001608	0.001760	28.0805	0.066580	0.002079	32.0238	-169.723	16.3699	-0.011906	0.171251	-0.985486	-0.986841	0.024829	32.0238	-0.986068	-1.472808E+13	-1.685856E-15	NaN
535	1.000000	0.182586	7.37028e+06	-50339.1	1005.82	-29756	0.000000	0.000000	6.182789	-0.004565	NaN	0.000000	0.001635	0.001739	28.0807	0.087203	0.002086	41.8046	37.2606	-162.372	-0.046204	0.181287	-0.975507	-0.976806	-0.004565	41.8046	-0.975425	-1.058686E+13	4.311700E-16	NaN
535	1.000000	0.192607	7.37028e+06	-50339.1	1005.82	-29756	0.000000	0.000000	6.192809	-0.039110	NaN	0.000000	0.001650	0.001774	28.0808	0.082013	0.002003	40.941	109.661	13.9164	0.014864	0.191241	-0.965485	-0.966851	-0.039110	40.941	-0.964768	-7.605916E+12	5.142059E-15	NaN
535	1.000000	0.202624	7.37028e+06	-50339.1	1005.82	-29756	0.000000	0.000000	6.202824	-0.079310	NaN	0.000000	0.001665	0.001767	28.0814	0.011031	0.001923	5.737522	-166.132	-161.267	-0.056637	0.201285	-0.955469	-0.956807	-0.079310	5.737522	-0.945101	-4.130046E+12	1.920313E-14	NaN
535	1.000000	0.212617	7.37028e+06	-50339.1	1005.82	-29756	0.000000	0.000000	6.212822	0.032967	NaN	0.000000	0.001603	0.001767	28.0821	0.071325	0.002072	34.4276	6.137325	13.5243	0.035929	0.211279	-0.945475	-0.946813	0.032967	34.4276	-0.946193	-4.272498E+12	-7.716029E-15	NaN
535	1.000000	0.222608	7.37028e+06	-50339.1	1005.82	-29756	0.000000	0.000000	6.222808	-0.068267	NaN	0.000000	0.001651	0.001746	28.0819	0.096450	0.002117	45.5519	154.112	-166.671	-0.057988	0.221303	-0.935484	-0.936789	-0.068267	45.5519	-0.934360	-2.958294E+12	2.307663E-14	NaN
535	1.000000	0.232630	7.37028e+06	-50339.1	1005.82	-29756	0.000000	0.000000	6.232829	-0.100914	NaN	0.000000	0.001634	0.001775	28.0817	0.059749	0.002072	28.8359	78.1703	17.4517	-0.118678	0.231235	-0.925462	-0.926858	-0.100914	28.8359	-0.922837	-2.067812E+12	4.880219E-14	NaN
535	1.000000	0.242604	7.37028e+06	-50339.1	1005.82	-29756	0.000000	0.000000	6.242804	-0.072848	NaN	0.000000	0.001666	0.001768	28.0816	0.072736	0.001978	36.7733	-133.532	-162.949	-0.053541	0.241284	-0.915488	-0.916809	-0.072848	36.7733	-0.914003	-1.571168E+12	4.636561E-14	NaN
535	1.000000	0.252640	7.37028e+06	-50339.1	1005.82	-29756	0.000000	0.000000	6.252840	-0.081940	NaN	0.000000	0.001636	0.001755	28.082	0.057795	0.001895	30.499	-21.5833	15.1608	-0.090819	0.251266	-0.905452	-0.906826	-0.081940	30.499	-0.903437	-1.131127E+12	7.244141E-14	NaN
535	1.000000	0.262658	7.37028e+06	-50339.1	1005.82	-29756	0.000000	0.000000	6.262860	-0.035857	NaN	0.000000	0.001640	0.001747	28.0822	0.133638	0.002085	64.1067	-9.513274	-165.697	-0.019691	0.261299	-0.895434	-0.896793	-0.035857	64.1067	-0.895015	-8.703610E+11	4.119763E-14	NaN
535	1.000000	0.272685	7.37028e+06	-50339.1	1005.82	-29756	0.000000	0.000000	6.272884	-0.090300	NaN	0.000000	0.001647	0.001738	28.082	0.050404	0.001986	25.3735	-147.743	14.4222	-0.118308	0.271281	-0.885408	-0.886811	-0.090300	25.3735	-0.882739	-5.939395E+11	1.520353E-13	NaN
535	1.000000	0.282623	7.37028e+06	-50339.1	1005.82	-29756	0.000000	0.000000	6.282826	-0.010726	NaN	0.000000	0.001642	0.001734	28.0822	0.068241	0.001972	34.6067	118.678	-163.134	0.051624	0.281332	-0.875469	-0.876760	-0.010726	34.6067	-0.875236	-4.701984E+11	2.281222E-14	NaN
535	1.000000	0.292650	7.37028e+06	-50339.1	1005.82	-29756	0.000000	0.000000	6.292852	-0.041824	NaN	0.000000	0.001664	0.001751	28.0817	0.022264	0.001907	11.675	30.1434	15.4685	-0.116190	0.291279	-0.865442	-0.866814	-0.041824	11.675	-0.862755	-3.187227E+11	1.312223E-13	NaN
535	1.000000	0.302660	7.37028e+06	-50339.1	1005.82	-29756	0.000000	0.000000	6.302862	-0.022316	NaN	0.000000	0.001641	0.001701	28.0819	0.026353	0.002035	12.9474	101.256	-168.153	0.024384	0.301349	-0.855433	-0.856743	-0.022316	12.9474	-0.854140	-2.436641E+11	9.158350E-14	NaN
535	1.000000	0.312660	7.37028e+06	-50339.1	1005.82	-29756	0.000000	0.000000	6.312861	-0.050022	NaN	0.000000	0.001655	0.001741	28.0817	0.123545	0.001950	63.3721	-81.7661	18.1408	-0.075168	0.311342	-0.845432	-0.846750	-0.050022	63.3721	-0.844840	-1.823292E+11	2.743494E-13	NaN
535	1.000000	0.322666	7.37028e+06	-50339.1	1005.82	-29756	0.000000	0.000000	6.322868	-0.036169	NaN	0.000000	0.001706	0.001701	28.0819	0.094000	0.001906	49.319	-84.1636	-164.122	-0.014711	0.321350	-0.835426	-0.836742	-0.036169	49.319	-0.834876	-1.336201E+11	2.706840E-13	NaN
535	1.000000	0.332645	7.37028e+06	-50339.1	1005.82	-29756	0.000000	0.000000	6.332848	-0.014776	NaN	0.000000	0.001680	0.001739	28.0817	0.032212	0.002072	15.5461	-150.497	15.7142	-0.037787	0.331313	-0.825447	-0.826779	-0.014776	15.5461	-0.824734	-9.736463E+10	1.517633E-13	NaN
535	1.000000	0.342692	7.37028e+06	-50339.1	1005.82	-29756	0.000000	0.000000	6.342893	-0.048614	NaN	0.000000	0.001690	0.001748	28.0802	0.106158	0.002050	51.776	43.429	-164.321	-0.131848	0.341370	-0.815401	-0.816723	-0.048614	51.776	-0.814697	-7.116801E+10	6.830893E-13	NaN
535	1.000000	0.352680	7.37028e+06	-50339.1	1005.82	-29756	0.000000	0.000000	6.352880	-0.082525	NaN	0.000000	0.001661	0.001753	28.0802	0.123894	0.002033	60.9509	129.035	16.7061	-0.078539	0.351315	-0.805412	-0.806777	-0.082525	60.9509	-0.804397	-5.158695E+10	1.599722E-12	NaN
535	1.000000	0.362667	7.37028e+06	-50339.1	1005.82	-29756	0.000000	0.000000	6.362869	-0.024359	NaN	0.000000	0.001665	0.001748	28.0802	0.061814	0.001933	31.9749	-139.176	-164.791	0.005855	0.361385	-0.795425	-0.796707	-0.024359	31.9749	-0.794854	-3.828232E+10	6.362928E-13	NaN
535	1.000000	0.372703	7.37028e+06	-50339.1	1005.82	-29756	0.000000	0.000000	6.372904	-0.059885	NaN	0.000000	0.001669	0.001739	28.0803	0.017899	0.001972	9.078549	60.1663	11.4416	-0.040677	0.371241	-0.785389	-0.786851	-0.059885	9.078549	-0.780442	-2.439127E+10	2.455163E-12	NaN
535	1.000000	0.382665	7.37028e+06	-50339.1	1005.82	-29756	0.000000	0.000000	6.382867	-0.026574	NaN	0.000000	0.001726	0.001737	28.0802	0.050967	0.001988	25.6423	25.7816	-167.052	-0.080196	0.381386	-0.775427	-0.776706	-0.026574	25.6423	-0.774650	-2.034810E+10	1.305958E-12	NaN
535	1.000000	0.392695	7.37028e+06	-50339.1	1005.82	-29756	0.000000	0.000000	6.392898	-0.000676	NaN	0.000000	0.001744	0.001754	28.0807	0.030729	0.002018	15.2292	22.7633	12.943	0.044202	0.391295	-0.765397	-0.766797	-0.000676	15.2292	-0.765364	-1.521480E+10	4.445382E-14	NaN
535	1.000000	0.402718	7.37028e+06	-50339.1	1005.82	-29756	0.000000	0.000000	6.402918	-0.083489	NaN	0.000000	0.001721	0.001710	28.0805	0.098604	0.001994	49.4553	-108.488	-165.047	0.026745	0.401385	-0.755375	-0.756708	-0.083489	49.4553	-0.754108	-1.069395E+10	7.807122E-12	NaN
535	1.000000	0.412710	7.37028e+06	-50339.1	1005.82	-29756	0.000000	0.000000	6.412911	-0.051083	NaN	0.000000	0.001695	0.001706	28.0806	0.038180	0.002087	18.2928	-155.242	11.7669	-0.127553	0.411376	-0.745382	-0.746717	-0.051083	18.2928	-0.743288	-7.617907E+9	6.705670E-12	NaN
535	1.000000	0.422703	7.37028e+06	-50339.1	1005.82	-29756	0.000000	0.000000	6.422904	-0.045801	NaN	0.000000	0.001730	0.001742	28.0806	0.077554	0.002114	36.6868	-161.879	-167.361	-0.057890	0.421415	-0.735390	-0.736678	-0.045801	36.6868	-0.734453	-5.774226E+9	7.931985E-12	NaN
535	1.000000	0.432691	7.37028e+06	-50339.1	1005.82	-29756	0.000000	0.000000	6.432894	-0.023167	NaN	0.000000	0.001691	0.001756	28.0808	0.070783	0.002115	33.4611	146.909	16.3529	-0.009185	0.431308	-0.725401	-0.726784	-0.023167	33.4611	-0.724882	-4.276005E+9	5.417986E-12	NaN
535	1.000000	0.442710	7.37028e+06	-50339.1	1005.82	-29756	0.000000	0.000000	6.442914	0.011305	NaN	0.000000	0.001713	0.001749	28.0806	0.054934	0.001836	29.9232	86.3975	-164.423	-0.013899	0.441429	-0.715382	-0.716663	0.011305	29.9232	-0.715665	-3.201470E+9	-3.531131E-12	NaN
535	1.000000	0.452735	7.37028e+06	-50339.1	1005.82	-29756	0.000000	0.000000	6.452937	-0.019072	NaN	0.000000	0.001729	0.001746	28.0807	0.122849	0.001989	61.7625	135.761	15.6238	-0.064408	0.451342	-0.705358	-0.706750	-0.019072	61.7625	-0.705126	-2.298923E+9	8.296267E-12	NaN
535	1.000000	0.462713	7.37028e+06	-50339.1	1005.82	-29756	0.000000	0.000000	6.462912	-0.101307	NaN	0.000000	0.001738	0.001771	28.0809	0.015718	0.002097	7.494051	3.316019	-163.287	-0.083344	0.461398	-0.695380	-0.696695	-0.101307	7.494051	-0.685241	-1.229900E+9	8.237044E-11	NaN
535	1.000000	0.472719	7.37028e+06	-50339.1	1005.82	-29756	0.000000	0.000000	6.472920	-0.055093	NaN	0.000000	0.001750	0.001761	28.0807	0.019068	0.001961	9.722293	-95.415	16.781	-0.032262	0.471388	-0.685374	-0.686704	-0.055093	9.722293	-0.681124	-1.080371E+9	5.099412E-11	NaN
535	1.000000	0.482727	7.37028e+06	-50339.1	1005.82	-29756	0.000000	0.000000	6.482932	0.043833	NaN	0.000000	0.001737	0.001767	28.0818	0.073957	0.001965	37.6285	-97.4485	-166.896	0.064922	0.481395	-0.675366	-0.676698	0.043833	37.6285	-0.676239	-9.263332E+8	-4.731858E-11	NaN
535	1.000000	0.492722	7.37028e+06	-50339.1	1005.82	-29756	0.000000	0.000000	6.492927	0.041331	NaN	0.000000	0.001748	0.001761	28.0821	0.027026	0.001894	14.2683	-21.9422	16.868	-0.093808	0.491335	-0.665370	-0.666757	0.041331	14.2683	-0.667543	-7.042928E+8	-5.868372E-11	NaN
535	1.000000	0.502743	7.37028e+06	-50339.1	1005.82	-29756	0.000000	0.000000	6.502943	-0.096830	NaN	0.000000	0.001712	0.001774	28.082	0.073214	0.002008	36.4658	-133.56	-165.46	-0.041727	0.501397	-0.655349	-0.656695	-0.096830	36.4658	-0.653357	-4.502541E+8	2.150562E-10	NaN
535	1.000000	0.512729	7.37028e+06	-50339.1	1005.82	-29756	0.000000	0.000000	6.512929	-0.077626	NaN	0.000000	0.001740	0.001750	28.0818	0.086442	0.002034	42.5042	-47.108	13.1093	-0.082688	0.511415	-0.645363	-0.646678	-0.077626	42.5042	-0.643993	-3.350180E+8	2.317069E-10	NaN
535	1.000000	0.522730	7.37028e+06	-50339.1	1005.82	-29756	0.000000	0.000000	6.522933	-0.016290	NaN	0.000000	0.001718	0.001755	28.0815	0.099957	0.001944	51.431	-26.5879	-168.017	0.052274	0.521444	-0.635362	-0.636649	-0.016290	51.431	-0.635124	-2.531505E+8	6.434869E-11	NaN
535	1.000000	0.532735	7.37028e+06	-50339.1	1005.82	-29756	0.000000	0.000000	6.532935	-0.067511	NaN	0.000000	0.001736	0.001760	28.0819	0.156762	0.002080	75.3496	-59.5905	13.7831	-0.082976	0.531404	-0.625358	-0.626688	-0.067511	75.3496	-0.624686	-1.819804E+8	3.709817E-10	NaN
535	1.000000	0.542763	7.37028e+06	-50339.1	1005.82	-29756	0.000000	0.000000	6.542965	-0.027932	NaN	0.000000	0.001729	0.001786	28.0817	0.028542	0.002007	14.2206	16.4071	-164.206	0.017503	0.541399	-0.615329	-0.616694	-0.027932	14.2206	-0.613856	-1.291680E+8	2.162424E-10	NaN
535	1.000000	0.552759	7.37028e+06	-50339.1	1005.82	-29756	0.000000	0.000000	6.552959	-0.073941	NaN	0.000000	0.001732	0.001749	28.0819	0.048449	0.001900	25.501	79.2036	15.9022	-0.010154	0.551392	-0.605333	-0.606700	-0.073941	25.501	-0.603158	-9.203500E+7	8.033961E-10	NaN
535	1.000000	0.562775	7.37028e+06	-50339.1	1005.82	-29756	0.000000	0.000000	6.562977	-0.006489	NaN	0.000000	0.001746	0.001753	28.0817	0.039422	0.002127	18.5355	-155.003	-163.24	0.094128	0.561474	-0.595318	-0.596619	-0.006489	18.5355	-0.595055	-7.117751E+7	9.116594E-11	NaN
535	1.000000	0.572727	7.37028e+06	-50339.1	1005.82	-29756	0.000000	0.000000	6.572930	-0.008252	NaN	0.000000	0.001742	0.001730	28.082	0.088567	0.001827	48.469	102.476	14.1752	0.016981	0.571419	-0.585365	-0.586673	-0.008252	48.469	-0.585237	-5.211791E+7	1.583423E-10	NaN
535	1.000000	0.582743	7.37028e+06	-50339.1	1005.82	-29756	0.000000	0.000000	6.582944	-0.063650	NaN	0.000000	0.001742	0.001751	28.0816	0.008377	0.001995	4.197980	-136.067	-166.087	-0.066451	0.581467	-0.575349	-0.576626	-0.063650	4.197980	-0.563977	-2.650846E+7	2.401137E-9	NaN
535	1.000000	0.592776	7.37028e+06	-50339.1	1005.82	-29756	0.000000	0.000000	6.592977	-0.046075	NaN	0.000000	0.001721	0.001747	28.0817	0.069289	0.002026	34.2041	117.974	16.9156	-0.008023	0.591387	-0.565317	-0.566706	-0.046075	34.2041	-0.564307	-2.678785E+7	1.719991E-9	NaN
535	1.000000	0.602760	7.37029e+06	-50339.1	1005.82	-29756	0.000000	0.000000	6.602962	-0.049410	NaN	0.000000	0.001720	0.001721	28.0816	0.098838	0.001988	49.7056	170.299	-164.43	-0.036728	0.601468	-0.555332	-0.556625	-0.049410	49.7056	-0.554586	-1.965450E+7	2.513907E-9	NaN
535	1.000000	0.612763	7.37029e+06	-50339.1	1005.82	-29756	0.000000	0.000000	6.612963	-0.081130	NaN	0.000000	0.001749	0.001741	28.0812	0.089457	0.002026	44.1558	15.1107	14.9281	0.018140	0.611423	-0.545329	-0.546669	-0.081130	44.1558	-0.543951	-1.400043E+7	5.794855E-9	NaN
535	1.000000	0.622769	7.37029e+06	-50339.1	1005.82	-29756	0.000000	0.000000	6.622976	0.075420	NaN	0.000000	0.001742	0.001741	28.0805	0.013394	0.002084	6.427783	30.4183	-165.208	0.070593	0.621536	-0.535323	-0.536556	0.075420	6.427783	-0.544123	-1.407748E+7	-5.357509E-9	NaN
535	1.000000	0.632783	7.37029e+06	-50339.1	1005.82	-29756	0.000000	0.000000	6.632986	0.018287	NaN	0.000000	0.001748	0.001796	28.0808	0.112363	0.002058	54.6099	4.904330	16.011	-0.003580	0.631407	-0.525310	-0.526685	0.018287	54.6099	-0.525561	-7.7787e+06	-2.350898E-9	NaN
535	1.000000	0.642790	7.37029e+06	-50339.1	1005.82	-29756	0.000000	0.000000	6.642994	0.009518	NaN	0.000000	0.001734	0.001796	28.0809	0.030745	0.002016	15.2517	124.697	-162.283	-0.037430	0.641435	-0.515302	-0.516657	0.009518	15.2517	-0.515770	-5.68528e+06	-1.674078E-9	NaN
535	1.000000	0.652777	7.37029e+06	-50339.1	1005.82	-29756	0.000000	0.000000	6.652977	-0.095676	NaN	0.000000	0.001728	0.001772	28.081	0.081083	0.002040	39.7387	131.571	16.0293	-0.151050	0.651452	-0.505315	-0.506640	-0.095676	39.7387	-0.503509	-3.83672e+06	2.493696E-8	NaN
535	1.000000	0.662812	7.37029e+06	-50339.1	1005.82	-29756	0.000000	0.000000	6.663013	-0.055921	NaN	0.000000	0.001750	0.001772	28.0808	0.070935	0.001993	35.5998	56.9166	-163.224	-0.053142	0.661540	-0.495280	-0.496552	-0.055921	35.5998	-0.494102	-2.83594e+06	1.971850E-8	NaN
535	1.000000	0.672838	7.37029e+06	-50339.1	1005.82	-29756	0.000000	0.000000	6.673040	-0.035647	NaN	0.000000	0.001763	0.001764	28.0811	0.058324	0.002000	29.1647	-130.278	12.8327	-0.097054	0.671447	-0.485254	-0.486645	-0.035647	29.1647	-0.484337	-2.07121e+06	1.721075E-8	NaN
535	1.000000	0.682792	7.37029e+06	-50339.1	1005.82	-29756	0.000000	0.000000	6.682992	-0.066891	NaN	0.000000	0.001724	0.001761	28.0813	0.146413	0.002016	72.6343	142.869	-166.402	-0.100278	0.681474	-0.475301	-0.476619	-0.066891	72.6343	-0.474610	-1.51369e+06	4.419094E-8	NaN
535	1.000000	0.692826	7.37029e+06	-50339.1	1005.82	-29756	0.000000	0.000000	6.693030	0.023314	NaN	0.000000	0.001738	0.001734	28.0809	0.055378	0.001967	28.1522	-45.9633	11.4423	-0.068884	0.691433	-0.465267	-0.466659	0.023314	28.1522	-0.465888	-1.14211e+06	-2.041317E-8	NaN
535	1.000000	0.702820	7.37029e+06	-50339.1	1005.82	-29756	0.000000	0.000000	6.703022	-0.034673	NaN	0.000000	0.001774	0.001739	28.081	0.028590	0.001993	14.3483	134.107	-165.588	-0.077191	0.701556	-0.455272	-0.456537	-0.034673	14.3483	-0.453459	-763910	4.538946E-8	NaN
535	1.000000	0.712807	7.37029e+06	-50339.1	1005.82	-29756	0.000000	0.000000	6.713007	-0.082531	NaN	0.000000	0.001744	0.001727	28.081	0.152895	0.001886	81.0804	48.8221	10.7731	-0.025215	0.711430	-0.445285	-0.446662	-0.082531	81.0804	-0.444521	-571671	1.443673E-7	NaN
535	1.000000	0.722804	7.37029e+06	-50339.1	1005.82	-29756	0.000000	0.000000	6.723006	-0.050561	NaN	0.000000	0.001769	0.001736	28.081	0.038518	0.002055	18.7395	173.986	-164.421	-0.073443	0.721527	-0.435288	-0.436565	-0.050561	18.7395	-0.433264	-396483	1.275234E-7	NaN
535	1.000000	0.732851	7.37029e+06	-50339.1	1005.82	-29756	0.000000	0.000000	6.733052	-0.057819	NaN	0.000000	0.001787	0.001765	28.081	0.060885	0.001997	30.4871	-42.1514	15.0614	-0.000747	0.731540	-0.425241	-0.426552	-0.057819	30.4871	-0.423819	-291440	1.983896E-7	NaN
535	1.000000	0.742814	7.37029e+06	-50339.1	1005.82	-29756	0.000000	0.000000	6.743015	-0.051559	NaN	0.000000	0.001723	0.001764	28.0813	0.026413	0.001993	13.2523	135.403	-163.077	-0.093085	0.741535	-0.415278	-0.416558	-0.051559	13.2523	-0.412360	-200425	2.572468E-7	NaN
535	1.000000	0.752861	7.37029e+06	-50339.1	1005.82	-29756	0.000000	0.000000	6.753062	-0.060529	NaN	0.000000	0.001763	0.001758	28.0826	0.067607	0.002105	32.112	-1.648254	18.9498	-0.028075	0.751448	-0.405231	-0.406645	-0.060529	32.112	-0.403818	-151498	3.995364E-7	NaN
535	1.000000	0.762827	7.37029e+06	-50339.1	1005.82	-29756	0.000000	0.000000	6.763029	-0.029453	NaN	0.000000	0.001783	0.001782	28.0825	0.055839	0.002006	27.8372	-50.0852	-169.047	-0.061272	0.761495	-0.395265	-0.396597	-0.029453	27.8372	-0.394472	-111452	2.642655E-7	NaN
535	1.000000	0.772864	7.37029e+06	-50339.1	1005.82	-29756	0.000000	0.000000	6.773063	-0.092355	NaN	0.000000	0.001745	0.001803	28.0823	0.003489	0.001901	1.834697	139.579	14.6527	-0.026858	0.771457	-0.385229	-0.386636	-0.092355	1.834697	-0.347475	-23460.5	3.936613E-6	NaN
535	1.000000	0.782864	7.37029e+06	-50339.1	1005.82	-29756	0.000000	0.000000	6.783063	-0.091657	NaN	0.000000	0.001739	0.001765	28.0825	0.088958	0.001905	46.6981	-114.773	-163.543	-0.044779	0.781514	-0.375228	-0.376579	-0.091657	46.6981	-0.373756	-56258.5	1.629213E-6	NaN
535	1.000000	0.792870	7.37029e+06	-50339.1	1005.82	-29756	0.000000	0.000000	6.793073	-0.002223	NaN	0.000000	0.001723	0.001754	28.0818	0.024385	0.002011	12.1236	155.677	11.9658	-0.073197	0.791464	-0.365222	-0.366629	-0.002223	12.1236	-0.365085	-42196.7	5.268344E-8	NaN
535	1.000000	0.802876	7.37029e+06	-50339.1	1005.82	-29756	0.000000	0.000000	6.803076	-0.073064	NaN	0.000000	0.001692	0.001767	28.0824	0.124284	0.001963	63.3233	-74.7575	-169.896	-0.080078	0.801577	-0.355216	-0.356515	-0.073064	63.3233	-0.354351	-29518.4	2.475195E-6	NaN
535	1.000000	0.812894	7.37029e+06	-50339.1	1005.82	-29756	0.000000	0.000000	6.813092	-0.107725	NaN	0.000000	0.001716	0.001778	28.082	0.049225	0.002058	23.9206	-12.5059	16.5593	-0.154431	0.811507	-0.345199	-0.346585	-0.107725	23.9206	-0.341821	-19412.8	5.549201E-6	NaN
535	1.000000	0.822853	7.37029e+06	-50339.1	1005.82	-29756	0.000000	0.000000	6.823055	-0.030054	NaN	0.000000	0.001680	0.001805	28.0823	0.024213	0.002026	11.9498	104.496	-168.941	-0.064148	0.821544	-0.335239	-0.336549	-0.030054	11.9498	-0.333353	-14605.4	2.057700E-6	NaN
535	1.000000	0.832886	7.37029e+06	-50339.1	1005.82	-29756	0.000000	0.000000	6.833087	-0.048256	NaN	0.000000	0.001677	0.001778	28.0817	0.054033	0.002009	26.8925	148.868	14.109	0.004384	0.831525	-0.325206	-0.326567	-0.048256	26.8925	-0.323860	-10602.3	4.551411E-6	NaN
535	1.000000	0.842902	7.37029e+06	-50339.1	1005.82	-29756	0.000000	0.000000	6.843103	-0.058171	NaN	0.000000	0.001623	0.001768	28.0819	0.043302	0.001975	21.9231	-110.61	-166.953	-0.080720	0.841578	-0.315190	-0.316514	-0.058171	21.9231	-0.313200	-7385.31	7.876595E-6	NaN
535	1.000000	0.852866	7.37029e+06	-50339.1	1005.82	-29756	0.000000	0.000000	6.853066	-0.068347	NaN	0.000000	0.001615	0.001721	28.0819	0.073633	0.002037	36.1434	82.8681	16.6757	-0.027132	0.851513	-0.305227	-0.306579	-0.068347	36.1434	-0.303809	-5361.24	1.274830E-5	NaN
535	1.000000	0.862889	7.37029e+06	-50339.1	1005.82	-29756	0.000000	0.000000	6.863091	-0.034399	NaN	0.000000	0.001655	0.001728	28.0821	0.096552	0.002071	46.6203	103.696	-167.921	-0.002565	0.861577	-0.295203	-0.296515	-0.034399	46.6203	-0.294650	-3916.16	8.783987E-6	NaN
535	1.000000	0.872885	7.37029e+06	-50339.1	1005.82	-29756	0.000000	0.000000	6.873086	-0.065082	NaN	0.000000	0.001655	0.001747	28.0818	0.066640	0.002120	31.4385	14.8244	14.1171	-0.009158	0.871507	-0.285207	-0.286585	-0.065082	31.4385	-0.283655	-2679.37	2.428998E-5	NaN
535	1.000000	0.882880	7.37029e+06	-50339.1	1005.82	-29756	0.000000	0.000000	6.883081	-0.056753	NaN	0.000000	0.001601	0.001708	28.0819	0.080506	0.001958	41.1214	-81.3551	-169.814	0.015068	0.881580	-0.275212	-0.276512	-0.056753	41.1214	-0.274177	-1927.24	2.944774E-5	NaN
535	1.000000	0.892903	7.37029e+06	-50339.1	1005.82	-29756	0.000000	0.000000	6.893107	0.021227	NaN	0.000000	0.001610	0.001715	28.0808	0.009709	0.002078	4.673296	-152.49	8.646713	0.054584	0.891550	-0.265189	-0.266543	0.021227	4.673296	-0.268596	-1585.59	-1.338745E-5	NaN
535	1.000000	0.902912	7.37029e+06	-50339.1	1005.82	-29756	0.000000	0.000000	6.903114	-0.044817	NaN	0.000000	0.001614	0.001730	28.0806	0.096187	0.002069	46.498	-166.532	-165.758	0.084413	0.901563	-0.255180	-0.256529	-0.044817	46.498	-0.254457	-963.283	4.652523E-5	NaN
535	1.000000	0.912894	7.37029e+06	-50339.1	1005.82	-29756	0.000000	0.000000	6.913096	-0.031018	NaN	0.000000	0.001594	0.001754	28.0807	0.085955	0.002056	41.8168	78.9486	13.7403	0.046477	0.911531	-0.245199	-0.246561	-0.031018	41.8168	-0.244642	-679.035	4.567918E-5	NaN
535	1.000000	0.922911	7.37029e+06	-50339.1	1005.82	-29756	0.000000	0.000000	6.923113	-0.035843	NaN	0.000000	0.001626	0.001770	28.0807	0.094957	0.001847	51.4106	-147.494	-165.008	0.034033	0.921623	-0.235181	-0.236470	-0.035843	51.4106	-0.234658	-474.115	7.560015E-5	NaN
535	1.000000	0.932913	7.37029e+06	-50339.1	1005.82	-29756	0.000000	0.000000	6.933114	-0.068076	NaN	0.000000	0.001664	0.001744	28.0809	0.088908	0.001952	45.5481	-56.4722	14.1434	-0.064914	0.931510	-0.225179	-0.226583	-0.068076	45.5481	-0.224058	-322.379	0.000211	NaN
535	1.000000	0.942913	7.37029e+06	-50339.1	1005.82	-29756	0.000000	0.000000	6.943115	-0.040389	NaN	0.000000	0.001638	0.001768	28.0809	0.110230	0.002032	54.2501	-172.265	-163.552	-0.055263	0.941645	-0.215179	-0.216447	-0.040389	54.2501	-0.214621	-227.725	0.000177	NaN
535	1.000000	0.952947	7.37029e+06	-50339.1	1005.82	-29756	0.000000	0.000000	6.953147	-0.062910	NaN	0.000000	0.001580	0.001752	28.0809	0.041284	0.001886	21.8897	154.869	14.5881	-0.105727	0.951538	-0.205146	-0.206554	-0.062910	21.8897	-0.202990	-147.478	0.000427	NaN
535	1.000000	0.962929	7.37029e+06	-50339.1	1005.82	-29756	0.000000	0.000000	6.963131	-0.045001	NaN	0.000000	0.001631	0.001757	28.0809	0.028458	0.002040	13.9499	-152.94	-165.4	-0.047293	0.961633	-0.195163	-0.196460	-0.045001	13.9499	-0.192744	-99.9431	0.000450	NaN
535	1.000000	0.972930	7.37029e+06	-50339.1	1005.82	-29756	0.000000	0.000000	6.973133	0.000222	NaN	0.000000	0.001655	0.001751	28.081	0.063699	0.001935	32.9275	-177.686	12.7446	-0.061405	0.971565	-0.185163	-0.186527	0.000222	32.9275	-0.185168	-74.6383	-2.976210E-6	NaN
535	1.000000	0.982956	7.37029e+06	-50339.1	1005.82	-29756	0.000000	0.000000	6.983158	-0.033510	NaN	0.000000	0.001617	0.001773	28.081	0.035956	0.002039	17.6346	-50.3321	-168.863	0.004913	0.981629	-0.175136	-0.176464	-0.033510	17.6346	-0.173711	-47.621	0.000704	NaN
535	1.000000	0.992930	7.37029e+06	-50339.1	1005.82	-29756	0.000000	0.000000	6.993133	-0.025319	NaN	0.000000	0.001596	0.001737	28.0808	0.050331	0.001999	25.1747	-28.1129	12.7323	-0.015445	0.991612	-0.165162	-0.166481	-0.025319	25.1747	-0.164408	-32.8017	0.000772	NaN
535	1.000000	1.002931	7.37029e+06	-50339.1	1005.82	-29756	0.000000	0.000000	7.003134	0.000401	NaN	0.000000	0.001640	0.001743	28.0811	0.020044	0.002097	9.556239	175.437	-169.121	0.030646	1.001631	-0.155162	-0.156461	0.000401	9.556239	-0.155193	-22.4933	-1.780976E-5	NaN
535	1.000000	1.012929	7.37029e+06	-50339.1	1005.82	-29756	0.000000	0.000000	7.013130	-0.043709	NaN	0.000000	0.001616	0.001727	28.0808	0.022794	0.002077	10.9767	146.091	13.6817	-0.089650	1.011569	-0.145164	-0.146524	-0.043709	10.9767	-0.142177	-12.9934	0.003364	NaN
535	1.000000	1.022961	7.37029e+06	-50339.1	1005.82	-29756	0.000000	0.000000	7.023161	-0.079264	NaN	0.000000	0.001548	0.001766	28.0821	0.066298	0.001934	34.2748	51.6753	-164.923	-0.094394	1.021597	-0.135131	-0.136496	-0.079264	34.2748	-0.133396	-8.863257	0.008943	NaN
535	1.000000	1.032943	7.37029e+06	-50339.1	1005.82	-29756	0.000000	0.000000	7.033146	-0.012266	NaN	0.000000	0.001567	0.001757	28.0824	0.142131	0.002053	69.2147	95.129	12.028	-0.020093	1.031590	-0.125149	-0.126502	-0.012266	69.2147	-0.125017	-6.085854	0.002016	NaN
535	1.000000	1.042968	7.37029e+06	-50339.1	1005.82	-29756	0.000000	0.000000	7.043167	-0.107813	NaN	0.000000	0.001582	0.001698	28.0824	0.027751	0.001989	13.9516	-160.127	-161.248	-0.000795	1.041650	-0.115124	-0.116442	-0.107813	13.9516	-0.109328	-2.908637	0.037067	NaN
535	1.000000	1.052985	7.37029e+06	-50339.1	1005.82	-29756	0.000000	0.000000	7.053186	-0.051138	NaN	0.000000	0.001566	0.001727	28.0825	0.079335	0.001886	42.0635	-147.15	15.4647	0.067635	1.051653	-0.105107	-0.106439	-0.051138	42.0635	-0.104196	-2.258202	0.022645	NaN
535	1.000000	1.062972	7.37029e+06	-50339.1	1005.82	-29756	0.000000	0.000000	7.063171	-0.100616	NaN	0.000000	0.001567	0.001752	28.0822	0.001642	0.002015	0.815141	-151.537	-166.202	-0.020123	1.061624	-0.095120	-0.096469	-0.100616	0.815141	-0.002545	-0.001813	55.4832	NaN
535	1.000000	1.072945	7.37029e+06	-50339.1	1005.82	-29756	0.000000	0.000000	7.073145	-0.084333	NaN	0.000000	0.001551	0.001780	28.0826	0.106766	0.002060	51.8242	-179.987	17.7764	-0.032947	1.071635	-0.085147	-0.086457	-0.084333	51.8242	-0.083927	-0.773770	0.108990	NaN
535	1.000000	1.083000	7.37029e+06	-50339.1	1005.82	-29756	0.000000	0.000000	7.083201	-0.044082	NaN	0.000000	0.001614	0.001740	28.082	0.134768	0.001988	67.7754	178.446	-167.197	-0.019881	1.081661	-0.075093	-0.076432	-0.044082	67.7754	-0.074605	-0.451113	0.097719	NaN
535	1.000000	1.092976	7.37029e+06	-50339.1	1005.82	-29756	0.000000	0.000000	7.093177	-0.054735	NaN	0.000000	0.001582	0.001763	28.0821	0.047336	0.002000	23.6709	-1.725158	10.5582	0.032738	1.091626	-0.065116	-0.066467	-0.054735	23.6709	-0.063382	-0.224620	0.243679	NaN
535	1.000000	1.102971	7.37029e+06	-50339.1	1005.82	-29756	0.000000	0.000000	7.103174	-0.004532	NaN	0.000000	0.001563	0.001753	28.0819	0.159913	0.002046	78.1511	-15.6072	-163.875	0.037359	1.101696	-0.055121	-0.056396	-0.004532	78.1511	-0.055078	-0.129463	0.035005	NaN
535	1.000000	1.112969	7.37029e+06	-50339.1	1005.82	-29756	0.000000	0.000000	7.113173	0.014814	NaN	0.000000	0.001558	0.001736	28.0821	0.086787	0.001986	43.6896	-22.5808	11.765	0.024229	1.111568	-0.045123	-0.046524	0.014814	43.6896	-0.045378	-0.066000	-0.224448	NaN
535	1.000000	1.123019	7.37029e+06	-50339.1	1005.82	-29756	0.000000	0.000000	7.123219	-0.077916	NaN	0.000000	0.001513	0.001802	28.0819	0.019965	0.001935	10.318	61.8622	-165.35	-0.084158	1.121657	-0.035074	-0.036435	-0.077916	10.318	-0.029410	-0.022161	3.515868	NaN
535	1.000000	1.133020	7.37029e+06	-50339.1	1005.82	-29756	0.000000	0.000000	7.133221	-0.074237	NaN	0.000000	0.001545	0.001796	28.082	0.038218	0.002028	18.8456	176.092	13.8349	-0.034140	1.131592	-0.025072	-0.026500	-0.074237	18.8456	-0.022117	-0.014219	5.221078	NaN
535	1.000000	1.142971	7.37029e+06	-50339.1	1005.82	-29756	0.000000	0.000000	7.143174	-0.007647	NaN	0.000000	0.001543	0.001808	28.082	0.058192	0.002050	28.3895	-37.3423	-165.921	-0.003084	1.141720	-0.015121	-0.016373	-0.007647	28.3895	-0.014919	-0.009227	0.828754	NaN
535	1.000000	1.152976	7.37029e+06	-50339.1	1005.82	-29756	0.000000	0.000000	7.153180	0.018154	NaN	0.000000	0.001573	0.001771	28.0817	0.039889	0.001963	20.3233	65.3892	12.6951	0.031737	1.151640	-0.005116	-0.006453	0.018154	20.3233	-0.005786	-0.003905	-4.648670	NaN
535	1.000000	1.162960	7.37029e+06	-50339.1	1005.82	-29756	0.000000	0.000000	7.163433	6.559322	NaN	0.000000	0.001574	0.001801	28.0806	7.043535	0.001716	4105.48	11.6032	-171.042	5.306577	1.161705	0.004868	0.003613	6.559322	4105.48	0.003670	0.002951	2222.43	69043.4
535	2.000000	1.167074	7.37029e+06	-50339.1	1005.82	-29756	0.000000	0.000000	7.167715	10.6301	NaN	0.000000	0.001580	0.001806	28.0806	11.2176	0.001632	6874.33	7.437045	5.019820	9.850654	1.166692	0.008982	0.008600	10.6301	6874.33	0.007822	0.006860	1549.54	75829.1
535	2.000000	1.169530	7.37029e+06	-50339.1	1005.82	-29756	0.000000	0.000000	7.170308	13.9665	NaN	0.000000	0.001613	0.001815	28.0807	13.8983	0.001570	8851.88	4.470318	-174.271	14.2451	1.169204	0.011438	0.011112	13.9665	8851.88	0.010254	0.009466	1475.5	83125.5
535	2.000000	1.171987	7.37029e+06	-50339.1	1005.82	-29756	0.000000	0.000000	7.172918	17.6875	NaN	0.000000	0.001564	0.001797	28.0807	17.0577	0.001816	9393.86	6.668846	3.891193	17.0094	1.171606	0.013895	0.013514	17.6875	9393.86	0.012483	0.012074	1464.96	78108.2
535	2.000000	1.174506	7.37029e+06	-50339.1	1005.82	-29756	0.000000	0.000000	7.175554	20.5334	NaN	0.000000	0.001596	0.001799	28.0808	18.9495	0.001788	10596.2	4.297232	-176.235	20.6238	1.174185	0.016414	0.016093	20.5334	10596.2	0.014961	0.015233	1347.97	78439.5
535	2.000000	1.177064	7.37029e+06	-50339.1	1005.82	-29756	0.000000	0.000000	7.178218	23.107	NaN	0.000000	0.001571	0.001790	28.0808	20.815	0.001973	10547.7	9.791754	2.411751	25.3829	1.176583	0.018972	0.018491	23.107	10547.7	0.017329	0.018518	1247.84	70816.9
535	2.000000	1.179470	7.37029e+06	-50339.1	1005.82	-29756	0.000000	0.000000	7.180782	26.9578	NaN	0.000000	0.001574	0.001797	28.0806	23.445	0.001829	12819	5.323936	-177.846	26.4316	1.179146	0.021377	0.021054	26.9578	12819	0.019800	0.022229	1212.71	78553.4
535	2.000000	1.181945	7.37029e+06	-50339.1	1005.82	-29756	0.000000	0.000000	7.183473	32.2253	NaN	0.000000	0.001548	0.001801	28.0806	25.8488	0.001919	13471.9	2.266032	4.471015	30.1845	1.181598	0.023852	0.023506	32.2253	13471.9	0.022058	0.025881	1245.15	76509.6
535	2.000000	1.184440	7.37029e+06	-50339.1	1005.82	-29756	0.000000	0.000000	7.186189	37.583	NaN	0.000000	0.001589	0.001793	28.0807	28.2848	0.001734	16309.2	5.701795	178.989	37.3846	1.184125	0.026348	0.026032	37.583	16309.2	0.024620	0.030328	1239.24	85563.2
535	2.000000	1.186958	7.37029e+06	-50339.1	1005.82	-29756	0.000000	0.000000	7.188991	44.4948	NaN	0.000000	0.001536	0.001769	28.0812	30.5263	0.001730	17646.5	7.319831	-3.216035	43.5332	1.186596	0.028866	0.028503	44.4948	17646.5	0.026975	0.034707	1282.02	86541.8
535	2.000000	1.189446	7.37029e+06	-50339.1	1005.82	-29756	0.000000	0.000000	7.191718	50.3025	NaN	0.000000	0.001614	0.001784	28.0806	32.3899	0.001768	18324	5.024357	178.63	50.1138	1.189118	0.031354	0.031026	50.3025	18324	0.029295	0.039295	1280.11	84454.6
535	2.000000	1.191989	7.37029e+06	-50339.1	1005.82	-29756	0.000000	0.000000	7.194381	53.2293	NaN	0.000000	0.001590	0.001811	28.0807	34.7804	0.001780	19544.4	4.196673	-0.713975	53.6791	1.191696	0.033896	0.033604	53.2293	19544.4	0.031854	0.044673	1191.53	84483.6
535	2.000000	1.194422	7.37029e+06	-50339.1	1005.82	-29756	0.000000	0.000000	7.197135	61.0303	NaN	0.000000	0.001583	0.001768	28.0806	38.8029	0.001818	21344	7.680651	173.439	58.888	1.194218	0.036329	0.036125	61.0303	21344	0.034185	0.049865	1223.91	87327.5
535	2.000000	1.196957	7.37029e+06	-50339.1	1005.82	-29756	0.000000	0.000000	7.200223	74.471	NaN	0.000000	0.001578	0.001762	28.0805	39.6904	0.001701	23334.5	4.545877	-3.409805	71.6171	1.196513	0.038865	0.038420	74.471	23334.5	0.036471	0.055227	1348.45	90718.1
535	2.000000	1.199400	7.37029e+06	-50339.1	1005.82	-29756	0.000000	0.000000	7.202763	76.8545	NaN	0.000000	0.001620	0.001779	28.0817	43.1051	0.001850	23304	7.007158	174.075	75.1267	1.199090	0.041307	0.040997	76.8545	23304	0.038834	0.061049	1258.89	86171.6
535	2.000000	1.201838	7.37029e+06	-50339.1	1005.82	-29756	0.000000	0.000000	7.205735	89.8059	NaN	0.000000	0.001597	0.001787	28.0819	44.7726	0.001699	26353	4.951794	-4.013797	86.0328	1.201566	0.043746	0.043473	89.8059	26353	0.041190	0.067141	1337.58	92920.3
535	2.000000	1.204446	7.37029e+06	-50339.1	1005.82	-29756	0.000000	0.000000	7.208640	97.0329	NaN	0.000000	0.001620	0.001706	28.0821	48.7843	0.001909	25550.3	4.852288	175.444	96.5469	1.204215	0.046354	0.046123	97.0329	25550.3	0.043506	0.073402	1321.94	86161.7
535	2.000000	1.206913	7.37029e+06	-50339.1	1005.82	-29756	0.000000	0.000000	7.211427	104.825	NaN	0.000000	0.001623	0.001792	28.0818	50.0732	0.001801	27805.2	3.008991	-2.806703	103.043	1.206680	0.048821	0.048587	104.825	27805.2	0.045993	0.080432	1303.27	89574.2
535	2.000000	1.209440	7.37029e+06	-50339.1	1005.82	-29756	0.000000	0.000000	7.214293	113.082	NaN	0.000000	0.001652	0.001784	28.0818	52.3563	0.001754	29847.4	3.415581	176.459	114.442	1.209123	0.051347	0.051030	113.082	29847.4	0.048506	0.087851	1287.21	92004.1
535	2.000000	1.211916	7.37029e+06	-50339.1	1005.82	-29756	0.000000	0.000000	7.217378	127.89	NaN	0.000000	0.001668	0.001726	28.082	54.8727	0.001696	32358.8	5.746555	-6.519383	125.336	1.211543	0.053823	0.053450	127.89	32358.8	0.050859	0.095087	1344.98	95875
535	2.000000	1.214438	7.37029e+06	-50339.1	1005.82	-29756	0.000000	0.000000	7.220106	132.914	NaN	0.000000	0.001683	0.001788	28.0821	58.8424	0.001813	32448.4	2.047565	176.759	135.313	1.214221	0.056345	0.056128	132.914	32448.4	0.053273	0.102798	1292.96	92464.3
535	2.000000	1.216924	7.37029e+06	-50339.1	1005.82	-29756	0.000000	0.000000	7.223262	149.185	NaN	0.000000	0.001695	0.001768	28.0818	61.0798	0.001819	33580.9	9.593092	-11.2017	147.191	1.216500	0.058831	0.058408	149.185	33580.9	0.055500	0.110167	1354.18	92435.9
535	2.000000	1.219364	7.37029e+06	-50339.1	1005.82	-29756	0.000000	0.000000	7.226365	165.295	NaN	0.000000	0.001659	0.001827	28.0818	61.8858	0.001793	34518	3.720241	174.415	161.439	1.219023	0.061272	0.060931	165.295	34518	0.057680	0.117622	1405.31	91954.8
535	2.000000	1.221900	7.37029e+06	-50339.1	1005.82	-29756	0.000000	0.000000	7.229183	172.171	NaN	0.000000	0.001643	0.001818	28.0819	66.5043	0.001885	35273.6	7.192277	-9.680422	169.598	1.221607	0.063808	0.063514	172.171	35273.6	0.060147	0.126336	1362.81	90669.2
535	2.000000	1.224383	7.37029e+06	-50339.1	1005.82	-29756	0.000000	0.000000	7.232432	190.786	NaN	0.000000	0.001668	0.001799	28.0819	68.0405	0.001831	37161.4	5.450953	172.722	189.493	1.224053	0.066291	0.065960	190.786	37161.4	0.062441	0.134705	1416.32	92506.9
535	2.000000	1.226871	7.37029e+06	-50339.1	1005.82	-29756	0.000000	0.000000	7.235304	200.121	NaN	0.000000	0.001691	0.001830	28.0813	69.2141	0.001776	38976.4	4.023417	-5.609147	196.901	1.226562	0.068779	0.068469	200.121	38976.4	0.064928	0.144071	1389.04	93818.2
535	2.000000	1.229333	7.37029e+06	-50339.1	1005.82	-29756	0.000000	0.000000	7.238397	215.497	NaN	0.000000	0.001649	0.001833	28.0818	72.254	0.001741	41499.9	7.004412	170.712	211.742	1.229022	0.071240	0.070930	215.497	41499.9	0.067346	0.153459	1404.27	96788.7
535	2.000000	1.231832	7.37029e+06	-50339.1	1005.82	-29756	0.000000	0.000000	7.241276	224.723	NaN	0.000000	0.001637	0.001819	28.0807	74.763	0.001768	42277.8	6.377181	-9.205438	220.128	1.231480	0.073740	0.073387	224.723	42277.8	0.069753	0.163085	1377.96	95648.7
535	2.000000	1.234351	7.37029e+06	-50339.1	1005.82	-29756	0.000000	0.000000	7.244349	238.193	NaN	0.000000	0.001632	0.001823	28.0805	78.2812	0.001843	42479.8	4.457351	172.148	235.044	1.234146	0.076259	0.076054	238.193	42479.8	0.072053	0.172541	1380.5	93435
535	2.000000	1.236848	7.37029e+06	-50339.1	1005.82	-29756	0.000000	0.000000	7.247594	256.386	NaN	0.000000	0.001611	0.001796	28.0805	79.045	0.001768	44718.1	4.021364	-6.932557	251.619	1.236425	0.078756	0.078333	256.386	44718.1	0.074456	0.182686	1403.43	95588.3
535	2.000000	1.239420	7.37029e+06	-50339.1	1005.82	-29756	0.000000	0.000000	7.250763	270.895	NaN	0.000000	0.001653	0.001827	28.0806	83.3186	0.001927	43230	14.268	163.412	275.695	1.239020	0.081328	0.080928	270.895	43230	0.076628	0.192089	1410.26	90117
535	2.000000	1.241885	7.37029e+06	-50339.1	1005.82	-29756	0.000000	0.000000	7.253685	282.02	NaN	0.000000	0.001657	0.001872	28.0805	84.434	0.001711	49357	3.140772	-7.536388	281.287	1.241646	0.083792	0.083553	282.02	49357	0.079507	0.204897	1376.4	99621.8
535	2.000000	1.244414	7.37029e+06	-50339.1	1005.82	-29756	0.000000	0.000000	7.257048	302.3	NaN	0.000000	0.001629	0.001840	28.0806	88.2614	0.001998	44180.4	8.395525	168.764	302.826	1.243987	0.086322	0.085895	302.3	44180.4	0.081190	0.212562	1422.18	87550.7
535	2.000000	1.246909	7.37029e+06	-50339.1	1005.82	-29756	0.000000	0.000000	7.260063	314.932	NaN	0.000000	0.001687	0.001830	28.0807	89.9826	0.001818	49504.2	6.886856	-11.51	314.373	1.246649	0.088817	0.088557	314.932	49504.2	0.084046	0.225871	1394.3	95166.8
535	2.000000	1.249281	7.37029e+06	-50339.1	1005.82	-29756	0.000000	0.000000	7.263415	338.767	NaN	0.000000	0.001641	0.001792	28.0809	90.9403	0.001789	50830.4	5.528830	169.809	331.249	1.248926	0.091189	0.090834	338.767	50830.4	0.086190	0.236113	1434.77	95573.3
535	2.000000	1.251760	7.37029e+06	-50339.1	1005.82	-29756	0.000000	0.000000	7.266461	352.582	NaN	0.000000	0.001582	0.001824	28.0804	94.3643	0.001830	51576.8	10.0099	-14.0651	345.479	1.251324	0.093667	0.093232	352.582	51576.8	0.088540	0.247578	1424.12	94704.7
535	2.000000	1.254257	7.37029e+06	-50339.1	1005.82	-29756	0.000000	0.000000	7.269616	368.558	NaN	0.000000	0.001599	0.001794	28.0805	94.4765	0.001765	53534.7	-0.550889	175.794	361.195	1.254060	0.096165	0.095967	368.558	53534.7	0.091001	0.259859	1418.3	95948.7
535	2.000000	1.256949	7.37029e+06	-50339.1	1005.82	-29756	0.000000	0.000000	7.272847	381.66	NaN	0.000000	0.001593	0.001795	28.0806	97.3606	0.001738	56031.6	4.389183	-8.717596	383.704	1.256518	0.098857	0.098426	381.66	56031.6	0.093748	0.273894	1393.46	97817.2
535	2.000000	1.259287	7.37029e+06	-50339.1	1005.82	-29756	0.000000	0.000000	7.276090	403.681	NaN	0.000000	0.001589	0.001810	28.0808	99.0648	0.001769	55987.9	4.243752	170.826	399.711	1.258983	0.101195	0.100890	403.681	55987.9	0.095787	0.284534	1418.74	95895.9
535	2.000000	1.261749	7.37029e+06	-50339.1	1005.82	-29756	0.000000	0.000000	7.278907	412.312	NaN	0.000000	0.001586	0.001808	28.0805	102.193	0.001748	58449.1	1.054888	-6.319483	402.25	1.261451	0.103656	0.103359	412.312	58449.1	0.098366	0.298262	1382.38	97780.4
535	2.000000	1.263284	7.37029e+06	-50339.1	1005.82	-29756	0.000000	0.000000	7.281741	443.918	NaN	0.000000	0.001636	0.001778	28.0806	103.831	0.001865	55686	4.658178	170.813	438.832	1.262905	0.105191	0.104813	443.918	55686	0.099212	0.302836	1465.87	92451.9