File: remote_trans/data/nanoindenter/0828-1/data/Data_2025-08-06,11h17m57s/2025-07-22_16-23-58_1_748.txt
2025-07-22, 16:23:58, 1
Index	Phase	Displacement	Time	Pos X	Pos Y	Pos Z	Rot A	Rot B	Piezo Z	Force A	Force B	Gripper	Voltage A	Voltage B	Temperature	Amplitude force	Amplitude pos	Stiffness	Phase shift	Phase excitation	Force A raw	Displacement raw	HMax	HMax raw	Real Force	Real Stiffness	Contact Depth	Area	Hardness	Reduced Mod.
[#]	[#]	[um]	[s]	[um]	[um]	[um]	[m°]	[m°]	[um]	[uN]	[uN]	[V]	[V]	[V]	[°C]	[uN]	[um]	[N/m]	[°]	[°]	[uN]	[um]	[um]	[um]	[uN]	[N/m]	[um]	[um^2]	[MPa]	[MPa]
748	1.000000	0.002867	7.37237e+06	-39689.1	1005.82	-29792.8	0.000000	0.000000	6.002792	0.018802	NaN	0.000000	0.001583	0.001698	28.0828	0.107289	0.000845	127.04	40.0456	-164.082	-0.053133	0.001670	-1.169174	-1.170371	0.018802	127.04	-1.169285	-4.258952E+15	-4.414611E-18	NaN
748	1.000000	0.012932	7.37237e+06	-39689.1	1005.82	-29792.8	0.000000	0.000000	6.012856	-0.002379	NaN	0.000000	0.001593	0.001692	28.0825	0.076802	0.001180	65.0664	-131.529	18.9529	-0.013569	0.011496	-1.159109	-1.160545	-0.002379	65.0664	-1.159082	-3.108566E+15	7.654631E-19	NaN
748	1.000000	0.022844	7.37237e+06	-39689.1	1005.82	-29792.8	0.000000	0.000000	6.022770	0.035243	NaN	0.000000	0.001635	0.001736	28.0826	0.069850	0.001655	42.2094	15.2028	-165.483	0.006118	0.021483	-1.149197	-1.150558	0.035243	42.2094	-1.149823	-2.335864E+15	-1.508772E-17	NaN
748	1.000000	0.032852	7.37237e+06	-39689.1	1005.82	-29792.8	0.000000	0.000000	6.032775	-0.045083	NaN	0.000000	0.001596	0.001665	28.0822	0.105630	0.001784	59.1956	-96.2989	13.1807	0.011306	0.031498	-1.139189	-1.140543	-0.045083	59.1956	-1.138618	-1.652740E+15	2.727760E-17	NaN
748	1.000000	0.042835	7.37237e+06	-39689.1	1005.82	-29792.8	0.000000	0.000000	6.042760	0.007082	NaN	0.000000	0.001582	0.001688	28.0824	0.086915	0.001970	44.1088	69.4448	-164.993	0.006102	0.041490	-1.129206	-1.130551	0.007082	44.1088	-1.129326	-1.240463E+15	-5.709057E-18	NaN
748	1.000000	0.052832	7.37237e+06	-39689.1	1005.82	-29792.8	0.000000	0.000000	6.052757	0.001969	NaN	0.000000	0.001580	0.001682	28.082	0.133346	0.001961	67.9901	-0.929560	15.3974	0.003421	0.051501	-1.119209	-1.120540	0.001969	67.9901	-1.119231	-9.081313E+14	-2.167925E-18	NaN
748	1.000000	0.062838	7.37237e+06	-39689.1	1005.82	-29792.8	0.000000	0.000000	6.062764	0.031436	NaN	0.000000	0.001604	0.001664	28.0827	0.030480	0.002073	14.706	152.48	-168.977	0.077853	0.061533	-1.109203	-1.110508	0.031436	14.706	-1.110806	-7.000124E+14	-4.490728E-17	NaN
748	1.000000	0.072845	7.37237e+06	-39689.1	1005.82	-29792.8	0.000000	0.000000	6.072769	-0.012753	NaN	0.000000	0.001594	0.001669	28.0821	0.037915	0.002068	18.3361	138.994	15.3112	-0.046741	0.071468	-1.099196	-1.100573	-0.012753	18.3361	-1.098675	-4.811453E+14	2.650538E-17	NaN
748	1.000000	0.082830	7.37237e+06	-39689.1	1005.82	-29792.8	0.000000	0.000000	6.082753	-0.031844	NaN	0.000000	0.001591	0.001653	28.0826	0.060271	0.001979	30.4538	72.4965	-165.785	0.035093	0.081462	-1.089211	-1.090579	-0.031844	30.4538	-1.088427	-3.504982E+14	9.085284E-17	NaN
748	1.000000	0.092833	7.37237e+06	-39689.1	1005.82	-29792.8	0.000000	0.000000	6.092757	-0.003904	NaN	0.000000	0.001595	0.001705	28.0824	0.101980	0.002017	50.5622	-90.0517	11.9883	-0.048774	0.091439	-1.079208	-1.080602	-0.003904	50.5622	-1.079150	-2.630896E+14	1.483801E-17	NaN
748	1.000000	0.102871	7.37237e+06	-39689.1	1005.82	-29792.8	0.000000	0.000000	6.102791	-0.095207	NaN	0.000000	0.001594	0.001705	28.0823	0.057074	0.001922	29.7027	-126.36	-164.51	-0.163710	0.101514	-1.069170	-1.070527	-0.095207	29.7027	-1.066766	-1.793667E+14	5.307927E-16	NaN
748	1.000000	0.112862	7.37237e+06	-39689.1	1005.82	-29792.8	0.000000	0.000000	6.112788	0.019759	NaN	0.000000	0.001639	0.001702	28.0827	0.115047	0.001976	58.2243	-30.9066	16.0611	-0.031894	0.111462	-1.059179	-1.060580	0.019759	58.2243	-1.059433	-1.429572E+14	-1.382146E-16	NaN
748	1.000000	0.122832	7.37237e+06	-39689.1	1005.82	-29792.8	0.000000	0.000000	6.122758	0.055955	NaN	0.000000	0.001618	0.001700	28.0837	0.045820	0.001960	23.3767	163.766	-164.765	0.005176	0.121576	-1.049210	-1.050465	0.055955	23.3767	-1.051005	-1.101337E+14	-5.080612E-16	NaN
748	1.000000	0.132854	7.37237e+06	-39689.1	1005.82	-29792.8	0.000000	0.000000	6.132779	0.014522	NaN	0.000000	0.001606	0.001690	28.0838	0.045400	0.001994	22.7685	-63.029	18.4132	0.024216	0.131508	-1.039188	-1.040533	0.014522	22.7685	-1.039666	-7.753094E+13	-1.873113E-16	NaN
748	1.000000	0.142874	7.37237e+06	-39689.1	1005.82	-29792.8	0.000000	0.000000	6.142797	-0.054435	NaN	0.000000	0.001590	0.001686	28.0836	0.051984	0.002053	25.3244	74.4974	-162.131	0.040480	0.141534	-1.029167	-1.030507	-0.054435	25.3244	-1.027555	-5.328288E+13	1.021624E-15	NaN
748	1.000000	0.152874	7.37237e+06	-39689.1	1005.82	-29792.8	0.000000	0.000000	6.152800	0.033162	NaN	0.000000	0.001563	0.001689	28.0839	0.118431	0.002021	58.6073	-97.3359	13.7765	-0.032273	0.151463	-1.019167	-1.020578	0.033162	58.6073	-1.019591	-4.163475E+13	-7.964871E-16	NaN
748	1.000000	0.162844	7.37237e+06	-39689.1	1005.82	-29792.8	0.000000	0.000000	6.162769	0.003583	NaN	0.000000	0.001588	0.001678	28.0837	0.014555	0.001958	7.433702	135.385	-164.933	0.016969	0.161565	-1.009197	-1.010476	0.003583	7.433702	-1.009558	-3.050978E+13	-1.174465E-16	NaN
748	1.000000	0.172887	7.37237e+06	-39689.1	1005.82	-29792.8	0.000000	0.000000	6.172812	0.009311	NaN	0.000000	0.001562	0.001663	28.0839	0.060697	0.001921	31.5998	20.9362	15.1687	-0.011088	0.171524	-0.999154	-1.000517	0.009311	31.5998	-0.999375	-2.225131E+13	-4.184319E-16	NaN
748	1.000000	0.182898	7.37237e+06	-39689.1	1005.82	-29792.8	0.000000	0.000000	6.182821	-0.022477	NaN	0.000000	0.001523	0.001641	28.0838	0.024425	0.002069	11.8027	-166.761	-162.903	-0.066485	0.181579	-0.989144	-0.990463	-0.022477	11.8027	-0.987715	-1.550029E+13	1.450096E-15	NaN
748	1.000000	0.192845	7.37237e+06	-39689.1	1005.82	-29792.8	0.000000	0.000000	6.192767	-0.062382	NaN	0.000000	0.001560	0.001645	28.084	0.049059	0.002171	22.5984	-143.923	17.4294	-0.079070	0.191462	-0.979196	-0.980579	-0.062382	22.5984	-0.977126	-1.116058E+13	5.589453E-15	NaN
748	1.000000	0.202898	7.37237e+06	-39689.1	1005.82	-29792.8	0.000000	0.000000	6.202823	0.000437	NaN	0.000000	0.001550	0.001656	28.0838	0.052520	0.001876	27.9998	-22.3735	-164.08	0.048332	0.201546	-0.969143	-0.970496	0.000437	27.9998	-0.969154	-8.714998E+12	-5.017779E-17	NaN
748	1.000000	0.212886	7.37237e+06	-39689.1	1005.82	-29792.8	0.000000	0.000000	6.212811	0.012230	NaN	0.000000	0.001518	0.001631	28.0838	0.048582	0.001886	25.7594	-50.2031	16.8817	0.054964	0.211538	-0.959155	-0.960503	0.012230	25.7594	-0.959511	-6.460714E+12	-1.892948E-15	NaN
748	1.000000	0.222875	7.37237e+06	-39689.1	1005.82	-29792.8	0.000000	0.000000	6.222797	-0.073594	NaN	0.000000	0.001506	0.001640	28.0836	0.063362	0.001919	33.0228	20.5063	-164.626	-0.072154	0.221636	-0.949166	-0.950405	-0.073594	33.0228	-0.947494	-4.448694E+12	1.654294E-14	NaN
748	1.000000	0.232926	7.37237e+06	-39689.1	1005.82	-29792.8	0.000000	0.000000	6.232851	0.016380	NaN	0.000000	0.001557	0.001687	28.0839	0.039132	0.002029	19.2904	-51.2952	14.3959	0.038535	0.231481	-0.939115	-0.940560	0.016380	19.2904	-0.939752	-3.497787E+12	-4.682847E-15	NaN
748	1.000000	0.242918	7.37237e+06	-39689.1	1005.82	-29792.8	0.000000	0.000000	6.242844	0.049046	NaN	0.000000	0.001558	0.001646	28.084	0.096591	0.002036	47.4407	161.083	-165.339	-0.040294	0.241596	-0.929123	-0.930445	0.049046	47.4407	-0.929899	-2.575322E+12	-1.904459E-14	NaN
748	1.000000	0.252890	7.37237e+06	-39689.1	1005.82	-29792.8	0.000000	0.000000	6.252815	0.036272	NaN	0.000000	0.001577	0.001671	28.0838	0.101615	0.002025	50.1911	118.023	13.0706	0.051590	0.251532	-0.919152	-0.920510	0.036272	50.1911	-0.919694	-1.875297E+12	-1.934214E-14	NaN
748	1.000000	0.262946	7.37237e+06	-39689.1	1005.82	-29792.8	0.000000	0.000000	6.262870	-0.006544	NaN	0.000000	0.001566	0.001662	28.0828	0.061005	0.002029	30.0663	-87.5093	-167.29	0.062312	0.261630	-0.909095	-0.910411	-0.006544	30.0663	-0.908932	-1.341957E+12	4.876764E-15	NaN
748	1.000000	0.272934	7.37237e+06	-39689.1	1005.82	-29792.8	0.000000	0.000000	6.272858	-0.013092	NaN	0.000000	0.001574	0.001667	28.0829	0.044247	0.001878	23.5615	-127.179	14.2064	-0.008209	0.271531	-0.899107	-0.900510	-0.013092	23.5615	-0.898691	-9.758245E+11	1.341617E-14	NaN
748	1.000000	0.282914	7.37237e+06	-39689.1	1005.82	-29792.8	0.000000	0.000000	6.282839	0.011794	NaN	0.000000	0.001583	0.001675	28.0825	0.033496	0.002039	16.4252	-8.672371	-167.283	-0.038316	0.281596	-0.889127	-0.890445	0.011794	16.4252	-0.889665	-7.368721E+11	-1.600574E-14	NaN
748	1.000000	0.292905	7.37237e+06	-39689.1	1005.82	-29792.8	0.000000	0.000000	6.292828	-0.034102	NaN	0.000000	0.001586	0.001710	28.0828	0.083391	0.002127	39.2026	71.6879	13.7664	0.009724	0.291597	-0.879136	-0.880444	-0.034102	39.2026	-0.878484	-5.202392E+11	6.555022E-14	NaN
748	1.000000	0.302925	7.37237e+06	-39689.1	1005.82	-29792.8	0.000000	0.000000	6.302851	0.039693	NaN	0.000000	0.001569	0.001688	28.0827	0.031357	0.001949	16.0886	122.72	-165.792	0.001804	0.301626	-0.869116	-0.870415	0.039693	16.0886	-0.870967	-4.116462E+11	-9.642486E-14	NaN
748	1.000000	0.312934	7.37237e+06	-39689.1	1005.82	-29792.8	0.000000	0.000000	6.312857	-0.048452	NaN	0.000000	0.001524	0.001708	28.0831	0.024705	0.001874	13.1801	151.074	18.9822	-0.076249	0.311602	-0.859107	-0.860439	-0.048452	13.1801	-0.856350	-2.610417E+11	1.856087E-13	NaN
748	1.000000	0.322943	7.37237e+06	-39689.1	1005.82	-29792.8	0.000000	0.000000	6.322868	0.003062	NaN	0.000000	0.001514	0.001744	28.0826	0.101443	0.002167	46.8188	168.586	-162.951	-0.021726	0.321629	-0.849098	-0.850412	0.003062	46.8188	-0.849147	-2.085390E+11	-1.468515E-14	NaN
748	1.000000	0.332903	7.37237e+06	-39689.1	1005.82	-29792.8	0.000000	0.000000	6.332827	-0.015412	NaN	0.000000	0.001541	0.001771	28.0827	0.073137	0.001975	37.0269	-130.041	17.728	-0.053446	0.331610	-0.839138	-0.840431	-0.015412	37.0269	-0.838826	-1.511415E+11	1.019721E-13	NaN
748	1.000000	0.342974	7.37237e+06	-39689.1	1005.82	-29792.8	0.000000	0.000000	6.342898	0.005270	NaN	0.000000	0.001566	0.001767	28.0824	0.025420	0.002045	12.4328	50.0336	-163.756	0.028254	0.341606	-0.829068	-0.830435	0.005270	12.4328	-0.829386	-1.125786E+11	-4.681265E-14	NaN
748	1.000000	0.352945	7.37237e+06	-39689.1	1005.82	-29792.8	0.000000	0.000000	6.352868	-0.018255	NaN	0.000000	0.001674	0.001738	28.0826	0.049738	0.002007	24.7828	162.384	17.5499	0.055033	0.351601	-0.819096	-0.820440	-0.018255	24.7828	-0.818544	-8.025408E+10	2.274595E-13	NaN
748	1.000000	0.362949	7.37237e+06	-39689.1	1005.82	-29792.8	0.000000	0.000000	6.362874	0.011368	NaN	0.000000	0.001598	0.001783	28.0823	0.085817	0.001913	44.8496	-174.985	-166.722	-0.059261	0.361684	-0.809092	-0.810357	0.011368	44.8496	-0.809282	-6.009346E+10	-1.891773E-13	NaN
748	1.000000	0.372967	7.37237e+06	-39689.1	1005.82	-29792.8	0.000000	0.000000	6.372892	0.024793	NaN	0.000000	0.001584	0.001772	28.0827	0.101735	0.001859	54.7336	116.557	13.4318	0.000254	0.371576	-0.799074	-0.800466	0.024793	54.7336	-0.799414	-4.414781E+10	-5.615801E-13	NaN
748	1.000000	0.382999	7.37237e+06	-39689.1	1005.82	-29792.8	0.000000	0.000000	6.382923	-0.004395	NaN	0.000000	0.001603	0.001787	28.0825	0.018848	0.002030	9.283723	-86.8451	-162.041	-0.002643	0.381694	-0.789042	-0.790348	-0.004395	9.283723	-0.788687	-3.156860E+10	1.392302E-13	NaN
748	1.000000	0.392953	7.37237e+06	-39689.1	1005.82	-29792.8	0.000000	0.000000	6.392877	0.010982	NaN	0.000000	0.001626	0.001768	28.0826	0.156618	0.001919	81.6267	72.4642	15.0182	-0.016515	0.391636	-0.779089	-0.780405	0.010982	81.6267	-0.779189	-2.345398E+10	-4.682548E-13	NaN
748	1.000000	0.402975	7.37237e+06	-39689.1	1005.82	-29792.8	0.000000	0.000000	6.402904	0.094910	NaN	0.000000	0.001638	0.001787	28.0839	0.105162	0.002106	49.9413	-151.69	-165.603	0.132026	0.401675	-0.769066	-0.770366	0.094910	49.9413	-0.770491	-1.786417E+10	-5.312871E-12	NaN
748	1.000000	0.412964	7.37237e+06	-39689.1	1005.82	-29792.8	0.000000	0.000000	6.412892	0.082794	NaN	0.000000	0.001672	0.001774	28.0838	0.045939	0.001946	23.6101	124.315	17.8267	0.074486	0.411578	-0.759077	-0.760463	0.082794	23.6101	-0.761707	-1.356825E+10	-6.102030E-12	NaN
748	1.000000	0.422998	7.37237e+06	-39689.1	1005.82	-29792.8	0.000000	0.000000	6.422923	0.012008	NaN	0.000000	0.001617	0.001786	28.0838	0.095088	0.002059	46.1891	-101.988	-163.4	-0.053598	0.421675	-0.749043	-0.750366	0.012008	46.1891	-0.749238	-9.180108E+9	-1.308031E-12	NaN
748	1.000000	0.432970	7.37237e+06	-39689.1	1005.82	-29792.8	0.000000	0.000000	6.432892	-0.055356	NaN	0.000000	0.001608	0.001807	28.0839	0.011659	0.001916	6.085584	-71.3648	15.1599	0.005391	0.431608	-0.739071	-0.740433	-0.055356	6.085584	-0.732249	-5.388320E+9	1.027332E-11	NaN
748	1.000000	0.442949	7.37237e+06	-39689.1	1005.82	-29792.8	0.000000	0.000000	6.442871	-0.034909	NaN	0.000000	0.001591	0.001773	28.0842	0.062330	0.002069	30.1313	-171.972	-167.927	-0.029731	0.441699	-0.729093	-0.730342	-0.034909	30.1313	-0.728224	-4.748949E+9	7.350982E-12	NaN
748	1.000000	0.452993	7.37237e+06	-39689.1	1005.82	-29792.8	0.000000	0.000000	6.452917	-0.005279	NaN	0.000000	0.001644	0.001793	28.0843	0.023980	0.002084	11.5085	169.769	15.0886	0.036076	0.451630	-0.719048	-0.720411	-0.005279	11.5085	-0.718704	-3.522093E+9	1.498720E-12	NaN
748	1.000000	0.462993	7.37237e+06	-39689.1	1005.82	-29792.8	0.000000	0.000000	6.462917	-0.003525	NaN	0.000000	0.001629	0.001789	28.0841	0.138831	0.002021	68.6984	89.4557	-165.718	0.008026	0.461705	-0.709048	-0.710337	-0.003525	68.6984	-0.709010	-2.597382E+9	1.357102E-12	NaN
748	1.000000	0.472978	7.37237e+06	-39689.1	1005.82	-29792.8	0.000000	0.000000	6.472902	-0.001038	NaN	0.000000	0.001586	0.001760	28.0841	0.019929	0.002005	9.940139	-92.7345	14.2985	-0.024374	0.471634	-0.699063	-0.700407	-0.001038	9.940139	-0.698985	-1.895263E+9	5.477783E-13	NaN
748	1.000000	0.482974	7.37237e+06	-39689.1	1005.82	-29792.8	0.000000	0.000000	6.482900	0.031494	NaN	0.000000	0.001599	0.001745	28.0838	0.064141	0.001887	33.9971	-96.5091	-163.805	-0.056934	0.481677	-0.689067	-0.690365	0.031494	33.9971	-0.689762	-1.417960E+9	-2.221108E-11	NaN
748	1.000000	0.493009	7.37237e+06	-39689.1	1005.82	-29792.8	0.000000	0.000000	6.492932	-0.014263	NaN	0.000000	0.001609	0.001759	28.0843	0.062612	0.002102	29.7873	112.543	14.4976	-0.071009	0.491642	-0.679033	-0.680399	-0.014263	29.7873	-0.678673	-1.000143E+9	1.426078E-11	NaN
748	1.000000	0.503032	7.37237e+06	-39689.1	1005.82	-29792.8	0.000000	0.000000	6.502959	0.053033	NaN	0.000000	0.001562	0.001727	28.084	0.147417	0.002023	72.8683	130.844	-163.694	0.024997	0.501731	-0.669009	-0.670311	0.053033	72.8683	-0.669555	-7.504076E+8	-7.067257E-11	NaN
748	1.000000	0.513040	7.37237e+06	-39689.1	1005.82	-29792.8	0.000000	0.000000	6.512965	0.014559	NaN	0.000000	0.001584	0.001748	28.0844	0.058850	0.002116	27.8135	102.218	14.3799	0.056478	0.511652	-0.659002	-0.660390	0.014559	27.8135	-0.659394	-5.447154E+8	-2.672755E-11	NaN
748	1.000000	0.523013	7.37237e+06	-39689.1	1005.82	-29792.8	0.000000	0.000000	6.522936	-0.026952	NaN	0.000000	0.001579	0.001740	28.0841	0.005990	0.002062	2.904669	-144.896	-164.463	-0.038035	0.521714	-0.649028	-0.650327	-0.026952	2.904669	-0.642069	-3.152673E+8	8.548905E-11	NaN
748	1.000000	0.533038	7.37237e+06	-39689.1	1005.82	-29792.8	0.000000	0.000000	6.532960	-0.062248	NaN	0.000000	0.001628	0.001786	28.083	0.113792	0.001944	58.5206	-56.9225	14.8351	0.010687	0.531721	-0.639003	-0.640320	-0.062248	58.5206	-0.638205	-2.790364E+8	2.230812E-10	NaN
748	1.000000	0.543024	7.37237e+06	-39689.1	1005.82	-29792.8	0.000000	0.000000	6.542948	-0.007456	NaN	0.000000	0.001583	0.001745	28.0829	0.085761	0.001945	44.0933	-94.1452	-168.256	0.026179	0.541676	-0.629018	-0.630365	-0.007456	44.0933	-0.628891	-2.078691E+8	3.586665E-11	NaN
748	1.000000	0.553026	7.37237e+06	-39689.1	1005.82	-29792.8	0.000000	0.000000	6.552954	0.096453	NaN	0.000000	0.001607	0.001781	28.0828	0.009706	0.001894	5.124872	-60.0488	12.8348	-0.083575	0.551695	-0.619015	-0.620346	0.096453	5.124872	-0.633131	-2.376893E+8	-4.057962E-10	NaN
748	1.000000	0.563047	7.37237e+06	-39689.1	1005.82	-29792.8	0.000000	0.000000	6.562969	-0.064111	NaN	0.000000	0.001610	0.001765	28.0832	0.000670	0.002033	0.329558	-53.7732	-162.241	-0.032320	0.561741	-0.608994	-0.610301	-0.064111	0.329558	-0.463092	-1.04341e+06	6.144343E-8	NaN
748	1.000000	0.573026	7.37237e+06	-39689.1	1005.82	-29792.8	0.000000	0.000000	6.572953	0.055474	NaN	0.000000	0.001635	0.001782	28.0831	0.056579	0.002097	26.9841	107.489	16.9965	-0.062654	0.571655	-0.599015	-0.600386	0.055474	26.9841	-0.600557	-8.474806E+7	-6.545808E-10	NaN
748	1.000000	0.583045	7.37237e+06	-39689.1	1005.82	-29792.8	0.000000	0.000000	6.582968	-0.026181	NaN	0.000000	0.001565	0.001757	28.0829	0.100320	0.002002	50.1018	123.434	-164.295	-0.013478	0.581728	-0.588996	-0.590313	-0.026181	50.1018	-0.588604	-5.799892E+7	4.514014E-10	NaN
748	1.000000	0.593037	7.37237e+06	-39689.1	1005.82	-29792.8	0.000000	0.000000	6.592965	0.091253	NaN	0.000000	0.001597	0.001752	28.083	0.052586	0.001998	26.3211	-156.188	18.1384	0.047934	0.591689	-0.579004	-0.580353	0.091253	26.3211	-0.581605	-4.643751E+7	-1.965074E-9	NaN
748	1.000000	0.603082	7.37237e+06	-39689.1	1005.82	-29792.8	0.000000	0.000000	6.603008	0.037249	NaN	0.000000	0.001606	0.001714	28.083	0.124214	0.002057	60.3764	67.7338	-166.805	0.036781	0.601799	-0.568959	-0.570242	0.037249	60.3764	-0.569422	-3.152425E+7	-1.181593E-9	NaN
748	1.000000	0.613026	7.37237e+06	-39689.1	1005.82	-29792.8	0.000000	0.000000	6.612951	0.009621	NaN	0.000000	0.001604	0.001738	28.083	0.030905	0.001957	15.7896	-109.472	16.5854	-0.031358	0.611703	-0.559015	-0.560339	0.009621	15.7896	-0.559472	-2.296568E+7	-4.189244E-10	NaN
748	1.000000	0.623055	7.37237e+06	-39689.1	1005.82	-29792.8	0.000000	0.000000	6.622979	-0.000912	NaN	0.000000	0.001685	0.001745	28.0827	0.070055	0.001955	35.8285	123.581	-162.884	0.022406	0.621781	-0.548986	-0.550260	-0.000912	35.8285	-0.548967	-1.643050E+7	5.550184E-11	NaN
748	1.000000	0.633097	7.37237e+06	-39689.1	1005.82	-29792.8	0.000000	0.000000	6.633020	-0.029453	NaN	0.000000	0.001635	0.001757	28.083	0.158938	0.002017	78.7992	-173.354	11.4612	0.051717	0.631723	-0.538944	-0.540318	-0.029453	78.7992	-0.538664	-1.182571E+7	2.490575E-9	NaN
748	1.000000	0.643103	7.37237e+06	-39689.1	1005.82	-29792.8	0.000000	0.000000	6.643028	0.030821	NaN	0.000000	0.001698	0.001739	28.0828	0.050753	0.002029	25.0177	13.1151	-164.148	-0.038557	0.641719	-0.528938	-0.530322	0.030821	25.0177	-0.529862	-8.92616e+06	-3.452918E-9	NaN
748	1.000000	0.653044	7.37237e+06	-39689.1	1005.82	-29792.8	0.000000	0.000000	6.652970	0.039805	NaN	0.000000	0.001701	0.001760	28.0829	0.093915	0.002069	45.3855	-92.4154	16.8697	0.004217	0.651671	-0.518997	-0.520370	0.039805	45.3855	-0.519655	-6.43874e+06	-6.182040E-9	NaN
748	1.000000	0.663077	7.37237e+06	-39689.1	1005.82	-29792.8	0.000000	0.000000	6.663000	-0.028978	NaN	0.000000	0.001642	0.001756	28.083	0.011549	0.001958	5.898015	123.774	-164.829	-0.043276	0.661781	-0.508964	-0.510260	-0.028978	5.898015	-0.505279	-4.06106e+06	7.135645E-9	NaN
748	1.000000	0.673106	7.37237e+06	-39689.1	1005.82	-29792.8	0.000000	0.000000	6.673027	-0.093201	NaN	0.000000	0.001605	0.001793	28.0844	0.140654	0.001998	70.4101	132.898	15.1527	-0.059466	0.671709	-0.498935	-0.500332	-0.093201	70.4101	-0.497942	-3.20854e+06	2.904774E-8	NaN
748	1.000000	0.683086	7.37237e+06	-39689.1	1005.82	-29792.8	0.000000	0.000000	6.683012	0.042551	NaN	0.000000	0.001597	0.001783	28.0842	0.051370	0.002077	24.7378	79.3841	-165.766	-0.009574	0.681762	-0.488956	-0.490279	0.042551	24.7378	-0.490246	-2.5051e+06	-1.698578E-8	NaN
748	1.000000	0.693089	7.37237e+06	-39689.1	1005.82	-29792.8	0.000000	0.000000	6.693012	-0.041907	NaN	0.000000	0.001607	0.001788	28.0843	0.095672	0.001861	51.4063	-0.851319	13.4292	0.032764	0.691738	-0.478952	-0.480303	-0.041907	51.4063	-0.478341	-1.70725e+06	2.454666E-8	NaN
748	1.000000	0.703110	7.37237e+06	-39689.1	1005.82	-29792.8	0.000000	0.000000	6.703036	0.051278	NaN	0.000000	0.001572	0.001882	28.0842	0.096435	0.001901	50.7186	75.747	-166.744	0.074390	0.701792	-0.468932	-0.470249	0.051278	50.7186	-0.469690	-1.29139e+06	-3.970734E-8	NaN
748	1.000000	0.713123	7.37237e+06	-39689.1	1005.82	-29792.8	0.000000	0.000000	6.713045	-0.059353	NaN	0.000000	0.001598	0.001824	28.0844	0.075794	0.002028	37.3687	75.9536	13.3722	-0.049803	0.711739	-0.458918	-0.460302	-0.059353	37.3687	-0.457727	-877127	6.766794E-8	NaN
748	1.000000	0.723089	7.37237e+06	-39689.1	1005.82	-29792.8	0.000000	0.000000	6.723011	-0.053855	NaN	0.000000	0.001625	0.001839	28.0843	0.057412	0.001877	30.5907	165.279	-164.702	0.020844	0.721843	-0.448952	-0.450198	-0.053855	30.5907	-0.447632	-632387	8.516138E-8	NaN
748	1.000000	0.733146	7.37237e+06	-39689.1	1005.82	-29792.8	0.000000	0.000000	6.733069	-0.021056	NaN	0.000000	0.001656	0.001832	28.0843	0.069949	0.001976	35.3929	60.0631	12.8269	-0.032383	0.731757	-0.438896	-0.440284	-0.021056	35.3929	-0.438449	-469327	4.486334E-8	NaN
748	1.000000	0.743142	7.37237e+06	-39689.1	1005.82	-29792.8	0.000000	0.000000	6.743066	0.011909	NaN	0.000000	0.001633	0.001777	28.0845	0.083040	0.002101	39.5239	121.651	-165.908	0.041634	0.741823	-0.428900	-0.430218	0.011909	39.5239	-0.429126	-346489	-3.436949E-8	NaN
748	1.000000	0.753143	7.37237e+06	-39689.1	1005.82	-29792.8	0.000000	0.000000	6.753066	-0.022103	NaN	0.000000	0.001614	0.001779	28.0842	0.053503	0.002005	26.684	116.445	20.84	0.012632	0.751738	-0.418898	-0.420304	-0.022103	26.684	-0.418277	-243207	9.088220E-8	NaN
748	1.000000	0.763145	7.37237e+06	-39689.1	1005.82	-29792.8	0.000000	0.000000	6.763070	0.017199	NaN	0.000000	0.001599	0.001782	28.0843	0.033475	0.002123	15.7653	171.623	-161.031	-0.040624	0.761848	-0.408896	-0.410193	0.017199	15.7653	-0.409715	-183798	-9.357494E-8	NaN
748	1.000000	0.773131	7.37237e+06	-39689.1	1005.82	-29792.8	0.000000	0.000000	6.773055	-0.004458	NaN	0.000000	0.001630	0.001781	28.0842	0.100966	0.001996	50.5775	-15.3634	14.8193	-0.013880	0.771783	-0.398910	-0.400258	-0.004458	50.5775	-0.398844	-128678	3.464611E-8	NaN
748	1.000000	0.783091	7.37237e+06	-39689.1	1005.82	-29792.8	0.000000	0.000000	6.783015	-0.030395	NaN	0.000000	0.001664	0.001778	28.0844	0.131906	0.002034	64.8639	36.6503	-162.686	-0.065560	0.781835	-0.388950	-0.390206	-0.030395	64.8639	-0.388598	-91856.8	3.308978E-7	NaN
748	1.000000	0.793127	7.37237e+06	-39689.1	1005.82	-29792.8	0.000000	0.000000	6.793052	-0.000664	NaN	0.000000	0.001630	0.001759	28.0841	0.015538	0.001999	7.774478	79.7778	15.6227	-0.029030	0.791760	-0.378914	-0.380281	-0.000664	7.774478	-0.378850	-66585.3	9.968905E-9	NaN
748	1.000000	0.803128	7.37237e+06	-39689.1	1005.82	-29792.8	0.000000	0.000000	6.803052	-0.017885	NaN	0.000000	0.001637	0.001761	28.0842	0.071561	0.001917	37.3205	-175.118	-165.526	0.045159	0.801800	-0.368913	-0.370241	-0.017885	37.3205	-0.368553	-47346.6	3.777464E-7	NaN
748	1.000000	0.813127	7.37237e+06	-39689.1	1005.82	-29792.8	0.000000	0.000000	6.813051	-0.016015	NaN	0.000000	0.001618	0.001753	28.0829	0.075125	0.001968	38.1809	44.4471	12.5084	-0.088347	0.811793	-0.358914	-0.360248	-0.016015	38.1809	-0.358599	-34008.7	4.709003E-7	NaN
748	1.000000	0.823134	7.37237e+06	-39689.1	1005.82	-29792.8	0.000000	0.000000	6.823055	-0.081509	NaN	0.000000	0.001608	0.001746	28.0831	0.105119	0.002020	52.0431	146.645	-166.358	-0.101084	0.821806	-0.348908	-0.350235	-0.081509	52.0431	-0.347733	-23663.7	3.444458E-6	NaN
748	1.000000	0.833146	7.37237e+06	-39689.1	1005.82	-29792.8	0.000000	0.000000	6.833072	0.052839	NaN	0.000000	0.001666	0.001769	28.0829	0.027650	0.002052	13.474	148.574	17.0848	0.054387	0.831800	-0.338895	-0.340241	0.052839	13.474	-0.341836	-19422.8	-2.720476E-6	NaN
748	1.000000	0.843149	7.37237e+06	-39689.1	1005.82	-29792.8	0.000000	0.000000	6.843075	0.030938	NaN	0.000000	0.001629	0.001745	28.083	0.127128	0.002119	60.005	137.497	-165.138	0.012940	0.841843	-0.328892	-0.330198	0.030938	60.005	-0.329279	-12731.7	-2.429989E-6	NaN
748	1.000000	0.853149	7.37237e+06	-39689.1	1005.82	-29792.8	0.000000	0.000000	6.853075	0.023481	NaN	0.000000	0.001599	0.001698	28.083	0.094760	0.002092	45.3029	-171.569	16.793	0.005035	0.851859	-0.318892	-0.320182	0.023481	45.3029	-0.319281	-9079.2	-2.586263E-6	NaN
748	1.000000	0.863145	7.37237e+06	-39689.1	1005.82	-29792.8	0.000000	0.000000	6.863071	0.041727	NaN	0.000000	0.001660	0.001697	28.0832	0.060941	0.002050	29.7224	145.31	-166.07	0.005406	0.861818	-0.308896	-0.310223	0.041727	29.7224	-0.309949	-6611.51	-6.311219E-6	NaN
748	1.000000	0.873179	7.37237e+06	-39689.1	1005.82	-29792.8	0.000000	0.000000	6.873106	0.053279	NaN	0.000000	0.001654	0.001696	28.0829	0.021351	0.001878	11.3686	94.5197	15.1782	0.075329	0.871800	-0.298862	-0.300241	0.053279	11.3686	-0.302377	-5104.96	-1.043670E-5	NaN
748	1.000000	0.883167	7.37237e+06	-39689.1	1005.82	-29792.8	0.000000	0.000000	6.883088	-0.081996	NaN	0.000000	0.001604	0.001734	28.0831	0.039331	0.002073	18.9734	105.879	-166.293	-0.080706	0.881893	-0.288875	-0.290148	-0.081996	18.9734	-0.285633	-2869.37	2.857616E-5	NaN
748	1.000000	0.893176	7.37237e+06	-39689.1	1005.82	-29792.8	0.000000	0.000000	6.893099	-0.036611	NaN	0.000000	0.001690	0.001703	28.0832	0.024707	0.002108	11.7178	-129.851	15.5361	0.047298	0.891851	-0.278865	-0.280190	-0.036611	11.7178	-0.276522	-2091.39	1.750552E-5	NaN
748	1.000000	0.903215	7.37237e+06	-39689.1	1005.82	-29792.8	0.000000	0.000000	6.903140	0.001017	NaN	0.000000	0.001668	0.001722	28.083	0.080562	0.001987	40.5452	149.96	-160.79	-0.070702	0.901867	-0.268826	-0.270174	0.001017	40.5452	-0.268845	-1599.46	-6.358132E-7	NaN
748	1.000000	0.913198	7.37237e+06	-39689.1	1005.82	-29792.8	0.000000	0.000000	6.913123	0.034500	NaN	0.000000	0.001709	0.001703	28.0833	0.070474	0.002077	33.9238	-156.408	14.2643	0.088252	0.911816	-0.258844	-0.260225	0.034500	33.9238	-0.259606	-1155.8	-2.984991E-5	NaN
748	1.000000	0.923178	7.37237e+06	-39689.1	1005.82	-29792.8	0.000000	0.000000	6.923103	0.004077	NaN	0.000000	0.001698	0.001756	28.0828	0.091262	0.002113	43.1895	127.036	-166.976	0.005191	0.921906	-0.248863	-0.250135	0.004077	43.1895	-0.248934	-791.524	-5.151190E-6	NaN
748	1.000000	0.933199	7.37237e+06	-39689.1	1005.82	-29792.8	0.000000	0.000000	6.933127	0.093612	NaN	0.000000	0.001707	0.001732	28.0832	0.080527	0.002028	39.7096	122.094	16.862	0.077982	0.931862	-0.238842	-0.240179	0.093612	39.7096	-0.240611	-587.606	-0.000159	NaN
748	1.000000	0.943195	7.37237e+06	-39689.1	1005.82	-29792.8	0.000000	0.000000	6.943117	-0.045333	NaN	0.000000	0.001696	0.001733	28.0842	0.112241	0.002131	52.6757	121.881	-165.823	-0.100873	0.941899	-0.228847	-0.230142	-0.045333	52.6757	-0.228201	-375.044	0.000121	NaN
748	1.000000	0.953220	7.37237e+06	-39689.1	1005.82	-29792.8	0.000000	0.000000	6.953143	-0.039576	NaN	0.000000	0.001658	0.001743	28.0843	0.088037	0.001913	46.0209	-80.5994	15.6746	-0.028170	0.951837	-0.218821	-0.220204	-0.039576	46.0209	-0.218176	-259.716	0.000152	NaN
748	1.000000	0.963199	7.37237e+06	-39689.1	1005.82	-29792.8	0.000000	0.000000	6.963124	0.027312	NaN	0.000000	0.001612	0.001704	28.0842	0.061005	0.002070	29.4678	133.312	-163.92	0.060906	0.961900	-0.208842	-0.210141	0.027312	29.4678	-0.209537	-188.506	-0.000145	NaN
748	1.000000	0.973218	7.37237e+06	-39689.1	1005.82	-29792.8	0.000000	0.000000	6.973143	0.024159	NaN	0.000000	0.001652	0.001710	28.0843	0.060352	0.002051	29.4212	-8.614829	12.9654	0.014024	0.971806	-0.198823	-0.200235	0.024159	29.4212	-0.199439	-128.966	-0.000187	NaN
748	1.000000	0.983223	7.37237e+06	-39689.1	1005.82	-29792.8	0.000000	0.000000	6.983147	-0.016140	NaN	0.000000	0.001665	0.001718	28.084	0.088142	0.002071	42.5566	-104.912	-162.859	0.004168	0.981942	-0.188818	-0.190100	-0.016140	42.5566	-0.188534	-85.0158	0.000190	NaN
748	1.000000	0.993221	7.37237e+06	-39689.1	1005.82	-29792.8	0.000000	0.000000	6.993144	-0.026240	NaN	0.000000	0.001641	0.001720	28.0842	0.021647	0.002097	10.3229	38.7499	12.1557	-0.025482	0.991881	-0.178820	-0.180160	-0.026240	10.3229	-0.176914	-54.0512	0.000485	NaN
748	1.000000	1.003236	7.37238e+06	-39689.1	1005.82	-29792.8	0.000000	0.000000	7.003163	0.064069	NaN	0.000000	0.001660	0.001677	28.0845	0.050905	0.002014	25.2774	-135.871	-167.258	-0.008866	1.001894	-0.168805	-0.170147	0.064069	25.2774	-0.170706	-42.2537	-0.001516	NaN
748	1.000000	1.013234	7.37238e+06	-39689.1	1005.82	-29792.8	0.000000	0.000000	7.013158	-0.012728	NaN	0.000000	0.001687	0.001687	28.0844	0.137953	0.002013	68.5338	-30.4476	15.9823	-0.071924	1.011909	-0.158807	-0.160132	-0.012728	68.5338	-0.158668	-25.9581	0.000490	NaN
748	1.000000	1.023197	7.37238e+06	-39689.1	1005.82	-29792.8	0.000000	0.000000	7.023122	0.012347	NaN	0.000000	0.001624	0.001732	28.0841	0.042067	0.002021	20.8107	167.501	-165.55	0.033989	1.021960	-0.148844	-0.150081	0.012347	20.8107	-0.149289	-17.58	-0.000702	NaN
748	1.000000	1.033217	7.37238e+06	-39689.1	1005.82	-29792.8	0.000000	0.000000	7.033143	0.025348	NaN	0.000000	0.001622	0.001661	28.0843	0.027420	0.002023	13.5519	-13.992	18.3944	0.056235	1.031924	-0.138824	-0.140117	0.025348	13.5519	-0.140227	-11.946	-0.002122	NaN
748	1.000000	1.043254	7.37238e+06	-39689.1	1005.82	-29792.8	0.000000	0.000000	7.043180	0.036305	NaN	0.000000	0.001623	0.001703	28.0845	0.066709	0.002032	32.8324	-46.5281	-165.164	0.104100	1.041893	-0.128787	-0.130148	0.036305	32.8324	-0.129616	-7.491143	-0.004846	NaN
748	1.000000	1.053229	7.37238e+06	-39689.1	1005.82	-29792.8	0.000000	0.000000	7.053154	0.013727	NaN	0.000000	0.001591	0.001707	28.0842	0.084173	0.002022	41.6233	89.7606	14.8748	-0.037596	1.051882	-0.118812	-0.120159	0.013727	41.6233	-0.119059	-4.624410	-0.002968	NaN
748	1.000000	1.063242	7.37238e+06	-39689.1	1005.82	-29792.8	0.000000	0.000000	7.063166	-0.006605	NaN	0.000000	0.001635	0.001683	28.0843	0.100347	0.002087	48.0876	28.2719	-165.857	0.078296	1.061913	-0.108799	-0.110128	-0.006605	48.0876	-0.108696	-2.820273	0.002342	NaN
748	1.000000	1.073254	7.37238e+06	-39689.1	1005.82	-29792.8	0.000000	0.000000	7.073183	0.095202	NaN	0.000000	0.001634	0.001729	28.0844	0.061129	0.001972	31.0009	-138.866	18.3029	0.112769	1.071883	-0.098787	-0.100158	0.095202	31.0009	-0.101090	-1.931384	-0.049292	NaN
748	1.000000	1.083244	7.37238e+06	-39689.1	1005.82	-29792.8	0.000000	0.000000	7.083170	0.050687	NaN	0.000000	0.001585	0.001685	28.0831	0.043388	0.002111	20.5548	127.897	-166.206	0.018564	1.081949	-0.088798	-0.090092	0.050687	20.5548	-0.090647	-1.119355	-0.045282	NaN
748	1.000000	1.093252	7.37238e+06	-39689.1	1005.82	-29792.8	0.000000	0.000000	7.093176	-0.010077	NaN	0.000000	0.001620	0.001725	28.0832	0.068828	0.002111	32.6099	137.048	16.2581	0.076842	1.091857	-0.078789	-0.080184	-0.010077	32.6099	-0.078558	-0.569437	0.017696	NaN
748	1.000000	1.103265	7.37238e+06	-39689.1	1005.82	-29792.8	0.000000	0.000000	7.103192	0.070721	NaN	0.000000	0.001594	0.001741	28.083	0.047495	0.002044	23.2406	3.541200	-163.921	0.152237	1.101903	-0.068776	-0.070138	0.070721	23.2406	-0.071059	-0.364035	-0.194270	NaN
748	1.000000	1.113267	7.37238e+06	-39689.1	1005.82	-29792.8	0.000000	0.000000	7.113191	-0.010750	NaN	0.000000	0.001618	0.001732	28.0835	0.074319	0.001922	38.671	117.17	14.0716	-0.003844	1.111859	-0.058774	-0.060182	-0.010750	38.671	-0.058566	-0.163744	0.065649	NaN
748	1.000000	1.123241	7.37238e+06	-39689.1	1005.82	-29792.8	0.000000	0.000000	7.123166	0.034131	NaN	0.000000	0.001581	0.001730	28.0829	0.093357	0.002122	43.9993	130.278	-168.984	0.022243	1.121938	-0.048800	-0.050104	0.034131	43.9993	-0.049382	-0.087405	-0.390500	NaN
748	1.000000	1.133277	7.37238e+06	-39689.1	1005.82	-29792.8	0.000000	0.000000	7.133204	0.069027	NaN	0.000000	0.001573	0.001756	28.083	0.022872	0.002104	10.872	128.159	15.2478	0.006091	1.131935	-0.038764	-0.040107	0.069027	10.872	-0.043526	-0.057931	-1.191541	NaN
748	1.000000	1.143283	7.37238e+06	-39689.1	1005.82	-29792.8	0.000000	0.000000	7.143209	0.041250	NaN	0.000000	0.001648	0.001715	28.0828	0.037946	0.002032	18.6708	157.931	-161.389	0.023812	1.141981	-0.028758	-0.030061	0.041250	18.6708	-0.030415	-0.023636	-1.745225	NaN
748	1.000000	1.153277	7.37238e+06	-39689.1	1005.82	-29792.8	0.000000	0.000000	7.153203	0.041918	NaN	0.000000	0.001625	0.001712	28.0834	0.099234	0.002029	48.9165	-125.896	18.7016	0.009070	1.151915	-0.018764	-0.020126	0.041918	48.9165	-0.019407	-0.012131	-3.455360	NaN
748	1.000000	1.163287	7.37238e+06	-39689.1	1005.82	-29792.8	0.000000	0.000000	7.163212	0.013340	NaN	0.000000	0.001641	0.001707	28.0827	0.103824	0.002036	50.9936	31.9053	-165.269	-0.028476	1.161929	-0.008754	-0.010112	0.013340	50.9936	-0.008950	-0.005784	-2.306264	NaN
748	1.000000	1.173279	7.37238e+06	-39689.1	1005.82	-29792.8	0.000000	0.000000	7.173343	3.397972	NaN	0.000000	0.001624	0.001696	28.0829	3.949783	0.001775	2225.82	12.6973	10.6835	2.072825	1.171888	0.001238	-0.000153	3.397972	2225.82	9.286491E-5	6.952373E-5	48875	243891
748	2.000000	1.179917	7.37238e+06	-39689.1	1005.82	-29792.8	0.000000	0.000000	7.180228	9.414714	NaN	0.000000	0.001604	0.001708	28.0829	9.003539	0.001591	5658.62	9.221906	-175.174	9.424818	1.179638	0.007876	0.007596	9.414714	5658.62	0.006628	0.005669	1660.78	68665
748	2.000000	1.182397	7.37238e+06	-39689.1	1005.82	-29792.8	0.000000	0.000000	7.182870	13.3482	NaN	0.000000	0.001564	0.001745	28.0833	11.9862	0.001737	6902.17	5.431919	8.304972	12.2574	1.182079	0.010356	0.010038	13.3482	6902.17	0.008905	0.007990	1670.55	70546.9
748	2.000000	1.184912	7.37238e+06	-39689.1	1005.82	-29792.8	0.000000	0.000000	7.185510	16.4104	NaN	0.000000	0.001607	0.001692	28.0827	14.7796	0.001981	7459.87	8.027657	-173.725	16.8713	1.184586	0.012870	0.012545	16.4104	7459.87	0.011221	0.010570	1552.59	66293.8
748	2.000000	1.187351	7.37238e+06	-39689.1	1005.82	-29792.8	0.000000	0.000000	7.188168	21.7361	NaN	0.000000	0.001619	0.001735	28.0832	16.8947	0.001739	9715.65	4.137529	7.110306	20.444	1.186954	0.015310	0.014912	21.7361	9715.65	0.013632	0.013504	1609.63	76386.6
748	2.000000	1.189825	7.37238e+06	-39689.1	1005.82	-29792.8	0.000000	0.000000	7.190985	30.0705	NaN	0.000000	0.001709	0.001709	28.0839	19.6015	0.001704	11505.3	3.180386	-174.553	28.2038	1.189495	0.017784	0.017454	30.0705	11505.3	0.015823	0.016399	1833.65	82084.3
748	2.000000	1.192350	7.37238e+06	-39689.1	1005.82	-29792.8	0.000000	0.000000	7.193582	31.818	NaN	0.000000	0.001650	0.001683	28.0847	22.2395	0.001941	11455.9	5.435339	4.855138	31.3805	1.191942	0.020309	0.019901	31.818	11455.9	0.018226	0.019830	1604.52	74325.3
748	2.000000	1.194821	7.37238e+06	-39689.1	1005.82	-29792.8	0.000000	0.000000	7.196264	36.9507	NaN	0.000000	0.001686	0.001696	28.0841	24.6918	0.001887	13084.1	6.162361	-178.102	36.0243	1.194574	0.022780	0.022533	36.9507	13084.1	0.020662	0.023593	1566.17	77826.2
748	2.000000	1.197388	7.37238e+06	-39689.1	1005.82	-29792.8	0.000000	0.000000	7.199162	45.0137	NaN	0.000000	0.001687	0.001697	28.0848	26.177	0.001743	15022.6	3.876166	4.075256	43.59	1.196965	0.025346	0.024924	45.0137	15022.6	0.023099	0.027648	1628.1	82544
748	2.000000	1.199897	7.37238e+06	-39689.1	1005.82	-29792.8	0.000000	0.000000	7.201846	49.2718	NaN	0.000000	0.001657	0.001719	28.0848	28.9652	0.001842	15727.4	8.033106	179.159	50.853	1.199541	0.027856	0.027499	49.2718	15727.4	0.025506	0.031943	1542.5	80397.8
748	2.000000	1.202333	7.37238e+06	-39689.1	1005.82	-29792.8	0.000000	0.000000	7.204710	59.6943	NaN	0.000000	0.001618	0.001697	28.0851	32.4943	0.001742	18652.6	4.858317	-0.248998	58.0835	1.201932	0.030292	0.029891	59.6943	18652.6	0.027892	0.036487	1636.05	89216.4
748	2.000000	1.204834	7.37238e+06	-39689.1	1005.82	-29792.8	0.000000	0.000000	7.207466	65.8899	NaN	0.000000	0.001583	0.001699	28.0843	35.5202	0.001796	19778.5	8.578697	175.062	64.4584	1.204584	0.032793	0.032542	65.8899	19778.5	0.030294	0.041356	1593.24	88858.1
748	2.000000	1.207337	7.37238e+06	-39689.1	1005.82	-29792.8	0.000000	0.000000	7.210368	75.588	NaN	0.000000	0.001576	0.001725	28.0844	36.1322	0.001823	19823.9	3.412175	0.927820	74.4098	1.207071	0.035296	0.035030	75.588	19823.9	0.032437	0.045945	1645.17	84497.2
748	2.000000	1.209790	7.37238e+06	-39689.1	1005.82	-29792.8	0.000000	0.000000	7.213447	90.8395	NaN	0.000000	0.001546	0.001707	28.0845	38.8892	0.001674	23224.4	7.729919	175.444	89.1243	1.209435	0.037749	0.037394	90.8395	23224.4	0.034815	0.051317	1770.17	93667.1
748	2.000000	1.212292	7.37238e+06	-39689.1	1005.82	-29792.8	0.000000	0.000000	7.216214	97.2837	NaN	0.000000	0.001607	0.001689	28.0849	41.8607	0.001908	21939.5	7.147652	-3.028178	95.8985	1.211929	0.040251	0.039888	97.2837	21939.5	0.036926	0.056324	1727.2	84460.2
748	2.000000	1.214779	7.37238e+06	-39689.1	1005.82	-29792.8	0.000000	0.000000	7.219292	111.656	NaN	0.000000	0.001592	0.001730	28.0842	43.3301	0.001775	24404.5	3.671847	-179.99	109.628	1.214427	0.042738	0.042385	111.656	24404.5	0.039306	0.062248	1793.72	89367.5
748	2.000000	1.217335	7.37238e+06	-39689.1	1005.82	-29792.8	0.000000	0.000000	7.222107	117.963	NaN	0.000000	0.001651	0.001695	28.0845	45.6706	0.001807	25268.9	7.278724	-3.774945	116.786	1.216998	0.045294	0.044956	117.963	25268.9	0.041793	0.068744	1715.98	88052.8
748	2.000000	1.219803	7.37238e+06	-39689.1	1005.82	-29792.8	0.000000	0.000000	7.225138	131.656	NaN	0.000000	0.001614	0.001733	28.0845	48.2106	0.001786	26994.7	7.582490	174.007	132.516	1.219457	0.047762	0.047416	131.656	26994.7	0.044104	0.075065	1753.9	90018.8
748	2.000000	1.222272	7.37238e+06	-39689.1	1005.82	-29792.8	0.000000	0.000000	7.227995	141.122	NaN	0.000000	0.001605	0.001727	28.0834	50.9351	0.001787	28498.4	1.366468	0.134304	139.761	1.221952	0.050231	0.049911	141.122	28498.4	0.046517	0.081951	1722.03	90952.9
748	2.000000	1.224780	7.37238e+06	-39689.1	1005.82	-29792.8	0.000000	0.000000	7.231190	157.811	NaN	0.000000	0.001635	0.001727	28.0829	54.0878	0.001853	29182.2	4.366351	177.432	157.146	1.224525	0.052739	0.052484	157.811	29182.2	0.048683	0.088387	1785.45	89680.2
748	2.000000	1.227296	7.37238e+06	-39689.1	1005.82	-29792.8	0.000000	0.000000	7.234071	166.697	NaN	0.000000	0.001634	0.001712	28.083	55.3376	0.001815	30493.7	3.146691	-2.347316	165.233	1.226983	0.055255	0.054942	166.697	30493.7	0.051155	0.096018	1736.11	89910
748	2.000000	1.229841	7.37238e+06	-39689.1	1005.82	-29792.8	0.000000	0.000000	7.237006	176.193	NaN	0.000000	0.001651	0.001715	28.0829	58.3531	0.001722	33877	8.157192	171.913	179.58	1.229437	0.057800	0.057396	176.193	33877	0.053899	0.104846	1680.5	95588.1
748	2.000000	1.232250	7.37238e+06	-39689.1	1005.82	-29792.8	0.000000	0.000000	7.240255	196.632	NaN	0.000000	0.001623	0.001712	28.083	60.6186	0.001826	33194.4	6.326205	-6.016121	195.178	1.231929	0.060209	0.059888	196.632	33194.4	0.055766	0.111065	1770.42	91001.9
748	2.000000	1.234768	7.37238e+06	-39689.1	1005.82	-29792.8	0.000000	0.000000	7.243277	208.904	NaN	0.000000	0.001604	0.001708	28.083	62.5695	0.001831	34167	0.862924	178.916	207.498	1.234482	0.062727	0.062441	208.904	34167	0.058141	0.119228	1752.14	90404.9
748	2.000000	1.237295	7.37238e+06	-39689.1	1005.82	-29792.8	0.000000	0.000000	7.246560	227.297	NaN	0.000000	0.001640	0.001669	28.0832	65.5059	0.001889	34682	5.619863	-5.533212	226.083	1.236906	0.065254	0.064864	227.297	34682	0.060338	0.127024	1789.4	88906.6
748	2.000000	1.239774	7.37238e+06	-39689.1	1005.82	-29792.8	0.000000	0.000000	7.249650	242.165	NaN	0.000000	0.001606	0.001704	28.0828	66.8608	0.001696	39426.3	6.360311	173.187	241.226	1.239402	0.067733	0.067361	242.165	39426.3	0.063127	0.137258	1764.31	97227.7
748	2.000000	1.242259	7.37238e+06	-39689.1	1005.82	-29792.8	0.000000	0.000000	7.252960	262.243	NaN	0.000000	0.001621	0.001718	28.0827	68.7362	0.001753	39218.9	0.965214	-2.432204	258.393	1.241931	0.070218	0.069890	262.243	39218.9	0.065203	0.145122	1807.05	94059.3
748	2.000000	1.244708	7.37238e+06	-39689.1	1005.82	-29792.8	0.000000	0.000000	7.256329	284.62	NaN	0.000000	0.001639	0.001703	28.0828	72.339	0.001882	38435.1	5.162872	174.204	279.873	1.244352	0.072667	0.072311	284.62	38435.1	0.067113	0.152543	1865.83	89909.4
748	2.000000	1.247178	7.37238e+06	-39689.1	1005.82	-29792.8	0.000000	0.000000	7.259070	291.235	NaN	0.000000	0.001655	0.001735	28.0828	73.0785	0.001793	40752.3	3.683514	-4.897507	283.812	1.246935	0.075137	0.074894	291.235	40752.3	0.069777	0.163182	1784.73	92170.1
748	2.000000	1.249682	7.37238e+06	-39689.1	1005.82	-29792.8	0.000000	0.000000	7.262428	312.002	NaN	0.000000	0.001629	0.001750	28.0827	75.7696	0.001779	42596	3.540230	174.283	307.223	1.249406	0.077641	0.077365	312.002	42596	0.072147	0.172932	1804.19	93584.5
748	2.000000	1.252283	7.37238e+06	-39689.1	1005.82	-29792.8	0.000000	0.000000	7.265727	328.992	NaN	0.000000	0.001672	0.001778	28.0827	78.4795	0.001781	44075.4	2.558033	-4.080771	326.944	1.251892	0.080242	0.079851	328.992	44075.4	0.074643	0.183488	1792.99	94008.1
748	2.000000	1.254751	7.37238e+06	-39689.1	1005.82	-29792.8	0.000000	0.000000	7.269007	348.754	NaN	0.000000	0.001612	0.001763	28.0828	81.6831	0.001810	45123.5	2.193945	175.608	346.9	1.254389	0.082710	0.082348	348.754	45123.5	0.076913	0.193341	1803.83	93759.3
748	2.000000	1.257154	7.37238e+06	-39689.1	1005.82	-29792.8	0.000000	0.000000	7.272084	365.167	NaN	0.000000	0.001593	0.001741	28.084	83.183	0.001729	48123.7	4.783476	-7.302483	357.571	1.256831	0.085112	0.084789	365.167	48123.7	0.079421	0.204510	1785.57	97224.2
748	2.000000	1.259831	7.37238e+06	-39689.1	1005.82	-29792.8	0.000000	0.000000	7.275310	378.497	NaN	0.000000	0.001609	0.001732	28.084	84.9876	0.001737	48941.4	3.189429	174.385	380.081	1.259470	0.087790	0.087428	378.497	48941.4	0.081990	0.216252	1750.26	96154.6
748	2.000000	1.262204	7.37238e+06	-39689.1	1005.82	-29792.8	0.000000	0.000000	7.278860	407.16	NaN	0.000000	0.001613	0.001762	28.084	86.4009	0.001768	48868.5	-0.422880	-2.063816	402.608	1.261861	0.090163	0.089819	407.16	48868.5	0.083914	0.225248	1807.6	94074.5
748	2.000000	1.264725	7.37238e+06	-39689.1	1005.82	-29792.8	0.000000	0.000000	7.282095	424.529	NaN	0.000000	0.001613	0.001692	28.0841	90.2986	0.001797	50257	1.755895	175.402	421.997	1.264380	0.092684	0.092339	424.529	50257	0.086349	0.236877	1792.19	94342.7
748	2.000000	1.267256	7.37238e+06	-39689.1	1005.82	-29792.8	0.000000	0.000000	7.285097	435.976	NaN	0.000000	0.001636	0.001807	28.0838	91.567	0.001816	50415.4	0.943873	-3.799077	433.376	1.267030	0.095215	0.094989	435.976	50415.4	0.088729	0.248513	1754.34	92397.9
748	2.000000	1.269705	7.37238e+06	-39689.1	1005.82	-29792.8	0.000000	0.000000	7.288840	467.484	NaN	0.000000	0.001615	0.001752	28.084	92.7607	0.001738	53358.7	3.319817	173.482	465.179	1.269391	0.097664	0.097350	467.484	53358.7	0.091093	0.260322	1795.79	95548.3
748	2.000000	1.272258	7.37238e+06	-39689.1	1005.82	-29792.8	0.000000	0.000000	7.292099	484.665	NaN	0.000000	0.001638	0.001732	28.0839	95.7913	0.001673	57246.3	1.336741	-5.091890	482.224	1.271891	0.100217	0.099850	484.665	57246.3	0.093867	0.274509	1765.57	99825.8
748	2.000000	1.274678	7.37238e+06	-39689.1	1005.82	-29792.8	0.000000	0.000000	7.295316	504.074	NaN	0.000000	0.001644	0.001780	28.084	100.085	0.001821	54976.9	4.450200	172.1	501.192	1.274346	0.102636	0.102305	504.074	54976.9	0.095760	0.284390	1772.47	94188.1
748	2.000000	1.277247	7.37238e+06	-39689.1	1005.82	-29792.8	0.000000	0.000000	7.298859	527.753	NaN	0.000000	0.001626	0.001775	28.0838	100.8	0.001692	59581	2.179416	-5.844827	525.786	1.276897	0.105206	0.104856	527.753	59581	0.098562	0.299322	1763.16	99497.4