File: remote_trans/data/nanoindenter/0828-1/data/Data_2025-08-06,11h17m57s/2025-07-22_16-23-58_1_1203.txt
2025-07-22, 16:23:58, 1
Index	Phase	Displacement	Time	Pos X	Pos Y	Pos Z	Rot A	Rot B	Piezo Z	Force A	Force B	Gripper	Voltage A	Voltage B	Temperature	Amplitude force	Amplitude pos	Stiffness	Phase shift	Phase excitation	Force A raw	Displacement raw	HMax	HMax raw	Real Force	Real Stiffness	Contact Depth	Area	Hardness	Reduced Mod.
[#]	[#]	[um]	[s]	[um]	[um]	[um]	[m°]	[m°]	[um]	[uN]	[uN]	[V]	[V]	[V]	[°C]	[uN]	[um]	[N/m]	[°]	[°]	[uN]	[um]	[um]	[um]	[uN]	[N/m]	[um]	[um^2]	[MPa]	[MPa]
1203	1.000000	0.003251	7.37681e+06	-55439.1	1105.82	-29741.4	0.000000	0.000000	6.002784	-0.018376	NaN	0.000000	0.001558	0.001638	28.0804	0.099576	0.000963	103.443	-82.3125	-168.176	-0.007896	0.002005	-1.094750	-1.095995	-0.018376	103.443	-1.094616	-4.244198E+14	4.329640E-17	NaN
1203	1.000000	0.011242	7.37681e+06	-55439.1	1105.82	-29741.4	0.000000	0.000000	6.010779	0.051266	NaN	0.000000	0.001517	0.001658	28.0802	0.014683	0.000979	14.9965	-137.043	-156.782	0.054119	0.009891	-1.086758	-1.088109	0.051266	14.9965	-1.089322	-3.603340E+14	-1.422728E-16	NaN
1203	1.000000	0.019229	7.37681e+06	-55439.1	1105.82	-29741.4	0.000000	0.000000	6.018765	0.030933	NaN	0.000000	0.001530	0.001660	28.08	0.129124	0.001789	72.1962	-156.368	-165.871	0.013230	0.017965	-1.078771	-1.080036	0.030933	72.1962	-1.079092	-2.626197E+14	-1.177865E-16	NaN
1203	1.000000	0.027226	7.37681e+06	-55439.1	1105.82	-29741.4	0.000000	0.000000	6.026757	-0.064762	NaN	0.000000	0.001512	0.001661	28.0801	0.057802	0.001880	30.7525	162.571	-166.554	0.032096	0.025855	-1.070774	-1.072145	-0.064762	30.7525	-1.069195	-1.933631E+14	3.349248E-16	NaN
1203	1.000000	0.035212	7.37681e+06	-55439.1	1105.82	-29741.4	0.000000	0.000000	6.034743	-0.075842	NaN	0.000000	0.001545	0.001681	28.0802	0.050038	0.001731	28.8991	94.7142	-164.54	-0.089091	0.033882	-1.062789	-1.064118	-0.075842	28.8991	-1.060820	-1.492267E+14	5.082330E-16	NaN
1203	1.000000	0.043213	7.37681e+06	-55439.1	1105.82	-29741.4	0.000000	0.000000	6.042745	-0.032352	NaN	0.000000	0.001497	0.001662	28.0804	0.038891	0.002001	19.4378	37.1025	-166.441	-0.028485	0.041908	-1.054788	-1.056093	-0.032352	19.4378	-1.053539	-1.191218E+14	2.715912E-16	NaN
1203	1.000000	0.051201	7.37681e+06	-55439.1	1105.82	-29741.4	0.000000	0.000000	6.050735	-0.003722	NaN	0.000000	0.001505	0.001667	28.0802	0.083028	0.001901	43.6691	-62.9169	-166.824	0.042295	0.049903	-1.046799	-1.048097	-0.003722	43.6691	-1.046735	-9.649997E+13	3.857485E-17	NaN
1203	1.000000	0.059208	7.37681e+06	-55439.1	1105.82	-29741.4	0.000000	0.000000	6.058741	-0.017879	NaN	0.000000	0.001522	0.001660	28.0804	0.060782	0.001936	31.3947	128.656	-168.91	-0.066565	0.057875	-1.038792	-1.040125	-0.017879	31.3947	-1.038365	-7.447088E+13	2.400744E-16	NaN
1203	1.000000	0.067226	7.37681e+06	-55439.1	1105.82	-29741.4	0.000000	0.000000	6.066756	-0.079523	NaN	0.000000	0.001510	0.001659	28.0801	0.075026	0.001962	38.231	-7.169596	-164.834	-0.041239	0.065922	-1.030775	-1.032078	-0.079523	38.231	-1.029215	-5.609422E+13	1.417677E-15	NaN
1203	1.000000	0.075203	7.37681e+06	-55439.1	1105.82	-29741.4	0.000000	0.000000	6.074738	0.009840	NaN	0.000000	0.001512	0.001675	28.0802	0.077631	0.002126	36.5081	-125.107	-164.626	0.150543	0.073925	-1.022797	-1.024075	0.009840	36.5081	-1.022999	-4.627032E+13	-2.126737E-16	NaN
1203	1.000000	0.083236	7.37681e+06	-55439.1	1105.82	-29741.4	0.000000	0.000000	6.082770	-0.002049	NaN	0.000000	0.001534	0.001640	28.08	0.062474	0.001998	31.2665	-164.799	-162.731	-0.003665	0.081902	-1.014765	-1.016098	-0.002049	31.2665	-1.014715	-3.579665E+13	5.722663E-17	NaN
1203	1.000000	0.091251	7.37681e+06	-55439.1	1105.82	-29741.4	0.000000	0.000000	6.090786	0.027415	NaN	0.000000	0.001508	0.001679	28.0802	0.059900	0.002085	28.735	138.001	-163.486	-0.028785	0.089893	-1.006750	-1.008107	0.027415	28.735	-1.007465	-2.859319E+13	-9.587804E-16	NaN
1203	1.000000	0.099248	7.37681e+06	-55439.1	1105.82	-29741.4	0.000000	0.000000	6.098783	0.035528	NaN	0.000000	0.001525	0.001659	28.0803	0.030265	0.002043	14.8165	43.6057	-164.442	-0.035669	0.097962	-0.998753	-1.000038	0.035528	14.8165	-1.000551	-2.307740E+13	-1.539531E-15	NaN
1203	1.000000	0.107247	7.37681e+06	-55439.1	1105.82	-29741.4	0.000000	0.000000	6.106780	-0.021111	NaN	0.000000	0.001539	0.001663	28.0802	0.113967	0.001980	57.5707	64.5652	-167.062	0.082471	0.105918	-0.990753	-0.992083	-0.021111	57.5707	-0.990478	-1.688698E+13	1.250108E-15	NaN
1203	1.000000	0.115234	7.37681e+06	-55439.1	1105.82	-29741.4	0.000000	0.000000	6.114766	-0.037225	NaN	0.000000	0.001494	0.001642	28.0803	0.041630	0.002033	20.4769	73.4009	-160.367	-0.046773	0.113968	-0.982767	-0.984033	-0.037225	20.4769	-0.981403	-1.274426E+13	2.920925E-15	NaN
1203	1.000000	0.123262	7.37681e+06	-55439.1	1105.82	-29741.4	0.000000	0.000000	6.122795	-0.014208	NaN	0.000000	0.001503	0.001607	28.0817	0.099823	0.002106	47.4018	71.6667	-165.449	-0.044523	0.121928	-0.974739	-0.976072	-0.014208	47.4018	-0.974514	-1.029181E+13	1.380481E-15	NaN
1203	1.000000	0.131235	7.37681e+06	-55439.1	1105.82	-29741.4	0.000000	0.000000	6.130768	-0.022236	NaN	0.000000	0.001541	0.001654	28.0814	0.055585	0.002051	27.1043	58.8533	-166.887	0.053333	0.129941	-0.966766	-0.968059	-0.022236	27.1043	-0.966150	-7.939222E+12	2.800789E-15	NaN
1203	1.000000	0.139261	7.37681e+06	-55439.1	1105.82	-29741.4	0.000000	0.000000	6.138790	-0.142530	NaN	0.000000	0.001548	0.001681	28.0815	0.052268	0.002034	25.6912	12.361	-165.763	-0.153177	0.137937	-0.958739	-0.960063	-0.142530	25.6912	-0.954578	-5.543259E+12	2.571232E-14	NaN
1203	1.000000	0.147230	7.37681e+06	-55439.1	1105.82	-29741.4	0.000000	0.000000	6.146762	-0.050935	NaN	0.000000	0.001530	0.001648	28.0817	0.072374	0.001883	38.4379	-32.2979	-165.315	-0.056360	0.145975	-0.950770	-0.952025	-0.050935	38.4379	-0.949776	-4.775418E+12	1.066599E-14	NaN
1203	1.000000	0.155259	7.37681e+06	-55439.1	1105.82	-29741.4	0.000000	0.000000	6.154795	0.041921	NaN	0.000000	0.001560	0.001642	28.0817	0.065828	0.002074	31.74	-179.663	-166.181	0.025175	0.153955	-0.942741	-0.944045	0.041921	31.74	-0.943732	-3.958052E+12	-1.059128E-14	NaN
1203	1.000000	0.163246	7.37681e+06	-55439.1	1105.82	-29741.4	0.000000	0.000000	6.162779	-0.015416	NaN	0.000000	0.001546	0.001637	28.0817	0.037519	0.002000	18.7629	101.474	-161.328	-0.077344	0.161930	-0.934754	-0.936070	-0.015416	18.7629	-0.934138	-2.937955E+12	5.247310E-15	NaN
1203	1.000000	0.171246	7.37681e+06	-55439.1	1105.82	-29741.4	0.000000	0.000000	6.170781	0.034373	NaN	0.000000	0.001585	0.001624	28.0813	0.025114	0.002062	12.1796	-98.1395	-163.63	0.011882	0.169957	-0.926755	-0.928044	0.034373	12.1796	-0.928871	-2.494374E+12	-1.378002E-14	NaN
1203	1.000000	0.179248	7.37681e+06	-55439.1	1105.82	-29741.4	0.000000	0.000000	6.178782	-0.004779	NaN	0.000000	0.001538	0.001638	28.0816	0.012078	0.002103	5.742190	-106.121	-165.696	-0.004798	0.177995	-0.918753	-0.920006	-0.004779	5.742190	-0.918128	-1.786217E+12	2.675457E-15	NaN
1203	1.000000	0.187273	7.37681e+06	-55439.1	1105.82	-29741.4	0.000000	0.000000	6.186808	0.009318	NaN	0.000000	0.001563	0.001596	28.0815	0.060871	0.002045	29.7597	-103.519	-163.955	-0.013182	0.185960	-0.910727	-0.912040	0.009318	29.7597	-0.910962	-1.429398E+12	-6.519094E-15	NaN
1203	1.000000	0.195262	7.37681e+06	-55439.1	1105.82	-29741.4	0.000000	0.000000	6.194796	-0.005518	NaN	0.000000	0.001572	0.001591	28.0814	0.138947	0.002031	68.4041	115.289	-166.684	-0.002222	0.193990	-0.902738	-0.904011	-0.005518	68.4041	-0.902678	-1.104700E+12	4.995040E-15	NaN
1203	1.000000	0.203268	7.37681e+06	-55439.1	1105.82	-29741.4	0.000000	0.000000	6.202801	-0.022453	NaN	0.000000	0.001517	0.001649	28.0811	0.186464	0.002053	90.8243	-122.711	-162.885	-0.071156	0.201957	-0.894732	-0.896043	-0.022453	90.8243	-0.894547	-8.577789E+11	2.617620E-14	NaN
1203	1.000000	0.211276	7.37681e+06	-55439.1	1105.82	-29741.4	0.000000	0.000000	6.210810	0.003767	NaN	0.000000	0.001502	0.001690	28.0811	0.112913	0.001942	58.1312	71.521	-162.836	-0.041025	0.210006	-0.886725	-0.887995	0.003767	58.1312	-0.886773	-6.734304E+11	-5.594343E-15	NaN
1203	1.000000	0.219281	7.37681e+06	-55439.1	1105.82	-29741.4	0.000000	0.000000	6.218815	-0.009506	NaN	0.000000	0.001499	0.001671	28.0811	0.055802	0.002024	27.567	17.9926	-165.477	-0.024640	0.217980	-0.878719	-0.880020	-0.009506	27.567	-0.878461	-5.198655E+11	1.828629E-14	NaN
1203	1.000000	0.227315	7.37681e+06	-55439.1	1105.82	-29741.4	0.000000	0.000000	6.226850	0.018656	NaN	0.000000	0.001530	0.001629	28.0812	0.073947	0.001856	39.8333	-11.4314	-165.059	0.008314	0.226005	-0.870685	-0.871995	0.018656	39.8333	-0.871037	-4.125423E+11	-4.522234E-14	NaN
1203	1.000000	0.235301	7.37681e+06	-55439.1	1105.82	-29741.4	0.000000	0.000000	6.234833	-0.049706	NaN	0.000000	0.001530	0.001659	28.0812	0.083447	0.001935	43.1341	-13.5412	-166.327	-0.018409	0.234015	-0.862699	-0.863985	-0.049706	43.1341	-0.861835	-3.097088E+11	1.604930E-13	NaN
1203	1.000000	0.243281	7.37681e+06	-55439.1	1105.82	-29741.4	0.000000	0.000000	6.242813	-0.048579	NaN	0.000000	0.001513	0.001597	28.0812	0.081520	0.002121	38.4364	179.239	-165.911	0.045916	0.242020	-0.854719	-0.855980	-0.048579	38.4364	-0.853771	-2.408804E+11	2.016735E-13	NaN
1203	1.000000	0.251315	7.37681e+06	-55439.1	1105.82	-29741.4	0.000000	0.000000	6.250846	-0.062206	NaN	0.000000	0.001555	0.001610	28.0813	0.027545	0.002031	13.5651	89.8429	-167.214	0.044758	0.249979	-0.846686	-0.848022	-0.062206	13.5651	-0.843246	-1.734886E+11	3.585609E-13	NaN
1203	1.000000	0.259292	7.37681e+06	-55439.1	1105.82	-29741.4	0.000000	0.000000	6.258828	0.054472	NaN	0.000000	0.001531	0.001633	28.0801	0.081883	0.001884	43.4562	-79.842	-168.851	0.018367	0.257997	-0.838709	-0.840004	0.054472	43.4562	-0.839649	-1.550718E+11	-3.512674E-13	NaN
1203	1.000000	0.267291	7.37681e+06	-55439.1	1105.82	-29741.4	0.000000	0.000000	6.266824	-0.021809	NaN	0.000000	0.001551	0.001611	28.0797	0.058591	0.002014	29.0917	-92.5631	-166.213	-0.052261	0.266011	-0.830710	-0.831989	-0.021809	29.0917	-0.830147	-1.152877E+11	1.891667E-13	NaN
1203	1.000000	0.275292	7.37681e+06	-55439.1	1105.82	-29741.4	0.000000	0.000000	6.274823	-0.066248	NaN	0.000000	0.001572	0.001609	28.08	0.098941	0.001975	50.0989	99.9273	-168.336	-0.011964	0.274047	-0.822709	-0.823953	-0.066248	50.0989	-0.821717	-8.861221E+10	7.476194E-13	NaN
1203	1.000000	0.283314	7.37681e+06	-55439.1	1105.82	-29741.4	0.000000	0.000000	6.282846	-0.052378	NaN	0.000000	0.001558	0.001621	28.0798	0.053166	0.001825	29.1281	-178.438	-165.866	0.037782	0.282032	-0.814687	-0.815968	-0.052378	29.1281	-0.813338	-6.821086E+10	7.678842E-13	NaN
1203	1.000000	0.291290	7.37681e+06	-55439.1	1105.82	-29741.4	0.000000	0.000000	6.290821	-0.066084	NaN	0.000000	0.001590	0.001655	28.08	0.033921	0.001911	17.7484	47.2718	-165.447	-0.015757	0.290011	-0.806711	-0.807989	-0.066084	17.7484	-0.803918	-5.082121E+10	1.300317E-12	NaN
1203	1.000000	0.299318	7.37681e+06	-55439.1	1105.82	-29741.4	0.000000	0.000000	6.298852	0.013448	NaN	0.000000	0.001550	0.001640	28.0797	0.064809	0.001878	34.5125	-136.281	-163.445	0.008315	0.297984	-0.798683	-0.800016	0.013448	34.5125	-0.798975	-4.354612E+10	-3.088132E-13	NaN
1203	1.000000	0.307318	7.37681e+06	-55439.1	1105.82	-29741.4	0.000000	0.000000	6.306854	0.030401	NaN	0.000000	0.001538	0.001595	28.0799	0.008066	0.001922	4.196405	56.415	-163.931	-0.008146	0.305930	-0.790682	-0.792070	0.030401	4.196405	-0.796115	-3.982216E+10	-7.634185E-13	NaN
1203	1.000000	0.315314	7.37681e+06	-55439.1	1105.82	-29741.4	0.000000	0.000000	6.314847	-0.030406	NaN	0.000000	0.001562	0.001595	28.0799	0.080095	0.002172	36.8824	-172.617	-164.899	-0.106901	0.314017	-0.782686	-0.783984	-0.030406	36.8824	-0.782068	-2.566420E+10	1.184762E-12	NaN
1203	1.000000	0.323332	7.37681e+06	-55439.1	1105.82	-29741.4	0.000000	0.000000	6.322865	-0.018661	NaN	0.000000	0.001531	0.001590	28.0799	0.084848	0.001954	43.4156	172.026	-168.49	-0.025506	0.322000	-0.774668	-0.776000	-0.018661	43.4156	-0.774346	-2.015514E+10	9.258539E-13	NaN
1203	1.000000	0.331340	7.37681e+06	-55439.1	1105.82	-29741.4	0.000000	0.000000	6.330875	0.026654	NaN	0.000000	0.001567	0.001667	28.0799	0.005820	0.001877	3.100691	-86.5035	-166.561	0.022920	0.330047	-0.766660	-0.767954	0.026654	3.100691	-0.773107	-1.938881E+10	-1.374695E-12	NaN
1203	1.000000	0.339311	7.37681e+06	-55439.1	1105.82	-29741.4	0.000000	0.000000	6.338846	0.027073	NaN	0.000000	0.001520	0.001635	28.0797	0.046000	0.001965	23.4155	175.897	-164.354	-0.026888	0.338050	-0.758690	-0.759951	0.027073	23.4155	-0.759557	-1.268448E+10	-2.134360E-12	NaN
1203	1.000000	0.347355	7.37681e+06	-55439.1	1105.82	-29741.4	0.000000	0.000000	6.346891	0.053010	NaN	0.000000	0.001537	0.001587	28.08	0.084990	0.001928	44.0826	121.783	-164.043	0.066421	0.346058	-0.750645	-0.751942	0.053010	44.0826	-0.751547	-9.869096E+9	-5.371295E-12	NaN
1203	1.000000	0.355345	7.37681e+06	-55439.1	1105.82	-29741.4	0.000000	0.000000	6.354875	-0.111131	NaN	0.000000	0.001545	0.001617	28.0799	0.065462	0.001943	33.6945	155.461	-165.499	-0.071811	0.354055	-0.742655	-0.743945	-0.111131	33.6945	-0.740181	-6.910757E+9	1.608081E-11	NaN
1203	1.000000	0.363328	7.37681e+06	-55439.1	1105.82	-29741.4	0.000000	0.000000	6.362858	-0.086076	NaN	0.000000	0.001547	0.001625	28.08	0.072999	0.002046	35.6852	133.166	-165.542	-0.062674	0.362050	-0.734673	-0.735951	-0.086076	35.6852	-0.732864	-5.493322E+9	1.566928E-11	NaN
1203	1.000000	0.371358	7.37681e+06	-55439.1	1105.82	-29741.4	0.000000	0.000000	6.370893	0.021909	NaN	0.000000	0.001554	0.001634	28.0798	0.039785	0.002059	19.3205	-60.8435	-164.419	-0.031299	0.370079	-0.726643	-0.727921	0.021909	19.3205	-0.727493	-4.641312E+9	-4.720484E-12	NaN
1203	1.000000	0.379351	7.37681e+06	-55439.1	1105.82	-29741.4	0.000000	0.000000	6.378883	-0.046004	NaN	0.000000	0.001532	0.001605	28.0796	0.073447	0.001946	37.7345	-129.441	-166.87	0.017693	0.378005	-0.718649	-0.719995	-0.046004	37.7345	-0.717735	-3.416503E+9	1.346526E-11	NaN
1203	1.000000	0.387374	7.37681e+06	-55439.1	1105.82	-29741.4	0.000000	0.000000	6.386905	-0.076229	NaN	0.000000	0.001578	0.001641	28.0798	0.080149	0.002117	37.8686	129.328	-165.205	-0.098826	0.386012	-0.710626	-0.711988	-0.076229	37.8686	-0.709116	-2.606095E+9	2.925026E-11	NaN
1203	1.000000	0.395387	7.37681e+06	-55439.1	1105.82	-29741.4	0.000000	0.000000	6.394917	-0.098308	NaN	0.000000	0.001554	0.001613	28.0806	0.076015	0.002172	34.9966	-32.7285	-167.593	-0.104892	0.394035	-0.702614	-0.703966	-0.098308	34.9966	-0.700507	-1.988170E+9	4.944633E-11	NaN
1203	1.000000	0.403380	7.37681e+06	-55439.1	1105.82	-29741.4	0.000000	0.000000	6.402914	-0.013404	NaN	0.000000	0.001535	0.001643	28.0814	0.078162	0.002066	37.8289	-111.136	-167.343	0.019691	0.402032	-0.694620	-0.695968	-0.013404	37.8289	-0.694355	-1.638394E+9	8.181211E-12	NaN
1203	1.000000	0.411351	7.37681e+06	-55439.1	1105.82	-29741.4	0.000000	0.000000	6.410886	0.009341	NaN	0.000000	0.001555	0.001640	28.0812	0.023724	0.001976	12.0038	-25.3248	-163.295	-0.034969	0.410058	-0.686649	-0.687943	0.009341	12.0038	-0.687233	-1.309464E+9	-7.133635E-12	NaN
1203	1.000000	0.419370	7.37681e+06	-55439.1	1105.82	-29741.4	0.000000	0.000000	6.418905	0.013453	NaN	0.000000	0.001501	0.001573	28.081	0.076111	0.002012	37.827	125.651	-164.592	-0.015952	0.418064	-0.678630	-0.679936	0.013453	37.827	-0.678897	-1.007216E+9	-1.335697E-11	NaN
1203	1.000000	0.427356	7.37681e+06	-55439.1	1105.82	-29741.4	0.000000	0.000000	6.426889	-0.035431	NaN	0.000000	0.001499	0.001633	28.0809	0.044385	0.001923	23.0759	96.7868	-163.354	0.029219	0.426022	-0.670644	-0.671979	-0.035431	23.0759	-0.669493	-7.489430E+8	4.730735E-11	NaN
1203	1.000000	0.435374	7.37681e+06	-55439.1	1105.82	-29741.4	0.000000	0.000000	6.434907	-0.021553	NaN	0.000000	0.001519	0.001661	28.081	0.070374	0.001958	35.9337	35.7202	-163.141	0.002421	0.434082	-0.662626	-0.663918	-0.021553	35.9337	-0.662177	-5.946746E+8	3.624302E-11	NaN
1203	1.000000	0.443341	7.37681e+06	-55439.1	1105.82	-29741.4	0.000000	0.000000	6.442873	-0.048749	NaN	0.000000	0.001530	0.001683	28.0812	0.091821	0.001813	50.644	151.086	-167.62	0.026955	0.442064	-0.654659	-0.655937	-0.048749	50.644	-0.653937	-4.585645E+8	1.063079E-10	NaN
1203	1.000000	0.451357	7.37681e+06	-55439.1	1105.82	-29741.4	0.000000	0.000000	6.450893	0.046613	NaN	0.000000	0.001556	0.001686	28.0811	0.091724	0.002006	45.7161	34.5494	-168.75	0.002253	0.450025	-0.646644	-0.647975	0.046613	45.7161	-0.647408	-3.731669E+8	-1.249118E-10	NaN
1203	1.000000	0.459390	7.37681e+06	-55439.1	1105.82	-29741.4	0.000000	0.000000	6.458923	-0.020115	NaN	0.000000	0.001539	0.001708	28.0812	0.078889	0.002068	38.1487	-167.723	-164.533	0.054186	0.458110	-0.638611	-0.639890	-0.020115	38.1487	-0.638215	-2.791270E+8	7.206475E-11	NaN
1203	1.000000	0.467389	7.37681e+06	-55439.1	1105.82	-29741.4	0.000000	0.000000	6.466924	0.029914	NaN	0.000000	0.001546	0.001653	28.0812	0.061496	0.001996	30.8041	-130.03	-165.842	-0.033955	0.466089	-0.630611	-0.631911	0.029914	30.8041	-0.631340	-2.246057E+8	-1.331832E-10	NaN
1203	1.000000	0.475399	7.37681e+06	-55439.1	1105.82	-29741.4	0.000000	0.000000	6.474933	0.007698	NaN	0.000000	0.001613	0.001674	28.0814	0.037520	0.002094	17.9156	-86.1919	-165.69	0.016173	0.474109	-0.622602	-0.623891	0.007698	17.9156	-0.622924	-1.721154E+8	-4.472439E-11	NaN
1203	1.000000	0.483386	7.37681e+06	-55439.1	1105.82	-29741.4	0.000000	0.000000	6.482918	-0.050374	NaN	0.000000	0.001586	0.001675	28.0814	0.094010	0.002103	44.7015	15.1765	-165.797	-0.099861	0.482074	-0.614614	-0.615927	-0.050374	44.7015	-0.613769	-1.288124E+8	3.910646E-10	NaN
1203	1.000000	0.491383	7.37681e+06	-55439.1	1105.82	-29741.4	0.000000	0.000000	6.490918	0.016856	NaN	0.000000	0.001566	0.001652	28.0812	0.089316	0.001960	45.56	-120.219	-163.608	0.054766	0.490141	-0.606617	-0.607860	0.016856	45.56	-0.606895	-1.036057E+8	-1.626986E-10	NaN
1203	1.000000	0.499390	7.37681e+06	-55439.1	1105.82	-29741.4	0.000000	0.000000	6.498924	-0.015651	NaN	0.000000	0.001577	0.001680	28.0812	0.056672	0.002071	27.359	-120.029	-168.859	-0.016743	0.498087	-0.598610	-0.599914	-0.015651	27.359	-0.598181	-7.859673E+7	1.991300E-10	NaN
1203	1.000000	0.507414	7.37681e+06	-55439.1	1105.82	-29741.4	0.000000	0.000000	6.506949	0.036061	NaN	0.000000	0.001564	0.001675	28.0814	0.097508	0.001971	49.4812	65.2593	-166.682	-0.033801	0.506104	-0.590587	-0.591896	0.036061	49.4812	-0.591133	-6.284808E+7	-5.737837E-10	NaN
1203	1.000000	0.515412	7.37681e+06	-55439.1	1105.82	-29741.4	0.000000	0.000000	6.514947	0.023509	NaN	0.000000	0.001541	0.001674	28.0812	0.080467	0.001951	41.2365	68.0396	-164.176	0.041127	0.514117	-0.582588	-0.583883	0.023509	41.2365	-0.583016	-4.856685E+7	-4.840553E-10	NaN
1203	1.000000	0.523436	7.37681e+06	-55439.1	1105.82	-29741.4	0.000000	0.000000	6.522968	-0.040701	NaN	0.000000	0.001526	0.001674	28.0814	0.043213	0.002097	20.6081	91.8916	-167.411	-0.010661	0.522096	-0.574565	-0.575904	-0.040701	20.6081	-0.573083	-3.541824E+7	1.149142E-9	NaN
1203	1.000000	0.531368	7.37681e+06	-55439.1	1105.82	-29741.4	0.000000	0.000000	6.530901	-0.027757	NaN	0.000000	0.001555	0.001621	28.0808	0.091882	0.001986	46.2707	13.6924	-168.363	-0.087698	0.530101	-0.566632	-0.567899	-0.027757	46.2707	-0.566182	-2.843609E+7	9.761222E-10	NaN
1203	1.000000	0.539408	7.37681e+06	-55439.1	1105.82	-29741.4	0.000000	0.000000	6.538941	-0.033536	NaN	0.000000	0.001544	0.001669	28.0802	0.082932	0.002020	41.0607	-32.3465	-164.259	-0.093047	0.538089	-0.558592	-0.559911	-0.033536	41.0607	-0.557980	-2.189927E+7	1.531360E-9	NaN
1203	1.000000	0.547390	7.37681e+06	-55439.1	1105.82	-29741.4	0.000000	0.000000	6.546924	0.007938	NaN	0.000000	0.001585	0.001673	28.0799	0.039690	0.002056	19.3009	-31.7762	-168.133	-0.024768	0.546141	-0.550610	-0.551859	0.007938	19.3009	-0.550919	-1.748567E+7	-4.539807E-10	NaN
1203	1.000000	0.555449	7.37681e+06	-55439.1	1105.82	-29741.4	0.000000	0.000000	6.554984	0.016814	NaN	0.000000	0.001570	0.001665	28.08	0.065037	0.001924	33.7959	-50.278	-167.198	-0.011029	0.554131	-0.542551	-0.543869	0.016814	33.7959	-0.542924	-1.354887E+7	-1.240956E-9	NaN
1203	1.000000	0.563433	7.37681e+06	-55439.1	1105.82	-29741.4	0.000000	0.000000	6.562968	0.028176	NaN	0.000000	0.001561	0.001643	28.0798	0.108029	0.001990	54.2822	-68.2923	-165.426	0.017679	0.562092	-0.534567	-0.535909	0.028176	54.2822	-0.534956	-1.050474E+7	-2.682246E-9	NaN
1203	1.000000	0.571420	7.37681e+06	-55439.1	1105.82	-29741.4	0.000000	0.000000	6.570955	0.023782	NaN	0.000000	0.001534	0.001673	28.0796	0.032522	0.002090	15.5617	-8.107749	-167.799	0.080430	0.570157	-0.526580	-0.527843	0.023782	15.5617	-0.527726	-8.33667e+06	-2.852697E-9	NaN
1203	1.000000	0.579430	7.37681e+06	-55439.1	1105.82	-29741.4	0.000000	0.000000	6.578962	-0.037961	NaN	0.000000	0.001548	0.001632	28.0801	0.015376	0.002063	7.453558	-86.4953	-167.784	0.052811	0.578104	-0.518571	-0.519896	-0.037961	7.453558	-0.514751	-5.50257e+06	6.898842E-9	NaN
1203	1.000000	0.587436	7.37681e+06	-55439.1	1105.82	-29741.4	0.000000	0.000000	6.586971	0.021072	NaN	0.000000	0.001528	0.001634	28.0799	0.078074	0.001982	39.3962	-166.014	-169.942	0.042193	0.586145	-0.510564	-0.511856	0.021072	39.3962	-0.510965	-4.87368e+06	-4.323728E-9	NaN
1203	1.000000	0.595438	7.37681e+06	-55439.1	1105.82	-29741.4	0.000000	0.000000	6.594972	0.018325	NaN	0.000000	0.001539	0.001692	28.08	0.059037	0.001855	31.8256	123.277	-164.623	-0.087639	0.594181	-0.502563	-0.503820	0.018325	31.8256	-0.502995	-3.77386e+06	-4.855819E-9	NaN
1203	1.000000	0.603428	7.37681e+06	-55439.1	1105.82	-29741.4	0.000000	0.000000	6.602962	-0.010764	NaN	0.000000	0.001544	0.001668	28.0801	0.046781	0.001921	24.3577	93.9374	-166.412	-0.027767	0.602152	-0.494572	-0.495849	-0.010764	24.3577	-0.494241	-2.84859e+06	3.778815E-9	NaN
1203	1.000000	0.611447	7.37681e+06	-55439.1	1105.82	-29741.4	0.000000	0.000000	6.610979	-0.056359	NaN	0.000000	0.001530	0.001674	28.0798	0.057451	0.001939	29.6344	-112.102	-163.88	-0.018586	0.610153	-0.486554	-0.487848	-0.056359	29.6344	-0.485127	-2.12457e+06	2.652730E-8	NaN
1203	1.000000	0.619482	7.37681e+06	-55439.1	1105.82	-29741.4	0.000000	0.000000	6.619016	0.004322	NaN	0.000000	0.001550	0.001703	28.0802	0.062262	0.002028	30.6991	15.514	-164.573	0.015508	0.618146	-0.478518	-0.479855	0.004322	30.6991	-0.478624	-1.72291e+06	-2.508786E-9	NaN
1203	1.000000	0.627462	7.37681e+06	-55439.1	1105.82	-29741.4	0.000000	0.000000	6.626994	-0.054025	NaN	0.000000	0.001570	0.001725	28.0798	0.065121	0.001866	34.8898	-170.294	-164.778	-0.109954	0.626181	-0.470538	-0.471820	-0.054025	34.8898	-0.469377	-1.27839e+06	4.226016E-8	NaN
1203	1.000000	0.635455	7.37681e+06	-55439.1	1105.82	-29741.4	0.000000	0.000000	6.634991	0.050049	NaN	0.000000	0.001547	0.001696	28.08	0.027054	0.001928	14.0339	118.633	-161.235	-0.025326	0.634115	-0.462546	-0.463885	0.050049	14.0339	-0.465220	-1.11774e+06	-4.477684E-8	NaN
1203	1.000000	0.643464	7.37681e+06	-55439.1	1105.82	-29741.4	0.000000	0.000000	6.642996	-0.039856	NaN	0.000000	0.001532	0.001647	28.08	0.058952	0.002040	28.8964	152.636	-164.892	-0.054822	0.642129	-0.454537	-0.455872	-0.039856	28.8964	-0.453502	-764969	5.210192E-8	NaN
1203	1.000000	0.651478	7.37681e+06	-55439.1	1105.82	-29741.4	0.000000	0.000000	6.651012	-0.020825	NaN	0.000000	0.001561	0.001658	28.0799	0.141628	0.001945	72.8046	151.468	-166.281	-0.047293	0.650143	-0.446522	-0.447857	-0.020825	72.8046	-0.446307	-605788	3.437678E-8	NaN
1203	1.000000	0.659474	7.37681e+06	-55439.1	1105.82	-29741.4	0.000000	0.000000	6.659005	-0.070696	NaN	0.000000	0.001508	0.001670	28.0801	0.103630	0.001975	52.4835	-148.761	-162.839	-0.015167	0.658123	-0.438526	-0.439877	-0.070696	52.4835	-0.437516	-455300	1.552724E-7	NaN
1203	1.000000	0.667465	7.37681e+06	-55439.1	1105.82	-29741.4	0.000000	0.000000	6.667000	0.027147	NaN	0.000000	0.001553	0.001652	28.0802	0.143153	0.002061	69.4449	-170.185	-163.716	-0.023668	0.666166	-0.430535	-0.431834	0.027147	69.4449	-0.430828	-366252	-7.412190E-8	NaN
1203	1.000000	0.675478	7.37681e+06	-55439.1	1105.82	-29741.4	0.000000	0.000000	6.675011	-0.042640	NaN	0.000000	0.001529	0.001643	28.0815	0.057405	0.001942	29.562	96.1394	-167.427	-0.077400	0.674156	-0.422522	-0.423845	-0.042640	29.562	-0.421440	-269672	1.581165E-7	NaN
1203	1.000000	0.683519	7.37681e+06	-55439.1	1105.82	-29741.4	0.000000	0.000000	6.683053	0.011550	NaN	0.000000	0.001522	0.001659	28.0812	0.042631	0.002058	20.7127	78.3098	-165.726	-0.017082	0.682176	-0.414482	-0.415824	0.011550	20.7127	-0.414900	-217788	-5.303346E-8	NaN
1203	1.000000	0.691467	7.37681e+06	-55439.1	1105.82	-29741.4	0.000000	0.000000	6.691002	0.025980	NaN	0.000000	0.001490	0.001690	28.0813	0.113882	0.001929	59.0239	0.948027	-166.09	0.054970	0.690190	-0.406534	-0.407810	0.025980	59.0239	-0.406864	-167412	-1.551864E-7	NaN
1203	1.000000	0.699469	7.37681e+06	-55439.1	1105.82	-29741.4	0.000000	0.000000	6.699001	-0.049505	NaN	0.000000	0.001538	0.001648	28.0815	0.021272	0.001989	10.6925	-89.6694	-164.342	-0.107107	0.698205	-0.398531	-0.399796	-0.049505	10.6925	-0.395059	-113624	4.356914E-7	NaN
1203	1.000000	0.707519	7.37681e+06	-55439.1	1105.82	-29741.4	0.000000	0.000000	6.707052	-0.028733	NaN	0.000000	0.001564	0.001643	28.0813	0.055234	0.002005	27.549	37.027	-169.086	-0.036967	0.706187	-0.390481	-0.391814	-0.028733	27.549	-0.389699	-95248.9	3.016632E-7	NaN
1203	1.000000	0.715462	7.37681e+06	-55439.1	1105.82	-29741.4	0.000000	0.000000	6.714995	-0.008747	NaN	0.000000	0.001535	0.001658	28.0813	0.038745	0.001992	19.4479	-162.972	-166.575	0.031328	0.714206	-0.382539	-0.383794	-0.008747	19.4479	-0.382201	-74382.2	1.175916E-7	NaN
1203	1.000000	0.723507	7.37681e+06	-55439.1	1105.82	-29741.4	0.000000	0.000000	6.723040	-0.016220	NaN	0.000000	0.001508	0.001661	28.0813	0.053405	0.002049	26.0669	51.8023	-167.447	-0.054924	0.722218	-0.374493	-0.375783	-0.016220	26.0669	-0.374027	-56764.6	2.857390E-7	NaN
1203	1.000000	0.731521	7.37681e+06	-55439.1	1105.82	-29741.4	0.000000	0.000000	6.731053	-0.051145	NaN	0.000000	0.001525	0.001664	28.0816	0.086943	0.001991	43.6576	-16.7495	-165.557	-0.000262	0.730176	-0.366480	-0.367824	-0.051145	43.6576	-0.365601	-42926.3	1.191457E-6	NaN
1203	1.000000	0.739466	7.37681e+06	-55439.1	1105.82	-29741.4	0.000000	0.000000	6.738997	-0.069075	NaN	0.000000	0.001501	0.001660	28.0815	0.066893	0.001994	33.5512	38.3581	-166.685	-0.070462	0.738193	-0.358534	-0.359807	-0.069075	33.5512	-0.356990	-32233.8	2.142951E-6	NaN
1203	1.000000	0.747548	7.37681e+06	-55439.1	1105.82	-29741.4	0.000000	0.000000	6.747084	0.049338	NaN	0.000000	0.001533	0.001640	28.0813	0.124587	0.001993	62.5202	56.6992	-167.612	0.032354	0.746193	-0.350453	-0.351807	0.049338	62.5202	-0.351045	-26433.9	-1.866476E-6	NaN
1203	1.000000	0.755513	7.37681e+06	-55439.1	1105.82	-29741.4	0.000000	0.000000	6.755047	-0.019556	NaN	0.000000	0.001540	0.001676	28.0813	0.241873	0.002004	120.716	61.8341	-167.565	0.014567	0.754171	-0.342487	-0.343829	-0.019556	120.716	-0.342365	-19770.5	9.891361E-7	NaN
1203	1.000000	0.763529	7.37681e+06	-55439.1	1105.82	-29741.4	0.000000	0.000000	6.763059	-0.084311	NaN	0.000000	0.001514	0.001686	28.0813	0.123996	0.001936	64.0418	135.239	-165.05	-0.056626	0.762189	-0.334472	-0.335812	-0.084311	64.0418	-0.333484	-14670.2	5.747086E-6	NaN
1203	1.000000	0.771541	7.37681e+06	-55439.1	1105.82	-29741.4	0.000000	0.000000	6.771074	-0.041541	NaN	0.000000	0.001528	0.001680	28.0813	0.033717	0.002031	16.6041	-157.84	-167.692	-0.081137	0.770241	-0.326459	-0.327760	-0.041541	16.6041	-0.324583	-10864.5	3.823593E-6	NaN
1203	1.000000	0.779531	7.37681e+06	-55439.1	1105.82	-29741.4	0.000000	0.000000	6.779064	-0.026753	NaN	0.000000	0.001560	0.001699	28.0812	0.097411	0.002131	45.7157	117.435	-165.594	0.002702	0.778243	-0.318469	-0.319757	-0.026753	45.7157	-0.318030	-8702.28	3.074208E-6	NaN
1203	1.000000	0.787501	7.37681e+06	-55439.1	1105.82	-29741.4	0.000000	0.000000	6.787034	-0.031809	NaN	0.000000	0.001546	0.001690	28.0813	0.072992	0.001952	37.4026	70.3942	-168.389	-0.043980	0.786247	-0.310499	-0.311754	-0.031809	37.4026	-0.309861	-6591.83	4.825453E-6	NaN
1203	1.000000	0.795531	7.37681e+06	-55439.1	1105.82	-29741.4	0.000000	0.000000	6.795065	-0.013701	NaN	0.000000	0.001544	0.001674	28.0814	0.140044	0.002065	67.8073	-118.408	-168.412	-0.005027	0.794250	-0.302469	-0.303750	-0.013701	67.8073	-0.302317	-5094.59	2.689269E-6	NaN
1203	1.000000	0.803553	7.37681e+06	-55439.1	1105.82	-29741.4	0.000000	0.000000	6.803086	-0.027332	NaN	0.000000	0.001574	0.001679	28.0815	0.027902	0.002035	13.7137	-160	-165.342	0.034553	0.802189	-0.294447	-0.295812	-0.027332	13.7137	-0.292952	-3693.95	7.399195E-6	NaN
1203	1.000000	0.811520	7.37681e+06	-55439.1	1105.82	-29741.4	0.000000	0.000000	6.811052	-0.048336	NaN	0.000000	0.001559	0.001688	28.0804	0.088263	0.001930	45.7325	-61.3741	-164.43	-0.027741	0.810224	-0.286481	-0.287776	-0.048336	45.7325	-0.285688	-2874.79	1.681375E-5	NaN
1203	1.000000	0.819554	7.37681e+06	-55439.1	1105.82	-29741.4	0.000000	0.000000	6.819089	0.010382	NaN	0.000000	0.001536	0.001663	28.0799	0.022840	0.002119	10.7805	146.482	-170.275	-0.006793	0.818209	-0.278446	-0.279791	0.010382	10.7805	-0.279168	-2293.09	-4.527478E-6	NaN
1203	1.000000	0.827519	7.37681e+06	-55439.1	1105.82	-29741.4	0.000000	0.000000	6.827050	-0.070010	NaN	0.000000	0.001551	0.001715	28.0802	0.062680	0.001929	32.4919	-97.0883	-166.074	-0.081456	0.826211	-0.270481	-0.271789	-0.070010	32.4919	-0.268865	-1600.62	4.373913E-5	NaN
1203	1.000000	0.835566	7.37681e+06	-55439.1	1105.82	-29741.4	0.000000	0.000000	6.835098	-0.038650	NaN	0.000000	0.001618	0.001732	28.0802	0.099363	0.002168	45.832	157.08	-166.371	0.003553	0.834153	-0.262434	-0.263847	-0.038650	45.832	-0.261802	-1248.86	3.094789E-5	NaN
1203	1.000000	0.843532	7.37681e+06	-55439.1	1105.82	-29741.4	0.000000	0.000000	6.843064	-0.035802	NaN	0.000000	0.001600	0.001686	28.0801	0.075884	0.001944	39.0354	-93.2171	-166.823	0.034887	0.842234	-0.254469	-0.255766	-0.035802	39.0354	-0.253781	-940.448	3.806960E-5	NaN
1203	1.000000	0.851564	7.37681e+06	-55439.1	1105.82	-29741.4	0.000000	0.000000	6.851098	0.004411	NaN	0.000000	0.001568	0.001694	28.0801	0.068724	0.001800	38.1744	-151.577	-168.294	0.007722	0.850275	-0.246436	-0.247726	0.004411	38.1744	-0.246523	-726.276	-6.073925E-6	NaN
1203	1.000000	0.859581	7.37681e+06	-55439.1	1105.82	-29741.4	0.000000	0.000000	6.859115	-0.010377	NaN	0.000000	0.001577	0.001702	28.0801	0.057718	0.001917	30.1083	52.447	-164.892	0.027115	0.858266	-0.238419	-0.239734	-0.010377	30.1083	-0.238161	-538.021	1.928738E-5	NaN
1203	1.000000	0.867569	7.37681e+06	-55439.1	1105.82	-29741.4	0.000000	0.000000	6.867099	-0.083610	NaN	0.000000	0.001537	0.001692	28.0804	0.016084	0.001945	8.267348	-129.107	-165.572	-0.109420	0.866280	-0.230432	-0.231720	-0.083610	8.267348	-0.222847	-308.384	0.000271	NaN
1203	1.000000	0.875568	7.37681e+06	-55439.1	1105.82	-29741.4	0.000000	0.000000	6.875104	0.048285	NaN	0.000000	0.001575	0.001704	28.0801	0.100596	0.002057	48.8932	29.888	-167.396	0.023475	0.874252	-0.222432	-0.223749	0.048285	48.8932	-0.223173	-312.091	-0.000155	NaN
1203	1.000000	0.883547	7.37681e+06	-55439.1	1105.82	-29741.4	0.000000	0.000000	6.883081	-0.009076	NaN	0.000000	0.001542	0.001693	28.08	0.081135	0.001868	43.4396	-6.032869	-166.578	0.025414	0.882274	-0.214453	-0.215726	-0.009076	43.4396	-0.214297	-225.008	4.033797E-5	NaN
1203	1.000000	0.891573	7.37681e+06	-55439.1	1105.82	-29741.4	0.000000	0.000000	6.891103	-0.092768	NaN	0.000000	0.001577	0.001733	28.0802	0.151640	0.001967	77.0903	25.1297	-165.008	-0.020334	0.890263	-0.206428	-0.207738	-0.092768	77.0903	-0.205525	-162.227	0.000572	NaN
1203	1.000000	0.899565	7.37681e+06	-55439.1	1105.82	-29741.4	0.000000	0.000000	6.899099	-0.010663	NaN	0.000000	0.001602	0.001723	28.0801	0.048382	0.002018	23.973	-71.4566	-171.334	-0.048054	0.898269	-0.198435	-0.199732	-0.010663	23.973	-0.198102	-122.59	8.697984E-5	NaN
1203	1.000000	0.907557	7.37681e+06	-55439.1	1105.82	-29741.4	0.000000	0.000000	6.907091	-0.010241	NaN	0.000000	0.001554	0.001716	28.0801	0.060466	0.002054	29.4368	-155.665	-164.279	-0.063508	0.906263	-0.190443	-0.191737	-0.010241	29.4368	-0.190182	-90.5882	0.000113	NaN
1203	1.000000	0.915569	7.37681e+06	-55439.1	1105.82	-29741.4	0.000000	0.000000	6.915104	0.032549	NaN	0.000000	0.001564	0.001719	28.08	0.047085	0.002094	22.4906	87.5038	-167.808	-0.079580	0.914211	-0.182431	-0.183789	0.032549	22.4906	-0.183517	-70.0006	-0.000465	NaN
1203	1.000000	0.923594	7.37681e+06	-55439.1	1105.82	-29741.4	0.000000	0.000000	6.923128	-0.000649	NaN	0.000000	0.001555	0.001719	28.0803	0.060064	0.001924	31.2204	-173.423	-166.27	-0.028591	0.922269	-0.174406	-0.175732	-0.000649	31.2204	-0.174390	-48.9213	1.327288E-5	NaN
1203	1.000000	0.931600	7.37681e+06	-55439.1	1105.82	-29741.4	0.000000	0.000000	6.931135	0.031093	NaN	0.000000	0.001582	0.001712	28.0803	0.047262	0.001946	24.2925	159.561	-164.173	0.004435	0.930264	-0.166400	-0.167737	0.031093	24.2925	-0.167360	-36.9521	-0.000841	NaN
1203	1.000000	0.939616	7.37681e+06	-55439.1	1105.82	-29741.4	0.000000	0.000000	6.939147	-0.077923	NaN	0.000000	0.001534	0.001675	28.0802	0.086662	0.002123	40.8198	-150.743	-165.967	0.008224	0.938260	-0.158384	-0.159740	-0.077923	40.8198	-0.156953	-24.1896	0.003221	NaN
1203	1.000000	0.947605	7.37681e+06	-55439.1	1105.82	-29741.4	0.000000	0.000000	6.947139	0.006168	NaN	0.000000	0.001589	0.001698	28.0816	0.052429	0.001967	26.6553	127.746	-169.683	-0.083578	0.946310	-0.150396	-0.151690	0.006168	26.6553	-0.150569	-18.5514	-0.000332	NaN
1203	1.000000	0.955593	7.37681e+06	-55439.1	1105.82	-29741.4	0.000000	0.000000	6.955125	-0.042436	NaN	0.000000	0.001569	0.001700	28.0814	0.079026	0.001879	42.052	-179.162	-169.24	0.077747	0.954328	-0.142408	-0.143673	-0.042436	42.052	-0.141651	-12.7026	0.003341	NaN
1203	1.000000	0.963580	7.37681e+06	-55439.1	1105.82	-29741.4	0.000000	0.000000	6.963110	-0.113714	NaN	0.000000	0.001548	0.001721	28.0816	0.015778	0.002136	7.388137	128.279	-167.557	-0.051680	0.962338	-0.134420	-0.135662	-0.113714	7.388137	-0.122877	-5.518268	0.020607	NaN
1203	1.000000	0.971614	7.37681e+06	-55439.1	1105.82	-29741.4	0.000000	0.000000	6.971145	-0.063063	NaN	0.000000	0.001547	0.001739	28.0816	0.056270	0.001990	28.2766	-129.591	-167.268	-0.061398	0.970255	-0.126387	-0.127746	-0.063063	28.2766	-0.124714	-6.002480	0.010506	NaN
1203	1.000000	0.979584	7.37681e+06	-55439.1	1105.82	-29741.4	0.000000	0.000000	6.979115	-0.072132	NaN	0.000000	0.001561	0.001734	28.0814	0.023507	0.001884	12.4776	-127.203	-166.463	-0.079342	0.978318	-0.118417	-0.119682	-0.072132	12.4776	-0.114081	-3.657010	0.019724	NaN
1203	1.000000	0.987639	7.37681e+06	-55439.1	1105.82	-29741.4	0.000000	0.000000	6.987174	0.032611	NaN	0.000000	0.001542	0.001733	28.0817	0.048207	0.001963	24.5523	56.9437	-163.268	-0.003782	0.986265	-0.110361	-0.111735	0.032611	24.5523	-0.111358	-3.209286	-0.010161	NaN
1203	1.000000	0.995618	7.37681e+06	-55439.1	1105.82	-29741.4	0.000000	0.000000	6.995154	0.037506	NaN	0.000000	0.001561	0.001738	28.0815	0.157964	0.001978	79.8452	-127.46	-165.696	-0.009580	0.994282	-0.102382	-0.103718	0.037506	79.8452	-0.102735	-2.098727	-0.017871	NaN
1203	1.000000	1.003585	7.37681e+06	-55439.1	1105.82	-29741.4	0.000000	0.000000	7.003120	0.032094	NaN	0.000000	0.001609	0.001687	28.0817	0.103688	0.002031	51.0583	-77.2197	-165.864	-0.076501	1.002265	-0.094415	-0.095736	0.032094	51.0583	-0.094887	-1.402275	-0.022887	NaN
1203	1.000000	1.011603	7.37681e+06	-55439.1	1105.82	-29741.4	0.000000	0.000000	7.011136	-0.038934	NaN	0.000000	0.001615	0.001668	28.0815	0.086862	0.002051	42.3465	-103.168	-166.779	-0.052578	1.010278	-0.086397	-0.087723	-0.038934	42.3465	-0.085707	-0.854600	0.045558	NaN
1203	1.000000	1.019615	7.37681e+06	-55439.1	1105.82	-29741.4	0.000000	0.000000	7.019148	-0.046237	NaN	0.000000	0.001585	0.001661	28.0814	0.031229	0.002060	15.1599	66.1291	-167.76	-0.072600	1.018336	-0.078385	-0.079664	-0.046237	15.1599	-0.076098	-0.492955	0.093795	NaN
1203	1.000000	1.027606	7.37681e+06	-55439.1	1105.82	-29741.4	0.000000	0.000000	7.027139	-0.018201	NaN	0.000000	0.001576	0.001668	28.0816	0.061593	0.002044	30.1382	-132.318	-166.911	-0.008970	1.026327	-0.070394	-0.071674	-0.018201	30.1382	-0.069941	-0.339877	0.053551	NaN
1203	1.000000	1.035568	7.37681e+06	-55439.1	1105.82	-29741.4	0.000000	0.000000	7.035102	-0.013251	NaN	0.000000	0.001592	0.001651	28.0815	0.039125	0.002179	17.9521	-146.143	-167.796	-0.104883	1.034347	-0.062432	-0.063654	-0.013251	17.9521	-0.061878	-0.203729	0.065044	NaN
1203	1.000000	1.043614	7.37681e+06	-55439.1	1105.82	-29741.4	0.000000	0.000000	7.043149	0.005122	NaN	0.000000	0.001569	0.001687	28.0816	0.157203	0.001982	79.3055	24.9009	-168.13	-0.008531	1.042292	-0.054386	-0.055708	0.005122	79.3055	-0.054434	-0.123908	-0.041336	NaN
1203	1.000000	1.051640	7.37681e+06	-55439.1	1105.82	-29741.4	0.000000	0.000000	7.051171	-0.084235	NaN	0.000000	0.001619	0.001683	28.0814	0.164026	0.001938	84.6268	106.633	-166.596	-0.092861	1.050330	-0.046360	-0.047670	-0.084235	84.6268	-0.045614	-0.067105	1.255262	NaN
1203	1.000000	1.059602	7.37681e+06	-55439.1	1105.82	-29741.4	0.000000	0.000000	7.059170	0.832269	NaN	0.000000	0.001587	0.001666	28.0816	0.953294	0.001979	481.624	4.996663	-167.033	0.447534	1.058330	-0.038398	-0.039671	0.832269	481.624	-0.039694	-0.044266	-18.8015	NaN
1203	1.000000	1.067638	7.37681e+06	-55439.1	1105.82	-29741.4	0.000000	0.000000	7.067345	4.219480	NaN	0.000000	0.001565	0.001656	28.0816	1.590128	0.001986	800.839	4.481638	-167.271	3.702864	1.066324	-0.030363	-0.031676	4.219480	800.839	-0.034314	-0.030574	-138.009	NaN
1203	1.000000	1.075641	7.37681e+06	-55439.1	1105.82	-29741.4	0.000000	0.000000	7.075502	7.925506	NaN	0.000000	0.001561	0.001627	28.0813	1.970290	0.001897	1038.7	7.089386	-168.147	7.349623	1.074304	-0.022359	-0.023696	7.925506	1038.7	-0.028082	-0.020379	-388.909	NaN
1203	2.000000	1.080337	7.37681e+06	-55439.1	1105.82	-29741.4	0.000000	0.000000	7.080264	9.552466	NaN	0.000000	0.001598	0.001666	28.0801	2.228007	0.001882	1183.97	4.414128	-165.342	9.544301	1.080048	-0.017663	-0.017952	9.552466	1183.97	-0.023714	-0.015623	-611.44	NaN
1203	2.000000	1.082313	7.37681e+06	-55439.1	1105.82	-29741.4	0.000000	0.000000	7.082260	10.0363	NaN	0.000000	0.001602	0.001642	28.0804	2.442229	0.002063	1183.7	6.643501	-170.683	10.1327	1.082088	-0.015688	-0.015912	10.0363	1183.7	-0.022047	-0.014160	-708.785	NaN
1203	2.000000	1.084339	7.37681e+06	-55439.1	1105.82	-29741.4	0.000000	0.000000	7.084312	10.6639	NaN	0.000000	0.001568	0.001646	28.0804	2.646906	0.001951	1356.36	7.118026	-170.64	10.6807	1.083965	-0.013662	-0.014035	10.6639	1356.36	-0.019558	-0.012240	-871.258	NaN
1203	2.000000	1.086295	7.37681e+06	-55439.1	1105.82	-29741.4	0.000000	0.000000	7.086268	10.6746	NaN	0.000000	0.001585	0.001674	28.0807	2.557162	0.001985	1288.27	4.250788	-167.549	10.8393	1.086018	-0.011706	-0.011983	10.6746	1288.27	-0.017920	-0.011110	-960.837	NaN
1203	2.000000	1.088258	7.37681e+06	-55439.1	1105.82	-29741.4	0.000000	0.000000	7.088173	9.275939	NaN	0.000000	0.001584	0.001676	28.0805	2.467737	0.001927	1280.9	5.962469	-165.877	9.620377	1.088014	-0.009743	-0.009986	9.275939	1280.9	-0.015174	-0.009380	-988.913	NaN
1203	2.000000	1.090237	7.37681e+06	-55439.1	1105.82	-29741.4	0.000000	0.000000	7.090036	6.428556	NaN	0.000000	0.001581	0.001673	28.0801	2.184254	0.002053	1063.84	7.278832	-166.924	6.821803	1.089949	-0.007763	-0.008051	6.428556	1063.84	-0.012295	-0.007697	-835.172	NaN
1203	2.000000	1.092258	7.37681e+06	-55439.1	1105.82	-29741.4	0.000000	0.000000	7.091962	4.132338	NaN	0.000000	0.001562	0.001686	28.0803	1.988051	0.002062	964.294	7.345293	-166.376	4.274543	1.092025	-0.005742	-0.005975	4.132338	964.294	-0.008956	-0.005788	-713.974	NaN
1203	2.000000	1.094264	7.37681e+06	-55439.1	1105.82	-29741.4	0.000000	0.000000	7.093954	3.799394	NaN	0.000000	0.001594	0.001638	28.0802	2.313193	0.001945	1189.14	11.453	-170.508	3.749530	1.093924	-0.003737	-0.004076	3.799394	1189.14	-0.006133	-0.004118	-922.72	NaN
1203	2.000000	1.096253	7.37681e+06	-55439.1	1105.82	-29741.4	0.000000	0.000000	7.095952	3.995007	NaN	0.000000	0.001578	0.001645	28.0803	2.857108	0.001959	1458.31	11.4163	-169.057	4.047212	1.095989	-0.001747	-0.002011	3.995007	1458.31	-0.003802	-0.002650	-1507.53	NaN
1203	2.000000	1.098258	7.37681e+06	-55439.1	1105.82	-29741.4	0.000000	0.000000	7.098005	5.180138	NaN	0.000000	0.001590	0.001658	28.0803	3.913992	0.001848	2118.09	9.620962	-171.502	5.039432	1.097928	0.000258	-7.226333E-5	5.180138	2118.09	-0.001576	-0.001143	-4530.6	NaN
1203	2.000000	1.100239	7.37681e+06	-55439.1	1105.82	-29741.4	0.000000	0.000000	7.100051	6.751933	NaN	0.000000	0.001588	0.001652	28.08	5.502876	0.002039	2698.43	10.1133	-170.492	6.496915	1.099943	0.002239	0.001942	6.751933	2698.43	0.000362	0.000272	24786.2	149374
1203	2.000000	1.102227	7.37681e+06	-55439.1	1105.82	-29741.4	0.000000	0.000000	7.102144	9.325487	NaN	0.000000	0.001597	0.001687	28.0803	7.356326	0.001961	3751.2	12.0343	-175.335	9.100473	1.101904	0.004226	0.003903	9.325487	3751.2	0.002362	0.001850	5042.03	79691.2
1203	2.000000	1.104240	7.37681e+06	-55439.1	1105.82	-29741.4	0.000000	0.000000	7.104296	12.7078	NaN	0.000000	0.001586	0.001689	28.0801	8.997335	0.001850	4862.93	9.010152	-174.521	12.1433	1.103854	0.006239	0.005854	12.7078	4862.93	0.004279	0.003485	3646.26	75259.3
1203	2.000000	1.106259	7.37681e+06	-55439.1	1105.82	-29741.4	0.000000	0.000000	7.106477	16.6223	NaN	0.000000	0.001586	0.001711	28.0803	10.965	0.001883	5821.63	12.1123	-178.286	16.6062	1.105910	0.008258	0.007909	16.6223	5821.63	0.006117	0.005176	3211.43	73930
1203	2.000000	1.108199	7.37681e+06	-55439.1	1105.82	-29741.4	0.000000	0.000000	7.108617	21.494	NaN	0.000000	0.001607	0.001684	28.0801	12.0668	0.001798	6712.92	2.517186	-170.432	20.4098	1.107886	0.010198	0.009886	21.494	6712.92	0.007797	0.006834	3145.05	74189.1
1203	2.000000	1.110220	7.37681e+06	-55439.1	1105.82	-29741.4	0.000000	0.000000	7.110831	26.1772	NaN	0.000000	0.001601	0.001668	28.0803	13.9705	0.001747	7995.47	2.858140	-172.64	25.816	1.109911	0.012220	0.011910	26.1772	7995.47	0.009764	0.008921	2934.41	77342.2
1203	2.000000	1.112179	7.37681e+06	-55439.1	1105.82	-29741.4	0.000000	0.000000	7.112980	30.7952	NaN	0.000000	0.001608	0.001659	28.0802	15.495	0.002088	7419.41	8.798633	-174.791	30.0062	1.111895	0.014178	0.013895	30.7952	7419.41	0.011065	0.010390	2964.04	66503.2
1203	2.000000	1.114242	7.37681e+06	-55439.1	1105.82	-29741.4	0.000000	0.000000	7.115191	34.3974	NaN	0.000000	0.001563	0.001701	28.0813	16.7981	0.001874	8964.28	5.966195	-175.845	34.1644	1.113890	0.016242	0.015889	34.3974	8964.28	0.013364	0.013165	2612.72	71379.3
1203	2.000000	1.116205	7.37681e+06	-55439.1	1105.82	-29741.4	0.000000	0.000000	7.117377	39.8381	NaN	0.000000	0.001550	0.001675	28.0813	17.9071	0.001781	10052.3	3.682434	-174.725	38.5332	1.115820	0.018204	0.017820	39.8381	10052.3	0.015232	0.015596	2554.42	73541.7
1203	2.000000	1.118221	7.37681e+06	-55439.1	1105.82	-29741.4	0.000000	0.000000	7.119563	43.9461	NaN	0.000000	0.001586	0.001641	28.0814	19.1901	0.001852	10361.3	5.235171	-175.88	44.3898	1.117901	0.020221	0.019901	43.9461	10361.3	0.017039	0.018102	2427.7	70359.6
1203	2.000000	1.120185	7.37681e+06	-55439.1	1105.82	-29741.4	0.000000	0.000000	7.121743	49.1979	NaN	0.000000	0.001537	0.001671	28.0818	20.8624	0.002029	10281.7	4.598232	-174.705	48.6448	1.119888	0.022184	0.021888	49.1979	10281.7	0.018596	0.020383	2413.62	65796
1203	2.000000	1.122203	7.37681e+06	-55439.1	1105.82	-29741.4	0.000000	0.000000	7.123859	51.5882	NaN	0.000000	0.001526	0.001656	28.0818	21.5696	0.001731	12459.5	5.213575	-177.982	50.3415	1.121978	0.024202	0.023977	51.5882	12459.5	0.021097	0.024296	2123.35	73031.3
1203	2.000000	1.124177	7.37681e+06	-55439.1	1105.82	-29741.4	0.000000	0.000000	7.126084	57.6948	NaN	0.000000	0.001520	0.001661	28.0816	24.1059	0.001946	12388.3	5.234798	-177.397	57.2789	1.123827	0.026176	0.025827	57.6948	12388.3	0.022684	0.026936	2141.93	68963.4
1203	2.000000	1.126215	7.37681e+06	-55439.1	1105.82	-29741.4	0.000000	0.000000	7.128327	62.6559	NaN	0.000000	0.001508	0.001705	28.0818	25.6096	0.001781	14376	4.621209	-178.471	62.9856	1.125855	0.028215	0.027855	62.6559	14376	0.024946	0.030917	2026.56	74698.3
1203	2.000000	1.128173	7.37681e+06	-55439.1	1105.82	-29741.4	0.000000	0.000000	7.130587	69.9976	NaN	0.000000	0.001510	0.001686	28.0816	27.0595	0.001775	15248.7	5.405285	-179.533	69.5859	1.127836	0.030173	0.029836	69.9976	15248.7	0.026730	0.034239	2044.39	75291.5
1203	2.000000	1.130190	7.37681e+06	-55439.1	1105.82	-29741.4	0.000000	0.000000	7.132748	73.5207	NaN	0.000000	0.001514	0.001688	28.0815	29.1716	0.001853	15744	6.461703	179.395	73.3127	1.129839	0.032190	0.031838	73.5207	15744	0.028687	0.038067	1931.36	73725
1203	2.000000	1.132206	7.37681e+06	-55439.1	1105.82	-29741.4	0.000000	0.000000	7.135094	81.5287	NaN	0.000000	0.001559	0.001693	28.0815	30.8944	0.001884	16402.6	9.409819	176.211	81.6093	1.131932	0.034205	0.033931	81.5287	16402.6	0.030478	0.041739	1953.29	73352.2
1203	2.000000	1.134151	7.37681e+06	-55439.1	1105.82	-29741.4	0.000000	0.000000	7.137278	87.3233	NaN	0.000000	0.001612	0.001662	28.0814	32.6697	0.001879	17386.7	6.196631	177.75	84.8959	1.133881	0.036151	0.035880	87.3233	17386.7	0.032384	0.045830	1905.36	74201.5
1203	2.000000	1.136186	7.37681e+06	-55439.1	1105.82	-29741.4	0.000000	0.000000	7.139668	95.9807	NaN	0.000000	0.001602	0.001651	28.0826	34.3532	0.001778	19318.9	7.428024	176.047	94.8913	1.135876	0.038185	0.037876	95.9807	19318.9	0.034459	0.050494	1900.84	78548.1
1203	2.000000	1.138126	7.37681e+06	-55439.1	1105.82	-29741.4	0.000000	0.000000	7.141799	100.612	NaN	0.000000	0.001645	0.001689	28.0815	35.7746	0.001906	18772.3	6.160402	177.909	97.86	1.137781	0.040126	0.039781	100.612	18772.3	0.036106	0.054352	1851.11	73566.7
1203	2.000000	1.140201	7.37681e+06	-55439.1	1105.82	-29741.4	0.000000	0.000000	7.144227	109.183	NaN	0.000000	0.001686	0.001698	28.0816	37.2612	0.001835	20305	3.421923	179.214	109.256	1.139850	0.042201	0.041850	109.183	20305	0.038168	0.059380	1838.73	76130.4
1203	2.000000	1.142138	7.37681e+06	-55439.1	1105.82	-29741.4	0.000000	0.000000	7.146665	121.375	NaN	0.000000	0.001647	0.001695	28.0814	38.1744	0.001772	21543.2	4.308823	178.613	120.433	1.141858	0.044137	0.043857	121.375	21543.2	0.039912	0.063801	1902.41	77923.7
1203	2.000000	1.144112	7.37681e+06	-55439.1	1105.82	-29741.4	0.000000	0.000000	7.149074	131.947	NaN	0.000000	0.001603	0.001703	28.0814	40.5078	0.001834	22082.6	6.052440	176.911	130.236	1.143837	0.046112	0.045837	131.947	22082.6	0.041631	0.068310	1931.58	77193.6
1203	2.000000	1.146128	7.37681e+06	-55439.1	1105.82	-29741.4	0.000000	0.000000	7.151550	143.127	NaN	0.000000	0.001601	0.001711	28.0817	41.855	0.001760	23785.5	8.822635	173.449	140.533	1.145795	0.048128	0.047795	143.127	23785.5	0.043615	0.073704	1941.92	80046
1203	2.000000	1.148173	7.37681e+06	-55439.1	1105.82	-29741.4	0.000000	0.000000	7.154100	155.411	NaN	0.000000	0.001595	0.001701	28.0803	42.352	0.001612	26277.1	4.471353	175.574	153.702	1.147806	0.050173	0.049805	155.411	26277.1	0.045737	0.079694	1950.1	85042.9
1203	2.000000	1.150154	7.37681e+06	-55439.1	1105.82	-29741.4	0.000000	0.000000	7.156489	165.324	NaN	0.000000	0.001569	0.001727	28.0806	45.4965	0.001796	25330	0.073277	-179.682	163.286	1.149815	0.052154	0.051814	165.324	25330	0.047259	0.084129	1965.13	79787.7
1203	2.000000	1.152196	7.37681e+06	-55439.1	1105.82	-29741.4	0.000000	0.000000	7.158807	172.033	NaN	0.000000	0.001551	0.001695	28.0801	47.6662	0.001852	25736.2	7.228369	173.639	173.855	1.151875	0.054195	0.053874	172.033	25736.2	0.049182	0.089902	1913.56	78421.3
1203	2.000000	1.154130	7.37681e+06	-55439.1	1105.82	-29741.4	0.000000	0.000000	7.161217	183.609	NaN	0.000000	0.001566	0.001674	28.0801	49.4086	0.001861	26551.4	1.016459	178.918	181.281	1.153801	0.056129	0.055801	183.609	26551.4	0.050943	0.095350	1925.64	78559.9
1203	2.000000	1.156117	7.37681e+06	-55439.1	1105.82	-29741.4	0.000000	0.000000	7.163756	197.017	NaN	0.000000	0.001588	0.001658	28.0801	50.4633	0.001724	29265.8	2.887804	176.837	193.758	1.155826	0.058117	0.057825	197.017	29265.8	0.053068	0.102132	1929.05	83666.8
1203	2.000000	1.158132	7.37681e+06	-55439.1	1105.82	-29741.4	0.000000	0.000000	7.166276	209.308	NaN	0.000000	0.001526	0.001687	28.0802	52.1394	0.001677	31089.1	6.426962	172.288	208.009	1.157814	0.060131	0.059814	209.308	31089.1	0.055082	0.108765	1924.4	86126.3
1203	2.000000	1.160146	7.37681e+06	-55439.1	1105.82	-29741.4	0.000000	0.000000	7.168587	216.534	NaN	0.000000	0.001535	0.001667	28.0808	54.1793	0.001784	30362.5	4.015186	175.154	214.838	1.159843	0.062145	0.061843	216.534	30362.5	0.056797	0.114572	1889.93	81954.1
1203	2.000000	1.162146	7.37681e+06	-55439.1	1105.82	-29741.4	0.000000	0.000000	7.171269	233.097	NaN	0.000000	0.001566	0.001693	28.0801	54.7358	0.001769	30938.9	2.425003	177.104	231.755	1.161790	0.064145	0.063790	233.097	30938.9	0.058495	0.120465	1934.97	81441.9
1203	2.000000	1.164136	7.37681e+06	-55439.1	1105.82	-29741.4	0.000000	0.000000	7.173560	240.42	NaN	0.000000	0.001589	0.001687	28.0803	56.9554	0.001837	31003.7	1.844802	176.867	238.991	1.163894	0.066135	0.065893	240.42	31003.7	0.060320	0.126957	1893.71	79498.4
1203	2.000000	1.166185	7.37681e+06	-55439.1	1105.82	-29741.4	0.000000	0.000000	7.176168	254.018	NaN	0.000000	0.001620	0.001664	28.0801	58.9183	0.001831	32182.1	5.255757	173.735	254.297	1.165724	0.068184	0.067723	254.018	32182.1	0.062264	0.134053	1894.9	80306.3
1203	2.000000	1.168091	7.37681e+06	-55439.1	1105.82	-29741.4	0.000000	0.000000	7.178681	268.742	NaN	0.000000	0.001608	0.001704	28.0801	60.3515	0.001898	31803	4.648099	174.096	266.249	1.167838	0.070091	0.069837	268.742	31803	0.063753	0.139610	1924.94	77764.7
1203	2.000000	1.170156	7.37681e+06	-55439.1	1105.82	-29741.4	0.000000	0.000000	7.181033	275.733	NaN	0.000000	0.001612	0.001690	28.0803	61.3391	0.001841	33310.8	2.712774	176.072	274.503	1.169731	0.072156	0.071730	275.733	33310.8	0.065948	0.147995	1863.12	79110.5
1203	2.000000	1.172149	7.37681e+06	-55439.1	1105.82	-29741.4	0.000000	0.000000	7.183615	290.049	NaN	0.000000	0.001630	0.001657	28.08	61.8182	0.001793	34470.2	4.718566	173.488	290.696	1.171828	0.074148	0.073828	290.049	34470.2	0.067838	0.155403	1866.43	79889.1
1203	2.000000	1.174120	7.37681e+06	-55439.1	1105.82	-29741.4	0.000000	0.000000	7.185811	295.533	NaN	0.000000	0.001590	0.001687	28.0804	64.3663	0.001908	33739.9	3.015727	175.627	293.656	1.173837	0.076119	0.075836	295.533	33739.9	0.069550	0.162261	1821.34	76526
1203	2.000000	1.176111	7.37681e+06	-55439.1	1105.82	-29741.4	0.000000	0.000000	7.188431	310.808	NaN	0.000000	0.001580	0.001659	28.0801	66.5347	0.001943	34251.5	6.347017	171.911	308.615	1.175906	0.078110	0.077906	310.808	34251.5	0.071305	0.169435	1834.38	76024.1
1203	2.000000	1.177620	7.37681e+06	-55439.1	1105.82	-29741.4	0.000000	0.000000	7.190315	319.928	NaN	0.000000	0.001588	0.001677	28.0802	66.7774	0.001736	38473.2	7.036028	-9.671927	318.198	1.177309	0.079620	0.079309	319.928	38473.2	0.073383	0.178120	1796.13	83286.5