File: remote_trans/data/nanoindenter/0828-1/data/Data_2025-08-06,11h17m57s/2025-07-22_16-23-58_1_572.txt
2025-07-22, 16:23:58, 1
Index	Phase	Displacement	Time	Pos X	Pos Y	Pos Z	Rot A	Rot B	Piezo Z	Force A	Force B	Gripper	Voltage A	Voltage B	Temperature	Amplitude force	Amplitude pos	Stiffness	Phase shift	Phase excitation	Force A raw	Displacement raw	HMax	HMax raw	Real Force	Real Stiffness	Contact Depth	Area	Hardness	Reduced Mod.
[#]	[#]	[um]	[s]	[um]	[um]	[um]	[m°]	[m°]	[um]	[uN]	[uN]	[V]	[V]	[V]	[°C]	[uN]	[um]	[N/m]	[°]	[°]	[uN]	[um]	[um]	[um]	[uN]	[N/m]	[um]	[um^2]	[MPa]	[MPa]
572	1.000000	0.002735	7.37064e+06	-48489.1	1005.82	-29762.2	0.000000	0.000000	6.002811	-0.106772	NaN	0.000000	0.001530	0.001763	28.0803	0.097937	0.000947	103.408	-98.4271	-164.034	-0.045702	0.001474	-1.166394	-1.167655	-0.106772	103.408	-1.165620	-3.803556E+15	2.807175E-17	NaN
572	1.000000	0.012778	7.37064e+06	-48489.1	1005.82	-29762.2	0.000000	0.000000	6.012858	-0.005847	NaN	0.000000	0.001555	0.001716	28.0801	0.118507	0.001215	97.5054	-103.162	18.926	-0.034178	0.011346	-1.156351	-1.157783	-0.005847	97.5054	-1.156306	-2.853371E+15	2.049011E-18	NaN
572	1.000000	0.022689	7.37064e+06	-48489.1	1005.82	-29762.2	0.000000	0.000000	6.022768	-0.046398	NaN	0.000000	0.001583	0.001750	28.0799	0.040184	0.001789	22.4619	-80.445	-165.97	-0.061089	0.021385	-1.146440	-1.147745	-0.046398	22.4619	-1.144891	-2.005961E+15	2.313021E-17	NaN
572	1.000000	0.032673	7.37064e+06	-48489.1	1005.82	-29762.2	0.000000	0.000000	6.032751	-0.054683	NaN	0.000000	0.001583	0.001786	28.0813	0.013722	0.001798	7.631065	-22.8891	13.0975	-0.086631	0.031317	-1.136456	-1.137812	-0.054683	7.631065	-1.131082	-1.309590E+15	4.175551E-17	NaN
572	1.000000	0.042670	7.37064e+06	-48489.1	1005.82	-29762.2	0.000000	0.000000	6.042748	-0.051761	NaN	0.000000	0.001549	0.001791	28.0812	0.059863	0.002029	29.5038	95.8778	-165.117	-0.079726	0.041365	-1.126459	-1.127764	-0.051761	29.5038	-1.125144	-1.090130E+15	4.748133E-17	NaN
572	1.000000	0.052652	7.37064e+06	-48489.1	1005.82	-29762.2	0.000000	0.000000	6.052729	-0.090763	NaN	0.000000	0.001568	0.001778	28.0813	0.057545	0.001994	28.8567	-171.798	10.7548	-0.126949	0.051315	-1.116477	-1.117815	-0.090763	28.8567	-1.114118	-7.754416E+14	1.170468E-16	NaN
572	1.000000	0.062673	7.37064e+06	-48489.1	1005.82	-29762.2	0.000000	0.000000	6.062751	-0.072492	NaN	0.000000	0.001542	0.001767	28.0813	0.062413	0.002012	31.0223	-160.729	-167.349	0.035020	0.061360	-1.106456	-1.107769	-0.072492	31.0223	-1.104704	-5.796996E+14	1.250502E-16	NaN
572	1.000000	0.072667	7.37064e+06	-48489.1	1005.82	-29762.2	0.000000	0.000000	6.072744	-0.096440	NaN	0.000000	0.001559	0.001794	28.0813	0.016544	0.002022	8.183190	-87.9716	13.7225	-0.155287	0.071316	-1.096462	-1.097813	-0.096440	8.183190	-1.087623	-3.419003E+14	2.820693E-16	NaN
572	1.000000	0.082678	7.37064e+06	-48489.1	1005.82	-29762.2	0.000000	0.000000	6.082759	0.001380	NaN	0.000000	0.001556	0.001765	28.0812	0.060148	0.002002	30.0421	68.0673	-162.466	0.012049	0.081354	-1.086451	-1.087775	0.001380	30.0421	-1.086486	-3.300819E+14	-4.180576E-18	NaN
572	1.000000	0.092688	7.37064e+06	-48489.1	1005.82	-29762.2	0.000000	0.000000	6.092767	-0.026672	NaN	0.000000	0.001586	0.001746	28.0811	0.030479	0.002087	14.6015	-74.4147	17.0314	-0.008266	0.091309	-1.076442	-1.077821	-0.026672	14.6015	-1.075072	-2.319103E+14	1.150099E-16	NaN
572	1.000000	0.102685	7.37064e+06	-48489.1	1005.82	-29762.2	0.000000	0.000000	6.102764	-0.053080	NaN	0.000000	0.001554	0.001796	28.0813	0.156213	0.001875	83.3019	158.046	-165.128	-0.076661	0.101352	-1.066444	-1.067777	-0.053080	83.3019	-1.065966	-1.749805E+14	3.033482E-16	NaN
572	1.000000	0.112706	7.37064e+06	-48489.1	1005.82	-29762.2	0.000000	0.000000	6.112782	-0.118872	NaN	0.000000	0.001568	0.001799	28.0814	0.090672	0.002110	42.9679	112.293	19.0066	-0.134189	0.111410	-1.056423	-1.057720	-0.118872	42.9679	-1.054348	-1.221415E+14	9.732305E-16	NaN
572	1.000000	0.122692	7.37064e+06	-48489.1	1005.82	-29762.2	0.000000	0.000000	6.122771	-0.047442	NaN	0.000000	0.001584	0.001789	28.0811	0.059691	0.001902	31.3758	-122.326	-168.169	-0.080812	0.121368	-1.046437	-1.047761	-0.047442	31.3758	-1.045303	-9.231520E+13	5.139128E-16	NaN
572	1.000000	0.132701	7.37064e+06	-48489.1	1005.82	-29762.2	0.000000	0.000000	6.132779	-0.084451	NaN	0.000000	0.001559	0.001779	28.081	0.058955	0.001894	31.1353	-163.416	16.3926	-0.077841	0.131384	-1.036428	-1.037745	-0.084451	31.1353	-1.034394	-6.585272E+13	1.282425E-15	NaN
572	1.000000	0.142727	7.37064e+06	-48489.1	1005.82	-29762.2	0.000000	0.000000	6.142806	-0.023870	NaN	0.000000	0.001564	0.001796	28.0811	0.070203	0.001934	36.2951	145.737	-167.206	-0.037525	0.141411	-1.026403	-1.027718	-0.023870	36.2951	-1.025910	-5.063581E+13	4.713989E-16	NaN
572	1.000000	0.152701	7.37064e+06	-48489.1	1005.82	-29762.2	0.000000	0.000000	6.152780	-0.035795	NaN	0.000000	0.001552	0.001745	28.081	0.063983	0.001925	33.2354	-113.728	13.8948	-0.051307	0.151334	-1.016428	-1.017795	-0.035795	33.2354	-1.015620	-3.681477E+13	9.722868E-16	NaN
572	1.000000	0.162715	7.37064e+06	-48489.1	1005.82	-29762.2	0.000000	0.000000	6.162793	-0.074644	NaN	0.000000	0.001554	0.001782	28.0811	0.039238	0.002170	18.0831	-33.2166	-164.176	-0.037415	0.161441	-1.006414	-1.007688	-0.074644	18.0831	-1.003318	-2.514452E+13	2.968588E-15	NaN
572	1.000000	0.172696	7.37064e+06	-48489.1	1005.82	-29762.2	0.000000	0.000000	6.172775	-0.038851	NaN	0.000000	0.001554	0.001758	28.0799	0.091593	0.002044	44.8117	111.253	14.2695	-0.094661	0.171374	-0.996434	-0.997755	-0.038851	44.8117	-0.995783	-1.990653E+13	1.951689E-15	NaN
572	1.000000	0.182734	7.37064e+06	-48489.1	1005.82	-29762.2	0.000000	0.000000	6.182812	-0.081437	NaN	0.000000	0.001567	0.001752	28.08	0.048804	0.002095	23.2954	141.378	-164.659	-0.051578	0.181423	-0.986395	-0.987707	-0.081437	23.2954	-0.983773	-1.371638E+13	5.937187E-15	NaN
572	1.000000	0.192750	7.37064e+06	-48489.1	1005.82	-29762.2	0.000000	0.000000	6.192831	0.008194	NaN	0.000000	0.001584	0.001764	28.0799	0.098718	0.002016	48.9737	-142.133	17.8662	-0.031843	0.191385	-0.976379	-0.977744	0.008194	48.9737	-0.976504	-1.094746E+13	-7.484854E-16	NaN
572	1.000000	0.202725	7.37064e+06	-48489.1	1005.82	-29762.2	0.000000	0.000000	6.202803	-0.046966	NaN	0.000000	0.001546	0.001738	28.08	0.054646	0.001894	28.8582	19.0586	-165.93	-0.025917	0.201426	-0.966405	-0.967704	-0.046966	28.8582	-0.965184	-7.704651E+12	6.095790E-15	NaN
572	1.000000	0.212753	7.37064e+06	-48489.1	1005.82	-29762.2	0.000000	0.000000	6.212828	-0.114088	NaN	0.000000	0.001577	0.001782	28.0799	0.111474	0.002101	53.0542	22.9359	17.3272	-0.099174	0.211398	-0.956377	-0.957732	-0.114088	53.0542	-0.954764	-5.575352E+12	2.046296E-14	NaN
572	1.000000	0.222749	7.37064e+06	-48489.1	1005.82	-29762.2	0.000000	0.000000	6.222828	-0.045499	NaN	0.000000	0.001579	0.001777	28.0801	0.010073	0.002092	4.814596	74.3701	-163.122	-0.009633	0.221412	-0.946380	-0.947717	-0.045499	4.814596	-0.939293	-3.448227E+12	1.319492E-14	NaN
572	1.000000	0.232790	7.37064e+06	-48489.1	1005.82	-29762.2	0.000000	0.000000	6.232868	-0.071280	NaN	0.000000	0.001538	0.001746	28.0799	0.032501	0.002007	16.1954	104.209	15.8206	-0.049126	0.231385	-0.936339	-0.937744	-0.071280	16.1954	-0.933038	-2.839209E+12	2.510542E-14	NaN
572	1.000000	0.242741	7.37064e+06	-48489.1	1005.82	-29762.2	0.000000	0.000000	6.242817	-0.103418	NaN	0.000000	0.001548	0.001753	28.0798	0.115576	0.002084	55.4535	-177.385	-163.735	-0.045878	0.241459	-0.926388	-0.927670	-0.103418	55.4535	-0.924990	-2.210900E+12	4.677636E-14	NaN
572	1.000000	0.252726	7.37064e+06	-48489.1	1005.82	-29762.2	0.000000	0.000000	6.252802	-0.089494	NaN	0.000000	0.001605	0.001727	28.0799	0.049723	0.002010	24.7378	-74.0203	13.5477	-0.044610	0.251385	-0.916404	-0.917745	-0.089494	24.7378	-0.913690	-1.555988E+12	5.751574E-14	NaN
572	1.000000	0.262759	7.37064e+06	-48489.1	1005.82	-29762.2	0.000000	0.000000	6.262838	-0.053311	NaN	0.000000	0.001599	0.001760	28.08	0.044438	0.002008	22.1294	-13.2016	-163.589	-0.021632	0.261524	-0.906370	-0.907605	-0.053311	22.1294	-0.904563	-1.171439E+12	4.550901E-14	NaN
572	1.000000	0.272756	7.37064e+06	-48489.1	1005.82	-29762.2	0.000000	0.000000	6.272836	0.007839	NaN	0.000000	0.001632	0.001761	28.08	0.081333	0.001852	43.923	-11.8497	15.7404	-0.003560	0.271409	-0.896374	-0.897720	0.007839	43.923	-0.896508	-9.117421E+11	-8.597986E-15	NaN
572	1.000000	0.282758	7.37064e+06	-48489.1	1005.82	-29762.2	0.000000	0.000000	6.282838	-0.009009	NaN	0.000000	0.001592	0.001736	28.0799	0.049249	0.002112	23.3146	-36.9455	-165.584	-0.036281	0.281431	-0.886371	-0.887699	-0.009009	23.3146	-0.886081	-6.590788E+11	1.366902E-14	NaN
572	1.000000	0.292728	7.37064e+06	-48489.1	1005.82	-29762.2	0.000000	0.000000	6.292807	-0.020497	NaN	0.000000	0.001611	0.001779	28.0802	0.157077	0.001959	80.172	-63.064	15.7667	-0.001445	0.291438	-0.876402	-0.877691	-0.020497	80.172	-0.876210	-4.846731E+11	4.229136E-14	NaN
572	1.000000	0.302783	7.37064e+06	-48489.1	1005.82	-29762.2	0.000000	0.000000	6.302860	-0.087736	NaN	0.000000	0.001590	0.001761	28.0813	0.086231	0.002021	42.6709	-12.3637	-165.809	-0.081473	0.301459	-0.866346	-0.867670	-0.087736	42.6709	-0.864804	-3.397357E+11	2.582492E-13	NaN
572	1.000000	0.312789	7.37064e+06	-48489.1	1005.82	-29762.2	0.000000	0.000000	6.312868	-0.046187	NaN	0.000000	0.001527	0.001765	28.0813	0.076010	0.002009	37.8366	-142.194	14.6606	-0.079525	0.311412	-0.856340	-0.857718	-0.046187	37.8366	-0.855425	-2.536216E+11	1.821091E-13	NaN
572	1.000000	0.322785	7.37064e+06	-48489.1	1005.82	-29762.2	0.000000	0.000000	6.322861	-0.127295	NaN	0.000000	0.001482	0.001746	28.0811	0.061940	0.001981	31.267	-64.9357	-163.393	-0.076390	0.321472	-0.846344	-0.847657	-0.127295	31.267	-0.843291	-1.737281E+11	7.327273E-13	NaN
572	1.000000	0.332784	7.37064e+06	-48489.1	1005.82	-29762.2	0.000000	0.000000	6.332864	-0.012397	NaN	0.000000	0.001525	0.001758	28.0813	0.024219	0.001935	12.5135	157.526	16.0574	0.031260	0.331453	-0.836345	-0.837676	-0.012397	12.5135	-0.835602	-1.366802E+11	9.069816E-14	NaN
572	1.000000	0.342793	7.37064e+06	-48489.1	1005.82	-29762.2	0.000000	0.000000	6.342869	-0.119129	NaN	0.000000	0.001542	0.001756	28.0812	0.106725	0.001900	56.1622	-16.519	-164.303	-0.067878	0.341508	-0.826336	-0.827621	-0.119129	56.1622	-0.824746	-9.739963E+10	1.223095E-12	NaN
572	1.000000	0.352799	7.37064e+06	-48489.1	1005.82	-29762.2	0.000000	0.000000	6.352879	-0.002664	NaN	0.000000	0.001544	0.001754	28.0814	0.060648	0.001985	30.5453	-72.3591	13.9395	-0.057459	0.351501	-0.816331	-0.817628	-0.002664	30.5453	-0.816265	-7.474116E+10	3.563866E-14	NaN
572	1.000000	0.362817	7.37064e+06	-48489.1	1005.82	-29762.2	0.000000	0.000000	6.362893	-0.104611	NaN	0.000000	0.001518	0.001770	28.0814	0.093220	0.001938	48.1081	60.5443	-164.323	-0.091636	0.361466	-0.806312	-0.807663	-0.104611	48.1081	-0.804681	-5.204758E+10	2.009907E-12	NaN
572	1.000000	0.372793	7.37064e+06	-48489.1	1005.82	-29762.2	0.000000	0.000000	6.372872	-0.036145	NaN	0.000000	0.001548	0.001746	28.0815	0.054090	0.002057	26.292	-129.133	15.9185	0.029001	0.371454	-0.796337	-0.797675	-0.036145	26.292	-0.795306	-3.882688E+10	9.309159E-13	NaN
572	1.000000	0.382793	7.37064e+06	-48489.1	1005.82	-29762.2	0.000000	0.000000	6.382872	-0.031307	NaN	0.000000	0.001611	0.001735	28.0813	0.043658	0.001881	23.2121	52.3097	-164.398	-0.112692	0.381503	-0.786336	-0.787627	-0.031307	23.2121	-0.785325	-2.841716E+10	1.101706E-12	NaN
572	1.000000	0.392809	7.37064e+06	-48489.1	1005.82	-29762.2	0.000000	0.000000	6.392887	-0.066081	NaN	0.000000	0.001590	0.001712	28.0813	0.008900	0.001868	4.765182	49.2526	14.3516	-0.052889	0.391427	-0.776320	-0.777702	-0.066081	4.765182	-0.765919	-1.548168E+10	4.268320E-12	NaN
572	1.000000	0.402813	7.37064e+06	-48489.1	1005.82	-29762.2	0.000000	0.000000	6.402888	-0.130609	NaN	0.000000	0.001598	0.001747	28.0814	0.103816	0.002099	49.4685	115.954	-162.986	-0.189311	0.401507	-0.766316	-0.767623	-0.130609	49.4685	-0.764336	-1.473273E+10	8.865260E-12	NaN
572	1.000000	0.412821	7.37064e+06	-48489.1	1005.82	-29762.2	0.000000	0.000000	6.412900	-0.023090	NaN	0.000000	0.001586	0.001734	28.0813	0.103111	0.002128	48.4443	117.557	17.1622	-0.019015	0.411490	-0.756309	-0.757639	-0.023090	48.4443	-0.755951	-1.132956E+10	2.038067E-12	NaN
572	1.000000	0.422833	7.37064e+06	-48489.1	1005.82	-29762.2	0.000000	0.000000	6.422911	-0.059671	NaN	0.000000	0.001575	0.001695	28.0814	0.072815	0.002037	35.7529	61.6493	-166.328	-0.081750	0.421546	-0.746296	-0.747584	-0.059671	35.7529	-0.745045	-8.049243E+9	7.413206E-12	NaN
572	1.000000	0.432840	7.37064e+06	-48489.1	1005.82	-29762.2	0.000000	0.000000	6.432920	-0.023207	NaN	0.000000	0.001532	0.001741	28.0814	0.069542	0.002102	33.0836	39.0883	13.2028	0.011132	0.431494	-0.736289	-0.737636	-0.023207	33.0836	-0.735763	-6.016397E+9	3.857263E-12	NaN
572	1.000000	0.442849	7.37064e+06	-48489.1	1005.82	-29762.2	0.000000	0.000000	6.442929	-0.032629	NaN	0.000000	0.001608	0.001735	28.0803	0.158743	0.001934	82.0883	-162.021	-162.777	-0.029372	0.441507	-0.726280	-0.727623	-0.032629	82.0883	-0.725982	-4.426253E+9	7.371691E-12	NaN
572	1.000000	0.452834	7.37064e+06	-48489.1	1005.82	-29762.2	0.000000	0.000000	6.452911	-0.087548	NaN	0.000000	0.001604	0.001759	28.0802	0.115140	0.001992	57.8062	-66.8415	14.8927	-0.079216	0.451499	-0.716295	-0.717631	-0.087548	57.8062	-0.715159	-3.150990E+9	2.778437E-11	NaN
572	1.000000	0.462835	7.37064e+06	-48489.1	1005.82	-29762.2	0.000000	0.000000	6.462914	-0.042197	NaN	0.000000	0.001560	0.001721	28.08	0.044972	0.001999	22.5015	-123.638	-166.597	-0.080846	0.461517	-0.706294	-0.707612	-0.042197	22.5015	-0.704887	-2.281733E+9	1.849352E-11	NaN
572	1.000000	0.472828	7.37064e+06	-48489.1	1005.82	-29762.2	0.000000	0.000000	6.472903	-0.134713	NaN	0.000000	0.001589	0.001725	28.0804	0.073575	0.002027	36.2947	-15.7996	13.5849	-0.111499	0.471430	-0.696302	-0.697700	-0.134713	36.2947	-0.693518	-1.595846E+9	8.441500E-11	NaN
572	1.000000	0.482858	7.37064e+06	-48489.1	1005.82	-29762.2	0.000000	0.000000	6.482936	-0.054577	NaN	0.000000	0.001580	0.001740	28.0801	0.030622	0.002089	14.662	7.058204	-164.427	-0.063058	0.481582	-0.686272	-0.687547	-0.054577	14.662	-0.683480	-1.163561E+9	4.690547E-11	NaN
572	1.000000	0.492841	7.37064e+06	-48489.1	1005.82	-29762.2	0.000000	0.000000	6.492919	-0.065361	NaN	0.000000	0.001577	0.001768	28.0801	0.019695	0.001917	10.2753	30.2163	15.9516	0.030663	0.491457	-0.676288	-0.677672	-0.065361	10.2753	-0.671517	-7.982824E+8	8.187704E-11	NaN
572	1.000000	0.502856	7.37064e+06	-48489.1	1005.82	-29762.2	0.000000	0.000000	6.502934	-0.062506	NaN	0.000000	0.001583	0.001767	28.0801	0.054888	0.002016	27.2321	78.4232	-162.162	-0.005673	0.501547	-0.666273	-0.667583	-0.062506	27.2321	-0.664552	-6.409191E+8	9.752516E-11	NaN
572	1.000000	0.512860	7.37064e+06	-48489.1	1005.82	-29762.2	0.000000	0.000000	6.512938	-0.039399	NaN	0.000000	0.001574	0.001746	28.0805	0.043634	0.001919	22.7336	-175.271	11.1225	0.007111	0.511467	-0.656270	-0.657662	-0.039399	22.7336	-0.654970	-4.737578E+8	8.316367E-11	NaN
572	1.000000	0.522849	7.37064e+06	-48489.1	1005.82	-29762.2	0.000000	0.000000	6.522928	-0.018761	NaN	0.000000	0.001580	0.001767	28.08	0.088205	0.002017	43.7372	-115.548	-164.703	-0.094300	0.521581	-0.646281	-0.647548	-0.018761	43.7372	-0.645959	-3.564750E+8	5.262901E-11	NaN
572	1.000000	0.532869	7.37064e+06	-48489.1	1005.82	-29762.2	0.000000	0.000000	6.532948	-0.048260	NaN	0.000000	0.001560	0.001746	28.0802	0.008102	0.001996	4.058718	-47.8147	16.3569	0.004267	0.531533	-0.636260	-0.637596	-0.048260	4.058718	-0.627343	-1.979362E+8	2.438149E-10	NaN
572	1.000000	0.542889	7.37064e+06	-48489.1	1005.82	-29762.2	0.000000	0.000000	6.542970	0.027719	NaN	0.000000	0.001569	0.001740	28.0802	0.054444	0.001931	28.1903	131.634	-166.07	-0.033725	0.541575	-0.626241	-0.627554	0.027719	28.1903	-0.626978	-1.956672E+8	-1.416656E-10	NaN
572	1.000000	0.552899	7.37064e+06	-48489.1	1005.82	-29762.2	0.000000	0.000000	6.552978	-0.053358	NaN	0.000000	0.001539	0.001773	28.0799	0.055655	0.002032	27.3918	159.261	11.971	-0.155910	0.551568	-0.616230	-0.617562	-0.053358	27.3918	-0.614769	-1.329575E+8	4.013184E-10	NaN
572	1.000000	0.562919	7.37064e+06	-48489.1	1005.82	-29762.2	0.000000	0.000000	6.562998	-0.026898	NaN	0.000000	0.001630	0.001773	28.0804	0.067853	0.001932	35.1176	159.99	-162.698	-0.047779	0.561579	-0.606210	-0.607551	-0.026898	35.1176	-0.605636	-9.955387E+7	2.701815E-10	NaN
572	1.000000	0.572891	7.37064e+06	-48489.1	1005.82	-29762.2	0.000000	0.000000	6.572973	0.032650	NaN	0.000000	0.001634	0.001761	28.0803	0.007737	0.002008	3.853109	-57.1295	13.7834	-0.024132	0.571529	-0.596238	-0.597601	0.032650	3.853109	-0.602593	-9.040056E+7	-3.611661E-10	NaN
572	1.000000	0.582892	7.37064e+06	-48489.1	1005.82	-29762.2	0.000000	0.000000	6.582969	-0.069996	NaN	0.000000	0.001627	0.001756	28.0819	0.103685	0.001882	55.099	-162.744	-164.678	-0.041985	0.581637	-0.586238	-0.587492	-0.069996	55.099	-0.585285	-5.219724E+7	1.340987E-9	NaN
572	1.000000	0.592877	7.37064e+06	-48489.1	1005.82	-29762.2	0.000000	0.000000	6.592956	-0.031806	NaN	0.000000	0.001640	0.001788	28.0813	0.090289	0.001844	48.9659	114.882	15.1975	0.008824	0.591554	-0.576253	-0.577575	-0.031806	48.9659	-0.575765	-3.857168E+7	8.246004E-10	NaN
572	1.000000	0.602929	7.37064e+06	-48489.1	1005.82	-29762.2	0.000000	0.000000	6.603007	-0.068807	NaN	0.000000	0.001627	0.001747	28.0815	0.096990	0.001927	50.3377	-177.125	-164.255	-0.077618	0.601612	-0.566200	-0.567517	-0.068807	50.3377	-0.565175	-2.753869E+7	2.498570E-9	NaN
572	1.000000	0.612878	7.37065e+06	-48489.1	1005.82	-29762.2	0.000000	0.000000	6.612955	-0.093906	NaN	0.000000	0.001628	0.001779	28.0812	0.051353	0.002048	25.0691	-18.4192	16.7563	-0.077209	0.611498	-0.556251	-0.557631	-0.093906	25.0691	-0.553442	-1.895050E+7	4.955327E-9	NaN
572	1.000000	0.622899	7.37065e+06	-48489.1	1005.82	-29762.2	0.000000	0.000000	6.622974	-0.111848	NaN	0.000000	0.001627	0.001776	28.0812	0.108410	0.002023	53.5847	175.464	-165.089	-0.094008	0.621647	-0.546231	-0.547482	-0.111848	53.5847	-0.544665	-1.432321E+7	7.808868E-9	NaN
572	1.000000	0.632911	7.37065e+06	-48489.1	1005.82	-29762.2	0.000000	0.000000	6.632988	-0.069510	NaN	0.000000	0.001623	0.001766	28.0809	0.038657	0.002017	19.1659	153.323	12.9653	-0.011896	0.631553	-0.536219	-0.537576	-0.069510	19.1659	-0.533499	-1.002652E+7	6.932608E-9	NaN
572	1.000000	0.642962	7.37065e+06	-48489.1	1005.82	-29762.2	0.000000	0.000000	6.643042	-0.006820	NaN	0.000000	0.001679	0.001753	28.0811	0.141053	0.002102	67.1086	54.8017	-166.971	0.049771	0.641658	-0.526168	-0.527472	-0.006820	67.1086	-0.526091	-7.91184e+06	8.620233E-10	NaN
572	1.000000	0.652923	7.37065e+06	-48489.1	1005.82	-29762.2	0.000000	0.000000	6.653002	-0.040938	NaN	0.000000	0.001652	0.001782	28.0811	0.009358	0.002056	4.551120	-36.9117	14.8302	0.033986	0.651589	-0.516207	-0.517540	-0.040938	4.551120	-0.509460	-4.64406e+06	8.815139E-9	NaN
572	1.000000	0.662943	7.37065e+06	-48489.1	1005.82	-29762.2	0.000000	0.000000	6.663021	-0.063127	NaN	0.000000	0.001645	0.001722	28.0812	0.056460	0.002144	26.3285	-154.559	-164.369	-0.071936	0.661622	-0.506187	-0.507507	-0.063127	26.3285	-0.504388	-3.94657e+06	1.599530E-8	NaN
572	1.000000	0.672923	7.37065e+06	-48489.1	1005.82	-29762.2	0.000000	0.000000	6.673002	-0.031361	NaN	0.000000	0.001657	0.001744	28.0813	0.042897	0.002028	21.1558	141.322	16.5044	0.014702	0.671599	-0.496206	-0.497531	-0.031361	21.1558	-0.495095	-2.9279e+06	1.071120E-8	NaN
572	1.000000	0.682930	7.37065e+06	-48489.1	1005.82	-29762.2	0.000000	0.000000	6.683010	-0.011920	NaN	0.000000	0.001572	0.001749	28.0813	0.116030	0.001907	60.8445	-134.719	-163.381	0.027181	0.681604	-0.486199	-0.487525	-0.011920	60.8445	-0.486052	-2.18878e+06	5.446054E-9	NaN
572	1.000000	0.692943	7.37065e+06	-48489.1	1005.82	-29762.2	0.000000	0.000000	6.693023	-0.022094	NaN	0.000000	0.001536	0.001797	28.0814	0.045738	0.001999	22.8769	-32.701	14.4616	-0.067927	0.691520	-0.476186	-0.477610	-0.022094	22.8769	-0.475462	-1.55585e+06	1.420065E-8	NaN
572	1.000000	0.702938	7.37065e+06	-48489.1	1005.82	-29762.2	0.000000	0.000000	6.703012	-0.165881	NaN	0.000000	0.001521	0.001827	28.0815	0.088428	0.001968	44.9242	20.7867	-168.288	-0.123303	0.701649	-0.466191	-0.467481	-0.165881	44.9242	-0.463422	-1.0546e+06	1.572930E-7	NaN
572	1.000000	0.712977	7.37065e+06	-48489.1	1005.82	-29762.2	0.000000	0.000000	6.713054	-0.078621	NaN	0.000000	0.001525	0.001780	28.08	0.005356	0.002116	2.531353	-113.329	17.6558	-0.136729	0.711530	-0.456152	-0.457600	-0.078621	2.531353	-0.432858	-391278	2.009329E-7	NaN
572	1.000000	0.722978	7.37065e+06	-48489.1	1005.82	-29762.2	0.000000	0.000000	6.723056	-0.055036	NaN	0.000000	0.001482	0.001787	28.08	0.161079	0.001924	83.7076	25.4429	-165.62	-0.018279	0.721619	-0.446152	-0.447510	-0.055036	83.7076	-0.445659	-593168	9.278397E-8	NaN
572	1.000000	0.732992	7.37065e+06	-48489.1	1005.82	-29762.2	0.000000	0.000000	6.733070	-0.058018	NaN	0.000000	0.001533	0.001789	28.0804	0.056392	0.002011	28.0371	-27.6393	13.5613	-0.027840	0.731581	-0.436138	-0.437549	-0.058018	28.0371	-0.434586	-413906	1.401728E-7	NaN
572	1.000000	0.742957	7.37065e+06	-48489.1	1005.82	-29762.2	0.000000	0.000000	6.743034	-0.095883	NaN	0.000000	0.001520	0.001768	28.08	0.109628	0.002097	52.268	126.318	-162.838	-0.071941	0.741653	-0.426172	-0.427477	-0.095883	52.268	-0.424796	-300881	3.186743E-7	NaN
572	1.000000	0.752968	7.37065e+06	-48489.1	1005.82	-29762.2	0.000000	0.000000	6.753045	-0.080366	NaN	0.000000	0.001539	0.001722	28.0798	0.033440	0.001982	16.8681	-147.803	15.6562	-0.023238	0.751553	-0.416161	-0.417577	-0.080366	16.8681	-0.412588	-201926	3.979959E-7	NaN
572	1.000000	0.762974	7.37065e+06	-48489.1	1005.82	-29762.2	0.000000	0.000000	6.763053	-0.048522	NaN	0.000000	0.001565	0.001768	28.0801	0.020058	0.001974	10.1621	41.5109	-166.424	-0.004689	0.761620	-0.406155	-0.407510	-0.048522	10.1621	-0.402574	-145441	3.336189E-7	NaN
572	1.000000	0.772983	7.37065e+06	-48489.1	1005.82	-29762.2	0.000000	0.000000	6.773061	-0.068545	NaN	0.000000	0.001536	0.001761	28.0807	0.075746	0.002011	37.6639	163.12	15.7297	-0.062548	0.771593	-0.396146	-0.397537	-0.068545	37.6639	-0.394781	-112593	6.087823E-7	NaN
572	1.000000	0.782981	7.37065e+06	-48489.1	1005.82	-29762.2	0.000000	0.000000	6.783060	-0.048519	NaN	0.000000	0.001593	0.001756	28.0799	0.041982	0.001904	22.0451	143.529	-165.731	-0.076910	0.781633	-0.386148	-0.387496	-0.048519	22.0451	-0.384497	-80238.4	6.046813E-7	NaN
572	1.000000	0.792998	7.37065e+06	-48489.1	1005.82	-29762.2	0.000000	0.000000	6.793076	-0.076072	NaN	0.000000	0.001557	0.001753	28.0801	0.029067	0.002207	13.1718	-156.919	18.8309	-0.096727	0.791672	-0.376131	-0.377457	-0.076072	13.1718	-0.371800	-52727.3	1.442741E-6	NaN
572	1.000000	0.802945	7.37065e+06	-48489.1	1005.82	-29762.2	0.000000	0.000000	6.803024	-0.040264	NaN	0.000000	0.001523	0.001749	28.0801	0.050984	0.001885	27.0439	159.964	-162.107	-0.012136	0.801676	-0.366184	-0.367454	-0.040264	27.0439	-0.365068	-42172.6	9.547443E-7	NaN
572	1.000000	0.813005	7.37065e+06	-48489.1	1005.82	-29762.2	0.000000	0.000000	6.813080	-0.122248	NaN	0.000000	0.001548	0.001759	28.0803	0.107182	0.001967	54.4956	86.3398	16.4748	-0.166115	0.811635	-0.356125	-0.357494	-0.122248	54.4956	-0.354442	-29608.6	4.128807E-6	NaN
572	1.000000	0.823001	7.37065e+06	-48489.1	1005.82	-29762.2	0.000000	0.000000	6.823080	-0.032311	NaN	0.000000	0.001541	0.001742	28.08	0.075113	0.001981	37.9191	149.918	-165.96	-0.049852	0.821680	-0.346129	-0.347449	-0.032311	37.9191	-0.345490	-21952.3	1.471882E-6	NaN
572	1.000000	0.833014	7.37065e+06	-48489.1	1005.82	-29762.2	0.000000	0.000000	6.833092	-0.078712	NaN	0.000000	0.001505	0.001764	28.0802	0.107291	0.002103	51.0086	-141.632	13.0239	-0.016984	0.831671	-0.336115	-0.337458	-0.078712	51.0086	-0.334958	-15415.8	5.105947E-6	NaN
572	1.000000	0.842976	7.37065e+06	-48489.1	1005.82	-29762.2	0.000000	0.000000	6.843053	-0.083672	NaN	0.000000	0.001542	0.001779	28.0802	0.103381	0.001935	53.4173	72.6632	-167.147	-0.102000	0.841675	-0.326153	-0.327455	-0.083672	53.4173	-0.324979	-11010.9	7.599046E-6	NaN
572	1.000000	0.853005	7.37065e+06	-48489.1	1005.82	-29762.2	0.000000	0.000000	6.853082	-0.069168	NaN	0.000000	0.001531	0.001790	28.0814	0.198480	0.001944	102.077	-107.189	14.4946	-0.074008	0.851635	-0.316125	-0.317494	-0.069168	102.077	-0.315616	-8017.57	8.627102E-6	NaN
572	1.000000	0.862998	7.37065e+06	-48489.1	1005.82	-29762.2	0.000000	0.000000	6.863076	-0.067694	NaN	0.000000	0.001531	0.001792	28.0813	0.071359	0.001942	36.7388	-135.974	-167.132	-0.086430	0.861700	-0.306131	-0.307430	-0.067694	36.7388	-0.304750	-5536.53	1.222678E-5	NaN
572	1.000000	0.872977	7.37065e+06	-48489.1	1005.82	-29762.2	0.000000	0.000000	6.873055	-0.050783	NaN	0.000000	0.001564	0.001772	28.0815	0.006316	0.001942	3.252674	143.566	17.1382	-0.024730	0.871625	-0.296152	-0.297505	-0.050783	3.252674	-0.284443	-2753.53	1.844266E-5	NaN
572	1.000000	0.883002	7.37065e+06	-48489.1	1005.82	-29762.2	0.000000	0.000000	6.883081	-0.036075	NaN	0.000000	0.001503	0.001764	28.0814	0.144832	0.002153	67.2584	-100.992	-167.965	-0.050031	0.881729	-0.286127	-0.287401	-0.036075	67.2584	-0.285725	-2878.46	1.253265E-5	NaN
572	1.000000	0.893033	7.37065e+06	-48489.1	1005.82	-29762.2	0.000000	0.000000	6.893111	-0.046778	NaN	0.000000	0.001519	0.001784	28.0814	0.050902	0.001840	27.6598	158.585	12.2191	-0.077326	0.891617	-0.276097	-0.277513	-0.046778	27.6598	-0.274828	-1971.52	2.372708E-5	NaN
572	1.000000	0.903013	7.37065e+06	-48489.1	1005.82	-29762.2	0.000000	0.000000	6.903091	-0.060802	NaN	0.000000	0.001489	0.001758	28.0813	0.024325	0.001877	12.9563	112.875	-164.476	-0.050103	0.901737	-0.266116	-0.267393	-0.060802	12.9563	-0.262597	-1284.31	4.734249E-5	NaN
572	1.000000	0.913053	7.37065e+06	-48489.1	1005.82	-29762.2	0.000000	0.000000	6.913130	-0.084789	NaN	0.000000	0.001528	0.001739	28.0816	0.061145	0.001951	31.3445	-33.0875	15.9745	-0.082079	0.911677	-0.256076	-0.257453	-0.084789	31.3445	-0.254047	-949.389	8.930944E-5	NaN
572	1.000000	0.923032	7.37065e+06	-48489.1	1005.82	-29762.2	0.000000	0.000000	6.923110	-0.040470	NaN	0.000000	0.001517	0.001772	28.0813	0.196615	0.002144	91.6927	167.773	-164.639	-0.076001	0.921732	-0.246098	-0.247397	-0.040470	91.6927	-0.245767	-706.911	5.724894E-5	NaN
572	1.000000	0.933040	7.37065e+06	-48489.1	1005.82	-29762.2	0.000000	0.000000	6.933117	-0.069061	NaN	0.000000	0.001566	0.001800	28.0816	0.171654	0.001921	89.3717	-179.694	14.8889	-0.048560	0.931651	-0.236090	-0.237478	-0.069061	89.3717	-0.235510	-488.941	0.000141	NaN
572	1.000000	0.943048	7.37065e+06	-48489.1	1005.82	-29762.2	0.000000	0.000000	6.943126	-0.062443	NaN	0.000000	0.001606	0.001752	28.0815	0.047303	0.002045	23.1274	-178.6	-162.964	-0.007185	0.941802	-0.226081	-0.227328	-0.062443	23.1274	-0.224056	-322.358	0.000194	NaN
572	1.000000	0.953061	7.37065e+06	-48489.1	1005.82	-29762.2	0.000000	0.000000	6.953140	-0.032365	NaN	0.000000	0.001585	0.001773	28.0819	0.092525	0.001966	47.0587	0.215215	17.2578	-0.004324	0.951668	-0.216069	-0.217461	-0.032365	47.0587	-0.215553	-235.725	0.000137	NaN
572	1.000000	0.963061	7.37065e+06	-48489.1	1005.82	-29762.2	0.000000	0.000000	6.963139	-0.059866	NaN	0.000000	0.001606	0.001749	28.0814	0.015061	0.001980	7.607623	77.7803	-166.234	-0.093160	0.961733	-0.206069	-0.207396	-0.059866	7.607623	-0.200167	-132.568	0.000452	NaN
572	1.000000	0.973018	7.37065e+06	-48489.1	1005.82	-29762.2	0.000000	0.000000	6.973095	-0.083859	NaN	0.000000	0.001580	0.001764	28.0817	0.117199	0.002056	57.0049	172.141	15.1902	-0.057291	0.971697	-0.196112	-0.197433	-0.083859	57.0049	-0.195008	-108.978	0.000769	NaN
572	1.000000	0.983072	7.37065e+06	-48489.1	1005.82	-29762.2	0.000000	0.000000	6.983151	-0.044281	NaN	0.000000	0.001553	0.001702	28.0811	0.029926	0.002086	14.349	123.244	-166.098	-0.090298	0.981744	-0.186057	-0.187385	-0.044281	14.349	-0.183743	-70.6179	0.000627	NaN
572	1.000000	0.993051	7.37065e+06	-48489.1	1005.82	-29762.2	0.000000	0.000000	6.993128	-0.076009	NaN	0.000000	0.001536	0.001748	28.0805	0.007933	0.002019	3.928996	18.2006	13.9807	-0.063761	0.991704	-0.176079	-0.177425	-0.076009	3.928996	-0.161570	-29.2297	0.002600	NaN
572	1.000000	1.003064	7.37065e+06	-48489.1	1005.82	-29762.2	0.000000	0.000000	7.003143	-0.047283	NaN	0.000000	0.001547	0.001750	28.0802	0.091259	0.002003	45.5688	-16.5729	-163.986	-0.086544	1.001785	-0.166065	-0.167345	-0.047283	45.5688	-0.165287	-33.9891	0.001391	NaN
572	1.000000	1.013090	7.37065e+06	-48489.1	1005.82	-29762.2	0.000000	0.000000	7.013166	-0.119283	NaN	0.000000	0.001515	0.001728	28.0803	0.078993	0.002036	38.7944	43.4424	19.1019	-0.002358	1.011691	-0.156039	-0.157439	-0.119283	38.7944	-0.153733	-21.1712	0.005634	NaN
572	1.000000	1.023076	7.37065e+06	-48489.1	1005.82	-29762.2	0.000000	0.000000	7.023154	-0.053391	NaN	0.000000	0.001528	0.001744	28.0802	0.098541	0.001898	51.9215	-55.9128	-163.595	-0.118330	1.021808	-0.146053	-0.147321	-0.053391	51.9215	-0.145282	-14.8383	0.003598	NaN
572	1.000000	1.033075	7.37065e+06	-48489.1	1005.82	-29762.2	0.000000	0.000000	7.033150	-0.125307	NaN	0.000000	0.001530	0.001771	28.0801	0.032213	0.002055	15.6738	110.34	15.0361	-0.111124	1.031698	-0.136055	-0.137432	-0.125307	15.6738	-0.130059	-7.640972	0.016399	NaN
572	1.000000	1.043051	7.37065e+06	-48489.1	1005.82	-29762.2	0.000000	0.000000	7.043132	-0.010654	NaN	0.000000	0.001513	0.001753	28.0801	0.018224	0.001918	9.503306	102.282	-166.163	-0.048909	1.041809	-0.126078	-0.127320	-0.010654	9.503306	-0.125237	-6.147294	0.001733	NaN
572	1.000000	1.053090	7.37065e+06	-48489.1	1005.82	-29762.2	0.000000	0.000000	7.053170	-0.024502	NaN	0.000000	0.001502	0.001760	28.08	0.010068	0.002049	4.914154	-132.777	15.4789	-0.104804	1.051684	-0.116039	-0.117446	-0.024502	4.914154	-0.112300	-3.358220	0.007296	NaN
572	1.000000	1.063100	7.37065e+06	-48489.1	1005.82	-29762.2	0.000000	0.000000	7.063176	-0.096285	NaN	0.000000	0.001529	0.001750	28.0805	0.044937	0.002049	21.9278	-25.6441	-165.226	-0.103961	1.061742	-0.106030	-0.107387	-0.096285	21.9278	-0.102737	-2.098940	0.045873	NaN
572	1.000000	1.073088	7.37065e+06	-48489.1	1005.82	-29762.2	0.000000	0.000000	7.073162	-0.160881	NaN	0.000000	0.001570	0.001708	28.08	0.044907	0.002089	21.5011	121.113	14.5253	-0.115325	1.071713	-0.096041	-0.097417	-0.160881	21.5011	-0.090429	-1.106318	0.145420	NaN
572	1.000000	1.083097	7.37065e+06	-48489.1	1005.82	-29762.2	0.000000	0.000000	7.083175	-0.055423	NaN	0.000000	0.001536	0.001773	28.0801	0.030934	0.001945	15.9051	71.25	-165.557	-0.094607	1.081799	-0.086033	-0.087330	-0.055423	15.9051	-0.083419	-0.752013	0.073700	NaN
572	1.000000	1.093114	7.37065e+06	-48489.1	1005.82	-29762.2	0.000000	0.000000	7.093193	-0.056644	NaN	0.000000	0.001521	0.001782	28.0802	0.015511	0.001973	7.860715	-9.795618	15.2419	-0.029719	1.091759	-0.076015	-0.077371	-0.056644	7.860715	-0.070611	-0.354170	0.159935	NaN
572	1.000000	1.103138	7.37065e+06	-48489.1	1005.82	-29762.2	0.000000	0.000000	7.103216	-0.060916	NaN	0.000000	0.001520	0.001805	28.0802	0.029125	0.002001	14.5552	-88.3794	-166.313	-0.038960	1.101769	-0.065991	-0.067360	-0.060916	14.5552	-0.062852	-0.217048	0.280656	NaN
572	1.000000	1.113120	7.37065e+06	-48489.1	1005.82	-29762.2	0.000000	0.000000	7.113198	-0.051298	NaN	0.000000	0.001557	0.001772	28.08	0.053531	0.001988	26.9262	113.268	14.0567	-0.097826	1.111724	-0.056010	-0.057406	-0.051298	26.9262	-0.054581	-0.125150	0.409895	NaN
572	1.000000	1.123112	7.37065e+06	-48489.1	1005.82	-29762.2	0.000000	0.000000	7.123187	-0.123898	NaN	0.000000	0.001549	0.001777	28.0812	0.107373	0.002000	53.683	144.764	-162.664	-0.152413	1.121814	-0.046018	-0.047315	-0.123898	53.683	-0.044287	-0.061119	2.027141	NaN
572	1.000000	1.133106	7.37065e+06	-48489.1	1005.82	-29762.2	0.000000	0.000000	7.133187	-0.007330	NaN	0.000000	0.001610	0.001730	28.0815	0.081448	0.002027	40.1849	-52.3243	14.9105	-0.053618	1.131722	-0.036023	-0.037407	-0.007330	40.1849	-0.035886	-0.034015	0.215503	NaN
572	1.000000	1.143119	7.37065e+06	-48489.1	1005.82	-29762.2	0.000000	0.000000	7.143197	-0.057345	NaN	0.000000	0.001607	0.001716	28.0814	0.030586	0.002031	15.0607	5.470779	-162.374	-0.055026	1.141871	-0.026010	-0.027259	-0.057345	15.0607	-0.023154	-0.015114	3.794235	NaN
572	1.000000	1.153137	7.37065e+06	-48489.1	1005.82	-29762.2	0.000000	0.000000	7.153216	-0.033982	NaN	0.000000	0.001593	0.001737	28.0812	0.052658	0.001909	27.5887	-61.2622	13.5748	-0.042319	1.151766	-0.015993	-0.017364	-0.033982	27.5887	-0.015069	-0.009317	3.647325	NaN
572	1.000000	1.163105	7.37065e+06	-48489.1	1005.82	-29762.2	0.000000	0.000000	7.163183	-0.080427	NaN	0.000000	0.001631	0.001759	28.0817	0.075526	0.002029	37.2312	15.9346	-166.402	-0.070880	1.161779	-0.006024	-0.007351	-0.080427	37.2312	-0.004404	-0.003039	26.4667	NaN
572	1.000000	1.173072	7.37065e+06	-48489.1	1005.82	-29762.2	0.000000	0.000000	7.173427	6.691326	NaN	0.000000	0.001662	0.001716	28.0815	7.106354	0.001710	4155.55	15.0174	6.768475	4.916370	1.171792	0.003942	0.002663	6.691326	4155.55	0.002735	0.002158	3101.04	81733.2
572	2.000000	1.176710	7.37065e+06	-48489.1	1005.82	-29762.2	0.000000	0.000000	7.177254	11.2798	NaN	0.000000	0.001647	0.001722	28.0813	10.6517	0.001530	6963.91	8.970943	-177.523	10.8957	1.176365	0.007580	0.007236	11.2798	6963.91	0.006366	0.005414	2083.29	86466.8
572	2.000000	1.179174	7.37065e+06	-48489.1	1005.82	-29762.2	0.000000	0.000000	7.179839	14.2232	NaN	0.000000	0.001601	0.001761	28.0813	13.6813	0.001695	8073.76	6.885850	5.279852	13.6068	1.178835	0.010044	0.009706	14.2232	8073.76	0.008723	0.007797	1824.26	83539.8
572	2.000000	1.181661	7.37065e+06	-48489.1	1005.82	-29762.2	0.000000	0.000000	7.182534	19.2935	NaN	0.000000	0.001620	0.001750	28.0816	16.6579	0.001783	9340.05	3.494744	-171.715	18.8213	1.181376	0.012531	0.012247	19.2935	9340.05	0.010982	0.010293	1874.36	84109.2
572	2.000000	1.184198	7.37065e+06	-48489.1	1005.82	-29762.2	0.000000	0.000000	7.185226	23.0431	NaN	0.000000	0.001618	0.001764	28.0813	18.739	0.001683	11136.2	2.915172	6.920079	21.6296	1.183826	0.015069	0.014696	23.0431	11136.2	0.013517	0.013358	1725.04	88031.6
572	2.000000	1.186639	7.37065e+06	-48489.1	1005.82	-29762.2	0.000000	0.000000	7.187878	28.1746	NaN	0.000000	0.001593	0.001771	28.0815	21.454	0.001722	12459.1	6.173777	-177.432	27.7852	1.186320	0.017510	0.017190	28.1746	12459.1	0.015814	0.016386	1719.47	88926.2
572	2.000000	1.189119	7.37065e+06	-48489.1	1005.82	-29762.2	0.000000	0.000000	7.190573	33.4043	NaN	0.000000	0.001629	0.001742	28.0812	23.6728	0.001748	13545	2.701506	4.305247	31.3707	1.188815	0.019990	0.019686	33.4043	13545	0.018140	0.019704	1695.34	88161.5
572	2.000000	1.191649	7.37065e+06	-48489.1	1005.82	-29762.2	0.000000	0.000000	7.193391	40.4055	NaN	0.000000	0.001650	0.001698	28.0815	26.7762	0.001748	15317	3.237252	-177.317	39.7876	1.191331	0.022520	0.022202	40.4055	15317	0.020541	0.023400	1726.74	91483.2
572	2.000000	1.194119	7.37065e+06	-48489.1	1005.82	-29762.2	0.000000	0.000000	7.196283	50.6744	NaN	0.000000	0.001642	0.001766	28.0814	29.1683	0.001850	15762.9	6.905733	-0.325347	48.8272	1.193724	0.024989	0.024594	50.6744	15762.9	0.022578	0.026757	1893.88	88042.1
572	2.000000	1.196588	7.37065e+06	-48489.1	1005.82	-29762.2	0.000000	0.000000	7.198922	54.8056	NaN	0.000000	0.001620	0.001799	28.0801	30.8813	0.001691	18258.5	2.436484	-178.106	53.5223	1.196266	0.027459	0.027137	54.8056	18258.5	0.025207	0.031394	1745.73	94148.4
572	2.000000	1.199093	7.37065e+06	-48489.1	1005.82	-29762.2	0.000000	0.000000	7.201793	63.6968	NaN	0.000000	0.001592	0.001748	28.08	33.7258	0.001669	20204.3	3.941124	-0.783667	61.2753	1.198675	0.029964	0.029545	63.6968	20204.3	0.027599	0.035915	1773.54	97404.5
572	2.000000	1.201599	7.37065e+06	-48489.1	1005.82	-29762.2	0.000000	0.000000	7.204431	66.9161	NaN	0.000000	0.001528	0.001739	28.0804	37.7427	0.002007	18805.2	6.047363	177.833	65.3816	1.201272	0.032470	0.032143	66.9161	18805.2	0.029801	0.040332	1659.12	85550.9
572	2.000000	1.204129	7.37065e+06	-48489.1	1005.82	-29762.2	0.000000	0.000000	7.207398	77.5626	NaN	0.000000	0.001530	0.001726	28.0801	38.6584	0.001799	21483	3.887722	-0.802251	76.3543	1.203761	0.034999	0.034631	77.5626	21483	0.032291	0.045627	1699.92	91887.6
572	2.000000	1.206635	7.37065e+06	-48489.1	1005.82	-29762.2	0.000000	0.000000	7.210222	85.2874	NaN	0.000000	0.001568	0.001747	28.0802	40.1328	0.001609	24948.4	5.200806	176.045	86.7129	1.206234	0.037506	0.037105	85.2874	24948.4	0.034942	0.051610	1652.53	100334
572	2.000000	1.209049	7.37065e+06	-48489.1	1005.82	-29762.2	0.000000	0.000000	7.213220	99.488	NaN	0.000000	0.001526	0.001742	28.0803	43.2702	0.001725	25078.6	5.723341	-4.299715	95.7446	1.208765	0.039920	0.039636	99.488	25078.6	0.036944	0.056370	1764.9	96505.4
572	2.000000	1.211621	7.37065e+06	-48489.1	1005.82	-29762.2	0.000000	0.000000	7.216017	104.969	NaN	0.000000	0.001587	0.001782	28.0808	46.5892	0.001899	24534.3	2.253066	-179.765	104.005	1.211297	0.042492	0.042168	104.969	24534.3	0.039283	0.062188	1687.92	89886.3
572	2.000000	1.214184	7.37065e+06	-48489.1	1005.82	-29762.2	0.000000	0.000000	7.219111	117.894	NaN	0.000000	0.001591	0.001792	28.0801	49.0013	0.001831	26768.6	7.979760	-5.004951	121.515	1.213641	0.045054	0.044512	117.894	26768.6	0.041751	0.068632	1717.76	93354.4
572	2.000000	1.216599	7.37065e+06	-48489.1	1005.82	-29762.2	0.000000	0.000000	7.222044	130.464	NaN	0.000000	0.001559	0.001806	28.0802	50.5905	0.001843	27442.7	4.566471	176.337	130.513	1.216322	0.047470	0.047193	130.464	27442.7	0.043904	0.074507	1751.03	91854.8
572	2.000000	1.219108	7.37065e+06	-48489.1	1005.82	-29762.2	0.000000	0.000000	7.224984	140.944	NaN	0.000000	0.001598	0.001792	28.0801	54.1724	0.001842	29412.8	7.480014	-6.569304	139.903	1.218682	0.049979	0.049553	140.944	29412.8	0.046385	0.081568	1727.94	94091.6
572	2.000000	1.221575	7.37065e+06	-48489.1	1005.82	-29762.2	0.000000	0.000000	7.227770	148.716	NaN	0.000000	0.001602	0.001817	28.0804	56.1885	0.001871	30032.8	2.224466	178.247	148.262	1.221348	0.052446	0.052219	148.716	30032.8	0.048732	0.088535	1679.75	92217.4
572	2.000000	1.224043	7.37065e+06	-48489.1	1005.82	-29762.2	0.000000	0.000000	7.230670	159.219	NaN	0.000000	0.001593	0.001772	28.08	57.6746	0.001791	32209.3	2.507149	-2.306189	155.63	1.223753	0.054914	0.054624	159.219	32209.3	0.051206	0.096177	1655.48	94889.4
572	2.000000	1.226526	7.37065e+06	-48489.1	1005.82	-29762.2	0.000000	0.000000	7.233693	172.359	NaN	0.000000	0.001596	0.001776	28.0802	60.7196	0.001925	31542.6	5.113596	174.814	168.451	1.226362	0.057397	0.057233	172.359	31542.6	0.053299	0.102881	1675.33	89847.1
572	2.000000	1.229041	7.37065e+06	-48489.1	1005.82	-29762.2	0.000000	0.000000	7.237062	193.129	NaN	0.000000	0.001593	0.001783	28.0806	62.5235	0.001831	34141.9	3.717145	-4.405775	189.775	1.228748	0.059911	0.059618	193.129	34141.9	0.055669	0.110737	1744.03	93737.6
572	2.000000	1.231554	7.37065e+06	-48489.1	1005.82	-29762.2	0.000000	0.000000	7.240026	204.107	NaN	0.000000	0.001572	0.001785	28.0817	65.0033	0.001862	34901.5	1.877154	178.09	201.16	1.231269	0.062424	0.062140	204.107	34901.5	0.058038	0.118868	1717.09	92488.1
572	2.000000	1.234167	7.37065e+06	-48489.1	1005.82	-29762.2	0.000000	0.000000	7.243220	218.24	NaN	0.000000	0.001570	0.001801	28.0813	67.4409	0.001762	38283.3	6.059201	-6.143382	219.698	1.233670	0.065037	0.064540	218.24	38283.3	0.060762	0.128554	1697.66	97553
572	2.000000	1.236551	7.37065e+06	-48489.1	1005.82	-29762.2	0.000000	0.000000	7.246238	233.626	NaN	0.000000	0.001597	0.001770	28.0816	69.9496	0.001780	39302.1	5.081713	173.385	231.6	1.236321	0.067422	0.067192	233.626	39302.1	0.062964	0.136650	1709.66	97137
572	2.000000	1.239045	7.37065e+06	-48489.1	1005.82	-29762.2	0.000000	0.000000	7.249450	251.105	NaN	0.000000	0.001607	0.001785	28.0813	73.4498	0.001887	38922.1	6.348831	-7.391927	248.145	1.238692	0.069915	0.069563	251.105	38922.1	0.065077	0.144639	1736.07	93503.2
572	2.000000	1.241576	7.37065e+06	-48489.1	1005.82	-29762.2	0.000000	0.000000	7.252570	265.433	NaN	0.000000	0.001584	0.001771	28.0818	76.037	0.001865	40778.4	9.541666	169.173	265.692	1.241239	0.072446	0.072110	265.433	40778.4	0.067565	0.154322	1719.99	94839.5
572	2.000000	1.244021	7.37065e+06	-48489.1	1005.82	-29762.2	0.000000	0.000000	7.255783	284.123	NaN	0.000000	0.001585	0.001756	28.0812	76.528	0.001672	45762.8	7.547475	-9.587162	280.534	1.243585	0.074892	0.074456	284.123	45762.8	0.070235	0.165046	1721.48	102916
572	2.000000	1.246553	7.37065e+06	-48489.1	1005.82	-29762.2	0.000000	0.000000	7.258467	287.828	NaN	0.000000	0.001544	0.001778	28.0815	77.7343	0.001638	47459.9	1.202851	175.829	285.62	1.246435	0.077423	0.077305	287.828	47459.9	0.072875	0.175979	1635.58	103364
572	2.000000	1.249057	7.37065e+06	-48489.1	1005.82	-29762.2	0.000000	0.000000	7.262044	313.909	NaN	0.000000	0.001565	0.001792	28.0815	80.893	0.001870	43249.1	3.389546	-5.825300	313.267	1.248712	0.079928	0.079583	313.909	43249.1	0.074484	0.182806	1717.17	92417.5
572	2.000000	1.251566	7.37065e+06	-48489.1	1005.82	-29762.2	0.000000	0.000000	7.265204	329.74	NaN	0.000000	0.001586	0.001792	28.0814	83.4486	0.001754	47583	4.028630	173.251	329.509	1.251289	0.082437	0.082160	329.74	47583	0.077239	0.194778	1692.91	98504.3
572	2.000000	1.253991	7.37065e+06	-48489.1	1005.82	-29762.2	0.000000	0.000000	7.268629	354.072	NaN	0.000000	0.001563	0.001792	28.0818	85.3701	0.001736	49183.9	2.460036	-4.837303	347.391	1.253656	0.084861	0.084526	354.072	49183.9	0.079462	0.204695	1729.76	99321.4
572	2.000000	1.256474	7.37065e+06	-48489.1	1005.82	-29762.2	0.000000	0.000000	7.271708	368.557	NaN	0.000000	0.001566	0.001761	28.0818	86.8763	0.001793	48462.9	2.225291	175.148	364.497	1.256229	0.087345	0.087100	368.557	48462.9	0.081641	0.214639	1717.1	95571.4
572	2.000000	1.258937	7.37065e+06	-48489.1	1005.82	-29762.2	0.000000	0.000000	7.274902	386.317	NaN	0.000000	0.001581	0.001781	28.0817	90.3628	0.001780	50771.5	4.866889	-8.105481	378.612	1.258556	0.089808	0.089427	386.317	50771.5	0.084101	0.226133	1708.36	97546.3
572	2.000000	1.261433	7.37065e+06	-48489.1	1005.82	-29762.2	0.000000	0.000000	7.278383	410.271	NaN	0.000000	0.001551	0.001777	28.0813	93.4386	0.001826	51163.8	4.825698	172.251	405.814	1.261201	0.092304	0.092071	410.271	51163.8	0.086290	0.236594	1734.07	96102.4
572	2.000000	1.263995	7.37065e+06	-48489.1	1005.82	-29762.2	0.000000	0.000000	7.281763	430.199	NaN	0.000000	0.001564	0.001782	28.0803	95.9291	0.001882	50979.1	7.127334	-9.698153	425.825	1.263667	0.094865	0.094538	430.199	50979.1	0.088536	0.247560	1737.76	93610.7
572	2.000000	1.266422	7.37065e+06	-48489.1	1005.82	-29762.2	0.000000	0.000000	7.285065	451.465	NaN	0.000000	0.001559	0.001761	28.0803	96.2038	0.001771	54316.7	2.804123	174.437	445.834	1.266105	0.097293	0.096976	451.465	54316.7	0.091059	0.260151	1735.39	97295.7
572	2.000000	1.269092	7.37065e+06	-48489.1	1005.82	-29762.2	0.000000	0.000000	7.288295	465.097	NaN	0.000000	0.001557	0.001794	28.0803	99.8946	0.001686	59236.3	6.011462	-9.138897	465.572	1.268577	0.099962	0.099447	465.097	59236.3	0.094074	0.275579	1687.7	103095
572	2.000000	1.271533	7.37065e+06	-48489.1	1005.82	-29762.2	0.000000	0.000000	7.291626	486.754	NaN	0.000000	0.001582	0.001755	28.08	103.19	0.001832	56313.6	3.132791	173.278	485.965	1.271348	0.102403	0.102218	486.754	56313.6	0.095921	0.285237	1706.49	96334.9
572	2.000000	1.272965	7.37065e+06	-48489.1	1005.82	-29762.2	0.000000	0.000000	7.294102	512.137	NaN	0.000000	0.001649	0.001776	28.0803	103.911	0.001813	57327	4.101739	-7.818165	505.966	1.272593	0.103835	0.103464	512.137	57327	0.097135	0.291673	1755.86	96980.5