File: remote_trans/data/nanoindenter/0828-1/data/Data_2025-08-06,11h17m57s/2025-07-22_16-23-58_1_217.txt
2025-07-22, 16:23:58, 1
Index	Phase	Displacement	Time	Pos X	Pos Y	Pos Z	Rot A	Rot B	Piezo Z	Force A	Force B	Gripper	Voltage A	Voltage B	Temperature	Amplitude force	Amplitude pos	Stiffness	Phase shift	Phase excitation	Force A raw	Displacement raw	HMax	HMax raw	Real Force	Real Stiffness	Contact Depth	Area	Hardness	Reduced Mod.
[#]	[#]	[um]	[s]	[um]	[um]	[um]	[m°]	[m°]	[um]	[uN]	[uN]	[V]	[V]	[V]	[°C]	[uN]	[um]	[N/m]	[°]	[°]	[uN]	[um]	[um]	[um]	[uN]	[N/m]	[um]	[um^2]	[MPa]	[MPa]
217	1.000000	0.002837	7.36717e+06	-49489.1	955.818	-29759.2	0.000000	0.000000	6.002799	0.083915	NaN	0.000000	0.001647	0.001742	28.0771	0.041638	0.000899	46.3289	-41.6423	-159.356	0.025785	0.001584	-1.051435	-1.052688	0.083915	46.3289	-1.052793	-1.164021E+14	-7.209051E-16	NaN
217	1.000000	0.010820	7.36717e+06	-49489.1	955.818	-29759.2	0.000000	0.000000	6.010778	0.022156	NaN	0.000000	0.001677	0.001756	28.0771	0.046479	0.000951	48.8501	-41.8367	-156.79	-0.032975	0.009456	-1.043452	-1.044816	0.022156	48.8501	-1.043793	-8.809707E+13	-2.514963E-16	NaN
217	1.000000	0.018799	7.36717e+06	-49489.1	955.818	-29759.2	0.000000	0.000000	6.018756	-0.036574	NaN	0.000000	0.001653	0.001759	28.0768	0.020221	0.001613	12.5362	2.999566	-166.987	0.071320	0.017474	-1.035473	-1.036798	-0.036574	12.5362	-1.033285	-6.362989E+13	5.747882E-16	NaN
217	1.000000	0.026850	7.36717e+06	-49489.1	955.819	-29759.2	0.000000	0.000000	6.026806	-0.022027	NaN	0.000000	0.001666	0.001768	28.0771	0.098999	0.001825	54.2498	117.29	-166.967	-0.007811	0.025469	-1.027423	-1.028803	-0.022027	54.2498	-1.027118	-5.256703E+13	4.190328E-16	NaN
217	1.000000	0.034805	7.36717e+06	-49489.1	955.818	-29759.2	0.000000	0.000000	6.034762	-0.032810	NaN	0.000000	0.001685	0.001760	28.0776	0.118525	0.001935	61.2402	171.97	-164.256	-0.089737	0.033460	-1.019467	-1.020812	-0.032810	61.2402	-1.019065	-4.096086E+13	8.009992E-16	NaN
217	1.000000	0.042801	7.36717e+06	-49489.1	955.82	-29759.2	0.000000	0.000000	6.042757	-0.047325	NaN	0.000000	0.001696	0.001745	28.0769	0.114390	0.001827	62.6068	140.474	-165.115	-0.059040	0.041454	-1.011471	-1.012818	-0.047325	62.6068	-1.010904	-3.180909E+13	1.487791E-15	NaN
217	1.000000	0.050777	7.36717e+06	-49489.1	955.819	-29759.2	0.000000	0.000000	6.050736	0.014284	NaN	0.000000	0.001701	0.001741	28.0772	0.086776	0.002034	42.6652	-146.275	-164.917	0.035750	0.049494	-1.003495	-1.004778	0.014284	42.6652	-1.003746	-2.547979E+13	-5.606021E-16	NaN
217	1.000000	0.058804	7.36717e+06	-49489.1	955.818	-29759.2	0.000000	0.000000	6.058763	0.046605	NaN	0.000000	0.001689	0.001762	28.0776	0.084979	0.001923	44.1859	-141.836	-164.24	0.083753	0.057522	-0.995469	-0.996750	0.046605	44.1859	-0.996260	-2.020258E+13	-2.306885E-15	NaN
217	1.000000	0.066794	7.36717e+06	-49489.1	955.818	-29759.2	0.000000	0.000000	6.066750	-0.043275	NaN	0.000000	0.001687	0.001726	28.0771	0.082919	0.002009	41.2735	-5.071851	-168.167	-0.022892	0.065534	-0.987478	-0.988738	-0.043275	41.2735	-0.986692	-1.501618E+13	2.881871E-15	NaN
217	1.000000	0.074816	7.36717e+06	-49489.1	955.818	-29759.2	0.000000	0.000000	6.074772	-0.040657	NaN	0.000000	0.001689	0.001738	28.0772	0.088814	0.001957	45.3761	103.164	-163.868	-0.021348	0.073528	-0.979456	-0.980744	-0.040657	45.3761	-0.978784	-1.174983E+13	3.460202E-15	NaN
217	1.000000	0.082828	7.36717e+06	-49489.1	955.818	-29759.2	0.000000	0.000000	6.082786	-0.000534	NaN	0.000000	0.001685	0.001724	28.0769	0.038077	0.002000	19.039	65.3891	-165.732	0.084044	0.081527	-0.971444	-0.972745	-0.000534	19.039	-0.971423	-9.350513E+12	5.707759E-17	NaN
217	1.000000	0.090814	7.36717e+06	-49489.1	955.819	-29759.2	0.000000	0.000000	6.090768	-0.098013	NaN	0.000000	0.001691	0.001726	28.0772	0.035767	0.002107	16.9731	-178.466	-165.083	-0.091444	0.089448	-0.963458	-0.964824	-0.098013	16.9731	-0.959127	-6.384175E+12	1.535252E-14	NaN
217	1.000000	0.098803	7.36717e+06	-49489.1	955.818	-29759.2	0.000000	0.000000	6.098759	-0.041389	NaN	0.000000	0.001672	0.001741	28.077	0.048968	0.001992	24.5832	51.4989	-164.984	-0.066083	0.097513	-0.955469	-0.956759	-0.041389	24.5832	-0.954207	-5.479708E+12	7.553222E-15	NaN
217	1.000000	0.106814	7.36717e+06	-49489.1	955.818	-29759.2	0.000000	0.000000	6.106772	0.002016	NaN	0.000000	0.001661	0.001758	28.0769	0.132919	0.002049	64.865	-101.842	-164.276	0.044337	0.105458	-0.947458	-0.948814	0.002016	64.865	-0.947481	-4.446857E+12	-4.533974E-16	NaN
217	1.000000	0.114826	7.36717e+06	-49489.1	955.818	-29759.2	0.000000	0.000000	6.114784	0.002103	NaN	0.000000	0.001716	0.001747	28.0769	0.034002	0.002036	16.7018	-26.0955	-165.186	0.062703	0.113488	-0.939446	-0.940784	0.002103	16.7018	-0.939540	-3.474829E+12	-6.051645E-16	NaN
217	1.000000	0.122865	7.36717e+06	-49489.1	955.819	-29759.2	0.000000	0.000000	6.122824	0.026829	NaN	0.000000	0.001699	0.001761	28.0769	0.098190	0.001937	50.6926	44.594	-164.301	0.038430	0.121546	-0.931407	-0.932726	0.026829	50.6926	-0.931804	-2.732396E+12	-9.818758E-15	NaN
217	1.000000	0.130817	7.36717e+06	-49489.1	955.818	-29759.2	0.000000	0.000000	6.130771	-0.077014	NaN	0.000000	0.001695	0.001729	28.076	0.041098	0.002028	20.2606	-93.7623	-161.846	-0.029913	0.129568	-0.923456	-0.924704	-0.077014	20.2606	-0.920605	-1.929168E+12	3.992079E-14	NaN
217	1.000000	0.138826	7.36717e+06	-49489.1	955.817	-29759.2	0.000000	0.000000	6.138784	-0.002662	NaN	0.000000	0.001633	0.001744	28.0759	0.062509	0.002044	30.5776	-135.543	-167.073	0.032980	0.137520	-0.915446	-0.916752	-0.002662	30.5776	-0.915381	-1.639961E+12	1.623250E-15	NaN
217	1.000000	0.146847	7.36717e+06	-49489.1	955.819	-29759.2	0.000000	0.000000	6.146808	0.077831	NaN	0.000000	0.001650	0.001751	28.0756	0.045712	0.001985	23.0235	-170.431	-165.017	0.082827	0.145558	-0.907425	-0.908714	0.077831	23.0235	-0.909960	-1.385563E+12	-5.617312E-14	NaN
217	1.000000	0.154850	7.36717e+06	-49489.1	955.818	-29759.2	0.000000	0.000000	6.154808	0.001509	NaN	0.000000	0.001664	0.001727	28.0756	0.089280	0.002015	44.2989	53.6071	-163.766	0.006605	0.153544	-0.899422	-0.900728	0.001509	44.2989	-0.899448	-9.990887E+11	-1.510028E-15	NaN
217	1.000000	0.162816	7.36717e+06	-49489.1	955.819	-29759.2	0.000000	0.000000	6.162776	0.055776	NaN	0.000000	0.001661	0.001720	28.0756	0.115405	0.002121	54.4091	-139.374	-162.524	0.000729	0.161530	-0.891456	-0.892742	0.055776	54.4091	-0.892225	-7.979706E+11	-6.989793E-14	NaN
217	1.000000	0.170871	7.36717e+06	-49489.1	955.819	-29759.2	0.000000	0.000000	6.170829	-0.005672	NaN	0.000000	0.001645	0.001715	28.0758	0.064856	0.002038	31.8244	-138.717	-162.934	0.025937	0.169496	-0.883401	-0.884776	-0.005672	31.8244	-0.883267	-6.037955E+11	9.393279E-15	NaN
217	1.000000	0.178862	7.36717e+06	-49489.1	955.818	-29759.2	0.000000	0.000000	6.178816	-0.085068	NaN	0.000000	0.001660	0.001727	28.0757	0.112999	0.002033	55.5714	174.401	-166.72	-0.050579	0.177515	-0.875410	-0.876757	-0.085068	55.5714	-0.874262	-4.561426E+11	1.864947E-13	NaN
217	1.000000	0.186836	7.36717e+06	-49489.1	955.818	-29759.2	0.000000	0.000000	6.186792	-0.056501	NaN	0.000000	0.001677	0.001714	28.0758	0.182340	0.002068	88.1686	44.7581	-161.979	-0.091901	0.185545	-0.867436	-0.868727	-0.056501	88.1686	-0.866955	-3.632844E+11	1.555274E-13	NaN
217	1.000000	0.194845	7.36717e+06	-49489.1	955.818	-29759.2	0.000000	0.000000	6.194800	-0.075556	NaN	0.000000	0.001631	0.001671	28.0755	0.099995	0.002047	48.853	-152.789	-166.524	-0.091708	0.193536	-0.859427	-0.860736	-0.075556	48.853	-0.858267	-2.771181E+11	2.726476E-13	NaN
217	1.000000	0.202863	7.36717e+06	-49489.1	955.818	-29759.2	0.000000	0.000000	6.202820	-0.037561	NaN	0.000000	0.001662	0.001686	28.0755	0.071916	0.002004	35.8818	159.166	-163.85	-0.018079	0.201518	-0.851409	-0.852755	-0.037561	35.8818	-0.850624	-2.183644E+11	1.720124E-13	NaN
217	1.000000	0.210865	7.36717e+06	-49489.1	955.819	-29759.2	0.000000	0.000000	6.210821	-0.041771	NaN	0.000000	0.001661	0.001699	28.0754	0.034792	0.002054	16.9352	159.298	-165.018	0.012011	0.209511	-0.843408	-0.844761	-0.041771	16.9352	-0.841558	-1.645865E+11	2.537953E-13	NaN
217	1.000000	0.218851	7.36717e+06	-49489.1	955.818	-29759.2	0.000000	0.000000	6.218809	-4.270651E-5	NaN	0.000000	0.001674	0.001711	28.0756	0.081925	0.001945	42.1252	-4.350834	-166.488	0.015613	0.217607	-0.835421	-0.836665	-4.270651E-5	42.1252	-0.835420	-1.359070E+11	3.142334E-16	NaN
217	1.000000	0.226854	7.36717e+06	-49489.1	955.818	-29759.2	0.000000	0.000000	6.226810	-0.038394	NaN	0.000000	0.001678	0.001713	28.0759	0.065830	0.001987	33.1366	31.7053	-162.619	-0.101745	0.225614	-0.827418	-0.828658	-0.038394	33.1366	-0.826549	-1.030408E+11	3.726054E-13	NaN
217	1.000000	0.234841	7.36717e+06	-49489.1	955.817	-29759.2	0.000000	0.000000	6.234798	-0.029520	NaN	0.000000	0.001719	0.001720	28.0755	0.087477	0.001957	44.7107	166.016	-164.623	-0.062729	0.233548	-0.819431	-0.820724	-0.029520	44.7107	-0.818936	-8.124229E+10	3.633612E-13	NaN
217	1.000000	0.242881	7.36717e+06	-49489.1	955.818	-29759.2	0.000000	0.000000	6.242836	-0.079576	NaN	0.000000	0.001690	0.001744	28.0757	0.058392	0.002117	27.5769	115.585	-163.783	-0.007757	0.241577	-0.811391	-0.812695	-0.079576	27.5769	-0.809226	-5.998952E+10	1.326491E-12	NaN
217	1.000000	0.250875	7.36717e+06	-49489.1	955.819	-29759.2	0.000000	0.000000	6.250829	-0.083462	NaN	0.000000	0.001658	0.001764	28.0756	0.063060	0.002187	28.8365	-174.904	-160.662	-0.013857	0.249556	-0.803398	-0.804716	-0.083462	28.8365	-0.801227	-4.672139E+10	1.786377E-12	NaN
217	1.000000	0.258872	7.36717e+06	-49489.1	955.818	-29759.2	0.000000	0.000000	6.258828	-0.061059	NaN	0.000000	0.001660	0.001727	28.0756	0.023175	0.002031	11.4121	86.2801	-163.13	-0.008713	0.257563	-0.795400	-0.796709	-0.061059	11.4121	-0.791387	-3.434936E+10	1.777581E-12	NaN
217	1.000000	0.266885	7.36717e+06	-49489.1	955.819	-29759.2	0.000000	0.000000	6.266842	-0.023696	NaN	0.000000	0.001668	0.001716	28.0771	0.062186	0.002045	30.4106	152.468	-163.111	-0.026280	0.265603	-0.787387	-0.788669	-0.023696	30.4106	-0.786803	-2.976150E+10	7.962002E-13	NaN
217	1.000000	0.274898	7.36717e+06	-49489.1	955.818	-29759.2	0.000000	0.000000	6.274852	-0.099363	NaN	0.000000	0.001671	0.001743	28.0768	0.080865	0.001951	41.4573	5.204380	-166.29	-0.017480	0.273587	-0.779374	-0.780685	-0.099363	41.4573	-0.777576	-2.229958E+10	4.455845E-12	NaN
217	1.000000	0.282894	7.36717e+06	-49489.1	955.819	-29759.2	0.000000	0.000000	6.282854	0.038246	NaN	0.000000	0.001656	0.001748	28.0774	0.070617	0.001998	35.3423	-3.409181	-164.323	0.046748	0.281579	-0.771378	-0.772693	0.038246	35.3423	-0.772189	-1.883957E+10	-2.030104E-12	NaN
217	1.000000	0.290870	7.36717e+06	-49489.1	955.818	-29759.2	0.000000	0.000000	6.290827	-0.012533	NaN	0.000000	0.001647	0.001761	28.0769	0.113655	0.001953	58.193	178.505	-164.126	-0.091614	0.289570	-0.763402	-0.764702	-0.012533	58.193	-0.763241	-1.423602E+10	8.803654E-13	NaN
217	1.000000	0.298892	7.36717e+06	-49489.1	955.817	-29759.2	0.000000	0.000000	6.298849	-0.024413	NaN	0.000000	0.001642	0.001730	28.077	0.004644	0.002003	2.318198	-28.5013	-165.574	0.027124	0.297578	-0.755380	-0.756694	-0.024413	2.318198	-0.747482	-8.688444E+9	2.809783E-12	NaN
217	1.000000	0.306886	7.36717e+06	-49489.1	955.819	-29759.2	0.000000	0.000000	6.306844	-0.011565	NaN	0.000000	0.001602	0.001726	28.0771	0.013361	0.002002	6.673799	-74.3528	-166.054	-0.026071	0.305595	-0.747386	-0.748677	-0.011565	6.673799	-0.746086	-8.316405E+9	1.390619E-12	NaN
217	1.000000	0.314904	7.36717e+06	-49489.1	955.818	-29759.2	0.000000	0.000000	6.314862	0.004321	NaN	0.000000	0.001658	0.001718	28.0769	0.156157	0.001938	80.5769	152.824	-162.793	-0.111056	0.313597	-0.739368	-0.740676	0.004321	80.5769	-0.739409	-6.745313E+9	-6.406427E-13	NaN
217	1.000000	0.322920	7.36717e+06	-49489.1	955.818	-29759.2	0.000000	0.000000	6.322876	-0.060058	NaN	0.000000	0.001670	0.001745	28.0774	0.043520	0.001834	23.729	-13.5806	-168.069	0.027758	0.321617	-0.731352	-0.732655	-0.060058	23.729	-0.729454	-4.935847E+9	1.216774E-11	NaN
217	1.000000	0.330919	7.36717e+06	-49489.1	955.819	-29759.2	0.000000	0.000000	6.330876	-0.023436	NaN	0.000000	0.001647	0.001708	28.0769	0.101871	0.002009	50.7094	92.0085	-164.343	-0.075482	0.329614	-0.723353	-0.724658	-0.023436	50.7094	-0.723006	-4.031492E+9	5.813281E-12	NaN
217	1.000000	0.338933	7.36717e+06	-49489.1	955.819	-29759.2	0.000000	0.000000	6.338889	-0.036698	NaN	0.000000	0.001658	0.001714	28.0767	0.009059	0.002051	4.417101	-109.63	-163.901	-0.054390	0.337639	-0.715339	-0.716634	-0.036698	4.417101	-0.709108	-2.605405E+9	1.408530E-11	NaN
217	1.000000	0.346930	7.36717e+06	-49489.1	955.818	-29759.2	0.000000	0.000000	6.346887	-0.021294	NaN	0.000000	0.001640	0.001707	28.0768	0.014890	0.002061	7.225179	150.077	-164.947	-0.008851	0.345590	-0.707342	-0.708682	-0.021294	7.225179	-0.705132	-2.299325E+9	9.260884E-12	NaN
217	1.000000	0.354925	7.36717e+06	-49489.1	955.819	-29759.2	0.000000	0.000000	6.354881	-0.032497	NaN	0.000000	0.001662	0.001709	28.0767	0.040174	0.001999	20.0992	54.0587	-166.38	0.056291	0.353565	-0.699347	-0.700707	-0.032497	20.0992	-0.698135	-1.845255E+9	1.761101E-11	NaN
217	1.000000	0.362937	7.36717e+06	-49489.1	955.818	-29759.2	0.000000	0.000000	6.362894	-0.026443	NaN	0.000000	0.001680	0.001736	28.0768	0.053646	0.002018	26.5824	-68.7815	-167.006	-0.011123	0.361636	-0.691335	-0.692636	-0.026443	26.5824	-0.690589	-1.455334E+9	1.816978E-11	NaN
217	1.000000	0.370924	7.36717e+06	-49489.1	955.818	-29759.2	0.000000	0.000000	6.370882	0.007316	NaN	0.000000	0.001642	0.001784	28.077	0.148070	0.001954	75.7923	-70.5209	-167.19	-0.074762	0.369658	-0.683348	-0.684614	0.007316	75.7923	-0.683420	-1.161392E+9	-6.298941E-12	NaN
217	1.000000	0.378954	7.36717e+06	-49489.1	955.817	-29759.2	0.000000	0.000000	6.378912	0.016548	NaN	0.000000	0.001667	0.001745	28.0771	0.062398	0.001961	31.8125	33.8324	-161.153	0.040513	0.377644	-0.675318	-0.676628	0.016548	31.8125	-0.675708	-9.109651E+8	-1.816578E-11	NaN
217	1.000000	0.386924	7.36717e+06	-49489.1	955.819	-29759.2	0.000000	0.000000	6.386881	-0.009242	NaN	0.000000	0.001671	0.001729	28.077	0.137354	0.001989	69.0605	111.967	-165.928	-0.022944	0.385620	-0.667348	-0.668652	-0.009242	69.0605	-0.667248	-6.977776E+8	1.324537E-11	NaN
217	1.000000	0.394967	7.36717e+06	-49489.1	955.818	-29759.2	0.000000	0.000000	6.394926	0.026481	NaN	0.000000	0.001650	0.001759	28.0769	0.050187	0.002109	23.7949	-0.827281	-165.842	-0.048968	0.393629	-0.659305	-0.660643	0.026481	23.7949	-0.660139	-5.576689E+8	-4.748589E-11	NaN
217	1.000000	0.402937	7.36717e+06	-49489.1	955.818	-29759.2	0.000000	0.000000	6.402894	-0.010056	NaN	0.000000	0.001687	0.001797	28.0757	0.016200	0.002021	8.015113	34.0323	-163.477	0.028881	0.401578	-0.651336	-0.652694	-0.010056	8.015113	-0.650395	-4.100592E+8	2.452277E-11	NaN
217	1.000000	0.410939	7.36717e+06	-49489.1	955.818	-29759.2	0.000000	0.000000	6.410897	0.004972	NaN	0.000000	0.001629	0.001757	28.0758	0.007757	0.001908	4.064543	-57.55	-165.386	0.010595	0.409620	-0.643333	-0.644652	0.004972	4.064543	-0.644250	-3.377498E+8	-1.472243E-11	NaN
217	1.000000	0.418965	7.36717e+06	-49489.1	955.817	-29759.2	0.000000	0.000000	6.418923	-0.013323	NaN	0.000000	0.001669	0.001749	28.0757	0.123811	0.002005	61.7526	-139.609	-166.215	0.018481	0.417662	-0.635307	-0.636610	-0.013323	61.7526	-0.635145	-2.533145E+8	5.259394E-11	NaN
217	1.000000	0.426955	7.36717e+06	-49489.1	955.818	-29759.2	0.000000	0.000000	6.426912	-0.018195	NaN	0.000000	0.001668	0.001777	28.0757	0.002931	0.001831	1.601234	-102.576	-166.578	-0.023248	0.425615	-0.627317	-0.628657	-0.018195	1.601234	-0.618795	-1.510319E+8	1.204689E-10	NaN
217	1.000000	0.434953	7.36717e+06	-49489.1	955.818	-29759.2	0.000000	0.000000	6.434911	0.005047	NaN	0.000000	0.001684	0.001781	28.0756	0.105987	0.002003	52.9092	-66.8893	-166.643	0.044813	0.433640	-0.619319	-0.620632	0.005047	52.9092	-0.619390	-1.539050E+8	-3.279400E-11	NaN
217	1.000000	0.442914	7.36717e+06	-49489.1	955.818	-29759.2	0.000000	0.000000	6.442869	-0.059892	NaN	0.000000	0.001679	0.001751	28.0756	0.039809	0.002002	19.8828	-72.1785	-166.798	0.010493	0.441619	-0.611359	-0.612653	-0.059892	19.8828	-0.609099	-1.111019E+8	5.390770E-10	NaN
217	1.000000	0.450972	7.36717e+06	-49489.1	955.819	-29759.2	0.000000	0.000000	6.450931	0.040505	NaN	0.000000	0.001690	0.001767	28.0756	0.042420	0.001978	21.4411	-168.631	-166.154	0.044968	0.449633	-0.603300	-0.604639	0.040505	21.4411	-0.604717	-9.669634E+7	-4.188923E-10	NaN
217	1.000000	0.458973	7.36717e+06	-49489.1	955.818	-29759.2	0.000000	0.000000	6.458930	-0.013819	NaN	0.000000	0.001676	0.001749	28.0756	0.065863	0.002020	32.6041	43.2477	-164.432	0.023231	0.457642	-0.595299	-0.596631	-0.013819	32.6041	-0.594981	-7.101026E+7	1.946009E-10	NaN
217	1.000000	0.466948	7.36717e+06	-49489.1	955.819	-29759.2	0.000000	0.000000	6.466904	-0.059427	NaN	0.000000	0.001727	0.001740	28.0758	0.074336	0.002133	34.8485	-133.931	-164.301	-0.090113	0.465644	-0.587324	-0.588628	-0.059427	34.8485	-0.586045	-5.347170E+7	1.111373E-9	NaN
217	1.000000	0.474982	7.36717e+06	-49489.1	955.819	-29759.2	0.000000	0.000000	6.474941	0.029806	NaN	0.000000	0.001737	0.001754	28.0757	0.064865	0.001999	32.4425	-98.5888	-163.821	0.030045	0.473760	-0.579291	-0.580512	0.029806	32.4425	-0.579980	-4.410051E+7	-6.758586E-10	NaN
217	1.000000	0.482982	7.36717e+06	-49489.1	955.818	-29759.2	0.000000	0.000000	6.482938	-0.049131	NaN	0.000000	0.001733	0.001795	28.0755	0.097026	0.001986	48.8483	-72.8051	-165.652	-0.027393	0.481683	-0.571290	-0.572590	-0.049131	48.8483	-0.570536	-3.266131E+7	1.504254E-9	NaN
217	1.000000	0.490971	7.36717e+06	-49489.1	955.819	-29759.2	0.000000	0.000000	6.490929	0.002622	NaN	0.000000	0.001737	0.001768	28.0756	0.086434	0.001828	47.2836	141.967	-163.755	0.022539	0.489666	-0.563301	-0.564606	0.002622	47.2836	-0.563343	-2.597838E+7	-1.009395E-10	NaN
217	1.000000	0.498968	7.36717e+06	-49489.1	955.818	-29759.2	0.000000	0.000000	6.498925	-0.023132	NaN	0.000000	0.001704	0.001753	28.0755	0.029377	0.002000	14.686	57.4138	-160.099	-0.011044	0.497653	-0.555304	-0.556619	-0.023132	14.686	-0.554122	-1.936604E+7	1.194456E-9	NaN
217	1.000000	0.506975	7.36717e+06	-49489.1	955.818	-29759.2	0.000000	0.000000	6.506933	-0.002419	NaN	0.000000	0.001716	0.001775	28.0755	0.052009	0.001848	28.1363	103.21	-163.537	-0.007420	0.505625	-0.547297	-0.548647	-0.002419	28.1363	-0.547232	-1.554576E+7	1.555999E-10	NaN
217	1.000000	0.514971	7.36717e+06	-49489.1	955.819	-29759.2	0.000000	0.000000	6.514927	-0.047175	NaN	0.000000	0.001745	0.001771	28.0757	0.151221	0.002060	73.422	47.8289	-162.522	0.019286	0.513673	-0.539301	-0.540599	-0.047175	73.422	-0.538819	-1.188459E+7	3.969442E-9	NaN
217	1.000000	0.522984	7.36717e+06	-49489.1	955.817	-29759.2	0.000000	0.000000	6.522943	0.030913	NaN	0.000000	0.001733	0.001763	28.0754	0.028889	0.001855	15.5718	-68.2501	-162.013	0.012097	0.521685	-0.531288	-0.532587	0.030913	15.5718	-0.532777	-9.79804e+06	-3.155045E-9	NaN
217	1.000000	0.530992	7.36717e+06	-49489.1	955.818	-29759.2	0.000000	0.000000	6.530950	-0.015423	NaN	0.000000	0.001698	0.001783	28.0757	0.052358	0.001957	26.7519	-171.657	-165.703	-0.052270	0.529752	-0.523280	-0.524520	-0.015423	26.7519	-0.522847	-7.13164e+06	2.162664E-9	NaN
217	1.000000	0.538960	7.36717e+06	-49489.1	955.818	-29759.2	0.000000	0.000000	6.538916	-0.045218	NaN	0.000000	0.001715	0.001778	28.0766	0.043341	0.002073	20.9038	-13.6376	-164.455	-0.054998	0.537690	-0.515312	-0.516582	-0.045218	20.9038	-0.513690	-5.31861e+06	8.501919E-9	NaN
217	1.000000	0.546989	7.36717e+06	-49489.1	955.819	-29759.2	0.000000	0.000000	6.546947	0.011148	NaN	0.000000	0.001714	0.001777	28.0769	0.036236	0.002028	17.8712	156.23	-168.147	0.084310	0.545677	-0.507283	-0.508595	0.011148	17.8712	-0.507751	-4.39627e+06	-2.535683E-9	NaN
217	1.000000	0.555018	7.36717e+06	-49489.1	955.818	-29759.2	0.000000	0.000000	6.554977	0.029383	NaN	0.000000	0.001733	0.001758	28.0767	0.061330	0.002098	29.2289	-72.5802	-163.922	0.063463	0.553657	-0.499254	-0.500615	0.029383	29.2289	-0.500008	-3.42875e+06	-8.569634E-9	NaN
217	1.000000	0.563014	7.36717e+06	-49489.1	955.819	-29759.2	0.000000	0.000000	6.562973	0.012211	NaN	0.000000	0.001673	0.001773	28.0768	0.065612	0.001912	34.317	-17.2653	-170.024	-0.021328	0.561707	-0.491258	-0.492565	0.012211	34.317	-0.491525	-2.61033e+06	-4.678007E-9	NaN
217	1.000000	0.571023	7.36717e+06	-49489.1	955.818	-29759.2	0.000000	0.000000	6.570980	-0.030806	NaN	0.000000	0.001695	0.001727	28.0768	0.153173	0.001990	76.9762	-57.4869	-164.782	-0.005895	0.569676	-0.483249	-0.484597	-0.030806	76.9762	-0.482949	-1.98061e+06	1.555367E-8	NaN
217	1.000000	0.579034	7.36717e+06	-49489.1	955.818	-29759.2	0.000000	0.000000	6.578990	-0.045493	NaN	0.000000	0.001735	0.001749	28.0767	0.101773	0.001976	51.5099	-105.955	-161.571	0.029963	0.577704	-0.475238	-0.476568	-0.045493	51.5099	-0.474576	-1.51203e+06	3.008722E-8	NaN
217	1.000000	0.587047	7.36717e+06	-49489.1	955.818	-29759.2	0.000000	0.000000	6.587006	0.022101	NaN	0.000000	0.001737	0.001783	28.0768	0.029503	0.002000	14.7527	-41.7436	-164.337	-0.040876	0.585713	-0.467225	-0.468559	0.022101	14.7527	-0.468348	-1.23663e+06	-1.787228E-8	NaN
217	1.000000	0.595032	7.36717e+06	-49489.1	955.819	-29759.2	0.000000	0.000000	6.594991	0.025874	NaN	0.000000	0.001725	0.001771	28.0768	0.017495	0.001896	9.229497	99.486	-164.488	0.012217	0.593718	-0.459240	-0.460554	0.025874	9.229497	-0.461342	-986001	-2.624174E-8	NaN
217	1.000000	0.603012	7.36717e+06	-49489.1	955.818	-29759.2	0.000000	0.000000	6.602970	0.010689	NaN	0.000000	0.001726	0.001757	28.0767	0.030429	0.002094	14.5337	103.239	-166.925	0.002605	0.601711	-0.451260	-0.452561	0.010689	14.5337	-0.451812	-724188	-1.476056E-8	NaN
217	1.000000	0.611048	7.36717e+06	-49489.1	955.818	-29759.2	0.000000	0.000000	6.611008	0.045379	NaN	0.000000	0.001741	0.001771	28.0769	0.027177	0.002065	13.1628	-103.963	-163.829	0.003428	0.609733	-0.443224	-0.444539	0.045379	13.1628	-0.445810	-596083	-7.612786E-8	NaN
217	1.000000	0.619012	7.36717e+06	-49489.1	955.819	-29759.2	0.000000	0.000000	6.618968	-0.037422	NaN	0.000000	0.001717	0.001733	28.0768	0.037668	0.002011	18.7317	-173.85	-165.7	-0.088890	0.617762	-0.435260	-0.436510	-0.037422	18.7317	-0.433762	-402954	9.286979E-8	NaN
217	1.000000	0.627040	7.36717e+06	-49489.1	955.818	-29759.2	0.000000	0.000000	6.626995	-0.077558	NaN	0.000000	0.001781	0.001772	28.077	0.167060	0.001967	84.9178	123.094	-163.187	-0.119451	0.625717	-0.427232	-0.428555	-0.077558	84.9178	-0.426547	-318556	2.434661E-7	NaN
217	1.000000	0.635019	7.36717e+06	-49489.1	955.818	-29759.2	0.000000	0.000000	6.634975	-0.030526	NaN	0.000000	0.001739	0.001746	28.077	0.050593	0.001887	26.8177	15.0158	-166.919	-0.009026	0.633736	-0.419253	-0.420536	-0.030526	26.8177	-0.418399	-244180	1.250126E-7	NaN
217	1.000000	0.643064	7.36717e+06	-49489.1	955.819	-29759.2	0.000000	0.000000	6.643023	0.029873	NaN	0.000000	0.001678	0.001718	28.077	0.095143	0.001983	47.9867	-5.412379	-167.817	0.073665	0.641692	-0.411208	-0.412580	0.029873	47.9867	-0.411675	-195983	-1.524288E-7	NaN
217	1.000000	0.651049	7.36717e+06	-49489.1	955.818	-29759.2	0.000000	0.000000	6.651006	-0.012242	NaN	0.000000	0.001678	0.001730	28.0771	0.091188	0.001942	46.958	32.9531	-163.623	0.005916	0.649744	-0.403223	-0.404528	-0.012242	46.958	-0.403028	-147624	8.292967E-8	NaN
217	1.000000	0.659068	7.36717e+06	-49489.1	955.818	-29759.2	0.000000	0.000000	6.659025	-0.039903	NaN	0.000000	0.001675	0.001707	28.0768	0.073738	0.002020	36.513	39.0179	-164.892	-0.018636	0.657723	-0.395204	-0.396549	-0.039903	36.513	-0.394384	-111131	3.590592E-7	NaN
217	1.000000	0.667052	7.36717e+06	-49489.1	955.817	-29759.2	0.000000	0.000000	6.667012	0.056969	NaN	0.000000	0.001662	0.001742	28.0769	0.045424	0.002109	21.5343	148.154	-165.629	0.035626	0.665747	-0.387220	-0.388525	0.056969	21.5343	-0.389204	-93710	-6.079242E-7	NaN
217	1.000000	0.675045	7.36717e+06	-49489.1	955.818	-29759.2	0.000000	0.000000	6.675003	0.021722	NaN	0.000000	0.001644	0.001754	28.0759	0.015509	0.002069	7.497010	-96.1213	-168.88	0.049320	0.673725	-0.379227	-0.380547	0.021722	7.497010	-0.381401	-72441	-2.998636E-7	NaN
217	1.000000	0.683054	7.36717e+06	-49489.1	955.819	-29759.2	0.000000	0.000000	6.683009	-0.061931	NaN	0.000000	0.001648	0.001755	28.076	0.086831	0.002134	40.6841	158.457	-162.098	-0.013123	0.681759	-0.371219	-0.372513	-0.061931	40.6841	-0.370077	-49800.7	1.243573E-6	NaN
217	1.000000	0.691079	7.36717e+06	-49489.1	955.818	-29759.2	0.000000	0.000000	6.691038	0.017337	NaN	0.000000	0.001667	0.001758	28.076	0.043882	0.002034	21.5705	178.475	-166.722	-0.026029	0.689726	-0.363193	-0.364547	0.017337	21.5705	-0.363796	-40427.2	-4.288350E-7	NaN
217	1.000000	0.699074	7.36717e+06	-49489.1	955.819	-29759.2	0.000000	0.000000	6.699032	-0.008187	NaN	0.000000	0.001690	0.001768	28.0759	0.058841	0.001915	30.7289	-29.9423	-166.902	-0.081759	0.697756	-0.355198	-0.356516	-0.008187	30.7289	-0.354998	-30162.5	2.714307E-7	NaN
217	1.000000	0.707086	7.36717e+06	-49489.1	955.818	-29759.2	0.000000	0.000000	6.707043	-0.023575	NaN	0.000000	0.001721	0.001754	28.0758	0.036377	0.002103	17.3015	-86.6202	-164.602	-0.008836	0.705792	-0.347186	-0.348480	-0.023575	17.3015	-0.346164	-22453.8	1.049929E-6	NaN
217	1.000000	0.715072	7.36717e+06	-49489.1	955.818	-29759.2	0.000000	0.000000	6.715029	-0.026595	NaN	0.000000	0.001675	0.001721	28.0757	0.062711	0.001966	31.8951	-122.544	-168.125	-6.216552E-5	0.713765	-0.339200	-0.340507	-0.026595	31.8951	-0.338574	-17408.7	1.527671E-6	NaN
217	1.000000	0.723065	7.36717e+06	-49489.1	955.818	-29759.2	0.000000	0.000000	6.723023	0.007982	NaN	0.000000	0.001633	0.001768	28.0759	0.092481	0.001943	47.595	62.0095	-161.905	-0.035994	0.721743	-0.331207	-0.332530	0.007982	47.595	-0.331333	-13644.8	-5.850032E-7	NaN
217	1.000000	0.731090	7.36717e+06	-49489.1	955.818	-29759.2	0.000000	0.000000	6.731047	-0.006414	NaN	0.000000	0.001646	0.001767	28.0758	0.116257	0.001941	59.881	156.379	-164.238	-0.043028	0.729731	-0.323182	-0.324541	-0.006414	59.881	-0.323102	-10333.8	6.207274E-7	NaN
217	1.000000	0.739079	7.36717e+06	-49489.1	955.818	-29759.2	0.000000	0.000000	6.739035	-0.050407	NaN	0.000000	0.001675	0.001806	28.0758	0.041498	0.001995	20.8055	61.4562	-162.13	-0.032119	0.737800	-0.315193	-0.316472	-0.050407	20.8055	-0.313376	-7429.65	6.784523E-6	NaN
217	1.000000	0.747102	7.36717e+06	-49489.1	955.817	-29759.2	0.000000	0.000000	6.747059	-0.009465	NaN	0.000000	0.001662	0.001799	28.0758	0.160394	0.001913	83.834	-23.3245	-165.66	0.027675	0.745763	-0.307170	-0.308509	-0.009465	83.834	-0.307085	-5996.36	1.578384E-6	NaN
217	1.000000	0.755094	7.36717e+06	-49489.1	955.818	-29759.2	0.000000	0.000000	6.755053	0.029480	NaN	0.000000	0.001614	0.001814	28.0756	0.050276	0.001957	25.6849	82.7251	-164.006	-0.005708	0.753748	-0.299178	-0.300524	0.029480	25.6849	-0.300039	-4712.12	-6.256205E-6	NaN
217	1.000000	0.763081	7.36717e+06	-49489.1	955.818	-29759.2	0.000000	0.000000	6.763037	-0.035480	NaN	0.000000	0.001638	0.001807	28.0757	0.038669	0.001902	20.3341	-166.001	-164.398	-0.057851	0.761790	-0.291192	-0.292482	-0.035480	20.3341	-0.289883	-3323.14	1.067653E-5	NaN
217	1.000000	0.771104	7.36717e+06	-49489.1	955.818	-29759.2	0.000000	0.000000	6.771060	-0.043701	NaN	0.000000	0.001623	0.001777	28.0756	0.020448	0.001917	10.6664	8.253657	-166.815	-0.062304	0.769760	-0.283168	-0.284513	-0.043701	10.6664	-0.280096	-2368.16	1.845344E-5	NaN
217	1.000000	0.779096	7.36717e+06	-49489.1	955.818	-29759.2	0.000000	0.000000	6.779055	0.030537	NaN	0.000000	0.001587	0.001737	28.0758	0.038978	0.001956	19.9308	103.592	-165.054	0.008071	0.777778	-0.275176	-0.276494	0.030537	19.9308	-0.276326	-2077.12	-1.470177E-5	NaN
217	1.000000	0.787100	7.36717e+06	-49489.1	955.818	-29759.2	0.000000	0.000000	6.787058	0.010726	NaN	0.000000	0.001633	0.001797	28.0756	0.120044	0.002093	57.3542	178.694	-166.506	0.002646	0.785805	-0.267172	-0.268467	0.010726	57.3542	-0.267312	-1515.81	-7.075742E-6	NaN
217	1.000000	0.795122	7.36717e+06	-49489.1	955.818	-29759.2	0.000000	0.000000	6.795078	-0.038815	NaN	0.000000	0.001653	0.001795	28.0758	0.106452	0.002065	51.5458	-158.101	-163.515	-0.045267	0.793791	-0.259150	-0.260481	-0.038815	51.5458	-0.258586	-1114.87	3.481567E-5	NaN
217	1.000000	0.803112	7.36717e+06	-49489.1	955.819	-29759.2	0.000000	0.000000	6.803070	0.009273	NaN	0.000000	0.001653	0.001787	28.0759	0.082364	0.001999	41.1942	-153.513	-164.691	0.000261	0.801784	-0.251160	-0.252488	0.009273	41.1942	-0.251329	-862.004	-1.075703E-5	NaN
217	1.000000	0.811134	7.36717e+06	-49489.1	955.819	-29759.2	0.000000	0.000000	6.811090	-0.033330	NaN	0.000000	0.001634	0.001810	28.0768	0.125052	0.001935	64.6271	-169.213	-163.011	-0.069842	0.809781	-0.243139	-0.244491	-0.033330	64.6271	-0.242752	-634.562	5.252511E-5	NaN
217	1.000000	0.819125	7.36717e+06	-49489.1	955.818	-29759.2	0.000000	0.000000	6.819081	-0.050112	NaN	0.000000	0.001657	0.001790	28.0771	0.069182	0.002145	32.2495	-108.17	-164.436	-0.025668	0.817838	-0.235147	-0.236434	-0.050112	32.2495	-0.233982	-462.647	0.000108	NaN
217	1.000000	0.827112	7.36717e+06	-49489.1	955.819	-29759.2	0.000000	0.000000	6.827068	-0.041762	NaN	0.000000	0.001651	0.001739	28.0771	0.039409	0.001973	19.97	50.2444	-168.677	0.008510	0.825839	-0.227160	-0.228433	-0.041762	19.97	-0.225592	-340.981	0.000122	NaN
217	1.000000	0.835118	7.36717e+06	-49489.1	955.819	-29759.2	0.000000	0.000000	6.835078	0.046185	NaN	0.000000	0.001629	0.001704	28.0774	0.017105	0.001964	8.710442	-43.9568	-165.608	-0.006885	0.833772	-0.219154	-0.220500	0.046185	8.710442	-0.223131	-311.613	-0.000148	NaN
217	1.000000	0.843104	7.36717e+06	-49489.1	955.818	-29759.2	0.000000	0.000000	6.843058	-0.078893	NaN	0.000000	0.001627	0.001741	28.0774	0.058387	0.002103	27.7656	101.331	-167.038	-0.064410	0.841820	-0.211168	-0.212452	-0.078893	27.7656	-0.209037	-185.019	0.000426	NaN
217	1.000000	0.851142	7.36717e+06	-49489.1	955.818	-29759.2	0.000000	0.000000	6.851100	0.015354	NaN	0.000000	0.001645	0.001781	28.0769	0.143293	0.001978	72.461	154.438	-162.137	0.093658	0.849848	-0.203130	-0.204424	0.015354	72.461	-0.203289	-149.149	-0.000103	NaN
217	1.000000	0.859134	7.36717e+06	-49489.1	955.818	-29759.2	0.000000	0.000000	6.859091	-0.022621	NaN	0.000000	0.001663	0.001757	28.0778	0.124366	0.002004	62.0469	12.5222	-163.521	-0.091288	0.857858	-0.195138	-0.196414	-0.022621	62.0469	-0.194864	-108.381	0.000209	NaN
217	1.000000	0.867105	7.36717e+06	-49489.1	955.818	-29759.2	0.000000	0.000000	6.867061	-0.030493	NaN	0.000000	0.001610	0.001757	28.0771	0.051370	0.001967	26.1107	85.4282	-165.044	0.023591	0.865781	-0.187167	-0.188491	-0.030493	26.1107	-0.186291	-77.9602	0.000391	NaN
217	1.000000	0.875153	7.36717e+06	-49489.1	955.818	-29759.2	0.000000	0.000000	6.875108	-0.060667	NaN	0.000000	0.001651	0.001772	28.0775	0.060352	0.001957	30.8391	76.9538	-165.137	0.051228	0.873825	-0.179119	-0.180447	-0.060667	30.8391	-0.177644	-55.6272	0.001091	NaN
217	1.000000	0.883161	7.36717e+06	-49489.1	955.818	-29759.2	0.000000	0.000000	6.883117	-0.051627	NaN	0.000000	0.001622	0.001776	28.077	0.055176	0.002061	26.775	-107.419	-163.467	-0.158598	0.881895	-0.171111	-0.172377	-0.051627	26.775	-0.169665	-40.5316	0.001274	NaN
217	1.000000	0.891148	7.36717e+06	-49489.1	955.818	-29759.2	0.000000	0.000000	6.891105	-0.009615	NaN	0.000000	0.001704	0.001816	28.0769	0.081866	0.002060	39.7457	-109.479	-164.495	0.019899	0.889856	-0.163124	-0.164416	-0.009615	39.7457	-0.162943	-30.9095	0.000311	NaN
217	1.000000	0.899164	7.36717e+06	-49489.1	955.818	-29759.2	0.000000	0.000000	6.899123	0.043914	NaN	0.000000	0.001734	0.001777	28.077	0.134022	0.001951	68.701	155.353	-163.292	0.034603	0.897824	-0.155108	-0.156448	0.043914	68.701	-0.155588	-22.8638	-0.001921	NaN
217	1.000000	0.907161	7.36717e+06	-49489.1	955.818	-29759.2	0.000000	0.000000	6.907117	-0.023905	NaN	0.000000	0.001705	0.001746	28.0769	0.057699	0.001869	30.8647	123.913	-167.594	-0.084061	0.905886	-0.147111	-0.148386	-0.023905	30.8647	-0.146531	-15.6466	0.001528	NaN
217	1.000000	0.915136	7.36717e+06	-49489.1	955.819	-29759.2	0.000000	0.000000	6.915092	-0.039507	NaN	0.000000	0.001725	0.001773	28.0775	0.047490	0.001863	25.4955	-27.0149	-163.193	-0.097116	0.913837	-0.139136	-0.140435	-0.039507	25.4955	-0.137974	-10.834	0.003647	NaN
217	1.000000	0.923138	7.36717e+06	-49489.1	955.818	-29759.2	0.000000	0.000000	6.923095	-0.023632	NaN	0.000000	0.001704	0.001726	28.077	0.076209	0.002014	37.8308	89.2342	-159.113	0.030709	0.921827	-0.131134	-0.132445	-0.023632	37.8308	-0.130666	-7.851116	0.003010	NaN
217	1.000000	0.931154	7.36717e+06	-49489.1	955.818	-29759.2	0.000000	0.000000	6.931113	0.020179	NaN	0.000000	0.001731	0.001765	28.0769	0.049721	0.002004	24.8127	92.1356	-160.098	0.089869	0.929822	-0.123118	-0.124450	0.020179	24.8127	-0.123728	-5.737918	-0.003517	NaN
217	1.000000	0.939204	7.36717e+06	-49489.1	955.818	-29759.2	0.000000	0.000000	6.939164	0.040463	NaN	0.000000	0.001708	0.001796	28.0771	0.079776	0.002079	38.3671	-62.3005	-161.244	0.061455	0.937893	-0.115068	-0.116379	0.040463	38.3671	-0.115859	-3.978974	-0.010169	NaN
217	1.000000	0.947145	7.36717e+06	-49489.1	955.819	-29759.2	0.000000	0.000000	6.947101	-0.039361	NaN	0.000000	0.001718	0.001797	28.0762	0.066670	0.001928	34.5875	145.775	-165.244	-0.008820	0.945885	-0.107127	-0.108387	-0.039361	34.5875	-0.106274	-2.503811	0.015721	NaN
217	1.000000	0.955162	7.36717e+06	-49489.1	955.818	-29759.2	0.000000	0.000000	6.955119	-0.002256	NaN	0.000000	0.001745	0.001769	28.076	0.009010	0.001874	4.809159	118.697	-163.801	-0.057621	0.953828	-0.099111	-0.100444	-0.002256	4.809159	-0.098759	-1.714618	0.001316	NaN
217	1.000000	0.963187	7.36717e+06	-49489.1	955.818	-29759.2	0.000000	0.000000	6.963141	-0.106743	NaN	0.000000	0.001625	0.001785	28.0758	0.029280	0.001974	14.8305	70.1119	-164.097	-0.050979	0.961833	-0.091085	-0.092439	-0.106743	14.8305	-0.085687	-0.853617	0.125048	NaN
217	1.000000	0.971185	7.36717e+06	-49489.1	955.818	-29759.2	0.000000	0.000000	6.971140	-0.074597	NaN	0.000000	0.001653	0.001747	28.0758	0.098100	0.001892	51.8458	-143.135	-169.153	-0.105318	0.969873	-0.083087	-0.084399	-0.074597	51.8458	-0.082008	-0.694319	0.107439	NaN
217	1.000000	0.979181	7.36717e+06	-49489.1	955.818	-29759.2	0.000000	0.000000	6.979138	-0.021992	NaN	0.000000	0.001637	0.001750	28.0758	0.080834	0.002012	40.1741	87.7609	-165.298	0.001169	0.977870	-0.075091	-0.076402	-0.021992	40.1741	-0.074680	-0.453145	0.048531	NaN
217	1.000000	0.987206	7.36717e+06	-49489.1	955.819	-29759.2	0.000000	0.000000	6.987165	0.022369	NaN	0.000000	0.001665	0.001790	28.0759	0.086585	0.002171	39.8753	109.838	-164.087	0.050418	0.985897	-0.067066	-0.068376	0.022369	39.8753	-0.067487	-0.291722	-0.076680	NaN
217	1.000000	0.995201	7.36717e+06	-49489.1	955.818	-29759.2	0.000000	0.000000	6.995157	-0.052965	NaN	0.000000	0.001646	0.001759	28.0758	0.070982	0.002068	34.3315	-1.375913	-163.605	0.015647	0.993901	-0.059071	-0.060371	-0.052965	34.3315	-0.057914	-0.156766	0.337861	NaN
217	1.000000	1.003188	7.36717e+06	-49489.1	955.819	-29759.2	0.000000	0.000000	7.003146	-0.000400	NaN	0.000000	0.001686	0.001740	28.0757	0.064256	0.001993	32.2364	-102.425	-164.805	-0.037491	1.001927	-0.051084	-0.052345	-0.000400	32.2364	-0.051075	-0.098329	0.004066	NaN
217	1.000000	1.011214	7.36717e+06	-49489.1	955.819	-29759.2	0.000000	0.000000	7.011170	-0.046116	NaN	0.000000	0.001688	0.001745	28.0761	0.091653	0.001953	46.9182	-2.047468	-163.348	-0.064779	1.009858	-0.043058	-0.044414	-0.046116	46.9182	-0.042320	-0.053218	0.866543	NaN
217	1.000000	1.019210	7.36717e+06	-49489.1	955.819	-29759.2	0.000000	0.000000	7.019167	-0.015206	NaN	0.000000	0.001652	0.001748	28.0758	0.104246	0.001973	52.8447	-146.626	-164.282	-0.031134	1.017932	-0.035062	-0.036340	-0.015206	52.8447	-0.034846	-0.031693	0.479803	NaN
217	1.000000	1.027190	7.36717e+06	-49489.1	955.819	-29759.2	0.000000	0.000000	7.027145	-0.067086	NaN	0.000000	0.001653	0.001762	28.0758	0.116177	0.001946	59.6915	12.1012	-162.561	-0.009247	1.025893	-0.027082	-0.028379	-0.067086	59.6915	-0.026239	-0.018186	3.688982	NaN
217	1.000000	1.035213	7.36717e+06	-49489.1	955.819	-29759.2	0.000000	0.000000	7.035169	-0.050487	NaN	0.000000	0.001638	0.001764	28.0759	0.104999	0.002019	52.015	39.3479	-164.438	-0.037148	1.033900	-0.019059	-0.020373	-0.050487	52.015	-0.018331	-0.011385	4.434613	NaN
217	1.000000	1.043207	7.36717e+06	-49489.1	955.819	-29759.2	0.000000	0.000000	7.043165	-0.001751	NaN	0.000000	0.001640	0.001734	28.0755	0.091551	0.001933	47.3715	-27.7473	-163.756	0.024511	1.041908	-0.011065	-0.012364	-0.001751	47.3715	-0.011037	-0.006979	0.250921	NaN
217	1.000000	1.051200	7.36717e+06	-49489.1	955.819	-29759.2	0.000000	0.000000	7.051154	-0.088445	NaN	0.000000	0.001662	0.001739	28.0757	0.029347	0.001933	15.1809	174.848	-163.883	-0.028827	1.049872	-0.003072	-0.004400	-0.088445	15.1809	0.001297	0.000994	-88.943	439.836
217	1.000000	1.059160	7.36717e+06	-49489.1	955.82	-29759.2	0.000000	0.000000	7.059303	4.521642	NaN	0.000000	0.001663	0.001772	28.0755	5.061601	0.001681	3010.53	6.097331	-164.168	2.755794	1.057867	0.004887	0.003595	4.521642	3010.53	0.003761	0.003030	1492.06	49964.6
217	2.000000	1.063826	7.36717e+06	-49489.1	955.82	-29759.2	0.000000	0.000000	7.064231	10.8652	NaN	0.000000	0.001636	0.001761	28.0757	10.6315	0.001654	6427.02	8.843646	-174.441	10.6052	1.063407	0.009554	0.009135	10.8652	6427.02	0.008286	0.007339	1480.57	68545.5
217	2.000000	1.065727	7.36717e+06	-49489.1	955.819	-29759.2	0.000000	0.000000	7.066291	14.752	NaN	0.000000	0.001659	0.001763	28.0758	12.8222	0.001672	7666.71	7.160128	-174.994	14.0698	1.065395	0.011455	0.011123	14.752	7666.71	0.010012	0.009195	1604.42	73049.3
217	2.000000	1.067721	7.36717e+06	-49489.1	955.819	-29759.2	0.000000	0.000000	7.068447	18.6865	NaN	0.000000	0.001616	0.001759	28.0761	15.2239	0.001654	9205.41	6.267447	-174.22	17.8517	1.067397	0.013449	0.013125	18.6865	9205.41	0.011927	0.011402	1638.85	78763
217	2.000000	1.069693	7.36717e+06	-49489.1	955.819	-29759.2	0.000000	0.000000	7.070614	23.4216	NaN	0.000000	0.001641	0.001738	28.077	16.9134	0.001645	10278.6	4.496673	-174.061	22.9866	1.069372	0.015421	0.015099	23.4216	10278.6	0.013712	0.013606	1721.37	80507.5
217	2.000000	1.071665	7.36717e+06	-49489.1	955.818	-29759.2	0.000000	0.000000	7.072669	25.4457	NaN	0.000000	0.001661	0.001748	28.077	20.0791	0.001879	10687	8.440522	-177.123	24.436	1.071398	0.017393	0.017126	25.4457	10687	0.015607	0.016104	1580.1	76942.3
217	2.000000	1.073707	7.36717e+06	-49489.1	955.819	-29759.2	0.000000	0.000000	7.074930	30.7523	NaN	0.000000	0.001655	0.001773	28.077	21.7886	0.001781	12232.4	7.584653	-176.817	30.5728	1.073282	0.019435	0.019010	30.7523	12232.4	0.017550	0.018838	1632.5	81428.1
217	2.000000	1.075655	7.36717e+06	-49489.1	955.819	-29759.2	0.000000	0.000000	7.077090	35.9161	NaN	0.000000	0.001679	0.001761	28.0775	23.008	0.001786	12879	-0.021314	-171.538	34.8133	1.075395	0.021383	0.021123	35.9161	12879	0.019291	0.021441	1675.12	80359.1
217	2.000000	1.077703	7.36717e+06	-49489.1	955.818	-29759.2	0.000000	0.000000	7.079365	41.4525	NaN	0.000000	0.001666	0.001754	28.077	25.4139	0.001777	14300.5	3.098540	-175.86	39.9685	1.077322	0.023431	0.023050	41.4525	14300.5	0.021257	0.024556	1688.07	83376.8
217	2.000000	1.079667	7.36717e+06	-49489.1	955.819	-29759.2	0.000000	0.000000	7.081431	43.9153	NaN	0.000000	0.001653	0.001759	28.0771	25.9339	0.001616	16049.6	0.801216	-174.75	43.5227	1.079344	0.025395	0.025072	43.9153	16049.6	0.023343	0.028070	1564.51	87522.3
217	2.000000	1.081635	7.36717e+06	-49489.1	955.819	-29759.2	0.000000	0.000000	7.083665	50.3963	NaN	0.000000	0.001653	0.001780	28.0771	29.7289	0.001778	16717.6	5.340214	-179.797	49.451	1.081356	0.027363	0.027084	50.3963	16717.6	0.025102	0.031201	1615.19	86468.8
217	2.000000	1.083672	7.36717e+06	-49489.1	955.819	-29759.2	0.000000	0.000000	7.085976	57.0548	NaN	0.000000	0.001709	0.001725	28.0773	31.6623	0.001863	16999.3	2.789929	-175.473	57.8603	1.083348	0.029400	0.029076	57.0548	16999.3	0.026883	0.034531	1652.3	83579.8
217	2.000000	1.085634	7.36717e+06	-49489.1	955.819	-29759.2	0.000000	0.000000	7.088197	63.3604	NaN	0.000000	0.001655	0.001733	28.0778	33.0541	0.001814	18221.2	3.122721	-177.406	61.6621	1.085283	0.031362	0.031010	63.3604	18221.2	0.028754	0.038200	1658.63	85175.7
217	2.000000	1.087595	7.36717e+06	-49489.1	955.819	-29759.2	0.000000	0.000000	7.090389	68.9825	NaN	0.000000	0.001643	0.001687	28.0772	35.6697	0.001847	19314.7	4.347737	-178.439	67.1597	1.087339	0.033323	0.033067	68.9825	19314.7	0.030644	0.042090	1638.93	86014.4
217	2.000000	1.089624	7.36717e+06	-49489.1	955.82	-29759.2	0.000000	0.000000	7.092762	77.3426	NaN	0.000000	0.001661	0.001716	28.0772	36.3633	0.001741	20885.6	4.220330	-179.716	76.4006	1.089303	0.035352	0.035031	77.3426	20885.6	0.032575	0.046250	1672.28	88729.1
217	2.000000	1.091653	7.36717e+06	-49489.1	955.819	-29759.2	0.000000	0.000000	7.095108	85.0589	NaN	0.000000	0.001659	0.001749	28.077	38.806	0.001767	21965.3	5.623788	179.055	85.1196	1.091219	0.037381	0.036947	85.0589	21965.3	0.034477	0.050534	1683.19	89272.2
217	2.000000	1.093692	7.36717e+06	-49489.1	955.82	-29759.2	0.000000	0.000000	7.097372	90.505	NaN	0.000000	0.001690	0.001755	28.0772	40.9818	0.001808	22661.1	7.374364	177.12	91.3488	1.093275	0.039420	0.039003	90.505	22661.1	0.036425	0.055116	1642.08	88189.2
217	2.000000	1.095622	7.36717e+06	-49489.1	955.82	-29759.2	0.000000	0.000000	7.099548	96.5126	NaN	0.000000	0.001679	0.001755	28.078	43.2871	0.001714	25248.7	5.754246	176.489	96.4629	1.095303	0.041350	0.041031	96.5126	25248.7	0.038483	0.060166	1604.11	94045.1
217	2.000000	1.097614	7.36717e+06	-49489.1	955.82	-29759.2	0.000000	0.000000	7.102023	108.253	NaN	0.000000	0.001683	0.001762	28.0772	45.2262	0.001811	24977.8	1.636753	-178.354	107.48	1.097328	0.043342	0.043056	108.253	24977.8	0.040092	0.064266	1684.46	90019.5
217	2.000000	1.099509	7.36717e+06	-49489.1	955.819	-29759.2	0.000000	0.000000	7.104147	113.807	NaN	0.000000	0.001678	0.001763	28.0771	46.751	0.001788	26150.2	3.515042	178.467	108.52	1.099330	0.045237	0.045058	113.807	26150.2	0.041973	0.069227	1643.97	90805.2
217	2.000000	1.101657	7.36717e+06	-49489.1	955.819	-29759.2	0.000000	0.000000	7.106713	123.976	NaN	0.000000	0.001678	0.001754	28.0767	50.3888	0.001896	26574.3	7.416058	175.491	124.008	1.101274	0.047385	0.047001	123.976	26574.3	0.043886	0.074457	1665.07	88978.1
217	2.000000	1.103581	7.36717e+06	-49489.1	955.819	-29759.2	0.000000	0.000000	7.108936	131.266	NaN	0.000000	0.001672	0.001736	28.0759	52.0527	0.001860	27990.5	7.251060	174.63	127.88	1.103300	0.049309	0.049027	131.266	27990.5	0.045791	0.079850	1643.92	90499.8
217	2.000000	1.105581	7.36717e+06	-49489.1	955.819	-29759.2	0.000000	0.000000	7.111576	146.828	NaN	0.000000	0.001677	0.001732	28.0767	52.7513	0.001680	31390.8	6.488918	174.31	144.729	1.105225	0.051309	0.050953	146.828	31390.8	0.047801	0.085737	1712.54	97946.8
217	2.000000	1.107615	7.36717e+06	-49489.1	955.819	-29759.2	0.000000	0.000000	7.114127	159.403	NaN	0.000000	0.001681	0.001720	28.0762	55.7167	0.001848	30153.8	3.610215	178.126	158.094	1.107232	0.053343	0.052960	159.403	30153.8	0.049378	0.090500	1761.36	91578.2
217	2.000000	1.109563	7.36717e+06	-49489.1	955.82	-29759.2	0.000000	0.000000	7.116438	168.232	NaN	0.000000	0.001692	0.001716	28.0756	56.1986	0.001771	31737	2.759217	178.998	166.846	1.109235	0.055291	0.054963	168.232	31737	0.051315	0.096523	1742.92	93330.8
217	2.000000	1.111563	7.36717e+06	-49489.1	955.819	-29759.2	0.000000	0.000000	7.118717	175.034	NaN	0.000000	0.001667	0.001761	28.0759	59.7527	0.001887	31673.4	6.694521	174.007	171.861	1.111246	0.057290	0.056974	175.034	31673.4	0.053146	0.102384	1709.58	90438.3
217	2.000000	1.113640	7.36717e+06	-49489.1	955.82	-29759.2	0.000000	0.000000	7.121341	188.312	NaN	0.000000	0.001675	0.001763	28.076	60.5239	0.001833	33021.3	6.977773	174.348	188.32	1.113233	0.059368	0.058961	188.312	33021.3	0.055090	0.108794	1730.9	91466.9
217	2.000000	1.115731	7.36717e+06	-49489.1	955.818	-29759.2	0.000000	0.000000	7.123650	193.627	NaN	0.000000	0.001667	0.001741	28.0761	62.147	0.001664	37341	7.301560	172.262	201.878	1.115281	0.061459	0.061009	193.627	37341	0.057570	0.117238	1651.57	99637.7
217	2.000000	1.117581	7.36717e+06	-49489.1	955.82	-29759.2	0.000000	0.000000	7.126075	207.599	NaN	0.000000	0.001684	0.001712	28.0761	64.827	0.001720	37697.4	6.991225	172.266	205.122	1.117296	0.063309	0.063023	207.599	37697.4	0.059179	0.122879	1689.46	98253
217	2.000000	1.119640	7.36717e+06	-49489.1	955.82	-29759.2	0.000000	0.000000	7.128535	217.362	NaN	0.000000	0.001653	0.001742	28.0759	65.7393	0.001882	34925.9	3.804431	176.07	217.164	1.119351	0.065368	0.065079	217.362	34925.9	0.060700	0.128330	1693.77	89075.1
217	2.000000	1.121625	7.36717e+06	-49489.1	955.819	-29759.2	0.000000	0.000000	7.131132	232.229	NaN	0.000000	0.001690	0.001764	28.076	67.6653	0.001680	40277.5	0.829155	178.396	231.995	1.121237	0.067353	0.066965	232.229	40277.5	0.063029	0.136893	1696.43	99459
217	2.000000	1.123572	7.36717e+06	-49489.1	955.818	-29759.2	0.000000	0.000000	7.133864	251.338	NaN	0.000000	0.001643	0.001771	28.076	69.9739	0.001799	38898.1	3.359297	176.994	249.055	1.123132	0.069300	0.068860	251.338	38898.1	0.064454	0.142262	1766.73	94223.2
217	2.000000	1.125501	7.36717e+06	-49489.1	955.819	-29759.2	0.000000	0.000000	7.136361	265.145	NaN	0.000000	0.001672	0.001755	28.0761	71.6058	0.001736	41255.4	4.168496	174.766	259.455	1.125142	0.071229	0.070870	265.145	41255.4	0.066408	0.149786	1770.16	97391
217	2.000000	1.127492	7.36717e+06	-49489.1	955.82	-29759.2	0.000000	0.000000	7.138691	273.392	NaN	0.000000	0.001653	0.001780	28.0762	74.3911	0.001654	44982.7	2.203267	175.547	267.982	1.127228	0.073220	0.072956	273.392	44982.7	0.068662	0.158687	1722.84	103169
217	2.000000	1.129529	7.36717e+06	-49489.1	955.821	-29759.2	0.000000	0.000000	7.141449	290.912	NaN	0.000000	0.001640	0.001760	28.076	74.781	0.001707	43812.6	0.501704	177.977	286.623	1.129154	0.075257	0.074882	290.912	43812.6	0.070277	0.165218	1760.77	98479
217	2.000000	1.131480	7.36717e+06	-49489.1	955.82	-29759.2	0.000000	0.000000	7.143684	297.812	NaN	0.000000	0.001663	0.001798	28.076	79.6087	0.001929	41265.2	5.028897	174.204	292.968	1.131209	0.077208	0.076937	297.812	41265.2	0.071796	0.171469	1736.83	91046.8
217	2.000000	1.133555	7.36717e+06	-49489.1	955.821	-29759.2	0.000000	0.000000	7.146286	310.648	NaN	0.000000	0.001583	0.001778	28.0759	80.7713	0.001876	43056.8	2.553797	175.979	308.985	1.133358	0.079283	0.079086	310.648	43056.8	0.073872	0.180193	1723.97	92671.5
217	2.000000	1.135489	7.36717e+06	-49489.1	955.819	-29759.2	0.000000	0.000000	7.148779	324.238	NaN	0.000000	0.001694	0.001770	28.076	81.2215	0.001880	43202.1	2.926386	175.749	319.286	1.135234	0.081217	0.080962	324.238	43202.1	0.075588	0.187558	1728.73	91140.2
217	2.000000	1.137548	7.36717e+06	-49489.1	955.82	-29759.2	0.000000	0.000000	7.151446	339.012	NaN	0.000000	0.001656	0.001768	28.0774	84.4971	0.001911	44215.2	5.409294	173.311	335.313	1.137212	0.083276	0.082940	339.012	44215.2	0.077526	0.196042	1729.28	91236.8
217	2.000000	1.139507	7.36717e+06	-49489.1	955.82	-29759.2	0.000000	0.000000	7.153954	352.37	NaN	0.000000	0.001722	0.001773	28.0775	84.5864	0.001792	47190.9	6.975234	170.934	347.844	1.139235	0.085235	0.084963	352.37	47190.9	0.079635	0.205475	1714.91	95115.7
217	2.000000	1.141370	7.36717e+06	-49489.1	955.82	-29759.2	0.000000	0.000000	7.156303	364.184	NaN	0.000000	0.001759	0.001765	28.0774	86.7973	0.001926	45066.2	4.568631	173.863	352.475	1.141135	0.087098	0.086862	364.184	45066.2	0.081037	0.211861	1718.97	89453.6
217	2.000000	1.143494	7.36717e+06	-49489.1	955.819	-29759.2	0.000000	0.000000	7.158778	372.733	NaN	0.000000	0.001767	0.001759	28.0773	88.5522	0.001819	48671.1	3.355192	174.149	369.82	1.143325	0.089221	0.089053	372.733	48671.1	0.083478	0.223194	1670	94124.7
217	2.000000	1.145485	7.36717e+06	-49489.1	955.821	-29759.2	0.000000	0.000000	7.161402	388.127	NaN	0.000000	0.001772	0.001788	28.0772	88.0123	0.001761	49966.9	-0.686345	178.015	381.808	1.145132	0.091213	0.090860	388.127	49966.9	0.085387	0.232251	1671.15	94727.7
217	2.000000	1.147546	7.36717e+06	-49489.1	955.82	-29759.2	0.000000	0.000000	7.163817	396.716	NaN	0.000000	0.001751	0.001770	28.0771	91.5903	0.001813	50512.4	3.830292	173.397	394.986	1.147376	0.093274	0.093104	396.716	50512.4	0.087384	0.241905	1639.97	93831.5
217	2.000000	1.149701	7.36717e+06	-49489.1	955.82	-29759.2	0.000000	0.000000	7.166545	410.66	NaN	0.000000	0.001748	0.001801	28.0775	92.274	0.001811	50948.4	3.443502	174.04	417.461	1.149385	0.095429	0.095112	410.66	50948.4	0.089384	0.251758	1631.17	92771
217	2.000000	1.151600	7.36717e+06	-49489.1	955.82	-29759.2	0.000000	0.000000	7.169378	433.374	NaN	0.000000	0.001733	0.001766	28.0773	95.2852	0.001713	55620.3	10.0863	166.915	436.978	1.151247	0.097328	0.096975	433.374	55620.3	0.091484	0.262302	1652.19	99221.3
217	2.000000	1.153499	7.36717e+06	-49489.1	955.821	-29759.2	0.000000	0.000000	7.171743	444.715	NaN	0.000000	0.001763	0.001739	28.0773	96.549	0.001828	52808.8	4.046818	173.171	437.636	1.153206	0.099227	0.098934	444.715	52808.8	0.092911	0.269578	1649.67	92926
217	2.000000	1.155624	7.36717e+06	-49489.1	955.821	-29759.2	0.000000	0.000000	7.174225	453.403	NaN	0.000000	0.001780	0.001771	28.0774	97.507	0.001838	53057.7	2.274427	175.273	458.243	1.155333	0.101352	0.101061	453.403	53057.7	0.094943	0.280104	1618.69	91592.9
217	2.000000	1.157478	7.36717e+06	-49489.1	955.821	-29759.2	0.000000	0.000000	7.176740	469.477	NaN	0.000000	0.001698	0.001732	28.0772	100.871	0.001893	53300	4.880327	172.171	464.022	1.157270	0.103206	0.102998	469.477	53300	0.096600	0.288826	1625.46	90611.2
217	2.000000	1.159522	7.36717e+06	-49489.1	955.822	-29759.2	0.000000	0.000000	7.179634	490.142	NaN	0.000000	0.001745	0.001733	28.0775	100.96	0.001821	55429.6	4.781930	172.223	487.106	1.159086	0.105250	0.104814	490.142	55429.6	0.098618	0.299622	1635.87	92518.5
217	2.000000	1.161082	7.36717e+06	-49489.1	955.821	-29759.2	0.000000	0.000000	7.180783	480.14	NaN	0.000000	0.001728	0.001732	28.0771	103.643	0.001963	52810.8	2.588044	-5.723543	478.235	1.160842	0.106810	0.106570	480.14	52810.8	0.099991	0.307072	1563.61	87071.4