File: remote_trans/data/nanoindenter/0828-1/data/Data_2025-08-06,11h17m57s/2025-07-22_16-23-58_1_367.txt
2025-07-22, 16:23:58, 1
Index	Phase	Displacement	Time	Pos X	Pos Y	Pos Z	Rot A	Rot B	Piezo Z	Force A	Force B	Gripper	Voltage A	Voltage B	Temperature	Amplitude force	Amplitude pos	Stiffness	Phase shift	Phase excitation	Force A raw	Displacement raw	HMax	HMax raw	Real Force	Real Stiffness	Contact Depth	Area	Hardness	Reduced Mod.
[#]	[#]	[um]	[s]	[um]	[um]	[um]	[m°]	[m°]	[um]	[uN]	[uN]	[V]	[V]	[V]	[°C]	[uN]	[um]	[N/m]	[°]	[°]	[uN]	[um]	[um]	[um]	[uN]	[N/m]	[um]	[um^2]	[MPa]	[MPa]
367	1.000000	0.002443	7.36865e+06	-56989.1	955.819	-29738	0.000000	0.000000	6.002793	0.043078	NaN	0.000000	0.001708	0.001768	28.0825	0.034880	0.000831	41.9711	65.0338	-163.851	0.022625	0.001210	-1.085965	-1.087198	0.043078	41.9711	-1.086734	-3.326309E+14	-1.295062E-16	NaN
367	1.000000	0.012493	7.36865e+06	-56989.1	955.818	-29738	0.000000	0.000000	6.012843	0.033425	NaN	0.000000	0.001692	0.001801	28.0822	0.073149	0.001258	58.1416	-157.799	14.8724	0.061951	0.011047	-1.075915	-1.077361	0.033425	58.1416	-1.076346	-2.412372E+14	-1.385583E-16	NaN
367	1.000000	0.022412	7.36865e+06	-56989.1	955.818	-29738	0.000000	0.000000	6.022760	-0.016509	NaN	0.000000	0.001690	0.001761	28.0822	0.101584	0.001747	58.137	120.698	-166.257	-0.066328	0.021034	-1.065996	-1.067374	-0.016509	58.137	-1.065783	-1.739934E+14	9.488529E-17	NaN
367	1.000000	0.032414	7.36865e+06	-56989.1	955.818	-29738	0.000000	0.000000	6.032764	0.047821	NaN	0.000000	0.001614	0.001770	28.082	0.041213	0.001977	20.844	-88.9176	14.085	0.026670	0.030998	-1.055994	-1.057410	0.047821	20.844	-1.057715	-1.355546E+14	-3.527801E-16	NaN
367	1.000000	0.042402	7.36865e+06	-56989.1	955.818	-29738	0.000000	0.000000	6.042753	0.076698	NaN	0.000000	0.001608	0.001763	28.0828	0.055281	0.001909	28.959	-176.962	-166.104	0.138904	0.041085	-1.046006	-1.047323	0.076698	28.959	-1.047993	-1.003293E+14	-7.644660E-16	NaN
367	1.000000	0.052394	7.36865e+06	-56989.1	955.817	-29738	0.000000	0.000000	6.052742	0.001498	NaN	0.000000	0.001593	0.001768	28.0809	0.016634	0.002037	8.166296	166.731	16.3171	-0.004340	0.051015	-1.036015	-1.037393	0.001498	8.166296	-1.036152	-6.953840E+13	-2.154683E-17	NaN
367	1.000000	0.062393	7.36865e+06	-56989.1	955.818	-29738	0.000000	0.000000	6.062746	0.111175	NaN	0.000000	0.001641	0.001796	28.0808	0.024975	0.002066	12.0904	-142.681	-162.463	0.025068	0.061087	-1.026015	-1.027321	0.111175	12.0904	-1.032912	-6.289917E+13	-1.767505E-15	NaN
367	1.000000	0.072396	7.36865e+06	-56989.1	955.82	-29738	0.000000	0.000000	6.072748	0.093728	NaN	0.000000	0.001671	0.001773	28.0808	0.063085	0.002003	31.503	-37.5732	14.2887	0.064306	0.071044	-1.016012	-1.017364	0.093728	31.503	-1.018244	-3.993212E+13	-2.347174E-15	NaN
367	1.000000	0.082430	7.36865e+06	-56989.1	955.818	-29738	0.000000	0.000000	6.082779	0.032128	NaN	0.000000	0.001685	0.001774	28.0811	0.102565	0.002063	49.7205	-60.6022	-162.906	0.032109	0.081101	-1.005978	-1.007307	0.032128	49.7205	-1.006463	-2.771868E+13	-1.159071E-15	NaN
367	1.000000	0.092392	7.36865e+06	-56989.1	955.817	-29738	0.000000	0.000000	6.092741	0.016729	NaN	0.000000	0.001639	0.001801	28.0807	0.088929	0.002045	43.4843	-25.4913	11.6957	0.077057	0.091077	-0.996016	-0.997331	0.016729	43.4843	-0.996305	-2.023094E+13	-8.269188E-16	NaN
367	1.000000	0.102453	7.36865e+06	-56989.1	955.818	-29738	0.000000	0.000000	6.102806	0.111974	NaN	0.000000	0.001664	0.001804	28.0809	0.030824	0.001939	15.8954	-86.02	-167.008	0.093513	0.101175	-0.985955	-0.987234	0.111974	15.8954	-0.991239	-1.728995E+13	-6.476250E-15	NaN
367	1.000000	0.112438	7.36865e+06	-56989.1	955.819	-29738	0.000000	0.000000	6.112788	0.044271	NaN	0.000000	0.001660	0.001779	28.081	0.131967	0.001887	69.9305	82.0045	15.5062	0.117133	0.111055	-0.975970	-0.977354	0.044271	69.9305	-0.976445	-1.092716E+13	-4.051495E-15	NaN
367	1.000000	0.122411	7.36865e+06	-56989.1	955.818	-29738	0.000000	0.000000	6.122762	0.073421	NaN	0.000000	0.001644	0.001825	28.0812	0.046703	0.001962	23.8087	82.9642	-163.25	0.055833	0.121160	-0.965998	-0.967248	0.073421	23.8087	-0.968310	-8.489704E+12	-8.648241E-15	NaN
367	1.000000	0.132421	7.36865e+06	-56989.1	955.818	-29738	0.000000	0.000000	6.132769	0.004187	NaN	0.000000	0.001668	0.001770	28.081	0.032981	0.002070	15.9323	64.6209	13.4492	0.100111	0.131052	-0.955987	-0.957356	0.004187	15.9323	-0.956184	-5.826688E+12	-7.186439E-16	NaN
367	1.000000	0.142428	7.36865e+06	-56989.1	955.819	-29738	0.000000	0.000000	6.142779	0.077693	NaN	0.000000	0.001621	0.001773	28.0809	0.107104	0.001986	53.9264	48.285	-167.679	0.039737	0.141179	-0.945981	-0.947230	0.077693	53.9264	-0.947061	-4.389252E+12	-1.770080E-14	NaN
367	1.000000	0.152476	7.36865e+06	-56989.1	955.819	-29738	0.000000	0.000000	6.152827	0.060815	NaN	0.000000	0.001676	0.001860	28.081	0.063431	0.002108	30.0933	82.012	17.8424	0.034885	0.151097	-0.935932	-0.937311	0.060815	30.0933	-0.937447	-3.256105E+12	-1.867724E-14	NaN
367	1.000000	0.162438	7.36865e+06	-56989.1	955.818	-29738	0.000000	0.000000	6.162787	0.007902	NaN	0.000000	0.001732	0.001804	28.0811	0.044627	0.002059	21.679	-39.5379	-163.555	-0.026394	0.161098	-0.925970	-0.927310	0.007902	21.679	-0.926243	-2.298735E+12	-3.437395E-15	NaN
367	1.000000	0.172452	7.36865e+06	-56989.1	955.818	-29738	0.000000	0.000000	6.172801	0.028640	NaN	0.000000	0.001735	0.001822	28.0808	0.047603	0.002058	23.1264	155.542	15.4035	0.034925	0.171065	-0.915956	-0.917343	0.028640	23.1264	-0.916885	-1.718497E+12	-1.666592E-14	NaN
367	1.000000	0.182438	7.36865e+06	-56989.1	955.818	-29738	0.000000	0.000000	6.182784	-0.047703	NaN	0.000000	0.001705	0.001838	28.0822	0.072498	0.002046	35.4372	-89.9414	-163.227	0.000537	0.181113	-0.905970	-0.907295	-0.047703	35.4372	-0.904961	-1.186018E+12	4.022109E-14	NaN
367	1.000000	0.192445	7.36865e+06	-56989.1	955.819	-29737.9	0.000000	0.000000	6.192797	0.083814	NaN	0.000000	0.001761	0.001775	28.0819	0.077077	0.002000	38.5339	-172.051	14.1968	0.088558	0.191112	-0.895963	-0.897296	0.083814	38.5339	-0.897594	-9.430972E+11	-8.887116E-14	NaN
367	1.000000	0.202476	7.36865e+06	-56989.1	955.819	-29737.9	0.000000	0.000000	6.202827	0.070278	NaN	0.000000	0.001673	0.001806	28.0822	0.045669	0.002050	22.2751	-96.5335	-164.089	0.024335	0.201179	-0.885932	-0.887229	0.070278	22.2751	-0.888299	-7.061801E+11	-9.951891E-14	NaN
367	1.000000	0.212483	7.36865e+06	-56989.1	955.819	-29737.9	0.000000	0.000000	6.212832	0.017325	NaN	0.000000	0.001718	0.001814	28.082	0.029039	0.002177	13.3367	-91.8223	15.0969	0.006550	0.211127	-0.875925	-0.877282	0.017325	13.3367	-0.876899	-4.951932E+11	-3.498711E-14	NaN
367	1.000000	0.222463	7.36865e+06	-56989.1	955.818	-29737.9	0.000000	0.000000	6.222813	0.063662	NaN	0.000000	0.001706	0.001809	28.0822	0.040797	0.001885	21.6419	-10.4496	-164.383	0.130420	0.221169	-0.865946	-0.867239	0.063662	21.6419	-0.868152	-3.770830E+11	-1.688276E-13	NaN
367	1.000000	0.232486	7.36865e+06	-56989.1	955.819	-29737.9	0.000000	0.000000	6.232836	0.049676	NaN	0.000000	0.001752	0.001801	28.0822	0.106256	0.001952	54.4221	132.603	16.786	0.049354	0.231113	-0.855922	-0.857295	0.049676	54.4221	-0.856607	-2.631434E+11	-1.887785E-13	NaN
367	1.000000	0.242479	7.36865e+06	-56989.1	955.818	-29737.9	0.000000	0.000000	6.242833	0.126420	NaN	0.000000	0.001742	0.001773	28.0824	0.058155	0.001988	29.26	-120.399	-166.11	0.191460	0.241179	-0.845929	-0.847229	0.126420	29.26	-0.849169	-2.086846E+11	-6.057933E-13	NaN
367	1.000000	0.252481	7.36865e+06	-56989.1	955.817	-29737.9	0.000000	0.000000	6.252829	-0.012505	NaN	0.000000	0.001787	0.001782	28.0824	0.008796	0.002155	4.081984	25.9249	15.6217	0.020957	0.251147	-0.835927	-0.837261	-0.012505	4.081984	-0.833629	-1.285195E+11	9.730103E-14	NaN
367	1.000000	0.262478	7.36865e+06	-56989.1	955.818	-29737.9	0.000000	0.000000	6.262826	-0.007246	NaN	0.000000	0.001692	0.001768	28.0822	0.030285	0.002073	14.6074	-126.355	-163.248	0.031711	0.261209	-0.825930	-0.827199	-0.007246	14.6074	-0.825558	-9.990032E+10	7.253298E-14	NaN
367	1.000000	0.272479	7.36865e+06	-56989.1	955.818	-29737.9	0.000000	0.000000	6.272831	0.103416	NaN	0.000000	0.001640	0.001721	28.0823	0.051109	0.002052	24.9118	24.1388	14.19	0.032865	0.271161	-0.815929	-0.817247	0.103416	24.9118	-0.819043	-8.151408E+10	-1.268688E-12	NaN
367	1.000000	0.282494	7.36865e+06	-56989.1	955.819	-29737.9	0.000000	0.000000	6.282844	0.050359	NaN	0.000000	0.001671	0.001740	28.082	0.077535	0.001971	39.3449	-130.383	-163.029	0.022054	0.281205	-0.805914	-0.807203	0.050359	39.3449	-0.806874	-5.573910E+10	-9.034739E-13	NaN
367	1.000000	0.292520	7.36865e+06	-56989.1	955.82	-29737.9	0.000000	0.000000	6.292874	0.126392	NaN	0.000000	0.001673	0.001706	28.0823	0.039502	0.001909	20.6971	-140.824	13.1604	0.025600	0.291157	-0.795888	-0.797252	0.126392	20.6971	-0.800468	-4.562618E+10	-2.770167E-12	NaN
367	1.000000	0.302497	7.36865e+06	-56989.1	955.819	-29737.9	0.000000	0.000000	6.302846	0.004609	NaN	0.000000	0.001700	0.001725	28.0822	0.057986	0.001978	29.3221	54.6608	-167.133	0.057149	0.301218	-0.785911	-0.787190	0.004609	29.3221	-0.786029	-2.904967E+10	-1.586689E-13	NaN
367	1.000000	0.312498	7.36865e+06	-56989.1	955.819	-29737.9	0.000000	0.000000	6.312848	0.022070	NaN	0.000000	0.001721	0.001696	28.0822	0.171492	0.001964	87.3059	-170.314	17.6791	0.137325	0.311193	-0.775910	-0.777216	0.022070	87.3059	-0.776099	-2.129218E+10	-1.036522E-12	NaN
367	1.000000	0.322511	7.36865e+06	-56989.1	955.818	-29737.9	0.000000	0.000000	6.322861	0.034045	NaN	0.000000	0.001718	0.001726	28.0808	0.076385	0.002084	36.6522	-8.571980	-167.537	0.037692	0.321230	-0.765897	-0.767178	0.034045	36.6522	-0.766594	-1.581197E+10	-2.153096E-12	NaN
367	1.000000	0.332528	7.36865e+06	-56989.1	955.818	-29737.9	0.000000	0.000000	6.332876	0.000417	NaN	0.000000	0.001704	0.001752	28.0809	0.053256	0.002115	25.1746	-81.084	15.8187	0.073793	0.331154	-0.755881	-0.757254	0.000417	25.1746	-0.755893	-1.130895E+10	-3.689696E-14	NaN
367	1.000000	0.342511	7.36865e+06	-56989.1	955.818	-29737.9	0.000000	0.000000	6.342862	0.077999	NaN	0.000000	0.001717	0.001763	28.0812	0.023899	0.002017	11.8509	91.9292	-165.762	0.060488	0.341177	-0.745898	-0.747231	0.077999	11.8509	-0.750834	-9.650965E+9	-8.081995E-12	NaN
367	1.000000	0.352529	7.36865e+06	-56989.1	955.818	-29737.9	0.000000	0.000000	6.352876	-0.038591	NaN	0.000000	0.001717	0.001750	28.0809	0.071301	0.001883	37.8754	-91.6261	16.6264	0.052908	0.351226	-0.735879	-0.737182	-0.038591	37.8754	-0.735115	-5.895290E+9	6.546037E-12	NaN
367	1.000000	0.362562	7.36865e+06	-56989.1	955.818	-29737.9	0.000000	0.000000	6.362911	0.024978	NaN	0.000000	0.001736	0.001738	28.0808	0.039572	0.002146	18.4432	-8.441352	-166.076	0.081117	0.361218	-0.725847	-0.727190	0.024978	18.4432	-0.726862	-4.550303E+9	-5.489398E-12	NaN
367	1.000000	0.372491	7.36865e+06	-56989.1	955.82	-29737.9	0.000000	0.000000	6.372840	0.013848	NaN	0.000000	0.001744	0.001732	28.0809	0.071987	0.002046	35.1767	-72.1468	16.0153	0.031686	0.371179	-0.715917	-0.717229	0.013848	35.1767	-0.716212	-3.256919E+9	-4.251831E-12	NaN
367	1.000000	0.382548	7.36865e+06	-56989.1	955.818	-29737.9	0.000000	0.000000	6.382898	0.032197	NaN	0.000000	0.001736	0.001749	28.0811	0.073134	0.001907	38.3546	56.9225	-166.627	0.061496	0.381241	-0.705860	-0.707167	0.032197	38.3546	-0.706490	-2.399583E+9	-1.341766E-11	NaN
367	1.000000	0.392576	7.36865e+06	-56989.1	955.818	-29737.9	0.000000	0.000000	6.392928	0.084994	NaN	0.000000	0.001675	0.001727	28.081	0.085882	0.002115	40.5975	167.536	15.2968	0.038470	0.391194	-0.695832	-0.697214	0.084994	40.5975	-0.697402	-1.803224E+9	-4.713473E-11	NaN
367	1.000000	0.402548	7.36865e+06	-56989.1	955.818	-29737.9	0.000000	0.000000	6.402898	0.043096	NaN	0.000000	0.001729	0.001681	28.0808	0.045875	0.001944	23.604	91.7753	-166.601	0.037520	0.401249	-0.685860	-0.687159	0.043096	23.604	-0.687229	-1.309330E+9	-3.291458E-11	NaN
367	1.000000	0.412537	7.36865e+06	-56989.1	955.818	-29737.9	0.000000	0.000000	6.412886	0.024527	NaN	0.000000	0.001717	0.001693	28.0808	0.069522	0.002000	34.7697	62.4075	21.1975	0.025154	0.411244	-0.675871	-0.677165	0.024527	34.7697	-0.676400	-9.310349E+8	-2.634373E-11	NaN
367	1.000000	0.422522	7.36865e+06	-56989.1	955.818	-29737.9	0.000000	0.000000	6.422873	0.071189	NaN	0.000000	0.001687	0.001710	28.0811	0.143869	0.001999	71.9597	151.601	-165.793	0.045439	0.421276	-0.665886	-0.667132	0.071189	71.9597	-0.666628	-6.842726E+8	-1.040361E-10	NaN
367	1.000000	0.432546	7.36865e+06	-56989.1	955.817	-29737.9	0.000000	0.000000	6.432896	0.045539	NaN	0.000000	0.001688	0.001689	28.0808	0.064203	0.002041	31.4643	2.920353	13.7629	0.033423	0.431184	-0.655862	-0.657225	0.045539	31.4643	-0.656948	-5.042611E+8	-9.030904E-11	NaN
367	1.000000	0.442579	7.36865e+06	-56989.1	955.819	-29737.9	0.000000	0.000000	6.442929	0.045177	NaN	0.000000	0.001683	0.001743	28.0808	0.135344	0.001962	68.9904	-24.1121	-164.484	0.075392	0.441257	-0.645829	-0.647151	0.045177	68.9904	-0.646320	-3.605649E+8	-1.252952E-10	NaN
367	1.000000	0.452594	7.36865e+06	-56989.1	955.818	-29737.9	0.000000	0.000000	6.452941	-0.047131	NaN	0.000000	0.001704	0.001731	28.0813	0.139155	0.002014	69.0928	76.7796	15.5668	0.047467	0.451281	-0.635814	-0.637127	-0.047131	69.0928	-0.635302	-2.545766E+8	1.851358E-10	NaN
367	1.000000	0.462564	7.36865e+06	-56989.1	955.818	-29737.9	0.000000	0.000000	6.462915	0.092227	NaN	0.000000	0.001710	0.001707	28.0822	0.091891	0.001997	46.0258	-77.3979	-167.413	0.091113	0.461249	-0.625845	-0.627160	0.092227	46.0258	-0.627348	-1.979674E+8	-4.658709E-10	NaN
367	1.000000	0.472549	7.36865e+06	-56989.1	955.819	-29737.9	0.000000	0.000000	6.472901	0.081628	NaN	0.000000	0.001719	0.001731	28.082	0.079601	0.002063	38.5801	104.314	13.2737	0.113783	0.471286	-0.615859	-0.617122	0.081628	38.5801	-0.617446	-1.447177E+8	-5.640506E-10	NaN
367	1.000000	0.482618	7.36865e+06	-56989.1	955.819	-29737.9	0.000000	0.000000	6.482966	-0.002150	NaN	0.000000	0.001728	0.001723	28.0822	0.028661	0.002118	13.5303	109.489	-164.218	0.037768	0.481218	-0.605790	-0.607190	-0.002150	13.5303	-0.605671	-9.966379E+7	2.157526E-11	NaN
367	1.000000	0.492587	7.36865e+06	-56989.1	955.818	-29737.9	0.000000	0.000000	6.492939	0.093872	NaN	0.000000	0.001689	0.001759	28.0823	0.075422	0.001965	38.3741	-4.508582	15.7828	0.044282	0.491205	-0.595821	-0.597203	0.093872	38.3741	-0.597656	-7.729867E+7	-1.214409E-9	NaN
367	1.000000	0.502562	7.36865e+06	-56989.1	955.818	-29737.9	0.000000	0.000000	6.502910	-0.010689	NaN	0.000000	0.001697	0.001767	28.0824	0.074425	0.001872	39.765	145.354	-164	-0.108235	0.501253	-0.585846	-0.587155	-0.010689	39.765	-0.585645	-5.279660E+7	2.024533E-10	NaN
367	1.000000	0.512615	7.36865e+06	-56989.1	955.818	-29737.9	0.000000	0.000000	6.512967	0.103562	NaN	0.000000	0.001707	0.001742	28.0823	0.040858	0.002095	19.5074	145.716	14.822	0.117891	0.511260	-0.575794	-0.577149	0.103562	19.5074	-0.579775	-4.381511E+7	-2.363615E-9	NaN
367	1.000000	0.522596	7.36865e+06	-56989.1	955.818	-29737.9	0.000000	0.000000	6.522948	0.086431	NaN	0.000000	0.001708	0.001717	28.0821	0.137677	0.002024	68.0072	-79.9649	-163.339	0.081302	0.521335	-0.565812	-0.567073	0.086431	68.0072	-0.566765	-2.896853E+7	-2.983628E-9	NaN
367	1.000000	0.532608	7.36865e+06	-56989.1	955.818	-29737.9	0.000000	0.000000	6.532956	0.000759	NaN	0.000000	0.001701	0.001722	28.0822	0.074776	0.002043	36.6063	-135.745	11.3406	0.025072	0.531304	-0.555801	-0.557104	0.000759	36.6063	-0.555816	-2.044021E+7	-3.715584E-11	NaN
367	1.000000	0.542582	7.36865e+06	-56989.1	955.818	-29737.9	0.000000	0.000000	6.542931	0.036671	NaN	0.000000	0.001718	0.001744	28.0822	0.047387	0.001951	24.29	-171.943	-162.032	-0.042570	0.541287	-0.545826	-0.547122	0.036671	24.29	-0.546959	-1.541076E+7	-2.379557E-9	NaN
367	1.000000	0.552634	7.36865e+06	-56989.1	955.819	-29737.9	0.000000	0.000000	6.552984	0.035723	NaN	0.000000	0.001685	0.001771	28.0821	0.107739	0.002001	53.8419	-14.8867	16.9705	0.020206	0.551203	-0.535774	-0.537205	0.035723	53.8419	-0.536271	-1.095553E+7	-3.260751E-9	NaN
367	1.000000	0.562584	7.36865e+06	-56989.1	955.819	-29737.9	0.000000	0.000000	6.562933	0.038839	NaN	0.000000	0.001706	0.001763	28.0823	0.033413	0.002019	16.5501	130.803	-164.041	-0.059327	0.561309	-0.525825	-0.527099	0.038839	16.5501	-0.527585	-8.29899e+06	-4.679954E-9	NaN
367	1.000000	0.572639	7.36865e+06	-56989.1	955.818	-29737.9	0.000000	0.000000	6.572986	-0.011204	NaN	0.000000	0.001709	0.001750	28.0824	0.026187	0.001979	13.2305	-92.5793	14.3526	-0.059163	0.571225	-0.515770	-0.517184	-0.011204	13.2305	-0.515135	-5.57064e+06	2.011232E-9	NaN
367	1.000000	0.582647	7.36865e+06	-56989.1	955.818	-29737.9	0.000000	0.000000	6.582999	0.099319	NaN	0.000000	0.001725	0.001749	28.0824	0.054656	0.001921	28.4542	13.3678	-162.566	0.094167	0.581385	-0.505761	-0.507023	0.099319	28.4542	-0.508379	-4.48573e+06	-2.214107E-8	NaN
367	1.000000	0.592637	7.36865e+06	-56989.1	955.817	-29737.9	0.000000	0.000000	6.592989	0.088954	NaN	0.000000	0.001677	0.001713	28.081	0.072688	0.001859	39.098	-128.781	15.1834	-0.006251	0.591221	-0.495771	-0.497187	0.088954	39.098	-0.497477	-3.16094e+06	-2.814175E-8	NaN
367	1.000000	0.602643	7.36865e+06	-56989.1	955.819	-29737.9	0.000000	0.000000	6.602992	0.006814	NaN	0.000000	0.001702	0.001705	28.0811	0.031927	0.002192	14.5655	-9.730717	-165.349	0.034194	0.601272	-0.485765	-0.487136	0.006814	14.5655	-0.486116	-2.19328e+06	-3.106891E-9	NaN
367	1.000000	0.612628	7.36865e+06	-56989.1	955.818	-29737.9	0.000000	0.000000	6.612978	0.035829	NaN	0.000000	0.001698	0.001726	28.0813	0.159685	0.002000	79.8606	31.4744	14.1796	-0.006079	0.611304	-0.475780	-0.477105	0.035829	79.8606	-0.476116	-1.58905e+06	-2.254739E-8	NaN
367	1.000000	0.622605	7.36865e+06	-56989.1	955.818	-29737.9	0.000000	0.000000	6.622951	-0.053411	NaN	0.000000	0.001700	0.001714	28.0809	0.090539	0.001999	45.3003	39.0289	-163.898	0.083037	0.621330	-0.465803	-0.467078	-0.053411	45.3003	-0.464919	-1.1069e+06	4.825290E-8	NaN
367	1.000000	0.632646	7.36865e+06	-56989.1	955.817	-29737.9	0.000000	0.000000	6.632996	0.042283	NaN	0.000000	0.001724	0.001750	28.0811	0.072247	0.002091	34.5466	-153.643	12.259	0.040690	0.631276	-0.455762	-0.457132	0.042283	34.5466	-0.456680	-847896	-4.986841E-8	NaN
367	1.000000	0.642663	7.36865e+06	-56989.1	955.818	-29737.9	0.000000	0.000000	6.643014	0.058883	NaN	0.000000	0.001718	0.001763	28.0812	0.097619	0.002113	46.2005	-127.529	-167.328	0.003126	0.641371	-0.445745	-0.447037	0.058883	46.2005	-0.446701	-613575	-9.596688E-8	NaN
367	1.000000	0.652629	7.36865e+06	-56989.1	955.818	-29737.9	0.000000	0.000000	6.652979	0.050152	NaN	0.000000	0.001696	0.001755	28.0812	0.035045	0.002055	17.0505	130.576	15.7877	0.013651	0.651309	-0.435779	-0.437099	0.050152	17.0505	-0.437985	-462301	-1.084824E-7	NaN
367	1.000000	0.662648	7.36865e+06	-56989.1	955.819	-29737.9	0.000000	0.000000	6.662997	0.023976	NaN	0.000000	0.001711	0.001767	28.0811	0.014732	0.001882	7.827255	-155.624	-165.177	-0.007472	0.661383	-0.425760	-0.427025	0.023976	7.827255	-0.428057	-334637	-7.164863E-8	NaN
367	1.000000	0.672659	7.36865e+06	-56989.1	955.818	-29737.9	0.000000	0.000000	6.673007	-0.009044	NaN	0.000000	0.001699	0.001741	28.0812	0.043289	0.002023	21.394	-70.5816	16.4457	-0.022411	0.671304	-0.415749	-0.417104	-0.009044	21.394	-0.415432	-221611	4.081095E-8	NaN
367	1.000000	0.682659	7.36865e+06	-56989.1	955.819	-29737.9	0.000000	0.000000	6.683011	0.085000	NaN	0.000000	0.001730	0.001710	28.0814	0.069692	0.002028	34.3585	-96.4427	-162.352	0.070303	0.681346	-0.405749	-0.407062	0.085000	34.3585	-0.407605	-171524	-4.955579E-7	NaN
367	1.000000	0.692648	7.36865e+06	-56989.1	955.819	-29737.9	0.000000	0.000000	6.692997	0.014165	NaN	0.000000	0.001699	0.001698	28.0811	0.091327	0.001979	46.1419	-62.2508	16.975	-0.030303	0.691281	-0.395760	-0.397127	0.014165	46.1419	-0.395991	-117160	-1.209003E-7	NaN
367	1.000000	0.702693	7.36865e+06	-56989.1	955.818	-29737.9	0.000000	0.000000	6.703041	0.001371	NaN	0.000000	0.001734	0.001741	28.0811	0.084209	0.002012	41.8503	159.079	-166.508	0.009118	0.701361	-0.385715	-0.387047	0.001371	41.8503	-0.385740	-83595.4	-1.640019E-8	NaN
367	1.000000	0.712670	7.36865e+06	-56989.1	955.818	-29737.9	0.000000	0.000000	6.713022	0.113848	NaN	0.000000	0.001739	0.001808	28.0813	0.104509	0.002048	51.0209	-81.4803	15.7005	0.162303	0.711325	-0.375739	-0.377083	0.113848	51.0209	-0.377412	-63494.1	-1.793055E-6	NaN
367	1.000000	0.722669	7.36865e+06	-56989.1	955.819	-29737.9	0.000000	0.000000	6.723019	0.046112	NaN	0.000000	0.001748	0.001758	28.0813	0.067767	0.002110	32.1159	178.414	-164.489	0.064547	0.721368	-0.365739	-0.367040	0.046112	32.1159	-0.366816	-44694.1	-1.031728E-6	NaN
367	1.000000	0.732701	7.36865e+06	-56989.1	955.818	-29737.9	0.000000	0.000000	6.733050	0.020715	NaN	0.000000	0.001720	0.001770	28.0823	0.073394	0.002130	34.4509	173.358	16.8827	0.038871	0.731414	-0.355707	-0.356994	0.020715	34.4509	-0.356158	-31351.9	-6.607225E-7	NaN
367	1.000000	0.742693	7.36865e+06	-56989.1	955.819	-29737.9	0.000000	0.000000	6.743042	0.018157	NaN	0.000000	0.001703	0.001798	28.0821	0.031902	0.001950	16.3561	-169.19	-162.946	0.019497	0.741386	-0.345716	-0.347022	0.018157	16.3561	-0.346548	-22744	-7.983426E-7	NaN
367	1.000000	0.752698	7.36865e+06	-56989.1	955.818	-29737.9	0.000000	0.000000	6.753050	0.088106	NaN	0.000000	0.001702	0.001786	28.0824	0.047009	0.002005	23.4411	81.9915	13.4883	0.055685	0.751310	-0.335710	-0.337098	0.088106	23.4411	-0.338529	-17382.2	-5.068778E-6	NaN
367	1.000000	0.762701	7.36865e+06	-56989.1	955.818	-29737.9	0.000000	0.000000	6.763049	-0.005386	NaN	0.000000	0.001731	0.001780	28.0821	0.042793	0.001887	22.6803	-163.195	-165.488	-0.020071	0.761373	-0.325707	-0.327035	-0.005386	22.6803	-0.325529	-11217.7	4.801559E-7	NaN
367	1.000000	0.772702	7.36865e+06	-56989.1	955.818	-29737.9	0.000000	0.000000	6.773055	0.106062	NaN	0.000000	0.001698	0.001751	28.0823	0.094753	0.001987	47.695	-139.202	14.9921	0.145623	0.771331	-0.315706	-0.317077	0.106062	47.695	-0.317374	-8510.47	-1.246248E-5	NaN
367	1.000000	0.782685	7.36865e+06	-56989.1	955.819	-29737.9	0.000000	0.000000	6.783035	0.044722	NaN	0.000000	0.001695	0.001750	28.0821	0.065619	0.002028	32.3531	-133.46	-164.034	0.040980	0.781340	-0.305723	-0.307068	0.044722	32.3531	-0.306760	-5930.03	-7.541605E-6	NaN
367	1.000000	0.792698	7.36865e+06	-56989.1	955.819	-29737.9	0.000000	0.000000	6.793051	0.101982	NaN	0.000000	0.001703	0.001752	28.0823	0.104102	0.001999	52.0826	8.761902	16.6299	0.004539	0.791332	-0.295710	-0.297076	0.101982	52.0826	-0.297178	-4271.65	-2.387410E-5	NaN
367	1.000000	0.802719	7.36865e+06	-56989.1	955.818	-29737.9	0.000000	0.000000	6.803067	-0.007374	NaN	0.000000	0.001724	0.001728	28.082	0.122272	0.001957	62.4743	-105.898	-164.989	-0.002620	0.801336	-0.285689	-0.287072	-0.007374	62.4743	-0.285600	-2866.08	2.572761E-6	NaN
367	1.000000	0.812762	7.36865e+06	-56989.1	955.819	-29737.9	0.000000	0.000000	6.813112	0.044790	NaN	0.000000	0.001726	0.001700	28.0821	0.006811	0.001968	3.461349	-59.7598	14.8822	0.083131	0.811355	-0.275646	-0.277053	0.044790	3.461349	-0.285351	-2841.44	-1.576316E-5	NaN
367	1.000000	0.822732	7.36865e+06	-56989.1	955.819	-29737.9	0.000000	0.000000	6.823082	0.051938	NaN	0.000000	0.001707	0.001750	28.082	0.094971	0.002134	44.5121	174.247	-165.789	0.101908	0.821395	-0.265676	-0.267013	0.051938	44.5121	-0.266551	-1475.89	-3.519110E-5	NaN
367	1.000000	0.832751	7.36865e+06	-56989.1	955.818	-29737.9	0.000000	0.000000	6.833099	0.016596	NaN	0.000000	0.001729	0.001768	28.0823	0.061166	0.002039	30.0007	32.9561	16.4431	0.014317	0.831373	-0.255658	-0.257035	0.016596	30.0007	-0.256072	-1020.04	-1.627002E-5	NaN
367	1.000000	0.842726	7.36865e+06	-56989.1	955.819	-29737.9	0.000000	0.000000	6.843079	0.115130	NaN	0.000000	0.001685	0.001758	28.082	0.012062	0.001973	6.114189	-118.807	-166.435	0.106229	0.841376	-0.245682	-0.247032	0.115130	6.114189	-0.259805	-1163.91	-9.891590E-5	NaN
367	1.000000	0.852748	7.36865e+06	-56989.1	955.817	-29737.9	0.000000	0.000000	6.853098	0.049930	NaN	0.000000	0.001730	0.001714	28.082	0.056506	0.001982	28.5078	-143.796	16.1238	0.130784	0.851371	-0.235661	-0.237037	0.049930	28.5078	-0.236974	-515.483	-9.686096E-5	NaN
367	1.000000	0.862743	7.36865e+06	-56989.1	955.818	-29737.9	0.000000	0.000000	6.863093	0.041507	NaN	0.000000	0.001732	0.001753	28.0817	0.026836	0.001995	13.4524	-71.5096	-164.666	0.022082	0.861424	-0.225665	-0.226985	0.041507	13.4524	-0.227979	-372.021	-0.000112	NaN
367	1.000000	0.872746	7.36865e+06	-56989.1	955.818	-29737.9	0.000000	0.000000	6.873095	0.038495	NaN	0.000000	0.001728	0.001735	28.0807	0.068221	0.001959	34.8174	-111.619	15.9383	0.046112	0.871335	-0.215663	-0.217074	0.038495	34.8174	-0.216492	-244.054	-0.000158	NaN
367	1.000000	0.882729	7.36865e+06	-56989.1	955.818	-29737.9	0.000000	0.000000	6.883079	0.041461	NaN	0.000000	0.001767	0.001725	28.0808	0.042160	0.001894	22.2556	-9.860072	-164.167	0.066075	0.881436	-0.205679	-0.206972	0.041461	22.2556	-0.207076	-171.937	-0.000241	NaN
367	1.000000	0.892779	7.36865e+06	-56989.1	955.818	-29737.9	0.000000	0.000000	6.893130	0.055795	NaN	0.000000	0.001730	0.001727	28.0806	0.085473	0.002011	42.5087	144.064	14.6292	0.061979	0.891401	-0.195629	-0.197007	0.055795	42.5087	-0.196613	-115.848	-0.000482	NaN
367	1.000000	0.902755	7.36866e+06	-56989.1	955.818	-29737.9	0.000000	0.000000	6.903105	0.042970	NaN	0.000000	0.001673	0.001755	28.0808	0.081897	0.002110	38.8127	-65.3502	-167.456	0.066248	0.901456	-0.185653	-0.186953	0.042970	38.8127	-0.186484	-78.5422	-0.000547	NaN
367	1.000000	0.912768	7.36866e+06	-56989.1	955.818	-29737.9	0.000000	0.000000	6.913116	-0.008455	NaN	0.000000	0.001699	0.001751	28.0807	0.080217	0.002097	38.2593	103.173	12.584	0.052479	0.911410	-0.175640	-0.176998	-0.008455	38.2593	-0.175474	-51.0646	0.000166	NaN
367	1.000000	0.922788	7.36866e+06	-56989.1	955.819	-29737.9	0.000000	0.000000	6.923136	-0.008835	NaN	0.000000	0.001721	0.001747	28.0807	0.069013	0.002002	34.4747	162.708	-169.549	-0.031854	0.921468	-0.165620	-0.166941	-0.008835	34.4747	-0.165428	-34.1834	0.000258	NaN
367	1.000000	0.932765	7.36866e+06	-56989.1	955.819	-29737.9	0.000000	0.000000	6.933116	0.064827	NaN	0.000000	0.001710	0.001718	28.0807	0.116333	0.001899	61.265	-20.5988	17.5926	0.070797	0.931455	-0.155643	-0.156953	0.064827	61.265	-0.156437	-23.6801	-0.002738	NaN
367	1.000000	0.942785	7.36866e+06	-56989.1	955.818	-29737.9	0.000000	0.000000	6.943134	0.000596	NaN	0.000000	0.001715	0.001764	28.0809	0.089903	0.001940	46.351	73.775	-166.83	0.009804	0.941373	-0.145623	-0.147035	0.000596	46.351	-0.145632	-15.0611	-3.955193E-5	NaN
367	1.000000	0.952748	7.36866e+06	-56989.1	955.818	-29737.9	0.000000	0.000000	6.953096	0.001781	NaN	0.000000	0.001743	0.001748	28.0807	0.032224	0.001966	16.3865	108.658	16.2765	0.069524	0.951422	-0.135660	-0.136986	0.001781	16.3865	-0.135741	-9.827154	-0.000181	NaN
367	1.000000	0.962810	7.36866e+06	-56989.1	955.819	-29737.9	0.000000	0.000000	6.963160	0.056464	NaN	0.000000	0.001719	0.001762	28.0808	0.135636	0.001956	69.3605	-33.8295	-166.167	0.018065	0.961511	-0.125599	-0.126897	0.056464	69.3605	-0.126209	-6.424888	-0.008788	NaN
367	1.000000	0.972788	7.36866e+06	-56989.1	955.819	-29737.9	0.000000	0.000000	6.973140	0.094017	NaN	0.000000	0.001750	0.001777	28.0807	0.028260	0.002102	13.4444	159.627	13.7542	0.026478	0.971436	-0.115620	-0.116973	0.094017	13.4444	-0.120865	-5.029271	-0.018694	NaN
367	1.000000	0.982793	7.36866e+06	-56989.1	955.818	-29737.9	0.000000	0.000000	6.983142	0.021849	NaN	0.000000	0.001722	0.001772	28.081	0.109830	0.002005	54.7718	-155.886	-166.948	0.019739	0.981496	-0.105615	-0.106912	0.021849	54.7718	-0.105914	-2.459688	-0.008883	NaN
367	1.000000	0.992810	7.36866e+06	-56989.1	955.818	-29737.9	0.000000	0.000000	6.993158	-0.004863	NaN	0.000000	0.001755	0.001778	28.0808	0.046654	0.002017	23.1283	-41.1689	16.2952	0.067674	0.991462	-0.095598	-0.096946	-0.004863	23.1283	-0.095441	-1.443590	0.003369	NaN
367	1.000000	1.002790	7.36866e+06	-56989.1	955.818	-29737.9	0.000000	0.000000	7.003140	0.057148	NaN	0.000000	0.001715	0.001770	28.0821	0.110886	0.002029	54.6591	-67.3986	-164.831	0.069791	1.001462	-0.085619	-0.086946	0.057148	54.6591	-0.086403	-0.888134	-0.064346	NaN
367	1.000000	1.012764	7.36866e+06	-56989.1	955.818	-29737.9	0.000000	0.000000	7.013112	-0.006387	NaN	0.000000	0.001763	0.001750	28.0819	0.034610	0.001965	17.6108	-76.7986	15.3636	0.045027	1.011500	-0.075644	-0.076908	-0.006387	17.6108	-0.075372	-0.472215	0.013525	NaN
367	1.000000	1.022772	7.36866e+06	-56989.1	955.819	-29737.9	0.000000	0.000000	7.023123	0.078213	NaN	0.000000	0.001768	0.001744	28.0822	0.053589	0.002090	25.635	138.976	-163.212	0.152047	1.021544	-0.065636	-0.066864	0.078213	25.635	-0.067924	-0.299834	-0.260854	NaN
367	1.000000	1.032814	7.36866e+06	-56989.1	955.819	-29737.9	0.000000	0.000000	7.033165	0.069364	NaN	0.000000	0.001757	0.001769	28.0818	0.061642	0.001941	31.7646	46.4363	17.8481	0.107144	1.031458	-0.055594	-0.056950	0.069364	31.7646	-0.057232	-0.149764	-0.463157	NaN
367	1.000000	1.042805	7.36866e+06	-56989.1	955.819	-29737.9	0.000000	0.000000	7.043155	0.059315	NaN	0.000000	0.001763	0.001771	28.0823	0.012046	0.001989	6.054866	-87.8474	-164.413	-0.000842	1.041537	-0.045604	-0.046871	0.059315	6.054866	-0.052951	-0.111930	-0.529927	NaN
367	1.000000	1.052816	7.36866e+06	-56989.1	955.818	-29737.9	0.000000	0.000000	7.053168	0.097012	NaN	0.000000	0.001772	0.001791	28.0821	0.078183	0.002078	37.6319	100.394	13.6922	0.117196	1.051493	-0.035592	-0.036916	0.097012	37.6319	-0.037526	-0.038072	-2.548119	NaN
367	1.000000	1.062807	7.36866e+06	-56989.1	955.82	-29737.9	0.000000	0.000000	7.063155	0.002296	NaN	0.000000	0.001755	0.001776	28.0822	0.047033	0.001875	25.0785	83.2987	-163.746	0.035762	1.061504	-0.025601	-0.026905	0.002296	25.0785	-0.025670	-0.017567	-0.130676	NaN
367	1.000000	1.072823	7.36866e+06	-56989.1	955.819	-29737.9	0.000000	0.000000	7.073172	0.019473	NaN	0.000000	0.001754	0.001767	28.0819	0.070205	0.001967	35.695	62.8909	17.1905	0.038282	1.071479	-0.015585	-0.016929	0.019473	35.695	-0.015994	-0.009879	-1.971046	NaN
367	1.000000	1.082827	7.36866e+06	-56989.1	955.819	-29737.9	0.000000	0.000000	7.083175	0.002469	NaN	0.000000	0.001709	0.001773	28.0822	0.126843	0.002032	62.4135	106.559	-165.707	0.050482	1.081475	-0.005582	-0.006934	0.002469	62.4135	-0.005611	-0.003797	-0.650167	NaN
367	1.000000	1.092786	7.36866e+06	-56989.1	955.819	-29737.9	0.000000	0.000000	7.093264	3.177840	NaN	0.000000	0.001755	0.001772	28.0821	3.835201	0.001930	1987.57	7.994605	11.7604	1.416136	1.091464	0.004377	0.003056	3.177840	1987.57	0.003178	0.002530	1255.83	36099
367	2.000000	1.099366	7.36866e+06	-56989.1	955.82	-29737.9	0.000000	0.000000	7.100076	8.791001	NaN	0.000000	0.001740	0.001771	28.0821	9.774084	0.001649	5925.87	6.193996	-173.009	8.109098	1.099026	0.010958	0.010618	8.791001	5925.87	0.009845	0.009010	975.722	57038.7
367	2.000000	1.101862	7.36866e+06	-56989.1	955.817	-29737.9	0.000000	0.000000	7.102682	11.4612	NaN	0.000000	0.001731	0.001793	28.0821	12.0767	0.001664	7258.8	6.750339	6.627946	11.1775	1.101504	0.013454	0.013095	11.4612	7258.8	0.012270	0.011815	970.086	61013.9
367	2.000000	1.104318	7.36866e+06	-56989.1	955.818	-29737.9	0.000000	0.000000	7.105235	13.8401	NaN	0.000000	0.001630	0.001772	28.0821	14.4407	0.001784	8094.06	6.184912	-171.153	13.4561	1.104040	0.015909	0.015632	13.8401	8094.06	0.014627	0.014791	935.696	60804.7
367	2.000000	1.106833	7.36866e+06	-56989.1	955.82	-29737.9	0.000000	0.000000	7.107935	18.321	NaN	0.000000	0.001706	0.001758	28.0823	17.4637	0.001822	9585.13	12.0001	2.363668	17.9325	1.106479	0.018425	0.018070	18.321	9585.13	0.016992	0.018034	1015.93	65212
367	2.000000	1.109278	7.36866e+06	-56989.1	955.819	-29737.9	0.000000	0.000000	7.110428	19.4913	NaN	0.000000	0.001677	0.001799	28.0809	19.4662	0.001802	10799.8	5.521703	-174.932	19.0244	1.109016	0.020870	0.020608	19.4913	10799.8	0.019516	0.021788	894.597	66847.1
367	2.000000	1.111794	7.36866e+06	-56989.1	955.818	-29737.9	0.000000	0.000000	7.113297	28.066	NaN	0.000000	0.001656	0.001817	28.0807	22.435	0.001742	12879	7.178700	2.067569	27.2145	1.111408	0.023386	0.023000	28.066	12879	0.021752	0.025370	1106.26	73874.3
367	2.000000	1.114276	7.36866e+06	-56989.1	955.818	-29737.9	0.000000	0.000000	7.115865	30.1472	NaN	0.000000	0.001653	0.001784	28.081	25.3502	0.001968	12881	8.632659	-178.829	29.2926	1.114047	0.025868	0.025639	30.1472	12881	0.024113	0.029421	1024.68	68610.9
367	2.000000	1.116762	7.36866e+06	-56989.1	955.819	-29737.9	0.000000	0.000000	7.118677	38.0943	NaN	0.000000	0.001652	0.001783	28.0809	27.4963	0.001777	15470.4	4.923005	2.356088	34.9824	1.116452	0.028354	0.028044	38.0943	15470.4	0.026507	0.033814	1126.58	76864.6
367	2.000000	1.119260	7.36866e+06	-56989.1	955.819	-29737.9	0.000000	0.000000	7.121445	44.6535	NaN	0.000000	0.001638	0.001737	28.0816	29.5817	0.001733	17068.6	6.278005	-179.56	43.9479	1.119023	0.030852	0.030615	44.6535	17068.6	0.028890	0.038473	1160.63	79504.1
367	2.000000	1.121756	7.36866e+06	-56989.1	955.819	-29737.9	0.000000	0.000000	7.124308	53.5604	NaN	0.000000	0.001633	0.001749	28.0809	33.1555	0.001752	18919.9	6.571149	-1.406414	52.5422	1.121390	0.033348	0.032982	53.5604	18919.9	0.031225	0.043321	1236.36	83050.8
367	2.000000	1.124218	7.36866e+06	-56989.1	955.82	-29737.9	0.000000	0.000000	7.127275	65.8361	NaN	0.000000	0.001635	0.001721	28.082	35.8222	0.001716	20878.4	2.609092	-178.268	64.3772	1.123935	0.035810	0.035527	65.8361	20878.4	0.033445	0.048187	1366.25	86896.6
367	2.000000	1.126750	7.36866e+06	-56989.1	955.818	-29737.9	0.000000	0.000000	7.130179	74.8828	NaN	0.000000	0.001619	0.001743	28.0808	38.3544	0.001858	20641.8	6.921422	-1.690348	73.4253	1.126333	0.038342	0.037925	74.8828	20641.8	0.035621	0.053203	1407.5	81762.5
367	2.000000	1.129275	7.36866e+06	-56989.1	955.818	-29737.9	0.000000	0.000000	7.132946	80.7578	NaN	0.000000	0.001650	0.001761	28.081	40.3122	0.001806	22320.3	5.441613	178.611	81.3102	1.129013	0.040867	0.040604	80.7578	22320.3	0.038154	0.059344	1360.84	83711.7
367	2.000000	1.131714	7.36866e+06	-56989.1	955.819	-29737.9	0.000000	0.000000	7.135849	92.0269	NaN	0.000000	0.001667	0.001792	28.0808	43.0676	0.001799	23942.5	3.735221	-0.185026	88.1696	1.131382	0.043306	0.042974	92.0269	23942.5	0.040423	0.065127	1413.03	85715.8
367	2.000000	1.134226	7.36866e+06	-56989.1	955.819	-29737.9	0.000000	0.000000	7.138956	106.499	NaN	0.000000	0.001689	0.001777	28.0818	46.3113	0.001840	25169.2	2.624182	179.724	104.862	1.134015	0.045818	0.045607	106.499	25169.2	0.042644	0.071041	1499.12	86275.6
367	2.000000	1.136684	7.36866e+06	-56989.1	955.818	-29737.9	0.000000	0.000000	7.141933	119.107	NaN	0.000000	0.001640	0.001737	28.0809	48.9458	0.001816	26952.4	7.606904	-6.286415	113.779	1.136401	0.048276	0.047992	119.107	26952.4	0.044962	0.077479	1537.29	88466.5
367	2.000000	1.139214	7.36866e+06	-56989.1	955.818	-29737.9	0.000000	0.000000	7.145020	132.645	NaN	0.000000	0.001670	0.001721	28.081	50.652	0.001765	28697.5	6.977334	173.771	129.987	1.138952	0.050806	0.050544	132.645	28697.5	0.047339	0.084367	1572.23	90267.2
367	2.000000	1.141725	7.36866e+06	-56989.1	955.818	-29737.9	0.000000	0.000000	7.148598	158.594	NaN	0.000000	0.001672	0.001738	28.0818	52.4131	0.001808	28984.1	4.131611	-2.124278	155.895	1.141349	0.053316	0.052940	158.594	28984.1	0.049213	0.089995	1762.25	88272.3
367	2.000000	1.144144	7.36866e+06	-56989.1	955.818	-29737.9	0.000000	0.000000	7.151560	171.79	NaN	0.000000	0.001665	0.001738	28.0829	56.1557	0.001585	35422.6	6.625967	172.251	167.99	1.143917	0.055736	0.055508	171.79	35422.6	0.052099	0.099010	1735.07	102852
367	2.000000	1.146729	7.36866e+06	-56989.1	955.818	-29737.9	0.000000	0.000000	7.154979	192.068	NaN	0.000000	0.001593	0.001744	28.0822	58.6424	0.001788	32791.2	9.590066	-8.249700	188.499	1.146331	0.058321	0.057923	192.068	32791.2	0.053928	0.104940	1830.26	92482.7
367	2.000000	1.149198	7.36866e+06	-56989.1	955.818	-29737.9	0.000000	0.000000	7.157928	203.74	NaN	0.000000	0.001625	0.001709	28.082	60.4131	0.001751	34500.5	4.357376	175.43	202.893	1.148872	0.060790	0.060464	203.74	34500.5	0.056361	0.113082	1801.69	93734.9
367	2.000000	1.151628	7.36866e+06	-56989.1	955.817	-29737.9	0.000000	0.000000	7.161071	221.059	NaN	0.000000	0.001610	0.001757	28.0821	63.1058	0.001668	37832.8	4.492249	-5.414771	213.84	1.151237	0.063220	0.062828	221.059	37832.8	0.058838	0.121674	1816.82	99093.2
367	2.000000	1.154187	7.36866e+06	-56989.1	955.818	-29737.9	0.000000	0.000000	7.164511	242.467	NaN	0.000000	0.001610	0.001748	28.082	66.8231	0.001801	37109.4	4.257186	174.989	238.774	1.153913	0.065779	0.065504	242.467	37109.4	0.060879	0.128977	1879.92	94406.2
367	2.000000	1.156682	7.36866e+06	-56989.1	955.818	-29737.9	0.000000	0.000000	7.167606	257.044	NaN	0.000000	0.001588	0.001743	28.0821	67.23	0.001577	42639.2	0.178600	-1.954545	252.782	1.156365	0.068274	0.067957	257.044	42639.2	0.063753	0.139607	1841.19	104262
367	2.000000	1.159153	7.36866e+06	-56989.1	955.817	-29737.9	0.000000	0.000000	7.171363	288.299	NaN	0.000000	0.001595	0.001736	28.0818	69.9917	0.001697	41244.6	5.257491	173.175	284.927	1.158720	0.070745	0.070312	288.299	41244.6	0.065503	0.146277	1970.92	98526.6
367	2.000000	1.161770	7.36866e+06	-56989.1	955.818	-29737.9	0.000000	0.000000	7.174364	297.64	NaN	0.000000	0.001624	0.001722	28.0822	73.0412	0.001815	40232.1	3.631113	-4.493816	298.901	1.161432	0.073362	0.073023	297.64	40232.1	0.067814	0.155308	1916.45	93271.6
367	2.000000	1.164190	7.36866e+06	-56989.1	955.817	-29737.9	0.000000	0.000000	7.177913	325.096	NaN	0.000000	0.001582	0.001756	28.082	75.6939	0.001828	41408.1	4.893232	173.559	324.395	1.163850	0.075781	0.075441	325.096	41408.1	0.069893	0.163653	1986.5	93518.2
367	2.000000	1.166660	7.36866e+06	-56989.1	955.818	-29737.9	0.000000	0.000000	7.181115	342.869	NaN	0.000000	0.001601	0.001755	28.0819	77.4522	0.001846	41947.1	7.559688	-8.760246	337.375	1.166351	0.078252	0.077942	342.869	41947.1	0.072122	0.172827	1983.89	92187.1
367	2.000000	1.169064	7.36866e+06	-56989.1	955.818	-29737.9	0.000000	0.000000	7.184936	377.316	NaN	0.000000	0.001618	0.001764	28.0822	78.4941	0.001800	43613.6	6.807941	170.773	369.23	1.168792	0.080655	0.080384	377.316	43613.6	0.074167	0.181450	2079.44	93544
367	2.000000	1.171644	7.36866e+06	-56989.1	955.818	-29737.9	0.000000	0.000000	7.188114	391.84	NaN	0.000000	0.001601	0.001763	28.0823	80.9847	0.001769	45788.4	2.691539	-4.977322	386.346	1.171297	0.083236	0.082889	391.84	45788.4	0.076818	0.192922	2031.08	95244
367	2.000000	1.174298	7.36866e+06	-56989.1	955.817	-29737.9	0.000000	0.000000	7.191178	401.815	NaN	0.000000	0.001617	0.001709	28.0819	84.5191	0.001856	45544.6	1.139629	176.444	404.241	1.174176	0.085890	0.085768	401.815	45544.6	0.079273	0.203841	1971.22	92164.7
367	2.000000	1.176677	7.36866e+06	-56989.1	955.817	-29737.9	0.000000	0.000000	7.195434	447.437	NaN	0.000000	0.001622	0.001696	28.0808	86.1889	0.001869	46108.3	0.785922	-2.741440	442.805	1.176298	0.088269	0.087890	447.437	46108.3	0.080991	0.211649	2114.06	91568.1
367	2.000000	1.179197	7.36866e+06	-56989.1	955.817	-29737.9	0.000000	0.000000	7.198769	467.261	NaN	0.000000	0.001611	0.001718	28.0807	89.055	0.001798	49517	4.416453	173.308	466.581	1.178888	0.090788	0.090480	467.261	49517	0.083711	0.224292	2083.27	95525.8
367	2.000000	1.181645	7.36866e+06	-56989.1	955.817	-29737.9	0.000000	0.000000	7.202130	489.43	NaN	0.000000	0.001620	0.001705	28.081	91.2833	0.001757	51939.4	4.620724	-7.875076	485.937	1.181443	0.093237	0.093035	489.43	51939.4	0.086170	0.236013	2073.74	97679.1
367	2.000000	1.184130	7.36866e+06	-56989.1	955.817	-29737.9	0.000000	0.000000	7.205848	519.39	NaN	0.000000	0.001594	0.001711	28.0806	94.3576	0.001786	52837.8	6.602908	170.78	516.53	1.183752	0.095722	0.095344	519.39	52837.8	0.088350	0.246640	2105.87	97204.5
367	2.000000	1.186602	7.36866e+06	-56989.1	955.818	-29737.9	0.000000	0.000000	7.209003	536.013	NaN	0.000000	0.001614	0.001726	28.0808	95.7941	0.001728	55443.2	4.603446	-8.198899	528.437	1.186401	0.098194	0.097993	536.013	55443.2	0.090943	0.259565	2065.05	99425.7
367	2.000000	1.189059	7.36866e+06	-56989.1	955.818	-29737.9	0.000000	0.000000	7.212891	570.78	NaN	0.000000	0.001632	0.001714	28.0809	98.1204	0.001780	55117.6	7.909851	168.813	562.878	1.188690	0.100651	0.100281	570.78	55117.6	0.092884	0.269443	2118.37	97013
367	2.000000	1.191588	7.36866e+06	-56989.1	955.818	-29737.9	0.000000	0.000000	7.216712	602.176	NaN	0.000000	0.001600	0.001673	28.081	100.85	0.001859	54253.8	5.186141	-8.653918	592.965	1.191255	0.103180	0.102847	602.176	54253.8	0.094855	0.279648	2153.33	93734
367	2.000000	1.194051	7.36866e+06	-56989.1	955.817	-29737.9	0.000000	0.000000	7.220021	622.746	NaN	0.000000	0.001611	0.001725	28.081	102.06	0.001716	59459.3	1.987423	174.32	615.319	1.193604	0.105643	0.105196	622.746	59459.3	0.097788	0.295157	2109.88	99992.2
367	2.000000	1.196608	7.36866e+06	-56989.1	955.818	-29737.9	0.000000	0.000000	7.222968	632.246	NaN	0.000000	0.001612	0.001720	28.0811	104.545	0.001887	55407.1	2.018243	-5.453136	623.946	1.196189	0.108200	0.107780	632.246	55407.1	0.099641	0.305165	2071.82	91637.2