File: remote_trans/data/nanoindenter/0828-1/data/Data_2025-08-06,11h17m57s/2025-07-22_16-23-58_1_699.txt
2025-07-22, 16:23:58, 1
Index	Phase	Displacement	Time	Pos X	Pos Y	Pos Z	Rot A	Rot B	Piezo Z	Force A	Force B	Gripper	Voltage A	Voltage B	Temperature	Amplitude force	Amplitude pos	Stiffness	Phase shift	Phase excitation	Force A raw	Displacement raw	HMax	HMax raw	Real Force	Real Stiffness	Contact Depth	Area	Hardness	Reduced Mod.
[#]	[#]	[um]	[s]	[um]	[um]	[um]	[m°]	[m°]	[um]	[uN]	[uN]	[V]	[V]	[V]	[°C]	[uN]	[um]	[N/m]	[°]	[°]	[uN]	[um]	[um]	[um]	[uN]	[N/m]	[um]	[um^2]	[MPa]	[MPa]
699	1.000000	0.002770	7.37189e+06	-42139.1	1005.82	-29783.8	0.000000	0.000000	6.002804	-0.042756	NaN	0.000000	0.001531	0.001808	28.0821	0.047603	0.000900	52.9116	-89.0283	-172.718	-0.017247	0.001507	-1.046661	-1.047924	-0.042756	52.9116	-1.046055	-9.448733E+13	4.525044E-16	NaN
699	1.000000	0.010755	7.37189e+06	-42139.1	1005.82	-29783.8	0.000000	0.000000	6.010792	0.031715	NaN	0.000000	0.001583	0.001750	28.0817	0.081614	0.000908	89.8414	30.9449	-156.191	0.087509	0.009437	-1.038676	-1.039993	0.031715	89.8414	-1.038941	-7.580928E+13	-4.183480E-16	NaN
699	1.000000	0.018743	7.37189e+06	-42139.1	1005.82	-29783.8	0.000000	0.000000	6.018778	-0.010659	NaN	0.000000	0.001588	0.001802	28.0816	0.081912	0.001877	43.6394	-125.287	-163.406	-0.024825	0.017422	-1.030688	-1.032008	-0.010659	43.6394	-1.030505	-5.838068E+13	1.825847E-16	NaN
699	1.000000	0.026728	7.37189e+06	-42139.1	1005.82	-29783.8	0.000000	0.000000	6.026765	0.013339	NaN	0.000000	0.001578	0.001813	28.0817	0.033097	0.001895	17.4675	-42.7115	-165.461	0.006519	0.025385	-1.022702	-1.024046	0.013339	17.4675	-1.023275	-4.666761E+13	-2.858194E-16	NaN
699	1.000000	0.034697	7.37189e+06	-42139.1	1005.82	-29783.8	0.000000	0.000000	6.034731	-0.049951	NaN	0.000000	0.001578	0.001778	28.0816	0.051298	0.001775	28.898	-166.769	-168.149	0.050880	0.033392	-1.014734	-1.016038	-0.049951	28.898	-1.013438	-3.440701E+13	1.451757E-15	NaN
699	1.000000	0.042710	7.37189e+06	-42139.1	1005.82	-29783.8	0.000000	0.000000	6.042746	-0.014291	NaN	0.000000	0.001572	0.001789	28.0825	0.033371	0.001988	16.7842	87.5551	-164.923	0.012917	0.041449	-1.006720	-1.007982	-0.014291	16.7842	-1.006082	-2.739330E+13	5.216798E-16	NaN
699	1.000000	0.050742	7.37189e+06	-42139.1	1005.82	-29783.8	0.000000	0.000000	6.050779	0.012176	NaN	0.000000	0.001594	0.001761	28.0818	0.057556	0.001877	30.6577	88.8004	-165.61	-0.018310	0.049426	-0.998688	-1.000005	0.012176	30.6577	-0.998986	-2.198466E+13	-5.538364E-16	NaN
699	1.000000	0.058696	7.37189e+06	-42139.1	1005.82	-29783.8	0.000000	0.000000	6.058732	0.008142	NaN	0.000000	0.001591	0.001751	28.0819	0.112216	0.001991	56.3643	-112.353	-164.242	0.037640	0.057375	-0.990735	-0.992056	0.008142	56.3643	-0.990843	-1.707915E+13	-4.767083E-16	NaN
699	1.000000	0.066765	7.37189e+06	-42139.1	1005.82	-29783.8	0.000000	0.000000	6.066803	0.032326	NaN	0.000000	0.001558	0.001760	28.0818	0.081494	0.002023	40.2904	-136.108	-164.726	0.013793	0.065388	-0.982665	-0.984042	0.032326	40.2904	-0.983267	-1.350280E+13	-2.394043E-15	NaN
699	1.000000	0.074725	7.37189e+06	-42139.1	1005.82	-29783.8	0.000000	0.000000	6.074763	0.039715	NaN	0.000000	0.001577	0.001757	28.0818	0.030272	0.002091	14.4787	-36.6337	-165.051	0.057872	0.073388	-0.974705	-0.976042	0.039715	14.4787	-0.976763	-1.103555E+13	-3.598868E-15	NaN
699	1.000000	0.082725	7.37189e+06	-42139.1	1005.82	-29783.8	0.000000	0.000000	6.082760	-0.030535	NaN	0.000000	0.001589	0.001737	28.0817	0.101110	0.001957	51.6745	20.595	-165.705	-0.044649	0.081424	-0.966705	-0.968007	-0.030535	51.6745	-0.966262	-7.966850E+12	3.832744E-15	NaN
699	1.000000	0.090735	7.37189e+06	-42139.1	1005.82	-29783.8	0.000000	0.000000	6.090769	-0.043093	NaN	0.000000	0.001553	0.001771	28.0822	0.123563	0.001998	61.842	-80.664	-162.409	-0.036502	0.089443	-0.958696	-0.959987	-0.043093	61.842	-0.958173	-6.197889E+12	6.952887E-15	NaN
699	1.000000	0.098738	7.37189e+06	-42139.1	1005.82	-29783.8	0.000000	0.000000	6.098775	0.017758	NaN	0.000000	0.001576	0.001755	28.0821	0.068101	0.002028	33.5737	75.2576	-164.434	-0.017261	0.097419	-0.950693	-0.952012	0.017758	33.5737	-0.951089	-4.974130E+12	-3.570058E-15	NaN
699	1.000000	0.106747	7.37189e+06	-42139.1	1005.82	-29783.8	0.000000	0.000000	6.106783	-0.000264	NaN	0.000000	0.001602	0.001773	28.0818	0.071037	0.002232	31.8277	-159.646	-166.369	0.133887	0.105385	-0.942684	-0.944045	-0.000264	31.8277	-0.942678	-3.830567E+12	6.904914E-17	NaN
699	1.000000	0.114712	7.37189e+06	-42139.1	1005.82	-29783.8	0.000000	0.000000	6.114750	0.056928	NaN	0.000000	0.001560	0.001787	28.082	0.029188	0.002029	14.3842	-172.979	-159.279	0.009855	0.113409	-0.934719	-0.936022	0.056928	14.3842	-0.937687	-3.280468E+12	-1.735370E-14	NaN
699	1.000000	0.122761	7.37189e+06	-42139.1	1005.82	-29783.8	0.000000	0.000000	6.122794	-0.060993	NaN	0.000000	0.001539	0.001801	28.0818	0.041506	0.002003	20.7168	-163.82	-163.433	-0.079489	0.121420	-0.926670	-0.928011	-0.060993	20.7168	-0.924462	-2.174928E+12	2.804381E-14	NaN
699	1.000000	0.130756	7.37189e+06	-42139.1	1005.82	-29783.8	0.000000	0.000000	6.130790	-0.039919	NaN	0.000000	0.001564	0.001787	28.082	0.048532	0.002006	24.1989	87.6912	-163.402	-0.064042	0.129454	-0.918675	-0.919977	-0.039919	24.1989	-0.917438	-1.748267E+12	2.283346E-14	NaN
699	1.000000	0.138767	7.37189e+06	-42139.1	1005.82	-29783.8	0.000000	0.000000	6.138804	0.039866	NaN	0.000000	0.001575	0.001785	28.0831	0.091004	0.001943	46.8293	-175.546	-164.965	-0.028619	0.137460	-0.910664	-0.911971	0.039866	46.8293	-0.911302	-1.444618E+12	-2.759644E-14	NaN
699	1.000000	0.146776	7.37189e+06	-42139.1	1005.82	-29783.8	0.000000	0.000000	6.146813	0.030624	NaN	0.000000	0.001569	0.001726	28.0836	0.040199	0.001963	20.4745	26.4609	-166.067	-0.060561	0.145440	-0.902655	-0.903991	0.030624	20.4745	-0.903777	-1.143137E+12	-2.678955E-14	NaN
699	1.000000	0.154766	7.37189e+06	-42139.1	1005.82	-29783.8	0.000000	0.000000	6.154801	-0.038303	NaN	0.000000	0.001573	0.001751	28.0833	0.071824	0.002093	34.3213	96.8458	-161.896	-0.024387	0.153444	-0.894664	-0.895987	-0.038303	34.3213	-0.893827	-8.387797E+11	4.566544E-14	NaN
699	1.000000	0.162754	7.37189e+06	-42139.1	1005.82	-29783.8	0.000000	0.000000	6.162787	-0.067337	NaN	0.000000	0.001545	0.001763	28.0832	0.008785	0.001933	4.545213	5.304007	-167.318	-0.092507	0.161420	-0.886677	-0.888010	-0.067337	4.545213	-0.875565	-4.750421E+11	1.417503E-13	NaN
699	1.000000	0.170744	7.37189e+06	-42139.1	1005.82	-29783.8	0.000000	0.000000	6.170779	-0.027628	NaN	0.000000	0.001554	0.001715	28.0834	0.118685	0.001979	59.9751	-45.2884	-164.889	0.012314	0.169450	-0.878686	-0.879981	-0.027628	59.9751	-0.878341	-5.179267E+11	5.334400E-14	NaN
699	1.000000	0.178764	7.37189e+06	-42139.1	1005.82	-29783.8	0.000000	0.000000	6.178802	0.047489	NaN	0.000000	0.001617	0.001720	28.0831	0.019294	0.002086	9.249546	-148.707	-166.091	0.031885	0.177426	-0.870667	-0.872004	0.047489	9.249546	-0.874517	-4.597863E+11	-1.032856E-13	NaN
699	1.000000	0.186765	7.37189e+06	-42139.1	1005.82	-29783.8	0.000000	0.000000	6.186804	0.076652	NaN	0.000000	0.001551	0.001729	28.0834	0.074137	0.002004	37.0005	93.4854	-164.701	-0.000416	0.185417	-0.862665	-0.864014	0.076652	37.0005	-0.864219	-3.335972E+11	-2.297743E-13	NaN
699	1.000000	0.194761	7.37189e+06	-42139.1	1005.82	-29783.8	0.000000	0.000000	6.194796	-0.004769	NaN	0.000000	0.001579	0.001723	28.0832	0.065666	0.002088	31.4519	-144.499	-164.537	-0.116964	0.193460	-0.854670	-0.855971	-0.004769	31.4519	-0.854556	-2.468479E+11	1.931928E-14	NaN
699	1.000000	0.202789	7.37189e+06	-42139.1	1005.82	-29783.8	0.000000	0.000000	6.202827	0.042052	NaN	0.000000	0.001558	0.001699	28.0831	0.092563	0.001953	47.4035	146.762	-167.502	0.016694	0.201441	-0.846642	-0.847990	0.042052	47.4035	-0.847307	-1.969109E+11	-2.135598E-13	NaN
699	1.000000	0.210766	7.37189e+06	-42139.1	1005.82	-29783.8	0.000000	0.000000	6.210799	-0.058179	NaN	0.000000	0.001575	0.001745	28.0834	0.068710	0.001920	35.7799	155.464	-165.01	-0.032126	0.209412	-0.838665	-0.840019	-0.058179	35.7799	-0.837445	-1.447700E+11	4.018748E-13	NaN
699	1.000000	0.218759	7.37189e+06	-42139.1	1005.82	-29783.8	0.000000	0.000000	6.218796	0.014600	NaN	0.000000	0.001594	0.001757	28.0829	0.071696	0.001800	39.8323	-42.5533	-158.364	0.027676	0.217459	-0.830672	-0.831971	0.014600	39.8323	-0.830946	-1.181988E+11	-1.235184E-13	NaN
699	1.000000	0.226790	7.37189e+06	-42139.1	1005.82	-29783.8	0.000000	0.000000	6.226825	-0.004264	NaN	0.000000	0.001593	0.001767	28.0829	0.062936	0.002120	29.6921	45.4889	-162.721	0.017512	0.225516	-0.822641	-0.823914	-0.004264	29.6921	-0.822533	-9.090014E+10	4.691292E-14	NaN
699	1.000000	0.234794	7.37189e+06	-42139.1	1005.82	-29783.8	0.000000	0.000000	6.234831	0.047005	NaN	0.000000	0.001571	0.001748	28.083	0.014436	0.002060	7.008168	124.083	-167.72	0.080667	0.233473	-0.814637	-0.815958	0.047005	7.008168	-0.819667	-8.311909E+10	-5.655123E-13	NaN
699	1.000000	0.242816	7.37189e+06	-42139.1	1005.82	-29783.8	0.000000	0.000000	6.242852	-0.005198	NaN	0.000000	0.001580	0.001698	28.0833	0.076954	0.002080	36.9977	-84.8295	-162.844	0.028465	0.241466	-0.806614	-0.807965	-0.005198	36.9977	-0.806509	-5.510652E+10	9.433437E-14	NaN
699	1.000000	0.250781	7.37189e+06	-42139.1	1005.82	-29783.8	0.000000	0.000000	6.250816	-0.011233	NaN	0.000000	0.001568	0.001707	28.0833	0.062163	0.002066	30.0922	-109.003	-164.81	0.034579	0.249472	-0.798650	-0.799958	-0.011233	30.0922	-0.798370	-4.272990E+10	2.628897E-13	NaN
699	1.000000	0.258805	7.37189e+06	-42139.1	1005.82	-29783.8	0.000000	0.000000	6.258841	0.013623	NaN	0.000000	0.001552	0.001737	28.0829	0.117815	0.001952	60.355	130.392	-167.04	0.046652	0.257468	-0.790626	-0.791963	0.013623	60.355	-0.790795	-3.371939E+10	-4.040075E-13	NaN
699	1.000000	0.266785	7.37189e+06	-42139.1	1005.82	-29783.8	0.000000	0.000000	6.266820	-0.013650	NaN	0.000000	0.001600	0.001742	28.0832	0.018878	0.002060	9.164249	-48.356	-165.71	-0.051935	0.265491	-0.782646	-0.783940	-0.013650	9.164249	-0.781528	-2.523486E+10	5.409196E-13	NaN
699	1.000000	0.274786	7.37189e+06	-42139.1	1005.82	-29783.8	0.000000	0.000000	6.274825	0.059291	NaN	0.000000	0.001588	0.001698	28.0817	0.007732	0.002037	3.795319	132.205	-166.648	0.042847	0.273520	-0.774644	-0.775911	0.059291	3.795319	-0.786361	-2.935313E+10	-2.019928E-12	NaN
699	1.000000	0.282834	7.37189e+06	-42139.1	1005.82	-29783.8	0.000000	0.000000	6.282874	0.095845	NaN	0.000000	0.001589	0.001683	28.082	0.103923	0.002086	49.8101	144.618	-165.694	0.100966	0.281532	-0.766597	-0.767898	0.095845	49.8101	-0.768040	-1.654446E+10	-5.793198E-12	NaN
699	1.000000	0.290812	7.37189e+06	-42139.1	1005.82	-29783.8	0.000000	0.000000	6.290848	0.017621	NaN	0.000000	0.001599	0.001731	28.0819	0.135707	0.001906	71.1841	-22.3839	-166.011	0.048990	0.289551	-0.758619	-0.759879	0.017621	71.1841	-0.758804	-1.238903E+10	-1.422290E-12	NaN
699	1.000000	0.298804	7.37189e+06	-42139.1	1005.82	-29783.8	0.000000	0.000000	6.298840	-0.008502	NaN	0.000000	0.001576	0.001700	28.0817	0.082220	0.001909	43.0601	-44.2337	-166.372	0.026671	0.297547	-0.750627	-0.751883	-0.008502	43.0601	-0.750478	-9.544055E+9	8.908175E-13	NaN
699	1.000000	0.306853	7.37189e+06	-42139.1	1005.82	-29783.8	0.000000	0.000000	6.306888	-0.015794	NaN	0.000000	0.001637	0.001711	28.0819	0.106134	0.002090	50.783	121.009	-164.439	0.074179	0.305542	-0.742578	-0.743889	-0.015794	50.783	-0.742345	-7.395858E+9	2.135553E-12	NaN
699	1.000000	0.314818	7.37189e+06	-42139.1	1005.82	-29783.8	0.000000	0.000000	6.314852	-0.045560	NaN	0.000000	0.001584	0.001691	28.0819	0.051361	0.002057	24.9707	-71.5961	-169.001	-0.009504	0.313499	-0.734613	-0.735932	-0.045560	24.9707	-0.733245	-5.559361E+9	8.195144E-12	NaN
699	1.000000	0.322827	7.37189e+06	-42139.1	1005.82	-29783.8	0.000000	0.000000	6.322863	0.004411	NaN	0.000000	0.001610	0.001681	28.0821	0.043374	0.002146	20.208	-67.3169	-165.728	0.043636	0.321550	-0.726604	-0.727881	0.004411	20.208	-0.726768	-4.536797E+9	-9.723129E-13	NaN
699	1.000000	0.330851	7.37189e+06	-42139.1	1005.82	-29783.8	0.000000	0.000000	6.330887	0.015803	NaN	0.000000	0.001582	0.001717	28.0818	0.104310	0.002075	50.2594	124.478	-168.289	-0.010431	0.329577	-0.718580	-0.719854	0.015803	50.2594	-0.718816	-3.534469E+9	-4.471163E-12	NaN
699	1.000000	0.338857	7.37189e+06	-42139.1	1005.82	-29783.8	0.000000	0.000000	6.338893	0.007152	NaN	0.000000	0.001633	0.001727	28.0821	0.141993	0.001981	71.6775	-14.7525	-162.537	0.014824	0.337521	-0.710573	-0.711910	0.007152	71.6775	-0.710648	-2.734612E+9	-2.615222E-12	NaN
699	1.000000	0.346826	7.37189e+06	-42139.1	1005.82	-29783.8	0.000000	0.000000	6.346862	-0.005238	NaN	0.000000	0.001577	0.001690	28.0819	0.101375	0.001919	52.8175	86.9439	-164.814	-0.049770	0.345555	-0.702604	-0.703876	-0.005238	52.8175	-0.702530	-2.118742E+9	2.472018E-12	NaN
699	1.000000	0.354849	7.37189e+06	-42139.1	1005.82	-29783.8	0.000000	0.000000	6.354887	0.061161	NaN	0.000000	0.001615	0.001711	28.0822	0.055249	0.001885	29.3083	-139.266	-168.945	0.007009	0.353583	-0.694582	-0.695848	0.061161	29.3083	-0.696147	-1.733427E+9	-3.528323E-11	NaN
699	1.000000	0.362848	7.37189e+06	-42139.1	1005.82	-29783.8	0.000000	0.000000	6.362883	-0.032364	NaN	0.000000	0.001643	0.001730	28.0822	0.027925	0.001980	14.104	-37.6103	-166.108	-0.078823	0.361524	-0.686582	-0.687907	-0.032364	14.104	-0.684861	-1.215283E+9	2.663125E-11	NaN
699	1.000000	0.370866	7.37189e+06	-42139.1	1005.82	-29783.8	0.000000	0.000000	6.370902	-0.001673	NaN	0.000000	0.001588	0.001702	28.0817	0.085488	0.002024	42.2321	-1.313241	-162.64	-0.083707	0.369565	-0.678565	-0.679866	-0.001673	42.2321	-0.678535	-9.957869E+8	1.680096E-12	NaN
699	1.000000	0.378837	7.37189e+06	-42139.1	1005.82	-29783.8	0.000000	0.000000	6.378872	-0.016059	NaN	0.000000	0.001505	0.001714	28.082	0.080922	0.002124	38.0967	128.7	-164.039	-0.083544	0.377567	-0.670594	-0.671864	-0.016059	38.0967	-0.670277	-7.676945E+8	2.091812E-11	NaN
699	1.000000	0.386851	7.37189e+06	-42139.1	1005.82	-29783.8	0.000000	0.000000	6.386888	0.027430	NaN	0.000000	0.001561	0.001722	28.0818	0.041216	0.001931	21.3434	16.4535	-167.602	0.091251	0.385550	-0.662579	-0.663880	0.027430	21.3434	-0.663543	-6.208650E+8	-4.418067E-11	NaN
699	1.000000	0.394868	7.37189e+06	-42139.1	1005.82	-29783.8	0.000000	0.000000	6.394905	0.022982	NaN	0.000000	0.001497	0.001741	28.082	0.067392	0.001954	34.4831	-149.189	-166.751	0.009693	0.393528	-0.654563	-0.655903	0.022982	34.4831	-0.655062	-4.751399E+8	-4.836911E-11	NaN
699	1.000000	0.402839	7.37189e+06	-42139.1	1005.82	-29783.8	0.000000	0.000000	6.402875	-0.000877	NaN	0.000000	0.001540	0.001725	28.0818	0.024311	0.002008	12.1078	-11.4402	-162.206	0.022563	0.401609	-0.646591	-0.647822	-0.000877	12.1078	-0.646537	-3.630422E+8	2.414610E-12	NaN
699	1.000000	0.410878	7.37189e+06	-42139.1	1005.82	-29783.8	0.000000	0.000000	6.410914	0.010597	NaN	0.000000	0.001534	0.001719	28.083	0.055074	0.001890	29.1381	108.95	-165.15	-0.080970	0.409579	-0.638553	-0.639852	0.010597	29.1381	-0.638826	-2.845635E+8	-3.723918E-11	NaN
699	1.000000	0.418873	7.37189e+06	-42139.1	1005.82	-29783.8	0.000000	0.000000	6.418908	-0.031337	NaN	0.000000	0.001547	0.001713	28.0831	0.087948	0.001954	45.0095	158.881	-167.221	0.001041	0.417573	-0.630558	-0.631858	-0.031337	45.0095	-0.630035	-2.155307E+8	1.453964E-10	NaN
699	1.000000	0.426870	7.37189e+06	-42139.1	1005.82	-29783.8	0.000000	0.000000	6.426904	-0.046732	NaN	0.000000	0.001554	0.001709	28.0828	0.088258	0.001995	44.2433	175.494	-167.597	0.002516	0.425559	-0.622561	-0.623872	-0.046732	44.2433	-0.621769	-1.659361E+8	2.816241E-10	NaN
699	1.000000	0.434884	7.37189e+06	-42139.1	1005.82	-29783.8	0.000000	0.000000	6.434920	-0.010301	NaN	0.000000	0.001534	0.001715	28.083	0.037521	0.001974	19.0081	28.6628	-164.982	0.036621	0.433568	-0.614547	-0.615862	-0.010301	19.0081	-0.614140	-1.303360E+8	7.903383E-11	NaN
699	1.000000	0.442899	7.37189e+06	-42139.1	1005.82	-29783.8	0.000000	0.000000	6.442935	0.017476	NaN	0.000000	0.001488	0.001698	28.0827	0.035754	0.001975	18.1033	-139.263	-166.112	0.016640	0.441536	-0.606532	-0.607894	0.017476	18.1033	-0.607256	-1.047989E+8	-1.667617E-10	NaN
699	1.000000	0.450905	7.37189e+06	-42139.1	1005.82	-29783.8	0.000000	0.000000	6.450942	0.041562	NaN	0.000000	0.001529	0.001679	28.0827	0.137750	0.002101	65.5528	-114.811	-162.205	-0.021722	0.449603	-0.598526	-0.599828	0.041562	65.5528	-0.599002	-8.066978E+7	-5.152073E-10	NaN
699	1.000000	0.458886	7.37189e+06	-42139.1	1005.82	-29783.8	0.000000	0.000000	6.458922	-0.000713	NaN	0.000000	0.001536	0.001705	28.083	0.101650	0.001883	53.9891	4.330216	-164.869	0.053754	0.457551	-0.590545	-0.591879	-0.000713	53.9891	-0.590535	-6.166538E+7	1.156580E-11	NaN
699	1.000000	0.466923	7.37189e+06	-42139.1	1005.82	-29783.8	0.000000	0.000000	6.466962	0.056180	NaN	0.000000	0.001545	0.001674	28.0829	0.069744	0.002044	34.1227	-156.235	-166.668	0.025655	0.465599	-0.582507	-0.583831	0.056180	34.1227	-0.583742	-4.970077E+7	-1.130374E-9	NaN
699	1.000000	0.474859	7.37189e+06	-42139.1	1005.82	-29783.8	0.000000	0.000000	6.474894	-0.038687	NaN	0.000000	0.001555	0.001697	28.0829	0.112812	0.002080	54.2427	-69.1773	-161.698	-0.006252	0.473567	-0.574571	-0.575864	-0.038687	54.2427	-0.574036	-3.650822E+7	1.059670E-9	NaN
699	1.000000	0.482895	7.37189e+06	-42139.1	1005.82	-29783.8	0.000000	0.000000	6.482930	-0.009314	NaN	0.000000	0.001530	0.001732	28.0827	0.008796	0.001845	4.766929	62.3372	-167.103	0.035164	0.481608	-0.566536	-0.567822	-0.009314	4.766929	-0.565070	-2.744723E+7	3.393590E-10	NaN
699	1.000000	0.490916	7.37189e+06	-42139.1	1005.82	-29783.8	0.000000	0.000000	6.490949	-0.050028	NaN	0.000000	0.001532	0.001737	28.0829	0.066719	0.001890	35.3053	168.398	-163.037	-0.073440	0.489630	-0.558515	-0.559801	-0.050028	35.3053	-0.557452	-2.153427E+7	2.323185E-9	NaN
699	1.000000	0.498899	7.37189e+06	-42139.1	1005.82	-29783.8	0.000000	0.000000	6.498938	0.073966	NaN	0.000000	0.001516	0.001717	28.0831	0.096019	0.001936	49.5977	-158.904	-163.201	0.058501	0.497594	-0.550531	-0.551837	0.073966	49.5977	-0.551650	-1.789799E+7	-4.132643E-9	NaN
699	1.000000	0.506921	7.37189e+06	-42139.1	1005.82	-29783.8	0.000000	0.000000	6.506956	-0.024139	NaN	0.000000	0.001550	0.001684	28.0832	0.110071	0.002012	54.6959	73.3636	-163.965	0.006027	0.505604	-0.542510	-0.543827	-0.024139	54.6959	-0.542179	-1.323040E+7	1.824532E-9	NaN
699	1.000000	0.514921	7.37189e+06	-42139.1	1005.82	-29783.8	0.000000	0.000000	6.514957	0.003646	NaN	0.000000	0.001540	0.001759	28.0833	0.066818	0.001942	34.403	6.377135	-165.999	0.005880	0.513618	-0.534509	-0.535812	0.003646	34.403	-0.534589	-1.038206E+7	-3.511495E-10	NaN
699	1.000000	0.522923	7.37189e+06	-42139.1	1005.82	-29783.8	0.000000	0.000000	6.522960	0.023829	NaN	0.000000	0.001542	0.001766	28.0841	0.050119	0.001994	25.1402	-133.111	-167.295	0.033136	0.521595	-0.526507	-0.527836	0.023829	25.1402	-0.527218	-8.20232e+06	-2.905126E-9	NaN
699	1.000000	0.530939	7.37189e+06	-42139.1	1005.82	-29783.8	0.000000	0.000000	6.530975	-0.016463	NaN	0.000000	0.001527	0.001770	28.0832	0.092758	0.002019	45.9408	121.35	-165.803	-0.011431	0.529589	-0.518491	-0.519842	-0.016463	45.9408	-0.518222	-6.14997e+06	2.676917E-9	NaN
699	1.000000	0.538902	7.37189e+06	-42139.1	1005.82	-29783.8	0.000000	0.000000	6.538940	0.042118	NaN	0.000000	0.001533	0.001758	28.0831	0.098818	0.001904	51.8902	27.4782	-163.804	-0.005626	0.537650	-0.510528	-0.511781	0.042118	51.8902	-0.511137	-4.90064e+06	-8.594462E-9	NaN
699	1.000000	0.546934	7.37189e+06	-42139.1	1005.82	-29783.8	0.000000	0.000000	6.546971	0.011821	NaN	0.000000	0.001546	0.001714	28.0819	0.098106	0.002031	48.2931	-73.9971	-164.907	0.092325	0.545606	-0.502496	-0.503824	0.011821	48.2931	-0.502680	-3.7359e+06	-3.164093E-9	NaN
699	1.000000	0.554924	7.37189e+06	-42139.1	1005.82	-29783.8	0.000000	0.000000	6.554960	0.001742	NaN	0.000000	0.001538	0.001759	28.0819	0.033310	0.001988	16.7586	-5.515700	-167.234	0.026578	0.553636	-0.494506	-0.495795	0.001742	16.7586	-0.494584	-2.88027e+06	-6.048399E-10	NaN
699	1.000000	0.562945	7.37189e+06	-42139.1	1005.82	-29783.8	0.000000	0.000000	6.562982	0.021645	NaN	0.000000	0.001576	0.001737	28.082	0.067922	0.001979	34.3239	133.491	-163.045	-0.055146	0.561630	-0.486485	-0.487801	0.021645	34.3239	-0.486958	-2.25359e+06	-9.604783E-9	NaN
699	1.000000	0.570951	7.37189e+06	-42139.1	1005.82	-29783.8	0.000000	0.000000	6.570987	-0.002484	NaN	0.000000	0.001557	0.001755	28.0821	0.079794	0.002021	39.4741	126.058	-161.675	0.026887	0.569604	-0.478480	-0.479827	-0.002484	39.4741	-0.478432	-1.7123e+06	1.450485E-9	NaN
699	1.000000	0.578920	7.37189e+06	-42139.1	1005.82	-29783.8	0.000000	0.000000	6.578956	-0.009940	NaN	0.000000	0.001586	0.001781	28.0819	0.025517	0.002029	12.5733	99.984	-164.44	0.003593	0.577633	-0.470510	-0.471798	-0.009940	12.5733	-0.469917	-1.30091e+06	7.641049E-9	NaN
699	1.000000	0.586895	7.37189e+06	-42139.1	1005.82	-29783.8	0.000000	0.000000	6.586935	0.107130	NaN	0.000000	0.001616	0.001764	28.0821	0.121816	0.001932	63.0435	127.547	-165.325	0.022628	0.585576	-0.462536	-0.463855	0.107130	63.0435	-0.463810	-1.06794e+06	-1.003152E-7	NaN
699	1.000000	0.594910	7.37189e+06	-42139.1	1005.82	-29783.8	0.000000	0.000000	6.594947	0.041618	NaN	0.000000	0.001573	0.001781	28.0818	0.072173	0.002025	35.6438	-173.7	-163.946	-0.025768	0.593590	-0.454521	-0.455841	0.041618	35.6438	-0.455397	-813388	-5.116659E-8	NaN
699	1.000000	0.602968	7.37189e+06	-42139.1	1005.82	-29783.8	0.000000	0.000000	6.603004	0.008680	NaN	0.000000	0.001582	0.001702	28.0819	0.073952	0.001992	37.1328	-57.0166	-162.702	0.057534	0.601665	-0.446462	-0.447766	0.008680	37.1328	-0.446638	-612319	-1.417561E-8	NaN
699	1.000000	0.610955	7.37189e+06	-42139.1	1005.82	-29783.8	0.000000	0.000000	6.610994	0.074374	NaN	0.000000	0.001581	0.001711	28.0818	0.081763	0.001858	44.0051	15.7369	-160.795	0.088197	0.609652	-0.438476	-0.439779	0.074374	44.0051	-0.439744	-489490	-1.519429E-7	NaN
699	1.000000	0.618953	7.37189e+06	-42139.1	1005.82	-29783.8	0.000000	0.000000	6.618989	-0.005918	NaN	0.000000	0.001569	0.001704	28.0816	0.030455	0.002005	15.1901	-148.279	-164.035	-0.077581	0.617630	-0.430477	-0.431801	-0.005918	15.1901	-0.430185	-358657	1.649983E-8	NaN
699	1.000000	0.626935	7.37189e+06	-42139.1	1005.82	-29783.8	0.000000	0.000000	6.626968	-0.060325	NaN	0.000000	0.001640	0.001719	28.0818	0.040356	0.002042	19.7673	-119.865	-163.488	-0.110155	0.625612	-0.422496	-0.423819	-0.060325	19.7673	-0.420207	-259032	2.328859E-7	NaN
699	1.000000	0.634932	7.37189e+06	-42139.1	1005.82	-29783.8	0.000000	0.000000	6.634969	0.016751	NaN	0.000000	0.001636	0.001718	28.0817	0.042877	0.002072	20.6923	159.465	-168.202	-0.000947	0.633662	-0.414499	-0.415769	0.016751	20.6923	-0.415106	-219258	-7.639767E-8	NaN
699	1.000000	0.642969	7.37189e+06	-42139.1	1005.82	-29783.8	0.000000	0.000000	6.643005	0.012141	NaN	0.000000	0.001665	0.001730	28.0822	0.066545	0.002073	32.099	162.005	-165.74	-0.004875	0.641672	-0.406462	-0.407758	0.012141	32.099	-0.406746	-166764	-7.280485E-8	NaN
699	1.000000	0.650934	7.37189e+06	-42139.1	1005.82	-29783.8	0.000000	0.000000	6.650970	0.008823	NaN	0.000000	0.001602	0.001708	28.0818	0.116996	0.002061	56.7575	-98.124	-164.596	0.087744	0.649581	-0.398497	-0.399849	0.008823	56.7575	-0.398613	-127707	-6.909079E-8	NaN
699	1.000000	0.658942	7.37189e+06	-42139.1	1005.82	-29783.8	0.000000	0.000000	6.658979	0.025931	NaN	0.000000	0.001578	0.001715	28.0817	0.077712	0.001983	39.1899	-97.034	-166.152	0.033366	0.657646	-0.390489	-0.391785	0.025931	39.1899	-0.390985	-99370.7	-2.609485E-7	NaN
699	1.000000	0.666969	7.37189e+06	-42139.1	1005.82	-29783.8	0.000000	0.000000	6.667005	0.004055	NaN	0.000000	0.001586	0.001710	28.0821	0.061585	0.002010	30.6453	164.762	-167.159	-0.058021	0.665697	-0.382462	-0.383733	0.004055	30.6453	-0.382561	-75271.5	-5.387290E-8	NaN
699	1.000000	0.674990	7.37189e+06	-42139.1	1005.82	-29783.8	0.000000	0.000000	6.675026	0.007316	NaN	0.000000	0.001597	0.001706	28.0819	0.107103	0.002017	53.0894	-69.2351	-166.996	0.052569	0.673700	-0.374441	-0.375730	0.007316	53.0894	-0.374544	-57745.4	-1.266900E-7	NaN
699	1.000000	0.682985	7.37189e+06	-42139.1	1005.82	-29783.8	0.000000	0.000000	6.683019	-0.028962	NaN	0.000000	0.001584	0.001736	28.0834	0.068192	0.001963	34.735	-93.8462	-164.604	-0.028589	0.681701	-0.366446	-0.367730	-0.028962	34.735	-0.365821	-43240.9	6.697807E-7	NaN
699	1.000000	0.690990	7.37189e+06	-42139.1	1005.82	-29783.8	0.000000	0.000000	6.691025	-0.036376	NaN	0.000000	0.001576	0.001727	28.0833	0.046359	0.001923	24.1093	63.0505	-162.843	0.038946	0.689654	-0.358440	-0.359776	-0.036376	24.1093	-0.357309	-32577.8	1.116595E-6	NaN
699	1.000000	0.698974	7.37189e+06	-42139.1	1005.82	-29783.8	0.000000	0.000000	6.699009	-0.019241	NaN	0.000000	0.001571	0.001726	28.0832	0.097048	0.002111	45.9826	-136.949	-165.874	0.019065	0.697673	-0.350457	-0.351757	-0.019241	45.9826	-0.350143	-25649.7	7.501308E-7	NaN
699	1.000000	0.706964	7.37189e+06	-42139.1	1005.82	-29783.8	0.000000	0.000000	6.706999	-0.015146	NaN	0.000000	0.001608	0.001719	28.0834	0.032285	0.002094	15.4165	-169.337	-166.269	-0.011504	0.705757	-0.342467	-0.343674	-0.015146	15.4165	-0.341730	-19353.6	7.825714E-7	NaN
699	1.000000	0.714994	7.37189e+06	-42139.1	1005.82	-29783.8	0.000000	0.000000	6.715032	0.068023	NaN	0.000000	0.001608	0.001689	28.0835	0.062040	0.001997	31.0701	-88.9217	-165.013	0.023332	0.713696	-0.334437	-0.335735	0.068023	31.0701	-0.336079	-16008.5	-4.249160E-6	NaN
699	1.000000	0.723009	7.37189e+06	-42139.1	1005.82	-29783.8	0.000000	0.000000	6.723045	0.001798	NaN	0.000000	0.001594	0.001709	28.0836	0.027336	0.002108	12.9671	-30.912	-165.066	0.074031	0.721659	-0.326422	-0.327771	0.001798	12.9671	-0.326526	-11601.9	-1.549725E-7	NaN
699	1.000000	0.731000	7.37189e+06	-42139.1	1005.82	-29783.8	0.000000	0.000000	6.731035	-0.009825	NaN	0.000000	0.001627	0.001720	28.0834	0.040391	0.002044	19.7594	168.709	-166.516	0.052295	0.729701	-0.318431	-0.319730	-0.009825	19.7594	-0.318058	-8710.42	1.127960E-6	NaN
699	1.000000	0.738997	7.37189e+06	-42139.1	1005.82	-29783.8	0.000000	0.000000	6.739030	-0.071886	NaN	0.000000	0.001593	0.001703	28.0834	0.065785	0.001920	34.2568	167.358	-165.643	-0.029497	0.737713	-0.310433	-0.311718	-0.071886	34.2568	-0.308859	-6370.45	1.128431E-5	NaN
699	1.000000	0.747003	7.37189e+06	-42139.1	1005.82	-29783.8	0.000000	0.000000	6.747036	-0.072065	NaN	0.000000	0.001601	0.001738	28.0834	0.080291	0.001917	41.8872	1.916652	-166.924	-0.144219	0.745707	-0.302428	-0.303724	-0.072065	41.8872	-0.301137	-4892.81	1.472881E-5	NaN
699	1.000000	0.754994	7.37189e+06	-42139.1	1005.82	-29783.8	0.000000	0.000000	6.755030	-0.004697	NaN	0.000000	0.001603	0.001720	28.0831	0.078669	0.002106	37.3474	131.839	-164.913	-0.057884	0.753686	-0.294437	-0.295744	-0.004697	37.3474	-0.294342	-3874.96	1.212266E-6	NaN
699	1.000000	0.763003	7.37189e+06	-42139.1	1005.82	-29783.8	0.000000	0.000000	6.763043	0.090523	NaN	0.000000	0.001631	0.001716	28.0834	0.066122	0.001924	34.3674	-179.928	-164.703	0.047995	0.761683	-0.286427	-0.287748	0.090523	34.3674	-0.288403	-3157.62	-2.866792E-5	NaN
699	1.000000	0.771012	7.37189e+06	-42139.1	1005.82	-29783.8	0.000000	0.000000	6.771048	-0.000890	NaN	0.000000	0.001609	0.001796	28.0832	0.017082	0.001927	8.864453	125.137	-164.529	-0.033897	0.769669	-0.278419	-0.279761	-0.000890	8.864453	-0.278344	-2228.27	3.994249E-7	NaN
699	1.000000	0.779010	7.37189e+06	-42139.1	1005.82	-29783.8	0.000000	0.000000	6.779045	-0.005038	NaN	0.000000	0.001586	0.001799	28.0834	0.056296	0.002047	27.5069	-82.9903	-161.988	-0.009156	0.777708	-0.270421	-0.271723	-0.005038	27.5069	-0.270284	-1682.12	2.994835E-6	NaN
699	1.000000	0.787020	7.37189e+06	-42139.1	1005.82	-29783.8	0.000000	0.000000	6.787056	0.010194	NaN	0.000000	0.001617	0.001757	28.0835	0.069381	0.001994	34.7977	-119.414	-163.852	-0.052640	0.785709	-0.262411	-0.263721	0.010194	34.7977	-0.262631	-1285.86	-7.927707E-6	NaN
699	1.000000	0.795022	7.37189e+06	-42139.1	1005.82	-29783.8	0.000000	0.000000	6.795058	0.004756	NaN	0.000000	0.001630	0.001747	28.0832	0.087929	0.001922	45.7384	-3.878883	-164.107	-0.053403	0.793765	-0.254409	-0.255666	0.004756	45.7384	-0.254487	-964.294	-4.931859E-6	NaN
699	1.000000	0.803052	7.37189e+06	-42139.1	1005.82	-29783.8	0.000000	0.000000	6.803087	-0.017254	NaN	0.000000	0.001607	0.001734	28.083	0.109941	0.002060	53.3741	41.0719	-168.585	0.055534	0.801694	-0.246379	-0.247737	-0.017254	53.3741	-0.246136	-716.306	2.408798E-5	NaN
699	1.000000	0.811037	7.37189e+06	-42139.1	1005.82	-29783.8	0.000000	0.000000	6.811072	-0.025352	NaN	0.000000	0.001600	0.001751	28.0832	0.059381	0.001971	30.1239	-121.294	-169.753	-0.039412	0.809756	-0.238394	-0.239675	-0.025352	30.1239	-0.237762	-530.35	4.780228E-5	NaN
699	1.000000	0.819036	7.37189e+06	-42139.1	1005.82	-29783.8	0.000000	0.000000	6.819071	-0.026507	NaN	0.000000	0.001598	0.001691	28.0819	0.093054	0.002066	45.0325	-17.198	-167.193	0.028250	0.817716	-0.230395	-0.231715	-0.026507	45.0325	-0.229953	-399.741	6.630972E-5	NaN
699	1.000000	0.826994	7.37189e+06	-42139.1	1005.82	-29783.8	0.000000	0.000000	6.827030	-0.003192	NaN	0.000000	0.001590	0.001678	28.0822	0.033631	0.002006	16.7634	-35.7276	-164.343	-0.068113	0.825766	-0.222437	-0.223665	-0.003192	16.7634	-0.222294	-302.191	1.056355E-5	NaN
699	1.000000	0.835010	7.37189e+06	-42139.1	1005.82	-29783.8	0.000000	0.000000	6.835047	0.040392	NaN	0.000000	0.001565	0.001706	28.0821	0.095345	0.001944	49.0375	118.068	-166.729	0.069448	0.833772	-0.214421	-0.215659	0.040392	49.0375	-0.215039	-231.281	-0.000175	NaN
699	1.000000	0.843012	7.37189e+06	-42139.1	1005.82	-29783.8	0.000000	0.000000	6.843045	-0.075829	NaN	0.000000	0.001578	0.001733	28.0819	0.069294	0.001982	34.9578	-154.379	-165.282	-0.084985	0.841772	-0.206419	-0.207658	-0.075829	34.9578	-0.204792	-157.819	0.000480	NaN
699	1.000000	0.851062	7.37189e+06	-42139.1	1005.82	-29783.8	0.000000	0.000000	6.851097	-0.016455	NaN	0.000000	0.001593	0.001742	28.0821	0.071252	0.002100	33.9291	-24.0793	-164.468	0.023517	0.849734	-0.198369	-0.199697	-0.016455	33.9291	-0.198005	-122.142	0.000135	NaN
699	1.000000	0.859048	7.37189e+06	-42139.1	1005.82	-29783.8	0.000000	0.000000	6.859083	-0.018093	NaN	0.000000	0.001664	0.001712	28.0819	0.093553	0.001977	47.3314	10.5172	-164.775	0.061709	0.857769	-0.190383	-0.191662	-0.018093	47.3314	-0.190096	-90.2879	0.000200	NaN
699	1.000000	0.867067	7.37189e+06	-42139.1	1005.82	-29783.8	0.000000	0.000000	6.867101	-0.030670	NaN	0.000000	0.001642	0.001754	28.0821	0.026634	0.001789	14.8869	-111.219	-165.78	-0.010603	0.865784	-0.182364	-0.183646	-0.030670	14.8869	-0.180819	-63.0064	0.000487	NaN
699	1.000000	0.875050	7.37189e+06	-42139.1	1005.82	-29783.8	0.000000	0.000000	6.875085	-0.027465	NaN	0.000000	0.001625	0.001709	28.0817	0.076777	0.001887	40.6938	-17.0188	-161.081	-0.067118	0.873749	-0.174380	-0.175682	-0.027465	40.6938	-0.173874	-47.9304	0.000573	NaN
699	1.000000	0.883051	7.37189e+06	-42139.1	1005.82	-29783.8	0.000000	0.000000	6.883088	0.025240	NaN	0.000000	0.001641	0.001745	28.0818	0.056298	0.002014	27.9562	67.3245	-166.746	-0.046945	0.881769	-0.166379	-0.167662	0.025240	27.9562	-0.167056	-36.5034	-0.000691	NaN
699	1.000000	0.891068	7.37189e+06	-42139.1	1005.82	-29783.8	0.000000	0.000000	6.891102	-0.042721	NaN	0.000000	0.001583	0.001712	28.0819	0.095786	0.001943	49.2883	-126.773	-165.02	0.029008	0.889702	-0.158362	-0.159729	-0.042721	49.2883	-0.157712	-24.9585	0.001712	NaN
699	1.000000	0.899082	7.37189e+06	-42139.1	1005.82	-29783.8	0.000000	0.000000	6.899119	0.025058	NaN	0.000000	0.001597	0.001720	28.0818	0.141193	0.002056	68.6875	60.2906	-164.116	0.031013	0.897749	-0.150349	-0.151682	0.025058	68.6875	-0.150622	-18.5927	-0.001348	NaN
699	1.000000	0.907044	7.37189e+06	-42139.1	1005.82	-29783.8	0.000000	0.000000	6.907083	0.073234	NaN	0.000000	0.001585	0.001736	28.0818	0.096036	0.002012	47.7368	131.694	-165.145	0.076534	0.905732	-0.142387	-0.143699	0.073234	47.7368	-0.143537	-13.7737	-0.005317	NaN
699	1.000000	0.915073	7.37189e+06	-42139.1	1005.82	-29783.8	0.000000	0.000000	6.915110	0.013280	NaN	0.000000	0.001635	0.001708	28.0818	0.126615	0.002024	62.5538	34.4657	-163.9	-0.027007	0.913780	-0.134357	-0.135651	0.013280	62.5538	-0.134517	-9.312269	-0.001426	NaN
699	1.000000	0.923077	7.37189e+06	-42139.1	1005.82	-29783.8	0.000000	0.000000	6.923114	0.021365	NaN	0.000000	0.001614	0.001741	28.0819	0.075540	0.001982	38.1181	-163.722	-165.374	0.025828	0.921757	-0.126354	-0.127674	0.021365	38.1181	-0.126774	-6.591417	-0.003241	NaN
699	1.000000	0.931100	7.37189e+06	-42139.1	1005.82	-29783.8	0.000000	0.000000	6.931135	-0.008368	NaN	0.000000	0.001617	0.001687	28.0819	0.100087	0.001946	51.4399	44.1604	-163.118	-0.106828	0.929739	-0.118331	-0.119692	-0.008368	51.4399	-0.118209	-4.444302	0.001883	NaN
699	1.000000	0.939070	7.37189e+06	-42139.1	1005.82	-29783.8	0.000000	0.000000	6.939108	0.039820	NaN	0.000000	0.001642	0.001701	28.0819	0.027619	0.001910	14.4637	100.618	-167.118	0.105604	0.937710	-0.110360	-0.111721	0.039820	14.4637	-0.112425	-3.378519	-0.011786	NaN
699	1.000000	0.947067	7.37189e+06	-42139.1	1005.82	-29783.8	0.000000	0.000000	6.947102	-0.023875	NaN	0.000000	0.001579	0.001737	28.082	0.083423	0.001951	42.762	51.4364	-167.315	0.015282	0.945753	-0.102364	-0.103678	-0.023875	42.762	-0.101945	-2.016814	0.011838	NaN
699	1.000000	0.955086	7.37189e+06	-42139.1	1005.82	-29783.8	0.000000	0.000000	6.955120	-0.044979	NaN	0.000000	0.001588	0.001691	28.0834	0.047845	0.002135	22.4068	-121.156	-165.211	-0.111951	0.953759	-0.094345	-0.095672	-0.044979	22.4068	-0.092840	-1.258583	0.035738	NaN
699	1.000000	0.963075	7.37189e+06	-42139.1	1005.82	-29783.8	0.000000	0.000000	6.963116	0.104375	NaN	0.000000	0.001582	0.001701	28.0833	0.082313	0.001951	42.1951	163.41	-165.075	0.064852	0.961757	-0.086355	-0.087674	0.104375	42.1951	-0.088210	-0.980845	-0.106413	NaN
699	1.000000	0.971094	7.37189e+06	-42139.1	1005.82	-29783.8	0.000000	0.000000	6.971128	-0.047238	NaN	0.000000	0.001604	0.001719	28.0833	0.054594	0.001914	28.529	121.053	-165.877	0.014405	0.969816	-0.078336	-0.079615	-0.047238	28.529	-0.077095	-0.522778	0.090359	NaN
699	1.000000	0.979111	7.37189e+06	-42139.1	1005.82	-29783.8	0.000000	0.000000	6.979145	-0.043264	NaN	0.000000	0.001586	0.001738	28.0831	0.069555	0.001997	34.8379	-4.885203	-167.512	-0.013718	0.977786	-0.070319	-0.071645	-0.043264	34.8379	-0.069388	-0.328445	0.131725	NaN
699	1.000000	0.987143	7.37189e+06	-42139.1	1005.82	-29783.8	0.000000	0.000000	6.987181	0.053415	NaN	0.000000	0.001606	0.001721	28.0832	0.082475	0.001945	42.401	18.0983	-164.051	0.025922	0.985790	-0.062288	-0.063640	0.053415	42.401	-0.063232	-0.222455	-0.240117	NaN
699	1.000000	0.995122	7.37189e+06	-42139.1	1005.82	-29783.8	0.000000	0.000000	6.995157	-0.025268	NaN	0.000000	0.001605	0.001719	28.0835	0.046958	0.002140	21.9393	-115.939	-161.434	0.045610	0.993773	-0.054309	-0.055658	-0.025268	21.9393	-0.053445	-0.115796	0.218209	NaN
699	1.000000	1.003097	7.37189e+06	-42139.1	1005.82	-29783.8	0.000000	0.000000	7.003130	-0.053754	NaN	0.000000	0.001602	0.001711	28.0835	0.133425	0.002071	64.4227	-12.9264	-164.356	0.022017	1.001759	-0.046334	-0.047672	-0.053754	64.4227	-0.045708	-0.067554	0.795719	NaN
699	1.000000	1.011112	7.37189e+06	-42139.1	1005.82	-29783.8	0.000000	0.000000	7.011148	0.024874	NaN	0.000000	0.001601	0.001714	28.0831	0.062169	0.001980	31.4005	49.7888	-164.871	-0.000335	1.009775	-0.038319	-0.039655	0.024874	31.4005	-0.038913	-0.041920	-0.593373	NaN
699	1.000000	1.019134	7.37189e+06	-42139.1	1005.82	-29783.8	0.000000	0.000000	7.019170	0.000990	NaN	0.000000	0.001615	0.001717	28.0834	0.018128	0.002078	8.724320	-177.262	-164.859	0.055631	1.017792	-0.030297	-0.031639	0.000990	8.724320	-0.030382	-0.023585	-0.041983	NaN
699	1.000000	1.027124	7.37189e+06	-42139.1	1005.82	-29783.8	0.000000	0.000000	7.027162	0.052592	NaN	0.000000	0.001698	0.001750	28.0831	0.062704	0.001915	32.7354	17.8624	-168.516	0.032677	1.025820	-0.022307	-0.023611	0.052592	32.7354	-0.023512	-0.015437	-3.406948	NaN
699	1.000000	1.035128	7.37189e+06	-42139.1	1005.82	-29783.8	0.000000	0.000000	7.035166	0.035813	NaN	0.000000	0.001678	0.001751	28.0834	0.100416	0.001956	51.3396	3.832165	-167.137	0.085121	1.033779	-0.014302	-0.015651	0.035813	51.3396	-0.014825	-0.009171	-3.905003	NaN
699	1.000000	1.043123	7.37189e+06	-42139.1	1005.82	-29783.8	0.000000	0.000000	7.043160	0.026628	NaN	0.000000	0.001695	0.001746	28.0833	0.174299	0.002100	83.0008	6.219921	-164.827	0.005484	1.041852	-0.006307	-0.007579	0.026628	83.0008	-0.006548	-0.004369	-6.094671	NaN
699	1.000000	1.051099	7.37189e+06	-42139.1	1005.82	-29783.8	0.000000	0.000000	7.051388	6.148163	NaN	0.000000	0.001710	0.001731	28.0832	7.247755	0.001860	3896.77	12.995	-169.457	4.705525	1.049820	0.001669	0.000389	6.148163	3896.77	0.000485	0.000366	16793.3	186069
699	2.000000	1.054724	7.37189e+06	-42139.1	1005.82	-29783.8	0.000000	0.000000	7.055135	9.125785	NaN	0.000000	0.001715	0.001721	28.0834	10.1121	0.001711	5908.99	8.313429	-171.593	9.158694	1.054462	0.005293	0.005031	9.125785	5908.99	0.004135	0.003357	2718.04	93170.7
699	2.000000	1.056720	7.37189e+06	-42139.1	1005.82	-29783.8	0.000000	0.000000	7.057301	13.2731	NaN	0.000000	0.001711	0.001735	28.0831	12.2611	0.001635	7499.99	1.965576	-168.516	12.4646	1.056378	0.007289	0.006947	13.2731	7499.99	0.005962	0.005028	2639.67	96632.4
699	2.000000	1.058620	7.37189e+06	-42139.1	1005.82	-29783.8	0.000000	0.000000	7.059359	17.105	NaN	0.000000	0.001711	0.001759	28.0841	15.065	0.001654	9105.75	9.462507	-177.823	15.8721	1.058330	0.009189	0.008900	17.105	9105.75	0.007780	0.006817	2509.04	100758
699	2.000000	1.060679	7.37189e+06	-42139.1	1005.82	-29783.8	0.000000	0.000000	7.061581	21.0752	NaN	0.000000	0.001597	0.001736	28.083	17.356	0.001715	10123	2.454788	-171.657	21.6047	1.060317	0.011248	0.010886	21.0752	10123	0.009687	0.008836	2385.27	98393
699	2.000000	1.062636	7.37189e+06	-42139.1	1005.82	-29783.8	0.000000	0.000000	7.063608	22.7772	NaN	0.000000	0.001641	0.001735	28.0821	19.2183	0.001705	11269.1	5.320295	-175.222	22.3698	1.062356	0.013206	0.012925	22.7772	11269.1	0.011690	0.011120	2048.22	97633.6
699	2.000000	1.064588	7.37189e+06	-42139.1	1005.82	-29783.8	0.000000	0.000000	7.065848	29.7853	NaN	0.000000	0.001652	0.001753	28.0818	21.4792	0.001771	12130.8	3.856230	-175.207	28.6411	1.064333	0.015158	0.014902	29.7853	12130.8	0.013316	0.013105	2272.82	96815
699	2.000000	1.066668	7.37189e+06	-42139.1	1005.82	-29783.8	0.000000	0.000000	7.068061	33.0137	NaN	0.000000	0.001657	0.001694	28.0818	23.4798	0.001874	12529.8	3.081014	-173.256	31.6767	1.066305	0.017237	0.016875	33.0137	12529.8	0.015261	0.015635	2111.5	91551.3
699	2.000000	1.068629	7.37189e+06	-42139.1	1005.82	-29783.8	0.000000	0.000000	7.070153	36.2149	NaN	0.000000	0.001664	0.001688	28.0831	25.0556	0.001712	14636	2.574465	-175.214	36.0738	1.068311	0.019198	0.018880	36.2149	14636	0.017342	0.018537	1953.69	98215.1
699	2.000000	1.070583	7.37189e+06	-42139.1	1005.82	-29783.8	0.000000	0.000000	7.072234	39.2863	NaN	0.000000	0.001623	0.001700	28.0819	27.9508	0.001820	15354	5.102933	-179.771	37.696	1.070394	0.021153	0.020963	39.2863	15354	0.019233	0.021352	1839.93	96000.8
699	2.000000	1.072660	7.37189e+06	-42139.1	1005.82	-29783.8	0.000000	0.000000	7.074710	48.9979	NaN	0.000000	0.001622	0.001707	28.0819	29.02	0.001874	15481.9	6.529680	-179.546	49.9387	1.072380	0.023230	0.022949	48.9979	15481.9	0.020856	0.023905	2049.66	91485.1
699	2.000000	1.074611	7.37189e+06	-42139.1	1005.82	-29783.8	0.000000	0.000000	7.076857	53.7775	NaN	0.000000	0.001650	0.001714	28.0819	32.3025	0.001909	16922.2	9.619844	176.122	53.0975	1.074336	0.025180	0.024905	53.7775	16922.2	0.022797	0.027129	1982.29	93867.1
699	2.000000	1.076642	7.37189e+06	-42139.1	1005.82	-29783.8	0.000000	0.000000	7.079030	57.2375	NaN	0.000000	0.001656	0.001721	28.0818	32.6151	0.001864	17498.1	5.992217	-179.337	57.407	1.076292	0.027211	0.026861	57.2375	17498.1	0.024758	0.030576	1871.95	91426.4
699	2.000000	1.078616	7.37189e+06	-42139.1	1005.82	-29783.8	0.000000	0.000000	7.081341	65.424	NaN	0.000000	0.001652	0.001711	28.0823	34.6387	0.001839	18835.4	6.309385	179.241	66.4624	1.078269	0.029185	0.028838	65.424	18835.4	0.026580	0.033953	1926.88	93391.3
699	2.000000	1.080618	7.37189e+06	-42139.1	1005.82	-29783.8	0.000000	0.000000	7.083633	72.498	NaN	0.000000	0.001650	0.001700	28.0821	36.2	0.001738	20822.7	5.317826	178.022	71.5941	1.080285	0.031187	0.030854	72.498	20822.7	0.028576	0.037844	1915.72	97794
699	2.000000	1.082585	7.37189e+06	-42139.1	1005.82	-29783.8	0.000000	0.000000	7.086018	82.6745	NaN	0.000000	0.001655	0.001723	28.082	38.4387	0.001758	21863.3	11.3779	172.752	81.7685	1.082196	0.033154	0.032766	82.6745	21863.3	0.030318	0.041405	1996.71	98165.9
699	2.000000	1.084608	7.37189e+06	-42139.1	1005.82	-29783.8	0.000000	0.000000	7.088511	94.091	NaN	0.000000	0.001632	0.001714	28.082	39.1725	0.001732	22612.6	5.638359	179.048	94.1743	1.084262	0.035177	0.034831	94.091	22612.6	0.032057	0.045115	2085.6	97266.9
699	2.000000	1.086604	7.37189e+06	-42139.1	1005.82	-29783.8	0.000000	0.000000	7.090761	100.287	NaN	0.000000	0.001675	0.001702	28.0818	41.7047	0.001639	25441.1	1.234035	-178.309	98.8512	1.086244	0.037173	0.036814	100.287	25441.1	0.034216	0.049937	2008.27	104015
699	2.000000	1.088594	7.37189e+06	-42139.1	1005.82	-29783.8	0.000000	0.000000	7.093258	112.61	NaN	0.000000	0.001614	0.001680	28.0828	44.0136	0.001729	25459.6	6.297114	177.241	113.404	1.088221	0.039163	0.038790	112.61	25459.6	0.035846	0.053734	2095.7	100346
699	2.000000	1.090606	7.37189e+06	-42139.1	1005.82	-29783.8	0.000000	0.000000	7.095653	121.938	NaN	0.000000	0.001601	0.001753	28.0821	47.2277	0.001819	25960.9	3.509579	178.829	121.119	1.090251	0.041175	0.040820	121.938	25960.9	0.037652	0.058102	2098.67	98400
699	2.000000	1.092557	7.37189e+06	-42139.1	1005.82	-29783.8	0.000000	0.000000	7.097938	130.056	NaN	0.000000	0.001574	0.001768	28.0822	47.3661	0.001692	27990	2.891274	178.985	128.571	1.092247	0.043126	0.042816	130.056	27990	0.039641	0.063104	2060.97	101800
699	2.000000	1.094568	7.37189e+06	-42139.1	1005.82	-29783.8	0.000000	0.000000	7.100386	140.692	NaN	0.000000	0.001636	0.001742	28.0819	50.069	0.001647	30403.8	3.875912	177.567	139.669	1.094226	0.045137	0.044795	140.692	30403.8	0.041666	0.068405	2056.74	106208
699	2.000000	1.096639	7.37189e+06	-42139.1	1005.82	-29783.8	0.000000	0.000000	7.102688	146.294	NaN	0.000000	0.001661	0.001722	28.0827	52.3614	0.001838	28488.8	3.343427	178.747	144.643	1.096196	0.047209	0.046765	146.294	28488.8	0.043357	0.072992	2004.24	96340.4
699	2.000000	1.098539	7.37189e+06	-42139.1	1005.82	-29783.8	0.000000	0.000000	7.105151	160.007	NaN	0.000000	0.001628	0.001714	28.0829	53.8838	0.001735	31065.7	1.457360	178.698	156.389	1.098180	0.049108	0.048749	160.007	31065.7	0.045245	0.078285	2043.91	101441
699	2.000000	1.100576	7.37189e+06	-42139.1	1005.82	-29783.8	0.000000	0.000000	7.107585	169.658	NaN	0.000000	0.001608	0.001711	28.0834	56.7413	0.001702	33331.9	1.618351	178.806	168.59	1.100213	0.051145	0.050783	169.658	33331.9	0.047328	0.084333	2011.77	104866
699	2.000000	1.102574	7.37189e+06	-42139.1	1005.82	-29783.8	0.000000	0.000000	7.109904	177.476	NaN	0.000000	0.001618	0.001733	28.0835	57.9754	0.001702	34058.2	2.645232	177.408	178.718	1.102246	0.053143	0.052815	177.476	34058.2	0.049235	0.090064	1970.55	103686
699	2.000000	1.104469	7.37189e+06	-42139.1	1005.82	-29783.8	0.000000	0.000000	7.112179	186.73	NaN	0.000000	0.001651	0.001702	28.0833	61.4203	0.001866	32920.8	5.800343	174.421	181.052	1.104114	0.055038	0.054683	186.73	32920.8	0.050784	0.094852	1968.66	97661.1
699	2.000000	1.106587	7.37189e+06	-42139.1	1005.82	-29783.8	0.000000	0.000000	7.114715	196.879	NaN	0.000000	0.001632	0.001729	28.0832	63.1351	0.001874	33685.1	5.985645	174.744	196.284	1.106238	0.057157	0.056807	196.879	33685.1	0.052773	0.101177	1945.89	96754.3
699	2.000000	1.108549	7.37189e+06	-42139.1	1005.82	-29783.8	0.000000	0.000000	7.117172	208.936	NaN	0.000000	0.001627	0.001707	28.0832	64.5058	0.001859	34697.1	5.615551	174.632	208.656	1.108210	0.059118	0.058780	208.936	34697.1	0.054602	0.107167	1949.64	96835.8
699	2.000000	1.110518	7.37189e+06	-42139.1	1005.82	-29783.8	0.000000	0.000000	7.119502	217.716	NaN	0.000000	0.001609	0.001775	28.0831	65.4832	0.001773	36927.2	1.484008	177.921	215.143	1.110213	0.061087	0.060782	217.716	36927.2	0.056666	0.114123	1907.72	99869.4
699	2.000000	1.112541	7.37189e+06	-42139.1	1005.82	-29783.8	0.000000	0.000000	7.121671	221.267	NaN	0.000000	0.001588	0.001735	28.0834	66.4285	0.001803	36833.4	2.512605	176.698	220.745	1.112387	0.063110	0.062956	221.267	36833.4	0.058605	0.120852	1830.89	96802.7
699	2.000000	1.114463	7.37189e+06	-42139.1	1005.82	-29783.8	0.000000	0.000000	7.124516	243.724	NaN	0.000000	0.001624	0.001736	28.083	68.2462	0.001701	40109.5	2.467121	176.182	237.433	1.114170	0.065033	0.064739	243.724	40109.5	0.060475	0.127518	1911.29	102621
699	2.000000	1.116630	7.37189e+06	-42139.1	1005.82	-29783.8	0.000000	0.000000	7.127082	253.437	NaN	0.000000	0.001633	0.001699	28.0832	71.2773	0.001840	38739.8	5.035577	175.069	257.379	1.116266	0.067200	0.066835	253.437	38739.8	0.062293	0.134159	1889.08	96631.9
699	2.000000	1.118565	7.37189e+06	-42139.1	1005.82	-29783.8	0.000000	0.000000	7.129162	256.963	NaN	0.000000	0.001597	0.001700	28.0834	72.6831	0.001808	40210.4	5.523374	172.683	254.889	1.118402	0.069134	0.068971	256.963	40210.4	0.064341	0.141834	1811.72	97548.7
699	2.000000	1.120521	7.37189e+06	-42139.1	1005.82	-29783.8	0.000000	0.000000	7.131997	278.364	NaN	0.000000	0.001599	0.001686	28.0831	74.7842	0.001936	38631.8	3.848660	175.582	275.285	1.120238	0.071090	0.070808	278.364	38631.8	0.065686	0.146983	1893.85	92062.8
699	2.000000	1.122555	7.37189e+06	-42139.1	1005.82	-29783.8	0.000000	0.000000	7.134482	289.315	NaN	0.000000	0.001601	0.001714	28.0832	74.8945	0.001875	39946.7	1.501597	177.62	289.259	1.122232	0.073124	0.072802	289.315	39946.7	0.067693	0.154828	1868.62	92753.2
699	2.000000	1.124493	7.37189e+06	-42139.1	1005.82	-29783.8	0.000000	0.000000	7.136835	299.411	NaN	0.000000	0.001618	0.001696	28.0833	78.1534	0.001748	44714.8	3.243440	174.688	296.193	1.124213	0.075063	0.074783	299.411	44714.8	0.070041	0.164253	1822.86	100802
699	2.000000	1.126620	7.37189e+06	-42139.1	1005.82	-29783.8	0.000000	0.000000	7.139358	309.081	NaN	0.000000	0.001623	0.001667	28.0834	80.0037	0.001797	44519.5	0.904373	177.625	310.905	1.126228	0.077189	0.076797	309.081	44519.5	0.071982	0.172244	1794.44	98005.9
699	2.000000	1.128576	7.37189e+06	-42139.1	1005.82	-29783.8	0.000000	0.000000	7.141898	323.291	NaN	0.000000	0.001589	0.001742	28.0832	81.7794	0.001818	44977.6	4.195155	174.067	324.022	1.128223	0.079145	0.078792	323.291	44977.6	0.073754	0.179693	1799.13	96940.2
699	2.000000	1.130441	7.37189e+06	-42139.1	1005.82	-29783.8	0.000000	0.000000	7.144507	341.385	NaN	0.000000	0.001575	0.001725	28.0827	83.7628	0.001727	48497.3	2.896133	174.479	335.931	1.130207	0.081010	0.080776	341.385	48497.3	0.075731	0.188178	1814.16	102142
699	2.000000	1.132586	7.37189e+06	-42139.1	1005.82	-29783.8	0.000000	0.000000	7.147307	357.309	NaN	0.000000	0.001633	0.001702	28.0819	84.3795	0.001779	47441.6	4.495346	173.485	358.292	1.132247	0.083156	0.082816	357.309	47441.6	0.077507	0.195959	1823.39	97915.1
699	2.000000	1.134432	7.37189e+06	-42139.1	1005.82	-29783.8	0.000000	0.000000	7.150086	380.001	NaN	0.000000	0.001634	0.001717	28.0818	86.5226	0.001797	48150.2	5.877163	171.874	374.118	1.134167	0.085002	0.084736	380.001	48150.2	0.079083	0.202985	1872.06	97642.5
699	2.000000	1.136506	7.37189e+06	-42139.1	1005.82	-29783.8	0.000000	0.000000	7.152551	389.534	NaN	0.000000	0.001596	0.001690	28.0819	87.5166	0.001729	50615.6	0.380434	177.459	384.946	1.136136	0.087075	0.086705	389.534	50615.6	0.081303	0.213081	1828.1	100181
699	2.000000	1.138493	7.37189e+06	-42139.1	1005.82	-29783.8	0.000000	0.000000	7.155080	402.72	NaN	0.000000	0.001595	0.001722	28.0819	90.8392	0.001833	49566	8.777880	168.111	401.023	1.138226	0.089062	0.088795	402.72	49566	0.082969	0.220807	1823.86	96372.1
699	2.000000	1.140479	7.37189e+06	-42139.1	1005.82	-29783.8	0.000000	0.000000	7.157369	410.088	NaN	0.000000	0.001599	0.001709	28.0822	93.3055	0.001875	49773.1	4.137843	173.057	404.727	1.140257	0.091048	0.090826	410.088	49773.1	0.084869	0.229777	1784.72	94867.1
699	2.000000	1.142640	7.37189e+06	-42139.1	1005.82	-29783.8	0.000000	0.000000	7.160306	428.967	NaN	0.000000	0.001603	0.001718	28.0822	95.4237	0.001851	51564.4	8.487949	168.736	437.599	1.142217	0.093209	0.092786	428.967	51564.4	0.086970	0.239889	1788.19	96187.4
699	2.000000	1.144437	7.37189e+06	-42139.1	1005.82	-29783.8	0.000000	0.000000	7.162859	447.366	NaN	0.000000	0.001575	0.001661	28.0819	97.3409	0.001826	53317.4	3.520080	173.358	441.961	1.144249	0.095006	0.094819	447.366	53317.4	0.088713	0.248433	1800.75	97732.2
699	2.000000	1.146465	7.37189e+06	-42139.1	1005.82	-29783.8	0.000000	0.000000	7.165833	470.367	NaN	0.000000	0.001594	0.001695	28.082	98.582	0.001847	53382.2	3.242077	174.655	466.198	1.146124	0.097034	0.096693	470.367	53382.2	0.090426	0.256964	1830.48	96212.9
699	2.000000	1.148471	7.37189e+06	-42139.1	1005.82	-29783.8	0.000000	0.000000	7.168451	485.256	NaN	0.000000	0.001591	0.001722	28.082	101.163	0.001865	54238.8	5.095233	172.029	483.921	1.148077	0.099041	0.098646	485.256	54238.8	0.092331	0.266608	1820.11	95972.5
699	2.000000	1.150524	7.37189e+06	-42139.1	1005.82	-29783.8	0.000000	0.000000	7.170729	490.747	NaN	0.000000	0.001564	0.001696	28.0822	102.863	0.001776	57927.9	3.232704	172.711	489.118	1.150319	0.101093	0.100888	490.747	57927.9	0.094739	0.279042	1758.68	100190
699	2.000000	1.151409	7.37189e+06	-42139.1	1005.82	-29783.8	0.000000	0.000000	7.172738	518.094	NaN	0.000000	0.001604	0.001708	28.082	103.971	0.001791	58047.6	8.392412	168.828	513.272	1.150933	0.101979	0.101503	518.094	58047.6	0.095285	0.281893	1837.91	99888.3