File: remote_trans/data/nanoindenter/0828-1/data/Data_2025-08-06,11h17m57s/2025-07-22_16-23-58_1_685.txt
2025-07-22, 16:23:58, 1
Index	Phase	Displacement	Time	Pos X	Pos Y	Pos Z	Rot A	Rot B	Piezo Z	Force A	Force B	Gripper	Voltage A	Voltage B	Temperature	Amplitude force	Amplitude pos	Stiffness	Phase shift	Phase excitation	Force A raw	Displacement raw	HMax	HMax raw	Real Force	Real Stiffness	Contact Depth	Area	Hardness	Reduced Mod.
[#]	[#]	[um]	[s]	[um]	[um]	[um]	[m°]	[m°]	[um]	[uN]	[uN]	[V]	[V]	[V]	[°C]	[uN]	[um]	[N/m]	[°]	[°]	[uN]	[um]	[um]	[um]	[uN]	[N/m]	[um]	[um^2]	[MPa]	[MPa]
685	1.000000	0.002763	7.37175e+06	-42839.1	1005.82	-29781.3	0.000000	0.000000	6.002834	0.047801	NaN	0.000000	0.001591	0.001680	28.0811	0.077461	0.000936	82.7219	170.267	-165.438	0.034123	0.001461	-1.023376	-1.024677	0.047801	82.7219	-1.023809	-4.744645E+13	-1.007474E-15	NaN
685	1.000000	0.010698	7.37175e+06	-42839.1	1005.82	-29781.3	0.000000	0.000000	6.010769	0.031535	NaN	0.000000	0.001588	0.001704	28.0809	0.065465	0.000996	65.7224	-93.9984	-159.481	-0.007777	0.009383	-1.015440	-1.016756	0.031535	65.7224	-1.015800	-3.702046E+13	-8.518383E-16	NaN
685	1.000000	0.018691	7.37175e+06	-42839.1	1005.82	-29781.3	0.000000	0.000000	6.018760	-0.008440	NaN	0.000000	0.001595	0.001692	28.0808	0.110335	0.001688	65.3801	-101.559	-161.446	0.045369	0.017346	-1.007448	-1.008792	-0.008440	65.3801	-1.007351	-2.849201E+13	2.962136E-16	NaN
685	1.000000	0.026738	7.37175e+06	-42839.1	1005.82	-29781.3	0.000000	0.000000	6.026808	0.024522	NaN	0.000000	0.001629	0.001706	28.0819	0.038290	0.001801	21.258	128.379	-162.678	-0.000127	0.025386	-0.999401	-1.000752	0.024522	21.258	-1.000266	-2.287431E+13	-1.072026E-15	NaN
685	1.000000	0.034662	7.37175e+06	-42839.1	1005.82	-29781.3	0.000000	0.000000	6.034735	0.110404	NaN	0.000000	0.001579	0.001723	28.0819	0.144307	0.001844	78.2718	31.4863	-163.49	-0.015379	0.033356	-0.991477	-0.992782	0.110404	78.2718	-0.992535	-1.799913E+13	-6.133854E-15	NaN
685	1.000000	0.042656	7.37175e+06	-42839.1	1005.82	-29781.3	0.000000	0.000000	6.042725	-0.008644	NaN	0.000000	0.001610	0.001720	28.0821	0.046201	0.002084	22.1723	-157.372	-165.775	-0.043229	0.041396	-0.983483	-0.984743	-0.008644	22.1723	-0.983190	-1.347070E+13	6.416731E-16	NaN
685	1.000000	0.050697	7.37175e+06	-42839.1	1005.82	-29781.3	0.000000	0.000000	6.050769	0.061917	NaN	0.000000	0.001637	0.001719	28.0818	0.063984	0.001962	32.6045	39.0986	-167.842	-0.023855	0.049379	-0.975441	-0.976759	0.061917	32.6045	-0.976866	-1.107088E+13	-5.592797E-15	NaN
685	1.000000	0.058681	7.37175e+06	-42839.1	1005.82	-29781.3	0.000000	0.000000	6.058752	0.027403	NaN	0.000000	0.001615	0.001724	28.082	0.062128	0.002099	29.5996	-97.6384	-164.23	0.050430	0.057413	-0.967458	-0.968726	0.027403	29.5996	-0.968152	-8.448035E+12	-3.243769E-15	NaN
685	1.000000	0.066676	7.37175e+06	-42839.1	1005.82	-29781.3	0.000000	0.000000	6.066746	0.021172	NaN	0.000000	0.001620	0.001738	28.0819	0.098291	0.001906	51.5621	141.612	-164.076	0.022396	0.065331	-0.959463	-0.960807	0.021172	51.5621	-0.959771	-6.512924E+12	-3.250695E-15	NaN
685	1.000000	0.074658	7.37175e+06	-42839.1	1005.82	-29781.3	0.000000	0.000000	6.074728	0.022738	NaN	0.000000	0.001643	0.001746	28.0819	0.112683	0.002011	56.0316	-41.1671	-161.691	0.011186	0.073395	-0.951481	-0.952744	0.022738	56.0316	-0.951785	-5.082804E+12	-4.473482E-15	NaN
685	1.000000	0.082692	7.37175e+06	-42839.1	1005.82	-29781.3	0.000000	0.000000	6.082760	-0.020058	NaN	0.000000	0.001659	0.001730	28.0818	0.110079	0.002047	53.7762	-102.922	-166.857	-0.034657	0.081358	-0.943447	-0.944781	-0.020058	53.7762	-0.943167	-3.889231E+12	5.157268E-15	NaN
685	1.000000	0.090686	7.37175e+06	-42839.1	1005.82	-29781.3	0.000000	0.000000	6.090753	-0.052076	NaN	0.000000	0.001620	0.001744	28.0817	0.036969	0.001876	19.7115	95.4259	-163.398	-0.091087	0.089405	-0.935453	-0.936733	-0.052076	19.7115	-0.933471	-2.877685E+12	1.809647E-14	NaN
685	1.000000	0.098699	7.37175e+06	-42839.1	1005.82	-29781.3	0.000000	0.000000	6.098770	0.029919	NaN	0.000000	0.001640	0.001736	28.0818	0.093928	0.002047	45.8905	171.012	-166.198	0.087633	0.097374	-0.927439	-0.928765	0.029919	45.8905	-0.927928	-2.422350E+12	-1.235116E-14	NaN
685	1.000000	0.106700	7.37175e+06	-42839.1	1005.82	-29781.3	0.000000	0.000000	6.106773	0.073612	NaN	0.000000	0.001618	0.001767	28.0818	0.034921	0.002053	17.0094	-78.8384	-163.771	0.095855	0.105404	-0.919438	-0.920734	0.073612	17.0094	-0.922684	-2.058002E+12	-3.576889E-14	NaN
685	1.000000	0.114688	7.37175e+06	-42839.1	1005.82	-29781.3	0.000000	0.000000	6.114759	0.043790	NaN	0.000000	0.001608	0.001773	28.0817	0.041398	0.002129	19.444	139.692	-164.943	0.089403	0.113367	-0.911451	-0.912771	0.043790	19.444	-0.913140	-1.529568E+12	-2.862897E-14	NaN
685	1.000000	0.122719	7.37175e+06	-42839.1	1005.82	-29781.3	0.000000	0.000000	6.122791	0.054152	NaN	0.000000	0.001618	0.001745	28.0819	0.130328	0.002019	64.5425	-59.2706	-164.083	0.023339	0.121360	-0.903419	-0.904779	0.054152	64.5425	-0.904049	-1.152841E+12	-4.697261E-14	NaN
685	1.000000	0.130685	7.37175e+06	-42839.1	1005.82	-29781.3	0.000000	0.000000	6.130755	0.010170	NaN	0.000000	0.001579	0.001725	28.0817	0.081635	0.001879	43.4412	107.504	-166.015	0.115843	0.129433	-0.895454	-0.896705	0.010170	43.4412	-0.895629	-8.871576E+11	-1.146345E-14	NaN
685	1.000000	0.138707	7.37175e+06	-42839.1	1005.82	-29781.3	0.000000	0.000000	6.138778	0.021853	NaN	0.000000	0.001581	0.001709	28.0823	0.154472	0.001932	79.9349	105.923	-162.195	-0.040177	0.137428	-0.887431	-0.888711	0.021853	79.9349	-0.887636	-6.917714E+11	-3.159022E-14	NaN
685	1.000000	0.146715	7.37175e+06	-42839.1	1005.82	-29781.3	0.000000	0.000000	6.146784	0.005714	NaN	0.000000	0.001623	0.001747	28.0816	0.082266	0.002023	40.6714	-98.4477	-166.682	0.024000	0.145422	-0.879424	-0.880717	0.005714	40.6714	-0.879529	-5.374547E+11	-1.063122E-14	NaN
685	1.000000	0.154717	7.37175e+06	-42839.1	1005.82	-29781.3	0.000000	0.000000	6.154783	-0.069845	NaN	0.000000	0.001605	0.001726	28.0818	0.117810	0.002011	58.5891	-115.71	-165.288	-0.034570	0.153451	-0.871422	-0.872688	-0.069845	58.5891	-0.870528	-4.060513E+11	1.720110E-13	NaN
685	1.000000	0.162712	7.37175e+06	-42839.1	1005.82	-29781.3	0.000000	0.000000	6.162783	0.032902	NaN	0.000000	0.001613	0.001745	28.0805	0.037299	0.001980	18.8333	72.1035	-166.633	0.007479	0.161415	-0.863426	-0.864724	0.032902	18.8333	-0.864737	-3.390205E+11	-9.704938E-14	NaN
685	1.000000	0.170719	7.37175e+06	-42839.1	1005.82	-29781.3	0.000000	0.000000	6.170792	0.084847	NaN	0.000000	0.001564	0.001709	28.0807	0.048084	0.002070	23.2264	-150.879	-165.913	0.113546	0.169391	-0.855419	-0.856748	0.084847	23.2264	-0.858159	-2.761868E+11	-3.072091E-13	NaN
685	1.000000	0.178748	7.37175e+06	-42839.1	1005.82	-29781.3	0.000000	0.000000	6.178819	0.035499	NaN	0.000000	0.001581	0.001715	28.0807	0.059673	0.001920	31.083	-144.033	-165.075	0.038094	0.177397	-0.847390	-0.848742	0.035499	31.083	-0.848247	-2.027658E+11	-1.750747E-13	NaN
685	1.000000	0.186719	7.37175e+06	-42839.1	1005.82	-29781.3	0.000000	0.000000	6.186789	0.014801	NaN	0.000000	0.001541	0.001695	28.0805	0.073402	0.001888	38.8869	-86.6935	-162.63	0.007537	0.185465	-0.839420	-0.840673	0.014801	38.8869	-0.839705	-1.553455E+11	-9.527823E-14	NaN
685	1.000000	0.194717	7.37175e+06	-42839.1	1005.82	-29781.3	0.000000	0.000000	6.194788	0.046044	NaN	0.000000	0.001592	0.001719	28.0807	0.072331	0.002027	35.6783	-87.8568	-165.177	0.101077	0.193399	-0.831421	-0.832740	0.046044	35.6783	-0.832389	-1.236423E+11	-3.723986E-13	NaN
685	1.000000	0.202753	7.37175e+06	-42839.1	1005.82	-29781.3	0.000000	0.000000	6.202821	-0.030179	NaN	0.000000	0.001582	0.001763	28.0805	0.041699	0.002042	20.4227	9.449004	-164.666	-0.008193	0.201441	-0.823385	-0.824698	-0.030179	20.4227	-0.822277	-9.017559E+10	3.346713E-13	NaN
685	1.000000	0.210752	7.37175e+06	-42839.1	1005.82	-29781.3	0.000000	0.000000	6.210822	0.016152	NaN	0.000000	0.001559	0.001734	28.0808	0.074209	0.002049	36.2156	-82.79	-165.651	0.038664	0.209454	-0.815386	-0.816685	0.016152	36.2156	-0.815721	-7.348104E+10	-2.198165E-13	NaN
685	1.000000	0.218747	7.37175e+06	-42839.1	1005.82	-29781.3	0.000000	0.000000	6.218816	-0.013423	NaN	0.000000	0.001569	0.001707	28.0809	0.090962	0.002057	44.2219	-69.9483	-164.841	0.043544	0.217487	-0.807391	-0.808651	-0.013423	44.2219	-0.807164	-5.624554E+10	2.386449E-13	NaN
685	1.000000	0.226759	7.37175e+06	-42839.1	1005.82	-29781.3	0.000000	0.000000	6.226831	0.062171	NaN	0.000000	0.001604	0.001717	28.0806	0.101487	0.002117	47.939	132.141	-165.384	0.104332	0.225467	-0.799380	-0.800671	0.062171	47.939	-0.800352	-4.546166E+10	-1.367554E-12	NaN
685	1.000000	0.234737	7.37175e+06	-42839.1	1005.82	-29781.3	0.000000	0.000000	6.234807	0.012116	NaN	0.000000	0.001589	0.001730	28.0806	0.068694	0.002035	33.7618	92.8575	-164.745	-0.022605	0.233441	-0.791401	-0.792698	0.012116	33.7618	-0.791671	-3.465539E+10	-3.496003E-13	NaN
685	1.000000	0.242735	7.37175e+06	-42839.1	1005.82	-29781.3	0.000000	0.000000	6.242804	0.011696	NaN	0.000000	0.001559	0.001737	28.0807	0.107919	0.002008	53.7557	-109.365	-165.106	-0.017520	0.241470	-0.783404	-0.784668	0.011696	53.7557	-0.783567	-2.689687E+10	-4.348456E-13	NaN
685	1.000000	0.250770	7.37175e+06	-42839.1	1005.82	-29781.3	0.000000	0.000000	6.250838	-0.021204	NaN	0.000000	0.001572	0.001684	28.0809	0.063216	0.002035	31.0691	62.4675	-166.89	-0.015221	0.249456	-0.775369	-0.776683	-0.021204	31.0691	-0.774857	-2.048015E+10	1.035340E-12	NaN
685	1.000000	0.258740	7.37175e+06	-42839.1	1005.82	-29781.3	0.000000	0.000000	6.258808	-0.027921	NaN	0.000000	0.001571	0.001691	28.0808	0.091595	0.002014	45.4743	70.5569	-166.67	-0.024605	0.257427	-0.767399	-0.768711	-0.027921	45.4743	-0.766938	-1.598355E+10	1.746859E-12	NaN
685	1.000000	0.266733	7.37175e+06	-42839.1	1005.82	-29781.3	0.000000	0.000000	6.266805	0.065436	NaN	0.000000	0.001525	0.001736	28.0809	0.059936	0.002071	28.941	134.749	-164.991	0.004068	0.265458	-0.759406	-0.760680	0.065436	28.941	-0.761101	-1.331331E+10	-4.915088E-12	NaN
685	1.000000	0.274747	7.37175e+06	-42839.1	1005.82	-29781.3	0.000000	0.000000	6.274816	-0.006884	NaN	0.000000	0.001594	0.001673	28.081	0.055314	0.001955	28.2864	39.0498	-164.493	-0.049116	0.273457	-0.751391	-0.752681	-0.006884	28.2864	-0.751209	-9.765031E+9	7.049632E-13	NaN
685	1.000000	0.282765	7.37175e+06	-42839.1	1005.82	-29781.3	0.000000	0.000000	6.282834	-0.006412	NaN	0.000000	0.001598	0.001728	28.0807	0.087646	0.001893	46.2997	-104.201	-164.626	0.066974	0.281481	-0.743374	-0.744657	-0.006412	46.2997	-0.743270	-7.613530E+9	8.421634E-13	NaN
685	1.000000	0.290805	7.37175e+06	-42839.1	1005.82	-29781.3	0.000000	0.000000	6.290876	0.059428	NaN	0.000000	0.001535	0.001735	28.0809	0.058802	0.002032	28.9366	123.517	-169.122	-0.013987	0.289454	-0.735334	-0.736685	0.059428	28.9366	-0.736874	-6.229871E+9	-9.539271E-12	NaN
685	1.000000	0.298794	7.37175e+06	-42839.1	1005.82	-29781.3	0.000000	0.000000	6.298865	0.054321	NaN	0.000000	0.001567	0.001705	28.0818	0.034798	0.002042	17.038	-35.9563	-163.145	-0.001651	0.297507	-0.727345	-0.728631	0.054321	17.038	-0.729736	-4.979783E+9	-1.090838E-11	NaN
685	1.000000	0.306754	7.37175e+06	-42839.1	1005.82	-29781.3	0.000000	0.000000	6.306825	0.050560	NaN	0.000000	0.001567	0.001733	28.0821	0.139730	0.001921	72.7211	-12.1576	-164.639	0.032703	0.305454	-0.719385	-0.720685	0.050560	72.7211	-0.719906	-3.657582E+9	-1.382324E-11	NaN
685	1.000000	0.314780	7.37175e+06	-42839.1	1005.82	-29781.3	0.000000	0.000000	6.314847	-0.054728	NaN	0.000000	0.001567	0.001711	28.0819	0.093405	0.001996	46.7897	-162.273	-164.485	0.051354	0.313464	-0.711359	-0.712675	-0.054728	46.7897	-0.710481	-2.720302E+9	2.011819E-11	NaN
685	1.000000	0.322783	7.37175e+06	-42839.1	1005.82	-29781.3	0.000000	0.000000	6.322853	0.005863	NaN	0.000000	0.001556	0.001719	28.0818	0.131940	0.002124	62.1107	124.46	-165.081	-0.061345	0.321441	-0.703355	-0.704697	0.005863	62.1107	-0.703426	-2.179298E+9	-2.690366E-12	NaN
685	1.000000	0.330790	7.37175e+06	-42839.1	1005.82	-29781.3	0.000000	0.000000	6.330858	-0.018997	NaN	0.000000	0.001560	0.001744	28.0817	0.081250	0.002071	39.2296	-86.336	-167.103	0.080806	0.329503	-0.695349	-0.696636	-0.018997	39.2296	-0.694986	-1.671259E+9	1.136700E-11	NaN
685	1.000000	0.338775	7.37175e+06	-42839.1	1005.82	-29781.3	0.000000	0.000000	6.338843	-0.023196	NaN	0.000000	0.001578	0.001786	28.0819	0.125604	0.001866	67.299	58.0921	-164.992	-0.079955	0.337524	-0.687364	-0.688615	-0.023196	67.299	-0.687105	-1.304229E+9	1.778547E-11	NaN
685	1.000000	0.346813	7.37175e+06	-42839.1	1005.82	-29781.3	0.000000	0.000000	6.346880	-0.056612	NaN	0.000000	0.001586	0.001736	28.0819	0.067398	0.002026	33.26	-130.768	-164.247	-0.074525	0.345504	-0.679325	-0.680635	-0.056612	33.26	-0.678049	-9.806602E+8	5.772812E-11	NaN
685	1.000000	0.354809	7.37175e+06	-42839.1	1005.82	-29781.3	0.000000	0.000000	6.354878	-0.002516	NaN	0.000000	0.001607	0.001757	28.0818	0.079556	0.002016	39.4598	-150.644	-165.542	-0.002264	0.353521	-0.671329	-0.672617	-0.002516	39.4598	-0.671282	-7.923748E+8	3.174660E-12	NaN
685	1.000000	0.362809	7.37175e+06	-42839.1	1005.82	-29781.3	0.000000	0.000000	6.362879	0.002972	NaN	0.000000	0.001602	0.001754	28.0818	0.075273	0.001874	40.1629	-159.448	-163.285	-0.010106	0.361485	-0.663330	-0.664654	0.002972	40.1629	-0.663385	-6.177738E+8	-4.811144E-12	NaN
685	1.000000	0.370803	7.37175e+06	-42839.1	1005.82	-29781.4	0.000000	0.000000	6.370873	0.015084	NaN	0.000000	0.001571	0.001752	28.0821	0.138636	0.002036	68.0934	-129.767	-161.165	-0.037595	0.369550	-0.655335	-0.656588	0.015084	68.0934	-0.655501	-4.817655E+8	-3.130907E-11	NaN
685	1.000000	0.378786	7.37175e+06	-42839.1	1005.82	-29781.3	0.000000	0.000000	6.378858	0.056017	NaN	0.000000	0.001570	0.001749	28.0817	0.128123	0.001981	64.6607	-61.6676	-164.349	0.002612	0.377454	-0.647353	-0.648684	0.056017	64.6607	-0.648002	-3.802332E+8	-1.473238E-10	NaN
685	1.000000	0.386825	7.37175e+06	-42839.1	1005.82	-29781.3	0.000000	0.000000	6.386896	0.032227	NaN	0.000000	0.001566	0.001720	28.0818	0.082506	0.001907	43.2717	-59.0149	-161.196	0.018741	0.385554	-0.639313	-0.640584	0.032227	43.2717	-0.639872	-2.941234E+8	-1.095700E-10	NaN
685	1.000000	0.394814	7.37175e+06	-42839.1	1005.82	-29781.3	0.000000	0.000000	6.394885	0.028939	NaN	0.000000	0.001596	0.001713	28.0816	0.093856	0.002010	46.6853	53.0203	-162.563	0.057185	0.393488	-0.631324	-0.632651	0.028939	46.6853	-0.631789	-2.278193E+8	-1.270278E-10	NaN
685	1.000000	0.402853	7.37175e+06	-42839.1	1005.82	-29781.3	0.000000	0.000000	6.402922	-0.011581	NaN	0.000000	0.001614	0.001706	28.0817	0.038478	0.001931	19.9307	-137.75	-165.358	-0.057324	0.401518	-0.623286	-0.624621	-0.011581	19.9307	-0.622850	-1.717134E+8	6.744112E-11	NaN
685	1.000000	0.410839	7.37175e+06	-42839.1	1005.82	-29781.3	0.000000	0.000000	6.410909	0.018933	NaN	0.000000	0.001588	0.001739	28.0819	0.047881	0.001958	24.4526	172.317	-162.202	0.012578	0.409522	-0.615300	-0.616617	0.018933	24.4526	-0.615881	-1.377205E+8	-1.374772E-10	NaN
685	1.000000	0.418826	7.37175e+06	-42839.1	1005.82	-29781.3	0.000000	0.000000	6.418896	0.030018	NaN	0.000000	0.001603	0.001739	28.0817	0.075524	0.002024	37.3135	-66.6362	-167.002	0.013464	0.417574	-0.607313	-0.608564	0.030018	37.3135	-0.607916	-1.070144E+8	-2.805062E-10	NaN
685	1.000000	0.426862	7.37175e+06	-42839.1	1005.82	-29781.3	0.000000	0.000000	6.426932	0.006457	NaN	0.000000	0.001580	0.001687	28.0823	0.052325	0.002009	26.0439	23.1612	-165.228	0.043268	0.425496	-0.599276	-0.600642	0.006457	26.0439	-0.599462	-8.185704E+7	-7.888728E-11	NaN
685	1.000000	0.434843	7.37175e+06	-42839.1	1005.82	-29781.3	0.000000	0.000000	6.434909	-0.082850	NaN	0.000000	0.001615	0.001720	28.0805	0.066015	0.002121	31.122	73.701	-165.148	0.056041	0.433522	-0.591296	-0.592617	-0.082850	31.122	-0.589299	-5.929285E+7	1.397308E-9	NaN
685	1.000000	0.442842	7.37175e+06	-42839.1	1005.82	-29781.3	0.000000	0.000000	6.442910	-0.024613	NaN	0.000000	0.001643	0.001734	28.0805	0.069670	0.001987	35.0642	-107.648	-166.06	0.028852	0.441511	-0.583297	-0.584628	-0.024613	35.0642	-0.582770	-4.818965E+7	5.107619E-10	NaN
685	1.000000	0.450848	7.37175e+06	-42839.1	1005.82	-29781.3	0.000000	0.000000	6.450919	0.045317	NaN	0.000000	0.001647	0.001735	28.0805	0.062273	0.001920	32.4283	-71.1039	-162.101	-0.041453	0.449516	-0.575291	-0.576623	0.045317	32.4283	-0.576339	-3.928127E+7	-1.153641E-9	NaN
685	1.000000	0.458850	7.37175e+06	-42839.1	1005.82	-29781.3	0.000000	0.000000	6.458921	0.052159	NaN	0.000000	0.001655	0.001738	28.0803	0.163774	0.001840	89.0099	71.7698	-162.724	-0.020282	0.457519	-0.567289	-0.568620	0.052159	89.0099	-0.567729	-2.987047E+7	-1.746156E-9	NaN
685	1.000000	0.466865	7.37175e+06	-42839.1	1005.82	-29781.3	0.000000	0.000000	6.466936	0.028343	NaN	0.000000	0.001684	0.001756	28.0806	0.075101	0.002098	35.7913	-136.364	-166.482	0.059875	0.465546	-0.559273	-0.560592	0.028343	35.7913	-0.559867	-2.325622E+7	-1.218731E-9	NaN
685	1.000000	0.474888	7.37175e+06	-42839.1	1005.82	-29781.3	0.000000	0.000000	6.474959	0.045234	NaN	0.000000	0.001611	0.001715	28.0803	0.031073	0.002144	14.4951	-99.3392	-164.695	0.050308	0.473521	-0.551251	-0.552617	0.045234	14.4951	-0.553591	-1.904093E+7	-2.375640E-9	NaN
685	1.000000	0.482845	7.37175e+06	-42839.1	1005.82	-29781.4	0.000000	0.000000	6.482916	0.043591	NaN	0.000000	0.001606	0.001728	28.0806	0.052428	0.001952	26.8637	149.983	-163.293	0.150487	0.481536	-0.543293	-0.544603	0.043591	26.8637	-0.544510	-1.425261E+7	-3.058490E-9	NaN
685	1.000000	0.490886	7.37175e+06	-42839.1	1005.82	-29781.3	0.000000	0.000000	6.490957	0.035766	NaN	0.000000	0.001572	0.001710	28.0806	0.003082	0.001904	1.618987	-37.7213	-167.12	0.056212	0.489554	-0.535252	-0.536585	0.035766	1.618987	-0.551821	-1.799598E+7	-1.987441E-9	NaN
685	1.000000	0.498861	7.37175e+06	-42839.1	1005.82	-29781.4	0.000000	0.000000	6.498926	-0.101985	NaN	0.000000	0.001590	0.001731	28.0807	0.039128	0.002182	17.9291	17.0699	-165.197	-0.012767	0.497597	-0.527278	-0.528541	-0.101985	17.9291	-0.523012	-7.16926e+06	1.422527E-8	NaN
685	1.000000	0.506868	7.37175e+06	-42839.1	1005.82	-29781.4	0.000000	0.000000	6.506942	0.124946	NaN	0.000000	0.001596	0.001754	28.0806	0.029013	0.001904	15.2367	135.905	-165.729	0.103606	0.505554	-0.519271	-0.520585	0.124946	15.2367	-0.525421	-7.74397e+06	-1.613460E-8	NaN
685	1.000000	0.514912	7.37175e+06	-42839.1	1005.82	-29781.4	0.000000	0.000000	6.514980	-0.012455	NaN	0.000000	0.001602	0.001734	28.0804	0.025359	0.001795	14.1305	120.075	-164.178	0.033905	0.513586	-0.511227	-0.512552	-0.012455	14.1305	-0.510566	-4.81169e+06	2.588522E-9	NaN
685	1.000000	0.522900	7.37175e+06	-42839.1	1005.82	-29781.3	0.000000	0.000000	6.522971	0.043234	NaN	0.000000	0.001633	0.001763	28.0808	0.076467	0.002052	37.2661	-64.6379	-166.4	0.051612	0.521615	-0.503239	-0.504524	0.043234	37.2661	-0.504109	-3.91134e+06	-1.105359E-8	NaN
685	1.000000	0.530857	7.37175e+06	-42839.1	1005.82	-29781.3	0.000000	0.000000	6.530927	0.018078	NaN	0.000000	0.001600	0.001725	28.0805	0.079493	0.001900	41.8454	92.5945	-163.356	-0.041538	0.529533	-0.495281	-0.496606	0.018078	41.8454	-0.495605	-2.97638e+06	-6.073710E-9	NaN
685	1.000000	0.538886	7.37175e+06	-42839.1	1005.82	-29781.3	0.000000	0.000000	6.538956	0.023561	NaN	0.000000	0.001623	0.001720	28.0812	0.075210	0.001959	38.3961	-120.082	-166.86	0.007587	0.537560	-0.487253	-0.488579	0.023561	38.3961	-0.487713	-2.30904e+06	-1.020399E-8	NaN
685	1.000000	0.546907	7.37175e+06	-42839.1	1005.82	-29781.3	0.000000	0.000000	6.546977	0.012367	NaN	0.000000	0.001598	0.001760	28.0803	0.093666	0.002060	45.4633	-70.0605	-160.619	0.068814	0.545603	-0.479232	-0.480535	0.012367	45.4633	-0.479436	-1.7686e+06	-6.992763E-9	NaN
685	1.000000	0.554914	7.37175e+06	-42839.1	1005.82	-29781.3	0.000000	0.000000	6.554986	0.063527	NaN	0.000000	0.001593	0.001759	28.0806	0.091204	0.002037	44.7643	-47.9052	-163.37	0.055890	0.553588	-0.471225	-0.472551	0.063527	44.7643	-0.472289	-1.40444e+06	-4.523309E-8	NaN
685	1.000000	0.562898	7.37175e+06	-42839.1	1005.82	-29781.4	0.000000	0.000000	6.562967	-0.015323	NaN	0.000000	0.001627	0.001742	28.0806	0.043844	0.002004	21.8834	-174.366	-167.052	0.005531	0.561538	-0.463240	-0.464601	-0.015323	21.8834	-0.462715	-1.03077e+06	1.486559E-8	NaN
685	1.000000	0.570920	7.37175e+06	-42839.1	1005.82	-29781.4	0.000000	0.000000	6.570989	0.003995	NaN	0.000000	0.001595	0.001753	28.0817	0.009837	0.001993	4.936670	60.1475	-165.423	0.107942	0.569614	-0.455219	-0.456524	0.003995	4.936670	-0.455826	-824770	-4.843762E-9	NaN
685	1.000000	0.578912	7.37175e+06	-42839.1	1005.82	-29781.4	0.000000	0.000000	6.578983	0.043681	NaN	0.000000	0.001576	0.001712	28.0819	0.066443	0.002113	31.4506	-36.8405	-168.256	0.069150	0.577627	-0.447227	-0.448512	0.043681	31.4506	-0.448269	-645591	-6.766044E-8	NaN
685	1.000000	0.586905	7.37175e+06	-42839.1	1005.82	-29781.3	0.000000	0.000000	6.586974	-0.010398	NaN	0.000000	0.001584	0.001741	28.0818	0.098829	0.001972	50.128	-96.3294	-165.772	0.038030	0.585628	-0.439233	-0.440510	-0.010398	50.128	-0.439078	-479013	2.170696E-8	NaN
685	1.000000	0.594914	7.37175e+06	-42839.1	1005.82	-29781.4	0.000000	0.000000	6.594984	0.020704	NaN	0.000000	0.001615	0.001750	28.0819	0.111436	0.001921	58.011	26.6928	-169.296	0.057623	0.593616	-0.431225	-0.432523	0.020704	58.011	-0.431492	-374255	-5.532065E-8	NaN
685	1.000000	0.602903	7.37175e+06	-42839.1	1005.82	-29781.4	0.000000	0.000000	6.602974	0.041159	NaN	0.000000	0.001607	0.001715	28.0819	0.086610	0.002138	40.5171	-5.557021	-163.222	0.004120	0.601591	-0.423235	-0.424548	0.041159	40.5171	-0.423997	-293141	-1.404059E-7	NaN
685	1.000000	0.610902	7.37175e+06	-42839.1	1005.82	-29781.4	0.000000	0.000000	6.610971	0.008453	NaN	0.000000	0.001575	0.001757	28.0817	0.083669	0.002070	40.417	-107.633	-165.157	0.010943	0.609620	-0.415237	-0.416519	0.008453	40.417	-0.415394	-221333	-3.819323E-8	NaN
685	1.000000	0.618901	7.37175e+06	-42839.1	1005.82	-29781.3	0.000000	0.000000	6.618972	0.025053	NaN	0.000000	0.001596	0.001727	28.0821	0.019301	0.001892	10.2025	22.6424	-163.801	0.004268	0.617702	-0.407237	-0.408436	0.025053	10.2025	-0.409079	-180011	-1.391763E-7	NaN
685	1.000000	0.626933	7.37175e+06	-42839.1	1005.82	-29781.3	0.000000	0.000000	6.627003	0.017237	NaN	0.000000	0.001550	0.001715	28.0818	0.057769	0.002017	28.64	114.284	-165.297	-0.004638	0.625635	-0.399206	-0.400504	0.017237	28.64	-0.399657	-132163	-1.304247E-7	NaN
685	1.000000	0.634935	7.37175e+06	-42839.1	1005.82	-29781.3	0.000000	0.000000	6.635005	0.024705	NaN	0.000000	0.001517	0.001727	28.0824	0.053872	0.001994	27.0155	128.01	-162.445	0.104341	0.633619	-0.391204	-0.392519	0.024705	27.0155	-0.391889	-102373	-2.413274E-7	NaN
685	1.000000	0.642947	7.37175e+06	-42839.1	1005.82	-29781.3	0.000000	0.000000	6.643019	0.046629	NaN	0.000000	0.001561	0.001677	28.0819	0.040033	0.002007	19.949	117.525	-164.246	0.040924	0.641604	-0.383191	-0.384535	0.046629	19.949	-0.384944	-81430.7	-5.726260E-7	NaN
685	1.000000	0.650948	7.37175e+06	-42839.1	1005.82	-29781.3	0.000000	0.000000	6.651018	0.026084	NaN	0.000000	0.001550	0.001715	28.0818	0.075564	0.001994	37.8973	8.154865	-162.507	0.046537	0.649631	-0.375191	-0.376507	0.026084	37.8973	-0.375707	-60011.4	-4.346542E-7	NaN
685	1.000000	0.658940	7.37175e+06	-42839.1	1005.82	-29781.3	0.000000	0.000000	6.659010	0.017122	NaN	0.000000	0.001579	0.001736	28.0819	0.036568	0.002030	18.0107	8.897771	-164.166	0.003913	0.657632	-0.367199	-0.368507	0.017122	18.0107	-0.367912	-46349.6	-3.694082E-7	NaN
685	1.000000	0.666918	7.37175e+06	-42839.1	1005.82	-29781.4	0.000000	0.000000	6.666988	0.014280	NaN	0.000000	0.001549	0.001744	28.0817	0.094836	0.002007	47.2512	176.415	-161.97	-6.367020E-5	0.665653	-0.359221	-0.360486	0.014280	47.2512	-0.359448	-34983.1	-4.081889E-7	NaN
685	1.000000	0.674953	7.37175e+06	-42839.1	1005.82	-29781.3	0.000000	0.000000	6.675022	-0.004112	NaN	0.000000	0.001539	0.001719	28.0819	0.103808	0.002007	51.7247	108.87	-165.692	0.090756	0.673622	-0.351186	-0.352516	-0.004112	51.7247	-0.351126	-26506.1	1.551287E-7	NaN
685	1.000000	0.682945	7.37175e+06	-42839.1	1005.82	-29781.3	0.000000	0.000000	6.683020	0.132332	NaN	0.000000	0.001556	0.001744	28.0817	0.101084	0.001952	51.7879	157.865	-163.98	0.084954	0.681613	-0.343194	-0.344526	0.132332	51.7879	-0.345110	-21674.9	-6.105332E-6	NaN
685	1.000000	0.690968	7.37175e+06	-42839.1	1005.82	-29781.4	0.000000	0.000000	6.691037	-0.003789	NaN	0.000000	0.001566	0.001734	28.0819	0.072360	0.001971	36.7111	178.013	-164.23	0.065031	0.689690	-0.335171	-0.336449	-0.003789	36.7111	-0.335093	-15486.4	2.446716E-7	NaN
685	1.000000	0.698969	7.37175e+06	-42839.1	1005.82	-29781.3	0.000000	0.000000	6.699037	-0.024946	NaN	0.000000	0.001572	0.001715	28.0818	0.078469	0.001919	40.8889	7.066509	-162.563	-0.050656	0.697598	-0.327170	-0.328541	-0.024946	40.8889	-0.326712	-11675.1	2.136699E-6	NaN
685	1.000000	0.706961	7.37175e+06	-42839.1	1005.82	-29781.3	0.000000	0.000000	6.707032	0.038082	NaN	0.000000	0.001546	0.001665	28.0809	0.071509	0.001970	36.3078	62.4948	-164.934	0.030730	0.705612	-0.319177	-0.320526	0.038082	36.3078	-0.319964	-9292.02	-4.098404E-6	NaN
685	1.000000	0.714910	7.37175e+06	-42839.1	1005.82	-29781.4	0.000000	0.000000	6.714979	0.002554	NaN	0.000000	0.001572	0.001724	28.0807	0.060804	0.001992	30.5284	105.296	-161.136	0.012015	0.713641	-0.311229	-0.312497	0.002554	30.5284	-0.311292	-6920.97	-3.690647E-7	NaN
685	1.000000	0.722965	7.37175e+06	-42839.1	1005.82	-29781.3	0.000000	0.000000	6.723038	0.082674	NaN	0.000000	0.001557	0.001716	28.0805	0.040946	0.001946	21.0361	-49.9545	-165.797	0.041852	0.721655	-0.303174	-0.304484	0.082674	21.0361	-0.306121	-5802.2	-1.424864E-5	NaN
685	1.000000	0.730974	7.37175e+06	-42839.1	1005.82	-29781.4	0.000000	0.000000	6.731043	-0.006944	NaN	0.000000	0.001532	0.001709	28.0809	0.015718	0.001987	7.909899	90.5043	-166.783	0.031411	0.729576	-0.295165	-0.296562	-0.006944	7.909899	-0.294506	-3896.86	1.782056E-6	NaN
685	1.000000	0.738992	7.37175e+06	-42839.1	1005.82	-29781.3	0.000000	0.000000	6.739067	0.145054	NaN	0.000000	0.001542	0.001734	28.0806	0.090799	0.001982	45.8042	177.108	-166.211	0.096538	0.737662	-0.287147	-0.288476	0.145054	45.8042	-0.289522	-3282	-4.419697E-5	NaN
685	1.000000	0.746942	7.37175e+06	-42839.1	1005.82	-29781.4	0.000000	0.000000	6.747014	0.062748	NaN	0.000000	0.001567	0.001729	28.0805	0.099347	0.001929	51.4929	34.7057	-163.951	0.010356	0.745682	-0.279196	-0.280457	0.062748	51.4929	-0.280110	-2369.39	-2.648298E-5	NaN
685	1.000000	0.754971	7.37175e+06	-42839.1	1005.82	-29781.3	0.000000	0.000000	6.755043	0.050044	NaN	0.000000	0.001570	0.001752	28.0806	0.071318	0.001937	36.8264	-100.148	-164.443	0.014881	0.753646	-0.271168	-0.272493	0.050044	36.8264	-0.272187	-1797.86	-2.783516E-5	NaN
685	1.000000	0.762970	7.37175e+06	-42839.1	1005.82	-29781.4	0.000000	0.000000	6.763040	0.020361	NaN	0.000000	0.001548	0.001722	28.0806	0.060995	0.002088	29.2098	139.146	-163.951	-0.026948	0.761694	-0.263169	-0.264445	0.020361	29.2098	-0.263691	-1334.77	-1.525411E-5	NaN
685	1.000000	0.770986	7.37175e+06	-42839.1	1005.82	-29781.3	0.000000	0.000000	6.771061	0.125356	NaN	0.000000	0.001536	0.001712	28.0809	0.100150	0.002008	49.8793	-2.434057	-164.961	0.039635	0.769631	-0.255152	-0.256508	0.125356	49.8793	-0.257037	-1055.48	-0.000119	NaN
685	1.000000	0.778983	7.37175e+06	-42839.1	1005.82	-29781.3	0.000000	0.000000	6.779055	0.062859	NaN	0.000000	0.001596	0.001739	28.0808	0.077150	0.002016	38.2715	-47.7459	-160.769	0.003244	0.777664	-0.247155	-0.248474	0.062859	38.2715	-0.248387	-776.256	-8.097745E-5	NaN
685	1.000000	0.787006	7.37175e+06	-42839.1	1005.82	-29781.3	0.000000	0.000000	6.787073	-0.044249	NaN	0.000000	0.001581	0.001702	28.0809	0.089396	0.001970	45.3842	9.169016	-165.666	-0.014140	0.785652	-0.239133	-0.240486	-0.044249	45.3842	-0.238401	-542.704	8.153443E-5	NaN
685	1.000000	0.794991	7.37175e+06	-42839.1	1005.82	-29781.4	0.000000	0.000000	6.795063	0.066315	NaN	0.000000	0.001572	0.001747	28.0807	0.000549	0.001994	0.275398	146.987	-161.422	0.041027	0.793675	-0.231147	-0.232463	0.066315	0.275398	-0.411745	-196431	-3.375993E-7	NaN
685	1.000000	0.802993	7.37175e+06	-42839.1	1005.82	-29781.3	0.000000	0.000000	6.803063	0.022744	NaN	0.000000	0.001610	0.001732	28.0807	0.035714	0.001943	18.3803	106.279	-166.989	-0.005742	0.801654	-0.223146	-0.224484	0.022744	18.3803	-0.224074	-322.567	-7.050821E-5	NaN
685	1.000000	0.810987	7.37175e+06	-42839.1	1005.82	-29781.3	0.000000	0.000000	6.811060	0.086619	NaN	0.000000	0.001630	0.001712	28.0806	0.032853	0.001911	17.1913	-32.3594	-166.782	0.098465	0.809697	-0.215152	-0.216442	0.086619	17.1913	-0.218931	-267.038	-0.000324	NaN
685	1.000000	0.818976	7.37175e+06	-42839.1	1005.82	-29781.3	0.000000	0.000000	6.819046	0.003987	NaN	0.000000	0.001569	0.001730	28.0806	0.018580	0.002079	8.937355	102.808	-161.239	-0.011948	0.817714	-0.207162	-0.208425	0.003987	8.937355	-0.207497	-174.666	-2.282363E-5	NaN
685	1.000000	0.826999	7.37175e+06	-42839.1	1005.82	-29781.3	0.000000	0.000000	6.827068	0.004062	NaN	0.000000	0.001560	0.001720	28.081	0.038591	0.001952	19.7683	-112.581	-164.261	0.023686	0.825718	-0.199140	-0.200420	0.004062	19.7683	-0.199294	-128.26	-3.166682E-5	NaN
685	1.000000	0.835014	7.37175e+06	-42839.1	1005.82	-29781.3	0.000000	0.000000	6.835085	0.043902	NaN	0.000000	0.001594	0.001742	28.0806	0.045838	0.001929	23.7622	-55.6642	-165.221	0.030471	0.833664	-0.191125	-0.192475	0.043902	23.7622	-0.192510	-99.0541	-0.000443	NaN
685	1.000000	0.843022	7.37175e+06	-42839.1	1005.82	-29781.3	0.000000	0.000000	6.843093	0.028189	NaN	0.000000	0.001576	0.001734	28.0815	0.079177	0.002050	38.6196	52.6294	-165.332	0.046105	0.841695	-0.183116	-0.184444	0.028189	38.6196	-0.183664	-70.4022	-0.000400	NaN
685	1.000000	0.851042	7.37175e+06	-42839.1	1005.82	-29781.3	0.000000	0.000000	6.851111	-0.004428	NaN	0.000000	0.001574	0.001726	28.0818	0.115376	0.002057	56.0866	104.321	-165.919	0.045823	0.849661	-0.175096	-0.176477	-0.004428	56.0866	-0.175037	-50.1901	8.822390E-5	NaN
685	1.000000	0.859055	7.37175e+06	-42839.1	1005.82	-29781.3	0.000000	0.000000	6.859128	0.098378	NaN	0.000000	0.001542	0.001733	28.0818	0.006845	0.001921	3.563591	-107.327	-165.304	0.116317	0.857733	-0.167084	-0.168406	0.098378	3.563591	-0.187789	-82.607	-0.001191	NaN
685	1.000000	0.867031	7.37175e+06	-42839.1	1005.82	-29781.3	0.000000	0.000000	6.867102	0.042699	NaN	0.000000	0.001592	0.001737	28.0818	0.100023	0.001993	50.1828	130.638	-166.316	0.057701	0.865717	-0.159107	-0.160422	0.042699	50.1828	-0.159746	-27.1308	-0.001574	NaN
685	1.000000	0.875009	7.37175e+06	-42839.1	1005.82	-29781.4	0.000000	0.000000	6.875080	0.038069	NaN	0.000000	0.001563	0.001730	28.0817	0.129989	0.002014	64.5567	-95.8096	-159.575	-0.000168	0.873720	-0.151130	-0.152419	0.038069	64.5567	-0.151572	-19.347	-0.001968	NaN
685	1.000000	0.883020	7.37176e+06	-42839.1	1005.82	-29781.4	0.000000	0.000000	6.883091	0.037730	NaN	0.000000	0.001540	0.001724	28.082	0.070372	0.001975	35.6281	5.744799	-165.246	0.036343	0.881781	-0.143118	-0.144358	0.037730	35.6281	-0.143913	-13.9965	-0.002696	NaN
685	1.000000	0.891010	7.37176e+06	-42839.1	1005.82	-29781.3	0.000000	0.000000	6.891079	-0.017461	NaN	0.000000	0.001539	0.001724	28.0819	0.026609	0.002059	12.9243	-177.826	-165.48	-0.070093	0.889760	-0.135128	-0.136378	-0.017461	12.9243	-0.134115	-9.148918	0.001909	NaN
685	1.000000	0.899034	7.37176e+06	-42839.1	1005.82	-29781.4	0.000000	0.000000	6.899104	0.036718	NaN	0.000000	0.001550	0.001715	28.0817	0.041862	0.002062	20.2969	-49.9484	-164.887	0.054328	0.897671	-0.127105	-0.128467	0.036718	20.2969	-0.128462	-7.112961	-0.005162	NaN
685	1.000000	0.907049	7.37176e+06	-42839.1	1005.82	-29781.3	0.000000	0.000000	6.907115	-0.057971	NaN	0.000000	0.001564	0.001748	28.0818	0.182145	0.001979	92.0604	-157.28	-164.822	-0.069107	0.905732	-0.119090	-0.120407	-0.057971	92.0604	-0.118618	-4.530090	0.012797	NaN
685	1.000000	0.915040	7.37176e+06	-42839.1	1005.82	-29781.4	0.000000	0.000000	6.915111	0.034495	NaN	0.000000	0.001582	0.001736	28.0817	0.112770	0.001954	57.7055	-15.4246	-166.093	0.065772	0.913702	-0.111098	-0.112437	0.034495	57.7055	-0.111547	-3.238702	-0.010651	NaN
685	1.000000	0.923008	7.37176e+06	-42839.1	1005.82	-29781.4	0.000000	0.000000	6.923079	0.055356	NaN	0.000000	0.001571	0.001685	28.0818	0.060551	0.001978	30.6185	-52.6533	-163.959	0.077400	0.921735	-0.103131	-0.104404	0.055356	30.6185	-0.104487	-2.291281	-0.024160	NaN
685	1.000000	0.931039	7.37176e+06	-42839.1	1005.82	-29781.4	0.000000	0.000000	6.931110	0.041176	NaN	0.000000	0.001552	0.001742	28.0817	0.079352	0.001960	40.4889	125.207	-165.09	0.034122	0.929716	-0.095099	-0.096423	0.041176	40.4889	-0.095862	-1.475742	-0.027902	NaN
685	1.000000	0.939040	7.37176e+06	-42839.1	1005.82	-29781.3	0.000000	0.000000	6.939110	0.018087	NaN	0.000000	0.001551	0.001733	28.0819	0.085112	0.001814	46.9108	164.858	-165.927	0.045462	0.937777	-0.087098	-0.088362	0.018087	46.9108	-0.087388	-0.937631	-0.019291	NaN
685	1.000000	0.947054	7.37176e+06	-42839.1	1005.82	-29781.3	0.000000	0.000000	6.947122	-0.039195	NaN	0.000000	0.001550	0.001698	28.0817	0.065133	0.002062	31.593	-154.441	-164.209	-0.047150	0.945776	-0.079084	-0.080362	-0.039195	31.593	-0.078154	-0.556204	0.070468	NaN
685	1.000000	0.955055	7.37176e+06	-42839.1	1005.82	-29781.4	0.000000	0.000000	6.955125	0.021885	NaN	0.000000	0.001545	0.001726	28.0814	0.057624	0.002081	27.69	-92.1109	-164.76	0.014326	0.953704	-0.071084	-0.072435	0.021885	27.69	-0.071677	-0.378045	-0.057891	NaN
685	1.000000	0.963054	7.37176e+06	-42839.1	1005.82	-29781.4	0.000000	0.000000	6.963122	-0.013068	NaN	0.000000	0.001547	0.001722	28.0819	0.101585	0.001942	52.2968	-121.667	-164.707	0.072427	0.961771	-0.063085	-0.064368	-0.013068	52.2968	-0.062898	-0.217689	0.060032	NaN
685	1.000000	0.971060	7.37176e+06	-42839.1	1005.82	-29781.4	0.000000	0.000000	6.971132	0.079431	NaN	0.000000	0.001553	0.001725	28.0818	0.085970	0.002123	40.4874	18.151	-164.825	0.105035	0.969739	-0.055079	-0.056400	0.079431	40.4874	-0.056550	-0.143043	-0.555293	NaN
685	1.000000	0.979092	7.37176e+06	-42839.1	1005.82	-29781.4	0.000000	0.000000	6.979163	0.040366	NaN	0.000000	0.001550	0.001759	28.0815	0.141232	0.001944	72.6404	-82.4733	-168.517	0.046093	0.977787	-0.047046	-0.048351	0.040366	72.6404	-0.047463	-0.076420	-0.528221	NaN
685	1.000000	0.987056	7.37176e+06	-42839.1	1005.82	-29781.4	0.000000	0.000000	6.987127	0.051299	NaN	0.000000	0.001568	0.001700	28.0805	0.002735	0.001974	1.385056	-86.3918	-164.555	0.031732	0.985733	-0.039083	-0.040406	0.051299	1.385056	-0.066861	-0.280457	-0.182912	NaN
685	1.000000	0.995080	7.37176e+06	-42839.1	1005.82	-29781.3	0.000000	0.000000	6.995150	0.018863	NaN	0.000000	0.001572	0.001731	28.0805	0.008942	0.001967	4.545063	147.796	-167.571	0.058144	0.993762	-0.031059	-0.032376	0.018863	4.545063	-0.034171	-0.030281	-0.622939	NaN
685	1.000000	1.003043	7.37176e+06	-42839.1	1005.82	-29781.4	0.000000	0.000000	7.003110	-0.057100	NaN	0.000000	0.001554	0.001709	28.0804	0.063319	0.001955	32.3913	87.3589	-163.204	-0.034478	1.001762	-0.023095	-0.024377	-0.057100	32.3913	-0.021773	-0.013935	4.097757	NaN
685	1.000000	1.011062	7.37176e+06	-42839.1	1005.82	-29781.3	0.000000	0.000000	7.011135	0.074466	NaN	0.000000	0.001539	0.001685	28.0803	0.016100	0.002150	7.488559	-46.3091	-164.777	0.069296	1.009727	-0.015076	-0.016411	0.074466	7.488559	-0.022534	-0.014571	-5.110470	NaN
685	1.000000	1.019091	7.37176e+06	-42839.1	1005.82	-29781.3	0.000000	0.000000	7.019161	0.027338	NaN	0.000000	0.001577	0.001701	28.0805	0.099590	0.001970	50.5429	46.0831	-166.813	-0.031937	1.017782	-0.007048	-0.008357	0.027338	50.5429	-0.007454	-0.004910	-5.567840	NaN
685	1.000000	1.027060	7.37176e+06	-42839.1	1005.82	-29781.4	0.000000	0.000000	7.027318	4.598178	NaN	0.000000	0.001579	0.001716	28.0806	5.470299	0.001853	2951.58	12.7705	-170.08	3.168646	1.025771	0.000921	-0.000368	4.598178	2951.58	-0.000247	-0.000184	-25008.1	NaN
685	2.000000	1.031696	7.37176e+06	-42839.1	1005.82	-29781.4	0.000000	0.000000	7.032150	9.346442	NaN	0.000000	0.001529	0.001742	28.0806	10.0789	0.001588	6346.79	10.9687	-176.424	9.283491	1.031384	0.005557	0.005245	9.346442	6346.79	0.004453	0.003640	2567.93	96116.1
685	2.000000	1.033671	7.37176e+06	-42839.1	1005.82	-29781.3	0.000000	0.000000	7.034257	12.5661	NaN	0.000000	0.001522	0.001693	28.0802	12.8527	0.001787	7191.72	7.237223	-173.247	12.6608	1.033386	0.007533	0.007247	12.5661	7191.72	0.006222	0.005276	2381.53	90455.1
685	2.000000	1.035675	7.37176e+06	-42839.1	1005.82	-29781.4	0.000000	0.000000	7.036387	15.6424	NaN	0.000000	0.001551	0.001750	28.0803	14.1271	0.001646	8584.53	6.610269	-174.769	15.8384	1.035297	0.009536	0.009158	15.6424	8584.53	0.008170	0.007218	2167.29	92320
685	2.000000	1.037622	7.37176e+06	-42839.1	1005.82	-29781.3	0.000000	0.000000	7.038401	17.2736	NaN	0.000000	0.001576	0.001695	28.0806	16.5929	0.001790	9271.34	10.039	-176.175	18.3828	1.037325	0.011483	0.011186	17.2736	9271.34	0.010086	0.009277	1861.98	87945
685	2.000000	1.039655	7.37176e+06	-42839.1	1005.82	-29781.3	0.000000	0.000000	7.040582	20.872	NaN	0.000000	0.001559	0.001699	28.0806	19.05	0.001945	9792.3	9.187188	-177.088	21.1052	1.039299	0.013517	0.013161	20.872	9792.3	0.011918	0.011392	1832.17	83822.2
685	2.000000	1.041611	7.37176e+06	-42839.1	1005.82	-29781.4	0.000000	0.000000	7.042643	23.4327	NaN	0.000000	0.001539	0.001729	28.0804	20.4032	0.001867	10930.8	6.913590	-175.958	23.0322	1.041302	0.015472	0.015163	23.4327	10930.8	0.013864	0.013801	1697.96	85011.9
685	2.000000	1.043565	7.37176e+06	-42839.1	1005.82	-29781.4	0.000000	0.000000	7.044865	29.9297	NaN	0.000000	0.001544	0.001765	28.0805	23.0778	0.001789	12899.9	7.122827	-178.772	28.7724	1.043231	0.017427	0.017093	29.9297	12899.9	0.015687	0.016212	1846.14	92563.9
685	2.000000	1.045568	7.37176e+06	-42839.1	1005.82	-29781.3	0.000000	0.000000	7.046994	32.9961	NaN	0.000000	0.001613	0.001749	28.0805	24.7422	0.001877	13178.4	10.1882	178.264	31.4565	1.045286	0.019430	0.019147	32.9961	13178.4	0.017552	0.018841	1751.33	87718.1
685	2.000000	1.047558	7.37176e+06	-42839.1	1005.82	-29781.4	0.000000	0.000000	7.049257	39.6495	NaN	0.000000	0.001601	0.001771	28.0806	26.035	0.001894	13744.8	1.040612	-172.549	39.1231	1.047228	0.021420	0.021090	39.6495	13744.8	0.019256	0.021387	1853.92	85869.2
685	2.000000	1.049552	7.37176e+06	-42839.1	1005.82	-29781.3	0.000000	0.000000	7.051307	41.0284	NaN	0.000000	0.001602	0.001740	28.0805	28.0624	0.001771	15841.9	5.752205	179.927	38.3463	1.049276	0.023413	0.023137	41.0284	15841.9	0.021471	0.024906	1647.3	91711.8
685	2.000000	1.051635	7.37176e+06	-42839.1	1005.82	-29781.3	0.000000	0.000000	7.053594	45.9739	NaN	0.000000	0.001569	0.001753	28.0809	29.905	0.001783	16775.4	6.519402	179.191	47.4915	1.051278	0.025497	0.025139	45.9739	16775.4	0.023441	0.028241	1627.93	91203.2
685	2.000000	1.053551	7.37176e+06	-42839.1	1005.82	-29781.4	0.000000	0.000000	7.055754	51.9236	NaN	0.000000	0.001584	0.001701	28.0822	32.5294	0.001828	17790.7	4.754042	-179.96	50.0725	1.053232	0.027412	0.027093	51.9236	17790.7	0.025223	0.031423	1652.39	91693.7
685	2.000000	1.055528	7.37176e+06	-42839.1	1005.82	-29781.4	0.000000	0.000000	7.058222	63.8757	NaN	0.000000	0.001629	0.001749	28.0818	33.6157	0.001790	18784.1	3.231463	-178.695	61.988	1.055196	0.029389	0.029058	63.8757	18784.1	0.026839	0.034446	1854.39	92469.1
685	2.000000	1.057554	7.37176e+06	-42839.1	1005.82	-29781.4	0.000000	0.000000	7.060308	65.3165	NaN	0.000000	0.001588	0.001758	28.0819	36.6766	0.001836	19979.1	11.3237	173.313	66.0009	1.057260	0.031416	0.031122	65.3165	19979.1	0.028964	0.038623	1691.12	92880.6
685	2.000000	1.059566	7.37176e+06	-42839.1	1005.82	-29781.3	0.000000	0.000000	7.062667	73.7764	NaN	0.000000	0.001604	0.001728	28.0818	37.9213	0.001734	21875.5	8.719684	175.341	72.4262	1.059164	0.033427	0.033025	73.7764	21875.5	0.030898	0.042625	1730.82	96805
685	2.000000	1.061493	7.37176e+06	-42839.1	1005.82	-29781.4	0.000000	0.000000	7.064913	81.5233	NaN	0.000000	0.001544	0.001713	28.0818	39.3751	0.001852	21260	6.363173	177.818	78.5286	1.061219	0.035355	0.035080	81.5233	21260	0.032479	0.046039	1770.76	90526.5
685	2.000000	1.063560	7.37176e+06	-42839.1	1005.82	-29781.3	0.000000	0.000000	7.067004	82.1266	NaN	0.000000	0.001580	0.001730	28.0817	41.4533	0.001697	24432.5	7.448740	174.844	82.5093	1.063331	0.037421	0.037192	82.1266	24432.5	0.034900	0.051513	1594.29	98351.7
685	2.000000	1.065525	7.37176e+06	-42839.1	1005.82	-29781.4	0.000000	0.000000	7.069451	93.8441	NaN	0.000000	0.001584	0.001714	28.0817	42.1279	0.001763	23890.3	3.366542	179.269	92.3811	1.065253	0.039386	0.039114	93.8441	23890.3	0.036440	0.055153	1701.53	92941.6
685	2.000000	1.067572	7.37176e+06	-42839.1	1005.82	-29781.4	0.000000	0.000000	7.071788	100.879	NaN	0.000000	0.001565	0.001752	28.0818	45.3479	0.001752	25890.9	5.339714	175.936	101.395	1.067213	0.041433	0.041074	100.879	25890.9	0.038511	0.060237	1674.68	96379.8
685	2.000000	1.069673	7.37176e+06	-42839.1	1005.82	-29781.4	0.000000	0.000000	7.074128	106.709	NaN	0.000000	0.001566	0.001737	28.0818	47.8071	0.001869	25584.1	9.930600	173.819	112.904	1.069221	0.043534	0.043083	106.709	25584.1	0.040406	0.065081	1639.62	91625
685	2.000000	1.071540	7.37176e+06	-42839.1	1005.82	-29781.4	0.000000	0.000000	7.076371	115.845	NaN	0.000000	0.001581	0.001727	28.0819	49.9421	0.001917	26047.7	8.136590	174.302	114.884	1.071184	0.045402	0.045046	115.845	26047.7	0.042066	0.069477	1667.4	90286.8
685	2.000000	1.073589	7.37176e+06	-42839.1	1005.82	-29781.4	0.000000	0.000000	7.078978	129.434	NaN	0.000000	0.001580	0.001759	28.0823	52.0373	0.001773	29343.7	7.080098	174.569	129.955	1.073128	0.047451	0.046989	129.434	29343.7	0.044142	0.075171	1721.85	97782.6
685	2.000000	1.075493	7.37176e+06	-42839.1	1005.82	-29781.3	0.000000	0.000000	7.081264	138.721	NaN	0.000000	0.001584	0.001718	28.0821	52.3819	0.001777	29481.5	7.793419	173.32	135.592	1.075122	0.049355	0.048983	138.721	29481.5	0.045826	0.079949	1735.12	95261.4
685	2.000000	1.077548	7.37176e+06	-42839.1	1005.82	-29781.4	0.000000	0.000000	7.083695	147.868	NaN	0.000000	0.001585	0.001732	28.0818	55.2792	0.001856	29781	6.887157	174.567	148.045	1.077203	0.051410	0.051065	147.868	29781	0.047686	0.085395	1731.58	93110.1
685	2.000000	1.079476	7.37176e+06	-42839.1	1005.82	-29781.3	0.000000	0.000000	7.085987	156.726	NaN	0.000000	0.001556	0.001699	28.0819	56.1772	0.001912	29374.3	3.068559	177.617	152.727	1.079228	0.053338	0.053089	156.726	29374.3	0.049336	0.090372	1734.25	89274.1
685	2.000000	1.081562	7.37176e+06	-42839.1	1005.82	-29781.3	0.000000	0.000000	7.088414	165.013	NaN	0.000000	0.001530	0.001752	28.082	57.4267	0.001815	31646.9	4.500808	176.588	166.362	1.081227	0.055424	0.055089	165.013	31646.9	0.051513	0.097147	1698.58	92766.1
685	2.000000	1.083546	7.37176e+06	-42839.1	1005.82	-29781.4	0.000000	0.000000	7.090823	175.372	NaN	0.000000	0.001553	0.001755	28.0821	59.7871	0.001748	34204.2	4.543824	174.767	175.458	1.083269	0.057407	0.057131	175.372	34204.2	0.053562	0.103740	1690.49	97024.3
685	2.000000	1.085481	7.37176e+06	-42839.1	1005.82	-29781.4	0.000000	0.000000	7.093251	187.369	NaN	0.000000	0.001528	0.001724	28.0821	59.9937	0.001676	35788	0.772216	177.988	185.191	1.085137	0.059343	0.058998	187.369	35788	0.055416	0.109885	1705.13	98637.2
685	2.000000	1.087509	7.37176e+06	-42839.1	1005.82	-29781.4	0.000000	0.000000	7.095717	198.017	NaN	0.000000	0.001540	0.001742	28.081	63.9082	0.001817	35172.4	6.198541	173.091	197.119	1.087203	0.061370	0.061064	198.017	35172.4	0.057148	0.115780	1710.29	94440.6
685	2.000000	1.089467	7.37176e+06	-42839.1	1005.82	-29781.4	0.000000	0.000000	7.098343	214.257	NaN	0.000000	0.001544	0.001681	28.0808	65.3386	0.001818	35944.1	2.480840	176.885	209.772	1.089151	0.063329	0.063012	214.257	35944.1	0.058858	0.121745	1759.88	94118.3
685	2.000000	1.091497	7.37176e+06	-42839.1	1005.82	-29781.4	0.000000	0.000000	7.100741	223.225	NaN	0.000000	0.001601	0.001721	28.0807	66.5687	0.001730	38474.2	2.510579	175.979	221.632	1.091187	0.065358	0.065049	223.225	38474.2	0.061007	0.129444	1724.49	97701.7
685	2.000000	1.093431	7.37176e+06	-42839.1	1005.82	-29781.4	0.000000	0.000000	7.103387	240.545	NaN	0.000000	0.001563	0.001736	28.0808	69.3656	0.001801	38508.3	1.393934	176.683	234.716	1.093198	0.067293	0.067060	240.545	38508.3	0.062608	0.135325	1777.54	95639.7
685	2.000000	1.095524	7.37176e+06	-42839.1	1005.82	-29781.4	0.000000	0.000000	7.105933	251.564	NaN	0.000000	0.001610	0.001735	28.0807	71.0402	0.001730	41063.2	7.486866	171.752	251.968	1.095128	0.069386	0.068990	251.564	41063.2	0.064791	0.143546	1752.49	99021.8
685	2.000000	1.097508	7.37176e+06	-42839.1	1005.82	-29781.4	0.000000	0.000000	7.108602	268.233	NaN	0.000000	0.001571	0.001780	28.0807	71.8697	0.001664	43196.6	-0.387126	178.162	268.765	1.097178	0.071369	0.071039	268.233	43196.6	0.066712	0.150971	1776.72	101572
685	2.000000	1.099475	7.37176e+06	-42839.1	1005.82	-29781.3	0.000000	0.000000	7.111237	284.487	NaN	0.000000	0.001530	0.001753	28.0808	75.2763	0.001740	43252.3	6.831801	171.803	281.545	1.099059	0.073337	0.072921	284.487	43252.3	0.068404	0.157654	1804.5	99524.3
685	2.000000	1.101593	7.37176e+06	-42839.1	1005.82	-29781.4	0.000000	0.000000	7.113756	294.234	NaN	0.000000	0.001541	0.001733	28.0806	78.0889	0.001834	42572.7	8.726767	170.038	297.761	1.101139	0.075455	0.075000	294.234	42572.7	0.070271	0.165193	1781.15	95699.2
685	2.000000	1.103430	7.37176e+06	-42839.1	1005.82	-29781.4	0.000000	0.000000	7.116151	307.82	NaN	0.000000	0.001560	0.001719	28.0807	78.9284	0.001880	41987.8	-0.034203	178.315	302.79	1.103040	0.077291	0.076901	307.82	41987.8	0.071793	0.171458	1795.3	92643.8
685	2.000000	1.105453	7.37176e+06	-42839.1	1005.82	-29781.4	0.000000	0.000000	7.118428	313.993	NaN	0.000000	0.001570	0.001740	28.0806	79.4288	0.001782	44573.4	0.066185	176.716	310.047	1.105300	0.079314	0.079161	313.993	44573.4	0.074031	0.180872	1736	95755.4
685	2.000000	1.107484	7.37176e+06	-42839.1	1005.82	-29781.4	0.000000	0.000000	7.121273	333.816	NaN	0.000000	0.001539	0.001768	28.0807	83.7588	0.001816	46122.6	7.012837	170.124	333.132	1.107141	0.081345	0.081002	333.816	46122.6	0.075917	0.188988	1766.34	96932.7
685	2.000000	1.109446	7.37176e+06	-42839.1	1005.82	-29781.4	0.000000	0.000000	7.123876	349.415	NaN	0.000000	0.001583	0.001739	28.0808	85.1548	0.001818	46839.5	4.201495	173.778	345.129	1.109001	0.083307	0.082862	349.415	46839.5	0.077712	0.196867	1774.88	96449.4
685	2.000000	1.111480	7.37176e+06	-42839.1	1005.82	-29781.4	0.000000	0.000000	7.126303	358.956	NaN	0.000000	0.001577	0.001764	28.0808	86.271	0.001878	45947	2.297567	175.123	359.17	1.111163	0.085342	0.085024	358.956	45947	0.079482	0.204785	1752.85	92764.5
685	2.000000	1.113566	7.37176e+06	-42839.1	1005.82	-29781.4	0.000000	0.000000	7.129119	376.723	NaN	0.000000	0.001582	0.001750	28.0805	88.7969	0.001865	47618.3	6.668805	170.861	377.947	1.113059	0.087428	0.086920	376.723	47618.3	0.081494	0.213962	1760.7	94054.3
685	2.000000	1.115496	7.37176e+06	-42839.1	1005.82	-29781.3	0.000000	0.000000	7.131679	392.049	NaN	0.000000	0.001578	0.001728	28.0809	88.6756	0.001769	50135.4	4.117360	173.031	391.478	1.115070	0.089358	0.088931	392.049	50135.4	0.083493	0.223264	1755.99	96941.1
685	2.000000	1.117559	7.37176e+06	-42839.1	1005.82	-29781.4	0.000000	0.000000	7.134141	401.758	NaN	0.000000	0.001565	0.001760	28.0808	91.0131	0.001762	51663.7	0.820476	175.487	404.502	1.117232	0.091421	0.091093	401.758	51663.7	0.085588	0.233216	1722.68	97741.6
685	2.000000	1.119442	7.37176e+06	-42839.1	1005.82	-29781.4	0.000000	0.000000	7.136918	423.531	NaN	0.000000	0.001554	0.001751	28.0809	92.8851	0.001807	51404.7	2.982431	173.518	421.151	1.119300	0.093303	0.093161	423.531	51404.7	0.087124	0.240636	1760.05	95740.5
685	2.000000	1.121432	7.37176e+06	-42839.1	1005.82	-29781.4	0.000000	0.000000	7.139289	432.764	NaN	0.000000	0.001579	0.001720	28.0819	94.2562	0.001810	52061	1.176755	174.855	429.868	1.121232	0.095294	0.095094	432.764	52061	0.089059	0.250146	1730.04	95101.7
685	2.000000	1.123500	7.37176e+06	-42839.1	1005.82	-29781.4	0.000000	0.000000	7.142258	454.701	NaN	0.000000	0.001591	0.001686	28.0817	97.441	0.001815	53697.7	3.693329	172.398	454.779	1.123169	0.097361	0.097030	454.701	53697.7	0.091010	0.259904	1749.49	96232.6
685	2.000000	1.125586	7.37176e+06	-42839.1	1005.82	-29781.4	0.000000	0.000000	7.144948	469.383	NaN	0.000000	0.001599	0.001681	28.082	98.5861	0.001790	55062.8	5.130229	170.592	474.431	1.125102	0.099448	0.098964	469.383	55062.8	0.093054	0.270316	1736.42	96759.9
685	2.000000	1.127436	7.37176e+06	-42839.1	1005.82	-29781.4	0.000000	0.000000	7.147526	487.116	NaN	0.000000	0.001568	0.001682	28.0819	101.586	0.001872	54257.3	4.639118	171.187	481.983	1.127018	0.101298	0.100879	487.116	54257.3	0.094564	0.278129	1751.41	93995.8
685	2.000000	1.128989	7.37176e+06	-42839.1	1005.82	-29781.4	0.000000	0.000000	7.149474	496.719	NaN	0.000000	0.001576	0.001670	28.0819	102.43	0.001793	57128.4	5.208937	-10.0879	495.096	1.128742	0.102850	0.102603	496.719	57128.4	0.096329	0.287395	1728.35	97361.2