File: remote_trans/data/nanoindenter/0828-1/data/Data_2025-08-06,11h17m57s/2025-07-22_16-23-58_1_505.txt
2025-07-22, 16:23:58, 1
Index	Phase	Displacement	Time	Pos X	Pos Y	Pos Z	Rot A	Rot B	Piezo Z	Force A	Force B	Gripper	Voltage A	Voltage B	Temperature	Amplitude force	Amplitude pos	Stiffness	Phase shift	Phase excitation	Force A raw	Displacement raw	HMax	HMax raw	Real Force	Real Stiffness	Contact Depth	Area	Hardness	Reduced Mod.
[#]	[#]	[um]	[s]	[um]	[um]	[um]	[m°]	[m°]	[um]	[uN]	[uN]	[V]	[V]	[V]	[°C]	[uN]	[um]	[N/m]	[°]	[°]	[uN]	[um]	[um]	[um]	[uN]	[N/m]	[um]	[um^2]	[MPa]	[MPa]
505	1.000000	0.002082	7.36999e+06	-51839.1	1005.82	-29751	0.000000	0.000000	6.002792	0.112311	NaN	0.000000	0.001554	0.001724	28.0827	0.087451	0.000921	94.9935	-68.0714	-170.137	0.078973	0.000794	-1.136569	-1.137857	0.112311	94.9935	-1.137456	-1.594486E+15	-7.043722E-17	NaN
505	1.000000	0.012134	7.36999e+06	-51839.1	1005.82	-29751	0.000000	0.000000	6.012838	-0.021366	NaN	0.000000	0.001552	0.001686	28.0826	0.077454	0.001180	65.6116	41.3792	16.5141	-0.024974	0.010743	-1.126518	-1.127908	-0.021366	65.6116	-1.126273	-1.128844E+15	1.892710E-17	NaN
505	1.000000	0.022022	7.36999e+06	-51839.1	1005.82	-29751	0.000000	0.000000	6.022728	0.026047	NaN	0.000000	0.001535	0.001695	28.0827	0.035365	0.001797	19.6842	82.5243	-163.939	-0.028451	0.020718	-1.116629	-1.117933	0.026047	19.6842	-1.117622	-8.640990E+14	-3.014344E-17	NaN
505	1.000000	0.032026	7.36999e+06	-51839.1	1005.82	-29751	0.000000	0.000000	6.032730	-0.012044	NaN	0.000000	0.001541	0.001714	28.0826	0.037147	0.001862	19.9519	130.298	19.1765	0.107452	0.030693	-1.106625	-1.107958	-0.012044	19.9519	-1.106173	-6.066260E+14	1.985433E-17	NaN
505	1.000000	0.042045	7.36999e+06	-51839.1	1005.82	-29751	0.000000	0.000000	6.042749	-0.040424	NaN	0.000000	0.001530	0.001755	28.0829	0.022073	0.001992	11.0784	-94.6884	-164.811	-0.035813	0.040738	-1.096606	-1.097914	-0.040424	11.0784	-1.093869	-4.147273E+14	9.747172E-17	NaN
505	1.000000	0.052042	7.36999e+06	-51839.1	1005.82	-29751	0.000000	0.000000	6.052748	0.010612	NaN	0.000000	0.001516	0.001720	28.083	0.087411	0.002050	42.6484	38.7127	19.7906	0.079655	0.050685	-1.086609	-1.087966	0.010612	42.6484	-1.086796	-3.332628E+14	-3.184147E-17	NaN
505	1.000000	0.062090	7.36999e+06	-51839.1	1005.82	-29751	0.000000	0.000000	6.062794	-0.025307	NaN	0.000000	0.001564	0.001734	28.0825	0.046698	0.002061	22.6541	-135.479	-167.563	0.032312	0.060719	-1.076561	-1.077933	-0.025307	22.6541	-1.075723	-2.366307E+14	1.069472E-16	NaN
505	1.000000	0.072056	7.36999e+06	-51839.1	1005.82	-29751	0.000000	0.000000	6.072760	-0.034974	NaN	0.000000	0.001530	0.001733	28.0827	0.111788	0.002015	55.4655	78.9823	12.785	-0.058619	0.070678	-1.066595	-1.067973	-0.034974	55.4655	-1.066122	-1.758273E+14	1.989093E-16	NaN
505	1.000000	0.082062	7.36999e+06	-51839.1	1005.82	-29751	0.000000	0.000000	6.082765	-0.041497	NaN	0.000000	0.001530	0.001736	28.0827	0.014834	0.001960	7.568939	-26.7208	-163.519	-0.060928	0.080773	-1.056589	-1.057879	-0.041497	7.568939	-1.052477	-1.152695E+14	3.599967E-16	NaN
505	1.000000	0.092046	7.36999e+06	-51839.1	1005.82	-29751	0.000000	0.000000	6.092752	0.040879	NaN	0.000000	0.001537	0.001694	28.0827	0.136140	0.001946	69.9704	0.210379	13.4433	0.014135	0.090687	-1.046606	-1.047964	0.040879	69.9704	-1.047044	-9.742542E+13	-4.195906E-16	NaN
505	1.000000	0.102052	7.36999e+06	-51839.1	1005.82	-29751	0.000000	0.000000	6.102756	-0.008985	NaN	0.000000	0.001586	0.001745	28.0813	0.072930	0.001882	38.7569	145.727	-164.252	-0.078184	0.100739	-1.036600	-1.037912	-0.008985	38.7569	-1.036426	-7.013002E+13	1.281132E-16	NaN
505	1.000000	0.112055	7.36999e+06	-51839.1	1005.82	-29751	0.000000	0.000000	6.112759	-0.030277	NaN	0.000000	0.001595	0.001735	28.0815	0.035440	0.001913	18.5214	-57.4924	16.0834	-0.039982	0.110721	-1.026596	-1.027930	-0.030277	18.5214	-1.025370	-4.979713E+13	6.080146E-16	NaN
505	1.000000	0.122045	7.36999e+06	-51839.1	1005.82	-29751	0.000000	0.000000	6.122749	-0.020401	NaN	0.000000	0.001565	0.001699	28.0819	0.059637	0.001998	29.8505	-118.865	-166.217	-0.013306	0.120780	-1.016606	-1.017871	-0.020401	29.8505	-1.016094	-3.735871E+13	5.460941E-16	NaN
505	1.000000	0.132092	7.36999e+06	-51839.1	1005.82	-29751	0.000000	0.000000	6.132797	0.007095	NaN	0.000000	0.001570	0.001733	28.0816	0.027594	0.002018	13.6716	-156.345	12.5244	0.007672	0.130742	-1.006559	-1.007910	0.007095	13.6716	-1.006949	-2.813918E+13	-2.521476E-16	NaN
505	1.000000	0.142077	7.36999e+06	-51839.1	1005.82	-29751	0.000000	0.000000	6.142782	-0.004275	NaN	0.000000	0.001565	0.001742	28.0815	0.049233	0.001989	24.758	-14.4742	-162.621	-0.074367	0.140837	-0.996574	-0.997814	-0.004275	24.758	-0.996445	-2.031889E+13	2.103710E-16	NaN
505	1.000000	0.152073	7.36999e+06	-51839.1	1005.82	-29751	0.000000	0.000000	6.152779	0.018906	NaN	0.000000	0.001581	0.001720	28.0818	0.035005	0.001900	18.42	-170.653	13.698	0.045355	0.150731	-0.986578	-0.987921	0.018906	18.42	-0.987348	-1.532479E+13	-1.233655E-15	NaN
505	1.000000	0.162101	7.36999e+06	-51839.1	1005.82	-29751	0.000000	0.000000	6.162802	-0.093314	NaN	0.000000	0.001556	0.001708	28.0815	0.018301	0.002003	9.137534	89.9995	-163.704	-0.070319	0.160786	-0.976550	-0.977865	-0.093314	9.137534	-0.968891	-8.644109E+12	1.079509E-14	NaN
505	1.000000	0.172072	7.36999e+06	-51839.1	1005.82	-29751	0.000000	0.000000	6.172780	0.075208	NaN	0.000000	0.001557	0.001737	28.0815	0.052789	0.001865	28.3032	-58.9835	14.6146	0.020675	0.170767	-0.966580	-0.967885	0.075208	28.3032	-0.968573	-8.559073E+12	-8.786950E-15	NaN
505	1.000000	0.182080	7.36999e+06	-51839.1	1005.82	-29751	0.000000	0.000000	6.182787	0.041972	NaN	0.000000	0.001564	0.001712	28.0815	0.133602	0.002041	65.4686	78.3682	-169.277	-0.017022	0.180795	-0.956571	-0.957856	0.041972	65.4686	-0.957052	-5.985833E+12	-7.011855E-15	NaN
505	1.000000	0.192087	7.36999e+06	-51839.1	1005.82	-29751	0.000000	0.000000	6.192792	0.002664	NaN	0.000000	0.001597	0.001741	28.0816	0.070941	0.001946	36.4601	-82.3926	12.7893	0.039231	0.190728	-0.946565	-0.947923	0.002664	36.4601	-0.946619	-4.329438E+12	-6.152162E-16	NaN
505	1.000000	0.202100	7.36999e+06	-51839.1	1005.82	-29751	0.000000	0.000000	6.202806	0.021447	NaN	0.000000	0.001554	0.001678	28.0819	0.039246	0.002026	19.3669	33.5974	-163.752	0.062721	0.200865	-0.936551	-0.937786	0.021447	19.3669	-0.937382	-3.249445E+12	-6.600332E-15	NaN
505	1.000000	0.212118	7.36999e+06	-51839.1	1005.82	-29751	0.000000	0.000000	6.212824	0.023670	NaN	0.000000	0.001565	0.001651	28.0816	0.120971	0.001979	61.1178	-162.934	15.0039	0.020618	0.210771	-0.926533	-0.927880	0.023670	61.1178	-0.926824	-2.340592E+12	-1.011273E-14	NaN
505	1.000000	0.222132	7.36999e+06	-51839.1	1005.82	-29751	0.000000	0.000000	6.222838	0.018288	NaN	0.000000	0.001570	0.001644	28.0817	0.057116	0.002052	27.8293	74.4702	-161.328	0.027339	0.220772	-0.916519	-0.917880	0.018288	27.8293	-0.917012	-1.725300E+12	-1.060007E-14	NaN
505	1.000000	0.232141	7.36999e+06	-51839.1	1005.82	-29751	0.000000	0.000000	6.232844	-0.049387	NaN	0.000000	0.001569	0.001678	28.0813	0.165864	0.002117	78.3587	-53.2174	11.0548	-0.026832	0.230773	-0.906510	-0.907878	-0.049387	78.3587	-0.906038	-1.226424E+12	4.026879E-14	NaN
505	1.000000	0.242135	7.36999e+06	-51839.1	1005.82	-29751	0.000000	0.000000	6.242842	0.050981	NaN	0.000000	0.001565	0.001649	28.0825	0.017424	0.001859	9.373534	17.2529	-165.397	0.101271	0.240821	-0.896516	-0.897831	0.050981	9.373534	-0.900595	-1.035408E+12	-4.923734E-14	NaN
505	1.000000	0.252142	7.36999e+06	-51839.1	1005.82	-29751	0.000000	0.000000	6.252849	0.033375	NaN	0.000000	0.001574	0.001674	28.0827	0.105381	0.001931	54.5621	134.473	12.4519	0.007904	0.250764	-0.886509	-0.887887	0.033375	54.5621	-0.886968	-6.775236E+11	-4.925989E-14	NaN
505	1.000000	0.262117	7.36999e+06	-51839.1	1005.82	-29751	0.000000	0.000000	6.262823	0.009429	NaN	0.000000	0.001559	0.001690	28.0826	0.061531	0.002110	29.1667	-136.698	-166.465	-0.022266	0.260802	-0.876534	-0.877850	0.009429	29.1667	-0.876777	-4.933019E+11	-1.911430E-14	NaN
505	1.000000	0.272143	7.36999e+06	-51839.1	1005.82	-29751	0.000000	0.000000	6.272845	-0.059286	NaN	0.000000	0.001542	0.001696	28.0825	0.057739	0.002087	27.6618	148.232	14.4657	0.063886	0.270739	-0.866509	-0.867912	-0.059286	27.6618	-0.864901	-3.407652E+11	1.739782E-13	NaN
505	1.000000	0.282115	7.36999e+06	-51839.1	1005.82	-29751	0.000000	0.000000	6.282821	0.023444	NaN	0.000000	0.001569	0.001665	28.0824	0.069770	0.001849	37.7433	-15.5583	-164.644	-0.016009	0.280755	-0.856536	-0.857896	0.023444	37.7433	-0.857002	-2.664040E+11	-8.800151E-14	NaN
505	1.000000	0.292187	7.36999e+06	-51839.1	1005.82	-29751	0.000000	0.000000	6.292891	-0.014185	NaN	0.000000	0.001548	0.001708	28.0825	0.058592	0.001939	30.2247	-13.0424	14.1367	0.002674	0.290816	-0.846465	-0.847835	-0.014185	30.2247	-0.846113	-1.897109E+11	7.477385E-14	NaN
505	1.000000	0.302126	7.36999e+06	-51839.1	1005.82	-29751	0.000000	0.000000	6.302834	0.067980	NaN	0.000000	0.001557	0.001705	28.0824	0.043469	0.001991	21.8376	112.566	-165.006	-0.010208	0.300839	-0.836525	-0.837812	0.067980	21.8376	-0.838860	-1.513016E+11	-4.492981E-13	NaN
505	1.000000	0.312176	7.36999e+06	-51839.1	1005.82	-29751	0.000000	0.000000	6.312879	-0.045077	NaN	0.000000	0.001563	0.001705	28.0823	0.100797	0.002048	49.2064	157.52	15.9007	-0.077146	0.310814	-0.826475	-0.827838	-0.045077	49.2064	-0.825788	-1.006212E+11	4.479866E-13	NaN
505	1.000000	0.322150	7.36999e+06	-51839.1	1005.82	-29751	0.000000	0.000000	6.322857	0.041589	NaN	0.000000	0.001527	0.001711	28.0822	0.099603	0.002020	49.2985	173.131	-166.402	0.070591	0.320859	-0.816501	-0.817792	0.041589	49.2985	-0.817134	-7.679637E+10	-5.415540E-13	NaN
505	1.000000	0.332178	7.36999e+06	-51839.1	1005.82	-29751	0.000000	0.000000	6.332885	0.039187	NaN	0.000000	0.001520	0.001673	28.0823	0.030020	0.001981	15.1513	-148.762	15.7447	0.084017	0.330772	-0.806473	-0.807879	0.039187	15.1513	-0.808413	-5.848457E+10	-6.700457E-13	NaN
505	1.000000	0.342157	7.36999e+06	-51839.1	1005.82	-29751	0.000000	0.000000	6.342860	-0.040000	NaN	0.000000	0.001552	0.001698	28.0823	0.043151	0.001884	22.9032	28.8612	-164.069	-0.110059	0.340884	-0.796494	-0.797767	-0.040000	22.9032	-0.795184	-3.867992E+10	1.034130E-12	NaN
505	1.000000	0.352177	7.36999e+06	-51839.1	1005.82	-29751	0.000000	0.000000	6.352880	-0.037959	NaN	0.000000	0.001521	0.001694	28.0824	0.119689	0.002006	59.6538	-64.5984	15.532	-0.057689	0.350833	-0.786475	-0.787819	-0.037959	59.6538	-0.785997	-2.902127E+10	1.307957E-12	NaN
505	1.000000	0.362173	7.36999e+06	-51839.1	1005.82	-29751	0.000000	0.000000	6.362881	0.066685	NaN	0.000000	0.001515	0.001664	28.0826	0.029474	0.001978	14.9026	-44.3804	-163.599	-0.020708	0.360885	-0.776478	-0.777766	0.066685	14.9026	-0.779834	-2.393178E+10	-2.786462E-12	NaN
505	1.000000	0.372177	7.36999e+06	-51839.1	1005.82	-29751	0.000000	0.000000	6.372882	0.009469	NaN	0.000000	0.001524	0.001697	28.0826	0.044202	0.002069	21.3659	159.714	16.9149	0.065865	0.370822	-0.766475	-0.767829	0.009469	21.3659	-0.766807	-1.591794E+10	-5.948633E-13	NaN
505	1.000000	0.382201	7.36999e+06	-51839.1	1005.82	-29751	0.000000	0.000000	6.382908	0.065801	NaN	0.000000	0.001526	0.001666	28.0811	0.102170	0.002026	50.4338	28.7686	-166.529	0.100448	0.380894	-0.756451	-0.757757	0.065801	50.4338	-0.757429	-1.186661E+10	-5.545048E-12	NaN
505	1.000000	0.392169	7.36999e+06	-51839.1	1005.82	-29751	0.000000	0.000000	6.392875	0.018525	NaN	0.000000	0.001537	0.001665	28.0812	0.058314	0.002085	27.9734	-171.422	12.6022	-0.074047	0.390821	-0.746482	-0.747831	0.018525	27.9734	-0.746979	-8.552426E+9	-2.166063E-12	NaN
505	1.000000	0.402177	7.36999e+06	-51839.1	1005.82	-29751	0.000000	0.000000	6.402883	0.031326	NaN	0.000000	0.001544	0.001658	28.0813	0.065218	0.001954	33.3684	31.6269	-165.661	0.038421	0.400885	-0.736474	-0.737766	0.031326	33.3684	-0.737179	-6.289598E+9	-4.980538E-12	NaN
505	1.000000	0.412208	7.36999e+06	-51839.1	1005.82	-29751	0.000000	0.000000	6.412913	0.013373	NaN	0.000000	0.001563	0.001686	28.0816	0.044823	0.002055	21.8099	-124.37	15.9913	0.062563	0.410770	-0.726443	-0.727882	0.013373	21.8099	-0.726903	-4.556164E+9	-2.935058E-12	NaN
505	1.000000	0.422220	7.36999e+06	-51839.1	1005.82	-29751	0.000000	0.000000	6.422922	-0.080422	NaN	0.000000	0.001567	0.001680	28.0821	0.074755	0.001970	37.9402	-50.6208	-163.232	0.086565	0.420890	-0.716431	-0.717761	-0.080422	37.9402	-0.714841	-3.119655E+9	2.577901E-11	NaN
505	1.000000	0.432225	7.36999e+06	-51839.1	1005.82	-29751	0.000000	0.000000	6.432933	0.075626	NaN	0.000000	0.001520	0.001686	28.0816	0.027917	0.001981	14.0892	-28.222	14.1669	0.021186	0.430852	-0.706427	-0.707799	0.075626	14.0892	-0.710452	-2.717831E+9	-2.782587E-11	NaN
505	1.000000	0.442221	7.36999e+06	-51839.1	1005.82	-29751	0.000000	0.000000	6.442925	-0.031004	NaN	0.000000	0.001553	0.001696	28.0813	0.113957	0.002179	52.2914	-1.276095	-165.921	-0.029748	0.440908	-0.696430	-0.697744	-0.031004	52.2914	-0.695985	-1.724638E+9	1.797704E-11	NaN
505	1.000000	0.452209	7.36999e+06	-51839.1	1005.82	-29751	0.000000	0.000000	6.452914	0.015825	NaN	0.000000	0.001581	0.001700	28.0818	0.070948	0.002016	35.1862	-158.468	14.6338	0.041288	0.450845	-0.686443	-0.687806	0.015825	35.1862	-0.686780	-1.290940E+9	-1.225834E-11	NaN
505	1.000000	0.462213	7.36999e+06	-51839.1	1005.82	-29751	0.000000	0.000000	6.462918	0.001178	NaN	0.000000	0.001568	0.001691	28.0811	0.022189	0.001912	11.6077	-146.993	-166.085	-0.050334	0.460842	-0.676439	-0.677810	0.001178	11.6077	-0.676515	-9.344020E+8	-1.260825E-12	NaN
505	1.000000	0.472214	7.36999e+06	-51839.1	1005.82	-29751	0.000000	0.000000	6.472920	0.012516	NaN	0.000000	0.001586	0.001711	28.0812	0.100550	0.001887	53.2965	-163.468	15.5159	-0.017487	0.470836	-0.666437	-0.667816	0.012516	53.2965	-0.666613	-6.839581E+8	-1.829982E-11	NaN
505	1.000000	0.482234	7.36999e+06	-51839.1	1005.82	-29751	0.000000	0.000000	6.482938	-0.026516	NaN	0.000000	0.001554	0.001709	28.0813	0.065696	0.002003	32.7959	52.8276	-161.472	0.029912	0.480934	-0.656417	-0.657718	-0.026516	32.7959	-0.655811	-4.864893E+8	5.450450E-11	NaN
505	1.000000	0.492228	7.36999e+06	-51839.1	1005.82	-29751	0.000000	0.000000	6.492932	-0.018547	NaN	0.000000	0.001563	0.001683	28.0814	0.014815	0.002097	7.063825	115.875	17.4555	-0.026614	0.490902	-0.646424	-0.647750	-0.018547	7.063825	-0.644455	-3.399357E+8	5.455918E-11	NaN
505	1.000000	0.502245	7.36999e+06	-51839.1	1005.82	-29751	0.000000	0.000000	6.502953	0.068219	NaN	0.000000	0.001540	0.001728	28.0812	0.015473	0.001948	7.941188	-27.3623	-167.404	0.044443	0.500959	-0.636406	-0.637693	0.068219	7.941188	-0.642849	-3.231304E+8	-2.111200E-10	NaN
505	1.000000	0.512216	7.36999e+06	-51839.1	1005.82	-29751	0.000000	0.000000	6.512922	0.018308	NaN	0.000000	0.001519	0.001717	28.0824	0.062593	0.002127	29.4285	-40.5369	14.0353	0.015450	0.510892	-0.626435	-0.627759	0.018308	29.4285	-0.626902	-1.951961E+8	-9.379543E-11	NaN
505	1.000000	0.522225	7.36999e+06	-51839.1	1005.82	-29751	0.000000	0.000000	6.522932	0.048714	NaN	0.000000	0.001540	0.001696	28.0827	0.052755	0.001946	27.1039	-154.771	-164.401	0.078854	0.520894	-0.616426	-0.617757	0.048714	27.1039	-0.617774	-1.462299E+8	-3.331359E-10	NaN
505	1.000000	0.532263	7.36999e+06	-51839.1	1005.82	-29751	0.000000	0.000000	6.532971	0.073298	NaN	0.000000	0.001541	0.001668	28.0828	0.065229	0.002013	32.4011	57.7638	17.1134	0.040489	0.530939	-0.606389	-0.607713	0.073298	32.4011	-0.608085	-1.075887E+8	-6.812812E-10	NaN
505	1.000000	0.542264	7.36999e+06	-51839.1	1005.82	-29751	0.000000	0.000000	6.542967	-0.050570	NaN	0.000000	0.001534	0.001712	28.0826	0.037387	0.002012	18.5788	75.6925	-163.603	-0.008994	0.540935	-0.596387	-0.597717	-0.050570	18.5788	-0.594346	-6.959298E+7	7.266472E-10	NaN
505	1.000000	0.552244	7.36999e+06	-51839.1	1005.82	-29751	0.000000	0.000000	6.552949	0.014587	NaN	0.000000	0.001509	0.001732	28.0825	0.082254	0.001997	41.1941	46.3334	15.0792	-0.011604	0.550897	-0.586408	-0.587754	0.014587	41.1941	-0.586673	-5.454969E+7	-2.674061E-10	NaN
505	1.000000	0.562275	7.36999e+06	-51839.1	1005.82	-29751	0.000000	0.000000	6.562980	0.001170	NaN	0.000000	0.001548	0.001701	28.0829	0.045740	0.002145	21.3219	-179.187	-165.802	0.058573	0.560990	-0.576377	-0.577662	0.001170	21.3219	-0.576418	-3.938015E+7	-2.971735E-11	NaN
505	1.000000	0.572262	7.36999e+06	-51839.1	1005.82	-29751	0.000000	0.000000	6.572968	0.016305	NaN	0.000000	0.001526	0.001721	28.0825	0.072795	0.002052	35.4695	-35.3315	14.4303	0.067758	0.570862	-0.566389	-0.567789	0.016305	35.4695	-0.566734	-2.893956E+7	-5.634067E-10	NaN
505	1.000000	0.582280	7.36999e+06	-51839.1	1005.82	-29751	0.000000	0.000000	6.582984	-0.013214	NaN	0.000000	0.001515	0.001727	28.0825	0.079593	0.001892	42.0742	-143.262	-164.306	-0.034910	0.580950	-0.556371	-0.557701	-0.013214	42.0742	-0.556136	-2.064950E+7	6.399397E-10	NaN
505	1.000000	0.592285	7.36999e+06	-51839.1	1005.82	-29751	0.000000	0.000000	6.592989	-0.038547	NaN	0.000000	0.001541	0.001696	28.0826	0.088563	0.002049	43.2261	20.7047	10.7757	0.007379	0.590890	-0.546366	-0.547762	-0.038547	43.2261	-0.545697	-1.480274E+7	2.604014E-9	NaN
505	1.000000	0.602267	7.36999e+06	-51839.1	1005.82	-29751	0.000000	0.000000	6.602972	0.011792	NaN	0.000000	0.001530	0.001733	28.0827	0.087087	0.002140	40.7028	128.44	-164.924	0.022993	0.600962	-0.536385	-0.537689	0.011792	40.7028	-0.536602	-1.107187E+7	-1.065024E-9	NaN
505	1.000000	0.612274	7.36999e+06	-51839.1	1005.82	-29751	0.000000	0.000000	6.612980	0.009587	NaN	0.000000	0.001566	0.001686	28.0825	0.132503	0.001981	66.8915	-21.0299	12.6635	0.033903	0.610936	-0.526377	-0.527716	0.009587	66.8915	-0.526485	-8.01199e+06	-1.196576E-9	NaN
505	1.000000	0.622279	7.36999e+06	-51839.1	1005.82	-29751	0.000000	0.000000	6.622983	-0.021142	NaN	0.000000	0.001555	0.001698	28.0824	0.182193	0.002021	90.131	-13.8763	-162.008	0.028951	0.620945	-0.516373	-0.517706	-0.021142	90.131	-0.516197	-5.76351e+06	3.668216E-9	NaN
505	1.000000	0.632277	7.36999e+06	-51839.1	1005.82	-29751	0.000000	0.000000	6.632982	0.007154	NaN	0.000000	0.001531	0.001698	28.0827	0.032706	0.001928	16.9618	104.524	13.3008	0.083184	0.630936	-0.506374	-0.507715	0.007154	16.9618	-0.506691	-4.24922e+06	-1.683664E-9	NaN
505	1.000000	0.642296	7.36999e+06	-51839.1	1005.82	-29751	0.000000	0.000000	6.643002	0.023237	NaN	0.000000	0.001536	0.001678	28.0827	0.036379	0.002003	18.1616	169.615	-165.556	0.037222	0.640977	-0.496355	-0.497674	0.023237	18.1616	-0.497315	-3.1445e+06	-7.389773E-9	NaN
505	1.000000	0.652312	7.36999e+06	-51839.1	1005.82	-29751	0.000000	0.000000	6.653020	0.071786	NaN	0.000000	0.001590	0.001720	28.0815	0.119719	0.002037	58.7849	96.838	16.6029	0.049036	0.650935	-0.486340	-0.487716	0.071786	58.7849	-0.487255	-2.27525e+06	-3.155072E-8	NaN
505	1.000000	0.662304	7.36999e+06	-51839.1	1005.82	-29751	0.000000	0.000000	6.663008	-0.024980	NaN	0.000000	0.001535	0.001647	28.0813	0.029378	0.002033	14.4484	-155.551	-164.635	0.014808	0.661015	-0.476347	-0.477636	-0.024980	14.4484	-0.475050	-1.53533e+06	1.626989E-8	NaN
505	1.000000	0.672315	7.36999e+06	-51839.1	1005.82	-29751	0.000000	0.000000	6.673021	0.016742	NaN	0.000000	0.001549	0.001662	28.0813	0.140597	0.002011	69.9055	148.165	12.8136	-0.073528	0.670927	-0.466336	-0.467724	0.016742	69.9055	-0.466516	-1.16554e+06	-1.436424E-8	NaN
505	1.000000	0.682270	7.36999e+06	-51839.1	1005.82	-29751	0.000000	0.000000	6.682975	0.016968	NaN	0.000000	0.001543	0.001686	28.0815	0.122336	0.001862	65.6864	-7.192875	-166.624	-0.006257	0.680992	-0.456382	-0.457659	0.016968	65.6864	-0.456576	-845041	-2.007996E-8	NaN
505	1.000000	0.692340	7.36999e+06	-51839.1	1005.82	-29751	0.000000	0.000000	6.693047	0.051234	NaN	0.000000	0.001587	0.001679	28.0813	0.062362	0.001989	31.3511	-112.318	14.255	0.066526	0.690931	-0.446311	-0.447720	0.051234	31.3511	-0.447537	-630441	-8.126670E-8	NaN
505	1.000000	0.702289	7.36999e+06	-51839.1	1005.82	-29751	0.000000	0.000000	6.702995	0.019971	NaN	0.000000	0.001550	0.001658	28.0814	0.048003	0.002022	23.7411	26.947	-165.967	0.020256	0.700991	-0.436362	-0.437661	0.019971	23.7411	-0.436993	-447619	-4.461544E-8	NaN
505	1.000000	0.712358	7.36999e+06	-51839.1	1005.82	-29751	0.000000	0.000000	6.713061	-0.048073	NaN	0.000000	0.001559	0.001662	28.0814	0.048028	0.002028	23.6828	-129.156	15.7983	0.035270	0.710987	-0.426293	-0.427664	-0.048073	23.6828	-0.424770	-300629	1.599093E-7	NaN
505	1.000000	0.722331	7.36999e+06	-51839.1	1005.82	-29751	0.000000	0.000000	6.723035	-0.036275	NaN	0.000000	0.001545	0.001671	28.0814	0.053218	0.001921	27.7052	-136.303	-163.975	-0.042713	0.720992	-0.416320	-0.417659	-0.036275	27.7052	-0.415338	-220930	1.641905E-7	NaN
505	1.000000	0.732320	7.36999e+06	-51839.1	1005.82	-29751	0.000000	0.000000	6.733027	0.036554	NaN	0.000000	0.001548	0.001701	28.0811	0.078553	0.002078	37.8099	157.731	12.0722	-0.011910	0.730942	-0.406331	-0.407709	0.036554	37.8099	-0.407056	-168470	-2.169764E-7	NaN
505	1.000000	0.742327	7.36999e+06	-51839.1	1005.82	-29751	0.000000	0.000000	6.743031	-0.028340	NaN	0.000000	0.001538	0.001692	28.0812	0.063776	0.002044	31.2089	-145.538	-164.161	-0.027552	0.741079	-0.396324	-0.397573	-0.028340	31.2089	-0.395643	-115830	2.446681E-7	NaN
505	1.000000	0.752331	7.36999e+06	-51839.1	1005.82	-29751	0.000000	0.000000	6.753037	0.026652	NaN	0.000000	0.001533	0.001671	28.0814	0.076907	0.002021	38.0553	44.3478	17.4925	-0.091105	0.750983	-0.386321	-0.387668	0.026652	38.0553	-0.386846	-86701.5	-3.074004E-7	NaN
505	1.000000	0.762316	7.36999e+06	-51839.1	1005.82	-29751	0.000000	0.000000	6.763022	0.033117	NaN	0.000000	0.001572	0.001682	28.0811	0.121398	0.002016	60.2145	155.254	-162.802	0.098655	0.761073	-0.376336	-0.377578	0.033117	60.2145	-0.376748	-62115	-5.331548E-7	NaN
505	1.000000	0.772384	7.36999e+06	-51839.1	1005.82	-29751	0.000000	0.000000	6.773087	-0.027702	NaN	0.000000	0.001586	0.001671	28.0812	0.037480	0.001952	19.1958	85.6163	13.5954	-0.028529	0.770988	-0.366268	-0.367663	-0.027702	19.1958	-0.365185	-42337.8	6.543196E-7	NaN
505	1.000000	0.782325	7.36999e+06	-51839.1	1005.82	-29751	0.000000	0.000000	6.783027	-0.072368	NaN	0.000000	0.001552	0.001683	28.0816	0.041801	0.001952	21.4104	146.279	-167.619	-0.112649	0.781047	-0.356326	-0.357604	-0.072368	21.4104	-0.353791	-28972.3	2.497836E-6	NaN
505	1.000000	0.792373	7.36999e+06	-51839.1	1005.82	-29751	0.000000	0.000000	6.793078	0.001557	NaN	0.000000	0.001570	0.001703	28.0826	0.085908	0.002068	41.5485	-94.381	13.0155	0.075693	0.790942	-0.346278	-0.347709	0.001557	41.5485	-0.346306	-22560.7	-6.901572E-8	NaN
505	1.000000	0.802371	7.37e+06	-51839.1	1005.82	-29751	0.000000	0.000000	6.803076	0.003739	NaN	0.000000	0.001561	0.001683	28.0826	0.101567	0.001890	53.7335	-58.8201	-164.972	0.042268	0.801085	-0.336281	-0.337567	0.003739	53.7335	-0.336333	-16145.7	-2.315896E-7	NaN
505	1.000000	0.812352	7.37e+06	-51839.1	1005.82	-29751	0.000000	0.000000	6.813059	0.035756	NaN	0.000000	0.001533	0.001678	28.0825	0.032785	0.002119	15.4691	113.342	9.972821	0.021862	0.811017	-0.326299	-0.327634	0.035756	15.4691	-0.328032	-12207.4	-2.929039E-6	NaN
505	1.000000	0.822387	7.37e+06	-51839.1	1005.82	-29751	0.000000	0.000000	6.823092	0.012735	NaN	0.000000	0.001561	0.001679	28.0828	0.136074	0.002024	67.2148	109.643	-166.37	0.022460	0.821060	-0.316265	-0.317591	0.012735	67.2148	-0.316407	-8235.74	-1.546313E-6	NaN
505	1.000000	0.832361	7.37e+06	-51839.1	1005.82	-29751	0.000000	0.000000	6.833064	-0.034168	NaN	0.000000	0.001566	0.001712	28.0825	0.059246	0.001826	32.4524	72.8136	13.8336	0.017536	0.831018	-0.306291	-0.307633	-0.034168	32.4524	-0.305501	-5680.53	6.014997E-6	NaN
505	1.000000	0.842364	7.37e+06	-51839.1	1005.82	-29751	0.000000	0.000000	6.843069	-0.002567	NaN	0.000000	0.001533	0.001722	28.0826	0.055791	0.002003	27.847	152.572	-163.044	-0.075262	0.841076	-0.296287	-0.297575	-0.002567	27.847	-0.296218	-4133.02	6.209818E-7	NaN
505	1.000000	0.852385	7.37e+06	-51839.1	1005.82	-29751	0.000000	0.000000	6.853090	-0.001717	NaN	0.000000	0.001554	0.001683	28.083	0.098806	0.001981	49.8745	102.239	13.0206	0.041188	0.850972	-0.286267	-0.287679	-0.001717	49.8745	-0.286241	-2930.28	5.858375E-7	NaN
505	1.000000	0.862378	7.37e+06	-51839.1	1005.82	-29751	0.000000	0.000000	6.863086	0.073457	NaN	0.000000	0.001570	0.001661	28.0829	0.083664	0.001904	43.947	131.48	-165.378	0.004745	0.861058	-0.276273	-0.277593	0.073457	43.947	-0.277527	-2165.84	-3.391599E-5	NaN
505	1.000000	0.872389	7.37e+06	-51839.1	1005.82	-29751	0.000000	0.000000	6.873097	0.085099	NaN	0.000000	0.001595	0.001678	28.0828	0.061116	0.001990	30.71	94.6394	13.8519	0.064828	0.871000	-0.266263	-0.267652	0.085099	30.71	-0.268341	-1571.47	-5.415218E-5	NaN
505	1.000000	0.882398	7.37e+06	-51839.1	1005.82	-29751	0.000000	0.000000	6.883101	-0.031573	NaN	0.000000	0.001580	0.001677	28.0826	0.049284	0.002056	23.9667	-44.9212	-166.904	0.047492	0.881084	-0.256254	-0.257568	-0.031573	23.9667	-0.255266	-991.302	3.185052E-5	NaN
505	1.000000	0.892367	7.37e+06	-51839.1	1005.82	-29751	0.000000	0.000000	6.893073	0.031608	NaN	0.000000	0.001591	0.001706	28.0829	0.136007	0.001996	68.1404	152.826	13.8401	-0.012740	0.890982	-0.246284	-0.247669	0.031608	68.1404	-0.246632	-729.121	-4.335070E-5	NaN
505	1.000000	0.902403	7.37e+06	-51839.1	1005.82	-29751	0.000000	0.000000	6.903108	0.003348	NaN	0.000000	0.001524	0.001676	28.0826	0.152625	0.002068	73.7918	-153.444	-165.825	0.050820	0.901078	-0.236248	-0.237574	0.003348	73.7918	-0.236282	-502.774	-6.659945E-6	NaN
505	1.000000	0.912426	7.37e+06	-51839.1	1005.82	-29751	0.000000	0.000000	6.913130	-0.018985	NaN	0.000000	0.001559	0.001715	28.083	0.020872	0.001952	10.6905	-38.4166	15.1078	0.063761	0.911094	-0.226225	-0.227558	-0.018985	10.6905	-0.224893	-332.386	5.711793E-5	NaN
505	1.000000	0.922438	7.37e+06	-51839.1	1005.82	-29751	0.000000	0.000000	6.923144	0.022922	NaN	0.000000	0.001558	0.001719	28.0815	0.111700	0.002012	55.5282	-109.205	-165.051	0.005758	0.921084	-0.216214	-0.217567	0.022922	55.5282	-0.216523	-244.337	-9.381280E-5	NaN
505	1.000000	0.932419	7.37e+06	-51839.1	1005.82	-29751	0.000000	0.000000	6.933123	-0.034424	NaN	0.000000	0.001536	0.001711	28.082	0.036073	0.002057	17.5367	76.6764	17.6668	0.012383	0.931027	-0.206232	-0.207625	-0.034424	17.5367	-0.204760	-157.632	0.000218	NaN
505	1.000000	0.942423	7.37e+06	-51839.1	1005.82	-29751	0.000000	0.000000	6.943127	-0.025291	NaN	0.000000	0.001596	0.001730	28.0814	0.183569	0.002059	89.1466	-174.323	-167.36	-0.075574	0.941083	-0.196228	-0.197568	-0.025291	89.1466	-0.196015	-113.241	0.000223	NaN
505	1.000000	0.952410	7.37e+06	-51839.1	1005.82	-29751	0.000000	0.000000	6.953114	-0.017357	NaN	0.000000	0.001593	0.001717	28.0817	0.069065	0.001871	36.9134	80.5702	17.8417	-0.027567	0.951095	-0.186241	-0.187556	-0.017357	36.9134	-0.185889	-76.7536	0.000226	NaN
505	1.000000	0.962415	7.37e+06	-51839.1	1005.82	-29751	0.000000	0.000000	6.963124	0.085986	NaN	0.000000	0.001581	0.001753	28.0814	0.062466	0.001921	32.525	138.511	-166.781	-0.008452	0.961101	-0.176236	-0.177550	0.085986	32.525	-0.178219	-56.9004	-0.001511	NaN
505	1.000000	0.972433	7.37e+06	-51839.1	1005.82	-29751	0.000000	0.000000	6.973137	-0.011753	NaN	0.000000	0.001440	0.001723	28.0818	0.034378	0.001982	17.3434	151.612	12.4889	-0.013072	0.971087	-0.166219	-0.167565	-0.011753	17.3434	-0.165711	-34.5759	0.000340	NaN
505	1.000000	0.982413	7.37e+06	-51839.1	1005.82	-29751	0.000000	0.000000	6.983115	-0.077810	NaN	0.000000	0.001498	0.001702	28.0814	0.056980	0.002023	28.1693	-48.672	-164.911	0.000810	0.981111	-0.156239	-0.157541	-0.077810	28.1693	-0.154167	-21.5562	0.003610	NaN
505	1.000000	0.992437	7.37e+06	-51839.1	1005.82	-29751	0.000000	0.000000	6.993143	0.015317	NaN	0.000000	0.001507	0.001690	28.0815	0.050946	0.002040	24.9732	159.739	10.4718	0.033272	0.991023	-0.146214	-0.147628	0.015317	24.9732	-0.146674	-15.7421	-0.000973	NaN
505	1.000000	1.002453	7.37e+06	-51839.1	1005.82	-29751	0.000000	0.000000	7.003156	-0.040837	NaN	0.000000	0.001517	0.001711	28.0815	0.095882	0.002063	46.486	120.084	-166.882	-0.009782	1.001064	-0.136199	-0.137587	-0.040837	46.486	-0.135540	-9.740541	0.004193	NaN
505	1.000000	1.012465	7.37e+06	-51839.1	1005.82	-29751	0.000000	0.000000	7.013170	-0.007123	NaN	0.000000	0.001527	0.001718	28.0815	0.060082	0.002011	29.8704	-115.751	14.6549	-0.017683	1.011038	-0.126186	-0.127613	-0.007123	29.8704	-0.126007	-6.366295	0.001119	NaN
505	1.000000	1.022434	7.37e+06	-51839.1	1005.82	-29751	0.000000	0.000000	7.023140	0.025193	NaN	0.000000	0.001519	0.001711	28.0816	0.056193	0.001929	29.1285	-108.846	-168.727	0.021782	1.021122	-0.116217	-0.117530	0.025193	29.1285	-0.116866	-4.172699	-0.006038	NaN
505	1.000000	1.032441	7.37e+06	-51839.1	1005.82	-29751	0.000000	0.000000	7.033144	-0.053731	NaN	0.000000	0.001557	0.001732	28.0816	0.040551	0.002076	19.5365	-122.545	13.746	-0.089709	1.031150	-0.106210	-0.107501	-0.053731	19.5365	-0.104148	-2.252811	0.023851	NaN
505	1.000000	1.042444	7.37e+06	-51839.1	1005.82	-29751	0.000000	0.000000	7.043147	-0.051747	NaN	0.000000	0.001585	0.001715	28.0817	0.072426	0.001952	37.1115	-36.0442	-164.16	-0.060529	1.041115	-0.096207	-0.097537	-0.051747	37.1115	-0.095162	-1.422639	0.036374	NaN
505	1.000000	1.052435	7.37e+06	-51839.1	1005.82	-29751	0.000000	0.000000	7.053140	-0.008619	NaN	0.000000	0.001581	0.001715	28.0818	0.053776	0.002023	26.5885	-12.9504	14.7705	0.014922	1.051081	-0.086216	-0.087570	-0.008619	26.5885	-0.085973	-0.867285	0.009938	NaN
505	1.000000	1.062454	7.37e+06	-51839.1	1005.82	-29751	0.000000	0.000000	7.063158	-0.012113	NaN	0.000000	0.001549	0.001678	28.0827	0.057767	0.002180	26.5039	-35.0507	-166.623	0.001911	1.061162	-0.076198	-0.077489	-0.012113	26.5039	-0.075855	-0.485927	0.024927	NaN
505	1.000000	1.072466	7.37e+06	-51839.1	1005.82	-29751	0.000000	0.000000	7.073170	-0.022589	NaN	0.000000	0.001546	0.001722	28.0829	0.071152	0.001916	37.1437	53.9026	13.3698	0.044248	1.071093	-0.066186	-0.067558	-0.022589	37.1437	-0.065730	-0.261075	0.086522	NaN
505	1.000000	1.082454	7.37e+06	-51839.1	1005.82	-29751	0.000000	0.000000	7.083160	0.035810	NaN	0.000000	0.001578	0.001704	28.083	0.099119	0.002123	46.6899	59.1984	-164.421	0.062035	1.081176	-0.056198	-0.057475	0.035810	46.6899	-0.056773	-0.145207	-0.246615	NaN
505	1.000000	1.092486	7.37e+06	-51839.1	1005.82	-29751	0.000000	0.000000	7.093187	-0.087746	NaN	0.000000	0.001547	0.001734	28.0827	0.070559	0.002055	34.342	151.559	15.3054	-0.032344	1.091156	-0.046166	-0.047495	-0.087746	34.342	-0.044249	-0.060959	1.439430	NaN
505	1.000000	1.102491	7.37e+06	-51839.1	1005.82	-29751	0.000000	0.000000	7.103197	0.029348	NaN	0.000000	0.001496	0.001733	28.0827	0.056212	0.001949	28.8427	20.8032	-166.031	0.034531	1.101165	-0.036161	-0.037487	0.029348	28.8427	-0.036924	-0.036525	-0.803508	NaN
505	1.000000	1.112469	7.37e+06	-51839.1	1005.82	-29751	0.000000	0.000000	7.113173	-0.017108	NaN	0.000000	0.001554	0.001745	28.0828	0.129194	0.002055	62.8626	36.6008	15.0345	-0.041492	1.111107	-0.026183	-0.027545	-0.017108	62.8626	-0.025979	-0.017899	0.955778	NaN
505	1.000000	1.122500	7.37e+06	-51839.1	1005.82	-29751	0.000000	0.000000	7.123207	0.059012	NaN	0.000000	0.001552	0.001741	28.0829	0.040097	0.001979	20.264	94.5714	-168.824	0.103444	1.121219	-0.016151	-0.017432	0.059012	20.264	-0.018335	-0.011388	-5.182018	NaN
505	1.000000	1.132499	7.37e+06	-51839.1	1005.82	-29751	0.000000	0.000000	7.133204	-0.015987	NaN	0.000000	0.001552	0.001756	28.0829	0.029366	0.001888	15.5546	-5.081526	16.0474	0.032257	1.131048	-0.006152	-0.007603	-0.015987	15.5546	-0.005381	-0.003655	4.374277	NaN
505	1.000000	1.142473	7.37e+06	-51839.1	1005.82	-29751	0.000000	0.000000	7.143238	1.440663	NaN	0.000000	0.001537	0.001741	28.0829	2.118107	0.001729	1224.8	6.993678	-164.596	0.368159	1.141174	0.003822	0.002523	1.440663	1224.8	0.002940	0.002329	618.509	23186.2
505	2.000000	1.149608	7.37e+06	-51839.1	1005.82	-29751	0.000000	0.000000	7.150654	8.300374	NaN	0.000000	0.001533	0.001726	28.083	8.954563	0.001486	6024.2	4.221155	6.945892	7.762758	1.149225	0.010957	0.010573	8.300374	6024.2	0.009923	0.009096	912.493	57708.3
505	2.000000	1.152065	7.37e+06	-51839.1	1005.82	-29751	0.000000	0.000000	7.153289	12.6241	NaN	0.000000	0.001556	0.001725	28.0828	12.7319	0.001781	7148.7	3.758074	-172.451	12.0263	1.151761	0.013414	0.013109	12.6241	7148.7	0.012089	0.011597	1088.52	60648.5
505	2.000000	1.154564	7.37e+06	-51839.1	1005.82	-29751	0.000000	0.000000	7.155887	15.0253	NaN	0.000000	0.001531	0.001731	28.0828	14.9417	0.001718	8699.4	7.331999	2.753264	14.1593	1.154212	0.015913	0.015560	15.0253	8699.4	0.014618	0.014779	1016.68	65379.7
505	2.000000	1.157034	7.37e+06	-51839.1	1005.82	-29751	0.000000	0.000000	7.158592	20.7357	NaN	0.000000	0.001525	0.001701	28.0826	16.6699	0.001770	9415.72	6.357354	-176.492	20.2979	1.156709	0.018383	0.018058	20.7357	9415.72	0.016731	0.017663	1173.95	64728
505	2.000000	1.159493	7.37e+06	-51839.1	1005.82	-29751	0.000000	0.000000	7.161217	24.7742	NaN	0.000000	0.001570	0.001723	28.0827	19.702	0.001739	11331.5	4.078645	3.591784	22.6639	1.159146	0.020842	0.020495	24.7742	11331.5	0.019202	0.021304	1162.9	70930.3
505	2.000000	1.161995	7.37e+06	-51839.1	1005.82	-29751	0.000000	0.000000	7.163856	28.1111	NaN	0.000000	0.001555	0.001739	28.0816	22.7781	0.001870	12183.6	8.970512	178.969	26.6284	1.161712	0.023344	0.023060	28.1111	12183.6	0.021613	0.025141	1118.13	70202.8
505	2.000000	1.164483	7.37e+06	-51839.1	1005.82	-29751	0.000000	0.000000	7.166592	34.1404	NaN	0.000000	0.001524	0.001720	28.0817	25.4267	0.001803	14102	9.812808	-2.875230	32.5775	1.164124	0.025832	0.025472	34.1404	14102	0.024016	0.029250	1167.2	75334.2
505	2.000000	1.167057	7.37e+06	-51839.1	1005.82	-29751	0.000000	0.000000	7.169424	40.414	NaN	0.000000	0.001552	0.001725	28.0815	27.4089	0.001722	15916.9	7.694256	177.795	41.6767	1.166670	0.028405	0.028019	40.414	15916.9	0.026501	0.033803	1195.58	79096
505	2.000000	1.169444	7.37e+06	-51839.1	1005.82	-29751	0.000000	0.000000	7.172133	48.229	NaN	0.000000	0.001570	0.001714	28.0815	29.9652	0.001723	17388.4	3.761637	0.093569	46.0693	1.169093	0.030793	0.030442	48.229	17388.4	0.028713	0.038118	1265.25	81370.3
505	2.000000	1.171984	7.37e+06	-51839.1	1005.82	-29751	0.000000	0.000000	7.174845	52.4227	NaN	0.000000	0.001508	0.001701	28.0811	33.6931	0.001801	18712.6	7.009410	176.784	52.2825	1.171686	0.033333	0.033035	52.4227	18712.6	0.031232	0.043336	1209.68	82126.3
505	2.000000	1.174519	7.37e+06	-51839.1	1005.82	-29751	0.000000	0.000000	7.177795	62.507	NaN	0.000000	0.001538	0.001735	28.0817	35.1385	0.001865	18841	4.280318	0.447889	61.0753	1.174124	0.035868	0.035473	62.507	18841	0.033380	0.048040	1301.13	78536.9
505	2.000000	1.176955	7.37e+06	-51839.1	1005.82	-29751	0.000000	0.000000	7.180554	70.3681	NaN	0.000000	0.001531	0.001704	28.0817	37.9998	0.001771	21451.8	8.016248	175.261	69.5798	1.176667	0.038304	0.038016	70.3681	21451.8	0.035843	0.053728	1309.7	84554.2
505	2.000000	1.179436	7.37e+06	-51839.1	1005.82	-29751	0.000000	0.000000	7.183325	77.4243	NaN	0.000000	0.001532	0.001675	28.0815	40.3563	0.001798	22444.7	4.791599	-2.625211	74.8312	1.179088	0.040785	0.040437	77.4243	22444.7	0.038197	0.059453	1302.28	84100.9
505	2.000000	1.181979	7.37e+06	-51839.1	1005.82	-29751	0.000000	0.000000	7.186279	87.4063	NaN	0.000000	0.001515	0.001708	28.0817	42.8018	0.001785	23977.1	6.432619	175.481	86.897	1.181607	0.043328	0.042956	87.4063	23977.1	0.040593	0.065571	1333	85548.6
505	2.000000	1.184483	7.37e+06	-51839.1	1005.82	-29751	0.000000	0.000000	7.189201	97.5656	NaN	0.000000	0.001514	0.001713	28.0815	44.7869	0.001813	24709.3	6.933397	-4.363804	96.442	1.184111	0.045832	0.045460	97.5656	24709.3	0.042871	0.071657	1361.56	84334.2
505	2.000000	1.186939	7.37e+06	-51839.1	1005.82	-29751	0.000000	0.000000	7.192024	106.504	NaN	0.000000	0.001526	0.001731	28.0822	46.5907	0.001866	24971.5	3.999796	178.622	106.13	1.186690	0.048288	0.048039	106.504	24971.5	0.045089	0.077841	1368.22	81773.8
505	2.000000	1.189395	7.37e+06	-51839.1	1005.82	-29751	0.000000	0.000000	7.194935	117.564	NaN	0.000000	0.001492	0.001690	28.0814	49.632	0.001743	28480.4	3.962429	-3.462731	113.881	1.189065	0.050744	0.050414	117.564	28480.4	0.047648	0.085281	1378.54	89103.1
505	2.000000	1.191899	7.37e+06	-51839.1	1005.82	-29751	0.000000	0.000000	7.197854	127.652	NaN	0.000000	0.001536	0.001682	28.0817	52.9539	0.001756	30163.4	1.952828	177.508	123.776	1.191615	0.053248	0.052964	127.652	30163.4	0.050074	0.092641	1377.93	90542.4
505	2.000000	1.194466	7.37e+06	-51839.1	1005.82	-29751	0.000000	0.000000	7.200858	138.285	NaN	0.000000	0.001519	0.001731	28.0828	54.6568	0.001835	29783.5	3.609732	-2.576890	135.959	1.194113	0.055815	0.055462	138.285	29783.5	0.052333	0.099760	1386.18	86153.2
505	2.000000	1.196881	7.37e+06	-51839.1	1005.82	-29751	0.000000	0.000000	7.203886	153.189	NaN	0.000000	0.001506	0.001718	28.0828	56.8277	0.001714	33156	4.317774	174.73	149.367	1.196550	0.058230	0.057899	153.189	33156	0.054764	0.107707	1422.28	92302.5
505	2.000000	1.199440	7.37e+06	-51839.1	1005.82	-29751	0.000000	0.000000	7.206751	160.629	NaN	0.000000	0.001563	0.001706	28.0825	60.5545	0.001766	34280.5	5.367118	-6.347141	160.409	1.198974	0.060789	0.060323	160.629	34280.5	0.057274	0.116217	1382.15	91872.8
505	2.000000	1.201862	7.37e+06	-51839.1	1005.82	-29751	0.000000	0.000000	7.209811	176.129	NaN	0.000000	0.001570	0.001730	28.0828	63.3815	0.001946	32565.3	4.136797	174.78	172.002	1.201626	0.063211	0.062974	176.129	32565.3	0.059155	0.122794	1434.35	84906.2
505	2.000000	1.204493	7.37e+06	-51839.1	1005.82	-29751	0.000000	0.000000	7.212829	185.546	NaN	0.000000	0.001559	0.001748	28.0829	65.5196	0.001861	35202.6	7.144394	-7.739900	186.672	1.203968	0.065842	0.065317	185.546	35202.6	0.061889	0.132667	1398.58	88301.1
505	2.000000	1.206865	7.37e+06	-51839.1	1005.82	-29751	0.000000	0.000000	7.215798	200.067	NaN	0.000000	0.001534	0.001716	28.0825	66.9553	0.001868	35833.9	4.597852	174.041	195.48	1.206631	0.068213	0.067980	200.067	35833.9	0.064026	0.140639	1422.55	87299.9
505	2.000000	1.209428	7.37e+06	-51839.1	1005.82	-29751	0.000000	0.000000	7.219081	217.593	NaN	0.000000	0.001561	0.001741	28.0826	69.3855	0.001878	36950.3	4.621073	-5.953479	216.385	1.208977	0.070776	0.070325	217.593	36950.3	0.066360	0.149595	1454.55	87283.6
505	2.000000	1.211854	7.37e+06	-51839.1	1005.82	-29751	0.000000	0.000000	7.222078	231.451	NaN	0.000000	0.001549	0.001776	28.083	72.4923	0.001778	40770.2	6.434898	169.786	227.877	1.211646	0.073203	0.072995	231.451	40770.2	0.068945	0.159824	1448.16	93173.9
505	2.000000	1.214443	7.37e+06	-51839.1	1005.82	-29751	0.000000	0.000000	7.225313	247.166	NaN	0.000000	0.001529	0.001767	28.0829	73.8655	0.001832	40309.7	6.364328	-8.554336	245.765	1.213976	0.075792	0.075325	247.166	40309.7	0.071193	0.168975	1462.74	89592.3
505	2.000000	1.216844	7.37e+06	-51839.1	1005.82	-29751	0.000000	0.000000	7.228358	262.832	NaN	0.000000	0.001550	0.001732	28.0827	74.9118	0.001739	43071.3	4.036329	172.359	258.728	1.216526	0.078193	0.077875	262.832	43071.3	0.073616	0.179107	1467.46	92983.2
505	2.000000	1.219408	7.37e+06	-51839.1	1005.82	-29751	0.000000	0.000000	7.231339	272.973	NaN	0.000000	0.001604	0.001708	28.0827	77.4692	0.001676	46214.4	1.452820	-5.178897	270.357	1.219039	0.080757	0.080388	272.973	46214.4	0.076327	0.190771	1430.89	96670.4
505	2.000000	1.221915	7.37e+06	-51839.1	1005.82	-29751	0.000000	0.000000	7.234409	286.664	NaN	0.000000	0.001604	0.001747	28.0827	81.4084	0.001812	44921.5	2.389749	174.416	284.683	1.221716	0.083263	0.083064	286.664	44921.5	0.078477	0.200272	1431.37	91710.1
505	2.000000	1.224456	7.37e+06	-51839.1	1005.82	-29751	0.000000	0.000000	7.237714	305.228	NaN	0.000000	0.001636	0.001708	28.0831	82.8707	0.001780	46563.2	4.147941	-7.342007	305.158	1.224154	0.085805	0.085503	305.228	46563.2	0.080888	0.211179	1445.35	92574.2
505	2.000000	1.226882	7.37e+06	-51839.1	1005.82	-29751	0.000000	0.000000	7.241095	328.446	NaN	0.000000	0.001567	0.001709	28.0827	85.0848	0.001751	48599.9	5.343735	170.576	326.257	1.226516	0.088231	0.087864	328.446	48599.9	0.083162	0.221713	1481.4	94300.3
505	2.000000	1.229250	7.37e+06	-51839.1	1005.82	-29751	0.000000	0.000000	7.244026	342.151	NaN	0.000000	0.001547	0.001722	28.0814	86.1183	0.001662	51811.9	1.873405	-6.548947	330.364	1.228955	0.090599	0.090303	342.151	51811.9	0.085646	0.233494	1465.36	97963.8
505	2.000000	1.231920	7.37e+06	-51839.1	1005.82	-29751	0.000000	0.000000	7.247576	363.555	NaN	0.000000	0.001523	0.001738	28.0814	90.7298	0.001776	51075.8	4.174115	171.685	363.073	1.231666	0.093268	0.093014	363.555	51075.8	0.087930	0.244576	1486.47	94358.5
505	2.000000	1.234359	7.37e+06	-51839.1	1005.82	-29751	0.000000	0.000000	7.250856	384.003	NaN	0.000000	0.001530	0.001720	28.0814	92.0888	0.001845	49924	2.901089	-6.873344	379.261	1.234054	0.095707	0.095403	384.003	49924	0.089938	0.254522	1508.72	90410.8
505	2.000000	1.236884	7.37e+06	-51839.1	1005.82	-29751	0.000000	0.000000	7.254431	409.512	NaN	0.000000	0.001557	0.001743	28.0814	94.2447	0.001754	53742.3	5.953985	168.79	407.723	1.236538	0.098233	0.097886	409.512	53742.3	0.092518	0.267566	1530.51	94923.7
505	2.000000	1.239316	7.37e+06	-51839.1	1005.82	-29751	0.000000	0.000000	7.257577	426.869	NaN	0.000000	0.001517	0.001727	28.0814	97.3328	0.001787	54458.9	6.290017	-10.9093	422.094	1.239028	0.100665	0.100377	426.869	54458.9	0.094786	0.279286	1528.43	94149.3
505	2.000000	1.241857	7.37e+06	-51839.1	1005.82	-29751	0.000000	0.000000	7.261126	451.38	NaN	0.000000	0.001533	0.001651	28.0817	100.85	0.001936	52095.3	3.523439	172.644	447.034	1.241508	0.103206	0.102857	451.38	52095.3	0.096708	0.289400	1559.71	88475.4
505	2.000000	1.244311	7.37e+06	-51839.1	1005.82	-29751	0.000000	0.000000	7.264428	472.026	NaN	0.000000	0.001551	0.001718	28.0814	102.06	0.001802	56625.2	4.994431	-9.543925	463.996	1.243890	0.105660	0.105239	472.026	56625.2	0.099408	0.303894	1553.26	93847.2
505	2.000000	1.246842	7.37e+06	-51839.1	1005.82	-29751	0.000000	0.000000	7.267894	494.74	NaN	0.000000	0.001555	0.001753	28.0814	104.627	0.001761	59403.2	4.802138	169.387	491.628	1.246621	0.108191	0.107969	494.74	59403.2	0.101945	0.317817	1556.68	96270.8